Condition,Low fixed image (Door1),Low risky image (Door2),High fixed image (Door3),High risky image (Door4),Extreme Wild Card,NonExtreme Wild Card,,date,expName,psychopyVersion,OS,frameRate,PROLIFIC_PID,STUDY_ID,SESSION_ID,mouse_2.x,mouse_2.y,mouse_2.leftButton,mouse_2.midButton,mouse_2.rightButton,mouse_2.clicked_name,Trial Type,Left Option Image,Right Option Image,Chosen Door,mouse.x,mouse.y,mouse.leftButton,mouse.midButton,mouse.rightButton,mouse.time,mouse.clicked_name,Feedback,Cumulative Reward,Block,trial.thisRepN,trial.thisTrialN,trial.thisN,trial.thisIndex,trial.ran,blocks.thisRepN,blocks.thisTrialN,blocks.thisN,blocks.thisIndex,blocks.ran,Money conversion,First Outcome Reported,Shown Door (First Outcome),Displayed Image (First Outcome),outcomes.thisRepN,outcomes.thisTrialN,outcomes.thisN,outcomes.thisIndex,outcomes.ran,judgments.thisRepN,judgments.thisTrialN,judgments.thisN,judgments.thisIndex,judgments.ran,freqMouse.x,freqMouse.y,freqMouse.leftButton,freqMouse.midButton,freqMouse.rightButton,freqMouse.clicked_name,FQJ for first outcome,FQJ for second outcome,Shown Door,Displayed Image,trials.thisRepN,trials.thisTrialN,trials.thisN,trials.thisIndex,trials.ran,judgBlock.thisRepN,judgBlock.thisTrialN,judgBlock.thisN,judgBlock.thisIndex,judgBlock.ran
0,resources/DR.BMP,resources/DBN.BMP,resources/DB.BMP,resources/DY.BMP,resources/DP.BMP,resources/DG.BMP,,2023-08-16_08h21.41.317,HF_wild_card,2022.2.4,Win32,60.0024001,631193fff8094698c07c9ef6,64d2fd46c836a06233681665,64dc78f7e0ad25fbb7c4939a,,,,,,,,,,,,,,,,,,,,,,,,,,,,,,,,,,,,,,,,,,,,,,,,,,,,,,,,,,,,,,,,
,,,,,,,,2023-08-16_08h21.41.317,HF_wild_card,2022.2.4,Win32,60.0024001,631193fff8094698c07c9ef6,64d2fd46c836a06233681665,64dc78f7e0ad25fbb7c4939a,0.028703704,-0.423148148,1,0,0,agree,,,,,,,,,,,,,,,,,,,,,,,,,,,,,,,,,,,,,,,,,,,,,,,,,,,,,,,,,,
,,,,,,,,2023-08-16_08h21.41.317,HF_wild_card,2022.2.4,Win32,60.0024001,631193fff8094698c07c9ef6,64d2fd46c836a06233681665,64dc78f7e0ad25fbb7c4939a,,,,,,,,,,,,,,,,,,,,,,,,,,,,,,,,,,,,,,,,,,,,,,,,,,,,,,,,,,,,,,,,
,,,,,,,,2023-08-16_08h21.41.317,HF_wild_card,2022.2.4,Win32,60.0024001,631193fff8094698c07c9ef6,64d2fd46c836a06233681665,64dc78f7e0ad25fbb7c4939a,,,,,,,sngl,resources/Empty.png,resources/DP.BMP,WildCard_Ex,0.451851852,-0.05,1,0,0,1.9502,optionRight,95,95,1,0,0,0,0,1,,,,,,,,,,,,,,,,,,,,,,,,,,,,,,,,,,,,,,,
,,,,,,,,2023-08-16_08h21.41.317,HF_wild_card,2022.2.4,Win32,60.0024001,631193fff8094698c07c9ef6,64d2fd46c836a06233681665,64dc78f7e0ad25fbb7c4939a,,,,,,,decisionTrl,resources/DBN.BMP,resources/DP.BMP,WildCard_Ex,0.317592593,-0.009259259,1,0,0,1.3282,optionRight,5,100,1,1,0,1,0,1,,,,,,,,,,,,,,,,,,,,,,,,,,,,,,,,,,,,,,,
,,,,,,,,2023-08-16_08h21.41.317,HF_wild_card,2022.2.4,Win32,60.0024001,631193fff8094698c07c9ef6,64d2fd46c836a06233681665,64dc78f7e0ad25fbb7c4939a,,,,,,,ctch,resources/DY.BMP,resources/DR.BMP,Door4,-0.328703704,-0.016666667,1,0,0,0.8985,optionLeft,80,180,1,2,0,2,0,1,,,,,,,,,,,,,,,,,,,,,,,,,,,,,,,,,,,,,,,
,,,,,,,,2023-08-16_08h21.41.317,HF_wild_card,2022.2.4,Win32,60.0024001,631193fff8094698c07c9ef6,64d2fd46c836a06233681665,64dc78f7e0ad25fbb7c4939a,,,,,,,sngl,resources/Empty.png,resources/DBN.BMP,Door2,0.339814815,0.038888889,1,0,0,0.645,optionRight,20,200,1,3,0,3,0,1,,,,,,,,,,,,,,,,,,,,,,,,,,,,,,,,,,,,,,,
,,,,,,,,2023-08-16_08h21.41.317,HF_wild_card,2022.2.4,Win32,60.0024001,631193fff8094698c07c9ef6,64d2fd46c836a06233681665,64dc78f7e0ad25fbb7c4939a,,,,,,,sngl,resources/DBN.BMP,resources/Empty.png,Door2,-0.338888889,0.032407407,1,0,0,0.682,optionLeft,40,240,1,4,0,4,0,1,,,,,,,,,,,,,,,,,,,,,,,,,,,,,,,,,,,,,,,
,,,,,,,,2023-08-16_08h21.41.317,HF_wild_card,2022.2.4,Win32,60.0024001,631193fff8094698c07c9ef6,64d2fd46c836a06233681665,64dc78f7e0ad25fbb7c4939a,,,,,,,sngl,resources/DB.BMP,resources/Empty.png,Door3,-0.380555556,0.028703704,1,0,0,0.4988,optionLeft,70,310,1,5,0,5,0,1,,,,,,,,,,,,,,,,,,,,,,,,,,,,,,,,,,,,,,,
,,,,,,,,2023-08-16_08h21.41.317,HF_wild_card,2022.2.4,Win32,60.0024001,631193fff8094698c07c9ef6,64d2fd46c836a06233681665,64dc78f7e0ad25fbb7c4939a,,,,,,,decisionTrl,resources/DB.BMP,resources/DY.BMP,Door4,0.387962963,0.012962963,1,0,0,1.0153,optionRight,60,370,1,6,0,6,0,1,,,,,,,,,,,,,,,,,,,,,,,,,,,,,,,,,,,,,,,
,,,,,,,,2023-08-16_08h21.41.317,HF_wild_card,2022.2.4,Win32,60.0024001,631193fff8094698c07c9ef6,64d2fd46c836a06233681665,64dc78f7e0ad25fbb7c4939a,,,,,,,ctch,resources/DB.BMP,resources/DBN.BMP,Door3,-0.317592593,-0.014814815,1,0,0,0.5988,optionLeft,70,440,1,7,0,7,0,1,,,,,,,,,,,,,,,,,,,,,,,,,,,,,,,,,,,,,,,
,,,,,,,,2023-08-16_08h21.41.317,HF_wild_card,2022.2.4,Win32,60.0024001,631193fff8094698c07c9ef6,64d2fd46c836a06233681665,64dc78f7e0ad25fbb7c4939a,,,,,,,ctch,resources/DR.BMP,resources/DY.BMP,Door4,0.310185185,-0.005555556,1,0,0,0.6666,optionRight,60,500,1,8,0,8,0,1,,,,,,,,,,,,,,,,,,,,,,,,,,,,,,,,,,,,,,,
,,,,,,,,2023-08-16_08h21.41.317,HF_wild_card,2022.2.4,Win32,60.0024001,631193fff8094698c07c9ef6,64d2fd46c836a06233681665,64dc78f7e0ad25fbb7c4939a,,,,,,,decisionTrl,resources/DB.BMP,resources/DY.BMP,Door4,0.35,0,1,0,0,0.6496,optionRight,60,560,1,9,0,9,0,1,,,,,,,,,,,,,,,,,,,,,,,,,,,,,,,,,,,,,,,
,,,,,,,,2023-08-16_08h21.41.317,HF_wild_card,2022.2.4,Win32,60.0024001,631193fff8094698c07c9ef6,64d2fd46c836a06233681665,64dc78f7e0ad25fbb7c4939a,,,,,,,decisionTrl,resources/DR.BMP,resources/DBN.BMP,Door2,0.47037037,-0.005555556,1,0,0,0.8189,optionRight,20,580,1,10,0,10,0,1,,,,,,,,,,,,,,,,,,,,,,,,,,,,,,,,,,,,,,,
,,,,,,,,2023-08-16_08h21.41.317,HF_wild_card,2022.2.4,Win32,60.0024001,631193fff8094698c07c9ef6,64d2fd46c836a06233681665,64dc78f7e0ad25fbb7c4939a,,,,,,,sngl,resources/DY.BMP,resources/Empty.png,Door4,-0.311111111,0.001851852,1,0,0,0.6154,optionLeft,80,660,1,11,0,11,0,1,,,,,,,,,,,,,,,,,,,,,,,,,,,,,,,,,,,,,,,
,,,,,,,,2023-08-16_08h21.41.317,HF_wild_card,2022.2.4,Win32,60.0024001,631193fff8094698c07c9ef6,64d2fd46c836a06233681665,64dc78f7e0ad25fbb7c4939a,,,,,,,ctch,resources/DBN.BMP,resources/DB.BMP,Door3,0.360185185,-0.022222222,1,0,0,0.7456,optionRight,70,730,1,12,0,12,0,1,,,,,,,,,,,,,,,,,,,,,,,,,,,,,,,,,,,,,,,
,,,,,,,,2023-08-16_08h21.41.317,HF_wild_card,2022.2.4,Win32,60.0024001,631193fff8094698c07c9ef6,64d2fd46c836a06233681665,64dc78f7e0ad25fbb7c4939a,,,,,,,decisionTrl,resources/DB.BMP,resources/DY.BMP,Door4,0.44537037,0.000925926,1,0,0,0.5852,optionRight,60,790,1,13,0,13,0,1,,,,,,,,,,,,,,,,,,,,,,,,,,,,,,,,,,,,,,,
,,,,,,,,2023-08-16_08h21.41.317,HF_wild_card,2022.2.4,Win32,60.0024001,631193fff8094698c07c9ef6,64d2fd46c836a06233681665,64dc78f7e0ad25fbb7c4939a,,,,,,,ctch,resources/DBN.BMP,resources/DB.BMP,Door3,0.471296296,0.024074074,1,0,0,0.502,optionRight,70,860,1,14,0,14,0,1,,,,,,,,,,,,,,,,,,,,,,,,,,,,,,,,,,,,,,,
,,,,,,,,2023-08-16_08h21.41.317,HF_wild_card,2022.2.4,Win32,60.0024001,631193fff8094698c07c9ef6,64d2fd46c836a06233681665,64dc78f7e0ad25fbb7c4939a,,,,,,,decisionTrl,resources/DB.BMP,resources/DY.BMP,Door3,-0.322222222,0.000925926,1,0,0,0.6656,optionLeft,70,930,1,15,0,15,0,1,,,,,,,,,,,,,,,,,,,,,,,,,,,,,,,,,,,,,,,
,,,,,,,,2023-08-16_08h21.41.317,HF_wild_card,2022.2.4,Win32,60.0024001,631193fff8094698c07c9ef6,64d2fd46c836a06233681665,64dc78f7e0ad25fbb7c4939a,,,,,,,sngl,resources/Empty.png,resources/DB.BMP,Door3,0.37962963,0.022222222,1,0,0,0.5011,optionRight,70,1000,1,16,0,16,0,1,,,,,,,,,,,,,,,,,,,,,,,,,,,,,,,,,,,,,,,
,,,,,,,,2023-08-16_08h21.41.317,HF_wild_card,2022.2.4,Win32,60.0024001,631193fff8094698c07c9ef6,64d2fd46c836a06233681665,64dc78f7e0ad25fbb7c4939a,,,,,,,ctch,resources/DY.BMP,resources/DR.BMP,Door4,-0.30462963,0.006481481,1,0,0,0.7493,optionLeft,80,1080,1,17,0,17,0,1,,,,,,,,,,,,,,,,,,,,,,,,,,,,,,,,,,,,,,,
,,,,,,,,2023-08-16_08h21.41.317,HF_wild_card,2022.2.4,Win32,60.0024001,631193fff8094698c07c9ef6,64d2fd46c836a06233681665,64dc78f7e0ad25fbb7c4939a,,,,,,,decisionTrl,resources/DP.BMP,resources/DY.BMP,WildCard_Ex,-0.3,-0.012037037,1,0,0,0.8494,optionLeft,5,1085,1,18,0,18,0,1,,,,,,,,,,,,,,,,,,,,,,,,,,,,,,,,,,,,,,,
,,,,,,,,2023-08-16_08h21.41.317,HF_wild_card,2022.2.4,Win32,60.0024001,631193fff8094698c07c9ef6,64d2fd46c836a06233681665,64dc78f7e0ad25fbb7c4939a,,,,,,,decisionTrl,resources/DP.BMP,resources/DR.BMP,Door1,0.346296296,0.003703704,1,0,0,0.9656,optionRight,30,1115,1,19,0,19,0,1,,,,,,,,,,,,,,,,,,,,,,,,,,,,,,,,,,,,,,,
,,,,,,,,2023-08-16_08h21.41.317,HF_wild_card,2022.2.4,Win32,60.0024001,631193fff8094698c07c9ef6,64d2fd46c836a06233681665,64dc78f7e0ad25fbb7c4939a,,,,,,,decisionTrl,resources/DP.BMP,resources/DBN.BMP,Door2,0.383333333,0.036111111,1,0,0,0.852,optionRight,40,1155,1,20,0,20,0,1,,,,,,,,,,,,,,,,,,,,,,,,,,,,,,,,,,,,,,,
,,,,,,,,2023-08-16_08h21.41.317,HF_wild_card,2022.2.4,Win32,60.0024001,631193fff8094698c07c9ef6,64d2fd46c836a06233681665,64dc78f7e0ad25fbb7c4939a,,,,,,,decisionTrl,resources/DR.BMP,resources/DBN.BMP,Door2,0.328703704,0.10462963,1,0,0,1.2154,optionRight,20,1175,1,21,0,21,0,1,,,,,,,,,,,,,,,,,,,,,,,,,,,,,,,,,,,,,,,
,,,,,,,,2023-08-16_08h21.41.317,HF_wild_card,2022.2.4,Win32,60.0024001,631193fff8094698c07c9ef6,64d2fd46c836a06233681665,64dc78f7e0ad25fbb7c4939a,,,,,,,decisionTrl,resources/DR.BMP,resources/DBN.BMP,Door1,-0.390740741,-0.005555556,1,0,0,0.7322,optionLeft,30,1205,1,22,0,22,0,1,,,,,,,,,,,,,,,,,,,,,,,,,,,,,,,,,,,,,,,
,,,,,,,,2023-08-16_08h21.41.317,HF_wild_card,2022.2.4,Win32,60.0024001,631193fff8094698c07c9ef6,64d2fd46c836a06233681665,64dc78f7e0ad25fbb7c4939a,,,,,,,sngl,resources/Empty.png,resources/DR.BMP,Door1,0.408333333,0.000925926,1,0,0,0.5524,optionRight,30,1235,1,23,0,23,0,1,,,,,,,,,,,,,,,,,,,,,,,,,,,,,,,,,,,,,,,
,,,,,,,,2023-08-16_08h21.41.317,HF_wild_card,2022.2.4,Win32,60.0024001,631193fff8094698c07c9ef6,64d2fd46c836a06233681665,64dc78f7e0ad25fbb7c4939a,,,,,,,decisionTrl,resources/DR.BMP,resources/DBN.BMP,Door1,-0.346296296,0.007407407,1,0,0,0.9486,optionLeft,30,1265,1,24,0,24,0,1,,,,,,,,,,,,,,,,,,,,,,,,,,,,,,,,,,,,,,,
,,,,,,,,2023-08-16_08h21.41.317,HF_wild_card,2022.2.4,Win32,60.0024001,631193fff8094698c07c9ef6,64d2fd46c836a06233681665,64dc78f7e0ad25fbb7c4939a,,,,,,,sngl,resources/DP.BMP,resources/Empty.png,WildCard_Ex,-0.42037037,0.044444444,1,0,0,0.5356,optionLeft,95,1360,1,25,0,25,0,1,,,,,,,,,,,,,,,,,,,,,,,,,,,,,,,,,,,,,,,
,,,,,,,,2023-08-16_08h21.41.317,HF_wild_card,2022.2.4,Win32,60.0024001,631193fff8094698c07c9ef6,64d2fd46c836a06233681665,64dc78f7e0ad25fbb7c4939a,,,,,,,decisionTrl,resources/DBN.BMP,resources/DR.BMP,Door1,0.343518519,0.022222222,1,0,0,1.1454,optionRight,30,1390,1,26,0,26,0,1,,,,,,,,,,,,,,,,,,,,,,,,,,,,,,,,,,,,,,,
,,,,,,,,2023-08-16_08h21.41.317,HF_wild_card,2022.2.4,Win32,60.0024001,631193fff8094698c07c9ef6,64d2fd46c836a06233681665,64dc78f7e0ad25fbb7c4939a,,,,,,,decisionTrl,resources/DBN.BMP,resources/DR.BMP,Door2,-0.24537037,0.015740741,1,0,0,0.7456,optionLeft,20,1410,1,27,0,27,0,1,,,,,,,,,,,,,,,,,,,,,,,,,,,,,,,,,,,,,,,
,,,,,,,,2023-08-16_08h21.41.317,HF_wild_card,2022.2.4,Win32,60.0024001,631193fff8094698c07c9ef6,64d2fd46c836a06233681665,64dc78f7e0ad25fbb7c4939a,,,,,,,decisionTrl,resources/DBN.BMP,resources/DR.BMP,Door1,0.415740741,0.02037037,1,0,0,0.6828,optionRight,30,1440,1,28,0,28,0,1,,,,,,,,,,,,,,,,,,,,,,,,,,,,,,,,,,,,,,,
,,,,,,,,2023-08-16_08h21.41.317,HF_wild_card,2022.2.4,Win32,60.0024001,631193fff8094698c07c9ef6,64d2fd46c836a06233681665,64dc78f7e0ad25fbb7c4939a,,,,,,,sngl,resources/DP.BMP,resources/Empty.png,WildCard_Ex,-0.364814815,-0.002777778,1,0,0,0.5966,optionLeft,5,1445,1,29,0,29,0,1,,,,,,,,,,,,,,,,,,,,,,,,,,,,,,,,,,,,,,,
,,,,,,,,2023-08-16_08h21.41.317,HF_wild_card,2022.2.4,Win32,60.0024001,631193fff8094698c07c9ef6,64d2fd46c836a06233681665,64dc78f7e0ad25fbb7c4939a,,,,,,,decisionTrl,resources/DP.BMP,resources/DB.BMP,Door3,0.351851852,0.037962963,1,0,0,0.6657,optionRight,70,1515,1,30,0,30,0,1,,,,,,,,,,,,,,,,,,,,,,,,,,,,,,,,,,,,,,,
,,,,,,,,2023-08-16_08h21.41.317,HF_wild_card,2022.2.4,Win32,60.0024001,631193fff8094698c07c9ef6,64d2fd46c836a06233681665,64dc78f7e0ad25fbb7c4939a,,,,,,,sngl,resources/Empty.png,resources/DY.BMP,Door4,0.362962963,0.003703704,1,0,0,0.5154,optionRight,60,1575,1,31,0,31,0,1,,,,,,,,,,,,,,,,,,,,,,,,,,,,,,,,,,,,,,,
,,,,,,,,2023-08-16_08h21.41.317,HF_wild_card,2022.2.4,Win32,60.0024001,631193fff8094698c07c9ef6,64d2fd46c836a06233681665,64dc78f7e0ad25fbb7c4939a,,,,,,,decisionTrl,resources/DY.BMP,resources/DB.BMP,Door4,-0.355555556,-0.000925926,1,0,0,0.8489,optionLeft,80,1655,1,32,0,32,0,1,,,,,,,,,,,,,,,,,,,,,,,,,,,,,,,,,,,,,,,
,,,,,,,,2023-08-16_08h21.41.317,HF_wild_card,2022.2.4,Win32,60.0024001,631193fff8094698c07c9ef6,64d2fd46c836a06233681665,64dc78f7e0ad25fbb7c4939a,,,,,,,decisionTrl,resources/DY.BMP,resources/DB.BMP,Door4,-0.292592593,-0.006481481,1,0,0,0.5979,optionLeft,80,1735,1,33,0,33,0,1,,,,,,,,,,,,,,,,,,,,,,,,,,,,,,,,,,,,,,,
,,,,,,,,2023-08-16_08h21.41.317,HF_wild_card,2022.2.4,Win32,60.0024001,631193fff8094698c07c9ef6,64d2fd46c836a06233681665,64dc78f7e0ad25fbb7c4939a,,,,,,,decisionTrl,resources/DY.BMP,resources/DP.BMP,Door4,-0.315740741,-0.007407407,1,0,0,0.929,optionLeft,60,1795,1,34,0,34,0,1,,,,,,,,,,,,,,,,,,,,,,,,,,,,,,,,,,,,,,,
,,,,,,,,2023-08-16_08h21.41.317,HF_wild_card,2022.2.4,Win32,60.0024001,631193fff8094698c07c9ef6,64d2fd46c836a06233681665,64dc78f7e0ad25fbb7c4939a,,,,,,,ctch,resources/DR.BMP,resources/DY.BMP,Door4,0.34537037,0.005555556,1,0,0,0.5788,optionRight,60,1855,1,35,0,35,0,1,,,,,,,,,,,,,,,,,,,,,,,,,,,,,,,,,,,,,,,
,,,,,,,,2023-08-16_08h21.41.317,HF_wild_card,2022.2.4,Win32,60.0024001,631193fff8094698c07c9ef6,64d2fd46c836a06233681665,64dc78f7e0ad25fbb7c4939a,,,,,,,decisionTrl,resources/DY.BMP,resources/DB.BMP,Door3,0.356481481,-0.009259259,1,0,0,0.8155,optionRight,70,1925,1,36,0,36,0,1,,,,,,,,,,,,,,,,,,,,,,,,,,,,,,,,,,,,,,,
,,,,,,,,2023-08-16_08h21.41.317,HF_wild_card,2022.2.4,Win32,60.0024001,631193fff8094698c07c9ef6,64d2fd46c836a06233681665,64dc78f7e0ad25fbb7c4939a,,,,,,,sngl,resources/Empty.png,resources/DP.BMP,WildCard_Ex,0.365740741,-0.023148148,1,0,0,0.4816,optionRight,5,1930,1,37,0,37,0,1,,,,,,,,,,,,,,,,,,,,,,,,,,,,,,,,,,,,,,,
,,,,,,,,2023-08-16_08h21.41.317,HF_wild_card,2022.2.4,Win32,60.0024001,631193fff8094698c07c9ef6,64d2fd46c836a06233681665,64dc78f7e0ad25fbb7c4939a,,,,,,,ctch,resources/DB.BMP,resources/DBN.BMP,Door3,-0.275925926,-0.009259259,1,0,0,0.7822,optionLeft,70,2000,1,38,0,38,0,1,,,,,,,,,,,,,,,,,,,,,,,,,,,,,,,,,,,,,,,
,,,,,,,,2023-08-16_08h21.41.317,HF_wild_card,2022.2.4,Win32,60.0024001,631193fff8094698c07c9ef6,64d2fd46c836a06233681665,64dc78f7e0ad25fbb7c4939a,,,,,,,decisionTrl,resources/DR.BMP,resources/DP.BMP,Door1,-0.373148148,-0.012962963,1,0,0,1.3122,optionLeft,30,2030,1,39,0,39,0,1,,,,,,,,,,,,,,,,,,,,,,,,,,,,,,,,,,,,,,,
,,,,,,,,2023-08-16_08h21.41.317,HF_wild_card,2022.2.4,Win32,60.0024001,631193fff8094698c07c9ef6,64d2fd46c836a06233681665,64dc78f7e0ad25fbb7c4939a,,,,,,,decisionTrl,resources/DB.BMP,resources/DP.BMP,Door3,-0.349074074,-0.005555556,1,0,0,0.6489,optionLeft,70,2100,1,40,0,40,0,1,,,,,,,,,,,,,,,,,,,,,,,,,,,,,,,,,,,,,,,
,,,,,,,,2023-08-16_08h21.41.317,HF_wild_card,2022.2.4,Win32,60.0024001,631193fff8094698c07c9ef6,64d2fd46c836a06233681665,64dc78f7e0ad25fbb7c4939a,,,,,,,decisionTrl,resources/DBN.BMP,resources/DR.BMP,Door2,-0.457407407,0.005555556,1,0,0,0.9624,optionLeft,20,2120,1,41,0,41,0,1,,,,,,,,,,,,,,,,,,,,,,,,,,,,,,,,,,,,,,,
,,,,,,,,2023-08-16_08h21.41.317,HF_wild_card,2022.2.4,Win32,60.0024001,631193fff8094698c07c9ef6,64d2fd46c836a06233681665,64dc78f7e0ad25fbb7c4939a,,,,,,,sngl,resources/DR.BMP,resources/Empty.png,Door1,-0.348148148,-0.006481481,1,0,0,0.5354,optionLeft,30,2150,1,42,0,42,0,1,,,,,,,,,,,,,,,,,,,,,,,,,,,,,,,,,,,,,,,
,,,,,,,,2023-08-16_08h21.41.317,HF_wild_card,2022.2.4,Win32,60.0024001,631193fff8094698c07c9ef6,64d2fd46c836a06233681665,64dc78f7e0ad25fbb7c4939a,,,,,,,decisionTrl,resources/DY.BMP,resources/DB.BMP,Door3,0.355555556,-0.012962963,1,0,0,0.8522,optionRight,70,2220,1,43,0,43,0,1,,,,,,,,,,,,,,,,,,,,,,,,,,,,,,,,,,,,,,,
,,,,,,,,2023-08-16_08h21.41.317,HF_wild_card,2022.2.4,Win32,60.0024001,631193fff8094698c07c9ef6,64d2fd46c836a06233681665,64dc78f7e0ad25fbb7c4939a,,,,,,,,,,,,,,,,,,,,,,,,,,0,0,0,0,1,,,,,,,,,,,,,,,,,,,,,,,,,,,,,,,,,,
,,,,,,,,2023-08-16_08h21.41.317,HF_wild_card,2022.2.4,Win32,60.0024001,631193fff8094698c07c9ef6,64d2fd46c836a06233681665,64dc78f7e0ad25fbb7c4939a,,,,,,,sngl,resources/Empty.png,resources/DP.BMP,WildCard_Ex,0.39537037,0.005555556,1,0,0,0.8124,optionRight,95,2315,2,0,0,0,0,1,,,,,,,,,,,,,,,,,,,,,,,,,,,,,,,,,,,,,,,
,,,,,,,,2023-08-16_08h21.41.317,HF_wild_card,2022.2.4,Win32,60.0024001,631193fff8094698c07c9ef6,64d2fd46c836a06233681665,64dc78f7e0ad25fbb7c4939a,,,,,,,decisionTrl,resources/DY.BMP,resources/DB.BMP,Door3,0.333333333,0.007407407,1,0,0,0.6856,optionRight,70,2385,2,1,0,1,0,1,,,,,,,,,,,,,,,,,,,,,,,,,,,,,,,,,,,,,,,
,,,,,,,,2023-08-16_08h21.41.317,HF_wild_card,2022.2.4,Win32,60.0024001,631193fff8094698c07c9ef6,64d2fd46c836a06233681665,64dc78f7e0ad25fbb7c4939a,,,,,,,decisionTrl,resources/DY.BMP,resources/DB.BMP,Door4,-0.311111111,0.000925926,1,0,0,0.6827,optionLeft,60,2445,2,2,0,2,0,1,,,,,,,,,,,,,,,,,,,,,,,,,,,,,,,,,,,,,,,
,,,,,,,,2023-08-16_08h21.41.317,HF_wild_card,2022.2.4,Win32,60.0024001,631193fff8094698c07c9ef6,64d2fd46c836a06233681665,64dc78f7e0ad25fbb7c4939a,,,,,,,sngl,resources/Empty.png,resources/DR.BMP,Door1,0.341666667,0.001851852,1,0,0,0.5654,optionRight,30,2475,2,3,0,3,0,1,,,,,,,,,,,,,,,,,,,,,,,,,,,,,,,,,,,,,,,
,,,,,,,,2023-08-16_08h21.41.317,HF_wild_card,2022.2.4,Win32,60.0024001,631193fff8094698c07c9ef6,64d2fd46c836a06233681665,64dc78f7e0ad25fbb7c4939a,,,,,,,decisionTrl,resources/DBN.BMP,resources/DP.BMP,Door2,-0.32962963,0.041666667,1,0,0,0.8319,optionLeft,20,2495,2,4,0,4,0,1,,,,,,,,,,,,,,,,,,,,,,,,,,,,,,,,,,,,,,,
,,,,,,,,2023-08-16_08h21.41.317,HF_wild_card,2022.2.4,Win32,60.0024001,631193fff8094698c07c9ef6,64d2fd46c836a06233681665,64dc78f7e0ad25fbb7c4939a,,,,,,,decisionTrl,resources/DR.BMP,resources/DP.BMP,WildCard_Ex,0.334259259,-0.017592593,1,0,0,0.6342,optionRight,5,2500,2,5,0,5,0,1,,,,,,,,,,,,,,,,,,,,,,,,,,,,,,,,,,,,,,,
,,,,,,,,2023-08-16_08h21.41.317,HF_wild_card,2022.2.4,Win32,60.0024001,631193fff8094698c07c9ef6,64d2fd46c836a06233681665,64dc78f7e0ad25fbb7c4939a,,,,,,,decisionTrl,resources/DY.BMP,resources/DB.BMP,Door4,-0.338888889,0.065740741,1,0,0,1.2844,optionLeft,60,2560,2,6,0,6,0,1,,,,,,,,,,,,,,,,,,,,,,,,,,,,,,,,,,,,,,,
,,,,,,,,2023-08-16_08h21.41.317,HF_wild_card,2022.2.4,Win32,60.0024001,631193fff8094698c07c9ef6,64d2fd46c836a06233681665,64dc78f7e0ad25fbb7c4939a,,,,,,,ctch,resources/DB.BMP,resources/DBN.BMP,Door3,-0.383333333,0.053703704,1,0,0,0.649,optionLeft,70,2630,2,7,0,7,0,1,,,,,,,,,,,,,,,,,,,,,,,,,,,,,,,,,,,,,,,
,,,,,,,,2023-08-16_08h21.41.317,HF_wild_card,2022.2.4,Win32,60.0024001,631193fff8094698c07c9ef6,64d2fd46c836a06233681665,64dc78f7e0ad25fbb7c4939a,,,,,,,decisionTrl,resources/DR.BMP,resources/DBN.BMP,Door1,-0.384259259,-0.003703704,1,0,0,0.729,optionLeft,30,2660,2,8,0,8,0,1,,,,,,,,,,,,,,,,,,,,,,,,,,,,,,,,,,,,,,,
,,,,,,,,2023-08-16_08h21.41.317,HF_wild_card,2022.2.4,Win32,60.0024001,631193fff8094698c07c9ef6,64d2fd46c836a06233681665,64dc78f7e0ad25fbb7c4939a,,,,,,,decisionTrl,resources/DBN.BMP,resources/DR.BMP,Door2,-0.237962963,-0.005555556,1,0,0,1.4008,optionLeft,20,2680,2,9,0,9,0,1,,,,,,,,,,,,,,,,,,,,,,,,,,,,,,,,,,,,,,,
,,,,,,,,2023-08-16_08h21.41.317,HF_wild_card,2022.2.4,Win32,60.0024001,631193fff8094698c07c9ef6,64d2fd46c836a06233681665,64dc78f7e0ad25fbb7c4939a,,,,,,,sngl,resources/DBN.BMP,resources/Empty.png,Door2,-0.365740741,0.030555556,1,0,0,0.4958,optionLeft,20,2700,2,10,0,10,0,1,,,,,,,,,,,,,,,,,,,,,,,,,,,,,,,,,,,,,,,
,,,,,,,,2023-08-16_08h21.41.317,HF_wild_card,2022.2.4,Win32,60.0024001,631193fff8094698c07c9ef6,64d2fd46c836a06233681665,64dc78f7e0ad25fbb7c4939a,,,,,,,decisionTrl,resources/DBN.BMP,resources/DR.BMP,Door1,0.280555556,-0.00462963,1,0,0,0.7687,optionRight,30,2730,2,11,0,11,0,1,,,,,,,,,,,,,,,,,,,,,,,,,,,,,,,,,,,,,,,
,,,,,,,,2023-08-16_08h21.41.317,HF_wild_card,2022.2.4,Win32,60.0024001,631193fff8094698c07c9ef6,64d2fd46c836a06233681665,64dc78f7e0ad25fbb7c4939a,,,,,,,ctch,resources/DR.BMP,resources/DY.BMP,Door4,0.366666667,0.065740741,1,0,0,0.9191,optionRight,60,2790,2,12,0,12,0,1,,,,,,,,,,,,,,,,,,,,,,,,,,,,,,,,,,,,,,,
,,,,,,,,2023-08-16_08h21.41.317,HF_wild_card,2022.2.4,Win32,60.0024001,631193fff8094698c07c9ef6,64d2fd46c836a06233681665,64dc78f7e0ad25fbb7c4939a,,,,,,,decisionTrl,resources/DP.BMP,resources/DR.BMP,Door1,0.323148148,0.001851852,1,0,0,1.6488,optionRight,30,2820,2,13,0,13,0,1,,,,,,,,,,,,,,,,,,,,,,,,,,,,,,,,,,,,,,,
,,,,,,,,2023-08-16_08h21.41.317,HF_wild_card,2022.2.4,Win32,60.0024001,631193fff8094698c07c9ef6,64d2fd46c836a06233681665,64dc78f7e0ad25fbb7c4939a,,,,,,,decisionTrl,resources/DP.BMP,resources/DY.BMP,Door4,0.398148148,0.05,1,0,0,0.6855,optionRight,60,2880,2,14,0,14,0,1,,,,,,,,,,,,,,,,,,,,,,,,,,,,,,,,,,,,,,,
,,,,,,,,2023-08-16_08h21.41.317,HF_wild_card,2022.2.4,Win32,60.0024001,631193fff8094698c07c9ef6,64d2fd46c836a06233681665,64dc78f7e0ad25fbb7c4939a,,,,,,,decisionTrl,resources/DP.BMP,resources/DB.BMP,Door3,0.4,-0.010185185,1,0,0,0.6488,optionRight,70,2950,2,15,0,15,0,1,,,,,,,,,,,,,,,,,,,,,,,,,,,,,,,,,,,,,,,
,,,,,,,,2023-08-16_08h21.41.317,HF_wild_card,2022.2.4,Win32,60.0024001,631193fff8094698c07c9ef6,64d2fd46c836a06233681665,64dc78f7e0ad25fbb7c4939a,,,,,,,decisionTrl,resources/DBN.BMP,resources/DR.BMP,Door1,0.358333333,0.046296296,1,0,0,0.9351,optionRight,30,2980,2,16,0,16,0,1,,,,,,,,,,,,,,,,,,,,,,,,,,,,,,,,,,,,,,,
,,,,,,,,2023-08-16_08h21.41.317,HF_wild_card,2022.2.4,Win32,60.0024001,631193fff8094698c07c9ef6,64d2fd46c836a06233681665,64dc78f7e0ad25fbb7c4939a,,,,,,,sngl,resources/DB.BMP,resources/Empty.png,Door3,-0.316666667,0.014814815,1,0,0,0.6157,optionLeft,70,3050,2,17,0,17,0,1,,,,,,,,,,,,,,,,,,,,,,,,,,,,,,,,,,,,,,,
,,,,,,,,2023-08-16_08h21.41.317,HF_wild_card,2022.2.4,Win32,60.0024001,631193fff8094698c07c9ef6,64d2fd46c836a06233681665,64dc78f7e0ad25fbb7c4939a,,,,,,,sngl,resources/DP.BMP,resources/Empty.png,WildCard_Ex,-0.35462963,-0.005555556,1,0,0,0.7287,optionLeft,95,3145,2,18,0,18,0,1,,,,,,,,,,,,,,,,,,,,,,,,,,,,,,,,,,,,,,,
,,,,,,,,2023-08-16_08h21.41.317,HF_wild_card,2022.2.4,Win32,60.0024001,631193fff8094698c07c9ef6,64d2fd46c836a06233681665,64dc78f7e0ad25fbb7c4939a,,,,,,,decisionTrl,resources/DR.BMP,resources/DBN.BMP,Door1,-0.319444444,-0.000925926,1,0,0,1.3153,optionLeft,30,3175,2,19,0,19,0,1,,,,,,,,,,,,,,,,,,,,,,,,,,,,,,,,,,,,,,,
,,,,,,,,2023-08-16_08h21.41.317,HF_wild_card,2022.2.4,Win32,60.0024001,631193fff8094698c07c9ef6,64d2fd46c836a06233681665,64dc78f7e0ad25fbb7c4939a,,,,,,,ctch,resources/DBN.BMP,resources/DB.BMP,Door3,0.382407407,0.04537037,1,0,0,1.1822,optionRight,70,3245,2,20,0,20,0,1,,,,,,,,,,,,,,,,,,,,,,,,,,,,,,,,,,,,,,,
,,,,,,,,2023-08-16_08h21.41.317,HF_wild_card,2022.2.4,Win32,60.0024001,631193fff8094698c07c9ef6,64d2fd46c836a06233681665,64dc78f7e0ad25fbb7c4939a,,,,,,,decisionTrl,resources/DBN.BMP,resources/DR.BMP,Door2,-0.237037037,0.017592593,1,0,0,1.1687,optionLeft,20,3265,2,21,0,21,0,1,,,,,,,,,,,,,,,,,,,,,,,,,,,,,,,,,,,,,,,
,,,,,,,,2023-08-16_08h21.41.317,HF_wild_card,2022.2.4,Win32,60.0024001,631193fff8094698c07c9ef6,64d2fd46c836a06233681665,64dc78f7e0ad25fbb7c4939a,,,,,,,ctch,resources/DY.BMP,resources/DR.BMP,Door4,-0.27037037,0.019444444,1,0,0,1.849,optionLeft,60,3325,2,22,0,22,0,1,,,,,,,,,,,,,,,,,,,,,,,,,,,,,,,,,,,,,,,
,,,,,,,,2023-08-16_08h21.41.317,HF_wild_card,2022.2.4,Win32,60.0024001,631193fff8094698c07c9ef6,64d2fd46c836a06233681665,64dc78f7e0ad25fbb7c4939a,,,,,,,decisionTrl,resources/DB.BMP,resources/DY.BMP,Door3,-0.34537037,0.025925926,1,0,0,4.7645,optionLeft,70,3395,2,23,0,23,0,1,,,,,,,,,,,,,,,,,,,,,,,,,,,,,,,,,,,,,,,
,,,,,,,,2023-08-16_08h21.41.317,HF_wild_card,2022.2.4,Win32,60.0024001,631193fff8094698c07c9ef6,64d2fd46c836a06233681665,64dc78f7e0ad25fbb7c4939a,,,,,,,decisionTrl,resources/DB.BMP,resources/DY.BMP,Door3,-0.348148148,0.059259259,1,0,0,0.6157,optionLeft,70,3465,2,24,0,24,0,1,,,,,,,,,,,,,,,,,,,,,,,,,,,,,,,,,,,,,,,
,,,,,,,,2023-08-16_08h21.41.317,HF_wild_card,2022.2.4,Win32,60.0024001,631193fff8094698c07c9ef6,64d2fd46c836a06233681665,64dc78f7e0ad25fbb7c4939a,,,,,,,sngl,resources/DP.BMP,resources/Empty.png,WildCard_Ex,-0.332407407,0.00462963,1,0,0,0.7524,optionLeft,5,3470,2,25,0,25,0,1,,,,,,,,,,,,,,,,,,,,,,,,,,,,,,,,,,,,,,,
,,,,,,,,2023-08-16_08h21.41.317,HF_wild_card,2022.2.4,Win32,60.0024001,631193fff8094698c07c9ef6,64d2fd46c836a06233681665,64dc78f7e0ad25fbb7c4939a,,,,,,,decisionTrl,resources/DR.BMP,resources/DBN.BMP,Door1,-0.356481481,0.024074074,1,0,0,1.7988,optionLeft,30,3500,2,26,0,26,0,1,,,,,,,,,,,,,,,,,,,,,,,,,,,,,,,,,,,,,,,
,,,,,,,,2023-08-16_08h21.41.317,HF_wild_card,2022.2.4,Win32,60.0024001,631193fff8094698c07c9ef6,64d2fd46c836a06233681665,64dc78f7e0ad25fbb7c4939a,,,,,,,sngl,resources/DY.BMP,resources/Empty.png,Door4,-0.436111111,0.006481481,1,0,0,0.5296,optionLeft,60,3560,2,27,0,27,0,1,,,,,,,,,,,,,,,,,,,,,,,,,,,,,,,,,,,,,,,
,,,,,,,,2023-08-16_08h21.41.317,HF_wild_card,2022.2.4,Win32,60.0024001,631193fff8094698c07c9ef6,64d2fd46c836a06233681665,64dc78f7e0ad25fbb7c4939a,,,,,,,decisionTrl,resources/DY.BMP,resources/DP.BMP,Door4,-0.309259259,0.001851852,1,0,0,1.2655,optionLeft,80,3640,2,28,0,28,0,1,,,,,,,,,,,,,,,,,,,,,,,,,,,,,,,,,,,,,,,
,,,,,,,,2023-08-16_08h21.41.317,HF_wild_card,2022.2.4,Win32,60.0024001,631193fff8094698c07c9ef6,64d2fd46c836a06233681665,64dc78f7e0ad25fbb7c4939a,,,,,,,sngl,resources/Empty.png,resources/DB.BMP,Door3,0.377777778,0.012037037,1,0,0,0.6322,optionRight,70,3710,2,29,0,29,0,1,,,,,,,,,,,,,,,,,,,,,,,,,,,,,,,,,,,,,,,
,,,,,,,,2023-08-16_08h21.41.317,HF_wild_card,2022.2.4,Win32,60.0024001,631193fff8094698c07c9ef6,64d2fd46c836a06233681665,64dc78f7e0ad25fbb7c4939a,,,,,,,decisionTrl,resources/DY.BMP,resources/DB.BMP,Door3,0.258333333,0.015740741,1,0,0,3.3488,optionRight,70,3780,2,30,0,30,0,1,,,,,,,,,,,,,,,,,,,,,,,,,,,,,,,,,,,,,,,
,,,,,,,,2023-08-16_08h21.41.317,HF_wild_card,2022.2.4,Win32,60.0024001,631193fff8094698c07c9ef6,64d2fd46c836a06233681665,64dc78f7e0ad25fbb7c4939a,,,,,,,decisionTrl,resources/DP.BMP,resources/DBN.BMP,Door2,0.401851852,0.000925926,1,0,0,1.6488,optionRight,20,3800,2,31,0,31,0,1,,,,,,,,,,,,,,,,,,,,,,,,,,,,,,,,,,,,,,,
,,,,,,,,2023-08-16_08h21.41.317,HF_wild_card,2022.2.4,Win32,60.0024001,631193fff8094698c07c9ef6,64d2fd46c836a06233681665,64dc78f7e0ad25fbb7c4939a,,,,,,,sngl,resources/DR.BMP,resources/Empty.png,Door1,-0.336111111,-0.006481481,1,0,0,0.6656,optionLeft,30,3830,2,32,0,32,0,1,,,,,,,,,,,,,,,,,,,,,,,,,,,,,,,,,,,,,,,
,,,,,,,,2023-08-16_08h21.41.317,HF_wild_card,2022.2.4,Win32,60.0024001,631193fff8094698c07c9ef6,64d2fd46c836a06233681665,64dc78f7e0ad25fbb7c4939a,,,,,,,sngl,resources/Empty.png,resources/DY.BMP,Door4,0.340740741,-0.000925926,1,0,0,0.7321,optionRight,80,3910,2,33,0,33,0,1,,,,,,,,,,,,,,,,,,,,,,,,,,,,,,,,,,,,,,,
,,,,,,,,2023-08-16_08h21.41.317,HF_wild_card,2022.2.4,Win32,60.0024001,631193fff8094698c07c9ef6,64d2fd46c836a06233681665,64dc78f7e0ad25fbb7c4939a,,,,,,,ctch,resources/DB.BMP,resources/DBN.BMP,Door3,-0.341666667,-0.008333333,1,0,0,1.3323,optionLeft,70,3980,2,34,0,34,0,1,,,,,,,,,,,,,,,,,,,,,,,,,,,,,,,,,,,,,,,
,,,,,,,,2023-08-16_08h21.41.317,HF_wild_card,2022.2.4,Win32,60.0024001,631193fff8094698c07c9ef6,64d2fd46c836a06233681665,64dc78f7e0ad25fbb7c4939a,,,,,,,ctch,resources/DY.BMP,resources/DR.BMP,Door4,-0.294444444,0.012037037,1,0,0,1.8156,optionLeft,60,4040,2,35,0,35,0,1,,,,,,,,,,,,,,,,,,,,,,,,,,,,,,,,,,,,,,,
,,,,,,,,2023-08-16_08h21.41.317,HF_wild_card,2022.2.4,Win32,60.0024001,631193fff8094698c07c9ef6,64d2fd46c836a06233681665,64dc78f7e0ad25fbb7c4939a,,,,,,,ctch,resources/DR.BMP,resources/DY.BMP,Door4,0.318518519,0.030555556,1,0,0,1.3988,optionRight,60,4100,2,36,0,36,0,1,,,,,,,,,,,,,,,,,,,,,,,,,,,,,,,,,,,,,,,
,,,,,,,,2023-08-16_08h21.41.317,HF_wild_card,2022.2.4,Win32,60.0024001,631193fff8094698c07c9ef6,64d2fd46c836a06233681665,64dc78f7e0ad25fbb7c4939a,,,,,,,decisionTrl,resources/DB.BMP,resources/DP.BMP,Door3,-0.346296296,-0.023148148,1,0,0,2.6788,optionLeft,70,4170,2,37,0,37,0,1,,,,,,,,,,,,,,,,,,,,,,,,,,,,,,,,,,,,,,,
,,,,,,,,2023-08-16_08h21.41.317,HF_wild_card,2022.2.4,Win32,60.0024001,631193fff8094698c07c9ef6,64d2fd46c836a06233681665,64dc78f7e0ad25fbb7c4939a,,,,,,,ctch,resources/DBN.BMP,resources/DB.BMP,Door3,0.282407407,0.032407407,1,0,0,1.4512,optionRight,70,4240,2,38,0,38,0,1,,,,,,,,,,,,,,,,,,,,,,,,,,,,,,,,,,,,,,,
,,,,,,,,2023-08-16_08h21.41.317,HF_wild_card,2022.2.4,Win32,60.0024001,631193fff8094698c07c9ef6,64d2fd46c836a06233681665,64dc78f7e0ad25fbb7c4939a,,,,,,,sngl,resources/Empty.png,resources/DBN.BMP,Door2,0.412037037,0.028703704,1,0,0,0.7462,optionRight,40,4280,2,39,0,39,0,1,,,,,,,,,,,,,,,,,,,,,,,,,,,,,,,,,,,,,,,
,,,,,,,,2023-08-16_08h21.41.317,HF_wild_card,2022.2.4,Win32,60.0024001,631193fff8094698c07c9ef6,64d2fd46c836a06233681665,64dc78f7e0ad25fbb7c4939a,,,,,,,decisionTrl,resources/DB.BMP,resources/DY.BMP,Door4,0.314814815,0.023148148,1,0,0,1.9684,optionRight,60,4340,2,40,0,40,0,1,,,,,,,,,,,,,,,,,,,,,,,,,,,,,,,,,,,,,,,
,,,,,,,,2023-08-16_08h21.41.317,HF_wild_card,2022.2.4,Win32,60.0024001,631193fff8094698c07c9ef6,64d2fd46c836a06233681665,64dc78f7e0ad25fbb7c4939a,,,,,,,decisionTrl,resources/DR.BMP,resources/DBN.BMP,Door1,-0.315740741,0.000925926,1,0,0,1.4989,optionLeft,30,4370,2,41,0,41,0,1,,,,,,,,,,,,,,,,,,,,,,,,,,,,,,,,,,,,,,,
,,,,,,,,2023-08-16_08h21.41.317,HF_wild_card,2022.2.4,Win32,60.0024001,631193fff8094698c07c9ef6,64d2fd46c836a06233681665,64dc78f7e0ad25fbb7c4939a,,,,,,,sngl,resources/Empty.png,resources/DP.BMP,WildCard_Ex,0.417592593,-0.022222222,1,0,0,0.9123,optionRight,5,4375,2,42,0,42,0,1,,,,,,,,,,,,,,,,,,,,,,,,,,,,,,,,,,,,,,,
,,,,,,,,2023-08-16_08h21.41.317,HF_wild_card,2022.2.4,Win32,60.0024001,631193fff8094698c07c9ef6,64d2fd46c836a06233681665,64dc78f7e0ad25fbb7c4939a,,,,,,,decisionTrl,resources/DB.BMP,resources/DY.BMP,Door4,0.449074074,-0.008333333,1,0,0,3.5822,optionRight,60,4435,2,43,0,43,0,1,,,,,,,,,,,,,,,,,,,,,,,,,,,,,,,,,,,,,,,
,,,,,,,,2023-08-16_08h21.41.317,HF_wild_card,2022.2.4,Win32,60.0024001,631193fff8094698c07c9ef6,64d2fd46c836a06233681665,64dc78f7e0ad25fbb7c4939a,,,,,,,,,,,,,,,,,,,,,,,,,,1,0,1,0,1,,,,,,,,,,,,,,,,,,,,,,,,,,,,,,,,,,
,,,,,,,,2023-08-16_08h21.41.317,HF_wild_card,2022.2.4,Win32,60.0024001,631193fff8094698c07c9ef6,64d2fd46c836a06233681665,64dc78f7e0ad25fbb7c4939a,,,,,,,ctch,resources/DY.BMP,resources/DR.BMP,Door4,-0.356481481,-0.044444444,1,0,0,1.227,optionLeft,80,4515,3,0,0,0,0,1,,,,,,,,,,,,,,,,,,,,,,,,,,,,,,,,,,,,,,,
,,,,,,,,2023-08-16_08h21.41.317,HF_wild_card,2022.2.4,Win32,60.0024001,631193fff8094698c07c9ef6,64d2fd46c836a06233681665,64dc78f7e0ad25fbb7c4939a,,,,,,,decisionTrl,resources/DBN.BMP,resources/DR.BMP,Door2,-0.382407407,0.040740741,1,0,0,2.8022,optionLeft,40,4555,3,1,0,1,0,1,,,,,,,,,,,,,,,,,,,,,,,,,,,,,,,,,,,,,,,
,,,,,,,,2023-08-16_08h21.41.317,HF_wild_card,2022.2.4,Win32,60.0024001,631193fff8094698c07c9ef6,64d2fd46c836a06233681665,64dc78f7e0ad25fbb7c4939a,,,,,,,decisionTrl,resources/DP.BMP,resources/DR.BMP,WildCard_Ex,-0.423148148,0.032407407,1,0,0,2.3991,optionLeft,95,4650,3,2,0,2,0,1,,,,,,,,,,,,,,,,,,,,,,,,,,,,,,,,,,,,,,,
,,,,,,,,2023-08-16_08h21.41.317,HF_wild_card,2022.2.4,Win32,60.0024001,631193fff8094698c07c9ef6,64d2fd46c836a06233681665,64dc78f7e0ad25fbb7c4939a,,,,,,,decisionTrl,resources/DR.BMP,resources/DP.BMP,Door1,-0.359259259,0.025925926,1,0,0,1.0656,optionLeft,30,4680,3,3,0,3,0,1,,,,,,,,,,,,,,,,,,,,,,,,,,,,,,,,,,,,,,,
,,,,,,,,2023-08-16_08h21.41.317,HF_wild_card,2022.2.4,Win32,60.0024001,631193fff8094698c07c9ef6,64d2fd46c836a06233681665,64dc78f7e0ad25fbb7c4939a,,,,,,,decisionTrl,resources/DY.BMP,resources/DB.BMP,Door4,-0.331481481,0.008333333,1,0,0,1.7155,optionLeft,60,4740,3,4,0,4,0,1,,,,,,,,,,,,,,,,,,,,,,,,,,,,,,,,,,,,,,,
,,,,,,,,2023-08-16_08h21.41.317,HF_wild_card,2022.2.4,Win32,60.0024001,631193fff8094698c07c9ef6,64d2fd46c836a06233681665,64dc78f7e0ad25fbb7c4939a,,,,,,,sngl,resources/DB.BMP,resources/Empty.png,Door3,-0.240740741,-0.00462963,1,0,0,0.7188,optionLeft,70,4810,3,5,0,5,0,1,,,,,,,,,,,,,,,,,,,,,,,,,,,,,,,,,,,,,,,
,,,,,,,,2023-08-16_08h21.41.317,HF_wild_card,2022.2.4,Win32,60.0024001,631193fff8094698c07c9ef6,64d2fd46c836a06233681665,64dc78f7e0ad25fbb7c4939a,,,,,,,sngl,resources/DBN.BMP,resources/Empty.png,Door2,-0.251851852,-0.003703704,1,0,0,0.649,optionLeft,40,4850,3,6,0,6,0,1,,,,,,,,,,,,,,,,,,,,,,,,,,,,,,,,,,,,,,,
,,,,,,,,2023-08-16_08h21.41.317,HF_wild_card,2022.2.4,Win32,60.0024001,631193fff8094698c07c9ef6,64d2fd46c836a06233681665,64dc78f7e0ad25fbb7c4939a,,,,,,,ctch,resources/DY.BMP,resources/DR.BMP,Door1,0.337037037,0.019444444,1,0,0,2.0319,optionRight,30,4880,3,7,0,7,0,1,,,,,,,,,,,,,,,,,,,,,,,,,,,,,,,,,,,,,,,
,,,,,,,,2023-08-16_08h21.41.317,HF_wild_card,2022.2.4,Win32,60.0024001,631193fff8094698c07c9ef6,64d2fd46c836a06233681665,64dc78f7e0ad25fbb7c4939a,,,,,,,sngl,resources/Empty.png,resources/DP.BMP,WildCard_Ex,0.373148148,0.05462963,1,0,0,0.6159,optionRight,5,4885,3,8,0,8,0,1,,,,,,,,,,,,,,,,,,,,,,,,,,,,,,,,,,,,,,,
,,,,,,,,2023-08-16_08h21.41.317,HF_wild_card,2022.2.4,Win32,60.0024001,631193fff8094698c07c9ef6,64d2fd46c836a06233681665,64dc78f7e0ad25fbb7c4939a,,,,,,,decisionTrl,resources/DBN.BMP,resources/DR.BMP,Door2,-0.237962963,0.040740741,1,0,0,0.8521,optionLeft,40,4925,3,9,0,9,0,1,,,,,,,,,,,,,,,,,,,,,,,,,,,,,,,,,,,,,,,
,,,,,,,,2023-08-16_08h21.41.317,HF_wild_card,2022.2.4,Win32,60.0024001,631193fff8094698c07c9ef6,64d2fd46c836a06233681665,64dc78f7e0ad25fbb7c4939a,,,,,,,decisionTrl,resources/DBN.BMP,resources/DP.BMP,Door2,-0.267592593,0.067592593,1,0,0,1.5832,optionLeft,20,4945,3,10,0,10,0,1,,,,,,,,,,,,,,,,,,,,,,,,,,,,,,,,,,,,,,,
,,,,,,,,2023-08-16_08h21.41.317,HF_wild_card,2022.2.4,Win32,60.0024001,631193fff8094698c07c9ef6,64d2fd46c836a06233681665,64dc78f7e0ad25fbb7c4939a,,,,,,,sngl,resources/Empty.png,resources/DB.BMP,Door3,0.268518519,0.033333333,1,0,0,0.7289,optionRight,70,5015,3,11,0,11,0,1,,,,,,,,,,,,,,,,,,,,,,,,,,,,,,,,,,,,,,,
,,,,,,,,2023-08-16_08h21.41.317,HF_wild_card,2022.2.4,Win32,60.0024001,631193fff8094698c07c9ef6,64d2fd46c836a06233681665,64dc78f7e0ad25fbb7c4939a,,,,,,,sngl,resources/Empty.png,resources/DY.BMP,Door4,0.321296296,-0.028703704,1,0,0,0.8856,optionRight,60,5075,3,12,0,12,0,1,,,,,,,,,,,,,,,,,,,,,,,,,,,,,,,,,,,,,,,
,,,,,,,,2023-08-16_08h21.41.317,HF_wild_card,2022.2.4,Win32,60.0024001,631193fff8094698c07c9ef6,64d2fd46c836a06233681665,64dc78f7e0ad25fbb7c4939a,,,,,,,decisionTrl,resources/DB.BMP,resources/DY.BMP,Door3,-0.296296296,-0.000925926,1,0,0,4.0288,optionLeft,70,5145,3,13,0,13,0,1,,,,,,,,,,,,,,,,,,,,,,,,,,,,,,,,,,,,,,,
,,,,,,,,2023-08-16_08h21.41.317,HF_wild_card,2022.2.4,Win32,60.0024001,631193fff8094698c07c9ef6,64d2fd46c836a06233681665,64dc78f7e0ad25fbb7c4939a,,,,,,,decisionTrl,resources/DP.BMP,resources/DB.BMP,WildCard_Ex,-0.337962963,0.008333333,1,0,0,1.5654,optionLeft,5,5150,3,14,0,14,0,1,,,,,,,,,,,,,,,,,,,,,,,,,,,,,,,,,,,,,,,
,,,,,,,,2023-08-16_08h21.41.317,HF_wild_card,2022.2.4,Win32,60.0024001,631193fff8094698c07c9ef6,64d2fd46c836a06233681665,64dc78f7e0ad25fbb7c4939a,,,,,,,ctch,resources/DB.BMP,resources/DBN.BMP,Door3,-0.297222222,0.011111111,1,0,0,1.1823,optionLeft,70,5220,3,15,0,15,0,1,,,,,,,,,,,,,,,,,,,,,,,,,,,,,,,,,,,,,,,
,,,,,,,,2023-08-16_08h21.41.317,HF_wild_card,2022.2.4,Win32,60.0024001,631193fff8094698c07c9ef6,64d2fd46c836a06233681665,64dc78f7e0ad25fbb7c4939a,,,,,,,decisionTrl,resources/DB.BMP,resources/DY.BMP,Door3,-0.37962963,0.007407407,1,0,0,0.8967,optionLeft,70,5290,3,16,0,16,0,1,,,,,,,,,,,,,,,,,,,,,,,,,,,,,,,,,,,,,,,
,,,,,,,,2023-08-16_08h21.41.317,HF_wild_card,2022.2.4,Win32,60.0024001,631193fff8094698c07c9ef6,64d2fd46c836a06233681665,64dc78f7e0ad25fbb7c4939a,,,,,,,ctch,resources/DBN.BMP,resources/DB.BMP,Door3,0.312037037,0.057407407,1,0,0,1.1685,optionRight,70,5360,3,17,0,17,0,1,,,,,,,,,,,,,,,,,,,,,,,,,,,,,,,,,,,,,,,
,,,,,,,,2023-08-16_08h21.41.317,HF_wild_card,2022.2.4,Win32,60.0024001,631193fff8094698c07c9ef6,64d2fd46c836a06233681665,64dc78f7e0ad25fbb7c4939a,,,,,,,sngl,resources/DP.BMP,resources/Empty.png,WildCard_Ex,-0.372222222,0.003703704,1,0,0,0.8855,optionLeft,95,5455,3,18,0,18,0,1,,,,,,,,,,,,,,,,,,,,,,,,,,,,,,,,,,,,,,,
,,,,,,,,2023-08-16_08h21.41.317,HF_wild_card,2022.2.4,Win32,60.0024001,631193fff8094698c07c9ef6,64d2fd46c836a06233681665,64dc78f7e0ad25fbb7c4939a,,,,,,,sngl,resources/Empty.png,resources/DR.BMP,Door1,0.335185185,0.017592593,1,0,0,1.4323,optionRight,30,5485,3,19,0,19,0,1,,,,,,,,,,,,,,,,,,,,,,,,,,,,,,,,,,,,,,,
,,,,,,,,2023-08-16_08h21.41.317,HF_wild_card,2022.2.4,Win32,60.0024001,631193fff8094698c07c9ef6,64d2fd46c836a06233681665,64dc78f7e0ad25fbb7c4939a,,,,,,,decisionTrl,resources/DR.BMP,resources/DBN.BMP,Door2,0.350925926,0.102777778,1,0,0,1.1822,optionRight,20,5505,3,20,0,20,0,1,,,,,,,,,,,,,,,,,,,,,,,,,,,,,,,,,,,,,,,
,,,,,,,,2023-08-16_08h21.41.317,HF_wild_card,2022.2.4,Win32,60.0024001,631193fff8094698c07c9ef6,64d2fd46c836a06233681665,64dc78f7e0ad25fbb7c4939a,,,,,,,ctch,resources/DBN.BMP,resources/DB.BMP,Door3,0.310185185,0.027777778,1,0,0,0.6635,optionRight,70,5575,3,21,0,21,0,1,,,,,,,,,,,,,,,,,,,,,,,,,,,,,,,,,,,,,,,
,,,,,,,,2023-08-16_08h21.41.317,HF_wild_card,2022.2.4,Win32,60.0024001,631193fff8094698c07c9ef6,64d2fd46c836a06233681665,64dc78f7e0ad25fbb7c4939a,,,,,,,sngl,resources/DR.BMP,resources/Empty.png,Door1,-0.309259259,0.022222222,1,0,0,0.8656,optionLeft,30,5605,3,22,0,22,0,1,,,,,,,,,,,,,,,,,,,,,,,,,,,,,,,,,,,,,,,
,,,,,,,,2023-08-16_08h21.41.317,HF_wild_card,2022.2.4,Win32,60.0024001,631193fff8094698c07c9ef6,64d2fd46c836a06233681665,64dc78f7e0ad25fbb7c4939a,,,,,,,decisionTrl,resources/DBN.BMP,resources/DR.BMP,Door1,0.272222222,0.010185185,1,0,0,2.0122,optionRight,30,5635,3,23,0,23,0,1,,,,,,,,,,,,,,,,,,,,,,,,,,,,,,,,,,,,,,,
,,,,,,,,2023-08-16_08h21.41.317,HF_wild_card,2022.2.4,Win32,60.0024001,631193fff8094698c07c9ef6,64d2fd46c836a06233681665,64dc78f7e0ad25fbb7c4939a,,,,,,,decisionTrl,resources/DR.BMP,resources/DBN.BMP,Door1,-0.273148148,0.038888889,1,0,0,1.1655,optionLeft,30,5665,3,24,0,24,0,1,,,,,,,,,,,,,,,,,,,,,,,,,,,,,,,,,,,,,,,
,,,,,,,,2023-08-16_08h21.41.317,HF_wild_card,2022.2.4,Win32,60.0024001,631193fff8094698c07c9ef6,64d2fd46c836a06233681665,64dc78f7e0ad25fbb7c4939a,,,,,,,decisionTrl,resources/DY.BMP,resources/DB.BMP,Door4,-0.299074074,0.014814815,1,0,0,1.9655,optionLeft,80,5745,3,25,0,25,0,1,,,,,,,,,,,,,,,,,,,,,,,,,,,,,,,,,,,,,,,
,,,,,,,,2023-08-16_08h21.41.317,HF_wild_card,2022.2.4,Win32,60.0024001,631193fff8094698c07c9ef6,64d2fd46c836a06233681665,64dc78f7e0ad25fbb7c4939a,,,,,,,ctch,resources/DB.BMP,resources/DBN.BMP,Door3,-0.282407407,0.010185185,1,0,0,1.2822,optionLeft,70,5815,3,26,0,26,0,1,,,,,,,,,,,,,,,,,,,,,,,,,,,,,,,,,,,,,,,
,,,,,,,,2023-08-16_08h21.41.317,HF_wild_card,2022.2.4,Win32,60.0024001,631193fff8094698c07c9ef6,64d2fd46c836a06233681665,64dc78f7e0ad25fbb7c4939a,,,,,,,decisionTrl,resources/DB.BMP,resources/DY.BMP,Door3,-0.356481481,-0.000925926,1,0,0,1.3123,optionLeft,70,5885,3,27,0,27,0,1,,,,,,,,,,,,,,,,,,,,,,,,,,,,,,,,,,,,,,,
,,,,,,,,2023-08-16_08h21.41.317,HF_wild_card,2022.2.4,Win32,60.0024001,631193fff8094698c07c9ef6,64d2fd46c836a06233681665,64dc78f7e0ad25fbb7c4939a,,,,,,,decisionTrl,resources/DB.BMP,resources/DY.BMP,Door3,-0.346296296,0.011111111,1,0,0,0.9955,optionLeft,70,5955,3,28,0,28,0,1,,,,,,,,,,,,,,,,,,,,,,,,,,,,,,,,,,,,,,,
,,,,,,,,2023-08-16_08h21.41.317,HF_wild_card,2022.2.4,Win32,60.0024001,631193fff8094698c07c9ef6,64d2fd46c836a06233681665,64dc78f7e0ad25fbb7c4939a,,,,,,,sngl,resources/DY.BMP,resources/Empty.png,Door4,-0.376851852,0.014814815,1,0,0,0.969,optionLeft,80,6035,3,29,0,29,0,1,,,,,,,,,,,,,,,,,,,,,,,,,,,,,,,,,,,,,,,
,,,,,,,,2023-08-16_08h21.41.317,HF_wild_card,2022.2.4,Win32,60.0024001,631193fff8094698c07c9ef6,64d2fd46c836a06233681665,64dc78f7e0ad25fbb7c4939a,,,,,,,decisionTrl,resources/DY.BMP,resources/DP.BMP,Door4,-0.40462963,0.025925926,1,0,0,1.3356,optionLeft,60,6095,3,30,0,30,0,1,,,,,,,,,,,,,,,,,,,,,,,,,,,,,,,,,,,,,,,
,,,,,,,,2023-08-16_08h21.41.317,HF_wild_card,2022.2.4,Win32,60.0024001,631193fff8094698c07c9ef6,64d2fd46c836a06233681665,64dc78f7e0ad25fbb7c4939a,,,,,,,ctch,resources/DR.BMP,resources/DY.BMP,Door4,0.312037037,0.00462963,1,0,0,4.515,optionRight,80,6175,3,31,0,31,0,1,,,,,,,,,,,,,,,,,,,,,,,,,,,,,,,,,,,,,,,
,,,,,,,,2023-08-16_08h21.41.317,HF_wild_card,2022.2.4,Win32,60.0024001,631193fff8094698c07c9ef6,64d2fd46c836a06233681665,64dc78f7e0ad25fbb7c4939a,,,,,,,sngl,resources/Empty.png,resources/DP.BMP,WildCard_Ex,0.288888889,0.025,1,0,0,0.8361,optionRight,95,6270,3,32,0,32,0,1,,,,,,,,,,,,,,,,,,,,,,,,,,,,,,,,,,,,,,,
,,,,,,,,2023-08-16_08h21.41.317,HF_wild_card,2022.2.4,Win32,60.0024001,631193fff8094698c07c9ef6,64d2fd46c836a06233681665,64dc78f7e0ad25fbb7c4939a,,,,,,,decisionTrl,resources/DB.BMP,resources/DP.BMP,Door3,-0.289814815,-0.011111111,1,0,0,1.6989,optionLeft,70,6340,3,33,0,33,0,1,,,,,,,,,,,,,,,,,,,,,,,,,,,,,,,,,,,,,,,
,,,,,,,,2023-08-16_08h21.41.317,HF_wild_card,2022.2.4,Win32,60.0024001,631193fff8094698c07c9ef6,64d2fd46c836a06233681665,64dc78f7e0ad25fbb7c4939a,,,,,,,decisionTrl,resources/DP.BMP,resources/DBN.BMP,WildCard_Ex,-0.373148148,-0.008333333,1,0,0,1.4822,optionLeft,5,6345,3,34,0,34,0,1,,,,,,,,,,,,,,,,,,,,,,,,,,,,,,,,,,,,,,,
,,,,,,,,2023-08-16_08h21.41.317,HF_wild_card,2022.2.4,Win32,60.0024001,631193fff8094698c07c9ef6,64d2fd46c836a06233681665,64dc78f7e0ad25fbb7c4939a,,,,,,,ctch,resources/DR.BMP,resources/DY.BMP,Door4,0.35,0.026851852,1,0,0,1.8612,optionRight,80,6425,3,35,0,35,0,1,,,,,,,,,,,,,,,,,,,,,,,,,,,,,,,,,,,,,,,
,,,,,,,,2023-08-16_08h21.41.317,HF_wild_card,2022.2.4,Win32,60.0024001,631193fff8094698c07c9ef6,64d2fd46c836a06233681665,64dc78f7e0ad25fbb7c4939a,,,,,,,decisionTrl,resources/DBN.BMP,resources/DR.BMP,Door1,0.363888889,-0.001851852,1,0,0,3.0321,optionRight,30,6455,3,36,0,36,0,1,,,,,,,,,,,,,,,,,,,,,,,,,,,,,,,,,,,,,,,
,,,,,,,,2023-08-16_08h21.41.317,HF_wild_card,2022.2.4,Win32,60.0024001,631193fff8094698c07c9ef6,64d2fd46c836a06233681665,64dc78f7e0ad25fbb7c4939a,,,,,,,decisionTrl,resources/DR.BMP,resources/DBN.BMP,Door2,0.251851852,0.041666667,1,0,0,1.1989,optionRight,20,6475,3,37,0,37,0,1,,,,,,,,,,,,,,,,,,,,,,,,,,,,,,,,,,,,,,,
,,,,,,,,2023-08-16_08h21.41.317,HF_wild_card,2022.2.4,Win32,60.0024001,631193fff8094698c07c9ef6,64d2fd46c836a06233681665,64dc78f7e0ad25fbb7c4939a,,,,,,,decisionTrl,resources/DR.BMP,resources/DBN.BMP,Door1,-0.291666667,-0.019444444,1,0,0,0.769,optionLeft,30,6505,3,38,0,38,0,1,,,,,,,,,,,,,,,,,,,,,,,,,,,,,,,,,,,,,,,
,,,,,,,,2023-08-16_08h21.41.317,HF_wild_card,2022.2.4,Win32,60.0024001,631193fff8094698c07c9ef6,64d2fd46c836a06233681665,64dc78f7e0ad25fbb7c4939a,,,,,,,decisionTrl,resources/DP.BMP,resources/DY.BMP,Door4,0.314814815,0.048148148,1,0,0,1.199,optionRight,60,6565,3,39,0,39,0,1,,,,,,,,,,,,,,,,,,,,,,,,,,,,,,,,,,,,,,,
,,,,,,,,2023-08-16_08h21.41.317,HF_wild_card,2022.2.4,Win32,60.0024001,631193fff8094698c07c9ef6,64d2fd46c836a06233681665,64dc78f7e0ad25fbb7c4939a,,,,,,,sngl,resources/DP.BMP,resources/Empty.png,WildCard_Ex,-0.308333333,-0.011111111,1,0,0,0.6488,optionLeft,5,6570,3,40,0,40,0,1,,,,,,,,,,,,,,,,,,,,,,,,,,,,,,,,,,,,,,,
,,,,,,,,2023-08-16_08h21.41.317,HF_wild_card,2022.2.4,Win32,60.0024001,631193fff8094698c07c9ef6,64d2fd46c836a06233681665,64dc78f7e0ad25fbb7c4939a,,,,,,,decisionTrl,resources/DY.BMP,resources/DB.BMP,Door4,-0.424074074,-0.016666667,1,0,0,2.3655,optionLeft,80,6650,3,41,0,41,0,1,,,,,,,,,,,,,,,,,,,,,,,,,,,,,,,,,,,,,,,
,,,,,,,,2023-08-16_08h21.41.317,HF_wild_card,2022.2.4,Win32,60.0024001,631193fff8094698c07c9ef6,64d2fd46c836a06233681665,64dc78f7e0ad25fbb7c4939a,,,,,,,sngl,resources/Empty.png,resources/DBN.BMP,Door2,0.267592593,0.012037037,1,0,0,1.0285,optionRight,20,6670,3,42,0,42,0,1,,,,,,,,,,,,,,,,,,,,,,,,,,,,,,,,,,,,,,,
,,,,,,,,2023-08-16_08h21.41.317,HF_wild_card,2022.2.4,Win32,60.0024001,631193fff8094698c07c9ef6,64d2fd46c836a06233681665,64dc78f7e0ad25fbb7c4939a,,,,,,,decisionTrl,resources/DY.BMP,resources/DB.BMP,Door4,-0.366666667,-0.024074074,1,0,0,1.7657,optionLeft,80,6750,3,43,0,43,0,1,,,,,,,,,,,,,,,,,,,,,,,,,,,,,,,,,,,,,,,
,,,,,,,,2023-08-16_08h21.41.317,HF_wild_card,2022.2.4,Win32,60.0024001,631193fff8094698c07c9ef6,64d2fd46c836a06233681665,64dc78f7e0ad25fbb7c4939a,,,,,,,,,,,,,,,,,,,,,,,,,,2,0,2,0,1,,,,,,,,,,,,,,,,,,,,,,,,,,,,,,,,,,
,,,,,,,,2023-08-16_08h21.41.317,HF_wild_card,2022.2.4,Win32,60.0024001,631193fff8094698c07c9ef6,64d2fd46c836a06233681665,64dc78f7e0ad25fbb7c4939a,,,,,,,decisionTrl,resources/DY.BMP,resources/DB.BMP,Door4,-0.335185185,0.023148148,1,0,0,1.4435,optionLeft,80,6830,4,0,0,0,0,1,,,,,,,,,,,,,,,,,,,,,,,,,,,,,,,,,,,,,,,
,,,,,,,,2023-08-16_08h21.41.317,HF_wild_card,2022.2.4,Win32,60.0024001,631193fff8094698c07c9ef6,64d2fd46c836a06233681665,64dc78f7e0ad25fbb7c4939a,,,,,,,decisionTrl,resources/DG.BMP,resources/DBN.BMP,WildCard_NonEx,-0.275,-0.009259259,1,0,0,1.8648,optionLeft,45,6875,4,1,0,1,0,1,,,,,,,,,,,,,,,,,,,,,,,,,,,,,,,,,,,,,,,
,,,,,,,,2023-08-16_08h21.41.317,HF_wild_card,2022.2.4,Win32,60.0024001,631193fff8094698c07c9ef6,64d2fd46c836a06233681665,64dc78f7e0ad25fbb7c4939a,,,,,,,sngl,resources/DG.BMP,resources/Empty.png,WildCard_NonEx,-0.318518519,-0.005555556,1,0,0,0.7156,optionLeft,55,6930,4,2,0,2,0,1,,,,,,,,,,,,,,,,,,,,,,,,,,,,,,,,,,,,,,,
,,,,,,,,2023-08-16_08h21.41.317,HF_wild_card,2022.2.4,Win32,60.0024001,631193fff8094698c07c9ef6,64d2fd46c836a06233681665,64dc78f7e0ad25fbb7c4939a,,,,,,,sngl,resources/Empty.png,resources/DG.BMP,WildCard_NonEx,0.337037037,0.039814815,1,0,0,0.7783,optionRight,55,6985,4,3,0,3,0,1,,,,,,,,,,,,,,,,,,,,,,,,,,,,,,,,,,,,,,,
,,,,,,,,2023-08-16_08h21.41.317,HF_wild_card,2022.2.4,Win32,60.0024001,631193fff8094698c07c9ef6,64d2fd46c836a06233681665,64dc78f7e0ad25fbb7c4939a,,,,,,,decisionTrl,resources/DG.BMP,resources/DB.BMP,Door3,0.310185185,0.012037037,1,0,0,0.9823,optionRight,70,7055,4,4,0,4,0,1,,,,,,,,,,,,,,,,,,,,,,,,,,,,,,,,,,,,,,,
,,,,,,,,2023-08-16_08h21.41.317,HF_wild_card,2022.2.4,Win32,60.0024001,631193fff8094698c07c9ef6,64d2fd46c836a06233681665,64dc78f7e0ad25fbb7c4939a,,,,,,,decisionTrl,resources/DY.BMP,resources/DB.BMP,Door4,-0.388888889,0.00462963,1,0,0,1.6192,optionLeft,60,7115,4,5,0,5,0,1,,,,,,,,,,,,,,,,,,,,,,,,,,,,,,,,,,,,,,,
,,,,,,,,2023-08-16_08h21.41.317,HF_wild_card,2022.2.4,Win32,60.0024001,631193fff8094698c07c9ef6,64d2fd46c836a06233681665,64dc78f7e0ad25fbb7c4939a,,,,,,,decisionTrl,resources/DB.BMP,resources/DY.BMP,Door3,-0.332407407,-0.012962963,1,0,0,0.7989,optionLeft,70,7185,4,6,0,6,0,1,,,,,,,,,,,,,,,,,,,,,,,,,,,,,,,,,,,,,,,
,,,,,,,,2023-08-16_08h21.41.317,HF_wild_card,2022.2.4,Win32,60.0024001,631193fff8094698c07c9ef6,64d2fd46c836a06233681665,64dc78f7e0ad25fbb7c4939a,,,,,,,decisionTrl,resources/DBN.BMP,resources/DR.BMP,Door2,-0.34537037,0.128703704,1,0,0,2.8322,optionLeft,40,7225,4,7,0,7,0,1,,,,,,,,,,,,,,,,,,,,,,,,,,,,,,,,,,,,,,,
,,,,,,,,2023-08-16_08h21.41.317,HF_wild_card,2022.2.4,Win32,60.0024001,631193fff8094698c07c9ef6,64d2fd46c836a06233681665,64dc78f7e0ad25fbb7c4939a,,,,,,,sngl,resources/DB.BMP,resources/Empty.png,Door3,-0.315740741,0.030555556,1,0,0,1.286,optionLeft,70,7295,4,8,0,8,0,1,,,,,,,,,,,,,,,,,,,,,,,,,,,,,,,,,,,,,,,
,,,,,,,,2023-08-16_08h21.41.317,HF_wild_card,2022.2.4,Win32,60.0024001,631193fff8094698c07c9ef6,64d2fd46c836a06233681665,64dc78f7e0ad25fbb7c4939a,,,,,,,decisionTrl,resources/DB.BMP,resources/DG.BMP,Door3,-0.2,0.027777778,1,0,0,1.2693,optionLeft,70,7365,4,9,0,9,0,1,,,,,,,,,,,,,,,,,,,,,,,,,,,,,,,,,,,,,,,
,,,,,,,,2023-08-16_08h21.41.317,HF_wild_card,2022.2.4,Win32,60.0024001,631193fff8094698c07c9ef6,64d2fd46c836a06233681665,64dc78f7e0ad25fbb7c4939a,,,,,,,decisionTrl,resources/DBN.BMP,resources/DG.BMP,WildCard_NonEx,0.433333333,0.030555556,1,0,0,1.0489,optionRight,45,7410,4,10,0,10,0,1,,,,,,,,,,,,,,,,,,,,,,,,,,,,,,,,,,,,,,,
,,,,,,,,2023-08-16_08h21.41.317,HF_wild_card,2022.2.4,Win32,60.0024001,631193fff8094698c07c9ef6,64d2fd46c836a06233681665,64dc78f7e0ad25fbb7c4939a,,,,,,,ctch,resources/DBN.BMP,resources/DB.BMP,Door3,0.301851852,0.014814815,1,0,0,1.446,optionRight,70,7480,4,11,0,11,0,1,,,,,,,,,,,,,,,,,,,,,,,,,,,,,,,,,,,,,,,
,,,,,,,,2023-08-16_08h21.41.317,HF_wild_card,2022.2.4,Win32,60.0024001,631193fff8094698c07c9ef6,64d2fd46c836a06233681665,64dc78f7e0ad25fbb7c4939a,,,,,,,sngl,resources/Empty.png,resources/DR.BMP,Door1,0.272222222,0.039814815,1,0,0,0.9503,optionRight,30,7510,4,12,0,12,0,1,,,,,,,,,,,,,,,,,,,,,,,,,,,,,,,,,,,,,,,
,,,,,,,,2023-08-16_08h21.41.317,HF_wild_card,2022.2.4,Win32,60.0024001,631193fff8094698c07c9ef6,64d2fd46c836a06233681665,64dc78f7e0ad25fbb7c4939a,,,,,,,sngl,resources/DBN.BMP,resources/Empty.png,Door2,-0.25,0.084259259,1,0,0,0.8799,optionLeft,20,7530,4,13,0,13,0,1,,,,,,,,,,,,,,,,,,,,,,,,,,,,,,,,,,,,,,,
,,,,,,,,2023-08-16_08h21.41.317,HF_wild_card,2022.2.4,Win32,60.0024001,631193fff8094698c07c9ef6,64d2fd46c836a06233681665,64dc78f7e0ad25fbb7c4939a,,,,,,,decisionTrl,resources/DR.BMP,resources/DBN.BMP,Door1,-0.334259259,0.039814815,1,0,0,1.8453,optionLeft,30,7560,4,14,0,14,0,1,,,,,,,,,,,,,,,,,,,,,,,,,,,,,,,,,,,,,,,
,,,,,,,,2023-08-16_08h21.41.317,HF_wild_card,2022.2.4,Win32,60.0024001,631193fff8094698c07c9ef6,64d2fd46c836a06233681665,64dc78f7e0ad25fbb7c4939a,,,,,,,decisionTrl,resources/DR.BMP,resources/DBN.BMP,Door1,-0.271296296,0.030555556,1,0,0,1.0011,optionLeft,30,7590,4,15,0,15,0,1,,,,,,,,,,,,,,,,,,,,,,,,,,,,,,,,,,,,,,,
,,,,,,,,2023-08-16_08h21.41.317,HF_wild_card,2022.2.4,Win32,60.0024001,631193fff8094698c07c9ef6,64d2fd46c836a06233681665,64dc78f7e0ad25fbb7c4939a,,,,,,,decisionTrl,resources/DBN.BMP,resources/DR.BMP,Door2,-0.297222222,0.140740741,1,0,0,0.7192,optionLeft,40,7630,4,16,0,16,0,1,,,,,,,,,,,,,,,,,,,,,,,,,,,,,,,,,,,,,,,
,,,,,,,,2023-08-16_08h21.41.317,HF_wild_card,2022.2.4,Win32,60.0024001,631193fff8094698c07c9ef6,64d2fd46c836a06233681665,64dc78f7e0ad25fbb7c4939a,,,,,,,sngl,resources/DG.BMP,resources/Empty.png,WildCard_NonEx,-0.3,0.064814815,1,0,0,0.7491,optionLeft,45,7675,4,17,0,17,0,1,,,,,,,,,,,,,,,,,,,,,,,,,,,,,,,,,,,,,,,
,,,,,,,,2023-08-16_08h21.41.317,HF_wild_card,2022.2.4,Win32,60.0024001,631193fff8094698c07c9ef6,64d2fd46c836a06233681665,64dc78f7e0ad25fbb7c4939a,,,,,,,ctch,resources/DB.BMP,resources/DBN.BMP,Door3,-0.302777778,0.062962963,1,0,0,1.1178,optionLeft,70,7745,4,18,0,18,0,1,,,,,,,,,,,,,,,,,,,,,,,,,,,,,,,,,,,,,,,
,,,,,,,,2023-08-16_08h21.41.317,HF_wild_card,2022.2.4,Win32,60.0024001,631193fff8094698c07c9ef6,64d2fd46c836a06233681665,64dc78f7e0ad25fbb7c4939a,,,,,,,ctch,resources/DR.BMP,resources/DY.BMP,Door4,0.426851852,0.012037037,1,0,0,1.5824,optionRight,60,7805,4,19,0,19,0,1,,,,,,,,,,,,,,,,,,,,,,,,,,,,,,,,,,,,,,,
,,,,,,,,2023-08-16_08h21.41.317,HF_wild_card,2022.2.4,Win32,60.0024001,631193fff8094698c07c9ef6,64d2fd46c836a06233681665,64dc78f7e0ad25fbb7c4939a,,,,,,,ctch,resources/DY.BMP,resources/DR.BMP,Door4,-0.313888889,0.073148148,1,0,0,0.5861,optionLeft,80,7885,4,20,0,20,0,1,,,,,,,,,,,,,,,,,,,,,,,,,,,,,,,,,,,,,,,
,,,,,,,,2023-08-16_08h21.41.317,HF_wild_card,2022.2.4,Win32,60.0024001,631193fff8094698c07c9ef6,64d2fd46c836a06233681665,64dc78f7e0ad25fbb7c4939a,,,,,,,decisionTrl,resources/DY.BMP,resources/DB.BMP,Door4,-0.293518519,0.003703704,1,0,0,0.9988,optionLeft,80,7965,4,21,0,21,0,1,,,,,,,,,,,,,,,,,,,,,,,,,,,,,,,,,,,,,,,
,,,,,,,,2023-08-16_08h21.41.317,HF_wild_card,2022.2.4,Win32,60.0024001,631193fff8094698c07c9ef6,64d2fd46c836a06233681665,64dc78f7e0ad25fbb7c4939a,,,,,,,decisionTrl,resources/DB.BMP,resources/DY.BMP,Door3,-0.366666667,0.000925926,1,0,0,0.8695,optionLeft,70,8035,4,22,0,22,0,1,,,,,,,,,,,,,,,,,,,,,,,,,,,,,,,,,,,,,,,
,,,,,,,,2023-08-16_08h21.41.317,HF_wild_card,2022.2.4,Win32,60.0024001,631193fff8094698c07c9ef6,64d2fd46c836a06233681665,64dc78f7e0ad25fbb7c4939a,,,,,,,sngl,resources/DY.BMP,resources/Empty.png,Door4,-0.286111111,0.024074074,1,0,0,0.6524,optionLeft,60,8095,4,23,0,23,0,1,,,,,,,,,,,,,,,,,,,,,,,,,,,,,,,,,,,,,,,
,,,,,,,,2023-08-16_08h21.41.317,HF_wild_card,2022.2.4,Win32,60.0024001,631193fff8094698c07c9ef6,64d2fd46c836a06233681665,64dc78f7e0ad25fbb7c4939a,,,,,,,ctch,resources/DBN.BMP,resources/DB.BMP,Door3,0.256481481,0.014814815,1,0,0,1.2695,optionRight,70,8165,4,24,0,24,0,1,,,,,,,,,,,,,,,,,,,,,,,,,,,,,,,,,,,,,,,
,,,,,,,,2023-08-16_08h21.41.317,HF_wild_card,2022.2.4,Win32,60.0024001,631193fff8094698c07c9ef6,64d2fd46c836a06233681665,64dc78f7e0ad25fbb7c4939a,,,,,,,decisionTrl,resources/DR.BMP,resources/DBN.BMP,Door1,-0.45,0.059259259,1,0,0,2.2859,optionLeft,30,8195,4,25,0,25,0,1,,,,,,,,,,,,,,,,,,,,,,,,,,,,,,,,,,,,,,,
,,,,,,,,2023-08-16_08h21.41.317,HF_wild_card,2022.2.4,Win32,60.0024001,631193fff8094698c07c9ef6,64d2fd46c836a06233681665,64dc78f7e0ad25fbb7c4939a,,,,,,,decisionTrl,resources/DY.BMP,resources/DG.BMP,Door4,-0.282407407,0.04537037,1,0,0,1.886,optionLeft,80,8275,4,26,0,26,0,1,,,,,,,,,,,,,,,,,,,,,,,,,,,,,,,,,,,,,,,
,,,,,,,,2023-08-16_08h21.41.317,HF_wild_card,2022.2.4,Win32,60.0024001,631193fff8094698c07c9ef6,64d2fd46c836a06233681665,64dc78f7e0ad25fbb7c4939a,,,,,,,decisionTrl,resources/DY.BMP,resources/DB.BMP,Door4,-0.248148148,0.002777778,1,0,0,1.0823,optionLeft,60,8335,4,27,0,27,0,1,,,,,,,,,,,,,,,,,,,,,,,,,,,,,,,,,,,,,,,
,,,,,,,,2023-08-16_08h21.41.317,HF_wild_card,2022.2.4,Win32,60.0024001,631193fff8094698c07c9ef6,64d2fd46c836a06233681665,64dc78f7e0ad25fbb7c4939a,,,,,,,sngl,resources/DR.BMP,resources/Empty.png,Door1,-0.281481481,0.012037037,1,0,0,0.712,optionLeft,30,8365,4,28,0,28,0,1,,,,,,,,,,,,,,,,,,,,,,,,,,,,,,,,,,,,,,,
,,,,,,,,2023-08-16_08h21.41.317,HF_wild_card,2022.2.4,Win32,60.0024001,631193fff8094698c07c9ef6,64d2fd46c836a06233681665,64dc78f7e0ad25fbb7c4939a,,,,,,,sngl,resources/Empty.png,resources/DG.BMP,WildCard_NonEx,0.312037037,0.015740741,1,0,0,0.7156,optionRight,45,8410,4,29,0,29,0,1,,,,,,,,,,,,,,,,,,,,,,,,,,,,,,,,,,,,,,,
,,,,,,,,2023-08-16_08h21.41.317,HF_wild_card,2022.2.4,Win32,60.0024001,631193fff8094698c07c9ef6,64d2fd46c836a06233681665,64dc78f7e0ad25fbb7c4939a,,,,,,,ctch,resources/DB.BMP,resources/DBN.BMP,Door3,-0.234259259,0.00462963,1,0,0,1.2025,optionLeft,70,8480,4,30,0,30,0,1,,,,,,,,,,,,,,,,,,,,,,,,,,,,,,,,,,,,,,,
,,,,,,,,2023-08-16_08h21.41.317,HF_wild_card,2022.2.4,Win32,60.0024001,631193fff8094698c07c9ef6,64d2fd46c836a06233681665,64dc78f7e0ad25fbb7c4939a,,,,,,,ctch,resources/DR.BMP,resources/DY.BMP,Door4,0.433333333,0.048148148,1,0,0,2.28,optionRight,80,8560,4,31,0,31,0,1,,,,,,,,,,,,,,,,,,,,,,,,,,,,,,,,,,,,,,,
,,,,,,,,2023-08-16_08h21.41.317,HF_wild_card,2022.2.4,Win32,60.0024001,631193fff8094698c07c9ef6,64d2fd46c836a06233681665,64dc78f7e0ad25fbb7c4939a,,,,,,,decisionTrl,resources/DR.BMP,resources/DG.BMP,WildCard_NonEx,0.430555556,0.003703704,1,0,0,1.3012,optionRight,55,8615,4,32,0,32,0,1,,,,,,,,,,,,,,,,,,,,,,,,,,,,,,,,,,,,,,,
,,,,,,,,2023-08-16_08h21.41.317,HF_wild_card,2022.2.4,Win32,60.0024001,631193fff8094698c07c9ef6,64d2fd46c836a06233681665,64dc78f7e0ad25fbb7c4939a,,,,,,,decisionTrl,resources/DB.BMP,resources/DY.BMP,Door3,-0.272222222,0.017592593,1,0,0,2.7156,optionLeft,70,8685,4,33,0,33,0,1,,,,,,,,,,,,,,,,,,,,,,,,,,,,,,,,,,,,,,,
,,,,,,,,2023-08-16_08h21.41.317,HF_wild_card,2022.2.4,Win32,60.0024001,631193fff8094698c07c9ef6,64d2fd46c836a06233681665,64dc78f7e0ad25fbb7c4939a,,,,,,,ctch,resources/DY.BMP,resources/DR.BMP,Door4,-0.273148148,0.013888889,1,0,0,1.1799,optionLeft,60,8745,4,34,0,34,0,1,,,,,,,,,,,,,,,,,,,,,,,,,,,,,,,,,,,,,,,
,,,,,,,,2023-08-16_08h21.41.317,HF_wild_card,2022.2.4,Win32,60.0024001,631193fff8094698c07c9ef6,64d2fd46c836a06233681665,64dc78f7e0ad25fbb7c4939a,,,,,,,sngl,resources/Empty.png,resources/DBN.BMP,Door2,0.238888889,0.087037037,1,0,0,0.7021,optionRight,40,8785,4,35,0,35,0,1,,,,,,,,,,,,,,,,,,,,,,,,,,,,,,,,,,,,,,,
,,,,,,,,2023-08-16_08h21.41.317,HF_wild_card,2022.2.4,Win32,60.0024001,631193fff8094698c07c9ef6,64d2fd46c836a06233681665,64dc78f7e0ad25fbb7c4939a,,,,,,,decisionTrl,resources/DBN.BMP,resources/DR.BMP,Door1,0.393518519,0.033333333,1,0,0,4.9324,optionRight,30,8815,4,36,0,36,0,1,,,,,,,,,,,,,,,,,,,,,,,,,,,,,,,,,,,,,,,
,,,,,,,,2023-08-16_08h21.41.317,HF_wild_card,2022.2.4,Win32,60.0024001,631193fff8094698c07c9ef6,64d2fd46c836a06233681665,64dc78f7e0ad25fbb7c4939a,,,,,,,decisionTrl,resources/DG.BMP,resources/DR.BMP,WildCard_NonEx,-0.39537037,0.017592593,1,0,0,1.2359,optionLeft,55,8870,4,37,0,37,0,1,,,,,,,,,,,,,,,,,,,,,,,,,,,,,,,,,,,,,,,
,,,,,,,,2023-08-16_08h21.41.317,HF_wild_card,2022.2.4,Win32,60.0024001,631193fff8094698c07c9ef6,64d2fd46c836a06233681665,64dc78f7e0ad25fbb7c4939a,,,,,,,decisionTrl,resources/DB.BMP,resources/DY.BMP,Door3,-0.367592593,-0.012037037,1,0,0,1.8155,optionLeft,70,8940,4,38,0,38,0,1,,,,,,,,,,,,,,,,,,,,,,,,,,,,,,,,,,,,,,,
,,,,,,,,2023-08-16_08h21.41.317,HF_wild_card,2022.2.4,Win32,60.0024001,631193fff8094698c07c9ef6,64d2fd46c836a06233681665,64dc78f7e0ad25fbb7c4939a,,,,,,,decisionTrl,resources/DR.BMP,resources/DBN.BMP,Door1,-0.427777778,0.074074074,1,0,0,1.7357,optionLeft,30,8970,4,39,0,39,0,1,,,,,,,,,,,,,,,,,,,,,,,,,,,,,,,,,,,,,,,
,,,,,,,,2023-08-16_08h21.41.317,HF_wild_card,2022.2.4,Win32,60.0024001,631193fff8094698c07c9ef6,64d2fd46c836a06233681665,64dc78f7e0ad25fbb7c4939a,,,,,,,decisionTrl,resources/DG.BMP,resources/DY.BMP,Door4,0.347222222,0.063888889,1,0,0,1.1026,optionRight,60,9030,4,40,0,40,0,1,,,,,,,,,,,,,,,,,,,,,,,,,,,,,,,,,,,,,,,
,,,,,,,,2023-08-16_08h21.41.317,HF_wild_card,2022.2.4,Win32,60.0024001,631193fff8094698c07c9ef6,64d2fd46c836a06233681665,64dc78f7e0ad25fbb7c4939a,,,,,,,sngl,resources/Empty.png,resources/DB.BMP,Door3,0.323148148,0.010185185,1,0,0,0.5994,optionRight,70,9100,4,41,0,41,0,1,,,,,,,,,,,,,,,,,,,,,,,,,,,,,,,,,,,,,,,
,,,,,,,,2023-08-16_08h21.41.317,HF_wild_card,2022.2.4,Win32,60.0024001,631193fff8094698c07c9ef6,64d2fd46c836a06233681665,64dc78f7e0ad25fbb7c4939a,,,,,,,sngl,resources/Empty.png,resources/DY.BMP,Door4,0.337962963,0.009259259,1,0,0,0.7323,optionRight,80,9180,4,42,0,42,0,1,,,,,,,,,,,,,,,,,,,,,,,,,,,,,,,,,,,,,,,
,,,,,,,,2023-08-16_08h21.41.317,HF_wild_card,2022.2.4,Win32,60.0024001,631193fff8094698c07c9ef6,64d2fd46c836a06233681665,64dc78f7e0ad25fbb7c4939a,,,,,,,decisionTrl,resources/DBN.BMP,resources/DR.BMP,Door2,-0.287037037,0.175925926,1,0,0,1.7528,optionLeft,20,9200,4,43,0,43,0,1,,,,,,,,,,,,,,,,,,,,,,,,,,,,,,,,,,,,,,,
,,,,,,,,2023-08-16_08h21.41.317,HF_wild_card,2022.2.4,Win32,60.0024001,631193fff8094698c07c9ef6,64d2fd46c836a06233681665,64dc78f7e0ad25fbb7c4939a,,,,,,,,,,,,,,,,,,,,,,,,,,3,0,3,0,1,,,,,,,,,,,,,,,,,,,,,,,,,,,,,,,,,,
,,,,,,,,2023-08-16_08h21.41.317,HF_wild_card,2022.2.4,Win32,60.0024001,631193fff8094698c07c9ef6,64d2fd46c836a06233681665,64dc78f7e0ad25fbb7c4939a,,,,,,,sngl,resources/DG.BMP,resources/Empty.png,WildCard_NonEx,-0.313888889,-0.073148148,1,0,0,0.7105,optionLeft,45,9245,5,0,0,0,0,1,,,,,,,,,,,,,,,,,,,,,,,,,,,,,,,,,,,,,,,
,,,,,,,,2023-08-16_08h21.41.317,HF_wild_card,2022.2.4,Win32,60.0024001,631193fff8094698c07c9ef6,64d2fd46c836a06233681665,64dc78f7e0ad25fbb7c4939a,,,,,,,ctch,resources/DR.BMP,resources/DY.BMP,Door4,0.364814815,0.046296296,1,0,0,3.3451,optionRight,60,9305,5,1,0,1,0,1,,,,,,,,,,,,,,,,,,,,,,,,,,,,,,,,,,,,,,,
,,,,,,,,2023-08-16_08h21.41.317,HF_wild_card,2022.2.4,Win32,60.0024001,631193fff8094698c07c9ef6,64d2fd46c836a06233681665,64dc78f7e0ad25fbb7c4939a,,,,,,,sngl,resources/DY.BMP,resources/Empty.png,Door4,-0.32037037,0.02962963,1,0,0,0.6152,optionLeft,80,9385,5,2,0,2,0,1,,,,,,,,,,,,,,,,,,,,,,,,,,,,,,,,,,,,,,,
,,,,,,,,2023-08-16_08h21.41.317,HF_wild_card,2022.2.4,Win32,60.0024001,631193fff8094698c07c9ef6,64d2fd46c836a06233681665,64dc78f7e0ad25fbb7c4939a,,,,,,,ctch,resources/DR.BMP,resources/DY.BMP,Door4,0.331481481,0.047222222,1,0,0,1.2657,optionRight,60,9445,5,3,0,3,0,1,,,,,,,,,,,,,,,,,,,,,,,,,,,,,,,,,,,,,,,
,,,,,,,,2023-08-16_08h21.41.317,HF_wild_card,2022.2.4,Win32,60.0024001,631193fff8094698c07c9ef6,64d2fd46c836a06233681665,64dc78f7e0ad25fbb7c4939a,,,,,,,decisionTrl,resources/DBN.BMP,resources/DG.BMP,WildCard_NonEx,0.330555556,0.115740741,1,0,0,1.7656,optionRight,55,9500,5,4,0,4,0,1,,,,,,,,,,,,,,,,,,,,,,,,,,,,,,,,,,,,,,,
,,,,,,,,2023-08-16_08h21.41.317,HF_wild_card,2022.2.4,Win32,60.0024001,631193fff8094698c07c9ef6,64d2fd46c836a06233681665,64dc78f7e0ad25fbb7c4939a,,,,,,,decisionTrl,resources/DB.BMP,resources/DG.BMP,Door3,-0.32962963,0.010185185,1,0,0,1.5501,optionLeft,70,9570,5,5,0,5,0,1,,,,,,,,,,,,,,,,,,,,,,,,,,,,,,,,,,,,,,,
,,,,,,,,2023-08-16_08h21.41.317,HF_wild_card,2022.2.4,Win32,60.0024001,631193fff8094698c07c9ef6,64d2fd46c836a06233681665,64dc78f7e0ad25fbb7c4939a,,,,,,,decisionTrl,resources/DR.BMP,resources/DBN.BMP,Door1,-0.455555556,0.050925926,1,0,0,3.7156,optionLeft,30,9600,5,6,0,6,0,1,,,,,,,,,,,,,,,,,,,,,,,,,,,,,,,,,,,,,,,
,,,,,,,,2023-08-16_08h21.41.317,HF_wild_card,2022.2.4,Win32,60.0024001,631193fff8094698c07c9ef6,64d2fd46c836a06233681665,64dc78f7e0ad25fbb7c4939a,,,,,,,sngl,resources/Empty.png,resources/DR.BMP,Door1,0.338888889,-0.002777778,1,0,0,0.5823,optionRight,30,9630,5,7,0,7,0,1,,,,,,,,,,,,,,,,,,,,,,,,,,,,,,,,,,,,,,,
,,,,,,,,2023-08-16_08h21.41.317,HF_wild_card,2022.2.4,Win32,60.0024001,631193fff8094698c07c9ef6,64d2fd46c836a06233681665,64dc78f7e0ad25fbb7c4939a,,,,,,,sngl,resources/Empty.png,resources/DB.BMP,Door3,0.322222222,0.005555556,1,0,0,0.5861,optionRight,70,9700,5,8,0,8,0,1,,,,,,,,,,,,,,,,,,,,,,,,,,,,,,,,,,,,,,,
,,,,,,,,2023-08-16_08h21.41.317,HF_wild_card,2022.2.4,Win32,60.0024001,631193fff8094698c07c9ef6,64d2fd46c836a06233681665,64dc78f7e0ad25fbb7c4939a,,,,,,,sngl,resources/Empty.png,resources/DG.BMP,WildCard_NonEx,0.356481481,0.014814815,1,0,0,0.5694,optionRight,45,9745,5,9,0,9,0,1,,,,,,,,,,,,,,,,,,,,,,,,,,,,,,,,,,,,,,,
,,,,,,,,2023-08-16_08h21.41.317,HF_wild_card,2022.2.4,Win32,60.0024001,631193fff8094698c07c9ef6,64d2fd46c836a06233681665,64dc78f7e0ad25fbb7c4939a,,,,,,,decisionTrl,resources/DY.BMP,resources/DB.BMP,Door4,-0.375,0.052777778,1,0,0,2.7451,optionLeft,80,9825,5,10,0,10,0,1,,,,,,,,,,,,,,,,,,,,,,,,,,,,,,,,,,,,,,,
,,,,,,,,2023-08-16_08h21.41.317,HF_wild_card,2022.2.4,Win32,60.0024001,631193fff8094698c07c9ef6,64d2fd46c836a06233681665,64dc78f7e0ad25fbb7c4939a,,,,,,,decisionTrl,resources/DB.BMP,resources/DY.BMP,Door3,-0.29537037,0.025925926,1,0,0,1.0952,optionLeft,70,9895,5,11,0,11,0,1,,,,,,,,,,,,,,,,,,,,,,,,,,,,,,,,,,,,,,,
,,,,,,,,2023-08-16_08h21.41.317,HF_wild_card,2022.2.4,Win32,60.0024001,631193fff8094698c07c9ef6,64d2fd46c836a06233681665,64dc78f7e0ad25fbb7c4939a,,,,,,,decisionTrl,resources/DB.BMP,resources/DY.BMP,Door3,-0.225925926,0.022222222,1,0,0,1.1194,optionLeft,70,9965,5,12,0,12,0,1,,,,,,,,,,,,,,,,,,,,,,,,,,,,,,,,,,,,,,,
,,,,,,,,2023-08-16_08h21.41.317,HF_wild_card,2022.2.4,Win32,60.0024001,631193fff8094698c07c9ef6,64d2fd46c836a06233681665,64dc78f7e0ad25fbb7c4939a,,,,,,,sngl,resources/DR.BMP,resources/Empty.png,Door1,-0.348148148,-0.001851852,1,0,0,0.749,optionLeft,30,9995,5,13,0,13,0,1,,,,,,,,,,,,,,,,,,,,,,,,,,,,,,,,,,,,,,,
,,,,,,,,2023-08-16_08h21.41.317,HF_wild_card,2022.2.4,Win32,60.0024001,631193fff8094698c07c9ef6,64d2fd46c836a06233681665,64dc78f7e0ad25fbb7c4939a,,,,,,,decisionTrl,resources/DBN.BMP,resources/DR.BMP,Door2,-0.378703704,0.061111111,1,0,0,1.0692,optionLeft,20,10015,5,14,0,14,0,1,,,,,,,,,,,,,,,,,,,,,,,,,,,,,,,,,,,,,,,
,,,,,,,,2023-08-16_08h21.41.317,HF_wild_card,2022.2.4,Win32,60.0024001,631193fff8094698c07c9ef6,64d2fd46c836a06233681665,64dc78f7e0ad25fbb7c4939a,,,,,,,decisionTrl,resources/DBN.BMP,resources/DR.BMP,Door1,0.311111111,0.02962963,1,0,0,0.5028,optionRight,30,10045,5,15,0,15,0,1,,,,,,,,,,,,,,,,,,,,,,,,,,,,,,,,,,,,,,,
,,,,,,,,2023-08-16_08h21.41.317,HF_wild_card,2022.2.4,Win32,60.0024001,631193fff8094698c07c9ef6,64d2fd46c836a06233681665,64dc78f7e0ad25fbb7c4939a,,,,,,,ctch,resources/DBN.BMP,resources/DB.BMP,Door3,0.258333333,0.086111111,1,0,0,1.5297,optionRight,70,10115,5,16,0,16,0,1,,,,,,,,,,,,,,,,,,,,,,,,,,,,,,,,,,,,,,,
,,,,,,,,2023-08-16_08h21.41.317,HF_wild_card,2022.2.4,Win32,60.0024001,631193fff8094698c07c9ef6,64d2fd46c836a06233681665,64dc78f7e0ad25fbb7c4939a,,,,,,,decisionTrl,resources/DR.BMP,resources/DBN.BMP,Door2,0.327777778,0.038888889,1,0,0,1.8453,optionRight,20,10135,5,17,0,17,0,1,,,,,,,,,,,,,,,,,,,,,,,,,,,,,,,,,,,,,,,
,,,,,,,,2023-08-16_08h21.41.317,HF_wild_card,2022.2.4,Win32,60.0024001,631193fff8094698c07c9ef6,64d2fd46c836a06233681665,64dc78f7e0ad25fbb7c4939a,,,,,,,decisionTrl,resources/DBN.BMP,resources/DR.BMP,Door1,0.3,0.022222222,1,0,0,1.4028,optionRight,30,10165,5,18,0,18,0,1,,,,,,,,,,,,,,,,,,,,,,,,,,,,,,,,,,,,,,,
,,,,,,,,2023-08-16_08h21.41.317,HF_wild_card,2022.2.4,Win32,60.0024001,631193fff8094698c07c9ef6,64d2fd46c836a06233681665,64dc78f7e0ad25fbb7c4939a,,,,,,,decisionTrl,resources/DR.BMP,resources/DG.BMP,WildCard_NonEx,0.425,0.006481481,1,0,0,1.5823,optionRight,55,10220,5,19,0,19,0,1,,,,,,,,,,,,,,,,,,,,,,,,,,,,,,,,,,,,,,,
,,,,,,,,2023-08-16_08h21.41.317,HF_wild_card,2022.2.4,Win32,60.0024001,631193fff8094698c07c9ef6,64d2fd46c836a06233681665,64dc78f7e0ad25fbb7c4939a,,,,,,,ctch,resources/DY.BMP,resources/DR.BMP,Door4,-0.361111111,0.057407407,1,0,0,1.162,optionLeft,80,10300,5,20,0,20,0,1,,,,,,,,,,,,,,,,,,,,,,,,,,,,,,,,,,,,,,,
,,,,,,,,2023-08-16_08h21.41.317,HF_wild_card,2022.2.4,Win32,60.0024001,631193fff8094698c07c9ef6,64d2fd46c836a06233681665,64dc78f7e0ad25fbb7c4939a,,,,,,,decisionTrl,resources/DG.BMP,resources/DY.BMP,Door4,0.34537037,0.019444444,1,0,0,1.532,optionRight,80,10380,5,21,0,21,0,1,,,,,,,,,,,,,,,,,,,,,,,,,,,,,,,,,,,,,,,
,,,,,,,,2023-08-16_08h21.41.317,HF_wild_card,2022.2.4,Win32,60.0024001,631193fff8094698c07c9ef6,64d2fd46c836a06233681665,64dc78f7e0ad25fbb7c4939a,,,,,,,sngl,resources/DBN.BMP,resources/Empty.png,Door2,-0.275925926,0.032407407,1,0,0,0.7152,optionLeft,40,10420,5,22,0,22,0,1,,,,,,,,,,,,,,,,,,,,,,,,,,,,,,,,,,,,,,,
,,,,,,,,2023-08-16_08h21.41.317,HF_wild_card,2022.2.4,Win32,60.0024001,631193fff8094698c07c9ef6,64d2fd46c836a06233681665,64dc78f7e0ad25fbb7c4939a,,,,,,,ctch,resources/DBN.BMP,resources/DB.BMP,Door3,0.219444444,0.031481481,1,0,0,0.853,optionRight,70,10490,5,23,0,23,0,1,,,,,,,,,,,,,,,,,,,,,,,,,,,,,,,,,,,,,,,
,,,,,,,,2023-08-16_08h21.41.317,HF_wild_card,2022.2.4,Win32,60.0024001,631193fff8094698c07c9ef6,64d2fd46c836a06233681665,64dc78f7e0ad25fbb7c4939a,,,,,,,decisionTrl,resources/DG.BMP,resources/DBN.BMP,WildCard_NonEx,-0.339814815,0.062037037,1,0,0,1.186,optionLeft,55,10545,5,24,0,24,0,1,,,,,,,,,,,,,,,,,,,,,,,,,,,,,,,,,,,,,,,
,,,,,,,,2023-08-16_08h21.41.317,HF_wild_card,2022.2.4,Win32,60.0024001,631193fff8094698c07c9ef6,64d2fd46c836a06233681665,64dc78f7e0ad25fbb7c4939a,,,,,,,decisionTrl,resources/DB.BMP,resources/DY.BMP,Door3,-0.34537037,0.050925926,1,0,0,2.1156,optionLeft,70,10615,5,25,0,25,0,1,,,,,,,,,,,,,,,,,,,,,,,,,,,,,,,,,,,,,,,
,,,,,,,,2023-08-16_08h21.41.317,HF_wild_card,2022.2.4,Win32,60.0024001,631193fff8094698c07c9ef6,64d2fd46c836a06233681665,64dc78f7e0ad25fbb7c4939a,,,,,,,decisionTrl,resources/DY.BMP,resources/DB.BMP,Door3,0.266666667,0.042592593,1,0,0,1.0113,optionRight,70,10685,5,26,0,26,0,1,,,,,,,,,,,,,,,,,,,,,,,,,,,,,,,,,,,,,,,
,,,,,,,,2023-08-16_08h21.41.317,HF_wild_card,2022.2.4,Win32,60.0024001,631193fff8094698c07c9ef6,64d2fd46c836a06233681665,64dc78f7e0ad25fbb7c4939a,,,,,,,decisionTrl,resources/DG.BMP,resources/DR.BMP,WildCard_NonEx,-0.269444444,0.068518519,1,0,0,2.0155,optionLeft,45,10730,5,27,0,27,0,1,,,,,,,,,,,,,,,,,,,,,,,,,,,,,,,,,,,,,,,
,,,,,,,,2023-08-16_08h21.41.317,HF_wild_card,2022.2.4,Win32,60.0024001,631193fff8094698c07c9ef6,64d2fd46c836a06233681665,64dc78f7e0ad25fbb7c4939a,,,,,,,decisionTrl,resources/DG.BMP,resources/DB.BMP,Door3,0.340740741,0.024074074,1,0,0,1.0786,optionRight,70,10800,5,28,0,28,0,1,,,,,,,,,,,,,,,,,,,,,,,,,,,,,,,,,,,,,,,
,,,,,,,,2023-08-16_08h21.41.317,HF_wild_card,2022.2.4,Win32,60.0024001,631193fff8094698c07c9ef6,64d2fd46c836a06233681665,64dc78f7e0ad25fbb7c4939a,,,,,,,decisionTrl,resources/DBN.BMP,resources/DR.BMP,Door1,0.307407407,0.001851852,1,0,0,1.7155,optionRight,30,10830,5,29,0,29,0,1,,,,,,,,,,,,,,,,,,,,,,,,,,,,,,,,,,,,,,,
,,,,,,,,2023-08-16_08h21.41.317,HF_wild_card,2022.2.4,Win32,60.0024001,631193fff8094698c07c9ef6,64d2fd46c836a06233681665,64dc78f7e0ad25fbb7c4939a,,,,,,,ctch,resources/DB.BMP,resources/DBN.BMP,Door3,-0.298148148,0.073148148,1,0,0,1.2157,optionLeft,70,10900,5,30,0,30,0,1,,,,,,,,,,,,,,,,,,,,,,,,,,,,,,,,,,,,,,,
,,,,,,,,2023-08-16_08h21.41.317,HF_wild_card,2022.2.4,Win32,60.0024001,631193fff8094698c07c9ef6,64d2fd46c836a06233681665,64dc78f7e0ad25fbb7c4939a,,,,,,,decisionTrl,resources/DY.BMP,resources/DB.BMP,Door4,-0.225,0.102777778,1,0,0,1.1323,optionLeft,60,10960,5,31,0,31,0,1,,,,,,,,,,,,,,,,,,,,,,,,,,,,,,,,,,,,,,,
,,,,,,,,2023-08-16_08h21.41.317,HF_wild_card,2022.2.4,Win32,60.0024001,631193fff8094698c07c9ef6,64d2fd46c836a06233681665,64dc78f7e0ad25fbb7c4939a,,,,,,,ctch,resources/DB.BMP,resources/DBN.BMP,Door3,-0.313888889,0.116666667,1,0,0,0.8026,optionLeft,70,11030,5,32,0,32,0,1,,,,,,,,,,,,,,,,,,,,,,,,,,,,,,,,,,,,,,,
,,,,,,,,2023-08-16_08h21.41.317,HF_wild_card,2022.2.4,Win32,60.0024001,631193fff8094698c07c9ef6,64d2fd46c836a06233681665,64dc78f7e0ad25fbb7c4939a,,,,,,,sngl,resources/Empty.png,resources/DY.BMP,Door4,0.27962963,0.016666667,1,0,0,0.5491,optionRight,60,11090,5,33,0,33,0,1,,,,,,,,,,,,,,,,,,,,,,,,,,,,,,,,,,,,,,,
,,,,,,,,2023-08-16_08h21.41.317,HF_wild_card,2022.2.4,Win32,60.0024001,631193fff8094698c07c9ef6,64d2fd46c836a06233681665,64dc78f7e0ad25fbb7c4939a,,,,,,,decisionTrl,resources/DY.BMP,resources/DG.BMP,Door4,-0.410185185,0.062962963,1,0,0,1.1157,optionLeft,60,11150,5,34,0,34,0,1,,,,,,,,,,,,,,,,,,,,,,,,,,,,,,,,,,,,,,,
,,,,,,,,2023-08-16_08h21.41.317,HF_wild_card,2022.2.4,Win32,60.0024001,631193fff8094698c07c9ef6,64d2fd46c836a06233681665,64dc78f7e0ad25fbb7c4939a,,,,,,,sngl,resources/DB.BMP,resources/Empty.png,Door3,-0.263888889,0.039814815,1,0,0,0.5491,optionLeft,70,11220,5,35,0,35,0,1,,,,,,,,,,,,,,,,,,,,,,,,,,,,,,,,,,,,,,,
,,,,,,,,2023-08-16_08h21.41.317,HF_wild_card,2022.2.4,Win32,60.0024001,631193fff8094698c07c9ef6,64d2fd46c836a06233681665,64dc78f7e0ad25fbb7c4939a,,,,,,,decisionTrl,resources/DB.BMP,resources/DY.BMP,Door3,-0.302777778,0.063888889,1,0,0,4.4952,optionLeft,70,11290,5,36,0,36,0,1,,,,,,,,,,,,,,,,,,,,,,,,,,,,,,,,,,,,,,,
,,,,,,,,2023-08-16_08h21.41.317,HF_wild_card,2022.2.4,Win32,60.0024001,631193fff8094698c07c9ef6,64d2fd46c836a06233681665,64dc78f7e0ad25fbb7c4939a,,,,,,,ctch,resources/DY.BMP,resources/DR.BMP,Door4,-0.207407407,0.061111111,1,0,0,2.3488,optionLeft,60,11350,5,37,0,37,0,1,,,,,,,,,,,,,,,,,,,,,,,,,,,,,,,,,,,,,,,
,,,,,,,,2023-08-16_08h21.41.317,HF_wild_card,2022.2.4,Win32,60.0024001,631193fff8094698c07c9ef6,64d2fd46c836a06233681665,64dc78f7e0ad25fbb7c4939a,,,,,,,decisionTrl,resources/DR.BMP,resources/DBN.BMP,Door1,-0.25,0.04537037,1,0,0,3.7323,optionLeft,30,11380,5,38,0,38,0,1,,,,,,,,,,,,,,,,,,,,,,,,,,,,,,,,,,,,,,,
,,,,,,,,2023-08-16_08h21.41.317,HF_wild_card,2022.2.4,Win32,60.0024001,631193fff8094698c07c9ef6,64d2fd46c836a06233681665,64dc78f7e0ad25fbb7c4939a,,,,,,,decisionTrl,resources/DR.BMP,resources/DBN.BMP,Door2,0.258333333,0.060185185,1,0,0,1.8527,optionRight,40,11420,5,39,0,39,0,1,,,,,,,,,,,,,,,,,,,,,,,,,,,,,,,,,,,,,,,
,,,,,,,,2023-08-16_08h21.41.317,HF_wild_card,2022.2.4,Win32,60.0024001,631193fff8094698c07c9ef6,64d2fd46c836a06233681665,64dc78f7e0ad25fbb7c4939a,,,,,,,sngl,resources/Empty.png,resources/DBN.BMP,Door2,0.174074074,0.108333333,1,0,0,1.3692,optionRight,20,11440,5,40,0,40,0,1,,,,,,,,,,,,,,,,,,,,,,,,,,,,,,,,,,,,,,,
,,,,,,,,2023-08-16_08h21.41.317,HF_wild_card,2022.2.4,Win32,60.0024001,631193fff8094698c07c9ef6,64d2fd46c836a06233681665,64dc78f7e0ad25fbb7c4939a,,,,,,,sngl,resources/DG.BMP,resources/Empty.png,WildCard_NonEx,-0.265740741,-0.011111111,1,0,0,0.5989,optionLeft,55,11495,5,41,0,41,0,1,,,,,,,,,,,,,,,,,,,,,,,,,,,,,,,,,,,,,,,
,,,,,,,,2023-08-16_08h21.41.317,HF_wild_card,2022.2.4,Win32,60.0024001,631193fff8094698c07c9ef6,64d2fd46c836a06233681665,64dc78f7e0ad25fbb7c4939a,,,,,,,sngl,resources/Empty.png,resources/DG.BMP,WildCard_NonEx,0.312037037,0.072222222,1,0,0,0.586,optionRight,55,11550,5,42,0,42,0,1,,,,,,,,,,,,,,,,,,,,,,,,,,,,,,,,,,,,,,,
,,,,,,,,2023-08-16_08h21.41.317,HF_wild_card,2022.2.4,Win32,60.0024001,631193fff8094698c07c9ef6,64d2fd46c836a06233681665,64dc78f7e0ad25fbb7c4939a,,,,,,,decisionTrl,resources/DY.BMP,resources/DB.BMP,Door4,-0.274074074,0.071296296,1,0,0,5.7693,optionLeft,60,11610,5,43,0,43,0,1,,,,,,,,,,,,,,,,,,,,,,,,,,,,,,,,,,,,,,,
,,,,,,,,2023-08-16_08h21.41.317,HF_wild_card,2022.2.4,Win32,60.0024001,631193fff8094698c07c9ef6,64d2fd46c836a06233681665,64dc78f7e0ad25fbb7c4939a,,,,,,,,,,,,,,,,,,,,,,,,,,4,0,4,0,1,,,,,,,,,,,,,,,,,,,,,,,,,,,,,,,,,,
,,,,,,,,2023-08-16_08h21.41.317,HF_wild_card,2022.2.4,Win32,60.0024001,631193fff8094698c07c9ef6,64d2fd46c836a06233681665,64dc78f7e0ad25fbb7c4939a,,,,,,,decisionTrl,resources/DR.BMP,resources/DBN.BMP,Door1,-0.225,0.04537037,1,0,0,1.5306,optionLeft,30,11640,6,0,0,0,0,1,,,,,,,,,,,,,,,,,,,,,,,,,,,,,,,,,,,,,,,
,,,,,,,,2023-08-16_08h21.41.317,HF_wild_card,2022.2.4,Win32,60.0024001,631193fff8094698c07c9ef6,64d2fd46c836a06233681665,64dc78f7e0ad25fbb7c4939a,,,,,,,decisionTrl,resources/DB.BMP,resources/DY.BMP,Door3,-0.266666667,0.107407407,1,0,0,1.2322,optionLeft,70,11710,6,1,0,1,0,1,,,,,,,,,,,,,,,,,,,,,,,,,,,,,,,,,,,,,,,
,,,,,,,,2023-08-16_08h21.41.317,HF_wild_card,2022.2.4,Win32,60.0024001,631193fff8094698c07c9ef6,64d2fd46c836a06233681665,64dc78f7e0ad25fbb7c4939a,,,,,,,decisionTrl,resources/DG.BMP,resources/DB.BMP,Door3,0.376851852,0.089814815,1,0,0,0.9807,optionRight,70,11780,6,2,0,2,0,1,,,,,,,,,,,,,,,,,,,,,,,,,,,,,,,,,,,,,,,
,,,,,,,,2023-08-16_08h21.41.317,HF_wild_card,2022.2.4,Win32,60.0024001,631193fff8094698c07c9ef6,64d2fd46c836a06233681665,64dc78f7e0ad25fbb7c4939a,,,,,,,decisionTrl,resources/DBN.BMP,resources/DR.BMP,Door1,0.328703704,0.112037037,1,0,0,1.9156,optionRight,30,11810,6,3,0,3,0,1,,,,,,,,,,,,,,,,,,,,,,,,,,,,,,,,,,,,,,,
,,,,,,,,2023-08-16_08h21.41.317,HF_wild_card,2022.2.4,Win32,60.0024001,631193fff8094698c07c9ef6,64d2fd46c836a06233681665,64dc78f7e0ad25fbb7c4939a,,,,,,,sngl,resources/Empty.png,resources/DB.BMP,Door3,0.280555556,0.044444444,1,0,0,0.5846,optionRight,70,11880,6,4,0,4,0,1,,,,,,,,,,,,,,,,,,,,,,,,,,,,,,,,,,,,,,,
,,,,,,,,2023-08-16_08h21.41.317,HF_wild_card,2022.2.4,Win32,60.0024001,631193fff8094698c07c9ef6,64d2fd46c836a06233681665,64dc78f7e0ad25fbb7c4939a,,,,,,,ctch,resources/DBN.BMP,resources/DB.BMP,Door3,0.187962963,0.067592593,1,0,0,0.7991,optionRight,70,11950,6,5,0,5,0,1,,,,,,,,,,,,,,,,,,,,,,,,,,,,,,,,,,,,,,,
,,,,,,,,2023-08-16_08h21.41.317,HF_wild_card,2022.2.4,Win32,60.0024001,631193fff8094698c07c9ef6,64d2fd46c836a06233681665,64dc78f7e0ad25fbb7c4939a,,,,,,,ctch,resources/DBN.BMP,resources/DB.BMP,Door3,0.188888889,0.072222222,1,0,0,0.6156,optionRight,70,12020,6,6,0,6,0,1,,,,,,,,,,,,,,,,,,,,,,,,,,,,,,,,,,,,,,,
,,,,,,,,2023-08-16_08h21.41.317,HF_wild_card,2022.2.4,Win32,60.0024001,631193fff8094698c07c9ef6,64d2fd46c836a06233681665,64dc78f7e0ad25fbb7c4939a,,,,,,,sngl,resources/Empty.png,resources/DG.BMP,WildCard_NonEx,0.242592593,0.05,1,0,0,0.6158,optionRight,55,12075,6,7,0,7,0,1,,,,,,,,,,,,,,,,,,,,,,,,,,,,,,,,,,,,,,,
,,,,,,,,2023-08-16_08h21.41.317,HF_wild_card,2022.2.4,Win32,60.0024001,631193fff8094698c07c9ef6,64d2fd46c836a06233681665,64dc78f7e0ad25fbb7c4939a,,,,,,,decisionTrl,resources/DY.BMP,resources/DG.BMP,Door4,-0.246296296,0.076851852,1,0,0,1.6324,optionLeft,60,12135,6,8,0,8,0,1,,,,,,,,,,,,,,,,,,,,,,,,,,,,,,,,,,,,,,,
,,,,,,,,2023-08-16_08h21.41.317,HF_wild_card,2022.2.4,Win32,60.0024001,631193fff8094698c07c9ef6,64d2fd46c836a06233681665,64dc78f7e0ad25fbb7c4939a,,,,,,,decisionTrl,resources/DY.BMP,resources/DB.BMP,Door4,-0.325925926,0.067592593,1,0,0,1.4026,optionLeft,60,12195,6,9,0,9,0,1,,,,,,,,,,,,,,,,,,,,,,,,,,,,,,,,,,,,,,,
,,,,,,,,2023-08-16_08h21.41.317,HF_wild_card,2022.2.4,Win32,60.0024001,631193fff8094698c07c9ef6,64d2fd46c836a06233681665,64dc78f7e0ad25fbb7c4939a,,,,,,,decisionTrl,resources/DB.BMP,resources/DY.BMP,Door4,0.162037037,0.022222222,1,0,0,0.7325,optionRight,80,12275,6,10,0,10,0,1,,,,,,,,,,,,,,,,,,,,,,,,,,,,,,,,,,,,,,,
,,,,,,,,2023-08-16_08h21.41.317,HF_wild_card,2022.2.4,Win32,60.0024001,631193fff8094698c07c9ef6,64d2fd46c836a06233681665,64dc78f7e0ad25fbb7c4939a,,,,,,,decisionTrl,resources/DR.BMP,resources/DBN.BMP,Door1,-0.242592593,0.058333333,1,0,0,1.1822,optionLeft,30,12305,6,11,0,11,0,1,,,,,,,,,,,,,,,,,,,,,,,,,,,,,,,,,,,,,,,
,,,,,,,,2023-08-16_08h21.41.317,HF_wild_card,2022.2.4,Win32,60.0024001,631193fff8094698c07c9ef6,64d2fd46c836a06233681665,64dc78f7e0ad25fbb7c4939a,,,,,,,ctch,resources/DR.BMP,resources/DY.BMP,Door4,0.219444444,0.034259259,1,0,0,1.0487,optionRight,60,12365,6,12,0,12,0,1,,,,,,,,,,,,,,,,,,,,,,,,,,,,,,,,,,,,,,,
,,,,,,,,2023-08-16_08h21.41.317,HF_wild_card,2022.2.4,Win32,60.0024001,631193fff8094698c07c9ef6,64d2fd46c836a06233681665,64dc78f7e0ad25fbb7c4939a,,,,,,,decisionTrl,resources/DY.BMP,resources/DB.BMP,Door3,0.188888889,0.087962963,1,0,0,0.9656,optionRight,70,12435,6,13,0,13,0,1,,,,,,,,,,,,,,,,,,,,,,,,,,,,,,,,,,,,,,,
,,,,,,,,2023-08-16_08h21.41.317,HF_wild_card,2022.2.4,Win32,60.0024001,631193fff8094698c07c9ef6,64d2fd46c836a06233681665,64dc78f7e0ad25fbb7c4939a,,,,,,,sngl,resources/DY.BMP,resources/Empty.png,Door4,-0.178703704,0.001851852,1,0,0,0.6348,optionLeft,60,12495,6,14,0,14,0,1,,,,,,,,,,,,,,,,,,,,,,,,,,,,,,,,,,,,,,,
,,,,,,,,2023-08-16_08h21.41.317,HF_wild_card,2022.2.4,Win32,60.0024001,631193fff8094698c07c9ef6,64d2fd46c836a06233681665,64dc78f7e0ad25fbb7c4939a,,,,,,,sngl,resources/Empty.png,resources/DY.BMP,Door4,0.200925926,0.041666667,1,0,0,0.5824,optionRight,80,12575,6,15,0,15,0,1,,,,,,,,,,,,,,,,,,,,,,,,,,,,,,,,,,,,,,,
,,,,,,,,2023-08-16_08h21.41.317,HF_wild_card,2022.2.4,Win32,60.0024001,631193fff8094698c07c9ef6,64d2fd46c836a06233681665,64dc78f7e0ad25fbb7c4939a,,,,,,,decisionTrl,resources/DBN.BMP,resources/DG.BMP,WildCard_NonEx,0.180555556,0.032407407,1,0,0,1.1156,optionRight,45,12620,6,16,0,16,0,1,,,,,,,,,,,,,,,,,,,,,,,,,,,,,,,,,,,,,,,
,,,,,,,,2023-08-16_08h21.41.317,HF_wild_card,2022.2.4,Win32,60.0024001,631193fff8094698c07c9ef6,64d2fd46c836a06233681665,64dc78f7e0ad25fbb7c4939a,,,,,,,decisionTrl,resources/DBN.BMP,resources/DR.BMP,Door1,0.231481481,0.103703704,1,0,0,1.2836,optionRight,30,12650,6,17,0,17,0,1,,,,,,,,,,,,,,,,,,,,,,,,,,,,,,,,,,,,,,,
,,,,,,,,2023-08-16_08h21.41.317,HF_wild_card,2022.2.4,Win32,60.0024001,631193fff8094698c07c9ef6,64d2fd46c836a06233681665,64dc78f7e0ad25fbb7c4939a,,,,,,,sngl,resources/Empty.png,resources/DG.BMP,WildCard_NonEx,0.260185185,0.058333333,1,0,0,0.5658,optionRight,45,12695,6,18,0,18,0,1,,,,,,,,,,,,,,,,,,,,,,,,,,,,,,,,,,,,,,,
,,,,,,,,2023-08-16_08h21.41.317,HF_wild_card,2022.2.4,Win32,60.0024001,631193fff8094698c07c9ef6,64d2fd46c836a06233681665,64dc78f7e0ad25fbb7c4939a,,,,,,,decisionTrl,resources/DY.BMP,resources/DB.BMP,Door3,0.212037037,0.068518519,1,0,0,0.8321,optionRight,70,12765,6,19,0,19,0,1,,,,,,,,,,,,,,,,,,,,,,,,,,,,,,,,,,,,,,,
,,,,,,,,2023-08-16_08h21.41.317,HF_wild_card,2022.2.4,Win32,60.0024001,631193fff8094698c07c9ef6,64d2fd46c836a06233681665,64dc78f7e0ad25fbb7c4939a,,,,,,,decisionTrl,resources/DBN.BMP,resources/DR.BMP,Door1,0.299074074,0.069444444,1,0,0,1.2027,optionRight,30,12795,6,20,0,20,0,1,,,,,,,,,,,,,,,,,,,,,,,,,,,,,,,,,,,,,,,
,,,,,,,,2023-08-16_08h21.41.317,HF_wild_card,2022.2.4,Win32,60.0024001,631193fff8094698c07c9ef6,64d2fd46c836a06233681665,64dc78f7e0ad25fbb7c4939a,,,,,,,ctch,resources/DR.BMP,resources/DY.BMP,Door4,0.258333333,0.103703704,1,0,0,2.9907,optionRight,60,12855,6,21,0,21,0,1,,,,,,,,,,,,,,,,,,,,,,,,,,,,,,,,,,,,,,,
,,,,,,,,2023-08-16_08h21.41.317,HF_wild_card,2022.2.4,Win32,60.0024001,631193fff8094698c07c9ef6,64d2fd46c836a06233681665,64dc78f7e0ad25fbb7c4939a,,,,,,,sngl,resources/DBN.BMP,resources/Empty.png,Door2,-0.208333333,0.062962963,1,0,0,0.6323,optionLeft,20,12875,6,22,0,22,0,1,,,,,,,,,,,,,,,,,,,,,,,,,,,,,,,,,,,,,,,
,,,,,,,,2023-08-16_08h21.41.317,HF_wild_card,2022.2.4,Win32,60.0024001,631193fff8094698c07c9ef6,64d2fd46c836a06233681665,64dc78f7e0ad25fbb7c4939a,,,,,,,sngl,resources/Empty.png,resources/DR.BMP,Door1,0.246296296,0.089814815,1,0,0,0.6361,optionRight,30,12905,6,23,0,23,0,1,,,,,,,,,,,,,,,,,,,,,,,,,,,,,,,,,,,,,,,
,,,,,,,,2023-08-16_08h21.41.317,HF_wild_card,2022.2.4,Win32,60.0024001,631193fff8094698c07c9ef6,64d2fd46c836a06233681665,64dc78f7e0ad25fbb7c4939a,,,,,,,ctch,resources/DB.BMP,resources/DBN.BMP,Door3,-0.374074074,0.083333333,1,0,0,1.0141,optionLeft,70,12975,6,24,0,24,0,1,,,,,,,,,,,,,,,,,,,,,,,,,,,,,,,,,,,,,,,
,,,,,,,,2023-08-16_08h21.41.317,HF_wild_card,2022.2.4,Win32,60.0024001,631193fff8094698c07c9ef6,64d2fd46c836a06233681665,64dc78f7e0ad25fbb7c4939a,,,,,,,ctch,resources/DB.BMP,resources/DBN.BMP,Door3,-0.218518519,0.051851852,1,0,0,0.7621,optionLeft,70,13045,6,25,0,25,0,1,,,,,,,,,,,,,,,,,,,,,,,,,,,,,,,,,,,,,,,
,,,,,,,,2023-08-16_08h21.41.317,HF_wild_card,2022.2.4,Win32,60.0024001,631193fff8094698c07c9ef6,64d2fd46c836a06233681665,64dc78f7e0ad25fbb7c4939a,,,,,,,ctch,resources/DY.BMP,resources/DR.BMP,Door4,-0.221296296,0.064814815,1,0,0,1.8968,optionLeft,60,13105,6,26,0,26,0,1,,,,,,,,,,,,,,,,,,,,,,,,,,,,,,,,,,,,,,,
,,,,,,,,2023-08-16_08h21.41.317,HF_wild_card,2022.2.4,Win32,60.0024001,631193fff8094698c07c9ef6,64d2fd46c836a06233681665,64dc78f7e0ad25fbb7c4939a,,,,,,,sngl,resources/Empty.png,resources/DBN.BMP,Door2,0.225925926,0.040740741,1,0,0,0.5785,optionRight,40,13145,6,27,0,27,0,1,,,,,,,,,,,,,,,,,,,,,,,,,,,,,,,,,,,,,,,
,,,,,,,,2023-08-16_08h21.41.317,HF_wild_card,2022.2.4,Win32,60.0024001,631193fff8094698c07c9ef6,64d2fd46c836a06233681665,64dc78f7e0ad25fbb7c4939a,,,,,,,decisionTrl,resources/DB.BMP,resources/DG.BMP,Door3,-0.291666667,0.059259259,1,0,0,1.1445,optionLeft,70,13215,6,28,0,28,0,1,,,,,,,,,,,,,,,,,,,,,,,,,,,,,,,,,,,,,,,
,,,,,,,,2023-08-16_08h21.41.317,HF_wild_card,2022.2.4,Win32,60.0024001,631193fff8094698c07c9ef6,64d2fd46c836a06233681665,64dc78f7e0ad25fbb7c4939a,,,,,,,decisionTrl,resources/DR.BMP,resources/DG.BMP,WildCard_NonEx,0.276851852,0.075925926,1,0,0,1.0194,optionRight,45,13260,6,29,0,29,0,1,,,,,,,,,,,,,,,,,,,,,,,,,,,,,,,,,,,,,,,
,,,,,,,,2023-08-16_08h21.41.317,HF_wild_card,2022.2.4,Win32,60.0024001,631193fff8094698c07c9ef6,64d2fd46c836a06233681665,64dc78f7e0ad25fbb7c4939a,,,,,,,decisionTrl,resources/DG.BMP,resources/DY.BMP,Door4,0.334259259,0.05,1,0,0,0.8528,optionRight,60,13320,6,30,0,30,0,1,,,,,,,,,,,,,,,,,,,,,,,,,,,,,,,,,,,,,,,
,,,,,,,,2023-08-16_08h21.41.317,HF_wild_card,2022.2.4,Win32,60.0024001,631193fff8094698c07c9ef6,64d2fd46c836a06233681665,64dc78f7e0ad25fbb7c4939a,,,,,,,sngl,resources/DG.BMP,resources/Empty.png,WildCard_NonEx,-0.19537037,0.047222222,1,0,0,0.6031,optionLeft,45,13365,6,31,0,31,0,1,,,,,,,,,,,,,,,,,,,,,,,,,,,,,,,,,,,,,,,
,,,,,,,,2023-08-16_08h21.41.317,HF_wild_card,2022.2.4,Win32,60.0024001,631193fff8094698c07c9ef6,64d2fd46c836a06233681665,64dc78f7e0ad25fbb7c4939a,,,,,,,decisionTrl,resources/DY.BMP,resources/DB.BMP,Door3,0.338888889,0.046296296,1,0,0,1.9158,optionRight,70,13435,6,32,0,32,0,1,,,,,,,,,,,,,,,,,,,,,,,,,,,,,,,,,,,,,,,
,,,,,,,,2023-08-16_08h21.41.317,HF_wild_card,2022.2.4,Win32,60.0024001,631193fff8094698c07c9ef6,64d2fd46c836a06233681665,64dc78f7e0ad25fbb7c4939a,,,,,,,sngl,resources/DB.BMP,resources/Empty.png,Door3,-0.248148148,0.015740741,1,0,0,0.703,optionLeft,70,13505,6,33,0,33,0,1,,,,,,,,,,,,,,,,,,,,,,,,,,,,,,,,,,,,,,,
,,,,,,,,2023-08-16_08h21.41.317,HF_wild_card,2022.2.4,Win32,60.0024001,631193fff8094698c07c9ef6,64d2fd46c836a06233681665,64dc78f7e0ad25fbb7c4939a,,,,,,,decisionTrl,resources/DR.BMP,resources/DBN.BMP,Door1,-0.307407407,0.087962963,1,0,0,1.5823,optionLeft,30,13535,6,34,0,34,0,1,,,,,,,,,,,,,,,,,,,,,,,,,,,,,,,,,,,,,,,
,,,,,,,,2023-08-16_08h21.41.317,HF_wild_card,2022.2.4,Win32,60.0024001,631193fff8094698c07c9ef6,64d2fd46c836a06233681665,64dc78f7e0ad25fbb7c4939a,,,,,,,decisionTrl,resources/DB.BMP,resources/DY.BMP,Door4,0.241666667,0.14537037,1,0,0,2.0669,optionRight,60,13595,6,35,0,35,0,1,,,,,,,,,,,,,,,,,,,,,,,,,,,,,,,,,,,,,,,
,,,,,,,,2023-08-16_08h21.41.317,HF_wild_card,2022.2.4,Win32,60.0024001,631193fff8094698c07c9ef6,64d2fd46c836a06233681665,64dc78f7e0ad25fbb7c4939a,,,,,,,sngl,resources/DG.BMP,resources/Empty.png,WildCard_NonEx,-0.281481481,0.048148148,1,0,0,0.4658,optionLeft,55,13650,6,36,0,36,0,1,,,,,,,,,,,,,,,,,,,,,,,,,,,,,,,,,,,,,,,
,,,,,,,,2023-08-16_08h21.41.317,HF_wild_card,2022.2.4,Win32,60.0024001,631193fff8094698c07c9ef6,64d2fd46c836a06233681665,64dc78f7e0ad25fbb7c4939a,,,,,,,decisionTrl,resources/DBN.BMP,resources/DR.BMP,Door1,0.172222222,0.068518519,1,0,0,1.2286,optionRight,30,13680,6,37,0,37,0,1,,,,,,,,,,,,,,,,,,,,,,,,,,,,,,,,,,,,,,,
,,,,,,,,2023-08-16_08h21.41.317,HF_wild_card,2022.2.4,Win32,60.0024001,631193fff8094698c07c9ef6,64d2fd46c836a06233681665,64dc78f7e0ad25fbb7c4939a,,,,,,,ctch,resources/DY.BMP,resources/DR.BMP,Door4,-0.157407407,0.075,1,0,0,1.149,optionLeft,80,13760,6,38,0,38,0,1,,,,,,,,,,,,,,,,,,,,,,,,,,,,,,,,,,,,,,,
,,,,,,,,2023-08-16_08h21.41.317,HF_wild_card,2022.2.4,Win32,60.0024001,631193fff8094698c07c9ef6,64d2fd46c836a06233681665,64dc78f7e0ad25fbb7c4939a,,,,,,,decisionTrl,resources/DG.BMP,resources/DBN.BMP,WildCard_NonEx,-0.206481481,0.055555556,1,0,0,1.0359,optionLeft,45,13805,6,39,0,39,0,1,,,,,,,,,,,,,,,,,,,,,,,,,,,,,,,,,,,,,,,
,,,,,,,,2023-08-16_08h21.41.317,HF_wild_card,2022.2.4,Win32,60.0024001,631193fff8094698c07c9ef6,64d2fd46c836a06233681665,64dc78f7e0ad25fbb7c4939a,,,,,,,sngl,resources/DR.BMP,resources/Empty.png,Door1,-0.198148148,0.05462963,1,0,0,0.5488,optionLeft,30,13835,6,40,0,40,0,1,,,,,,,,,,,,,,,,,,,,,,,,,,,,,,,,,,,,,,,
,,,,,,,,2023-08-16_08h21.41.317,HF_wild_card,2022.2.4,Win32,60.0024001,631193fff8094698c07c9ef6,64d2fd46c836a06233681665,64dc78f7e0ad25fbb7c4939a,,,,,,,decisionTrl,resources/DR.BMP,resources/DBN.BMP,Door2,0.153703704,0.086111111,1,0,0,1.9656,optionRight,40,13875,6,41,0,41,0,1,,,,,,,,,,,,,,,,,,,,,,,,,,,,,,,,,,,,,,,
,,,,,,,,2023-08-16_08h21.41.317,HF_wild_card,2022.2.4,Win32,60.0024001,631193fff8094698c07c9ef6,64d2fd46c836a06233681665,64dc78f7e0ad25fbb7c4939a,,,,,,,decisionTrl,resources/DB.BMP,resources/DY.BMP,Door3,-0.183333333,0.065740741,1,0,0,0.9488,optionLeft,70,13945,6,42,0,42,0,1,,,,,,,,,,,,,,,,,,,,,,,,,,,,,,,,,,,,,,,
,,,,,,,,2023-08-16_08h21.41.317,HF_wild_card,2022.2.4,Win32,60.0024001,631193fff8094698c07c9ef6,64d2fd46c836a06233681665,64dc78f7e0ad25fbb7c4939a,,,,,,,decisionTrl,resources/DG.BMP,resources/DR.BMP,WildCard_NonEx,-0.188888889,0.053703704,1,0,0,1.2156,optionLeft,55,14000,6,43,0,43,0,1,,,,,,,,,,,,,,,,,,,,,,,,,,,,,,,,,,,,,,,
,,,,,,,,2023-08-16_08h21.41.317,HF_wild_card,2022.2.4,Win32,60.0024001,631193fff8094698c07c9ef6,64d2fd46c836a06233681665,64dc78f7e0ad25fbb7c4939a,,,,,,,,,,,,,,,,,,,,,,,,,,5,0,5,0,1,,,,,,,,,,,,,,,,,,,,,,,,,,,,,,,,,,
,,,,,,,,2023-08-16_08h21.41.317,HF_wild_card,2022.2.4,Win32,60.0024001,631193fff8094698c07c9ef6,64d2fd46c836a06233681665,64dc78f7e0ad25fbb7c4939a,,,,,,,decisionTrl,resources/DY.BMP,resources/DB.BMP,Door3,0.225,0.043518519,1,0,0,1.5632,optionRight,70,14070,7,0,0,0,0,1,,,,,,,,,,,,,,,,,,,,,,,,,,,,,,,,,,,,,,,
,,,,,,,,2023-08-16_08h21.41.317,HF_wild_card,2022.2.4,Win32,60.0024001,631193fff8094698c07c9ef6,64d2fd46c836a06233681665,64dc78f7e0ad25fbb7c4939a,,,,,,,ctch,resources/DBN.BMP,resources/DB.BMP,Door3,0.225925926,0.071296296,1,0,0,1.279,optionRight,70,14140,7,1,0,1,0,1,,,,,,,,,,,,,,,,,,,,,,,,,,,,,,,,,,,,,,,
,,,,,,,,2023-08-16_08h21.41.317,HF_wild_card,2022.2.4,Win32,60.0024001,631193fff8094698c07c9ef6,64d2fd46c836a06233681665,64dc78f7e0ad25fbb7c4939a,,,,,,,decisionTrl,resources/DBN.BMP,resources/DR.BMP,Door1,0.187037037,0.066666667,1,0,0,1.9995,optionRight,30,14170,7,2,0,2,0,1,,,,,,,,,,,,,,,,,,,,,,,,,,,,,,,,,,,,,,,
,,,,,,,,2023-08-16_08h21.41.317,HF_wild_card,2022.2.4,Win32,60.0024001,631193fff8094698c07c9ef6,64d2fd46c836a06233681665,64dc78f7e0ad25fbb7c4939a,,,,,,,decisionTrl,resources/DB.BMP,resources/DY.BMP,Door3,-0.15,0.118518519,1,0,0,1.5994,optionLeft,70,14240,7,3,0,3,0,1,,,,,,,,,,,,,,,,,,,,,,,,,,,,,,,,,,,,,,,
,,,,,,,,2023-08-16_08h21.41.317,HF_wild_card,2022.2.4,Win32,60.0024001,631193fff8094698c07c9ef6,64d2fd46c836a06233681665,64dc78f7e0ad25fbb7c4939a,,,,,,,decisionTrl,resources/DBN.BMP,resources/DR.BMP,Door1,0.17962963,0.15,1,0,0,0.9493,optionRight,30,14270,7,4,0,4,0,1,,,,,,,,,,,,,,,,,,,,,,,,,,,,,,,,,,,,,,,
,,,,,,,,2023-08-16_08h21.41.317,HF_wild_card,2022.2.4,Win32,60.0024001,631193fff8094698c07c9ef6,64d2fd46c836a06233681665,64dc78f7e0ad25fbb7c4939a,,,,,,,decisionTrl,resources/DBN.BMP,resources/DR.BMP,Door1,0.203703704,0.166666667,1,0,0,0.7032,optionRight,30,14300,7,5,0,5,0,1,,,,,,,,,,,,,,,,,,,,,,,,,,,,,,,,,,,,,,,
,,,,,,,,2023-08-16_08h21.41.317,HF_wild_card,2022.2.4,Win32,60.0024001,631193fff8094698c07c9ef6,64d2fd46c836a06233681665,64dc78f7e0ad25fbb7c4939a,,,,,,,ctch,resources/DR.BMP,resources/DY.BMP,Door4,0.29537037,0.165740741,1,0,0,1.3492,optionRight,60,14360,7,6,0,6,0,1,,,,,,,,,,,,,,,,,,,,,,,,,,,,,,,,,,,,,,,
,,,,,,,,2023-08-16_08h21.41.317,HF_wild_card,2022.2.4,Win32,60.0024001,631193fff8094698c07c9ef6,64d2fd46c836a06233681665,64dc78f7e0ad25fbb7c4939a,,,,,,,ctch,resources/DY.BMP,resources/DR.BMP,Door4,-0.199074074,0.14537037,1,0,0,0.9031,optionLeft,60,14420,7,7,0,7,0,1,,,,,,,,,,,,,,,,,,,,,,,,,,,,,,,,,,,,,,,
,,,,,,,,2023-08-16_08h21.41.317,HF_wild_card,2022.2.4,Win32,60.0024001,631193fff8094698c07c9ef6,64d2fd46c836a06233681665,64dc78f7e0ad25fbb7c4939a,,,,,,,decisionTrl,resources/DBN.BMP,resources/DR.BMP,Door1,0.12037037,0.193518519,1,0,0,1.2995,optionRight,30,14450,7,8,0,8,0,1,,,,,,,,,,,,,,,,,,,,,,,,,,,,,,,,,,,,,,,
,,,,,,,,2023-08-16_08h21.41.317,HF_wild_card,2022.2.4,Win32,60.0024001,631193fff8094698c07c9ef6,64d2fd46c836a06233681665,64dc78f7e0ad25fbb7c4939a,,,,,,,ctch,resources/DB.BMP,resources/DBN.BMP,Door3,-0.137037037,0.087962963,1,0,0,0.6954,optionLeft,70,14520,7,9,0,9,0,1,,,,,,,,,,,,,,,,,,,,,,,,,,,,,,,,,,,,,,,
,,,,,,,,2023-08-16_08h21.41.317,HF_wild_card,2022.2.4,Win32,60.0024001,631193fff8094698c07c9ef6,64d2fd46c836a06233681665,64dc78f7e0ad25fbb7c4939a,,,,,,,decisionTrl,resources/DR.BMP,resources/DBN.BMP,Door1,-0.134259259,0.221296296,1,0,0,2.1701,optionLeft,30,14550,7,10,0,10,0,1,,,,,,,,,,,,,,,,,,,,,,,,,,,,,,,,,,,,,,,
,,,,,,,,2023-08-16_08h21.41.317,HF_wild_card,2022.2.4,Win32,60.0024001,631193fff8094698c07c9ef6,64d2fd46c836a06233681665,64dc78f7e0ad25fbb7c4939a,,,,,,,decisionTrl,resources/DBN.BMP,resources/DR.BMP,Door1,0.225925926,0.138888889,1,0,0,0.6182,optionRight,30,14580,7,11,0,11,0,1,,,,,,,,,,,,,,,,,,,,,,,,,,,,,,,,,,,,,,,
,,,,,,,,2023-08-16_08h21.41.317,HF_wild_card,2022.2.4,Win32,60.0024001,631193fff8094698c07c9ef6,64d2fd46c836a06233681665,64dc78f7e0ad25fbb7c4939a,,,,,,,ctch,resources/DB.BMP,resources/DBN.BMP,Door3,-0.105555556,0.113888889,1,0,0,0.6458,optionLeft,70,14650,7,12,0,12,0,1,,,,,,,,,,,,,,,,,,,,,,,,,,,,,,,,,,,,,,,
,,,,,,,,2023-08-16_08h21.41.317,HF_wild_card,2022.2.4,Win32,60.0024001,631193fff8094698c07c9ef6,64d2fd46c836a06233681665,64dc78f7e0ad25fbb7c4939a,,,,,,,decisionTrl,resources/DY.BMP,resources/DB.BMP,Door3,0.17037037,0.226851852,1,0,0,1.5197,optionRight,70,14720,7,13,0,13,0,1,,,,,,,,,,,,,,,,,,,,,,,,,,,,,,,,,,,,,,,
,,,,,,,,2023-08-16_08h21.41.317,HF_wild_card,2022.2.4,Win32,60.0024001,631193fff8094698c07c9ef6,64d2fd46c836a06233681665,64dc78f7e0ad25fbb7c4939a,,,,,,,decisionTrl,resources/DB.BMP,resources/DY.BMP,Door3,-0.290740741,0.148148148,1,0,0,0.4995,optionLeft,70,14790,7,14,0,14,0,1,,,,,,,,,,,,,,,,,,,,,,,,,,,,,,,,,,,,,,,
,,,,,,,,2023-08-16_08h21.41.317,HF_wild_card,2022.2.4,Win32,60.0024001,631193fff8094698c07c9ef6,64d2fd46c836a06233681665,64dc78f7e0ad25fbb7c4939a,,,,,,,decisionTrl,resources/DR.BMP,resources/DBN.BMP,Door1,-0.214814815,0.166666667,1,0,0,0.8698,optionLeft,30,14820,7,15,0,15,0,1,,,,,,,,,,,,,,,,,,,,,,,,,,,,,,,,,,,,,,,
,,,,,,,,2023-08-16_08h21.41.317,HF_wild_card,2022.2.4,Win32,60.0024001,631193fff8094698c07c9ef6,64d2fd46c836a06233681665,64dc78f7e0ad25fbb7c4939a,,,,,,,ctch,resources/DB.BMP,resources/DBN.BMP,Door3,-0.171296296,0.136111111,1,0,0,0.5827,optionLeft,70,14890,7,16,0,16,0,1,,,,,,,,,,,,,,,,,,,,,,,,,,,,,,,,,,,,,,,
,,,,,,,,2023-08-16_08h21.41.317,HF_wild_card,2022.2.4,Win32,60.0024001,631193fff8094698c07c9ef6,64d2fd46c836a06233681665,64dc78f7e0ad25fbb7c4939a,,,,,,,decisionTrl,resources/DR.BMP,resources/DBN.BMP,Door1,-0.125,0.14537037,1,0,0,0.9529,optionLeft,30,14920,7,17,0,17,0,1,,,,,,,,,,,,,,,,,,,,,,,,,,,,,,,,,,,,,,,
,,,,,,,,2023-08-16_08h21.41.317,HF_wild_card,2022.2.4,Win32,60.0024001,631193fff8094698c07c9ef6,64d2fd46c836a06233681665,64dc78f7e0ad25fbb7c4939a,,,,,,,decisionTrl,resources/DR.BMP,resources/DBN.BMP,Door1,-0.15,0.128703704,1,0,0,0.7163,optionLeft,30,14950,7,18,0,18,0,1,,,,,,,,,,,,,,,,,,,,,,,,,,,,,,,,,,,,,,,
,,,,,,,,2023-08-16_08h21.41.317,HF_wild_card,2022.2.4,Win32,60.0024001,631193fff8094698c07c9ef6,64d2fd46c836a06233681665,64dc78f7e0ad25fbb7c4939a,,,,,,,decisionTrl,resources/DR.BMP,resources/DBN.BMP,Door1,-0.15462963,0.100925926,1,0,0,0.7496,optionLeft,30,14980,7,19,0,19,0,1,,,,,,,,,,,,,,,,,,,,,,,,,,,,,,,,,,,,,,,
,,,,,,,,2023-08-16_08h21.41.317,HF_wild_card,2022.2.4,Win32,60.0024001,631193fff8094698c07c9ef6,64d2fd46c836a06233681665,64dc78f7e0ad25fbb7c4939a,,,,,,,decisionTrl,resources/DB.BMP,resources/DY.BMP,Door3,-0.152777778,0.208333333,1,0,0,2.4031,optionLeft,70,15050,7,20,0,20,0,1,,,,,,,,,,,,,,,,,,,,,,,,,,,,,,,,,,,,,,,
,,,,,,,,2023-08-16_08h21.41.317,HF_wild_card,2022.2.4,Win32,60.0024001,631193fff8094698c07c9ef6,64d2fd46c836a06233681665,64dc78f7e0ad25fbb7c4939a,,,,,,,decisionTrl,resources/DBN.BMP,resources/DR.BMP,Door1,0.093518519,0.125,1,0,0,0.9661,optionRight,30,15080,7,21,0,21,0,1,,,,,,,,,,,,,,,,,,,,,,,,,,,,,,,,,,,,,,,
,,,,,,,,2023-08-16_08h21.41.317,HF_wild_card,2022.2.4,Win32,60.0024001,631193fff8094698c07c9ef6,64d2fd46c836a06233681665,64dc78f7e0ad25fbb7c4939a,,,,,,,ctch,resources/DBN.BMP,resources/DB.BMP,Door3,0.187037037,0.117592593,1,0,0,0.5995,optionRight,70,15150,7,22,0,22,0,1,,,,,,,,,,,,,,,,,,,,,,,,,,,,,,,,,,,,,,,
,,,,,,,,2023-08-16_08h21.41.317,HF_wild_card,2022.2.4,Win32,60.0024001,631193fff8094698c07c9ef6,64d2fd46c836a06233681665,64dc78f7e0ad25fbb7c4939a,,,,,,,decisionTrl,resources/DY.BMP,resources/DB.BMP,Door3,0.181481481,0.137962963,1,0,0,0.9031,optionRight,70,15220,7,23,0,23,0,1,,,,,,,,,,,,,,,,,,,,,,,,,,,,,,,,,,,,,,,
,,,,,,,,2023-08-16_08h21.41.317,HF_wild_card,2022.2.4,Win32,60.0024001,631193fff8094698c07c9ef6,64d2fd46c836a06233681665,64dc78f7e0ad25fbb7c4939a,,,,,,,decisionTrl,resources/DB.BMP,resources/DY.BMP,Door3,-0.200925926,0.087962963,1,0,0,0.679,optionLeft,70,15290,7,24,0,24,0,1,,,,,,,,,,,,,,,,,,,,,,,,,,,,,,,,,,,,,,,
,,,,,,,,2023-08-16_08h21.41.317,HF_wild_card,2022.2.4,Win32,60.0024001,631193fff8094698c07c9ef6,64d2fd46c836a06233681665,64dc78f7e0ad25fbb7c4939a,,,,,,,decisionTrl,resources/DR.BMP,resources/DBN.BMP,Door1,-0.196296296,0.121296296,1,0,0,0.7361,optionLeft,30,15320,7,25,0,25,0,1,,,,,,,,,,,,,,,,,,,,,,,,,,,,,,,,,,,,,,,
,,,,,,,,2023-08-16_08h21.41.317,HF_wild_card,2022.2.4,Win32,60.0024001,631193fff8094698c07c9ef6,64d2fd46c836a06233681665,64dc78f7e0ad25fbb7c4939a,,,,,,,ctch,resources/DR.BMP,resources/DY.BMP,Door4,0.162962963,0.186111111,1,0,0,1.47,optionRight,80,15400,7,26,0,26,0,1,,,,,,,,,,,,,,,,,,,,,,,,,,,,,,,,,,,,,,,
,,,,,,,,2023-08-16_08h21.41.317,HF_wild_card,2022.2.4,Win32,60.0024001,631193fff8094698c07c9ef6,64d2fd46c836a06233681665,64dc78f7e0ad25fbb7c4939a,,,,,,,ctch,resources/DBN.BMP,resources/DB.BMP,Door3,0.144444444,0.118518519,1,0,0,0.7328,optionRight,70,15470,7,27,0,27,0,1,,,,,,,,,,,,,,,,,,,,,,,,,,,,,,,,,,,,,,,
,,,,,,,,2023-08-16_08h21.41.317,HF_wild_card,2022.2.4,Win32,60.0024001,631193fff8094698c07c9ef6,64d2fd46c836a06233681665,64dc78f7e0ad25fbb7c4939a,,,,,,,ctch,resources/DR.BMP,resources/DY.BMP,Door4,0.149074074,0.118518519,1,0,0,0.9289,optionRight,60,15530,7,28,0,28,0,1,,,,,,,,,,,,,,,,,,,,,,,,,,,,,,,,,,,,,,,
,,,,,,,,2023-08-16_08h21.41.317,HF_wild_card,2022.2.4,Win32,60.0024001,631193fff8094698c07c9ef6,64d2fd46c836a06233681665,64dc78f7e0ad25fbb7c4939a,,,,,,,decisionTrl,resources/DB.BMP,resources/DY.BMP,Door3,-0.135185185,0.148148148,1,0,0,1.3955,optionLeft,70,15600,7,29,0,29,0,1,,,,,,,,,,,,,,,,,,,,,,,,,,,,,,,,,,,,,,,
,,,,,,,,2023-08-16_08h21.41.317,HF_wild_card,2022.2.4,Win32,60.0024001,631193fff8094698c07c9ef6,64d2fd46c836a06233681665,64dc78f7e0ad25fbb7c4939a,,,,,,,decisionTrl,resources/DY.BMP,resources/DB.BMP,Door3,0.197222222,0.136111111,1,0,0,0.8327,optionRight,70,15670,7,30,0,30,0,1,,,,,,,,,,,,,,,,,,,,,,,,,,,,,,,,,,,,,,,
,,,,,,,,2023-08-16_08h21.41.317,HF_wild_card,2022.2.4,Win32,60.0024001,631193fff8094698c07c9ef6,64d2fd46c836a06233681665,64dc78f7e0ad25fbb7c4939a,,,,,,,ctch,resources/DY.BMP,resources/DR.BMP,Door4,-0.167592593,0.012037037,1,0,0,3.5494,optionLeft,60,15730,7,31,0,31,0,1,,,,,,,,,,,,,,,,,,,,,,,,,,,,,,,,,,,,,,,
,,,,,,,,2023-08-16_08h21.41.317,HF_wild_card,2022.2.4,Win32,60.0024001,631193fff8094698c07c9ef6,64d2fd46c836a06233681665,64dc78f7e0ad25fbb7c4939a,,,,,,,ctch,resources/DY.BMP,resources/DR.BMP,Door4,-0.141666667,0.038888889,1,0,0,0.6792,optionLeft,80,15810,7,32,0,32,0,1,,,,,,,,,,,,,,,,,,,,,,,,,,,,,,,,,,,,,,,
,,,,,,,,2023-08-16_08h21.41.317,HF_wild_card,2022.2.4,Win32,60.0024001,631193fff8094698c07c9ef6,64d2fd46c836a06233681665,64dc78f7e0ad25fbb7c4939a,,,,,,,decisionTrl,resources/DY.BMP,resources/DB.BMP,Door3,0.216666667,0.114814815,1,0,0,0.7365,optionRight,70,15880,7,33,0,33,0,1,,,,,,,,,,,,,,,,,,,,,,,,,,,,,,,,,,,,,,,
,,,,,,,,2023-08-16_08h21.41.317,HF_wild_card,2022.2.4,Win32,60.0024001,631193fff8094698c07c9ef6,64d2fd46c836a06233681665,64dc78f7e0ad25fbb7c4939a,,,,,,,decisionTrl,resources/DB.BMP,resources/DY.BMP,Door3,-0.160185185,0.051851852,1,0,0,0.8492,optionLeft,70,15950,7,34,0,34,0,1,,,,,,,,,,,,,,,,,,,,,,,,,,,,,,,,,,,,,,,
,,,,,,,,2023-08-16_08h21.41.317,HF_wild_card,2022.2.4,Win32,60.0024001,631193fff8094698c07c9ef6,64d2fd46c836a06233681665,64dc78f7e0ad25fbb7c4939a,,,,,,,decisionTrl,resources/DY.BMP,resources/DB.BMP,Door3,0.163888889,0.094444444,1,0,0,0.6827,optionRight,70,16020,7,35,0,35,0,1,,,,,,,,,,,,,,,,,,,,,,,,,,,,,,,,,,,,,,,
,,,,,,,,2023-08-16_08h21.41.317,HF_wild_card,2022.2.4,Win32,60.0024001,631193fff8094698c07c9ef6,64d2fd46c836a06233681665,64dc78f7e0ad25fbb7c4939a,,,,,,,,,,,,,,,,,,,,,,,,,,6,0,6,0,1,,,,,,,,,,,,,,,,,,,,,,,,,,,,,,,,,,
,,,,,,,,2023-08-16_08h21.41.317,HF_wild_card,2022.2.4,Win32,60.0024001,631193fff8094698c07c9ef6,64d2fd46c836a06233681665,64dc78f7e0ad25fbb7c4939a,,,,,,,,,,,,,,,,,,,,,,,,,,,,,,,4,,,,,,,,,,,,,,,,,,,,,,,,,,,,,,,,,
,,,,,,,,2023-08-16_08h21.41.317,HF_wild_card,2022.2.4,Win32,60.0024001,631193fff8094698c07c9ef6,64d2fd46c836a06233681665,64dc78f7e0ad25fbb7c4939a,,,,,,,,,,,,,,,,,,,,,,,,,,,,,,,,,,,,,,,,,,,,,,,,,,,,,,,,,,,,,,,,
,,,,,,,,2023-08-16_08h21.41.317,HF_wild_card,2022.2.4,Win32,60.0024001,631193fff8094698c07c9ef6,64d2fd46c836a06233681665,64dc78f7e0ad25fbb7c4939a,,,,,,,,,,,,,,,,,,,,,,,,,,,,,,,,55,WC_nonExtreme,resources/DG.BMP,0,0,0,0,1,,,,,,,,,,,,,,,,,,,,,,,,,
,,,,,,,,2023-08-16_08h21.41.317,HF_wild_card,2022.2.4,Win32,60.0024001,631193fff8094698c07c9ef6,64d2fd46c836a06233681665,64dc78f7e0ad25fbb7c4939a,,,,,,,,,,,,,,,,,,,,,,,,,,,,,,,,70,Door3,resources/DB.BMP,1,0,1,0,1,,,,,,,,,,,,,,,,,,,,,,,,,
,,,,,,,,2023-08-16_08h21.41.317,HF_wild_card,2022.2.4,Win32,60.0024001,631193fff8094698c07c9ef6,64d2fd46c836a06233681665,64dc78f7e0ad25fbb7c4939a,,,,,,,,,,,,,,,,,,,,,,,,,,,,,,,,60,Door4,resources/DY.BMP,2,0,2,0,1,,,,,,,,,,,,,,,,,,,,,,,,,
,,,,,,,,2023-08-16_08h21.41.317,HF_wild_card,2022.2.4,Win32,60.0024001,631193fff8094698c07c9ef6,64d2fd46c836a06233681665,64dc78f7e0ad25fbb7c4939a,,,,,,,,,,,,,,,,,,,,,,,,,,,,,,,,5,WC_extreme,resources/DP.BMP,3,0,3,0,1,,,,,,,,,,,,,,,,,,,,,,,,,
,,,,,,,,2023-08-16_08h21.41.317,HF_wild_card,2022.2.4,Win32,60.0024001,631193fff8094698c07c9ef6,64d2fd46c836a06233681665,64dc78f7e0ad25fbb7c4939a,,,,,,,,,,,,,,,,,,,,,,,,,,,,,,,,30,Door1,resources/DR.BMP,4,0,4,0,1,,,,,,,,,,,,,,,,,,,,,,,,,
,,,,,,,,2023-08-16_08h21.41.317,HF_wild_card,2022.2.4,Win32,60.0024001,631193fff8094698c07c9ef6,64d2fd46c836a06233681665,64dc78f7e0ad25fbb7c4939a,,,,,,,,,,,,,,,,,,,,,,,,,,,,,,,,20,Door2,resources/DBN.BMP,5,0,5,0,1,,,,,,,,,,,,,,,,,,,,,,,,,
,,,,,,,,2023-08-16_08h21.41.317,HF_wild_card,2022.2.4,Win32,60.0024001,631193fff8094698c07c9ef6,64d2fd46c836a06233681665,64dc78f7e0ad25fbb7c4939a,,,,,,,,,,,,,,,,,,,,,,,,,,,,,,,,,,,,,,,,,,,,,,,,,,,,,,,,,,,,,,,,
,,,,,,,,2023-08-16_08h21.41.317,HF_wild_card,2022.2.4,Win32,60.0024001,631193fff8094698c07c9ef6,64d2fd46c836a06233681665,64dc78f7e0ad25fbb7c4939a,,,,,,,,,,,,,,,,,,,,,,,,,,,,,,,,,,,,,,,,0,0,0,0,1,,,,,,,,,,,,,,,,,,,,
,,,,,,,,2023-08-16_08h21.41.317,HF_wild_card,2022.2.4,Win32,60.0024001,631193fff8094698c07c9ef6,64d2fd46c836a06233681665,64dc78f7e0ad25fbb7c4939a,,,,,,,,,,,,,,,,,,,,,,,,,,,,,,,,,,,,,,,,1,0,1,0,1,,,,,,,,,,,,,,,,,,,,
,,,,,,,,2023-08-16_08h21.41.317,HF_wild_card,2022.2.4,Win32,60.0024001,631193fff8094698c07c9ef6,64d2fd46c836a06233681665,64dc78f7e0ad25fbb7c4939a,,,,,,,,,,,,,,,,,,,,,,,,,,,,,,,,,,,,,,,,,,,,,-0.318518519,-0.402777778,1,0,0,yes,40%,60%,WC_nonExtreme,resources/DG.BMP,0,0,0,0,1,,,,,
