Condition,Low fixed image (Door1),Low risky image (Door2),High fixed image (Door3),High risky image (Door4),Extreme Wild Card,NonExtreme Wild Card,,date,expName,psychopyVersion,OS,frameRate,PROLIFIC_PID,STUDY_ID,SESSION_ID,mouse_2.x,mouse_2.y,mouse_2.leftButton,mouse_2.midButton,mouse_2.rightButton,mouse_2.clicked_name,Trial Type,Left Option Image,Right Option Image,Chosen Door,mouse.x,mouse.y,mouse.leftButton,mouse.midButton,mouse.rightButton,mouse.time,mouse.clicked_name,Feedback,Cumulative Reward,Block,trial.thisRepN,trial.thisTrialN,trial.thisN,trial.thisIndex,trial.ran,blocks.thisRepN,blocks.thisTrialN,blocks.thisN,blocks.thisIndex,blocks.ran,Money conversion,First Outcome Reported,Shown Door (First Outcome),Displayed Image (First Outcome),outcomes.thisRepN,outcomes.thisTrialN,outcomes.thisN,outcomes.thisIndex,outcomes.ran,judgments.thisRepN,judgments.thisTrialN,judgments.thisN,judgments.thisIndex,judgments.ran,freqMouse.x,freqMouse.y,freqMouse.leftButton,freqMouse.midButton,freqMouse.rightButton,freqMouse.clicked_name,trials.thisRepN,trials.thisTrialN,trials.thisN,trials.thisIndex,trials.ran,FQJ for first outcome,FQJ for second outcome,Shown Door,Displayed Image,judgBlock.thisRepN,judgBlock.thisTrialN,judgBlock.thisN,judgBlock.thisIndex,judgBlock.ran
0,resources/DG.BMP,resources/DY.BMP,resources/DP.BMP,resources/DR.BMP,resources/DBN.BMP,resources/DB.BMP,,2023-08-16_08h45.54.801,HF_wild_card,2022.2.4,MacIntel,60.0024001,5dd11840d690721b2469a344,64d2fd46c836a06233681665,64dc7ea2e8f6a3b22cc49366,,,,,,,,,,,,,,,,,,,,,,,,,,,,,,,,,,,,,,,,,,,,,,,,,,,,,,,,,,,,,,,,
,,,,,,,,2023-08-16_08h45.54.801,HF_wild_card,2022.2.4,MacIntel,60.0024001,5dd11840d690721b2469a344,64d2fd46c836a06233681665,64dc7ea2e8f6a3b22cc49366,0.010603299,-0.415100776,1,0,0,agree,,,,,,,,,,,,,,,,,,,,,,,,,,,,,,,,,,,,,,,,,,,,,,,,,,,,,,,,,,
,,,,,,,,2023-08-16_08h45.54.801,HF_wild_card,2022.2.4,MacIntel,60.0024001,5dd11840d690721b2469a344,64d2fd46c836a06233681665,64dc7ea2e8f6a3b22cc49366,,,,,,,,,,,,,,,,,,,,,,,,,,,,,,,,,,,,,,,,,,,,,,,,,,,,,,,,,,,,,,,,
,,,,,,,,2023-08-16_08h45.54.801,HF_wild_card,2022.2.4,MacIntel,60.0024001,5dd11840d690721b2469a344,64d2fd46c836a06233681665,64dc7ea2e8f6a3b22cc49366,,,,,,,decisionTrl,resources/DG.BMP,resources/DY.BMP,Door2,0.374691298,-0.082361586,1,0,0,2.5571,optionRight,20,20,1,0,0,0,0,1,,,,,,,,,,,,,,,,,,,,,,,,,,,,,,,,,,,,,,,
,,,,,,,,2023-08-16_08h45.54.801,HF_wild_card,2022.2.4,MacIntel,60.0024001,5dd11840d690721b2469a344,64d2fd46c836a06233681665,64dc7ea2e8f6a3b22cc49366,,,,,,,decisionTrl,resources/DP.BMP,resources/DR.BMP,Door4,0.235344645,0.00082628,1,0,0,1.9628,optionRight,60,80,1,1,0,1,0,1,,,,,,,,,,,,,,,,,,,,,,,,,,,,,,,,,,,,,,,
,,,,,,,,2023-08-16_08h45.54.801,HF_wild_card,2022.2.4,MacIntel,60.0024001,5dd11840d690721b2469a344,64d2fd46c836a06233681665,64dc7ea2e8f6a3b22cc49366,,,,,,,sngl,resources/Empty.png,resources/DBN.BMP,WildCard_Ex,0.298606906,-0.010945977,1,0,0,2.4314,optionRight,5,85,1,2,0,2,0,1,,,,,,,,,,,,,,,,,,,,,,,,,,,,,,,,,,,,,,,
,,,,,,,,2023-08-16_08h45.54.801,HF_wild_card,2022.2.4,MacIntel,60.0024001,5dd11840d690721b2469a344,64d2fd46c836a06233681665,64dc7ea2e8f6a3b22cc49366,,,,,,,decisionTrl,resources/DY.BMP,resources/DG.BMP,Door2,-0.283849148,-0.026936747,1,0,0,0.9675,optionLeft,40,125,1,3,0,3,0,1,,,,,,,,,,,,,,,,,,,,,,,,,,,,,,,,,,,,,,,
,,,,,,,,2023-08-16_08h45.54.801,HF_wild_card,2022.2.4,MacIntel,60.0024001,5dd11840d690721b2469a344,64d2fd46c836a06233681665,64dc7ea2e8f6a3b22cc49366,,,,,,,ctch,resources/DY.BMP,resources/DP.BMP,Door3,0.223725857,-0.016638251,1,0,0,1.0467,optionRight,70,195,1,4,0,4,0,1,,,,,,,,,,,,,,,,,,,,,,,,,,,,,,,,,,,,,,,
,,,,,,,,2023-08-16_08h45.54.801,HF_wild_card,2022.2.4,MacIntel,60.0024001,5dd11840d690721b2469a344,64d2fd46c836a06233681665,64dc7ea2e8f6a3b22cc49366,,,,,,,decisionTrl,resources/DR.BMP,resources/DP.BMP,Door3,0.256803657,-0.017546963,1,0,0,0.7632,optionRight,70,265,1,5,0,5,0,1,,,,,,,,,,,,,,,,,,,,,,,,,,,,,,,,,,,,,,,
,,,,,,,,2023-08-16_08h45.54.801,HF_wild_card,2022.2.4,MacIntel,60.0024001,5dd11840d690721b2469a344,64d2fd46c836a06233681665,64dc7ea2e8f6a3b22cc49366,,,,,,,decisionTrl,resources/DBN.BMP,resources/DG.BMP,WildCard_Ex,-0.273025581,-0.026005859,1,0,0,0.8961,optionLeft,5,270,1,6,0,6,0,1,,,,,,,,,,,,,,,,,,,,,,,,,,,,,,,,,,,,,,,
,,,,,,,,2023-08-16_08h45.54.801,HF_wild_card,2022.2.4,MacIntel,60.0024001,5dd11840d690721b2469a344,64d2fd46c836a06233681665,64dc7ea2e8f6a3b22cc49366,,,,,,,decisionTrl,resources/DBN.BMP,resources/DP.BMP,Door3,0.284915704,2.54991E-05,1,0,0,1.8496,optionRight,70,340,1,7,0,7,0,1,,,,,,,,,,,,,,,,,,,,,,,,,,,,,,,,,,,,,,,
,,,,,,,,2023-08-16_08h45.54.801,HF_wild_card,2022.2.4,MacIntel,60.0024001,5dd11840d690721b2469a344,64d2fd46c836a06233681665,64dc7ea2e8f6a3b22cc49366,,,,,,,decisionTrl,resources/DY.BMP,resources/DBN.BMP,Door2,-0.183959622,-0.010008681,1,0,0,1.5656,optionLeft,20,360,1,8,0,8,0,1,,,,,,,,,,,,,,,,,,,,,,,,,,,,,,,,,,,,,,,
,,,,,,,,2023-08-16_08h45.54.801,HF_wild_card,2022.2.4,MacIntel,60.0024001,5dd11840d690721b2469a344,64d2fd46c836a06233681665,64dc7ea2e8f6a3b22cc49366,,,,,,,sngl,resources/DP.BMP,resources/Empty.png,Door3,0.391184489,-0.008091566,1,0,0,1.6655,optionLeft,70,430,1,9,0,9,0,1,,,,,,,,,,,,,,,,,,,,,,,,,,,,,,,,,,,,,,,
,,,,,,,,2023-08-16_08h45.54.801,HF_wild_card,2022.2.4,MacIntel,60.0024001,5dd11840d690721b2469a344,64d2fd46c836a06233681665,64dc7ea2e8f6a3b22cc49366,,,,,,,ctch,resources/DR.BMP,resources/DG.BMP,Door4,-0.192961833,-0.010807088,1,0,0,1.816,optionLeft,80,510,1,10,0,10,0,1,,,,,,,,,,,,,,,,,,,,,,,,,,,,,,,,,,,,,,,
,,,,,,,,2023-08-16_08h45.54.801,HF_wild_card,2022.2.4,MacIntel,60.0024001,5dd11840d690721b2469a344,64d2fd46c836a06233681665,64dc7ea2e8f6a3b22cc49366,,,,,,,sngl,resources/DBN.BMP,resources/Empty.png,WildCard_Ex,0.294606188,-0.023726841,1,0,0,1.6293,optionLeft,5,515,1,11,0,11,0,1,,,,,,,,,,,,,,,,,,,,,,,,,,,,,,,,,,,,,,,
,,,,,,,,2023-08-16_08h45.54.801,HF_wild_card,2022.2.4,MacIntel,60.0024001,5dd11840d690721b2469a344,64d2fd46c836a06233681665,64dc7ea2e8f6a3b22cc49366,,,,,,,sngl,resources/Empty.png,resources/DBN.BMP,WildCard_Ex,0.237518921,-0.012472059,1,0,0,1.0987,optionRight,95,610,1,12,0,12,0,1,,,,,,,,,,,,,,,,,,,,,,,,,,,,,,,,,,,,,,,
,,,,,,,,2023-08-16_08h45.54.801,HF_wild_card,2022.2.4,MacIntel,60.0024001,5dd11840d690721b2469a344,64d2fd46c836a06233681665,64dc7ea2e8f6a3b22cc49366,,,,,,,decisionTrl,resources/DG.BMP,resources/DY.BMP,Door1,-0.287965597,0.026473287,1,0,0,1.462,optionLeft,30,640,1,13,0,13,0,1,,,,,,,,,,,,,,,,,,,,,,,,,,,,,,,,,,,,,,,
,,,,,,,,2023-08-16_08h45.54.801,HF_wild_card,2022.2.4,MacIntel,60.0024001,5dd11840d690721b2469a344,64d2fd46c836a06233681665,64dc7ea2e8f6a3b22cc49366,,,,,,,decisionTrl,resources/DY.BMP,resources/DG.BMP,Door2,-0.188540582,-0.005507948,1,0,0,0.9313,optionLeft,20,660,1,14,0,14,0,1,,,,,,,,,,,,,,,,,,,,,,,,,,,,,,,,,,,,,,,
,,,,,,,,2023-08-16_08h45.54.801,HF_wild_card,2022.2.4,MacIntel,60.0024001,5dd11840d690721b2469a344,64d2fd46c836a06233681665,64dc7ea2e8f6a3b22cc49366,,,,,,,decisionTrl,resources/DY.BMP,resources/DG.BMP,Door1,0.334241943,0.034974297,1,0,0,0.9654,optionRight,30,690,1,15,0,15,0,1,,,,,,,,,,,,,,,,,,,,,,,,,,,,,,,,,,,,,,,
,,,,,,,,2023-08-16_08h45.54.801,HF_wild_card,2022.2.4,MacIntel,60.0024001,5dd11840d690721b2469a344,64d2fd46c836a06233681665,64dc7ea2e8f6a3b22cc49366,,,,,,,decisionTrl,resources/DR.BMP,resources/DP.BMP,Door4,-0.289887695,0.043441128,1,0,0,0.9463,optionLeft,80,770,1,16,0,16,0,1,,,,,,,,,,,,,,,,,,,,,,,,,,,,,,,,,,,,,,,
,,,,,,,,2023-08-16_08h45.54.801,HF_wild_card,2022.2.4,MacIntel,60.0024001,5dd11840d690721b2469a344,64d2fd46c836a06233681665,64dc7ea2e8f6a3b22cc49366,,,,,,,decisionTrl,resources/DBN.BMP,resources/DR.BMP,Door4,0.331773953,0.044256185,1,0,0,0.8781,optionRight,80,850,1,17,0,17,0,1,,,,,,,,,,,,,,,,,,,,,,,,,,,,,,,,,,,,,,,
,,,,,,,,2023-08-16_08h45.54.801,HF_wild_card,2022.2.4,MacIntel,60.0024001,5dd11840d690721b2469a344,64d2fd46c836a06233681665,64dc7ea2e8f6a3b22cc49366,,,,,,,sngl,resources/Empty.png,resources/DG.BMP,Door1,0.184269409,0.004471402,1,0,0,1.2645,optionRight,30,880,1,18,0,18,0,1,,,,,,,,,,,,,,,,,,,,,,,,,,,,,,,,,,,,,,,
,,,,,,,,2023-08-16_08h45.54.801,HF_wild_card,2022.2.4,MacIntel,60.0024001,5dd11840d690721b2469a344,64d2fd46c836a06233681665,64dc7ea2e8f6a3b22cc49366,,,,,,,decisionTrl,resources/DR.BMP,resources/DP.BMP,Door3,0.125239597,0.023948737,1,0,0,1.7874,optionRight,70,950,1,19,0,19,0,1,,,,,,,,,,,,,,,,,,,,,,,,,,,,,,,,,,,,,,,
,,,,,,,,2023-08-16_08h45.54.801,HF_wild_card,2022.2.4,MacIntel,60.0024001,5dd11840d690721b2469a344,64d2fd46c836a06233681665,64dc7ea2e8f6a3b22cc49366,,,,,,,decisionTrl,resources/DR.BMP,resources/DP.BMP,Door4,-0.284228041,-0.028729112,1,0,0,0.7459,optionLeft,80,1030,1,20,0,20,0,1,,,,,,,,,,,,,,,,,,,,,,,,,,,,,,,,,,,,,,,
,,,,,,,,2023-08-16_08h45.54.801,HF_wild_card,2022.2.4,MacIntel,60.0024001,5dd11840d690721b2469a344,64d2fd46c836a06233681665,64dc7ea2e8f6a3b22cc49366,,,,,,,decisionTrl,resources/DG.BMP,resources/DBN.BMP,Door1,-0.281211039,0.032468024,1,0,0,1.6886,optionLeft,30,1060,1,21,0,21,0,1,,,,,,,,,,,,,,,,,,,,,,,,,,,,,,,,,,,,,,,
,,,,,,,,2023-08-16_08h45.54.801,HF_wild_card,2022.2.4,MacIntel,60.0024001,5dd11840d690721b2469a344,64d2fd46c836a06233681665,64dc7ea2e8f6a3b22cc49366,,,,,,,ctch,resources/DG.BMP,resources/DR.BMP,Door4,0.296636963,-0.028280877,1,0,0,1.1665,optionRight,60,1120,1,22,0,22,0,1,,,,,,,,,,,,,,,,,,,,,,,,,,,,,,,,,,,,,,,
,,,,,,,,2023-08-16_08h45.54.801,HF_wild_card,2022.2.4,MacIntel,60.0024001,5dd11840d690721b2469a344,64d2fd46c836a06233681665,64dc7ea2e8f6a3b22cc49366,,,,,,,decisionTrl,resources/DP.BMP,resources/DBN.BMP,Door3,-0.138875461,-0.013522847,1,0,0,1.2113,optionLeft,70,1190,1,23,0,23,0,1,,,,,,,,,,,,,,,,,,,,,,,,,,,,,,,,,,,,,,,
,,,,,,,,2023-08-16_08h45.54.801,HF_wild_card,2022.2.4,MacIntel,60.0024001,5dd11840d690721b2469a344,64d2fd46c836a06233681665,64dc7ea2e8f6a3b22cc49366,,,,,,,sngl,resources/Empty.png,resources/DR.BMP,Door4,0.280689833,-0.008624437,1,0,0,0.7972,optionRight,60,1250,1,24,0,24,0,1,,,,,,,,,,,,,,,,,,,,,,,,,,,,,,,,,,,,,,,
,,,,,,,,2023-08-16_08h45.54.801,HF_wild_card,2022.2.4,MacIntel,60.0024001,5dd11840d690721b2469a344,64d2fd46c836a06233681665,64dc7ea2e8f6a3b22cc49366,,,,,,,decisionTrl,resources/DY.BMP,resources/DG.BMP,Door1,0.206242744,0.035758599,1,0,0,3.0142,optionRight,30,1280,1,25,0,25,0,1,,,,,,,,,,,,,,,,,,,,,,,,,,,,,,,,,,,,,,,
,,,,,,,,2023-08-16_08h45.54.801,HF_wild_card,2022.2.4,MacIntel,60.0024001,5dd11840d690721b2469a344,64d2fd46c836a06233681665,64dc7ea2e8f6a3b22cc49366,,,,,,,decisionTrl,resources/DR.BMP,resources/DBN.BMP,Door4,-0.210702854,0.011143799,1,0,0,1.0473,optionLeft,60,1340,1,26,0,26,0,1,,,,,,,,,,,,,,,,,,,,,,,,,,,,,,,,,,,,,,,
,,,,,,,,2023-08-16_08h45.54.801,HF_wild_card,2022.2.4,MacIntel,60.0024001,5dd11840d690721b2469a344,64d2fd46c836a06233681665,64dc7ea2e8f6a3b22cc49366,,,,,,,sngl,resources/DY.BMP,resources/Empty.png,Door2,-0.144789429,0.024804348,1,0,0,0.7978,optionLeft,40,1380,1,27,0,27,0,1,,,,,,,,,,,,,,,,,,,,,,,,,,,,,,,,,,,,,,,
,,,,,,,,2023-08-16_08h45.54.801,HF_wild_card,2022.2.4,MacIntel,60.0024001,5dd11840d690721b2469a344,64d2fd46c836a06233681665,64dc7ea2e8f6a3b22cc49366,,,,,,,decisionTrl,resources/DG.BMP,resources/DY.BMP,Door2,0.338131917,0.015487332,1,0,0,1.0466,optionRight,20,1400,1,28,0,28,0,1,,,,,,,,,,,,,,,,,,,,,,,,,,,,,,,,,,,,,,,
,,,,,,,,2023-08-16_08h45.54.801,HF_wild_card,2022.2.4,MacIntel,60.0024001,5dd11840d690721b2469a344,64d2fd46c836a06233681665,64dc7ea2e8f6a3b22cc49366,,,,,,,ctch,resources/DY.BMP,resources/DP.BMP,Door3,0.181176215,0.010893012,1,0,0,1.464,optionRight,70,1470,1,29,0,29,0,1,,,,,,,,,,,,,,,,,,,,,,,,,,,,,,,,,,,,,,,
,,,,,,,,2023-08-16_08h45.54.801,HF_wild_card,2022.2.4,MacIntel,60.0024001,5dd11840d690721b2469a344,64d2fd46c836a06233681665,64dc7ea2e8f6a3b22cc49366,,,,,,,ctch,resources/DR.BMP,resources/DG.BMP,Door4,-0.160986735,0.023575507,1,0,0,0.8469,optionLeft,60,1530,1,30,0,30,0,1,,,,,,,,,,,,,,,,,,,,,,,,,,,,,,,,,,,,,,,
,,,,,,,,2023-08-16_08h45.54.801,HF_wild_card,2022.2.4,MacIntel,60.0024001,5dd11840d690721b2469a344,64d2fd46c836a06233681665,64dc7ea2e8f6a3b22cc49366,,,,,,,sngl,resources/DBN.BMP,resources/Empty.png,WildCard_Ex,-0.179832492,0.007968207,1,0,0,0.9139,optionLeft,95,1625,1,31,0,31,0,1,,,,,,,,,,,,,,,,,,,,,,,,,,,,,,,,,,,,,,,
,,,,,,,,2023-08-16_08h45.54.801,HF_wild_card,2022.2.4,MacIntel,60.0024001,5dd11840d690721b2469a344,64d2fd46c836a06233681665,64dc7ea2e8f6a3b22cc49366,,,,,,,sngl,resources/DR.BMP,resources/Empty.png,Door4,-0.173547635,0.006656155,1,0,0,0.8826,optionLeft,80,1705,1,32,0,32,0,1,,,,,,,,,,,,,,,,,,,,,,,,,,,,,,,,,,,,,,,
,,,,,,,,2023-08-16_08h45.54.801,HF_wild_card,2022.2.4,MacIntel,60.0024001,5dd11840d690721b2469a344,64d2fd46c836a06233681665,64dc7ea2e8f6a3b22cc49366,,,,,,,decisionTrl,resources/DG.BMP,resources/DY.BMP,Door1,-0.168524577,0.002986382,1,0,0,0.9314,optionLeft,30,1735,1,33,0,33,0,1,,,,,,,,,,,,,,,,,,,,,,,,,,,,,,,,,,,,,,,
,,,,,,,,2023-08-16_08h45.54.801,HF_wild_card,2022.2.4,MacIntel,60.0024001,5dd11840d690721b2469a344,64d2fd46c836a06233681665,64dc7ea2e8f6a3b22cc49366,,,,,,,sngl,resources/Empty.png,resources/DP.BMP,Door3,0.223822971,-0.031910604,1,0,0,0.9166,optionRight,70,1805,1,34,0,34,0,1,,,,,,,,,,,,,,,,,,,,,,,,,,,,,,,,,,,,,,,
,,,,,,,,2023-08-16_08h45.54.801,HF_wild_card,2022.2.4,MacIntel,60.0024001,5dd11840d690721b2469a344,64d2fd46c836a06233681665,64dc7ea2e8f6a3b22cc49366,,,,,,,decisionTrl,resources/DP.BMP,resources/DR.BMP,Door3,-0.205807766,0.004200914,1,0,0,0.7324,optionLeft,70,1875,1,35,0,35,0,1,,,,,,,,,,,,,,,,,,,,,,,,,,,,,,,,,,,,,,,
,,,,,,,,2023-08-16_08h45.54.801,HF_wild_card,2022.2.4,MacIntel,60.0024001,5dd11840d690721b2469a344,64d2fd46c836a06233681665,64dc7ea2e8f6a3b22cc49366,,,,,,,sngl,resources/DG.BMP,resources/Empty.png,Door1,-0.175573934,0.013574558,1,0,0,0.716,optionLeft,30,1905,1,36,0,36,0,1,,,,,,,,,,,,,,,,,,,,,,,,,,,,,,,,,,,,,,,
,,,,,,,,2023-08-16_08h45.54.801,HF_wild_card,2022.2.4,MacIntel,60.0024001,5dd11840d690721b2469a344,64d2fd46c836a06233681665,64dc7ea2e8f6a3b22cc49366,,,,,,,decisionTrl,resources/DP.BMP,resources/DR.BMP,Door3,-0.162702433,0.006150648,1,0,0,0.8321,optionLeft,70,1975,1,37,0,37,0,1,,,,,,,,,,,,,,,,,,,,,,,,,,,,,,,,,,,,,,,
,,,,,,,,2023-08-16_08h45.54.801,HF_wild_card,2022.2.4,MacIntel,60.0024001,5dd11840d690721b2469a344,64d2fd46c836a06233681665,64dc7ea2e8f6a3b22cc49366,,,,,,,decisionTrl,resources/DP.BMP,resources/DR.BMP,Door4,0.224755113,-0.002280986,1,0,0,0.6996,optionRight,60,2035,1,38,0,38,0,1,,,,,,,,,,,,,,,,,,,,,,,,,,,,,,,,,,,,,,,
,,,,,,,,2023-08-16_08h45.54.801,HF_wild_card,2022.2.4,MacIntel,60.0024001,5dd11840d690721b2469a344,64d2fd46c836a06233681665,64dc7ea2e8f6a3b22cc49366,,,,,,,sngl,resources/Empty.png,resources/DY.BMP,Door2,0.193486871,0.002753262,1,0,0,0.8478,optionRight,20,2055,1,39,0,39,0,1,,,,,,,,,,,,,,,,,,,,,,,,,,,,,,,,,,,,,,,
,,,,,,,,2023-08-16_08h45.54.801,HF_wild_card,2022.2.4,MacIntel,60.0024001,5dd11840d690721b2469a344,64d2fd46c836a06233681665,64dc7ea2e8f6a3b22cc49366,,,,,,,ctch,resources/DP.BMP,resources/DY.BMP,Door3,-0.206573283,0.028424242,1,0,0,0.7649,optionLeft,70,2125,1,40,0,40,0,1,,,,,,,,,,,,,,,,,,,,,,,,,,,,,,,,,,,,,,,
,,,,,,,,2023-08-16_08h45.54.801,HF_wild_card,2022.2.4,MacIntel,60.0024001,5dd11840d690721b2469a344,64d2fd46c836a06233681665,64dc7ea2e8f6a3b22cc49366,,,,,,,ctch,resources/DG.BMP,resources/DR.BMP,Door4,0.14950019,0.011932034,1,0,0,1.7469,optionRight,80,2205,1,41,0,41,0,1,,,,,,,,,,,,,,,,,,,,,,,,,,,,,,,,,,,,,,,
,,,,,,,,2023-08-16_08h45.54.801,HF_wild_card,2022.2.4,MacIntel,60.0024001,5dd11840d690721b2469a344,64d2fd46c836a06233681665,64dc7ea2e8f6a3b22cc49366,,,,,,,ctch,resources/DP.BMP,resources/DY.BMP,Door3,-0.215732015,0.031881544,1,0,0,0.9977,optionLeft,70,2275,1,42,0,42,0,1,,,,,,,,,,,,,,,,,,,,,,,,,,,,,,,,,,,,,,,
,,,,,,,,2023-08-16_08h45.54.801,HF_wild_card,2022.2.4,MacIntel,60.0024001,5dd11840d690721b2469a344,64d2fd46c836a06233681665,64dc7ea2e8f6a3b22cc49366,,,,,,,decisionTrl,resources/DBN.BMP,resources/DY.BMP,WildCard_Ex,-0.136470133,0.022693481,1,0,0,1.1644,optionLeft,95,2370,1,43,0,43,0,1,,,,,,,,,,,,,,,,,,,,,,,,,,,,,,,,,,,,,,,
,,,,,,,,2023-08-16_08h45.54.801,HF_wild_card,2022.2.4,MacIntel,60.0024001,5dd11840d690721b2469a344,64d2fd46c836a06233681665,64dc7ea2e8f6a3b22cc49366,,,,,,,,,,,,,,,,,,,,,,,,,,0,0,0,0,1,,,,,,,,,,,,,,,,,,,,,,,,,,,,,,,,,,
,,,,,,,,2023-08-16_08h45.54.801,HF_wild_card,2022.2.4,MacIntel,60.0024001,5dd11840d690721b2469a344,64d2fd46c836a06233681665,64dc7ea2e8f6a3b22cc49366,,,,,,,ctch,resources/DG.BMP,resources/DR.BMP,Door1,-0.163688558,-0.101335314,1,0,0,0.9189,optionLeft,30,2400,2,0,0,0,0,1,,,,,,,,,,,,,,,,,,,,,,,,,,,,,,,,,,,,,,,
,,,,,,,,2023-08-16_08h45.54.801,HF_wild_card,2022.2.4,MacIntel,60.0024001,5dd11840d690721b2469a344,64d2fd46c836a06233681665,64dc7ea2e8f6a3b22cc49366,,,,,,,ctch,resources/DY.BMP,resources/DP.BMP,Door3,0.194002007,-0.032041355,1,0,0,1.4995,optionRight,70,2470,2,1,0,1,0,1,,,,,,,,,,,,,,,,,,,,,,,,,,,,,,,,,,,,,,,
,,,,,,,,2023-08-16_08h45.54.801,HF_wild_card,2022.2.4,MacIntel,60.0024001,5dd11840d690721b2469a344,64d2fd46c836a06233681665,64dc7ea2e8f6a3b22cc49366,,,,,,,ctch,resources/DP.BMP,resources/DY.BMP,Door3,-0.246728448,0.02294064,1,0,0,0.8151,optionLeft,70,2540,2,2,0,2,0,1,,,,,,,,,,,,,,,,,,,,,,,,,,,,,,,,,,,,,,,
,,,,,,,,2023-08-16_08h45.54.801,HF_wild_card,2022.2.4,MacIntel,60.0024001,5dd11840d690721b2469a344,64d2fd46c836a06233681665,64dc7ea2e8f6a3b22cc49366,,,,,,,decisionTrl,resources/DY.BMP,resources/DG.BMP,Door2,-0.184618598,0.023803643,1,0,0,0.7314,optionLeft,40,2580,2,3,0,3,0,1,,,,,,,,,,,,,,,,,,,,,,,,,,,,,,,,,,,,,,,
,,,,,,,,2023-08-16_08h45.54.801,HF_wild_card,2022.2.4,MacIntel,60.0024001,5dd11840d690721b2469a344,64d2fd46c836a06233681665,64dc7ea2e8f6a3b22cc49366,,,,,,,decisionTrl,resources/DY.BMP,resources/DG.BMP,Door1,0.240344645,0.012514242,1,0,0,0.6645,optionRight,30,2610,2,4,0,4,0,1,,,,,,,,,,,,,,,,,,,,,,,,,,,,,,,,,,,,,,,
,,,,,,,,2023-08-16_08h45.54.801,HF_wild_card,2022.2.4,MacIntel,60.0024001,5dd11840d690721b2469a344,64d2fd46c836a06233681665,64dc7ea2e8f6a3b22cc49366,,,,,,,decisionTrl,resources/DG.BMP,resources/DY.BMP,Door1,-0.22334337,0.034186401,1,0,0,0.7146,optionLeft,30,2640,2,5,0,5,0,1,,,,,,,,,,,,,,,,,,,,,,,,,,,,,,,,,,,,,,,
,,,,,,,,2023-08-16_08h45.54.801,HF_wild_card,2022.2.4,MacIntel,60.0024001,5dd11840d690721b2469a344,64d2fd46c836a06233681665,64dc7ea2e8f6a3b22cc49366,,,,,,,decisionTrl,resources/DP.BMP,resources/DR.BMP,Door3,-0.209600627,0.000630934,1,0,0,0.8493,optionLeft,70,2710,2,6,0,6,0,1,,,,,,,,,,,,,,,,,,,,,,,,,,,,,,,,,,,,,,,
,,,,,,,,2023-08-16_08h45.54.801,HF_wild_card,2022.2.4,MacIntel,60.0024001,5dd11840d690721b2469a344,64d2fd46c836a06233681665,64dc7ea2e8f6a3b22cc49366,,,,,,,ctch,resources/DP.BMP,resources/DY.BMP,Door3,-0.162746921,0.009374797,1,0,0,1.631,optionLeft,70,2780,2,7,0,7,0,1,,,,,,,,,,,,,,,,,,,,,,,,,,,,,,,,,,,,,,,
,,,,,,,,2023-08-16_08h45.54.801,HF_wild_card,2022.2.4,MacIntel,60.0024001,5dd11840d690721b2469a344,64d2fd46c836a06233681665,64dc7ea2e8f6a3b22cc49366,,,,,,,sngl,resources/DY.BMP,resources/Empty.png,Door2,-0.189481337,0.02876614,1,0,0,0.8512,optionLeft,20,2800,2,8,0,8,0,1,,,,,,,,,,,,,,,,,,,,,,,,,,,,,,,,,,,,,,,
,,,,,,,,2023-08-16_08h45.54.801,HF_wild_card,2022.2.4,MacIntel,60.0024001,5dd11840d690721b2469a344,64d2fd46c836a06233681665,64dc7ea2e8f6a3b22cc49366,,,,,,,ctch,resources/DR.BMP,resources/DG.BMP,Door4,-0.180687663,0.001766697,1,0,0,0.8298,optionLeft,60,2860,2,9,0,9,0,1,,,,,,,,,,,,,,,,,,,,,,,,,,,,,,,,,,,,,,,
,,,,,,,,2023-08-16_08h45.54.801,HF_wild_card,2022.2.4,MacIntel,60.0024001,5dd11840d690721b2469a344,64d2fd46c836a06233681665,64dc7ea2e8f6a3b22cc49366,,,,,,,decisionTrl,resources/DY.BMP,resources/DG.BMP,Door1,0.215785116,-0.024786919,1,0,0,1.281,optionRight,30,2890,2,10,0,10,0,1,,,,,,,,,,,,,,,,,,,,,,,,,,,,,,,,,,,,,,,
,,,,,,,,2023-08-16_08h45.54.801,HF_wild_card,2022.2.4,MacIntel,60.0024001,5dd11840d690721b2469a344,64d2fd46c836a06233681665,64dc7ea2e8f6a3b22cc49366,,,,,,,decisionTrl,resources/DY.BMP,resources/DG.BMP,Door2,-0.19466173,0.069866672,1,0,0,0.6991,optionLeft,40,2930,2,11,0,11,0,1,,,,,,,,,,,,,,,,,,,,,,,,,,,,,,,,,,,,,,,
,,,,,,,,2023-08-16_08h45.54.801,HF_wild_card,2022.2.4,MacIntel,60.0024001,5dd11840d690721b2469a344,64d2fd46c836a06233681665,64dc7ea2e8f6a3b22cc49366,,,,,,,sngl,resources/Empty.png,resources/DG.BMP,Door1,0.183708225,0.006084188,1,0,0,0.9147,optionRight,30,2960,2,12,0,12,0,1,,,,,,,,,,,,,,,,,,,,,,,,,,,,,,,,,,,,,,,
,,,,,,,,2023-08-16_08h45.54.801,HF_wild_card,2022.2.4,MacIntel,60.0024001,5dd11840d690721b2469a344,64d2fd46c836a06233681665,64dc7ea2e8f6a3b22cc49366,,,,,,,decisionTrl,resources/DBN.BMP,resources/DG.BMP,WildCard_Ex,-0.200560981,0.056328803,1,0,0,0.6963,optionLeft,95,3055,2,13,0,13,0,1,,,,,,,,,,,,,,,,,,,,,,,,,,,,,,,,,,,,,,,
,,,,,,,,2023-08-16_08h45.54.801,HF_wild_card,2022.2.4,MacIntel,60.0024001,5dd11840d690721b2469a344,64d2fd46c836a06233681665,64dc7ea2e8f6a3b22cc49366,,,,,,,decisionTrl,resources/DY.BMP,resources/DBN.BMP,WildCard_Ex,0.196894192,0.002150743,1,0,0,0.8124,optionRight,95,3150,2,14,0,14,0,1,,,,,,,,,,,,,,,,,,,,,,,,,,,,,,,,,,,,,,,
,,,,,,,,2023-08-16_08h45.54.801,HF_wild_card,2022.2.4,MacIntel,60.0024001,5dd11840d690721b2469a344,64d2fd46c836a06233681665,64dc7ea2e8f6a3b22cc49366,,,,,,,ctch,resources/DR.BMP,resources/DG.BMP,Door4,-0.201309001,0.029537557,1,0,0,0.7806,optionLeft,80,3230,2,15,0,15,0,1,,,,,,,,,,,,,,,,,,,,,,,,,,,,,,,,,,,,,,,
,,,,,,,,2023-08-16_08h45.54.801,HF_wild_card,2022.2.4,MacIntel,60.0024001,5dd11840d690721b2469a344,64d2fd46c836a06233681665,64dc7ea2e8f6a3b22cc49366,,,,,,,sngl,resources/Empty.png,resources/DY.BMP,Door2,0.17026747,0.011259189,1,0,0,1.0313,optionRight,40,3270,2,16,0,16,0,1,,,,,,,,,,,,,,,,,,,,,,,,,,,,,,,,,,,,,,,
,,,,,,,,2023-08-16_08h45.54.801,HF_wild_card,2022.2.4,MacIntel,60.0024001,5dd11840d690721b2469a344,64d2fd46c836a06233681665,64dc7ea2e8f6a3b22cc49366,,,,,,,decisionTrl,resources/DBN.BMP,resources/DR.BMP,WildCard_Ex,-0.199449327,0.040214505,1,0,0,0.7001,optionLeft,5,3275,2,17,0,17,0,1,,,,,,,,,,,,,,,,,,,,,,,,,,,,,,,,,,,,,,,
,,,,,,,,2023-08-16_08h45.54.801,HF_wild_card,2022.2.4,MacIntel,60.0024001,5dd11840d690721b2469a344,64d2fd46c836a06233681665,64dc7ea2e8f6a3b22cc49366,,,,,,,decisionTrl,resources/DR.BMP,resources/DP.BMP,Door4,-0.142906698,0.010902303,1,0,0,0.8312,optionLeft,80,3355,2,18,0,18,0,1,,,,,,,,,,,,,,,,,,,,,,,,,,,,,,,,,,,,,,,
,,,,,,,,2023-08-16_08h45.54.801,HF_wild_card,2022.2.4,MacIntel,60.0024001,5dd11840d690721b2469a344,64d2fd46c836a06233681665,64dc7ea2e8f6a3b22cc49366,,,,,,,decisionTrl,resources/DG.BMP,resources/DY.BMP,Door1,-0.161645304,-0.001296421,1,0,0,1.2972,optionLeft,30,3385,2,19,0,19,0,1,,,,,,,,,,,,,,,,,,,,,,,,,,,,,,,,,,,,,,,
,,,,,,,,2023-08-16_08h45.54.801,HF_wild_card,2022.2.4,MacIntel,60.0024001,5dd11840d690721b2469a344,64d2fd46c836a06233681665,64dc7ea2e8f6a3b22cc49366,,,,,,,sngl,resources/DBN.BMP,resources/Empty.png,WildCard_Ex,-0.175260688,0.005518595,1,0,0,0.732,optionLeft,95,3480,2,20,0,20,0,1,,,,,,,,,,,,,,,,,,,,,,,,,,,,,,,,,,,,,,,
,,,,,,,,2023-08-16_08h45.54.801,HF_wild_card,2022.2.4,MacIntel,60.0024001,5dd11840d690721b2469a344,64d2fd46c836a06233681665,64dc7ea2e8f6a3b22cc49366,,,,,,,decisionTrl,resources/DG.BMP,resources/DBN.BMP,WildCard_Ex,0.171917386,-0.018028768,1,0,0,1.0637,optionRight,5,3485,2,21,0,21,0,1,,,,,,,,,,,,,,,,,,,,,,,,,,,,,,,,,,,,,,,
,,,,,,,,2023-08-16_08h45.54.801,HF_wild_card,2022.2.4,MacIntel,60.0024001,5dd11840d690721b2469a344,64d2fd46c836a06233681665,64dc7ea2e8f6a3b22cc49366,,,,,,,sngl,resources/Empty.png,resources/DBN.BMP,WildCard_Ex,0.127775472,0.001313002,1,0,0,0.8981,optionRight,95,3580,2,22,0,22,0,1,,,,,,,,,,,,,,,,,,,,,,,,,,,,,,,,,,,,,,,
,,,,,,,,2023-08-16_08h45.54.801,HF_wild_card,2022.2.4,MacIntel,60.0024001,5dd11840d690721b2469a344,64d2fd46c836a06233681665,64dc7ea2e8f6a3b22cc49366,,,,,,,ctch,resources/DG.BMP,resources/DR.BMP,Door4,0.17688151,-0.010997077,1,0,0,0.9648,optionRight,80,3660,2,23,0,23,0,1,,,,,,,,,,,,,,,,,,,,,,,,,,,,,,,,,,,,,,,
,,,,,,,,2023-08-16_08h45.54.801,HF_wild_card,2022.2.4,MacIntel,60.0024001,5dd11840d690721b2469a344,64d2fd46c836a06233681665,64dc7ea2e8f6a3b22cc49366,,,,,,,sngl,resources/DR.BMP,resources/Empty.png,Door4,-0.225296495,0.050401408,1,0,0,0.6822,optionLeft,60,3720,2,24,0,24,0,1,,,,,,,,,,,,,,,,,,,,,,,,,,,,,,,,,,,,,,,
,,,,,,,,2023-08-16_08h45.54.801,HF_wild_card,2022.2.4,MacIntel,60.0024001,5dd11840d690721b2469a344,64d2fd46c836a06233681665,64dc7ea2e8f6a3b22cc49366,,,,,,,ctch,resources/DY.BMP,resources/DP.BMP,Door3,0.157201606,-0.008463609,1,0,0,0.864,optionRight,70,3790,2,25,0,25,0,1,,,,,,,,,,,,,,,,,,,,,,,,,,,,,,,,,,,,,,,
,,,,,,,,2023-08-16_08h45.54.801,HF_wild_card,2022.2.4,MacIntel,60.0024001,5dd11840d690721b2469a344,64d2fd46c836a06233681665,64dc7ea2e8f6a3b22cc49366,,,,,,,decisionTrl,resources/DG.BMP,resources/DY.BMP,Door1,-0.161132745,0.019024523,1,0,0,1.4884,optionLeft,30,3820,2,26,0,26,0,1,,,,,,,,,,,,,,,,,,,,,,,,,,,,,,,,,,,,,,,
,,,,,,,,2023-08-16_08h45.54.801,HF_wild_card,2022.2.4,MacIntel,60.0024001,5dd11840d690721b2469a344,64d2fd46c836a06233681665,64dc7ea2e8f6a3b22cc49366,,,,,,,decisionTrl,resources/DR.BMP,resources/DP.BMP,Door3,0.157042779,-0.002739665,1,0,0,1.0155,optionRight,70,3890,2,27,0,27,0,1,,,,,,,,,,,,,,,,,,,,,,,,,,,,,,,,,,,,,,,
,,,,,,,,2023-08-16_08h45.54.801,HF_wild_card,2022.2.4,MacIntel,60.0024001,5dd11840d690721b2469a344,64d2fd46c836a06233681665,64dc7ea2e8f6a3b22cc49366,,,,,,,decisionTrl,resources/DP.BMP,resources/DBN.BMP,WildCard_Ex,0.170357802,0.0051494,1,0,0,1.2646,optionRight,5,3895,2,28,0,28,0,1,,,,,,,,,,,,,,,,,,,,,,,,,,,,,,,,,,,,,,,
,,,,,,,,2023-08-16_08h45.54.801,HF_wild_card,2022.2.4,MacIntel,60.0024001,5dd11840d690721b2469a344,64d2fd46c836a06233681665,64dc7ea2e8f6a3b22cc49366,,,,,,,decisionTrl,resources/DG.BMP,resources/DY.BMP,Door2,0.181128879,-0.020873854,1,0,0,2.1809,optionRight,20,3915,2,29,0,29,0,1,,,,,,,,,,,,,,,,,,,,,,,,,,,,,,,,,,,,,,,
,,,,,,,,2023-08-16_08h45.54.801,HF_wild_card,2022.2.4,MacIntel,60.0024001,5dd11840d690721b2469a344,64d2fd46c836a06233681665,64dc7ea2e8f6a3b22cc49366,,,,,,,decisionTrl,resources/DR.BMP,resources/DP.BMP,Door4,-0.166075575,0.043837145,1,0,0,0.8821,optionLeft,60,3975,2,30,0,30,0,1,,,,,,,,,,,,,,,,,,,,,,,,,,,,,,,,,,,,,,,
,,,,,,,,2023-08-16_08h45.54.801,HF_wild_card,2022.2.4,MacIntel,60.0024001,5dd11840d690721b2469a344,64d2fd46c836a06233681665,64dc7ea2e8f6a3b22cc49366,,,,,,,decisionTrl,resources/DR.BMP,resources/DP.BMP,Door3,0.166041938,-0.041660394,1,0,0,0.75,optionRight,70,4045,2,31,0,31,0,1,,,,,,,,,,,,,,,,,,,,,,,,,,,,,,,,,,,,,,,
,,,,,,,,2023-08-16_08h45.54.801,HF_wild_card,2022.2.4,MacIntel,60.0024001,5dd11840d690721b2469a344,64d2fd46c836a06233681665,64dc7ea2e8f6a3b22cc49366,,,,,,,decisionTrl,resources/DBN.BMP,resources/DP.BMP,WildCard_Ex,-0.195311551,-0.017373861,1,0,0,1.1678,optionLeft,95,4140,2,32,0,32,0,1,,,,,,,,,,,,,,,,,,,,,,,,,,,,,,,,,,,,,,,
,,,,,,,,2023-08-16_08h45.54.801,HF_wild_card,2022.2.4,MacIntel,60.0024001,5dd11840d690721b2469a344,64d2fd46c836a06233681665,64dc7ea2e8f6a3b22cc49366,,,,,,,sngl,resources/Empty.png,resources/DP.BMP,Door3,0.214549967,-0.027361179,1,0,0,0.699,optionRight,70,4210,2,33,0,33,0,1,,,,,,,,,,,,,,,,,,,,,,,,,,,,,,,,,,,,,,,
,,,,,,,,2023-08-16_08h45.54.801,HF_wild_card,2022.2.4,MacIntel,60.0024001,5dd11840d690721b2469a344,64d2fd46c836a06233681665,64dc7ea2e8f6a3b22cc49366,,,,,,,decisionTrl,resources/DP.BMP,resources/DR.BMP,Door3,-0.147421332,0.04510966,1,0,0,2.3288,optionLeft,70,4280,2,34,0,34,0,1,,,,,,,,,,,,,,,,,,,,,,,,,,,,,,,,,,,,,,,
,,,,,,,,2023-08-16_08h45.54.801,HF_wild_card,2022.2.4,MacIntel,60.0024001,5dd11840d690721b2469a344,64d2fd46c836a06233681665,64dc7ea2e8f6a3b22cc49366,,,,,,,decisionTrl,resources/DP.BMP,resources/DR.BMP,Door3,-0.144527113,0.019997762,1,0,0,0.7317,optionLeft,70,4350,2,35,0,35,0,1,,,,,,,,,,,,,,,,,,,,,,,,,,,,,,,,,,,,,,,
,,,,,,,,2023-08-16_08h45.54.801,HF_wild_card,2022.2.4,MacIntel,60.0024001,5dd11840d690721b2469a344,64d2fd46c836a06233681665,64dc7ea2e8f6a3b22cc49366,,,,,,,decisionTrl,resources/DP.BMP,resources/DR.BMP,Door3,-0.161822306,0.025112,1,0,0,0.8813,optionLeft,70,4420,2,36,0,36,0,1,,,,,,,,,,,,,,,,,,,,,,,,,,,,,,,,,,,,,,,
,,,,,,,,2023-08-16_08h45.54.801,HF_wild_card,2022.2.4,MacIntel,60.0024001,5dd11840d690721b2469a344,64d2fd46c836a06233681665,64dc7ea2e8f6a3b22cc49366,,,,,,,sngl,resources/Empty.png,resources/DBN.BMP,WildCard_Ex,0.23145752,-0.011756253,1,0,0,0.9462,optionRight,5,4425,2,37,0,37,0,1,,,,,,,,,,,,,,,,,,,,,,,,,,,,,,,,,,,,,,,
,,,,,,,,2023-08-16_08h45.54.801,HF_wild_card,2022.2.4,MacIntel,60.0024001,5dd11840d690721b2469a344,64d2fd46c836a06233681665,64dc7ea2e8f6a3b22cc49366,,,,,,,sngl,resources/DP.BMP,resources/Empty.png,Door3,-0.16307251,0.023515896,1,0,0,0.7142,optionLeft,70,4495,2,38,0,38,0,1,,,,,,,,,,,,,,,,,,,,,,,,,,,,,,,,,,,,,,,
,,,,,,,,2023-08-16_08h45.54.801,HF_wild_card,2022.2.4,MacIntel,60.0024001,5dd11840d690721b2469a344,64d2fd46c836a06233681665,64dc7ea2e8f6a3b22cc49366,,,,,,,sngl,resources/Empty.png,resources/DR.BMP,Door4,0.116082899,-0.009878845,1,0,0,0.9316,optionRight,80,4575,2,39,0,39,0,1,,,,,,,,,,,,,,,,,,,,,,,,,,,,,,,,,,,,,,,
,,,,,,,,2023-08-16_08h45.54.801,HF_wild_card,2022.2.4,MacIntel,60.0024001,5dd11840d690721b2469a344,64d2fd46c836a06233681665,64dc7ea2e8f6a3b22cc49366,,,,,,,decisionTrl,resources/DR.BMP,resources/DBN.BMP,WildCard_Ex,0.174469876,-0.009679633,1,0,0,1.3643,optionRight,95,4670,2,40,0,40,0,1,,,,,,,,,,,,,,,,,,,,,,,,,,,,,,,,,,,,,,,
,,,,,,,,2023-08-16_08h45.54.801,HF_wild_card,2022.2.4,MacIntel,60.0024001,5dd11840d690721b2469a344,64d2fd46c836a06233681665,64dc7ea2e8f6a3b22cc49366,,,,,,,sngl,resources/DG.BMP,resources/Empty.png,Door1,-0.143403795,-9.81988E-05,1,0,0,0.7812,optionLeft,30,4700,2,41,0,41,0,1,,,,,,,,,,,,,,,,,,,,,,,,,,,,,,,,,,,,,,,
,,,,,,,,2023-08-16_08h45.54.801,HF_wild_card,2022.2.4,MacIntel,60.0024001,5dd11840d690721b2469a344,64d2fd46c836a06233681665,64dc7ea2e8f6a3b22cc49366,,,,,,,decisionTrl,resources/DBN.BMP,resources/DY.BMP,WildCard_Ex,-0.130692681,0.019555596,1,0,0,3.7299,optionLeft,5,4705,2,42,0,42,0,1,,,,,,,,,,,,,,,,,,,,,,,,,,,,,,,,,,,,,,,
,,,,,,,,2023-08-16_08h45.54.801,HF_wild_card,2022.2.4,MacIntel,60.0024001,5dd11840d690721b2469a344,64d2fd46c836a06233681665,64dc7ea2e8f6a3b22cc49366,,,,,,,sngl,resources/DBN.BMP,resources/Empty.png,WildCard_Ex,-0.16842041,0.019789361,1,0,0,0.7646,optionLeft,5,4710,2,43,0,43,0,1,,,,,,,,,,,,,,,,,,,,,,,,,,,,,,,,,,,,,,,
,,,,,,,,2023-08-16_08h45.54.801,HF_wild_card,2022.2.4,MacIntel,60.0024001,5dd11840d690721b2469a344,64d2fd46c836a06233681665,64dc7ea2e8f6a3b22cc49366,,,,,,,,,,,,,,,,,,,,,,,,,,1,0,1,0,1,,,,,,,,,,,,,,,,,,,,,,,,,,,,,,,,,,
,,,,,,,,2023-08-16_08h45.54.801,HF_wild_card,2022.2.4,MacIntel,60.0024001,5dd11840d690721b2469a344,64d2fd46c836a06233681665,64dc7ea2e8f6a3b22cc49366,,,,,,,decisionTrl,resources/DP.BMP,resources/DR.BMP,Door3,-0.130954454,-0.148035346,1,0,0,0.8084,optionLeft,70,4780,3,0,0,0,0,1,,,,,,,,,,,,,,,,,,,,,,,,,,,,,,,,,,,,,,,
,,,,,,,,2023-08-16_08h45.54.801,HF_wild_card,2022.2.4,MacIntel,60.0024001,5dd11840d690721b2469a344,64d2fd46c836a06233681665,64dc7ea2e8f6a3b22cc49366,,,,,,,ctch,resources/DP.BMP,resources/DY.BMP,Door3,-0.160132107,0.012851088,1,0,0,0.7813,optionLeft,70,4850,3,1,0,1,0,1,,,,,,,,,,,,,,,,,,,,,,,,,,,,,,,,,,,,,,,
,,,,,,,,2023-08-16_08h45.54.801,HF_wild_card,2022.2.4,MacIntel,60.0024001,5dd11840d690721b2469a344,64d2fd46c836a06233681665,64dc7ea2e8f6a3b22cc49366,,,,,,,decisionTrl,resources/DR.BMP,resources/DP.BMP,Door4,-0.144874539,-0.003110623,1,0,0,0.9312,optionLeft,60,4910,3,2,0,2,0,1,,,,,,,,,,,,,,,,,,,,,,,,,,,,,,,,,,,,,,,
,,,,,,,,2023-08-16_08h45.54.801,HF_wild_card,2022.2.4,MacIntel,60.0024001,5dd11840d690721b2469a344,64d2fd46c836a06233681665,64dc7ea2e8f6a3b22cc49366,,,,,,,decisionTrl,resources/DR.BMP,resources/DP.BMP,Door3,0.198930189,-0.011642727,1,0,0,0.699,optionRight,70,4980,3,3,0,3,0,1,,,,,,,,,,,,,,,,,,,,,,,,,,,,,,,,,,,,,,,
,,,,,,,,2023-08-16_08h45.54.801,HF_wild_card,2022.2.4,MacIntel,60.0024001,5dd11840d690721b2469a344,64d2fd46c836a06233681665,64dc7ea2e8f6a3b22cc49366,,,,,,,sngl,resources/DBN.BMP,resources/Empty.png,WildCard_Ex,-0.140255534,0.033342624,1,0,0,0.8138,optionLeft,95,5075,3,4,0,4,0,1,,,,,,,,,,,,,,,,,,,,,,,,,,,,,,,,,,,,,,,
,,,,,,,,2023-08-16_08h45.54.801,HF_wild_card,2022.2.4,MacIntel,60.0024001,5dd11840d690721b2469a344,64d2fd46c836a06233681665,64dc7ea2e8f6a3b22cc49366,,,,,,,decisionTrl,resources/DG.BMP,resources/DY.BMP,Door2,0.146067369,-0.013931444,1,0,0,2.3653,optionRight,20,5095,3,5,0,5,0,1,,,,,,,,,,,,,,,,,,,,,,,,,,,,,,,,,,,,,,,
,,,,,,,,2023-08-16_08h45.54.801,HF_wild_card,2022.2.4,MacIntel,60.0024001,5dd11840d690721b2469a344,64d2fd46c836a06233681665,64dc7ea2e8f6a3b22cc49366,,,,,,,decisionTrl,resources/DR.BMP,resources/DP.BMP,Door3,0.175442166,0.009542779,1,0,0,1.0324,optionRight,70,5165,3,6,0,6,0,1,,,,,,,,,,,,,,,,,,,,,,,,,,,,,,,,,,,,,,,
,,,,,,,,2023-08-16_08h45.54.801,HF_wild_card,2022.2.4,MacIntel,60.0024001,5dd11840d690721b2469a344,64d2fd46c836a06233681665,64dc7ea2e8f6a3b22cc49366,,,,,,,decisionTrl,resources/DY.BMP,resources/DG.BMP,Door1,0.156226264,0.004916314,1,0,0,1.2981,optionRight,30,5195,3,7,0,7,0,1,,,,,,,,,,,,,,,,,,,,,,,,,,,,,,,,,,,,,,,
,,,,,,,,2023-08-16_08h45.54.801,HF_wild_card,2022.2.4,MacIntel,60.0024001,5dd11840d690721b2469a344,64d2fd46c836a06233681665,64dc7ea2e8f6a3b22cc49366,,,,,,,decisionTrl,resources/DBN.BMP,resources/DG.BMP,WildCard_Ex,-0.127414958,0.035462307,1,0,0,1.1475,optionLeft,95,5290,3,8,0,8,0,1,,,,,,,,,,,,,,,,,,,,,,,,,,,,,,,,,,,,,,,
,,,,,,,,2023-08-16_08h45.54.801,HF_wild_card,2022.2.4,MacIntel,60.0024001,5dd11840d690721b2469a344,64d2fd46c836a06233681665,64dc7ea2e8f6a3b22cc49366,,,,,,,sngl,resources/Empty.png,resources/DBN.BMP,WildCard_Ex,0.125076769,-0.005353868,1,0,0,0.8153,optionRight,95,5385,3,9,0,9,0,1,,,,,,,,,,,,,,,,,,,,,,,,,,,,,,,,,,,,,,,
,,,,,,,,2023-08-16_08h45.54.801,HF_wild_card,2022.2.4,MacIntel,60.0024001,5dd11840d690721b2469a344,64d2fd46c836a06233681665,64dc7ea2e8f6a3b22cc49366,,,,,,,decisionTrl,resources/DBN.BMP,resources/DP.BMP,Door3,0.104783664,-0.003956638,1,0,0,1.1985,optionRight,70,5455,3,10,0,10,0,1,,,,,,,,,,,,,,,,,,,,,,,,,,,,,,,,,,,,,,,
,,,,,,,,2023-08-16_08h45.54.801,HF_wild_card,2022.2.4,MacIntel,60.0024001,5dd11840d690721b2469a344,64d2fd46c836a06233681665,64dc7ea2e8f6a3b22cc49366,,,,,,,decisionTrl,resources/DG.BMP,resources/DY.BMP,Door1,-0.161710748,0.025085653,1,0,0,1.7155,optionLeft,30,5485,3,11,0,11,0,1,,,,,,,,,,,,,,,,,,,,,,,,,,,,,,,,,,,,,,,
,,,,,,,,2023-08-16_08h45.54.801,HF_wild_card,2022.2.4,MacIntel,60.0024001,5dd11840d690721b2469a344,64d2fd46c836a06233681665,64dc7ea2e8f6a3b22cc49366,,,,,,,ctch,resources/DG.BMP,resources/DR.BMP,Door4,0.180176731,0.006357897,1,0,0,1.2811,optionRight,60,5545,3,12,0,12,0,1,,,,,,,,,,,,,,,,,,,,,,,,,,,,,,,,,,,,,,,
,,,,,,,,2023-08-16_08h45.54.801,HF_wild_card,2022.2.4,MacIntel,60.0024001,5dd11840d690721b2469a344,64d2fd46c836a06233681665,64dc7ea2e8f6a3b22cc49366,,,,,,,sngl,resources/Empty.png,resources/DG.BMP,Door1,0.160234578,-0.000964559,1,0,0,0.7811,optionRight,30,5575,3,13,0,13,0,1,,,,,,,,,,,,,,,,,,,,,,,,,,,,,,,,,,,,,,,
,,,,,,,,2023-08-16_08h45.54.801,HF_wild_card,2022.2.4,MacIntel,60.0024001,5dd11840d690721b2469a344,64d2fd46c836a06233681665,64dc7ea2e8f6a3b22cc49366,,,,,,,decisionTrl,resources/DY.BMP,resources/DG.BMP,Door1,0.167173258,0.027580499,1,0,0,1.3652,optionRight,30,5605,3,14,0,14,0,1,,,,,,,,,,,,,,,,,,,,,,,,,,,,,,,,,,,,,,,
,,,,,,,,2023-08-16_08h45.54.801,HF_wild_card,2022.2.4,MacIntel,60.0024001,5dd11840d690721b2469a344,64d2fd46c836a06233681665,64dc7ea2e8f6a3b22cc49366,,,,,,,decisionTrl,resources/DBN.BMP,resources/DY.BMP,WildCard_Ex,-0.126282213,0.036421238,1,0,0,1.8803,optionLeft,95,5700,3,15,0,15,0,1,,,,,,,,,,,,,,,,,,,,,,,,,,,,,,,,,,,,,,,
,,,,,,,,2023-08-16_08h45.54.801,HF_wild_card,2022.2.4,MacIntel,60.0024001,5dd11840d690721b2469a344,64d2fd46c836a06233681665,64dc7ea2e8f6a3b22cc49366,,,,,,,ctch,resources/DY.BMP,resources/DP.BMP,Door3,0.199690484,0.003440314,1,0,0,1.1815,optionRight,70,5770,3,16,0,16,0,1,,,,,,,,,,,,,,,,,,,,,,,,,,,,,,,,,,,,,,,
,,,,,,,,2023-08-16_08h45.54.801,HF_wild_card,2022.2.4,MacIntel,60.0024001,5dd11840d690721b2469a344,64d2fd46c836a06233681665,64dc7ea2e8f6a3b22cc49366,,,,,,,decisionTrl,resources/DG.BMP,resources/DY.BMP,Door1,-0.120614692,0.010858866,1,0,0,1.3309,optionLeft,30,5800,3,17,0,17,0,1,,,,,,,,,,,,,,,,,,,,,,,,,,,,,,,,,,,,,,,
,,,,,,,,2023-08-16_08h45.54.801,HF_wild_card,2022.2.4,MacIntel,60.0024001,5dd11840d690721b2469a344,64d2fd46c836a06233681665,64dc7ea2e8f6a3b22cc49366,,,,,,,ctch,resources/DY.BMP,resources/DP.BMP,Door3,0.118103366,-0.014418437,1,0,0,1.6637,optionRight,70,5870,3,18,0,18,0,1,,,,,,,,,,,,,,,,,,,,,,,,,,,,,,,,,,,,,,,
,,,,,,,,2023-08-16_08h45.54.801,HF_wild_card,2022.2.4,MacIntel,60.0024001,5dd11840d690721b2469a344,64d2fd46c836a06233681665,64dc7ea2e8f6a3b22cc49366,,,,,,,ctch,resources/DR.BMP,resources/DG.BMP,Door4,-0.170809394,0.020621474,1,0,0,1.2476,optionLeft,60,5930,3,19,0,19,0,1,,,,,,,,,,,,,,,,,,,,,,,,,,,,,,,,,,,,,,,
,,,,,,,,2023-08-16_08h45.54.801,HF_wild_card,2022.2.4,MacIntel,60.0024001,5dd11840d690721b2469a344,64d2fd46c836a06233681665,64dc7ea2e8f6a3b22cc49366,,,,,,,decisionTrl,resources/DG.BMP,resources/DBN.BMP,WildCard_Ex,0.166682536,0.004696248,1,0,0,1.599,optionRight,95,6025,3,20,0,20,0,1,,,,,,,,,,,,,,,,,,,,,,,,,,,,,,,,,,,,,,,
,,,,,,,,2023-08-16_08h45.54.801,HF_wild_card,2022.2.4,MacIntel,60.0024001,5dd11840d690721b2469a344,64d2fd46c836a06233681665,64dc7ea2e8f6a3b22cc49366,,,,,,,decisionTrl,resources/DP.BMP,resources/DR.BMP,Door3,-0.164214274,0.020137465,1,0,0,1.1144,optionLeft,70,6095,3,21,0,21,0,1,,,,,,,,,,,,,,,,,,,,,,,,,,,,,,,,,,,,,,,
,,,,,,,,2023-08-16_08h45.54.801,HF_wild_card,2022.2.4,MacIntel,60.0024001,5dd11840d690721b2469a344,64d2fd46c836a06233681665,64dc7ea2e8f6a3b22cc49366,,,,,,,sngl,resources/DY.BMP,resources/Empty.png,Door2,-0.190925496,0.025918986,1,0,0,1.1141,optionLeft,40,6135,3,22,0,22,0,1,,,,,,,,,,,,,,,,,,,,,,,,,,,,,,,,,,,,,,,
,,,,,,,,2023-08-16_08h45.54.801,HF_wild_card,2022.2.4,MacIntel,60.0024001,5dd11840d690721b2469a344,64d2fd46c836a06233681665,64dc7ea2e8f6a3b22cc49366,,,,,,,sngl,resources/DR.BMP,resources/Empty.png,Door4,-0.122929755,0.009665765,1,0,0,1.098,optionLeft,80,6215,3,23,0,23,0,1,,,,,,,,,,,,,,,,,,,,,,,,,,,,,,,,,,,,,,,
,,,,,,,,2023-08-16_08h45.54.801,HF_wild_card,2022.2.4,MacIntel,60.0024001,5dd11840d690721b2469a344,64d2fd46c836a06233681665,64dc7ea2e8f6a3b22cc49366,,,,,,,sngl,resources/Empty.png,resources/DP.BMP,Door3,0.22425788,-0.019333055,1,0,0,0.8304,optionRight,70,6285,3,24,0,24,0,1,,,,,,,,,,,,,,,,,,,,,,,,,,,,,,,,,,,,,,,
,,,,,,,,2023-08-16_08h45.54.801,HF_wild_card,2022.2.4,MacIntel,60.0024001,5dd11840d690721b2469a344,64d2fd46c836a06233681665,64dc7ea2e8f6a3b22cc49366,,,,,,,decisionTrl,resources/DP.BMP,resources/DR.BMP,Door4,0.149531657,-0.010638021,1,0,0,1.0817,optionRight,60,6345,3,25,0,25,0,1,,,,,,,,,,,,,,,,,,,,,,,,,,,,,,,,,,,,,,,
,,,,,,,,2023-08-16_08h45.54.801,HF_wild_card,2022.2.4,MacIntel,60.0024001,5dd11840d690721b2469a344,64d2fd46c836a06233681665,64dc7ea2e8f6a3b22cc49366,,,,,,,decisionTrl,resources/DY.BMP,resources/DBN.BMP,WildCard_Ex,0.149686279,-0.011944851,1,0,0,1.1979,optionRight,95,6440,3,26,0,26,0,1,,,,,,,,,,,,,,,,,,,,,,,,,,,,,,,,,,,,,,,
,,,,,,,,2023-08-16_08h45.54.801,HF_wild_card,2022.2.4,MacIntel,60.0024001,5dd11840d690721b2469a344,64d2fd46c836a06233681665,64dc7ea2e8f6a3b22cc49366,,,,,,,decisionTrl,resources/DR.BMP,resources/DP.BMP,Door3,0.10024197,0.006041361,1,0,0,1.2633,optionRight,70,6510,3,27,0,27,0,1,,,,,,,,,,,,,,,,,,,,,,,,,,,,,,,,,,,,,,,
,,,,,,,,2023-08-16_08h45.54.801,HF_wild_card,2022.2.4,MacIntel,60.0024001,5dd11840d690721b2469a344,64d2fd46c836a06233681665,64dc7ea2e8f6a3b22cc49366,,,,,,,ctch,resources/DG.BMP,resources/DR.BMP,Door4,0.183779975,0.013611111,1,0,0,1.2628,optionRight,60,6570,3,28,0,28,0,1,,,,,,,,,,,,,,,,,,,,,,,,,,,,,,,,,,,,,,,
,,,,,,,,2023-08-16_08h45.54.801,HF_wild_card,2022.2.4,MacIntel,60.0024001,5dd11840d690721b2469a344,64d2fd46c836a06233681665,64dc7ea2e8f6a3b22cc49366,,,,,,,ctch,resources/DR.BMP,resources/DG.BMP,Door4,-0.195590074,0.039738193,1,0,0,0.7973,optionLeft,60,6630,3,29,0,29,0,1,,,,,,,,,,,,,,,,,,,,,,,,,,,,,,,,,,,,,,,
,,,,,,,,2023-08-16_08h45.54.801,HF_wild_card,2022.2.4,MacIntel,60.0024001,5dd11840d690721b2469a344,64d2fd46c836a06233681665,64dc7ea2e8f6a3b22cc49366,,,,,,,decisionTrl,resources/DY.BMP,resources/DG.BMP,Door1,0.172393256,0.005968357,1,0,0,1.0987,optionRight,30,6660,3,30,0,30,0,1,,,,,,,,,,,,,,,,,,,,,,,,,,,,,,,,,,,,,,,
,,,,,,,,2023-08-16_08h45.54.801,HF_wild_card,2022.2.4,MacIntel,60.0024001,5dd11840d690721b2469a344,64d2fd46c836a06233681665,64dc7ea2e8f6a3b22cc49366,,,,,,,sngl,resources/DP.BMP,resources/Empty.png,Door3,-0.17780443,0.036949293,1,0,0,0.6998,optionLeft,70,6730,3,31,0,31,0,1,,,,,,,,,,,,,,,,,,,,,,,,,,,,,,,,,,,,,,,
,,,,,,,,2023-08-16_08h45.54.801,HF_wild_card,2022.2.4,MacIntel,60.0024001,5dd11840d690721b2469a344,64d2fd46c836a06233681665,64dc7ea2e8f6a3b22cc49366,,,,,,,decisionTrl,resources/DG.BMP,resources/DY.BMP,Door1,-0.195106879,0.021260105,1,0,0,1.3313,optionLeft,30,6760,3,32,0,32,0,1,,,,,,,,,,,,,,,,,,,,,,,,,,,,,,,,,,,,,,,
,,,,,,,,2023-08-16_08h45.54.801,HF_wild_card,2022.2.4,MacIntel,60.0024001,5dd11840d690721b2469a344,64d2fd46c836a06233681665,64dc7ea2e8f6a3b22cc49366,,,,,,,decisionTrl,resources/DP.BMP,resources/DR.BMP,Door3,-0.167171631,0.028168538,1,0,0,0.8466,optionLeft,70,6830,3,33,0,33,0,1,,,,,,,,,,,,,,,,,,,,,,,,,,,,,,,,,,,,,,,
,,,,,,,,2023-08-16_08h45.54.801,HF_wild_card,2022.2.4,MacIntel,60.0024001,5dd11840d690721b2469a344,64d2fd46c836a06233681665,64dc7ea2e8f6a3b22cc49366,,,,,,,sngl,resources/Empty.png,resources/DBN.BMP,WildCard_Ex,0.241578505,-0.015721503,1,0,0,0.9481,optionRight,5,6835,3,34,0,34,0,1,,,,,,,,,,,,,,,,,,,,,,,,,,,,,,,,,,,,,,,
,,,,,,,,2023-08-16_08h45.54.801,HF_wild_card,2022.2.4,MacIntel,60.0024001,5dd11840d690721b2469a344,64d2fd46c836a06233681665,64dc7ea2e8f6a3b22cc49366,,,,,,,decisionTrl,resources/DP.BMP,resources/DBN.BMP,Door3,-0.154337633,0.010191854,1,0,0,0.9125,optionLeft,70,6905,3,35,0,35,0,1,,,,,,,,,,,,,,,,,,,,,,,,,,,,,,,,,,,,,,,
,,,,,,,,2023-08-16_08h45.54.801,HF_wild_card,2022.2.4,MacIntel,60.0024001,5dd11840d690721b2469a344,64d2fd46c836a06233681665,64dc7ea2e8f6a3b22cc49366,,,,,,,sngl,resources/DG.BMP,resources/Empty.png,Door1,-0.120296766,0.026919149,1,0,0,0.7138,optionLeft,30,6935,3,36,0,36,0,1,,,,,,,,,,,,,,,,,,,,,,,,,,,,,,,,,,,,,,,
,,,,,,,,2023-08-16_08h45.54.801,HF_wild_card,2022.2.4,MacIntel,60.0024001,5dd11840d690721b2469a344,64d2fd46c836a06233681665,64dc7ea2e8f6a3b22cc49366,,,,,,,sngl,resources/Empty.png,resources/DY.BMP,Door2,0.186941461,-0.001757948,1,0,0,0.713,optionRight,20,6955,3,37,0,37,0,1,,,,,,,,,,,,,,,,,,,,,,,,,,,,,,,,,,,,,,,
,,,,,,,,2023-08-16_08h45.54.801,HF_wild_card,2022.2.4,MacIntel,60.0024001,5dd11840d690721b2469a344,64d2fd46c836a06233681665,64dc7ea2e8f6a3b22cc49366,,,,,,,ctch,resources/DP.BMP,resources/DY.BMP,Door3,-0.127326389,-0.007027113,1,0,0,0.8654,optionLeft,70,7025,3,38,0,38,0,1,,,,,,,,,,,,,,,,,,,,,,,,,,,,,,,,,,,,,,,
,,,,,,,,2023-08-16_08h45.54.801,HF_wild_card,2022.2.4,MacIntel,60.0024001,5dd11840d690721b2469a344,64d2fd46c836a06233681665,64dc7ea2e8f6a3b22cc49366,,,,,,,decisionTrl,resources/DR.BMP,resources/DBN.BMP,WildCard_Ex,0.105027805,0.008342556,1,0,0,1.6154,optionRight,5,7030,3,39,0,39,0,1,,,,,,,,,,,,,,,,,,,,,,,,,,,,,,,,,,,,,,,
,,,,,,,,2023-08-16_08h45.54.801,HF_wild_card,2022.2.4,MacIntel,60.0024001,5dd11840d690721b2469a344,64d2fd46c836a06233681665,64dc7ea2e8f6a3b22cc49366,,,,,,,sngl,resources/DBN.BMP,resources/Empty.png,WildCard_Ex,-0.15181939,0.0226081,1,0,0,0.6819,optionLeft,5,7035,3,40,0,40,0,1,,,,,,,,,,,,,,,,,,,,,,,,,,,,,,,,,,,,,,,
,,,,,,,,2023-08-16_08h45.54.801,HF_wild_card,2022.2.4,MacIntel,60.0024001,5dd11840d690721b2469a344,64d2fd46c836a06233681665,64dc7ea2e8f6a3b22cc49366,,,,,,,decisionTrl,resources/DY.BMP,resources/DG.BMP,Door1,0.177535604,0.010813022,1,0,0,1.5973,optionRight,30,7065,3,41,0,41,0,1,,,,,,,,,,,,,,,,,,,,,,,,,,,,,,,,,,,,,,,
,,,,,,,,2023-08-16_08h45.54.801,HF_wild_card,2022.2.4,MacIntel,60.0024001,5dd11840d690721b2469a344,64d2fd46c836a06233681665,64dc7ea2e8f6a3b22cc49366,,,,,,,sngl,resources/Empty.png,resources/DR.BMP,Door4,0.180979275,0.010519647,1,0,0,0.7818,optionRight,60,7125,3,42,0,42,0,1,,,,,,,,,,,,,,,,,,,,,,,,,,,,,,,,,,,,,,,
,,,,,,,,2023-08-16_08h45.54.801,HF_wild_card,2022.2.4,MacIntel,60.0024001,5dd11840d690721b2469a344,64d2fd46c836a06233681665,64dc7ea2e8f6a3b22cc49366,,,,,,,decisionTrl,resources/DBN.BMP,resources/DR.BMP,Door4,0.178483073,0.004171482,1,0,0,1.4619,optionRight,80,7205,3,43,0,43,0,1,,,,,,,,,,,,,,,,,,,,,,,,,,,,,,,,,,,,,,,
,,,,,,,,2023-08-16_08h45.54.801,HF_wild_card,2022.2.4,MacIntel,60.0024001,5dd11840d690721b2469a344,64d2fd46c836a06233681665,64dc7ea2e8f6a3b22cc49366,,,,,,,,,,,,,,,,,,,,,,,,,,2,0,2,0,1,,,,,,,,,,,,,,,,,,,,,,,,,,,,,,,,,,
,,,,,,,,2023-08-16_08h45.54.801,HF_wild_card,2022.2.4,MacIntel,60.0024001,5dd11840d690721b2469a344,64d2fd46c836a06233681665,64dc7ea2e8f6a3b22cc49366,,,,,,,decisionTrl,resources/DG.BMP,resources/DY.BMP,Door1,-0.141992052,-0.09217197,1,0,0,1.8209,optionLeft,30,7235,4,0,0,0,0,1,,,,,,,,,,,,,,,,,,,,,,,,,,,,,,,,,,,,,,,
,,,,,,,,2023-08-16_08h45.54.801,HF_wild_card,2022.2.4,MacIntel,60.0024001,5dd11840d690721b2469a344,64d2fd46c836a06233681665,64dc7ea2e8f6a3b22cc49366,,,,,,,decisionTrl,resources/DY.BMP,resources/DG.BMP,Door1,0.20577162,-0.003103061,1,0,0,1.2478,optionRight,30,7265,4,1,0,1,0,1,,,,,,,,,,,,,,,,,,,,,,,,,,,,,,,,,,,,,,,
,,,,,,,,2023-08-16_08h45.54.801,HF_wild_card,2022.2.4,MacIntel,60.0024001,5dd11840d690721b2469a344,64d2fd46c836a06233681665,64dc7ea2e8f6a3b22cc49366,,,,,,,decisionTrl,resources/DB.BMP,resources/DR.BMP,WildCard_NonEx,-0.150467394,0.009406976,1,0,0,1.565,optionLeft,55,7320,4,2,0,2,0,1,,,,,,,,,,,,,,,,,,,,,,,,,,,,,,,,,,,,,,,
,,,,,,,,2023-08-16_08h45.54.801,HF_wild_card,2022.2.4,MacIntel,60.0024001,5dd11840d690721b2469a344,64d2fd46c836a06233681665,64dc7ea2e8f6a3b22cc49366,,,,,,,sngl,resources/Empty.png,resources/DB.BMP,WildCard_NonEx,0.198576525,-0.002524109,1,0,0,0.7648,optionRight,45,7365,4,3,0,3,0,1,,,,,,,,,,,,,,,,,,,,,,,,,,,,,,,,,,,,,,,
,,,,,,,,2023-08-16_08h45.54.801,HF_wild_card,2022.2.4,MacIntel,60.0024001,5dd11840d690721b2469a344,64d2fd46c836a06233681665,64dc7ea2e8f6a3b22cc49366,,,,,,,decisionTrl,resources/DP.BMP,resources/DR.BMP,Door3,-0.181864624,-0.001176283,1,0,0,1.1289,optionLeft,70,7435,4,4,0,4,0,1,,,,,,,,,,,,,,,,,,,,,,,,,,,,,,,,,,,,,,,
,,,,,,,,2023-08-16_08h45.54.801,HF_wild_card,2022.2.4,MacIntel,60.0024001,5dd11840d690721b2469a344,64d2fd46c836a06233681665,64dc7ea2e8f6a3b22cc49366,,,,,,,ctch,resources/DG.BMP,resources/DR.BMP,Door4,0.203534749,0.003405457,1,0,0,0.9467,optionRight,60,7495,4,5,0,5,0,1,,,,,,,,,,,,,,,,,,,,,,,,,,,,,,,,,,,,,,,
,,,,,,,,2023-08-16_08h45.54.801,HF_wild_card,2022.2.4,MacIntel,60.0024001,5dd11840d690721b2469a344,64d2fd46c836a06233681665,64dc7ea2e8f6a3b22cc49366,,,,,,,decisionTrl,resources/DP.BMP,resources/DB.BMP,Door3,-0.126395264,0.014412164,1,0,0,1.9164,optionLeft,70,7565,4,6,0,6,0,1,,,,,,,,,,,,,,,,,,,,,,,,,,,,,,,,,,,,,,,
,,,,,,,,2023-08-16_08h45.54.801,HF_wild_card,2022.2.4,MacIntel,60.0024001,5dd11840d690721b2469a344,64d2fd46c836a06233681665,64dc7ea2e8f6a3b22cc49366,,,,,,,decisionTrl,resources/DG.BMP,resources/DB.BMP,WildCard_NonEx,0.124903564,-0.013104282,1,0,0,0.9984,optionRight,45,7610,4,7,0,7,0,1,,,,,,,,,,,,,,,,,,,,,,,,,,,,,,,,,,,,,,,
,,,,,,,,2023-08-16_08h45.54.801,HF_wild_card,2022.2.4,MacIntel,60.0024001,5dd11840d690721b2469a344,64d2fd46c836a06233681665,64dc7ea2e8f6a3b22cc49366,,,,,,,decisionTrl,resources/DB.BMP,resources/DP.BMP,WildCard_NonEx,-0.208186035,0.009309184,1,0,0,0.7482,optionLeft,55,7665,4,8,0,8,0,1,,,,,,,,,,,,,,,,,,,,,,,,,,,,,,,,,,,,,,,
,,,,,,,,2023-08-16_08h45.54.801,HF_wild_card,2022.2.4,MacIntel,60.0024001,5dd11840d690721b2469a344,64d2fd46c836a06233681665,64dc7ea2e8f6a3b22cc49366,,,,,,,decisionTrl,resources/DG.BMP,resources/DY.BMP,Door1,-0.137899577,0.020474752,1,0,0,1.4323,optionLeft,30,7695,4,9,0,9,0,1,,,,,,,,,,,,,,,,,,,,,,,,,,,,,,,,,,,,,,,
,,,,,,,,2023-08-16_08h45.54.801,HF_wild_card,2022.2.4,MacIntel,60.0024001,5dd11840d690721b2469a344,64d2fd46c836a06233681665,64dc7ea2e8f6a3b22cc49366,,,,,,,sngl,resources/DY.BMP,resources/Empty.png,Door2,-0.143007202,0.020562066,1,0,0,0.7485,optionLeft,20,7715,4,10,0,10,0,1,,,,,,,,,,,,,,,,,,,,,,,,,,,,,,,,,,,,,,,
,,,,,,,,2023-08-16_08h45.54.801,HF_wild_card,2022.2.4,MacIntel,60.0024001,5dd11840d690721b2469a344,64d2fd46c836a06233681665,64dc7ea2e8f6a3b22cc49366,,,,,,,sngl,resources/DR.BMP,resources/Empty.png,Door4,-0.126015082,0.024581299,1,0,0,0.815,optionLeft,60,7775,4,11,0,11,0,1,,,,,,,,,,,,,,,,,,,,,,,,,,,,,,,,,,,,,,,
,,,,,,,,2023-08-16_08h45.54.801,HF_wild_card,2022.2.4,MacIntel,60.0024001,5dd11840d690721b2469a344,64d2fd46c836a06233681665,64dc7ea2e8f6a3b22cc49366,,,,,,,ctch,resources/DR.BMP,resources/DG.BMP,Door4,-0.156442057,0.001329617,1,0,0,0.9813,optionLeft,60,7835,4,12,0,12,0,1,,,,,,,,,,,,,,,,,,,,,,,,,,,,,,,,,,,,,,,
,,,,,,,,2023-08-16_08h45.54.801,HF_wild_card,2022.2.4,MacIntel,60.0024001,5dd11840d690721b2469a344,64d2fd46c836a06233681665,64dc7ea2e8f6a3b22cc49366,,,,,,,decisionTrl,resources/DB.BMP,resources/DY.BMP,WildCard_NonEx,-0.158894789,0.007541911,1,0,0,1.2483,optionLeft,55,7890,4,13,0,13,0,1,,,,,,,,,,,,,,,,,,,,,,,,,,,,,,,,,,,,,,,
,,,,,,,,2023-08-16_08h45.54.801,HF_wild_card,2022.2.4,MacIntel,60.0024001,5dd11840d690721b2469a344,64d2fd46c836a06233681665,64dc7ea2e8f6a3b22cc49366,,,,,,,sngl,resources/DB.BMP,resources/Empty.png,WildCard_NonEx,-0.173316379,0.013233507,1,0,0,0.6634,optionLeft,55,7945,4,14,0,14,0,1,,,,,,,,,,,,,,,,,,,,,,,,,,,,,,,,,,,,,,,
,,,,,,,,2023-08-16_08h45.54.801,HF_wild_card,2022.2.4,MacIntel,60.0024001,5dd11840d690721b2469a344,64d2fd46c836a06233681665,64dc7ea2e8f6a3b22cc49366,,,,,,,decisionTrl,resources/DY.BMP,resources/DG.BMP,Door1,0.162683241,0.020895793,1,0,0,1.448,optionRight,30,7975,4,15,0,15,0,1,,,,,,,,,,,,,,,,,,,,,,,,,,,,,,,,,,,,,,,
,,,,,,,,2023-08-16_08h45.54.801,HF_wild_card,2022.2.4,MacIntel,60.0024001,5dd11840d690721b2469a344,64d2fd46c836a06233681665,64dc7ea2e8f6a3b22cc49366,,,,,,,decisionTrl,resources/DR.BMP,resources/DP.BMP,Door4,-0.143955214,0.050878296,1,0,0,3.3809,optionLeft,80,8055,4,16,0,16,0,1,,,,,,,,,,,,,,,,,,,,,,,,,,,,,,,,,,,,,,,
,,,,,,,,2023-08-16_08h45.54.801,HF_wild_card,2022.2.4,MacIntel,60.0024001,5dd11840d690721b2469a344,64d2fd46c836a06233681665,64dc7ea2e8f6a3b22cc49366,,,,,,,decisionTrl,resources/DY.BMP,resources/DG.BMP,Door1,0.138185425,0.022018331,1,0,0,1.514,optionRight,30,8085,4,17,0,17,0,1,,,,,,,,,,,,,,,,,,,,,,,,,,,,,,,,,,,,,,,
,,,,,,,,2023-08-16_08h45.54.801,HF_wild_card,2022.2.4,MacIntel,60.0024001,5dd11840d690721b2469a344,64d2fd46c836a06233681665,64dc7ea2e8f6a3b22cc49366,,,,,,,decisionTrl,resources/DR.BMP,resources/DP.BMP,Door3,0.187647027,0.002519667,1,0,0,1.2153,optionRight,70,8155,4,18,0,18,0,1,,,,,,,,,,,,,,,,,,,,,,,,,,,,,,,,,,,,,,,
,,,,,,,,2023-08-16_08h45.54.801,HF_wild_card,2022.2.4,MacIntel,60.0024001,5dd11840d690721b2469a344,64d2fd46c836a06233681665,64dc7ea2e8f6a3b22cc49366,,,,,,,sngl,resources/Empty.png,resources/DY.BMP,Door2,0.137730238,0.030245022,1,0,0,0.8317,optionRight,40,8195,4,19,0,19,0,1,,,,,,,,,,,,,,,,,,,,,,,,,,,,,,,,,,,,,,,
,,,,,,,,2023-08-16_08h45.54.801,HF_wild_card,2022.2.4,MacIntel,60.0024001,5dd11840d690721b2469a344,64d2fd46c836a06233681665,64dc7ea2e8f6a3b22cc49366,,,,,,,sngl,resources/Empty.png,resources/DR.BMP,Door4,0.162264472,0.012502814,1,0,0,0.9144,optionRight,80,8275,4,20,0,20,0,1,,,,,,,,,,,,,,,,,,,,,,,,,,,,,,,,,,,,,,,
,,,,,,,,2023-08-16_08h45.54.801,HF_wild_card,2022.2.4,MacIntel,60.0024001,5dd11840d690721b2469a344,64d2fd46c836a06233681665,64dc7ea2e8f6a3b22cc49366,,,,,,,decisionTrl,resources/DR.BMP,resources/DP.BMP,Door3,0.181461249,0.007876519,1,0,0,1.0145,optionRight,70,8345,4,21,0,21,0,1,,,,,,,,,,,,,,,,,,,,,,,,,,,,,,,,,,,,,,,
,,,,,,,,2023-08-16_08h45.54.801,HF_wild_card,2022.2.4,MacIntel,60.0024001,5dd11840d690721b2469a344,64d2fd46c836a06233681665,64dc7ea2e8f6a3b22cc49366,,,,,,,ctch,resources/DY.BMP,resources/DP.BMP,Door3,0.168028429,0.020926514,1,0,0,1.347,optionRight,70,8415,4,22,0,22,0,1,,,,,,,,,,,,,,,,,,,,,,,,,,,,,,,,,,,,,,,
,,,,,,,,2023-08-16_08h45.54.801,HF_wild_card,2022.2.4,MacIntel,60.0024001,5dd11840d690721b2469a344,64d2fd46c836a06233681665,64dc7ea2e8f6a3b22cc49366,,,,,,,ctch,resources/DR.BMP,resources/DG.BMP,Door4,-0.196331651,0.025939738,1,0,0,1.2657,optionLeft,60,8475,4,23,0,23,0,1,,,,,,,,,,,,,,,,,,,,,,,,,,,,,,,,,,,,,,,
,,,,,,,,2023-08-16_08h45.54.801,HF_wild_card,2022.2.4,MacIntel,60.0024001,5dd11840d690721b2469a344,64d2fd46c836a06233681665,64dc7ea2e8f6a3b22cc49366,,,,,,,decisionTrl,resources/DP.BMP,resources/DR.BMP,Door3,-0.1361065,0.004059448,1,0,0,0.8144,optionLeft,70,8545,4,24,0,24,0,1,,,,,,,,,,,,,,,,,,,,,,,,,,,,,,,,,,,,,,,
,,,,,,,,2023-08-16_08h45.54.801,HF_wild_card,2022.2.4,MacIntel,60.0024001,5dd11840d690721b2469a344,64d2fd46c836a06233681665,64dc7ea2e8f6a3b22cc49366,,,,,,,decisionTrl,resources/DR.BMP,resources/DB.BMP,Door4,-0.108891602,-0.009540541,1,0,0,1.5138,optionLeft,60,8605,4,25,0,25,0,1,,,,,,,,,,,,,,,,,,,,,,,,,,,,,,,,,,,,,,,
,,,,,,,,2023-08-16_08h45.54.801,HF_wild_card,2022.2.4,MacIntel,60.0024001,5dd11840d690721b2469a344,64d2fd46c836a06233681665,64dc7ea2e8f6a3b22cc49366,,,,,,,decisionTrl,resources/DG.BMP,resources/DY.BMP,Door1,-0.169654066,0.021892225,1,0,0,1.3444,optionLeft,30,8635,4,26,0,26,0,1,,,,,,,,,,,,,,,,,,,,,,,,,,,,,,,,,,,,,,,
,,,,,,,,2023-08-16_08h45.54.801,HF_wild_card,2022.2.4,MacIntel,60.0024001,5dd11840d690721b2469a344,64d2fd46c836a06233681665,64dc7ea2e8f6a3b22cc49366,,,,,,,decisionTrl,resources/DP.BMP,resources/DR.BMP,Door3,-0.165066461,-0.012007378,1,0,0,1.1324,optionLeft,70,8705,4,27,0,27,0,1,,,,,,,,,,,,,,,,,,,,,,,,,,,,,,,,,,,,,,,
,,,,,,,,2023-08-16_08h45.54.801,HF_wild_card,2022.2.4,MacIntel,60.0024001,5dd11840d690721b2469a344,64d2fd46c836a06233681665,64dc7ea2e8f6a3b22cc49366,,,,,,,sngl,resources/DP.BMP,resources/Empty.png,Door3,-0.128297323,0.009673801,1,0,0,0.6648,optionLeft,70,8775,4,28,0,28,0,1,,,,,,,,,,,,,,,,,,,,,,,,,,,,,,,,,,,,,,,
,,,,,,,,2023-08-16_08h45.54.801,HF_wild_card,2022.2.4,MacIntel,60.0024001,5dd11840d690721b2469a344,64d2fd46c836a06233681665,64dc7ea2e8f6a3b22cc49366,,,,,,,sngl,resources/Empty.png,resources/DP.BMP,Door3,0.210782064,0.003272366,1,0,0,0.7637,optionRight,70,8845,4,29,0,29,0,1,,,,,,,,,,,,,,,,,,,,,,,,,,,,,,,,,,,,,,,
,,,,,,,,2023-08-16_08h45.54.801,HF_wild_card,2022.2.4,MacIntel,60.0024001,5dd11840d690721b2469a344,64d2fd46c836a06233681665,64dc7ea2e8f6a3b22cc49366,,,,,,,decisionTrl,resources/DP.BMP,resources/DR.BMP,Door4,0.196746148,0.005392931,1,0,0,0.932,optionRight,60,8905,4,30,0,30,0,1,,,,,,,,,,,,,,,,,,,,,,,,,,,,,,,,,,,,,,,
,,,,,,,,2023-08-16_08h45.54.801,HF_wild_card,2022.2.4,MacIntel,60.0024001,5dd11840d690721b2469a344,64d2fd46c836a06233681665,64dc7ea2e8f6a3b22cc49366,,,,,,,sngl,resources/DB.BMP,resources/Empty.png,WildCard_NonEx,-0.14959554,-0.000307787,1,0,0,0.7004,optionLeft,45,8950,4,31,0,31,0,1,,,,,,,,,,,,,,,,,,,,,,,,,,,,,,,,,,,,,,,
,,,,,,,,2023-08-16_08h45.54.801,HF_wild_card,2022.2.4,MacIntel,60.0024001,5dd11840d690721b2469a344,64d2fd46c836a06233681665,64dc7ea2e8f6a3b22cc49366,,,,,,,sngl,resources/Empty.png,resources/DB.BMP,WildCard_NonEx,0.215794135,-0.002393799,1,0,0,0.7627,optionRight,55,9005,4,32,0,32,0,1,,,,,,,,,,,,,,,,,,,,,,,,,,,,,,,,,,,,,,,
,,,,,,,,2023-08-16_08h45.54.801,HF_wild_card,2022.2.4,MacIntel,60.0024001,5dd11840d690721b2469a344,64d2fd46c836a06233681665,64dc7ea2e8f6a3b22cc49366,,,,,,,ctch,resources/DP.BMP,resources/DY.BMP,Door3,-0.164851006,0.011467353,1,0,0,0.9818,optionLeft,70,9075,4,33,0,33,0,1,,,,,,,,,,,,,,,,,,,,,,,,,,,,,,,,,,,,,,,
,,,,,,,,2023-08-16_08h45.54.801,HF_wild_card,2022.2.4,MacIntel,60.0024001,5dd11840d690721b2469a344,64d2fd46c836a06233681665,64dc7ea2e8f6a3b22cc49366,,,,,,,sngl,resources/Empty.png,resources/DG.BMP,Door1,0.208681776,0.017999539,1,0,0,0.8141,optionRight,30,9105,4,34,0,34,0,1,,,,,,,,,,,,,,,,,,,,,,,,,,,,,,,,,,,,,,,
,,,,,,,,2023-08-16_08h45.54.801,HF_wild_card,2022.2.4,MacIntel,60.0024001,5dd11840d690721b2469a344,64d2fd46c836a06233681665,64dc7ea2e8f6a3b22cc49366,,,,,,,ctch,resources/DP.BMP,resources/DY.BMP,Door3,-0.171565891,0.017373657,1,0,0,0.7482,optionLeft,70,9175,4,35,0,35,0,1,,,,,,,,,,,,,,,,,,,,,,,,,,,,,,,,,,,,,,,
,,,,,,,,2023-08-16_08h45.54.801,HF_wild_card,2022.2.4,MacIntel,60.0024001,5dd11840d690721b2469a344,64d2fd46c836a06233681665,64dc7ea2e8f6a3b22cc49366,,,,,,,decisionTrl,resources/DG.BMP,resources/DY.BMP,Door1,-0.129127197,0.01459866,1,0,0,1.2809,optionLeft,30,9205,4,36,0,36,0,1,,,,,,,,,,,,,,,,,,,,,,,,,,,,,,,,,,,,,,,
,,,,,,,,2023-08-16_08h45.54.801,HF_wild_card,2022.2.4,MacIntel,60.0024001,5dd11840d690721b2469a344,64d2fd46c836a06233681665,64dc7ea2e8f6a3b22cc49366,,,,,,,decisionTrl,resources/DR.BMP,resources/DP.BMP,Door3,0.137784763,0.023389282,1,0,0,1.0481,optionRight,70,9275,4,37,0,37,0,1,,,,,,,,,,,,,,,,,,,,,,,,,,,,,,,,,,,,,,,
,,,,,,,,2023-08-16_08h45.54.801,HF_wild_card,2022.2.4,MacIntel,60.0024001,5dd11840d690721b2469a344,64d2fd46c836a06233681665,64dc7ea2e8f6a3b22cc49366,,,,,,,decisionTrl,resources/DY.BMP,resources/DB.BMP,WildCard_NonEx,0.238980916,0.021250949,1,0,0,1.1138,optionRight,45,9320,4,38,0,38,0,1,,,,,,,,,,,,,,,,,,,,,,,,,,,,,,,,,,,,,,,
,,,,,,,,2023-08-16_08h45.54.801,HF_wild_card,2022.2.4,MacIntel,60.0024001,5dd11840d690721b2469a344,64d2fd46c836a06233681665,64dc7ea2e8f6a3b22cc49366,,,,,,,sngl,resources/DG.BMP,resources/Empty.png,Door1,-0.17744812,0.016464708,1,0,0,0.6991,optionLeft,30,9350,4,39,0,39,0,1,,,,,,,,,,,,,,,,,,,,,,,,,,,,,,,,,,,,,,,
,,,,,,,,2023-08-16_08h45.54.801,HF_wild_card,2022.2.4,MacIntel,60.0024001,5dd11840d690721b2469a344,64d2fd46c836a06233681665,64dc7ea2e8f6a3b22cc49366,,,,,,,decisionTrl,resources/DB.BMP,resources/DG.BMP,WildCard_NonEx,-0.145622152,0.025113593,1,0,0,0.6833,optionLeft,45,9395,4,40,0,40,0,1,,,,,,,,,,,,,,,,,,,,,,,,,,,,,,,,,,,,,,,
,,,,,,,,2023-08-16_08h45.54.801,HF_wild_card,2022.2.4,MacIntel,60.0024001,5dd11840d690721b2469a344,64d2fd46c836a06233681665,64dc7ea2e8f6a3b22cc49366,,,,,,,decisionTrl,resources/DY.BMP,resources/DG.BMP,Door1,0.184702352,0.029867893,1,0,0,1.9325,optionRight,30,9425,4,41,0,41,0,1,,,,,,,,,,,,,,,,,,,,,,,,,,,,,,,,,,,,,,,
,,,,,,,,2023-08-16_08h45.54.801,HF_wild_card,2022.2.4,MacIntel,60.0024001,5dd11840d690721b2469a344,64d2fd46c836a06233681665,64dc7ea2e8f6a3b22cc49366,,,,,,,ctch,resources/DY.BMP,resources/DP.BMP,Door3,0.232882623,0.010876024,1,0,0,0.9148,optionRight,70,9495,4,42,0,42,0,1,,,,,,,,,,,,,,,,,,,,,,,,,,,,,,,,,,,,,,,
,,,,,,,,2023-08-16_08h45.54.801,HF_wild_card,2022.2.4,MacIntel,60.0024001,5dd11840d690721b2469a344,64d2fd46c836a06233681665,64dc7ea2e8f6a3b22cc49366,,,,,,,ctch,resources/DG.BMP,resources/DR.BMP,Door4,0.245035807,0.007061395,1,0,0,1.4978,optionRight,80,9575,4,43,0,43,0,1,,,,,,,,,,,,,,,,,,,,,,,,,,,,,,,,,,,,,,,
,,,,,,,,2023-08-16_08h45.54.801,HF_wild_card,2022.2.4,MacIntel,60.0024001,5dd11840d690721b2469a344,64d2fd46c836a06233681665,64dc7ea2e8f6a3b22cc49366,,,,,,,,,,,,,,,,,,,,,,,,,,3,0,3,0,1,,,,,,,,,,,,,,,,,,,,,,,,,,,,,,,,,,
,,,,,,,,2023-08-16_08h45.54.801,HF_wild_card,2022.2.4,MacIntel,60.0024001,5dd11840d690721b2469a344,64d2fd46c836a06233681665,64dc7ea2e8f6a3b22cc49366,,,,,,,decisionTrl,resources/DY.BMP,resources/DG.BMP,Door1,0.196650933,-0.09967414,1,0,0,1.2865,optionRight,30,9605,5,0,0,0,0,1,,,,,,,,,,,,,,,,,,,,,,,,,,,,,,,,,,,,,,,
,,,,,,,,2023-08-16_08h45.54.801,HF_wild_card,2022.2.4,MacIntel,60.0024001,5dd11840d690721b2469a344,64d2fd46c836a06233681665,64dc7ea2e8f6a3b22cc49366,,,,,,,decisionTrl,resources/DY.BMP,resources/DG.BMP,Door1,0.137465481,0.006701728,1,0,0,1.0164,optionRight,30,9635,5,1,0,1,0,1,,,,,,,,,,,,,,,,,,,,,,,,,,,,,,,,,,,,,,,
,,,,,,,,2023-08-16_08h45.54.801,HF_wild_card,2022.2.4,MacIntel,60.0024001,5dd11840d690721b2469a344,64d2fd46c836a06233681665,64dc7ea2e8f6a3b22cc49366,,,,,,,sngl,resources/Empty.png,resources/DG.BMP,Door1,0.177921821,0.041315138,1,0,0,0.665,optionRight,30,9665,5,2,0,2,0,1,,,,,,,,,,,,,,,,,,,,,,,,,,,,,,,,,,,,,,,
,,,,,,,,2023-08-16_08h45.54.801,HF_wild_card,2022.2.4,MacIntel,60.0024001,5dd11840d690721b2469a344,64d2fd46c836a06233681665,64dc7ea2e8f6a3b22cc49366,,,,,,,sngl,resources/DB.BMP,resources/Empty.png,WildCard_NonEx,-0.209368761,0.039909329,1,0,0,0.6807,optionLeft,55,9720,5,3,0,3,0,1,,,,,,,,,,,,,,,,,,,,,,,,,,,,,,,,,,,,,,,
,,,,,,,,2023-08-16_08h45.54.801,HF_wild_card,2022.2.4,MacIntel,60.0024001,5dd11840d690721b2469a344,64d2fd46c836a06233681665,64dc7ea2e8f6a3b22cc49366,,,,,,,decisionTrl,resources/DB.BMP,resources/DR.BMP,Door4,0.189094781,0.028484226,1,0,0,1.0987,optionRight,80,9800,5,4,0,4,0,1,,,,,,,,,,,,,,,,,,,,,,,,,,,,,,,,,,,,,,,
,,,,,,,,2023-08-16_08h45.54.801,HF_wild_card,2022.2.4,MacIntel,60.0024001,5dd11840d690721b2469a344,64d2fd46c836a06233681665,64dc7ea2e8f6a3b22cc49366,,,,,,,decisionTrl,resources/DR.BMP,resources/DB.BMP,Door4,-0.314753215,0.052980957,1,0,0,0.932,optionLeft,60,9860,5,5,0,5,0,1,,,,,,,,,,,,,,,,,,,,,,,,,,,,,,,,,,,,,,,
,,,,,,,,2023-08-16_08h45.54.801,HF_wild_card,2022.2.4,MacIntel,60.0024001,5dd11840d690721b2469a344,64d2fd46c836a06233681665,64dc7ea2e8f6a3b22cc49366,,,,,,,sngl,resources/DP.BMP,resources/Empty.png,Door3,-0.163084378,0.01250685,1,0,0,0.7149,optionLeft,70,9930,5,6,0,6,0,1,,,,,,,,,,,,,,,,,,,,,,,,,,,,,,,,,,,,,,,
,,,,,,,,2023-08-16_08h45.54.801,HF_wild_card,2022.2.4,MacIntel,60.0024001,5dd11840d690721b2469a344,64d2fd46c836a06233681665,64dc7ea2e8f6a3b22cc49366,,,,,,,decisionTrl,resources/DP.BMP,resources/DR.BMP,Door3,-0.199120687,0.032039456,1,0,0,1.2993,optionLeft,70,10000,5,7,0,7,0,1,,,,,,,,,,,,,,,,,,,,,,,,,,,,,,,,,,,,,,,
,,,,,,,,2023-08-16_08h45.54.801,HF_wild_card,2022.2.4,MacIntel,60.0024001,5dd11840d690721b2469a344,64d2fd46c836a06233681665,64dc7ea2e8f6a3b22cc49366,,,,,,,decisionTrl,resources/DG.BMP,resources/DY.BMP,Door1,-0.172268134,0.020291341,1,0,0,1.8136,optionLeft,30,10030,5,8,0,8,0,1,,,,,,,,,,,,,,,,,,,,,,,,,,,,,,,,,,,,,,,
,,,,,,,,2023-08-16_08h45.54.801,HF_wild_card,2022.2.4,MacIntel,60.0024001,5dd11840d690721b2469a344,64d2fd46c836a06233681665,64dc7ea2e8f6a3b22cc49366,,,,,,,sngl,resources/DY.BMP,resources/Empty.png,Door2,-0.15369222,0.03147505,1,0,0,0.7982,optionLeft,40,10070,5,9,0,9,0,1,,,,,,,,,,,,,,,,,,,,,,,,,,,,,,,,,,,,,,,
,,,,,,,,2023-08-16_08h45.54.801,HF_wild_card,2022.2.4,MacIntel,60.0024001,5dd11840d690721b2469a344,64d2fd46c836a06233681665,64dc7ea2e8f6a3b22cc49366,,,,,,,decisionTrl,resources/DB.BMP,resources/DG.BMP,WildCard_NonEx,-0.195120714,-0.004401245,1,0,0,1.1669,optionLeft,55,10125,5,10,0,10,0,1,,,,,,,,,,,,,,,,,,,,,,,,,,,,,,,,,,,,,,,
,,,,,,,,2023-08-16_08h45.54.801,HF_wild_card,2022.2.4,MacIntel,60.0024001,5dd11840d690721b2469a344,64d2fd46c836a06233681665,64dc7ea2e8f6a3b22cc49366,,,,,,,decisionTrl,resources/DG.BMP,resources/DY.BMP,Door2,0.212456462,-0.007749464,1,0,0,1.2793,optionRight,40,10165,5,11,0,11,0,1,,,,,,,,,,,,,,,,,,,,,,,,,,,,,,,,,,,,,,,
,,,,,,,,2023-08-16_08h45.54.801,HF_wild_card,2022.2.4,MacIntel,60.0024001,5dd11840d690721b2469a344,64d2fd46c836a06233681665,64dc7ea2e8f6a3b22cc49366,,,,,,,decisionTrl,resources/DY.BMP,resources/DG.BMP,Door2,-0.164807536,0.029481032,1,0,0,0.715,optionLeft,20,10185,5,12,0,12,0,1,,,,,,,,,,,,,,,,,,,,,,,,,,,,,,,,,,,,,,,
,,,,,,,,2023-08-16_08h45.54.801,HF_wild_card,2022.2.4,MacIntel,60.0024001,5dd11840d690721b2469a344,64d2fd46c836a06233681665,64dc7ea2e8f6a3b22cc49366,,,,,,,decisionTrl,resources/DP.BMP,resources/DR.BMP,Door3,-0.195937364,0.007570394,1,0,0,0.7997,optionLeft,70,10255,5,13,0,13,0,1,,,,,,,,,,,,,,,,,,,,,,,,,,,,,,,,,,,,,,,
,,,,,,,,2023-08-16_08h45.54.801,HF_wild_card,2022.2.4,MacIntel,60.0024001,5dd11840d690721b2469a344,64d2fd46c836a06233681665,64dc7ea2e8f6a3b22cc49366,,,,,,,decisionTrl,resources/DR.BMP,resources/DP.BMP,Door3,0.164224379,-0.006788161,1,0,0,1.1975,optionRight,70,10325,5,14,0,14,0,1,,,,,,,,,,,,,,,,,,,,,,,,,,,,,,,,,,,,,,,
,,,,,,,,2023-08-16_08h45.54.801,HF_wild_card,2022.2.4,MacIntel,60.0024001,5dd11840d690721b2469a344,64d2fd46c836a06233681665,64dc7ea2e8f6a3b22cc49366,,,,,,,decisionTrl,resources/DY.BMP,resources/DB.BMP,WildCard_NonEx,0.202948947,0.021293064,1,0,0,1.7638,optionRight,55,10380,5,15,0,15,0,1,,,,,,,,,,,,,,,,,,,,,,,,,,,,,,,,,,,,,,,
,,,,,,,,2023-08-16_08h45.54.801,HF_wild_card,2022.2.4,MacIntel,60.0024001,5dd11840d690721b2469a344,64d2fd46c836a06233681665,64dc7ea2e8f6a3b22cc49366,,,,,,,ctch,resources/DP.BMP,resources/DY.BMP,Door3,-0.173670383,0.027737664,1,0,0,0.9335,optionLeft,70,10450,5,16,0,16,0,1,,,,,,,,,,,,,,,,,,,,,,,,,,,,,,,,,,,,,,,
,,,,,,,,2023-08-16_08h45.54.801,HF_wild_card,2022.2.4,MacIntel,60.0024001,5dd11840d690721b2469a344,64d2fd46c836a06233681665,64dc7ea2e8f6a3b22cc49366,,,,,,,decisionTrl,resources/DG.BMP,resources/DB.BMP,WildCard_NonEx,0.186621229,-0.007222968,1,0,0,1.2492,optionRight,45,10495,5,17,0,17,0,1,,,,,,,,,,,,,,,,,,,,,,,,,,,,,,,,,,,,,,,
,,,,,,,,2023-08-16_08h45.54.801,HF_wild_card,2022.2.4,MacIntel,60.0024001,5dd11840d690721b2469a344,64d2fd46c836a06233681665,64dc7ea2e8f6a3b22cc49366,,,,,,,ctch,resources/DY.BMP,resources/DP.BMP,Door3,0.169749756,-0.009754978,1,0,0,1.4626,optionRight,70,10565,5,18,0,18,0,1,,,,,,,,,,,,,,,,,,,,,,,,,,,,,,,,,,,,,,,
,,,,,,,,2023-08-16_08h45.54.801,HF_wild_card,2022.2.4,MacIntel,60.0024001,5dd11840d690721b2469a344,64d2fd46c836a06233681665,64dc7ea2e8f6a3b22cc49366,,,,,,,ctch,resources/DY.BMP,resources/DP.BMP,Door3,0.210197347,0.019597371,1,0,0,0.7649,optionRight,70,10635,5,19,0,19,0,1,,,,,,,,,,,,,,,,,,,,,,,,,,,,,,,,,,,,,,,
,,,,,,,,2023-08-16_08h45.54.801,HF_wild_card,2022.2.4,MacIntel,60.0024001,5dd11840d690721b2469a344,64d2fd46c836a06233681665,64dc7ea2e8f6a3b22cc49366,,,,,,,decisionTrl,resources/DY.BMP,resources/DG.BMP,Door1,0.11974745,0.043740099,1,0,0,1.9152,optionRight,30,10665,5,20,0,20,0,1,,,,,,,,,,,,,,,,,,,,,,,,,,,,,,,,,,,,,,,
,,,,,,,,2023-08-16_08h45.54.801,HF_wild_card,2022.2.4,MacIntel,60.0024001,5dd11840d690721b2469a344,64d2fd46c836a06233681665,64dc7ea2e8f6a3b22cc49366,,,,,,,decisionTrl,resources/DP.BMP,resources/DR.BMP,Door3,-0.162975057,0.028244832,1,0,0,1.1956,optionLeft,70,10735,5,21,0,21,0,1,,,,,,,,,,,,,,,,,,,,,,,,,,,,,,,,,,,,,,,
,,,,,,,,2023-08-16_08h45.54.801,HF_wild_card,2022.2.4,MacIntel,60.0024001,5dd11840d690721b2469a344,64d2fd46c836a06233681665,64dc7ea2e8f6a3b22cc49366,,,,,,,sngl,resources/Empty.png,resources/DB.BMP,WildCard_NonEx,0.210464274,0.002862345,1,0,0,0.7631,optionRight,45,10780,5,22,0,22,0,1,,,,,,,,,,,,,,,,,,,,,,,,,,,,,,,,,,,,,,,
,,,,,,,,2023-08-16_08h45.54.801,HF_wild_card,2022.2.4,MacIntel,60.0024001,5dd11840d690721b2469a344,64d2fd46c836a06233681665,64dc7ea2e8f6a3b22cc49366,,,,,,,decisionTrl,resources/DR.BMP,resources/DP.BMP,Door4,-0.183995158,0.043671197,1,0,0,1.4657,optionLeft,60,10840,5,23,0,23,0,1,,,,,,,,,,,,,,,,,,,,,,,,,,,,,,,,,,,,,,,
,,,,,,,,2023-08-16_08h45.54.801,HF_wild_card,2022.2.4,MacIntel,60.0024001,5dd11840d690721b2469a344,64d2fd46c836a06233681665,64dc7ea2e8f6a3b22cc49366,,,,,,,sngl,resources/DB.BMP,resources/Empty.png,WildCard_NonEx,-0.1675786,0.034624803,1,0,0,0.7641,optionLeft,45,10885,5,24,0,24,0,1,,,,,,,,,,,,,,,,,,,,,,,,,,,,,,,,,,,,,,,
,,,,,,,,2023-08-16_08h45.54.801,HF_wild_card,2022.2.4,MacIntel,60.0024001,5dd11840d690721b2469a344,64d2fd46c836a06233681665,64dc7ea2e8f6a3b22cc49366,,,,,,,ctch,resources/DR.BMP,resources/DG.BMP,Door4,-0.188120185,0.01831665,1,0,0,1.2309,optionLeft,60,10945,5,25,0,25,0,1,,,,,,,,,,,,,,,,,,,,,,,,,,,,,,,,,,,,,,,
,,,,,,,,2023-08-16_08h45.54.801,HF_wild_card,2022.2.4,MacIntel,60.0024001,5dd11840d690721b2469a344,64d2fd46c836a06233681665,64dc7ea2e8f6a3b22cc49366,,,,,,,decisionTrl,resources/DP.BMP,resources/DR.BMP,Door3,-0.174153917,-0.01848999,1,0,0,0.948,optionLeft,70,11015,5,26,0,26,0,1,,,,,,,,,,,,,,,,,,,,,,,,,,,,,,,,,,,,,,,
,,,,,,,,2023-08-16_08h45.54.801,HF_wild_card,2022.2.4,MacIntel,60.0024001,5dd11840d690721b2469a344,64d2fd46c836a06233681665,64dc7ea2e8f6a3b22cc49366,,,,,,,ctch,resources/DG.BMP,resources/DR.BMP,Door4,0.323487549,-0.031812846,1,0,0,1.1802,optionRight,80,11095,5,27,0,27,0,1,,,,,,,,,,,,,,,,,,,,,,,,,,,,,,,,,,,,,,,
,,,,,,,,2023-08-16_08h45.54.801,HF_wild_card,2022.2.4,MacIntel,60.0024001,5dd11840d690721b2469a344,64d2fd46c836a06233681665,64dc7ea2e8f6a3b22cc49366,,,,,,,decisionTrl,resources/DR.BMP,resources/DP.BMP,Door3,0.221745605,0.007387492,1,0,0,0.9955,optionRight,70,11165,5,28,0,28,0,1,,,,,,,,,,,,,,,,,,,,,,,,,,,,,,,,,,,,,,,
,,,,,,,,2023-08-16_08h45.54.801,HF_wild_card,2022.2.4,MacIntel,60.0024001,5dd11840d690721b2469a344,64d2fd46c836a06233681665,64dc7ea2e8f6a3b22cc49366,,,,,,,sngl,resources/Empty.png,resources/DR.BMP,Door4,0.251108805,-0.010055881,1,0,0,0.7804,optionRight,60,11225,5,29,0,29,0,1,,,,,,,,,,,,,,,,,,,,,,,,,,,,,,,,,,,,,,,
,,,,,,,,2023-08-16_08h45.54.801,HF_wild_card,2022.2.4,MacIntel,60.0024001,5dd11840d690721b2469a344,64d2fd46c836a06233681665,64dc7ea2e8f6a3b22cc49366,,,,,,,ctch,resources/DR.BMP,resources/DG.BMP,Door4,-0.166483765,0.047134332,1,0,0,0.9629,optionLeft,80,11305,5,30,0,30,0,1,,,,,,,,,,,,,,,,,,,,,,,,,,,,,,,,,,,,,,,
,,,,,,,,2023-08-16_08h45.54.801,HF_wild_card,2022.2.4,MacIntel,60.0024001,5dd11840d690721b2469a344,64d2fd46c836a06233681665,64dc7ea2e8f6a3b22cc49366,,,,,,,decisionTrl,resources/DG.BMP,resources/DY.BMP,Door1,-0.169313829,0.035345052,1,0,0,1.0654,optionLeft,30,11335,5,31,0,31,0,1,,,,,,,,,,,,,,,,,,,,,,,,,,,,,,,,,,,,,,,
,,,,,,,,2023-08-16_08h45.54.801,HF_wild_card,2022.2.4,MacIntel,60.0024001,5dd11840d690721b2469a344,64d2fd46c836a06233681665,64dc7ea2e8f6a3b22cc49366,,,,,,,sngl,resources/Empty.png,resources/DP.BMP,Door3,0.241233995,-0.035857442,1,0,0,0.8468,optionRight,70,11405,5,32,0,32,0,1,,,,,,,,,,,,,,,,,,,,,,,,,,,,,,,,,,,,,,,
,,,,,,,,2023-08-16_08h45.54.801,HF_wild_card,2022.2.4,MacIntel,60.0024001,5dd11840d690721b2469a344,64d2fd46c836a06233681665,64dc7ea2e8f6a3b22cc49366,,,,,,,decisionTrl,resources/DB.BMP,resources/DP.BMP,Door3,0.224028592,0.013823378,1,0,0,1.0807,optionRight,70,11475,5,33,0,33,0,1,,,,,,,,,,,,,,,,,,,,,,,,,,,,,,,,,,,,,,,
,,,,,,,,2023-08-16_08h45.54.801,HF_wild_card,2022.2.4,MacIntel,60.0024001,5dd11840d690721b2469a344,64d2fd46c836a06233681665,64dc7ea2e8f6a3b22cc49366,,,,,,,ctch,resources/DP.BMP,resources/DY.BMP,Door3,-0.160759413,0.014270155,1,0,0,0.8516,optionLeft,70,11545,5,34,0,34,0,1,,,,,,,,,,,,,,,,,,,,,,,,,,,,,,,,,,,,,,,
,,,,,,,,2023-08-16_08h45.54.801,HF_wild_card,2022.2.4,MacIntel,60.0024001,5dd11840d690721b2469a344,64d2fd46c836a06233681665,64dc7ea2e8f6a3b22cc49366,,,,,,,sngl,resources/DR.BMP,resources/Empty.png,Door4,-0.15961046,0.009805162,1,0,0,0.9167,optionLeft,80,11625,5,35,0,35,0,1,,,,,,,,,,,,,,,,,,,,,,,,,,,,,,,,,,,,,,,
,,,,,,,,2023-08-16_08h45.54.801,HF_wild_card,2022.2.4,MacIntel,60.0024001,5dd11840d690721b2469a344,64d2fd46c836a06233681665,64dc7ea2e8f6a3b22cc49366,,,,,,,decisionTrl,resources/DP.BMP,resources/DB.BMP,Door3,-0.158384196,-0.000304294,1,0,0,1.0149,optionLeft,70,11695,5,36,0,36,0,1,,,,,,,,,,,,,,,,,,,,,,,,,,,,,,,,,,,,,,,
,,,,,,,,2023-08-16_08h45.54.801,HF_wild_card,2022.2.4,MacIntel,60.0024001,5dd11840d690721b2469a344,64d2fd46c836a06233681665,64dc7ea2e8f6a3b22cc49366,,,,,,,decisionTrl,resources/DR.BMP,resources/DP.BMP,Door4,-0.196273193,0.006163025,1,0,0,1.1812,optionLeft,80,11775,5,37,0,37,0,1,,,,,,,,,,,,,,,,,,,,,,,,,,,,,,,,,,,,,,,
,,,,,,,,2023-08-16_08h45.54.801,HF_wild_card,2022.2.4,MacIntel,60.0024001,5dd11840d690721b2469a344,64d2fd46c836a06233681665,64dc7ea2e8f6a3b22cc49366,,,,,,,decisionTrl,resources/DB.BMP,resources/DY.BMP,WildCard_NonEx,-0.128559163,0.01515981,1,0,0,1.0135,optionLeft,55,11830,5,38,0,38,0,1,,,,,,,,,,,,,,,,,,,,,,,,,,,,,,,,,,,,,,,
,,,,,,,,2023-08-16_08h45.54.801,HF_wild_card,2022.2.4,MacIntel,60.0024001,5dd11840d690721b2469a344,64d2fd46c836a06233681665,64dc7ea2e8f6a3b22cc49366,,,,,,,decisionTrl,resources/DG.BMP,resources/DY.BMP,Door1,-0.179967516,0.01253123,1,0,0,1.282,optionLeft,30,11860,5,39,0,39,0,1,,,,,,,,,,,,,,,,,,,,,,,,,,,,,,,,,,,,,,,
,,,,,,,,2023-08-16_08h45.54.801,HF_wild_card,2022.2.4,MacIntel,60.0024001,5dd11840d690721b2469a344,64d2fd46c836a06233681665,64dc7ea2e8f6a3b22cc49366,,,,,,,sngl,resources/Empty.png,resources/DB.BMP,WildCard_NonEx,0.277747599,0.009348348,1,0,0,0.8483,optionRight,55,11915,5,40,0,40,0,1,,,,,,,,,,,,,,,,,,,,,,,,,,,,,,,,,,,,,,,
,,,,,,,,2023-08-16_08h45.54.801,HF_wild_card,2022.2.4,MacIntel,60.0024001,5dd11840d690721b2469a344,64d2fd46c836a06233681665,64dc7ea2e8f6a3b22cc49366,,,,,,,sngl,resources/DG.BMP,resources/Empty.png,Door1,-0.180638631,0.034838664,1,0,0,0.7146,optionLeft,30,11945,5,41,0,41,0,1,,,,,,,,,,,,,,,,,,,,,,,,,,,,,,,,,,,,,,,
,,,,,,,,2023-08-16_08h45.54.801,HF_wild_card,2022.2.4,MacIntel,60.0024001,5dd11840d690721b2469a344,64d2fd46c836a06233681665,64dc7ea2e8f6a3b22cc49366,,,,,,,sngl,resources/Empty.png,resources/DY.BMP,Door2,0.181524251,0.013218791,1,0,0,1.1981,optionRight,20,11965,5,42,0,42,0,1,,,,,,,,,,,,,,,,,,,,,,,,,,,,,,,,,,,,,,,
,,,,,,,,2023-08-16_08h45.54.801,HF_wild_card,2022.2.4,MacIntel,60.0024001,5dd11840d690721b2469a344,64d2fd46c836a06233681665,64dc7ea2e8f6a3b22cc49366,,,,,,,ctch,resources/DG.BMP,resources/DR.BMP,Door4,0.189011637,0.020097046,1,0,0,1.3121,optionRight,80,12045,5,43,0,43,0,1,,,,,,,,,,,,,,,,,,,,,,,,,,,,,,,,,,,,,,,
,,,,,,,,2023-08-16_08h45.54.801,HF_wild_card,2022.2.4,MacIntel,60.0024001,5dd11840d690721b2469a344,64d2fd46c836a06233681665,64dc7ea2e8f6a3b22cc49366,,,,,,,,,,,,,,,,,,,,,,,,,,4,0,4,0,1,,,,,,,,,,,,,,,,,,,,,,,,,,,,,,,,,,
,,,,,,,,2023-08-16_08h45.54.801,HF_wild_card,2022.2.4,MacIntel,60.0024001,5dd11840d690721b2469a344,64d2fd46c836a06233681665,64dc7ea2e8f6a3b22cc49366,,,,,,,decisionTrl,resources/DG.BMP,resources/DY.BMP,Door1,-0.235446235,-0.059575195,1,0,0,1.9897,optionLeft,30,12075,6,0,0,0,0,1,,,,,,,,,,,,,,,,,,,,,,,,,,,,,,,,,,,,,,,
,,,,,,,,2023-08-16_08h45.54.801,HF_wild_card,2022.2.4,MacIntel,60.0024001,5dd11840d690721b2469a344,64d2fd46c836a06233681665,64dc7ea2e8f6a3b22cc49366,,,,,,,decisionTrl,resources/DB.BMP,resources/DR.BMP,Door4,0.255656467,0.018974609,1,0,0,1.7656,optionRight,60,12135,6,1,0,1,0,1,,,,,,,,,,,,,,,,,,,,,,,,,,,,,,,,,,,,,,,
,,,,,,,,2023-08-16_08h45.54.801,HF_wild_card,2022.2.4,MacIntel,60.0024001,5dd11840d690721b2469a344,64d2fd46c836a06233681665,64dc7ea2e8f6a3b22cc49366,,,,,,,sngl,resources/Empty.png,resources/DB.BMP,WildCard_NonEx,0.167386407,-0.011827393,1,0,0,0.7638,optionRight,45,12180,6,2,0,2,0,1,,,,,,,,,,,,,,,,,,,,,,,,,,,,,,,,,,,,,,,
,,,,,,,,2023-08-16_08h45.54.801,HF_wild_card,2022.2.4,MacIntel,60.0024001,5dd11840d690721b2469a344,64d2fd46c836a06233681665,64dc7ea2e8f6a3b22cc49366,,,,,,,ctch,resources/DP.BMP,resources/DY.BMP,Door3,-0.165777995,0.035924954,1,0,0,0.8817,optionLeft,70,12250,6,3,0,3,0,1,,,,,,,,,,,,,,,,,,,,,,,,,,,,,,,,,,,,,,,
,,,,,,,,2023-08-16_08h45.54.801,HF_wild_card,2022.2.4,MacIntel,60.0024001,5dd11840d690721b2469a344,64d2fd46c836a06233681665,64dc7ea2e8f6a3b22cc49366,,,,,,,sngl,resources/DB.BMP,resources/Empty.png,WildCard_NonEx,-0.173658244,0.025168796,1,0,0,0.6805,optionLeft,45,12295,6,4,0,4,0,1,,,,,,,,,,,,,,,,,,,,,,,,,,,,,,,,,,,,,,,
,,,,,,,,2023-08-16_08h45.54.801,HF_wild_card,2022.2.4,MacIntel,60.0024001,5dd11840d690721b2469a344,64d2fd46c836a06233681665,64dc7ea2e8f6a3b22cc49366,,,,,,,decisionTrl,resources/DR.BMP,resources/DP.BMP,Door4,-0.121200765,0.038523899,1,0,0,1.8475,optionLeft,80,12375,6,5,0,5,0,1,,,,,,,,,,,,,,,,,,,,,,,,,,,,,,,,,,,,,,,
,,,,,,,,2023-08-16_08h45.54.801,HF_wild_card,2022.2.4,MacIntel,60.0024001,5dd11840d690721b2469a344,64d2fd46c836a06233681665,64dc7ea2e8f6a3b22cc49366,,,,,,,decisionTrl,resources/DR.BMP,resources/DP.BMP,Door3,0.182230225,0.025837504,1,0,0,0.8994,optionRight,70,12445,6,6,0,6,0,1,,,,,,,,,,,,,,,,,,,,,,,,,,,,,,,,,,,,,,,
,,,,,,,,2023-08-16_08h45.54.801,HF_wild_card,2022.2.4,MacIntel,60.0024001,5dd11840d690721b2469a344,64d2fd46c836a06233681665,64dc7ea2e8f6a3b22cc49366,,,,,,,sngl,resources/Empty.png,resources/DR.BMP,Door4,0.15818217,0.046189304,1,0,0,0.7301,optionRight,80,12525,6,7,0,7,0,1,,,,,,,,,,,,,,,,,,,,,,,,,,,,,,,,,,,,,,,
,,,,,,,,2023-08-16_08h45.54.801,HF_wild_card,2022.2.4,MacIntel,60.0024001,5dd11840d690721b2469a344,64d2fd46c836a06233681665,64dc7ea2e8f6a3b22cc49366,,,,,,,decisionTrl,resources/DP.BMP,resources/DR.BMP,Door3,-0.179775052,0.040251668,1,0,0,0.7815,optionLeft,70,12595,6,8,0,8,0,1,,,,,,,,,,,,,,,,,,,,,,,,,,,,,,,,,,,,,,,
,,,,,,,,2023-08-16_08h45.54.801,HF_wild_card,2022.2.4,MacIntel,60.0024001,5dd11840d690721b2469a344,64d2fd46c836a06233681665,64dc7ea2e8f6a3b22cc49366,,,,,,,decisionTrl,resources/DG.BMP,resources/DY.BMP,Door1,-0.201519097,0.029193556,1,0,0,0.9645,optionLeft,30,12625,6,9,0,9,0,1,,,,,,,,,,,,,,,,,,,,,,,,,,,,,,,,,,,,,,,
,,,,,,,,2023-08-16_08h45.54.801,HF_wild_card,2022.2.4,MacIntel,60.0024001,5dd11840d690721b2469a344,64d2fd46c836a06233681665,64dc7ea2e8f6a3b22cc49366,,,,,,,sngl,resources/Empty.png,resources/DP.BMP,Door3,0.21259257,0.034025099,1,0,0,0.7778,optionRight,70,12695,6,10,0,10,0,1,,,,,,,,,,,,,,,,,,,,,,,,,,,,,,,,,,,,,,,
,,,,,,,,2023-08-16_08h45.54.801,HF_wild_card,2022.2.4,MacIntel,60.0024001,5dd11840d690721b2469a344,64d2fd46c836a06233681665,64dc7ea2e8f6a3b22cc49366,,,,,,,decisionTrl,resources/DY.BMP,resources/DG.BMP,Door1,0.240140584,0.050841132,1,0,0,1.081,optionRight,30,12725,6,11,0,11,0,1,,,,,,,,,,,,,,,,,,,,,,,,,,,,,,,,,,,,,,,
,,,,,,,,2023-08-16_08h45.54.801,HF_wild_card,2022.2.4,MacIntel,60.0024001,5dd11840d690721b2469a344,64d2fd46c836a06233681665,64dc7ea2e8f6a3b22cc49366,,,,,,,decisionTrl,resources/DY.BMP,resources/DG.BMP,Door2,-0.117128092,0.049703369,1,0,0,0.8481,optionLeft,20,12745,6,12,0,12,0,1,,,,,,,,,,,,,,,,,,,,,,,,,,,,,,,,,,,,,,,
,,,,,,,,2023-08-16_08h45.54.801,HF_wild_card,2022.2.4,MacIntel,60.0024001,5dd11840d690721b2469a344,64d2fd46c836a06233681665,64dc7ea2e8f6a3b22cc49366,,,,,,,sngl,resources/Empty.png,resources/DY.BMP,Door2,0.162419434,0.017868517,1,0,0,0.7782,optionRight,40,12785,6,13,0,13,0,1,,,,,,,,,,,,,,,,,,,,,,,,,,,,,,,,,,,,,,,
,,,,,,,,2023-08-16_08h45.54.801,HF_wild_card,2022.2.4,MacIntel,60.0024001,5dd11840d690721b2469a344,64d2fd46c836a06233681665,64dc7ea2e8f6a3b22cc49366,,,,,,,decisionTrl,resources/DB.BMP,resources/DP.BMP,Door3,0.226784397,0.016470303,1,0,0,1.6139,optionRight,70,12855,6,14,0,14,0,1,,,,,,,,,,,,,,,,,,,,,,,,,,,,,,,,,,,,,,,
,,,,,,,,2023-08-16_08h45.54.801,HF_wild_card,2022.2.4,MacIntel,60.0024001,5dd11840d690721b2469a344,64d2fd46c836a06233681665,64dc7ea2e8f6a3b22cc49366,,,,,,,sngl,resources/DY.BMP,resources/Empty.png,Door2,-0.190019938,0.03879876,1,0,0,0.7061,optionLeft,20,12875,6,15,0,15,0,1,,,,,,,,,,,,,,,,,,,,,,,,,,,,,,,,,,,,,,,
,,,,,,,,2023-08-16_08h45.54.801,HF_wild_card,2022.2.4,MacIntel,60.0024001,5dd11840d690721b2469a344,64d2fd46c836a06233681665,64dc7ea2e8f6a3b22cc49366,,,,,,,decisionTrl,resources/DY.BMP,resources/DB.BMP,WildCard_NonEx,0.206469523,0.035374146,1,0,0,1.1135,optionRight,55,12930,6,16,0,16,0,1,,,,,,,,,,,,,,,,,,,,,,,,,,,,,,,,,,,,,,,
,,,,,,,,2023-08-16_08h45.54.801,HF_wild_card,2022.2.4,MacIntel,60.0024001,5dd11840d690721b2469a344,64d2fd46c836a06233681665,64dc7ea2e8f6a3b22cc49366,,,,,,,ctch,resources/DG.BMP,resources/DR.BMP,Door4,0.16785319,0.015084568,1,0,0,1.0643,optionRight,60,12990,6,17,0,17,0,1,,,,,,,,,,,,,,,,,,,,,,,,,,,,,,,,,,,,,,,
,,,,,,,,2023-08-16_08h45.54.801,HF_wild_card,2022.2.4,MacIntel,60.0024001,5dd11840d690721b2469a344,64d2fd46c836a06233681665,64dc7ea2e8f6a3b22cc49366,,,,,,,decisionTrl,resources/DY.BMP,resources/DG.BMP,Door1,0.197294379,0.035380927,1,0,0,1.1165,optionRight,30,13020,6,18,0,18,0,1,,,,,,,,,,,,,,,,,,,,,,,,,,,,,,,,,,,,,,,
,,,,,,,,2023-08-16_08h45.54.801,HF_wild_card,2022.2.4,MacIntel,60.0024001,5dd11840d690721b2469a344,64d2fd46c836a06233681665,64dc7ea2e8f6a3b22cc49366,,,,,,,decisionTrl,resources/DR.BMP,resources/DP.BMP,Door3,0.213726332,0.008850776,1,0,0,0.897,optionRight,70,13090,6,19,0,19,0,1,,,,,,,,,,,,,,,,,,,,,,,,,,,,,,,,,,,,,,,
,,,,,,,,2023-08-16_08h45.54.801,HF_wild_card,2022.2.4,MacIntel,60.0024001,5dd11840d690721b2469a344,64d2fd46c836a06233681665,64dc7ea2e8f6a3b22cc49366,,,,,,,sngl,resources/Empty.png,resources/DB.BMP,WildCard_NonEx,0.166723226,0.009172024,1,0,0,0.748,optionRight,55,13145,6,20,0,20,0,1,,,,,,,,,,,,,,,,,,,,,,,,,,,,,,,,,,,,,,,
,,,,,,,,2023-08-16_08h45.54.801,HF_wild_card,2022.2.4,MacIntel,60.0024001,5dd11840d690721b2469a344,64d2fd46c836a06233681665,64dc7ea2e8f6a3b22cc49366,,,,,,,sngl,resources/DR.BMP,resources/Empty.png,Door4,-0.185101861,0.03140313,1,0,0,0.6503,optionLeft,60,13205,6,21,0,21,0,1,,,,,,,,,,,,,,,,,,,,,,,,,,,,,,,,,,,,,,,
,,,,,,,,2023-08-16_08h45.54.801,HF_wild_card,2022.2.4,MacIntel,60.0024001,5dd11840d690721b2469a344,64d2fd46c836a06233681665,64dc7ea2e8f6a3b22cc49366,,,,,,,decisionTrl,resources/DP.BMP,resources/DB.BMP,Door3,-0.19615465,0.005463935,1,0,0,1.5633,optionLeft,70,13275,6,22,0,22,0,1,,,,,,,,,,,,,,,,,,,,,,,,,,,,,,,,,,,,,,,
,,,,,,,,2023-08-16_08h45.54.801,HF_wild_card,2022.2.4,MacIntel,60.0024001,5dd11840d690721b2469a344,64d2fd46c836a06233681665,64dc7ea2e8f6a3b22cc49366,,,,,,,ctch,resources/DG.BMP,resources/DR.BMP,Door4,0.22293179,0.020307075,1,0,0,1.7967,optionRight,60,13335,6,23,0,23,0,1,,,,,,,,,,,,,,,,,,,,,,,,,,,,,,,,,,,,,,,
,,,,,,,,2023-08-16_08h45.54.801,HF_wild_card,2022.2.4,MacIntel,60.0024001,5dd11840d690721b2469a344,64d2fd46c836a06233681665,64dc7ea2e8f6a3b22cc49366,,,,,,,decisionTrl,resources/DR.BMP,resources/DP.BMP,Door3,0.127252875,0.007907986,1,0,0,1.0146,optionRight,70,13405,6,24,0,24,0,1,,,,,,,,,,,,,,,,,,,,,,,,,,,,,,,,,,,,,,,
,,,,,,,,2023-08-16_08h45.54.801,HF_wild_card,2022.2.4,MacIntel,60.0024001,5dd11840d690721b2469a344,64d2fd46c836a06233681665,64dc7ea2e8f6a3b22cc49366,,,,,,,decisionTrl,resources/DB.BMP,resources/DG.BMP,WildCard_NonEx,-0.219437866,0.039396091,1,0,0,1.3148,optionLeft,55,13460,6,25,0,25,0,1,,,,,,,,,,,,,,,,,,,,,,,,,,,,,,,,,,,,,,,
,,,,,,,,2023-08-16_08h45.54.801,HF_wild_card,2022.2.4,MacIntel,60.0024001,5dd11840d690721b2469a344,64d2fd46c836a06233681665,64dc7ea2e8f6a3b22cc49366,,,,,,,decisionTrl,resources/DY.BMP,resources/DG.BMP,Door1,0.192915175,0.034849514,1,0,0,1.0997,optionRight,30,13490,6,26,0,26,0,1,,,,,,,,,,,,,,,,,,,,,,,,,,,,,,,,,,,,,,,
,,,,,,,,2023-08-16_08h45.54.801,HF_wild_card,2022.2.4,MacIntel,60.0024001,5dd11840d690721b2469a344,64d2fd46c836a06233681665,64dc7ea2e8f6a3b22cc49366,,,,,,,ctch,resources/DY.BMP,resources/DP.BMP,Door3,0.23110989,-0.000323792,1,0,0,1.0669,optionRight,70,13560,6,27,0,27,0,1,,,,,,,,,,,,,,,,,,,,,,,,,,,,,,,,,,,,,,,
,,,,,,,,2023-08-16_08h45.54.801,HF_wild_card,2022.2.4,MacIntel,60.0024001,5dd11840d690721b2469a344,64d2fd46c836a06233681665,64dc7ea2e8f6a3b22cc49366,,,,,,,decisionTrl,resources/DP.BMP,resources/DR.BMP,Door4,0.192770454,-0.003879055,1,0,0,1.2304,optionRight,60,13620,6,28,0,28,0,1,,,,,,,,,,,,,,,,,,,,,,,,,,,,,,,,,,,,,,,
,,,,,,,,2023-08-16_08h45.54.801,HF_wild_card,2022.2.4,MacIntel,60.0024001,5dd11840d690721b2469a344,64d2fd46c836a06233681665,64dc7ea2e8f6a3b22cc49366,,,,,,,ctch,resources/DP.BMP,resources/DY.BMP,Door3,-0.250092841,0.001330227,1,0,0,0.9465,optionLeft,70,13690,6,29,0,29,0,1,,,,,,,,,,,,,,,,,,,,,,,,,,,,,,,,,,,,,,,
,,,,,,,,2023-08-16_08h45.54.801,HF_wild_card,2022.2.4,MacIntel,60.0024001,5dd11840d690721b2469a344,64d2fd46c836a06233681665,64dc7ea2e8f6a3b22cc49366,,,,,,,decisionTrl,resources/DG.BMP,resources/DB.BMP,WildCard_NonEx,0.283781399,-0.028912557,1,0,0,0.9819,optionRight,55,13745,6,30,0,30,0,1,,,,,,,,,,,,,,,,,,,,,,,,,,,,,,,,,,,,,,,
,,,,,,,,2023-08-16_08h45.54.801,HF_wild_card,2022.2.4,MacIntel,60.0024001,5dd11840d690721b2469a344,64d2fd46c836a06233681665,64dc7ea2e8f6a3b22cc49366,,,,,,,ctch,resources/DR.BMP,resources/DG.BMP,Door4,-0.195937432,0.002680088,1,0,0,0.9634,optionLeft,80,13825,6,31,0,31,0,1,,,,,,,,,,,,,,,,,,,,,,,,,,,,,,,,,,,,,,,
,,,,,,,,2023-08-16_08h45.54.801,HF_wild_card,2022.2.4,MacIntel,60.0024001,5dd11840d690721b2469a344,64d2fd46c836a06233681665,64dc7ea2e8f6a3b22cc49366,,,,,,,decisionTrl,resources/DP.BMP,resources/DR.BMP,Door3,-0.180037638,0.009479268,1,0,0,0.9467,optionLeft,70,13895,6,32,0,32,0,1,,,,,,,,,,,,,,,,,,,,,,,,,,,,,,,,,,,,,,,
,,,,,,,,2023-08-16_08h45.54.801,HF_wild_card,2022.2.4,MacIntel,60.0024001,5dd11840d690721b2469a344,64d2fd46c836a06233681665,64dc7ea2e8f6a3b22cc49366,,,,,,,ctch,resources/DR.BMP,resources/DG.BMP,Door4,-0.195401815,0.012360433,1,0,0,0.798,optionLeft,60,13955,6,33,0,33,0,1,,,,,,,,,,,,,,,,,,,,,,,,,,,,,,,,,,,,,,,
,,,,,,,,2023-08-16_08h45.54.801,HF_wild_card,2022.2.4,MacIntel,60.0024001,5dd11840d690721b2469a344,64d2fd46c836a06233681665,64dc7ea2e8f6a3b22cc49366,,,,,,,sngl,resources/DG.BMP,resources/Empty.png,Door1,-0.164896783,-0.008943007,1,0,0,0.6797,optionLeft,30,13985,6,34,0,34,0,1,,,,,,,,,,,,,,,,,,,,,,,,,,,,,,,,,,,,,,,
,,,,,,,,2023-08-16_08h45.54.801,HF_wild_card,2022.2.4,MacIntel,60.0024001,5dd11840d690721b2469a344,64d2fd46c836a06233681665,64dc7ea2e8f6a3b22cc49366,,,,,,,ctch,resources/DY.BMP,resources/DP.BMP,Door3,0.218081258,-0.039056871,1,0,0,0.8982,optionRight,70,14055,6,35,0,35,0,1,,,,,,,,,,,,,,,,,,,,,,,,,,,,,,,,,,,,,,,
,,,,,,,,2023-08-16_08h45.54.801,HF_wild_card,2022.2.4,MacIntel,60.0024001,5dd11840d690721b2469a344,64d2fd46c836a06233681665,64dc7ea2e8f6a3b22cc49366,,,,,,,decisionTrl,resources/DR.BMP,resources/DB.BMP,Door4,-0.171396484,-0.010634698,1,0,0,1.4327,optionLeft,60,14115,6,36,0,36,0,1,,,,,,,,,,,,,,,,,,,,,,,,,,,,,,,,,,,,,,,
,,,,,,,,2023-08-16_08h45.54.801,HF_wild_card,2022.2.4,MacIntel,60.0024001,5dd11840d690721b2469a344,64d2fd46c836a06233681665,64dc7ea2e8f6a3b22cc49366,,,,,,,sngl,resources/DB.BMP,resources/Empty.png,WildCard_NonEx,-0.163852336,0.011632826,1,0,0,0.714,optionLeft,55,14170,6,37,0,37,0,1,,,,,,,,,,,,,,,,,,,,,,,,,,,,,,,,,,,,,,,
,,,,,,,,2023-08-16_08h45.54.801,HF_wild_card,2022.2.4,MacIntel,60.0024001,5dd11840d690721b2469a344,64d2fd46c836a06233681665,64dc7ea2e8f6a3b22cc49366,,,,,,,sngl,resources/DP.BMP,resources/Empty.png,Door3,-0.16885749,-0.008208991,1,0,0,0.6507,optionLeft,70,14240,6,38,0,38,0,1,,,,,,,,,,,,,,,,,,,,,,,,,,,,,,,,,,,,,,,
,,,,,,,,2023-08-16_08h45.54.801,HF_wild_card,2022.2.4,MacIntel,60.0024001,5dd11840d690721b2469a344,64d2fd46c836a06233681665,64dc7ea2e8f6a3b22cc49366,,,,,,,decisionTrl,resources/DG.BMP,resources/DY.BMP,Door1,-0.128453301,-0.043935716,1,0,0,2.4852,optionLeft,30,14270,6,39,0,39,0,1,,,,,,,,,,,,,,,,,,,,,,,,,,,,,,,,,,,,,,,
,,,,,,,,2023-08-16_08h45.54.801,HF_wild_card,2022.2.4,MacIntel,60.0024001,5dd11840d690721b2469a344,64d2fd46c836a06233681665,64dc7ea2e8f6a3b22cc49366,,,,,,,decisionTrl,resources/DB.BMP,resources/DY.BMP,WildCard_NonEx,-0.175091281,-0.012794698,1,0,0,0.8652,optionLeft,45,14315,6,40,0,40,0,1,,,,,,,,,,,,,,,,,,,,,,,,,,,,,,,,,,,,,,,
,,,,,,,,2023-08-16_08h45.54.801,HF_wild_card,2022.2.4,MacIntel,60.0024001,5dd11840d690721b2469a344,64d2fd46c836a06233681665,64dc7ea2e8f6a3b22cc49366,,,,,,,decisionTrl,resources/DG.BMP,resources/DY.BMP,Door2,0.210840793,-0.01859063,1,0,0,2.197,optionRight,40,14355,6,41,0,41,0,1,,,,,,,,,,,,,,,,,,,,,,,,,,,,,,,,,,,,,,,
,,,,,,,,2023-08-16_08h45.54.801,HF_wild_card,2022.2.4,MacIntel,60.0024001,5dd11840d690721b2469a344,64d2fd46c836a06233681665,64dc7ea2e8f6a3b22cc49366,,,,,,,sngl,resources/Empty.png,resources/DG.BMP,Door1,0.176828139,-0.015363363,1,0,0,0.7133,optionRight,30,14385,6,42,0,42,0,1,,,,,,,,,,,,,,,,,,,,,,,,,,,,,,,,,,,,,,,
,,,,,,,,2023-08-16_08h45.54.801,HF_wild_card,2022.2.4,MacIntel,60.0024001,5dd11840d690721b2469a344,64d2fd46c836a06233681665,64dc7ea2e8f6a3b22cc49366,,,,,,,decisionTrl,resources/DP.BMP,resources/DR.BMP,Door3,-0.138420749,-0.013819817,1,0,0,0.9979,optionLeft,70,14455,6,43,0,43,0,1,,,,,,,,,,,,,,,,,,,,,,,,,,,,,,,,,,,,,,,
,,,,,,,,2023-08-16_08h45.54.801,HF_wild_card,2022.2.4,MacIntel,60.0024001,5dd11840d690721b2469a344,64d2fd46c836a06233681665,64dc7ea2e8f6a3b22cc49366,,,,,,,,,,,,,,,,,,,,,,,,,,5,0,5,0,1,,,,,,,,,,,,,,,,,,,,,,,,,,,,,,,,,,
,,,,,,,,2023-08-16_08h45.54.801,HF_wild_card,2022.2.4,MacIntel,60.0024001,5dd11840d690721b2469a344,64d2fd46c836a06233681665,64dc7ea2e8f6a3b22cc49366,,,,,,,ctch,resources/DP.BMP,resources/DY.BMP,Door3,-0.216742554,0.00606859,1,0,0,0.8483,optionLeft,70,14525,7,0,0,0,0,1,,,,,,,,,,,,,,,,,,,,,,,,,,,,,,,,,,,,,,,
,,,,,,,,2023-08-16_08h45.54.801,HF_wild_card,2022.2.4,MacIntel,60.0024001,5dd11840d690721b2469a344,64d2fd46c836a06233681665,64dc7ea2e8f6a3b22cc49366,,,,,,,decisionTrl,resources/DG.BMP,resources/DY.BMP,Door1,-0.19102356,-0.01169888,1,0,0,1.3153,optionLeft,30,14555,7,1,0,1,0,1,,,,,,,,,,,,,,,,,,,,,,,,,,,,,,,,,,,,,,,
,,,,,,,,2023-08-16_08h45.54.801,HF_wild_card,2022.2.4,MacIntel,60.0024001,5dd11840d690721b2469a344,64d2fd46c836a06233681665,64dc7ea2e8f6a3b22cc49366,,,,,,,ctch,resources/DG.BMP,resources/DR.BMP,Door4,0.268802762,-0.012172004,1,0,0,0.8659,optionRight,60,14615,7,2,0,2,0,1,,,,,,,,,,,,,,,,,,,,,,,,,,,,,,,,,,,,,,,
,,,,,,,,2023-08-16_08h45.54.801,HF_wild_card,2022.2.4,MacIntel,60.0024001,5dd11840d690721b2469a344,64d2fd46c836a06233681665,64dc7ea2e8f6a3b22cc49366,,,,,,,decisionTrl,resources/DP.BMP,resources/DR.BMP,Door3,-0.195269097,0.005847304,1,0,0,0.7359,optionLeft,70,14685,7,3,0,3,0,1,,,,,,,,,,,,,,,,,,,,,,,,,,,,,,,,,,,,,,,
,,,,,,,,2023-08-16_08h45.54.801,HF_wild_card,2022.2.4,MacIntel,60.0024001,5dd11840d690721b2469a344,64d2fd46c836a06233681665,64dc7ea2e8f6a3b22cc49366,,,,,,,decisionTrl,resources/DP.BMP,resources/DR.BMP,Door3,-0.187435506,-0.008548041,1,0,0,0.7181,optionLeft,70,14755,7,4,0,4,0,1,,,,,,,,,,,,,,,,,,,,,,,,,,,,,,,,,,,,,,,
,,,,,,,,2023-08-16_08h45.54.801,HF_wild_card,2022.2.4,MacIntel,60.0024001,5dd11840d690721b2469a344,64d2fd46c836a06233681665,64dc7ea2e8f6a3b22cc49366,,,,,,,decisionTrl,resources/DR.BMP,resources/DP.BMP,Door3,0.246229858,-0.031797994,1,0,0,0.9312,optionRight,70,14825,7,5,0,5,0,1,,,,,,,,,,,,,,,,,,,,,,,,,,,,,,,,,,,,,,,
,,,,,,,,2023-08-16_08h45.54.801,HF_wild_card,2022.2.4,MacIntel,60.0024001,5dd11840d690721b2469a344,64d2fd46c836a06233681665,64dc7ea2e8f6a3b22cc49366,,,,,,,decisionTrl,resources/DY.BMP,resources/DG.BMP,Door1,0.199016927,-0.013143582,1,0,0,1.2315,optionRight,30,14855,7,6,0,6,0,1,,,,,,,,,,,,,,,,,,,,,,,,,,,,,,,,,,,,,,,
,,,,,,,,2023-08-16_08h45.54.801,HF_wild_card,2022.2.4,MacIntel,60.0024001,5dd11840d690721b2469a344,64d2fd46c836a06233681665,64dc7ea2e8f6a3b22cc49366,,,,,,,decisionTrl,resources/DP.BMP,resources/DR.BMP,Door3,-0.248765225,-0.002889642,1,0,0,0.7825,optionLeft,70,14925,7,7,0,7,0,1,,,,,,,,,,,,,,,,,,,,,,,,,,,,,,,,,,,,,,,
,,,,,,,,2023-08-16_08h45.54.801,HF_wild_card,2022.2.4,MacIntel,60.0024001,5dd11840d690721b2469a344,64d2fd46c836a06233681665,64dc7ea2e8f6a3b22cc49366,,,,,,,decisionTrl,resources/DG.BMP,resources/DY.BMP,Door1,-0.202319336,-0.027569377,1,0,0,1.1655,optionLeft,30,14955,7,8,0,8,0,1,,,,,,,,,,,,,,,,,,,,,,,,,,,,,,,,,,,,,,,
,,,,,,,,2023-08-16_08h45.54.801,HF_wild_card,2022.2.4,MacIntel,60.0024001,5dd11840d690721b2469a344,64d2fd46c836a06233681665,64dc7ea2e8f6a3b22cc49366,,,,,,,decisionTrl,resources/DG.BMP,resources/DY.BMP,Door2,0.191399536,-0.031578437,1,0,0,1.3984,optionRight,20,14975,7,9,0,9,0,1,,,,,,,,,,,,,,,,,,,,,,,,,,,,,,,,,,,,,,,
,,,,,,,,2023-08-16_08h45.54.801,HF_wild_card,2022.2.4,MacIntel,60.0024001,5dd11840d690721b2469a344,64d2fd46c836a06233681665,64dc7ea2e8f6a3b22cc49366,,,,,,,decisionTrl,resources/DG.BMP,resources/DY.BMP,Door1,-0.199450548,-0.014424167,1,0,0,0.6826,optionLeft,30,15005,7,10,0,10,0,1,,,,,,,,,,,,,,,,,,,,,,,,,,,,,,,,,,,,,,,
,,,,,,,,2023-08-16_08h45.54.801,HF_wild_card,2022.2.4,MacIntel,60.0024001,5dd11840d690721b2469a344,64d2fd46c836a06233681665,64dc7ea2e8f6a3b22cc49366,,,,,,,ctch,resources/DR.BMP,resources/DG.BMP,Door4,-0.242831557,-0.003865424,1,0,0,1.2816,optionLeft,60,15065,7,11,0,11,0,1,,,,,,,,,,,,,,,,,,,,,,,,,,,,,,,,,,,,,,,
,,,,,,,,2023-08-16_08h45.54.801,HF_wild_card,2022.2.4,MacIntel,60.0024001,5dd11840d690721b2469a344,64d2fd46c836a06233681665,64dc7ea2e8f6a3b22cc49366,,,,,,,decisionTrl,resources/DR.BMP,resources/DP.BMP,Door3,0.269670546,-0.071447144,1,0,0,0.9355,optionRight,70,15135,7,12,0,12,0,1,,,,,,,,,,,,,,,,,,,,,,,,,,,,,,,,,,,,,,,
,,,,,,,,2023-08-16_08h45.54.801,HF_wild_card,2022.2.4,MacIntel,60.0024001,5dd11840d690721b2469a344,64d2fd46c836a06233681665,64dc7ea2e8f6a3b22cc49366,,,,,,,decisionTrl,resources/DR.BMP,resources/DP.BMP,Door3,0.264637994,-0.046566433,1,0,0,0.8496,optionRight,70,15205,7,13,0,13,0,1,,,,,,,,,,,,,,,,,,,,,,,,,,,,,,,,,,,,,,,
,,,,,,,,2023-08-16_08h45.54.801,HF_wild_card,2022.2.4,MacIntel,60.0024001,5dd11840d690721b2469a344,64d2fd46c836a06233681665,64dc7ea2e8f6a3b22cc49366,,,,,,,ctch,resources/DY.BMP,resources/DP.BMP,Door3,0.239239299,0.00996677,1,0,0,0.916,optionRight,70,15275,7,14,0,14,0,1,,,,,,,,,,,,,,,,,,,,,,,,,,,,,,,,,,,,,,,
,,,,,,,,2023-08-16_08h45.54.801,HF_wild_card,2022.2.4,MacIntel,60.0024001,5dd11840d690721b2469a344,64d2fd46c836a06233681665,64dc7ea2e8f6a3b22cc49366,,,,,,,decisionTrl,resources/DP.BMP,resources/DR.BMP,Door3,-0.235456679,0.020937025,1,0,0,0.7137,optionLeft,70,15345,7,15,0,15,0,1,,,,,,,,,,,,,,,,,,,,,,,,,,,,,,,,,,,,,,,
,,,,,,,,2023-08-16_08h45.54.801,HF_wild_card,2022.2.4,MacIntel,60.0024001,5dd11840d690721b2469a344,64d2fd46c836a06233681665,64dc7ea2e8f6a3b22cc49366,,,,,,,decisionTrl,resources/DR.BMP,resources/DP.BMP,Door3,0.204053548,0.006692301,1,0,0,0.8824,optionRight,70,15415,7,16,0,16,0,1,,,,,,,,,,,,,,,,,,,,,,,,,,,,,,,,,,,,,,,
,,,,,,,,2023-08-16_08h45.54.801,HF_wild_card,2022.2.4,MacIntel,60.0024001,5dd11840d690721b2469a344,64d2fd46c836a06233681665,64dc7ea2e8f6a3b22cc49366,,,,,,,decisionTrl,resources/DY.BMP,resources/DG.BMP,Door1,0.248559502,-0.024430271,1,0,0,0.9821,optionRight,30,15445,7,17,0,17,0,1,,,,,,,,,,,,,,,,,,,,,,,,,,,,,,,,,,,,,,,
,,,,,,,,2023-08-16_08h45.54.801,HF_wild_card,2022.2.4,MacIntel,60.0024001,5dd11840d690721b2469a344,64d2fd46c836a06233681665,64dc7ea2e8f6a3b22cc49366,,,,,,,ctch,resources/DY.BMP,resources/DP.BMP,Door3,0.208652751,-0.020757107,1,0,0,0.9485,optionRight,70,15515,7,18,0,18,0,1,,,,,,,,,,,,,,,,,,,,,,,,,,,,,,,,,,,,,,,
,,,,,,,,2023-08-16_08h45.54.801,HF_wild_card,2022.2.4,MacIntel,60.0024001,5dd11840d690721b2469a344,64d2fd46c836a06233681665,64dc7ea2e8f6a3b22cc49366,,,,,,,decisionTrl,resources/DP.BMP,resources/DR.BMP,Door3,-0.244584554,0.033805135,1,0,0,0.7666,optionLeft,70,15585,7,19,0,19,0,1,,,,,,,,,,,,,,,,,,,,,,,,,,,,,,,,,,,,,,,
,,,,,,,,2023-08-16_08h45.54.801,HF_wild_card,2022.2.4,MacIntel,60.0024001,5dd11840d690721b2469a344,64d2fd46c836a06233681665,64dc7ea2e8f6a3b22cc49366,,,,,,,decisionTrl,resources/DY.BMP,resources/DG.BMP,Door1,0.151397434,-0.005770535,1,0,0,1.08,optionRight,30,15615,7,20,0,20,0,1,,,,,,,,,,,,,,,,,,,,,,,,,,,,,,,,,,,,,,,
,,,,,,,,2023-08-16_08h45.54.801,HF_wild_card,2022.2.4,MacIntel,60.0024001,5dd11840d690721b2469a344,64d2fd46c836a06233681665,64dc7ea2e8f6a3b22cc49366,,,,,,,ctch,resources/DR.BMP,resources/DG.BMP,Door1,0.225627577,-0.017997776,1,0,0,0.9,optionRight,30,15645,7,21,0,21,0,1,,,,,,,,,,,,,,,,,,,,,,,,,,,,,,,,,,,,,,,
,,,,,,,,2023-08-16_08h45.54.801,HF_wild_card,2022.2.4,MacIntel,60.0024001,5dd11840d690721b2469a344,64d2fd46c836a06233681665,64dc7ea2e8f6a3b22cc49366,,,,,,,decisionTrl,resources/DG.BMP,resources/DY.BMP,Door1,-0.218252767,0.02462399,1,0,0,1.1662,optionLeft,30,15675,7,22,0,22,0,1,,,,,,,,,,,,,,,,,,,,,,,,,,,,,,,,,,,,,,,
,,,,,,,,2023-08-16_08h45.54.801,HF_wild_card,2022.2.4,MacIntel,60.0024001,5dd11840d690721b2469a344,64d2fd46c836a06233681665,64dc7ea2e8f6a3b22cc49366,,,,,,,ctch,resources/DP.BMP,resources/DY.BMP,Door3,-0.23783471,0.023071696,1,0,0,0.7659,optionLeft,70,15745,7,23,0,23,0,1,,,,,,,,,,,,,,,,,,,,,,,,,,,,,,,,,,,,,,,
,,,,,,,,2023-08-16_08h45.54.801,HF_wild_card,2022.2.4,MacIntel,60.0024001,5dd11840d690721b2469a344,64d2fd46c836a06233681665,64dc7ea2e8f6a3b22cc49366,,,,,,,decisionTrl,resources/DR.BMP,resources/DP.BMP,Door4,-0.21704895,-0.002863973,1,0,0,1.4493,optionLeft,60,15805,7,24,0,24,0,1,,,,,,,,,,,,,,,,,,,,,,,,,,,,,,,,,,,,,,,
,,,,,,,,2023-08-16_08h45.54.801,HF_wild_card,2022.2.4,MacIntel,60.0024001,5dd11840d690721b2469a344,64d2fd46c836a06233681665,64dc7ea2e8f6a3b22cc49366,,,,,,,ctch,resources/DP.BMP,resources/DY.BMP,Door3,-0.218036635,0.025595161,1,0,0,0.8809,optionLeft,70,15875,7,25,0,25,0,1,,,,,,,,,,,,,,,,,,,,,,,,,,,,,,,,,,,,,,,
,,,,,,,,2023-08-16_08h45.54.801,HF_wild_card,2022.2.4,MacIntel,60.0024001,5dd11840d690721b2469a344,64d2fd46c836a06233681665,64dc7ea2e8f6a3b22cc49366,,,,,,,ctch,resources/DG.BMP,resources/DR.BMP,Door4,0.370656467,-0.059596795,1,0,0,2.829,optionRight,80,15955,7,26,0,26,0,1,,,,,,,,,,,,,,,,,,,,,,,,,,,,,,,,,,,,,,,
,,,,,,,,2023-08-16_08h45.54.801,HF_wild_card,2022.2.4,MacIntel,60.0024001,5dd11840d690721b2469a344,64d2fd46c836a06233681665,64dc7ea2e8f6a3b22cc49366,,,,,,,decisionTrl,resources/DY.BMP,resources/DG.BMP,Door1,0.278909844,-0.036959229,1,0,0,1.5677,optionRight,30,15985,7,27,0,27,0,1,,,,,,,,,,,,,,,,,,,,,,,,,,,,,,,,,,,,,,,
,,,,,,,,2023-08-16_08h45.54.801,HF_wild_card,2022.2.4,MacIntel,60.0024001,5dd11840d690721b2469a344,64d2fd46c836a06233681665,64dc7ea2e8f6a3b22cc49366,,,,,,,ctch,resources/DR.BMP,resources/DG.BMP,Door4,-0.273323941,0.054821235,1,0,0,1.0327,optionLeft,60,16045,7,28,0,28,0,1,,,,,,,,,,,,,,,,,,,,,,,,,,,,,,,,,,,,,,,
,,,,,,,,2023-08-16_08h45.54.801,HF_wild_card,2022.2.4,MacIntel,60.0024001,5dd11840d690721b2469a344,64d2fd46c836a06233681665,64dc7ea2e8f6a3b22cc49366,,,,,,,decisionTrl,resources/DY.BMP,resources/DG.BMP,Door1,0.309465739,-0.008020833,1,0,0,0.9327,optionRight,30,16075,7,29,0,29,0,1,,,,,,,,,,,,,,,,,,,,,,,,,,,,,,,,,,,,,,,
,,,,,,,,2023-08-16_08h45.54.801,HF_wild_card,2022.2.4,MacIntel,60.0024001,5dd11840d690721b2469a344,64d2fd46c836a06233681665,64dc7ea2e8f6a3b22cc49366,,,,,,,decisionTrl,resources/DY.BMP,resources/DG.BMP,Door1,0.29654168,0.00440762,1,0,0,0.9647,optionRight,30,16105,7,30,0,30,0,1,,,,,,,,,,,,,,,,,,,,,,,,,,,,,,,,,,,,,,,
,,,,,,,,2023-08-16_08h45.54.801,HF_wild_card,2022.2.4,MacIntel,60.0024001,5dd11840d690721b2469a344,64d2fd46c836a06233681665,64dc7ea2e8f6a3b22cc49366,,,,,,,ctch,resources/DG.BMP,resources/DR.BMP,Door4,0.286636624,-0.008129001,1,0,0,0.9181,optionRight,80,16185,7,31,0,31,0,1,,,,,,,,,,,,,,,,,,,,,,,,,,,,,,,,,,,,,,,
,,,,,,,,2023-08-16_08h45.54.801,HF_wild_card,2022.2.4,MacIntel,60.0024001,5dd11840d690721b2469a344,64d2fd46c836a06233681665,64dc7ea2e8f6a3b22cc49366,,,,,,,decisionTrl,resources/DP.BMP,resources/DR.BMP,Door3,-0.302172377,0.00403517,1,0,0,0.8007,optionLeft,70,16255,7,32,0,32,0,1,,,,,,,,,,,,,,,,,,,,,,,,,,,,,,,,,,,,,,,
,,,,,,,,2023-08-16_08h45.54.801,HF_wild_card,2022.2.4,MacIntel,60.0024001,5dd11840d690721b2469a344,64d2fd46c836a06233681665,64dc7ea2e8f6a3b22cc49366,,,,,,,decisionTrl,resources/DR.BMP,resources/DP.BMP,Door3,0.244483914,0.003389893,1,0,0,0.8154,optionRight,70,16325,7,33,0,33,0,1,,,,,,,,,,,,,,,,,,,,,,,,,,,,,,,,,,,,,,,
,,,,,,,,2023-08-16_08h45.54.801,HF_wild_card,2022.2.4,MacIntel,60.0024001,5dd11840d690721b2469a344,64d2fd46c836a06233681665,64dc7ea2e8f6a3b22cc49366,,,,,,,decisionTrl,resources/DG.BMP,resources/DY.BMP,Door1,-0.215010851,0.030581258,1,0,0,1.2324,optionLeft,30,16355,7,34,0,34,0,1,,,,,,,,,,,,,,,,,,,,,,,,,,,,,,,,,,,,,,,
,,,,,,,,2023-08-16_08h45.54.801,HF_wild_card,2022.2.4,MacIntel,60.0024001,5dd11840d690721b2469a344,64d2fd46c836a06233681665,64dc7ea2e8f6a3b22cc49366,,,,,,,ctch,resources/DY.BMP,resources/DP.BMP,Door3,0.279590251,0.005059374,1,0,0,1.1334,optionRight,70,16425,7,35,0,35,0,1,,,,,,,,,,,,,,,,,,,,,,,,,,,,,,,,,,,,,,,
,,,,,,,,2023-08-16_08h45.54.801,HF_wild_card,2022.2.4,MacIntel,60.0024001,5dd11840d690721b2469a344,64d2fd46c836a06233681665,64dc7ea2e8f6a3b22cc49366,,,,,,,,,,,,,,,,,,,,,,,,,,6,0,6,0,1,,,,,,,,,,,,,,,,,,,,,,,,,,,,,,,,,,
,,,,,,,,2023-08-16_08h45.54.801,HF_wild_card,2022.2.4,MacIntel,60.0024001,5dd11840d690721b2469a344,64d2fd46c836a06233681665,64dc7ea2e8f6a3b22cc49366,,,,,,,,,,,,,,,,,,,,,,,,,,,,,,,4,,,,,,,,,,,,,,,,,,,,,,,,,,,,,,,,,
,,,,,,,,2023-08-16_08h45.54.801,HF_wild_card,2022.2.4,MacIntel,60.0024001,5dd11840d690721b2469a344,64d2fd46c836a06233681665,64dc7ea2e8f6a3b22cc49366,,,,,,,,,,,,,,,,,,,,,,,,,,,,,,,,,,,,,,,,,,,,,,,,,,,,,,,,,,,,,,,,
,,,,,,,,2023-08-16_08h45.54.801,HF_wild_card,2022.2.4,MacIntel,60.0024001,5dd11840d690721b2469a344,64d2fd46c836a06233681665,64dc7ea2e8f6a3b22cc49366,,,,,,,,,,,,,,,,,,,,,,,,,,,,,,,,20,Door2,resources/DY.BMP,0,0,0,0,1,,,,,,,,,,,,,,,,,,,,,,,,,
,,,,,,,,2023-08-16_08h45.54.801,HF_wild_card,2022.2.4,MacIntel,60.0024001,5dd11840d690721b2469a344,64d2fd46c836a06233681665,64dc7ea2e8f6a3b22cc49366,,,,,,,,,,,,,,,,,,,,,,,,,,,,,,,,55,WC_nonExtreme,resources/DB.BMP,1,0,1,0,1,,,,,,,,,,,,,,,,,,,,,,,,,
,,,,,,,,2023-08-16_08h45.54.801,HF_wild_card,2022.2.4,MacIntel,60.0024001,5dd11840d690721b2469a344,64d2fd46c836a06233681665,64dc7ea2e8f6a3b22cc49366,,,,,,,,,,,,,,,,,,,,,,,,,,,,,,,,60,Door4,resources/DR.BMP,2,0,2,0,1,,,,,,,,,,,,,,,,,,,,,,,,,
,,,,,,,,2023-08-16_08h45.54.801,HF_wild_card,2022.2.4,MacIntel,60.0024001,5dd11840d690721b2469a344,64d2fd46c836a06233681665,64dc7ea2e8f6a3b22cc49366,,,,,,,,,,,,,,,,,,,,,,,,,,,,,,,,30,Door1,resources/DG.BMP,3,0,3,0,1,,,,,,,,,,,,,,,,,,,,,,,,,
,,,,,,,,2023-08-16_08h45.54.801,HF_wild_card,2022.2.4,MacIntel,60.0024001,5dd11840d690721b2469a344,64d2fd46c836a06233681665,64dc7ea2e8f6a3b22cc49366,,,,,,,,,,,,,,,,,,,,,,,,,,,,,,,,70,Door3,resources/DP.BMP,4,0,4,0,1,,,,,,,,,,,,,,,,,,,,,,,,,
