Condition,Low fixed image (Door1),Low risky image (Door2),High fixed image (Door3),High risky image (Door4),Extreme Wild Card,NonExtreme Wild Card,,date,expName,psychopyVersion,OS,frameRate,PROLIFIC_PID,STUDY_ID,SESSION_ID,mouse_2.x,mouse_2.y,mouse_2.leftButton,mouse_2.midButton,mouse_2.rightButton,mouse_2.clicked_name,Trial Type,Left Option Image,Right Option Image,Chosen Door,mouse.x,mouse.y,mouse.leftButton,mouse.midButton,mouse.rightButton,mouse.time,mouse.clicked_name,Feedback,Cumulative Reward,Block,trial.thisRepN,trial.thisTrialN,trial.thisN,trial.thisIndex,trial.ran,blocks.thisRepN,blocks.thisTrialN,blocks.thisN,blocks.thisIndex,blocks.ran,Money conversion
1,resources/DY.BMP,resources/DP.BMP,resources/DR.BMP,resources/DB.BMP,resources/DG.BMP,resources/DBN.BMP,,2023-08-16_08h42.49.667,HF_wild_card,2022.2.4,Win32,58.82352941,5a5b6255f6c5170001950ae0,64d2fd46c836a06233681665,64dc7df2fcf2642c89e295cd,,,,,,,,,,,,,,,,,,,,,,,,,,,,,,,
,,,,,,,,2023-08-16_08h42.49.667,HF_wild_card,2022.2.4,Win32,58.82352941,5a5b6255f6c5170001950ae0,64d2fd46c836a06233681665,64dc7df2fcf2642c89e295cd,-0.003703704,-0.423148148,1,0,0,agree,,,,,,,,,,,,,,,,,,,,,,,,,
,,,,,,,,2023-08-16_08h42.49.667,HF_wild_card,2022.2.4,Win32,58.82352941,5a5b6255f6c5170001950ae0,64d2fd46c836a06233681665,64dc7df2fcf2642c89e295cd,,,,,,,,,,,,,,,,,,,,,,,,,,,,,,,
,,,,,,,,2023-08-16_08h42.49.667,HF_wild_card,2022.2.4,Win32,58.82352941,5a5b6255f6c5170001950ae0,64d2fd46c836a06233681665,64dc7df2fcf2642c89e295cd,,,,,,,decisionTrl,resources/DP.BMP,resources/DY.BMP,Door2,-0.363888889,-0.058333333,1,0,0,2.169,optionLeft,20,20,1,0,0,0,0,1,,,,,,
,,,,,,,,2023-08-16_08h42.49.667,HF_wild_card,2022.2.4,Win32,58.82352941,5a5b6255f6c5170001950ae0,64d2fd46c836a06233681665,64dc7df2fcf2642c89e295cd,,,,,,,decisionTrl,resources/DB.BMP,resources/DR.BMP,Door3,0.37962963,0.001851852,1,0,0,1.116,optionRight,70,90,1,1,0,1,0,1,,,,,,
,,,,,,,,2023-08-16_08h42.49.667,HF_wild_card,2022.2.4,Win32,58.82352941,5a5b6255f6c5170001950ae0,64d2fd46c836a06233681665,64dc7df2fcf2642c89e295cd,,,,,,,decisionTrl,resources/DP.BMP,resources/DY.BMP,Door1,0.323148148,0.000925926,1,0,0,0.666,optionRight,30,120,1,2,0,2,0,1,,,,,,
,,,,,,,,2023-08-16_08h42.49.667,HF_wild_card,2022.2.4,Win32,58.82352941,5a5b6255f6c5170001950ae0,64d2fd46c836a06233681665,64dc7df2fcf2642c89e295cd,,,,,,,decisionTrl,resources/DBN.BMP,resources/DY.BMP,WildCard_NonEx,-0.249074074,-0.017592593,1,0,0,0.832,optionLeft,45,165,1,3,0,3,0,1,,,,,,
,,,,,,,,2023-08-16_08h42.49.667,HF_wild_card,2022.2.4,Win32,58.82352941,5a5b6255f6c5170001950ae0,64d2fd46c836a06233681665,64dc7df2fcf2642c89e295cd,,,,,,,decisionTrl,resources/DR.BMP,resources/DB.BMP,Door4,0.289814815,0.02962963,1,0,0,0.648,optionRight,60,225,1,4,0,4,0,1,,,,,,
,,,,,,,,2023-08-16_08h42.49.667,HF_wild_card,2022.2.4,Win32,58.82352941,5a5b6255f6c5170001950ae0,64d2fd46c836a06233681665,64dc7df2fcf2642c89e295cd,,,,,,,decisionTrl,resources/DY.BMP,resources/DP.BMP,Door1,-0.240740741,0.002777778,1,0,0,0.542,optionLeft,30,255,1,5,0,5,0,1,,,,,,
,,,,,,,,2023-08-16_08h42.49.667,HF_wild_card,2022.2.4,Win32,58.82352941,5a5b6255f6c5170001950ae0,64d2fd46c836a06233681665,64dc7df2fcf2642c89e295cd,,,,,,,decisionTrl,resources/DBN.BMP,resources/DP.BMP,WildCard_NonEx,-0.285185185,0.002777778,1,0,0,0.75,optionLeft,55,310,1,6,0,6,0,1,,,,,,
,,,,,,,,2023-08-16_08h42.49.667,HF_wild_card,2022.2.4,Win32,58.82352941,5a5b6255f6c5170001950ae0,64d2fd46c836a06233681665,64dc7df2fcf2642c89e295cd,,,,,,,decisionTrl,resources/DB.BMP,resources/DR.BMP,Door3,0.442592593,0.034259259,1,0,0,1.861,optionRight,70,380,1,7,0,7,0,1,,,,,,
,,,,,,,,2023-08-16_08h42.49.667,HF_wild_card,2022.2.4,Win32,58.82352941,5a5b6255f6c5170001950ae0,64d2fd46c836a06233681665,64dc7df2fcf2642c89e295cd,,,,,,,decisionTrl,resources/DP.BMP,resources/DBN.BMP,WildCard_NonEx,0.193518519,-0.012962963,1,0,0,0.446,optionRight,45,425,1,8,0,8,0,1,,,,,,
,,,,,,,,2023-08-16_08h42.49.667,HF_wild_card,2022.2.4,Win32,58.82352941,5a5b6255f6c5170001950ae0,64d2fd46c836a06233681665,64dc7df2fcf2642c89e295cd,,,,,,,decisionTrl,resources/DY.BMP,resources/DBN.BMP,WildCard_NonEx,0.275,-0.00462963,1,0,0,0.583,optionRight,45,470,1,9,0,9,0,1,,,,,,
,,,,,,,,2023-08-16_08h42.49.667,HF_wild_card,2022.2.4,Win32,58.82352941,5a5b6255f6c5170001950ae0,64d2fd46c836a06233681665,64dc7df2fcf2642c89e295cd,,,,,,,ctch,resources/DR.BMP,resources/DP.BMP,Door3,-0.207407407,0.005555556,1,0,0,0.715,optionLeft,70,540,1,10,0,10,0,1,,,,,,
,,,,,,,,2023-08-16_08h42.49.667,HF_wild_card,2022.2.4,Win32,58.82352941,5a5b6255f6c5170001950ae0,64d2fd46c836a06233681665,64dc7df2fcf2642c89e295cd,,,,,,,decisionTrl,resources/DB.BMP,resources/DR.BMP,Door3,0.35462963,0.006481481,1,0,0,0.566,optionRight,70,610,1,11,0,11,0,1,,,,,,
,,,,,,,,2023-08-16_08h42.49.667,HF_wild_card,2022.2.4,Win32,58.82352941,5a5b6255f6c5170001950ae0,64d2fd46c836a06233681665,64dc7df2fcf2642c89e295cd,,,,,,,sngl,resources/Empty.png,resources/DY.BMP,Door1,0.252777778,0,1,0,0,0.615,optionRight,30,640,1,12,0,12,0,1,,,,,,
,,,,,,,,2023-08-16_08h42.49.667,HF_wild_card,2022.2.4,Win32,58.82352941,5a5b6255f6c5170001950ae0,64d2fd46c836a06233681665,64dc7df2fcf2642c89e295cd,,,,,,,ctch,resources/DB.BMP,resources/DY.BMP,Door4,-0.299074074,-0.010185185,1,0,0,0.667,optionLeft,60,700,1,13,0,13,0,1,,,,,,
,,,,,,,,2023-08-16_08h42.49.667,HF_wild_card,2022.2.4,Win32,58.82352941,5a5b6255f6c5170001950ae0,64d2fd46c836a06233681665,64dc7df2fcf2642c89e295cd,,,,,,,sngl,resources/DB.BMP,resources/Empty.png,Door4,-0.117592593,-0.003703704,1,0,0,0.553,optionLeft,80,780,1,14,0,14,0,1,,,,,,
,,,,,,,,2023-08-16_08h42.49.667,HF_wild_card,2022.2.4,Win32,58.82352941,5a5b6255f6c5170001950ae0,64d2fd46c836a06233681665,64dc7df2fcf2642c89e295cd,,,,,,,sngl,resources/DBN.BMP,resources/Empty.png,WildCard_NonEx,-0.221296296,-0.001851852,1,0,0,0.419,optionLeft,45,825,1,15,0,15,0,1,,,,,,
,,,,,,,,2023-08-16_08h42.49.667,HF_wild_card,2022.2.4,Win32,58.82352941,5a5b6255f6c5170001950ae0,64d2fd46c836a06233681665,64dc7df2fcf2642c89e295cd,,,,,,,ctch,resources/DP.BMP,resources/DR.BMP,Door2,-0.198148148,0.001851852,1,0,0,0.695,optionLeft,40,865,1,16,0,16,0,1,,,,,,
,,,,,,,,2023-08-16_08h42.49.667,HF_wild_card,2022.2.4,Win32,58.82352941,5a5b6255f6c5170001950ae0,64d2fd46c836a06233681665,64dc7df2fcf2642c89e295cd,,,,,,,decisionTrl,resources/DR.BMP,resources/DB.BMP,Door3,-0.284259259,0,1,0,0,0.449,optionLeft,70,935,1,17,0,17,0,1,,,,,,
,,,,,,,,2023-08-16_08h42.49.667,HF_wild_card,2022.2.4,Win32,58.82352941,5a5b6255f6c5170001950ae0,64d2fd46c836a06233681665,64dc7df2fcf2642c89e295cd,,,,,,,decisionTrl,resources/DB.BMP,resources/DBN.BMP,WildCard_NonEx,0.298148148,-0.007407407,1,0,0,1.05,optionRight,45,980,1,18,0,18,0,1,,,,,,
,,,,,,,,2023-08-16_08h42.49.667,HF_wild_card,2022.2.4,Win32,58.82352941,5a5b6255f6c5170001950ae0,64d2fd46c836a06233681665,64dc7df2fcf2642c89e295cd,,,,,,,decisionTrl,resources/DY.BMP,resources/DP.BMP,Door1,-0.171296296,-0.006481481,1,0,0,1.103,optionLeft,30,1010,1,19,0,19,0,1,,,,,,
,,,,,,,,2023-08-16_08h42.49.667,HF_wild_card,2022.2.4,Win32,58.82352941,5a5b6255f6c5170001950ae0,64d2fd46c836a06233681665,64dc7df2fcf2642c89e295cd,,,,,,,ctch,resources/DB.BMP,resources/DY.BMP,Door4,-0.224074074,-0.007407407,1,0,0,0.75,optionLeft,80,1090,1,20,0,20,0,1,,,,,,
,,,,,,,,2023-08-16_08h42.49.667,HF_wild_card,2022.2.4,Win32,58.82352941,5a5b6255f6c5170001950ae0,64d2fd46c836a06233681665,64dc7df2fcf2642c89e295cd,,,,,,,sngl,resources/Empty.png,resources/DBN.BMP,WildCard_NonEx,0.25,-0.012037037,1,0,0,0.752,optionRight,55,1145,1,21,0,21,0,1,,,,,,
,,,,,,,,2023-08-16_08h42.49.667,HF_wild_card,2022.2.4,Win32,58.82352941,5a5b6255f6c5170001950ae0,64d2fd46c836a06233681665,64dc7df2fcf2642c89e295cd,,,,,,,decisionTrl,resources/DR.BMP,resources/DB.BMP,Door4,0.305555556,-0.018518519,1,0,0,1.153,optionRight,60,1205,1,22,0,22,0,1,,,,,,
,,,,,,,,2023-08-16_08h42.49.667,HF_wild_card,2022.2.4,Win32,58.82352941,5a5b6255f6c5170001950ae0,64d2fd46c836a06233681665,64dc7df2fcf2642c89e295cd,,,,,,,sngl,resources/Empty.png,resources/DP.BMP,Door2,0.212037037,-0.016666667,1,0,0,0.533,optionRight,20,1225,1,23,0,23,0,1,,,,,,
,,,,,,,,2023-08-16_08h42.49.667,HF_wild_card,2022.2.4,Win32,58.82352941,5a5b6255f6c5170001950ae0,64d2fd46c836a06233681665,64dc7df2fcf2642c89e295cd,,,,,,,sngl,resources/Empty.png,resources/DR.BMP,Door3,0.353703704,-0.013888889,1,0,0,0.432,optionRight,70,1295,1,24,0,24,0,1,,,,,,
,,,,,,,,2023-08-16_08h42.49.667,HF_wild_card,2022.2.4,Win32,58.82352941,5a5b6255f6c5170001950ae0,64d2fd46c836a06233681665,64dc7df2fcf2642c89e295cd,,,,,,,decisionTrl,resources/DY.BMP,resources/DP.BMP,Door1,-0.165740741,-0.015740741,1,0,0,1.133,optionLeft,30,1325,1,25,0,25,0,1,,,,,,
,,,,,,,,2023-08-16_08h42.49.667,HF_wild_card,2022.2.4,Win32,58.82352941,5a5b6255f6c5170001950ae0,64d2fd46c836a06233681665,64dc7df2fcf2642c89e295cd,,,,,,,ctch,resources/DY.BMP,resources/DB.BMP,Door4,0.216666667,-0.017592593,1,0,0,0.887,optionRight,80,1405,1,26,0,26,0,1,,,,,,
,,,,,,,,2023-08-16_08h42.49.667,HF_wild_card,2022.2.4,Win32,58.82352941,5a5b6255f6c5170001950ae0,64d2fd46c836a06233681665,64dc7df2fcf2642c89e295cd,,,,,,,decisionTrl,resources/DBN.BMP,resources/DR.BMP,Door3,0.217592593,-0.012037037,1,0,0,1.165,optionRight,70,1475,1,27,0,27,0,1,,,,,,
,,,,,,,,2023-08-16_08h42.49.667,HF_wild_card,2022.2.4,Win32,58.82352941,5a5b6255f6c5170001950ae0,64d2fd46c836a06233681665,64dc7df2fcf2642c89e295cd,,,,,,,sngl,resources/DBN.BMP,resources/Empty.png,WildCard_NonEx,-0.209259259,-0.012962963,1,0,0,0.435,optionLeft,55,1530,1,28,0,28,0,1,,,,,,
,,,,,,,,2023-08-16_08h42.49.667,HF_wild_card,2022.2.4,Win32,58.82352941,5a5b6255f6c5170001950ae0,64d2fd46c836a06233681665,64dc7df2fcf2642c89e295cd,,,,,,,sngl,resources/DY.BMP,resources/Empty.png,Door1,-0.167592593,-0.016666667,1,0,0,0.548,optionLeft,30,1560,1,29,0,29,0,1,,,,,,
,,,,,,,,2023-08-16_08h42.49.667,HF_wild_card,2022.2.4,Win32,58.82352941,5a5b6255f6c5170001950ae0,64d2fd46c836a06233681665,64dc7df2fcf2642c89e295cd,,,,,,,decisionTrl,resources/DBN.BMP,resources/DB.BMP,Door4,0.392592593,-0.008333333,1,0,0,1.082,optionRight,80,1640,1,30,0,30,0,1,,,,,,
,,,,,,,,2023-08-16_08h42.49.667,HF_wild_card,2022.2.4,Win32,58.82352941,5a5b6255f6c5170001950ae0,64d2fd46c836a06233681665,64dc7df2fcf2642c89e295cd,,,,,,,sngl,resources/DP.BMP,resources/Empty.png,Door2,-0.185185185,0.002777778,1,0,0,0.748,optionLeft,40,1680,1,31,0,31,0,1,,,,,,
,,,,,,,,2023-08-16_08h42.49.667,HF_wild_card,2022.2.4,Win32,58.82352941,5a5b6255f6c5170001950ae0,64d2fd46c836a06233681665,64dc7df2fcf2642c89e295cd,,,,,,,decisionTrl,resources/DY.BMP,resources/DP.BMP,Door1,-0.299074074,0.014814815,1,0,0,1.063,optionLeft,30,1710,1,32,0,32,0,1,,,,,,
,,,,,,,,2023-08-16_08h42.49.667,HF_wild_card,2022.2.4,Win32,58.82352941,5a5b6255f6c5170001950ae0,64d2fd46c836a06233681665,64dc7df2fcf2642c89e295cd,,,,,,,sngl,resources/Empty.png,resources/DBN.BMP,WildCard_NonEx,0.228703704,0.033333333,1,0,0,0.465,optionRight,45,1755,1,33,0,33,0,1,,,,,,
,,,,,,,,2023-08-16_08h42.49.667,HF_wild_card,2022.2.4,Win32,58.82352941,5a5b6255f6c5170001950ae0,64d2fd46c836a06233681665,64dc7df2fcf2642c89e295cd,,,,,,,ctch,resources/DP.BMP,resources/DR.BMP,Door3,0.275,-0.012962963,1,0,0,0.999,optionRight,70,1825,1,34,0,34,0,1,,,,,,
,,,,,,,,2023-08-16_08h42.49.667,HF_wild_card,2022.2.4,Win32,58.82352941,5a5b6255f6c5170001950ae0,64d2fd46c836a06233681665,64dc7df2fcf2642c89e295cd,,,,,,,ctch,resources/DY.BMP,resources/DB.BMP,Door4,0.262037037,-0.015740741,1,0,0,0.915,optionRight,60,1885,1,35,0,35,0,1,,,,,,
,,,,,,,,2023-08-16_08h42.49.667,HF_wild_card,2022.2.4,Win32,58.82352941,5a5b6255f6c5170001950ae0,64d2fd46c836a06233681665,64dc7df2fcf2642c89e295cd,,,,,,,decisionTrl,resources/DR.BMP,resources/DBN.BMP,Door3,-0.19537037,0.002777778,1,0,0,1.403,optionLeft,70,1955,1,36,0,36,0,1,,,,,,
,,,,,,,,2023-08-16_08h42.49.667,HF_wild_card,2022.2.4,Win32,58.82352941,5a5b6255f6c5170001950ae0,64d2fd46c836a06233681665,64dc7df2fcf2642c89e295cd,,,,,,,decisionTrl,resources/DR.BMP,resources/DB.BMP,Door4,0.230555556,-0.012037037,1,0,0,1.216,optionRight,60,2015,1,37,0,37,0,1,,,,,,
,,,,,,,,2023-08-16_08h42.49.667,HF_wild_card,2022.2.4,Win32,58.82352941,5a5b6255f6c5170001950ae0,64d2fd46c836a06233681665,64dc7df2fcf2642c89e295cd,,,,,,,decisionTrl,resources/DP.BMP,resources/DY.BMP,Door2,-0.211111111,-0.008333333,1,0,0,1.699,optionLeft,20,2035,1,38,0,38,0,1,,,,,,
,,,,,,,,2023-08-16_08h42.49.667,HF_wild_card,2022.2.4,Win32,58.82352941,5a5b6255f6c5170001950ae0,64d2fd46c836a06233681665,64dc7df2fcf2642c89e295cd,,,,,,,decisionTrl,resources/DB.BMP,resources/DR.BMP,Door3,0.328703704,-0.019444444,1,0,0,0.936,optionRight,70,2105,1,39,0,39,0,1,,,,,,
,,,,,,,,2023-08-16_08h42.49.667,HF_wild_card,2022.2.4,Win32,58.82352941,5a5b6255f6c5170001950ae0,64d2fd46c836a06233681665,64dc7df2fcf2642c89e295cd,,,,,,,ctch,resources/DR.BMP,resources/DP.BMP,Door3,-0.15462963,-0.014814815,1,0,0,0.963,optionLeft,70,2175,1,40,0,40,0,1,,,,,,
,,,,,,,,2023-08-16_08h42.49.667,HF_wild_card,2022.2.4,Win32,58.82352941,5a5b6255f6c5170001950ae0,64d2fd46c836a06233681665,64dc7df2fcf2642c89e295cd,,,,,,,sngl,resources/DR.BMP,resources/Empty.png,Door3,-0.168518519,-0.002777778,1,0,0,0.65,optionLeft,70,2245,1,41,0,41,0,1,,,,,,
,,,,,,,,2023-08-16_08h42.49.667,HF_wild_card,2022.2.4,Win32,58.82352941,5a5b6255f6c5170001950ae0,64d2fd46c836a06233681665,64dc7df2fcf2642c89e295cd,,,,,,,sngl,resources/Empty.png,resources/DB.BMP,Door4,0.208333333,-0.007407407,1,0,0,0.473,optionRight,60,2305,1,42,0,42,0,1,,,,,,
,,,,,,,,2023-08-16_08h42.49.667,HF_wild_card,2022.2.4,Win32,58.82352941,5a5b6255f6c5170001950ae0,64d2fd46c836a06233681665,64dc7df2fcf2642c89e295cd,,,,,,,decisionTrl,resources/DP.BMP,resources/DY.BMP,Door1,0.248148148,-0.001851852,1,0,0,2.355,optionRight,30,2335,1,43,0,43,0,1,,,,,,
,,,,,,,,2023-08-16_08h42.49.667,HF_wild_card,2022.2.4,Win32,58.82352941,5a5b6255f6c5170001950ae0,64d2fd46c836a06233681665,64dc7df2fcf2642c89e295cd,,,,,,,,,,,,,,,,,,,,,,,,,,0,0,0,0,1,
,,,,,,,,2023-08-16_08h42.49.667,HF_wild_card,2022.2.4,Win32,58.82352941,5a5b6255f6c5170001950ae0,64d2fd46c836a06233681665,64dc7df2fcf2642c89e295cd,,,,,,,decisionTrl,resources/DBN.BMP,resources/DR.BMP,Door3,0.242592593,-0.025925926,1,0,0,0.677,optionRight,70,2405,2,0,0,0,0,1,,,,,,
,,,,,,,,2023-08-16_08h42.49.667,HF_wild_card,2022.2.4,Win32,58.82352941,5a5b6255f6c5170001950ae0,64d2fd46c836a06233681665,64dc7df2fcf2642c89e295cd,,,,,,,decisionTrl,resources/DBN.BMP,resources/DP.BMP,WildCard_NonEx,-0.089814815,0.002777778,1,0,0,0.847,optionLeft,45,2450,2,1,0,1,0,1,,,,,,
,,,,,,,,2023-08-16_08h42.49.667,HF_wild_card,2022.2.4,Win32,58.82352941,5a5b6255f6c5170001950ae0,64d2fd46c836a06233681665,64dc7df2fcf2642c89e295cd,,,,,,,decisionTrl,resources/DB.BMP,resources/DR.BMP,Door3,0.209259259,-0.010185185,1,0,0,1.115,optionRight,70,2520,2,2,0,2,0,1,,,,,,
,,,,,,,,2023-08-16_08h42.49.667,HF_wild_card,2022.2.4,Win32,58.82352941,5a5b6255f6c5170001950ae0,64d2fd46c836a06233681665,64dc7df2fcf2642c89e295cd,,,,,,,ctch,resources/DP.BMP,resources/DR.BMP,Door3,0.183333333,-0.02037037,1,0,0,0.697,optionRight,70,2590,2,3,0,3,0,1,,,,,,
,,,,,,,,2023-08-16_08h42.49.667,HF_wild_card,2022.2.4,Win32,58.82352941,5a5b6255f6c5170001950ae0,64d2fd46c836a06233681665,64dc7df2fcf2642c89e295cd,,,,,,,ctch,resources/DB.BMP,resources/DY.BMP,Door4,-0.218518519,-0.015740741,1,0,0,1.031,optionLeft,80,2670,2,4,0,4,0,1,,,,,,
,,,,,,,,2023-08-16_08h42.49.667,HF_wild_card,2022.2.4,Win32,58.82352941,5a5b6255f6c5170001950ae0,64d2fd46c836a06233681665,64dc7df2fcf2642c89e295cd,,,,,,,decisionTrl,resources/DR.BMP,resources/DB.BMP,Door4,0.227777778,-0.015740741,1,0,0,0.562,optionRight,60,2730,2,5,0,5,0,1,,,,,,
,,,,,,,,2023-08-16_08h42.49.667,HF_wild_card,2022.2.4,Win32,58.82352941,5a5b6255f6c5170001950ae0,64d2fd46c836a06233681665,64dc7df2fcf2642c89e295cd,,,,,,,sngl,resources/Empty.png,resources/DR.BMP,Door3,0.177777778,-0.013888889,1,0,0,0.464,optionRight,70,2800,2,6,0,6,0,1,,,,,,
,,,,,,,,2023-08-16_08h42.49.667,HF_wild_card,2022.2.4,Win32,58.82352941,5a5b6255f6c5170001950ae0,64d2fd46c836a06233681665,64dc7df2fcf2642c89e295cd,,,,,,,sngl,resources/Empty.png,resources/DP.BMP,Door2,0.231481481,-0.015740741,1,0,0,0.415,optionRight,40,2840,2,7,0,7,0,1,,,,,,
,,,,,,,,2023-08-16_08h42.49.667,HF_wild_card,2022.2.4,Win32,58.82352941,5a5b6255f6c5170001950ae0,64d2fd46c836a06233681665,64dc7df2fcf2642c89e295cd,,,,,,,decisionTrl,resources/DP.BMP,resources/DY.BMP,Door2,-0.187037037,-0.008333333,1,0,0,0.831,optionLeft,40,2880,2,8,0,8,0,1,,,,,,
,,,,,,,,2023-08-16_08h42.49.667,HF_wild_card,2022.2.4,Win32,58.82352941,5a5b6255f6c5170001950ae0,64d2fd46c836a06233681665,64dc7df2fcf2642c89e295cd,,,,,,,decisionTrl,resources/DP.BMP,resources/DY.BMP,Door1,0.35462963,-0.032407407,1,0,0,0.866,optionRight,30,2910,2,9,0,9,0,1,,,,,,
,,,,,,,,2023-08-16_08h42.49.667,HF_wild_card,2022.2.4,Win32,58.82352941,5a5b6255f6c5170001950ae0,64d2fd46c836a06233681665,64dc7df2fcf2642c89e295cd,,,,,,,decisionTrl,resources/DY.BMP,resources/DBN.BMP,WildCard_NonEx,0.2,-0.023148148,1,0,0,0.532,optionRight,45,2955,2,10,0,10,0,1,,,,,,
,,,,,,,,2023-08-16_08h42.49.667,HF_wild_card,2022.2.4,Win32,58.82352941,5a5b6255f6c5170001950ae0,64d2fd46c836a06233681665,64dc7df2fcf2642c89e295cd,,,,,,,decisionTrl,resources/DR.BMP,resources/DBN.BMP,Door3,-0.250925926,-0.007407407,1,0,0,0.832,optionLeft,70,3025,2,11,0,11,0,1,,,,,,
,,,,,,,,2023-08-16_08h42.49.667,HF_wild_card,2022.2.4,Win32,58.82352941,5a5b6255f6c5170001950ae0,64d2fd46c836a06233681665,64dc7df2fcf2642c89e295cd,,,,,,,decisionTrl,resources/DY.BMP,resources/DP.BMP,Door1,-0.187037037,-0.010185185,1,0,0,0.479,optionLeft,30,3055,2,12,0,12,0,1,,,,,,
,,,,,,,,2023-08-16_08h42.49.667,HF_wild_card,2022.2.4,Win32,58.82352941,5a5b6255f6c5170001950ae0,64d2fd46c836a06233681665,64dc7df2fcf2642c89e295cd,,,,,,,sngl,resources/DBN.BMP,resources/Empty.png,WildCard_NonEx,-0.17962963,-0.012037037,1,0,0,0.414,optionLeft,45,3100,2,13,0,13,0,1,,,,,,
,,,,,,,,2023-08-16_08h42.49.667,HF_wild_card,2022.2.4,Win32,58.82352941,5a5b6255f6c5170001950ae0,64d2fd46c836a06233681665,64dc7df2fcf2642c89e295cd,,,,,,,decisionTrl,resources/DB.BMP,resources/DR.BMP,Door3,0.287962963,-0.019444444,1,0,0,1.814,optionRight,70,3170,2,14,0,14,0,1,,,,,,
,,,,,,,,2023-08-16_08h42.49.667,HF_wild_card,2022.2.4,Win32,58.82352941,5a5b6255f6c5170001950ae0,64d2fd46c836a06233681665,64dc7df2fcf2642c89e295cd,,,,,,,ctch,resources/DP.BMP,resources/DR.BMP,Door3,0.196296296,-0.014814815,1,0,0,0.632,optionRight,70,3240,2,15,0,15,0,1,,,,,,
,,,,,,,,2023-08-16_08h42.49.667,HF_wild_card,2022.2.4,Win32,58.82352941,5a5b6255f6c5170001950ae0,64d2fd46c836a06233681665,64dc7df2fcf2642c89e295cd,,,,,,,sngl,resources/DY.BMP,resources/Empty.png,Door1,-0.162037037,-0.006481481,1,0,0,0.514,optionLeft,30,3270,2,16,0,16,0,1,,,,,,
,,,,,,,,2023-08-16_08h42.49.667,HF_wild_card,2022.2.4,Win32,58.82352941,5a5b6255f6c5170001950ae0,64d2fd46c836a06233681665,64dc7df2fcf2642c89e295cd,,,,,,,ctch,resources/DR.BMP,resources/DP.BMP,Door3,-0.268518519,-0.001851852,1,0,0,0.914,optionLeft,70,3340,2,17,0,17,0,1,,,,,,
,,,,,,,,2023-08-16_08h42.49.667,HF_wild_card,2022.2.4,Win32,58.82352941,5a5b6255f6c5170001950ae0,64d2fd46c836a06233681665,64dc7df2fcf2642c89e295cd,,,,,,,sngl,resources/DBN.BMP,resources/Empty.png,WildCard_NonEx,-0.160185185,-0.005555556,1,0,0,0.495,optionLeft,55,3395,2,18,0,18,0,1,,,,,,
,,,,,,,,2023-08-16_08h42.49.667,HF_wild_card,2022.2.4,Win32,58.82352941,5a5b6255f6c5170001950ae0,64d2fd46c836a06233681665,64dc7df2fcf2642c89e295cd,,,,,,,decisionTrl,resources/DP.BMP,resources/DBN.BMP,Door2,-0.206481481,-0.000925926,1,0,0,0.629,optionLeft,20,3415,2,19,0,19,0,1,,,,,,
,,,,,,,,2023-08-16_08h42.49.667,HF_wild_card,2022.2.4,Win32,58.82352941,5a5b6255f6c5170001950ae0,64d2fd46c836a06233681665,64dc7df2fcf2642c89e295cd,,,,,,,decisionTrl,resources/DY.BMP,resources/DP.BMP,Door1,-0.230555556,-0.010185185,1,0,0,0.597,optionLeft,30,3445,2,20,0,20,0,1,,,,,,
,,,,,,,,2023-08-16_08h42.49.667,HF_wild_card,2022.2.4,Win32,58.82352941,5a5b6255f6c5170001950ae0,64d2fd46c836a06233681665,64dc7df2fcf2642c89e295cd,,,,,,,ctch,resources/DB.BMP,resources/DY.BMP,Door4,-0.193518519,-0.00462963,1,0,0,0.713,optionLeft,60,3505,2,21,0,21,0,1,,,,,,
,,,,,,,,2023-08-16_08h42.49.667,HF_wild_card,2022.2.4,Win32,58.82352941,5a5b6255f6c5170001950ae0,64d2fd46c836a06233681665,64dc7df2fcf2642c89e295cd,,,,,,,decisionTrl,resources/DP.BMP,resources/DY.BMP,Door1,0.302777778,-0.012962963,1,0,0,1.097,optionRight,30,3535,2,22,0,22,0,1,,,,,,
,,,,,,,,2023-08-16_08h42.49.667,HF_wild_card,2022.2.4,Win32,58.82352941,5a5b6255f6c5170001950ae0,64d2fd46c836a06233681665,64dc7df2fcf2642c89e295cd,,,,,,,decisionTrl,resources/DBN.BMP,resources/DY.BMP,Door1,0.255555556,-0.012037037,1,0,0,0.614,optionRight,30,3565,2,23,0,23,0,1,,,,,,
,,,,,,,,2023-08-16_08h42.49.667,HF_wild_card,2022.2.4,Win32,58.82352941,5a5b6255f6c5170001950ae0,64d2fd46c836a06233681665,64dc7df2fcf2642c89e295cd,,,,,,,decisionTrl,resources/DB.BMP,resources/DR.BMP,Door3,0.294444444,-0.012962963,1,0,0,0.714,optionRight,70,3635,2,24,0,24,0,1,,,,,,
,,,,,,,,2023-08-16_08h42.49.667,HF_wild_card,2022.2.4,Win32,58.82352941,5a5b6255f6c5170001950ae0,64d2fd46c836a06233681665,64dc7df2fcf2642c89e295cd,,,,,,,sngl,resources/DP.BMP,resources/Empty.png,Door2,-0.166666667,-0.005555556,1,0,0,0.464,optionLeft,20,3655,2,25,0,25,0,1,,,,,,
,,,,,,,,2023-08-16_08h42.49.667,HF_wild_card,2022.2.4,Win32,58.82352941,5a5b6255f6c5170001950ae0,64d2fd46c836a06233681665,64dc7df2fcf2642c89e295cd,,,,,,,sngl,resources/Empty.png,resources/DY.BMP,Door1,0.2,-0.02037037,1,0,0,0.414,optionRight,30,3685,2,26,0,26,0,1,,,,,,
,,,,,,,,2023-08-16_08h42.49.667,HF_wild_card,2022.2.4,Win32,58.82352941,5a5b6255f6c5170001950ae0,64d2fd46c836a06233681665,64dc7df2fcf2642c89e295cd,,,,,,,sngl,resources/DB.BMP,resources/Empty.png,Door4,-0.165740741,-0.016666667,1,0,0,0.447,optionLeft,60,3745,2,27,0,27,0,1,,,,,,
,,,,,,,,2023-08-16_08h42.49.667,HF_wild_card,2022.2.4,Win32,58.82352941,5a5b6255f6c5170001950ae0,64d2fd46c836a06233681665,64dc7df2fcf2642c89e295cd,,,,,,,sngl,resources/Empty.png,resources/DB.BMP,Door4,0.187037037,-0.018518519,1,0,0,0.463,optionRight,80,3825,2,28,0,28,0,1,,,,,,
,,,,,,,,2023-08-16_08h42.49.667,HF_wild_card,2022.2.4,Win32,58.82352941,5a5b6255f6c5170001950ae0,64d2fd46c836a06233681665,64dc7df2fcf2642c89e295cd,,,,,,,decisionTrl,resources/DY.BMP,resources/DP.BMP,Door1,-0.196296296,-0.017592593,1,0,0,0.679,optionLeft,30,3855,2,29,0,29,0,1,,,,,,
,,,,,,,,2023-08-16_08h42.49.667,HF_wild_card,2022.2.4,Win32,58.82352941,5a5b6255f6c5170001950ae0,64d2fd46c836a06233681665,64dc7df2fcf2642c89e295cd,,,,,,,decisionTrl,resources/DR.BMP,resources/DB.BMP,Door3,-0.180555556,-0.011111111,1,0,0,0.614,optionLeft,70,3925,2,30,0,30,0,1,,,,,,
,,,,,,,,2023-08-16_08h42.49.667,HF_wild_card,2022.2.4,Win32,58.82352941,5a5b6255f6c5170001950ae0,64d2fd46c836a06233681665,64dc7df2fcf2642c89e295cd,,,,,,,sngl,resources/Empty.png,resources/DBN.BMP,WildCard_NonEx,0.212962963,-0.017592593,1,0,0,0.581,optionRight,45,3970,2,31,0,31,0,1,,,,,,
,,,,,,,,2023-08-16_08h42.49.667,HF_wild_card,2022.2.4,Win32,58.82352941,5a5b6255f6c5170001950ae0,64d2fd46c836a06233681665,64dc7df2fcf2642c89e295cd,,,,,,,sngl,resources/Empty.png,resources/DBN.BMP,WildCard_NonEx,0.183333333,-0.014814815,1,0,0,0.432,optionRight,55,4025,2,32,0,32,0,1,,,,,,
,,,,,,,,2023-08-16_08h42.49.667,HF_wild_card,2022.2.4,Win32,58.82352941,5a5b6255f6c5170001950ae0,64d2fd46c836a06233681665,64dc7df2fcf2642c89e295cd,,,,,,,decisionTrl,resources/DR.BMP,resources/DB.BMP,Door3,-0.192592593,-0.010185185,1,0,0,0.512,optionLeft,70,4095,2,33,0,33,0,1,,,,,,
,,,,,,,,2023-08-16_08h42.49.667,HF_wild_card,2022.2.4,Win32,58.82352941,5a5b6255f6c5170001950ae0,64d2fd46c836a06233681665,64dc7df2fcf2642c89e295cd,,,,,,,decisionTrl,resources/DB.BMP,resources/DBN.BMP,Door4,-0.239814815,-0.009259259,1,0,0,0.731,optionLeft,80,4175,2,34,0,34,0,1,,,,,,
,,,,,,,,2023-08-16_08h42.49.667,HF_wild_card,2022.2.4,Win32,58.82352941,5a5b6255f6c5170001950ae0,64d2fd46c836a06233681665,64dc7df2fcf2642c89e295cd,,,,,,,decisionTrl,resources/DP.BMP,resources/DY.BMP,Door2,-0.198148148,-0.010185185,1,0,0,0.73,optionLeft,20,4195,2,35,0,35,0,1,,,,,,
,,,,,,,,2023-08-16_08h42.49.667,HF_wild_card,2022.2.4,Win32,58.82352941,5a5b6255f6c5170001950ae0,64d2fd46c836a06233681665,64dc7df2fcf2642c89e295cd,,,,,,,sngl,resources/DR.BMP,resources/Empty.png,Door3,-0.19537037,-0.011111111,1,0,0,0.43,optionLeft,70,4265,2,36,0,36,0,1,,,,,,
,,,,,,,,2023-08-16_08h42.49.667,HF_wild_card,2022.2.4,Win32,58.82352941,5a5b6255f6c5170001950ae0,64d2fd46c836a06233681665,64dc7df2fcf2642c89e295cd,,,,,,,ctch,resources/DY.BMP,resources/DB.BMP,Door4,0.211111111,-0.016666667,1,0,0,1.097,optionRight,80,4345,2,37,0,37,0,1,,,,,,
,,,,,,,,2023-08-16_08h42.49.667,HF_wild_card,2022.2.4,Win32,58.82352941,5a5b6255f6c5170001950ae0,64d2fd46c836a06233681665,64dc7df2fcf2642c89e295cd,,,,,,,ctch,resources/DR.BMP,resources/DP.BMP,Door3,-0.203703704,-0.007407407,1,0,0,0.797,optionLeft,70,4415,2,38,0,38,0,1,,,,,,
,,,,,,,,2023-08-16_08h42.49.667,HF_wild_card,2022.2.4,Win32,58.82352941,5a5b6255f6c5170001950ae0,64d2fd46c836a06233681665,64dc7df2fcf2642c89e295cd,,,,,,,decisionTrl,resources/DY.BMP,resources/DP.BMP,Door1,-0.2,-0.007407407,1,0,0,1.515,optionLeft,30,4445,2,39,0,39,0,1,,,,,,
,,,,,,,,2023-08-16_08h42.49.667,HF_wild_card,2022.2.4,Win32,58.82352941,5a5b6255f6c5170001950ae0,64d2fd46c836a06233681665,64dc7df2fcf2642c89e295cd,,,,,,,decisionTrl,resources/DBN.BMP,resources/DB.BMP,WildCard_NonEx,-0.22037037,-0.008333333,1,0,0,0.682,optionLeft,45,4490,2,40,0,40,0,1,,,,,,
,,,,,,,,2023-08-16_08h42.49.667,HF_wild_card,2022.2.4,Win32,58.82352941,5a5b6255f6c5170001950ae0,64d2fd46c836a06233681665,64dc7df2fcf2642c89e295cd,,,,,,,ctch,resources/DY.BMP,resources/DB.BMP,Door4,0.27037037,-0.032407407,1,0,0,0.465,optionRight,80,4570,2,41,0,41,0,1,,,,,,
,,,,,,,,2023-08-16_08h42.49.667,HF_wild_card,2022.2.4,Win32,58.82352941,5a5b6255f6c5170001950ae0,64d2fd46c836a06233681665,64dc7df2fcf2642c89e295cd,,,,,,,decisionTrl,resources/DR.BMP,resources/DB.BMP,Door4,0.198148148,-0.032407407,1,0,0,0.43,optionRight,60,4630,2,42,0,42,0,1,,,,,,
,,,,,,,,2023-08-16_08h42.49.667,HF_wild_card,2022.2.4,Win32,58.82352941,5a5b6255f6c5170001950ae0,64d2fd46c836a06233681665,64dc7df2fcf2642c89e295cd,,,,,,,decisionTrl,resources/DB.BMP,resources/DR.BMP,Door3,0.238888889,-0.025,1,0,0,0.864,optionRight,70,4700,2,43,0,43,0,1,,,,,,
,,,,,,,,2023-08-16_08h42.49.667,HF_wild_card,2022.2.4,Win32,58.82352941,5a5b6255f6c5170001950ae0,64d2fd46c836a06233681665,64dc7df2fcf2642c89e295cd,,,,,,,,,,,,,,,,,,,,,,,,,,1,0,1,0,1,
,,,,,,,,2023-08-16_08h42.49.667,HF_wild_card,2022.2.4,Win32,58.82352941,5a5b6255f6c5170001950ae0,64d2fd46c836a06233681665,64dc7df2fcf2642c89e295cd,,,,,,,sngl,resources/Empty.png,resources/DBN.BMP,WildCard_NonEx,0.328703704,0.009259259,1,0,0,1.697,optionRight,55,4755,3,0,0,0,0,1,,,,,,
,,,,,,,,2023-08-16_08h42.49.667,HF_wild_card,2022.2.4,Win32,58.82352941,5a5b6255f6c5170001950ae0,64d2fd46c836a06233681665,64dc7df2fcf2642c89e295cd,,,,,,,decisionTrl,resources/DP.BMP,resources/DY.BMP,Door2,-0.227777778,0.010185185,1,0,0,1.281,optionLeft,20,4775,3,1,0,1,0,1,,,,,,
,,,,,,,,2023-08-16_08h42.49.667,HF_wild_card,2022.2.4,Win32,58.82352941,5a5b6255f6c5170001950ae0,64d2fd46c836a06233681665,64dc7df2fcf2642c89e295cd,,,,,,,ctch,resources/DB.BMP,resources/DY.BMP,Door1,0.310185185,-0.021296296,1,0,0,0.548,optionRight,30,4805,3,2,0,2,0,1,,,,,,
,,,,,,,,2023-08-16_08h42.49.667,HF_wild_card,2022.2.4,Win32,58.82352941,5a5b6255f6c5170001950ae0,64d2fd46c836a06233681665,64dc7df2fcf2642c89e295cd,,,,,,,sngl,resources/DP.BMP,resources/Empty.png,Door2,-0.260185185,-0.011111111,1,0,0,0.562,optionLeft,40,4845,3,3,0,3,0,1,,,,,,
,,,,,,,,2023-08-16_08h42.49.667,HF_wild_card,2022.2.4,Win32,58.82352941,5a5b6255f6c5170001950ae0,64d2fd46c836a06233681665,64dc7df2fcf2642c89e295cd,,,,,,,decisionTrl,resources/DBN.BMP,resources/DR.BMP,Door3,0.348148148,-0.016666667,1,0,0,1.414,optionRight,70,4915,3,4,0,4,0,1,,,,,,
,,,,,,,,2023-08-16_08h42.49.667,HF_wild_card,2022.2.4,Win32,58.82352941,5a5b6255f6c5170001950ae0,64d2fd46c836a06233681665,64dc7df2fcf2642c89e295cd,,,,,,,decisionTrl,resources/DR.BMP,resources/DB.BMP,Door3,-0.253703704,-0.006481481,1,0,0,0.496,optionLeft,70,4985,3,5,0,5,0,1,,,,,,
,,,,,,,,2023-08-16_08h42.49.667,HF_wild_card,2022.2.4,Win32,58.82352941,5a5b6255f6c5170001950ae0,64d2fd46c836a06233681665,64dc7df2fcf2642c89e295cd,,,,,,,decisionTrl,resources/DY.BMP,resources/DBN.BMP,Door1,-0.35,-0.002777778,1,0,0,0.914,optionLeft,30,5015,3,6,0,6,0,1,,,,,,
,,,,,,,,2023-08-16_08h42.49.667,HF_wild_card,2022.2.4,Win32,58.82352941,5a5b6255f6c5170001950ae0,64d2fd46c836a06233681665,64dc7df2fcf2642c89e295cd,,,,,,,sngl,resources/DR.BMP,resources/Empty.png,Door3,-0.221296296,0.010185185,1,0,0,0.446,optionLeft,70,5085,3,7,0,7,0,1,,,,,,
,,,,,,,,2023-08-16_08h42.49.667,HF_wild_card,2022.2.4,Win32,58.82352941,5a5b6255f6c5170001950ae0,64d2fd46c836a06233681665,64dc7df2fcf2642c89e295cd,,,,,,,decisionTrl,resources/DP.BMP,resources/DBN.BMP,WildCard_NonEx,0.219444444,-0.009259259,1,0,0,1.181,optionRight,45,5130,3,8,0,8,0,1,,,,,,
,,,,,,,,2023-08-16_08h42.49.667,HF_wild_card,2022.2.4,Win32,58.82352941,5a5b6255f6c5170001950ae0,64d2fd46c836a06233681665,64dc7df2fcf2642c89e295cd,,,,,,,decisionTrl,resources/DY.BMP,resources/DP.BMP,Door2,0.264814815,-0.012037037,1,0,0,1.113,optionRight,40,5170,3,9,0,9,0,1,,,,,,
,,,,,,,,2023-08-16_08h42.49.667,HF_wild_card,2022.2.4,Win32,58.82352941,5a5b6255f6c5170001950ae0,64d2fd46c836a06233681665,64dc7df2fcf2642c89e295cd,,,,,,,sngl,resources/DB.BMP,resources/Empty.png,Door4,-0.209259259,-0.001851852,1,0,0,0.48,optionLeft,80,5250,3,10,0,10,0,1,,,,,,
,,,,,,,,2023-08-16_08h42.49.667,HF_wild_card,2022.2.4,Win32,58.82352941,5a5b6255f6c5170001950ae0,64d2fd46c836a06233681665,64dc7df2fcf2642c89e295cd,,,,,,,ctch,resources/DB.BMP,resources/DY.BMP,Door4,-0.216666667,-0.00462963,1,0,0,0.731,optionLeft,80,5330,3,11,0,11,0,1,,,,,,
,,,,,,,,2023-08-16_08h42.49.667,HF_wild_card,2022.2.4,Win32,58.82352941,5a5b6255f6c5170001950ae0,64d2fd46c836a06233681665,64dc7df2fcf2642c89e295cd,,,,,,,ctch,resources/DY.BMP,resources/DB.BMP,Door4,0.206481481,-0.007407407,1,0,0,1.682,optionRight,60,5390,3,12,0,12,0,1,,,,,,
,,,,,,,,2023-08-16_08h42.49.667,HF_wild_card,2022.2.4,Win32,58.82352941,5a5b6255f6c5170001950ae0,64d2fd46c836a06233681665,64dc7df2fcf2642c89e295cd,,,,,,,sngl,resources/Empty.png,resources/DY.BMP,Door1,0.217592593,-0.018518519,1,0,0,0.646,optionRight,30,5420,3,13,0,13,0,1,,,,,,
,,,,,,,,2023-08-16_08h42.49.667,HF_wild_card,2022.2.4,Win32,58.82352941,5a5b6255f6c5170001950ae0,64d2fd46c836a06233681665,64dc7df2fcf2642c89e295cd,,,,,,,decisionTrl,resources/DB.BMP,resources/DR.BMP,Door3,0.215740741,-0.025,1,0,0,0.865,optionRight,70,5490,3,14,0,14,0,1,,,,,,
,,,,,,,,2023-08-16_08h42.49.667,HF_wild_card,2022.2.4,Win32,58.82352941,5a5b6255f6c5170001950ae0,64d2fd46c836a06233681665,64dc7df2fcf2642c89e295cd,,,,,,,sngl,resources/DBN.BMP,resources/Empty.png,WildCard_NonEx,-0.238888889,0,1,0,0,0.481,optionLeft,55,5545,3,15,0,15,0,1,,,,,,
,,,,,,,,2023-08-16_08h42.49.667,HF_wild_card,2022.2.4,Win32,58.82352941,5a5b6255f6c5170001950ae0,64d2fd46c836a06233681665,64dc7df2fcf2642c89e295cd,,,,,,,decisionTrl,resources/DB.BMP,resources/DR.BMP,Door3,0.210185185,-0.013888889,1,0,0,0.849,optionRight,70,5615,3,16,0,16,0,1,,,,,,
,,,,,,,,2023-08-16_08h42.49.667,HF_wild_card,2022.2.4,Win32,58.82352941,5a5b6255f6c5170001950ae0,64d2fd46c836a06233681665,64dc7df2fcf2642c89e295cd,,,,,,,decisionTrl,resources/DBN.BMP,resources/DY.BMP,WildCard_NonEx,-0.141666667,-0.007407407,1,0,0,1.414,optionLeft,45,5660,3,17,0,17,0,1,,,,,,
,,,,,,,,2023-08-16_08h42.49.667,HF_wild_card,2022.2.4,Win32,58.82352941,5a5b6255f6c5170001950ae0,64d2fd46c836a06233681665,64dc7df2fcf2642c89e295cd,,,,,,,decisionTrl,resources/DP.BMP,resources/DY.BMP,Door2,-0.149074074,0,1,0,0,0.73,optionLeft,40,5700,3,18,0,18,0,1,,,,,,
,,,,,,,,2023-08-16_08h42.49.667,HF_wild_card,2022.2.4,Win32,58.82352941,5a5b6255f6c5170001950ae0,64d2fd46c836a06233681665,64dc7df2fcf2642c89e295cd,,,,,,,sngl,resources/Empty.png,resources/DB.BMP,Door4,0.223148148,-0.012962963,1,0,0,0.447,optionRight,60,5760,3,19,0,19,0,1,,,,,,
,,,,,,,,2023-08-16_08h42.49.667,HF_wild_card,2022.2.4,Win32,58.82352941,5a5b6255f6c5170001950ae0,64d2fd46c836a06233681665,64dc7df2fcf2642c89e295cd,,,,,,,decisionTrl,resources/DY.BMP,resources/DP.BMP,Door2,0.280555556,-0.009259259,1,0,0,2.249,optionRight,20,5780,3,20,0,20,0,1,,,,,,
,,,,,,,,2023-08-16_08h42.49.667,HF_wild_card,2022.2.4,Win32,58.82352941,5a5b6255f6c5170001950ae0,64d2fd46c836a06233681665,64dc7df2fcf2642c89e295cd,,,,,,,sngl,resources/Empty.png,resources/DP.BMP,Door2,0.306481481,-0.006481481,1,0,0,0.43,optionRight,20,5800,3,21,0,21,0,1,,,,,,
,,,,,,,,2023-08-16_08h42.49.667,HF_wild_card,2022.2.4,Win32,58.82352941,5a5b6255f6c5170001950ae0,64d2fd46c836a06233681665,64dc7df2fcf2642c89e295cd,,,,,,,sngl,resources/DBN.BMP,resources/Empty.png,WildCard_NonEx,-0.136111111,0.002777778,1,0,0,0.513,optionLeft,45,5845,3,22,0,22,0,1,,,,,,
,,,,,,,,2023-08-16_08h42.49.667,HF_wild_card,2022.2.4,Win32,58.82352941,5a5b6255f6c5170001950ae0,64d2fd46c836a06233681665,64dc7df2fcf2642c89e295cd,,,,,,,decisionTrl,resources/DR.BMP,resources/DB.BMP,Door3,-0.194444444,-0.005555556,1,0,0,1.331,optionLeft,70,5915,3,23,0,23,0,1,,,,,,
,,,,,,,,2023-08-16_08h42.49.667,HF_wild_card,2022.2.4,Win32,58.82352941,5a5b6255f6c5170001950ae0,64d2fd46c836a06233681665,64dc7df2fcf2642c89e295cd,,,,,,,decisionTrl,resources/DY.BMP,resources/DP.BMP,Door1,-0.22037037,0.002777778,1,0,0,1.098,optionLeft,30,5945,3,24,0,24,0,1,,,,,,
,,,,,,,,2023-08-16_08h42.49.667,HF_wild_card,2022.2.4,Win32,58.82352941,5a5b6255f6c5170001950ae0,64d2fd46c836a06233681665,64dc7df2fcf2642c89e295cd,,,,,,,decisionTrl,resources/DP.BMP,resources/DY.BMP,Door1,0.27962963,-0.011111111,1,0,0,0.847,optionRight,30,5975,3,25,0,25,0,1,,,,,,
,,,,,,,,2023-08-16_08h42.49.667,HF_wild_card,2022.2.4,Win32,58.82352941,5a5b6255f6c5170001950ae0,64d2fd46c836a06233681665,64dc7df2fcf2642c89e295cd,,,,,,,sngl,resources/Empty.png,resources/DR.BMP,Door3,0.163888889,-0.008333333,1,0,0,0.53,optionRight,70,6045,3,26,0,26,0,1,,,,,,
,,,,,,,,2023-08-16_08h42.49.667,HF_wild_card,2022.2.4,Win32,58.82352941,5a5b6255f6c5170001950ae0,64d2fd46c836a06233681665,64dc7df2fcf2642c89e295cd,,,,,,,ctch,resources/DP.BMP,resources/DR.BMP,Door3,0.199074074,-0.015740741,1,0,0,1.265,optionRight,70,6115,3,27,0,27,0,1,,,,,,
,,,,,,,,2023-08-16_08h42.49.667,HF_wild_card,2022.2.4,Win32,58.82352941,5a5b6255f6c5170001950ae0,64d2fd46c836a06233681665,64dc7df2fcf2642c89e295cd,,,,,,,sngl,resources/Empty.png,resources/DBN.BMP,WildCard_NonEx,0.151851852,0.000925926,1,0,0,0.53,optionRight,45,6160,3,28,0,28,0,1,,,,,,
,,,,,,,,2023-08-16_08h42.49.667,HF_wild_card,2022.2.4,Win32,58.82352941,5a5b6255f6c5170001950ae0,64d2fd46c836a06233681665,64dc7df2fcf2642c89e295cd,,,,,,,ctch,resources/DY.BMP,resources/DB.BMP,Door4,0.168518519,0,1,0,0,1.048,optionRight,80,6240,3,29,0,29,0,1,,,,,,
,,,,,,,,2023-08-16_08h42.49.667,HF_wild_card,2022.2.4,Win32,58.82352941,5a5b6255f6c5170001950ae0,64d2fd46c836a06233681665,64dc7df2fcf2642c89e295cd,,,,,,,decisionTrl,resources/DBN.BMP,resources/DP.BMP,WildCard_NonEx,-0.247222222,0.010185185,1,0,0,1.364,optionLeft,45,6285,3,30,0,30,0,1,,,,,,
,,,,,,,,2023-08-16_08h42.49.667,HF_wild_card,2022.2.4,Win32,58.82352941,5a5b6255f6c5170001950ae0,64d2fd46c836a06233681665,64dc7df2fcf2642c89e295cd,,,,,,,decisionTrl,resources/DB.BMP,resources/DR.BMP,Door3,0.173148148,-0.001851852,1,0,0,1.031,optionRight,70,6355,3,31,0,31,0,1,,,,,,
,,,,,,,,2023-08-16_08h42.49.667,HF_wild_card,2022.2.4,Win32,58.82352941,5a5b6255f6c5170001950ae0,64d2fd46c836a06233681665,64dc7df2fcf2642c89e295cd,,,,,,,ctch,resources/DP.BMP,resources/DR.BMP,Door3,0.132407407,-0.007407407,1,0,0,0.815,optionRight,70,6425,3,32,0,32,0,1,,,,,,
,,,,,,,,2023-08-16_08h42.49.667,HF_wild_card,2022.2.4,Win32,58.82352941,5a5b6255f6c5170001950ae0,64d2fd46c836a06233681665,64dc7df2fcf2642c89e295cd,,,,,,,decisionTrl,resources/DY.BMP,resources/DP.BMP,Door2,0.186111111,0.000925926,1,0,0,0.698,optionRight,20,6445,3,33,0,33,0,1,,,,,,
,,,,,,,,2023-08-16_08h42.49.667,HF_wild_card,2022.2.4,Win32,58.82352941,5a5b6255f6c5170001950ae0,64d2fd46c836a06233681665,64dc7df2fcf2642c89e295cd,,,,,,,decisionTrl,resources/DR.BMP,resources/DB.BMP,Door4,0.172222222,-0.005555556,1,0,0,0.748,optionRight,60,6505,3,34,0,34,0,1,,,,,,
,,,,,,,,2023-08-16_08h42.49.667,HF_wild_card,2022.2.4,Win32,58.82352941,5a5b6255f6c5170001950ae0,64d2fd46c836a06233681665,64dc7df2fcf2642c89e295cd,,,,,,,sngl,resources/DY.BMP,resources/Empty.png,Door1,-0.178703704,-0.00462963,1,0,0,0.514,optionLeft,30,6535,3,35,0,35,0,1,,,,,,
,,,,,,,,2023-08-16_08h42.49.667,HF_wild_card,2022.2.4,Win32,58.82352941,5a5b6255f6c5170001950ae0,64d2fd46c836a06233681665,64dc7df2fcf2642c89e295cd,,,,,,,ctch,resources/DR.BMP,resources/DP.BMP,Door2,0.178703704,-0.015740741,1,0,0,1.114,optionRight,20,6555,3,36,0,36,0,1,,,,,,
,,,,,,,,2023-08-16_08h42.49.667,HF_wild_card,2022.2.4,Win32,58.82352941,5a5b6255f6c5170001950ae0,64d2fd46c836a06233681665,64dc7df2fcf2642c89e295cd,,,,,,,decisionTrl,resources/DB.BMP,resources/DBN.BMP,Door4,-0.148148148,-0.008333333,1,0,0,0.997,optionLeft,80,6635,3,37,0,37,0,1,,,,,,
,,,,,,,,2023-08-16_08h42.49.667,HF_wild_card,2022.2.4,Win32,58.82352941,5a5b6255f6c5170001950ae0,64d2fd46c836a06233681665,64dc7df2fcf2642c89e295cd,,,,,,,decisionTrl,resources/DP.BMP,resources/DY.BMP,Door2,-0.213888889,0.001851852,1,0,0,2.249,optionLeft,40,6675,3,38,0,38,0,1,,,,,,
,,,,,,,,2023-08-16_08h42.49.667,HF_wild_card,2022.2.4,Win32,58.82352941,5a5b6255f6c5170001950ae0,64d2fd46c836a06233681665,64dc7df2fcf2642c89e295cd,,,,,,,ctch,resources/DR.BMP,resources/DP.BMP,Door3,-0.162962963,0.001851852,1,0,0,0.747,optionLeft,70,6745,3,39,0,39,0,1,,,,,,
,,,,,,,,2023-08-16_08h42.49.667,HF_wild_card,2022.2.4,Win32,58.82352941,5a5b6255f6c5170001950ae0,64d2fd46c836a06233681665,64dc7df2fcf2642c89e295cd,,,,,,,decisionTrl,resources/DBN.BMP,resources/DB.BMP,Door4,0.29537037,-0.008333333,1,0,0,0.965,optionRight,60,6805,3,40,0,40,0,1,,,,,,
,,,,,,,,2023-08-16_08h42.49.667,HF_wild_card,2022.2.4,Win32,58.82352941,5a5b6255f6c5170001950ae0,64d2fd46c836a06233681665,64dc7df2fcf2642c89e295cd,,,,,,,decisionTrl,resources/DR.BMP,resources/DBN.BMP,Door3,-0.208333333,0.005555556,1,0,0,0.93,optionLeft,70,6875,3,41,0,41,0,1,,,,,,
,,,,,,,,2023-08-16_08h42.49.667,HF_wild_card,2022.2.4,Win32,58.82352941,5a5b6255f6c5170001950ae0,64d2fd46c836a06233681665,64dc7df2fcf2642c89e295cd,,,,,,,decisionTrl,resources/DB.BMP,resources/DR.BMP,Door3,0.248148148,0,1,0,0,0.83,optionRight,70,6945,3,42,0,42,0,1,,,,,,
,,,,,,,,2023-08-16_08h42.49.667,HF_wild_card,2022.2.4,Win32,58.82352941,5a5b6255f6c5170001950ae0,64d2fd46c836a06233681665,64dc7df2fcf2642c89e295cd,,,,,,,decisionTrl,resources/DR.BMP,resources/DB.BMP,Door3,-0.189814815,0.002777778,1,0,0,0.58,optionLeft,70,7015,3,43,0,43,0,1,,,,,,
,,,,,,,,2023-08-16_08h42.49.667,HF_wild_card,2022.2.4,Win32,58.82352941,5a5b6255f6c5170001950ae0,64d2fd46c836a06233681665,64dc7df2fcf2642c89e295cd,,,,,,,,,,,,,,,,,,,,,,,,,,2,0,2,0,1,
,,,,,,,,2023-08-16_08h42.49.667,HF_wild_card,2022.2.4,Win32,58.82352941,5a5b6255f6c5170001950ae0,64d2fd46c836a06233681665,64dc7df2fcf2642c89e295cd,,,,,,,ctch,resources/DR.BMP,resources/DP.BMP,Door3,-0.119444444,-0.058333333,1,0,0,0.796,optionLeft,70,7085,4,0,0,0,0,1,,,,,,
,,,,,,,,2023-08-16_08h42.49.667,HF_wild_card,2022.2.4,Win32,58.82352941,5a5b6255f6c5170001950ae0,64d2fd46c836a06233681665,64dc7df2fcf2642c89e295cd,,,,,,,sngl,resources/DY.BMP,resources/Empty.png,Door1,-0.252777778,-0.008333333,1,0,0,0.413,optionLeft,30,7115,4,1,0,1,0,1,,,,,,
,,,,,,,,2023-08-16_08h42.49.667,HF_wild_card,2022.2.4,Win32,58.82352941,5a5b6255f6c5170001950ae0,64d2fd46c836a06233681665,64dc7df2fcf2642c89e295cd,,,,,,,sngl,resources/Empty.png,resources/DP.BMP,Door2,0.276851852,-0.016666667,1,0,0,0.43,optionRight,40,7155,4,2,0,2,0,1,,,,,,
,,,,,,,,2023-08-16_08h42.49.667,HF_wild_card,2022.2.4,Win32,58.82352941,5a5b6255f6c5170001950ae0,64d2fd46c836a06233681665,64dc7df2fcf2642c89e295cd,,,,,,,sngl,resources/DG.BMP,resources/Empty.png,WildCard_Ex,-0.198148148,-0.011111111,1,0,0,0.399,optionLeft,95,7250,4,3,0,3,0,1,,,,,,
,,,,,,,,2023-08-16_08h42.49.667,HF_wild_card,2022.2.4,Win32,58.82352941,5a5b6255f6c5170001950ae0,64d2fd46c836a06233681665,64dc7df2fcf2642c89e295cd,,,,,,,decisionTrl,resources/DP.BMP,resources/DY.BMP,Door2,-0.239814815,-0.013888889,1,0,0,1.315,optionLeft,20,7270,4,4,0,4,0,1,,,,,,
,,,,,,,,2023-08-16_08h42.49.667,HF_wild_card,2022.2.4,Win32,58.82352941,5a5b6255f6c5170001950ae0,64d2fd46c836a06233681665,64dc7df2fcf2642c89e295cd,,,,,,,decisionTrl,resources/DP.BMP,resources/DY.BMP,Door1,0.382407407,-0.024074074,1,0,0,0.514,optionRight,30,7300,4,5,0,5,0,1,,,,,,
,,,,,,,,2023-08-16_08h42.49.667,HF_wild_card,2022.2.4,Win32,58.82352941,5a5b6255f6c5170001950ae0,64d2fd46c836a06233681665,64dc7df2fcf2642c89e295cd,,,,,,,decisionTrl,resources/DR.BMP,resources/DB.BMP,Door3,-0.287962963,-0.006481481,1,0,0,0.747,optionLeft,70,7370,4,6,0,6,0,1,,,,,,
,,,,,,,,2023-08-16_08h42.49.667,HF_wild_card,2022.2.4,Win32,58.82352941,5a5b6255f6c5170001950ae0,64d2fd46c836a06233681665,64dc7df2fcf2642c89e295cd,,,,,,,decisionTrl,resources/DY.BMP,resources/DG.BMP,WildCard_Ex,0.463888889,-0.023148148,1,0,0,1.015,optionRight,95,7465,4,7,0,7,0,1,,,,,,
,,,,,,,,2023-08-16_08h42.49.667,HF_wild_card,2022.2.4,Win32,58.82352941,5a5b6255f6c5170001950ae0,64d2fd46c836a06233681665,64dc7df2fcf2642c89e295cd,,,,,,,decisionTrl,resources/DG.BMP,resources/DR.BMP,WildCard_Ex,-0.230555556,-0.012037037,1,0,0,0.546,optionLeft,5,7470,4,8,0,8,0,1,,,,,,
,,,,,,,,2023-08-16_08h42.49.667,HF_wild_card,2022.2.4,Win32,58.82352941,5a5b6255f6c5170001950ae0,64d2fd46c836a06233681665,64dc7df2fcf2642c89e295cd,,,,,,,decisionTrl,resources/DY.BMP,resources/DP.BMP,Door1,-0.226851852,-0.019444444,1,0,0,0.748,optionLeft,30,7500,4,9,0,9,0,1,,,,,,
,,,,,,,,2023-08-16_08h42.49.667,HF_wild_card,2022.2.4,Win32,58.82352941,5a5b6255f6c5170001950ae0,64d2fd46c836a06233681665,64dc7df2fcf2642c89e295cd,,,,,,,ctch,resources/DR.BMP,resources/DP.BMP,Door3,-0.237037037,-0.019444444,1,0,0,0.932,optionLeft,70,7570,4,10,0,10,0,1,,,,,,
,,,,,,,,2023-08-16_08h42.49.667,HF_wild_card,2022.2.4,Win32,58.82352941,5a5b6255f6c5170001950ae0,64d2fd46c836a06233681665,64dc7df2fcf2642c89e295cd,,,,,,,decisionTrl,resources/DB.BMP,resources/DG.BMP,WildCard_Ex,0.259259259,-0.005555556,1,0,0,0.514,optionRight,95,7665,4,11,0,11,0,1,,,,,,
,,,,,,,,2023-08-16_08h42.49.667,HF_wild_card,2022.2.4,Win32,58.82352941,5a5b6255f6c5170001950ae0,64d2fd46c836a06233681665,64dc7df2fcf2642c89e295cd,,,,,,,sngl,resources/Empty.png,resources/DG.BMP,WildCard_Ex,0.275,-0.012962963,1,0,0,0.447,optionRight,95,7760,4,12,0,12,0,1,,,,,,
,,,,,,,,2023-08-16_08h42.49.667,HF_wild_card,2022.2.4,Win32,58.82352941,5a5b6255f6c5170001950ae0,64d2fd46c836a06233681665,64dc7df2fcf2642c89e295cd,,,,,,,sngl,resources/Empty.png,resources/DB.BMP,Door4,0.196296296,-0.013888889,1,0,0,0.548,optionRight,80,7840,4,13,0,13,0,1,,,,,,
,,,,,,,,2023-08-16_08h42.49.667,HF_wild_card,2022.2.4,Win32,58.82352941,5a5b6255f6c5170001950ae0,64d2fd46c836a06233681665,64dc7df2fcf2642c89e295cd,,,,,,,sngl,resources/Empty.png,resources/DG.BMP,WildCard_Ex,0.225,-0.012037037,1,0,0,1.581,optionRight,5,7845,4,14,0,14,0,1,,,,,,
,,,,,,,,2023-08-16_08h42.49.667,HF_wild_card,2022.2.4,Win32,58.82352941,5a5b6255f6c5170001950ae0,64d2fd46c836a06233681665,64dc7df2fcf2642c89e295cd,,,,,,,decisionTrl,resources/DG.BMP,resources/DP.BMP,WildCard_Ex,-0.152777778,-0.001851852,1,0,0,0.53,optionLeft,95,7940,4,15,0,15,0,1,,,,,,
,,,,,,,,2023-08-16_08h42.49.667,HF_wild_card,2022.2.4,Win32,58.82352941,5a5b6255f6c5170001950ae0,64d2fd46c836a06233681665,64dc7df2fcf2642c89e295cd,,,,,,,ctch,resources/DY.BMP,resources/DB.BMP,Door4,0.207407407,-0.007407407,1,0,0,0.948,optionRight,60,8000,4,16,0,16,0,1,,,,,,
,,,,,,,,2023-08-16_08h42.49.667,HF_wild_card,2022.2.4,Win32,58.82352941,5a5b6255f6c5170001950ae0,64d2fd46c836a06233681665,64dc7df2fcf2642c89e295cd,,,,,,,decisionTrl,resources/DG.BMP,resources/DY.BMP,WildCard_Ex,-0.125,0.001851852,1,0,0,0.698,optionLeft,5,8005,4,17,0,17,0,1,,,,,,
,,,,,,,,2023-08-16_08h42.49.667,HF_wild_card,2022.2.4,Win32,58.82352941,5a5b6255f6c5170001950ae0,64d2fd46c836a06233681665,64dc7df2fcf2642c89e295cd,,,,,,,decisionTrl,resources/DY.BMP,resources/DP.BMP,Door1,-0.233333333,0,1,0,0,0.982,optionLeft,30,8035,4,18,0,18,0,1,,,,,,
,,,,,,,,2023-08-16_08h42.49.667,HF_wild_card,2022.2.4,Win32,58.82352941,5a5b6255f6c5170001950ae0,64d2fd46c836a06233681665,64dc7df2fcf2642c89e295cd,,,,,,,decisionTrl,resources/DR.BMP,resources/DG.BMP,WildCard_Ex,0.250925926,-0.012037037,1,0,0,0.596,optionRight,95,8130,4,19,0,19,0,1,,,,,,
,,,,,,,,2023-08-16_08h42.49.667,HF_wild_card,2022.2.4,Win32,58.82352941,5a5b6255f6c5170001950ae0,64d2fd46c836a06233681665,64dc7df2fcf2642c89e295cd,,,,,,,ctch,resources/DP.BMP,resources/DR.BMP,Door3,0.285185185,-0.009259259,1,0,0,0.747,optionRight,70,8200,4,20,0,20,0,1,,,,,,
,,,,,,,,2023-08-16_08h42.49.667,HF_wild_card,2022.2.4,Win32,58.82352941,5a5b6255f6c5170001950ae0,64d2fd46c836a06233681665,64dc7df2fcf2642c89e295cd,,,,,,,decisionTrl,resources/DP.BMP,resources/DY.BMP,Door1,0.242592593,-0.010185185,1,0,0,0.897,optionRight,30,8230,4,21,0,21,0,1,,,,,,
,,,,,,,,2023-08-16_08h42.49.667,HF_wild_card,2022.2.4,Win32,58.82352941,5a5b6255f6c5170001950ae0,64d2fd46c836a06233681665,64dc7df2fcf2642c89e295cd,,,,,,,ctch,resources/DY.BMP,resources/DB.BMP,Door4,0.219444444,-0.010185185,1,0,0,0.599,optionRight,80,8310,4,22,0,22,0,1,,,,,,
,,,,,,,,2023-08-16_08h42.49.667,HF_wild_card,2022.2.4,Win32,58.82352941,5a5b6255f6c5170001950ae0,64d2fd46c836a06233681665,64dc7df2fcf2642c89e295cd,,,,,,,decisionTrl,resources/DP.BMP,resources/DG.BMP,WildCard_Ex,0.275,-0.012037037,1,0,0,0.681,optionRight,5,8315,4,23,0,23,0,1,,,,,,
,,,,,,,,2023-08-16_08h42.49.667,HF_wild_card,2022.2.4,Win32,58.82352941,5a5b6255f6c5170001950ae0,64d2fd46c836a06233681665,64dc7df2fcf2642c89e295cd,,,,,,,decisionTrl,resources/DB.BMP,resources/DR.BMP,Door3,0.240740741,-0.019444444,1,0,0,0.481,optionRight,70,8385,4,24,0,24,0,1,,,,,,
,,,,,,,,2023-08-16_08h42.49.667,HF_wild_card,2022.2.4,Win32,58.82352941,5a5b6255f6c5170001950ae0,64d2fd46c836a06233681665,64dc7df2fcf2642c89e295cd,,,,,,,decisionTrl,resources/DP.BMP,resources/DY.BMP,Door2,-0.248148148,-0.005555556,1,0,0,0.813,optionLeft,40,8425,4,25,0,25,0,1,,,,,,
,,,,,,,,2023-08-16_08h42.49.667,HF_wild_card,2022.2.4,Win32,58.82352941,5a5b6255f6c5170001950ae0,64d2fd46c836a06233681665,64dc7df2fcf2642c89e295cd,,,,,,,ctch,resources/DB.BMP,resources/DY.BMP,Door4,-0.237037037,-0.005555556,1,0,0,0.798,optionLeft,60,8485,4,26,0,26,0,1,,,,,,
,,,,,,,,2023-08-16_08h42.49.667,HF_wild_card,2022.2.4,Win32,58.82352941,5a5b6255f6c5170001950ae0,64d2fd46c836a06233681665,64dc7df2fcf2642c89e295cd,,,,,,,decisionTrl,resources/DB.BMP,resources/DR.BMP,Door3,0.226851852,-0.012037037,1,0,0,0.578,optionRight,70,8555,4,27,0,27,0,1,,,,,,
,,,,,,,,2023-08-16_08h42.49.667,HF_wild_card,2022.2.4,Win32,58.82352941,5a5b6255f6c5170001950ae0,64d2fd46c836a06233681665,64dc7df2fcf2642c89e295cd,,,,,,,sngl,resources/DG.BMP,resources/Empty.png,WildCard_Ex,-0.175925926,-0.006481481,1,0,0,0.432,optionLeft,5,8560,4,28,0,28,0,1,,,,,,
,,,,,,,,2023-08-16_08h42.49.667,HF_wild_card,2022.2.4,Win32,58.82352941,5a5b6255f6c5170001950ae0,64d2fd46c836a06233681665,64dc7df2fcf2642c89e295cd,,,,,,,sngl,resources/Empty.png,resources/DY.BMP,Door1,0.390740741,-0.025925926,1,0,0,0.38,optionRight,30,8590,4,29,0,29,0,1,,,,,,
,,,,,,,,2023-08-16_08h42.49.667,HF_wild_card,2022.2.4,Win32,58.82352941,5a5b6255f6c5170001950ae0,64d2fd46c836a06233681665,64dc7df2fcf2642c89e295cd,,,,,,,decisionTrl,resources/DR.BMP,resources/DB.BMP,Door3,-0.17037037,-0.009259259,1,0,0,0.764,optionLeft,70,8660,4,30,0,30,0,1,,,,,,
,,,,,,,,2023-08-16_08h42.49.667,HF_wild_card,2022.2.4,Win32,58.82352941,5a5b6255f6c5170001950ae0,64d2fd46c836a06233681665,64dc7df2fcf2642c89e295cd,,,,,,,decisionTrl,resources/DG.BMP,resources/DB.BMP,Door4,0.237037037,-0.007407407,1,0,0,1.047,optionRight,80,8740,4,31,0,31,0,1,,,,,,
,,,,,,,,2023-08-16_08h42.49.667,HF_wild_card,2022.2.4,Win32,58.82352941,5a5b6255f6c5170001950ae0,64d2fd46c836a06233681665,64dc7df2fcf2642c89e295cd,,,,,,,ctch,resources/DB.BMP,resources/DY.BMP,Door4,-0.207407407,-0.005555556,1,0,0,0.597,optionLeft,60,8800,4,32,0,32,0,1,,,,,,
,,,,,,,,2023-08-16_08h42.49.667,HF_wild_card,2022.2.4,Win32,58.82352941,5a5b6255f6c5170001950ae0,64d2fd46c836a06233681665,64dc7df2fcf2642c89e295cd,,,,,,,decisionTrl,resources/DR.BMP,resources/DB.BMP,Door3,-0.163888889,-0.013888889,1,0,0,0.763,optionLeft,70,8870,4,33,0,33,0,1,,,,,,
,,,,,,,,2023-08-16_08h42.49.667,HF_wild_card,2022.2.4,Win32,58.82352941,5a5b6255f6c5170001950ae0,64d2fd46c836a06233681665,64dc7df2fcf2642c89e295cd,,,,,,,sngl,resources/Empty.png,resources/DR.BMP,Door3,0.203703704,-0.024074074,1,0,0,0.432,optionRight,70,8940,4,34,0,34,0,1,,,,,,
,,,,,,,,2023-08-16_08h42.49.667,HF_wild_card,2022.2.4,Win32,58.82352941,5a5b6255f6c5170001950ae0,64d2fd46c836a06233681665,64dc7df2fcf2642c89e295cd,,,,,,,decisionTrl,resources/DB.BMP,resources/DR.BMP,Door3,0.233333333,-0.012962963,1,0,0,0.598,optionRight,70,9010,4,35,0,35,0,1,,,,,,
,,,,,,,,2023-08-16_08h42.49.667,HF_wild_card,2022.2.4,Win32,58.82352941,5a5b6255f6c5170001950ae0,64d2fd46c836a06233681665,64dc7df2fcf2642c89e295cd,,,,,,,sngl,resources/DP.BMP,resources/Empty.png,Door2,-0.148148148,0.021296296,1,0,0,0.597,optionLeft,20,9030,4,36,0,36,0,1,,,,,,
,,,,,,,,2023-08-16_08h42.49.667,HF_wild_card,2022.2.4,Win32,58.82352941,5a5b6255f6c5170001950ae0,64d2fd46c836a06233681665,64dc7df2fcf2642c89e295cd,,,,,,,ctch,resources/DP.BMP,resources/DR.BMP,Door3,0.253703704,-0.011111111,1,0,0,0.364,optionRight,70,9100,4,37,0,37,0,1,,,,,,
,,,,,,,,2023-08-16_08h42.49.667,HF_wild_card,2022.2.4,Win32,58.82352941,5a5b6255f6c5170001950ae0,64d2fd46c836a06233681665,64dc7df2fcf2642c89e295cd,,,,,,,decisionTrl,resources/DY.BMP,resources/DP.BMP,Door2,0.249074074,0.000925926,1,0,0,1.148,optionRight,20,9120,4,38,0,38,0,1,,,,,,
,,,,,,,,2023-08-16_08h42.49.667,HF_wild_card,2022.2.4,Win32,58.82352941,5a5b6255f6c5170001950ae0,64d2fd46c836a06233681665,64dc7df2fcf2642c89e295cd,,,,,,,sngl,resources/DR.BMP,resources/Empty.png,Door3,-0.184259259,0.002777778,1,0,0,0.414,optionLeft,70,9190,4,39,0,39,0,1,,,,,,
,,,,,,,,2023-08-16_08h42.49.667,HF_wild_card,2022.2.4,Win32,58.82352941,5a5b6255f6c5170001950ae0,64d2fd46c836a06233681665,64dc7df2fcf2642c89e295cd,,,,,,,decisionTrl,resources/DB.BMP,resources/DR.BMP,Door4,-0.189814815,0.003703704,1,0,0,0.764,optionLeft,60,9250,4,40,0,40,0,1,,,,,,
,,,,,,,,2023-08-16_08h42.49.667,HF_wild_card,2022.2.4,Win32,58.82352941,5a5b6255f6c5170001950ae0,64d2fd46c836a06233681665,64dc7df2fcf2642c89e295cd,,,,,,,decisionTrl,resources/DR.BMP,resources/DB.BMP,Door4,0.271296296,-0.015740741,1,0,0,0.646,optionRight,80,9330,4,41,0,41,0,1,,,,,,
,,,,,,,,2023-08-16_08h42.49.667,HF_wild_card,2022.2.4,Win32,58.82352941,5a5b6255f6c5170001950ae0,64d2fd46c836a06233681665,64dc7df2fcf2642c89e295cd,,,,,,,sngl,resources/DB.BMP,resources/Empty.png,Door4,-0.147222222,-0.009259259,1,0,0,0.429,optionLeft,60,9390,4,42,0,42,0,1,,,,,,
,,,,,,,,2023-08-16_08h42.49.667,HF_wild_card,2022.2.4,Win32,58.82352941,5a5b6255f6c5170001950ae0,64d2fd46c836a06233681665,64dc7df2fcf2642c89e295cd,,,,,,,decisionTrl,resources/DY.BMP,resources/DP.BMP,Door2,0.285185185,-0.026851852,1,0,0,0.582,optionRight,20,9410,4,43,0,43,0,1,,,,,,
,,,,,,,,2023-08-16_08h42.49.667,HF_wild_card,2022.2.4,Win32,58.82352941,5a5b6255f6c5170001950ae0,64d2fd46c836a06233681665,64dc7df2fcf2642c89e295cd,,,,,,,,,,,,,,,,,,,,,,,,,,3,0,3,0,1,
,,,,,,,,2023-08-16_08h42.49.667,HF_wild_card,2022.2.4,Win32,58.82352941,5a5b6255f6c5170001950ae0,64d2fd46c836a06233681665,64dc7df2fcf2642c89e295cd,,,,,,,sngl,resources/Empty.png,resources/DG.BMP,WildCard_Ex,0.274074074,-0.056481481,1,0,0,0.495,optionRight,5,9415,5,0,0,0,0,1,,,,,,
,,,,,,,,2023-08-16_08h42.49.667,HF_wild_card,2022.2.4,Win32,58.82352941,5a5b6255f6c5170001950ae0,64d2fd46c836a06233681665,64dc7df2fcf2642c89e295cd,,,,,,,decisionTrl,resources/DR.BMP,resources/DG.BMP,WildCard_Ex,0.232407407,-0.021296296,1,0,0,1.249,optionRight,5,9420,5,1,0,1,0,1,,,,,,
,,,,,,,,2023-08-16_08h42.49.667,HF_wild_card,2022.2.4,Win32,58.82352941,5a5b6255f6c5170001950ae0,64d2fd46c836a06233681665,64dc7df2fcf2642c89e295cd,,,,,,,decisionTrl,resources/DB.BMP,resources/DR.BMP,Door3,0.196296296,-0.016666667,1,0,0,0.614,optionRight,70,9490,5,2,0,2,0,1,,,,,,
,,,,,,,,2023-08-16_08h42.49.667,HF_wild_card,2022.2.4,Win32,58.82352941,5a5b6255f6c5170001950ae0,64d2fd46c836a06233681665,64dc7df2fcf2642c89e295cd,,,,,,,ctch,resources/DY.BMP,resources/DB.BMP,Door4,0.167592593,-0.021296296,1,0,0,0.899,optionRight,80,9570,5,3,0,3,0,1,,,,,,
,,,,,,,,2023-08-16_08h42.49.667,HF_wild_card,2022.2.4,Win32,58.82352941,5a5b6255f6c5170001950ae0,64d2fd46c836a06233681665,64dc7df2fcf2642c89e295cd,,,,,,,decisionTrl,resources/DP.BMP,resources/DY.BMP,Door1,0.189814815,-0.00462963,1,0,0,1.349,optionRight,30,9600,5,4,0,4,0,1,,,,,,
,,,,,,,,2023-08-16_08h42.49.667,HF_wild_card,2022.2.4,Win32,58.82352941,5a5b6255f6c5170001950ae0,64d2fd46c836a06233681665,64dc7df2fcf2642c89e295cd,,,,,,,ctch,resources/DB.BMP,resources/DY.BMP,Door4,-0.158333333,0,1,0,0,0.748,optionLeft,80,9680,5,5,0,5,0,1,,,,,,
,,,,,,,,2023-08-16_08h42.49.667,HF_wild_card,2022.2.4,Win32,58.82352941,5a5b6255f6c5170001950ae0,64d2fd46c836a06233681665,64dc7df2fcf2642c89e295cd,,,,,,,decisionTrl,resources/DY.BMP,resources/DP.BMP,Door2,0.162037037,-0.008333333,1,0,0,0.68,optionRight,40,9720,5,6,0,6,0,1,,,,,,
,,,,,,,,2023-08-16_08h42.49.667,HF_wild_card,2022.2.4,Win32,58.82352941,5a5b6255f6c5170001950ae0,64d2fd46c836a06233681665,64dc7df2fcf2642c89e295cd,,,,,,,decisionTrl,resources/DG.BMP,resources/DB.BMP,WildCard_Ex,-0.155555556,-0.008333333,1,0,0,0.497,optionLeft,95,9815,5,7,0,7,0,1,,,,,,
,,,,,,,,2023-08-16_08h42.49.667,HF_wild_card,2022.2.4,Win32,58.82352941,5a5b6255f6c5170001950ae0,64d2fd46c836a06233681665,64dc7df2fcf2642c89e295cd,,,,,,,decisionTrl,resources/DG.BMP,resources/DY.BMP,WildCard_Ex,-0.188888889,-0.009259259,1,0,0,0.447,optionLeft,5,9820,5,8,0,8,0,1,,,,,,
,,,,,,,,2023-08-16_08h42.49.667,HF_wild_card,2022.2.4,Win32,58.82352941,5a5b6255f6c5170001950ae0,64d2fd46c836a06233681665,64dc7df2fcf2642c89e295cd,,,,,,,decisionTrl,resources/DB.BMP,resources/DR.BMP,Door3,0.331481481,-0.011111111,1,0,0,0.766,optionRight,70,9890,5,9,0,9,0,1,,,,,,
,,,,,,,,2023-08-16_08h42.49.667,HF_wild_card,2022.2.4,Win32,58.82352941,5a5b6255f6c5170001950ae0,64d2fd46c836a06233681665,64dc7df2fcf2642c89e295cd,,,,,,,decisionTrl,resources/DP.BMP,resources/DY.BMP,Door1,0.201851852,-0.00462963,1,0,0,1.179,optionRight,30,9920,5,10,0,10,0,1,,,,,,
,,,,,,,,2023-08-16_08h42.49.667,HF_wild_card,2022.2.4,Win32,58.82352941,5a5b6255f6c5170001950ae0,64d2fd46c836a06233681665,64dc7df2fcf2642c89e295cd,,,,,,,sngl,resources/Empty.png,resources/DB.BMP,Door4,0.225925926,-0.00462963,1,0,0,0.481,optionRight,60,9980,5,11,0,11,0,1,,,,,,
,,,,,,,,2023-08-16_08h42.49.667,HF_wild_card,2022.2.4,Win32,58.82352941,5a5b6255f6c5170001950ae0,64d2fd46c836a06233681665,64dc7df2fcf2642c89e295cd,,,,,,,decisionTrl,resources/DB.BMP,resources/DR.BMP,Door3,0.237962963,0.001851852,1,0,0,0.546,optionRight,70,10050,5,12,0,12,0,1,,,,,,
,,,,,,,,2023-08-16_08h42.49.667,HF_wild_card,2022.2.4,Win32,58.82352941,5a5b6255f6c5170001950ae0,64d2fd46c836a06233681665,64dc7df2fcf2642c89e295cd,,,,,,,decisionTrl,resources/DB.BMP,resources/DR.BMP,Door3,0.27037037,0.008333333,1,0,0,0.531,optionRight,70,10120,5,13,0,13,0,1,,,,,,
,,,,,,,,2023-08-16_08h42.49.667,HF_wild_card,2022.2.4,Win32,58.82352941,5a5b6255f6c5170001950ae0,64d2fd46c836a06233681665,64dc7df2fcf2642c89e295cd,,,,,,,decisionTrl,resources/DP.BMP,resources/DY.BMP,Door1,0.125925926,-0.000925926,1,0,0,1.014,optionRight,30,10150,5,14,0,14,0,1,,,,,,
,,,,,,,,2023-08-16_08h42.49.667,HF_wild_card,2022.2.4,Win32,58.82352941,5a5b6255f6c5170001950ae0,64d2fd46c836a06233681665,64dc7df2fcf2642c89e295cd,,,,,,,decisionTrl,resources/DY.BMP,resources/DG.BMP,WildCard_Ex,0.2,0.003703704,1,0,0,0.514,optionRight,5,10155,5,15,0,15,0,1,,,,,,
,,,,,,,,2023-08-16_08h42.49.667,HF_wild_card,2022.2.4,Win32,58.82352941,5a5b6255f6c5170001950ae0,64d2fd46c836a06233681665,64dc7df2fcf2642c89e295cd,,,,,,,ctch,resources/DP.BMP,resources/DR.BMP,Door3,0.210185185,0.003703704,1,0,0,0.648,optionRight,70,10225,5,16,0,16,0,1,,,,,,
,,,,,,,,2023-08-16_08h42.49.667,HF_wild_card,2022.2.4,Win32,58.82352941,5a5b6255f6c5170001950ae0,64d2fd46c836a06233681665,64dc7df2fcf2642c89e295cd,,,,,,,ctch,resources/DY.BMP,resources/DB.BMP,Door4,0.325925926,-0.007407407,1,0,0,0.715,optionRight,80,10305,5,17,0,17,0,1,,,,,,
,,,,,,,,2023-08-16_08h42.49.667,HF_wild_card,2022.2.4,Win32,58.82352941,5a5b6255f6c5170001950ae0,64d2fd46c836a06233681665,64dc7df2fcf2642c89e295cd,,,,,,,decisionTrl,resources/DR.BMP,resources/DB.BMP,Door4,0.244444444,0.002777778,1,0,0,0.729,optionRight,60,10365,5,18,0,18,0,1,,,,,,
,,,,,,,,2023-08-16_08h42.49.667,HF_wild_card,2022.2.4,Win32,58.82352941,5a5b6255f6c5170001950ae0,64d2fd46c836a06233681665,64dc7df2fcf2642c89e295cd,,,,,,,ctch,resources/DR.BMP,resources/DP.BMP,Door3,-0.098148148,0.00462963,1,0,0,0.681,optionLeft,70,10435,5,19,0,19,0,1,,,,,,
,,,,,,,,2023-08-16_08h42.49.667,HF_wild_card,2022.2.4,Win32,58.82352941,5a5b6255f6c5170001950ae0,64d2fd46c836a06233681665,64dc7df2fcf2642c89e295cd,,,,,,,decisionTrl,resources/DP.BMP,resources/DG.BMP,WildCard_Ex,0.307407407,0,1,0,0,0.964,optionRight,95,10530,5,20,0,20,0,1,,,,,,
,,,,,,,,2023-08-16_08h42.49.667,HF_wild_card,2022.2.4,Win32,58.82352941,5a5b6255f6c5170001950ae0,64d2fd46c836a06233681665,64dc7df2fcf2642c89e295cd,,,,,,,ctch,resources/DR.BMP,resources/DP.BMP,Door3,-0.177777778,0.005555556,1,0,0,0.879,optionLeft,70,10600,5,21,0,21,0,1,,,,,,
,,,,,,,,2023-08-16_08h42.49.667,HF_wild_card,2022.2.4,Win32,58.82352941,5a5b6255f6c5170001950ae0,64d2fd46c836a06233681665,64dc7df2fcf2642c89e295cd,,,,,,,ctch,resources/DB.BMP,resources/DY.BMP,Door4,-0.216666667,0.009259259,1,0,0,0.73,optionLeft,80,10680,5,22,0,22,0,1,,,,,,
,,,,,,,,2023-08-16_08h42.49.667,HF_wild_card,2022.2.4,Win32,58.82352941,5a5b6255f6c5170001950ae0,64d2fd46c836a06233681665,64dc7df2fcf2642c89e295cd,,,,,,,sngl,resources/DB.BMP,resources/Empty.png,Door4,-0.176851852,0.000925926,1,0,0,0.448,optionLeft,80,10760,5,23,0,23,0,1,,,,,,
,,,,,,,,2023-08-16_08h42.49.667,HF_wild_card,2022.2.4,Win32,58.82352941,5a5b6255f6c5170001950ae0,64d2fd46c836a06233681665,64dc7df2fcf2642c89e295cd,,,,,,,sngl,resources/DP.BMP,resources/Empty.png,Door2,-0.22037037,-0.000925926,1,0,0,0.414,optionLeft,40,10800,5,24,0,24,0,1,,,,,,
,,,,,,,,2023-08-16_08h42.49.667,HF_wild_card,2022.2.4,Win32,58.82352941,5a5b6255f6c5170001950ae0,64d2fd46c836a06233681665,64dc7df2fcf2642c89e295cd,,,,,,,sngl,resources/Empty.png,resources/DY.BMP,Door1,0.225,-0.001851852,1,0,0,0.43,optionRight,30,10830,5,25,0,25,0,1,,,,,,
,,,,,,,,2023-08-16_08h42.49.667,HF_wild_card,2022.2.4,Win32,58.82352941,5a5b6255f6c5170001950ae0,64d2fd46c836a06233681665,64dc7df2fcf2642c89e295cd,,,,,,,decisionTrl,resources/DR.BMP,resources/DB.BMP,Door3,-0.235185185,-0.002777778,1,0,0,0.93,optionLeft,70,10900,5,26,0,26,0,1,,,,,,
,,,,,,,,2023-08-16_08h42.49.667,HF_wild_card,2022.2.4,Win32,58.82352941,5a5b6255f6c5170001950ae0,64d2fd46c836a06233681665,64dc7df2fcf2642c89e295cd,,,,,,,decisionTrl,resources/DB.BMP,resources/DG.BMP,WildCard_Ex,0.435185185,-0.006481481,1,0,0,0.998,optionRight,95,10995,5,27,0,27,0,1,,,,,,
,,,,,,,,2023-08-16_08h42.49.667,HF_wild_card,2022.2.4,Win32,58.82352941,5a5b6255f6c5170001950ae0,64d2fd46c836a06233681665,64dc7df2fcf2642c89e295cd,,,,,,,decisionTrl,resources/DG.BMP,resources/DP.BMP,WildCard_Ex,-0.168518519,0.007407407,1,0,0,0.68,optionLeft,95,11090,5,28,0,28,0,1,,,,,,
,,,,,,,,2023-08-16_08h42.49.667,HF_wild_card,2022.2.4,Win32,58.82352941,5a5b6255f6c5170001950ae0,64d2fd46c836a06233681665,64dc7df2fcf2642c89e295cd,,,,,,,sngl,resources/DG.BMP,resources/Empty.png,WildCard_Ex,-0.234259259,0.011111111,1,0,0,0.414,optionLeft,5,11095,5,29,0,29,0,1,,,,,,
,,,,,,,,2023-08-16_08h42.49.667,HF_wild_card,2022.2.4,Win32,58.82352941,5a5b6255f6c5170001950ae0,64d2fd46c836a06233681665,64dc7df2fcf2642c89e295cd,,,,,,,sngl,resources/Empty.png,resources/DP.BMP,Door2,0.364814815,-0.003703704,1,0,0,0.431,optionRight,20,11115,5,30,0,30,0,1,,,,,,
,,,,,,,,2023-08-16_08h42.49.667,HF_wild_card,2022.2.4,Win32,58.82352941,5a5b6255f6c5170001950ae0,64d2fd46c836a06233681665,64dc7df2fcf2642c89e295cd,,,,,,,ctch,resources/DP.BMP,resources/DR.BMP,Door3,0.198148148,0.009259259,1,0,0,0.714,optionRight,70,11185,5,31,0,31,0,1,,,,,,
,,,,,,,,2023-08-16_08h42.49.667,HF_wild_card,2022.2.4,Win32,58.82352941,5a5b6255f6c5170001950ae0,64d2fd46c836a06233681665,64dc7df2fcf2642c89e295cd,,,,,,,sngl,resources/DG.BMP,resources/Empty.png,WildCard_Ex,-0.116666667,0.008333333,1,0,0,0.464,optionLeft,95,11280,5,32,0,32,0,1,,,,,,
,,,,,,,,2023-08-16_08h42.49.667,HF_wild_card,2022.2.4,Win32,58.82352941,5a5b6255f6c5170001950ae0,64d2fd46c836a06233681665,64dc7df2fcf2642c89e295cd,,,,,,,sngl,resources/DR.BMP,resources/Empty.png,Door3,-0.149074074,0.009259259,1,0,0,0.429,optionLeft,70,11350,5,33,0,33,0,1,,,,,,
,,,,,,,,2023-08-16_08h42.49.667,HF_wild_card,2022.2.4,Win32,58.82352941,5a5b6255f6c5170001950ae0,64d2fd46c836a06233681665,64dc7df2fcf2642c89e295cd,,,,,,,decisionTrl,resources/DY.BMP,resources/DP.BMP,Door1,-0.127777778,-0.00462963,1,0,0,0.748,optionLeft,30,11380,5,34,0,34,0,1,,,,,,
,,,,,,,,2023-08-16_08h42.49.667,HF_wild_card,2022.2.4,Win32,58.82352941,5a5b6255f6c5170001950ae0,64d2fd46c836a06233681665,64dc7df2fcf2642c89e295cd,,,,,,,decisionTrl,resources/DR.BMP,resources/DB.BMP,Door3,-0.212037037,-0.008333333,1,0,0,0.698,optionLeft,70,11450,5,35,0,35,0,1,,,,,,
,,,,,,,,2023-08-16_08h42.49.667,HF_wild_card,2022.2.4,Win32,58.82352941,5a5b6255f6c5170001950ae0,64d2fd46c836a06233681665,64dc7df2fcf2642c89e295cd,,,,,,,decisionTrl,resources/DY.BMP,resources/DP.BMP,Door1,-0.218518519,0,1,0,0,1.631,optionLeft,30,11480,5,36,0,36,0,1,,,,,,
,,,,,,,,2023-08-16_08h42.49.667,HF_wild_card,2022.2.4,Win32,58.82352941,5a5b6255f6c5170001950ae0,64d2fd46c836a06233681665,64dc7df2fcf2642c89e295cd,,,,,,,sngl,resources/Empty.png,resources/DR.BMP,Door3,0.150925926,-0.012037037,1,0,0,0.465,optionRight,70,11550,5,37,0,37,0,1,,,,,,
,,,,,,,,2023-08-16_08h42.49.667,HF_wild_card,2022.2.4,Win32,58.82352941,5a5b6255f6c5170001950ae0,64d2fd46c836a06233681665,64dc7df2fcf2642c89e295cd,,,,,,,decisionTrl,resources/DR.BMP,resources/DB.BMP,Door3,-0.280555556,-0.000925926,1,0,0,0.664,optionLeft,70,11620,5,38,0,38,0,1,,,,,,
,,,,,,,,2023-08-16_08h42.49.667,HF_wild_card,2022.2.4,Win32,58.82352941,5a5b6255f6c5170001950ae0,64d2fd46c836a06233681665,64dc7df2fcf2642c89e295cd,,,,,,,sngl,resources/Empty.png,resources/DG.BMP,WildCard_Ex,0.285185185,-0.013888889,1,0,0,0.414,optionRight,95,11715,5,39,0,39,0,1,,,,,,
,,,,,,,,2023-08-16_08h42.49.667,HF_wild_card,2022.2.4,Win32,58.82352941,5a5b6255f6c5170001950ae0,64d2fd46c836a06233681665,64dc7df2fcf2642c89e295cd,,,,,,,decisionTrl,resources/DG.BMP,resources/DR.BMP,WildCard_Ex,-0.29537037,-0.011111111,1,0,0,0.596,optionLeft,5,11720,5,40,0,40,0,1,,,,,,
,,,,,,,,2023-08-16_08h42.49.667,HF_wild_card,2022.2.4,Win32,58.82352941,5a5b6255f6c5170001950ae0,64d2fd46c836a06233681665,64dc7df2fcf2642c89e295cd,,,,,,,decisionTrl,resources/DY.BMP,resources/DP.BMP,Door2,0.212962963,-0.013888889,1,0,0,1.065,optionRight,40,11760,5,41,0,41,0,1,,,,,,
,,,,,,,,2023-08-16_08h42.49.667,HF_wild_card,2022.2.4,Win32,58.82352941,5a5b6255f6c5170001950ae0,64d2fd46c836a06233681665,64dc7df2fcf2642c89e295cd,,,,,,,decisionTrl,resources/DP.BMP,resources/DY.BMP,Door2,-0.186111111,-0.000925926,1,0,0,1.347,optionLeft,40,11800,5,42,0,42,0,1,,,,,,
,,,,,,,,2023-08-16_08h42.49.667,HF_wild_card,2022.2.4,Win32,58.82352941,5a5b6255f6c5170001950ae0,64d2fd46c836a06233681665,64dc7df2fcf2642c89e295cd,,,,,,,sngl,resources/DY.BMP,resources/Empty.png,Door1,-0.178703704,-0.00462963,1,0,0,0.432,optionLeft,30,11830,5,43,0,43,0,1,,,,,,
,,,,,,,,2023-08-16_08h42.49.667,HF_wild_card,2022.2.4,Win32,58.82352941,5a5b6255f6c5170001950ae0,64d2fd46c836a06233681665,64dc7df2fcf2642c89e295cd,,,,,,,,,,,,,,,,,,,,,,,,,,4,0,4,0,1,
,,,,,,,,2023-08-16_08h42.49.667,HF_wild_card,2022.2.4,Win32,58.82352941,5a5b6255f6c5170001950ae0,64d2fd46c836a06233681665,64dc7df2fcf2642c89e295cd,,,,,,,sngl,resources/DG.BMP,resources/Empty.png,WildCard_Ex,-0.275,-0.044444444,1,0,0,1.446,optionLeft,5,11835,6,0,0,0,0,1,,,,,,
,,,,,,,,2023-08-16_08h42.49.667,HF_wild_card,2022.2.4,Win32,58.82352941,5a5b6255f6c5170001950ae0,64d2fd46c836a06233681665,64dc7df2fcf2642c89e295cd,,,,,,,sngl,resources/DP.BMP,resources/Empty.png,Door2,-0.188888889,-0.018518519,1,0,0,0.413,optionLeft,20,11855,6,1,0,1,0,1,,,,,,
,,,,,,,,2023-08-16_08h42.49.667,HF_wild_card,2022.2.4,Win32,58.82352941,5a5b6255f6c5170001950ae0,64d2fd46c836a06233681665,64dc7df2fcf2642c89e295cd,,,,,,,sngl,resources/Empty.png,resources/DG.BMP,WildCard_Ex,0.161111111,0.000925926,1,0,0,0.413,optionRight,95,11950,6,2,0,2,0,1,,,,,,
,,,,,,,,2023-08-16_08h42.49.667,HF_wild_card,2022.2.4,Win32,58.82352941,5a5b6255f6c5170001950ae0,64d2fd46c836a06233681665,64dc7df2fcf2642c89e295cd,,,,,,,decisionTrl,resources/DB.BMP,resources/DR.BMP,Door3,0.228703704,0.001851852,1,0,0,0.765,optionRight,70,12020,6,3,0,3,0,1,,,,,,
,,,,,,,,2023-08-16_08h42.49.667,HF_wild_card,2022.2.4,Win32,58.82352941,5a5b6255f6c5170001950ae0,64d2fd46c836a06233681665,64dc7df2fcf2642c89e295cd,,,,,,,decisionTrl,resources/DP.BMP,resources/DG.BMP,WildCard_Ex,0.187037037,-0.002777778,1,0,0,1.299,optionRight,95,12115,6,4,0,4,0,1,,,,,,
,,,,,,,,2023-08-16_08h42.49.667,HF_wild_card,2022.2.4,Win32,58.82352941,5a5b6255f6c5170001950ae0,64d2fd46c836a06233681665,64dc7df2fcf2642c89e295cd,,,,,,,decisionTrl,resources/DB.BMP,resources/DR.BMP,Door3,0.208333333,-0.00462963,1,0,0,0.613,optionRight,70,12185,6,5,0,5,0,1,,,,,,
,,,,,,,,2023-08-16_08h42.49.667,HF_wild_card,2022.2.4,Win32,58.82352941,5a5b6255f6c5170001950ae0,64d2fd46c836a06233681665,64dc7df2fcf2642c89e295cd,,,,,,,sngl,resources/Empty.png,resources/DR.BMP,Door3,0.14537037,-0.002777778,1,0,0,0.398,optionRight,70,12255,6,6,0,6,0,1,,,,,,
,,,,,,,,2023-08-16_08h42.49.667,HF_wild_card,2022.2.4,Win32,58.82352941,5a5b6255f6c5170001950ae0,64d2fd46c836a06233681665,64dc7df2fcf2642c89e295cd,,,,,,,ctch,resources/DY.BMP,resources/DB.BMP,Door4,0.187037037,-0.006481481,1,0,0,0.716,optionRight,80,12335,6,7,0,7,0,1,,,,,,
,,,,,,,,2023-08-16_08h42.49.667,HF_wild_card,2022.2.4,Win32,58.82352941,5a5b6255f6c5170001950ae0,64d2fd46c836a06233681665,64dc7df2fcf2642c89e295cd,,,,,,,decisionTrl,resources/DR.BMP,resources/DG.BMP,Door3,-0.176851852,0.002777778,1,0,0,1.181,optionLeft,70,12405,6,8,0,8,0,1,,,,,,
,,,,,,,,2023-08-16_08h42.49.667,HF_wild_card,2022.2.4,Win32,58.82352941,5a5b6255f6c5170001950ae0,64d2fd46c836a06233681665,64dc7df2fcf2642c89e295cd,,,,,,,decisionTrl,resources/DG.BMP,resources/DR.BMP,Door3,0.189814815,-0.001851852,1,0,0,1.098,optionRight,70,12475,6,9,0,9,0,1,,,,,,
,,,,,,,,2023-08-16_08h42.49.667,HF_wild_card,2022.2.4,Win32,58.82352941,5a5b6255f6c5170001950ae0,64d2fd46c836a06233681665,64dc7df2fcf2642c89e295cd,,,,,,,sngl,resources/Empty.png,resources/DG.BMP,WildCard_Ex,0.236111111,0.003703704,1,0,0,0.432,optionRight,5,12480,6,10,0,10,0,1,,,,,,
,,,,,,,,2023-08-16_08h42.49.667,HF_wild_card,2022.2.4,Win32,58.82352941,5a5b6255f6c5170001950ae0,64d2fd46c836a06233681665,64dc7df2fcf2642c89e295cd,,,,,,,decisionTrl,resources/DB.BMP,resources/DG.BMP,Door4,-0.199074074,0.007407407,1,0,0,0.73,optionLeft,60,12540,6,11,0,11,0,1,,,,,,
,,,,,,,,2023-08-16_08h42.49.667,HF_wild_card,2022.2.4,Win32,58.82352941,5a5b6255f6c5170001950ae0,64d2fd46c836a06233681665,64dc7df2fcf2642c89e295cd,,,,,,,decisionTrl,resources/DB.BMP,resources/DR.BMP,Door3,0.239814815,-0.009259259,1,0,0,0.797,optionRight,70,12610,6,12,0,12,0,1,,,,,,
,,,,,,,,2023-08-16_08h42.49.667,HF_wild_card,2022.2.4,Win32,58.82352941,5a5b6255f6c5170001950ae0,64d2fd46c836a06233681665,64dc7df2fcf2642c89e295cd,,,,,,,decisionTrl,resources/DG.BMP,resources/DY.BMP,Door1,0.215740741,0.000925926,1,0,0,1.232,optionRight,30,12640,6,13,0,13,0,1,,,,,,
,,,,,,,,2023-08-16_08h42.49.667,HF_wild_card,2022.2.4,Win32,58.82352941,5a5b6255f6c5170001950ae0,64d2fd46c836a06233681665,64dc7df2fcf2642c89e295cd,,,,,,,decisionTrl,resources/DR.BMP,resources/DB.BMP,Door4,0.186111111,-0.002777778,1,0,0,0.748,optionRight,60,12700,6,14,0,14,0,1,,,,,,
,,,,,,,,2023-08-16_08h42.49.667,HF_wild_card,2022.2.4,Win32,58.82352941,5a5b6255f6c5170001950ae0,64d2fd46c836a06233681665,64dc7df2fcf2642c89e295cd,,,,,,,decisionTrl,resources/DP.BMP,resources/DY.BMP,Door1,0.224074074,-0.002777778,1,0,0,1.181,optionRight,30,12730,6,15,0,15,0,1,,,,,,
,,,,,,,,2023-08-16_08h42.49.667,HF_wild_card,2022.2.4,Win32,58.82352941,5a5b6255f6c5170001950ae0,64d2fd46c836a06233681665,64dc7df2fcf2642c89e295cd,,,,,,,ctch,resources/DR.BMP,resources/DP.BMP,Door3,-0.115740741,-0.00462963,1,0,0,0.764,optionLeft,70,12800,6,16,0,16,0,1,,,,,,
,,,,,,,,2023-08-16_08h42.49.667,HF_wild_card,2022.2.4,Win32,58.82352941,5a5b6255f6c5170001950ae0,64d2fd46c836a06233681665,64dc7df2fcf2642c89e295cd,,,,,,,decisionTrl,resources/DB.BMP,resources/DR.BMP,Door3,0.182407407,-0.010185185,1,0,0,0.714,optionRight,70,12870,6,17,0,17,0,1,,,,,,
,,,,,,,,2023-08-16_08h42.49.667,HF_wild_card,2022.2.4,Win32,58.82352941,5a5b6255f6c5170001950ae0,64d2fd46c836a06233681665,64dc7df2fcf2642c89e295cd,,,,,,,ctch,resources/DR.BMP,resources/DP.BMP,Door3,-0.208333333,-0.00462963,1,0,0,0.48,optionLeft,70,12940,6,18,0,18,0,1,,,,,,
,,,,,,,,2023-08-16_08h42.49.667,HF_wild_card,2022.2.4,Win32,58.82352941,5a5b6255f6c5170001950ae0,64d2fd46c836a06233681665,64dc7df2fcf2642c89e295cd,,,,,,,ctch,resources/DP.BMP,resources/DR.BMP,Door3,0.183333333,-0.005555556,1,0,0,0.631,optionRight,70,13010,6,19,0,19,0,1,,,,,,
,,,,,,,,2023-08-16_08h42.49.667,HF_wild_card,2022.2.4,Win32,58.82352941,5a5b6255f6c5170001950ae0,64d2fd46c836a06233681665,64dc7df2fcf2642c89e295cd,,,,,,,decisionTrl,resources/DY.BMP,resources/DP.BMP,Door2,0.167592593,-0.006481481,1,0,0,1.18,optionRight,20,13030,6,20,0,20,0,1,,,,,,
,,,,,,,,2023-08-16_08h42.49.667,HF_wild_card,2022.2.4,Win32,58.82352941,5a5b6255f6c5170001950ae0,64d2fd46c836a06233681665,64dc7df2fcf2642c89e295cd,,,,,,,decisionTrl,resources/DP.BMP,resources/DY.BMP,Door1,0.232407407,-0.007407407,1,0,0,0.481,optionRight,30,13060,6,21,0,21,0,1,,,,,,
,,,,,,,,2023-08-16_08h42.49.667,HF_wild_card,2022.2.4,Win32,58.82352941,5a5b6255f6c5170001950ae0,64d2fd46c836a06233681665,64dc7df2fcf2642c89e295cd,,,,,,,decisionTrl,resources/DR.BMP,resources/DB.BMP,Door3,-0.157407407,0.00462963,1,0,0,0.913,optionLeft,70,13130,6,22,0,22,0,1,,,,,,
,,,,,,,,2023-08-16_08h42.49.667,HF_wild_card,2022.2.4,Win32,58.82352941,5a5b6255f6c5170001950ae0,64d2fd46c836a06233681665,64dc7df2fcf2642c89e295cd,,,,,,,decisionTrl,resources/DY.BMP,resources/DP.BMP,Door1,-0.166666667,0.00462963,1,0,0,0.814,optionLeft,30,13160,6,23,0,23,0,1,,,,,,
,,,,,,,,2023-08-16_08h42.49.667,HF_wild_card,2022.2.4,Win32,58.82352941,5a5b6255f6c5170001950ae0,64d2fd46c836a06233681665,64dc7df2fcf2642c89e295cd,,,,,,,ctch,resources/DY.BMP,resources/DB.BMP,Door4,0.275,0.00462963,1,0,0,0.613,optionRight,80,13240,6,24,0,24,0,1,,,,,,
,,,,,,,,2023-08-16_08h42.49.667,HF_wild_card,2022.2.4,Win32,58.82352941,5a5b6255f6c5170001950ae0,64d2fd46c836a06233681665,64dc7df2fcf2642c89e295cd,,,,,,,decisionTrl,resources/DG.BMP,resources/DP.BMP,WildCard_Ex,-0.243518519,0.002777778,1,0,0,0.598,optionLeft,95,13335,6,25,0,25,0,1,,,,,,
,,,,,,,,2023-08-16_08h42.49.667,HF_wild_card,2022.2.4,Win32,58.82352941,5a5b6255f6c5170001950ae0,64d2fd46c836a06233681665,64dc7df2fcf2642c89e295cd,,,,,,,sngl,resources/Empty.png,resources/DY.BMP,Door1,0.225,0.008333333,1,0,0,0.431,optionRight,30,13365,6,26,0,26,0,1,,,,,,
,,,,,,,,2023-08-16_08h42.49.667,HF_wild_card,2022.2.4,Win32,58.82352941,5a5b6255f6c5170001950ae0,64d2fd46c836a06233681665,64dc7df2fcf2642c89e295cd,,,,,,,decisionTrl,resources/DG.BMP,resources/DB.BMP,Door4,0.306481481,0.000925926,1,0,0,0.83,optionRight,60,13425,6,27,0,27,0,1,,,,,,
,,,,,,,,2023-08-16_08h42.49.667,HF_wild_card,2022.2.4,Win32,58.82352941,5a5b6255f6c5170001950ae0,64d2fd46c836a06233681665,64dc7df2fcf2642c89e295cd,,,,,,,decisionTrl,resources/DY.BMP,resources/DP.BMP,Door1,-0.128703704,0.007407407,1,0,0,0.812,optionLeft,30,13455,6,28,0,28,0,1,,,,,,
,,,,,,,,2023-08-16_08h42.49.667,HF_wild_card,2022.2.4,Win32,58.82352941,5a5b6255f6c5170001950ae0,64d2fd46c836a06233681665,64dc7df2fcf2642c89e295cd,,,,,,,decisionTrl,resources/DR.BMP,resources/DB.BMP,Door3,-0.233333333,0.007407407,1,0,0,0.63,optionLeft,70,13525,6,29,0,29,0,1,,,,,,
,,,,,,,,2023-08-16_08h42.49.667,HF_wild_card,2022.2.4,Win32,58.82352941,5a5b6255f6c5170001950ae0,64d2fd46c836a06233681665,64dc7df2fcf2642c89e295cd,,,,,,,decisionTrl,resources/DY.BMP,resources/DG.BMP,WildCard_Ex,0.306481481,-0.013888889,1,0,0,0.93,optionRight,95,13620,6,30,0,30,0,1,,,,,,
,,,,,,,,2023-08-16_08h42.49.667,HF_wild_card,2022.2.4,Win32,58.82352941,5a5b6255f6c5170001950ae0,64d2fd46c836a06233681665,64dc7df2fcf2642c89e295cd,,,,,,,decisionTrl,resources/DR.BMP,resources/DB.BMP,Door3,-0.202777778,0,1,0,0,0.697,optionLeft,70,13690,6,31,0,31,0,1,,,,,,
,,,,,,,,2023-08-16_08h42.49.667,HF_wild_card,2022.2.4,Win32,58.82352941,5a5b6255f6c5170001950ae0,64d2fd46c836a06233681665,64dc7df2fcf2642c89e295cd,,,,,,,ctch,resources/DB.BMP,resources/DY.BMP,Door4,-0.262037037,-0.005555556,1,0,0,0.699,optionLeft,60,13750,6,32,0,32,0,1,,,,,,
,,,,,,,,2023-08-16_08h42.49.667,HF_wild_card,2022.2.4,Win32,58.82352941,5a5b6255f6c5170001950ae0,64d2fd46c836a06233681665,64dc7df2fcf2642c89e295cd,,,,,,,sngl,resources/DB.BMP,resources/Empty.png,Door4,-0.292592593,0,1,0,0,0.431,optionLeft,60,13810,6,33,0,33,0,1,,,,,,
,,,,,,,,2023-08-16_08h42.49.667,HF_wild_card,2022.2.4,Win32,58.82352941,5a5b6255f6c5170001950ae0,64d2fd46c836a06233681665,64dc7df2fcf2642c89e295cd,,,,,,,decisionTrl,resources/DP.BMP,resources/DY.BMP,Door2,-0.253703704,0,1,0,0,0.765,optionLeft,20,13830,6,34,0,34,0,1,,,,,,
,,,,,,,,2023-08-16_08h42.49.667,HF_wild_card,2022.2.4,Win32,58.82352941,5a5b6255f6c5170001950ae0,64d2fd46c836a06233681665,64dc7df2fcf2642c89e295cd,,,,,,,sngl,resources/DR.BMP,resources/Empty.png,Door3,-0.237962963,-0.003703704,1,0,0,0.414,optionLeft,70,13900,6,35,0,35,0,1,,,,,,
,,,,,,,,2023-08-16_08h42.49.667,HF_wild_card,2022.2.4,Win32,58.82352941,5a5b6255f6c5170001950ae0,64d2fd46c836a06233681665,64dc7df2fcf2642c89e295cd,,,,,,,ctch,resources/DP.BMP,resources/DR.BMP,Door3,0.244444444,0.000925926,1,0,0,0.78,optionRight,70,13970,6,36,0,36,0,1,,,,,,
,,,,,,,,2023-08-16_08h42.49.667,HF_wild_card,2022.2.4,Win32,58.82352941,5a5b6255f6c5170001950ae0,64d2fd46c836a06233681665,64dc7df2fcf2642c89e295cd,,,,,,,ctch,resources/DB.BMP,resources/DY.BMP,Door4,-0.186111111,0.012037037,1,0,0,0.647,optionLeft,60,14030,6,37,0,37,0,1,,,,,,
,,,,,,,,2023-08-16_08h42.49.667,HF_wild_card,2022.2.4,Win32,58.82352941,5a5b6255f6c5170001950ae0,64d2fd46c836a06233681665,64dc7df2fcf2642c89e295cd,,,,,,,sngl,resources/DG.BMP,resources/Empty.png,WildCard_Ex,-0.162037037,0,1,0,0,0.431,optionLeft,95,14125,6,38,0,38,0,1,,,,,,
,,,,,,,,2023-08-16_08h42.49.667,HF_wild_card,2022.2.4,Win32,58.82352941,5a5b6255f6c5170001950ae0,64d2fd46c836a06233681665,64dc7df2fcf2642c89e295cd,,,,,,,sngl,resources/Empty.png,resources/DB.BMP,Door4,0.199074074,0.006481481,1,0,0,0.548,optionRight,80,14205,6,39,0,39,0,1,,,,,,
,,,,,,,,2023-08-16_08h42.49.667,HF_wild_card,2022.2.4,Win32,58.82352941,5a5b6255f6c5170001950ae0,64d2fd46c836a06233681665,64dc7df2fcf2642c89e295cd,,,,,,,sngl,resources/Empty.png,resources/DP.BMP,Door2,0.240740741,0.003703704,1,0,0,0.381,optionRight,40,14245,6,40,0,40,0,1,,,,,,
,,,,,,,,2023-08-16_08h42.49.667,HF_wild_card,2022.2.4,Win32,58.82352941,5a5b6255f6c5170001950ae0,64d2fd46c836a06233681665,64dc7df2fcf2642c89e295cd,,,,,,,decisionTrl,resources/DY.BMP,resources/DP.BMP,Door2,0.2,0.002777778,1,0,0,0.763,optionRight,40,14285,6,41,0,41,0,1,,,,,,
,,,,,,,,2023-08-16_08h42.49.667,HF_wild_card,2022.2.4,Win32,58.82352941,5a5b6255f6c5170001950ae0,64d2fd46c836a06233681665,64dc7df2fcf2642c89e295cd,,,,,,,sngl,resources/DY.BMP,resources/Empty.png,Door1,-0.176851852,-0.002777778,1,0,0,0.448,optionLeft,30,14315,6,42,0,42,0,1,,,,,,
,,,,,,,,2023-08-16_08h42.49.667,HF_wild_card,2022.2.4,Win32,58.82352941,5a5b6255f6c5170001950ae0,64d2fd46c836a06233681665,64dc7df2fcf2642c89e295cd,,,,,,,decisionTrl,resources/DP.BMP,resources/DY.BMP,Door1,0.201851852,-0.013888889,1,0,0,0.681,optionRight,30,14345,6,43,0,43,0,1,,,,,,
,,,,,,,,2023-08-16_08h42.49.667,HF_wild_card,2022.2.4,Win32,58.82352941,5a5b6255f6c5170001950ae0,64d2fd46c836a06233681665,64dc7df2fcf2642c89e295cd,,,,,,,,,,,,,,,,,,,,,,,,,,5,0,5,0,1,
,,,,,,,,2023-08-16_08h42.49.667,HF_wild_card,2022.2.4,Win32,58.82352941,5a5b6255f6c5170001950ae0,64d2fd46c836a06233681665,64dc7df2fcf2642c89e295cd,,,,,,,ctch,resources/DR.BMP,resources/DP.BMP,Door2,0.262962963,-0.011111111,1,0,0,0.777,optionRight,40,14385,7,0,0,0,0,1,,,,,,
,,,,,,,,2023-08-16_08h42.49.667,HF_wild_card,2022.2.4,Win32,58.82352941,5a5b6255f6c5170001950ae0,64d2fd46c836a06233681665,64dc7df2fcf2642c89e295cd,,,,,,,decisionTrl,resources/DB.BMP,resources/DR.BMP,Door3,0.306481481,-0.006481481,1,0,0,0.533,optionRight,70,14455,7,1,0,1,0,1,,,,,,
,,,,,,,,2023-08-16_08h42.49.667,HF_wild_card,2022.2.4,Win32,58.82352941,5a5b6255f6c5170001950ae0,64d2fd46c836a06233681665,64dc7df2fcf2642c89e295cd,,,,,,,decisionTrl,resources/DB.BMP,resources/DR.BMP,Door3,0.240740741,-0.010185185,1,0,0,0.432,optionRight,70,14525,7,2,0,2,0,1,,,,,,
,,,,,,,,2023-08-16_08h42.49.667,HF_wild_card,2022.2.4,Win32,58.82352941,5a5b6255f6c5170001950ae0,64d2fd46c836a06233681665,64dc7df2fcf2642c89e295cd,,,,,,,ctch,resources/DY.BMP,resources/DB.BMP,Door4,0.293518519,-0.005555556,1,0,0,0.817,optionRight,80,14605,7,3,0,3,0,1,,,,,,
,,,,,,,,2023-08-16_08h42.49.667,HF_wild_card,2022.2.4,Win32,58.82352941,5a5b6255f6c5170001950ae0,64d2fd46c836a06233681665,64dc7df2fcf2642c89e295cd,,,,,,,decisionTrl,resources/DB.BMP,resources/DR.BMP,Door3,0.287962963,-0.00462963,1,0,0,1.134,optionRight,70,14675,7,4,0,4,0,1,,,,,,
,,,,,,,,2023-08-16_08h42.49.667,HF_wild_card,2022.2.4,Win32,58.82352941,5a5b6255f6c5170001950ae0,64d2fd46c836a06233681665,64dc7df2fcf2642c89e295cd,,,,,,,ctch,resources/DB.BMP,resources/DY.BMP,Door4,-0.157407407,0.003703704,1,0,0,0.831,optionLeft,60,14735,7,5,0,5,0,1,,,,,,
,,,,,,,,2023-08-16_08h42.49.667,HF_wild_card,2022.2.4,Win32,58.82352941,5a5b6255f6c5170001950ae0,64d2fd46c836a06233681665,64dc7df2fcf2642c89e295cd,,,,,,,decisionTrl,resources/DY.BMP,resources/DP.BMP,Door1,-0.242592593,0.00462963,1,0,0,2.3,optionLeft,30,14765,7,6,0,6,0,1,,,,,,
,,,,,,,,2023-08-16_08h42.49.667,HF_wild_card,2022.2.4,Win32,58.82352941,5a5b6255f6c5170001950ae0,64d2fd46c836a06233681665,64dc7df2fcf2642c89e295cd,,,,,,,decisionTrl,resources/DR.BMP,resources/DB.BMP,Door3,-0.185185185,0.006481481,1,0,0,0.868,optionLeft,70,14835,7,7,0,7,0,1,,,,,,
,,,,,,,,2023-08-16_08h42.49.667,HF_wild_card,2022.2.4,Win32,58.82352941,5a5b6255f6c5170001950ae0,64d2fd46c836a06233681665,64dc7df2fcf2642c89e295cd,,,,,,,decisionTrl,resources/DP.BMP,resources/DY.BMP,Door1,0.260185185,-0.015740741,1,0,0,1.384,optionRight,30,14865,7,8,0,8,0,1,,,,,,
,,,,,,,,2023-08-16_08h42.49.667,HF_wild_card,2022.2.4,Win32,58.82352941,5a5b6255f6c5170001950ae0,64d2fd46c836a06233681665,64dc7df2fcf2642c89e295cd,,,,,,,decisionTrl,resources/DP.BMP,resources/DY.BMP,Door1,0.019444444,-0.005555556,1,0,0,0.147,optionRight,30,14895,7,9,0,9,0,1,,,,,,
,,,,,,,,2023-08-16_08h42.49.667,HF_wild_card,2022.2.4,Win32,58.82352941,5a5b6255f6c5170001950ae0,64d2fd46c836a06233681665,64dc7df2fcf2642c89e295cd,,,,,,,ctch,resources/DY.BMP,resources/DB.BMP,Door4,0.17037037,-0.009259259,1,0,0,0.683,optionRight,80,14975,7,10,0,10,0,1,,,,,,
,,,,,,,,2023-08-16_08h42.49.667,HF_wild_card,2022.2.4,Win32,58.82352941,5a5b6255f6c5170001950ae0,64d2fd46c836a06233681665,64dc7df2fcf2642c89e295cd,,,,,,,decisionTrl,resources/DY.BMP,resources/DP.BMP,Door2,0.268518519,-0.016666667,1,0,0,0.814,optionRight,40,15015,7,11,0,11,0,1,,,,,,
,,,,,,,,2023-08-16_08h42.49.667,HF_wild_card,2022.2.4,Win32,58.82352941,5a5b6255f6c5170001950ae0,64d2fd46c836a06233681665,64dc7df2fcf2642c89e295cd,,,,,,,decisionTrl,resources/DY.BMP,resources/DP.BMP,Door1,-0.168518519,-0.009259259,1,0,0,0.533,optionLeft,30,15045,7,12,0,12,0,1,,,,,,
,,,,,,,,2023-08-16_08h42.49.667,HF_wild_card,2022.2.4,Win32,58.82352941,5a5b6255f6c5170001950ae0,64d2fd46c836a06233681665,64dc7df2fcf2642c89e295cd,,,,,,,decisionTrl,resources/DY.BMP,resources/DP.BMP,Door1,-0.19537037,-0.00462963,1,0,0,0.583,optionLeft,30,15075,7,13,0,13,0,1,,,,,,
,,,,,,,,2023-08-16_08h42.49.667,HF_wild_card,2022.2.4,Win32,58.82352941,5a5b6255f6c5170001950ae0,64d2fd46c836a06233681665,64dc7df2fcf2642c89e295cd,,,,,,,decisionTrl,resources/DR.BMP,resources/DB.BMP,Door3,-0.19537037,-0.006481481,1,0,0,0.783,optionLeft,70,15145,7,14,0,14,0,1,,,,,,
,,,,,,,,2023-08-16_08h42.49.667,HF_wild_card,2022.2.4,Win32,58.82352941,5a5b6255f6c5170001950ae0,64d2fd46c836a06233681665,64dc7df2fcf2642c89e295cd,,,,,,,decisionTrl,resources/DP.BMP,resources/DY.BMP,Door1,0.139814815,-0.013888889,1,0,0,2.234,optionRight,30,15175,7,15,0,15,0,1,,,,,,
,,,,,,,,2023-08-16_08h42.49.667,HF_wild_card,2022.2.4,Win32,58.82352941,5a5b6255f6c5170001950ae0,64d2fd46c836a06233681665,64dc7df2fcf2642c89e295cd,,,,,,,ctch,resources/DB.BMP,resources/DY.BMP,Door4,-0.143518519,-0.015740741,1,0,0,0.599,optionLeft,60,15235,7,16,0,16,0,1,,,,,,
,,,,,,,,2023-08-16_08h42.49.667,HF_wild_card,2022.2.4,Win32,58.82352941,5a5b6255f6c5170001950ae0,64d2fd46c836a06233681665,64dc7df2fcf2642c89e295cd,,,,,,,decisionTrl,resources/DR.BMP,resources/DB.BMP,Door3,-0.172222222,-0.021296296,1,0,0,0.549,optionLeft,70,15305,7,17,0,17,0,1,,,,,,
,,,,,,,,2023-08-16_08h42.49.667,HF_wild_card,2022.2.4,Win32,58.82352941,5a5b6255f6c5170001950ae0,64d2fd46c836a06233681665,64dc7df2fcf2642c89e295cd,,,,,,,decisionTrl,resources/DP.BMP,resources/DY.BMP,Door2,-0.162962963,-0.019444444,1,0,0,1.734,optionLeft,40,15345,7,18,0,18,0,1,,,,,,
,,,,,,,,2023-08-16_08h42.49.667,HF_wild_card,2022.2.4,Win32,58.82352941,5a5b6255f6c5170001950ae0,64d2fd46c836a06233681665,64dc7df2fcf2642c89e295cd,,,,,,,ctch,resources/DY.BMP,resources/DB.BMP,Door4,0.284259259,-0.012037037,1,0,0,1.031,optionRight,60,15405,7,19,0,19,0,1,,,,,,
,,,,,,,,2023-08-16_08h42.49.667,HF_wild_card,2022.2.4,Win32,58.82352941,5a5b6255f6c5170001950ae0,64d2fd46c836a06233681665,64dc7df2fcf2642c89e295cd,,,,,,,decisionTrl,resources/DY.BMP,resources/DP.BMP,Door1,-0.221296296,0.002777778,1,0,0,1.317,optionLeft,30,15435,7,20,0,20,0,1,,,,,,
,,,,,,,,2023-08-16_08h42.49.667,HF_wild_card,2022.2.4,Win32,58.82352941,5a5b6255f6c5170001950ae0,64d2fd46c836a06233681665,64dc7df2fcf2642c89e295cd,,,,,,,ctch,resources/DB.BMP,resources/DY.BMP,Door4,-0.221296296,0.000925926,1,0,0,0.732,optionLeft,80,15515,7,21,0,21,0,1,,,,,,
,,,,,,,,2023-08-16_08h42.49.667,HF_wild_card,2022.2.4,Win32,58.82352941,5a5b6255f6c5170001950ae0,64d2fd46c836a06233681665,64dc7df2fcf2642c89e295cd,,,,,,,ctch,resources/DR.BMP,resources/DP.BMP,Door3,-0.264814815,-0.002777778,1,0,0,0.615,optionLeft,70,15585,7,22,0,22,0,1,,,,,,
,,,,,,,,2023-08-16_08h42.49.667,HF_wild_card,2022.2.4,Win32,58.82352941,5a5b6255f6c5170001950ae0,64d2fd46c836a06233681665,64dc7df2fcf2642c89e295cd,,,,,,,ctch,resources/DP.BMP,resources/DR.BMP,Door3,0.224074074,-0.008333333,1,0,0,0.666,optionRight,70,15655,7,23,0,23,0,1,,,,,,
,,,,,,,,2023-08-16_08h42.49.667,HF_wild_card,2022.2.4,Win32,58.82352941,5a5b6255f6c5170001950ae0,64d2fd46c836a06233681665,64dc7df2fcf2642c89e295cd,,,,,,,ctch,resources/DP.BMP,resources/DR.BMP,Door3,0.232407407,-0.02037037,1,0,0,0.566,optionRight,70,15725,7,24,0,24,0,1,,,,,,
,,,,,,,,2023-08-16_08h42.49.667,HF_wild_card,2022.2.4,Win32,58.82352941,5a5b6255f6c5170001950ae0,64d2fd46c836a06233681665,64dc7df2fcf2642c89e295cd,,,,,,,decisionTrl,resources/DB.BMP,resources/DR.BMP,Door3,0.212037037,-0.02962963,1,0,0,0.431,optionRight,70,15795,7,25,0,25,0,1,,,,,,
,,,,,,,,2023-08-16_08h42.49.667,HF_wild_card,2022.2.4,Win32,58.82352941,5a5b6255f6c5170001950ae0,64d2fd46c836a06233681665,64dc7df2fcf2642c89e295cd,,,,,,,decisionTrl,resources/DP.BMP,resources/DY.BMP,Door1,0.210185185,-0.011111111,1,0,0,1.116,optionRight,30,15825,7,26,0,26,0,1,,,,,,
,,,,,,,,2023-08-16_08h42.49.667,HF_wild_card,2022.2.4,Win32,58.82352941,5a5b6255f6c5170001950ae0,64d2fd46c836a06233681665,64dc7df2fcf2642c89e295cd,,,,,,,ctch,resources/DP.BMP,resources/DR.BMP,Door3,0.190740741,0.001851852,1,0,0,0.815,optionRight,70,15895,7,27,0,27,0,1,,,,,,
,,,,,,,,2023-08-16_08h42.49.667,HF_wild_card,2022.2.4,Win32,58.82352941,5a5b6255f6c5170001950ae0,64d2fd46c836a06233681665,64dc7df2fcf2642c89e295cd,,,,,,,decisionTrl,resources/DB.BMP,resources/DR.BMP,Door3,0.202777778,-0.002777778,1,0,0,0.883,optionRight,70,15965,7,28,0,28,0,1,,,,,,
,,,,,,,,2023-08-16_08h42.49.667,HF_wild_card,2022.2.4,Win32,58.82352941,5a5b6255f6c5170001950ae0,64d2fd46c836a06233681665,64dc7df2fcf2642c89e295cd,,,,,,,ctch,resources/DR.BMP,resources/DP.BMP,Door3,-0.207407407,-0.000925926,1,0,0,0.883,optionLeft,70,16035,7,29,0,29,0,1,,,,,,
,,,,,,,,2023-08-16_08h42.49.667,HF_wild_card,2022.2.4,Win32,58.82352941,5a5b6255f6c5170001950ae0,64d2fd46c836a06233681665,64dc7df2fcf2642c89e295cd,,,,,,,decisionTrl,resources/DB.BMP,resources/DR.BMP,Door3,0.213888889,-0.003703704,1,0,0,1.634,optionRight,70,16105,7,30,0,30,0,1,,,,,,
,,,,,,,,2023-08-16_08h42.49.667,HF_wild_card,2022.2.4,Win32,58.82352941,5a5b6255f6c5170001950ae0,64d2fd46c836a06233681665,64dc7df2fcf2642c89e295cd,,,,,,,decisionTrl,resources/DY.BMP,resources/DP.BMP,Door1,-0.165740741,0.00462963,1,0,0,2.334,optionLeft,30,16135,7,31,0,31,0,1,,,,,,
,,,,,,,,2023-08-16_08h42.49.667,HF_wild_card,2022.2.4,Win32,58.82352941,5a5b6255f6c5170001950ae0,64d2fd46c836a06233681665,64dc7df2fcf2642c89e295cd,,,,,,,decisionTrl,resources/DR.BMP,resources/DB.BMP,Door3,-0.186111111,-0.000925926,1,0,0,0.75,optionLeft,70,16205,7,32,0,32,0,1,,,,,,
,,,,,,,,2023-08-16_08h42.49.667,HF_wild_card,2022.2.4,Win32,58.82352941,5a5b6255f6c5170001950ae0,64d2fd46c836a06233681665,64dc7df2fcf2642c89e295cd,,,,,,,decisionTrl,resources/DR.BMP,resources/DB.BMP,Door3,-0.218518519,-0.002777778,1,0,0,0.416,optionLeft,70,16275,7,33,0,33,0,1,,,,,,
,,,,,,,,2023-08-16_08h42.49.667,HF_wild_card,2022.2.4,Win32,58.82352941,5a5b6255f6c5170001950ae0,64d2fd46c836a06233681665,64dc7df2fcf2642c89e295cd,,,,,,,decisionTrl,resources/DR.BMP,resources/DB.BMP,Door3,-0.176851852,-0.005555556,1,0,0,0.449,optionLeft,70,16345,7,34,0,34,0,1,,,,,,
,,,,,,,,2023-08-16_08h42.49.667,HF_wild_card,2022.2.4,Win32,58.82352941,5a5b6255f6c5170001950ae0,64d2fd46c836a06233681665,64dc7df2fcf2642c89e295cd,,,,,,,decisionTrl,resources/DP.BMP,resources/DY.BMP,Door1,0.35462963,-0.000925926,1,0,0,1.383,optionRight,30,16375,7,35,0,35,0,1,,,,,,
,,,,,,,,2023-08-16_08h42.49.667,HF_wild_card,2022.2.4,Win32,58.82352941,5a5b6255f6c5170001950ae0,64d2fd46c836a06233681665,64dc7df2fcf2642c89e295cd,,,,,,,,,,,,,,,,,,,,,,,,,,6,0,6,0,1,
,,,,,,,,2023-08-16_08h42.49.667,HF_wild_card,2022.2.4,Win32,58.82352941,5a5b6255f6c5170001950ae0,64d2fd46c836a06233681665,64dc7df2fcf2642c89e295cd,,,,,,,,,,,,,,,,,,,,,,,,,,,,,,,4
,,,,,,,,2023-08-16_08h42.49.667,HF_wild_card,2022.2.4,Win32,58.82352941,5a5b6255f6c5170001950ae0,64d2fd46c836a06233681665,64dc7df2fcf2642c89e295cd,,,,,,,,,,,,,,,,,,,,,,,,,,,,,,,
