Condition,Low fixed image (Door1),Low risky image (Door2),High fixed image (Door3),High risky image (Door4),Extreme Wild Card,NonExtreme Wild Card,,date,expName,psychopyVersion,OS,frameRate,PROLIFIC_PID,STUDY_ID,SESSION_ID,mouse_2.x,mouse_2.y,mouse_2.leftButton,mouse_2.midButton,mouse_2.rightButton,mouse_2.clicked_name,Trial Type,Left Option Image,Right Option Image,Chosen Door,mouse.x,mouse.y,mouse.leftButton,mouse.midButton,mouse.rightButton,mouse.time,mouse.clicked_name,Feedback,Cumulative Reward,Block,trial.thisRepN,trial.thisTrialN,trial.thisN,trial.thisIndex,trial.ran,blocks.thisRepN,blocks.thisTrialN,blocks.thisN,blocks.thisIndex,blocks.ran,Money conversion,First Outcome Reported,Shown Door (First Outcome),Displayed Image (First Outcome),outcomes.thisRepN,outcomes.thisTrialN,outcomes.thisN,outcomes.thisIndex,outcomes.ran,judgments.thisRepN,judgments.thisTrialN,judgments.thisN,judgments.thisIndex,judgments.ran,freqMouse.x,freqMouse.y,freqMouse.leftButton,freqMouse.midButton,freqMouse.rightButton,freqMouse.clicked_name,FQJ for first outcome,FQJ for second outcome,Shown Door,Displayed Image,trials.thisRepN,trials.thisTrialN,trials.thisN,trials.thisIndex,trials.ran,judgBlock.thisRepN,judgBlock.thisTrialN,judgBlock.thisN,judgBlock.thisIndex,judgBlock.ran
1,resources/DG.BMP,resources/DBN.BMP,resources/DB.BMP,resources/DR.BMP,resources/DP.BMP,resources/DY.BMP,,2023-08-16_08h29.33.631,HF_wild_card,2022.2.4,Win32,12.00768492,5693df018d93fe000dfa5733,64d2fd46c836a06233681665,64dc7a9bc17ffe2c217f3768,,,,,,,,,,,,,,,,,,,,,,,,,,,,,,,,,,,,,,,,,,,,,,,,,,,,,,,,,,,,,,,,
,,,,,,,,2023-08-16_08h29.33.631,HF_wild_card,2022.2.4,Win32,12.00768492,5693df018d93fe000dfa5733,64d2fd46c836a06233681665,64dc7a9bc17ffe2c217f3768,0.018518519,-0.422222208,1,0,0,agree,,,,,,,,,,,,,,,,,,,,,,,,,,,,,,,,,,,,,,,,,,,,,,,,,,,,,,,,,,
,,,,,,,,2023-08-16_08h29.33.631,HF_wild_card,2022.2.4,Win32,12.00768492,5693df018d93fe000dfa5733,64d2fd46c836a06233681665,64dc7a9bc17ffe2c217f3768,,,,,,,,,,,,,,,,,,,,,,,,,,,,,,,,,,,,,,,,,,,,,,,,,,,,,,,,,,,,,,,,
,,,,,,,,2023-08-16_08h29.33.631,HF_wild_card,2022.2.4,Win32,12.00768492,5693df018d93fe000dfa5733,64d2fd46c836a06233681665,64dc7a9bc17ffe2c217f3768,,,,,,,sngl,resources/DG.BMP,resources/Empty.png,Door1,-0.362037023,-0.169444473,1,0,0,3.595,optionLeft,30,30,1,0,0,0,0,1,,,,,,,,,,,,,,,,,,,,,,,,,,,,,,,,,,,,,,,
,,,,,,,,2023-08-16_08h29.33.631,HF_wild_card,2022.2.4,Win32,12.00768492,5693df018d93fe000dfa5733,64d2fd46c836a06233681665,64dc7a9bc17ffe2c217f3768,,,,,,,sngl,resources/DR.BMP,resources/Empty.png,Door4,-0.395370377,-0.191666709,1,0,0,1.3167,optionLeft,80,110,1,1,0,1,0,1,,,,,,,,,,,,,,,,,,,,,,,,,,,,,,,,,,,,,,,
,,,,,,,,2023-08-16_08h29.33.631,HF_wild_card,2022.2.4,Win32,12.00768492,5693df018d93fe000dfa5733,64d2fd46c836a06233681665,64dc7a9bc17ffe2c217f3768,,,,,,,sngl,resources/Empty.png,resources/DG.BMP,Door1,0.440740797,-0.163888931,1,0,0,1.3515,optionRight,30,140,1,2,0,2,0,1,,,,,,,,,,,,,,,,,,,,,,,,,,,,,,,,,,,,,,,
,,,,,,,,2023-08-16_08h29.33.631,HF_wild_card,2022.2.4,Win32,12.00768492,5693df018d93fe000dfa5733,64d2fd46c836a06233681665,64dc7a9bc17ffe2c217f3768,,,,,,,ctch,resources/DG.BMP,resources/DR.BMP,Door4,0.384259259,-0.15370369,1,0,0,1.4705,optionRight,80,220,1,3,0,3,0,1,,,,,,,,,,,,,,,,,,,,,,,,,,,,,,,,,,,,,,,
,,,,,,,,2023-08-16_08h29.33.631,HF_wild_card,2022.2.4,Win32,12.00768492,5693df018d93fe000dfa5733,64d2fd46c836a06233681665,64dc7a9bc17ffe2c217f3768,,,,,,,ctch,resources/DB.BMP,resources/DBN.BMP,Door3,-0.266666624,-0.069444444,1,0,0,1.3312,optionLeft,70,290,1,4,0,4,0,1,,,,,,,,,,,,,,,,,,,,,,,,,,,,,,,,,,,,,,,
,,,,,,,,2023-08-16_08h29.33.631,HF_wild_card,2022.2.4,Win32,12.00768492,5693df018d93fe000dfa5733,64d2fd46c836a06233681665,64dc7a9bc17ffe2c217f3768,,,,,,,decisionTrl,resources/DBN.BMP,resources/DY.BMP,WildCard_NonEx,0.442592621,-0.010185206,1,0,0,0.8661,optionRight,45,335,1,5,0,5,0,1,,,,,,,,,,,,,,,,,,,,,,,,,,,,,,,,,,,,,,,
,,,,,,,,2023-08-16_08h29.33.631,HF_wild_card,2022.2.4,Win32,12.00768492,5693df018d93fe000dfa5733,64d2fd46c836a06233681665,64dc7a9bc17ffe2c217f3768,,,,,,,decisionTrl,resources/DY.BMP,resources/DB.BMP,Door3,0.387037065,-0.062962956,1,0,0,1.2466,optionRight,70,405,1,6,0,6,0,1,,,,,,,,,,,,,,,,,,,,,,,,,,,,,,,,,,,,,,,
,,,,,,,,2023-08-16_08h29.33.631,HF_wild_card,2022.2.4,Win32,12.00768492,5693df018d93fe000dfa5733,64d2fd46c836a06233681665,64dc7a9bc17ffe2c217f3768,,,,,,,sngl,resources/DB.BMP,resources/Empty.png,Door3,-0.318518497,-0.041666667,1,0,0,0.9515,optionLeft,70,475,1,7,0,7,0,1,,,,,,,,,,,,,,,,,,,,,,,,,,,,,,,,,,,,,,,
,,,,,,,,2023-08-16_08h29.33.631,HF_wild_card,2022.2.4,Win32,12.00768492,5693df018d93fe000dfa5733,64d2fd46c836a06233681665,64dc7a9bc17ffe2c217f3768,,,,,,,decisionTrl,resources/DG.BMP,resources/DBN.BMP,Door2,0.45185188,-0.063888903,1,0,0,0.8495,optionRight,40,515,1,8,0,8,0,1,,,,,,,,,,,,,,,,,,,,,,,,,,,,,,,,,,,,,,,
,,,,,,,,2023-08-16_08h29.33.631,HF_wild_card,2022.2.4,Win32,12.00768492,5693df018d93fe000dfa5733,64d2fd46c836a06233681665,64dc7a9bc17ffe2c217f3768,,,,,,,decisionTrl,resources/DY.BMP,resources/DR.BMP,WildCard_NonEx,-0.234259217,-0.053703697,1,0,0,1.0276,optionLeft,55,570,1,9,0,9,0,1,,,,,,,,,,,,,,,,,,,,,,,,,,,,,,,,,,,,,,,
,,,,,,,,2023-08-16_08h29.33.631,HF_wild_card,2022.2.4,Win32,12.00768492,5693df018d93fe000dfa5733,64d2fd46c836a06233681665,64dc7a9bc17ffe2c217f3768,,,,,,,sngl,resources/Empty.png,resources/DY.BMP,WildCard_NonEx,0.434259344,-0.003703718,1,0,0,0.9528,optionRight,55,625,1,10,0,10,0,1,,,,,,,,,,,,,,,,,,,,,,,,,,,,,,,,,,,,,,,
,,,,,,,,2023-08-16_08h29.33.631,HF_wild_card,2022.2.4,Win32,12.00768492,5693df018d93fe000dfa5733,64d2fd46c836a06233681665,64dc7a9bc17ffe2c217f3768,,,,,,,ctch,resources/DBN.BMP,resources/DB.BMP,Door2,-0.342592593,-0.006481489,1,0,0,1.0805,optionLeft,20,645,1,11,0,11,0,1,,,,,,,,,,,,,,,,,,,,,,,,,,,,,,,,,,,,,,,
,,,,,,,,2023-08-16_08h29.33.631,HF_wild_card,2022.2.4,Win32,12.00768492,5693df018d93fe000dfa5733,64d2fd46c836a06233681665,64dc7a9bc17ffe2c217f3768,,,,,,,decisionTrl,resources/DB.BMP,resources/DR.BMP,Door4,0.237963005,-0.038888896,1,0,0,1.4288,optionRight,80,725,1,12,0,12,0,1,,,,,,,,,,,,,,,,,,,,,,,,,,,,,,,,,,,,,,,
,,,,,,,,2023-08-16_08h29.33.631,HF_wild_card,2022.2.4,Win32,12.00768492,5693df018d93fe000dfa5733,64d2fd46c836a06233681665,64dc7a9bc17ffe2c217f3768,,,,,,,ctch,resources/DG.BMP,resources/DR.BMP,Door4,0.229629658,-0.014814836,1,0,0,0.8355,optionRight,60,785,1,13,0,13,0,1,,,,,,,,,,,,,,,,,,,,,,,,,,,,,,,,,,,,,,,
,,,,,,,,2023-08-16_08h29.33.631,HF_wild_card,2022.2.4,Win32,12.00768492,5693df018d93fe000dfa5733,64d2fd46c836a06233681665,64dc7a9bc17ffe2c217f3768,,,,,,,ctch,resources/DB.BMP,resources/DBN.BMP,Door3,-0.294444402,-0.031481496,1,0,0,1.2409,optionLeft,70,855,1,14,0,14,0,1,,,,,,,,,,,,,,,,,,,,,,,,,,,,,,,,,,,,,,,
,,,,,,,,2023-08-16_08h29.33.631,HF_wild_card,2022.2.4,Win32,12.00768492,5693df018d93fe000dfa5733,64d2fd46c836a06233681665,64dc7a9bc17ffe2c217f3768,,,,,,,decisionTrl,resources/DR.BMP,resources/DB.BMP,Door3,0.308333362,-0.031481496,1,0,0,1.8503,optionRight,70,925,1,15,0,15,0,1,,,,,,,,,,,,,,,,,,,,,,,,,,,,,,,,,,,,,,,
,,,,,,,,2023-08-16_08h29.33.631,HF_wild_card,2022.2.4,Win32,12.00768492,5693df018d93fe000dfa5733,64d2fd46c836a06233681665,64dc7a9bc17ffe2c217f3768,,,,,,,decisionTrl,resources/DR.BMP,resources/DB.BMP,Door3,0.29814812,-0.053703697,1,0,0,1.0407,optionRight,70,995,1,16,0,16,0,1,,,,,,,,,,,,,,,,,,,,,,,,,,,,,,,,,,,,,,,
,,,,,,,,2023-08-16_08h29.33.631,HF_wild_card,2022.2.4,Win32,12.00768492,5693df018d93fe000dfa5733,64d2fd46c836a06233681665,64dc7a9bc17ffe2c217f3768,,,,,,,decisionTrl,resources/DR.BMP,resources/DY.BMP,Door4,-0.36296297,-0.059259273,1,0,0,1.0239,optionLeft,80,1075,1,17,0,17,0,1,,,,,,,,,,,,,,,,,,,,,,,,,,,,,,,,,,,,,,,
,,,,,,,,2023-08-16_08h29.33.631,HF_wild_card,2022.2.4,Win32,12.00768492,5693df018d93fe000dfa5733,64d2fd46c836a06233681665,64dc7a9bc17ffe2c217f3768,,,,,,,decisionTrl,resources/DB.BMP,resources/DR.BMP,Door4,0.194444444,-0.008333347,1,0,0,1.0314,optionRight,60,1135,1,18,0,18,0,1,,,,,,,,,,,,,,,,,,,,,,,,,,,,,,,,,,,,,,,
,,,,,,,,2023-08-16_08h29.33.631,HF_wild_card,2022.2.4,Win32,12.00768492,5693df018d93fe000dfa5733,64d2fd46c836a06233681665,64dc7a9bc17ffe2c217f3768,,,,,,,decisionTrl,resources/DG.BMP,resources/DBN.BMP,Door1,-0.243518476,-0.024074095,1,0,0,1.4342,optionLeft,30,1165,1,19,0,19,0,1,,,,,,,,,,,,,,,,,,,,,,,,,,,,,,,,,,,,,,,
,,,,,,,,2023-08-16_08h29.33.631,HF_wild_card,2022.2.4,Win32,12.00768492,5693df018d93fe000dfa5733,64d2fd46c836a06233681665,64dc7a9bc17ffe2c217f3768,,,,,,,decisionTrl,resources/DR.BMP,resources/DB.BMP,Door4,-0.334259245,-0.022222236,1,0,0,2.0543,optionLeft,80,1245,1,20,0,20,0,1,,,,,,,,,,,,,,,,,,,,,,,,,,,,,,,,,,,,,,,
,,,,,,,,2023-08-16_08h29.33.631,HF_wild_card,2022.2.4,Win32,12.00768492,5693df018d93fe000dfa5733,64d2fd46c836a06233681665,64dc7a9bc17ffe2c217f3768,,,,,,,sngl,resources/DY.BMP,resources/Empty.png,WildCard_NonEx,-0.261111083,-0.048148155,1,0,0,1.128,optionLeft,55,1300,1,21,0,21,0,1,,,,,,,,,,,,,,,,,,,,,,,,,,,,,,,,,,,,,,,
,,,,,,,,2023-08-16_08h29.33.631,HF_wild_card,2022.2.4,Win32,12.00768492,5693df018d93fe000dfa5733,64d2fd46c836a06233681665,64dc7a9bc17ffe2c217f3768,,,,,,,decisionTrl,resources/DB.BMP,resources/DY.BMP,WildCard_NonEx,0.519444501,-0.053703697,1,0,0,1.7793,optionRight,45,1345,1,22,0,22,0,1,,,,,,,,,,,,,,,,,,,,,,,,,,,,,,,,,,,,,,,
,,,,,,,,2023-08-16_08h29.33.631,HF_wild_card,2022.2.4,Win32,12.00768492,5693df018d93fe000dfa5733,64d2fd46c836a06233681665,64dc7a9bc17ffe2c217f3768,,,,,,,ctch,resources/DBN.BMP,resources/DB.BMP,Door2,-0.226851852,-0.044444437,1,0,0,1.8695,optionLeft,40,1385,1,23,0,23,0,1,,,,,,,,,,,,,,,,,,,,,,,,,,,,,,,,,,,,,,,
,,,,,,,,2023-08-16_08h29.33.631,HF_wild_card,2022.2.4,Win32,12.00768492,5693df018d93fe000dfa5733,64d2fd46c836a06233681665,64dc7a9bc17ffe2c217f3768,,,,,,,sngl,resources/Empty.png,resources/DB.BMP,Door3,0.33148151,-0.032407407,1,0,0,1.5061,optionRight,70,1455,1,24,0,24,0,1,,,,,,,,,,,,,,,,,,,,,,,,,,,,,,,,,,,,,,,
,,,,,,,,2023-08-16_08h29.33.631,HF_wild_card,2022.2.4,Win32,12.00768492,5693df018d93fe000dfa5733,64d2fd46c836a06233681665,64dc7a9bc17ffe2c217f3768,,,,,,,decisionTrl,resources/DY.BMP,resources/DG.BMP,WildCard_NonEx,-0.291666667,-0.000925947,1,0,0,1.2471,optionLeft,55,1510,1,25,0,25,0,1,,,,,,,,,,,,,,,,,,,,,,,,,,,,,,,,,,,,,,,
,,,,,,,,2023-08-16_08h29.33.631,HF_wild_card,2022.2.4,Win32,12.00768492,5693df018d93fe000dfa5733,64d2fd46c836a06233681665,64dc7a9bc17ffe2c217f3768,,,,,,,sngl,resources/DBN.BMP,resources/Empty.png,Door2,-0.299074067,0.003703683,1,0,0,0.9404,optionLeft,40,1550,1,26,0,26,0,1,,,,,,,,,,,,,,,,,,,,,,,,,,,,,,,,,,,,,,,
,,,,,,,,2023-08-16_08h29.33.631,HF_wild_card,2022.2.4,Win32,12.00768492,5693df018d93fe000dfa5733,64d2fd46c836a06233681665,64dc7a9bc17ffe2c217f3768,,,,,,,decisionTrl,resources/DBN.BMP,resources/DG.BMP,Door1,0.334259316,-0.012962977,1,0,0,0.8282,optionRight,30,1580,1,27,0,27,0,1,,,,,,,,,,,,,,,,,,,,,,,,,,,,,,,,,,,,,,,
,,,,,,,,2023-08-16_08h29.33.631,HF_wild_card,2022.2.4,Win32,12.00768492,5693df018d93fe000dfa5733,64d2fd46c836a06233681665,64dc7a9bc17ffe2c217f3768,,,,,,,decisionTrl,resources/DB.BMP,resources/DR.BMP,Door4,0.429629714,-0.100000028,1,0,0,1.4434,optionRight,80,1660,1,28,0,28,0,1,,,,,,,,,,,,,,,,,,,,,,,,,,,,,,,,,,,,,,,
,,,,,,,,2023-08-16_08h29.33.631,HF_wild_card,2022.2.4,Win32,12.00768492,5693df018d93fe000dfa5733,64d2fd46c836a06233681665,64dc7a9bc17ffe2c217f3768,,,,,,,decisionTrl,resources/DY.BMP,resources/DBN.BMP,Door2,0.356481481,-0.073148162,1,0,0,2.3215,optionRight,40,1700,1,29,0,29,0,1,,,,,,,,,,,,,,,,,,,,,,,,,,,,,,,,,,,,,,,
,,,,,,,,2023-08-16_08h29.33.631,HF_wild_card,2022.2.4,Win32,12.00768492,5693df018d93fe000dfa5733,64d2fd46c836a06233681665,64dc7a9bc17ffe2c217f3768,,,,,,,decisionTrl,resources/DG.BMP,resources/DY.BMP,WildCard_NonEx,0.327777863,-0.087962963,1,0,0,1.4626,optionRight,45,1745,1,30,0,30,0,1,,,,,,,,,,,,,,,,,,,,,,,,,,,,,,,,,,,,,,,
,,,,,,,,2023-08-16_08h29.33.631,HF_wild_card,2022.2.4,Win32,12.00768492,5693df018d93fe000dfa5733,64d2fd46c836a06233681665,64dc7a9bc17ffe2c217f3768,,,,,,,sngl,resources/Empty.png,resources/DR.BMP,Door4,0.354629658,-0.037037037,1,0,0,0.9385,optionRight,60,1805,1,31,0,31,0,1,,,,,,,,,,,,,,,,,,,,,,,,,,,,,,,,,,,,,,,
,,,,,,,,2023-08-16_08h29.33.631,HF_wild_card,2022.2.4,Win32,12.00768492,5693df018d93fe000dfa5733,64d2fd46c836a06233681665,64dc7a9bc17ffe2c217f3768,,,,,,,decisionTrl,resources/DBN.BMP,resources/DG.BMP,Door1,0.276851866,-0.087037051,1,0,0,3.1539,optionRight,30,1835,1,32,0,32,0,1,,,,,,,,,,,,,,,,,,,,,,,,,,,,,,,,,,,,,,,
,,,,,,,,2023-08-16_08h29.33.631,HF_wild_card,2022.2.4,Win32,12.00768492,5693df018d93fe000dfa5733,64d2fd46c836a06233681665,64dc7a9bc17ffe2c217f3768,,,,,,,sngl,resources/Empty.png,resources/DBN.BMP,Door2,0.159259302,-0.028703725,1,0,0,1.5022,optionRight,20,1855,1,33,0,33,0,1,,,,,,,,,,,,,,,,,,,,,,,,,,,,,,,,,,,,,,,
,,,,,,,,2023-08-16_08h29.33.631,HF_wild_card,2022.2.4,Win32,12.00768492,5693df018d93fe000dfa5733,64d2fd46c836a06233681665,64dc7a9bc17ffe2c217f3768,,,,,,,decisionTrl,resources/DR.BMP,resources/DB.BMP,Door4,-0.272222236,-0.032407407,1,0,0,2.0748,optionLeft,80,1935,1,34,0,34,0,1,,,,,,,,,,,,,,,,,,,,,,,,,,,,,,,,,,,,,,,
,,,,,,,,2023-08-16_08h29.33.631,HF_wild_card,2022.2.4,Win32,12.00768492,5693df018d93fe000dfa5733,64d2fd46c836a06233681665,64dc7a9bc17ffe2c217f3768,,,,,,,ctch,resources/DR.BMP,resources/DG.BMP,Door4,-0.306481467,-0.059259273,1,0,0,1.0413,optionLeft,60,1995,1,35,0,35,0,1,,,,,,,,,,,,,,,,,,,,,,,,,,,,,,,,,,,,,,,
,,,,,,,,2023-08-16_08h29.33.631,HF_wild_card,2022.2.4,Win32,12.00768492,5693df018d93fe000dfa5733,64d2fd46c836a06233681665,64dc7a9bc17ffe2c217f3768,,,,,,,decisionTrl,resources/DB.BMP,resources/DR.BMP,Door4,0.222222222,-0.058333326,1,0,0,1.2411,optionRight,60,2055,1,36,0,36,0,1,,,,,,,,,,,,,,,,,,,,,,,,,,,,,,,,,,,,,,,
,,,,,,,,2023-08-16_08h29.33.631,HF_wild_card,2022.2.4,Win32,12.00768492,5693df018d93fe000dfa5733,64d2fd46c836a06233681665,64dc7a9bc17ffe2c217f3768,,,,,,,decisionTrl,resources/DG.BMP,resources/DBN.BMP,Door1,-0.329629616,-0.013888889,1,0,0,1.2604,optionLeft,30,2085,1,37,0,37,0,1,,,,,,,,,,,,,,,,,,,,,,,,,,,,,,,,,,,,,,,
,,,,,,,,2023-08-16_08h29.33.631,HF_wild_card,2022.2.4,Win32,12.00768492,5693df018d93fe000dfa5733,64d2fd46c836a06233681665,64dc7a9bc17ffe2c217f3768,,,,,,,decisionTrl,resources/DG.BMP,resources/DBN.BMP,Door1,-0.242592564,-0.034259266,1,0,0,1.1283,optionLeft,30,2115,1,38,0,38,0,1,,,,,,,,,,,,,,,,,,,,,,,,,,,,,,,,,,,,,,,
,,,,,,,,2023-08-16_08h29.33.631,HF_wild_card,2022.2.4,Win32,12.00768492,5693df018d93fe000dfa5733,64d2fd46c836a06233681665,64dc7a9bc17ffe2c217f3768,,,,,,,decisionTrl,resources/DBN.BMP,resources/DG.BMP,Door1,0.311111168,-0.043518526,1,0,0,1.2867,optionRight,30,2145,1,39,0,39,0,1,,,,,,,,,,,,,,,,,,,,,,,,,,,,,,,,,,,,,,,
,,,,,,,,2023-08-16_08h29.33.631,HF_wild_card,2022.2.4,Win32,12.00768492,5693df018d93fe000dfa5733,64d2fd46c836a06233681665,64dc7a9bc17ffe2c217f3768,,,,,,,sngl,resources/Empty.png,resources/DY.BMP,WildCard_NonEx,0.263888889,-0.034259266,1,0,0,0.9361,optionRight,45,2190,1,40,0,40,0,1,,,,,,,,,,,,,,,,,,,,,,,,,,,,,,,,,,,,,,,
,,,,,,,,2023-08-16_08h29.33.631,HF_wild_card,2022.2.4,Win32,12.00768492,5693df018d93fe000dfa5733,64d2fd46c836a06233681665,64dc7a9bc17ffe2c217f3768,,,,,,,ctch,resources/DR.BMP,resources/DG.BMP,Door4,-0.428703697,-0.059259273,1,0,0,1.241,optionLeft,60,2250,1,41,0,41,0,1,,,,,,,,,,,,,,,,,,,,,,,,,,,,,,,,,,,,,,,
,,,,,,,,2023-08-16_08h29.33.631,HF_wild_card,2022.2.4,Win32,12.00768492,5693df018d93fe000dfa5733,64d2fd46c836a06233681665,64dc7a9bc17ffe2c217f3768,,,,,,,sngl,resources/DY.BMP,resources/Empty.png,WildCard_NonEx,-0.324999986,-0.005555577,1,0,0,0.7595,optionLeft,45,2295,1,42,0,42,0,1,,,,,,,,,,,,,,,,,,,,,,,,,,,,,,,,,,,,,,,
,,,,,,,,2023-08-16_08h29.33.631,HF_wild_card,2022.2.4,Win32,12.00768492,5693df018d93fe000dfa5733,64d2fd46c836a06233681665,64dc7a9bc17ffe2c217f3768,,,,,,,decisionTrl,resources/DBN.BMP,resources/DG.BMP,Door1,0.258333347,-0.043518526,1,0,0,1.056,optionRight,30,2325,1,43,0,43,0,1,,,,,,,,,,,,,,,,,,,,,,,,,,,,,,,,,,,,,,,
,,,,,,,,2023-08-16_08h29.33.631,HF_wild_card,2022.2.4,Win32,12.00768492,5693df018d93fe000dfa5733,64d2fd46c836a06233681665,64dc7a9bc17ffe2c217f3768,,,,,,,,,,,,,,,,,,,,,,,,,,0,0,0,0,1,,,,,,,,,,,,,,,,,,,,,,,,,,,,,,,,,,
,,,,,,,,2023-08-16_08h29.33.631,HF_wild_card,2022.2.4,Win32,12.00768492,5693df018d93fe000dfa5733,64d2fd46c836a06233681665,64dc7a9bc17ffe2c217f3768,,,,,,,ctch,resources/DR.BMP,resources/DG.BMP,Door4,-0.318518497,-0.212037051,1,0,0,1.4567,optionLeft,60,2385,2,0,0,0,0,1,,,,,,,,,,,,,,,,,,,,,,,,,,,,,,,,,,,,,,,
,,,,,,,,2023-08-16_08h29.33.631,HF_wild_card,2022.2.4,Win32,12.00768492,5693df018d93fe000dfa5733,64d2fd46c836a06233681665,64dc7a9bc17ffe2c217f3768,,,,,,,decisionTrl,resources/DR.BMP,resources/DY.BMP,Door4,-0.299999979,-0.10092594,1,0,0,1.0286,optionLeft,80,2465,2,1,0,1,0,1,,,,,,,,,,,,,,,,,,,,,,,,,,,,,,,,,,,,,,,
,,,,,,,,2023-08-16_08h29.33.631,HF_wild_card,2022.2.4,Win32,12.00768492,5693df018d93fe000dfa5733,64d2fd46c836a06233681665,64dc7a9bc17ffe2c217f3768,,,,,,,ctch,resources/DB.BMP,resources/DBN.BMP,Door3,-0.327777757,-0.063888903,1,0,0,1.027,optionLeft,70,2535,2,2,0,2,0,1,,,,,,,,,,,,,,,,,,,,,,,,,,,,,,,,,,,,,,,
,,,,,,,,2023-08-16_08h29.33.631,HF_wild_card,2022.2.4,Win32,12.00768492,5693df018d93fe000dfa5733,64d2fd46c836a06233681665,64dc7a9bc17ffe2c217f3768,,,,,,,decisionTrl,resources/DG.BMP,resources/DBN.BMP,Door1,-0.389814801,-0.075925933,1,0,0,1.6477,optionLeft,30,2565,2,3,0,3,0,1,,,,,,,,,,,,,,,,,,,,,,,,,,,,,,,,,,,,,,,
,,,,,,,,2023-08-16_08h29.33.631,HF_wild_card,2022.2.4,Win32,12.00768492,5693df018d93fe000dfa5733,64d2fd46c836a06233681665,64dc7a9bc17ffe2c217f3768,,,,,,,ctch,resources/DB.BMP,resources/DBN.BMP,Door3,-0.484259252,-0.133333347,1,0,0,1.2834,optionLeft,70,2635,2,4,0,4,0,1,,,,,,,,,,,,,,,,,,,,,,,,,,,,,,,,,,,,,,,
,,,,,,,,2023-08-16_08h29.33.631,HF_wild_card,2022.2.4,Win32,12.00768492,5693df018d93fe000dfa5733,64d2fd46c836a06233681665,64dc7a9bc17ffe2c217f3768,,,,,,,ctch,resources/DR.BMP,resources/DG.BMP,Door4,-0.289814772,-0.056481503,1,0,0,1.0409,optionLeft,60,2695,2,5,0,5,0,1,,,,,,,,,,,,,,,,,,,,,,,,,,,,,,,,,,,,,,,
,,,,,,,,2023-08-16_08h29.33.631,HF_wild_card,2022.2.4,Win32,12.00768492,5693df018d93fe000dfa5733,64d2fd46c836a06233681665,64dc7a9bc17ffe2c217f3768,,,,,,,sngl,resources/Empty.png,resources/DR.BMP,Door4,0.340740769,-0.025000007,1,0,0,0.9369,optionRight,80,2775,2,6,0,6,0,1,,,,,,,,,,,,,,,,,,,,,,,,,,,,,,,,,,,,,,,
,,,,,,,,2023-08-16_08h29.33.631,HF_wild_card,2022.2.4,Win32,12.00768492,5693df018d93fe000dfa5733,64d2fd46c836a06233681665,64dc7a9bc17ffe2c217f3768,,,,,,,decisionTrl,resources/DR.BMP,resources/DB.BMP,Door4,-0.280555513,-0.040740755,1,0,0,1.063,optionLeft,60,2835,2,7,0,7,0,1,,,,,,,,,,,,,,,,,,,,,,,,,,,,,,,,,,,,,,,
,,,,,,,,2023-08-16_08h29.33.631,HF_wild_card,2022.2.4,Win32,12.00768492,5693df018d93fe000dfa5733,64d2fd46c836a06233681665,64dc7a9bc17ffe2c217f3768,,,,,,,decisionTrl,resources/DBN.BMP,resources/DG.BMP,Door1,0.377777806,-0.065740762,1,0,0,1.2439,optionRight,30,2865,2,8,0,8,0,1,,,,,,,,,,,,,,,,,,,,,,,,,,,,,,,,,,,,,,,
,,,,,,,,2023-08-16_08h29.33.631,HF_wild_card,2022.2.4,Win32,12.00768492,5693df018d93fe000dfa5733,64d2fd46c836a06233681665,64dc7a9bc17ffe2c217f3768,,,,,,,sngl,resources/DY.BMP,resources/Empty.png,WildCard_NonEx,-0.315740727,-0.025000007,1,0,0,0.9493,optionLeft,55,2920,2,9,0,9,0,1,,,,,,,,,,,,,,,,,,,,,,,,,,,,,,,,,,,,,,,
,,,,,,,,2023-08-16_08h29.33.631,HF_wild_card,2022.2.4,Win32,12.00768492,5693df018d93fe000dfa5733,64d2fd46c836a06233681665,64dc7a9bc17ffe2c217f3768,,,,,,,sngl,resources/DY.BMP,resources/Empty.png,WildCard_NonEx,-0.365740741,-0.000925947,1,0,0,0.9485,optionLeft,45,2965,2,10,0,10,0,1,,,,,,,,,,,,,,,,,,,,,,,,,,,,,,,,,,,,,,,
,,,,,,,,2023-08-16_08h29.33.631,HF_wild_card,2022.2.4,Win32,12.00768492,5693df018d93fe000dfa5733,64d2fd46c836a06233681665,64dc7a9bc17ffe2c217f3768,,,,,,,decisionTrl,resources/DY.BMP,resources/DBN.BMP,WildCard_NonEx,-0.294444402,-0.026851866,1,0,0,2.1,optionLeft,45,3010,2,11,0,11,0,1,,,,,,,,,,,,,,,,,,,,,,,,,,,,,,,,,,,,,,,
,,,,,,,,2023-08-16_08h29.33.631,HF_wild_card,2022.2.4,Win32,12.00768492,5693df018d93fe000dfa5733,64d2fd46c836a06233681665,64dc7a9bc17ffe2c217f3768,,,,,,,sngl,resources/Empty.png,resources/DY.BMP,WildCard_NonEx,0.455555527,-0.036111125,1,0,0,0.9521,optionRight,45,3055,2,12,0,12,0,1,,,,,,,,,,,,,,,,,,,,,,,,,,,,,,,,,,,,,,,
,,,,,,,,2023-08-16_08h29.33.631,HF_wild_card,2022.2.4,Win32,12.00768492,5693df018d93fe000dfa5733,64d2fd46c836a06233681665,64dc7a9bc17ffe2c217f3768,,,,,,,decisionTrl,resources/DB.BMP,resources/DR.BMP,Door3,-0.246296282,-0.024074095,1,0,0,1.2429,optionLeft,70,3125,2,13,0,13,0,1,,,,,,,,,,,,,,,,,,,,,,,,,,,,,,,,,,,,,,,
,,,,,,,,2023-08-16_08h29.33.631,HF_wild_card,2022.2.4,Win32,12.00768492,5693df018d93fe000dfa5733,64d2fd46c836a06233681665,64dc7a9bc17ffe2c217f3768,,,,,,,decisionTrl,resources/DG.BMP,resources/DBN.BMP,Door1,-0.326851845,-0.048148155,1,0,0,1.2497,optionLeft,30,3155,2,14,0,14,0,1,,,,,,,,,,,,,,,,,,,,,,,,,,,,,,,,,,,,,,,
,,,,,,,,2023-08-16_08h29.33.631,HF_wild_card,2022.2.4,Win32,12.00768492,5693df018d93fe000dfa5733,64d2fd46c836a06233681665,64dc7a9bc17ffe2c217f3768,,,,,,,sngl,resources/DR.BMP,resources/Empty.png,Door4,-0.276851866,-0.010185206,1,0,0,1.1252,optionLeft,60,3215,2,15,0,15,0,1,,,,,,,,,,,,,,,,,,,,,,,,,,,,,,,,,,,,,,,
,,,,,,,,2023-08-16_08h29.33.631,HF_wild_card,2022.2.4,Win32,12.00768492,5693df018d93fe000dfa5733,64d2fd46c836a06233681665,64dc7a9bc17ffe2c217f3768,,,,,,,sngl,resources/DBN.BMP,resources/Empty.png,Door2,-0.233333305,-0.026851866,1,0,0,2.0867,optionLeft,20,3235,2,16,0,16,0,1,,,,,,,,,,,,,,,,,,,,,,,,,,,,,,,,,,,,,,,
,,,,,,,,2023-08-16_08h29.33.631,HF_wild_card,2022.2.4,Win32,12.00768492,5693df018d93fe000dfa5733,64d2fd46c836a06233681665,64dc7a9bc17ffe2c217f3768,,,,,,,decisionTrl,resources/DB.BMP,resources/DR.BMP,Door4,0.272222236,-0.063888903,1,0,0,1.2613,optionRight,80,3315,2,17,0,17,0,1,,,,,,,,,,,,,,,,,,,,,,,,,,,,,,,,,,,,,,,
,,,,,,,,2023-08-16_08h29.33.631,HF_wild_card,2022.2.4,Win32,12.00768492,5693df018d93fe000dfa5733,64d2fd46c836a06233681665,64dc7a9bc17ffe2c217f3768,,,,,,,sngl,resources/Empty.png,resources/DB.BMP,Door3,0.314814815,-0.029629637,1,0,0,1.53,optionRight,70,3385,2,18,0,18,0,1,,,,,,,,,,,,,,,,,,,,,,,,,,,,,,,,,,,,,,,
,,,,,,,,2023-08-16_08h29.33.631,HF_wild_card,2022.2.4,Win32,12.00768492,5693df018d93fe000dfa5733,64d2fd46c836a06233681665,64dc7a9bc17ffe2c217f3768,,,,,,,sngl,resources/Empty.png,resources/DBN.BMP,Door2,0.348148205,-0.002777771,1,0,0,0.9578,optionRight,40,3425,2,19,0,19,0,1,,,,,,,,,,,,,,,,,,,,,,,,,,,,,,,,,,,,,,,
,,,,,,,,2023-08-16_08h29.33.631,HF_wild_card,2022.2.4,Win32,12.00768492,5693df018d93fe000dfa5733,64d2fd46c836a06233681665,64dc7a9bc17ffe2c217f3768,,,,,,,decisionTrl,resources/DG.BMP,resources/DBN.BMP,Door1,-0.330555563,-0.002777771,1,0,0,1.6373,optionLeft,30,3455,2,20,0,20,0,1,,,,,,,,,,,,,,,,,,,,,,,,,,,,,,,,,,,,,,,
,,,,,,,,2023-08-16_08h29.33.631,HF_wild_card,2022.2.4,Win32,12.00768492,5693df018d93fe000dfa5733,64d2fd46c836a06233681665,64dc7a9bc17ffe2c217f3768,,,,,,,decisionTrl,resources/DBN.BMP,resources/DG.BMP,Door1,0.428703732,-0.064814815,1,0,0,1.0351,optionRight,30,3485,2,21,0,21,0,1,,,,,,,,,,,,,,,,,,,,,,,,,,,,,,,,,,,,,,,
,,,,,,,,2023-08-16_08h29.33.631,HF_wild_card,2022.2.4,Win32,12.00768492,5693df018d93fe000dfa5733,64d2fd46c836a06233681665,64dc7a9bc17ffe2c217f3768,,,,,,,ctch,resources/DG.BMP,resources/DR.BMP,Door4,0.216666681,-0.032407407,1,0,0,2.7083,optionRight,80,3565,2,22,0,22,0,1,,,,,,,,,,,,,,,,,,,,,,,,,,,,,,,,,,,,,,,
,,,,,,,,2023-08-16_08h29.33.631,HF_wild_card,2022.2.4,Win32,12.00768492,5693df018d93fe000dfa5733,64d2fd46c836a06233681665,64dc7a9bc17ffe2c217f3768,,,,,,,decisionTrl,resources/DBN.BMP,resources/DG.BMP,Door1,0.373148176,-0.036111125,1,0,0,1.0548,optionRight,30,3595,2,23,0,23,0,1,,,,,,,,,,,,,,,,,,,,,,,,,,,,,,,,,,,,,,,
,,,,,,,,2023-08-16_08h29.33.631,HF_wild_card,2022.2.4,Win32,12.00768492,5693df018d93fe000dfa5733,64d2fd46c836a06233681665,64dc7a9bc17ffe2c217f3768,,,,,,,decisionTrl,resources/DY.BMP,resources/DR.BMP,Door4,0.301851908,-0.032407407,1,0,0,0.8896,optionRight,60,3655,2,24,0,24,0,1,,,,,,,,,,,,,,,,,,,,,,,,,,,,,,,,,,,,,,,
,,,,,,,,2023-08-16_08h29.33.631,HF_wild_card,2022.2.4,Win32,12.00768492,5693df018d93fe000dfa5733,64d2fd46c836a06233681665,64dc7a9bc17ffe2c217f3768,,,,,,,decisionTrl,resources/DR.BMP,resources/DB.BMP,Door4,-0.321296303,-0.057407414,1,0,0,1.868,optionLeft,80,3735,2,25,0,25,0,1,,,,,,,,,,,,,,,,,,,,,,,,,,,,,,,,,,,,,,,
,,,,,,,,2023-08-16_08h29.33.631,HF_wild_card,2022.2.4,Win32,12.00768492,5693df018d93fe000dfa5733,64d2fd46c836a06233681665,64dc7a9bc17ffe2c217f3768,,,,,,,ctch,resources/DBN.BMP,resources/DB.BMP,Door3,0.24537037,-0.073148162,1,0,0,1.7976,optionRight,70,3805,2,26,0,26,0,1,,,,,,,,,,,,,,,,,,,,,,,,,,,,,,,,,,,,,,,
,,,,,,,,2023-08-16_08h29.33.631,HF_wild_card,2022.2.4,Win32,12.00768492,5693df018d93fe000dfa5733,64d2fd46c836a06233681665,64dc7a9bc17ffe2c217f3768,,,,,,,decisionTrl,resources/DB.BMP,resources/DY.BMP,WildCard_NonEx,0.229629658,-0.072222215,1,0,0,1.24,optionRight,45,3850,2,27,0,27,0,1,,,,,,,,,,,,,,,,,,,,,,,,,,,,,,,,,,,,,,,
,,,,,,,,2023-08-16_08h29.33.631,HF_wild_card,2022.2.4,Win32,12.00768492,5693df018d93fe000dfa5733,64d2fd46c836a06233681665,64dc7a9bc17ffe2c217f3768,,,,,,,decisionTrl,resources/DB.BMP,resources/DR.BMP,Door3,-0.349999993,-0.059259273,1,0,0,0.8072,optionLeft,70,3920,2,28,0,28,0,1,,,,,,,,,,,,,,,,,,,,,,,,,,,,,,,,,,,,,,,
,,,,,,,,2023-08-16_08h29.33.631,HF_wild_card,2022.2.4,Win32,12.00768492,5693df018d93fe000dfa5733,64d2fd46c836a06233681665,64dc7a9bc17ffe2c217f3768,,,,,,,decisionTrl,resources/DR.BMP,resources/DB.BMP,Door3,0.268518519,-0.053703697,1,0,0,1.059,optionRight,70,3990,2,29,0,29,0,1,,,,,,,,,,,,,,,,,,,,,,,,,,,,,,,,,,,,,,,
,,,,,,,,2023-08-16_08h29.33.631,HF_wild_card,2022.2.4,Win32,12.00768492,5693df018d93fe000dfa5733,64d2fd46c836a06233681665,64dc7a9bc17ffe2c217f3768,,,,,,,sngl,resources/Empty.png,resources/DG.BMP,Door1,0.308333362,-0.032407407,1,0,0,1.7665,optionRight,30,4020,2,30,0,30,0,1,,,,,,,,,,,,,,,,,,,,,,,,,,,,,,,,,,,,,,,
,,,,,,,,2023-08-16_08h29.33.631,HF_wild_card,2022.2.4,Win32,12.00768492,5693df018d93fe000dfa5733,64d2fd46c836a06233681665,64dc7a9bc17ffe2c217f3768,,,,,,,sngl,resources/Empty.png,resources/DY.BMP,WildCard_NonEx,0.249074088,-0.048148155,1,0,0,0.9376,optionRight,55,4075,2,31,0,31,0,1,,,,,,,,,,,,,,,,,,,,,,,,,,,,,,,,,,,,,,,
,,,,,,,,2023-08-16_08h29.33.631,HF_wild_card,2022.2.4,Win32,12.00768492,5693df018d93fe000dfa5733,64d2fd46c836a06233681665,64dc7a9bc17ffe2c217f3768,,,,,,,sngl,resources/DB.BMP,resources/Empty.png,Door3,-0.305555556,-0.073148162,1,0,0,1.4975,optionLeft,70,4145,2,32,0,32,0,1,,,,,,,,,,,,,,,,,,,,,,,,,,,,,,,,,,,,,,,
,,,,,,,,2023-08-16_08h29.33.631,HF_wild_card,2022.2.4,Win32,12.00768492,5693df018d93fe000dfa5733,64d2fd46c836a06233681665,64dc7a9bc17ffe2c217f3768,,,,,,,decisionTrl,resources/DY.BMP,resources/DB.BMP,Door3,0.270370413,-0.040740755,1,0,0,0.8347,optionRight,70,4215,2,33,0,33,0,1,,,,,,,,,,,,,,,,,,,,,,,,,,,,,,,,,,,,,,,
,,,,,,,,2023-08-16_08h29.33.631,HF_wild_card,2022.2.4,Win32,12.00768492,5693df018d93fe000dfa5733,64d2fd46c836a06233681665,64dc7a9bc17ffe2c217f3768,,,,,,,decisionTrl,resources/DBN.BMP,resources/DG.BMP,Door1,0.294444473,-0.037037037,1,0,0,0.8601,optionRight,30,4245,2,34,0,34,0,1,,,,,,,,,,,,,,,,,,,,,,,,,,,,,,,,,,,,,,,
,,,,,,,,2023-08-16_08h29.33.631,HF_wild_card,2022.2.4,Win32,12.00768492,5693df018d93fe000dfa5733,64d2fd46c836a06233681665,64dc7a9bc17ffe2c217f3768,,,,,,,decisionTrl,resources/DR.BMP,resources/DB.BMP,Door4,-0.003703718,-0.005555577,1,0,0,0.4428,optionLeft,80,4325,2,35,0,35,0,1,,,,,,,,,,,,,,,,,,,,,,,,,,,,,,,,,,,,,,,
,,,,,,,,2023-08-16_08h29.33.631,HF_wild_card,2022.2.4,Win32,12.00768492,5693df018d93fe000dfa5733,64d2fd46c836a06233681665,64dc7a9bc17ffe2c217f3768,,,,,,,decisionTrl,resources/DG.BMP,resources/DY.BMP,WildCard_NonEx,0.280555584,-0.078703704,1,0,0,1.2449,optionRight,45,4370,2,36,0,36,0,1,,,,,,,,,,,,,,,,,,,,,,,,,,,,,,,,,,,,,,,
,,,,,,,,2023-08-16_08h29.33.631,HF_wild_card,2022.2.4,Win32,12.00768492,5693df018d93fe000dfa5733,64d2fd46c836a06233681665,64dc7a9bc17ffe2c217f3768,,,,,,,decisionTrl,resources/DY.BMP,resources/DG.BMP,Door1,0.323148233,-0.047222243,1,0,0,1.0552,optionRight,30,4400,2,37,0,37,0,1,,,,,,,,,,,,,,,,,,,,,,,,,,,,,,,,,,,,,,,
,,,,,,,,2023-08-16_08h29.33.631,HF_wild_card,2022.2.4,Win32,12.00768492,5693df018d93fe000dfa5733,64d2fd46c836a06233681665,64dc7a9bc17ffe2c217f3768,,,,,,,ctch,resources/DG.BMP,resources/DR.BMP,Door4,0.276851866,-0.026851866,1,0,0,1.12,optionRight,60,4460,2,38,0,38,0,1,,,,,,,,,,,,,,,,,,,,,,,,,,,,,,,,,,,,,,,
,,,,,,,,2023-08-16_08h29.33.631,HF_wild_card,2022.2.4,Win32,12.00768492,5693df018d93fe000dfa5733,64d2fd46c836a06233681665,64dc7a9bc17ffe2c217f3768,,,,,,,sngl,resources/DG.BMP,resources/Empty.png,Door1,-0.257407365,-0.050925926,1,0,0,0.9594,optionLeft,30,4490,2,39,0,39,0,1,,,,,,,,,,,,,,,,,,,,,,,,,,,,,,,,,,,,,,,
,,,,,,,,2023-08-16_08h29.33.631,HF_wild_card,2022.2.4,Win32,12.00768492,5693df018d93fe000dfa5733,64d2fd46c836a06233681665,64dc7a9bc17ffe2c217f3768,,,,,,,ctch,resources/DBN.BMP,resources/DB.BMP,Door3,0.223148134,-0.037962984,1,0,0,0.9129,optionRight,70,4560,2,40,0,40,0,1,,,,,,,,,,,,,,,,,,,,,,,,,,,,,,,,,,,,,,,
,,,,,,,,2023-08-16_08h29.33.631,HF_wild_card,2022.2.4,Win32,12.00768492,5693df018d93fe000dfa5733,64d2fd46c836a06233681665,64dc7a9bc17ffe2c217f3768,,,,,,,decisionTrl,resources/DB.BMP,resources/DR.BMP,Door3,-0.287037037,-0.073148162,1,0,0,0.839,optionLeft,70,4630,2,41,0,41,0,1,,,,,,,,,,,,,,,,,,,,,,,,,,,,,,,,,,,,,,,
,,,,,,,,2023-08-16_08h29.33.631,HF_wild_card,2022.2.4,Win32,12.00768492,5693df018d93fe000dfa5733,64d2fd46c836a06233681665,64dc7a9bc17ffe2c217f3768,,,,,,,decisionTrl,resources/DG.BMP,resources/DBN.BMP,Door1,-0.232407393,-0.056481503,1,0,0,1.1055,optionLeft,30,4660,2,42,0,42,0,1,,,,,,,,,,,,,,,,,,,,,,,,,,,,,,,,,,,,,,,
,,,,,,,,2023-08-16_08h29.33.631,HF_wild_card,2022.2.4,Win32,12.00768492,5693df018d93fe000dfa5733,64d2fd46c836a06233681665,64dc7a9bc17ffe2c217f3768,,,,,,,decisionTrl,resources/DBN.BMP,resources/DY.BMP,Door2,-0.260185171,-0.047222243,1,0,0,1.7171,optionLeft,20,4680,2,43,0,43,0,1,,,,,,,,,,,,,,,,,,,,,,,,,,,,,,,,,,,,,,,
,,,,,,,,2023-08-16_08h29.33.631,HF_wild_card,2022.2.4,Win32,12.00768492,5693df018d93fe000dfa5733,64d2fd46c836a06233681665,64dc7a9bc17ffe2c217f3768,,,,,,,,,,,,,,,,,,,,,,,,,,1,0,1,0,1,,,,,,,,,,,,,,,,,,,,,,,,,,,,,,,,,,
,,,,,,,,2023-08-16_08h29.33.631,HF_wild_card,2022.2.4,Win32,12.00768492,5693df018d93fe000dfa5733,64d2fd46c836a06233681665,64dc7a9bc17ffe2c217f3768,,,,,,,decisionTrl,resources/DBN.BMP,resources/DG.BMP,Door1,0.294444473,-0.103703746,1,0,0,1.8615,optionRight,30,4710,3,0,0,0,0,1,,,,,,,,,,,,,,,,,,,,,,,,,,,,,,,,,,,,,,,
,,,,,,,,2023-08-16_08h29.33.631,HF_wild_card,2022.2.4,Win32,12.00768492,5693df018d93fe000dfa5733,64d2fd46c836a06233681665,64dc7a9bc17ffe2c217f3768,,,,,,,sngl,resources/Empty.png,resources/DB.BMP,Door3,0.308333362,-0.026851866,1,0,0,0.9425,optionRight,70,4780,3,1,0,1,0,1,,,,,,,,,,,,,,,,,,,,,,,,,,,,,,,,,,,,,,,
,,,,,,,,2023-08-16_08h29.33.631,HF_wild_card,2022.2.4,Win32,12.00768492,5693df018d93fe000dfa5733,64d2fd46c836a06233681665,64dc7a9bc17ffe2c217f3768,,,,,,,sngl,resources/Empty.png,resources/DBN.BMP,Door2,0.334259316,-0.053703697,1,0,0,0.9573,optionRight,20,4800,3,2,0,2,0,1,,,,,,,,,,,,,,,,,,,,,,,,,,,,,,,,,,,,,,,
,,,,,,,,2023-08-16_08h29.33.631,HF_wild_card,2022.2.4,Win32,12.00768492,5693df018d93fe000dfa5733,64d2fd46c836a06233681665,64dc7a9bc17ffe2c217f3768,,,,,,,sngl,resources/DG.BMP,resources/Empty.png,Door1,-0.29351849,-0.060185185,1,0,0,1.1303,optionLeft,30,4830,3,3,0,3,0,1,,,,,,,,,,,,,,,,,,,,,,,,,,,,,,,,,,,,,,,
,,,,,,,,2023-08-16_08h29.33.631,HF_wild_card,2022.2.4,Win32,12.00768492,5693df018d93fe000dfa5733,64d2fd46c836a06233681665,64dc7a9bc17ffe2c217f3768,,,,,,,ctch,resources/DBN.BMP,resources/DB.BMP,Door3,0.40370376,-0.035185178,1,0,0,1.0241,optionRight,70,4900,3,4,0,4,0,1,,,,,,,,,,,,,,,,,,,,,,,,,,,,,,,,,,,,,,,
,,,,,,,,2023-08-16_08h29.33.631,HF_wild_card,2022.2.4,Win32,12.00768492,5693df018d93fe000dfa5733,64d2fd46c836a06233681665,64dc7a9bc17ffe2c217f3768,,,,,,,decisionTrl,resources/DB.BMP,resources/DR.BMP,Door3,-0.212037051,-0.071296303,1,0,0,0.9073,optionLeft,70,4970,3,5,0,5,0,1,,,,,,,,,,,,,,,,,,,,,,,,,,,,,,,,,,,,,,,
,,,,,,,,2023-08-16_08h29.33.631,HF_wild_card,2022.2.4,Win32,12.00768492,5693df018d93fe000dfa5733,64d2fd46c836a06233681665,64dc7a9bc17ffe2c217f3768,,,,,,,decisionTrl,resources/DR.BMP,resources/DB.BMP,Door3,0.264814801,-0.025925919,1,0,0,0.8512,optionRight,70,5040,3,6,0,6,0,1,,,,,,,,,,,,,,,,,,,,,,,,,,,,,,,,,,,,,,,
,,,,,,,,2023-08-16_08h29.33.631,HF_wild_card,2022.2.4,Win32,12.00768492,5693df018d93fe000dfa5733,64d2fd46c836a06233681665,64dc7a9bc17ffe2c217f3768,,,,,,,ctch,resources/DBN.BMP,resources/DB.BMP,Door3,0.356481481,-0.028703725,1,0,0,0.8576,optionRight,70,5110,3,7,0,7,0,1,,,,,,,,,,,,,,,,,,,,,,,,,,,,,,,,,,,,,,,
,,,,,,,,2023-08-16_08h29.33.631,HF_wild_card,2022.2.4,Win32,12.00768492,5693df018d93fe000dfa5733,64d2fd46c836a06233681665,64dc7a9bc17ffe2c217f3768,,,,,,,decisionTrl,resources/DB.BMP,resources/DR.BMP,Door3,-0.287037037,-0.090740734,1,0,0,1.0352,optionLeft,70,5180,3,8,0,8,0,1,,,,,,,,,,,,,,,,,,,,,,,,,,,,,,,,,,,,,,,
,,,,,,,,2023-08-16_08h29.33.631,HF_wild_card,2022.2.4,Win32,12.00768492,5693df018d93fe000dfa5733,64d2fd46c836a06233681665,64dc7a9bc17ffe2c217f3768,,,,,,,ctch,resources/DB.BMP,resources/DBN.BMP,Door3,-0.264814801,-0.075925933,1,0,0,1.6593,optionLeft,70,5250,3,9,0,9,0,1,,,,,,,,,,,,,,,,,,,,,,,,,,,,,,,,,,,,,,,
,,,,,,,,2023-08-16_08h29.33.631,HF_wild_card,2022.2.4,Win32,12.00768492,5693df018d93fe000dfa5733,64d2fd46c836a06233681665,64dc7a9bc17ffe2c217f3768,,,,,,,decisionTrl,resources/DY.BMP,resources/DBN.BMP,WildCard_NonEx,-0.387962942,-0.045370384,1,0,0,2.7088,optionLeft,55,5305,3,10,0,10,0,1,,,,,,,,,,,,,,,,,,,,,,,,,,,,,,,,,,,,,,,
,,,,,,,,2023-08-16_08h29.33.631,HF_wild_card,2022.2.4,Win32,12.00768492,5693df018d93fe000dfa5733,64d2fd46c836a06233681665,64dc7a9bc17ffe2c217f3768,,,,,,,decisionTrl,resources/DR.BMP,resources/DB.BMP,Door3,0.37962963,-0.060185185,1,0,0,1.0513,optionRight,70,5375,3,11,0,11,0,1,,,,,,,,,,,,,,,,,,,,,,,,,,,,,,,,,,,,,,,
,,,,,,,,2023-08-16_08h29.33.631,HF_wild_card,2022.2.4,Win32,12.00768492,5693df018d93fe000dfa5733,64d2fd46c836a06233681665,64dc7a9bc17ffe2c217f3768,,,,,,,ctch,resources/DG.BMP,resources/DR.BMP,Door4,0.250925912,-0.049074067,1,0,0,1.709,optionRight,60,5435,3,12,0,12,0,1,,,,,,,,,,,,,,,,,,,,,,,,,,,,,,,,,,,,,,,
,,,,,,,,2023-08-16_08h29.33.631,HF_wild_card,2022.2.4,Win32,12.00768492,5693df018d93fe000dfa5733,64d2fd46c836a06233681665,64dc7a9bc17ffe2c217f3768,,,,,,,ctch,resources/DR.BMP,resources/DG.BMP,Door4,-0.324999986,-0.068518533,1,0,0,1.1222,optionLeft,60,5495,3,13,0,13,0,1,,,,,,,,,,,,,,,,,,,,,,,,,,,,,,,,,,,,,,,
,,,,,,,,2023-08-16_08h29.33.631,HF_wild_card,2022.2.4,Win32,12.00768492,5693df018d93fe000dfa5733,64d2fd46c836a06233681665,64dc7a9bc17ffe2c217f3768,,,,,,,decisionTrl,resources/DY.BMP,resources/DR.BMP,WildCard_NonEx,-0.35833334,-0.035185178,1,0,0,2.0332,optionLeft,55,5550,3,14,0,14,0,1,,,,,,,,,,,,,,,,,,,,,,,,,,,,,,,,,,,,,,,
,,,,,,,,2023-08-16_08h29.33.631,HF_wild_card,2022.2.4,Win32,12.00768492,5693df018d93fe000dfa5733,64d2fd46c836a06233681665,64dc7a9bc17ffe2c217f3768,,,,,,,decisionTrl,resources/DBN.BMP,resources/DG.BMP,Door1,0.210185228,-0.023148148,1,0,0,1.0979,optionRight,30,5580,3,15,0,15,0,1,,,,,,,,,,,,,,,,,,,,,,,,,,,,,,,,,,,,,,,
,,,,,,,,2023-08-16_08h29.33.631,HF_wild_card,2022.2.4,Win32,12.00768492,5693df018d93fe000dfa5733,64d2fd46c836a06233681665,64dc7a9bc17ffe2c217f3768,,,,,,,sngl,resources/Empty.png,resources/DG.BMP,Door1,0.227777764,-0.035185178,1,0,0,1.8797,optionRight,30,5610,3,16,0,16,0,1,,,,,,,,,,,,,,,,,,,,,,,,,,,,,,,,,,,,,,,
,,,,,,,,2023-08-16_08h29.33.631,HF_wild_card,2022.2.4,Win32,12.00768492,5693df018d93fe000dfa5733,64d2fd46c836a06233681665,64dc7a9bc17ffe2c217f3768,,,,,,,decisionTrl,resources/DR.BMP,resources/DB.BMP,Door3,0.281481496,-0.058333326,1,0,0,1.0073,optionRight,70,5680,3,17,0,17,0,1,,,,,,,,,,,,,,,,,,,,,,,,,,,,,,,,,,,,,,,
,,,,,,,,2023-08-16_08h29.33.631,HF_wild_card,2022.2.4,Win32,12.00768492,5693df018d93fe000dfa5733,64d2fd46c836a06233681665,64dc7a9bc17ffe2c217f3768,,,,,,,decisionTrl,resources/DBN.BMP,resources/DG.BMP,Door2,-0.324999986,-0.095370399,1,0,0,1.3378,optionLeft,40,5720,3,18,0,18,0,1,,,,,,,,,,,,,,,,,,,,,,,,,,,,,,,,,,,,,,,
,,,,,,,,2023-08-16_08h29.33.631,HF_wild_card,2022.2.4,Win32,12.00768492,5693df018d93fe000dfa5733,64d2fd46c836a06233681665,64dc7a9bc17ffe2c217f3768,,,,,,,decisionTrl,resources/DB.BMP,resources/DR.BMP,Door3,-0.3675926,-0.060185185,1,0,0,1.2013,optionLeft,70,5790,3,19,0,19,0,1,,,,,,,,,,,,,,,,,,,,,,,,,,,,,,,,,,,,,,,
,,,,,,,,2023-08-16_08h29.33.631,HF_wild_card,2022.2.4,Win32,12.00768492,5693df018d93fe000dfa5733,64d2fd46c836a06233681665,64dc7a9bc17ffe2c217f3768,,,,,,,sngl,resources/DR.BMP,resources/Empty.png,Door4,-0.25462963,-0.050925926,1,0,0,1.2398,optionLeft,80,5870,3,20,0,20,0,1,,,,,,,,,,,,,,,,,,,,,,,,,,,,,,,,,,,,,,,
,,,,,,,,2023-08-16_08h29.33.631,HF_wild_card,2022.2.4,Win32,12.00768492,5693df018d93fe000dfa5733,64d2fd46c836a06233681665,64dc7a9bc17ffe2c217f3768,,,,,,,ctch,resources/DB.BMP,resources/DBN.BMP,Door3,-0.237037023,-0.021296289,1,0,0,1.0466,optionLeft,70,5940,3,21,0,21,0,1,,,,,,,,,,,,,,,,,,,,,,,,,,,,,,,,,,,,,,,
,,,,,,,,2023-08-16_08h29.33.631,HF_wild_card,2022.2.4,Win32,12.00768492,5693df018d93fe000dfa5733,64d2fd46c836a06233681665,64dc7a9bc17ffe2c217f3768,,,,,,,decisionTrl,resources/DB.BMP,resources/DY.BMP,Door3,-0.270370342,-0.063888903,1,0,0,0.9966,optionLeft,70,6010,3,22,0,22,0,1,,,,,,,,,,,,,,,,,,,,,,,,,,,,,,,,,,,,,,,
,,,,,,,,2023-08-16_08h29.33.631,HF_wild_card,2022.2.4,Win32,12.00768492,5693df018d93fe000dfa5733,64d2fd46c836a06233681665,64dc7a9bc17ffe2c217f3768,,,,,,,decisionTrl,resources/DBN.BMP,resources/DG.BMP,Door1,0.333333333,-0.030555548,1,0,0,2.9786,optionRight,30,6040,3,23,0,23,0,1,,,,,,,,,,,,,,,,,,,,,,,,,,,,,,,,,,,,,,,
,,,,,,,,2023-08-16_08h29.33.631,HF_wild_card,2022.2.4,Win32,12.00768492,5693df018d93fe000dfa5733,64d2fd46c836a06233681665,64dc7a9bc17ffe2c217f3768,,,,,,,decisionTrl,resources/DR.BMP,resources/DY.BMP,WildCard_NonEx,0.279629672,-0.033333355,1,0,0,1.3946,optionRight,45,6085,3,24,0,24,0,1,,,,,,,,,,,,,,,,,,,,,,,,,,,,,,,,,,,,,,,
,,,,,,,,2023-08-16_08h29.33.631,HF_wild_card,2022.2.4,Win32,12.00768492,5693df018d93fe000dfa5733,64d2fd46c836a06233681665,64dc7a9bc17ffe2c217f3768,,,,,,,decisionTrl,resources/DG.BMP,resources/DBN.BMP,Door2,0.27870369,-0.039814808,1,0,0,1.2897,optionRight,40,6125,3,25,0,25,0,1,,,,,,,,,,,,,,,,,,,,,,,,,,,,,,,,,,,,,,,
,,,,,,,,2023-08-16_08h29.33.631,HF_wild_card,2022.2.4,Win32,12.00768492,5693df018d93fe000dfa5733,64d2fd46c836a06233681665,64dc7a9bc17ffe2c217f3768,,,,,,,sngl,resources/DY.BMP,resources/Empty.png,WildCard_NonEx,-0.330555563,-0.078703704,1,0,0,0.9499,optionLeft,45,6170,3,26,0,26,0,1,,,,,,,,,,,,,,,,,,,,,,,,,,,,,,,,,,,,,,,
,,,,,,,,2023-08-16_08h29.33.631,HF_wild_card,2022.2.4,Win32,12.00768492,5693df018d93fe000dfa5733,64d2fd46c836a06233681665,64dc7a9bc17ffe2c217f3768,,,,,,,sngl,resources/Empty.png,resources/DY.BMP,WildCard_NonEx,0.280555584,-0.050925926,1,0,0,1.0212,optionRight,55,6225,3,27,0,27,0,1,,,,,,,,,,,,,,,,,,,,,,,,,,,,,,,,,,,,,,,
,,,,,,,,2023-08-16_08h29.33.631,HF_wild_card,2022.2.4,Win32,12.00768492,5693df018d93fe000dfa5733,64d2fd46c836a06233681665,64dc7a9bc17ffe2c217f3768,,,,,,,decisionTrl,resources/DB.BMP,resources/DR.BMP,Door3,-0.314814815,-0.063888903,1,0,0,0.83,optionLeft,70,6295,3,28,0,28,0,1,,,,,,,,,,,,,,,,,,,,,,,,,,,,,,,,,,,,,,,
,,,,,,,,2023-08-16_08h29.33.631,HF_wild_card,2022.2.4,Win32,12.00768492,5693df018d93fe000dfa5733,64d2fd46c836a06233681665,64dc7a9bc17ffe2c217f3768,,,,,,,decisionTrl,resources/DY.BMP,resources/DB.BMP,Door3,0.296296296,-0.022222236,1,0,0,0.8504,optionRight,70,6365,3,29,0,29,0,1,,,,,,,,,,,,,,,,,,,,,,,,,,,,,,,,,,,,,,,
,,,,,,,,2023-08-16_08h29.33.631,HF_wild_card,2022.2.4,Win32,12.00768492,5693df018d93fe000dfa5733,64d2fd46c836a06233681665,64dc7a9bc17ffe2c217f3768,,,,,,,ctch,resources/DR.BMP,resources/DG.BMP,Door4,-0.258333347,-0.041666667,1,0,0,2.3446,optionLeft,80,6445,3,30,0,30,0,1,,,,,,,,,,,,,,,,,,,,,,,,,,,,,,,,,,,,,,,
,,,,,,,,2023-08-16_08h29.33.631,HF_wild_card,2022.2.4,Win32,12.00768492,5693df018d93fe000dfa5733,64d2fd46c836a06233681665,64dc7a9bc17ffe2c217f3768,,,,,,,decisionTrl,resources/DG.BMP,resources/DBN.BMP,Door1,-0.461111104,-0.032407407,1,0,0,1.8351,optionLeft,30,6475,3,31,0,31,0,1,,,,,,,,,,,,,,,,,,,,,,,,,,,,,,,,,,,,,,,
,,,,,,,,2023-08-16_08h29.33.631,HF_wild_card,2022.2.4,Win32,12.00768492,5693df018d93fe000dfa5733,64d2fd46c836a06233681665,64dc7a9bc17ffe2c217f3768,,,,,,,decisionTrl,resources/DG.BMP,resources/DY.BMP,WildCard_NonEx,0.168518561,-0.037962984,1,0,0,1.6772,optionRight,55,6530,3,32,0,32,0,1,,,,,,,,,,,,,,,,,,,,,,,,,,,,,,,,,,,,,,,
,,,,,,,,2023-08-16_08h29.33.631,HF_wild_card,2022.2.4,Win32,12.00768492,5693df018d93fe000dfa5733,64d2fd46c836a06233681665,64dc7a9bc17ffe2c217f3768,,,,,,,decisionTrl,resources/DG.BMP,resources/DBN.BMP,Door1,-0.304629608,-0.055555556,1,0,0,1.317,optionLeft,30,6560,3,33,0,33,0,1,,,,,,,,,,,,,,,,,,,,,,,,,,,,,,,,,,,,,,,
,,,,,,,,2023-08-16_08h29.33.631,HF_wild_card,2022.2.4,Win32,12.00768492,5693df018d93fe000dfa5733,64d2fd46c836a06233681665,64dc7a9bc17ffe2c217f3768,,,,,,,sngl,resources/DBN.BMP,resources/Empty.png,Door2,-0.222222222,-0.036111125,1,0,0,0.945,optionLeft,40,6600,3,34,0,34,0,1,,,,,,,,,,,,,,,,,,,,,,,,,,,,,,,,,,,,,,,
,,,,,,,,2023-08-16_08h29.33.631,HF_wild_card,2022.2.4,Win32,12.00768492,5693df018d93fe000dfa5733,64d2fd46c836a06233681665,64dc7a9bc17ffe2c217f3768,,,,,,,sngl,resources/DB.BMP,resources/Empty.png,Door3,-0.209259245,-0.035185178,1,0,0,0.9542,optionLeft,70,6670,3,35,0,35,0,1,,,,,,,,,,,,,,,,,,,,,,,,,,,,,,,,,,,,,,,
,,,,,,,,2023-08-16_08h29.33.631,HF_wild_card,2022.2.4,Win32,12.00768492,5693df018d93fe000dfa5733,64d2fd46c836a06233681665,64dc7a9bc17ffe2c217f3768,,,,,,,decisionTrl,resources/DG.BMP,resources/DBN.BMP,Door1,-0.251851824,-0.030555548,1,0,0,1.0519,optionLeft,30,6700,3,36,0,36,0,1,,,,,,,,,,,,,,,,,,,,,,,,,,,,,,,,,,,,,,,
,,,,,,,,2023-08-16_08h29.33.631,HF_wild_card,2022.2.4,Win32,12.00768492,5693df018d93fe000dfa5733,64d2fd46c836a06233681665,64dc7a9bc17ffe2c217f3768,,,,,,,decisionTrl,resources/DR.BMP,resources/DB.BMP,Door4,-0.218518504,-0.019444466,1,0,0,1.2639,optionLeft,80,6780,3,37,0,37,0,1,,,,,,,,,,,,,,,,,,,,,,,,,,,,,,,,,,,,,,,
,,,,,,,,2023-08-16_08h29.33.631,HF_wild_card,2022.2.4,Win32,12.00768492,5693df018d93fe000dfa5733,64d2fd46c836a06233681665,64dc7a9bc17ffe2c217f3768,,,,,,,sngl,resources/DY.BMP,resources/Empty.png,WildCard_NonEx,-0.222222222,-0.037962984,1,0,0,1.0663,optionLeft,55,6835,3,38,0,38,0,1,,,,,,,,,,,,,,,,,,,,,,,,,,,,,,,,,,,,,,,
,,,,,,,,2023-08-16_08h29.33.631,HF_wild_card,2022.2.4,Win32,12.00768492,5693df018d93fe000dfa5733,64d2fd46c836a06233681665,64dc7a9bc17ffe2c217f3768,,,,,,,sngl,resources/Empty.png,resources/DY.BMP,WildCard_NonEx,0.251851894,-0.042592614,1,0,0,0.9396,optionRight,45,6880,3,39,0,39,0,1,,,,,,,,,,,,,,,,,,,,,,,,,,,,,,,,,,,,,,,
,,,,,,,,2023-08-16_08h29.33.631,HF_wild_card,2022.2.4,Win32,12.00768492,5693df018d93fe000dfa5733,64d2fd46c836a06233681665,64dc7a9bc17ffe2c217f3768,,,,,,,decisionTrl,resources/DY.BMP,resources/DG.BMP,Door1,0.310185185,-0.039814808,1,0,0,1.1344,optionRight,30,6910,3,40,0,40,0,1,,,,,,,,,,,,,,,,,,,,,,,,,,,,,,,,,,,,,,,
,,,,,,,,2023-08-16_08h29.33.631,HF_wild_card,2022.2.4,Win32,12.00768492,5693df018d93fe000dfa5733,64d2fd46c836a06233681665,64dc7a9bc17ffe2c217f3768,,,,,,,sngl,resources/Empty.png,resources/DR.BMP,Door4,0.23055557,-0.043518526,1,0,0,0.9807,optionRight,60,6970,3,41,0,41,0,1,,,,,,,,,,,,,,,,,,,,,,,,,,,,,,,,,,,,,,,
,,,,,,,,2023-08-16_08h29.33.631,HF_wild_card,2022.2.4,Win32,12.00768492,5693df018d93fe000dfa5733,64d2fd46c836a06233681665,64dc7a9bc17ffe2c217f3768,,,,,,,ctch,resources/DG.BMP,resources/DR.BMP,Door4,0.242592635,-0.054629644,1,0,0,0.9758,optionRight,60,7030,3,42,0,42,0,1,,,,,,,,,,,,,,,,,,,,,,,,,,,,,,,,,,,,,,,
,,,,,,,,2023-08-16_08h29.33.631,HF_wild_card,2022.2.4,Win32,12.00768492,5693df018d93fe000dfa5733,64d2fd46c836a06233681665,64dc7a9bc17ffe2c217f3768,,,,,,,decisionTrl,resources/DBN.BMP,resources/DY.BMP,WildCard_NonEx,0.277777778,-0.062037044,1,0,0,1.3796,optionRight,55,7085,3,43,0,43,0,1,,,,,,,,,,,,,,,,,,,,,,,,,,,,,,,,,,,,,,,
,,,,,,,,2023-08-16_08h29.33.631,HF_wild_card,2022.2.4,Win32,12.00768492,5693df018d93fe000dfa5733,64d2fd46c836a06233681665,64dc7a9bc17ffe2c217f3768,,,,,,,,,,,,,,,,,,,,,,,,,,2,0,2,0,1,,,,,,,,,,,,,,,,,,,,,,,,,,,,,,,,,,
,,,,,,,,2023-08-16_08h29.33.631,HF_wild_card,2022.2.4,Win32,12.00768492,5693df018d93fe000dfa5733,64d2fd46c836a06233681665,64dc7a9bc17ffe2c217f3768,,,,,,,decisionTrl,resources/DB.BMP,resources/DR.BMP,Door4,0.300000085,-0.108333376,1,0,0,1.4729,optionRight,60,7145,4,0,0,0,0,1,,,,,,,,,,,,,,,,,,,,,,,,,,,,,,,,,,,,,,,
,,,,,,,,2023-08-16_08h29.33.631,HF_wild_card,2022.2.4,Win32,12.00768492,5693df018d93fe000dfa5733,64d2fd46c836a06233681665,64dc7a9bc17ffe2c217f3768,,,,,,,sngl,resources/Empty.png,resources/DBN.BMP,Door2,0.294444473,-0.046296296,1,0,0,0.9612,optionRight,40,7185,4,1,0,1,0,1,,,,,,,,,,,,,,,,,,,,,,,,,,,,,,,,,,,,,,,
,,,,,,,,2023-08-16_08h29.33.631,HF_wild_card,2022.2.4,Win32,12.00768492,5693df018d93fe000dfa5733,64d2fd46c836a06233681665,64dc7a9bc17ffe2c217f3768,,,,,,,sngl,resources/DBN.BMP,resources/Empty.png,Door2,-0.400925919,-0.029629637,1,0,0,0.9571,optionLeft,20,7205,4,2,0,2,0,1,,,,,,,,,,,,,,,,,,,,,,,,,,,,,,,,,,,,,,,
,,,,,,,,2023-08-16_08h29.33.631,HF_wild_card,2022.2.4,Win32,12.00768492,5693df018d93fe000dfa5733,64d2fd46c836a06233681665,64dc7a9bc17ffe2c217f3768,,,,,,,sngl,resources/Empty.png,resources/DR.BMP,Door4,0.238888917,-0.006481489,1,0,0,0.9343,optionRight,80,7285,4,3,0,3,0,1,,,,,,,,,,,,,,,,,,,,,,,,,,,,,,,,,,,,,,,
,,,,,,,,2023-08-16_08h29.33.631,HF_wild_card,2022.2.4,Win32,12.00768492,5693df018d93fe000dfa5733,64d2fd46c836a06233681665,64dc7a9bc17ffe2c217f3768,,,,,,,decisionTrl,resources/DBN.BMP,resources/DG.BMP,Door1,0.316666638,-0.073148162,1,0,0,2.9681,optionRight,30,7315,4,4,0,4,0,1,,,,,,,,,,,,,,,,,,,,,,,,,,,,,,,,,,,,,,,
,,,,,,,,2023-08-16_08h29.33.631,HF_wild_card,2022.2.4,Win32,12.00768492,5693df018d93fe000dfa5733,64d2fd46c836a06233681665,64dc7a9bc17ffe2c217f3768,,,,,,,sngl,resources/Empty.png,resources/DB.BMP,Door3,0.213888875,-0.044444437,1,0,0,0.9643,optionRight,70,7385,4,5,0,5,0,1,,,,,,,,,,,,,,,,,,,,,,,,,,,,,,,,,,,,,,,
,,,,,,,,2023-08-16_08h29.33.631,HF_wild_card,2022.2.4,Win32,12.00768492,5693df018d93fe000dfa5733,64d2fd46c836a06233681665,64dc7a9bc17ffe2c217f3768,,,,,,,decisionTrl,resources/DR.BMP,resources/DB.BMP,Door4,-0.36296297,-0.047222243,1,0,0,1.4622,optionLeft,60,7445,4,6,0,6,0,1,,,,,,,,,,,,,,,,,,,,,,,,,,,,,,,,,,,,,,,
,,,,,,,,2023-08-16_08h29.33.631,HF_wild_card,2022.2.4,Win32,12.00768492,5693df018d93fe000dfa5733,64d2fd46c836a06233681665,64dc7a9bc17ffe2c217f3768,,,,,,,decisionTrl,resources/DB.BMP,resources/DP.BMP,Door3,-0.385185171,-0.078703704,1,0,0,1.1165,optionLeft,70,7515,4,7,0,7,0,1,,,,,,,,,,,,,,,,,,,,,,,,,,,,,,,,,,,,,,,
,,,,,,,,2023-08-16_08h29.33.631,HF_wild_card,2022.2.4,Win32,12.00768492,5693df018d93fe000dfa5733,64d2fd46c836a06233681665,64dc7a9bc17ffe2c217f3768,,,,,,,decisionTrl,resources/DG.BMP,resources/DP.BMP,WildCard_Ex,0.266666695,-0.064814815,1,0,0,0.8317,optionRight,95,7610,4,8,0,8,0,1,,,,,,,,,,,,,,,,,,,,,,,,,,,,,,,,,,,,,,,
,,,,,,,,2023-08-16_08h29.33.631,HF_wild_card,2022.2.4,Win32,12.00768492,5693df018d93fe000dfa5733,64d2fd46c836a06233681665,64dc7a9bc17ffe2c217f3768,,,,,,,decisionTrl,resources/DB.BMP,resources/DR.BMP,Door4,0.229629658,-0.035185178,1,0,0,2.0512,optionRight,60,7670,4,9,0,9,0,1,,,,,,,,,,,,,,,,,,,,,,,,,,,,,,,,,,,,,,,
,,,,,,,,2023-08-16_08h29.33.631,HF_wild_card,2022.2.4,Win32,12.00768492,5693df018d93fe000dfa5733,64d2fd46c836a06233681665,64dc7a9bc17ffe2c217f3768,,,,,,,sngl,resources/DR.BMP,resources/Empty.png,Door4,-0.307407414,-0.054629644,1,0,0,0.9375,optionLeft,60,7730,4,10,0,10,0,1,,,,,,,,,,,,,,,,,,,,,,,,,,,,,,,,,,,,,,,
,,,,,,,,2023-08-16_08h29.33.631,HF_wild_card,2022.2.4,Win32,12.00768492,5693df018d93fe000dfa5733,64d2fd46c836a06233681665,64dc7a9bc17ffe2c217f3768,,,,,,,ctch,resources/DG.BMP,resources/DR.BMP,Door4,0.383333418,-0.033333355,1,0,0,2.4465,optionRight,60,7790,4,11,0,11,0,1,,,,,,,,,,,,,,,,,,,,,,,,,,,,,,,,,,,,,,,
,,,,,,,,2023-08-16_08h29.33.631,HF_wild_card,2022.2.4,Win32,12.00768492,5693df018d93fe000dfa5733,64d2fd46c836a06233681665,64dc7a9bc17ffe2c217f3768,,,,,,,decisionTrl,resources/DG.BMP,resources/DBN.BMP,Door1,-0.257407365,-0.043518526,1,0,0,1.4352,optionLeft,30,7820,4,12,0,12,0,1,,,,,,,,,,,,,,,,,,,,,,,,,,,,,,,,,,,,,,,
,,,,,,,,2023-08-16_08h29.33.631,HF_wild_card,2022.2.4,Win32,12.00768492,5693df018d93fe000dfa5733,64d2fd46c836a06233681665,64dc7a9bc17ffe2c217f3768,,,,,,,ctch,resources/DG.BMP,resources/DR.BMP,Door4,0.365740741,-0.042592614,1,0,0,1.9032,optionRight,80,7900,4,13,0,13,0,1,,,,,,,,,,,,,,,,,,,,,,,,,,,,,,,,,,,,,,,
,,,,,,,,2023-08-16_08h29.33.631,HF_wild_card,2022.2.4,Win32,12.00768492,5693df018d93fe000dfa5733,64d2fd46c836a06233681665,64dc7a9bc17ffe2c217f3768,,,,,,,decisionTrl,resources/DBN.BMP,resources/DG.BMP,Door1,0.347222222,-0.087962963,1,0,0,1.2534,optionRight,30,7930,4,14,0,14,0,1,,,,,,,,,,,,,,,,,,,,,,,,,,,,,,,,,,,,,,,
,,,,,,,,2023-08-16_08h29.33.631,HF_wild_card,2022.2.4,Win32,12.00768492,5693df018d93fe000dfa5733,64d2fd46c836a06233681665,64dc7a9bc17ffe2c217f3768,,,,,,,ctch,resources/DBN.BMP,resources/DB.BMP,Door3,0.283333319,-0.050925926,1,0,0,1.0229,optionRight,70,8000,4,15,0,15,0,1,,,,,,,,,,,,,,,,,,,,,,,,,,,,,,,,,,,,,,,
,,,,,,,,2023-08-16_08h29.33.631,HF_wild_card,2022.2.4,Win32,12.00768492,5693df018d93fe000dfa5733,64d2fd46c836a06233681665,64dc7a9bc17ffe2c217f3768,,,,,,,decisionTrl,resources/DR.BMP,resources/DB.BMP,Door3,0.367592564,-0.025000007,1,0,0,0.8426,optionRight,70,8070,4,16,0,16,0,1,,,,,,,,,,,,,,,,,,,,,,,,,,,,,,,,,,,,,,,
,,,,,,,,2023-08-16_08h29.33.631,HF_wild_card,2022.2.4,Win32,12.00768492,5693df018d93fe000dfa5733,64d2fd46c836a06233681665,64dc7a9bc17ffe2c217f3768,,,,,,,sngl,resources/DP.BMP,resources/Empty.png,WildCard_Ex,-0.312962956,-0.055555556,1,0,0,0.9625,optionLeft,95,8165,4,17,0,17,0,1,,,,,,,,,,,,,,,,,,,,,,,,,,,,,,,,,,,,,,,
,,,,,,,,2023-08-16_08h29.33.631,HF_wild_card,2022.2.4,Win32,12.00768492,5693df018d93fe000dfa5733,64d2fd46c836a06233681665,64dc7a9bc17ffe2c217f3768,,,,,,,decisionTrl,resources/DR.BMP,resources/DB.BMP,Door4,-0.295370384,-0.021296289,1,0,0,2.2546,optionLeft,80,8245,4,18,0,18,0,1,,,,,,,,,,,,,,,,,,,,,,,,,,,,,,,,,,,,,,,
,,,,,,,,2023-08-16_08h29.33.631,HF_wild_card,2022.2.4,Win32,12.00768492,5693df018d93fe000dfa5733,64d2fd46c836a06233681665,64dc7a9bc17ffe2c217f3768,,,,,,,decisionTrl,resources/DB.BMP,resources/DR.BMP,Door4,0.48055564,-0.036111125,1,0,0,1.0396,optionRight,60,8305,4,19,0,19,0,1,,,,,,,,,,,,,,,,,,,,,,,,,,,,,,,,,,,,,,,
,,,,,,,,2023-08-16_08h29.33.631,HF_wild_card,2022.2.4,Win32,12.00768492,5693df018d93fe000dfa5733,64d2fd46c836a06233681665,64dc7a9bc17ffe2c217f3768,,,,,,,ctch,resources/DBN.BMP,resources/DB.BMP,Door3,0.337037122,-0.061111132,1,0,0,1.6654,optionRight,70,8375,4,20,0,20,0,1,,,,,,,,,,,,,,,,,,,,,,,,,,,,,,,,,,,,,,,
,,,,,,,,2023-08-16_08h29.33.631,HF_wild_card,2022.2.4,Win32,12.00768492,5693df018d93fe000dfa5733,64d2fd46c836a06233681665,64dc7a9bc17ffe2c217f3768,,,,,,,decisionTrl,resources/DP.BMP,resources/DG.BMP,WildCard_Ex,-0.364814794,-0.064814815,1,0,0,2.3352,optionLeft,95,8470,4,21,0,21,0,1,,,,,,,,,,,,,,,,,,,,,,,,,,,,,,,,,,,,,,,
,,,,,,,,2023-08-16_08h29.33.631,HF_wild_card,2022.2.4,Win32,12.00768492,5693df018d93fe000dfa5733,64d2fd46c836a06233681665,64dc7a9bc17ffe2c217f3768,,,,,,,ctch,resources/DR.BMP,resources/DG.BMP,Door4,-0.356481481,-0.075000021,1,0,0,2.6433,optionLeft,80,8550,4,22,0,22,0,1,,,,,,,,,,,,,,,,,,,,,,,,,,,,,,,,,,,,,,,
,,,,,,,,2023-08-16_08h29.33.631,HF_wild_card,2022.2.4,Win32,12.00768492,5693df018d93fe000dfa5733,64d2fd46c836a06233681665,64dc7a9bc17ffe2c217f3768,,,,,,,sngl,resources/DP.BMP,resources/Empty.png,WildCard_Ex,-0.287962949,-0.048148155,1,0,0,0.9608,optionLeft,5,8555,4,23,0,23,0,1,,,,,,,,,,,,,,,,,,,,,,,,,,,,,,,,,,,,,,,
,,,,,,,,2023-08-16_08h29.33.631,HF_wild_card,2022.2.4,Win32,12.00768492,5693df018d93fe000dfa5733,64d2fd46c836a06233681665,64dc7a9bc17ffe2c217f3768,,,,,,,decisionTrl,resources/DG.BMP,resources/DBN.BMP,Door1,-0.219444416,-0.043518526,1,0,0,1.2456,optionLeft,30,8585,4,24,0,24,0,1,,,,,,,,,,,,,,,,,,,,,,,,,,,,,,,,,,,,,,,
,,,,,,,,2023-08-16_08h29.33.631,HF_wild_card,2022.2.4,Win32,12.00768492,5693df018d93fe000dfa5733,64d2fd46c836a06233681665,64dc7a9bc17ffe2c217f3768,,,,,,,decisionTrl,resources/DR.BMP,resources/DP.BMP,WildCard_Ex,0.37962963,-0.060185185,1,0,0,1.0321,optionRight,95,8680,4,25,0,25,0,1,,,,,,,,,,,,,,,,,,,,,,,,,,,,,,,,,,,,,,,
,,,,,,,,2023-08-16_08h29.33.631,HF_wild_card,2022.2.4,Win32,12.00768492,5693df018d93fe000dfa5733,64d2fd46c836a06233681665,64dc7a9bc17ffe2c217f3768,,,,,,,decisionTrl,resources/DBN.BMP,resources/DG.BMP,Door1,0.256481524,-0.045370384,1,0,0,1.2747,optionRight,30,8710,4,26,0,26,0,1,,,,,,,,,,,,,,,,,,,,,,,,,,,,,,,,,,,,,,,
,,,,,,,,2023-08-16_08h29.33.631,HF_wild_card,2022.2.4,Win32,12.00768492,5693df018d93fe000dfa5733,64d2fd46c836a06233681665,64dc7a9bc17ffe2c217f3768,,,,,,,decisionTrl,resources/DP.BMP,resources/DB.BMP,WildCard_Ex,-0.260185171,-0.062962956,1,0,0,1.0205,optionLeft,5,8715,4,27,0,27,0,1,,,,,,,,,,,,,,,,,,,,,,,,,,,,,,,,,,,,,,,
,,,,,,,,2023-08-16_08h29.33.631,HF_wild_card,2022.2.4,Win32,12.00768492,5693df018d93fe000dfa5733,64d2fd46c836a06233681665,64dc7a9bc17ffe2c217f3768,,,,,,,decisionTrl,resources/DG.BMP,resources/DBN.BMP,Door1,-0.232407393,-0.059259273,1,0,0,1.0467,optionLeft,30,8745,4,28,0,28,0,1,,,,,,,,,,,,,,,,,,,,,,,,,,,,,,,,,,,,,,,
,,,,,,,,2023-08-16_08h29.33.631,HF_wild_card,2022.2.4,Win32,12.00768492,5693df018d93fe000dfa5733,64d2fd46c836a06233681665,64dc7a9bc17ffe2c217f3768,,,,,,,decisionTrl,resources/DG.BMP,resources/DBN.BMP,Door1,-0.222222222,-0.057407414,1,0,0,1.0322,optionLeft,30,8775,4,29,0,29,0,1,,,,,,,,,,,,,,,,,,,,,,,,,,,,,,,,,,,,,,,
,,,,,,,,2023-08-16_08h29.33.631,HF_wild_card,2022.2.4,Win32,12.00768492,5693df018d93fe000dfa5733,64d2fd46c836a06233681665,64dc7a9bc17ffe2c217f3768,,,,,,,sngl,resources/Empty.png,resources/DP.BMP,WildCard_Ex,0.316666638,-0.045370384,1,0,0,0.9353,optionRight,95,8870,4,30,0,30,0,1,,,,,,,,,,,,,,,,,,,,,,,,,,,,,,,,,,,,,,,
,,,,,,,,2023-08-16_08h29.33.631,HF_wild_card,2022.2.4,Win32,12.00768492,5693df018d93fe000dfa5733,64d2fd46c836a06233681665,64dc7a9bc17ffe2c217f3768,,,,,,,decisionTrl,resources/DBN.BMP,resources/DP.BMP,WildCard_Ex,0.266666695,0.001851859,1,0,0,1.6678,optionRight,5,8875,4,31,0,31,0,1,,,,,,,,,,,,,,,,,,,,,,,,,,,,,,,,,,,,,,,
,,,,,,,,2023-08-16_08h29.33.631,HF_wild_card,2022.2.4,Win32,12.00768492,5693df018d93fe000dfa5733,64d2fd46c836a06233681665,64dc7a9bc17ffe2c217f3768,,,,,,,decisionTrl,resources/DP.BMP,resources/DR.BMP,WildCard_Ex,-0.274999972,-0.072222215,1,0,0,1.8833,optionLeft,95,8970,4,32,0,32,0,1,,,,,,,,,,,,,,,,,,,,,,,,,,,,,,,,,,,,,,,
,,,,,,,,2023-08-16_08h29.33.631,HF_wild_card,2022.2.4,Win32,12.00768492,5693df018d93fe000dfa5733,64d2fd46c836a06233681665,64dc7a9bc17ffe2c217f3768,,,,,,,ctch,resources/DB.BMP,resources/DBN.BMP,Door3,-0.327777757,-0.086111104,1,0,0,1.0398,optionLeft,70,9040,4,33,0,33,0,1,,,,,,,,,,,,,,,,,,,,,,,,,,,,,,,,,,,,,,,
,,,,,,,,2023-08-16_08h29.33.631,HF_wild_card,2022.2.4,Win32,12.00768492,5693df018d93fe000dfa5733,64d2fd46c836a06233681665,64dc7a9bc17ffe2c217f3768,,,,,,,ctch,resources/DB.BMP,resources/DBN.BMP,Door3,-0.270370342,-0.072222215,1,0,0,1.0731,optionLeft,70,9110,4,34,0,34,0,1,,,,,,,,,,,,,,,,,,,,,,,,,,,,,,,,,,,,,,,
,,,,,,,,2023-08-16_08h29.33.631,HF_wild_card,2022.2.4,Win32,12.00768492,5693df018d93fe000dfa5733,64d2fd46c836a06233681665,64dc7a9bc17ffe2c217f3768,,,,,,,decisionTrl,resources/DR.BMP,resources/DB.BMP,Door4,-0.326851845,-0.066666674,1,0,0,1.6845,optionLeft,80,9190,4,35,0,35,0,1,,,,,,,,,,,,,,,,,,,,,,,,,,,,,,,,,,,,,,,
,,,,,,,,2023-08-16_08h29.33.631,HF_wild_card,2022.2.4,Win32,12.00768492,5693df018d93fe000dfa5733,64d2fd46c836a06233681665,64dc7a9bc17ffe2c217f3768,,,,,,,ctch,resources/DR.BMP,resources/DG.BMP,Door4,-0.362037023,-0.10092594,1,0,0,1.0515,optionLeft,80,9270,4,36,0,36,0,1,,,,,,,,,,,,,,,,,,,,,,,,,,,,,,,,,,,,,,,
,,,,,,,,2023-08-16_08h29.33.631,HF_wild_card,2022.2.4,Win32,12.00768492,5693df018d93fe000dfa5733,64d2fd46c836a06233681665,64dc7a9bc17ffe2c217f3768,,,,,,,sngl,resources/DB.BMP,resources/Empty.png,Door3,-0.318518497,-0.039814808,1,0,0,0.9477,optionLeft,70,9340,4,37,0,37,0,1,,,,,,,,,,,,,,,,,,,,,,,,,,,,,,,,,,,,,,,
,,,,,,,,2023-08-16_08h29.33.631,HF_wild_card,2022.2.4,Win32,12.00768492,5693df018d93fe000dfa5733,64d2fd46c836a06233681665,64dc7a9bc17ffe2c217f3768,,,,,,,sngl,resources/DG.BMP,resources/Empty.png,Door1,-0.305555556,-0.037037037,1,0,0,0.9453,optionLeft,30,9370,4,38,0,38,0,1,,,,,,,,,,,,,,,,,,,,,,,,,,,,,,,,,,,,,,,
,,,,,,,,2023-08-16_08h29.33.631,HF_wild_card,2022.2.4,Win32,12.00768492,5693df018d93fe000dfa5733,64d2fd46c836a06233681665,64dc7a9bc17ffe2c217f3768,,,,,,,decisionTrl,resources/DP.BMP,resources/DBN.BMP,WildCard_Ex,-0.359259252,-0.071296303,1,0,0,0.848,optionLeft,95,9465,4,39,0,39,0,1,,,,,,,,,,,,,,,,,,,,,,,,,,,,,,,,,,,,,,,
,,,,,,,,2023-08-16_08h29.33.631,HF_wild_card,2022.2.4,Win32,12.00768492,5693df018d93fe000dfa5733,64d2fd46c836a06233681665,64dc7a9bc17ffe2c217f3768,,,,,,,sngl,resources/Empty.png,resources/DP.BMP,WildCard_Ex,0.127777806,-0.037037037,1,0,0,1.2259,optionRight,5,9470,4,40,0,40,0,1,,,,,,,,,,,,,,,,,,,,,,,,,,,,,,,,,,,,,,,
,,,,,,,,2023-08-16_08h29.33.631,HF_wild_card,2022.2.4,Win32,12.00768492,5693df018d93fe000dfa5733,64d2fd46c836a06233681665,64dc7a9bc17ffe2c217f3768,,,,,,,decisionTrl,resources/DBN.BMP,resources/DG.BMP,Door2,-0.246296282,-0.056481503,1,0,0,1.5977,optionLeft,20,9490,4,41,0,41,0,1,,,,,,,,,,,,,,,,,,,,,,,,,,,,,,,,,,,,,,,
,,,,,,,,2023-08-16_08h29.33.631,HF_wild_card,2022.2.4,Win32,12.00768492,5693df018d93fe000dfa5733,64d2fd46c836a06233681665,64dc7a9bc17ffe2c217f3768,,,,,,,sngl,resources/Empty.png,resources/DG.BMP,Door1,0.368518547,-0.019444466,1,0,0,0.7883,optionRight,30,9520,4,42,0,42,0,1,,,,,,,,,,,,,,,,,,,,,,,,,,,,,,,,,,,,,,,
,,,,,,,,2023-08-16_08h29.33.631,HF_wild_card,2022.2.4,Win32,12.00768492,5693df018d93fe000dfa5733,64d2fd46c836a06233681665,64dc7a9bc17ffe2c217f3768,,,,,,,decisionTrl,resources/DB.BMP,resources/DR.BMP,Door4,0.280555584,-0.048148155,1,0,0,2.7436,optionRight,60,9580,4,43,0,43,0,1,,,,,,,,,,,,,,,,,,,,,,,,,,,,,,,,,,,,,,,
,,,,,,,,2023-08-16_08h29.33.631,HF_wild_card,2022.2.4,Win32,12.00768492,5693df018d93fe000dfa5733,64d2fd46c836a06233681665,64dc7a9bc17ffe2c217f3768,,,,,,,,,,,,,,,,,,,,,,,,,,3,0,3,0,1,,,,,,,,,,,,,,,,,,,,,,,,,,,,,,,,,,
,,,,,,,,2023-08-16_08h29.33.631,HF_wild_card,2022.2.4,Win32,12.00768492,5693df018d93fe000dfa5733,64d2fd46c836a06233681665,64dc7a9bc17ffe2c217f3768,,,,,,,decisionTrl,resources/DBN.BMP,resources/DG.BMP,Door1,0.342592593,-0.094444487,1,0,0,1.6741,optionRight,30,9610,5,0,0,0,0,1,,,,,,,,,,,,,,,,,,,,,,,,,,,,,,,,,,,,,,,
,,,,,,,,2023-08-16_08h29.33.631,HF_wild_card,2022.2.4,Win32,12.00768492,5693df018d93fe000dfa5733,64d2fd46c836a06233681665,64dc7a9bc17ffe2c217f3768,,,,,,,ctch,resources/DB.BMP,resources/DBN.BMP,Door3,-0.284259231,-0.100000028,1,0,0,1.0323,optionLeft,70,9680,5,1,0,1,0,1,,,,,,,,,,,,,,,,,,,,,,,,,,,,,,,,,,,,,,,
,,,,,,,,2023-08-16_08h29.33.631,HF_wild_card,2022.2.4,Win32,12.00768492,5693df018d93fe000dfa5733,64d2fd46c836a06233681665,64dc7a9bc17ffe2c217f3768,,,,,,,decisionTrl,resources/DG.BMP,resources/DBN.BMP,Door1,-0.233333305,-0.021296289,1,0,0,1.6409,optionLeft,30,9710,5,2,0,2,0,1,,,,,,,,,,,,,,,,,,,,,,,,,,,,,,,,,,,,,,,
,,,,,,,,2023-08-16_08h29.33.631,HF_wild_card,2022.2.4,Win32,12.00768492,5693df018d93fe000dfa5733,64d2fd46c836a06233681665,64dc7a9bc17ffe2c217f3768,,,,,,,decisionTrl,resources/DBN.BMP,resources/DG.BMP,Door1,0.309259344,-0.038888896,1,0,0,0.8235,optionRight,30,9740,5,3,0,3,0,1,,,,,,,,,,,,,,,,,,,,,,,,,,,,,,,,,,,,,,,
,,,,,,,,2023-08-16_08h29.33.631,HF_wild_card,2022.2.4,Win32,12.00768492,5693df018d93fe000dfa5733,64d2fd46c836a06233681665,64dc7a9bc17ffe2c217f3768,,,,,,,ctch,resources/DBN.BMP,resources/DB.BMP,Door3,0.263888889,-0.035185178,1,0,0,0.8468,optionRight,70,9810,5,4,0,4,0,1,,,,,,,,,,,,,,,,,,,,,,,,,,,,,,,,,,,,,,,
,,,,,,,,2023-08-16_08h29.33.631,HF_wild_card,2022.2.4,Win32,12.00768492,5693df018d93fe000dfa5733,64d2fd46c836a06233681665,64dc7a9bc17ffe2c217f3768,,,,,,,sngl,resources/DP.BMP,resources/Empty.png,WildCard_Ex,-0.249074088,-0.035185178,1,0,0,0.9684,optionLeft,5,9815,5,5,0,5,0,1,,,,,,,,,,,,,,,,,,,,,,,,,,,,,,,,,,,,,,,
,,,,,,,,2023-08-16_08h29.33.631,HF_wild_card,2022.2.4,Win32,12.00768492,5693df018d93fe000dfa5733,64d2fd46c836a06233681665,64dc7a9bc17ffe2c217f3768,,,,,,,decisionTrl,resources/DP.BMP,resources/DR.BMP,WildCard_Ex,-0.248148106,-0.075925933,1,0,0,1.0267,optionLeft,5,9820,5,6,0,6,0,1,,,,,,,,,,,,,,,,,,,,,,,,,,,,,,,,,,,,,,,
,,,,,,,,2023-08-16_08h29.33.631,HF_wild_card,2022.2.4,Win32,12.00768492,5693df018d93fe000dfa5733,64d2fd46c836a06233681665,64dc7a9bc17ffe2c217f3768,,,,,,,decisionTrl,resources/DG.BMP,resources/DBN.BMP,Door1,-0.337962963,-0.045370384,1,0,0,1.4414,optionLeft,30,9850,5,7,0,7,0,1,,,,,,,,,,,,,,,,,,,,,,,,,,,,,,,,,,,,,,,
,,,,,,,,2023-08-16_08h29.33.631,HF_wild_card,2022.2.4,Win32,12.00768492,5693df018d93fe000dfa5733,64d2fd46c836a06233681665,64dc7a9bc17ffe2c217f3768,,,,,,,decisionTrl,resources/DR.BMP,resources/DB.BMP,Door4,-0.388888889,-0.064814815,1,0,0,1.4486,optionLeft,80,9930,5,8,0,8,0,1,,,,,,,,,,,,,,,,,,,,,,,,,,,,,,,,,,,,,,,
,,,,,,,,2023-08-16_08h29.33.631,HF_wild_card,2022.2.4,Win32,12.00768492,5693df018d93fe000dfa5733,64d2fd46c836a06233681665,64dc7a9bc17ffe2c217f3768,,,,,,,decisionTrl,resources/DG.BMP,resources/DP.BMP,WildCard_Ex,0.401851937,-0.076851845,1,0,0,2.301,optionRight,5,9935,5,9,0,9,0,1,,,,,,,,,,,,,,,,,,,,,,,,,,,,,,,,,,,,,,,
,,,,,,,,2023-08-16_08h29.33.631,HF_wild_card,2022.2.4,Win32,12.00768492,5693df018d93fe000dfa5733,64d2fd46c836a06233681665,64dc7a9bc17ffe2c217f3768,,,,,,,sngl,resources/Empty.png,resources/DB.BMP,Door3,0.311111168,-0.039814808,1,0,0,1.1244,optionRight,70,10005,5,10,0,10,0,1,,,,,,,,,,,,,,,,,,,,,,,,,,,,,,,,,,,,,,,
,,,,,,,,2023-08-16_08h29.33.631,HF_wild_card,2022.2.4,Win32,12.00768492,5693df018d93fe000dfa5733,64d2fd46c836a06233681665,64dc7a9bc17ffe2c217f3768,,,,,,,ctch,resources/DBN.BMP,resources/DB.BMP,Door3,0.350926011,-0.099074116,1,0,0,1.8031,optionRight,70,10075,5,11,0,11,0,1,,,,,,,,,,,,,,,,,,,,,,,,,,,,,,,,,,,,,,,
,,,,,,,,2023-08-16_08h29.33.631,HF_wild_card,2022.2.4,Win32,12.00768492,5693df018d93fe000dfa5733,64d2fd46c836a06233681665,64dc7a9bc17ffe2c217f3768,,,,,,,decisionTrl,resources/DP.BMP,resources/DB.BMP,WildCard_Ex,-0.301851838,-0.097222222,1,0,0,1.0634,optionLeft,95,10170,5,12,0,12,0,1,,,,,,,,,,,,,,,,,,,,,,,,,,,,,,,,,,,,,,,
,,,,,,,,2023-08-16_08h29.33.631,HF_wild_card,2022.2.4,Win32,12.00768492,5693df018d93fe000dfa5733,64d2fd46c836a06233681665,64dc7a9bc17ffe2c217f3768,,,,,,,decisionTrl,resources/DB.BMP,resources/DR.BMP,Door4,0.262962977,-0.070370392,1,0,0,1.8916,optionRight,60,10230,5,13,0,13,0,1,,,,,,,,,,,,,,,,,,,,,,,,,,,,,,,,,,,,,,,
,,,,,,,,2023-08-16_08h29.33.631,HF_wild_card,2022.2.4,Win32,12.00768492,5693df018d93fe000dfa5733,64d2fd46c836a06233681665,64dc7a9bc17ffe2c217f3768,,,,,,,decisionTrl,resources/DBN.BMP,resources/DP.BMP,WildCard_Ex,0.293518561,-0.070370392,1,0,0,1.1611,optionRight,95,10325,5,14,0,14,0,1,,,,,,,,,,,,,,,,,,,,,,,,,,,,,,,,,,,,,,,
,,,,,,,,2023-08-16_08h29.33.631,HF_wild_card,2022.2.4,Win32,12.00768492,5693df018d93fe000dfa5733,64d2fd46c836a06233681665,64dc7a9bc17ffe2c217f3768,,,,,,,decisionTrl,resources/DP.BMP,resources/DBN.BMP,WildCard_Ex,-0.341666645,-0.013888889,1,0,0,0.8532,optionLeft,95,10420,5,15,0,15,0,1,,,,,,,,,,,,,,,,,,,,,,,,,,,,,,,,,,,,,,,
,,,,,,,,2023-08-16_08h29.33.631,HF_wild_card,2022.2.4,Win32,12.00768492,5693df018d93fe000dfa5733,64d2fd46c836a06233681665,64dc7a9bc17ffe2c217f3768,,,,,,,sngl,resources/DG.BMP,resources/Empty.png,Door1,-0.259259259,-0.009259259,1,0,0,1.542,optionLeft,30,10450,5,16,0,16,0,1,,,,,,,,,,,,,,,,,,,,,,,,,,,,,,,,,,,,,,,
,,,,,,,,2023-08-16_08h29.33.631,HF_wild_card,2022.2.4,Win32,12.00768492,5693df018d93fe000dfa5733,64d2fd46c836a06233681665,64dc7a9bc17ffe2c217f3768,,,,,,,sngl,resources/Empty.png,resources/DR.BMP,Door4,0.266666695,-0.060185185,1,0,0,1.5174,optionRight,60,10510,5,17,0,17,0,1,,,,,,,,,,,,,,,,,,,,,,,,,,,,,,,,,,,,,,,
,,,,,,,,2023-08-16_08h29.33.631,HF_wild_card,2022.2.4,Win32,12.00768492,5693df018d93fe000dfa5733,64d2fd46c836a06233681665,64dc7a9bc17ffe2c217f3768,,,,,,,decisionTrl,resources/DB.BMP,resources/DP.BMP,WildCard_Ex,0.396296325,-0.041666667,1,0,0,1.0885,optionRight,5,10515,5,18,0,18,0,1,,,,,,,,,,,,,,,,,,,,,,,,,,,,,,,,,,,,,,,
,,,,,,,,2023-08-16_08h29.33.631,HF_wild_card,2022.2.4,Win32,12.00768492,5693df018d93fe000dfa5733,64d2fd46c836a06233681665,64dc7a9bc17ffe2c217f3768,,,,,,,ctch,resources/DR.BMP,resources/DG.BMP,Door4,-0.270370342,-0.046296296,1,0,0,1.8683,optionLeft,80,10595,5,19,0,19,0,1,,,,,,,,,,,,,,,,,,,,,,,,,,,,,,,,,,,,,,,
,,,,,,,,2023-08-16_08h29.33.631,HF_wild_card,2022.2.4,Win32,12.00768492,5693df018d93fe000dfa5733,64d2fd46c836a06233681665,64dc7a9bc17ffe2c217f3768,,,,,,,decisionTrl,resources/DR.BMP,resources/DB.BMP,Door3,0.323148233,-0.048148155,1,0,0,1.0271,optionRight,70,10665,5,20,0,20,0,1,,,,,,,,,,,,,,,,,,,,,,,,,,,,,,,,,,,,,,,
,,,,,,,,2023-08-16_08h29.33.631,HF_wild_card,2022.2.4,Win32,12.00768492,5693df018d93fe000dfa5733,64d2fd46c836a06233681665,64dc7a9bc17ffe2c217f3768,,,,,,,sngl,resources/Empty.png,resources/DP.BMP,WildCard_Ex,0.242592635,-0.032407407,1,0,0,0.9531,optionRight,5,10670,5,21,0,21,0,1,,,,,,,,,,,,,,,,,,,,,,,,,,,,,,,,,,,,,,,
,,,,,,,,2023-08-16_08h29.33.631,HF_wild_card,2022.2.4,Win32,12.00768492,5693df018d93fe000dfa5733,64d2fd46c836a06233681665,64dc7a9bc17ffe2c217f3768,,,,,,,decisionTrl,resources/DR.BMP,resources/DB.BMP,Door4,-0.287962949,-0.058333326,1,0,0,1.4666,optionLeft,80,10750,5,22,0,22,0,1,,,,,,,,,,,,,,,,,,,,,,,,,,,,,,,,,,,,,,,
,,,,,,,,2023-08-16_08h29.33.631,HF_wild_card,2022.2.4,Win32,12.00768492,5693df018d93fe000dfa5733,64d2fd46c836a06233681665,64dc7a9bc17ffe2c217f3768,,,,,,,sngl,resources/DB.BMP,resources/Empty.png,Door3,-0.235185199,-0.040740755,1,0,0,0.9372,optionLeft,70,10820,5,23,0,23,0,1,,,,,,,,,,,,,,,,,,,,,,,,,,,,,,,,,,,,,,,
,,,,,,,,2023-08-16_08h29.33.631,HF_wild_card,2022.2.4,Win32,12.00768492,5693df018d93fe000dfa5733,64d2fd46c836a06233681665,64dc7a9bc17ffe2c217f3768,,,,,,,decisionTrl,resources/DBN.BMP,resources/DG.BMP,Door1,0.348148205,-0.043518526,1,0,0,1.2823,optionRight,30,10850,5,24,0,24,0,1,,,,,,,,,,,,,,,,,,,,,,,,,,,,,,,,,,,,,,,
,,,,,,,,2023-08-16_08h29.33.631,HF_wild_card,2022.2.4,Win32,12.00768492,5693df018d93fe000dfa5733,64d2fd46c836a06233681665,64dc7a9bc17ffe2c217f3768,,,,,,,ctch,resources/DB.BMP,resources/DBN.BMP,Door3,-0.312037044,-0.038888896,1,0,0,1.6887,optionLeft,70,10920,5,25,0,25,0,1,,,,,,,,,,,,,,,,,,,,,,,,,,,,,,,,,,,,,,,
,,,,,,,,2023-08-16_08h29.33.631,HF_wild_card,2022.2.4,Win32,12.00768492,5693df018d93fe000dfa5733,64d2fd46c836a06233681665,64dc7a9bc17ffe2c217f3768,,,,,,,decisionTrl,resources/DP.BMP,resources/DG.BMP,WildCard_Ex,-0.17314812,-0.040740755,1,0,0,1.0579,optionLeft,95,11015,5,26,0,26,0,1,,,,,,,,,,,,,,,,,,,,,,,,,,,,,,,,,,,,,,,
,,,,,,,,2023-08-16_08h29.33.631,HF_wild_card,2022.2.4,Win32,12.00768492,5693df018d93fe000dfa5733,64d2fd46c836a06233681665,64dc7a9bc17ffe2c217f3768,,,,,,,sngl,resources/DBN.BMP,resources/Empty.png,Door2,-0.213888875,-0.039814808,1,0,0,1.7108,optionLeft,40,11055,5,27,0,27,0,1,,,,,,,,,,,,,,,,,,,,,,,,,,,,,,,,,,,,,,,
,,,,,,,,2023-08-16_08h29.33.631,HF_wild_card,2022.2.4,Win32,12.00768492,5693df018d93fe000dfa5733,64d2fd46c836a06233681665,64dc7a9bc17ffe2c217f3768,,,,,,,decisionTrl,resources/DR.BMP,resources/DB.BMP,Door4,-0.334259245,-0.074074074,1,0,0,2.7226,optionLeft,80,11135,5,28,0,28,0,1,,,,,,,,,,,,,,,,,,,,,,,,,,,,,,,,,,,,,,,
,,,,,,,,2023-08-16_08h29.33.631,HF_wild_card,2022.2.4,Win32,12.00768492,5693df018d93fe000dfa5733,64d2fd46c836a06233681665,64dc7a9bc17ffe2c217f3768,,,,,,,sngl,resources/DP.BMP,resources/Empty.png,WildCard_Ex,-0.224074046,-0.056481503,1,0,0,1.8179,optionLeft,95,11230,5,29,0,29,0,1,,,,,,,,,,,,,,,,,,,,,,,,,,,,,,,,,,,,,,,
,,,,,,,,2023-08-16_08h29.33.631,HF_wild_card,2022.2.4,Win32,12.00768492,5693df018d93fe000dfa5733,64d2fd46c836a06233681665,64dc7a9bc17ffe2c217f3768,,,,,,,sngl,resources/Empty.png,resources/DG.BMP,Door1,0.171296296,-0.032407407,1,0,0,0.9623,optionRight,30,11260,5,30,0,30,0,1,,,,,,,,,,,,,,,,,,,,,,,,,,,,,,,,,,,,,,,
,,,,,,,,2023-08-16_08h29.33.631,HF_wild_card,2022.2.4,Win32,12.00768492,5693df018d93fe000dfa5733,64d2fd46c836a06233681665,64dc7a9bc17ffe2c217f3768,,,,,,,ctch,resources/DR.BMP,resources/DG.BMP,Door4,-0.290740755,-0.080555563,1,0,0,1.3416,optionLeft,60,11320,5,31,0,31,0,1,,,,,,,,,,,,,,,,,,,,,,,,,,,,,,,,,,,,,,,
,,,,,,,,2023-08-16_08h29.33.631,HF_wild_card,2022.2.4,Win32,12.00768492,5693df018d93fe000dfa5733,64d2fd46c836a06233681665,64dc7a9bc17ffe2c217f3768,,,,,,,decisionTrl,resources/DG.BMP,resources/DBN.BMP,Door1,-0.273148148,-0.086111104,1,0,0,1.0423,optionLeft,30,11350,5,32,0,32,0,1,,,,,,,,,,,,,,,,,,,,,,,,,,,,,,,,,,,,,,,
,,,,,,,,2023-08-16_08h29.33.631,HF_wild_card,2022.2.4,Win32,12.00768492,5693df018d93fe000dfa5733,64d2fd46c836a06233681665,64dc7a9bc17ffe2c217f3768,,,,,,,decisionTrl,resources/DB.BMP,resources/DR.BMP,Door3,-0.37037037,-0.061111132,1,0,0,0.8263,optionLeft,70,11420,5,33,0,33,0,1,,,,,,,,,,,,,,,,,,,,,,,,,,,,,,,,,,,,,,,
,,,,,,,,2023-08-16_08h29.33.631,HF_wild_card,2022.2.4,Win32,12.00768492,5693df018d93fe000dfa5733,64d2fd46c836a06233681665,64dc7a9bc17ffe2c217f3768,,,,,,,sngl,resources/Empty.png,resources/DP.BMP,WildCard_Ex,0.330555527,-0.063888903,1,0,0,1.5538,optionRight,95,11515,5,34,0,34,0,1,,,,,,,,,,,,,,,,,,,,,,,,,,,,,,,,,,,,,,,
,,,,,,,,2023-08-16_08h29.33.631,HF_wild_card,2022.2.4,Win32,12.00768492,5693df018d93fe000dfa5733,64d2fd46c836a06233681665,64dc7a9bc17ffe2c217f3768,,,,,,,decisionTrl,resources/DG.BMP,resources/DBN.BMP,Door1,-0.231481481,-0.093518504,1,0,0,1.0416,optionLeft,30,11545,5,35,0,35,0,1,,,,,,,,,,,,,,,,,,,,,,,,,,,,,,,,,,,,,,,
,,,,,,,,2023-08-16_08h29.33.631,HF_wild_card,2022.2.4,Win32,12.00768492,5693df018d93fe000dfa5733,64d2fd46c836a06233681665,64dc7a9bc17ffe2c217f3768,,,,,,,decisionTrl,resources/DR.BMP,resources/DP.BMP,WildCard_Ex,0.378703788,-0.067592586,1,0,0,1.6432,optionRight,5,11550,5,36,0,36,0,1,,,,,,,,,,,,,,,,,,,,,,,,,,,,,,,,,,,,,,,
,,,,,,,,2023-08-16_08h29.33.631,HF_wild_card,2022.2.4,Win32,12.00768492,5693df018d93fe000dfa5733,64d2fd46c836a06233681665,64dc7a9bc17ffe2c217f3768,,,,,,,sngl,resources/Empty.png,resources/DBN.BMP,Door2,0.325000057,-0.058333326,1,0,0,0.9476,optionRight,20,11570,5,37,0,37,0,1,,,,,,,,,,,,,,,,,,,,,,,,,,,,,,,,,,,,,,,
,,,,,,,,2023-08-16_08h29.33.631,HF_wild_card,2022.2.4,Win32,12.00768492,5693df018d93fe000dfa5733,64d2fd46c836a06233681665,64dc7a9bc17ffe2c217f3768,,,,,,,ctch,resources/DG.BMP,resources/DR.BMP,Door4,0.350000028,-0.077777792,1,0,0,1.4526,optionRight,80,11650,5,38,0,38,0,1,,,,,,,,,,,,,,,,,,,,,,,,,,,,,,,,,,,,,,,
,,,,,,,,2023-08-16_08h29.33.631,HF_wild_card,2022.2.4,Win32,12.00768492,5693df018d93fe000dfa5733,64d2fd46c836a06233681665,64dc7a9bc17ffe2c217f3768,,,,,,,ctch,resources/DG.BMP,resources/DR.BMP,Door4,0.255555541,-0.040740755,1,0,0,2.2904,optionRight,60,11710,5,39,0,39,0,1,,,,,,,,,,,,,,,,,,,,,,,,,,,,,,,,,,,,,,,
,,,,,,,,2023-08-16_08h29.33.631,HF_wild_card,2022.2.4,Win32,12.00768492,5693df018d93fe000dfa5733,64d2fd46c836a06233681665,64dc7a9bc17ffe2c217f3768,,,,,,,sngl,resources/DR.BMP,resources/Empty.png,Door4,-0.395370377,-0.085185192,1,0,0,0.9559,optionLeft,80,11790,5,40,0,40,0,1,,,,,,,,,,,,,,,,,,,,,,,,,,,,,,,,,,,,,,,
,,,,,,,,2023-08-16_08h29.33.631,HF_wild_card,2022.2.4,Win32,12.00768492,5693df018d93fe000dfa5733,64d2fd46c836a06233681665,64dc7a9bc17ffe2c217f3768,,,,,,,decisionTrl,resources/DB.BMP,resources/DR.BMP,Door4,0.279629672,-0.062962956,1,0,0,1.6783,optionRight,60,11850,5,41,0,41,0,1,,,,,,,,,,,,,,,,,,,,,,,,,,,,,,,,,,,,,,,
,,,,,,,,2023-08-16_08h29.33.631,HF_wild_card,2022.2.4,Win32,12.00768492,5693df018d93fe000dfa5733,64d2fd46c836a06233681665,64dc7a9bc17ffe2c217f3768,,,,,,,decisionTrl,resources/DBN.BMP,resources/DG.BMP,Door1,0.26944443,-0.056481503,1,0,0,1.0405,optionRight,30,11880,5,42,0,42,0,1,,,,,,,,,,,,,,,,,,,,,,,,,,,,,,,,,,,,,,,
,,,,,,,,2023-08-16_08h29.33.631,HF_wild_card,2022.2.4,Win32,12.00768492,5693df018d93fe000dfa5733,64d2fd46c836a06233681665,64dc7a9bc17ffe2c217f3768,,,,,,,decisionTrl,resources/DB.BMP,resources/DR.BMP,Door3,-0.344444452,-0.068518533,1,0,0,0.8281,optionLeft,70,11950,5,43,0,43,0,1,,,,,,,,,,,,,,,,,,,,,,,,,,,,,,,,,,,,,,,
,,,,,,,,2023-08-16_08h29.33.631,HF_wild_card,2022.2.4,Win32,12.00768492,5693df018d93fe000dfa5733,64d2fd46c836a06233681665,64dc7a9bc17ffe2c217f3768,,,,,,,,,,,,,,,,,,,,,,,,,,4,0,4,0,1,,,,,,,,,,,,,,,,,,,,,,,,,,,,,,,,,,
,,,,,,,,2023-08-16_08h29.33.631,HF_wild_card,2022.2.4,Win32,12.00768492,5693df018d93fe000dfa5733,64d2fd46c836a06233681665,64dc7a9bc17ffe2c217f3768,,,,,,,decisionTrl,resources/DB.BMP,resources/DR.BMP,Door4,0.268518519,-0.080555563,1,0,0,1.4385,optionRight,80,12030,6,0,0,0,0,1,,,,,,,,,,,,,,,,,,,,,,,,,,,,,,,,,,,,,,,
,,,,,,,,2023-08-16_08h29.33.631,HF_wild_card,2022.2.4,Win32,12.00768492,5693df018d93fe000dfa5733,64d2fd46c836a06233681665,64dc7a9bc17ffe2c217f3768,,,,,,,decisionTrl,resources/DB.BMP,resources/DR.BMP,Door4,0.251851894,-0.049074067,1,0,0,1.051,optionRight,80,12110,6,1,0,1,0,1,,,,,,,,,,,,,,,,,,,,,,,,,,,,,,,,,,,,,,,
,,,,,,,,2023-08-16_08h29.33.631,HF_wild_card,2022.2.4,Win32,12.00768492,5693df018d93fe000dfa5733,64d2fd46c836a06233681665,64dc7a9bc17ffe2c217f3768,,,,,,,decisionTrl,resources/DBN.BMP,resources/DG.BMP,Door1,0.281481496,-0.059259273,1,0,0,1.2454,optionRight,30,12140,6,2,0,2,0,1,,,,,,,,,,,,,,,,,,,,,,,,,,,,,,,,,,,,,,,
,,,,,,,,2023-08-16_08h29.33.631,HF_wild_card,2022.2.4,Win32,12.00768492,5693df018d93fe000dfa5733,64d2fd46c836a06233681665,64dc7a9bc17ffe2c217f3768,,,,,,,ctch,resources/DG.BMP,resources/DR.BMP,Door4,0.236111111,-0.107407393,1,0,0,1.0748,optionRight,60,12200,6,3,0,3,0,1,,,,,,,,,,,,,,,,,,,,,,,,,,,,,,,,,,,,,,,
,,,,,,,,2023-08-16_08h29.33.631,HF_wild_card,2022.2.4,Win32,12.00768492,5693df018d93fe000dfa5733,64d2fd46c836a06233681665,64dc7a9bc17ffe2c217f3768,,,,,,,decisionTrl,resources/DBN.BMP,resources/DP.BMP,WildCard_Ex,0.251851894,-0.086111104,1,0,0,2.6795,optionRight,5,12205,6,4,0,4,0,1,,,,,,,,,,,,,,,,,,,,,,,,,,,,,,,,,,,,,,,
,,,,,,,,2023-08-16_08h29.33.631,HF_wild_card,2022.2.4,Win32,12.00768492,5693df018d93fe000dfa5733,64d2fd46c836a06233681665,64dc7a9bc17ffe2c217f3768,,,,,,,sngl,resources/DBN.BMP,resources/Empty.png,Door2,-0.410185178,-0.070370392,1,0,0,0.9715,optionLeft,20,12225,6,5,0,5,0,1,,,,,,,,,,,,,,,,,,,,,,,,,,,,,,,,,,,,,,,
,,,,,,,,2023-08-16_08h29.33.631,HF_wild_card,2022.2.4,Win32,12.00768492,5693df018d93fe000dfa5733,64d2fd46c836a06233681665,64dc7a9bc17ffe2c217f3768,,,,,,,sngl,resources/DP.BMP,resources/Empty.png,WildCard_Ex,-0.262036995,-0.050000014,1,0,0,0.9327,optionLeft,5,12230,6,6,0,6,0,1,,,,,,,,,,,,,,,,,,,,,,,,,,,,,,,,,,,,,,,
,,,,,,,,2023-08-16_08h29.33.631,HF_wild_card,2022.2.4,Win32,12.00768492,5693df018d93fe000dfa5733,64d2fd46c836a06233681665,64dc7a9bc17ffe2c217f3768,,,,,,,ctch,resources/DBN.BMP,resources/DB.BMP,Door3,0.233333376,-0.076851845,1,0,0,1.0445,optionRight,70,12300,6,7,0,7,0,1,,,,,,,,,,,,,,,,,,,,,,,,,,,,,,,,,,,,,,,
,,,,,,,,2023-08-16_08h29.33.631,HF_wild_card,2022.2.4,Win32,12.00768492,5693df018d93fe000dfa5733,64d2fd46c836a06233681665,64dc7a9bc17ffe2c217f3768,,,,,,,sngl,resources/DG.BMP,resources/Empty.png,Door1,-0.438888868,-0.035185178,1,0,0,0.9507,optionLeft,30,12330,6,8,0,8,0,1,,,,,,,,,,,,,,,,,,,,,,,,,,,,,,,,,,,,,,,
,,,,,,,,2023-08-16_08h29.33.631,HF_wild_card,2022.2.4,Win32,12.00768492,5693df018d93fe000dfa5733,64d2fd46c836a06233681665,64dc7a9bc17ffe2c217f3768,,,,,,,decisionTrl,resources/DBN.BMP,resources/DG.BMP,Door1,0.251851894,-0.057407414,1,0,0,0.8255,optionRight,30,12360,6,9,0,9,0,1,,,,,,,,,,,,,,,,,,,,,,,,,,,,,,,,,,,,,,,
,,,,,,,,2023-08-16_08h29.33.631,HF_wild_card,2022.2.4,Win32,12.00768492,5693df018d93fe000dfa5733,64d2fd46c836a06233681665,64dc7a9bc17ffe2c217f3768,,,,,,,ctch,resources/DR.BMP,resources/DG.BMP,Door4,-0.360185164,-0.10092594,1,0,0,1.6449,optionLeft,60,12420,6,10,0,10,0,1,,,,,,,,,,,,,,,,,,,,,,,,,,,,,,,,,,,,,,,
,,,,,,,,2023-08-16_08h29.33.631,HF_wild_card,2022.2.4,Win32,12.00768492,5693df018d93fe000dfa5733,64d2fd46c836a06233681665,64dc7a9bc17ffe2c217f3768,,,,,,,sngl,resources/Empty.png,resources/DP.BMP,WildCard_Ex,0.297222279,-0.023148148,1,0,0,0.7668,optionRight,5,12425,6,11,0,11,0,1,,,,,,,,,,,,,,,,,,,,,,,,,,,,,,,,,,,,,,,
,,,,,,,,2023-08-16_08h29.33.631,HF_wild_card,2022.2.4,Win32,12.00768492,5693df018d93fe000dfa5733,64d2fd46c836a06233681665,64dc7a9bc17ffe2c217f3768,,,,,,,ctch,resources/DR.BMP,resources/DG.BMP,Door4,-0.307407414,-0.125,1,0,0,1.2796,optionLeft,60,12485,6,12,0,12,0,1,,,,,,,,,,,,,,,,,,,,,,,,,,,,,,,,,,,,,,,
,,,,,,,,2023-08-16_08h29.33.631,HF_wild_card,2022.2.4,Win32,12.00768492,5693df018d93fe000dfa5733,64d2fd46c836a06233681665,64dc7a9bc17ffe2c217f3768,,,,,,,sngl,resources/DB.BMP,resources/Empty.png,Door3,-0.280555513,-0.074074074,1,0,0,0.9365,optionLeft,70,12555,6,13,0,13,0,1,,,,,,,,,,,,,,,,,,,,,,,,,,,,,,,,,,,,,,,
,,,,,,,,2023-08-16_08h29.33.631,HF_wild_card,2022.2.4,Win32,12.00768492,5693df018d93fe000dfa5733,64d2fd46c836a06233681665,64dc7a9bc17ffe2c217f3768,,,,,,,decisionTrl,resources/DR.BMP,resources/DB.BMP,Door3,0.287962949,-0.061111132,1,0,0,2.2885,optionRight,70,12625,6,14,0,14,0,1,,,,,,,,,,,,,,,,,,,,,,,,,,,,,,,,,,,,,,,
,,,,,,,,2023-08-16_08h29.33.631,HF_wild_card,2022.2.4,Win32,12.00768492,5693df018d93fe000dfa5733,64d2fd46c836a06233681665,64dc7a9bc17ffe2c217f3768,,,,,,,decisionTrl,resources/DG.BMP,resources/DBN.BMP,Door1,-0.224074046,-0.094444487,1,0,0,1.246,optionLeft,30,12655,6,15,0,15,0,1,,,,,,,,,,,,,,,,,,,,,,,,,,,,,,,,,,,,,,,
,,,,,,,,2023-08-16_08h29.33.631,HF_wild_card,2022.2.4,Win32,12.00768492,5693df018d93fe000dfa5733,64d2fd46c836a06233681665,64dc7a9bc17ffe2c217f3768,,,,,,,ctch,resources/DBN.BMP,resources/DB.BMP,Door3,0.398148148,-0.090740734,1,0,0,0.8199,optionRight,70,12725,6,16,0,16,0,1,,,,,,,,,,,,,,,,,,,,,,,,,,,,,,,,,,,,,,,
,,,,,,,,2023-08-16_08h29.33.631,HF_wild_card,2022.2.4,Win32,12.00768492,5693df018d93fe000dfa5733,64d2fd46c836a06233681665,64dc7a9bc17ffe2c217f3768,,,,,,,decisionTrl,resources/DG.BMP,resources/DP.BMP,WildCard_Ex,0.220370399,-0.073148162,1,0,0,1.2549,optionRight,5,12730,6,17,0,17,0,1,,,,,,,,,,,,,,,,,,,,,,,,,,,,,,,,,,,,,,,
,,,,,,,,2023-08-16_08h29.33.631,HF_wild_card,2022.2.4,Win32,12.00768492,5693df018d93fe000dfa5733,64d2fd46c836a06233681665,64dc7a9bc17ffe2c217f3768,,,,,,,sngl,resources/Empty.png,resources/DG.BMP,Door1,0.314814815,-0.058333326,1,0,0,0.752,optionRight,30,12760,6,18,0,18,0,1,,,,,,,,,,,,,,,,,,,,,,,,,,,,,,,,,,,,,,,
,,,,,,,,2023-08-16_08h29.33.631,HF_wild_card,2022.2.4,Win32,12.00768492,5693df018d93fe000dfa5733,64d2fd46c836a06233681665,64dc7a9bc17ffe2c217f3768,,,,,,,sngl,resources/Empty.png,resources/DP.BMP,WildCard_Ex,0.224074116,-0.057407414,1,0,0,0.7657,optionRight,95,12855,6,19,0,19,0,1,,,,,,,,,,,,,,,,,,,,,,,,,,,,,,,,,,,,,,,
,,,,,,,,2023-08-16_08h29.33.631,HF_wild_card,2022.2.4,Win32,12.00768492,5693df018d93fe000dfa5733,64d2fd46c836a06233681665,64dc7a9bc17ffe2c217f3768,,,,,,,decisionTrl,resources/DG.BMP,resources/DBN.BMP,Door1,-0.27407406,-0.063888903,1,0,0,1.024,optionLeft,30,12885,6,20,0,20,0,1,,,,,,,,,,,,,,,,,,,,,,,,,,,,,,,,,,,,,,,
,,,,,,,,2023-08-16_08h29.33.631,HF_wild_card,2022.2.4,Win32,12.00768492,5693df018d93fe000dfa5733,64d2fd46c836a06233681665,64dc7a9bc17ffe2c217f3768,,,,,,,decisionTrl,resources/DG.BMP,resources/DBN.BMP,Door1,-0.326851845,-0.054629644,1,0,0,1.0161,optionLeft,30,12915,6,21,0,21,0,1,,,,,,,,,,,,,,,,,,,,,,,,,,,,,,,,,,,,,,,
,,,,,,,,2023-08-16_08h29.33.631,HF_wild_card,2022.2.4,Win32,12.00768492,5693df018d93fe000dfa5733,64d2fd46c836a06233681665,64dc7a9bc17ffe2c217f3768,,,,,,,decisionTrl,resources/DG.BMP,resources/DBN.BMP,Door1,-0.26944443,-0.035185178,1,0,0,0.8534,optionLeft,30,12945,6,22,0,22,0,1,,,,,,,,,,,,,,,,,,,,,,,,,,,,,,,,,,,,,,,
,,,,,,,,2023-08-16_08h29.33.631,HF_wild_card,2022.2.4,Win32,12.00768492,5693df018d93fe000dfa5733,64d2fd46c836a06233681665,64dc7a9bc17ffe2c217f3768,,,,,,,sngl,resources/Empty.png,resources/DB.BMP,Door3,0.338888945,-0.073148162,1,0,0,1.0355,optionRight,70,13015,6,23,0,23,0,1,,,,,,,,,,,,,,,,,,,,,,,,,,,,,,,,,,,,,,,
,,,,,,,,2023-08-16_08h29.33.631,HF_wild_card,2022.2.4,Win32,12.00768492,5693df018d93fe000dfa5733,64d2fd46c836a06233681665,64dc7a9bc17ffe2c217f3768,,,,,,,sngl,resources/DP.BMP,resources/Empty.png,WildCard_Ex,-0.331481474,-0.015740748,1,0,0,1.5492,optionLeft,95,13110,6,24,0,24,0,1,,,,,,,,,,,,,,,,,,,,,,,,,,,,,,,,,,,,,,,
,,,,,,,,2023-08-16_08h29.33.631,HF_wild_card,2022.2.4,Win32,12.00768492,5693df018d93fe000dfa5733,64d2fd46c836a06233681665,64dc7a9bc17ffe2c217f3768,,,,,,,decisionTrl,resources/DBN.BMP,resources/DG.BMP,Door1,0.457407492,-0.158333319,1,0,0,1.2556,optionRight,30,13140,6,25,0,25,0,1,,,,,,,,,,,,,,,,,,,,,,,,,,,,,,,,,,,,,,,
,,,,,,,,2023-08-16_08h29.33.631,HF_wild_card,2022.2.4,Win32,12.00768492,5693df018d93fe000dfa5733,64d2fd46c836a06233681665,64dc7a9bc17ffe2c217f3768,,,,,,,ctch,resources/DB.BMP,resources/DBN.BMP,Door3,-0.239814829,-0.024074095,1,0,0,0.8258,optionLeft,70,13210,6,26,0,26,0,1,,,,,,,,,,,,,,,,,,,,,,,,,,,,,,,,,,,,,,,
,,,,,,,,2023-08-16_08h29.33.631,HF_wild_card,2022.2.4,Win32,12.00768492,5693df018d93fe000dfa5733,64d2fd46c836a06233681665,64dc7a9bc17ffe2c217f3768,,,,,,,decisionTrl,resources/DBN.BMP,resources/DG.BMP,Door1,0.335185157,-0.100000028,1,0,0,0.8289,optionRight,30,13240,6,27,0,27,0,1,,,,,,,,,,,,,,,,,,,,,,,,,,,,,,,,,,,,,,,
,,,,,,,,2023-08-16_08h29.33.631,HF_wild_card,2022.2.4,Win32,12.00768492,5693df018d93fe000dfa5733,64d2fd46c836a06233681665,64dc7a9bc17ffe2c217f3768,,,,,,,decisionTrl,resources/DP.BMP,resources/DB.BMP,WildCard_Ex,-0.233333305,-0.041666667,1,0,0,0.8193,optionLeft,5,13245,6,28,0,28,0,1,,,,,,,,,,,,,,,,,,,,,,,,,,,,,,,,,,,,,,,
,,,,,,,,2023-08-16_08h29.33.631,HF_wild_card,2022.2.4,Win32,12.00768492,5693df018d93fe000dfa5733,64d2fd46c836a06233681665,64dc7a9bc17ffe2c217f3768,,,,,,,decisionTrl,resources/DR.BMP,resources/DB.BMP,Door3,0.550925926,-0.116666653,1,0,0,0.8159,optionRight,70,13315,6,29,0,29,0,1,,,,,,,,,,,,,,,,,,,,,,,,,,,,,,,,,,,,,,,
,,,,,,,,2023-08-16_08h29.33.631,HF_wild_card,2022.2.4,Win32,12.00768492,5693df018d93fe000dfa5733,64d2fd46c836a06233681665,64dc7a9bc17ffe2c217f3768,,,,,,,sngl,resources/DR.BMP,resources/Empty.png,Door4,-0.387962942,-0.077777792,1,0,0,0.7643,optionLeft,60,13375,6,30,0,30,0,1,,,,,,,,,,,,,,,,,,,,,,,,,,,,,,,,,,,,,,,
,,,,,,,,2023-08-16_08h29.33.631,HF_wild_card,2022.2.4,Win32,12.00768492,5693df018d93fe000dfa5733,64d2fd46c836a06233681665,64dc7a9bc17ffe2c217f3768,,,,,,,decisionTrl,resources/DB.BMP,resources/DP.BMP,WildCard_Ex,0.261111153,-0.102777764,1,0,0,1.2408,optionRight,95,13470,6,31,0,31,0,1,,,,,,,,,,,,,,,,,,,,,,,,,,,,,,,,,,,,,,,
,,,,,,,,2023-08-16_08h29.33.631,HF_wild_card,2022.2.4,Win32,12.00768492,5693df018d93fe000dfa5733,64d2fd46c836a06233681665,64dc7a9bc17ffe2c217f3768,,,,,,,decisionTrl,resources/DR.BMP,resources/DB.BMP,Door4,-0.303703697,-0.059259273,1,0,0,1.4463,optionLeft,80,13550,6,32,0,32,0,1,,,,,,,,,,,,,,,,,,,,,,,,,,,,,,,,,,,,,,,
,,,,,,,,2023-08-16_08h29.33.631,HF_wild_card,2022.2.4,Win32,12.00768492,5693df018d93fe000dfa5733,64d2fd46c836a06233681665,64dc7a9bc17ffe2c217f3768,,,,,,,decisionTrl,resources/DR.BMP,resources/DB.BMP,Door4,-0.290740755,-0.081481474,1,0,0,1.0237,optionLeft,60,13610,6,33,0,33,0,1,,,,,,,,,,,,,,,,,,,,,,,,,,,,,,,,,,,,,,,
,,,,,,,,2023-08-16_08h29.33.631,HF_wild_card,2022.2.4,Win32,12.00768492,5693df018d93fe000dfa5733,64d2fd46c836a06233681665,64dc7a9bc17ffe2c217f3768,,,,,,,decisionTrl,resources/DP.BMP,resources/DBN.BMP,WildCard_Ex,-0.261111083,-0.036111125,1,0,0,1.6678,optionLeft,95,13705,6,34,0,34,0,1,,,,,,,,,,,,,,,,,,,,,,,,,,,,,,,,,,,,,,,
,,,,,,,,2023-08-16_08h29.33.631,HF_wild_card,2022.2.4,Win32,12.00768492,5693df018d93fe000dfa5733,64d2fd46c836a06233681665,64dc7a9bc17ffe2c217f3768,,,,,,,decisionTrl,resources/DB.BMP,resources/DR.BMP,Door4,0.400925954,-0.103703746,1,0,0,1.6603,optionRight,60,13765,6,35,0,35,0,1,,,,,,,,,,,,,,,,,,,,,,,,,,,,,,,,,,,,,,,
,,,,,,,,2023-08-16_08h29.33.631,HF_wild_card,2022.2.4,Win32,12.00768492,5693df018d93fe000dfa5733,64d2fd46c836a06233681665,64dc7a9bc17ffe2c217f3768,,,,,,,sngl,resources/Empty.png,resources/DBN.BMP,Door2,0.458333333,-0.075000021,1,0,0,0.9338,optionRight,40,13805,6,36,0,36,0,1,,,,,,,,,,,,,,,,,,,,,,,,,,,,,,,,,,,,,,,
,,,,,,,,2023-08-16_08h29.33.631,HF_wild_card,2022.2.4,Win32,12.00768492,5693df018d93fe000dfa5733,64d2fd46c836a06233681665,64dc7a9bc17ffe2c217f3768,,,,,,,decisionTrl,resources/DP.BMP,resources/DG.BMP,WildCard_Ex,-0.202777792,-0.077777792,1,0,0,1.4632,optionLeft,95,13900,6,37,0,37,0,1,,,,,,,,,,,,,,,,,,,,,,,,,,,,,,,,,,,,,,,
,,,,,,,,2023-08-16_08h29.33.631,HF_wild_card,2022.2.4,Win32,12.00768492,5693df018d93fe000dfa5733,64d2fd46c836a06233681665,64dc7a9bc17ffe2c217f3768,,,,,,,sngl,resources/Empty.png,resources/DR.BMP,Door4,0.266666695,-0.058333326,1,0,0,0.9858,optionRight,80,13980,6,38,0,38,0,1,,,,,,,,,,,,,,,,,,,,,,,,,,,,,,,,,,,,,,,
,,,,,,,,2023-08-16_08h29.33.631,HF_wild_card,2022.2.4,Win32,12.00768492,5693df018d93fe000dfa5733,64d2fd46c836a06233681665,64dc7a9bc17ffe2c217f3768,,,,,,,decisionTrl,resources/DR.BMP,resources/DP.BMP,WildCard_Ex,0.292592578,-0.058333326,1,0,0,1.0339,optionRight,95,14075,6,39,0,39,0,1,,,,,,,,,,,,,,,,,,,,,,,,,,,,,,,,,,,,,,,
,,,,,,,,2023-08-16_08h29.33.631,HF_wild_card,2022.2.4,Win32,12.00768492,5693df018d93fe000dfa5733,64d2fd46c836a06233681665,64dc7a9bc17ffe2c217f3768,,,,,,,decisionTrl,resources/DP.BMP,resources/DR.BMP,WildCard_Ex,-0.240740741,-0.044444437,1,0,0,2.3038,optionLeft,5,14080,6,40,0,40,0,1,,,,,,,,,,,,,,,,,,,,,,,,,,,,,,,,,,,,,,,
,,,,,,,,2023-08-16_08h29.33.631,HF_wild_card,2022.2.4,Win32,12.00768492,5693df018d93fe000dfa5733,64d2fd46c836a06233681665,64dc7a9bc17ffe2c217f3768,,,,,,,ctch,resources/DG.BMP,resources/DR.BMP,Door4,0.314814815,-0.076851845,1,0,0,3.0548,optionRight,80,14160,6,41,0,41,0,1,,,,,,,,,,,,,,,,,,,,,,,,,,,,,,,,,,,,,,,
,,,,,,,,2023-08-16_08h29.33.631,HF_wild_card,2022.2.4,Win32,12.00768492,5693df018d93fe000dfa5733,64d2fd46c836a06233681665,64dc7a9bc17ffe2c217f3768,,,,,,,ctch,resources/DB.BMP,resources/DBN.BMP,Door3,-0.424999979,-0.09629631,1,0,0,0.8801,optionLeft,70,14230,6,42,0,42,0,1,,,,,,,,,,,,,,,,,,,,,,,,,,,,,,,,,,,,,,,
,,,,,,,,2023-08-16_08h29.33.631,HF_wild_card,2022.2.4,Win32,12.00768492,5693df018d93fe000dfa5733,64d2fd46c836a06233681665,64dc7a9bc17ffe2c217f3768,,,,,,,decisionTrl,resources/DB.BMP,resources/DR.BMP,Door3,-0.286111125,-0.044444437,1,0,0,1.6649,optionLeft,70,14300,6,43,0,43,0,1,,,,,,,,,,,,,,,,,,,,,,,,,,,,,,,,,,,,,,,
,,,,,,,,2023-08-16_08h29.33.631,HF_wild_card,2022.2.4,Win32,12.00768492,5693df018d93fe000dfa5733,64d2fd46c836a06233681665,64dc7a9bc17ffe2c217f3768,,,,,,,,,,,,,,,,,,,,,,,,,,5,0,5,0,1,,,,,,,,,,,,,,,,,,,,,,,,,,,,,,,,,,
,,,,,,,,2023-08-16_08h29.33.631,HF_wild_card,2022.2.4,Win32,12.00768492,5693df018d93fe000dfa5733,64d2fd46c836a06233681665,64dc7a9bc17ffe2c217f3768,,,,,,,decisionTrl,resources/DBN.BMP,resources/DG.BMP,Door1,0.439814815,-0.134259259,1,0,0,2.2265,optionRight,30,14330,7,0,0,0,0,1,,,,,,,,,,,,,,,,,,,,,,,,,,,,,,,,,,,,,,,
,,,,,,,,2023-08-16_08h29.33.631,HF_wild_card,2022.2.4,Win32,12.00768492,5693df018d93fe000dfa5733,64d2fd46c836a06233681665,64dc7a9bc17ffe2c217f3768,,,,,,,decisionTrl,resources/DB.BMP,resources/DR.BMP,Door3,-0.285185143,-0.013888889,1,0,0,3.5216,optionLeft,70,14400,7,1,0,1,0,1,,,,,,,,,,,,,,,,,,,,,,,,,,,,,,,,,,,,,,,
,,,,,,,,2023-08-16_08h29.33.631,HF_wild_card,2022.2.4,Win32,12.00768492,5693df018d93fe000dfa5733,64d2fd46c836a06233681665,64dc7a9bc17ffe2c217f3768,,,,,,,decisionTrl,resources/DBN.BMP,resources/DG.BMP,Door1,0.410185213,-0.056481503,1,0,0,1.2357,optionRight,30,14430,7,2,0,2,0,1,,,,,,,,,,,,,,,,,,,,,,,,,,,,,,,,,,,,,,,
,,,,,,,,2023-08-16_08h29.33.631,HF_wild_card,2022.2.4,Win32,12.00768492,5693df018d93fe000dfa5733,64d2fd46c836a06233681665,64dc7a9bc17ffe2c217f3768,,,,,,,decisionTrl,resources/DR.BMP,resources/DB.BMP,Door4,-0.291666667,-0.041666667,1,0,0,1.8417,optionLeft,60,14490,7,3,0,3,0,1,,,,,,,,,,,,,,,,,,,,,,,,,,,,,,,,,,,,,,,
,,,,,,,,2023-08-16_08h29.33.631,HF_wild_card,2022.2.4,Win32,12.00768492,5693df018d93fe000dfa5733,64d2fd46c836a06233681665,64dc7a9bc17ffe2c217f3768,,,,,,,ctch,resources/DR.BMP,resources/DG.BMP,Door4,-0.290740755,-0.034259266,1,0,0,1.4335,optionLeft,60,14550,7,4,0,4,0,1,,,,,,,,,,,,,,,,,,,,,,,,,,,,,,,,,,,,,,,
,,,,,,,,2023-08-16_08h29.33.631,HF_wild_card,2022.2.4,Win32,12.00768492,5693df018d93fe000dfa5733,64d2fd46c836a06233681665,64dc7a9bc17ffe2c217f3768,,,,,,,decisionTrl,resources/DG.BMP,resources/DBN.BMP,Door1,-0.280555513,-0.059259273,1,0,0,1.015,optionLeft,30,14580,7,5,0,5,0,1,,,,,,,,,,,,,,,,,,,,,,,,,,,,,,,,,,,,,,,
,,,,,,,,2023-08-16_08h29.33.631,HF_wild_card,2022.2.4,Win32,12.00768492,5693df018d93fe000dfa5733,64d2fd46c836a06233681665,64dc7a9bc17ffe2c217f3768,,,,,,,decisionTrl,resources/DBN.BMP,resources/DG.BMP,Door1,0.398148148,-0.089814822,1,0,0,1.0486,optionRight,30,14610,7,6,0,6,0,1,,,,,,,,,,,,,,,,,,,,,,,,,,,,,,,,,,,,,,,
,,,,,,,,2023-08-16_08h29.33.631,HF_wild_card,2022.2.4,Win32,12.00768492,5693df018d93fe000dfa5733,64d2fd46c836a06233681665,64dc7a9bc17ffe2c217f3768,,,,,,,ctch,resources/DBN.BMP,resources/DB.BMP,Door3,0.267592607,-0.068518533,1,0,0,1.4339,optionRight,70,14680,7,7,0,7,0,1,,,,,,,,,,,,,,,,,,,,,,,,,,,,,,,,,,,,,,,
,,,,,,,,2023-08-16_08h29.33.631,HF_wild_card,2022.2.4,Win32,12.00768492,5693df018d93fe000dfa5733,64d2fd46c836a06233681665,64dc7a9bc17ffe2c217f3768,,,,,,,decisionTrl,resources/DB.BMP,resources/DR.BMP,Door4,0.318518603,-0.054629644,1,0,0,1.432,optionRight,60,14740,7,8,0,8,0,1,,,,,,,,,,,,,,,,,,,,,,,,,,,,,,,,,,,,,,,
,,,,,,,,2023-08-16_08h29.33.631,HF_wild_card,2022.2.4,Win32,12.00768492,5693df018d93fe000dfa5733,64d2fd46c836a06233681665,64dc7a9bc17ffe2c217f3768,,,,,,,decisionTrl,resources/DR.BMP,resources/DB.BMP,Door4,-0.281481496,-0.033333355,1,0,0,2.1061,optionLeft,80,14820,7,9,0,9,0,1,,,,,,,,,,,,,,,,,,,,,,,,,,,,,,,,,,,,,,,
,,,,,,,,2023-08-16_08h29.33.631,HF_wild_card,2022.2.4,Win32,12.00768492,5693df018d93fe000dfa5733,64d2fd46c836a06233681665,64dc7a9bc17ffe2c217f3768,,,,,,,ctch,resources/DBN.BMP,resources/DB.BMP,Door3,0.263888889,-0.032407407,1,0,0,1.1256,optionRight,70,14890,7,10,0,10,0,1,,,,,,,,,,,,,,,,,,,,,,,,,,,,,,,,,,,,,,,
,,,,,,,,2023-08-16_08h29.33.631,HF_wild_card,2022.2.4,Win32,12.00768492,5693df018d93fe000dfa5733,64d2fd46c836a06233681665,64dc7a9bc17ffe2c217f3768,,,,,,,ctch,resources/DR.BMP,resources/DG.BMP,Door4,-0.41574072,-0.074074074,1,0,0,1.2444,optionLeft,60,14950,7,11,0,11,0,1,,,,,,,,,,,,,,,,,,,,,,,,,,,,,,,,,,,,,,,
,,,,,,,,2023-08-16_08h29.33.631,HF_wild_card,2022.2.4,Win32,12.00768492,5693df018d93fe000dfa5733,64d2fd46c836a06233681665,64dc7a9bc17ffe2c217f3768,,,,,,,decisionTrl,resources/DR.BMP,resources/DB.BMP,Door3,0.23055557,-0.067592586,1,0,0,1.2426,optionRight,70,15020,7,12,0,12,0,1,,,,,,,,,,,,,,,,,,,,,,,,,,,,,,,,,,,,,,,
,,,,,,,,2023-08-16_08h29.33.631,HF_wild_card,2022.2.4,Win32,12.00768492,5693df018d93fe000dfa5733,64d2fd46c836a06233681665,64dc7a9bc17ffe2c217f3768,,,,,,,ctch,resources/DR.BMP,resources/DG.BMP,Door4,-0.233333305,-0.034259266,1,0,0,1.4537,optionLeft,80,15100,7,13,0,13,0,1,,,,,,,,,,,,,,,,,,,,,,,,,,,,,,,,,,,,,,,
,,,,,,,,2023-08-16_08h29.33.631,HF_wild_card,2022.2.4,Win32,12.00768492,5693df018d93fe000dfa5733,64d2fd46c836a06233681665,64dc7a9bc17ffe2c217f3768,,,,,,,decisionTrl,resources/DBN.BMP,resources/DG.BMP,Door1,0.241666653,-0.031481496,1,0,0,1.2518,optionRight,30,15130,7,14,0,14,0,1,,,,,,,,,,,,,,,,,,,,,,,,,,,,,,,,,,,,,,,
,,,,,,,,2023-08-16_08h29.33.631,HF_wild_card,2022.2.4,Win32,12.00768492,5693df018d93fe000dfa5733,64d2fd46c836a06233681665,64dc7a9bc17ffe2c217f3768,,,,,,,decisionTrl,resources/DG.BMP,resources/DBN.BMP,Door1,-0.218518504,-0.049074067,1,0,0,1.0477,optionLeft,30,15160,7,15,0,15,0,1,,,,,,,,,,,,,,,,,,,,,,,,,,,,,,,,,,,,,,,
,,,,,,,,2023-08-16_08h29.33.631,HF_wild_card,2022.2.4,Win32,12.00768492,5693df018d93fe000dfa5733,64d2fd46c836a06233681665,64dc7a9bc17ffe2c217f3768,,,,,,,decisionTrl,resources/DR.BMP,resources/DB.BMP,Door4,-0.224999958,-0.069444444,1,0,0,1.4506,optionLeft,80,15240,7,16,0,16,0,1,,,,,,,,,,,,,,,,,,,,,,,,,,,,,,,,,,,,,,,
,,,,,,,,2023-08-16_08h29.33.631,HF_wild_card,2022.2.4,Win32,12.00768492,5693df018d93fe000dfa5733,64d2fd46c836a06233681665,64dc7a9bc17ffe2c217f3768,,,,,,,decisionTrl,resources/DG.BMP,resources/DBN.BMP,Door1,-0.253703718,-0.046296296,1,0,0,1.2176,optionLeft,30,15270,7,17,0,17,0,1,,,,,,,,,,,,,,,,,,,,,,,,,,,,,,,,,,,,,,,
,,,,,,,,2023-08-16_08h29.33.631,HF_wild_card,2022.2.4,Win32,12.00768492,5693df018d93fe000dfa5733,64d2fd46c836a06233681665,64dc7a9bc17ffe2c217f3768,,,,,,,ctch,resources/DB.BMP,resources/DBN.BMP,Door3,-0.26944443,-0.045370384,1,0,0,1.0163,optionLeft,70,15340,7,18,0,18,0,1,,,,,,,,,,,,,,,,,,,,,,,,,,,,,,,,,,,,,,,
,,,,,,,,2023-08-16_08h29.33.631,HF_wild_card,2022.2.4,Win32,12.00768492,5693df018d93fe000dfa5733,64d2fd46c836a06233681665,64dc7a9bc17ffe2c217f3768,,,,,,,decisionTrl,resources/DG.BMP,resources/DBN.BMP,Door1,-0.417592578,-0.057407414,1,0,0,0.8365,optionLeft,30,15370,7,19,0,19,0,1,,,,,,,,,,,,,,,,,,,,,,,,,,,,,,,,,,,,,,,
,,,,,,,,2023-08-16_08h29.33.631,HF_wild_card,2022.2.4,Win32,12.00768492,5693df018d93fe000dfa5733,64d2fd46c836a06233681665,64dc7a9bc17ffe2c217f3768,,,,,,,decisionTrl,resources/DB.BMP,resources/DR.BMP,Door4,0.220370399,-0.083333333,1,0,0,2.0912,optionRight,60,15430,7,20,0,20,0,1,,,,,,,,,,,,,,,,,,,,,,,,,,,,,,,,,,,,,,,
,,,,,,,,2023-08-16_08h29.33.631,HF_wild_card,2022.2.4,Win32,12.00768492,5693df018d93fe000dfa5733,64d2fd46c836a06233681665,64dc7a9bc17ffe2c217f3768,,,,,,,ctch,resources/DBN.BMP,resources/DB.BMP,Door3,0.416666667,-0.090740734,1,0,0,1.0224,optionRight,70,15500,7,21,0,21,0,1,,,,,,,,,,,,,,,,,,,,,,,,,,,,,,,,,,,,,,,
,,,,,,,,2023-08-16_08h29.33.631,HF_wild_card,2022.2.4,Win32,12.00768492,5693df018d93fe000dfa5733,64d2fd46c836a06233681665,64dc7a9bc17ffe2c217f3768,,,,,,,decisionTrl,resources/DR.BMP,resources/DB.BMP,Door4,-0.235185199,-0.060185185,1,0,0,2.2917,optionLeft,80,15580,7,22,0,22,0,1,,,,,,,,,,,,,,,,,,,,,,,,,,,,,,,,,,,,,,,
,,,,,,,,2023-08-16_08h29.33.631,HF_wild_card,2022.2.4,Win32,12.00768492,5693df018d93fe000dfa5733,64d2fd46c836a06233681665,64dc7a9bc17ffe2c217f3768,,,,,,,decisionTrl,resources/DBN.BMP,resources/DG.BMP,Door1,0.365740741,-0.061111132,1,0,0,1.0225,optionRight,30,15610,7,23,0,23,0,1,,,,,,,,,,,,,,,,,,,,,,,,,,,,,,,,,,,,,,,
,,,,,,,,2023-08-16_08h29.33.631,HF_wild_card,2022.2.4,Win32,12.00768492,5693df018d93fe000dfa5733,64d2fd46c836a06233681665,64dc7a9bc17ffe2c217f3768,,,,,,,decisionTrl,resources/DB.BMP,resources/DR.BMP,Door3,-0.304629608,-0.061111132,1,0,0,2.324,optionLeft,70,15680,7,24,0,24,0,1,,,,,,,,,,,,,,,,,,,,,,,,,,,,,,,,,,,,,,,
,,,,,,,,2023-08-16_08h29.33.631,HF_wild_card,2022.2.4,Win32,12.00768492,5693df018d93fe000dfa5733,64d2fd46c836a06233681665,64dc7a9bc17ffe2c217f3768,,,,,,,ctch,resources/DG.BMP,resources/DR.BMP,Door4,0.445370427,-0.072222215,1,0,0,1.4426,optionRight,60,15740,7,25,0,25,0,1,,,,,,,,,,,,,,,,,,,,,,,,,,,,,,,,,,,,,,,
,,,,,,,,2023-08-16_08h29.33.631,HF_wild_card,2022.2.4,Win32,12.00768492,5693df018d93fe000dfa5733,64d2fd46c836a06233681665,64dc7a9bc17ffe2c217f3768,,,,,,,ctch,resources/DG.BMP,resources/DR.BMP,Door4,0.348148205,-0.069444444,1,0,0,1.6338,optionRight,60,15800,7,26,0,26,0,1,,,,,,,,,,,,,,,,,,,,,,,,,,,,,,,,,,,,,,,
,,,,,,,,2023-08-16_08h29.33.631,HF_wild_card,2022.2.4,Win32,12.00768492,5693df018d93fe000dfa5733,64d2fd46c836a06233681665,64dc7a9bc17ffe2c217f3768,,,,,,,decisionTrl,resources/DG.BMP,resources/DBN.BMP,Door1,-0.279629601,-0.056481503,1,0,0,1.2509,optionLeft,30,15830,7,27,0,27,0,1,,,,,,,,,,,,,,,,,,,,,,,,,,,,,,,,,,,,,,,
,,,,,,,,2023-08-16_08h29.33.631,HF_wild_card,2022.2.4,Win32,12.00768492,5693df018d93fe000dfa5733,64d2fd46c836a06233681665,64dc7a9bc17ffe2c217f3768,,,,,,,decisionTrl,resources/DG.BMP,resources/DBN.BMP,Door1,-0.258333347,-0.038888896,1,0,0,1.0702,optionLeft,30,15860,7,28,0,28,0,1,,,,,,,,,,,,,,,,,,,,,,,,,,,,,,,,,,,,,,,
,,,,,,,,2023-08-16_08h29.33.631,HF_wild_card,2022.2.4,Win32,12.00768492,5693df018d93fe000dfa5733,64d2fd46c836a06233681665,64dc7a9bc17ffe2c217f3768,,,,,,,decisionTrl,resources/DBN.BMP,resources/DG.BMP,Door1,0.437037009,-0.070370392,1,0,0,1.0606,optionRight,30,15890,7,29,0,29,0,1,,,,,,,,,,,,,,,,,,,,,,,,,,,,,,,,,,,,,,,
,,,,,,,,2023-08-16_08h29.33.631,HF_wild_card,2022.2.4,Win32,12.00768492,5693df018d93fe000dfa5733,64d2fd46c836a06233681665,64dc7a9bc17ffe2c217f3768,,,,,,,ctch,resources/DB.BMP,resources/DBN.BMP,Door3,-0.408333319,-0.075000021,1,0,0,1.031,optionLeft,70,15960,7,30,0,30,0,1,,,,,,,,,,,,,,,,,,,,,,,,,,,,,,,,,,,,,,,
,,,,,,,,2023-08-16_08h29.33.631,HF_wild_card,2022.2.4,Win32,12.00768492,5693df018d93fe000dfa5733,64d2fd46c836a06233681665,64dc7a9bc17ffe2c217f3768,,,,,,,decisionTrl,resources/DB.BMP,resources/DR.BMP,Door4,0.280555584,-0.052777785,1,0,0,1.4237,optionRight,60,16020,7,31,0,31,0,1,,,,,,,,,,,,,,,,,,,,,,,,,,,,,,,,,,,,,,,
,,,,,,,,2023-08-16_08h29.33.631,HF_wild_card,2022.2.4,Win32,12.00768492,5693df018d93fe000dfa5733,64d2fd46c836a06233681665,64dc7a9bc17ffe2c217f3768,,,,,,,ctch,resources/DG.BMP,resources/DR.BMP,Door4,0.275925954,-0.055555556,1,0,0,1.0432,optionRight,80,16100,7,32,0,32,0,1,,,,,,,,,,,,,,,,,,,,,,,,,,,,,,,,,,,,,,,
,,,,,,,,2023-08-16_08h29.33.631,HF_wild_card,2022.2.4,Win32,12.00768492,5693df018d93fe000dfa5733,64d2fd46c836a06233681665,64dc7a9bc17ffe2c217f3768,,,,,,,ctch,resources/DB.BMP,resources/DBN.BMP,Door3,-0.263888889,-0.050000014,1,0,0,1.0541,optionLeft,70,16170,7,33,0,33,0,1,,,,,,,,,,,,,,,,,,,,,,,,,,,,,,,,,,,,,,,
,,,,,,,,2023-08-16_08h29.33.631,HF_wild_card,2022.2.4,Win32,12.00768492,5693df018d93fe000dfa5733,64d2fd46c836a06233681665,64dc7a9bc17ffe2c217f3768,,,,,,,decisionTrl,resources/DR.BMP,resources/DB.BMP,Door4,-0.356481481,-0.050925926,1,0,0,2.4684,optionLeft,60,16230,7,34,0,34,0,1,,,,,,,,,,,,,,,,,,,,,,,,,,,,,,,,,,,,,,,
,,,,,,,,2023-08-16_08h29.33.631,HF_wild_card,2022.2.4,Win32,12.00768492,5693df018d93fe000dfa5733,64d2fd46c836a06233681665,64dc7a9bc17ffe2c217f3768,,,,,,,decisionTrl,resources/DB.BMP,resources/DR.BMP,Door3,-0.349074081,-0.050925926,1,0,0,2.8558,optionLeft,70,16300,7,35,0,35,0,1,,,,,,,,,,,,,,,,,,,,,,,,,,,,,,,,,,,,,,,
,,,,,,,,2023-08-16_08h29.33.631,HF_wild_card,2022.2.4,Win32,12.00768492,5693df018d93fe000dfa5733,64d2fd46c836a06233681665,64dc7a9bc17ffe2c217f3768,,,,,,,,,,,,,,,,,,,,,,,,,,6,0,6,0,1,,,,,,,,,,,,,,,,,,,,,,,,,,,,,,,,,,
,,,,,,,,2023-08-16_08h29.33.631,HF_wild_card,2022.2.4,Win32,12.00768492,5693df018d93fe000dfa5733,64d2fd46c836a06233681665,64dc7a9bc17ffe2c217f3768,,,,,,,,,,,,,,,,,,,,,,,,,,,,,,,4,,,,,,,,,,,,,,,,,,,,,,,,,,,,,,,,,
,,,,,,,,2023-08-16_08h29.33.631,HF_wild_card,2022.2.4,Win32,12.00768492,5693df018d93fe000dfa5733,64d2fd46c836a06233681665,64dc7a9bc17ffe2c217f3768,,,,,,,,,,,,,,,,,,,,,,,,,,,,,,,,,,,,,,,,,,,,,,,,,,,,,,,,,,,,,,,,
,,,,,,,,2023-08-16_08h29.33.631,HF_wild_card,2022.2.4,Win32,12.00768492,5693df018d93fe000dfa5733,64d2fd46c836a06233681665,64dc7a9bc17ffe2c217f3768,,,,,,,,,,,,,,,,,,,,,,,,,,,,,,,,80,Door4,resources/DR.BMP,0,0,0,0,1,,,,,,,,,,,,,,,,,,,,,,,,,
,,,,,,,,2023-08-16_08h29.33.631,HF_wild_card,2022.2.4,Win32,12.00768492,5693df018d93fe000dfa5733,64d2fd46c836a06233681665,64dc7a9bc17ffe2c217f3768,,,,,,,,,,,,,,,,,,,,,,,,,,,,,,,,20,Door2,resources/DBN.BMP,1,0,1,0,1,,,,,,,,,,,,,,,,,,,,,,,,,
,,,,,,,,2023-08-16_08h29.33.631,HF_wild_card,2022.2.4,Win32,12.00768492,5693df018d93fe000dfa5733,64d2fd46c836a06233681665,64dc7a9bc17ffe2c217f3768,,,,,,,,,,,,,,,,,,,,,,,,,,,,,,,,95,WC_extreme,resources/DP.BMP,2,0,2,0,1,,,,,,,,,,,,,,,,,,,,,,,,,
,,,,,,,,2023-08-16_08h29.33.631,HF_wild_card,2022.2.4,Win32,12.00768492,5693df018d93fe000dfa5733,64d2fd46c836a06233681665,64dc7a9bc17ffe2c217f3768,,,,,,,,,,,,,,,,,,,,,,,,,,,,,,,,55,WC_nonExtreme,resources/DY.BMP,3,0,3,0,1,,,,,,,,,,,,,,,,,,,,,,,,,
,,,,,,,,2023-08-16_08h29.33.631,HF_wild_card,2022.2.4,Win32,12.00768492,5693df018d93fe000dfa5733,64d2fd46c836a06233681665,64dc7a9bc17ffe2c217f3768,,,,,,,,,,,,,,,,,,,,,,,,,,,,,,,,30,Door1,resources/DG.BMP,4,0,4,0,1,,,,,,,,,,,,,,,,,,,,,,,,,
,,,,,,,,2023-08-16_08h29.33.631,HF_wild_card,2022.2.4,Win32,12.00768492,5693df018d93fe000dfa5733,64d2fd46c836a06233681665,64dc7a9bc17ffe2c217f3768,,,,,,,,,,,,,,,,,,,,,,,,,,,,,,,,70,Door3,resources/DB.BMP,5,0,5,0,1,,,,,,,,,,,,,,,,,,,,,,,,,
