Condition,Low fixed image (Door1),Low risky image (Door2),High fixed image (Door3),High risky image (Door4),Extreme Wild Card,NonExtreme Wild Card,,date,expName,psychopyVersion,OS,frameRate,PROLIFIC_PID,STUDY_ID,SESSION_ID,mouse_2.x,mouse_2.y,mouse_2.leftButton,mouse_2.midButton,mouse_2.rightButton,mouse_2.clicked_name,Trial Type,Left Option Image,Right Option Image,Chosen Door,mouse.x,mouse.y,mouse.leftButton,mouse.midButton,mouse.rightButton,mouse.time,mouse.clicked_name,Feedback,Cumulative Reward,Block,trial.thisRepN,trial.thisTrialN,trial.thisN,trial.thisIndex,trial.ran,blocks.thisRepN,blocks.thisTrialN,blocks.thisN,blocks.thisIndex,blocks.ran,Money conversion,First Outcome Reported,Shown Door (First Outcome),Displayed Image (First Outcome),outcomes.thisRepN,outcomes.thisTrialN,outcomes.thisN,outcomes.thisIndex,outcomes.ran,judgments.thisRepN,judgments.thisTrialN,judgments.thisN,judgments.thisIndex,judgments.ran,freqMouse.x,freqMouse.y,freqMouse.leftButton,freqMouse.midButton,freqMouse.rightButton,freqMouse.clicked_name,FQJ for first outcome,FQJ for second outcome,Shown Door,Displayed Image,trials.thisRepN,trials.thisTrialN,trials.thisN,trials.thisIndex,trials.ran,judgBlock.thisRepN,judgBlock.thisTrialN,judgBlock.thisN,judgBlock.thisIndex,judgBlock.ran
0,resources/DB.BMP,resources/DBN.BMP,resources/DG.BMP,resources/DY.BMP,resources/DR.BMP,resources/DP.BMP,,2023-08-06_08h29.55.696,HF_wild_card,2022.2.4,Win32,59.94844434,60a96f55b7ab20ce0ac1b365,64ce5acb97489d65b14ecc7a,64cf4be7f6db2acc19de6241,,,,,,,,,,,,,,,,,,,,,,,,,,,,,,,,,,,,,,,,,,,,,,,,,,,,,,,,,,,,,,,,
,,,,,,,,2023-08-06_08h29.55.696,HF_wild_card,2022.2.4,Win32,59.94844434,60a96f55b7ab20ce0ac1b365,64ce5acb97489d65b14ecc7a,64cf4be7f6db2acc19de6241,-0.002777778,-0.421296296,1,0,0,agree,,,,,,,,,,,,,,,,,,,,,,,,,,,,,,,,,,,,,,,,,,,,,,,,,,,,,,,,,,
,,,,,,,,2023-08-06_08h29.55.696,HF_wild_card,2022.2.4,Win32,59.94844434,60a96f55b7ab20ce0ac1b365,64ce5acb97489d65b14ecc7a,64cf4be7f6db2acc19de6241,,,,,,,,,,,,,,,,,,,,,,,,,,,,,,,,,,,,,,,,,,,,,,,,,,,,,,,,,,,,,,,,
,,,,,,,,2023-08-06_08h29.55.696,HF_wild_card,2022.2.4,Win32,59.94844434,60a96f55b7ab20ce0ac1b365,64ce5acb97489d65b14ecc7a,64cf4be7f6db2acc19de6241,,,,,,,decisionTrl,resources/DB.BMP,resources/DBN.BMP,Door2,0.283333333,-0.12962963,1,0,0,4.3208,optionRight,40,40,1,0,0,0,0,1,,,,,,,,,,,,,,,,,,,,,,,,,,,,,,,,,,,,,,,
,,,,,,,,2023-08-06_08h29.55.696,HF_wild_card,2022.2.4,Win32,59.94844434,60a96f55b7ab20ce0ac1b365,64ce5acb97489d65b14ecc7a,64cf4be7f6db2acc19de6241,,,,,,,decisionTrl,resources/DB.BMP,resources/DBN.BMP,Door2,0.332407407,-0.04537037,1,0,0,2.4853,optionRight,40,80,1,1,0,1,0,1,,,,,,,,,,,,,,,,,,,,,,,,,,,,,,,,,,,,,,,
,,,,,,,,2023-08-06_08h29.55.696,HF_wild_card,2022.2.4,Win32,59.94844434,60a96f55b7ab20ce0ac1b365,64ce5acb97489d65b14ecc7a,64cf4be7f6db2acc19de6241,,,,,,,sngl,resources/DR.BMP,resources/Empty.png,WildCard_Ex,-0.248148148,0.023148148,1,0,0,1.499,optionLeft,95,175,1,2,0,2,0,1,,,,,,,,,,,,,,,,,,,,,,,,,,,,,,,,,,,,,,,
,,,,,,,,2023-08-06_08h29.55.696,HF_wild_card,2022.2.4,Win32,59.94844434,60a96f55b7ab20ce0ac1b365,64ce5acb97489d65b14ecc7a,64cf4be7f6db2acc19de6241,,,,,,,sngl,resources/Empty.png,resources/DG.BMP,Door3,0.275925926,-0.037037037,1,0,0,0.7817,optionRight,70,245,1,3,0,3,0,1,,,,,,,,,,,,,,,,,,,,,,,,,,,,,,,,,,,,,,,
,,,,,,,,2023-08-06_08h29.55.696,HF_wild_card,2022.2.4,Win32,59.94844434,60a96f55b7ab20ce0ac1b365,64ce5acb97489d65b14ecc7a,64cf4be7f6db2acc19de6241,,,,,,,sngl,resources/Empty.png,resources/DY.BMP,Door4,0.483333333,-0.098148148,1,0,0,0.6008,optionRight,60,305,1,4,0,4,0,1,,,,,,,,,,,,,,,,,,,,,,,,,,,,,,,,,,,,,,,
,,,,,,,,2023-08-06_08h29.55.696,HF_wild_card,2022.2.4,Win32,59.94844434,60a96f55b7ab20ce0ac1b365,64ce5acb97489d65b14ecc7a,64cf4be7f6db2acc19de6241,,,,,,,decisionTrl,resources/DR.BMP,resources/DBN.BMP,Door2,0.218518519,0.002777778,1,0,0,0.8677,optionRight,40,345,1,5,0,5,0,1,,,,,,,,,,,,,,,,,,,,,,,,,,,,,,,,,,,,,,,
,,,,,,,,2023-08-06_08h29.55.696,HF_wild_card,2022.2.4,Win32,59.94844434,60a96f55b7ab20ce0ac1b365,64ce5acb97489d65b14ecc7a,64cf4be7f6db2acc19de6241,,,,,,,ctch,resources/DG.BMP,resources/DBN.BMP,Door2,0.250925926,-0.055555556,1,0,0,0.8659,optionRight,20,365,1,6,0,6,0,1,,,,,,,,,,,,,,,,,,,,,,,,,,,,,,,,,,,,,,,
,,,,,,,,2023-08-06_08h29.55.696,HF_wild_card,2022.2.4,Win32,59.94844434,60a96f55b7ab20ce0ac1b365,64ce5acb97489d65b14ecc7a,64cf4be7f6db2acc19de6241,,,,,,,decisionTrl,resources/DR.BMP,resources/DY.BMP,Door4,0.246296296,-0.007407407,1,0,0,0.9166,optionRight,60,425,1,7,0,7,0,1,,,,,,,,,,,,,,,,,,,,,,,,,,,,,,,,,,,,,,,
,,,,,,,,2023-08-06_08h29.55.696,HF_wild_card,2022.2.4,Win32,59.94844434,60a96f55b7ab20ce0ac1b365,64ce5acb97489d65b14ecc7a,64cf4be7f6db2acc19de6241,,,,,,,decisionTrl,resources/DY.BMP,resources/DG.BMP,Door4,-0.221296296,0.015740741,1,0,0,0.7845,optionLeft,80,505,1,8,0,8,0,1,,,,,,,,,,,,,,,,,,,,,,,,,,,,,,,,,,,,,,,
,,,,,,,,2023-08-06_08h29.55.696,HF_wild_card,2022.2.4,Win32,59.94844434,60a96f55b7ab20ce0ac1b365,64ce5acb97489d65b14ecc7a,64cf4be7f6db2acc19de6241,,,,,,,sngl,resources/Empty.png,resources/DR.BMP,WildCard_Ex,0.239814815,-0.007407407,1,0,0,0.733,optionRight,95,600,1,9,0,9,0,1,,,,,,,,,,,,,,,,,,,,,,,,,,,,,,,,,,,,,,,
,,,,,,,,2023-08-06_08h29.55.696,HF_wild_card,2022.2.4,Win32,59.94844434,60a96f55b7ab20ce0ac1b365,64ce5acb97489d65b14ecc7a,64cf4be7f6db2acc19de6241,,,,,,,decisionTrl,resources/DG.BMP,resources/DR.BMP,WildCard_Ex,0.25,-0.022222222,1,0,0,1.536,optionRight,5,605,1,10,0,10,0,1,,,,,,,,,,,,,,,,,,,,,,,,,,,,,,,,,,,,,,,
,,,,,,,,2023-08-06_08h29.55.696,HF_wild_card,2022.2.4,Win32,59.94844434,60a96f55b7ab20ce0ac1b365,64ce5acb97489d65b14ecc7a,64cf4be7f6db2acc19de6241,,,,,,,sngl,resources/DY.BMP,resources/Empty.png,Door4,-0.22962963,0.012037037,1,0,0,0.6488,optionLeft,80,685,1,11,0,11,0,1,,,,,,,,,,,,,,,,,,,,,,,,,,,,,,,,,,,,,,,
,,,,,,,,2023-08-06_08h29.55.696,HF_wild_card,2022.2.4,Win32,59.94844434,60a96f55b7ab20ce0ac1b365,64ce5acb97489d65b14ecc7a,64cf4be7f6db2acc19de6241,,,,,,,decisionTrl,resources/DR.BMP,resources/DB.BMP,WildCard_Ex,-0.185185185,0.011111111,1,0,0,0.6473,optionLeft,95,780,1,12,0,12,0,1,,,,,,,,,,,,,,,,,,,,,,,,,,,,,,,,,,,,,,,
,,,,,,,,2023-08-06_08h29.55.696,HF_wild_card,2022.2.4,Win32,59.94844434,60a96f55b7ab20ce0ac1b365,64ce5acb97489d65b14ecc7a,64cf4be7f6db2acc19de6241,,,,,,,decisionTrl,resources/DR.BMP,resources/DG.BMP,WildCard_Ex,-0.167592593,0.034259259,1,0,0,0.7681,optionLeft,95,875,1,13,0,13,0,1,,,,,,,,,,,,,,,,,,,,,,,,,,,,,,,,,,,,,,,
,,,,,,,,2023-08-06_08h29.55.696,HF_wild_card,2022.2.4,Win32,59.94844434,60a96f55b7ab20ce0ac1b365,64ce5acb97489d65b14ecc7a,64cf4be7f6db2acc19de6241,,,,,,,sngl,resources/Empty.png,resources/DBN.BMP,Door2,0.226851852,0.00462963,1,0,0,0.7008,optionRight,20,895,1,14,0,14,0,1,,,,,,,,,,,,,,,,,,,,,,,,,,,,,,,,,,,,,,,
,,,,,,,,2023-08-06_08h29.55.696,HF_wild_card,2022.2.4,Win32,59.94844434,60a96f55b7ab20ce0ac1b365,64ce5acb97489d65b14ecc7a,64cf4be7f6db2acc19de6241,,,,,,,decisionTrl,resources/DG.BMP,resources/DY.BMP,Door4,0.317592593,-0.036111111,1,0,0,0.8497,optionRight,60,955,1,15,0,15,0,1,,,,,,,,,,,,,,,,,,,,,,,,,,,,,,,,,,,,,,,
,,,,,,,,2023-08-06_08h29.55.696,HF_wild_card,2022.2.4,Win32,59.94844434,60a96f55b7ab20ce0ac1b365,64ce5acb97489d65b14ecc7a,64cf4be7f6db2acc19de6241,,,,,,,sngl,resources/DR.BMP,resources/Empty.png,WildCard_Ex,-0.225925926,0.017592593,1,0,0,0.5992,optionLeft,5,960,1,16,0,16,0,1,,,,,,,,,,,,,,,,,,,,,,,,,,,,,,,,,,,,,,,
,,,,,,,,2023-08-06_08h29.55.696,HF_wild_card,2022.2.4,Win32,59.94844434,60a96f55b7ab20ce0ac1b365,64ce5acb97489d65b14ecc7a,64cf4be7f6db2acc19de6241,,,,,,,decisionTrl,resources/DY.BMP,resources/DG.BMP,Door4,-0.207407407,0.024074074,1,0,0,0.7491,optionLeft,60,1020,1,17,0,17,0,1,,,,,,,,,,,,,,,,,,,,,,,,,,,,,,,,,,,,,,,
,,,,,,,,2023-08-06_08h29.55.696,HF_wild_card,2022.2.4,Win32,59.94844434,60a96f55b7ab20ce0ac1b365,64ce5acb97489d65b14ecc7a,64cf4be7f6db2acc19de6241,,,,,,,ctch,resources/DY.BMP,resources/DB.BMP,Door4,-0.166666667,0.012037037,1,0,0,0.5639,optionLeft,80,1100,1,18,0,18,0,1,,,,,,,,,,,,,,,,,,,,,,,,,,,,,,,,,,,,,,,
,,,,,,,,2023-08-06_08h29.55.696,HF_wild_card,2022.2.4,Win32,59.94844434,60a96f55b7ab20ce0ac1b365,64ce5acb97489d65b14ecc7a,64cf4be7f6db2acc19de6241,,,,,,,decisionTrl,resources/DB.BMP,resources/DBN.BMP,Door2,0.212962963,-0.011111111,1,0,0,0.8165,optionRight,40,1140,1,19,0,19,0,1,,,,,,,,,,,,,,,,,,,,,,,,,,,,,,,,,,,,,,,
,,,,,,,,2023-08-06_08h29.55.696,HF_wild_card,2022.2.4,Win32,59.94844434,60a96f55b7ab20ce0ac1b365,64ce5acb97489d65b14ecc7a,64cf4be7f6db2acc19de6241,,,,,,,sngl,resources/DBN.BMP,resources/Empty.png,Door2,-0.180555556,0.021296296,1,0,0,0.5642,optionLeft,40,1180,1,20,0,20,0,1,,,,,,,,,,,,,,,,,,,,,,,,,,,,,,,,,,,,,,,
,,,,,,,,2023-08-06_08h29.55.696,HF_wild_card,2022.2.4,Win32,59.94844434,60a96f55b7ab20ce0ac1b365,64ce5acb97489d65b14ecc7a,64cf4be7f6db2acc19de6241,,,,,,,ctch,resources/DBN.BMP,resources/DG.BMP,Door2,-0.19537037,0.025,1,0,0,0.6493,optionLeft,40,1220,1,21,0,21,0,1,,,,,,,,,,,,,,,,,,,,,,,,,,,,,,,,,,,,,,,
,,,,,,,,2023-08-06_08h29.55.696,HF_wild_card,2022.2.4,Win32,59.94844434,60a96f55b7ab20ce0ac1b365,64ce5acb97489d65b14ecc7a,64cf4be7f6db2acc19de6241,,,,,,,sngl,resources/DG.BMP,resources/Empty.png,Door3,-0.151851852,0.021296296,1,0,0,0.6185,optionLeft,70,1290,1,22,0,22,0,1,,,,,,,,,,,,,,,,,,,,,,,,,,,,,,,,,,,,,,,
,,,,,,,,2023-08-06_08h29.55.696,HF_wild_card,2022.2.4,Win32,59.94844434,60a96f55b7ab20ce0ac1b365,64ce5acb97489d65b14ecc7a,64cf4be7f6db2acc19de6241,,,,,,,ctch,resources/DG.BMP,resources/DBN.BMP,Door2,0.22037037,0,1,0,0,0.5339,optionRight,20,1310,1,23,0,23,0,1,,,,,,,,,,,,,,,,,,,,,,,,,,,,,,,,,,,,,,,
,,,,,,,,2023-08-06_08h29.55.696,HF_wild_card,2022.2.4,Win32,59.94844434,60a96f55b7ab20ce0ac1b365,64ce5acb97489d65b14ecc7a,64cf4be7f6db2acc19de6241,,,,,,,decisionTrl,resources/DG.BMP,resources/DY.BMP,Door4,0.223148148,-0.021296296,1,0,0,1.267,optionRight,60,1370,1,24,0,24,0,1,,,,,,,,,,,,,,,,,,,,,,,,,,,,,,,,,,,,,,,
,,,,,,,,2023-08-06_08h29.55.696,HF_wild_card,2022.2.4,Win32,59.94844434,60a96f55b7ab20ce0ac1b365,64ce5acb97489d65b14ecc7a,64cf4be7f6db2acc19de6241,,,,,,,sngl,resources/Empty.png,resources/DR.BMP,WildCard_Ex,0.24537037,-0.002777778,1,0,0,0.5823,optionRight,5,1375,1,25,0,25,0,1,,,,,,,,,,,,,,,,,,,,,,,,,,,,,,,,,,,,,,,
,,,,,,,,2023-08-06_08h29.55.696,HF_wild_card,2022.2.4,Win32,59.94844434,60a96f55b7ab20ce0ac1b365,64ce5acb97489d65b14ecc7a,64cf4be7f6db2acc19de6241,,,,,,,decisionTrl,resources/DBN.BMP,resources/DB.BMP,Door2,-0.143518519,0.02962963,1,0,0,0.848,optionLeft,20,1395,1,26,0,26,0,1,,,,,,,,,,,,,,,,,,,,,,,,,,,,,,,,,,,,,,,
,,,,,,,,2023-08-06_08h29.55.696,HF_wild_card,2022.2.4,Win32,59.94844434,60a96f55b7ab20ce0ac1b365,64ce5acb97489d65b14ecc7a,64cf4be7f6db2acc19de6241,,,,,,,decisionTrl,resources/DB.BMP,resources/DBN.BMP,Door2,0.275,-0.013888889,1,0,0,0.7824,optionRight,40,1435,1,27,0,27,0,1,,,,,,,,,,,,,,,,,,,,,,,,,,,,,,,,,,,,,,,
,,,,,,,,2023-08-06_08h29.55.696,HF_wild_card,2022.2.4,Win32,59.94844434,60a96f55b7ab20ce0ac1b365,64ce5acb97489d65b14ecc7a,64cf4be7f6db2acc19de6241,,,,,,,sngl,resources/Empty.png,resources/DB.BMP,Door1,0.294444444,0,1,0,0,0.583,optionRight,30,1465,1,28,0,28,0,1,,,,,,,,,,,,,,,,,,,,,,,,,,,,,,,,,,,,,,,
,,,,,,,,2023-08-06_08h29.55.696,HF_wild_card,2022.2.4,Win32,59.94844434,60a96f55b7ab20ce0ac1b365,64ce5acb97489d65b14ecc7a,64cf4be7f6db2acc19de6241,,,,,,,decisionTrl,resources/DB.BMP,resources/DR.BMP,WildCard_Ex,0.208333333,0.009259259,1,0,0,0.933,optionRight,5,1470,1,29,0,29,0,1,,,,,,,,,,,,,,,,,,,,,,,,,,,,,,,,,,,,,,,
,,,,,,,,2023-08-06_08h29.55.696,HF_wild_card,2022.2.4,Win32,59.94844434,60a96f55b7ab20ce0ac1b365,64ce5acb97489d65b14ecc7a,64cf4be7f6db2acc19de6241,,,,,,,decisionTrl,resources/DY.BMP,resources/DR.BMP,WildCard_Ex,0.190740741,0.007407407,1,0,0,0.5324,optionRight,5,1475,1,30,0,30,0,1,,,,,,,,,,,,,,,,,,,,,,,,,,,,,,,,,,,,,,,
,,,,,,,,2023-08-06_08h29.55.696,HF_wild_card,2022.2.4,Win32,59.94844434,60a96f55b7ab20ce0ac1b365,64ce5acb97489d65b14ecc7a,64cf4be7f6db2acc19de6241,,,,,,,ctch,resources/DY.BMP,resources/DB.BMP,Door4,-0.236111111,0.024074074,1,0,0,0.5476,optionLeft,80,1555,1,31,0,31,0,1,,,,,,,,,,,,,,,,,,,,,,,,,,,,,,,,,,,,,,,
,,,,,,,,2023-08-06_08h29.55.696,HF_wild_card,2022.2.4,Win32,59.94844434,60a96f55b7ab20ce0ac1b365,64ce5acb97489d65b14ecc7a,64cf4be7f6db2acc19de6241,,,,,,,decisionTrl,resources/DBN.BMP,resources/DR.BMP,Door2,-0.212962963,0.012962963,1,0,0,1.2503,optionLeft,20,1575,1,32,0,32,0,1,,,,,,,,,,,,,,,,,,,,,,,,,,,,,,,,,,,,,,,
,,,,,,,,2023-08-06_08h29.55.696,HF_wild_card,2022.2.4,Win32,59.94844434,60a96f55b7ab20ce0ac1b365,64ce5acb97489d65b14ecc7a,64cf4be7f6db2acc19de6241,,,,,,,decisionTrl,resources/DBN.BMP,resources/DB.BMP,Door2,-0.137962963,0.025,1,0,0,0.6501,optionLeft,40,1615,1,33,0,33,0,1,,,,,,,,,,,,,,,,,,,,,,,,,,,,,,,,,,,,,,,
,,,,,,,,2023-08-06_08h29.55.696,HF_wild_card,2022.2.4,Win32,59.94844434,60a96f55b7ab20ce0ac1b365,64ce5acb97489d65b14ecc7a,64cf4be7f6db2acc19de6241,,,,,,,decisionTrl,resources/DBN.BMP,resources/DB.BMP,Door2,-0.175,0.023148148,1,0,0,0.6834,optionLeft,40,1655,1,34,0,34,0,1,,,,,,,,,,,,,,,,,,,,,,,,,,,,,,,,,,,,,,,
,,,,,,,,2023-08-06_08h29.55.696,HF_wild_card,2022.2.4,Win32,59.94844434,60a96f55b7ab20ce0ac1b365,64ce5acb97489d65b14ecc7a,64cf4be7f6db2acc19de6241,,,,,,,decisionTrl,resources/DG.BMP,resources/DY.BMP,Door4,0.173148148,-0.006481481,1,0,0,1.5509,optionRight,80,1735,1,35,0,35,0,1,,,,,,,,,,,,,,,,,,,,,,,,,,,,,,,,,,,,,,,
,,,,,,,,2023-08-06_08h29.55.696,HF_wild_card,2022.2.4,Win32,59.94844434,60a96f55b7ab20ce0ac1b365,64ce5acb97489d65b14ecc7a,64cf4be7f6db2acc19de6241,,,,,,,decisionTrl,resources/DBN.BMP,resources/DB.BMP,Door2,-0.164814815,0.023148148,1,0,0,0.8808,optionLeft,40,1775,1,36,0,36,0,1,,,,,,,,,,,,,,,,,,,,,,,,,,,,,,,,,,,,,,,
,,,,,,,,2023-08-06_08h29.55.696,HF_wild_card,2022.2.4,Win32,59.94844434,60a96f55b7ab20ce0ac1b365,64ce5acb97489d65b14ecc7a,64cf4be7f6db2acc19de6241,,,,,,,ctch,resources/DBN.BMP,resources/DG.BMP,Door2,-0.203703704,0.032407407,1,0,0,1.2505,optionLeft,40,1815,1,37,0,37,0,1,,,,,,,,,,,,,,,,,,,,,,,,,,,,,,,,,,,,,,,
,,,,,,,,2023-08-06_08h29.55.696,HF_wild_card,2022.2.4,Win32,59.94844434,60a96f55b7ab20ce0ac1b365,64ce5acb97489d65b14ecc7a,64cf4be7f6db2acc19de6241,,,,,,,decisionTrl,resources/DG.BMP,resources/DY.BMP,Door4,0.207407407,-0.010185185,1,0,0,1.0194,optionRight,60,1875,1,38,0,38,0,1,,,,,,,,,,,,,,,,,,,,,,,,,,,,,,,,,,,,,,,
,,,,,,,,2023-08-06_08h29.55.696,HF_wild_card,2022.2.4,Win32,59.94844434,60a96f55b7ab20ce0ac1b365,64ce5acb97489d65b14ecc7a,64cf4be7f6db2acc19de6241,,,,,,,ctch,resources/DB.BMP,resources/DY.BMP,Door4,0.20462963,-0.007407407,1,0,0,0.5318,optionRight,60,1935,1,39,0,39,0,1,,,,,,,,,,,,,,,,,,,,,,,,,,,,,,,,,,,,,,,
,,,,,,,,2023-08-06_08h29.55.696,HF_wild_card,2022.2.4,Win32,59.94844434,60a96f55b7ab20ce0ac1b365,64ce5acb97489d65b14ecc7a,64cf4be7f6db2acc19de6241,,,,,,,decisionTrl,resources/DY.BMP,resources/DG.BMP,Door4,-0.147222222,0.027777778,1,0,0,0.5182,optionLeft,60,1995,1,40,0,40,0,1,,,,,,,,,,,,,,,,,,,,,,,,,,,,,,,,,,,,,,,
,,,,,,,,2023-08-06_08h29.55.696,HF_wild_card,2022.2.4,Win32,59.94844434,60a96f55b7ab20ce0ac1b365,64ce5acb97489d65b14ecc7a,64cf4be7f6db2acc19de6241,,,,,,,sngl,resources/DB.BMP,resources/Empty.png,Door1,-0.122222222,0.022222222,1,0,0,0.6493,optionLeft,30,2025,1,41,0,41,0,1,,,,,,,,,,,,,,,,,,,,,,,,,,,,,,,,,,,,,,,
,,,,,,,,2023-08-06_08h29.55.696,HF_wild_card,2022.2.4,Win32,59.94844434,60a96f55b7ab20ce0ac1b365,64ce5acb97489d65b14ecc7a,64cf4be7f6db2acc19de6241,,,,,,,decisionTrl,resources/DY.BMP,resources/DG.BMP,Door4,-0.131481481,0.014814815,1,0,0,0.7495,optionLeft,60,2085,1,42,0,42,0,1,,,,,,,,,,,,,,,,,,,,,,,,,,,,,,,,,,,,,,,
,,,,,,,,2023-08-06_08h29.55.696,HF_wild_card,2022.2.4,Win32,59.94844434,60a96f55b7ab20ce0ac1b365,64ce5acb97489d65b14ecc7a,64cf4be7f6db2acc19de6241,,,,,,,ctch,resources/DB.BMP,resources/DY.BMP,Door4,0.156481481,-0.001851852,1,0,0,0.5672,optionRight,80,2165,1,43,0,43,0,1,,,,,,,,,,,,,,,,,,,,,,,,,,,,,,,,,,,,,,,
,,,,,,,,2023-08-06_08h29.55.696,HF_wild_card,2022.2.4,Win32,59.94844434,60a96f55b7ab20ce0ac1b365,64ce5acb97489d65b14ecc7a,64cf4be7f6db2acc19de6241,,,,,,,,,,,,,,,,,,,,,,,,,,0,0,0,0,1,,,,,,,,,,,,,,,,,,,,,,,,,,,,,,,,,,
,,,,,,,,2023-08-06_08h29.55.696,HF_wild_card,2022.2.4,Win32,59.94844434,60a96f55b7ab20ce0ac1b365,64ce5acb97489d65b14ecc7a,64cf4be7f6db2acc19de6241,,,,,,,decisionTrl,resources/DBN.BMP,resources/DB.BMP,Door2,0.039814815,-0.225925926,1,0,0,1.1438,optionLeft,20,2185,2,0,0,0,0,1,,,,,,,,,,,,,,,,,,,,,,,,,,,,,,,,,,,,,,,
,,,,,,,,2023-08-06_08h29.55.696,HF_wild_card,2022.2.4,Win32,59.94844434,60a96f55b7ab20ce0ac1b365,64ce5acb97489d65b14ecc7a,64cf4be7f6db2acc19de6241,,,,,,,sngl,resources/DR.BMP,resources/Empty.png,WildCard_Ex,-0.224074074,0.001851852,1,0,0,0.615,optionLeft,95,2280,2,1,0,1,0,1,,,,,,,,,,,,,,,,,,,,,,,,,,,,,,,,,,,,,,,
,,,,,,,,2023-08-06_08h29.55.696,HF_wild_card,2022.2.4,Win32,59.94844434,60a96f55b7ab20ce0ac1b365,64ce5acb97489d65b14ecc7a,64cf4be7f6db2acc19de6241,,,,,,,decisionTrl,resources/DBN.BMP,resources/DB.BMP,Door2,-0.183333333,0.015740741,1,0,0,0.6015,optionLeft,20,2300,2,2,0,2,0,1,,,,,,,,,,,,,,,,,,,,,,,,,,,,,,,,,,,,,,,
,,,,,,,,2023-08-06_08h29.55.696,HF_wild_card,2022.2.4,Win32,59.94844434,60a96f55b7ab20ce0ac1b365,64ce5acb97489d65b14ecc7a,64cf4be7f6db2acc19de6241,,,,,,,decisionTrl,resources/DB.BMP,resources/DBN.BMP,Door2,0.387037037,-0.044444444,1,0,0,0.6018,optionRight,20,2320,2,3,0,3,0,1,,,,,,,,,,,,,,,,,,,,,,,,,,,,,,,,,,,,,,,
,,,,,,,,2023-08-06_08h29.55.696,HF_wild_card,2022.2.4,Win32,59.94844434,60a96f55b7ab20ce0ac1b365,64ce5acb97489d65b14ecc7a,64cf4be7f6db2acc19de6241,,,,,,,decisionTrl,resources/DY.BMP,resources/DG.BMP,Door4,-0.196296296,0.021296296,1,0,0,0.6803,optionLeft,60,2380,2,4,0,4,0,1,,,,,,,,,,,,,,,,,,,,,,,,,,,,,,,,,,,,,,,
,,,,,,,,2023-08-06_08h29.55.696,HF_wild_card,2022.2.4,Win32,59.94844434,60a96f55b7ab20ce0ac1b365,64ce5acb97489d65b14ecc7a,64cf4be7f6db2acc19de6241,,,,,,,decisionTrl,resources/DG.BMP,resources/DY.BMP,Door4,0.194444444,-0.011111111,1,0,0,0.6476,optionRight,80,2460,2,5,0,5,0,1,,,,,,,,,,,,,,,,,,,,,,,,,,,,,,,,,,,,,,,
,,,,,,,,2023-08-06_08h29.55.696,HF_wild_card,2022.2.4,Win32,59.94844434,60a96f55b7ab20ce0ac1b365,64ce5acb97489d65b14ecc7a,64cf4be7f6db2acc19de6241,,,,,,,sngl,resources/Empty.png,resources/DB.BMP,Door1,0.199074074,-0.014814815,1,0,0,0.5833,optionRight,30,2490,2,6,0,6,0,1,,,,,,,,,,,,,,,,,,,,,,,,,,,,,,,,,,,,,,,
,,,,,,,,2023-08-06_08h29.55.696,HF_wild_card,2022.2.4,Win32,59.94844434,60a96f55b7ab20ce0ac1b365,64ce5acb97489d65b14ecc7a,64cf4be7f6db2acc19de6241,,,,,,,decisionTrl,resources/DR.BMP,resources/DG.BMP,WildCard_Ex,-0.196296296,0.030555556,1,0,0,0.6829,optionLeft,95,2585,2,7,0,7,0,1,,,,,,,,,,,,,,,,,,,,,,,,,,,,,,,,,,,,,,,
,,,,,,,,2023-08-06_08h29.55.696,HF_wild_card,2022.2.4,Win32,59.94844434,60a96f55b7ab20ce0ac1b365,64ce5acb97489d65b14ecc7a,64cf4be7f6db2acc19de6241,,,,,,,ctch,resources/DG.BMP,resources/DBN.BMP,Door2,0.198148148,-0.015740741,1,0,0,0.8831,optionRight,20,2605,2,8,0,8,0,1,,,,,,,,,,,,,,,,,,,,,,,,,,,,,,,,,,,,,,,
,,,,,,,,2023-08-06_08h29.55.696,HF_wild_card,2022.2.4,Win32,59.94844434,60a96f55b7ab20ce0ac1b365,64ce5acb97489d65b14ecc7a,64cf4be7f6db2acc19de6241,,,,,,,ctch,resources/DY.BMP,resources/DB.BMP,Door4,-0.156481481,0,1,0,0,0.6659,optionLeft,60,2665,2,9,0,9,0,1,,,,,,,,,,,,,,,,,,,,,,,,,,,,,,,,,,,,,,,
,,,,,,,,2023-08-06_08h29.55.696,HF_wild_card,2022.2.4,Win32,59.94844434,60a96f55b7ab20ce0ac1b365,64ce5acb97489d65b14ecc7a,64cf4be7f6db2acc19de6241,,,,,,,sngl,resources/DY.BMP,resources/Empty.png,Door4,-0.162037037,0.022222222,1,0,0,0.6326,optionLeft,60,2725,2,10,0,10,0,1,,,,,,,,,,,,,,,,,,,,,,,,,,,,,,,,,,,,,,,
,,,,,,,,2023-08-06_08h29.55.696,HF_wild_card,2022.2.4,Win32,59.94844434,60a96f55b7ab20ce0ac1b365,64ce5acb97489d65b14ecc7a,64cf4be7f6db2acc19de6241,,,,,,,decisionTrl,resources/DR.BMP,resources/DBN.BMP,Door2,0.176851852,-0.006481481,1,0,0,0.783,optionRight,20,2745,2,11,0,11,0,1,,,,,,,,,,,,,,,,,,,,,,,,,,,,,,,,,,,,,,,
,,,,,,,,2023-08-06_08h29.55.696,HF_wild_card,2022.2.4,Win32,59.94844434,60a96f55b7ab20ce0ac1b365,64ce5acb97489d65b14ecc7a,64cf4be7f6db2acc19de6241,,,,,,,decisionTrl,resources/DB.BMP,resources/DBN.BMP,Door2,0.266666667,-0.021296296,1,0,0,0.6328,optionRight,20,2765,2,12,0,12,0,1,,,,,,,,,,,,,,,,,,,,,,,,,,,,,,,,,,,,,,,
,,,,,,,,2023-08-06_08h29.55.696,HF_wild_card,2022.2.4,Win32,59.94844434,60a96f55b7ab20ce0ac1b365,64ce5acb97489d65b14ecc7a,64cf4be7f6db2acc19de6241,,,,,,,sngl,resources/DG.BMP,resources/Empty.png,Door3,-0.196296296,0.025,1,0,0,0.5822,optionLeft,70,2835,2,13,0,13,0,1,,,,,,,,,,,,,,,,,,,,,,,,,,,,,,,,,,,,,,,
,,,,,,,,2023-08-06_08h29.55.696,HF_wild_card,2022.2.4,Win32,59.94844434,60a96f55b7ab20ce0ac1b365,64ce5acb97489d65b14ecc7a,64cf4be7f6db2acc19de6241,,,,,,,decisionTrl,resources/DG.BMP,resources/DR.BMP,Door3,-0.311111111,0.040740741,1,0,0,0.5511,optionLeft,70,2905,2,14,0,14,0,1,,,,,,,,,,,,,,,,,,,,,,,,,,,,,,,,,,,,,,,
,,,,,,,,2023-08-06_08h29.55.696,HF_wild_card,2022.2.4,Win32,59.94844434,60a96f55b7ab20ce0ac1b365,64ce5acb97489d65b14ecc7a,64cf4be7f6db2acc19de6241,,,,,,,sngl,resources/Empty.png,resources/DBN.BMP,Door2,0.218518519,-0.007407407,1,0,0,0.6145,optionRight,40,2945,2,15,0,15,0,1,,,,,,,,,,,,,,,,,,,,,,,,,,,,,,,,,,,,,,,
,,,,,,,,2023-08-06_08h29.55.696,HF_wild_card,2022.2.4,Win32,59.94844434,60a96f55b7ab20ce0ac1b365,64ce5acb97489d65b14ecc7a,64cf4be7f6db2acc19de6241,,,,,,,decisionTrl,resources/DG.BMP,resources/DY.BMP,Door4,0.140740741,0.003703704,1,0,0,1.1173,optionRight,80,3025,2,16,0,16,0,1,,,,,,,,,,,,,,,,,,,,,,,,,,,,,,,,,,,,,,,
,,,,,,,,2023-08-06_08h29.55.696,HF_wild_card,2022.2.4,Win32,59.94844434,60a96f55b7ab20ce0ac1b365,64ce5acb97489d65b14ecc7a,64cf4be7f6db2acc19de6241,,,,,,,decisionTrl,resources/DY.BMP,resources/DG.BMP,Door4,-0.158333333,0.013888889,1,0,0,0.4974,optionLeft,80,3105,2,17,0,17,0,1,,,,,,,,,,,,,,,,,,,,,,,,,,,,,,,,,,,,,,,
,,,,,,,,2023-08-06_08h29.55.696,HF_wild_card,2022.2.4,Win32,59.94844434,60a96f55b7ab20ce0ac1b365,64ce5acb97489d65b14ecc7a,64cf4be7f6db2acc19de6241,,,,,,,decisionTrl,resources/DBN.BMP,resources/DB.BMP,Door2,-0.139814815,0.025925926,1,0,0,1.0494,optionLeft,40,3145,2,18,0,18,0,1,,,,,,,,,,,,,,,,,,,,,,,,,,,,,,,,,,,,,,,
,,,,,,,,2023-08-06_08h29.55.696,HF_wild_card,2022.2.4,Win32,59.94844434,60a96f55b7ab20ce0ac1b365,64ce5acb97489d65b14ecc7a,64cf4be7f6db2acc19de6241,,,,,,,decisionTrl,resources/DBN.BMP,resources/DB.BMP,Door1,0.202777778,-0.014814815,1,0,0,0.5331,optionRight,30,3175,2,19,0,19,0,1,,,,,,,,,,,,,,,,,,,,,,,,,,,,,,,,,,,,,,,
,,,,,,,,2023-08-06_08h29.55.696,HF_wild_card,2022.2.4,Win32,59.94844434,60a96f55b7ab20ce0ac1b365,64ce5acb97489d65b14ecc7a,64cf4be7f6db2acc19de6241,,,,,,,sngl,resources/Empty.png,resources/DR.BMP,WildCard_Ex,0.209259259,-0.010185185,1,0,0,0.6848,optionRight,95,3270,2,20,0,20,0,1,,,,,,,,,,,,,,,,,,,,,,,,,,,,,,,,,,,,,,,
,,,,,,,,2023-08-06_08h29.55.696,HF_wild_card,2022.2.4,Win32,59.94844434,60a96f55b7ab20ce0ac1b365,64ce5acb97489d65b14ecc7a,64cf4be7f6db2acc19de6241,,,,,,,ctch,resources/DBN.BMP,resources/DG.BMP,Door2,-0.186111111,0.023148148,1,0,0,0.7517,optionLeft,20,3290,2,21,0,21,0,1,,,,,,,,,,,,,,,,,,,,,,,,,,,,,,,,,,,,,,,
,,,,,,,,2023-08-06_08h29.55.696,HF_wild_card,2022.2.4,Win32,59.94844434,60a96f55b7ab20ce0ac1b365,64ce5acb97489d65b14ecc7a,64cf4be7f6db2acc19de6241,,,,,,,decisionTrl,resources/DY.BMP,resources/DG.BMP,Door4,-0.187037037,0.028703704,1,0,0,0.6666,optionLeft,60,3350,2,22,0,22,0,1,,,,,,,,,,,,,,,,,,,,,,,,,,,,,,,,,,,,,,,
,,,,,,,,2023-08-06_08h29.55.696,HF_wild_card,2022.2.4,Win32,59.94844434,60a96f55b7ab20ce0ac1b365,64ce5acb97489d65b14ecc7a,64cf4be7f6db2acc19de6241,,,,,,,ctch,resources/DBN.BMP,resources/DG.BMP,Door2,-0.135185185,0.025925926,1,0,0,0.6641,optionLeft,40,3390,2,23,0,23,0,1,,,,,,,,,,,,,,,,,,,,,,,,,,,,,,,,,,,,,,,
,,,,,,,,2023-08-06_08h29.55.696,HF_wild_card,2022.2.4,Win32,59.94844434,60a96f55b7ab20ce0ac1b365,64ce5acb97489d65b14ecc7a,64cf4be7f6db2acc19de6241,,,,,,,decisionTrl,resources/DB.BMP,resources/DR.BMP,WildCard_Ex,0.189814815,-0.022222222,1,0,0,1.0163,optionRight,5,3395,2,24,0,24,0,1,,,,,,,,,,,,,,,,,,,,,,,,,,,,,,,,,,,,,,,
,,,,,,,,2023-08-06_08h29.55.696,HF_wild_card,2022.2.4,Win32,59.94844434,60a96f55b7ab20ce0ac1b365,64ce5acb97489d65b14ecc7a,64cf4be7f6db2acc19de6241,,,,,,,sngl,resources/Empty.png,resources/DG.BMP,Door3,0.213888889,-0.013888889,1,0,0,0.6323,optionRight,70,3465,2,25,0,25,0,1,,,,,,,,,,,,,,,,,,,,,,,,,,,,,,,,,,,,,,,
,,,,,,,,2023-08-06_08h29.55.696,HF_wild_card,2022.2.4,Win32,59.94844434,60a96f55b7ab20ce0ac1b365,64ce5acb97489d65b14ecc7a,64cf4be7f6db2acc19de6241,,,,,,,ctch,resources/DB.BMP,resources/DY.BMP,Door4,0.200925926,-0.006481481,1,0,0,0.7827,optionRight,60,3525,2,26,0,26,0,1,,,,,,,,,,,,,,,,,,,,,,,,,,,,,,,,,,,,,,,
,,,,,,,,2023-08-06_08h29.55.696,HF_wild_card,2022.2.4,Win32,59.94844434,60a96f55b7ab20ce0ac1b365,64ce5acb97489d65b14ecc7a,64cf4be7f6db2acc19de6241,,,,,,,sngl,resources/Empty.png,resources/DY.BMP,Door4,0.178703704,0,1,0,0,0.566,optionRight,80,3605,2,27,0,27,0,1,,,,,,,,,,,,,,,,,,,,,,,,,,,,,,,,,,,,,,,
,,,,,,,,2023-08-06_08h29.55.696,HF_wild_card,2022.2.4,Win32,59.94844434,60a96f55b7ab20ce0ac1b365,64ce5acb97489d65b14ecc7a,64cf4be7f6db2acc19de6241,,,,,,,decisionTrl,resources/DR.BMP,resources/DY.BMP,Door4,0.159259259,0.001851852,1,0,0,0.5821,optionRight,60,3665,2,28,0,28,0,1,,,,,,,,,,,,,,,,,,,,,,,,,,,,,,,,,,,,,,,
,,,,,,,,2023-08-06_08h29.55.696,HF_wild_card,2022.2.4,Win32,59.94844434,60a96f55b7ab20ce0ac1b365,64ce5acb97489d65b14ecc7a,64cf4be7f6db2acc19de6241,,,,,,,sngl,resources/DR.BMP,resources/Empty.png,WildCard_Ex,-0.151851852,0.026851852,1,0,0,0.6162,optionLeft,5,3670,2,29,0,29,0,1,,,,,,,,,,,,,,,,,,,,,,,,,,,,,,,,,,,,,,,
,,,,,,,,2023-08-06_08h29.55.696,HF_wild_card,2022.2.4,Win32,59.94844434,60a96f55b7ab20ce0ac1b365,64ce5acb97489d65b14ecc7a,64cf4be7f6db2acc19de6241,,,,,,,decisionTrl,resources/DR.BMP,resources/DB.BMP,WildCard_Ex,-0.183333333,0.025925926,1,0,0,0.4995,optionLeft,5,3675,2,30,0,30,0,1,,,,,,,,,,,,,,,,,,,,,,,,,,,,,,,,,,,,,,,
,,,,,,,,2023-08-06_08h29.55.696,HF_wild_card,2022.2.4,Win32,59.94844434,60a96f55b7ab20ce0ac1b365,64ce5acb97489d65b14ecc7a,64cf4be7f6db2acc19de6241,,,,,,,sngl,resources/Empty.png,resources/DR.BMP,WildCard_Ex,0.291666667,-0.035185185,1,0,0,0.5186,optionRight,5,3680,2,31,0,31,0,1,,,,,,,,,,,,,,,,,,,,,,,,,,,,,,,,,,,,,,,
,,,,,,,,2023-08-06_08h29.55.696,HF_wild_card,2022.2.4,Win32,59.94844434,60a96f55b7ab20ce0ac1b365,64ce5acb97489d65b14ecc7a,64cf4be7f6db2acc19de6241,,,,,,,sngl,resources/DBN.BMP,resources/Empty.png,Door2,-0.177777778,0.025,1,0,0,0.5653,optionLeft,20,3700,2,32,0,32,0,1,,,,,,,,,,,,,,,,,,,,,,,,,,,,,,,,,,,,,,,
,,,,,,,,2023-08-06_08h29.55.696,HF_wild_card,2022.2.4,Win32,59.94844434,60a96f55b7ab20ce0ac1b365,64ce5acb97489d65b14ecc7a,64cf4be7f6db2acc19de6241,,,,,,,decisionTrl,resources/DBN.BMP,resources/DR.BMP,Door2,-0.176851852,0.030555556,1,0,0,1.4667,optionLeft,20,3720,2,33,0,33,0,1,,,,,,,,,,,,,,,,,,,,,,,,,,,,,,,,,,,,,,,
,,,,,,,,2023-08-06_08h29.55.696,HF_wild_card,2022.2.4,Win32,59.94844434,60a96f55b7ab20ce0ac1b365,64ce5acb97489d65b14ecc7a,64cf4be7f6db2acc19de6241,,,,,,,decisionTrl,resources/DY.BMP,resources/DR.BMP,WildCard_Ex,0.177777778,0.001851852,1,0,0,0.5162,optionRight,95,3815,2,34,0,34,0,1,,,,,,,,,,,,,,,,,,,,,,,,,,,,,,,,,,,,,,,
,,,,,,,,2023-08-06_08h29.55.696,HF_wild_card,2022.2.4,Win32,59.94844434,60a96f55b7ab20ce0ac1b365,64ce5acb97489d65b14ecc7a,64cf4be7f6db2acc19de6241,,,,,,,ctch,resources/DY.BMP,resources/DB.BMP,Door4,-0.131481481,0.022222222,1,0,0,0.7666,optionLeft,60,3875,2,35,0,35,0,1,,,,,,,,,,,,,,,,,,,,,,,,,,,,,,,,,,,,,,,
,,,,,,,,2023-08-06_08h29.55.696,HF_wild_card,2022.2.4,Win32,59.94844434,60a96f55b7ab20ce0ac1b365,64ce5acb97489d65b14ecc7a,64cf4be7f6db2acc19de6241,,,,,,,decisionTrl,resources/DY.BMP,resources/DG.BMP,Door4,-0.160185185,0.030555556,1,0,0,0.5024,optionLeft,80,3955,2,36,0,36,0,1,,,,,,,,,,,,,,,,,,,,,,,,,,,,,,,,,,,,,,,
,,,,,,,,2023-08-06_08h29.55.696,HF_wild_card,2022.2.4,Win32,59.94844434,60a96f55b7ab20ce0ac1b365,64ce5acb97489d65b14ecc7a,64cf4be7f6db2acc19de6241,,,,,,,decisionTrl,resources/DG.BMP,resources/DY.BMP,Door4,0.301851852,-0.02037037,1,0,0,0.4519,optionRight,60,4015,2,37,0,37,0,1,,,,,,,,,,,,,,,,,,,,,,,,,,,,,,,,,,,,,,,
,,,,,,,,2023-08-06_08h29.55.696,HF_wild_card,2022.2.4,Win32,59.94844434,60a96f55b7ab20ce0ac1b365,64ce5acb97489d65b14ecc7a,64cf4be7f6db2acc19de6241,,,,,,,decisionTrl,resources/DB.BMP,resources/DBN.BMP,Door2,0.239814815,-0.014814815,1,0,0,0.7012,optionRight,40,4055,2,38,0,38,0,1,,,,,,,,,,,,,,,,,,,,,,,,,,,,,,,,,,,,,,,
,,,,,,,,2023-08-06_08h29.55.696,HF_wild_card,2022.2.4,Win32,59.94844434,60a96f55b7ab20ce0ac1b365,64ce5acb97489d65b14ecc7a,64cf4be7f6db2acc19de6241,,,,,,,ctch,resources/DB.BMP,resources/DY.BMP,Door1,-0.177777778,0.025,1,0,0,0.5658,optionLeft,30,4085,2,39,0,39,0,1,,,,,,,,,,,,,,,,,,,,,,,,,,,,,,,,,,,,,,,
,,,,,,,,2023-08-06_08h29.55.696,HF_wild_card,2022.2.4,Win32,59.94844434,60a96f55b7ab20ce0ac1b365,64ce5acb97489d65b14ecc7a,64cf4be7f6db2acc19de6241,,,,,,,decisionTrl,resources/DB.BMP,resources/DBN.BMP,Door1,-0.159259259,0.024074074,1,0,0,0.7351,optionLeft,30,4115,2,40,0,40,0,1,,,,,,,,,,,,,,,,,,,,,,,,,,,,,,,,,,,,,,,
,,,,,,,,2023-08-06_08h29.55.696,HF_wild_card,2022.2.4,Win32,59.94844434,60a96f55b7ab20ce0ac1b365,64ce5acb97489d65b14ecc7a,64cf4be7f6db2acc19de6241,,,,,,,sngl,resources/DB.BMP,resources/Empty.png,Door1,-0.147222222,0.02962963,1,0,0,0.6154,optionLeft,30,4145,2,41,0,41,0,1,,,,,,,,,,,,,,,,,,,,,,,,,,,,,,,,,,,,,,,
,,,,,,,,2023-08-06_08h29.55.696,HF_wild_card,2022.2.4,Win32,59.94844434,60a96f55b7ab20ce0ac1b365,64ce5acb97489d65b14ecc7a,64cf4be7f6db2acc19de6241,,,,,,,ctch,resources/DG.BMP,resources/DBN.BMP,Door2,0.199074074,0.014814815,1,0,0,0.5328,optionRight,20,4165,2,42,0,42,0,1,,,,,,,,,,,,,,,,,,,,,,,,,,,,,,,,,,,,,,,
,,,,,,,,2023-08-06_08h29.55.696,HF_wild_card,2022.2.4,Win32,59.94844434,60a96f55b7ab20ce0ac1b365,64ce5acb97489d65b14ecc7a,64cf4be7f6db2acc19de6241,,,,,,,decisionTrl,resources/DG.BMP,resources/DY.BMP,Door4,0.237962963,-0.006481481,1,0,0,0.7663,optionRight,80,4245,2,43,0,43,0,1,,,,,,,,,,,,,,,,,,,,,,,,,,,,,,,,,,,,,,,
,,,,,,,,2023-08-06_08h29.55.696,HF_wild_card,2022.2.4,Win32,59.94844434,60a96f55b7ab20ce0ac1b365,64ce5acb97489d65b14ecc7a,64cf4be7f6db2acc19de6241,,,,,,,,,,,,,,,,,,,,,,,,,,1,0,1,0,1,,,,,,,,,,,,,,,,,,,,,,,,,,,,,,,,,,
,,,,,,,,2023-08-06_08h29.55.696,HF_wild_card,2022.2.4,Win32,59.94844434,60a96f55b7ab20ce0ac1b365,64ce5acb97489d65b14ecc7a,64cf4be7f6db2acc19de6241,,,,,,,decisionTrl,resources/DG.BMP,resources/DY.BMP,Door4,0.211111111,-0.093518519,1,0,0,0.9015,optionRight,60,4305,3,0,0,0,0,1,,,,,,,,,,,,,,,,,,,,,,,,,,,,,,,,,,,,,,,
,,,,,,,,2023-08-06_08h29.55.696,HF_wild_card,2022.2.4,Win32,59.94844434,60a96f55b7ab20ce0ac1b365,64ce5acb97489d65b14ecc7a,64cf4be7f6db2acc19de6241,,,,,,,decisionTrl,resources/DG.BMP,resources/DY.BMP,Door4,0.126851852,0.019444444,1,0,0,0.6973,optionRight,60,4365,3,1,0,1,0,1,,,,,,,,,,,,,,,,,,,,,,,,,,,,,,,,,,,,,,,
,,,,,,,,2023-08-06_08h29.55.696,HF_wild_card,2022.2.4,Win32,59.94844434,60a96f55b7ab20ce0ac1b365,64ce5acb97489d65b14ecc7a,64cf4be7f6db2acc19de6241,,,,,,,ctch,resources/DBN.BMP,resources/DG.BMP,Door2,-0.227777778,0.025,1,0,0,0.6987,optionLeft,40,4405,3,2,0,2,0,1,,,,,,,,,,,,,,,,,,,,,,,,,,,,,,,,,,,,,,,
,,,,,,,,2023-08-06_08h29.55.696,HF_wild_card,2022.2.4,Win32,59.94844434,60a96f55b7ab20ce0ac1b365,64ce5acb97489d65b14ecc7a,64cf4be7f6db2acc19de6241,,,,,,,decisionTrl,resources/DG.BMP,resources/DY.BMP,Door4,0.22962963,-0.012037037,1,0,0,0.4952,optionRight,60,4465,3,3,0,3,0,1,,,,,,,,,,,,,,,,,,,,,,,,,,,,,,,,,,,,,,,
,,,,,,,,2023-08-06_08h29.55.696,HF_wild_card,2022.2.4,Win32,59.94844434,60a96f55b7ab20ce0ac1b365,64ce5acb97489d65b14ecc7a,64cf4be7f6db2acc19de6241,,,,,,,decisionTrl,resources/DR.BMP,resources/DBN.BMP,Door2,0.191666667,-0.000925926,1,0,0,0.9998,optionRight,20,4485,3,4,0,4,0,1,,,,,,,,,,,,,,,,,,,,,,,,,,,,,,,,,,,,,,,
,,,,,,,,2023-08-06_08h29.55.696,HF_wild_card,2022.2.4,Win32,59.94844434,60a96f55b7ab20ce0ac1b365,64ce5acb97489d65b14ecc7a,64cf4be7f6db2acc19de6241,,,,,,,decisionTrl,resources/DBN.BMP,resources/DR.BMP,WildCard_Ex,0.192592593,-0.003703704,1,0,0,0.6827,optionRight,5,4490,3,5,0,5,0,1,,,,,,,,,,,,,,,,,,,,,,,,,,,,,,,,,,,,,,,
,,,,,,,,2023-08-06_08h29.55.696,HF_wild_card,2022.2.4,Win32,59.94844434,60a96f55b7ab20ce0ac1b365,64ce5acb97489d65b14ecc7a,64cf4be7f6db2acc19de6241,,,,,,,ctch,resources/DB.BMP,resources/DY.BMP,Door4,0.2,0,1,0,0,0.7825,optionRight,60,4550,3,6,0,6,0,1,,,,,,,,,,,,,,,,,,,,,,,,,,,,,,,,,,,,,,,
,,,,,,,,2023-08-06_08h29.55.696,HF_wild_card,2022.2.4,Win32,59.94844434,60a96f55b7ab20ce0ac1b365,64ce5acb97489d65b14ecc7a,64cf4be7f6db2acc19de6241,,,,,,,sngl,resources/DG.BMP,resources/Empty.png,Door3,-0.153703704,0.011111111,1,0,0,0.5998,optionLeft,70,4620,3,7,0,7,0,1,,,,,,,,,,,,,,,,,,,,,,,,,,,,,,,,,,,,,,,
,,,,,,,,2023-08-06_08h29.55.696,HF_wild_card,2022.2.4,Win32,59.94844434,60a96f55b7ab20ce0ac1b365,64ce5acb97489d65b14ecc7a,64cf4be7f6db2acc19de6241,,,,,,,sngl,resources/DR.BMP,resources/Empty.png,WildCard_Ex,-0.15,0.010185185,1,0,0,0.6822,optionLeft,5,4625,3,8,0,8,0,1,,,,,,,,,,,,,,,,,,,,,,,,,,,,,,,,,,,,,,,
,,,,,,,,2023-08-06_08h29.55.696,HF_wild_card,2022.2.4,Win32,59.94844434,60a96f55b7ab20ce0ac1b365,64ce5acb97489d65b14ecc7a,64cf4be7f6db2acc19de6241,,,,,,,decisionTrl,resources/DBN.BMP,resources/DB.BMP,Door1,0.300925926,-0.016666667,1,0,0,1.9143,optionRight,30,4655,3,9,0,9,0,1,,,,,,,,,,,,,,,,,,,,,,,,,,,,,,,,,,,,,,,
,,,,,,,,2023-08-06_08h29.55.696,HF_wild_card,2022.2.4,Win32,59.94844434,60a96f55b7ab20ce0ac1b365,64ce5acb97489d65b14ecc7a,64cf4be7f6db2acc19de6241,,,,,,,decisionTrl,resources/DY.BMP,resources/DG.BMP,Door4,-0.173148148,0.008333333,1,0,0,0.8321,optionLeft,60,4715,3,10,0,10,0,1,,,,,,,,,,,,,,,,,,,,,,,,,,,,,,,,,,,,,,,
,,,,,,,,2023-08-06_08h29.55.696,HF_wild_card,2022.2.4,Win32,59.94844434,60a96f55b7ab20ce0ac1b365,64ce5acb97489d65b14ecc7a,64cf4be7f6db2acc19de6241,,,,,,,sngl,resources/DBN.BMP,resources/Empty.png,Door2,-0.17037037,0.013888889,1,0,0,0.6639,optionLeft,40,4755,3,11,0,11,0,1,,,,,,,,,,,,,,,,,,,,,,,,,,,,,,,,,,,,,,,
,,,,,,,,2023-08-06_08h29.55.696,HF_wild_card,2022.2.4,Win32,59.94844434,60a96f55b7ab20ce0ac1b365,64ce5acb97489d65b14ecc7a,64cf4be7f6db2acc19de6241,,,,,,,decisionTrl,resources/DR.BMP,resources/DG.BMP,Door3,0.291666667,-0.006481481,1,0,0,0.5992,optionRight,70,4825,3,12,0,12,0,1,,,,,,,,,,,,,,,,,,,,,,,,,,,,,,,,,,,,,,,
,,,,,,,,2023-08-06_08h29.55.696,HF_wild_card,2022.2.4,Win32,59.94844434,60a96f55b7ab20ce0ac1b365,64ce5acb97489d65b14ecc7a,64cf4be7f6db2acc19de6241,,,,,,,sngl,resources/Empty.png,resources/DG.BMP,Door3,0.224074074,0,1,0,0,0.5342,optionRight,70,4895,3,13,0,13,0,1,,,,,,,,,,,,,,,,,,,,,,,,,,,,,,,,,,,,,,,
,,,,,,,,2023-08-06_08h29.55.696,HF_wild_card,2022.2.4,Win32,59.94844434,60a96f55b7ab20ce0ac1b365,64ce5acb97489d65b14ecc7a,64cf4be7f6db2acc19de6241,,,,,,,decisionTrl,resources/DG.BMP,resources/DR.BMP,Door3,-0.177777778,0.009259259,1,0,0,0.5994,optionLeft,70,4965,3,14,0,14,0,1,,,,,,,,,,,,,,,,,,,,,,,,,,,,,,,,,,,,,,,
,,,,,,,,2023-08-06_08h29.55.696,HF_wild_card,2022.2.4,Win32,59.94844434,60a96f55b7ab20ce0ac1b365,64ce5acb97489d65b14ecc7a,64cf4be7f6db2acc19de6241,,,,,,,decisionTrl,resources/DR.BMP,resources/DB.BMP,WildCard_Ex,-0.15,0.013888889,1,0,0,1.2656,optionLeft,95,5060,3,15,0,15,0,1,,,,,,,,,,,,,,,,,,,,,,,,,,,,,,,,,,,,,,,
,,,,,,,,2023-08-06_08h29.55.696,HF_wild_card,2022.2.4,Win32,59.94844434,60a96f55b7ab20ce0ac1b365,64ce5acb97489d65b14ecc7a,64cf4be7f6db2acc19de6241,,,,,,,ctch,resources/DY.BMP,resources/DB.BMP,Door4,-0.173148148,0.010185185,1,0,0,1.0829,optionLeft,60,5120,3,16,0,16,0,1,,,,,,,,,,,,,,,,,,,,,,,,,,,,,,,,,,,,,,,
,,,,,,,,2023-08-06_08h29.55.696,HF_wild_card,2022.2.4,Win32,59.94844434,60a96f55b7ab20ce0ac1b365,64ce5acb97489d65b14ecc7a,64cf4be7f6db2acc19de6241,,,,,,,ctch,resources/DG.BMP,resources/DBN.BMP,Door3,-0.152777778,0.009259259,1,0,0,1.033,optionLeft,70,5190,3,17,0,17,0,1,,,,,,,,,,,,,,,,,,,,,,,,,,,,,,,,,,,,,,,
,,,,,,,,2023-08-06_08h29.55.696,HF_wild_card,2022.2.4,Win32,59.94844434,60a96f55b7ab20ce0ac1b365,64ce5acb97489d65b14ecc7a,64cf4be7f6db2acc19de6241,,,,,,,decisionTrl,resources/DBN.BMP,resources/DB.BMP,Door1,0.198148148,0.008333333,1,0,0,1.2186,optionRight,30,5220,3,18,0,18,0,1,,,,,,,,,,,,,,,,,,,,,,,,,,,,,,,,,,,,,,,
,,,,,,,,2023-08-06_08h29.55.696,HF_wild_card,2022.2.4,Win32,59.94844434,60a96f55b7ab20ce0ac1b365,64ce5acb97489d65b14ecc7a,64cf4be7f6db2acc19de6241,,,,,,,decisionTrl,resources/DB.BMP,resources/DR.BMP,WildCard_Ex,0.255555556,0.015740741,1,0,0,0.7328,optionRight,95,5315,3,19,0,19,0,1,,,,,,,,,,,,,,,,,,,,,,,,,,,,,,,,,,,,,,,
,,,,,,,,2023-08-06_08h29.55.696,HF_wild_card,2022.2.4,Win32,59.94844434,60a96f55b7ab20ce0ac1b365,64ce5acb97489d65b14ecc7a,64cf4be7f6db2acc19de6241,,,,,,,decisionTrl,resources/DBN.BMP,resources/DB.BMP,Door1,0.209259259,0.000925926,1,0,0,0.7991,optionRight,30,5345,3,20,0,20,0,1,,,,,,,,,,,,,,,,,,,,,,,,,,,,,,,,,,,,,,,
,,,,,,,,2023-08-06_08h29.55.696,HF_wild_card,2022.2.4,Win32,59.94844434,60a96f55b7ab20ce0ac1b365,64ce5acb97489d65b14ecc7a,64cf4be7f6db2acc19de6241,,,,,,,ctch,resources/DY.BMP,resources/DB.BMP,Door4,-0.163888889,0.016666667,1,0,0,0.6843,optionLeft,60,5405,3,21,0,21,0,1,,,,,,,,,,,,,,,,,,,,,,,,,,,,,,,,,,,,,,,
,,,,,,,,2023-08-06_08h29.55.696,HF_wild_card,2022.2.4,Win32,59.94844434,60a96f55b7ab20ce0ac1b365,64ce5acb97489d65b14ecc7a,64cf4be7f6db2acc19de6241,,,,,,,decisionTrl,resources/DY.BMP,resources/DG.BMP,Door4,-0.12962963,0.02037037,1,0,0,0.5974,optionLeft,80,5485,3,22,0,22,0,1,,,,,,,,,,,,,,,,,,,,,,,,,,,,,,,,,,,,,,,
,,,,,,,,2023-08-06_08h29.55.696,HF_wild_card,2022.2.4,Win32,59.94844434,60a96f55b7ab20ce0ac1b365,64ce5acb97489d65b14ecc7a,64cf4be7f6db2acc19de6241,,,,,,,decisionTrl,resources/DB.BMP,resources/DBN.BMP,Door1,-0.138888889,0.016666667,1,0,0,0.9831,optionLeft,30,5515,3,23,0,23,0,1,,,,,,,,,,,,,,,,,,,,,,,,,,,,,,,,,,,,,,,
,,,,,,,,2023-08-06_08h29.55.696,HF_wild_card,2022.2.4,Win32,59.94844434,60a96f55b7ab20ce0ac1b365,64ce5acb97489d65b14ecc7a,64cf4be7f6db2acc19de6241,,,,,,,sngl,resources/Empty.png,resources/DB.BMP,Door1,0.3,0,1,0,0,0.5491,optionRight,30,5545,3,24,0,24,0,1,,,,,,,,,,,,,,,,,,,,,,,,,,,,,,,,,,,,,,,
,,,,,,,,2023-08-06_08h29.55.696,HF_wild_card,2022.2.4,Win32,59.94844434,60a96f55b7ab20ce0ac1b365,64ce5acb97489d65b14ecc7a,64cf4be7f6db2acc19de6241,,,,,,,decisionTrl,resources/DY.BMP,resources/DR.BMP,WildCard_Ex,0.25,-0.008333333,1,0,0,0.6998,optionRight,95,5640,3,25,0,25,0,1,,,,,,,,,,,,,,,,,,,,,,,,,,,,,,,,,,,,,,,
,,,,,,,,2023-08-06_08h29.55.696,HF_wild_card,2022.2.4,Win32,59.94844434,60a96f55b7ab20ce0ac1b365,64ce5acb97489d65b14ecc7a,64cf4be7f6db2acc19de6241,,,,,,,sngl,resources/Empty.png,resources/DR.BMP,WildCard_Ex,0.265740741,-0.005555556,1,0,0,0.4997,optionRight,95,5735,3,26,0,26,0,1,,,,,,,,,,,,,,,,,,,,,,,,,,,,,,,,,,,,,,,
,,,,,,,,2023-08-06_08h29.55.696,HF_wild_card,2022.2.4,Win32,59.94844434,60a96f55b7ab20ce0ac1b365,64ce5acb97489d65b14ecc7a,64cf4be7f6db2acc19de6241,,,,,,,ctch,resources/DB.BMP,resources/DY.BMP,Door4,0.219444444,0.00462963,1,0,0,0.735,optionRight,80,5815,3,27,0,27,0,1,,,,,,,,,,,,,,,,,,,,,,,,,,,,,,,,,,,,,,,
,,,,,,,,2023-08-06_08h29.55.696,HF_wild_card,2022.2.4,Win32,59.94844434,60a96f55b7ab20ce0ac1b365,64ce5acb97489d65b14ecc7a,64cf4be7f6db2acc19de6241,,,,,,,sngl,resources/Empty.png,resources/DR.BMP,WildCard_Ex,0.184259259,0.013888889,1,0,0,0.5659,optionRight,5,5820,3,28,0,28,0,1,,,,,,,,,,,,,,,,,,,,,,,,,,,,,,,,,,,,,,,
,,,,,,,,2023-08-06_08h29.55.696,HF_wild_card,2022.2.4,Win32,59.94844434,60a96f55b7ab20ce0ac1b365,64ce5acb97489d65b14ecc7a,64cf4be7f6db2acc19de6241,,,,,,,sngl,resources/Empty.png,resources/DBN.BMP,Door2,0.281481481,0.006481481,1,0,0,0.5668,optionRight,20,5840,3,29,0,29,0,1,,,,,,,,,,,,,,,,,,,,,,,,,,,,,,,,,,,,,,,
,,,,,,,,2023-08-06_08h29.55.696,HF_wild_card,2022.2.4,Win32,59.94844434,60a96f55b7ab20ce0ac1b365,64ce5acb97489d65b14ecc7a,64cf4be7f6db2acc19de6241,,,,,,,decisionTrl,resources/DB.BMP,resources/DBN.BMP,Door2,0.274074074,0.002777778,1,0,0,0.6348,optionRight,40,5880,3,30,0,30,0,1,,,,,,,,,,,,,,,,,,,,,,,,,,,,,,,,,,,,,,,
,,,,,,,,2023-08-06_08h29.55.696,HF_wild_card,2022.2.4,Win32,59.94844434,60a96f55b7ab20ce0ac1b365,64ce5acb97489d65b14ecc7a,64cf4be7f6db2acc19de6241,,,,,,,sngl,resources/DY.BMP,resources/Empty.png,Door4,-0.174074074,0.019444444,1,0,0,0.5637,optionLeft,80,5960,3,31,0,31,0,1,,,,,,,,,,,,,,,,,,,,,,,,,,,,,,,,,,,,,,,
,,,,,,,,2023-08-06_08h29.55.696,HF_wild_card,2022.2.4,Win32,59.94844434,60a96f55b7ab20ce0ac1b365,64ce5acb97489d65b14ecc7a,64cf4be7f6db2acc19de6241,,,,,,,sngl,resources/DR.BMP,resources/Empty.png,WildCard_Ex,-0.167592593,0.02037037,1,0,0,0.5995,optionLeft,95,6055,3,32,0,32,0,1,,,,,,,,,,,,,,,,,,,,,,,,,,,,,,,,,,,,,,,
,,,,,,,,2023-08-06_08h29.55.696,HF_wild_card,2022.2.4,Win32,59.94844434,60a96f55b7ab20ce0ac1b365,64ce5acb97489d65b14ecc7a,64cf4be7f6db2acc19de6241,,,,,,,sngl,resources/DB.BMP,resources/Empty.png,Door1,-0.162962963,0.021296296,1,0,0,0.5637,optionLeft,30,6085,3,33,0,33,0,1,,,,,,,,,,,,,,,,,,,,,,,,,,,,,,,,,,,,,,,
,,,,,,,,2023-08-06_08h29.55.696,HF_wild_card,2022.2.4,Win32,59.94844434,60a96f55b7ab20ce0ac1b365,64ce5acb97489d65b14ecc7a,64cf4be7f6db2acc19de6241,,,,,,,decisionTrl,resources/DR.BMP,resources/DY.BMP,WildCard_Ex,-0.188888889,0.018518519,1,0,0,0.6153,optionLeft,95,6180,3,34,0,34,0,1,,,,,,,,,,,,,,,,,,,,,,,,,,,,,,,,,,,,,,,
,,,,,,,,2023-08-06_08h29.55.696,HF_wild_card,2022.2.4,Win32,59.94844434,60a96f55b7ab20ce0ac1b365,64ce5acb97489d65b14ecc7a,64cf4be7f6db2acc19de6241,,,,,,,decisionTrl,resources/DB.BMP,resources/DBN.BMP,Door1,-0.188888889,0.026851852,1,0,0,0.9508,optionLeft,30,6210,3,35,0,35,0,1,,,,,,,,,,,,,,,,,,,,,,,,,,,,,,,,,,,,,,,
,,,,,,,,2023-08-06_08h29.55.696,HF_wild_card,2022.2.4,Win32,59.94844434,60a96f55b7ab20ce0ac1b365,64ce5acb97489d65b14ecc7a,64cf4be7f6db2acc19de6241,,,,,,,sngl,resources/Empty.png,resources/DY.BMP,Door4,0.206481481,0,1,0,0,0.4827,optionRight,60,6270,3,36,0,36,0,1,,,,,,,,,,,,,,,,,,,,,,,,,,,,,,,,,,,,,,,
,,,,,,,,2023-08-06_08h29.55.696,HF_wild_card,2022.2.4,Win32,59.94844434,60a96f55b7ab20ce0ac1b365,64ce5acb97489d65b14ecc7a,64cf4be7f6db2acc19de6241,,,,,,,decisionTrl,resources/DY.BMP,resources/DG.BMP,Door4,-0.188888889,0.017592593,1,0,0,0.5496,optionLeft,80,6350,3,37,0,37,0,1,,,,,,,,,,,,,,,,,,,,,,,,,,,,,,,,,,,,,,,
,,,,,,,,2023-08-06_08h29.55.696,HF_wild_card,2022.2.4,Win32,59.94844434,60a96f55b7ab20ce0ac1b365,64ce5acb97489d65b14ecc7a,64cf4be7f6db2acc19de6241,,,,,,,decisionTrl,resources/DG.BMP,resources/DY.BMP,Door4,0.277777778,-0.009259259,1,0,0,0.4353,optionRight,60,6410,3,38,0,38,0,1,,,,,,,,,,,,,,,,,,,,,,,,,,,,,,,,,,,,,,,
,,,,,,,,2023-08-06_08h29.55.696,HF_wild_card,2022.2.4,Win32,59.94844434,60a96f55b7ab20ce0ac1b365,64ce5acb97489d65b14ecc7a,64cf4be7f6db2acc19de6241,,,,,,,ctch,resources/DBN.BMP,resources/DG.BMP,Door3,0.217592593,-0.007407407,1,0,0,0.8996,optionRight,70,6480,3,39,0,39,0,1,,,,,,,,,,,,,,,,,,,,,,,,,,,,,,,,,,,,,,,
,,,,,,,,2023-08-06_08h29.55.696,HF_wild_card,2022.2.4,Win32,59.94844434,60a96f55b7ab20ce0ac1b365,64ce5acb97489d65b14ecc7a,64cf4be7f6db2acc19de6241,,,,,,,decisionTrl,resources/DB.BMP,resources/DBN.BMP,Door1,-0.139814815,0.008333333,1,0,0,1.0672,optionLeft,30,6510,3,40,0,40,0,1,,,,,,,,,,,,,,,,,,,,,,,,,,,,,,,,,,,,,,,
,,,,,,,,2023-08-06_08h29.55.696,HF_wild_card,2022.2.4,Win32,59.94844434,60a96f55b7ab20ce0ac1b365,64ce5acb97489d65b14ecc7a,64cf4be7f6db2acc19de6241,,,,,,,decisionTrl,resources/DBN.BMP,resources/DB.BMP,Door1,0.206481481,0.007407407,1,0,0,0.8312,optionRight,30,6540,3,41,0,41,0,1,,,,,,,,,,,,,,,,,,,,,,,,,,,,,,,,,,,,,,,
,,,,,,,,2023-08-06_08h29.55.696,HF_wild_card,2022.2.4,Win32,59.94844434,60a96f55b7ab20ce0ac1b365,64ce5acb97489d65b14ecc7a,64cf4be7f6db2acc19de6241,,,,,,,decisionTrl,resources/DY.BMP,resources/DG.BMP,Door4,-0.157407407,0.017592593,1,0,0,1.0161,optionLeft,60,6600,3,42,0,42,0,1,,,,,,,,,,,,,,,,,,,,,,,,,,,,,,,,,,,,,,,
,,,,,,,,2023-08-06_08h29.55.696,HF_wild_card,2022.2.4,Win32,59.94844434,60a96f55b7ab20ce0ac1b365,64ce5acb97489d65b14ecc7a,64cf4be7f6db2acc19de6241,,,,,,,ctch,resources/DG.BMP,resources/DBN.BMP,Door3,-0.164814815,0.017592593,1,0,0,0.6521,optionLeft,70,6670,3,43,0,43,0,1,,,,,,,,,,,,,,,,,,,,,,,,,,,,,,,,,,,,,,,
,,,,,,,,2023-08-06_08h29.55.696,HF_wild_card,2022.2.4,Win32,59.94844434,60a96f55b7ab20ce0ac1b365,64ce5acb97489d65b14ecc7a,64cf4be7f6db2acc19de6241,,,,,,,,,,,,,,,,,,,,,,,,,,2,0,2,0,1,,,,,,,,,,,,,,,,,,,,,,,,,,,,,,,,,,
,,,,,,,,2023-08-06_08h29.55.696,HF_wild_card,2022.2.4,Win32,59.94844434,60a96f55b7ab20ce0ac1b365,64ce5acb97489d65b14ecc7a,64cf4be7f6db2acc19de6241,,,,,,,sngl,resources/DG.BMP,resources/Empty.png,Door3,-0.137037037,-0.114814815,1,0,0,0.8299,optionLeft,70,6740,4,0,0,0,0,1,,,,,,,,,,,,,,,,,,,,,,,,,,,,,,,,,,,,,,,
,,,,,,,,2023-08-06_08h29.55.696,HF_wild_card,2022.2.4,Win32,59.94844434,60a96f55b7ab20ce0ac1b365,64ce5acb97489d65b14ecc7a,64cf4be7f6db2acc19de6241,,,,,,,decisionTrl,resources/DG.BMP,resources/DY.BMP,Door4,0.269444444,-0.009259259,1,0,0,0.7323,optionRight,80,6820,4,1,0,1,0,1,,,,,,,,,,,,,,,,,,,,,,,,,,,,,,,,,,,,,,,
,,,,,,,,2023-08-06_08h29.55.696,HF_wild_card,2022.2.4,Win32,59.94844434,60a96f55b7ab20ce0ac1b365,64ce5acb97489d65b14ecc7a,64cf4be7f6db2acc19de6241,,,,,,,sngl,resources/DY.BMP,resources/Empty.png,Door4,-0.232407407,0.041666667,1,0,0,0.4466,optionLeft,60,6880,4,2,0,2,0,1,,,,,,,,,,,,,,,,,,,,,,,,,,,,,,,,,,,,,,,
,,,,,,,,2023-08-06_08h29.55.696,HF_wild_card,2022.2.4,Win32,59.94844434,60a96f55b7ab20ce0ac1b365,64ce5acb97489d65b14ecc7a,64cf4be7f6db2acc19de6241,,,,,,,ctch,resources/DG.BMP,resources/DBN.BMP,Door3,-0.198148148,0.02962963,1,0,0,0.5835,optionLeft,70,6950,4,3,0,3,0,1,,,,,,,,,,,,,,,,,,,,,,,,,,,,,,,,,,,,,,,
,,,,,,,,2023-08-06_08h29.55.696,HF_wild_card,2022.2.4,Win32,59.94844434,60a96f55b7ab20ce0ac1b365,64ce5acb97489d65b14ecc7a,64cf4be7f6db2acc19de6241,,,,,,,ctch,resources/DY.BMP,resources/DB.BMP,Door4,-0.160185185,0.015740741,1,0,0,0.718,optionLeft,60,7010,4,4,0,4,0,1,,,,,,,,,,,,,,,,,,,,,,,,,,,,,,,,,,,,,,,
,,,,,,,,2023-08-06_08h29.55.696,HF_wild_card,2022.2.4,Win32,59.94844434,60a96f55b7ab20ce0ac1b365,64ce5acb97489d65b14ecc7a,64cf4be7f6db2acc19de6241,,,,,,,ctch,resources/DB.BMP,resources/DY.BMP,Door1,-0.166666667,0.012962963,1,0,0,0.5346,optionLeft,30,7040,4,5,0,5,0,1,,,,,,,,,,,,,,,,,,,,,,,,,,,,,,,,,,,,,,,
,,,,,,,,2023-08-06_08h29.55.696,HF_wild_card,2022.2.4,Win32,59.94844434,60a96f55b7ab20ce0ac1b365,64ce5acb97489d65b14ecc7a,64cf4be7f6db2acc19de6241,,,,,,,decisionTrl,resources/DBN.BMP,resources/DB.BMP,Door1,0.240740741,-0.017592593,1,0,0,0.7666,optionRight,30,7070,4,6,0,6,0,1,,,,,,,,,,,,,,,,,,,,,,,,,,,,,,,,,,,,,,,
,,,,,,,,2023-08-06_08h29.55.696,HF_wild_card,2022.2.4,Win32,59.94844434,60a96f55b7ab20ce0ac1b365,64ce5acb97489d65b14ecc7a,64cf4be7f6db2acc19de6241,,,,,,,decisionTrl,resources/DY.BMP,resources/DG.BMP,Door4,-0.176851852,0.015740741,1,0,0,0.5482,optionLeft,80,7150,4,7,0,7,0,1,,,,,,,,,,,,,,,,,,,,,,,,,,,,,,,,,,,,,,,
,,,,,,,,2023-08-06_08h29.55.696,HF_wild_card,2022.2.4,Win32,59.94844434,60a96f55b7ab20ce0ac1b365,64ce5acb97489d65b14ecc7a,64cf4be7f6db2acc19de6241,,,,,,,ctch,resources/DBN.BMP,resources/DG.BMP,Door3,0.218518519,-0.006481481,1,0,0,0.766,optionRight,70,7220,4,8,0,8,0,1,,,,,,,,,,,,,,,,,,,,,,,,,,,,,,,,,,,,,,,
,,,,,,,,2023-08-06_08h29.55.696,HF_wild_card,2022.2.4,Win32,59.94844434,60a96f55b7ab20ce0ac1b365,64ce5acb97489d65b14ecc7a,64cf4be7f6db2acc19de6241,,,,,,,decisionTrl,resources/DB.BMP,resources/DBN.BMP,Door1,-0.151851852,0.011111111,1,0,0,0.916,optionLeft,30,7250,4,9,0,9,0,1,,,,,,,,,,,,,,,,,,,,,,,,,,,,,,,,,,,,,,,
,,,,,,,,2023-08-06_08h29.55.696,HF_wild_card,2022.2.4,Win32,59.94844434,60a96f55b7ab20ce0ac1b365,64ce5acb97489d65b14ecc7a,64cf4be7f6db2acc19de6241,,,,,,,decisionTrl,resources/DBN.BMP,resources/DB.BMP,Door2,-0.153703704,0.012037037,1,0,0,0.6984,optionLeft,40,7290,4,10,0,10,0,1,,,,,,,,,,,,,,,,,,,,,,,,,,,,,,,,,,,,,,,
,,,,,,,,2023-08-06_08h29.55.696,HF_wild_card,2022.2.4,Win32,59.94844434,60a96f55b7ab20ce0ac1b365,64ce5acb97489d65b14ecc7a,64cf4be7f6db2acc19de6241,,,,,,,decisionTrl,resources/DBN.BMP,resources/DB.BMP,Door2,-0.125925926,0.012037037,1,0,0,0.7646,optionLeft,40,7330,4,11,0,11,0,1,,,,,,,,,,,,,,,,,,,,,,,,,,,,,,,,,,,,,,,
,,,,,,,,2023-08-06_08h29.55.696,HF_wild_card,2022.2.4,Win32,59.94844434,60a96f55b7ab20ce0ac1b365,64ce5acb97489d65b14ecc7a,64cf4be7f6db2acc19de6241,,,,,,,decisionTrl,resources/DP.BMP,resources/DY.BMP,Door4,0.132407407,-0.009259259,1,0,0,1.9861,optionRight,80,7410,4,12,0,12,0,1,,,,,,,,,,,,,,,,,,,,,,,,,,,,,,,,,,,,,,,
,,,,,,,,2023-08-06_08h29.55.696,HF_wild_card,2022.2.4,Win32,59.94844434,60a96f55b7ab20ce0ac1b365,64ce5acb97489d65b14ecc7a,64cf4be7f6db2acc19de6241,,,,,,,decisionTrl,resources/DB.BMP,resources/DBN.BMP,Door1,-0.208333333,0.003703704,1,0,0,1.0833,optionLeft,30,7440,4,13,0,13,0,1,,,,,,,,,,,,,,,,,,,,,,,,,,,,,,,,,,,,,,,
,,,,,,,,2023-08-06_08h29.55.696,HF_wild_card,2022.2.4,Win32,59.94844434,60a96f55b7ab20ce0ac1b365,64ce5acb97489d65b14ecc7a,64cf4be7f6db2acc19de6241,,,,,,,ctch,resources/DB.BMP,resources/DY.BMP,Door4,0.260185185,-0.019444444,1,0,0,0.7852,optionRight,60,7500,4,14,0,14,0,1,,,,,,,,,,,,,,,,,,,,,,,,,,,,,,,,,,,,,,,
,,,,,,,,2023-08-06_08h29.55.696,HF_wild_card,2022.2.4,Win32,59.94844434,60a96f55b7ab20ce0ac1b365,64ce5acb97489d65b14ecc7a,64cf4be7f6db2acc19de6241,,,,,,,decisionTrl,resources/DB.BMP,resources/DBN.BMP,Door1,-0.187037037,0.002777778,1,0,0,0.8496,optionLeft,30,7530,4,15,0,15,0,1,,,,,,,,,,,,,,,,,,,,,,,,,,,,,,,,,,,,,,,
,,,,,,,,2023-08-06_08h29.55.696,HF_wild_card,2022.2.4,Win32,59.94844434,60a96f55b7ab20ce0ac1b365,64ce5acb97489d65b14ecc7a,64cf4be7f6db2acc19de6241,,,,,,,decisionTrl,resources/DB.BMP,resources/DP.BMP,WildCard_NonEx,0.17037037,-0.005555556,1,0,0,0.8308,optionRight,55,7585,4,16,0,16,0,1,,,,,,,,,,,,,,,,,,,,,,,,,,,,,,,,,,,,,,,
,,,,,,,,2023-08-06_08h29.55.696,HF_wild_card,2022.2.4,Win32,59.94844434,60a96f55b7ab20ce0ac1b365,64ce5acb97489d65b14ecc7a,64cf4be7f6db2acc19de6241,,,,,,,decisionTrl,resources/DY.BMP,resources/DP.BMP,Door4,-0.162037037,0.012037037,1,0,0,0.7483,optionLeft,60,7645,4,17,0,17,0,1,,,,,,,,,,,,,,,,,,,,,,,,,,,,,,,,,,,,,,,
,,,,,,,,2023-08-06_08h29.55.696,HF_wild_card,2022.2.4,Win32,59.94844434,60a96f55b7ab20ce0ac1b365,64ce5acb97489d65b14ecc7a,64cf4be7f6db2acc19de6241,,,,,,,decisionTrl,resources/DY.BMP,resources/DG.BMP,Door3,0.197222222,-0.012037037,1,0,0,1.2657,optionRight,70,7715,4,18,0,18,0,1,,,,,,,,,,,,,,,,,,,,,,,,,,,,,,,,,,,,,,,
,,,,,,,,2023-08-06_08h29.55.696,HF_wild_card,2022.2.4,Win32,59.94844434,60a96f55b7ab20ce0ac1b365,64ce5acb97489d65b14ecc7a,64cf4be7f6db2acc19de6241,,,,,,,decisionTrl,resources/DY.BMP,resources/DG.BMP,Door3,0.209259259,-0.008333333,1,0,0,0.5158,optionRight,70,7785,4,19,0,19,0,1,,,,,,,,,,,,,,,,,,,,,,,,,,,,,,,,,,,,,,,
,,,,,,,,2023-08-06_08h29.55.696,HF_wild_card,2022.2.4,Win32,59.94844434,60a96f55b7ab20ce0ac1b365,64ce5acb97489d65b14ecc7a,64cf4be7f6db2acc19de6241,,,,,,,sngl,resources/Empty.png,resources/DBN.BMP,Door2,0.158333333,-0.000925926,1,0,0,0.7667,optionRight,40,7825,4,20,0,20,0,1,,,,,,,,,,,,,,,,,,,,,,,,,,,,,,,,,,,,,,,
,,,,,,,,2023-08-06_08h29.55.696,HF_wild_card,2022.2.4,Win32,59.94844434,60a96f55b7ab20ce0ac1b365,64ce5acb97489d65b14ecc7a,64cf4be7f6db2acc19de6241,,,,,,,sngl,resources/Empty.png,resources/DG.BMP,Door3,0.253703704,0.010185185,1,0,0,0.6181,optionRight,70,7895,4,21,0,21,0,1,,,,,,,,,,,,,,,,,,,,,,,,,,,,,,,,,,,,,,,
,,,,,,,,2023-08-06_08h29.55.696,HF_wild_card,2022.2.4,Win32,59.94844434,60a96f55b7ab20ce0ac1b365,64ce5acb97489d65b14ecc7a,64cf4be7f6db2acc19de6241,,,,,,,decisionTrl,resources/DBN.BMP,resources/DB.BMP,Door1,0.197222222,0.00462963,1,0,0,0.816,optionRight,30,7925,4,22,0,22,0,1,,,,,,,,,,,,,,,,,,,,,,,,,,,,,,,,,,,,,,,
,,,,,,,,2023-08-06_08h29.55.696,HF_wild_card,2022.2.4,Win32,59.94844434,60a96f55b7ab20ce0ac1b365,64ce5acb97489d65b14ecc7a,64cf4be7f6db2acc19de6241,,,,,,,sngl,resources/Empty.png,resources/DY.BMP,Door4,0.208333333,0.009259259,1,0,0,0.5506,optionRight,80,8005,4,23,0,23,0,1,,,,,,,,,,,,,,,,,,,,,,,,,,,,,,,,,,,,,,,
,,,,,,,,2023-08-06_08h29.55.696,HF_wild_card,2022.2.4,Win32,59.94844434,60a96f55b7ab20ce0ac1b365,64ce5acb97489d65b14ecc7a,64cf4be7f6db2acc19de6241,,,,,,,decisionTrl,resources/DB.BMP,resources/DBN.BMP,Door1,-0.175925926,0.010185185,1,0,0,1.0485,optionLeft,30,8035,4,24,0,24,0,1,,,,,,,,,,,,,,,,,,,,,,,,,,,,,,,,,,,,,,,
,,,,,,,,2023-08-06_08h29.55.696,HF_wild_card,2022.2.4,Win32,59.94844434,60a96f55b7ab20ce0ac1b365,64ce5acb97489d65b14ecc7a,64cf4be7f6db2acc19de6241,,,,,,,ctch,resources/DY.BMP,resources/DB.BMP,Door4,-0.159259259,0.023148148,1,0,0,0.7327,optionLeft,80,8115,4,25,0,25,0,1,,,,,,,,,,,,,,,,,,,,,,,,,,,,,,,,,,,,,,,
,,,,,,,,2023-08-06_08h29.55.696,HF_wild_card,2022.2.4,Win32,59.94844434,60a96f55b7ab20ce0ac1b365,64ce5acb97489d65b14ecc7a,64cf4be7f6db2acc19de6241,,,,,,,decisionTrl,resources/DG.BMP,resources/DP.BMP,Door3,-0.124074074,0.013888889,1,0,0,1.1162,optionLeft,70,8185,4,26,0,26,0,1,,,,,,,,,,,,,,,,,,,,,,,,,,,,,,,,,,,,,,,
,,,,,,,,2023-08-06_08h29.55.696,HF_wild_card,2022.2.4,Win32,59.94844434,60a96f55b7ab20ce0ac1b365,64ce5acb97489d65b14ecc7a,64cf4be7f6db2acc19de6241,,,,,,,decisionTrl,resources/DG.BMP,resources/DY.BMP,Door4,0.130555556,0.00462963,1,0,0,0.9344,optionRight,60,8245,4,27,0,27,0,1,,,,,,,,,,,,,,,,,,,,,,,,,,,,,,,,,,,,,,,
,,,,,,,,2023-08-06_08h29.55.696,HF_wild_card,2022.2.4,Win32,59.94844434,60a96f55b7ab20ce0ac1b365,64ce5acb97489d65b14ecc7a,64cf4be7f6db2acc19de6241,,,,,,,decisionTrl,resources/DP.BMP,resources/DBN.BMP,WildCard_NonEx,-0.171296296,0.001851852,1,0,0,0.9799,optionLeft,55,8300,4,28,0,28,0,1,,,,,,,,,,,,,,,,,,,,,,,,,,,,,,,,,,,,,,,
,,,,,,,,2023-08-06_08h29.55.696,HF_wild_card,2022.2.4,Win32,59.94844434,60a96f55b7ab20ce0ac1b365,64ce5acb97489d65b14ecc7a,64cf4be7f6db2acc19de6241,,,,,,,sngl,resources/DB.BMP,resources/Empty.png,Door1,-0.2,0.018518519,1,0,0,0.6492,optionLeft,30,8330,4,29,0,29,0,1,,,,,,,,,,,,,,,,,,,,,,,,,,,,,,,,,,,,,,,
,,,,,,,,2023-08-06_08h29.55.696,HF_wild_card,2022.2.4,Win32,59.94844434,60a96f55b7ab20ce0ac1b365,64ce5acb97489d65b14ecc7a,64cf4be7f6db2acc19de6241,,,,,,,sngl,resources/Empty.png,resources/DP.BMP,WildCard_NonEx,0.22962963,0.00462963,1,0,0,0.5852,optionRight,45,8375,4,30,0,30,0,1,,,,,,,,,,,,,,,,,,,,,,,,,,,,,,,,,,,,,,,
,,,,,,,,2023-08-06_08h29.55.696,HF_wild_card,2022.2.4,Win32,59.94844434,60a96f55b7ab20ce0ac1b365,64ce5acb97489d65b14ecc7a,64cf4be7f6db2acc19de6241,,,,,,,decisionTrl,resources/DG.BMP,resources/DY.BMP,Door4,0.182407407,0.00462963,1,0,0,0.6855,optionRight,80,8455,4,31,0,31,0,1,,,,,,,,,,,,,,,,,,,,,,,,,,,,,,,,,,,,,,,
,,,,,,,,2023-08-06_08h29.55.696,HF_wild_card,2022.2.4,Win32,59.94844434,60a96f55b7ab20ce0ac1b365,64ce5acb97489d65b14ecc7a,64cf4be7f6db2acc19de6241,,,,,,,decisionTrl,resources/DG.BMP,resources/DY.BMP,Door4,0.185185185,0.002777778,1,0,0,0.4988,optionRight,60,8515,4,32,0,32,0,1,,,,,,,,,,,,,,,,,,,,,,,,,,,,,,,,,,,,,,,
,,,,,,,,2023-08-06_08h29.55.696,HF_wild_card,2022.2.4,Win32,59.94844434,60a96f55b7ab20ce0ac1b365,64ce5acb97489d65b14ecc7a,64cf4be7f6db2acc19de6241,,,,,,,sngl,resources/DP.BMP,resources/Empty.png,WildCard_NonEx,-0.191666667,0.02037037,1,0,0,0.5659,optionLeft,55,8570,4,33,0,33,0,1,,,,,,,,,,,,,,,,,,,,,,,,,,,,,,,,,,,,,,,
,,,,,,,,2023-08-06_08h29.55.696,HF_wild_card,2022.2.4,Win32,59.94844434,60a96f55b7ab20ce0ac1b365,64ce5acb97489d65b14ecc7a,64cf4be7f6db2acc19de6241,,,,,,,decisionTrl,resources/DP.BMP,resources/DG.BMP,Door3,0.163888889,0.000925926,1,0,0,0.7328,optionRight,70,8640,4,34,0,34,0,1,,,,,,,,,,,,,,,,,,,,,,,,,,,,,,,,,,,,,,,
,,,,,,,,2023-08-06_08h29.55.696,HF_wild_card,2022.2.4,Win32,59.94844434,60a96f55b7ab20ce0ac1b365,64ce5acb97489d65b14ecc7a,64cf4be7f6db2acc19de6241,,,,,,,sngl,resources/Empty.png,resources/DP.BMP,WildCard_NonEx,0.172222222,-0.007407407,1,0,0,0.6659,optionRight,55,8695,4,35,0,35,0,1,,,,,,,,,,,,,,,,,,,,,,,,,,,,,,,,,,,,,,,
,,,,,,,,2023-08-06_08h29.55.696,HF_wild_card,2022.2.4,Win32,59.94844434,60a96f55b7ab20ce0ac1b365,64ce5acb97489d65b14ecc7a,64cf4be7f6db2acc19de6241,,,,,,,decisionTrl,resources/DBN.BMP,resources/DP.BMP,WildCard_NonEx,0.176851852,-0.019444444,1,0,0,1.0665,optionRight,55,8750,4,36,0,36,0,1,,,,,,,,,,,,,,,,,,,,,,,,,,,,,,,,,,,,,,,
,,,,,,,,2023-08-06_08h29.55.696,HF_wild_card,2022.2.4,Win32,59.94844434,60a96f55b7ab20ce0ac1b365,64ce5acb97489d65b14ecc7a,64cf4be7f6db2acc19de6241,,,,,,,decisionTrl,resources/DP.BMP,resources/DB.BMP,WildCard_NonEx,-0.15462963,0.009259259,1,0,0,1.102,optionLeft,55,8805,4,37,0,37,0,1,,,,,,,,,,,,,,,,,,,,,,,,,,,,,,,,,,,,,,,
,,,,,,,,2023-08-06_08h29.55.696,HF_wild_card,2022.2.4,Win32,59.94844434,60a96f55b7ab20ce0ac1b365,64ce5acb97489d65b14ecc7a,64cf4be7f6db2acc19de6241,,,,,,,sngl,resources/DP.BMP,resources/Empty.png,WildCard_NonEx,-0.123148148,0.02037037,1,0,0,0.6491,optionLeft,45,8850,4,38,0,38,0,1,,,,,,,,,,,,,,,,,,,,,,,,,,,,,,,,,,,,,,,
,,,,,,,,2023-08-06_08h29.55.696,HF_wild_card,2022.2.4,Win32,59.94844434,60a96f55b7ab20ce0ac1b365,64ce5acb97489d65b14ecc7a,64cf4be7f6db2acc19de6241,,,,,,,ctch,resources/DG.BMP,resources/DBN.BMP,Door3,-0.118518519,0.012962963,1,0,0,0.9512,optionLeft,70,8920,4,39,0,39,0,1,,,,,,,,,,,,,,,,,,,,,,,,,,,,,,,,,,,,,,,
,,,,,,,,2023-08-06_08h29.55.696,HF_wild_card,2022.2.4,Win32,59.94844434,60a96f55b7ab20ce0ac1b365,64ce5acb97489d65b14ecc7a,64cf4be7f6db2acc19de6241,,,,,,,sngl,resources/Empty.png,resources/DB.BMP,Door1,0.185185185,0.003703704,1,0,0,0.5655,optionRight,30,8950,4,40,0,40,0,1,,,,,,,,,,,,,,,,,,,,,,,,,,,,,,,,,,,,,,,
,,,,,,,,2023-08-06_08h29.55.696,HF_wild_card,2022.2.4,Win32,59.94844434,60a96f55b7ab20ce0ac1b365,64ce5acb97489d65b14ecc7a,64cf4be7f6db2acc19de6241,,,,,,,decisionTrl,resources/DY.BMP,resources/DG.BMP,Door4,-0.136111111,0.011111111,1,0,0,1.3988,optionLeft,80,9030,4,41,0,41,0,1,,,,,,,,,,,,,,,,,,,,,,,,,,,,,,,,,,,,,,,
,,,,,,,,2023-08-06_08h29.55.696,HF_wild_card,2022.2.4,Win32,59.94844434,60a96f55b7ab20ce0ac1b365,64ce5acb97489d65b14ecc7a,64cf4be7f6db2acc19de6241,,,,,,,ctch,resources/DBN.BMP,resources/DG.BMP,Door3,0.165740741,-0.003703704,1,0,0,0.9829,optionRight,70,9100,4,42,0,42,0,1,,,,,,,,,,,,,,,,,,,,,,,,,,,,,,,,,,,,,,,
,,,,,,,,2023-08-06_08h29.55.696,HF_wild_card,2022.2.4,Win32,59.94844434,60a96f55b7ab20ce0ac1b365,64ce5acb97489d65b14ecc7a,64cf4be7f6db2acc19de6241,,,,,,,sngl,resources/DBN.BMP,resources/Empty.png,Door2,-0.171296296,0.017592593,1,0,0,0.647,optionLeft,20,9120,4,43,0,43,0,1,,,,,,,,,,,,,,,,,,,,,,,,,,,,,,,,,,,,,,,
,,,,,,,,2023-08-06_08h29.55.696,HF_wild_card,2022.2.4,Win32,59.94844434,60a96f55b7ab20ce0ac1b365,64ce5acb97489d65b14ecc7a,64cf4be7f6db2acc19de6241,,,,,,,,,,,,,,,,,,,,,,,,,,3,0,3,0,1,,,,,,,,,,,,,,,,,,,,,,,,,,,,,,,,,,
,,,,,,,,2023-08-06_08h29.55.696,HF_wild_card,2022.2.4,Win32,59.94844434,60a96f55b7ab20ce0ac1b365,64ce5acb97489d65b14ecc7a,64cf4be7f6db2acc19de6241,,,,,,,sngl,resources/DB.BMP,resources/Empty.png,Door1,-0.325,-0.057407407,1,0,0,0.9302,optionLeft,30,9150,5,0,0,0,0,1,,,,,,,,,,,,,,,,,,,,,,,,,,,,,,,,,,,,,,,
,,,,,,,,2023-08-06_08h29.55.696,HF_wild_card,2022.2.4,Win32,59.94844434,60a96f55b7ab20ce0ac1b365,64ce5acb97489d65b14ecc7a,64cf4be7f6db2acc19de6241,,,,,,,decisionTrl,resources/DP.BMP,resources/DB.BMP,WildCard_NonEx,-0.188888889,-0.017592593,1,0,0,0.8519,optionLeft,55,9205,5,1,0,1,0,1,,,,,,,,,,,,,,,,,,,,,,,,,,,,,,,,,,,,,,,
,,,,,,,,2023-08-06_08h29.55.696,HF_wild_card,2022.2.4,Win32,59.94844434,60a96f55b7ab20ce0ac1b365,64ce5acb97489d65b14ecc7a,64cf4be7f6db2acc19de6241,,,,,,,decisionTrl,resources/DP.BMP,resources/DG.BMP,Door3,0.147222222,0.005555556,1,0,0,1.5858,optionRight,70,9275,5,2,0,2,0,1,,,,,,,,,,,,,,,,,,,,,,,,,,,,,,,,,,,,,,,
,,,,,,,,2023-08-06_08h29.55.696,HF_wild_card,2022.2.4,Win32,59.94844434,60a96f55b7ab20ce0ac1b365,64ce5acb97489d65b14ecc7a,64cf4be7f6db2acc19de6241,,,,,,,decisionTrl,resources/DG.BMP,resources/DP.BMP,Door3,-0.194444444,0.014814815,1,0,0,0.6009,optionLeft,70,9345,5,3,0,3,0,1,,,,,,,,,,,,,,,,,,,,,,,,,,,,,,,,,,,,,,,
,,,,,,,,2023-08-06_08h29.55.696,HF_wild_card,2022.2.4,Win32,59.94844434,60a96f55b7ab20ce0ac1b365,64ce5acb97489d65b14ecc7a,64cf4be7f6db2acc19de6241,,,,,,,decisionTrl,resources/DP.BMP,resources/DY.BMP,Door4,0.181481481,-0.000925926,1,0,0,0.934,optionRight,80,9425,5,4,0,4,0,1,,,,,,,,,,,,,,,,,,,,,,,,,,,,,,,,,,,,,,,
,,,,,,,,2023-08-06_08h29.55.696,HF_wild_card,2022.2.4,Win32,59.94844434,60a96f55b7ab20ce0ac1b365,64ce5acb97489d65b14ecc7a,64cf4be7f6db2acc19de6241,,,,,,,decisionTrl,resources/DY.BMP,resources/DG.BMP,Door4,-0.128703704,0.026851852,1,0,0,0.6821,optionLeft,60,9485,5,5,0,5,0,1,,,,,,,,,,,,,,,,,,,,,,,,,,,,,,,,,,,,,,,
,,,,,,,,2023-08-06_08h29.55.696,HF_wild_card,2022.2.4,Win32,59.94844434,60a96f55b7ab20ce0ac1b365,64ce5acb97489d65b14ecc7a,64cf4be7f6db2acc19de6241,,,,,,,sngl,resources/Empty.png,resources/DP.BMP,WildCard_NonEx,0.149074074,0.014814815,1,0,0,0.5655,optionRight,55,9540,5,6,0,6,0,1,,,,,,,,,,,,,,,,,,,,,,,,,,,,,,,,,,,,,,,
,,,,,,,,2023-08-06_08h29.55.696,HF_wild_card,2022.2.4,Win32,59.94844434,60a96f55b7ab20ce0ac1b365,64ce5acb97489d65b14ecc7a,64cf4be7f6db2acc19de6241,,,,,,,sngl,resources/DBN.BMP,resources/Empty.png,Door2,-0.172222222,0.030555556,1,0,0,0.6493,optionLeft,40,9580,5,7,0,7,0,1,,,,,,,,,,,,,,,,,,,,,,,,,,,,,,,,,,,,,,,
,,,,,,,,2023-08-06_08h29.55.696,HF_wild_card,2022.2.4,Win32,59.94844434,60a96f55b7ab20ce0ac1b365,64ce5acb97489d65b14ecc7a,64cf4be7f6db2acc19de6241,,,,,,,decisionTrl,resources/DY.BMP,resources/DG.BMP,Door4,-0.169444444,0.016666667,1,0,0,0.7479,optionLeft,60,9640,5,8,0,8,0,1,,,,,,,,,,,,,,,,,,,,,,,,,,,,,,,,,,,,,,,
,,,,,,,,2023-08-06_08h29.55.696,HF_wild_card,2022.2.4,Win32,59.94844434,60a96f55b7ab20ce0ac1b365,64ce5acb97489d65b14ecc7a,64cf4be7f6db2acc19de6241,,,,,,,ctch,resources/DY.BMP,resources/DB.BMP,Door4,-0.168518519,0.026851852,1,0,0,0.8683,optionLeft,60,9700,5,9,0,9,0,1,,,,,,,,,,,,,,,,,,,,,,,,,,,,,,,,,,,,,,,
,,,,,,,,2023-08-06_08h29.55.696,HF_wild_card,2022.2.4,Win32,59.94844434,60a96f55b7ab20ce0ac1b365,64ce5acb97489d65b14ecc7a,64cf4be7f6db2acc19de6241,,,,,,,ctch,resources/DG.BMP,resources/DBN.BMP,Door3,-0.144444444,0.008333333,1,0,0,0.9187,optionLeft,70,9770,5,10,0,10,0,1,,,,,,,,,,,,,,,,,,,,,,,,,,,,,,,,,,,,,,,
,,,,,,,,2023-08-06_08h29.55.696,HF_wild_card,2022.2.4,Win32,59.94844434,60a96f55b7ab20ce0ac1b365,64ce5acb97489d65b14ecc7a,64cf4be7f6db2acc19de6241,,,,,,,decisionTrl,resources/DB.BMP,resources/DBN.BMP,Door1,-0.177777778,0.024074074,1,0,0,1.0002,optionLeft,30,9800,5,11,0,11,0,1,,,,,,,,,,,,,,,,,,,,,,,,,,,,,,,,,,,,,,,
,,,,,,,,2023-08-06_08h29.55.696,HF_wild_card,2022.2.4,Win32,59.94844434,60a96f55b7ab20ce0ac1b365,64ce5acb97489d65b14ecc7a,64cf4be7f6db2acc19de6241,,,,,,,ctch,resources/DB.BMP,resources/DY.BMP,Door4,0.153703704,0.008333333,1,0,0,0.5993,optionRight,80,9880,5,12,0,12,0,1,,,,,,,,,,,,,,,,,,,,,,,,,,,,,,,,,,,,,,,
,,,,,,,,2023-08-06_08h29.55.696,HF_wild_card,2022.2.4,Win32,59.94844434,60a96f55b7ab20ce0ac1b365,64ce5acb97489d65b14ecc7a,64cf4be7f6db2acc19de6241,,,,,,,decisionTrl,resources/DY.BMP,resources/DP.BMP,Door4,-0.132407407,0.037037037,1,0,0,0.6854,optionLeft,60,9940,5,13,0,13,0,1,,,,,,,,,,,,,,,,,,,,,,,,,,,,,,,,,,,,,,,
,,,,,,,,2023-08-06_08h29.55.696,HF_wild_card,2022.2.4,Win32,59.94844434,60a96f55b7ab20ce0ac1b365,64ce5acb97489d65b14ecc7a,64cf4be7f6db2acc19de6241,,,,,,,ctch,resources/DBN.BMP,resources/DG.BMP,Door3,0.142592593,0.006481481,1,0,0,1.0497,optionRight,70,10010,5,14,0,14,0,1,,,,,,,,,,,,,,,,,,,,,,,,,,,,,,,,,,,,,,,
,,,,,,,,2023-08-06_08h29.55.696,HF_wild_card,2022.2.4,Win32,59.94844434,60a96f55b7ab20ce0ac1b365,64ce5acb97489d65b14ecc7a,64cf4be7f6db2acc19de6241,,,,,,,decisionTrl,resources/DY.BMP,resources/DG.BMP,Door4,-0.200925926,0.024074074,1,0,0,0.8335,optionLeft,60,10070,5,15,0,15,0,1,,,,,,,,,,,,,,,,,,,,,,,,,,,,,,,,,,,,,,,
,,,,,,,,2023-08-06_08h29.55.696,HF_wild_card,2022.2.4,Win32,59.94844434,60a96f55b7ab20ce0ac1b365,64ce5acb97489d65b14ecc7a,64cf4be7f6db2acc19de6241,,,,,,,ctch,resources/DG.BMP,resources/DBN.BMP,Door3,-0.166666667,0.027777778,1,0,0,0.8494,optionLeft,70,10140,5,16,0,16,0,1,,,,,,,,,,,,,,,,,,,,,,,,,,,,,,,,,,,,,,,
,,,,,,,,2023-08-06_08h29.55.696,HF_wild_card,2022.2.4,Win32,59.94844434,60a96f55b7ab20ce0ac1b365,64ce5acb97489d65b14ecc7a,64cf4be7f6db2acc19de6241,,,,,,,decisionTrl,resources/DG.BMP,resources/DY.BMP,Door4,0.151851852,0.000925926,1,0,0,0.7493,optionRight,80,10220,5,17,0,17,0,1,,,,,,,,,,,,,,,,,,,,,,,,,,,,,,,,,,,,,,,
,,,,,,,,2023-08-06_08h29.55.696,HF_wild_card,2022.2.4,Win32,59.94844434,60a96f55b7ab20ce0ac1b365,64ce5acb97489d65b14ecc7a,64cf4be7f6db2acc19de6241,,,,,,,decisionTrl,resources/DY.BMP,resources/DG.BMP,Door4,-0.193518519,0.022222222,1,0,0,0.5516,optionLeft,60,10280,5,18,0,18,0,1,,,,,,,,,,,,,,,,,,,,,,,,,,,,,,,,,,,,,,,
,,,,,,,,2023-08-06_08h29.55.696,HF_wild_card,2022.2.4,Win32,59.94844434,60a96f55b7ab20ce0ac1b365,64ce5acb97489d65b14ecc7a,64cf4be7f6db2acc19de6241,,,,,,,decisionTrl,resources/DBN.BMP,resources/DB.BMP,Door1,0.143518519,-0.003703704,1,0,0,0.9994,optionRight,30,10310,5,19,0,19,0,1,,,,,,,,,,,,,,,,,,,,,,,,,,,,,,,,,,,,,,,
,,,,,,,,2023-08-06_08h29.55.696,HF_wild_card,2022.2.4,Win32,59.94844434,60a96f55b7ab20ce0ac1b365,64ce5acb97489d65b14ecc7a,64cf4be7f6db2acc19de6241,,,,,,,decisionTrl,resources/DB.BMP,resources/DBN.BMP,Door2,0.19537037,-0.016666667,1,0,0,0.7502,optionRight,40,10350,5,20,0,20,0,1,,,,,,,,,,,,,,,,,,,,,,,,,,,,,,,,,,,,,,,
,,,,,,,,2023-08-06_08h29.55.696,HF_wild_card,2022.2.4,Win32,59.94844434,60a96f55b7ab20ce0ac1b365,64ce5acb97489d65b14ecc7a,64cf4be7f6db2acc19de6241,,,,,,,sngl,resources/Empty.png,resources/DB.BMP,Door1,0.15,-0.002777778,1,0,0,0.648,optionRight,30,10380,5,21,0,21,0,1,,,,,,,,,,,,,,,,,,,,,,,,,,,,,,,,,,,,,,,
,,,,,,,,2023-08-06_08h29.55.696,HF_wild_card,2022.2.4,Win32,59.94844434,60a96f55b7ab20ce0ac1b365,64ce5acb97489d65b14ecc7a,64cf4be7f6db2acc19de6241,,,,,,,decisionTrl,resources/DBN.BMP,resources/DP.BMP,WildCard_NonEx,0.185185185,-0.017592593,1,0,0,0.8171,optionRight,55,10435,5,22,0,22,0,1,,,,,,,,,,,,,,,,,,,,,,,,,,,,,,,,,,,,,,,
,,,,,,,,2023-08-06_08h29.55.696,HF_wild_card,2022.2.4,Win32,59.94844434,60a96f55b7ab20ce0ac1b365,64ce5acb97489d65b14ecc7a,64cf4be7f6db2acc19de6241,,,,,,,sngl,resources/DY.BMP,resources/Empty.png,Door4,-0.172222222,0.023148148,1,0,0,0.6324,optionLeft,80,10515,5,23,0,23,0,1,,,,,,,,,,,,,,,,,,,,,,,,,,,,,,,,,,,,,,,
,,,,,,,,2023-08-06_08h29.55.696,HF_wild_card,2022.2.4,Win32,59.94844434,60a96f55b7ab20ce0ac1b365,64ce5acb97489d65b14ecc7a,64cf4be7f6db2acc19de6241,,,,,,,decisionTrl,resources/DG.BMP,resources/DY.BMP,Door4,0.2,-0.018518519,1,0,0,0.4824,optionRight,60,10575,5,24,0,24,0,1,,,,,,,,,,,,,,,,,,,,,,,,,,,,,,,,,,,,,,,
,,,,,,,,2023-08-06_08h29.55.696,HF_wild_card,2022.2.4,Win32,59.94844434,60a96f55b7ab20ce0ac1b365,64ce5acb97489d65b14ecc7a,64cf4be7f6db2acc19de6241,,,,,,,sngl,resources/Empty.png,resources/DP.BMP,WildCard_NonEx,0.212037037,0.001851852,1,0,0,0.5824,optionRight,45,10620,5,25,0,25,0,1,,,,,,,,,,,,,,,,,,,,,,,,,,,,,,,,,,,,,,,
,,,,,,,,2023-08-06_08h29.55.696,HF_wild_card,2022.2.4,Win32,59.94844434,60a96f55b7ab20ce0ac1b365,64ce5acb97489d65b14ecc7a,64cf4be7f6db2acc19de6241,,,,,,,decisionTrl,resources/DB.BMP,resources/DBN.BMP,Door1,-0.149074074,0.024074074,1,0,0,1.2495,optionLeft,30,10650,5,26,0,26,0,1,,,,,,,,,,,,,,,,,,,,,,,,,,,,,,,,,,,,,,,
,,,,,,,,2023-08-06_08h29.55.696,HF_wild_card,2022.2.4,Win32,59.94844434,60a96f55b7ab20ce0ac1b365,64ce5acb97489d65b14ecc7a,64cf4be7f6db2acc19de6241,,,,,,,sngl,resources/Empty.png,resources/DG.BMP,Door3,0.196296296,-0.021296296,1,0,0,0.5016,optionRight,70,10720,5,27,0,27,0,1,,,,,,,,,,,,,,,,,,,,,,,,,,,,,,,,,,,,,,,
,,,,,,,,2023-08-06_08h29.55.696,HF_wild_card,2022.2.4,Win32,59.94844434,60a96f55b7ab20ce0ac1b365,64ce5acb97489d65b14ecc7a,64cf4be7f6db2acc19de6241,,,,,,,decisionTrl,resources/DG.BMP,resources/DY.BMP,Door4,0.187037037,-0.012962963,1,0,0,0.7992,optionRight,60,10780,5,28,0,28,0,1,,,,,,,,,,,,,,,,,,,,,,,,,,,,,,,,,,,,,,,
,,,,,,,,2023-08-06_08h29.55.696,HF_wild_card,2022.2.4,Win32,59.94844434,60a96f55b7ab20ce0ac1b365,64ce5acb97489d65b14ecc7a,64cf4be7f6db2acc19de6241,,,,,,,ctch,resources/DBN.BMP,resources/DG.BMP,Door3,0.184259259,0.000925926,1,0,0,0.7492,optionRight,70,10850,5,29,0,29,0,1,,,,,,,,,,,,,,,,,,,,,,,,,,,,,,,,,,,,,,,
,,,,,,,,2023-08-06_08h29.55.696,HF_wild_card,2022.2.4,Win32,59.94844434,60a96f55b7ab20ce0ac1b365,64ce5acb97489d65b14ecc7a,64cf4be7f6db2acc19de6241,,,,,,,sngl,resources/Empty.png,resources/DBN.BMP,Door2,0.212037037,-0.002777778,1,0,0,1.1148,optionRight,20,10870,5,30,0,30,0,1,,,,,,,,,,,,,,,,,,,,,,,,,,,,,,,,,,,,,,,
,,,,,,,,2023-08-06_08h29.55.696,HF_wild_card,2022.2.4,Win32,59.94844434,60a96f55b7ab20ce0ac1b365,64ce5acb97489d65b14ecc7a,64cf4be7f6db2acc19de6241,,,,,,,sngl,resources/DG.BMP,resources/Empty.png,Door3,-0.12037037,0.015740741,1,0,0,0.7446,optionLeft,70,10940,5,31,0,31,0,1,,,,,,,,,,,,,,,,,,,,,,,,,,,,,,,,,,,,,,,
,,,,,,,,2023-08-06_08h29.55.696,HF_wild_card,2022.2.4,Win32,59.94844434,60a96f55b7ab20ce0ac1b365,64ce5acb97489d65b14ecc7a,64cf4be7f6db2acc19de6241,,,,,,,decisionTrl,resources/DBN.BMP,resources/DB.BMP,Door1,0.233333333,-0.02962963,1,0,0,0.8995,optionRight,30,10970,5,32,0,32,0,1,,,,,,,,,,,,,,,,,,,,,,,,,,,,,,,,,,,,,,,
,,,,,,,,2023-08-06_08h29.55.696,HF_wild_card,2022.2.4,Win32,59.94844434,60a96f55b7ab20ce0ac1b365,64ce5acb97489d65b14ecc7a,64cf4be7f6db2acc19de6241,,,,,,,sngl,resources/Empty.png,resources/DY.BMP,Door4,0.132407407,-0.013888889,1,0,0,0.5677,optionRight,60,11030,5,33,0,33,0,1,,,,,,,,,,,,,,,,,,,,,,,,,,,,,,,,,,,,,,,
,,,,,,,,2023-08-06_08h29.55.696,HF_wild_card,2022.2.4,Win32,59.94844434,60a96f55b7ab20ce0ac1b365,64ce5acb97489d65b14ecc7a,64cf4be7f6db2acc19de6241,,,,,,,ctch,resources/DY.BMP,resources/DB.BMP,Door4,-0.158333333,0.026851852,1,0,0,0.9519,optionLeft,60,11090,5,34,0,34,0,1,,,,,,,,,,,,,,,,,,,,,,,,,,,,,,,,,,,,,,,
,,,,,,,,2023-08-06_08h29.55.696,HF_wild_card,2022.2.4,Win32,59.94844434,60a96f55b7ab20ce0ac1b365,64ce5acb97489d65b14ecc7a,64cf4be7f6db2acc19de6241,,,,,,,decisionTrl,resources/DB.BMP,resources/DP.BMP,WildCard_NonEx,0.180555556,-0.019444444,1,0,0,0.7643,optionRight,45,11135,5,35,0,35,0,1,,,,,,,,,,,,,,,,,,,,,,,,,,,,,,,,,,,,,,,
,,,,,,,,2023-08-06_08h29.55.696,HF_wild_card,2022.2.4,Win32,59.94844434,60a96f55b7ab20ce0ac1b365,64ce5acb97489d65b14ecc7a,64cf4be7f6db2acc19de6241,,,,,,,decisionTrl,resources/DG.BMP,resources/DY.BMP,Door4,0.17037037,-0.00462963,1,0,0,0.6989,optionRight,80,11215,5,36,0,36,0,1,,,,,,,,,,,,,,,,,,,,,,,,,,,,,,,,,,,,,,,
,,,,,,,,2023-08-06_08h29.55.696,HF_wild_card,2022.2.4,Win32,59.94844434,60a96f55b7ab20ce0ac1b365,64ce5acb97489d65b14ecc7a,64cf4be7f6db2acc19de6241,,,,,,,ctch,resources/DB.BMP,resources/DY.BMP,Door4,0.208333333,-0.016666667,1,0,0,0.4995,optionRight,60,11275,5,37,0,37,0,1,,,,,,,,,,,,,,,,,,,,,,,,,,,,,,,,,,,,,,,
,,,,,,,,2023-08-06_08h29.55.696,HF_wild_card,2022.2.4,Win32,59.94844434,60a96f55b7ab20ce0ac1b365,64ce5acb97489d65b14ecc7a,64cf4be7f6db2acc19de6241,,,,,,,sngl,resources/DP.BMP,resources/Empty.png,WildCard_NonEx,-0.197222222,0.02962963,1,0,0,0.6142,optionLeft,55,11330,5,38,0,38,0,1,,,,,,,,,,,,,,,,,,,,,,,,,,,,,,,,,,,,,,,
,,,,,,,,2023-08-06_08h29.55.696,HF_wild_card,2022.2.4,Win32,59.94844434,60a96f55b7ab20ce0ac1b365,64ce5acb97489d65b14ecc7a,64cf4be7f6db2acc19de6241,,,,,,,decisionTrl,resources/DP.BMP,resources/DBN.BMP,WildCard_NonEx,-0.137962963,0.016666667,1,0,0,0.8996,optionLeft,55,11385,5,39,0,39,0,1,,,,,,,,,,,,,,,,,,,,,,,,,,,,,,,,,,,,,,,
,,,,,,,,2023-08-06_08h29.55.696,HF_wild_card,2022.2.4,Win32,59.94844434,60a96f55b7ab20ce0ac1b365,64ce5acb97489d65b14ecc7a,64cf4be7f6db2acc19de6241,,,,,,,decisionTrl,resources/DBN.BMP,resources/DB.BMP,Door2,-0.121296296,0.02037037,1,0,0,1.4856,optionLeft,20,11405,5,40,0,40,0,1,,,,,,,,,,,,,,,,,,,,,,,,,,,,,,,,,,,,,,,
,,,,,,,,2023-08-06_08h29.55.696,HF_wild_card,2022.2.4,Win32,59.94844434,60a96f55b7ab20ce0ac1b365,64ce5acb97489d65b14ecc7a,64cf4be7f6db2acc19de6241,,,,,,,decisionTrl,resources/DBN.BMP,resources/DB.BMP,Door1,0.168518519,-0.026851852,1,0,0,1.2831,optionRight,30,11435,5,41,0,41,0,1,,,,,,,,,,,,,,,,,,,,,,,,,,,,,,,,,,,,,,,
,,,,,,,,2023-08-06_08h29.55.696,HF_wild_card,2022.2.4,Win32,59.94844434,60a96f55b7ab20ce0ac1b365,64ce5acb97489d65b14ecc7a,64cf4be7f6db2acc19de6241,,,,,,,decisionTrl,resources/DB.BMP,resources/DBN.BMP,Door1,-0.167592593,0.015740741,1,0,0,1.2173,optionLeft,30,11465,5,42,0,42,0,1,,,,,,,,,,,,,,,,,,,,,,,,,,,,,,,,,,,,,,,
,,,,,,,,2023-08-06_08h29.55.696,HF_wild_card,2022.2.4,Win32,59.94844434,60a96f55b7ab20ce0ac1b365,64ce5acb97489d65b14ecc7a,64cf4be7f6db2acc19de6241,,,,,,,sngl,resources/DP.BMP,resources/Empty.png,WildCard_NonEx,-0.218518519,0.025,1,0,0,0.6326,optionLeft,45,11510,5,43,0,43,0,1,,,,,,,,,,,,,,,,,,,,,,,,,,,,,,,,,,,,,,,
,,,,,,,,2023-08-06_08h29.55.696,HF_wild_card,2022.2.4,Win32,59.94844434,60a96f55b7ab20ce0ac1b365,64ce5acb97489d65b14ecc7a,64cf4be7f6db2acc19de6241,,,,,,,,,,,,,,,,,,,,,,,,,,4,0,4,0,1,,,,,,,,,,,,,,,,,,,,,,,,,,,,,,,,,,
,,,,,,,,2023-08-06_08h29.55.696,HF_wild_card,2022.2.4,Win32,59.94844434,60a96f55b7ab20ce0ac1b365,64ce5acb97489d65b14ecc7a,64cf4be7f6db2acc19de6241,,,,,,,ctch,resources/DBN.BMP,resources/DG.BMP,Door3,0.171296296,-0.093518519,1,0,0,1.4286,optionRight,70,11580,6,0,0,0,0,1,,,,,,,,,,,,,,,,,,,,,,,,,,,,,,,,,,,,,,,
,,,,,,,,2023-08-06_08h29.55.696,HF_wild_card,2022.2.4,Win32,59.94844434,60a96f55b7ab20ce0ac1b365,64ce5acb97489d65b14ecc7a,64cf4be7f6db2acc19de6241,,,,,,,decisionTrl,resources/DBN.BMP,resources/DB.BMP,Door2,-0.325925926,0.023148148,1,0,0,1.1985,optionLeft,20,11600,6,1,0,1,0,1,,,,,,,,,,,,,,,,,,,,,,,,,,,,,,,,,,,,,,,
,,,,,,,,2023-08-06_08h29.55.696,HF_wild_card,2022.2.4,Win32,59.94844434,60a96f55b7ab20ce0ac1b365,64ce5acb97489d65b14ecc7a,64cf4be7f6db2acc19de6241,,,,,,,ctch,resources/DY.BMP,resources/DB.BMP,Door4,-0.2,0.024074074,1,0,0,0.7136,optionLeft,80,11680,6,2,0,2,0,1,,,,,,,,,,,,,,,,,,,,,,,,,,,,,,,,,,,,,,,
,,,,,,,,2023-08-06_08h29.55.696,HF_wild_card,2022.2.4,Win32,59.94844434,60a96f55b7ab20ce0ac1b365,64ce5acb97489d65b14ecc7a,64cf4be7f6db2acc19de6241,,,,,,,sngl,resources/Empty.png,resources/DP.BMP,WildCard_NonEx,0.225925926,-0.022222222,1,0,0,0.5821,optionRight,55,11735,6,3,0,3,0,1,,,,,,,,,,,,,,,,,,,,,,,,,,,,,,,,,,,,,,,
,,,,,,,,2023-08-06_08h29.55.696,HF_wild_card,2022.2.4,Win32,59.94844434,60a96f55b7ab20ce0ac1b365,64ce5acb97489d65b14ecc7a,64cf4be7f6db2acc19de6241,,,,,,,decisionTrl,resources/DG.BMP,resources/DY.BMP,Door4,0.175925926,-0.008333333,1,0,0,0.5992,optionRight,60,11795,6,4,0,4,0,1,,,,,,,,,,,,,,,,,,,,,,,,,,,,,,,,,,,,,,,
,,,,,,,,2023-08-06_08h29.55.696,HF_wild_card,2022.2.4,Win32,59.94844434,60a96f55b7ab20ce0ac1b365,64ce5acb97489d65b14ecc7a,64cf4be7f6db2acc19de6241,,,,,,,sngl,resources/Empty.png,resources/DG.BMP,Door3,0.162037037,-0.010185185,1,0,0,0.7823,optionRight,70,11865,6,5,0,5,0,1,,,,,,,,,,,,,,,,,,,,,,,,,,,,,,,,,,,,,,,
,,,,,,,,2023-08-06_08h29.55.696,HF_wild_card,2022.2.4,Win32,59.94844434,60a96f55b7ab20ce0ac1b365,64ce5acb97489d65b14ecc7a,64cf4be7f6db2acc19de6241,,,,,,,decisionTrl,resources/DB.BMP,resources/DBN.BMP,Door2,0.181481481,-0.010185185,1,0,0,1.6518,optionRight,20,11885,6,6,0,6,0,1,,,,,,,,,,,,,,,,,,,,,,,,,,,,,,,,,,,,,,,
,,,,,,,,2023-08-06_08h29.55.696,HF_wild_card,2022.2.4,Win32,59.94844434,60a96f55b7ab20ce0ac1b365,64ce5acb97489d65b14ecc7a,64cf4be7f6db2acc19de6241,,,,,,,decisionTrl,resources/DB.BMP,resources/DBN.BMP,Door1,-0.137037037,0.011111111,1,0,0,1.6674,optionLeft,30,11915,6,7,0,7,0,1,,,,,,,,,,,,,,,,,,,,,,,,,,,,,,,,,,,,,,,
,,,,,,,,2023-08-06_08h29.55.696,HF_wild_card,2022.2.4,Win32,59.94844434,60a96f55b7ab20ce0ac1b365,64ce5acb97489d65b14ecc7a,64cf4be7f6db2acc19de6241,,,,,,,ctch,resources/DG.BMP,resources/DBN.BMP,Door3,-0.139814815,0.018518519,1,0,0,0.8519,optionLeft,70,11985,6,8,0,8,0,1,,,,,,,,,,,,,,,,,,,,,,,,,,,,,,,,,,,,,,,
,,,,,,,,2023-08-06_08h29.55.696,HF_wild_card,2022.2.4,Win32,59.94844434,60a96f55b7ab20ce0ac1b365,64ce5acb97489d65b14ecc7a,64cf4be7f6db2acc19de6241,,,,,,,ctch,resources/DB.BMP,resources/DY.BMP,Door4,0.175,-0.000925926,1,0,0,1.2338,optionRight,60,12045,6,9,0,9,0,1,,,,,,,,,,,,,,,,,,,,,,,,,,,,,,,,,,,,,,,
,,,,,,,,2023-08-06_08h29.55.696,HF_wild_card,2022.2.4,Win32,59.94844434,60a96f55b7ab20ce0ac1b365,64ce5acb97489d65b14ecc7a,64cf4be7f6db2acc19de6241,,,,,,,ctch,resources/DG.BMP,resources/DBN.BMP,Door3,-0.15462963,0.02037037,1,0,0,0.9668,optionLeft,70,12115,6,10,0,10,0,1,,,,,,,,,,,,,,,,,,,,,,,,,,,,,,,,,,,,,,,
,,,,,,,,2023-08-06_08h29.55.696,HF_wild_card,2022.2.4,Win32,59.94844434,60a96f55b7ab20ce0ac1b365,64ce5acb97489d65b14ecc7a,64cf4be7f6db2acc19de6241,,,,,,,decisionTrl,resources/DG.BMP,resources/DY.BMP,Door3,-0.12037037,0.021296296,1,0,0,1.5332,optionLeft,70,12185,6,11,0,11,0,1,,,,,,,,,,,,,,,,,,,,,,,,,,,,,,,,,,,,,,,
,,,,,,,,2023-08-06_08h29.55.696,HF_wild_card,2022.2.4,Win32,59.94844434,60a96f55b7ab20ce0ac1b365,64ce5acb97489d65b14ecc7a,64cf4be7f6db2acc19de6241,,,,,,,decisionTrl,resources/DBN.BMP,resources/DB.BMP,Door2,-0.176851852,0.025,1,0,0,1.3667,optionLeft,40,12225,6,12,0,12,0,1,,,,,,,,,,,,,,,,,,,,,,,,,,,,,,,,,,,,,,,
,,,,,,,,2023-08-06_08h29.55.696,HF_wild_card,2022.2.4,Win32,59.94844434,60a96f55b7ab20ce0ac1b365,64ce5acb97489d65b14ecc7a,64cf4be7f6db2acc19de6241,,,,,,,decisionTrl,resources/DP.BMP,resources/DY.BMP,Door4,0.202777778,-0.00462963,1,0,0,0.9159,optionRight,60,12285,6,13,0,13,0,1,,,,,,,,,,,,,,,,,,,,,,,,,,,,,,,,,,,,,,,
,,,,,,,,2023-08-06_08h29.55.696,HF_wild_card,2022.2.4,Win32,59.94844434,60a96f55b7ab20ce0ac1b365,64ce5acb97489d65b14ecc7a,64cf4be7f6db2acc19de6241,,,,,,,sngl,resources/DP.BMP,resources/Empty.png,WildCard_NonEx,-0.162962963,0.028703704,1,0,0,0.6318,optionLeft,55,12340,6,14,0,14,0,1,,,,,,,,,,,,,,,,,,,,,,,,,,,,,,,,,,,,,,,
,,,,,,,,2023-08-06_08h29.55.696,HF_wild_card,2022.2.4,Win32,59.94844434,60a96f55b7ab20ce0ac1b365,64ce5acb97489d65b14ecc7a,64cf4be7f6db2acc19de6241,,,,,,,decisionTrl,resources/DBN.BMP,resources/DB.BMP,Door2,-0.160185185,0.040740741,1,0,0,1.4502,optionLeft,20,12360,6,15,0,15,0,1,,,,,,,,,,,,,,,,,,,,,,,,,,,,,,,,,,,,,,,
,,,,,,,,2023-08-06_08h29.55.696,HF_wild_card,2022.2.4,Win32,59.94844434,60a96f55b7ab20ce0ac1b365,64ce5acb97489d65b14ecc7a,64cf4be7f6db2acc19de6241,,,,,,,decisionTrl,resources/DBN.BMP,resources/DP.BMP,WildCard_NonEx,0.15,-0.012962963,1,0,0,1.0331,optionRight,45,12405,6,16,0,16,0,1,,,,,,,,,,,,,,,,,,,,,,,,,,,,,,,,,,,,,,,
,,,,,,,,2023-08-06_08h29.55.696,HF_wild_card,2022.2.4,Win32,59.94844434,60a96f55b7ab20ce0ac1b365,64ce5acb97489d65b14ecc7a,64cf4be7f6db2acc19de6241,,,,,,,sngl,resources/DBN.BMP,resources/Empty.png,Door2,-0.12962963,0.021296296,1,0,0,0.766,optionLeft,20,12425,6,17,0,17,0,1,,,,,,,,,,,,,,,,,,,,,,,,,,,,,,,,,,,,,,,
,,,,,,,,2023-08-06_08h29.55.696,HF_wild_card,2022.2.4,Win32,59.94844434,60a96f55b7ab20ce0ac1b365,64ce5acb97489d65b14ecc7a,64cf4be7f6db2acc19de6241,,,,,,,decisionTrl,resources/DG.BMP,resources/DP.BMP,Door3,-0.177777778,0.036111111,1,0,0,1.5023,optionLeft,70,12495,6,18,0,18,0,1,,,,,,,,,,,,,,,,,,,,,,,,,,,,,,,,,,,,,,,
,,,,,,,,2023-08-06_08h29.55.696,HF_wild_card,2022.2.4,Win32,59.94844434,60a96f55b7ab20ce0ac1b365,64ce5acb97489d65b14ecc7a,64cf4be7f6db2acc19de6241,,,,,,,sngl,resources/Empty.png,resources/DB.BMP,Door1,0.157407407,0.001851852,1,0,0,0.7316,optionRight,30,12525,6,19,0,19,0,1,,,,,,,,,,,,,,,,,,,,,,,,,,,,,,,,,,,,,,,
,,,,,,,,2023-08-06_08h29.55.696,HF_wild_card,2022.2.4,Win32,59.94844434,60a96f55b7ab20ce0ac1b365,64ce5acb97489d65b14ecc7a,64cf4be7f6db2acc19de6241,,,,,,,sngl,resources/DG.BMP,resources/Empty.png,Door3,-0.177777778,0.032407407,1,0,0,0.633,optionLeft,70,12595,6,20,0,20,0,1,,,,,,,,,,,,,,,,,,,,,,,,,,,,,,,,,,,,,,,
,,,,,,,,2023-08-06_08h29.55.696,HF_wild_card,2022.2.4,Win32,59.94844434,60a96f55b7ab20ce0ac1b365,64ce5acb97489d65b14ecc7a,64cf4be7f6db2acc19de6241,,,,,,,decisionTrl,resources/DY.BMP,resources/DG.BMP,Door4,-0.144444444,0.035185185,1,0,0,1.7178,optionLeft,60,12655,6,21,0,21,0,1,,,,,,,,,,,,,,,,,,,,,,,,,,,,,,,,,,,,,,,
,,,,,,,,2023-08-06_08h29.55.696,HF_wild_card,2022.2.4,Win32,59.94844434,60a96f55b7ab20ce0ac1b365,64ce5acb97489d65b14ecc7a,64cf4be7f6db2acc19de6241,,,,,,,decisionTrl,resources/DY.BMP,resources/DG.BMP,Door3,0.169444444,0.003703704,1,0,0,0.8678,optionRight,70,12725,6,22,0,22,0,1,,,,,,,,,,,,,,,,,,,,,,,,,,,,,,,,,,,,,,,
,,,,,,,,2023-08-06_08h29.55.696,HF_wild_card,2022.2.4,Win32,59.94844434,60a96f55b7ab20ce0ac1b365,64ce5acb97489d65b14ecc7a,64cf4be7f6db2acc19de6241,,,,,,,decisionTrl,resources/DBN.BMP,resources/DB.BMP,Door2,-0.168518519,0.037962963,1,0,0,1.35,optionLeft,40,12765,6,23,0,23,0,1,,,,,,,,,,,,,,,,,,,,,,,,,,,,,,,,,,,,,,,
,,,,,,,,2023-08-06_08h29.55.696,HF_wild_card,2022.2.4,Win32,59.94844434,60a96f55b7ab20ce0ac1b365,64ce5acb97489d65b14ecc7a,64cf4be7f6db2acc19de6241,,,,,,,sngl,resources/Empty.png,resources/DY.BMP,Door4,0.173148148,-0.012037037,1,0,0,0.5652,optionRight,80,12845,6,24,0,24,0,1,,,,,,,,,,,,,,,,,,,,,,,,,,,,,,,,,,,,,,,
,,,,,,,,2023-08-06_08h29.55.696,HF_wild_card,2022.2.4,Win32,59.94844434,60a96f55b7ab20ce0ac1b365,64ce5acb97489d65b14ecc7a,64cf4be7f6db2acc19de6241,,,,,,,decisionTrl,resources/DP.BMP,resources/DG.BMP,Door3,0.134259259,-0.007407407,1,0,0,2.0336,optionRight,70,12915,6,25,0,25,0,1,,,,,,,,,,,,,,,,,,,,,,,,,,,,,,,,,,,,,,,
,,,,,,,,2023-08-06_08h29.55.696,HF_wild_card,2022.2.4,Win32,59.94844434,60a96f55b7ab20ce0ac1b365,64ce5acb97489d65b14ecc7a,64cf4be7f6db2acc19de6241,,,,,,,decisionTrl,resources/DB.BMP,resources/DBN.BMP,Door2,0.167592593,-0.018518519,1,0,0,1.8497,optionRight,40,12955,6,26,0,26,0,1,,,,,,,,,,,,,,,,,,,,,,,,,,,,,,,,,,,,,,,
,,,,,,,,2023-08-06_08h29.55.696,HF_wild_card,2022.2.4,Win32,59.94844434,60a96f55b7ab20ce0ac1b365,64ce5acb97489d65b14ecc7a,64cf4be7f6db2acc19de6241,,,,,,,sngl,resources/DB.BMP,resources/Empty.png,Door1,-0.177777778,0.025,1,0,0,0.6495,optionLeft,30,12985,6,27,0,27,0,1,,,,,,,,,,,,,,,,,,,,,,,,,,,,,,,,,,,,,,,
,,,,,,,,2023-08-06_08h29.55.696,HF_wild_card,2022.2.4,Win32,59.94844434,60a96f55b7ab20ce0ac1b365,64ce5acb97489d65b14ecc7a,64cf4be7f6db2acc19de6241,,,,,,,decisionTrl,resources/DB.BMP,resources/DBN.BMP,Door1,-0.167592593,0.04537037,1,0,0,1.7819,optionLeft,30,13015,6,28,0,28,0,1,,,,,,,,,,,,,,,,,,,,,,,,,,,,,,,,,,,,,,,
,,,,,,,,2023-08-06_08h29.55.696,HF_wild_card,2022.2.4,Win32,59.94844434,60a96f55b7ab20ce0ac1b365,64ce5acb97489d65b14ecc7a,64cf4be7f6db2acc19de6241,,,,,,,decisionTrl,resources/DY.BMP,resources/DG.BMP,Door3,0.147222222,-0.001851852,1,0,0,1.4813,optionRight,70,13085,6,29,0,29,0,1,,,,,,,,,,,,,,,,,,,,,,,,,,,,,,,,,,,,,,,
,,,,,,,,2023-08-06_08h29.55.696,HF_wild_card,2022.2.4,Win32,59.94844434,60a96f55b7ab20ce0ac1b365,64ce5acb97489d65b14ecc7a,64cf4be7f6db2acc19de6241,,,,,,,decisionTrl,resources/DP.BMP,resources/DB.BMP,WildCard_NonEx,-0.128703704,0.011111111,1,0,0,1.2015,optionLeft,55,13140,6,30,0,30,0,1,,,,,,,,,,,,,,,,,,,,,,,,,,,,,,,,,,,,,,,
,,,,,,,,2023-08-06_08h29.55.696,HF_wild_card,2022.2.4,Win32,59.94844434,60a96f55b7ab20ce0ac1b365,64ce5acb97489d65b14ecc7a,64cf4be7f6db2acc19de6241,,,,,,,decisionTrl,resources/DG.BMP,resources/DY.BMP,Door4,0.169444444,-0.027777778,1,0,0,0.865,optionRight,60,13200,6,31,0,31,0,1,,,,,,,,,,,,,,,,,,,,,,,,,,,,,,,,,,,,,,,
,,,,,,,,2023-08-06_08h29.55.696,HF_wild_card,2022.2.4,Win32,59.94844434,60a96f55b7ab20ce0ac1b365,64ce5acb97489d65b14ecc7a,64cf4be7f6db2acc19de6241,,,,,,,decisionTrl,resources/DB.BMP,resources/DP.BMP,WildCard_NonEx,0.140740741,-0.017592593,1,0,0,0.9017,optionRight,55,13255,6,32,0,32,0,1,,,,,,,,,,,,,,,,,,,,,,,,,,,,,,,,,,,,,,,
,,,,,,,,2023-08-06_08h29.55.696,HF_wild_card,2022.2.4,Win32,59.94844434,60a96f55b7ab20ce0ac1b365,64ce5acb97489d65b14ecc7a,64cf4be7f6db2acc19de6241,,,,,,,decisionTrl,resources/DP.BMP,resources/DBN.BMP,WildCard_NonEx,-0.161111111,0.026851852,1,0,0,0.9823,optionLeft,45,13300,6,33,0,33,0,1,,,,,,,,,,,,,,,,,,,,,,,,,,,,,,,,,,,,,,,
,,,,,,,,2023-08-06_08h29.55.696,HF_wild_card,2022.2.4,Win32,59.94844434,60a96f55b7ab20ce0ac1b365,64ce5acb97489d65b14ecc7a,64cf4be7f6db2acc19de6241,,,,,,,ctch,resources/DY.BMP,resources/DB.BMP,Door4,-0.141666667,0.02037037,1,0,0,0.9492,optionLeft,60,13360,6,34,0,34,0,1,,,,,,,,,,,,,,,,,,,,,,,,,,,,,,,,,,,,,,,
,,,,,,,,2023-08-06_08h29.55.696,HF_wild_card,2022.2.4,Win32,59.94844434,60a96f55b7ab20ce0ac1b365,64ce5acb97489d65b14ecc7a,64cf4be7f6db2acc19de6241,,,,,,,ctch,resources/DBN.BMP,resources/DG.BMP,Door3,0.174074074,-0.023148148,1,0,0,1.0011,optionRight,70,13430,6,35,0,35,0,1,,,,,,,,,,,,,,,,,,,,,,,,,,,,,,,,,,,,,,,
,,,,,,,,2023-08-06_08h29.55.696,HF_wild_card,2022.2.4,Win32,59.94844434,60a96f55b7ab20ce0ac1b365,64ce5acb97489d65b14ecc7a,64cf4be7f6db2acc19de6241,,,,,,,sngl,resources/DP.BMP,resources/Empty.png,WildCard_NonEx,-0.176851852,0.023148148,1,0,0,0.6499,optionLeft,45,13475,6,36,0,36,0,1,,,,,,,,,,,,,,,,,,,,,,,,,,,,,,,,,,,,,,,
,,,,,,,,2023-08-06_08h29.55.696,HF_wild_card,2022.2.4,Win32,59.94844434,60a96f55b7ab20ce0ac1b365,64ce5acb97489d65b14ecc7a,64cf4be7f6db2acc19de6241,,,,,,,decisionTrl,resources/DY.BMP,resources/DG.BMP,Door3,0.147222222,-0.006481481,1,0,0,1.5818,optionRight,70,13545,6,37,0,37,0,1,,,,,,,,,,,,,,,,,,,,,,,,,,,,,,,,,,,,,,,
,,,,,,,,2023-08-06_08h29.55.696,HF_wild_card,2022.2.4,Win32,59.94844434,60a96f55b7ab20ce0ac1b365,64ce5acb97489d65b14ecc7a,64cf4be7f6db2acc19de6241,,,,,,,ctch,resources/DB.BMP,resources/DY.BMP,Door4,0.191666667,-0.008333333,1,0,0,1.0167,optionRight,80,13625,6,38,0,38,0,1,,,,,,,,,,,,,,,,,,,,,,,,,,,,,,,,,,,,,,,
,,,,,,,,2023-08-06_08h29.55.696,HF_wild_card,2022.2.4,Win32,59.94844434,60a96f55b7ab20ce0ac1b365,64ce5acb97489d65b14ecc7a,64cf4be7f6db2acc19de6241,,,,,,,sngl,resources/Empty.png,resources/DBN.BMP,Door2,0.180555556,-0.007407407,1,0,0,0.6644,optionRight,40,13665,6,39,0,39,0,1,,,,,,,,,,,,,,,,,,,,,,,,,,,,,,,,,,,,,,,
,,,,,,,,2023-08-06_08h29.55.696,HF_wild_card,2022.2.4,Win32,59.94844434,60a96f55b7ab20ce0ac1b365,64ce5acb97489d65b14ecc7a,64cf4be7f6db2acc19de6241,,,,,,,decisionTrl,resources/DG.BMP,resources/DY.BMP,Door4,0.186111111,-0.007407407,1,0,0,1.0827,optionRight,80,13745,6,40,0,40,0,1,,,,,,,,,,,,,,,,,,,,,,,,,,,,,,,,,,,,,,,
,,,,,,,,2023-08-06_08h29.55.696,HF_wild_card,2022.2.4,Win32,59.94844434,60a96f55b7ab20ce0ac1b365,64ce5acb97489d65b14ecc7a,64cf4be7f6db2acc19de6241,,,,,,,sngl,resources/Empty.png,resources/DP.BMP,WildCard_NonEx,0.193518519,-0.005555556,1,0,0,0.6995,optionRight,45,13790,6,41,0,41,0,1,,,,,,,,,,,,,,,,,,,,,,,,,,,,,,,,,,,,,,,
,,,,,,,,2023-08-06_08h29.55.696,HF_wild_card,2022.2.4,Win32,59.94844434,60a96f55b7ab20ce0ac1b365,64ce5acb97489d65b14ecc7a,64cf4be7f6db2acc19de6241,,,,,,,sngl,resources/DY.BMP,resources/Empty.png,Door4,-0.143518519,0.032407407,1,0,0,0.6492,optionLeft,60,13850,6,42,0,42,0,1,,,,,,,,,,,,,,,,,,,,,,,,,,,,,,,,,,,,,,,
,,,,,,,,2023-08-06_08h29.55.696,HF_wild_card,2022.2.4,Win32,59.94844434,60a96f55b7ab20ce0ac1b365,64ce5acb97489d65b14ecc7a,64cf4be7f6db2acc19de6241,,,,,,,decisionTrl,resources/DY.BMP,resources/DP.BMP,Door4,-0.132407407,0.02037037,1,0,0,1.6506,optionLeft,60,13910,6,43,0,43,0,1,,,,,,,,,,,,,,,,,,,,,,,,,,,,,,,,,,,,,,,
,,,,,,,,2023-08-06_08h29.55.696,HF_wild_card,2022.2.4,Win32,59.94844434,60a96f55b7ab20ce0ac1b365,64ce5acb97489d65b14ecc7a,64cf4be7f6db2acc19de6241,,,,,,,,,,,,,,,,,,,,,,,,,,5,0,5,0,1,,,,,,,,,,,,,,,,,,,,,,,,,,,,,,,,,,
,,,,,,,,2023-08-06_08h29.55.696,HF_wild_card,2022.2.4,Win32,59.94844434,60a96f55b7ab20ce0ac1b365,64ce5acb97489d65b14ecc7a,64cf4be7f6db2acc19de6241,,,,,,,decisionTrl,resources/DY.BMP,resources/DG.BMP,Door4,-0.125925926,-0.091666667,1,0,0,1.3774,optionLeft,60,13970,7,0,0,0,0,1,,,,,,,,,,,,,,,,,,,,,,,,,,,,,,,,,,,,,,,
,,,,,,,,2023-08-06_08h29.55.696,HF_wild_card,2022.2.4,Win32,59.94844434,60a96f55b7ab20ce0ac1b365,64ce5acb97489d65b14ecc7a,64cf4be7f6db2acc19de6241,,,,,,,ctch,resources/DY.BMP,resources/DB.BMP,Door4,-0.14537037,-0.019444444,1,0,0,0.8493,optionLeft,60,14030,7,1,0,1,0,1,,,,,,,,,,,,,,,,,,,,,,,,,,,,,,,,,,,,,,,
,,,,,,,,2023-08-06_08h29.55.696,HF_wild_card,2022.2.4,Win32,59.94844434,60a96f55b7ab20ce0ac1b365,64ce5acb97489d65b14ecc7a,64cf4be7f6db2acc19de6241,,,,,,,decisionTrl,resources/DBN.BMP,resources/DB.BMP,Door2,-0.15,0.025,1,0,0,1.7186,optionLeft,40,14070,7,2,0,2,0,1,,,,,,,,,,,,,,,,,,,,,,,,,,,,,,,,,,,,,,,
,,,,,,,,2023-08-06_08h29.55.696,HF_wild_card,2022.2.4,Win32,59.94844434,60a96f55b7ab20ce0ac1b365,64ce5acb97489d65b14ecc7a,64cf4be7f6db2acc19de6241,,,,,,,ctch,resources/DBN.BMP,resources/DG.BMP,Door3,0.191666667,-0.012962963,1,0,0,1.1175,optionRight,70,14140,7,3,0,3,0,1,,,,,,,,,,,,,,,,,,,,,,,,,,,,,,,,,,,,,,,
,,,,,,,,2023-08-06_08h29.55.696,HF_wild_card,2022.2.4,Win32,59.94844434,60a96f55b7ab20ce0ac1b365,64ce5acb97489d65b14ecc7a,64cf4be7f6db2acc19de6241,,,,,,,ctch,resources/DY.BMP,resources/DB.BMP,Door4,-0.166666667,0.018518519,1,0,0,1.1836,optionLeft,80,14220,7,4,0,4,0,1,,,,,,,,,,,,,,,,,,,,,,,,,,,,,,,,,,,,,,,
,,,,,,,,2023-08-06_08h29.55.696,HF_wild_card,2022.2.4,Win32,59.94844434,60a96f55b7ab20ce0ac1b365,64ce5acb97489d65b14ecc7a,64cf4be7f6db2acc19de6241,,,,,,,decisionTrl,resources/DBN.BMP,resources/DB.BMP,Door2,-0.159259259,0.021296296,1,0,0,1.8006,optionLeft,20,14240,7,5,0,5,0,1,,,,,,,,,,,,,,,,,,,,,,,,,,,,,,,,,,,,,,,
,,,,,,,,2023-08-06_08h29.55.696,HF_wild_card,2022.2.4,Win32,59.94844434,60a96f55b7ab20ce0ac1b365,64ce5acb97489d65b14ecc7a,64cf4be7f6db2acc19de6241,,,,,,,decisionTrl,resources/DB.BMP,resources/DBN.BMP,Door1,-0.235185185,-0.040740741,1,0,0,0.9997,optionLeft,30,14270,7,6,0,6,0,1,,,,,,,,,,,,,,,,,,,,,,,,,,,,,,,,,,,,,,,
,,,,,,,,2023-08-06_08h29.55.696,HF_wild_card,2022.2.4,Win32,59.94844434,60a96f55b7ab20ce0ac1b365,64ce5acb97489d65b14ecc7a,64cf4be7f6db2acc19de6241,,,,,,,decisionTrl,resources/DBN.BMP,resources/DB.BMP,Door1,0.178703704,-0.02037037,1,0,0,1.2168,optionRight,30,14300,7,7,0,7,0,1,,,,,,,,,,,,,,,,,,,,,,,,,,,,,,,,,,,,,,,
,,,,,,,,2023-08-06_08h29.55.696,HF_wild_card,2022.2.4,Win32,59.94844434,60a96f55b7ab20ce0ac1b365,64ce5acb97489d65b14ecc7a,64cf4be7f6db2acc19de6241,,,,,,,ctch,resources/DBN.BMP,resources/DG.BMP,Door3,0.222222222,-0.02962963,1,0,0,0.865,optionRight,70,14370,7,8,0,8,0,1,,,,,,,,,,,,,,,,,,,,,,,,,,,,,,,,,,,,,,,
,,,,,,,,2023-08-06_08h29.55.696,HF_wild_card,2022.2.4,Win32,59.94844434,60a96f55b7ab20ce0ac1b365,64ce5acb97489d65b14ecc7a,64cf4be7f6db2acc19de6241,,,,,,,decisionTrl,resources/DY.BMP,resources/DG.BMP,Door4,-0.182407407,0.017592593,1,0,0,1.1167,optionLeft,60,14430,7,9,0,9,0,1,,,,,,,,,,,,,,,,,,,,,,,,,,,,,,,,,,,,,,,
,,,,,,,,2023-08-06_08h29.55.696,HF_wild_card,2022.2.4,Win32,59.94844434,60a96f55b7ab20ce0ac1b365,64ce5acb97489d65b14ecc7a,64cf4be7f6db2acc19de6241,,,,,,,ctch,resources/DG.BMP,resources/DBN.BMP,Door3,-0.150925926,0.006481481,1,0,0,1.1335,optionLeft,70,14500,7,10,0,10,0,1,,,,,,,,,,,,,,,,,,,,,,,,,,,,,,,,,,,,,,,
,,,,,,,,2023-08-06_08h29.55.696,HF_wild_card,2022.2.4,Win32,59.94844434,60a96f55b7ab20ce0ac1b365,64ce5acb97489d65b14ecc7a,64cf4be7f6db2acc19de6241,,,,,,,decisionTrl,resources/DB.BMP,resources/DBN.BMP,Door2,0.163888889,-0.008333333,1,0,0,1.4337,optionRight,40,14540,7,11,0,11,0,1,,,,,,,,,,,,,,,,,,,,,,,,,,,,,,,,,,,,,,,
,,,,,,,,2023-08-06_08h29.55.696,HF_wild_card,2022.2.4,Win32,59.94844434,60a96f55b7ab20ce0ac1b365,64ce5acb97489d65b14ecc7a,64cf4be7f6db2acc19de6241,,,,,,,ctch,resources/DG.BMP,resources/DBN.BMP,Door3,-0.169444444,0.028703704,1,0,0,1.2003,optionLeft,70,14610,7,12,0,12,0,1,,,,,,,,,,,,,,,,,,,,,,,,,,,,,,,,,,,,,,,
,,,,,,,,2023-08-06_08h29.55.696,HF_wild_card,2022.2.4,Win32,59.94844434,60a96f55b7ab20ce0ac1b365,64ce5acb97489d65b14ecc7a,64cf4be7f6db2acc19de6241,,,,,,,decisionTrl,resources/DBN.BMP,resources/DB.BMP,Door2,-0.150925926,0.010185185,1,0,0,1.517,optionLeft,20,14630,7,13,0,13,0,1,,,,,,,,,,,,,,,,,,,,,,,,,,,,,,,,,,,,,,,
,,,,,,,,2023-08-06_08h29.55.696,HF_wild_card,2022.2.4,Win32,59.94844434,60a96f55b7ab20ce0ac1b365,64ce5acb97489d65b14ecc7a,64cf4be7f6db2acc19de6241,,,,,,,ctch,resources/DBN.BMP,resources/DG.BMP,Door3,0.162037037,-0.018518519,1,0,0,0.8816,optionRight,70,14700,7,14,0,14,0,1,,,,,,,,,,,,,,,,,,,,,,,,,,,,,,,,,,,,,,,
,,,,,,,,2023-08-06_08h29.55.696,HF_wild_card,2022.2.4,Win32,59.94844434,60a96f55b7ab20ce0ac1b365,64ce5acb97489d65b14ecc7a,64cf4be7f6db2acc19de6241,,,,,,,decisionTrl,resources/DY.BMP,resources/DG.BMP,Door4,-0.160185185,0.021296296,1,0,0,1.0504,optionLeft,60,14760,7,15,0,15,0,1,,,,,,,,,,,,,,,,,,,,,,,,,,,,,,,,,,,,,,,
,,,,,,,,2023-08-06_08h29.55.696,HF_wild_card,2022.2.4,Win32,59.94844434,60a96f55b7ab20ce0ac1b365,64ce5acb97489d65b14ecc7a,64cf4be7f6db2acc19de6241,,,,,,,decisionTrl,resources/DBN.BMP,resources/DB.BMP,Door2,-0.190740741,0.040740741,1,0,0,1.1337,optionLeft,40,14800,7,16,0,16,0,1,,,,,,,,,,,,,,,,,,,,,,,,,,,,,,,,,,,,,,,
,,,,,,,,2023-08-06_08h29.55.696,HF_wild_card,2022.2.4,Win32,59.94844434,60a96f55b7ab20ce0ac1b365,64ce5acb97489d65b14ecc7a,64cf4be7f6db2acc19de6241,,,,,,,decisionTrl,resources/DBN.BMP,resources/DB.BMP,Door2,-0.156481481,0.030555556,1,0,0,0.9341,optionLeft,20,14820,7,17,0,17,0,1,,,,,,,,,,,,,,,,,,,,,,,,,,,,,,,,,,,,,,,
,,,,,,,,2023-08-06_08h29.55.696,HF_wild_card,2022.2.4,Win32,59.94844434,60a96f55b7ab20ce0ac1b365,64ce5acb97489d65b14ecc7a,64cf4be7f6db2acc19de6241,,,,,,,ctch,resources/DY.BMP,resources/DB.BMP,Door4,-0.161111111,0.031481481,1,0,0,0.7838,optionLeft,60,14880,7,18,0,18,0,1,,,,,,,,,,,,,,,,,,,,,,,,,,,,,,,,,,,,,,,
,,,,,,,,2023-08-06_08h29.55.696,HF_wild_card,2022.2.4,Win32,59.94844434,60a96f55b7ab20ce0ac1b365,64ce5acb97489d65b14ecc7a,64cf4be7f6db2acc19de6241,,,,,,,decisionTrl,resources/DG.BMP,resources/DY.BMP,Door4,0.173148148,0.012037037,1,0,0,1.2193,optionRight,60,14940,7,19,0,19,0,1,,,,,,,,,,,,,,,,,,,,,,,,,,,,,,,,,,,,,,,
,,,,,,,,2023-08-06_08h29.55.696,HF_wild_card,2022.2.4,Win32,59.94844434,60a96f55b7ab20ce0ac1b365,64ce5acb97489d65b14ecc7a,64cf4be7f6db2acc19de6241,,,,,,,decisionTrl,resources/DB.BMP,resources/DBN.BMP,Door2,0.146296296,-0.001851852,1,0,0,1.5174,optionRight,40,14980,7,20,0,20,0,1,,,,,,,,,,,,,,,,,,,,,,,,,,,,,,,,,,,,,,,
,,,,,,,,2023-08-06_08h29.55.696,HF_wild_card,2022.2.4,Win32,59.94844434,60a96f55b7ab20ce0ac1b365,64ce5acb97489d65b14ecc7a,64cf4be7f6db2acc19de6241,,,,,,,decisionTrl,resources/DB.BMP,resources/DBN.BMP,Door2,0.228703704,-0.025925926,1,0,0,1.1167,optionRight,20,15000,7,21,0,21,0,1,,,,,,,,,,,,,,,,,,,,,,,,,,,,,,,,,,,,,,,
,,,,,,,,2023-08-06_08h29.55.696,HF_wild_card,2022.2.4,Win32,59.94844434,60a96f55b7ab20ce0ac1b365,64ce5acb97489d65b14ecc7a,64cf4be7f6db2acc19de6241,,,,,,,decisionTrl,resources/DG.BMP,resources/DY.BMP,Door3,-0.149074074,0.040740741,1,0,0,2.7345,optionLeft,70,15070,7,22,0,22,0,1,,,,,,,,,,,,,,,,,,,,,,,,,,,,,,,,,,,,,,,
,,,,,,,,2023-08-06_08h29.55.696,HF_wild_card,2022.2.4,Win32,59.94844434,60a96f55b7ab20ce0ac1b365,64ce5acb97489d65b14ecc7a,64cf4be7f6db2acc19de6241,,,,,,,ctch,resources/DB.BMP,resources/DY.BMP,Door4,0.163888889,-0.012962963,1,0,0,1.033,optionRight,60,15130,7,23,0,23,0,1,,,,,,,,,,,,,,,,,,,,,,,,,,,,,,,,,,,,,,,
,,,,,,,,2023-08-06_08h29.55.696,HF_wild_card,2022.2.4,Win32,59.94844434,60a96f55b7ab20ce0ac1b365,64ce5acb97489d65b14ecc7a,64cf4be7f6db2acc19de6241,,,,,,,ctch,resources/DB.BMP,resources/DY.BMP,Door4,0.17037037,-0.003703704,1,0,0,0.6359,optionRight,60,15190,7,24,0,24,0,1,,,,,,,,,,,,,,,,,,,,,,,,,,,,,,,,,,,,,,,
,,,,,,,,2023-08-06_08h29.55.696,HF_wild_card,2022.2.4,Win32,59.94844434,60a96f55b7ab20ce0ac1b365,64ce5acb97489d65b14ecc7a,64cf4be7f6db2acc19de6241,,,,,,,decisionTrl,resources/DG.BMP,resources/DY.BMP,Door4,0.189814815,0.001851852,1,0,0,1.267,optionRight,80,15270,7,25,0,25,0,1,,,,,,,,,,,,,,,,,,,,,,,,,,,,,,,,,,,,,,,
,,,,,,,,2023-08-06_08h29.55.696,HF_wild_card,2022.2.4,Win32,59.94844434,60a96f55b7ab20ce0ac1b365,64ce5acb97489d65b14ecc7a,64cf4be7f6db2acc19de6241,,,,,,,decisionTrl,resources/DG.BMP,resources/DY.BMP,Door4,0.255555556,-0.023148148,1,0,0,0.667,optionRight,60,15330,7,26,0,26,0,1,,,,,,,,,,,,,,,,,,,,,,,,,,,,,,,,,,,,,,,
,,,,,,,,2023-08-06_08h29.55.696,HF_wild_card,2022.2.4,Win32,59.94844434,60a96f55b7ab20ce0ac1b365,64ce5acb97489d65b14ecc7a,64cf4be7f6db2acc19de6241,,,,,,,ctch,resources/DB.BMP,resources/DY.BMP,Door4,0.213888889,-0.025925926,1,0,0,0.7999,optionRight,60,15390,7,27,0,27,0,1,,,,,,,,,,,,,,,,,,,,,,,,,,,,,,,,,,,,,,,
,,,,,,,,2023-08-06_08h29.55.696,HF_wild_card,2022.2.4,Win32,59.94844434,60a96f55b7ab20ce0ac1b365,64ce5acb97489d65b14ecc7a,64cf4be7f6db2acc19de6241,,,,,,,decisionTrl,resources/DG.BMP,resources/DY.BMP,Door3,-0.222222222,0.025925926,1,0,0,1.0839,optionLeft,70,15460,7,28,0,28,0,1,,,,,,,,,,,,,,,,,,,,,,,,,,,,,,,,,,,,,,,
,,,,,,,,2023-08-06_08h29.55.696,HF_wild_card,2022.2.4,Win32,59.94844434,60a96f55b7ab20ce0ac1b365,64ce5acb97489d65b14ecc7a,64cf4be7f6db2acc19de6241,,,,,,,decisionTrl,resources/DB.BMP,resources/DBN.BMP,Door2,0.210185185,-0.021296296,1,0,0,1.3834,optionRight,20,15480,7,29,0,29,0,1,,,,,,,,,,,,,,,,,,,,,,,,,,,,,,,,,,,,,,,
,,,,,,,,2023-08-06_08h29.55.696,HF_wild_card,2022.2.4,Win32,59.94844434,60a96f55b7ab20ce0ac1b365,64ce5acb97489d65b14ecc7a,64cf4be7f6db2acc19de6241,,,,,,,ctch,resources/DG.BMP,resources/DBN.BMP,Door3,-0.238888889,0.02962963,1,0,0,0.9495,optionLeft,70,15550,7,30,0,30,0,1,,,,,,,,,,,,,,,,,,,,,,,,,,,,,,,,,,,,,,,
,,,,,,,,2023-08-06_08h29.55.696,HF_wild_card,2022.2.4,Win32,59.94844434,60a96f55b7ab20ce0ac1b365,64ce5acb97489d65b14ecc7a,64cf4be7f6db2acc19de6241,,,,,,,decisionTrl,resources/DY.BMP,resources/DG.BMP,Door4,-0.176851852,0.032407407,1,0,0,2.07,optionLeft,60,15610,7,31,0,31,0,1,,,,,,,,,,,,,,,,,,,,,,,,,,,,,,,,,,,,,,,
,,,,,,,,2023-08-06_08h29.55.696,HF_wild_card,2022.2.4,Win32,59.94844434,60a96f55b7ab20ce0ac1b365,64ce5acb97489d65b14ecc7a,64cf4be7f6db2acc19de6241,,,,,,,decisionTrl,resources/DY.BMP,resources/DG.BMP,Door4,-0.197222222,0.038888889,1,0,0,1.0511,optionLeft,80,15690,7,32,0,32,0,1,,,,,,,,,,,,,,,,,,,,,,,,,,,,,,,,,,,,,,,
,,,,,,,,2023-08-06_08h29.55.696,HF_wild_card,2022.2.4,Win32,59.94844434,60a96f55b7ab20ce0ac1b365,64ce5acb97489d65b14ecc7a,64cf4be7f6db2acc19de6241,,,,,,,decisionTrl,resources/DB.BMP,resources/DBN.BMP,Door2,0.272222222,-0.025,1,0,0,0.9814,optionRight,20,15710,7,33,0,33,0,1,,,,,,,,,,,,,,,,,,,,,,,,,,,,,,,,,,,,,,,
,,,,,,,,2023-08-06_08h29.55.696,HF_wild_card,2022.2.4,Win32,59.94844434,60a96f55b7ab20ce0ac1b365,64ce5acb97489d65b14ecc7a,64cf4be7f6db2acc19de6241,,,,,,,decisionTrl,resources/DY.BMP,resources/DG.BMP,Door4,-0.218518519,0.027777778,1,0,0,1.0686,optionLeft,60,15770,7,34,0,34,0,1,,,,,,,,,,,,,,,,,,,,,,,,,,,,,,,,,,,,,,,
,,,,,,,,2023-08-06_08h29.55.696,HF_wild_card,2022.2.4,Win32,59.94844434,60a96f55b7ab20ce0ac1b365,64ce5acb97489d65b14ecc7a,64cf4be7f6db2acc19de6241,,,,,,,decisionTrl,resources/DG.BMP,resources/DY.BMP,Door4,0.236111111,-0.008333333,1,0,0,1.9989,optionRight,80,15850,7,35,0,35,0,1,,,,,,,,,,,,,,,,,,,,,,,,,,,,,,,,,,,,,,,
,,,,,,,,2023-08-06_08h29.55.696,HF_wild_card,2022.2.4,Win32,59.94844434,60a96f55b7ab20ce0ac1b365,64ce5acb97489d65b14ecc7a,64cf4be7f6db2acc19de6241,,,,,,,,,,,,,,,,,,,,,,,,,,6,0,6,0,1,,,,,,,,,,,,,,,,,,,,,,,,,,,,,,,,,,
,,,,,,,,2023-08-06_08h29.55.696,HF_wild_card,2022.2.4,Win32,59.94844434,60a96f55b7ab20ce0ac1b365,64ce5acb97489d65b14ecc7a,64cf4be7f6db2acc19de6241,,,,,,,,,,,,,,,,,,,,,,,,,,,,,,,3,,,,,,,,,,,,,,,,,,,,,,,,,,,,,,,,,
,,,,,,,,2023-08-06_08h29.55.696,HF_wild_card,2022.2.4,Win32,59.94844434,60a96f55b7ab20ce0ac1b365,64ce5acb97489d65b14ecc7a,64cf4be7f6db2acc19de6241,,,,,,,,,,,,,,,,,,,,,,,,,,,,,,,,,,,,,,,,,,,,,,,,,,,,,,,,,,,,,,,,
,,,,,,,,2023-08-06_08h29.55.696,HF_wild_card,2022.2.4,Win32,59.94844434,60a96f55b7ab20ce0ac1b365,64ce5acb97489d65b14ecc7a,64cf4be7f6db2acc19de6241,,,,,,,,,,,,,,,,,,,,,,,,,,,,,,,,40,Door2,resources/DBN.BMP,0,0,0,0,1,,,,,,,,,,,,,,,,,,,,,,,,,
,,,,,,,,2023-08-06_08h29.55.696,HF_wild_card,2022.2.4,Win32,59.94844434,60a96f55b7ab20ce0ac1b365,64ce5acb97489d65b14ecc7a,64cf4be7f6db2acc19de6241,,,,,,,,,,,,,,,,,,,,,,,,,,,,,,,,30,Door1,resources/DB.BMP,1,0,1,0,1,,,,,,,,,,,,,,,,,,,,,,,,,
,,,,,,,,2023-08-06_08h29.55.696,HF_wild_card,2022.2.4,Win32,59.94844434,60a96f55b7ab20ce0ac1b365,64ce5acb97489d65b14ecc7a,64cf4be7f6db2acc19de6241,,,,,,,,,,,,,,,,,,,,,,,,,,,,,,,,80,Door4,resources/DY.BMP,2,0,2,0,1,,,,,,,,,,,,,,,,,,,,,,,,,
,,,,,,,,2023-08-06_08h29.55.696,HF_wild_card,2022.2.4,Win32,59.94844434,60a96f55b7ab20ce0ac1b365,64ce5acb97489d65b14ecc7a,64cf4be7f6db2acc19de6241,,,,,,,,,,,,,,,,,,,,,,,,,,,,,,,,60,WC_extreme,resources/DR.BMP,3,0,3,0,1,,,,,,,,,,,,,,,,,,,,,,,,,
,,,,,,,,2023-08-06_08h29.55.696,HF_wild_card,2022.2.4,Win32,59.94844434,60a96f55b7ab20ce0ac1b365,64ce5acb97489d65b14ecc7a,64cf4be7f6db2acc19de6241,,,,,,,,,,,,,,,,,,,,,,,,,,,,,,,,55,WC_nonExtreme,resources/DP.BMP,4,0,4,0,1,,,,,,,,,,,,,,,,,,,,,,,,,
,,,,,,,,2023-08-06_08h29.55.696,HF_wild_card,2022.2.4,Win32,59.94844434,60a96f55b7ab20ce0ac1b365,64ce5acb97489d65b14ecc7a,64cf4be7f6db2acc19de6241,,,,,,,,,,,,,,,,,,,,,,,,,,,,,,,,70,Door3,resources/DG.BMP,5,0,5,0,1,,,,,,,,,,,,,,,,,,,,,,,,,
,,,,,,,,2023-08-06_08h29.55.696,HF_wild_card,2022.2.4,Win32,59.94844434,60a96f55b7ab20ce0ac1b365,64ce5acb97489d65b14ecc7a,64cf4be7f6db2acc19de6241,,,,,,,,,,,,,,,,,,,,,,,,,,,,,,,,,,,,,,,,,,,,,,,,,,,,,,,,,,,,,,,,
,,,,,,,,2023-08-06_08h29.55.696,HF_wild_card,2022.2.4,Win32,59.94844434,60a96f55b7ab20ce0ac1b365,64ce5acb97489d65b14ecc7a,64cf4be7f6db2acc19de6241,,,,,,,,,,,,,,,,,,,,,,,,,,,,,,,,,,,,,,,,0,0,0,0,1,,,,,,,,,,,,,,,,,,,,
