Condition,Low fixed image (Door1),Low risky image (Door2),High fixed image (Door3),High risky image (Door4),Extreme Wild Card,NonExtreme Wild Card,,date,expName,psychopyVersion,OS,frameRate,PROLIFIC_PID,STUDY_ID,SESSION_ID,mouse_2.x,mouse_2.y,mouse_2.leftButton,mouse_2.midButton,mouse_2.rightButton,mouse_2.clicked_name,Trial Type,Left Option Image,Right Option Image,Chosen Door,mouse.x,mouse.y,mouse.leftButton,mouse.midButton,mouse.rightButton,mouse.time,mouse.clicked_name,Feedback,Cumulative Reward,Block,trial.thisRepN,trial.thisTrialN,trial.thisN,trial.thisIndex,trial.ran,blocks.thisRepN,blocks.thisTrialN,blocks.thisN,blocks.thisIndex,blocks.ran,Money conversion,First Outcome Reported,Shown Door (First Outcome),Displayed Image (First Outcome),outcomes.thisRepN,outcomes.thisTrialN,outcomes.thisN,outcomes.thisIndex,outcomes.ran,judgments.thisRepN,judgments.thisTrialN,judgments.thisN,judgments.thisIndex,judgments.ran,freqMouse.x,freqMouse.y,freqMouse.leftButton,freqMouse.midButton,freqMouse.rightButton,freqMouse.clicked_name,FQJ for first outcome,FQJ for second outcome,Shown Door,Displayed Image,trials.thisRepN,trials.thisTrialN,trials.thisN,trials.thisIndex,trials.ran,judgBlock.thisRepN,judgBlock.thisTrialN,judgBlock.thisN,judgBlock.thisIndex,judgBlock.ran
0,resources/DR.BMP,resources/DBN.BMP,resources/DG.BMP,resources/DY.BMP,resources/DP.BMP,resources/DB.BMP,,2023-08-16_08h21.21.237,HF_wild_card,2022.2.4,Win32,60.21557175,5ae96d1878b0060001e69b8a,64d2fd46c836a06233681665,64dc783a8a4a258588e6c0fa,,,,,,,,,,,,,,,,,,,,,,,,,,,,,,,,,,,,,,,,,,,,,,,,,,,,,,,,,,,,,,,,
,,,,,,,,2023-08-16_08h21.21.237,HF_wild_card,2022.2.4,Win32,60.21557175,5ae96d1878b0060001e69b8a,64d2fd46c836a06233681665,64dc783a8a4a258588e6c0fa,0.021296353,-0.416666667,1,0,0,agree,,,,,,,,,,,,,,,,,,,,,,,,,,,,,,,,,,,,,,,,,,,,,,,,,,,,,,,,,,
,,,,,,,,2023-08-16_08h21.21.237,HF_wild_card,2022.2.4,Win32,60.21557175,5ae96d1878b0060001e69b8a,64d2fd46c836a06233681665,64dc783a8a4a258588e6c0fa,,,,,,,,,,,,,,,,,,,,,,,,,,,,,,,,,,,,,,,,,,,,,,,,,,,,,,,,,,,,,,,,
,,,,,,,,2023-08-16_08h21.21.237,HF_wild_card,2022.2.4,Win32,60.21557175,5ae96d1878b0060001e69b8a,64d2fd46c836a06233681665,64dc783a8a4a258588e6c0fa,,,,,,,sngl,resources/DR.BMP,resources/Empty.png,Door1,0.100925954,-0.244444444,1,0,0,9.2985,optionLeft,30,30,1,0,0,0,0,1,,,,,,,,,,,,,,,,,,,,,,,,,,,,,,,,,,,,,,,
,,,,,,,,2023-08-16_08h21.21.237,HF_wild_card,2022.2.4,Win32,60.21557175,5ae96d1878b0060001e69b8a,64d2fd46c836a06233681665,64dc783a8a4a258588e6c0fa,,,,,,,sngl,resources/Empty.png,resources/DR.BMP,Door1,0.389814843,-0.226851908,1,0,0,26.969,optionRight,30,60,1,1,0,1,0,1,,,,,,,,,,,,,,,,,,,,,,,,,,,,,,,,,,,,,,,
,,,,,,,,2023-08-16_08h21.21.237,HF_wild_card,2022.2.4,Win32,60.21557175,5ae96d1878b0060001e69b8a,64d2fd46c836a06233681665,64dc783a8a4a258588e6c0fa,,,,,,,decisionTrl,resources/DBN.BMP,resources/DR.BMP,Door1,0.318518575,-0.138888889,1,0,0,1.4582,optionRight,30,90,1,2,0,2,0,1,,,,,,,,,,,,,,,,,,,,,,,,,,,,,,,,,,,,,,,
,,,,,,,,2023-08-16_08h21.21.237,HF_wild_card,2022.2.4,Win32,60.21557175,5ae96d1878b0060001e69b8a,64d2fd46c836a06233681665,64dc783a8a4a258588e6c0fa,,,,,,,sngl,resources/Empty.png,resources/DG.BMP,Door3,-0.072222222,-0.147222222,1,0,0,2.0425,optionRight,70,160,1,3,0,3,0,1,,,,,,,,,,,,,,,,,,,,,,,,,,,,,,,,,,,,,,,
,,,,,,,,2023-08-16_08h21.21.237,HF_wild_card,2022.2.4,Win32,60.21557175,5ae96d1878b0060001e69b8a,64d2fd46c836a06233681665,64dc783a8a4a258588e6c0fa,,,,,,,sngl,resources/DG.BMP,resources/Empty.png,Door3,-0.25,-0.090740755,1,0,0,0.9889,optionLeft,70,230,1,4,0,4,0,1,,,,,,,,,,,,,,,,,,,,,,,,,,,,,,,,,,,,,,,
,,,,,,,,2023-08-16_08h21.21.237,HF_wild_card,2022.2.4,Win32,60.21557175,5ae96d1878b0060001e69b8a,64d2fd46c836a06233681665,64dc783a8a4a258588e6c0fa,,,,,,,sngl,resources/Empty.png,resources/DP.BMP,WildCard_Ex,0.300925954,-0.052777778,1,0,0,0.7281,optionRight,95,325,1,5,0,5,0,1,,,,,,,,,,,,,,,,,,,,,,,,,,,,,,,,,,,,,,,
,,,,,,,,2023-08-16_08h21.21.237,HF_wild_card,2022.2.4,Win32,60.21557175,5ae96d1878b0060001e69b8a,64d2fd46c836a06233681665,64dc783a8a4a258588e6c0fa,,,,,,,decisionTrl,resources/DY.BMP,resources/DG.BMP,Door4,0.076851908,-0.044444444,1,0,0,1.1516,optionLeft,60,385,1,6,0,6,0,1,,,,,,,,,,,,,,,,,,,,,,,,,,,,,,,,,,,,,,,
,,,,,,,,2023-08-16_08h21.21.237,HF_wild_card,2022.2.4,Win32,60.21557175,5ae96d1878b0060001e69b8a,64d2fd46c836a06233681665,64dc783a8a4a258588e6c0fa,,,,,,,decisionTrl,resources/DBN.BMP,resources/DR.BMP,Door1,0.279629686,-0.05,1,0,0,0.7394,optionRight,30,415,1,7,0,7,0,1,,,,,,,,,,,,,,,,,,,,,,,,,,,,,,,,,,,,,,,
,,,,,,,,2023-08-16_08h21.21.237,HF_wild_card,2022.2.4,Win32,60.21557175,5ae96d1878b0060001e69b8a,64d2fd46c836a06233681665,64dc783a8a4a258588e6c0fa,,,,,,,decisionTrl,resources/DY.BMP,resources/DG.BMP,Door4,-0.263888889,-0.060185199,1,0,0,1.1034,optionLeft,60,475,1,8,0,8,0,1,,,,,,,,,,,,,,,,,,,,,,,,,,,,,,,,,,,,,,,
,,,,,,,,2023-08-16_08h21.21.237,HF_wild_card,2022.2.4,Win32,60.21557175,5ae96d1878b0060001e69b8a,64d2fd46c836a06233681665,64dc783a8a4a258588e6c0fa,,,,,,,ctch,resources/DR.BMP,resources/DY.BMP,Door1,-0.252777778,-0.079629644,1,0,0,1.2215,optionLeft,30,505,1,9,0,9,0,1,,,,,,,,,,,,,,,,,,,,,,,,,,,,,,,,,,,,,,,
,,,,,,,,2023-08-16_08h21.21.237,HF_wild_card,2022.2.4,Win32,60.21557175,5ae96d1878b0060001e69b8a,64d2fd46c836a06233681665,64dc783a8a4a258588e6c0fa,,,,,,,decisionTrl,resources/DY.BMP,resources/DG.BMP,Door4,-0.232407379,-0.089814843,1,0,0,1.2479,optionLeft,60,565,1,10,0,10,0,1,,,,,,,,,,,,,,,,,,,,,,,,,,,,,,,,,,,,,,,
,,,,,,,,2023-08-16_08h21.21.237,HF_wild_card,2022.2.4,Win32,60.21557175,5ae96d1878b0060001e69b8a,64d2fd46c836a06233681665,64dc783a8a4a258588e6c0fa,,,,,,,sngl,resources/Empty.png,resources/DY.BMP,Door4,0.312037065,-0.023148176,1,0,0,0.7484,optionRight,60,625,1,11,0,11,0,1,,,,,,,,,,,,,,,,,,,,,,,,,,,,,,,,,,,,,,,
,,,,,,,,2023-08-16_08h21.21.237,HF_wild_card,2022.2.4,Win32,60.21557175,5ae96d1878b0060001e69b8a,64d2fd46c836a06233681665,64dc783a8a4a258588e6c0fa,,,,,,,ctch,resources/DY.BMP,resources/DR.BMP,Door4,-0.208333333,-0.025,1,0,0,0.8108,optionLeft,80,705,1,12,0,12,0,1,,,,,,,,,,,,,,,,,,,,,,,,,,,,,,,,,,,,,,,
,,,,,,,,2023-08-16_08h21.21.237,HF_wild_card,2022.2.4,Win32,60.21557175,5ae96d1878b0060001e69b8a,64d2fd46c836a06233681665,64dc783a8a4a258588e6c0fa,,,,,,,sngl,resources/DY.BMP,resources/Empty.png,Door4,-0.262037023,-0.024074088,1,0,0,0.5559,optionLeft,80,785,1,13,0,13,0,1,,,,,,,,,,,,,,,,,,,,,,,,,,,,,,,,,,,,,,,
,,,,,,,,2023-08-16_08h21.21.237,HF_wild_card,2022.2.4,Win32,60.21557175,5ae96d1878b0060001e69b8a,64d2fd46c836a06233681665,64dc783a8a4a258588e6c0fa,,,,,,,decisionTrl,resources/DY.BMP,resources/DP.BMP,Door4,-0.310185157,-0.058333333,1,0,0,0.5608,optionLeft,80,865,1,14,0,14,0,1,,,,,,,,,,,,,,,,,,,,,,,,,,,,,,,,,,,,,,,
,,,,,,,,2023-08-16_08h21.21.237,HF_wild_card,2022.2.4,Win32,60.21557175,5ae96d1878b0060001e69b8a,64d2fd46c836a06233681665,64dc783a8a4a258588e6c0fa,,,,,,,decisionTrl,resources/DBN.BMP,resources/DR.BMP,Door1,0.417592621,-0.042592621,1,0,0,0.7952,optionRight,30,895,1,15,0,15,0,1,,,,,,,,,,,,,,,,,,,,,,,,,,,,,,,,,,,,,,,
,,,,,,,,2023-08-16_08h21.21.237,HF_wild_card,2022.2.4,Win32,60.21557175,5ae96d1878b0060001e69b8a,64d2fd46c836a06233681665,64dc783a8a4a258588e6c0fa,,,,,,,decisionTrl,resources/DP.BMP,resources/DY.BMP,WildCard_Ex,-0.227777778,-0.043518533,1,0,0,0.5275,optionLeft,95,990,1,16,0,16,0,1,,,,,,,,,,,,,,,,,,,,,,,,,,,,,,,,,,,,,,,
,,,,,,,,2023-08-16_08h21.21.237,HF_wild_card,2022.2.4,Win32,60.21557175,5ae96d1878b0060001e69b8a,64d2fd46c836a06233681665,64dc783a8a4a258588e6c0fa,,,,,,,decisionTrl,resources/DG.BMP,resources/DY.BMP,Door4,0.521296353,-0.007407422,1,0,0,0.4605,optionRight,60,1050,1,17,0,17,0,1,,,,,,,,,,,,,,,,,,,,,,,,,,,,,,,,,,,,,,,
,,,,,,,,2023-08-16_08h21.21.237,HF_wild_card,2022.2.4,Win32,60.21557175,5ae96d1878b0060001e69b8a,64d2fd46c836a06233681665,64dc783a8a4a258588e6c0fa,,,,,,,ctch,resources/DG.BMP,resources/DBN.BMP,Door3,-0.198148134,-0.025925954,1,0,0,0.5757,optionLeft,70,1120,1,18,0,18,0,1,,,,,,,,,,,,,,,,,,,,,,,,,,,,,,,,,,,,,,,
,,,,,,,,2023-08-16_08h21.21.237,HF_wild_card,2022.2.4,Win32,60.21557175,5ae96d1878b0060001e69b8a,64d2fd46c836a06233681665,64dc783a8a4a258588e6c0fa,,,,,,,decisionTrl,resources/DR.BMP,resources/DBN.BMP,Door2,0.45648151,0.021296268,1,0,0,0.4585,optionRight,40,1160,1,19,0,19,0,1,,,,,,,,,,,,,,,,,,,,,,,,,,,,,,,,,,,,,,,
,,,,,,,,2023-08-16_08h21.21.237,HF_wild_card,2022.2.4,Win32,60.21557175,5ae96d1878b0060001e69b8a,64d2fd46c836a06233681665,64dc783a8a4a258588e6c0fa,,,,,,,decisionTrl,resources/DG.BMP,resources/DY.BMP,Door3,-0.284259245,-0.008333333,1,0,0,0.4943,optionLeft,70,1230,1,20,0,20,0,1,,,,,,,,,,,,,,,,,,,,,,,,,,,,,,,,,,,,,,,
,,,,,,,,2023-08-16_08h21.21.237,HF_wild_card,2022.2.4,Win32,60.21557175,5ae96d1878b0060001e69b8a,64d2fd46c836a06233681665,64dc783a8a4a258588e6c0fa,,,,,,,decisionTrl,resources/DR.BMP,resources/DP.BMP,WildCard_Ex,0.318518575,-0.004629644,1,0,0,0.528,optionRight,95,1325,1,21,0,21,0,1,,,,,,,,,,,,,,,,,,,,,,,,,,,,,,,,,,,,,,,
,,,,,,,,2023-08-16_08h21.21.237,HF_wild_card,2022.2.4,Win32,60.21557175,5ae96d1878b0060001e69b8a,64d2fd46c836a06233681665,64dc783a8a4a258588e6c0fa,,,,,,,decisionTrl,resources/DR.BMP,resources/DBN.BMP,Door1,-0.242592578,-0.034259288,1,0,0,0.5602,optionLeft,30,1355,1,22,0,22,0,1,,,,,,,,,,,,,,,,,,,,,,,,,,,,,,,,,,,,,,,
,,,,,,,,2023-08-16_08h21.21.237,HF_wild_card,2022.2.4,Win32,60.21557175,5ae96d1878b0060001e69b8a,64d2fd46c836a06233681665,64dc783a8a4a258588e6c0fa,,,,,,,sngl,resources/DP.BMP,resources/Empty.png,WildCard_Ex,-0.167592536,-0.033333333,1,0,0,0.61,optionLeft,95,1450,1,23,0,23,0,1,,,,,,,,,,,,,,,,,,,,,,,,,,,,,,,,,,,,,,,
,,,,,,,,2023-08-16_08h21.21.237,HF_wild_card,2022.2.4,Win32,60.21557175,5ae96d1878b0060001e69b8a,64d2fd46c836a06233681665,64dc783a8a4a258588e6c0fa,,,,,,,decisionTrl,resources/DG.BMP,resources/DY.BMP,Door4,0.449074131,-0.060185199,1,0,0,0.4928,optionRight,60,1510,1,24,0,24,0,1,,,,,,,,,,,,,,,,,,,,,,,,,,,,,,,,,,,,,,,
,,,,,,,,2023-08-16_08h21.21.237,HF_wild_card,2022.2.4,Win32,60.21557175,5ae96d1878b0060001e69b8a,64d2fd46c836a06233681665,64dc783a8a4a258588e6c0fa,,,,,,,sngl,resources/DBN.BMP,resources/Empty.png,Door2,-0.207407379,-0.001851866,1,0,0,0.7617,optionLeft,40,1550,1,25,0,25,0,1,,,,,,,,,,,,,,,,,,,,,,,,,,,,,,,,,,,,,,,
,,,,,,,,2023-08-16_08h21.21.237,HF_wild_card,2022.2.4,Win32,60.21557175,5ae96d1878b0060001e69b8a,64d2fd46c836a06233681665,64dc783a8a4a258588e6c0fa,,,,,,,decisionTrl,resources/DG.BMP,resources/DY.BMP,Door4,0.588888889,-0.139814843,1,0,0,0.5321,optionRight,80,1630,1,26,0,26,0,1,,,,,,,,,,,,,,,,,,,,,,,,,,,,,,,,,,,,,,,
,,,,,,,,2023-08-16_08h21.21.237,HF_wild_card,2022.2.4,Win32,60.21557175,5ae96d1878b0060001e69b8a,64d2fd46c836a06233681665,64dc783a8a4a258588e6c0fa,,,,,,,decisionTrl,resources/DBN.BMP,resources/DR.BMP,Door1,0.286111111,-0.019444444,1,0,0,0.7931,optionRight,30,1660,1,27,0,27,0,1,,,,,,,,,,,,,,,,,,,,,,,,,,,,,,,,,,,,,,,
,,,,,,,,2023-08-16_08h21.21.237,HF_wild_card,2022.2.4,Win32,60.21557175,5ae96d1878b0060001e69b8a,64d2fd46c836a06233681665,64dc783a8a4a258588e6c0fa,,,,,,,decisionTrl,resources/DR.BMP,resources/DBN.BMP,Door1,-0.317592578,-0.016666667,1,0,0,0.4601,optionLeft,30,1690,1,28,0,28,0,1,,,,,,,,,,,,,,,,,,,,,,,,,,,,,,,,,,,,,,,
,,,,,,,,2023-08-16_08h21.21.237,HF_wild_card,2022.2.4,Win32,60.21557175,5ae96d1878b0060001e69b8a,64d2fd46c836a06233681665,64dc783a8a4a258588e6c0fa,,,,,,,decisionTrl,resources/DG.BMP,resources/DP.BMP,WildCard_Ex,0.279629686,0.005555556,1,0,0,0.4777,optionRight,95,1785,1,29,0,29,0,1,,,,,,,,,,,,,,,,,,,,,,,,,,,,,,,,,,,,,,,
,,,,,,,,2023-08-16_08h21.21.237,HF_wild_card,2022.2.4,Win32,60.21557175,5ae96d1878b0060001e69b8a,64d2fd46c836a06233681665,64dc783a8a4a258588e6c0fa,,,,,,,ctch,resources/DBN.BMP,resources/DG.BMP,Door3,0.203703732,-0.067592621,1,0,0,0.7103,optionRight,70,1855,1,30,0,30,0,1,,,,,,,,,,,,,,,,,,,,,,,,,,,,,,,,,,,,,,,
,,,,,,,,2023-08-16_08h21.21.237,HF_wild_card,2022.2.4,Win32,60.21557175,5ae96d1878b0060001e69b8a,64d2fd46c836a06233681665,64dc783a8a4a258588e6c0fa,,,,,,,ctch,resources/DR.BMP,resources/DY.BMP,Door1,-0.227777778,-0.034259288,1,0,0,0.6346,optionLeft,30,1885,1,31,0,31,0,1,,,,,,,,,,,,,,,,,,,,,,,,,,,,,,,,,,,,,,,
,,,,,,,,2023-08-16_08h21.21.237,HF_wild_card,2022.2.4,Win32,60.21557175,5ae96d1878b0060001e69b8a,64d2fd46c836a06233681665,64dc783a8a4a258588e6c0fa,,,,,,,decisionTrl,resources/DY.BMP,resources/DG.BMP,Door4,-0.381481467,-0.087962977,1,0,0,0.8083,optionLeft,80,1965,1,32,0,32,0,1,,,,,,,,,,,,,,,,,,,,,,,,,,,,,,,,,,,,,,,
,,,,,,,,2023-08-16_08h21.21.237,HF_wild_card,2022.2.4,Win32,60.21557175,5ae96d1878b0060001e69b8a,64d2fd46c836a06233681665,64dc783a8a4a258588e6c0fa,,,,,,,decisionTrl,resources/DP.BMP,resources/DG.BMP,WildCard_Ex,-0.257407379,-0.088888889,1,0,0,1.4101,optionLeft,95,2060,1,33,0,33,0,1,,,,,,,,,,,,,,,,,,,,,,,,,,,,,,,,,,,,,,,
,,,,,,,,2023-08-16_08h21.21.237,HF_wild_card,2022.2.4,Win32,60.21557175,5ae96d1878b0060001e69b8a,64d2fd46c836a06233681665,64dc783a8a4a258588e6c0fa,,,,,,,sngl,resources/DP.BMP,resources/Empty.png,WildCard_Ex,-0.322222222,-0.064814843,1,0,0,0.4759,optionLeft,5,2065,1,34,0,34,0,1,,,,,,,,,,,,,,,,,,,,,,,,,,,,,,,,,,,,,,,
,,,,,,,,2023-08-16_08h21.21.237,HF_wild_card,2022.2.4,Win32,60.21557175,5ae96d1878b0060001e69b8a,64d2fd46c836a06233681665,64dc783a8a4a258588e6c0fa,,,,,,,ctch,resources/DG.BMP,resources/DBN.BMP,Door2,0.418518575,-0.084259288,1,0,0,0.9703,optionRight,40,2105,1,35,0,35,0,1,,,,,,,,,,,,,,,,,,,,,,,,,,,,,,,,,,,,,,,
,,,,,,,,2023-08-16_08h21.21.237,HF_wild_card,2022.2.4,Win32,60.21557175,5ae96d1878b0060001e69b8a,64d2fd46c836a06233681665,64dc783a8a4a258588e6c0fa,,,,,,,sngl,resources/Empty.png,resources/DBN.BMP,Door2,0.383333333,-0.030555556,1,0,0,0.5915,optionRight,20,2125,1,36,0,36,0,1,,,,,,,,,,,,,,,,,,,,,,,,,,,,,,,,,,,,,,,
,,,,,,,,2023-08-16_08h21.21.237,HF_wild_card,2022.2.4,Win32,60.21557175,5ae96d1878b0060001e69b8a,64d2fd46c836a06233681665,64dc783a8a4a258588e6c0fa,,,,,,,decisionTrl,resources/DR.BMP,resources/DBN.BMP,Door1,-0.255555556,-0.052777778,1,0,0,0.494,optionLeft,30,2155,1,37,0,37,0,1,,,,,,,,,,,,,,,,,,,,,,,,,,,,,,,,,,,,,,,
,,,,,,,,2023-08-16_08h21.21.237,HF_wild_card,2022.2.4,Win32,60.21557175,5ae96d1878b0060001e69b8a,64d2fd46c836a06233681665,64dc783a8a4a258588e6c0fa,,,,,,,decisionTrl,resources/DP.BMP,resources/DBN.BMP,WildCard_Ex,-0.251851824,-0.112037065,1,0,0,1.033,optionLeft,5,2160,1,38,0,38,0,1,,,,,,,,,,,,,,,,,,,,,,,,,,,,,,,,,,,,,,,
,,,,,,,,2023-08-16_08h21.21.237,HF_wild_card,2022.2.4,Win32,60.21557175,5ae96d1878b0060001e69b8a,64d2fd46c836a06233681665,64dc783a8a4a258588e6c0fa,,,,,,,ctch,resources/DY.BMP,resources/DR.BMP,Door4,-0.130555556,-0.020370399,1,0,0,0.9849,optionLeft,60,2220,1,39,0,39,0,1,,,,,,,,,,,,,,,,,,,,,,,,,,,,,,,,,,,,,,,
,,,,,,,,2023-08-16_08h21.21.237,HF_wild_card,2022.2.4,Win32,60.21557175,5ae96d1878b0060001e69b8a,64d2fd46c836a06233681665,64dc783a8a4a258588e6c0fa,,,,,,,sngl,resources/Empty.png,resources/DP.BMP,WildCard_Ex,0.458333333,-0.020370399,1,0,0,0.6111,optionRight,5,2225,1,40,0,40,0,1,,,,,,,,,,,,,,,,,,,,,,,,,,,,,,,,,,,,,,,
,,,,,,,,2023-08-16_08h21.21.237,HF_wild_card,2022.2.4,Win32,60.21557175,5ae96d1878b0060001e69b8a,64d2fd46c836a06233681665,64dc783a8a4a258588e6c0fa,,,,,,,ctch,resources/DBN.BMP,resources/DG.BMP,Door2,-0.236111111,-0.084259288,1,0,0,0.903,optionLeft,20,2245,1,41,0,41,0,1,,,,,,,,,,,,,,,,,,,,,,,,,,,,,,,,,,,,,,,
,,,,,,,,2023-08-16_08h21.21.237,HF_wild_card,2022.2.4,Win32,60.21557175,5ae96d1878b0060001e69b8a,64d2fd46c836a06233681665,64dc783a8a4a258588e6c0fa,,,,,,,decisionTrl,resources/DP.BMP,resources/DR.BMP,WildCard_Ex,-0.370370356,-0.088888889,1,0,0,0.811,optionLeft,95,2340,1,42,0,42,0,1,,,,,,,,,,,,,,,,,,,,,,,,,,,,,,,,,,,,,,,
,,,,,,,,2023-08-16_08h21.21.237,HF_wild_card,2022.2.4,Win32,60.21557175,5ae96d1878b0060001e69b8a,64d2fd46c836a06233681665,64dc783a8a4a258588e6c0fa,,,,,,,decisionTrl,resources/DBN.BMP,resources/DP.BMP,WildCard_Ex,0.262037065,-0.019444444,1,0,0,0.687,optionRight,5,2345,1,43,0,43,0,1,,,,,,,,,,,,,,,,,,,,,,,,,,,,,,,,,,,,,,,
,,,,,,,,2023-08-16_08h21.21.237,HF_wild_card,2022.2.4,Win32,60.21557175,5ae96d1878b0060001e69b8a,64d2fd46c836a06233681665,64dc783a8a4a258588e6c0fa,,,,,,,,,,,,,,,,,,,,,,,,,,0,0,0,0,1,,,,,,,,,,,,,,,,,,,,,,,,,,,,,,,,,,
,,,,,,,,2023-08-16_08h21.21.237,HF_wild_card,2022.2.4,Win32,60.21557175,5ae96d1878b0060001e69b8a,64d2fd46c836a06233681665,64dc783a8a4a258588e6c0fa,,,,,,,ctch,resources/DY.BMP,resources/DR.BMP,Door4,-0.222222222,-0.187962977,1,0,0,1.3427,optionLeft,80,2425,2,0,0,0,0,1,,,,,,,,,,,,,,,,,,,,,,,,,,,,,,,,,,,,,,,
,,,,,,,,2023-08-16_08h21.21.237,HF_wild_card,2022.2.4,Win32,60.21557175,5ae96d1878b0060001e69b8a,64d2fd46c836a06233681665,64dc783a8a4a258588e6c0fa,,,,,,,sngl,resources/Empty.png,resources/DBN.BMP,Door2,0.388888889,-0.122222222,1,0,0,0.5657,optionRight,40,2465,2,1,0,1,0,1,,,,,,,,,,,,,,,,,,,,,,,,,,,,,,,,,,,,,,,
,,,,,,,,2023-08-16_08h21.21.237,HF_wild_card,2022.2.4,Win32,60.21557175,5ae96d1878b0060001e69b8a,64d2fd46c836a06233681665,64dc783a8a4a258588e6c0fa,,,,,,,sngl,resources/Empty.png,resources/DP.BMP,WildCard_Ex,0.378703732,-0.058333333,1,0,0,0.5049,optionRight,95,2560,2,2,0,2,0,1,,,,,,,,,,,,,,,,,,,,,,,,,,,,,,,,,,,,,,,
,,,,,,,,2023-08-16_08h21.21.237,HF_wild_card,2022.2.4,Win32,60.21557175,5ae96d1878b0060001e69b8a,64d2fd46c836a06233681665,64dc783a8a4a258588e6c0fa,,,,,,,sngl,resources/DP.BMP,resources/Empty.png,WildCard_Ex,-0.241666667,-0.048148176,1,0,0,0.4263,optionLeft,95,2655,2,3,0,3,0,1,,,,,,,,,,,,,,,,,,,,,,,,,,,,,,,,,,,,,,,
,,,,,,,,2023-08-16_08h21.21.237,HF_wild_card,2022.2.4,Win32,60.21557175,5ae96d1878b0060001e69b8a,64d2fd46c836a06233681665,64dc783a8a4a258588e6c0fa,,,,,,,sngl,resources/DBN.BMP,resources/Empty.png,Door2,-0.206481467,-0.088888889,1,0,0,0.4939,optionLeft,20,2675,2,4,0,4,0,1,,,,,,,,,,,,,,,,,,,,,,,,,,,,,,,,,,,,,,,
,,,,,,,,2023-08-16_08h21.21.237,HF_wild_card,2022.2.4,Win32,60.21557175,5ae96d1878b0060001e69b8a,64d2fd46c836a06233681665,64dc783a8a4a258588e6c0fa,,,,,,,decisionTrl,resources/DP.BMP,resources/DBN.BMP,Door2,0.468518575,-0.043518533,1,0,0,0.4741,optionRight,20,2695,2,5,0,5,0,1,,,,,,,,,,,,,,,,,,,,,,,,,,,,,,,,,,,,,,,
,,,,,,,,2023-08-16_08h21.21.237,HF_wild_card,2022.2.4,Win32,60.21557175,5ae96d1878b0060001e69b8a,64d2fd46c836a06233681665,64dc783a8a4a258588e6c0fa,,,,,,,decisionTrl,resources/DBN.BMP,resources/DR.BMP,Door1,0.367592621,-0.054629644,1,0,0,0.7668,optionRight,30,2725,2,6,0,6,0,1,,,,,,,,,,,,,,,,,,,,,,,,,,,,,,,,,,,,,,,
,,,,,,,,2023-08-16_08h21.21.237,HF_wild_card,2022.2.4,Win32,60.21557175,5ae96d1878b0060001e69b8a,64d2fd46c836a06233681665,64dc783a8a4a258588e6c0fa,,,,,,,sngl,resources/Empty.png,resources/DG.BMP,Door3,0.325,-0.050925954,1,0,0,0.4945,optionRight,70,2795,2,7,0,7,0,1,,,,,,,,,,,,,,,,,,,,,,,,,,,,,,,,,,,,,,,
,,,,,,,,2023-08-16_08h21.21.237,HF_wild_card,2022.2.4,Win32,60.21557175,5ae96d1878b0060001e69b8a,64d2fd46c836a06233681665,64dc783a8a4a258588e6c0fa,,,,,,,sngl,resources/Empty.png,resources/DP.BMP,WildCard_Ex,0.419444444,-0.001851866,1,0,0,0.4586,optionRight,5,2800,2,8,0,8,0,1,,,,,,,,,,,,,,,,,,,,,,,,,,,,,,,,,,,,,,,
,,,,,,,,2023-08-16_08h21.21.237,HF_wild_card,2022.2.4,Win32,60.21557175,5ae96d1878b0060001e69b8a,64d2fd46c836a06233681665,64dc783a8a4a258588e6c0fa,,,,,,,ctch,resources/DR.BMP,resources/DY.BMP,Door1,-0.258333333,-0.112037065,1,0,0,0.8228,optionLeft,30,2830,2,9,0,9,0,1,,,,,,,,,,,,,,,,,,,,,,,,,,,,,,,,,,,,,,,
,,,,,,,,2023-08-16_08h21.21.237,HF_wild_card,2022.2.4,Win32,60.21557175,5ae96d1878b0060001e69b8a,64d2fd46c836a06233681665,64dc783a8a4a258588e6c0fa,,,,,,,ctch,resources/DG.BMP,resources/DBN.BMP,Door2,0.365740797,0.006481467,1,0,0,0.6206,optionRight,20,2850,2,10,0,10,0,1,,,,,,,,,,,,,,,,,,,,,,,,,,,,,,,,,,,,,,,
,,,,,,,,2023-08-16_08h21.21.237,HF_wild_card,2022.2.4,Win32,60.21557175,5ae96d1878b0060001e69b8a,64d2fd46c836a06233681665,64dc783a8a4a258588e6c0fa,,,,,,,decisionTrl,resources/DY.BMP,resources/DG.BMP,Door3,0.345370399,-0.022222222,1,0,0,1.0851,optionRight,70,2920,2,11,0,11,0,1,,,,,,,,,,,,,,,,,,,,,,,,,,,,,,,,,,,,,,,
,,,,,,,,2023-08-16_08h21.21.237,HF_wild_card,2022.2.4,Win32,60.21557175,5ae96d1878b0060001e69b8a,64d2fd46c836a06233681665,64dc783a8a4a258588e6c0fa,,,,,,,ctch,resources/DBN.BMP,resources/DG.BMP,Door3,0.287963019,-0.002777778,1,0,0,0.5468,optionRight,70,2990,2,12,0,12,0,1,,,,,,,,,,,,,,,,,,,,,,,,,,,,,,,,,,,,,,,
,,,,,,,,2023-08-16_08h21.21.237,HF_wild_card,2022.2.4,Win32,60.21557175,5ae96d1878b0060001e69b8a,64d2fd46c836a06233681665,64dc783a8a4a258588e6c0fa,,,,,,,sngl,resources/DG.BMP,resources/Empty.png,Door3,-0.245370356,-0.04629631,1,0,0,0.5631,optionLeft,70,3060,2,13,0,13,0,1,,,,,,,,,,,,,,,,,,,,,,,,,,,,,,,,,,,,,,,
,,,,,,,,2023-08-16_08h21.21.237,HF_wild_card,2022.2.4,Win32,60.21557175,5ae96d1878b0060001e69b8a,64d2fd46c836a06233681665,64dc783a8a4a258588e6c0fa,,,,,,,decisionTrl,resources/DY.BMP,resources/DG.BMP,Door3,0.409259288,-0.007407422,1,0,0,0.4781,optionRight,70,3130,2,14,0,14,0,1,,,,,,,,,,,,,,,,,,,,,,,,,,,,,,,,,,,,,,,
,,,,,,,,2023-08-16_08h21.21.237,HF_wild_card,2022.2.4,Win32,60.21557175,5ae96d1878b0060001e69b8a,64d2fd46c836a06233681665,64dc783a8a4a258588e6c0fa,,,,,,,sngl,resources/Empty.png,resources/DY.BMP,Door4,0.503703732,-0.001851866,1,0,0,0.6739,optionRight,80,3210,2,15,0,15,0,1,,,,,,,,,,,,,,,,,,,,,,,,,,,,,,,,,,,,,,,
,,,,,,,,2023-08-16_08h21.21.237,HF_wild_card,2022.2.4,Win32,60.21557175,5ae96d1878b0060001e69b8a,64d2fd46c836a06233681665,64dc783a8a4a258588e6c0fa,,,,,,,ctch,resources/DY.BMP,resources/DR.BMP,Door4,-0.319444444,-0.080555556,1,0,0,0.4923,optionLeft,60,3270,2,16,0,16,0,1,,,,,,,,,,,,,,,,,,,,,,,,,,,,,,,,,,,,,,,
,,,,,,,,2023-08-16_08h21.21.237,HF_wild_card,2022.2.4,Win32,60.21557175,5ae96d1878b0060001e69b8a,64d2fd46c836a06233681665,64dc783a8a4a258588e6c0fa,,,,,,,decisionTrl,resources/DP.BMP,resources/DY.BMP,WildCard_Ex,-0.391666667,-0.08148151,1,0,0,0.695,optionLeft,5,3275,2,17,0,17,0,1,,,,,,,,,,,,,,,,,,,,,,,,,,,,,,,,,,,,,,,
,,,,,,,,2023-08-16_08h21.21.237,HF_wild_card,2022.2.4,Win32,60.21557175,5ae96d1878b0060001e69b8a,64d2fd46c836a06233681665,64dc783a8a4a258588e6c0fa,,,,,,,decisionTrl,resources/DG.BMP,resources/DY.BMP,Door3,-0.319444444,-0.036111111,1,0,0,0.9465,optionLeft,70,3345,2,18,0,18,0,1,,,,,,,,,,,,,,,,,,,,,,,,,,,,,,,,,,,,,,,
,,,,,,,,2023-08-16_08h21.21.237,HF_wild_card,2022.2.4,Win32,60.21557175,5ae96d1878b0060001e69b8a,64d2fd46c836a06233681665,64dc783a8a4a258588e6c0fa,,,,,,,decisionTrl,resources/DY.BMP,resources/DG.BMP,Door3,0.262963019,-0.036111111,1,0,0,0.6419,optionRight,70,3415,2,19,0,19,0,1,,,,,,,,,,,,,,,,,,,,,,,,,,,,,,,,,,,,,,,
,,,,,,,,2023-08-16_08h21.21.237,HF_wild_card,2022.2.4,Win32,60.21557175,5ae96d1878b0060001e69b8a,64d2fd46c836a06233681665,64dc783a8a4a258588e6c0fa,,,,,,,decisionTrl,resources/DY.BMP,resources/DG.BMP,Door3,0.252777778,0.023148134,1,0,0,0.6018,optionRight,70,3485,2,20,0,20,0,1,,,,,,,,,,,,,,,,,,,,,,,,,,,,,,,,,,,,,,,
,,,,,,,,2023-08-16_08h21.21.237,HF_wild_card,2022.2.4,Win32,60.21557175,5ae96d1878b0060001e69b8a,64d2fd46c836a06233681665,64dc783a8a4a258588e6c0fa,,,,,,,ctch,resources/DR.BMP,resources/DY.BMP,Door4,0.460185242,-0.064814843,1,0,0,0.6467,optionRight,80,3565,2,21,0,21,0,1,,,,,,,,,,,,,,,,,,,,,,,,,,,,,,,,,,,,,,,
,,,,,,,,2023-08-16_08h21.21.237,HF_wild_card,2022.2.4,Win32,60.21557175,5ae96d1878b0060001e69b8a,64d2fd46c836a06233681665,64dc783a8a4a258588e6c0fa,,,,,,,decisionTrl,resources/DR.BMP,resources/DBN.BMP,Door1,-0.238888889,-0.101851866,1,0,0,0.8378,optionLeft,30,3595,2,22,0,22,0,1,,,,,,,,,,,,,,,,,,,,,,,,,,,,,,,,,,,,,,,
,,,,,,,,2023-08-16_08h21.21.237,HF_wild_card,2022.2.4,Win32,60.21557175,5ae96d1878b0060001e69b8a,64d2fd46c836a06233681665,64dc783a8a4a258588e6c0fa,,,,,,,decisionTrl,resources/DG.BMP,resources/DY.BMP,Door4,0.440740797,-0.001851866,1,0,0,0.5347,optionRight,80,3675,2,23,0,23,0,1,,,,,,,,,,,,,,,,,,,,,,,,,,,,,,,,,,,,,,,
,,,,,,,,2023-08-16_08h21.21.237,HF_wild_card,2022.2.4,Win32,60.21557175,5ae96d1878b0060001e69b8a,64d2fd46c836a06233681665,64dc783a8a4a258588e6c0fa,,,,,,,sngl,resources/Empty.png,resources/DR.BMP,Door1,0.361111111,0.016666667,1,0,0,0.4814,optionRight,30,3705,2,24,0,24,0,1,,,,,,,,,,,,,,,,,,,,,,,,,,,,,,,,,,,,,,,
,,,,,,,,2023-08-16_08h21.21.237,HF_wild_card,2022.2.4,Win32,60.21557175,5ae96d1878b0060001e69b8a,64d2fd46c836a06233681665,64dc783a8a4a258588e6c0fa,,,,,,,decisionTrl,resources/DG.BMP,resources/DY.BMP,Door3,-0.282407379,-0.036111111,1,0,0,0.8058,optionLeft,70,3775,2,25,0,25,0,1,,,,,,,,,,,,,,,,,,,,,,,,,,,,,,,,,,,,,,,
,,,,,,,,2023-08-16_08h21.21.237,HF_wild_card,2022.2.4,Win32,60.21557175,5ae96d1878b0060001e69b8a,64d2fd46c836a06233681665,64dc783a8a4a258588e6c0fa,,,,,,,decisionTrl,resources/DBN.BMP,resources/DR.BMP,Door1,0.337037065,-0.026851866,1,0,0,0.6882,optionRight,30,3805,2,26,0,26,0,1,,,,,,,,,,,,,,,,,,,,,,,,,,,,,,,,,,,,,,,
,,,,,,,,2023-08-16_08h21.21.237,HF_wild_card,2022.2.4,Win32,60.21557175,5ae96d1878b0060001e69b8a,64d2fd46c836a06233681665,64dc783a8a4a258588e6c0fa,,,,,,,decisionTrl,resources/DBN.BMP,resources/DP.BMP,WildCard_Ex,0.352777778,0.019444444,1,0,0,0.6587,optionRight,95,3900,2,27,0,27,0,1,,,,,,,,,,,,,,,,,,,,,,,,,,,,,,,,,,,,,,,
,,,,,,,,2023-08-16_08h21.21.237,HF_wild_card,2022.2.4,Win32,60.21557175,5ae96d1878b0060001e69b8a,64d2fd46c836a06233681665,64dc783a8a4a258588e6c0fa,,,,,,,ctch,resources/DBN.BMP,resources/DG.BMP,Door3,0.246296353,-0.00648151,1,0,0,0.8808,optionRight,70,3970,2,28,0,28,0,1,,,,,,,,,,,,,,,,,,,,,,,,,,,,,,,,,,,,,,,
,,,,,,,,2023-08-16_08h21.21.237,HF_wild_card,2022.2.4,Win32,60.21557175,5ae96d1878b0060001e69b8a,64d2fd46c836a06233681665,64dc783a8a4a258588e6c0fa,,,,,,,sngl,resources/DP.BMP,resources/Empty.png,WildCard_Ex,-0.22870369,-0.035185199,1,0,0,0.5775,optionLeft,5,3975,2,29,0,29,0,1,,,,,,,,,,,,,,,,,,,,,,,,,,,,,,,,,,,,,,,
,,,,,,,,2023-08-16_08h21.21.237,HF_wild_card,2022.2.4,Win32,60.21557175,5ae96d1878b0060001e69b8a,64d2fd46c836a06233681665,64dc783a8a4a258588e6c0fa,,,,,,,decisionTrl,resources/DBN.BMP,resources/DR.BMP,Door1,0.586111111,-0.063888889,1,0,0,0.4951,optionRight,30,4005,2,30,0,30,0,1,,,,,,,,,,,,,,,,,,,,,,,,,,,,,,,,,,,,,,,
,,,,,,,,2023-08-16_08h21.21.237,HF_wild_card,2022.2.4,Win32,60.21557175,5ae96d1878b0060001e69b8a,64d2fd46c836a06233681665,64dc783a8a4a258588e6c0fa,,,,,,,ctch,resources/DG.BMP,resources/DBN.BMP,Door3,-0.255555556,-0.011111111,1,0,0,0.6199,optionLeft,70,4075,2,31,0,31,0,1,,,,,,,,,,,,,,,,,,,,,,,,,,,,,,,,,,,,,,,
,,,,,,,,2023-08-16_08h21.21.237,HF_wild_card,2022.2.4,Win32,60.21557175,5ae96d1878b0060001e69b8a,64d2fd46c836a06233681665,64dc783a8a4a258588e6c0fa,,,,,,,sngl,resources/DY.BMP,resources/Empty.png,Door4,-0.324074046,-0.028703732,1,0,0,0.4975,optionLeft,60,4135,2,32,0,32,0,1,,,,,,,,,,,,,,,,,,,,,,,,,,,,,,,,,,,,,,,
,,,,,,,,2023-08-16_08h21.21.237,HF_wild_card,2022.2.4,Win32,60.21557175,5ae96d1878b0060001e69b8a,64d2fd46c836a06233681665,64dc783a8a4a258588e6c0fa,,,,,,,decisionTrl,resources/DP.BMP,resources/DG.BMP,Door3,0.45648151,-0.047222222,1,0,0,0.4516,optionRight,70,4205,2,33,0,33,0,1,,,,,,,,,,,,,,,,,,,,,,,,,,,,,,,,,,,,,,,
,,,,,,,,2023-08-16_08h21.21.237,HF_wild_card,2022.2.4,Win32,60.21557175,5ae96d1878b0060001e69b8a,64d2fd46c836a06233681665,64dc783a8a4a258588e6c0fa,,,,,,,decisionTrl,resources/DR.BMP,resources/DP.BMP,Door1,-0.289814801,-0.051851866,1,0,0,0.4933,optionLeft,30,4235,2,34,0,34,0,1,,,,,,,,,,,,,,,,,,,,,,,,,,,,,,,,,,,,,,,
,,,,,,,,2023-08-16_08h21.21.237,HF_wild_card,2022.2.4,Win32,60.21557175,5ae96d1878b0060001e69b8a,64d2fd46c836a06233681665,64dc783a8a4a258588e6c0fa,,,,,,,decisionTrl,resources/DR.BMP,resources/DBN.BMP,Door2,0.399074131,-0.037037065,1,0,0,0.4417,optionRight,20,4255,2,35,0,35,0,1,,,,,,,,,,,,,,,,,,,,,,,,,,,,,,,,,,,,,,,
,,,,,,,,2023-08-16_08h21.21.237,HF_wild_card,2022.2.4,Win32,60.21557175,5ae96d1878b0060001e69b8a,64d2fd46c836a06233681665,64dc783a8a4a258588e6c0fa,,,,,,,sngl,resources/DR.BMP,resources/Empty.png,Door1,-0.262037023,-0.055555556,1,0,0,0.3936,optionLeft,30,4285,2,36,0,36,0,1,,,,,,,,,,,,,,,,,,,,,,,,,,,,,,,,,,,,,,,
,,,,,,,,2023-08-16_08h21.21.237,HF_wild_card,2022.2.4,Win32,60.21557175,5ae96d1878b0060001e69b8a,64d2fd46c836a06233681665,64dc783a8a4a258588e6c0fa,,,,,,,decisionTrl,resources/DY.BMP,resources/DP.BMP,WildCard_Ex,0.375,-0.039814843,1,0,0,0.348,optionRight,5,4290,2,37,0,37,0,1,,,,,,,,,,,,,,,,,,,,,,,,,,,,,,,,,,,,,,,
,,,,,,,,2023-08-16_08h21.21.237,HF_wild_card,2022.2.4,Win32,60.21557175,5ae96d1878b0060001e69b8a,64d2fd46c836a06233681665,64dc783a8a4a258588e6c0fa,,,,,,,decisionTrl,resources/DG.BMP,resources/DP.BMP,Door3,-0.198148134,-0.067592621,1,0,0,0.4266,optionLeft,70,4360,2,38,0,38,0,1,,,,,,,,,,,,,,,,,,,,,,,,,,,,,,,,,,,,,,,
,,,,,,,,2023-08-16_08h21.21.237,HF_wild_card,2022.2.4,Win32,60.21557175,5ae96d1878b0060001e69b8a,64d2fd46c836a06233681665,64dc783a8a4a258588e6c0fa,,,,,,,decisionTrl,resources/DR.BMP,resources/DBN.BMP,Door2,0.363888889,-0.029629644,1,0,0,0.4346,optionRight,40,4400,2,39,0,39,0,1,,,,,,,,,,,,,,,,,,,,,,,,,,,,,,,,,,,,,,,
,,,,,,,,2023-08-16_08h21.21.237,HF_wild_card,2022.2.4,Win32,60.21557175,5ae96d1878b0060001e69b8a,64d2fd46c836a06233681665,64dc783a8a4a258588e6c0fa,,,,,,,decisionTrl,resources/DP.BMP,resources/DR.BMP,WildCard_Ex,-0.262962935,-0.019444444,1,0,0,0.4381,optionLeft,5,4405,2,40,0,40,0,1,,,,,,,,,,,,,,,,,,,,,,,,,,,,,,,,,,,,,,,
,,,,,,,,2023-08-16_08h21.21.237,HF_wild_card,2022.2.4,Win32,60.21557175,5ae96d1878b0060001e69b8a,64d2fd46c836a06233681665,64dc783a8a4a258588e6c0fa,,,,,,,decisionTrl,resources/DG.BMP,resources/DY.BMP,Door4,0.454629686,-0.015740755,1,0,0,0.4022,optionRight,80,4485,2,41,0,41,0,1,,,,,,,,,,,,,,,,,,,,,,,,,,,,,,,,,,,,,,,
,,,,,,,,2023-08-16_08h21.21.237,HF_wild_card,2022.2.4,Win32,60.21557175,5ae96d1878b0060001e69b8a,64d2fd46c836a06233681665,64dc783a8a4a258588e6c0fa,,,,,,,decisionTrl,resources/DBN.BMP,resources/DR.BMP,Door2,-0.340740712,-0.068518533,1,0,0,0.4293,optionLeft,20,4505,2,42,0,42,0,1,,,,,,,,,,,,,,,,,,,,,,,,,,,,,,,,,,,,,,,
,,,,,,,,2023-08-16_08h21.21.237,HF_wild_card,2022.2.4,Win32,60.21557175,5ae96d1878b0060001e69b8a,64d2fd46c836a06233681665,64dc783a8a4a258588e6c0fa,,,,,,,decisionTrl,resources/DR.BMP,resources/DBN.BMP,Door2,0.423148176,-0.013888889,1,0,0,0.375,optionRight,20,4525,2,43,0,43,0,1,,,,,,,,,,,,,,,,,,,,,,,,,,,,,,,,,,,,,,,
,,,,,,,,2023-08-16_08h21.21.237,HF_wild_card,2022.2.4,Win32,60.21557175,5ae96d1878b0060001e69b8a,64d2fd46c836a06233681665,64dc783a8a4a258588e6c0fa,,,,,,,,,,,,,,,,,,,,,,,,,,1,0,1,0,1,,,,,,,,,,,,,,,,,,,,,,,,,,,,,,,,,,
,,,,,,,,2023-08-16_08h21.21.237,HF_wild_card,2022.2.4,Win32,60.21557175,5ae96d1878b0060001e69b8a,64d2fd46c836a06233681665,64dc783a8a4a258588e6c0fa,,,,,,,decisionTrl,resources/DP.BMP,resources/DY.BMP,WildCard_Ex,-0.426851824,-0.132407422,1,0,0,0.9829,optionLeft,5,4530,3,0,0,0,0,1,,,,,,,,,,,,,,,,,,,,,,,,,,,,,,,,,,,,,,,
,,,,,,,,2023-08-16_08h21.21.237,HF_wild_card,2022.2.4,Win32,60.21557175,5ae96d1878b0060001e69b8a,64d2fd46c836a06233681665,64dc783a8a4a258588e6c0fa,,,,,,,sngl,resources/DY.BMP,resources/Empty.png,Door4,-0.262962935,-0.059259288,1,0,0,0.5131,optionLeft,80,4610,3,1,0,1,0,1,,,,,,,,,,,,,,,,,,,,,,,,,,,,,,,,,,,,,,,
,,,,,,,,2023-08-16_08h21.21.237,HF_wild_card,2022.2.4,Win32,60.21557175,5ae96d1878b0060001e69b8a,64d2fd46c836a06233681665,64dc783a8a4a258588e6c0fa,,,,,,,ctch,resources/DG.BMP,resources/DBN.BMP,Door3,-0.398148134,-0.076851866,1,0,0,0.7608,optionLeft,70,4680,3,2,0,2,0,1,,,,,,,,,,,,,,,,,,,,,,,,,,,,,,,,,,,,,,,
,,,,,,,,2023-08-16_08h21.21.237,HF_wild_card,2022.2.4,Win32,60.21557175,5ae96d1878b0060001e69b8a,64d2fd46c836a06233681665,64dc783a8a4a258588e6c0fa,,,,,,,decisionTrl,resources/DP.BMP,resources/DBN.BMP,WildCard_Ex,-0.342592578,-0.028703732,1,0,0,0.5797,optionLeft,5,4685,3,3,0,3,0,1,,,,,,,,,,,,,,,,,,,,,,,,,,,,,,,,,,,,,,,
,,,,,,,,2023-08-16_08h21.21.237,HF_wild_card,2022.2.4,Win32,60.21557175,5ae96d1878b0060001e69b8a,64d2fd46c836a06233681665,64dc783a8a4a258588e6c0fa,,,,,,,sngl,resources/Empty.png,resources/DP.BMP,WildCard_Ex,0.466666667,-0.10648151,1,0,0,0.462,optionRight,95,4780,3,4,0,4,0,1,,,,,,,,,,,,,,,,,,,,,,,,,,,,,,,,,,,,,,,
,,,,,,,,2023-08-16_08h21.21.237,HF_wild_card,2022.2.4,Win32,60.21557175,5ae96d1878b0060001e69b8a,64d2fd46c836a06233681665,64dc783a8a4a258588e6c0fa,,,,,,,sngl,resources/Empty.png,resources/DP.BMP,WildCard_Ex,0.385185242,-0.065740755,1,0,0,0.4797,optionRight,5,4785,3,5,0,5,0,1,,,,,,,,,,,,,,,,,,,,,,,,,,,,,,,,,,,,,,,
,,,,,,,,2023-08-16_08h21.21.237,HF_wild_card,2022.2.4,Win32,60.21557175,5ae96d1878b0060001e69b8a,64d2fd46c836a06233681665,64dc783a8a4a258588e6c0fa,,,,,,,decisionTrl,resources/DY.BMP,resources/DP.BMP,WildCard_Ex,0.334259288,0.004629601,1,0,0,0.5446,optionRight,95,4880,3,6,0,6,0,1,,,,,,,,,,,,,,,,,,,,,,,,,,,,,,,,,,,,,,,
,,,,,,,,2023-08-16_08h21.21.237,HF_wild_card,2022.2.4,Win32,60.21557175,5ae96d1878b0060001e69b8a,64d2fd46c836a06233681665,64dc783a8a4a258588e6c0fa,,,,,,,ctch,resources/DR.BMP,resources/DY.BMP,Door4,0.324074131,-0.065740755,1,0,0,0.5291,optionRight,60,4940,3,7,0,7,0,1,,,,,,,,,,,,,,,,,,,,,,,,,,,,,,,,,,,,,,,
,,,,,,,,2023-08-16_08h21.21.237,HF_wild_card,2022.2.4,Win32,60.21557175,5ae96d1878b0060001e69b8a,64d2fd46c836a06233681665,64dc783a8a4a258588e6c0fa,,,,,,,ctch,resources/DBN.BMP,resources/DG.BMP,Door3,0.315740797,-0.068518533,1,0,0,0.5737,optionRight,70,5010,3,8,0,8,0,1,,,,,,,,,,,,,,,,,,,,,,,,,,,,,,,,,,,,,,,
,,,,,,,,2023-08-16_08h21.21.237,HF_wild_card,2022.2.4,Win32,60.21557175,5ae96d1878b0060001e69b8a,64d2fd46c836a06233681665,64dc783a8a4a258588e6c0fa,,,,,,,decisionTrl,resources/DBN.BMP,resources/DR.BMP,Door2,-0.363888889,-0.030555556,1,0,0,0.8818,optionLeft,20,5030,3,9,0,9,0,1,,,,,,,,,,,,,,,,,,,,,,,,,,,,,,,,,,,,,,,
,,,,,,,,2023-08-16_08h21.21.237,HF_wild_card,2022.2.4,Win32,60.21557175,5ae96d1878b0060001e69b8a,64d2fd46c836a06233681665,64dc783a8a4a258588e6c0fa,,,,,,,ctch,resources/DY.BMP,resources/DR.BMP,Door1,0.529629686,-0.076851866,1,0,0,0.4285,optionRight,30,5060,3,10,0,10,0,1,,,,,,,,,,,,,,,,,,,,,,,,,,,,,,,,,,,,,,,
,,,,,,,,2023-08-16_08h21.21.237,HF_wild_card,2022.2.4,Win32,60.21557175,5ae96d1878b0060001e69b8a,64d2fd46c836a06233681665,64dc783a8a4a258588e6c0fa,,,,,,,ctch,resources/DY.BMP,resources/DR.BMP,Door4,-0.188888889,-0.030555556,1,0,0,0.5787,optionLeft,60,5120,3,11,0,11,0,1,,,,,,,,,,,,,,,,,,,,,,,,,,,,,,,,,,,,,,,
,,,,,,,,2023-08-16_08h21.21.237,HF_wild_card,2022.2.4,Win32,60.21557175,5ae96d1878b0060001e69b8a,64d2fd46c836a06233681665,64dc783a8a4a258588e6c0fa,,,,,,,sngl,resources/DP.BMP,resources/Empty.png,WildCard_Ex,-0.182407379,-0.034259288,1,0,0,0.4939,optionLeft,5,5125,3,12,0,12,0,1,,,,,,,,,,,,,,,,,,,,,,,,,,,,,,,,,,,,,,,
,,,,,,,,2023-08-16_08h21.21.237,HF_wild_card,2022.2.4,Win32,60.21557175,5ae96d1878b0060001e69b8a,64d2fd46c836a06233681665,64dc783a8a4a258588e6c0fa,,,,,,,decisionTrl,resources/DP.BMP,resources/DG.BMP,WildCard_Ex,-0.333333333,-0.054629644,1,0,0,0.6255,optionLeft,95,5220,3,13,0,13,0,1,,,,,,,,,,,,,,,,,,,,,,,,,,,,,,,,,,,,,,,
,,,,,,,,2023-08-16_08h21.21.237,HF_wild_card,2022.2.4,Win32,60.21557175,5ae96d1878b0060001e69b8a,64d2fd46c836a06233681665,64dc783a8a4a258588e6c0fa,,,,,,,decisionTrl,resources/DG.BMP,resources/DY.BMP,Door4,0.4,-0.019444444,1,0,0,0.5254,optionRight,80,5300,3,14,0,14,0,1,,,,,,,,,,,,,,,,,,,,,,,,,,,,,,,,,,,,,,,
,,,,,,,,2023-08-16_08h21.21.237,HF_wild_card,2022.2.4,Win32,60.21557175,5ae96d1878b0060001e69b8a,64d2fd46c836a06233681665,64dc783a8a4a258588e6c0fa,,,,,,,decisionTrl,resources/DG.BMP,resources/DP.BMP,WildCard_Ex,0.334259288,-0.066666667,1,0,0,0.6765,optionRight,95,5395,3,15,0,15,0,1,,,,,,,,,,,,,,,,,,,,,,,,,,,,,,,,,,,,,,,
,,,,,,,,2023-08-16_08h21.21.237,HF_wild_card,2022.2.4,Win32,60.21557175,5ae96d1878b0060001e69b8a,64d2fd46c836a06233681665,64dc783a8a4a258588e6c0fa,,,,,,,decisionTrl,resources/DBN.BMP,resources/DR.BMP,Door1,0.360185242,-0.075,1,0,0,0.9768,optionRight,30,5425,3,16,0,16,0,1,,,,,,,,,,,,,,,,,,,,,,,,,,,,,,,,,,,,,,,
,,,,,,,,2023-08-16_08h21.21.237,HF_wild_card,2022.2.4,Win32,60.21557175,5ae96d1878b0060001e69b8a,64d2fd46c836a06233681665,64dc783a8a4a258588e6c0fa,,,,,,,sngl,resources/Empty.png,resources/DY.BMP,Door4,0.360185242,-0.024074088,1,0,0,0.5238,optionRight,60,5485,3,17,0,17,0,1,,,,,,,,,,,,,,,,,,,,,,,,,,,,,,,,,,,,,,,
,,,,,,,,2023-08-16_08h21.21.237,HF_wild_card,2022.2.4,Win32,60.21557175,5ae96d1878b0060001e69b8a,64d2fd46c836a06233681665,64dc783a8a4a258588e6c0fa,,,,,,,ctch,resources/DG.BMP,resources/DBN.BMP,Door3,-0.263888889,-0.052777778,1,0,0,0.777,optionLeft,70,5555,3,18,0,18,0,1,,,,,,,,,,,,,,,,,,,,,,,,,,,,,,,,,,,,,,,
,,,,,,,,2023-08-16_08h21.21.237,HF_wild_card,2022.2.4,Win32,60.21557175,5ae96d1878b0060001e69b8a,64d2fd46c836a06233681665,64dc783a8a4a258588e6c0fa,,,,,,,decisionTrl,resources/DR.BMP,resources/DP.BMP,WildCard_Ex,0.420370399,-0.037962977,1,0,0,0.5264,optionRight,5,5560,3,19,0,19,0,1,,,,,,,,,,,,,,,,,,,,,,,,,,,,,,,,,,,,,,,
,,,,,,,,2023-08-16_08h21.21.237,HF_wild_card,2022.2.4,Win32,60.21557175,5ae96d1878b0060001e69b8a,64d2fd46c836a06233681665,64dc783a8a4a258588e6c0fa,,,,,,,decisionTrl,resources/DG.BMP,resources/DY.BMP,Door3,-0.221296268,-0.013888889,1,0,0,0.6612,optionLeft,70,5630,3,20,0,20,0,1,,,,,,,,,,,,,,,,,,,,,,,,,,,,,,,,,,,,,,,
,,,,,,,,2023-08-16_08h21.21.237,HF_wild_card,2022.2.4,Win32,60.21557175,5ae96d1878b0060001e69b8a,64d2fd46c836a06233681665,64dc783a8a4a258588e6c0fa,,,,,,,decisionTrl,resources/DR.BMP,resources/DBN.BMP,Door1,-0.275925912,-0.09629631,1,0,0,0.7115,optionLeft,30,5660,3,21,0,21,0,1,,,,,,,,,,,,,,,,,,,,,,,,,,,,,,,,,,,,,,,
,,,,,,,,2023-08-16_08h21.21.237,HF_wild_card,2022.2.4,Win32,60.21557175,5ae96d1878b0060001e69b8a,64d2fd46c836a06233681665,64dc783a8a4a258588e6c0fa,,,,,,,decisionTrl,resources/DY.BMP,resources/DG.BMP,Door4,-0.35,-0.111111111,1,0,0,0.7446,optionLeft,80,5740,3,22,0,22,0,1,,,,,,,,,,,,,,,,,,,,,,,,,,,,,,,,,,,,,,,
,,,,,,,,2023-08-16_08h21.21.237,HF_wild_card,2022.2.4,Win32,60.21557175,5ae96d1878b0060001e69b8a,64d2fd46c836a06233681665,64dc783a8a4a258588e6c0fa,,,,,,,sngl,resources/DP.BMP,resources/Empty.png,WildCard_Ex,-0.214814801,-0.055555556,1,0,0,0.5103,optionLeft,95,5835,3,23,0,23,0,1,,,,,,,,,,,,,,,,,,,,,,,,,,,,,,,,,,,,,,,
,,,,,,,,2023-08-16_08h21.21.237,HF_wild_card,2022.2.4,Win32,60.21557175,5ae96d1878b0060001e69b8a,64d2fd46c836a06233681665,64dc783a8a4a258588e6c0fa,,,,,,,ctch,resources/DBN.BMP,resources/DG.BMP,Door3,0.412963019,-0.120370399,1,0,0,1.4445,optionRight,70,5905,3,24,0,24,0,1,,,,,,,,,,,,,,,,,,,,,,,,,,,,,,,,,,,,,,,
,,,,,,,,2023-08-16_08h21.21.237,HF_wild_card,2022.2.4,Win32,60.21557175,5ae96d1878b0060001e69b8a,64d2fd46c836a06233681665,64dc783a8a4a258588e6c0fa,,,,,,,sngl,resources/DG.BMP,resources/Empty.png,Door3,-0.183333333,-0.00648151,1,0,0,0.4918,optionLeft,70,5975,3,25,0,25,0,1,,,,,,,,,,,,,,,,,,,,,,,,,,,,,,,,,,,,,,,
,,,,,,,,2023-08-16_08h21.21.237,HF_wild_card,2022.2.4,Win32,60.21557175,5ae96d1878b0060001e69b8a,64d2fd46c836a06233681665,64dc783a8a4a258588e6c0fa,,,,,,,sngl,resources/Empty.png,resources/DG.BMP,Door3,0.440740797,-0.033333333,1,0,0,0.5945,optionRight,70,6045,3,26,0,26,0,1,,,,,,,,,,,,,,,,,,,,,,,,,,,,,,,,,,,,,,,
,,,,,,,,2023-08-16_08h21.21.237,HF_wild_card,2022.2.4,Win32,60.21557175,5ae96d1878b0060001e69b8a,64d2fd46c836a06233681665,64dc783a8a4a258588e6c0fa,,,,,,,decisionTrl,resources/DG.BMP,resources/DY.BMP,Door3,-0.294444444,-0.008333333,1,0,0,0.6909,optionLeft,70,6115,3,27,0,27,0,1,,,,,,,,,,,,,,,,,,,,,,,,,,,,,,,,,,,,,,,
,,,,,,,,2023-08-16_08h21.21.237,HF_wild_card,2022.2.4,Win32,60.21557175,5ae96d1878b0060001e69b8a,64d2fd46c836a06233681665,64dc783a8a4a258588e6c0fa,,,,,,,ctch,resources/DR.BMP,resources/DY.BMP,Door4,0.297222222,0.000925912,1,0,0,0.609,optionRight,80,6195,3,28,0,28,0,1,,,,,,,,,,,,,,,,,,,,,,,,,,,,,,,,,,,,,,,
,,,,,,,,2023-08-16_08h21.21.237,HF_wild_card,2022.2.4,Win32,60.21557175,5ae96d1878b0060001e69b8a,64d2fd46c836a06233681665,64dc783a8a4a258588e6c0fa,,,,,,,decisionTrl,resources/DR.BMP,resources/DBN.BMP,Door1,-0.365740712,-0.088888889,1,0,0,0.5447,optionLeft,30,6225,3,29,0,29,0,1,,,,,,,,,,,,,,,,,,,,,,,,,,,,,,,,,,,,,,,
,,,,,,,,2023-08-16_08h21.21.237,HF_wild_card,2022.2.4,Win32,60.21557175,5ae96d1878b0060001e69b8a,64d2fd46c836a06233681665,64dc783a8a4a258588e6c0fa,,,,,,,decisionTrl,resources/DG.BMP,resources/DY.BMP,Door4,0.374074131,0.001851824,1,0,0,0.4802,optionRight,60,6285,3,30,0,30,0,1,,,,,,,,,,,,,,,,,,,,,,,,,,,,,,,,,,,,,,,
,,,,,,,,2023-08-16_08h21.21.237,HF_wild_card,2022.2.4,Win32,60.21557175,5ae96d1878b0060001e69b8a,64d2fd46c836a06233681665,64dc783a8a4a258588e6c0fa,,,,,,,decisionTrl,resources/DBN.BMP,resources/DR.BMP,Door1,0.293518575,-0.015740755,1,0,0,0.7938,optionRight,30,6315,3,31,0,31,0,1,,,,,,,,,,,,,,,,,,,,,,,,,,,,,,,,,,,,,,,
,,,,,,,,2023-08-16_08h21.21.237,HF_wild_card,2022.2.4,Win32,60.21557175,5ae96d1878b0060001e69b8a,64d2fd46c836a06233681665,64dc783a8a4a258588e6c0fa,,,,,,,decisionTrl,resources/DBN.BMP,resources/DR.BMP,Door2,-0.344444444,-0.040740755,1,0,0,0.5113,optionLeft,20,6335,3,32,0,32,0,1,,,,,,,,,,,,,,,,,,,,,,,,,,,,,,,,,,,,,,,
,,,,,,,,2023-08-16_08h21.21.237,HF_wild_card,2022.2.4,Win32,60.21557175,5ae96d1878b0060001e69b8a,64d2fd46c836a06233681665,64dc783a8a4a258588e6c0fa,,,,,,,decisionTrl,resources/DY.BMP,resources/DG.BMP,Door3,0.341666667,-0.017592621,1,0,0,0.4274,optionRight,70,6405,3,33,0,33,0,1,,,,,,,,,,,,,,,,,,,,,,,,,,,,,,,,,,,,,,,
,,,,,,,,2023-08-16_08h21.21.237,HF_wild_card,2022.2.4,Win32,60.21557175,5ae96d1878b0060001e69b8a,64d2fd46c836a06233681665,64dc783a8a4a258588e6c0fa,,,,,,,decisionTrl,resources/DY.BMP,resources/DG.BMP,Door4,-0.282407379,-0.025,1,0,0,0.6294,optionLeft,60,6465,3,34,0,34,0,1,,,,,,,,,,,,,,,,,,,,,,,,,,,,,,,,,,,,,,,
,,,,,,,,2023-08-16_08h21.21.237,HF_wild_card,2022.2.4,Win32,60.21557175,5ae96d1878b0060001e69b8a,64d2fd46c836a06233681665,64dc783a8a4a258588e6c0fa,,,,,,,decisionTrl,resources/DR.BMP,resources/DBN.BMP,Door1,-0.442592578,-0.116666667,1,0,0,0.7748,optionLeft,30,6495,3,35,0,35,0,1,,,,,,,,,,,,,,,,,,,,,,,,,,,,,,,,,,,,,,,
,,,,,,,,2023-08-16_08h21.21.237,HF_wild_card,2022.2.4,Win32,60.21557175,5ae96d1878b0060001e69b8a,64d2fd46c836a06233681665,64dc783a8a4a258588e6c0fa,,,,,,,decisionTrl,resources/DY.BMP,resources/DG.BMP,Door4,-0.412037023,-0.137037065,1,0,0,0.8834,optionLeft,80,6575,3,36,0,36,0,1,,,,,,,,,,,,,,,,,,,,,,,,,,,,,,,,,,,,,,,
,,,,,,,,2023-08-16_08h21.21.237,HF_wild_card,2022.2.4,Win32,60.21557175,5ae96d1878b0060001e69b8a,64d2fd46c836a06233681665,64dc783a8a4a258588e6c0fa,,,,,,,sngl,resources/DBN.BMP,resources/Empty.png,Door2,-0.355555556,-0.058333333,1,0,0,0.7174,optionLeft,40,6615,3,37,0,37,0,1,,,,,,,,,,,,,,,,,,,,,,,,,,,,,,,,,,,,,,,
,,,,,,,,2023-08-16_08h21.21.237,HF_wild_card,2022.2.4,Win32,60.21557175,5ae96d1878b0060001e69b8a,64d2fd46c836a06233681665,64dc783a8a4a258588e6c0fa,,,,,,,decisionTrl,resources/DP.BMP,resources/DR.BMP,WildCard_Ex,-0.276851824,-0.045370399,1,0,0,0.8667,optionLeft,95,6710,3,38,0,38,0,1,,,,,,,,,,,,,,,,,,,,,,,,,,,,,,,,,,,,,,,
,,,,,,,,2023-08-16_08h21.21.237,HF_wild_card,2022.2.4,Win32,60.21557175,5ae96d1878b0060001e69b8a,64d2fd46c836a06233681665,64dc783a8a4a258588e6c0fa,,,,,,,sngl,resources/Empty.png,resources/DBN.BMP,Door2,0.472222222,-0.064814843,1,0,0,0.5804,optionRight,20,6730,3,39,0,39,0,1,,,,,,,,,,,,,,,,,,,,,,,,,,,,,,,,,,,,,,,
,,,,,,,,2023-08-16_08h21.21.237,HF_wild_card,2022.2.4,Win32,60.21557175,5ae96d1878b0060001e69b8a,64d2fd46c836a06233681665,64dc783a8a4a258588e6c0fa,,,,,,,decisionTrl,resources/DR.BMP,resources/DBN.BMP,Door1,-0.39351849,-0.037037065,1,0,0,0.6044,optionLeft,30,6760,3,40,0,40,0,1,,,,,,,,,,,,,,,,,,,,,,,,,,,,,,,,,,,,,,,
,,,,,,,,2023-08-16_08h21.21.237,HF_wild_card,2022.2.4,Win32,60.21557175,5ae96d1878b0060001e69b8a,64d2fd46c836a06233681665,64dc783a8a4a258588e6c0fa,,,,,,,sngl,resources/DR.BMP,resources/Empty.png,Door1,-0.291666667,-0.042592621,1,0,0,0.4779,optionLeft,30,6790,3,41,0,41,0,1,,,,,,,,,,,,,,,,,,,,,,,,,,,,,,,,,,,,,,,
,,,,,,,,2023-08-16_08h21.21.237,HF_wild_card,2022.2.4,Win32,60.21557175,5ae96d1878b0060001e69b8a,64d2fd46c836a06233681665,64dc783a8a4a258588e6c0fa,,,,,,,decisionTrl,resources/DBN.BMP,resources/DP.BMP,WildCard_Ex,0.437037065,-0.05,1,0,0,0.578,optionRight,5,6795,3,42,0,42,0,1,,,,,,,,,,,,,,,,,,,,,,,,,,,,,,,,,,,,,,,
,,,,,,,,2023-08-16_08h21.21.237,HF_wild_card,2022.2.4,Win32,60.21557175,5ae96d1878b0060001e69b8a,64d2fd46c836a06233681665,64dc783a8a4a258588e6c0fa,,,,,,,sngl,resources/Empty.png,resources/DR.BMP,Door1,0.275,-0.030555556,1,0,0,0.4966,optionRight,30,6825,3,43,0,43,0,1,,,,,,,,,,,,,,,,,,,,,,,,,,,,,,,,,,,,,,,
,,,,,,,,2023-08-16_08h21.21.237,HF_wild_card,2022.2.4,Win32,60.21557175,5ae96d1878b0060001e69b8a,64d2fd46c836a06233681665,64dc783a8a4a258588e6c0fa,,,,,,,,,,,,,,,,,,,,,,,,,,2,0,2,0,1,,,,,,,,,,,,,,,,,,,,,,,,,,,,,,,,,,
,,,,,,,,2023-08-16_08h21.21.237,HF_wild_card,2022.2.4,Win32,60.21557175,5ae96d1878b0060001e69b8a,64d2fd46c836a06233681665,64dc783a8a4a258588e6c0fa,,,,,,,decisionTrl,resources/DBN.BMP,resources/DR.BMP,Door1,0.340740797,-0.049074088,1,0,0,1.3563,optionRight,30,6855,4,0,0,0,0,1,,,,,,,,,,,,,,,,,,,,,,,,,,,,,,,,,,,,,,,
,,,,,,,,2023-08-16_08h21.21.237,HF_wild_card,2022.2.4,Win32,60.21557175,5ae96d1878b0060001e69b8a,64d2fd46c836a06233681665,64dc783a8a4a258588e6c0fa,,,,,,,decisionTrl,resources/DG.BMP,resources/DY.BMP,Door4,0.4,-0.042592621,1,0,0,0.4463,optionRight,80,6935,4,1,0,1,0,1,,,,,,,,,,,,,,,,,,,,,,,,,,,,,,,,,,,,,,,
,,,,,,,,2023-08-16_08h21.21.237,HF_wild_card,2022.2.4,Win32,60.21557175,5ae96d1878b0060001e69b8a,64d2fd46c836a06233681665,64dc783a8a4a258588e6c0fa,,,,,,,decisionTrl,resources/DR.BMP,resources/DBN.BMP,Door1,-0.252777778,-0.005555556,1,0,0,0.5416,optionLeft,30,6965,4,2,0,2,0,1,,,,,,,,,,,,,,,,,,,,,,,,,,,,,,,,,,,,,,,
,,,,,,,,2023-08-16_08h21.21.237,HF_wild_card,2022.2.4,Win32,60.21557175,5ae96d1878b0060001e69b8a,64d2fd46c836a06233681665,64dc783a8a4a258588e6c0fa,,,,,,,decisionTrl,resources/DR.BMP,resources/DB.BMP,Door1,-0.389814801,-0.113888889,1,0,0,0.5964,optionLeft,30,6995,4,3,0,3,0,1,,,,,,,,,,,,,,,,,,,,,,,,,,,,,,,,,,,,,,,
,,,,,,,,2023-08-16_08h21.21.237,HF_wild_card,2022.2.4,Win32,60.21557175,5ae96d1878b0060001e69b8a,64d2fd46c836a06233681665,64dc783a8a4a258588e6c0fa,,,,,,,decisionTrl,resources/DB.BMP,resources/DBN.BMP,WildCard_NonEx,-0.402777778,-0.092592621,1,0,0,0.601,optionLeft,45,7040,4,4,0,4,0,1,,,,,,,,,,,,,,,,,,,,,,,,,,,,,,,,,,,,,,,
,,,,,,,,2023-08-16_08h21.21.237,HF_wild_card,2022.2.4,Win32,60.21557175,5ae96d1878b0060001e69b8a,64d2fd46c836a06233681665,64dc783a8a4a258588e6c0fa,,,,,,,ctch,resources/DY.BMP,resources/DR.BMP,Door1,0.394444444,-0.076851866,1,0,0,0.4825,optionRight,30,7070,4,5,0,5,0,1,,,,,,,,,,,,,,,,,,,,,,,,,,,,,,,,,,,,,,,
,,,,,,,,2023-08-16_08h21.21.237,HF_wild_card,2022.2.4,Win32,60.21557175,5ae96d1878b0060001e69b8a,64d2fd46c836a06233681665,64dc783a8a4a258588e6c0fa,,,,,,,ctch,resources/DG.BMP,resources/DBN.BMP,Door3,-0.337037023,-0.062037065,1,0,0,0.5022,optionLeft,70,7140,4,6,0,6,0,1,,,,,,,,,,,,,,,,,,,,,,,,,,,,,,,,,,,,,,,
,,,,,,,,2023-08-16_08h21.21.237,HF_wild_card,2022.2.4,Win32,60.21557175,5ae96d1878b0060001e69b8a,64d2fd46c836a06233681665,64dc783a8a4a258588e6c0fa,,,,,,,sngl,resources/Empty.png,resources/DB.BMP,WildCard_NonEx,0.440740797,-0.078703732,1,0,0,0.4288,optionRight,55,7195,4,7,0,7,0,1,,,,,,,,,,,,,,,,,,,,,,,,,,,,,,,,,,,,,,,
,,,,,,,,2023-08-16_08h21.21.237,HF_wild_card,2022.2.4,Win32,60.21557175,5ae96d1878b0060001e69b8a,64d2fd46c836a06233681665,64dc783a8a4a258588e6c0fa,,,,,,,decisionTrl,resources/DG.BMP,resources/DY.BMP,Door3,-0.306481467,-0.040740755,1,0,0,0.4305,optionLeft,70,7265,4,8,0,8,0,1,,,,,,,,,,,,,,,,,,,,,,,,,,,,,,,,,,,,,,,
,,,,,,,,2023-08-16_08h21.21.237,HF_wild_card,2022.2.4,Win32,60.21557175,5ae96d1878b0060001e69b8a,64d2fd46c836a06233681665,64dc783a8a4a258588e6c0fa,,,,,,,decisionTrl,resources/DBN.BMP,resources/DB.BMP,WildCard_NonEx,0.292592621,-0.035185199,1,0,0,1.0117,optionRight,45,7310,4,9,0,9,0,1,,,,,,,,,,,,,,,,,,,,,,,,,,,,,,,,,,,,,,,
,,,,,,,,2023-08-16_08h21.21.237,HF_wild_card,2022.2.4,Win32,60.21557175,5ae96d1878b0060001e69b8a,64d2fd46c836a06233681665,64dc783a8a4a258588e6c0fa,,,,,,,ctch,resources/DY.BMP,resources/DR.BMP,Door4,-0.362962935,-0.05648151,1,0,0,0.5338,optionLeft,60,7370,4,10,0,10,0,1,,,,,,,,,,,,,,,,,,,,,,,,,,,,,,,,,,,,,,,
,,,,,,,,2023-08-16_08h21.21.237,HF_wild_card,2022.2.4,Win32,60.21557175,5ae96d1878b0060001e69b8a,64d2fd46c836a06233681665,64dc783a8a4a258588e6c0fa,,,,,,,sngl,resources/DB.BMP,resources/Empty.png,WildCard_NonEx,-0.261111111,-0.079629644,1,0,0,0.5635,optionLeft,55,7425,4,11,0,11,0,1,,,,,,,,,,,,,,,,,,,,,,,,,,,,,,,,,,,,,,,
,,,,,,,,2023-08-16_08h21.21.237,HF_wild_card,2022.2.4,Win32,60.21557175,5ae96d1878b0060001e69b8a,64d2fd46c836a06233681665,64dc783a8a4a258588e6c0fa,,,,,,,sngl,resources/Empty.png,resources/DBN.BMP,Door2,0.40648151,-0.086111111,1,0,0,0.5025,optionRight,40,7465,4,12,0,12,0,1,,,,,,,,,,,,,,,,,,,,,,,,,,,,,,,,,,,,,,,
,,,,,,,,2023-08-16_08h21.21.237,HF_wild_card,2022.2.4,Win32,60.21557175,5ae96d1878b0060001e69b8a,64d2fd46c836a06233681665,64dc783a8a4a258588e6c0fa,,,,,,,sngl,resources/DY.BMP,resources/Empty.png,Door4,-0.306481467,-0.060185199,1,0,0,0.4987,optionLeft,60,7525,4,13,0,13,0,1,,,,,,,,,,,,,,,,,,,,,,,,,,,,,,,,,,,,,,,
,,,,,,,,2023-08-16_08h21.21.237,HF_wild_card,2022.2.4,Win32,60.21557175,5ae96d1878b0060001e69b8a,64d2fd46c836a06233681665,64dc783a8a4a258588e6c0fa,,,,,,,sngl,resources/Empty.png,resources/DB.BMP,WildCard_NonEx,0.486111111,-0.039814843,1,0,0,0.408,optionRight,45,7570,4,14,0,14,0,1,,,,,,,,,,,,,,,,,,,,,,,,,,,,,,,,,,,,,,,
,,,,,,,,2023-08-16_08h21.21.237,HF_wild_card,2022.2.4,Win32,60.21557175,5ae96d1878b0060001e69b8a,64d2fd46c836a06233681665,64dc783a8a4a258588e6c0fa,,,,,,,ctch,resources/DR.BMP,resources/DY.BMP,Door1,-0.396296268,-0.05648151,1,0,0,0.5104,optionLeft,30,7600,4,15,0,15,0,1,,,,,,,,,,,,,,,,,,,,,,,,,,,,,,,,,,,,,,,
,,,,,,,,2023-08-16_08h21.21.237,HF_wild_card,2022.2.4,Win32,60.21557175,5ae96d1878b0060001e69b8a,64d2fd46c836a06233681665,64dc783a8a4a258588e6c0fa,,,,,,,sngl,resources/Empty.png,resources/DG.BMP,Door3,0.305555556,-0.066666667,1,0,0,0.4114,optionRight,70,7670,4,16,0,16,0,1,,,,,,,,,,,,,,,,,,,,,,,,,,,,,,,,,,,,,,,
,,,,,,,,2023-08-16_08h21.21.237,HF_wild_card,2022.2.4,Win32,60.21557175,5ae96d1878b0060001e69b8a,64d2fd46c836a06233681665,64dc783a8a4a258588e6c0fa,,,,,,,decisionTrl,resources/DY.BMP,resources/DB.BMP,Door4,-0.449074046,-0.058333333,1,0,0,0.4118,optionLeft,60,7730,4,17,0,17,0,1,,,,,,,,,,,,,,,,,,,,,,,,,,,,,,,,,,,,,,,
,,,,,,,,2023-08-16_08h21.21.237,HF_wild_card,2022.2.4,Win32,60.21557175,5ae96d1878b0060001e69b8a,64d2fd46c836a06233681665,64dc783a8a4a258588e6c0fa,,,,,,,decisionTrl,resources/DG.BMP,resources/DY.BMP,Door4,0.518518575,-0.103703732,1,0,0,0.4017,optionRight,80,7810,4,18,0,18,0,1,,,,,,,,,,,,,,,,,,,,,,,,,,,,,,,,,,,,,,,
,,,,,,,,2023-08-16_08h21.21.237,HF_wild_card,2022.2.4,Win32,60.21557175,5ae96d1878b0060001e69b8a,64d2fd46c836a06233681665,64dc783a8a4a258588e6c0fa,,,,,,,decisionTrl,resources/DY.BMP,resources/DG.BMP,Door4,-0.373148134,-0.069444444,1,0,0,0.4807,optionLeft,60,7870,4,19,0,19,0,1,,,,,,,,,,,,,,,,,,,,,,,,,,,,,,,,,,,,,,,
,,,,,,,,2023-08-16_08h21.21.237,HF_wild_card,2022.2.4,Win32,60.21557175,5ae96d1878b0060001e69b8a,64d2fd46c836a06233681665,64dc783a8a4a258588e6c0fa,,,,,,,ctch,resources/DG.BMP,resources/DBN.BMP,Door3,-0.499074046,-0.068518533,1,0,0,0.6726,optionLeft,70,7940,4,20,0,20,0,1,,,,,,,,,,,,,,,,,,,,,,,,,,,,,,,,,,,,,,,
,,,,,,,,2023-08-16_08h21.21.237,HF_wild_card,2022.2.4,Win32,60.21557175,5ae96d1878b0060001e69b8a,64d2fd46c836a06233681665,64dc783a8a4a258588e6c0fa,,,,,,,decisionTrl,resources/DB.BMP,resources/DR.BMP,Door1,0.589814928,-0.120370399,1,0,0,0.5284,optionRight,30,7970,4,21,0,21,0,1,,,,,,,,,,,,,,,,,,,,,,,,,,,,,,,,,,,,,,,
,,,,,,,,2023-08-16_08h21.21.237,HF_wild_card,2022.2.4,Win32,60.21557175,5ae96d1878b0060001e69b8a,64d2fd46c836a06233681665,64dc783a8a4a258588e6c0fa,,,,,,,ctch,resources/DBN.BMP,resources/DG.BMP,Door3,0.317592621,-0.024074088,1,0,0,0.6468,optionRight,70,8040,4,22,0,22,0,1,,,,,,,,,,,,,,,,,,,,,,,,,,,,,,,,,,,,,,,
,,,,,,,,2023-08-16_08h21.21.237,HF_wild_card,2022.2.4,Win32,60.21557175,5ae96d1878b0060001e69b8a,64d2fd46c836a06233681665,64dc783a8a4a258588e6c0fa,,,,,,,decisionTrl,resources/DR.BMP,resources/DBN.BMP,Door1,-0.399074046,-0.067592621,1,0,0,0.4928,optionLeft,30,8070,4,23,0,23,0,1,,,,,,,,,,,,,,,,,,,,,,,,,,,,,,,,,,,,,,,
,,,,,,,,2023-08-16_08h21.21.237,HF_wild_card,2022.2.4,Win32,60.21557175,5ae96d1878b0060001e69b8a,64d2fd46c836a06233681665,64dc783a8a4a258588e6c0fa,,,,,,,sngl,resources/DR.BMP,resources/Empty.png,Door1,-0.487962935,-0.068518533,1,0,0,0.5251,optionLeft,30,8100,4,24,0,24,0,1,,,,,,,,,,,,,,,,,,,,,,,,,,,,,,,,,,,,,,,
,,,,,,,,2023-08-16_08h21.21.237,HF_wild_card,2022.2.4,Win32,60.21557175,5ae96d1878b0060001e69b8a,64d2fd46c836a06233681665,64dc783a8a4a258588e6c0fa,,,,,,,sngl,resources/DB.BMP,resources/Empty.png,WildCard_NonEx,-0.439814801,-0.082407422,1,0,0,0.4251,optionLeft,45,8145,4,25,0,25,0,1,,,,,,,,,,,,,,,,,,,,,,,,,,,,,,,,,,,,,,,
,,,,,,,,2023-08-16_08h21.21.237,HF_wild_card,2022.2.4,Win32,60.21557175,5ae96d1878b0060001e69b8a,64d2fd46c836a06233681665,64dc783a8a4a258588e6c0fa,,,,,,,decisionTrl,resources/DY.BMP,resources/DG.BMP,Door4,-0.325925912,-0.052777778,1,0,0,0.61,optionLeft,60,8205,4,26,0,26,0,1,,,,,,,,,,,,,,,,,,,,,,,,,,,,,,,,,,,,,,,
,,,,,,,,2023-08-16_08h21.21.237,HF_wild_card,2022.2.4,Win32,60.21557175,5ae96d1878b0060001e69b8a,64d2fd46c836a06233681665,64dc783a8a4a258588e6c0fa,,,,,,,decisionTrl,resources/DBN.BMP,resources/DR.BMP,Door1,0.427777778,-0.022222222,1,0,0,0.5792,optionRight,30,8235,4,27,0,27,0,1,,,,,,,,,,,,,,,,,,,,,,,,,,,,,,,,,,,,,,,
,,,,,,,,2023-08-16_08h21.21.237,HF_wild_card,2022.2.4,Win32,60.21557175,5ae96d1878b0060001e69b8a,64d2fd46c836a06233681665,64dc783a8a4a258588e6c0fa,,,,,,,decisionTrl,resources/DR.BMP,resources/DBN.BMP,Door1,-0.431481467,-0.053703732,1,0,0,0.5451,optionLeft,30,8265,4,28,0,28,0,1,,,,,,,,,,,,,,,,,,,,,,,,,,,,,,,,,,,,,,,
,,,,,,,,2023-08-16_08h21.21.237,HF_wild_card,2022.2.4,Win32,60.21557175,5ae96d1878b0060001e69b8a,64d2fd46c836a06233681665,64dc783a8a4a258588e6c0fa,,,,,,,decisionTrl,resources/DBN.BMP,resources/DR.BMP,Door1,0.493518575,-0.040740755,1,0,0,0.3947,optionRight,30,8295,4,29,0,29,0,1,,,,,,,,,,,,,,,,,,,,,,,,,,,,,,,,,,,,,,,
,,,,,,,,2023-08-16_08h21.21.237,HF_wild_card,2022.2.4,Win32,60.21557175,5ae96d1878b0060001e69b8a,64d2fd46c836a06233681665,64dc783a8a4a258588e6c0fa,,,,,,,decisionTrl,resources/DY.BMP,resources/DG.BMP,Door4,-0.365740712,-0.03148151,1,0,0,0.4281,optionLeft,60,8355,4,30,0,30,0,1,,,,,,,,,,,,,,,,,,,,,,,,,,,,,,,,,,,,,,,
,,,,,,,,2023-08-16_08h21.21.237,HF_wild_card,2022.2.4,Win32,60.21557175,5ae96d1878b0060001e69b8a,64d2fd46c836a06233681665,64dc783a8a4a258588e6c0fa,,,,,,,decisionTrl,resources/DB.BMP,resources/DG.BMP,Door3,0.425925954,-0.024074088,1,0,0,0.4233,optionRight,70,8425,4,31,0,31,0,1,,,,,,,,,,,,,,,,,,,,,,,,,,,,,,,,,,,,,,,
,,,,,,,,2023-08-16_08h21.21.237,HF_wild_card,2022.2.4,Win32,60.21557175,5ae96d1878b0060001e69b8a,64d2fd46c836a06233681665,64dc783a8a4a258588e6c0fa,,,,,,,decisionTrl,resources/DG.BMP,resources/DY.BMP,Door3,-0.383333333,-0.050925954,1,0,0,0.445,optionLeft,70,8495,4,32,0,32,0,1,,,,,,,,,,,,,,,,,,,,,,,,,,,,,,,,,,,,,,,
,,,,,,,,2023-08-16_08h21.21.237,HF_wild_card,2022.2.4,Win32,60.21557175,5ae96d1878b0060001e69b8a,64d2fd46c836a06233681665,64dc783a8a4a258588e6c0fa,,,,,,,sngl,resources/DG.BMP,resources/Empty.png,Door3,-0.392592578,-0.083333333,1,0,0,0.5413,optionLeft,70,8565,4,33,0,33,0,1,,,,,,,,,,,,,,,,,,,,,,,,,,,,,,,,,,,,,,,
,,,,,,,,2023-08-16_08h21.21.237,HF_wild_card,2022.2.4,Win32,60.21557175,5ae96d1878b0060001e69b8a,64d2fd46c836a06233681665,64dc783a8a4a258588e6c0fa,,,,,,,decisionTrl,resources/DR.BMP,resources/DBN.BMP,Door1,-0.452777778,-0.084259288,1,0,0,0.6614,optionLeft,30,8595,4,34,0,34,0,1,,,,,,,,,,,,,,,,,,,,,,,,,,,,,,,,,,,,,,,
,,,,,,,,2023-08-16_08h21.21.237,HF_wild_card,2022.2.4,Win32,60.21557175,5ae96d1878b0060001e69b8a,64d2fd46c836a06233681665,64dc783a8a4a258588e6c0fa,,,,,,,ctch,resources/DBN.BMP,resources/DG.BMP,Door3,0.339814843,-0.069444444,1,0,0,0.4238,optionRight,70,8665,4,35,0,35,0,1,,,,,,,,,,,,,,,,,,,,,,,,,,,,,,,,,,,,,,,
,,,,,,,,2023-08-16_08h21.21.237,HF_wild_card,2022.2.4,Win32,60.21557175,5ae96d1878b0060001e69b8a,64d2fd46c836a06233681665,64dc783a8a4a258588e6c0fa,,,,,,,sngl,resources/DBN.BMP,resources/Empty.png,Door2,-0.466666667,-0.038888889,1,0,0,0.3906,optionLeft,20,8685,4,36,0,36,0,1,,,,,,,,,,,,,,,,,,,,,,,,,,,,,,,,,,,,,,,
,,,,,,,,2023-08-16_08h21.21.237,HF_wild_card,2022.2.4,Win32,60.21557175,5ae96d1878b0060001e69b8a,64d2fd46c836a06233681665,64dc783a8a4a258588e6c0fa,,,,,,,ctch,resources/DR.BMP,resources/DY.BMP,Door4,0.482407464,-0.070370399,1,0,0,0.3802,optionRight,60,8745,4,37,0,37,0,1,,,,,,,,,,,,,,,,,,,,,,,,,,,,,,,,,,,,,,,
,,,,,,,,2023-08-16_08h21.21.237,HF_wild_card,2022.2.4,Win32,60.21557175,5ae96d1878b0060001e69b8a,64d2fd46c836a06233681665,64dc783a8a4a258588e6c0fa,,,,,,,decisionTrl,resources/DG.BMP,resources/DB.BMP,Door3,-0.342592578,-0.04629631,1,0,0,0.4777,optionLeft,70,8815,4,38,0,38,0,1,,,,,,,,,,,,,,,,,,,,,,,,,,,,,,,,,,,,,,,
,,,,,,,,2023-08-16_08h21.21.237,HF_wild_card,2022.2.4,Win32,60.21557175,5ae96d1878b0060001e69b8a,64d2fd46c836a06233681665,64dc783a8a4a258588e6c0fa,,,,,,,decisionTrl,resources/DB.BMP,resources/DY.BMP,Door4,0.332407464,-0.008333333,1,0,0,0.5604,optionRight,60,8875,4,39,0,39,0,1,,,,,,,,,,,,,,,,,,,,,,,,,,,,,,,,,,,,,,,
,,,,,,,,2023-08-16_08h21.21.237,HF_wild_card,2022.2.4,Win32,60.21557175,5ae96d1878b0060001e69b8a,64d2fd46c836a06233681665,64dc783a8a4a258588e6c0fa,,,,,,,decisionTrl,resources/DBN.BMP,resources/DR.BMP,Door2,-0.252777778,-0.007407422,1,0,0,0.4767,optionLeft,20,8895,4,40,0,40,0,1,,,,,,,,,,,,,,,,,,,,,,,,,,,,,,,,,,,,,,,
,,,,,,,,2023-08-16_08h21.21.237,HF_wild_card,2022.2.4,Win32,60.21557175,5ae96d1878b0060001e69b8a,64d2fd46c836a06233681665,64dc783a8a4a258588e6c0fa,,,,,,,sngl,resources/Empty.png,resources/DR.BMP,Door1,0.335185242,-0.014814843,1,0,0,0.3807,optionRight,30,8925,4,41,0,41,0,1,,,,,,,,,,,,,,,,,,,,,,,,,,,,,,,,,,,,,,,
,,,,,,,,2023-08-16_08h21.21.237,HF_wild_card,2022.2.4,Win32,60.21557175,5ae96d1878b0060001e69b8a,64d2fd46c836a06233681665,64dc783a8a4a258588e6c0fa,,,,,,,decisionTrl,resources/DY.BMP,resources/DG.BMP,Door4,-0.369444444,-0.013888889,1,0,0,0.4772,optionLeft,60,8985,4,42,0,42,0,1,,,,,,,,,,,,,,,,,,,,,,,,,,,,,,,,,,,,,,,
,,,,,,,,2023-08-16_08h21.21.237,HF_wild_card,2022.2.4,Win32,60.21557175,5ae96d1878b0060001e69b8a,64d2fd46c836a06233681665,64dc783a8a4a258588e6c0fa,,,,,,,sngl,resources/Empty.png,resources/DY.BMP,Door4,0.50648151,-0.023148176,1,0,0,0.3946,optionRight,80,9065,4,43,0,43,0,1,,,,,,,,,,,,,,,,,,,,,,,,,,,,,,,,,,,,,,,
,,,,,,,,2023-08-16_08h21.21.237,HF_wild_card,2022.2.4,Win32,60.21557175,5ae96d1878b0060001e69b8a,64d2fd46c836a06233681665,64dc783a8a4a258588e6c0fa,,,,,,,,,,,,,,,,,,,,,,,,,,3,0,3,0,1,,,,,,,,,,,,,,,,,,,,,,,,,,,,,,,,,,
,,,,,,,,2023-08-16_08h21.21.237,HF_wild_card,2022.2.4,Win32,60.21557175,5ae96d1878b0060001e69b8a,64d2fd46c836a06233681665,64dc783a8a4a258588e6c0fa,,,,,,,ctch,resources/DBN.BMP,resources/DG.BMP,Door3,0.424074131,-0.134259288,1,0,0,0.8201,optionRight,70,9135,5,0,0,0,0,1,,,,,,,,,,,,,,,,,,,,,,,,,,,,,,,,,,,,,,,
,,,,,,,,2023-08-16_08h21.21.237,HF_wild_card,2022.2.4,Win32,60.21557175,5ae96d1878b0060001e69b8a,64d2fd46c836a06233681665,64dc783a8a4a258588e6c0fa,,,,,,,decisionTrl,resources/DG.BMP,resources/DY.BMP,Door3,-0.287962935,-0.125,1,0,0,0.733,optionLeft,70,9205,5,1,0,1,0,1,,,,,,,,,,,,,,,,,,,,,,,,,,,,,,,,,,,,,,,
,,,,,,,,2023-08-16_08h21.21.237,HF_wild_card,2022.2.4,Win32,60.21557175,5ae96d1878b0060001e69b8a,64d2fd46c836a06233681665,64dc783a8a4a258588e6c0fa,,,,,,,decisionTrl,resources/DR.BMP,resources/DBN.BMP,Door1,-0.34351849,-0.079629644,1,0,0,0.7748,optionLeft,30,9235,5,2,0,2,0,1,,,,,,,,,,,,,,,,,,,,,,,,,,,,,,,,,,,,,,,
,,,,,,,,2023-08-16_08h21.21.237,HF_wild_card,2022.2.4,Win32,60.21557175,5ae96d1878b0060001e69b8a,64d2fd46c836a06233681665,64dc783a8a4a258588e6c0fa,,,,,,,sngl,resources/Empty.png,resources/DB.BMP,WildCard_NonEx,0.297222222,0.05,1,0,0,0.7425,optionRight,45,9280,5,3,0,3,0,1,,,,,,,,,,,,,,,,,,,,,,,,,,,,,,,,,,,,,,,
,,,,,,,,2023-08-16_08h21.21.237,HF_wild_card,2022.2.4,Win32,60.21557175,5ae96d1878b0060001e69b8a,64d2fd46c836a06233681665,64dc783a8a4a258588e6c0fa,,,,,,,sngl,resources/Empty.png,resources/DB.BMP,WildCard_NonEx,0.217592621,-0.039814843,1,0,0,0.6517,optionRight,55,9335,5,4,0,4,0,1,,,,,,,,,,,,,,,,,,,,,,,,,,,,,,,,,,,,,,,
,,,,,,,,2023-08-16_08h21.21.237,HF_wild_card,2022.2.4,Win32,60.21557175,5ae96d1878b0060001e69b8a,64d2fd46c836a06233681665,64dc783a8a4a258588e6c0fa,,,,,,,sngl,resources/Empty.png,resources/DG.BMP,Door3,0.499074131,-0.051851866,1,0,0,0.5562,optionRight,70,9405,5,5,0,5,0,1,,,,,,,,,,,,,,,,,,,,,,,,,,,,,,,,,,,,,,,
,,,,,,,,2023-08-16_08h21.21.237,HF_wild_card,2022.2.4,Win32,60.21557175,5ae96d1878b0060001e69b8a,64d2fd46c836a06233681665,64dc783a8a4a258588e6c0fa,,,,,,,ctch,resources/DY.BMP,resources/DR.BMP,Door1,0.224074131,0.008333333,1,0,0,0.6767,optionRight,30,9435,5,6,0,6,0,1,,,,,,,,,,,,,,,,,,,,,,,,,,,,,,,,,,,,,,,
,,,,,,,,2023-08-16_08h21.21.237,HF_wild_card,2022.2.4,Win32,60.21557175,5ae96d1878b0060001e69b8a,64d2fd46c836a06233681665,64dc783a8a4a258588e6c0fa,,,,,,,sngl,resources/DR.BMP,resources/Empty.png,Door1,-0.460185157,-0.014814843,1,0,0,0.9298,optionLeft,30,9465,5,7,0,7,0,1,,,,,,,,,,,,,,,,,,,,,,,,,,,,,,,,,,,,,,,
,,,,,,,,2023-08-16_08h21.21.237,HF_wild_card,2022.2.4,Win32,60.21557175,5ae96d1878b0060001e69b8a,64d2fd46c836a06233681665,64dc783a8a4a258588e6c0fa,,,,,,,sngl,resources/Empty.png,resources/DR.BMP,Door1,0.298148176,0,1,0,0,0.7424,optionRight,30,9495,5,8,0,8,0,1,,,,,,,,,,,,,,,,,,,,,,,,,,,,,,,,,,,,,,,
,,,,,,,,2023-08-16_08h21.21.237,HF_wild_card,2022.2.4,Win32,60.21557175,5ae96d1878b0060001e69b8a,64d2fd46c836a06233681665,64dc783a8a4a258588e6c0fa,,,,,,,ctch,resources/DG.BMP,resources/DBN.BMP,Door3,-0.31851849,-0.027777778,1,0,0,0.6771,optionLeft,70,9565,5,9,0,9,0,1,,,,,,,,,,,,,,,,,,,,,,,,,,,,,,,,,,,,,,,
,,,,,,,,2023-08-16_08h21.21.237,HF_wild_card,2022.2.4,Win32,60.21557175,5ae96d1878b0060001e69b8a,64d2fd46c836a06233681665,64dc783a8a4a258588e6c0fa,,,,,,,decisionTrl,resources/DB.BMP,resources/DBN.BMP,WildCard_NonEx,-0.324074046,0.048148134,1,0,0,0.6883,optionLeft,55,9620,5,10,0,10,0,1,,,,,,,,,,,,,,,,,,,,,,,,,,,,,,,,,,,,,,,
,,,,,,,,2023-08-16_08h21.21.237,HF_wild_card,2022.2.4,Win32,60.21557175,5ae96d1878b0060001e69b8a,64d2fd46c836a06233681665,64dc783a8a4a258588e6c0fa,,,,,,,sngl,resources/Empty.png,resources/DBN.BMP,Door2,0.510185242,0.006481467,1,0,0,0.6261,optionRight,20,9640,5,11,0,11,0,1,,,,,,,,,,,,,,,,,,,,,,,,,,,,,,,,,,,,,,,
,,,,,,,,2023-08-16_08h21.21.237,HF_wild_card,2022.2.4,Win32,60.21557175,5ae96d1878b0060001e69b8a,64d2fd46c836a06233681665,64dc783a8a4a258588e6c0fa,,,,,,,decisionTrl,resources/DBN.BMP,resources/DR.BMP,Door2,-0.544444444,0.015740712,1,0,0,0.9638,optionLeft,40,9680,5,12,0,12,0,1,,,,,,,,,,,,,,,,,,,,,,,,,,,,,,,,,,,,,,,
,,,,,,,,2023-08-16_08h21.21.237,HF_wild_card,2022.2.4,Win32,60.21557175,5ae96d1878b0060001e69b8a,64d2fd46c836a06233681665,64dc783a8a4a258588e6c0fa,,,,,,,decisionTrl,resources/DB.BMP,resources/DY.BMP,Door4,0.299074131,-0.034259288,1,0,0,36.4683,optionRight,60,9740,5,13,0,13,0,1,,,,,,,,,,,,,,,,,,,,,,,,,,,,,,,,,,,,,,,
,,,,,,,,2023-08-16_08h21.21.237,HF_wild_card,2022.2.4,Win32,60.21557175,5ae96d1878b0060001e69b8a,64d2fd46c836a06233681665,64dc783a8a4a258588e6c0fa,,,,,,,decisionTrl,resources/DBN.BMP,resources/DB.BMP,Door2,-0.357407379,0.048148134,1,0,0,0.6166,optionLeft,40,9780,5,14,0,14,0,1,,,,,,,,,,,,,,,,,,,,,,,,,,,,,,,,,,,,,,,
,,,,,,,,2023-08-16_08h21.21.237,HF_wild_card,2022.2.4,Win32,60.21557175,5ae96d1878b0060001e69b8a,64d2fd46c836a06233681665,64dc783a8a4a258588e6c0fa,,,,,,,sngl,resources/DG.BMP,resources/Empty.png,Door3,-0.295370356,-0.05,1,0,0,1.5483,optionLeft,70,9850,5,15,0,15,0,1,,,,,,,,,,,,,,,,,,,,,,,,,,,,,,,,,,,,,,,
,,,,,,,,2023-08-16_08h21.21.237,HF_wild_card,2022.2.4,Win32,60.21557175,5ae96d1878b0060001e69b8a,64d2fd46c836a06233681665,64dc783a8a4a258588e6c0fa,,,,,,,ctch,resources/DG.BMP,resources/DBN.BMP,Door3,-0.356481467,-0.024074088,1,0,0,2.5564,optionLeft,70,9920,5,16,0,16,0,1,,,,,,,,,,,,,,,,,,,,,,,,,,,,,,,,,,,,,,,
,,,,,,,,2023-08-16_08h21.21.237,HF_wild_card,2022.2.4,Win32,60.21557175,5ae96d1878b0060001e69b8a,64d2fd46c836a06233681665,64dc783a8a4a258588e6c0fa,,,,,,,decisionTrl,resources/DBN.BMP,resources/DR.BMP,Door1,0.282407464,0.019444444,1,0,0,1.0011,optionRight,30,9950,5,17,0,17,0,1,,,,,,,,,,,,,,,,,,,,,,,,,,,,,,,,,,,,,,,
,,,,,,,,2023-08-16_08h21.21.237,HF_wild_card,2022.2.4,Win32,60.21557175,5ae96d1878b0060001e69b8a,64d2fd46c836a06233681665,64dc783a8a4a258588e6c0fa,,,,,,,decisionTrl,resources/DR.BMP,resources/DBN.BMP,Door1,-0.292592578,0.014814801,1,0,0,0.857,optionLeft,30,9980,5,18,0,18,0,1,,,,,,,,,,,,,,,,,,,,,,,,,,,,,,,,,,,,,,,
,,,,,,,,2023-08-16_08h21.21.237,HF_wild_card,2022.2.4,Win32,60.21557175,5ae96d1878b0060001e69b8a,64d2fd46c836a06233681665,64dc783a8a4a258588e6c0fa,,,,,,,decisionTrl,resources/DB.BMP,resources/DR.BMP,WildCard_NonEx,-0.260185157,0.014814801,1,0,0,3.9386,optionLeft,45,10025,5,19,0,19,0,1,,,,,,,,,,,,,,,,,,,,,,,,,,,,,,,,,,,,,,,
,,,,,,,,2023-08-16_08h21.21.237,HF_wild_card,2022.2.4,Win32,60.21557175,5ae96d1878b0060001e69b8a,64d2fd46c836a06233681665,64dc783a8a4a258588e6c0fa,,,,,,,ctch,resources/DR.BMP,resources/DY.BMP,Door4,0.349074131,0.069444444,1,0,0,1.7852,optionRight,80,10105,5,20,0,20,0,1,,,,,,,,,,,,,,,,,,,,,,,,,,,,,,,,,,,,,,,
,,,,,,,,2023-08-16_08h21.21.237,HF_wild_card,2022.2.4,Win32,60.21557175,5ae96d1878b0060001e69b8a,64d2fd46c836a06233681665,64dc783a8a4a258588e6c0fa,,,,,,,sngl,resources/Empty.png,resources/DY.BMP,Door4,0.258333333,-0.034259288,1,0,0,0.7746,optionRight,60,10165,5,21,0,21,0,1,,,,,,,,,,,,,,,,,,,,,,,,,,,,,,,,,,,,,,,
,,,,,,,,2023-08-16_08h21.21.237,HF_wild_card,2022.2.4,Win32,60.21557175,5ae96d1878b0060001e69b8a,64d2fd46c836a06233681665,64dc783a8a4a258588e6c0fa,,,,,,,decisionTrl,resources/DR.BMP,resources/DBN.BMP,Door1,-0.436111111,-0.022222222,1,0,0,2.3864,optionLeft,30,10195,5,22,0,22,0,1,,,,,,,,,,,,,,,,,,,,,,,,,,,,,,,,,,,,,,,
,,,,,,,,2023-08-16_08h21.21.237,HF_wild_card,2022.2.4,Win32,60.21557175,5ae96d1878b0060001e69b8a,64d2fd46c836a06233681665,64dc783a8a4a258588e6c0fa,,,,,,,sngl,resources/DBN.BMP,resources/Empty.png,Door2,-0.211111111,0.037037023,1,0,0,0.9232,optionLeft,40,10235,5,23,0,23,0,1,,,,,,,,,,,,,,,,,,,,,,,,,,,,,,,,,,,,,,,
,,,,,,,,2023-08-16_08h21.21.237,HF_wild_card,2022.2.4,Win32,60.21557175,5ae96d1878b0060001e69b8a,64d2fd46c836a06233681665,64dc783a8a4a258588e6c0fa,,,,,,,decisionTrl,resources/DR.BMP,resources/DBN.BMP,Door1,-0.456481467,0.014814801,1,0,0,0.8688,optionLeft,30,10265,5,24,0,24,0,1,,,,,,,,,,,,,,,,,,,,,,,,,,,,,,,,,,,,,,,
,,,,,,,,2023-08-16_08h21.21.237,HF_wild_card,2022.2.4,Win32,60.21557175,5ae96d1878b0060001e69b8a,64d2fd46c836a06233681665,64dc783a8a4a258588e6c0fa,,,,,,,decisionTrl,resources/DG.BMP,resources/DY.BMP,Door4,0.266666667,0.037962935,1,0,0,1.5108,optionRight,60,10325,5,25,0,25,0,1,,,,,,,,,,,,,,,,,,,,,,,,,,,,,,,,,,,,,,,
,,,,,,,,2023-08-16_08h21.21.237,HF_wild_card,2022.2.4,Win32,60.21557175,5ae96d1878b0060001e69b8a,64d2fd46c836a06233681665,64dc783a8a4a258588e6c0fa,,,,,,,decisionTrl,resources/DG.BMP,resources/DY.BMP,Door4,0.408333333,0.038888889,1,0,0,2.345,optionRight,80,10405,5,26,0,26,0,1,,,,,,,,,,,,,,,,,,,,,,,,,,,,,,,,,,,,,,,
,,,,,,,,2023-08-16_08h21.21.237,HF_wild_card,2022.2.4,Win32,60.21557175,5ae96d1878b0060001e69b8a,64d2fd46c836a06233681665,64dc783a8a4a258588e6c0fa,,,,,,,decisionTrl,resources/DG.BMP,resources/DY.BMP,Door4,0.358333333,-0.017592621,1,0,0,0.7004,optionRight,60,10465,5,27,0,27,0,1,,,,,,,,,,,,,,,,,,,,,,,,,,,,,,,,,,,,,,,
,,,,,,,,2023-08-16_08h21.21.237,HF_wild_card,2022.2.4,Win32,60.21557175,5ae96d1878b0060001e69b8a,64d2fd46c836a06233681665,64dc783a8a4a258588e6c0fa,,,,,,,decisionTrl,resources/DR.BMP,resources/DB.BMP,Door1,-0.396296268,0.006481467,1,0,0,0.9302,optionLeft,30,10495,5,28,0,28,0,1,,,,,,,,,,,,,,,,,,,,,,,,,,,,,,,,,,,,,,,
,,,,,,,,2023-08-16_08h21.21.237,HF_wild_card,2022.2.4,Win32,60.21557175,5ae96d1878b0060001e69b8a,64d2fd46c836a06233681665,64dc783a8a4a258588e6c0fa,,,,,,,decisionTrl,resources/DY.BMP,resources/DB.BMP,Door4,-0.219444444,0.040740712,1,0,0,1.0215,optionLeft,60,10555,5,29,0,29,0,1,,,,,,,,,,,,,,,,,,,,,,,,,,,,,,,,,,,,,,,
,,,,,,,,2023-08-16_08h21.21.237,HF_wild_card,2022.2.4,Win32,60.21557175,5ae96d1878b0060001e69b8a,64d2fd46c836a06233681665,64dc783a8a4a258588e6c0fa,,,,,,,decisionTrl,resources/DBN.BMP,resources/DR.BMP,Door1,0.193518575,0.001851824,1,0,0,1.1363,optionRight,30,10585,5,30,0,30,0,1,,,,,,,,,,,,,,,,,,,,,,,,,,,,,,,,,,,,,,,
,,,,,,,,2023-08-16_08h21.21.237,HF_wild_card,2022.2.4,Win32,60.21557175,5ae96d1878b0060001e69b8a,64d2fd46c836a06233681665,64dc783a8a4a258588e6c0fa,,,,,,,ctch,resources/DY.BMP,resources/DR.BMP,Door4,-0.247222222,0.001851824,1,0,0,0.7956,optionLeft,60,10645,5,31,0,31,0,1,,,,,,,,,,,,,,,,,,,,,,,,,,,,,,,,,,,,,,,
,,,,,,,,2023-08-16_08h21.21.237,HF_wild_card,2022.2.4,Win32,60.21557175,5ae96d1878b0060001e69b8a,64d2fd46c836a06233681665,64dc783a8a4a258588e6c0fa,,,,,,,sngl,resources/DY.BMP,resources/Empty.png,Door4,-0.19351849,0.020370356,1,0,0,0.6903,optionLeft,80,10725,5,32,0,32,0,1,,,,,,,,,,,,,,,,,,,,,,,,,,,,,,,,,,,,,,,
,,,,,,,,2023-08-16_08h21.21.237,HF_wild_card,2022.2.4,Win32,60.21557175,5ae96d1878b0060001e69b8a,64d2fd46c836a06233681665,64dc783a8a4a258588e6c0fa,,,,,,,decisionTrl,resources/DY.BMP,resources/DG.BMP,Door4,-0.154629601,0.009259245,1,0,0,0.7917,optionLeft,60,10785,5,33,0,33,0,1,,,,,,,,,,,,,,,,,,,,,,,,,,,,,,,,,,,,,,,
,,,,,,,,2023-08-16_08h21.21.237,HF_wild_card,2022.2.4,Win32,60.21557175,5ae96d1878b0060001e69b8a,64d2fd46c836a06233681665,64dc783a8a4a258588e6c0fa,,,,,,,sngl,resources/DB.BMP,resources/Empty.png,WildCard_NonEx,-0.274074046,0.020370356,1,0,0,0.7267,optionLeft,45,10830,5,34,0,34,0,1,,,,,,,,,,,,,,,,,,,,,,,,,,,,,,,,,,,,,,,
,,,,,,,,2023-08-16_08h21.21.237,HF_wild_card,2022.2.4,Win32,60.21557175,5ae96d1878b0060001e69b8a,64d2fd46c836a06233681665,64dc783a8a4a258588e6c0fa,,,,,,,decisionTrl,resources/DBN.BMP,resources/DR.BMP,Door1,0.379629686,0.064814801,1,0,0,1.9163,optionRight,30,10860,5,35,0,35,0,1,,,,,,,,,,,,,,,,,,,,,,,,,,,,,,,,,,,,,,,
,,,,,,,,2023-08-16_08h21.21.237,HF_wild_card,2022.2.4,Win32,60.21557175,5ae96d1878b0060001e69b8a,64d2fd46c836a06233681665,64dc783a8a4a258588e6c0fa,,,,,,,ctch,resources/DR.BMP,resources/DY.BMP,Door4,0.394444444,0.025925912,1,0,0,0.7407,optionRight,60,10920,5,36,0,36,0,1,,,,,,,,,,,,,,,,,,,,,,,,,,,,,,,,,,,,,,,
,,,,,,,,2023-08-16_08h21.21.237,HF_wild_card,2022.2.4,Win32,60.21557175,5ae96d1878b0060001e69b8a,64d2fd46c836a06233681665,64dc783a8a4a258588e6c0fa,,,,,,,decisionTrl,resources/DY.BMP,resources/DG.BMP,Door4,-0.256481467,0.015740712,1,0,0,0.7599,optionLeft,60,10980,5,37,0,37,0,1,,,,,,,,,,,,,,,,,,,,,,,,,,,,,,,,,,,,,,,
,,,,,,,,2023-08-16_08h21.21.237,HF_wild_card,2022.2.4,Win32,60.21557175,5ae96d1878b0060001e69b8a,64d2fd46c836a06233681665,64dc783a8a4a258588e6c0fa,,,,,,,decisionTrl,resources/DG.BMP,resources/DB.BMP,Door3,-0.320370356,0.024074046,1,0,0,2.4911,optionLeft,70,11050,5,38,0,38,0,1,,,,,,,,,,,,,,,,,,,,,,,,,,,,,,,,,,,,,,,
,,,,,,,,2023-08-16_08h21.21.237,HF_wild_card,2022.2.4,Win32,60.21557175,5ae96d1878b0060001e69b8a,64d2fd46c836a06233681665,64dc783a8a4a258588e6c0fa,,,,,,,ctch,resources/DBN.BMP,resources/DG.BMP,Door3,0.619444444,-0.020370399,1,0,0,0.8605,optionRight,70,11120,5,39,0,39,0,1,,,,,,,,,,,,,,,,,,,,,,,,,,,,,,,,,,,,,,,
,,,,,,,,2023-08-16_08h21.21.237,HF_wild_card,2022.2.4,Win32,60.21557175,5ae96d1878b0060001e69b8a,64d2fd46c836a06233681665,64dc783a8a4a258588e6c0fa,,,,,,,decisionTrl,resources/DY.BMP,resources/DG.BMP,Door3,0.285185242,0.05370369,1,0,0,0.7486,optionRight,70,11190,5,40,0,40,0,1,,,,,,,,,,,,,,,,,,,,,,,,,,,,,,,,,,,,,,,
,,,,,,,,2023-08-16_08h21.21.237,HF_wild_card,2022.2.4,Win32,60.21557175,5ae96d1878b0060001e69b8a,64d2fd46c836a06233681665,64dc783a8a4a258588e6c0fa,,,,,,,sngl,resources/DB.BMP,resources/Empty.png,WildCard_NonEx,-0.261111111,0.036111111,1,0,0,0.7178,optionLeft,55,11245,5,41,0,41,0,1,,,,,,,,,,,,,,,,,,,,,,,,,,,,,,,,,,,,,,,
,,,,,,,,2023-08-16_08h21.21.237,HF_wild_card,2022.2.4,Win32,60.21557175,5ae96d1878b0060001e69b8a,64d2fd46c836a06233681665,64dc783a8a4a258588e6c0fa,,,,,,,decisionTrl,resources/DB.BMP,resources/DG.BMP,Door3,0.272222222,0.002777778,1,0,0,0.9986,optionRight,70,11315,5,42,0,42,0,1,,,,,,,,,,,,,,,,,,,,,,,,,,,,,,,,,,,,,,,
,,,,,,,,2023-08-16_08h21.21.237,HF_wild_card,2022.2.4,Win32,60.21557175,5ae96d1878b0060001e69b8a,64d2fd46c836a06233681665,64dc783a8a4a258588e6c0fa,,,,,,,decisionTrl,resources/DY.BMP,resources/DG.BMP,Door4,-0.208333333,0.006481467,1,0,0,0.8871,optionLeft,60,11375,5,43,0,43,0,1,,,,,,,,,,,,,,,,,,,,,,,,,,,,,,,,,,,,,,,
,,,,,,,,2023-08-16_08h21.21.237,HF_wild_card,2022.2.4,Win32,60.21557175,5ae96d1878b0060001e69b8a,64d2fd46c836a06233681665,64dc783a8a4a258588e6c0fa,,,,,,,,,,,,,,,,,,,,,,,,,,4,0,4,0,1,,,,,,,,,,,,,,,,,,,,,,,,,,,,,,,,,,
,,,,,,,,2023-08-16_08h21.21.237,HF_wild_card,2022.2.4,Win32,60.21557175,5ae96d1878b0060001e69b8a,64d2fd46c836a06233681665,64dc783a8a4a258588e6c0fa,,,,,,,ctch,resources/DY.BMP,resources/DR.BMP,Door4,-0.364814801,-0.098148176,1,0,0,1.0318,optionLeft,80,11455,6,0,0,0,0,1,,,,,,,,,,,,,,,,,,,,,,,,,,,,,,,,,,,,,,,
,,,,,,,,2023-08-16_08h21.21.237,HF_wild_card,2022.2.4,Win32,60.21557175,5ae96d1878b0060001e69b8a,64d2fd46c836a06233681665,64dc783a8a4a258588e6c0fa,,,,,,,decisionTrl,resources/DB.BMP,resources/DR.BMP,WildCard_NonEx,-0.217592578,-0.012962977,1,0,0,1.8575,optionLeft,45,11500,6,1,0,1,0,1,,,,,,,,,,,,,,,,,,,,,,,,,,,,,,,,,,,,,,,
,,,,,,,,2023-08-16_08h21.21.237,HF_wild_card,2022.2.4,Win32,60.21557175,5ae96d1878b0060001e69b8a,64d2fd46c836a06233681665,64dc783a8a4a258588e6c0fa,,,,,,,decisionTrl,resources/DG.BMP,resources/DB.BMP,Door3,-0.189814801,0.040740712,1,0,0,2.0672,optionLeft,70,11570,6,2,0,2,0,1,,,,,,,,,,,,,,,,,,,,,,,,,,,,,,,,,,,,,,,
,,,,,,,,2023-08-16_08h21.21.237,HF_wild_card,2022.2.4,Win32,60.21557175,5ae96d1878b0060001e69b8a,64d2fd46c836a06233681665,64dc783a8a4a258588e6c0fa,,,,,,,decisionTrl,resources/DB.BMP,resources/DG.BMP,Door3,0.221296353,0.009259245,1,0,0,1.6381,optionRight,70,11640,6,3,0,3,0,1,,,,,,,,,,,,,,,,,,,,,,,,,,,,,,,,,,,,,,,
,,,,,,,,2023-08-16_08h21.21.237,HF_wild_card,2022.2.4,Win32,60.21557175,5ae96d1878b0060001e69b8a,64d2fd46c836a06233681665,64dc783a8a4a258588e6c0fa,,,,,,,decisionTrl,resources/DBN.BMP,resources/DR.BMP,Door1,0.419444444,-0.057407422,1,0,0,1.0915,optionRight,30,11670,6,4,0,4,0,1,,,,,,,,,,,,,,,,,,,,,,,,,,,,,,,,,,,,,,,
,,,,,,,,2023-08-16_08h21.21.237,HF_wild_card,2022.2.4,Win32,60.21557175,5ae96d1878b0060001e69b8a,64d2fd46c836a06233681665,64dc783a8a4a258588e6c0fa,,,,,,,sngl,resources/DB.BMP,resources/Empty.png,WildCard_NonEx,-0.141666667,0.051851824,1,0,0,0.756,optionLeft,55,11725,6,5,0,5,0,1,,,,,,,,,,,,,,,,,,,,,,,,,,,,,,,,,,,,,,,
,,,,,,,,2023-08-16_08h21.21.237,HF_wild_card,2022.2.4,Win32,60.21557175,5ae96d1878b0060001e69b8a,64d2fd46c836a06233681665,64dc783a8a4a258588e6c0fa,,,,,,,decisionTrl,resources/DY.BMP,resources/DG.BMP,Door3,0.176851908,0.022222222,1,0,0,0.6582,optionRight,70,11795,6,6,0,6,0,1,,,,,,,,,,,,,,,,,,,,,,,,,,,,,,,,,,,,,,,
,,,,,,,,2023-08-16_08h21.21.237,HF_wild_card,2022.2.4,Win32,60.21557175,5ae96d1878b0060001e69b8a,64d2fd46c836a06233681665,64dc783a8a4a258588e6c0fa,,,,,,,decisionTrl,resources/DR.BMP,resources/DBN.BMP,Door1,-0.336111111,0.008333333,1,0,0,0.7566,optionLeft,30,11825,6,7,0,7,0,1,,,,,,,,,,,,,,,,,,,,,,,,,,,,,,,,,,,,,,,
,,,,,,,,2023-08-16_08h21.21.237,HF_wild_card,2022.2.4,Win32,60.21557175,5ae96d1878b0060001e69b8a,64d2fd46c836a06233681665,64dc783a8a4a258588e6c0fa,,,,,,,ctch,resources/DG.BMP,resources/DBN.BMP,Door3,-0.261111111,0.06851849,1,0,0,0.8274,optionLeft,70,11895,6,8,0,8,0,1,,,,,,,,,,,,,,,,,,,,,,,,,,,,,,,,,,,,,,,
,,,,,,,,2023-08-16_08h21.21.237,HF_wild_card,2022.2.4,Win32,60.21557175,5ae96d1878b0060001e69b8a,64d2fd46c836a06233681665,64dc783a8a4a258588e6c0fa,,,,,,,decisionTrl,resources/DY.BMP,resources/DG.BMP,Door3,0.526851908,-0.000925954,1,0,0,0.7545,optionRight,70,11965,6,9,0,9,0,1,,,,,,,,,,,,,,,,,,,,,,,,,,,,,,,,,,,,,,,
,,,,,,,,2023-08-16_08h21.21.237,HF_wild_card,2022.2.4,Win32,60.21557175,5ae96d1878b0060001e69b8a,64d2fd46c836a06233681665,64dc783a8a4a258588e6c0fa,,,,,,,ctch,resources/DG.BMP,resources/DBN.BMP,Door3,-0.295370356,0.021296268,1,0,0,0.6731,optionLeft,70,12035,6,10,0,10,0,1,,,,,,,,,,,,,,,,,,,,,,,,,,,,,,,,,,,,,,,
,,,,,,,,2023-08-16_08h21.21.237,HF_wild_card,2022.2.4,Win32,60.21557175,5ae96d1878b0060001e69b8a,64d2fd46c836a06233681665,64dc783a8a4a258588e6c0fa,,,,,,,decisionTrl,resources/DG.BMP,resources/DY.BMP,Door3,-0.247222222,0.041666667,1,0,0,0.7866,optionLeft,70,12105,6,11,0,11,0,1,,,,,,,,,,,,,,,,,,,,,,,,,,,,,,,,,,,,,,,
,,,,,,,,2023-08-16_08h21.21.237,HF_wild_card,2022.2.4,Win32,60.21557175,5ae96d1878b0060001e69b8a,64d2fd46c836a06233681665,64dc783a8a4a258588e6c0fa,,,,,,,decisionTrl,resources/DBN.BMP,resources/DR.BMP,Door1,0.276851908,0.005555556,1,0,0,0.6844,optionRight,30,12135,6,12,0,12,0,1,,,,,,,,,,,,,,,,,,,,,,,,,,,,,,,,,,,,,,,
,,,,,,,,2023-08-16_08h21.21.237,HF_wild_card,2022.2.4,Win32,60.21557175,5ae96d1878b0060001e69b8a,64d2fd46c836a06233681665,64dc783a8a4a258588e6c0fa,,,,,,,ctch,resources/DBN.BMP,resources/DG.BMP,Door3,0.23148151,0.067592578,1,0,0,0.9602,optionRight,70,12205,6,13,0,13,0,1,,,,,,,,,,,,,,,,,,,,,,,,,,,,,,,,,,,,,,,
,,,,,,,,2023-08-16_08h21.21.237,HF_wild_card,2022.2.4,Win32,60.21557175,5ae96d1878b0060001e69b8a,64d2fd46c836a06233681665,64dc783a8a4a258588e6c0fa,,,,,,,ctch,resources/DY.BMP,resources/DR.BMP,Door1,0.312963019,0.019444444,1,0,0,1.8575,optionRight,30,12235,6,14,0,14,0,1,,,,,,,,,,,,,,,,,,,,,,,,,,,,,,,,,,,,,,,
,,,,,,,,2023-08-16_08h21.21.237,HF_wild_card,2022.2.4,Win32,60.21557175,5ae96d1878b0060001e69b8a,64d2fd46c836a06233681665,64dc783a8a4a258588e6c0fa,,,,,,,decisionTrl,resources/DY.BMP,resources/DG.BMP,Door4,-0.289814801,0.032407379,1,0,0,0.6296,optionLeft,80,12315,6,15,0,15,0,1,,,,,,,,,,,,,,,,,,,,,,,,,,,,,,,,,,,,,,,
,,,,,,,,2023-08-16_08h21.21.237,HF_wild_card,2022.2.4,Win32,60.21557175,5ae96d1878b0060001e69b8a,64d2fd46c836a06233681665,64dc783a8a4a258588e6c0fa,,,,,,,decisionTrl,resources/DR.BMP,resources/DBN.BMP,Door1,-0.152777778,-0.012037065,1,0,0,0.7299,optionLeft,30,12345,6,16,0,16,0,1,,,,,,,,,,,,,,,,,,,,,,,,,,,,,,,,,,,,,,,
,,,,,,,,2023-08-16_08h21.21.237,HF_wild_card,2022.2.4,Win32,60.21557175,5ae96d1878b0060001e69b8a,64d2fd46c836a06233681665,64dc783a8a4a258588e6c0fa,,,,,,,sngl,resources/Empty.png,resources/DR.BMP,Door1,0.299074131,0.012037023,1,0,0,0.9501,optionRight,30,12375,6,17,0,17,0,1,,,,,,,,,,,,,,,,,,,,,,,,,,,,,,,,,,,,,,,
,,,,,,,,2023-08-16_08h21.21.237,HF_wild_card,2022.2.4,Win32,60.21557175,5ae96d1878b0060001e69b8a,64d2fd46c836a06233681665,64dc783a8a4a258588e6c0fa,,,,,,,sngl,resources/DB.BMP,resources/Empty.png,WildCard_NonEx,-0.309259245,-0.012962977,1,0,0,0.7365,optionLeft,45,12420,6,18,0,18,0,1,,,,,,,,,,,,,,,,,,,,,,,,,,,,,,,,,,,,,,,
,,,,,,,,2023-08-16_08h21.21.237,HF_wild_card,2022.2.4,Win32,60.21557175,5ae96d1878b0060001e69b8a,64d2fd46c836a06233681665,64dc783a8a4a258588e6c0fa,,,,,,,decisionTrl,resources/DBN.BMP,resources/DR.BMP,Door1,0.253703732,0.027777778,1,0,0,0.705,optionRight,30,12450,6,19,0,19,0,1,,,,,,,,,,,,,,,,,,,,,,,,,,,,,,,,,,,,,,,
,,,,,,,,2023-08-16_08h21.21.237,HF_wild_card,2022.2.4,Win32,60.21557175,5ae96d1878b0060001e69b8a,64d2fd46c836a06233681665,64dc783a8a4a258588e6c0fa,,,,,,,decisionTrl,resources/DY.BMP,resources/DB.BMP,Door4,-0.209259245,0.004629601,1,0,0,1.0175,optionLeft,80,12530,6,20,0,20,0,1,,,,,,,,,,,,,,,,,,,,,,,,,,,,,,,,,,,,,,,
,,,,,,,,2023-08-16_08h21.21.237,HF_wild_card,2022.2.4,Win32,60.21557175,5ae96d1878b0060001e69b8a,64d2fd46c836a06233681665,64dc783a8a4a258588e6c0fa,,,,,,,sngl,resources/DR.BMP,resources/Empty.png,Door1,-0.220370356,-0.025,1,0,0,0.7043,optionLeft,30,12560,6,21,0,21,0,1,,,,,,,,,,,,,,,,,,,,,,,,,,,,,,,,,,,,,,,
,,,,,,,,2023-08-16_08h21.21.237,HF_wild_card,2022.2.4,Win32,60.21557175,5ae96d1878b0060001e69b8a,64d2fd46c836a06233681665,64dc783a8a4a258588e6c0fa,,,,,,,sngl,resources/DY.BMP,resources/Empty.png,Door4,-0.2,-0.005555556,1,0,0,0.9706,optionLeft,60,12620,6,22,0,22,0,1,,,,,,,,,,,,,,,,,,,,,,,,,,,,,,,,,,,,,,,
,,,,,,,,2023-08-16_08h21.21.237,HF_wild_card,2022.2.4,Win32,60.21557175,5ae96d1878b0060001e69b8a,64d2fd46c836a06233681665,64dc783a8a4a258588e6c0fa,,,,,,,decisionTrl,resources/DG.BMP,resources/DY.BMP,Door4,0.223148176,-0.000925954,1,0,0,0.6933,optionRight,60,12680,6,23,0,23,0,1,,,,,,,,,,,,,,,,,,,,,,,,,,,,,,,,,,,,,,,
,,,,,,,,2023-08-16_08h21.21.237,HF_wild_card,2022.2.4,Win32,60.21557175,5ae96d1878b0060001e69b8a,64d2fd46c836a06233681665,64dc783a8a4a258588e6c0fa,,,,,,,sngl,resources/Empty.png,resources/DY.BMP,Door4,0.224074131,0.039814801,1,0,0,0.8324,optionRight,80,12760,6,24,0,24,0,1,,,,,,,,,,,,,,,,,,,,,,,,,,,,,,,,,,,,,,,
,,,,,,,,2023-08-16_08h21.21.237,HF_wild_card,2022.2.4,Win32,60.21557175,5ae96d1878b0060001e69b8a,64d2fd46c836a06233681665,64dc783a8a4a258588e6c0fa,,,,,,,decisionTrl,resources/DR.BMP,resources/DB.BMP,Door1,-0.22870369,-0.000925954,1,0,0,0.6857,optionLeft,30,12790,6,25,0,25,0,1,,,,,,,,,,,,,,,,,,,,,,,,,,,,,,,,,,,,,,,
,,,,,,,,2023-08-16_08h21.21.237,HF_wild_card,2022.2.4,Win32,60.21557175,5ae96d1878b0060001e69b8a,64d2fd46c836a06233681665,64dc783a8a4a258588e6c0fa,,,,,,,sngl,resources/Empty.png,resources/DG.BMP,Door3,0.393518575,0.054629601,1,0,0,0.6755,optionRight,70,12860,6,26,0,26,0,1,,,,,,,,,,,,,,,,,,,,,,,,,,,,,,,,,,,,,,,
,,,,,,,,2023-08-16_08h21.21.237,HF_wild_card,2022.2.4,Win32,60.21557175,5ae96d1878b0060001e69b8a,64d2fd46c836a06233681665,64dc783a8a4a258588e6c0fa,,,,,,,decisionTrl,resources/DG.BMP,resources/DY.BMP,Door4,0.290740797,0.023148134,1,0,0,2.7288,optionRight,80,12940,6,27,0,27,0,1,,,,,,,,,,,,,,,,,,,,,,,,,,,,,,,,,,,,,,,
,,,,,,,,2023-08-16_08h21.21.237,HF_wild_card,2022.2.4,Win32,60.21557175,5ae96d1878b0060001e69b8a,64d2fd46c836a06233681665,64dc783a8a4a258588e6c0fa,,,,,,,sngl,resources/Empty.png,resources/DBN.BMP,Door2,0.3,0.059259245,1,0,0,0.6954,optionRight,40,12980,6,28,0,28,0,1,,,,,,,,,,,,,,,,,,,,,,,,,,,,,,,,,,,,,,,
,,,,,,,,2023-08-16_08h21.21.237,HF_wild_card,2022.2.4,Win32,60.21557175,5ae96d1878b0060001e69b8a,64d2fd46c836a06233681665,64dc783a8a4a258588e6c0fa,,,,,,,decisionTrl,resources/DG.BMP,resources/DY.BMP,Door3,-0.274074046,-0.016666667,1,0,0,0.8197,optionLeft,70,13050,6,29,0,29,0,1,,,,,,,,,,,,,,,,,,,,,,,,,,,,,,,,,,,,,,,
,,,,,,,,2023-08-16_08h21.21.237,HF_wild_card,2022.2.4,Win32,60.21557175,5ae96d1878b0060001e69b8a,64d2fd46c836a06233681665,64dc783a8a4a258588e6c0fa,,,,,,,ctch,resources/DR.BMP,resources/DY.BMP,Door4,0.374074131,0.021296268,1,0,0,0.6315,optionRight,80,13130,6,30,0,30,0,1,,,,,,,,,,,,,,,,,,,,,,,,,,,,,,,,,,,,,,,
,,,,,,,,2023-08-16_08h21.21.237,HF_wild_card,2022.2.4,Win32,60.21557175,5ae96d1878b0060001e69b8a,64d2fd46c836a06233681665,64dc783a8a4a258588e6c0fa,,,,,,,ctch,resources/DBN.BMP,resources/DG.BMP,Door3,0.248148176,0.016666667,1,0,0,1.0342,optionRight,70,13200,6,31,0,31,0,1,,,,,,,,,,,,,,,,,,,,,,,,,,,,,,,,,,,,,,,
,,,,,,,,2023-08-16_08h21.21.237,HF_wild_card,2022.2.4,Win32,60.21557175,5ae96d1878b0060001e69b8a,64d2fd46c836a06233681665,64dc783a8a4a258588e6c0fa,,,,,,,decisionTrl,resources/DBN.BMP,resources/DR.BMP,Door1,0.379629686,-0.007407422,1,0,0,1.181,optionRight,30,13230,6,32,0,32,0,1,,,,,,,,,,,,,,,,,,,,,,,,,,,,,,,,,,,,,,,
,,,,,,,,2023-08-16_08h21.21.237,HF_wild_card,2022.2.4,Win32,60.21557175,5ae96d1878b0060001e69b8a,64d2fd46c836a06233681665,64dc783a8a4a258588e6c0fa,,,,,,,decisionTrl,resources/DBN.BMP,resources/DB.BMP,WildCard_NonEx,0.334259288,0.02870369,1,0,0,0.9224,optionRight,55,13285,6,33,0,33,0,1,,,,,,,,,,,,,,,,,,,,,,,,,,,,,,,,,,,,,,,
,,,,,,,,2023-08-16_08h21.21.237,HF_wild_card,2022.2.4,Win32,60.21557175,5ae96d1878b0060001e69b8a,64d2fd46c836a06233681665,64dc783a8a4a258588e6c0fa,,,,,,,sngl,resources/DG.BMP,resources/Empty.png,Door3,-0.160185157,0.037962935,1,0,0,0.7433,optionLeft,70,13355,6,34,0,34,0,1,,,,,,,,,,,,,,,,,,,,,,,,,,,,,,,,,,,,,,,
,,,,,,,,2023-08-16_08h21.21.237,HF_wild_card,2022.2.4,Win32,60.21557175,5ae96d1878b0060001e69b8a,64d2fd46c836a06233681665,64dc783a8a4a258588e6c0fa,,,,,,,sngl,resources/DBN.BMP,resources/Empty.png,Door2,-0.323148134,-0.008333333,1,0,0,0.7161,optionLeft,20,13375,6,35,0,35,0,1,,,,,,,,,,,,,,,,,,,,,,,,,,,,,,,,,,,,,,,
,,,,,,,,2023-08-16_08h21.21.237,HF_wild_card,2022.2.4,Win32,60.21557175,5ae96d1878b0060001e69b8a,64d2fd46c836a06233681665,64dc783a8a4a258588e6c0fa,,,,,,,sngl,resources/Empty.png,resources/DB.BMP,WildCard_NonEx,0.362037065,0.010185157,1,0,0,0.789,optionRight,45,13420,6,36,0,36,0,1,,,,,,,,,,,,,,,,,,,,,,,,,,,,,,,,,,,,,,,
,,,,,,,,2023-08-16_08h21.21.237,HF_wild_card,2022.2.4,Win32,60.21557175,5ae96d1878b0060001e69b8a,64d2fd46c836a06233681665,64dc783a8a4a258588e6c0fa,,,,,,,decisionTrl,resources/DB.BMP,resources/DBN.BMP,WildCard_NonEx,-0.259259245,0.012037023,1,0,0,4.8157,optionLeft,55,13475,6,37,0,37,0,1,,,,,,,,,,,,,,,,,,,,,,,,,,,,,,,,,,,,,,,
,,,,,,,,2023-08-16_08h21.21.237,HF_wild_card,2022.2.4,Win32,60.21557175,5ae96d1878b0060001e69b8a,64d2fd46c836a06233681665,64dc783a8a4a258588e6c0fa,,,,,,,sngl,resources/Empty.png,resources/DB.BMP,WildCard_NonEx,0.35648151,0.031481467,1,0,0,0.5846,optionRight,55,13530,6,38,0,38,0,1,,,,,,,,,,,,,,,,,,,,,,,,,,,,,,,,,,,,,,,
,,,,,,,,2023-08-16_08h21.21.237,HF_wild_card,2022.2.4,Win32,60.21557175,5ae96d1878b0060001e69b8a,64d2fd46c836a06233681665,64dc783a8a4a258588e6c0fa,,,,,,,decisionTrl,resources/DR.BMP,resources/DBN.BMP,Door1,-0.237962935,0.05,1,0,0,0.7271,optionLeft,30,13560,6,39,0,39,0,1,,,,,,,,,,,,,,,,,,,,,,,,,,,,,,,,,,,,,,,
,,,,,,,,2023-08-16_08h21.21.237,HF_wild_card,2022.2.4,Win32,60.21557175,5ae96d1878b0060001e69b8a,64d2fd46c836a06233681665,64dc783a8a4a258588e6c0fa,,,,,,,decisionTrl,resources/DR.BMP,resources/DBN.BMP,Door1,-0.345370356,0.062037023,1,0,0,0.9711,optionLeft,30,13590,6,40,0,40,0,1,,,,,,,,,,,,,,,,,,,,,,,,,,,,,,,,,,,,,,,
,,,,,,,,2023-08-16_08h21.21.237,HF_wild_card,2022.2.4,Win32,60.21557175,5ae96d1878b0060001e69b8a,64d2fd46c836a06233681665,64dc783a8a4a258588e6c0fa,,,,,,,ctch,resources/DR.BMP,resources/DY.BMP,Door4,0.476851908,-0.034259288,1,0,0,1.0216,optionRight,80,13670,6,41,0,41,0,1,,,,,,,,,,,,,,,,,,,,,,,,,,,,,,,,,,,,,,,
,,,,,,,,2023-08-16_08h21.21.237,HF_wild_card,2022.2.4,Win32,60.21557175,5ae96d1878b0060001e69b8a,64d2fd46c836a06233681665,64dc783a8a4a258588e6c0fa,,,,,,,decisionTrl,resources/DB.BMP,resources/DY.BMP,Door4,0.336111111,0.062962935,1,0,0,0.6879,optionRight,80,13750,6,42,0,42,0,1,,,,,,,,,,,,,,,,,,,,,,,,,,,,,,,,,,,,,,,
,,,,,,,,2023-08-16_08h21.21.237,HF_wild_card,2022.2.4,Win32,60.21557175,5ae96d1878b0060001e69b8a,64d2fd46c836a06233681665,64dc783a8a4a258588e6c0fa,,,,,,,decisionTrl,resources/DY.BMP,resources/DG.BMP,Door4,-0.3,0.012962935,1,0,0,0.6998,optionLeft,60,13810,6,43,0,43,0,1,,,,,,,,,,,,,,,,,,,,,,,,,,,,,,,,,,,,,,,
,,,,,,,,2023-08-16_08h21.21.237,HF_wild_card,2022.2.4,Win32,60.21557175,5ae96d1878b0060001e69b8a,64d2fd46c836a06233681665,64dc783a8a4a258588e6c0fa,,,,,,,,,,,,,,,,,,,,,,,,,,5,0,5,0,1,,,,,,,,,,,,,,,,,,,,,,,,,,,,,,,,,,
,,,,,,,,2023-08-16_08h21.21.237,HF_wild_card,2022.2.4,Win32,60.21557175,5ae96d1878b0060001e69b8a,64d2fd46c836a06233681665,64dc783a8a4a258588e6c0fa,,,,,,,ctch,resources/DBN.BMP,resources/DG.BMP,Door3,0.404629686,-0.070370399,1,0,0,1.2364,optionRight,70,13880,7,0,0,0,0,1,,,,,,,,,,,,,,,,,,,,,,,,,,,,,,,,,,,,,,,
,,,,,,,,2023-08-16_08h21.21.237,HF_wild_card,2022.2.4,Win32,60.21557175,5ae96d1878b0060001e69b8a,64d2fd46c836a06233681665,64dc783a8a4a258588e6c0fa,,,,,,,ctch,resources/DG.BMP,resources/DBN.BMP,Door3,-0.404629601,-0.003703732,1,0,0,0.7772,optionLeft,70,13950,7,1,0,1,0,1,,,,,,,,,,,,,,,,,,,,,,,,,,,,,,,,,,,,,,,
,,,,,,,,2023-08-16_08h21.21.237,HF_wild_card,2022.2.4,Win32,60.21557175,5ae96d1878b0060001e69b8a,64d2fd46c836a06233681665,64dc783a8a4a258588e6c0fa,,,,,,,ctch,resources/DBN.BMP,resources/DG.BMP,Door3,0.398148176,0.034259245,1,0,0,0.7218,optionRight,70,14020,7,2,0,2,0,1,,,,,,,,,,,,,,,,,,,,,,,,,,,,,,,,,,,,,,,
,,,,,,,,2023-08-16_08h21.21.237,HF_wild_card,2022.2.4,Win32,60.21557175,5ae96d1878b0060001e69b8a,64d2fd46c836a06233681665,64dc783a8a4a258588e6c0fa,,,,,,,decisionTrl,resources/DG.BMP,resources/DY.BMP,Door4,0.410185242,0.030555556,1,0,0,0.7229,optionRight,60,14080,7,3,0,3,0,1,,,,,,,,,,,,,,,,,,,,,,,,,,,,,,,,,,,,,,,
,,,,,,,,2023-08-16_08h21.21.237,HF_wild_card,2022.2.4,Win32,60.21557175,5ae96d1878b0060001e69b8a,64d2fd46c836a06233681665,64dc783a8a4a258588e6c0fa,,,,,,,decisionTrl,resources/DR.BMP,resources/DBN.BMP,Door1,-0.309259245,0.058333333,1,0,0,0.8076,optionLeft,30,14110,7,4,0,4,0,1,,,,,,,,,,,,,,,,,,,,,,,,,,,,,,,,,,,,,,,
,,,,,,,,2023-08-16_08h21.21.237,HF_wild_card,2022.2.4,Win32,60.21557175,5ae96d1878b0060001e69b8a,64d2fd46c836a06233681665,64dc783a8a4a258588e6c0fa,,,,,,,ctch,resources/DBN.BMP,resources/DG.BMP,Door3,0.339814843,0.015740712,1,0,0,0.9013,optionRight,70,14180,7,5,0,5,0,1,,,,,,,,,,,,,,,,,,,,,,,,,,,,,,,,,,,,,,,
,,,,,,,,2023-08-16_08h21.21.237,HF_wild_card,2022.2.4,Win32,60.21557175,5ae96d1878b0060001e69b8a,64d2fd46c836a06233681665,64dc783a8a4a258588e6c0fa,,,,,,,decisionTrl,resources/DG.BMP,resources/DY.BMP,Door3,-0.164814758,0.021296268,1,0,0,1.0684,optionLeft,70,14250,7,6,0,6,0,1,,,,,,,,,,,,,,,,,,,,,,,,,,,,,,,,,,,,,,,
,,,,,,,,2023-08-16_08h21.21.237,HF_wild_card,2022.2.4,Win32,60.21557175,5ae96d1878b0060001e69b8a,64d2fd46c836a06233681665,64dc783a8a4a258588e6c0fa,,,,,,,ctch,resources/DG.BMP,resources/DBN.BMP,Door3,-0.131481425,0,1,0,0,0.9493,optionLeft,70,14320,7,7,0,7,0,1,,,,,,,,,,,,,,,,,,,,,,,,,,,,,,,,,,,,,,,
,,,,,,,,2023-08-16_08h21.21.237,HF_wild_card,2022.2.4,Win32,60.21557175,5ae96d1878b0060001e69b8a,64d2fd46c836a06233681665,64dc783a8a4a258588e6c0fa,,,,,,,decisionTrl,resources/DY.BMP,resources/DG.BMP,Door4,-0.260185157,0.04351849,1,0,0,1.0582,optionLeft,80,14400,7,8,0,8,0,1,,,,,,,,,,,,,,,,,,,,,,,,,,,,,,,,,,,,,,,
,,,,,,,,2023-08-16_08h21.21.237,HF_wild_card,2022.2.4,Win32,60.21557175,5ae96d1878b0060001e69b8a,64d2fd46c836a06233681665,64dc783a8a4a258588e6c0fa,,,,,,,decisionTrl,resources/DG.BMP,resources/DY.BMP,Door4,0.337037065,0.035185157,1,0,0,0.7326,optionRight,60,14460,7,9,0,9,0,1,,,,,,,,,,,,,,,,,,,,,,,,,,,,,,,,,,,,,,,
,,,,,,,,2023-08-16_08h21.21.237,HF_wild_card,2022.2.4,Win32,60.21557175,5ae96d1878b0060001e69b8a,64d2fd46c836a06233681665,64dc783a8a4a258588e6c0fa,,,,,,,ctch,resources/DR.BMP,resources/DY.BMP,Door4,0.354629686,0.060185157,1,0,0,1.093,optionRight,80,14540,7,10,0,10,0,1,,,,,,,,,,,,,,,,,,,,,,,,,,,,,,,,,,,,,,,
,,,,,,,,2023-08-16_08h21.21.237,HF_wild_card,2022.2.4,Win32,60.21557175,5ae96d1878b0060001e69b8a,64d2fd46c836a06233681665,64dc783a8a4a258588e6c0fa,,,,,,,decisionTrl,resources/DG.BMP,resources/DY.BMP,Door4,0.345370399,0.083333333,1,0,0,0.931,optionRight,60,14600,7,11,0,11,0,1,,,,,,,,,,,,,,,,,,,,,,,,,,,,,,,,,,,,,,,
,,,,,,,,2023-08-16_08h21.21.237,HF_wild_card,2022.2.4,Win32,60.21557175,5ae96d1878b0060001e69b8a,64d2fd46c836a06233681665,64dc783a8a4a258588e6c0fa,,,,,,,decisionTrl,resources/DR.BMP,resources/DBN.BMP,Door1,-0.229629601,0.023148134,1,0,0,0.6462,optionLeft,30,14630,7,12,0,12,0,1,,,,,,,,,,,,,,,,,,,,,,,,,,,,,,,,,,,,,,,
,,,,,,,,2023-08-16_08h21.21.237,HF_wild_card,2022.2.4,Win32,60.21557175,5ae96d1878b0060001e69b8a,64d2fd46c836a06233681665,64dc783a8a4a258588e6c0fa,,,,,,,decisionTrl,resources/DY.BMP,resources/DG.BMP,Door4,-0.316666667,0.009259245,1,0,0,0.8719,optionLeft,80,14710,7,13,0,13,0,1,,,,,,,,,,,,,,,,,,,,,,,,,,,,,,,,,,,,,,,
,,,,,,,,2023-08-16_08h21.21.237,HF_wild_card,2022.2.4,Win32,60.21557175,5ae96d1878b0060001e69b8a,64d2fd46c836a06233681665,64dc783a8a4a258588e6c0fa,,,,,,,decisionTrl,resources/DR.BMP,resources/DBN.BMP,Door1,-0.264814801,0.019444444,1,0,0,0.8076,optionLeft,30,14740,7,14,0,14,0,1,,,,,,,,,,,,,,,,,,,,,,,,,,,,,,,,,,,,,,,
,,,,,,,,2023-08-16_08h21.21.237,HF_wild_card,2022.2.4,Win32,60.21557175,5ae96d1878b0060001e69b8a,64d2fd46c836a06233681665,64dc783a8a4a258588e6c0fa,,,,,,,decisionTrl,resources/DR.BMP,resources/DBN.BMP,Door1,-0.337037023,-0.020370399,1,0,0,1.5219,optionLeft,30,14770,7,15,0,15,0,1,,,,,,,,,,,,,,,,,,,,,,,,,,,,,,,,,,,,,,,
,,,,,,,,2023-08-16_08h21.21.237,HF_wild_card,2022.2.4,Win32,60.21557175,5ae96d1878b0060001e69b8a,64d2fd46c836a06233681665,64dc783a8a4a258588e6c0fa,,,,,,,decisionTrl,resources/DBN.BMP,resources/DR.BMP,Door1,0.311111111,0.084259245,1,0,0,0.7575,optionRight,30,14800,7,16,0,16,0,1,,,,,,,,,,,,,,,,,,,,,,,,,,,,,,,,,,,,,,,
,,,,,,,,2023-08-16_08h21.21.237,HF_wild_card,2022.2.4,Win32,60.21557175,5ae96d1878b0060001e69b8a,64d2fd46c836a06233681665,64dc783a8a4a258588e6c0fa,,,,,,,decisionTrl,resources/DBN.BMP,resources/DR.BMP,Door1,0.243518575,0.02870369,1,0,0,0.9683,optionRight,30,14830,7,17,0,17,0,1,,,,,,,,,,,,,,,,,,,,,,,,,,,,,,,,,,,,,,,
,,,,,,,,2023-08-16_08h21.21.237,HF_wild_card,2022.2.4,Win32,60.21557175,5ae96d1878b0060001e69b8a,64d2fd46c836a06233681665,64dc783a8a4a258588e6c0fa,,,,,,,decisionTrl,resources/DBN.BMP,resources/DR.BMP,Door1,0.325,0.012962935,1,0,0,0.6146,optionRight,30,14860,7,18,0,18,0,1,,,,,,,,,,,,,,,,,,,,,,,,,,,,,,,,,,,,,,,
,,,,,,,,2023-08-16_08h21.21.237,HF_wild_card,2022.2.4,Win32,60.21557175,5ae96d1878b0060001e69b8a,64d2fd46c836a06233681665,64dc783a8a4a258588e6c0fa,,,,,,,decisionTrl,resources/DBN.BMP,resources/DR.BMP,Door1,0.357407464,0.025,1,0,0,0.6477,optionRight,30,14890,7,19,0,19,0,1,,,,,,,,,,,,,,,,,,,,,,,,,,,,,,,,,,,,,,,
,,,,,,,,2023-08-16_08h21.21.237,HF_wild_card,2022.2.4,Win32,60.21557175,5ae96d1878b0060001e69b8a,64d2fd46c836a06233681665,64dc783a8a4a258588e6c0fa,,,,,,,decisionTrl,resources/DG.BMP,resources/DY.BMP,Door4,0.361111111,0.041666667,1,0,0,0.6791,optionRight,80,14970,7,20,0,20,0,1,,,,,,,,,,,,,,,,,,,,,,,,,,,,,,,,,,,,,,,
,,,,,,,,2023-08-16_08h21.21.237,HF_wild_card,2022.2.4,Win32,60.21557175,5ae96d1878b0060001e69b8a,64d2fd46c836a06233681665,64dc783a8a4a258588e6c0fa,,,,,,,ctch,resources/DY.BMP,resources/DR.BMP,Door4,-0.367592578,0.057407379,1,0,0,0.7089,optionLeft,60,15030,7,21,0,21,0,1,,,,,,,,,,,,,,,,,,,,,,,,,,,,,,,,,,,,,,,
,,,,,,,,2023-08-16_08h21.21.237,HF_wild_card,2022.2.4,Win32,60.21557175,5ae96d1878b0060001e69b8a,64d2fd46c836a06233681665,64dc783a8a4a258588e6c0fa,,,,,,,decisionTrl,resources/DR.BMP,resources/DBN.BMP,Door1,-0.27870369,0.022222222,1,0,0,0.7498,optionLeft,30,15060,7,22,0,22,0,1,,,,,,,,,,,,,,,,,,,,,,,,,,,,,,,,,,,,,,,
,,,,,,,,2023-08-16_08h21.21.237,HF_wild_card,2022.2.4,Win32,60.21557175,5ae96d1878b0060001e69b8a,64d2fd46c836a06233681665,64dc783a8a4a258588e6c0fa,,,,,,,ctch,resources/DY.BMP,resources/DR.BMP,Door4,-0.246296268,-0.019444444,1,0,0,0.7752,optionLeft,80,15140,7,23,0,23,0,1,,,,,,,,,,,,,,,,,,,,,,,,,,,,,,,,,,,,,,,
,,,,,,,,2023-08-16_08h21.21.237,HF_wild_card,2022.2.4,Win32,60.21557175,5ae96d1878b0060001e69b8a,64d2fd46c836a06233681665,64dc783a8a4a258588e6c0fa,,,,,,,decisionTrl,resources/DG.BMP,resources/DY.BMP,Door4,0.412963019,-0.000925954,1,0,0,0.732,optionRight,60,15200,7,24,0,24,0,1,,,,,,,,,,,,,,,,,,,,,,,,,,,,,,,,,,,,,,,
,,,,,,,,2023-08-16_08h21.21.237,HF_wild_card,2022.2.4,Win32,60.21557175,5ae96d1878b0060001e69b8a,64d2fd46c836a06233681665,64dc783a8a4a258588e6c0fa,,,,,,,decisionTrl,resources/DY.BMP,resources/DG.BMP,Door4,-0.262962935,0.023148134,1,0,0,0.7423,optionLeft,80,15280,7,25,0,25,0,1,,,,,,,,,,,,,,,,,,,,,,,,,,,,,,,,,,,,,,,
,,,,,,,,2023-08-16_08h21.21.237,HF_wild_card,2022.2.4,Win32,60.21557175,5ae96d1878b0060001e69b8a,64d2fd46c836a06233681665,64dc783a8a4a258588e6c0fa,,,,,,,decisionTrl,resources/DBN.BMP,resources/DR.BMP,Door1,0.340740797,-0.041666667,1,0,0,0.7175,optionRight,30,15310,7,26,0,26,0,1,,,,,,,,,,,,,,,,,,,,,,,,,,,,,,,,,,,,,,,
,,,,,,,,2023-08-16_08h21.21.237,HF_wild_card,2022.2.4,Win32,60.21557175,5ae96d1878b0060001e69b8a,64d2fd46c836a06233681665,64dc783a8a4a258588e6c0fa,,,,,,,ctch,resources/DR.BMP,resources/DY.BMP,Door4,0.255555556,0.002777778,1,0,0,0.8669,optionRight,60,15370,7,27,0,27,0,1,,,,,,,,,,,,,,,,,,,,,,,,,,,,,,,,,,,,,,,
,,,,,,,,2023-08-16_08h21.21.237,HF_wild_card,2022.2.4,Win32,60.21557175,5ae96d1878b0060001e69b8a,64d2fd46c836a06233681665,64dc783a8a4a258588e6c0fa,,,,,,,decisionTrl,resources/DY.BMP,resources/DG.BMP,Door4,-0.190740712,-0.030555556,1,0,0,1.0385,optionLeft,80,15450,7,28,0,28,0,1,,,,,,,,,,,,,,,,,,,,,,,,,,,,,,,,,,,,,,,
,,,,,,,,2023-08-16_08h21.21.237,HF_wild_card,2022.2.4,Win32,60.21557175,5ae96d1878b0060001e69b8a,64d2fd46c836a06233681665,64dc783a8a4a258588e6c0fa,,,,,,,decisionTrl,resources/DY.BMP,resources/DG.BMP,Door4,-0.275,-0.020370399,1,0,0,0.6384,optionLeft,60,15510,7,29,0,29,0,1,,,,,,,,,,,,,,,,,,,,,,,,,,,,,,,,,,,,,,,
,,,,,,,,2023-08-16_08h21.21.237,HF_wild_card,2022.2.4,Win32,60.21557175,5ae96d1878b0060001e69b8a,64d2fd46c836a06233681665,64dc783a8a4a258588e6c0fa,,,,,,,ctch,resources/DG.BMP,resources/DBN.BMP,Door3,-0.249074046,-0.029629644,1,0,0,1.3784,optionLeft,70,15580,7,30,0,30,0,1,,,,,,,,,,,,,,,,,,,,,,,,,,,,,,,,,,,,,,,
,,,,,,,,2023-08-16_08h21.21.237,HF_wild_card,2022.2.4,Win32,60.21557175,5ae96d1878b0060001e69b8a,64d2fd46c836a06233681665,64dc783a8a4a258588e6c0fa,,,,,,,ctch,resources/DR.BMP,resources/DY.BMP,Door4,0.273148176,-0.03148151,1,0,0,0.8739,optionRight,80,15660,7,31,0,31,0,1,,,,,,,,,,,,,,,,,,,,,,,,,,,,,,,,,,,,,,,
,,,,,,,,2023-08-16_08h21.21.237,HF_wild_card,2022.2.4,Win32,60.21557175,5ae96d1878b0060001e69b8a,64d2fd46c836a06233681665,64dc783a8a4a258588e6c0fa,,,,,,,decisionTrl,resources/DY.BMP,resources/DG.BMP,Door4,-0.305555556,-0.005555556,1,0,0,0.9451,optionLeft,60,15720,7,32,0,32,0,1,,,,,,,,,,,,,,,,,,,,,,,,,,,,,,,,,,,,,,,
,,,,,,,,2023-08-16_08h21.21.237,HF_wild_card,2022.2.4,Win32,60.21557175,5ae96d1878b0060001e69b8a,64d2fd46c836a06233681665,64dc783a8a4a258588e6c0fa,,,,,,,decisionTrl,resources/DBN.BMP,resources/DR.BMP,Door1,0.272222222,-0.007407422,1,0,0,0.6423,optionRight,30,15750,7,33,0,33,0,1,,,,,,,,,,,,,,,,,,,,,,,,,,,,,,,,,,,,,,,
,,,,,,,,2023-08-16_08h21.21.237,HF_wild_card,2022.2.4,Win32,60.21557175,5ae96d1878b0060001e69b8a,64d2fd46c836a06233681665,64dc783a8a4a258588e6c0fa,,,,,,,decisionTrl,resources/DR.BMP,resources/DBN.BMP,Door1,-0.173148092,-0.019444444,1,0,0,0.7229,optionLeft,30,15780,7,34,0,34,0,1,,,,,,,,,,,,,,,,,,,,,,,,,,,,,,,,,,,,,,,
,,,,,,,,2023-08-16_08h21.21.237,HF_wild_card,2022.2.4,Win32,60.21557175,5ae96d1878b0060001e69b8a,64d2fd46c836a06233681665,64dc783a8a4a258588e6c0fa,,,,,,,ctch,resources/DY.BMP,resources/DR.BMP,Door4,-0.221296268,0.015740712,1,0,0,0.8496,optionLeft,80,15860,7,35,0,35,0,1,,,,,,,,,,,,,,,,,,,,,,,,,,,,,,,,,,,,,,,
,,,,,,,,2023-08-16_08h21.21.237,HF_wild_card,2022.2.4,Win32,60.21557175,5ae96d1878b0060001e69b8a,64d2fd46c836a06233681665,64dc783a8a4a258588e6c0fa,,,,,,,,,,,,,,,,,,,,,,,,,,6,0,6,0,1,,,,,,,,,,,,,,,,,,,,,,,,,,,,,,,,,,
,,,,,,,,2023-08-16_08h21.21.237,HF_wild_card,2022.2.4,Win32,60.21557175,5ae96d1878b0060001e69b8a,64d2fd46c836a06233681665,64dc783a8a4a258588e6c0fa,,,,,,,,,,,,,,,,,,,,,,,,,,,,,,,3,,,,,,,,,,,,,,,,,,,,,,,,,,,,,,,,,
,,,,,,,,2023-08-16_08h21.21.237,HF_wild_card,2022.2.4,Win32,60.21557175,5ae96d1878b0060001e69b8a,64d2fd46c836a06233681665,64dc783a8a4a258588e6c0fa,,,,,,,,,,,,,,,,,,,,,,,,,,,,,,,,,,,,,,,,,,,,,,,,,,,,,,,,,,,,,,,,
,,,,,,,,2023-08-16_08h21.21.237,HF_wild_card,2022.2.4,Win32,60.21557175,5ae96d1878b0060001e69b8a,64d2fd46c836a06233681665,64dc783a8a4a258588e6c0fa,,,,,,,,,,,,,,,,,,,,,,,,,,,,,,,,90,WC_extreme,resources/DP.BMP,0,0,0,0,1,,,,,,,,,,,,,,,,,,,,,,,,,
,,,,,,,,2023-08-16_08h21.21.237,HF_wild_card,2022.2.4,Win32,60.21557175,5ae96d1878b0060001e69b8a,64d2fd46c836a06233681665,64dc783a8a4a258588e6c0fa,,,,,,,,,,,,,,,,,,,,,,,,,,,,,,,,30,WC_nonExtreme,resources/DB.BMP,1,0,1,0,1,,,,,,,,,,,,,,,,,,,,,,,,,
,,,,,,,,2023-08-16_08h21.21.237,HF_wild_card,2022.2.4,Win32,60.21557175,5ae96d1878b0060001e69b8a,64d2fd46c836a06233681665,64dc783a8a4a258588e6c0fa,,,,,,,,,,,,,,,,,,,,,,,,,,,,,,,,60,Door3,resources/DG.BMP,2,0,2,0,1,,,,,,,,,,,,,,,,,,,,,,,,,
,,,,,,,,2023-08-16_08h21.21.237,HF_wild_card,2022.2.4,Win32,60.21557175,5ae96d1878b0060001e69b8a,64d2fd46c836a06233681665,64dc783a8a4a258588e6c0fa,,,,,,,,,,,,,,,,,,,,,,,,,,,,,,,,75,Door4,resources/DY.BMP,3,0,3,0,1,,,,,,,,,,,,,,,,,,,,,,,,,
,,,,,,,,2023-08-16_08h21.21.237,HF_wild_card,2022.2.4,Win32,60.21557175,5ae96d1878b0060001e69b8a,64d2fd46c836a06233681665,64dc783a8a4a258588e6c0fa,,,,,,,,,,,,,,,,,,,,,,,,,,,,,,,,20,Door2,resources/DBN.BMP,4,0,4,0,1,,,,,,,,,,,,,,,,,,,,,,,,,
,,,,,,,,2023-08-16_08h21.21.237,HF_wild_card,2022.2.4,Win32,60.21557175,5ae96d1878b0060001e69b8a,64d2fd46c836a06233681665,64dc783a8a4a258588e6c0fa,,,,,,,,,,,,,,,,,,,,,,,,,,,,,,,,30,Door1,resources/DR.BMP,5,0,5,0,1,,,,,,,,,,,,,,,,,,,,,,,,,
,,,,,,,,2023-08-16_08h21.21.237,HF_wild_card,2022.2.4,Win32,60.21557175,5ae96d1878b0060001e69b8a,64d2fd46c836a06233681665,64dc783a8a4a258588e6c0fa,,,,,,,,,,,,,,,,,,,,,,,,,,,,,,,,,,,,,,,,,,,,,,,,,,,,,,,,,,,,,,,,
