Condition,Low fixed image (Door1),Low risky image (Door2),High fixed image (Door3),High risky image (Door4),NonExtreme Wild Card 1,NonExtreme Wild Card 2,,date,expName,psychopyVersion,OS,frameRate,PROLIFIC_PID,STUDY_ID,SESSION_ID,mouse_2.x,mouse_2.y,mouse_2.leftButton,mouse_2.midButton,mouse_2.rightButton,mouse_2.clicked_name,Trial Type,Left Option Image,Right Option Image,Chosen Door,mouse.x,mouse.y,mouse.leftButton,mouse.midButton,mouse.rightButton,mouse.time,mouse.clicked_name,Feedback,Cumulative Reward,Block,trial.thisRepN,trial.thisTrialN,trial.thisN,trial.thisIndex,trial.ran,blocks.thisRepN,blocks.thisTrialN,blocks.thisN,blocks.thisIndex,blocks.ran,Money conversion,First Outcome Reported,Shown Door (First Outcome),Displayed Image (First Outcome),outcomes.thisRepN,outcomes.thisTrialN,outcomes.thisN,outcomes.thisIndex,outcomes.ran,judgments.thisRepN,judgments.thisTrialN,judgments.thisN,judgments.thisIndex,judgments.ran,freqMouse.x,freqMouse.y,freqMouse.leftButton,freqMouse.midButton,freqMouse.rightButton,freqMouse.clicked_name,FQJ for first outcome,FQJ for second outcome,Shown Door,Displayed Image,trials.thisRepN,trials.thisTrialN,trials.thisN,trials.thisIndex,trials.ran,judgBlock.thisRepN,judgBlock.thisTrialN,judgBlock.thisN,judgBlock.thisIndex,judgBlock.ran
2,resources/DG.BMP,resources/DY.BMP,resources/DB.BMP,resources/DBN.BMP,resources/DR.BMP,resources/DP.BMP,,2023-08-16_08h31.35.844,HF_wild_card,2022.2.4,MacIntel,59.97361161,6146f9d153bd39dfa1fe49b5,64d2fd46c836a06233681665,64dc7b47f231ada7834e5780,,,,,,,,,,,,,,,,,,,,,,,,,,,,,,,,,,,,,,,,,,,,,,,,,,,,,,,,,,,,,,,,
,,,,,,,,2023-08-16_08h31.35.844,HF_wild_card,2022.2.4,MacIntel,59.97361161,6146f9d153bd39dfa1fe49b5,64d2fd46c836a06233681665,64dc7b47f231ada7834e5780,-0.014019961,-0.427011084,1,0,0,agree,,,,,,,,,,,,,,,,,,,,,,,,,,,,,,,,,,,,,,,,,,,,,,,,,,,,,,,,,,
,,,,,,,,2023-08-16_08h31.35.844,HF_wild_card,2022.2.4,MacIntel,59.97361161,6146f9d153bd39dfa1fe49b5,64d2fd46c836a06233681665,64dc7b47f231ada7834e5780,,,,,,,,,,,,,,,,,,,,,,,,,,,,,,,,,,,,,,,,,,,,,,,,,,,,,,,,,,,,,,,,
,,,,,,,,2023-08-16_08h31.35.844,HF_wild_card,2022.2.4,MacIntel,59.97361161,6146f9d153bd39dfa1fe49b5,64d2fd46c836a06233681665,64dc7b47f231ada7834e5780,,,,,,,decisionTrl,resources/DY.BMP,resources/DP.BMP,WildCard_NonEx,0.314792491,-0.167099565,1,0,0,1.6529,optionRight,45,45,1,0,0,0,0,1,,,,,,,,,,,,,,,,,,,,,,,,,,,,,,,,,,,,,,,
,,,,,,,,2023-08-16_08h31.35.844,HF_wild_card,2022.2.4,MacIntel,59.97361161,6146f9d153bd39dfa1fe49b5,64d2fd46c836a06233681665,64dc7b47f231ada7834e5780,,,,,,,sngl,resources/Empty.png,resources/DY.BMP,Door2,0.282582338,-0.078773387,1,0,0,0.8104,optionRight,20,65,1,1,0,1,0,1,,,,,,,,,,,,,,,,,,,,,,,,,,,,,,,,,,,,,,,
,,,,,,,,2023-08-16_08h31.35.844,HF_wild_card,2022.2.4,MacIntel,59.97361161,6146f9d153bd39dfa1fe49b5,64d2fd46c836a06233681665,64dc7b47f231ada7834e5780,,,,,,,decisionTrl,resources/DG.BMP,resources/DY.BMP,Door1,-0.328339653,0.017260282,1,0,0,0.7275,optionLeft,30,95,1,2,0,2,0,1,,,,,,,,,,,,,,,,,,,,,,,,,,,,,,,,,,,,,,,
,,,,,,,,2023-08-16_08h31.35.844,HF_wild_card,2022.2.4,MacIntel,59.97361161,6146f9d153bd39dfa1fe49b5,64d2fd46c836a06233681665,64dc7b47f231ada7834e5780,,,,,,,decisionTrl,resources/DG.BMP,resources/DY.BMP,Door2,0.239815368,-0.013247478,1,0,0,0.697,optionRight,40,135,1,3,0,3,0,1,,,,,,,,,,,,,,,,,,,,,,,,,,,,,,,,,,,,,,,
,,,,,,,,2023-08-16_08h31.35.844,HF_wild_card,2022.2.4,MacIntel,59.97361161,6146f9d153bd39dfa1fe49b5,64d2fd46c836a06233681665,64dc7b47f231ada7834e5780,,,,,,,decisionTrl,resources/DY.BMP,resources/DG.BMP,Door2,-0.381227474,-0.017695904,1,0,0,0.7123,optionLeft,20,155,1,4,0,4,0,1,,,,,,,,,,,,,,,,,,,,,,,,,,,,,,,,,,,,,,,
,,,,,,,,2023-08-16_08h31.35.844,HF_wild_card,2022.2.4,MacIntel,59.97361161,6146f9d153bd39dfa1fe49b5,64d2fd46c836a06233681665,64dc7b47f231ada7834e5780,,,,,,,ctch,resources/DY.BMP,resources/DB.BMP,Door3,0.40685637,0.029336661,1,0,0,0.6625,optionRight,70,225,1,5,0,5,0,1,,,,,,,,,,,,,,,,,,,,,,,,,,,,,,,,,,,,,,,
,,,,,,,,2023-08-16_08h31.35.844,HF_wild_card,2022.2.4,MacIntel,59.97361161,6146f9d153bd39dfa1fe49b5,64d2fd46c836a06233681665,64dc7b47f231ada7834e5780,,,,,,,decisionTrl,resources/DB.BMP,resources/DBN.BMP,Door3,-0.323886386,-0.023166103,1,0,0,0.71,optionLeft,70,295,1,6,0,6,0,1,,,,,,,,,,,,,,,,,,,,,,,,,,,,,,,,,,,,,,,
,,,,,,,,2023-08-16_08h31.35.844,HF_wild_card,2022.2.4,MacIntel,59.97361161,6146f9d153bd39dfa1fe49b5,64d2fd46c836a06233681665,64dc7b47f231ada7834e5780,,,,,,,decisionTrl,resources/DB.BMP,resources/DBN.BMP,Door3,-0.341533099,0.025964589,1,0,0,0.5806,optionLeft,70,365,1,7,0,7,0,1,,,,,,,,,,,,,,,,,,,,,,,,,,,,,,,,,,,,,,,
,,,,,,,,2023-08-16_08h31.35.844,HF_wild_card,2022.2.4,MacIntel,59.97361161,6146f9d153bd39dfa1fe49b5,64d2fd46c836a06233681665,64dc7b47f231ada7834e5780,,,,,,,sngl,resources/Empty.png,resources/DP.BMP,WildCard_NonEx,0.392499583,-0.024940928,1,0,0,0.8476,optionRight,55,420,1,8,0,8,0,1,,,,,,,,,,,,,,,,,,,,,,,,,,,,,,,,,,,,,,,
,,,,,,,,2023-08-16_08h31.35.844,HF_wild_card,2022.2.4,MacIntel,59.97361161,6146f9d153bd39dfa1fe49b5,64d2fd46c836a06233681665,64dc7b47f231ada7834e5780,,,,,,,decisionTrl,resources/DB.BMP,resources/DBN.BMP,Door3,-0.276540921,-0.001568617,1,0,0,0.5294,optionLeft,70,490,1,9,0,9,0,1,,,,,,,,,,,,,,,,,,,,,,,,,,,,,,,,,,,,,,,
,,,,,,,,2023-08-16_08h31.35.844,HF_wild_card,2022.2.4,MacIntel,59.97361161,6146f9d153bd39dfa1fe49b5,64d2fd46c836a06233681665,64dc7b47f231ada7834e5780,,,,,,,sngl,resources/Empty.png,resources/DP.BMP,WildCard_NonEx,0.352762606,0.003539387,1,0,0,0.564,optionRight,45,535,1,10,0,10,0,1,,,,,,,,,,,,,,,,,,,,,,,,,,,,,,,,,,,,,,,
,,,,,,,,2023-08-16_08h31.35.844,HF_wild_card,2022.2.4,MacIntel,59.97361161,6146f9d153bd39dfa1fe49b5,64d2fd46c836a06233681665,64dc7b47f231ada7834e5780,,,,,,,decisionTrl,resources/DP.BMP,resources/DBN.BMP,WildCard_NonEx,-0.258884391,0.002885404,1,0,0,0.4809,optionLeft,45,580,1,11,0,11,0,1,,,,,,,,,,,,,,,,,,,,,,,,,,,,,,,,,,,,,,,
,,,,,,,,2023-08-16_08h31.35.844,HF_wild_card,2022.2.4,MacIntel,59.97361161,6146f9d153bd39dfa1fe49b5,64d2fd46c836a06233681665,64dc7b47f231ada7834e5780,,,,,,,decisionTrl,resources/DB.BMP,resources/DBN.BMP,Door3,-0.303863285,0.003920393,1,0,0,0.496,optionLeft,70,650,1,12,0,12,0,1,,,,,,,,,,,,,,,,,,,,,,,,,,,,,,,,,,,,,,,
,,,,,,,,2023-08-16_08h31.35.844,HF_wild_card,2022.2.4,MacIntel,59.97361161,6146f9d153bd39dfa1fe49b5,64d2fd46c836a06233681665,64dc7b47f231ada7834e5780,,,,,,,decisionTrl,resources/DP.BMP,resources/DG.BMP,WildCard_NonEx,-0.271699611,0.003238468,1,0,0,0.4636,optionLeft,55,705,1,13,0,13,0,1,,,,,,,,,,,,,,,,,,,,,,,,,,,,,,,,,,,,,,,
,,,,,,,,2023-08-16_08h31.35.844,HF_wild_card,2022.2.4,MacIntel,59.97361161,6146f9d153bd39dfa1fe49b5,64d2fd46c836a06233681665,64dc7b47f231ada7834e5780,,,,,,,decisionTrl,resources/DY.BMP,resources/DG.BMP,Door1,0.24203069,-0.017473837,1,0,0,0.5106,optionRight,30,735,1,14,0,14,0,1,,,,,,,,,,,,,,,,,,,,,,,,,,,,,,,,,,,,,,,
,,,,,,,,2023-08-16_08h31.35.844,HF_wild_card,2022.2.4,MacIntel,59.97361161,6146f9d153bd39dfa1fe49b5,64d2fd46c836a06233681665,64dc7b47f231ada7834e5780,,,,,,,decisionTrl,resources/DG.BMP,resources/DY.BMP,Door1,-0.194415235,-0.009875303,1,0,0,0.5304,optionLeft,30,765,1,15,0,15,0,1,,,,,,,,,,,,,,,,,,,,,,,,,,,,,,,,,,,,,,,
,,,,,,,,2023-08-16_08h31.35.844,HF_wild_card,2022.2.4,MacIntel,59.97361161,6146f9d153bd39dfa1fe49b5,64d2fd46c836a06233681665,64dc7b47f231ada7834e5780,,,,,,,sngl,resources/DP.BMP,resources/Empty.png,WildCard_NonEx,-0.407515158,0.00554572,1,0,0,0.7639,optionLeft,55,820,1,16,0,16,0,1,,,,,,,,,,,,,,,,,,,,,,,,,,,,,,,,,,,,,,,
,,,,,,,,2023-08-16_08h31.35.844,HF_wild_card,2022.2.4,MacIntel,59.97361161,6146f9d153bd39dfa1fe49b5,64d2fd46c836a06233681665,64dc7b47f231ada7834e5780,,,,,,,ctch,resources/DBN.BMP,resources/DG.BMP,Door1,0.392392754,0.0175278,1,0,0,0.6463,optionRight,30,850,1,17,0,17,0,1,,,,,,,,,,,,,,,,,,,,,,,,,,,,,,,,,,,,,,,
,,,,,,,,2023-08-16_08h31.35.844,HF_wild_card,2022.2.4,MacIntel,59.97361161,6146f9d153bd39dfa1fe49b5,64d2fd46c836a06233681665,64dc7b47f231ada7834e5780,,,,,,,decisionTrl,resources/DG.BMP,resources/DP.BMP,Door1,-0.337859318,0.040641759,1,0,0,0.4967,optionLeft,30,880,1,18,0,18,0,1,,,,,,,,,,,,,,,,,,,,,,,,,,,,,,,,,,,,,,,
,,,,,,,,2023-08-16_08h31.35.844,HF_wild_card,2022.2.4,MacIntel,59.97361161,6146f9d153bd39dfa1fe49b5,64d2fd46c836a06233681665,64dc7b47f231ada7834e5780,,,,,,,decisionTrl,resources/DBN.BMP,resources/DB.BMP,Door3,0.318959016,-0.007428782,1,0,0,0.5979,optionRight,70,950,1,19,0,19,0,1,,,,,,,,,,,,,,,,,,,,,,,,,,,,,,,,,,,,,,,
,,,,,,,,2023-08-16_08h31.35.844,HF_wild_card,2022.2.4,MacIntel,59.97361161,6146f9d153bd39dfa1fe49b5,64d2fd46c836a06233681665,64dc7b47f231ada7834e5780,,,,,,,sngl,resources/DG.BMP,resources/Empty.png,Door1,-0.310014379,0.008301125,1,0,0,0.5206,optionLeft,30,980,1,20,0,20,0,1,,,,,,,,,,,,,,,,,,,,,,,,,,,,,,,,,,,,,,,
,,,,,,,,2023-08-16_08h31.35.844,HF_wild_card,2022.2.4,MacIntel,59.97361161,6146f9d153bd39dfa1fe49b5,64d2fd46c836a06233681665,64dc7b47f231ada7834e5780,,,,,,,decisionTrl,resources/DBN.BMP,resources/DB.BMP,Door3,0.376357466,-0.027859425,1,0,0,0.6791,optionRight,70,1050,1,21,0,21,0,1,,,,,,,,,,,,,,,,,,,,,,,,,,,,,,,,,,,,,,,
,,,,,,,,2023-08-16_08h31.35.844,HF_wild_card,2022.2.4,MacIntel,59.97361161,6146f9d153bd39dfa1fe49b5,64d2fd46c836a06233681665,64dc7b47f231ada7834e5780,,,,,,,ctch,resources/DBN.BMP,resources/DG.BMP,Door4,-0.30840958,-0.010697492,1,0,0,0.613,optionLeft,80,1130,1,22,0,22,0,1,,,,,,,,,,,,,,,,,,,,,,,,,,,,,,,,,,,,,,,
,,,,,,,,2023-08-16_08h31.35.844,HF_wild_card,2022.2.4,MacIntel,59.97361161,6146f9d153bd39dfa1fe49b5,64d2fd46c836a06233681665,64dc7b47f231ada7834e5780,,,,,,,ctch,resources/DG.BMP,resources/DBN.BMP,Door4,0.346764546,0.000587009,1,0,0,0.7477,optionRight,60,1190,1,23,0,23,0,1,,,,,,,,,,,,,,,,,,,,,,,,,,,,,,,,,,,,,,,
,,,,,,,,2023-08-16_08h31.35.844,HF_wild_card,2022.2.4,MacIntel,59.97361161,6146f9d153bd39dfa1fe49b5,64d2fd46c836a06233681665,64dc7b47f231ada7834e5780,,,,,,,ctch,resources/DY.BMP,resources/DB.BMP,Door2,-0.403463495,-0.047786854,1,0,0,0.5804,optionLeft,40,1230,1,24,0,24,0,1,,,,,,,,,,,,,,,,,,,,,,,,,,,,,,,,,,,,,,,
,,,,,,,,2023-08-16_08h31.35.844,HF_wild_card,2022.2.4,MacIntel,59.97361161,6146f9d153bd39dfa1fe49b5,64d2fd46c836a06233681665,64dc7b47f231ada7834e5780,,,,,,,sngl,resources/Empty.png,resources/DG.BMP,Door1,0.367808562,-0.032562668,1,0,0,0.6121,optionRight,30,1260,1,25,0,25,0,1,,,,,,,,,,,,,,,,,,,,,,,,,,,,,,,,,,,,,,,
,,,,,,,,2023-08-16_08h31.35.844,HF_wild_card,2022.2.4,MacIntel,59.97361161,6146f9d153bd39dfa1fe49b5,64d2fd46c836a06233681665,64dc7b47f231ada7834e5780,,,,,,,sngl,resources/DY.BMP,resources/Empty.png,Door2,-0.403438469,-0.027339734,1,0,0,0.6793,optionLeft,40,1300,1,26,0,26,0,1,,,,,,,,,,,,,,,,,,,,,,,,,,,,,,,,,,,,,,,
,,,,,,,,2023-08-16_08h31.35.844,HF_wild_card,2022.2.4,MacIntel,59.97361161,6146f9d153bd39dfa1fe49b5,64d2fd46c836a06233681665,64dc7b47f231ada7834e5780,,,,,,,decisionTrl,resources/DP.BMP,resources/DY.BMP,WildCard_NonEx,-0.519825595,-0.034957766,1,0,0,0.9466,optionLeft,45,1345,1,27,0,27,0,1,,,,,,,,,,,,,,,,,,,,,,,,,,,,,,,,,,,,,,,
,,,,,,,,2023-08-16_08h31.35.844,HF_wild_card,2022.2.4,MacIntel,59.97361161,6146f9d153bd39dfa1fe49b5,64d2fd46c836a06233681665,64dc7b47f231ada7834e5780,,,,,,,decisionTrl,resources/DY.BMP,resources/DG.BMP,Door2,-0.338791872,-0.003596577,1,0,0,0.5129,optionLeft,40,1385,1,28,0,28,0,1,,,,,,,,,,,,,,,,,,,,,,,,,,,,,,,,,,,,,,,
,,,,,,,,2023-08-16_08h31.35.844,HF_wild_card,2022.2.4,MacIntel,59.97361161,6146f9d153bd39dfa1fe49b5,64d2fd46c836a06233681665,64dc7b47f231ada7834e5780,,,,,,,ctch,resources/DB.BMP,resources/DY.BMP,Door3,-0.292676482,-0.025319291,1,0,0,1.4149,optionLeft,70,1455,1,29,0,29,0,1,,,,,,,,,,,,,,,,,,,,,,,,,,,,,,,,,,,,,,,
,,,,,,,,2023-08-16_08h31.35.844,HF_wild_card,2022.2.4,MacIntel,59.97361161,6146f9d153bd39dfa1fe49b5,64d2fd46c836a06233681665,64dc7b47f231ada7834e5780,,,,,,,decisionTrl,resources/DBN.BMP,resources/DB.BMP,Door3,0.345558741,-0.04618511,1,0,0,0.7227,optionRight,70,1525,1,30,0,30,0,1,,,,,,,,,,,,,,,,,,,,,,,,,,,,,,,,,,,,,,,
,,,,,,,,2023-08-16_08h31.35.844,HF_wild_card,2022.2.4,MacIntel,59.97361161,6146f9d153bd39dfa1fe49b5,64d2fd46c836a06233681665,64dc7b47f231ada7834e5780,,,,,,,decisionTrl,resources/DB.BMP,resources/DP.BMP,Door3,-0.330067586,-0.014044093,1,0,0,0.4799,optionLeft,70,1595,1,31,0,31,0,1,,,,,,,,,,,,,,,,,,,,,,,,,,,,,,,,,,,,,,,
,,,,,,,,2023-08-16_08h31.35.844,HF_wild_card,2022.2.4,MacIntel,59.97361161,6146f9d153bd39dfa1fe49b5,64d2fd46c836a06233681665,64dc7b47f231ada7834e5780,,,,,,,sngl,resources/Empty.png,resources/DBN.BMP,Door4,0.422334171,-0.02508847,1,0,0,0.594,optionRight,60,1655,1,32,0,32,0,1,,,,,,,,,,,,,,,,,,,,,,,,,,,,,,,,,,,,,,,
,,,,,,,,2023-08-16_08h31.35.844,HF_wild_card,2022.2.4,MacIntel,59.97361161,6146f9d153bd39dfa1fe49b5,64d2fd46c836a06233681665,64dc7b47f231ada7834e5780,,,,,,,decisionTrl,resources/DP.BMP,resources/DB.BMP,WildCard_NonEx,-0.351116133,-0.037420798,1,0,0,0.5799,optionLeft,45,1700,1,33,0,33,0,1,,,,,,,,,,,,,,,,,,,,,,,,,,,,,,,,,,,,,,,
,,,,,,,,2023-08-16_08h31.35.844,HF_wild_card,2022.2.4,MacIntel,59.97361161,6146f9d153bd39dfa1fe49b5,64d2fd46c836a06233681665,64dc7b47f231ada7834e5780,,,,,,,sngl,resources/DB.BMP,resources/Empty.png,Door3,-0.304666766,0.007022853,1,0,0,0.7778,optionLeft,70,1770,1,34,0,34,0,1,,,,,,,,,,,,,,,,,,,,,,,,,,,,,,,,,,,,,,,
,,,,,,,,2023-08-16_08h31.35.844,HF_wild_card,2022.2.4,MacIntel,59.97361161,6146f9d153bd39dfa1fe49b5,64d2fd46c836a06233681665,64dc7b47f231ada7834e5780,,,,,,,decisionTrl,resources/DBN.BMP,resources/DB.BMP,Door4,-0.387958196,0.00531102,1,0,0,0.9929,optionLeft,60,1830,1,35,0,35,0,1,,,,,,,,,,,,,,,,,,,,,,,,,,,,,,,,,,,,,,,
,,,,,,,,2023-08-16_08h31.35.844,HF_wild_card,2022.2.4,MacIntel,59.97361161,6146f9d153bd39dfa1fe49b5,64d2fd46c836a06233681665,64dc7b47f231ada7834e5780,,,,,,,sngl,resources/Empty.png,resources/DB.BMP,Door3,0.373216043,-0.060066729,1,0,0,0.6309,optionRight,70,1900,1,36,0,36,0,1,,,,,,,,,,,,,,,,,,,,,,,,,,,,,,,,,,,,,,,
,,,,,,,,2023-08-16_08h31.35.844,HF_wild_card,2022.2.4,MacIntel,59.97361161,6146f9d153bd39dfa1fe49b5,64d2fd46c836a06233681665,64dc7b47f231ada7834e5780,,,,,,,sngl,resources/DBN.BMP,resources/Empty.png,Door4,-0.507601417,-0.005704865,1,0,0,0.4474,optionLeft,80,1980,1,37,0,37,0,1,,,,,,,,,,,,,,,,,,,,,,,,,,,,,,,,,,,,,,,
,,,,,,,,2023-08-16_08h31.35.844,HF_wild_card,2022.2.4,MacIntel,59.97361161,6146f9d153bd39dfa1fe49b5,64d2fd46c836a06233681665,64dc7b47f231ada7834e5780,,,,,,,decisionTrl,resources/DY.BMP,resources/DG.BMP,Door2,-0.284866144,-0.038903699,1,0,0,0.8966,optionLeft,40,2020,1,38,0,38,0,1,,,,,,,,,,,,,,,,,,,,,,,,,,,,,,,,,,,,,,,
,,,,,,,,2023-08-16_08h31.35.844,HF_wild_card,2022.2.4,MacIntel,59.97361161,6146f9d153bd39dfa1fe49b5,64d2fd46c836a06233681665,64dc7b47f231ada7834e5780,,,,,,,ctch,resources/DB.BMP,resources/DY.BMP,Door3,-0.653408106,-0.023633719,1,0,0,0.9432,optionLeft,70,2090,1,39,0,39,0,1,,,,,,,,,,,,,,,,,,,,,,,,,,,,,,,,,,,,,,,
,,,,,,,,2023-08-16_08h31.35.844,HF_wild_card,2022.2.4,MacIntel,59.97361161,6146f9d153bd39dfa1fe49b5,64d2fd46c836a06233681665,64dc7b47f231ada7834e5780,,,,,,,decisionTrl,resources/DBN.BMP,resources/DP.BMP,Door4,-0.447539116,0.003942672,1,0,0,0.6336,optionLeft,60,2150,1,40,0,40,0,1,,,,,,,,,,,,,,,,,,,,,,,,,,,,,,,,,,,,,,,
,,,,,,,,2023-08-16_08h31.35.844,HF_wild_card,2022.2.4,MacIntel,59.97361161,6146f9d153bd39dfa1fe49b5,64d2fd46c836a06233681665,64dc7b47f231ada7834e5780,,,,,,,sngl,resources/DP.BMP,resources/Empty.png,WildCard_NonEx,-0.319691026,-0.041150294,1,0,0,0.6654,optionLeft,45,2195,1,41,0,41,0,1,,,,,,,,,,,,,,,,,,,,,,,,,,,,,,,,,,,,,,,
,,,,,,,,2023-08-16_08h31.35.844,HF_wild_card,2022.2.4,MacIntel,59.97361161,6146f9d153bd39dfa1fe49b5,64d2fd46c836a06233681665,64dc7b47f231ada7834e5780,,,,,,,decisionTrl,resources/DG.BMP,resources/DY.BMP,Door2,0.329576593,0.003107506,1,0,0,0.8132,optionRight,20,2215,1,42,0,42,0,1,,,,,,,,,,,,,,,,,,,,,,,,,,,,,,,,,,,,,,,
,,,,,,,,2023-08-16_08h31.35.844,HF_wild_card,2022.2.4,MacIntel,59.97361161,6146f9d153bd39dfa1fe49b5,64d2fd46c836a06233681665,64dc7b47f231ada7834e5780,,,,,,,ctch,resources/DG.BMP,resources/DBN.BMP,Door1,-0.372335702,-0.009898509,1,0,0,0.4464,optionLeft,30,2245,1,43,0,43,0,1,,,,,,,,,,,,,,,,,,,,,,,,,,,,,,,,,,,,,,,
,,,,,,,,2023-08-16_08h31.35.844,HF_wild_card,2022.2.4,MacIntel,59.97361161,6146f9d153bd39dfa1fe49b5,64d2fd46c836a06233681665,64dc7b47f231ada7834e5780,,,,,,,,,,,,,,,,,,,,,,,,,,0,0,0,0,1,,,,,,,,,,,,,,,,,,,,,,,,,,,,,,,,,,
,,,,,,,,2023-08-16_08h31.35.844,HF_wild_card,2022.2.4,MacIntel,59.97361161,6146f9d153bd39dfa1fe49b5,64d2fd46c836a06233681665,64dc7b47f231ada7834e5780,,,,,,,ctch,resources/DG.BMP,resources/DBN.BMP,Door4,0.335200478,0.050902977,1,0,0,0.8559,optionRight,80,2325,2,0,0,0,0,1,,,,,,,,,,,,,,,,,,,,,,,,,,,,,,,,,,,,,,,
,,,,,,,,2023-08-16_08h31.35.844,HF_wild_card,2022.2.4,MacIntel,59.97361161,6146f9d153bd39dfa1fe49b5,64d2fd46c836a06233681665,64dc7b47f231ada7834e5780,,,,,,,sngl,resources/Empty.png,resources/DBN.BMP,Door4,0.386810062,0.02531119,1,0,0,0.9141,optionRight,80,2405,2,1,0,1,0,1,,,,,,,,,,,,,,,,,,,,,,,,,,,,,,,,,,,,,,,
,,,,,,,,2023-08-16_08h31.35.844,HF_wild_card,2022.2.4,MacIntel,59.97361161,6146f9d153bd39dfa1fe49b5,64d2fd46c836a06233681665,64dc7b47f231ada7834e5780,,,,,,,ctch,resources/DY.BMP,resources/DB.BMP,Door2,-0.319637612,-0.043313884,1,0,0,0.5982,optionLeft,40,2445,2,2,0,2,0,1,,,,,,,,,,,,,,,,,,,,,,,,,,,,,,,,,,,,,,,
,,,,,,,,2023-08-16_08h31.35.844,HF_wild_card,2022.2.4,MacIntel,59.97361161,6146f9d153bd39dfa1fe49b5,64d2fd46c836a06233681665,64dc7b47f231ada7834e5780,,,,,,,decisionTrl,resources/DG.BMP,resources/DY.BMP,Door1,-0.427514367,-0.06489805,1,0,0,1.194,optionLeft,30,2475,2,3,0,3,0,1,,,,,,,,,,,,,,,,,,,,,,,,,,,,,,,,,,,,,,,
,,,,,,,,2023-08-16_08h31.35.844,HF_wild_card,2022.2.4,MacIntel,59.97361161,6146f9d153bd39dfa1fe49b5,64d2fd46c836a06233681665,64dc7b47f231ada7834e5780,,,,,,,sngl,resources/Empty.png,resources/DY.BMP,Door2,0.363109885,-0.002127168,1,0,0,0.8784,optionRight,40,2515,2,4,0,4,0,1,,,,,,,,,,,,,,,,,,,,,,,,,,,,,,,,,,,,,,,
,,,,,,,,2023-08-16_08h31.35.844,HF_wild_card,2022.2.4,MacIntel,59.97361161,6146f9d153bd39dfa1fe49b5,64d2fd46c836a06233681665,64dc7b47f231ada7834e5780,,,,,,,sngl,resources/Empty.png,resources/DG.BMP,Door1,0.408733012,-0.00209538,1,0,0,0.8997,optionRight,30,2545,2,5,0,5,0,1,,,,,,,,,,,,,,,,,,,,,,,,,,,,,,,,,,,,,,,
,,,,,,,,2023-08-16_08h31.35.844,HF_wild_card,2022.2.4,MacIntel,59.97361161,6146f9d153bd39dfa1fe49b5,64d2fd46c836a06233681665,64dc7b47f231ada7834e5780,,,,,,,sngl,resources/DY.BMP,resources/Empty.png,Door2,-0.388389253,0.022911973,1,0,0,0.932,optionLeft,20,2565,2,6,0,6,0,1,,,,,,,,,,,,,,,,,,,,,,,,,,,,,,,,,,,,,,,
,,,,,,,,2023-08-16_08h31.35.844,HF_wild_card,2022.2.4,MacIntel,59.97361161,6146f9d153bd39dfa1fe49b5,64d2fd46c836a06233681665,64dc7b47f231ada7834e5780,,,,,,,ctch,resources/DB.BMP,resources/DY.BMP,Door3,-0.405485996,-0.002940226,1,0,0,0.7797,optionLeft,70,2635,2,7,0,7,0,1,,,,,,,,,,,,,,,,,,,,,,,,,,,,,,,,,,,,,,,
,,,,,,,,2023-08-16_08h31.35.844,HF_wild_card,2022.2.4,MacIntel,59.97361161,6146f9d153bd39dfa1fe49b5,64d2fd46c836a06233681665,64dc7b47f231ada7834e5780,,,,,,,decisionTrl,resources/DY.BMP,resources/DP.BMP,WildCard_NonEx,0.358895095,-0.01201016,1,0,0,0.7465,optionRight,45,2680,2,8,0,8,0,1,,,,,,,,,,,,,,,,,,,,,,,,,,,,,,,,,,,,,,,
,,,,,,,,2023-08-16_08h31.35.844,HF_wild_card,2022.2.4,MacIntel,59.97361161,6146f9d153bd39dfa1fe49b5,64d2fd46c836a06233681665,64dc7b47f231ada7834e5780,,,,,,,decisionTrl,resources/DBN.BMP,resources/DB.BMP,Door4,-0.430010217,-0.008869287,1,0,0,0.7784,optionLeft,80,2760,2,9,0,9,0,1,,,,,,,,,,,,,,,,,,,,,,,,,,,,,,,,,,,,,,,
,,,,,,,,2023-08-16_08h31.35.844,HF_wild_card,2022.2.4,MacIntel,59.97361161,6146f9d153bd39dfa1fe49b5,64d2fd46c836a06233681665,64dc7b47f231ada7834e5780,,,,,,,sngl,resources/DP.BMP,resources/Empty.png,WildCard_NonEx,-0.310274071,-0.015483225,1,0,0,0.6811,optionLeft,45,2805,2,10,0,10,0,1,,,,,,,,,,,,,,,,,,,,,,,,,,,,,,,,,,,,,,,
,,,,,,,,2023-08-16_08h31.35.844,HF_wild_card,2022.2.4,MacIntel,59.97361161,6146f9d153bd39dfa1fe49b5,64d2fd46c836a06233681665,64dc7b47f231ada7834e5780,,,,,,,decisionTrl,resources/DB.BMP,resources/DBN.BMP,Door3,-0.322910305,0.01486848,1,0,0,0.5615,optionLeft,70,2875,2,11,0,11,0,1,,,,,,,,,,,,,,,,,,,,,,,,,,,,,,,,,,,,,,,
,,,,,,,,2023-08-16_08h31.35.844,HF_wild_card,2022.2.4,MacIntel,59.97361161,6146f9d153bd39dfa1fe49b5,64d2fd46c836a06233681665,64dc7b47f231ada7834e5780,,,,,,,decisionTrl,resources/DG.BMP,resources/DY.BMP,Door1,-0.244247213,-0.009066536,1,0,0,0.7828,optionLeft,30,2905,2,12,0,12,0,1,,,,,,,,,,,,,,,,,,,,,,,,,,,,,,,,,,,,,,,
,,,,,,,,2023-08-16_08h31.35.844,HF_wild_card,2022.2.4,MacIntel,59.97361161,6146f9d153bd39dfa1fe49b5,64d2fd46c836a06233681665,64dc7b47f231ada7834e5780,,,,,,,ctch,resources/DB.BMP,resources/DY.BMP,Door3,-0.30268024,-0.017421074,1,0,0,0.7316,optionLeft,70,2975,2,13,0,13,0,1,,,,,,,,,,,,,,,,,,,,,,,,,,,,,,,,,,,,,,,
,,,,,,,,2023-08-16_08h31.35.844,HF_wild_card,2022.2.4,MacIntel,59.97361161,6146f9d153bd39dfa1fe49b5,64d2fd46c836a06233681665,64dc7b47f231ada7834e5780,,,,,,,ctch,resources/DY.BMP,resources/DB.BMP,Door3,0.340513558,-0.021360623,1,0,0,0.8632,optionRight,70,3045,2,14,0,14,0,1,,,,,,,,,,,,,,,,,,,,,,,,,,,,,,,,,,,,,,,
,,,,,,,,2023-08-16_08h31.35.844,HF_wild_card,2022.2.4,MacIntel,59.97361161,6146f9d153bd39dfa1fe49b5,64d2fd46c836a06233681665,64dc7b47f231ada7834e5780,,,,,,,decisionTrl,resources/DBN.BMP,resources/DB.BMP,Door3,0.351765104,0.067703367,1,0,0,1.146,optionRight,70,3115,2,15,0,15,0,1,,,,,,,,,,,,,,,,,,,,,,,,,,,,,,,,,,,,,,,
,,,,,,,,2023-08-16_08h31.35.844,HF_wild_card,2022.2.4,MacIntel,59.97361161,6146f9d153bd39dfa1fe49b5,64d2fd46c836a06233681665,64dc7b47f231ada7834e5780,,,,,,,decisionTrl,resources/DG.BMP,resources/DY.BMP,Door1,-0.273670415,0.017569818,1,0,0,1.0452,optionLeft,30,3145,2,16,0,16,0,1,,,,,,,,,,,,,,,,,,,,,,,,,,,,,,,,,,,,,,,
,,,,,,,,2023-08-16_08h31.35.844,HF_wild_card,2022.2.4,MacIntel,59.97361161,6146f9d153bd39dfa1fe49b5,64d2fd46c836a06233681665,64dc7b47f231ada7834e5780,,,,,,,decisionTrl,resources/DBN.BMP,resources/DB.BMP,Door3,0.396185172,-0.034946437,1,0,0,2.9787,optionRight,70,3215,2,17,0,17,0,1,,,,,,,,,,,,,,,,,,,,,,,,,,,,,,,,,,,,,,,
,,,,,,,,2023-08-16_08h31.35.844,HF_wild_card,2022.2.4,MacIntel,59.97361161,6146f9d153bd39dfa1fe49b5,64d2fd46c836a06233681665,64dc7b47f231ada7834e5780,,,,,,,decisionTrl,resources/DB.BMP,resources/DP.BMP,Door3,-0.281446356,0.061161861,1,0,0,0.6923,optionLeft,70,3285,2,18,0,18,0,1,,,,,,,,,,,,,,,,,,,,,,,,,,,,,,,,,,,,,,,
,,,,,,,,2023-08-16_08h31.35.844,HF_wild_card,2022.2.4,MacIntel,59.97361161,6146f9d153bd39dfa1fe49b5,64d2fd46c836a06233681665,64dc7b47f231ada7834e5780,,,,,,,decisionTrl,resources/DG.BMP,resources/DP.BMP,Door1,-0.348861231,0.022548611,1,0,0,0.9778,optionLeft,30,3315,2,19,0,19,0,1,,,,,,,,,,,,,,,,,,,,,,,,,,,,,,,,,,,,,,,
,,,,,,,,2023-08-16_08h31.35.844,HF_wild_card,2022.2.4,MacIntel,59.97361161,6146f9d153bd39dfa1fe49b5,64d2fd46c836a06233681665,64dc7b47f231ada7834e5780,,,,,,,ctch,resources/DBN.BMP,resources/DG.BMP,Door4,-0.442346974,0.004408194,1,0,0,0.8802,optionLeft,80,3395,2,20,0,20,0,1,,,,,,,,,,,,,,,,,,,,,,,,,,,,,,,,,,,,,,,
,,,,,,,,2023-08-16_08h31.35.844,HF_wild_card,2022.2.4,MacIntel,59.97361161,6146f9d153bd39dfa1fe49b5,64d2fd46c836a06233681665,64dc7b47f231ada7834e5780,,,,,,,decisionTrl,resources/DP.BMP,resources/DY.BMP,Door2,0.282278123,0.024337099,1,0,0,1.1967,optionRight,40,3435,2,21,0,21,0,1,,,,,,,,,,,,,,,,,,,,,,,,,,,,,,,,,,,,,,,
,,,,,,,,2023-08-16_08h31.35.844,HF_wild_card,2022.2.4,MacIntel,59.97361161,6146f9d153bd39dfa1fe49b5,64d2fd46c836a06233681665,64dc7b47f231ada7834e5780,,,,,,,decisionTrl,resources/DP.BMP,resources/DG.BMP,Door1,0.476510459,-0.04594787,1,0,0,1.012,optionRight,30,3465,2,22,0,22,0,1,,,,,,,,,,,,,,,,,,,,,,,,,,,,,,,,,,,,,,,
,,,,,,,,2023-08-16_08h31.35.844,HF_wild_card,2022.2.4,MacIntel,59.97361161,6146f9d153bd39dfa1fe49b5,64d2fd46c836a06233681665,64dc7b47f231ada7834e5780,,,,,,,decisionTrl,resources/DBN.BMP,resources/DP.BMP,Door4,-0.405973866,0.016223028,1,0,0,0.8933,optionLeft,60,3525,2,23,0,23,0,1,,,,,,,,,,,,,,,,,,,,,,,,,,,,,,,,,,,,,,,
,,,,,,,,2023-08-16_08h31.35.844,HF_wild_card,2022.2.4,MacIntel,59.97361161,6146f9d153bd39dfa1fe49b5,64d2fd46c836a06233681665,64dc7b47f231ada7834e5780,,,,,,,decisionTrl,resources/DY.BMP,resources/DG.BMP,Door2,-0.259172952,0.036641073,1,0,0,1.0296,optionLeft,40,3565,2,24,0,24,0,1,,,,,,,,,,,,,,,,,,,,,,,,,,,,,,,,,,,,,,,
,,,,,,,,2023-08-16_08h31.35.844,HF_wild_card,2022.2.4,MacIntel,59.97361161,6146f9d153bd39dfa1fe49b5,64d2fd46c836a06233681665,64dc7b47f231ada7834e5780,,,,,,,decisionTrl,resources/DY.BMP,resources/DG.BMP,Door1,0.304701849,0.007839447,1,0,0,0.5806,optionRight,30,3595,2,25,0,25,0,1,,,,,,,,,,,,,,,,,,,,,,,,,,,,,,,,,,,,,,,
,,,,,,,,2023-08-16_08h31.35.844,HF_wild_card,2022.2.4,MacIntel,59.97361161,6146f9d153bd39dfa1fe49b5,64d2fd46c836a06233681665,64dc7b47f231ada7834e5780,,,,,,,decisionTrl,resources/DB.BMP,resources/DBN.BMP,Door3,-0.436362748,-0.037765726,1,0,0,0.581,optionLeft,70,3665,2,26,0,26,0,1,,,,,,,,,,,,,,,,,,,,,,,,,,,,,,,,,,,,,,,
,,,,,,,,2023-08-16_08h31.35.844,HF_wild_card,2022.2.4,MacIntel,59.97361161,6146f9d153bd39dfa1fe49b5,64d2fd46c836a06233681665,64dc7b47f231ada7834e5780,,,,,,,decisionTrl,resources/DB.BMP,resources/DBN.BMP,Door3,-0.335424091,-0.079101974,1,0,0,0.9456,optionLeft,70,3735,2,27,0,27,0,1,,,,,,,,,,,,,,,,,,,,,,,,,,,,,,,,,,,,,,,
,,,,,,,,2023-08-16_08h31.35.844,HF_wild_card,2022.2.4,MacIntel,59.97361161,6146f9d153bd39dfa1fe49b5,64d2fd46c836a06233681665,64dc7b47f231ada7834e5780,,,,,,,decisionTrl,resources/DY.BMP,resources/DG.BMP,Door2,-0.327711622,0.02544682,1,0,0,0.7499,optionLeft,40,3775,2,28,0,28,0,1,,,,,,,,,,,,,,,,,,,,,,,,,,,,,,,,,,,,,,,
,,,,,,,,2023-08-16_08h31.35.844,HF_wild_card,2022.2.4,MacIntel,59.97361161,6146f9d153bd39dfa1fe49b5,64d2fd46c836a06233681665,64dc7b47f231ada7834e5780,,,,,,,decisionTrl,resources/DP.BMP,resources/DB.BMP,Door3,0.300725639,-0.039427612,1,0,0,0.7644,optionRight,70,3845,2,29,0,29,0,1,,,,,,,,,,,,,,,,,,,,,,,,,,,,,,,,,,,,,,,
,,,,,,,,2023-08-16_08h31.35.844,HF_wild_card,2022.2.4,MacIntel,59.97361161,6146f9d153bd39dfa1fe49b5,64d2fd46c836a06233681665,64dc7b47f231ada7834e5780,,,,,,,sngl,resources/DG.BMP,resources/Empty.png,Door1,-0.290620613,0.01395436,1,0,0,0.7794,optionLeft,30,3875,2,30,0,30,0,1,,,,,,,,,,,,,,,,,,,,,,,,,,,,,,,,,,,,,,,
,,,,,,,,2023-08-16_08h31.35.844,HF_wild_card,2022.2.4,MacIntel,59.97361161,6146f9d153bd39dfa1fe49b5,64d2fd46c836a06233681665,64dc7b47f231ada7834e5780,,,,,,,decisionTrl,resources/DB.BMP,resources/DBN.BMP,Door3,-0.466467258,-0.065280155,1,0,0,0.8276,optionLeft,70,3945,2,31,0,31,0,1,,,,,,,,,,,,,,,,,,,,,,,,,,,,,,,,,,,,,,,
,,,,,,,,2023-08-16_08h31.35.844,HF_wild_card,2022.2.4,MacIntel,59.97361161,6146f9d153bd39dfa1fe49b5,64d2fd46c836a06233681665,64dc7b47f231ada7834e5780,,,,,,,sngl,resources/DB.BMP,resources/Empty.png,Door3,-0.362607735,-0.012682302,1,0,0,0.6802,optionLeft,70,4015,2,32,0,32,0,1,,,,,,,,,,,,,,,,,,,,,,,,,,,,,,,,,,,,,,,
,,,,,,,,2023-08-16_08h31.35.844,HF_wild_card,2022.2.4,MacIntel,59.97361161,6146f9d153bd39dfa1fe49b5,64d2fd46c836a06233681665,64dc7b47f231ada7834e5780,,,,,,,ctch,resources/DBN.BMP,resources/DG.BMP,Door4,-0.293367058,-0.015841198,1,0,0,0.5965,optionLeft,80,4095,2,33,0,33,0,1,,,,,,,,,,,,,,,,,,,,,,,,,,,,,,,,,,,,,,,
,,,,,,,,2023-08-16_08h31.35.844,HF_wild_card,2022.2.4,MacIntel,59.97361161,6146f9d153bd39dfa1fe49b5,64d2fd46c836a06233681665,64dc7b47f231ada7834e5780,,,,,,,decisionTrl,resources/DP.BMP,resources/DBN.BMP,Door4,0.315254683,0.008801867,1,0,0,0.7296,optionRight,80,4175,2,34,0,34,0,1,,,,,,,,,,,,,,,,,,,,,,,,,,,,,,,,,,,,,,,
,,,,,,,,2023-08-16_08h31.35.844,HF_wild_card,2022.2.4,MacIntel,59.97361161,6146f9d153bd39dfa1fe49b5,64d2fd46c836a06233681665,64dc7b47f231ada7834e5780,,,,,,,sngl,resources/DP.BMP,resources/Empty.png,WildCard_NonEx,-0.359272222,0.043409418,1,0,0,0.665,optionLeft,55,4230,2,35,0,35,0,1,,,,,,,,,,,,,,,,,,,,,,,,,,,,,,,,,,,,,,,
,,,,,,,,2023-08-16_08h31.35.844,HF_wild_card,2022.2.4,MacIntel,59.97361161,6146f9d153bd39dfa1fe49b5,64d2fd46c836a06233681665,64dc7b47f231ada7834e5780,,,,,,,sngl,resources/Empty.png,resources/DP.BMP,WildCard_NonEx,0.409434401,0.006072552,1,0,0,0.7277,optionRight,55,4285,2,36,0,36,0,1,,,,,,,,,,,,,,,,,,,,,,,,,,,,,,,,,,,,,,,
,,,,,,,,2023-08-16_08h31.35.844,HF_wild_card,2022.2.4,MacIntel,59.97361161,6146f9d153bd39dfa1fe49b5,64d2fd46c836a06233681665,64dc7b47f231ada7834e5780,,,,,,,decisionTrl,resources/DBN.BMP,resources/DB.BMP,Door3,0.310480759,0.01313907,1,0,0,0.7972,optionRight,70,4355,2,37,0,37,0,1,,,,,,,,,,,,,,,,,,,,,,,,,,,,,,,,,,,,,,,
,,,,,,,,2023-08-16_08h31.35.844,HF_wild_card,2022.2.4,MacIntel,59.97361161,6146f9d153bd39dfa1fe49b5,64d2fd46c836a06233681665,64dc7b47f231ada7834e5780,,,,,,,decisionTrl,resources/DY.BMP,resources/DG.BMP,Door1,0.222308233,-0.022002384,1,0,0,0.9487,optionRight,30,4385,2,38,0,38,0,1,,,,,,,,,,,,,,,,,,,,,,,,,,,,,,,,,,,,,,,
,,,,,,,,2023-08-16_08h31.35.844,HF_wild_card,2022.2.4,MacIntel,59.97361161,6146f9d153bd39dfa1fe49b5,64d2fd46c836a06233681665,64dc7b47f231ada7834e5780,,,,,,,ctch,resources/DG.BMP,resources/DBN.BMP,Door4,0.334123747,-0.003882564,1,0,0,0.8116,optionRight,60,4445,2,39,0,39,0,1,,,,,,,,,,,,,,,,,,,,,,,,,,,,,,,,,,,,,,,
,,,,,,,,2023-08-16_08h31.35.844,HF_wild_card,2022.2.4,MacIntel,59.97361161,6146f9d153bd39dfa1fe49b5,64d2fd46c836a06233681665,64dc7b47f231ada7834e5780,,,,,,,sngl,resources/Empty.png,resources/DB.BMP,Door3,0.340186824,-0.009627867,1,0,0,0.6937,optionRight,70,4515,2,40,0,40,0,1,,,,,,,,,,,,,,,,,,,,,,,,,,,,,,,,,,,,,,,
,,,,,,,,2023-08-16_08h31.35.844,HF_wild_card,2022.2.4,MacIntel,59.97361161,6146f9d153bd39dfa1fe49b5,64d2fd46c836a06233681665,64dc7b47f231ada7834e5780,,,,,,,sngl,resources/Empty.png,resources/DP.BMP,WildCard_NonEx,0.291730952,-0.051763133,1,0,0,0.8944,optionRight,45,4560,2,41,0,41,0,1,,,,,,,,,,,,,,,,,,,,,,,,,,,,,,,,,,,,,,,
,,,,,,,,2023-08-16_08h31.35.844,HF_wild_card,2022.2.4,MacIntel,59.97361161,6146f9d153bd39dfa1fe49b5,64d2fd46c836a06233681665,64dc7b47f231ada7834e5780,,,,,,,sngl,resources/DBN.BMP,resources/Empty.png,Door4,-0.340740672,-0.005095715,1,0,0,0.5962,optionLeft,60,4620,2,42,0,42,0,1,,,,,,,,,,,,,,,,,,,,,,,,,,,,,,,,,,,,,,,
,,,,,,,,2023-08-16_08h31.35.844,HF_wild_card,2022.2.4,MacIntel,59.97361161,6146f9d153bd39dfa1fe49b5,64d2fd46c836a06233681665,64dc7b47f231ada7834e5780,,,,,,,decisionTrl,resources/DG.BMP,resources/DY.BMP,Door2,0.215472845,-0.01912206,1,0,0,1.113,optionRight,20,4640,2,43,0,43,0,1,,,,,,,,,,,,,,,,,,,,,,,,,,,,,,,,,,,,,,,
,,,,,,,,2023-08-16_08h31.35.844,HF_wild_card,2022.2.4,MacIntel,59.97361161,6146f9d153bd39dfa1fe49b5,64d2fd46c836a06233681665,64dc7b47f231ada7834e5780,,,,,,,,,,,,,,,,,,,,,,,,,,1,0,1,0,1,,,,,,,,,,,,,,,,,,,,,,,,,,,,,,,,,,
,,,,,,,,2023-08-16_08h31.35.844,HF_wild_card,2022.2.4,MacIntel,59.97361161,6146f9d153bd39dfa1fe49b5,64d2fd46c836a06233681665,64dc7b47f231ada7834e5780,,,,,,,sngl,resources/Empty.png,resources/DY.BMP,Door2,0.451671828,-0.057318088,1,0,0,1.0708,optionRight,20,4660,3,0,0,0,0,1,,,,,,,,,,,,,,,,,,,,,,,,,,,,,,,,,,,,,,,
,,,,,,,,2023-08-16_08h31.35.844,HF_wild_card,2022.2.4,MacIntel,59.97361161,6146f9d153bd39dfa1fe49b5,64d2fd46c836a06233681665,64dc7b47f231ada7834e5780,,,,,,,sngl,resources/DY.BMP,resources/Empty.png,Door2,-0.350825478,-0.013551143,1,0,0,0.5955,optionLeft,40,4700,3,1,0,1,0,1,,,,,,,,,,,,,,,,,,,,,,,,,,,,,,,,,,,,,,,
,,,,,,,,2023-08-16_08h31.35.844,HF_wild_card,2022.2.4,MacIntel,59.97361161,6146f9d153bd39dfa1fe49b5,64d2fd46c836a06233681665,64dc7b47f231ada7834e5780,,,,,,,decisionTrl,resources/DG.BMP,resources/DY.BMP,Door1,-0.410944764,-0.014068501,1,0,0,0.9459,optionLeft,30,4730,3,2,0,2,0,1,,,,,,,,,,,,,,,,,,,,,,,,,,,,,,,,,,,,,,,
,,,,,,,,2023-08-16_08h31.35.844,HF_wild_card,2022.2.4,MacIntel,59.97361161,6146f9d153bd39dfa1fe49b5,64d2fd46c836a06233681665,64dc7b47f231ada7834e5780,,,,,,,ctch,resources/DY.BMP,resources/DB.BMP,Door3,0.379604481,0.021202336,1,0,0,0.8299,optionRight,70,4800,3,3,0,3,0,1,,,,,,,,,,,,,,,,,,,,,,,,,,,,,,,,,,,,,,,
,,,,,,,,2023-08-16_08h31.35.844,HF_wild_card,2022.2.4,MacIntel,59.97361161,6146f9d153bd39dfa1fe49b5,64d2fd46c836a06233681665,64dc7b47f231ada7834e5780,,,,,,,sngl,resources/Empty.png,resources/DB.BMP,Door3,0.38267766,-0.018008838,1,0,0,0.6652,optionRight,70,4870,3,4,0,4,0,1,,,,,,,,,,,,,,,,,,,,,,,,,,,,,,,,,,,,,,,
,,,,,,,,2023-08-16_08h31.35.844,HF_wild_card,2022.2.4,MacIntel,59.97361161,6146f9d153bd39dfa1fe49b5,64d2fd46c836a06233681665,64dc7b47f231ada7834e5780,,,,,,,sngl,resources/DP.BMP,resources/Empty.png,WildCard_NonEx,-0.263752992,-0.052718687,1,0,0,0.6113,optionLeft,45,4915,3,5,0,5,0,1,,,,,,,,,,,,,,,,,,,,,,,,,,,,,,,,,,,,,,,
,,,,,,,,2023-08-16_08h31.35.844,HF_wild_card,2022.2.4,MacIntel,59.97361161,6146f9d153bd39dfa1fe49b5,64d2fd46c836a06233681665,64dc7b47f231ada7834e5780,,,,,,,decisionTrl,resources/DG.BMP,resources/DP.BMP,WildCard_NonEx,0.323118881,-0.059282541,1,0,0,2.4292,optionRight,55,4970,3,6,0,6,0,1,,,,,,,,,,,,,,,,,,,,,,,,,,,,,,,,,,,,,,,
,,,,,,,,2023-08-16_08h31.35.844,HF_wild_card,2022.2.4,MacIntel,59.97361161,6146f9d153bd39dfa1fe49b5,64d2fd46c836a06233681665,64dc7b47f231ada7834e5780,,,,,,,decisionTrl,resources/DB.BMP,resources/DP.BMP,Door3,-0.528871929,-0.033615267,1,0,0,0.7785,optionLeft,70,5040,3,7,0,7,0,1,,,,,,,,,,,,,,,,,,,,,,,,,,,,,,,,,,,,,,,
,,,,,,,,2023-08-16_08h31.35.844,HF_wild_card,2022.2.4,MacIntel,59.97361161,6146f9d153bd39dfa1fe49b5,64d2fd46c836a06233681665,64dc7b47f231ada7834e5780,,,,,,,decisionTrl,resources/DP.BMP,resources/DB.BMP,Door3,0.340634461,0.007067823,1,0,0,0.6943,optionRight,70,5110,3,8,0,8,0,1,,,,,,,,,,,,,,,,,,,,,,,,,,,,,,,,,,,,,,,
,,,,,,,,2023-08-16_08h31.35.844,HF_wild_card,2022.2.4,MacIntel,59.97361161,6146f9d153bd39dfa1fe49b5,64d2fd46c836a06233681665,64dc7b47f231ada7834e5780,,,,,,,decisionTrl,resources/DBN.BMP,resources/DB.BMP,Door4,-0.197670352,-0.021342635,1,0,0,0.9303,optionLeft,60,5170,3,9,0,9,0,1,,,,,,,,,,,,,,,,,,,,,,,,,,,,,,,,,,,,,,,
,,,,,,,,2023-08-16_08h31.35.844,HF_wild_card,2022.2.4,MacIntel,59.97361161,6146f9d153bd39dfa1fe49b5,64d2fd46c836a06233681665,64dc7b47f231ada7834e5780,,,,,,,sngl,resources/DBN.BMP,resources/Empty.png,Door4,-0.390091337,-0.027384051,1,0,0,0.6653,optionLeft,80,5250,3,10,0,10,0,1,,,,,,,,,,,,,,,,,,,,,,,,,,,,,,,,,,,,,,,
,,,,,,,,2023-08-16_08h31.35.844,HF_wild_card,2022.2.4,MacIntel,59.97361161,6146f9d153bd39dfa1fe49b5,64d2fd46c836a06233681665,64dc7b47f231ada7834e5780,,,,,,,decisionTrl,resources/DBN.BMP,resources/DB.BMP,Door3,0.372778018,-0.101304285,1,0,0,0.7964,optionRight,70,5320,3,11,0,11,0,1,,,,,,,,,,,,,,,,,,,,,,,,,,,,,,,,,,,,,,,
,,,,,,,,2023-08-16_08h31.35.844,HF_wild_card,2022.2.4,MacIntel,59.97361161,6146f9d153bd39dfa1fe49b5,64d2fd46c836a06233681665,64dc7b47f231ada7834e5780,,,,,,,decisionTrl,resources/DP.BMP,resources/DBN.BMP,Door4,0.273445807,-0.073907155,1,0,0,0.8219,optionRight,60,5380,3,12,0,12,0,1,,,,,,,,,,,,,,,,,,,,,,,,,,,,,,,,,,,,,,,
,,,,,,,,2023-08-16_08h31.35.844,HF_wild_card,2022.2.4,MacIntel,59.97361161,6146f9d153bd39dfa1fe49b5,64d2fd46c836a06233681665,64dc7b47f231ada7834e5780,,,,,,,sngl,resources/Empty.png,resources/DP.BMP,WildCard_NonEx,0.296255517,-0.054745789,1,0,0,0.929,optionRight,55,5435,3,13,0,13,0,1,,,,,,,,,,,,,,,,,,,,,,,,,,,,,,,,,,,,,,,
,,,,,,,,2023-08-16_08h31.35.844,HF_wild_card,2022.2.4,MacIntel,59.97361161,6146f9d153bd39dfa1fe49b5,64d2fd46c836a06233681665,64dc7b47f231ada7834e5780,,,,,,,decisionTrl,resources/DB.BMP,resources/DBN.BMP,Door3,-0.278522195,0.000845945,1,0,0,1.1967,optionLeft,70,5505,3,14,0,14,0,1,,,,,,,,,,,,,,,,,,,,,,,,,,,,,,,,,,,,,,,
,,,,,,,,2023-08-16_08h31.35.844,HF_wild_card,2022.2.4,MacIntel,59.97361161,6146f9d153bd39dfa1fe49b5,64d2fd46c836a06233681665,64dc7b47f231ada7834e5780,,,,,,,decisionTrl,resources/DBN.BMP,resources/DB.BMP,Door3,0.636487929,-0.063441376,1,0,0,1.6142,optionRight,70,5575,3,15,0,15,0,1,,,,,,,,,,,,,,,,,,,,,,,,,,,,,,,,,,,,,,,
,,,,,,,,2023-08-16_08h31.35.844,HF_wild_card,2022.2.4,MacIntel,59.97361161,6146f9d153bd39dfa1fe49b5,64d2fd46c836a06233681665,64dc7b47f231ada7834e5780,,,,,,,ctch,resources/DB.BMP,resources/DY.BMP,Door3,-0.260533405,-0.002187448,1,0,0,0.6314,optionLeft,70,5645,3,16,0,16,0,1,,,,,,,,,,,,,,,,,,,,,,,,,,,,,,,,,,,,,,,
,,,,,,,,2023-08-16_08h31.35.844,HF_wild_card,2022.2.4,MacIntel,59.97361161,6146f9d153bd39dfa1fe49b5,64d2fd46c836a06233681665,64dc7b47f231ada7834e5780,,,,,,,ctch,resources/DB.BMP,resources/DY.BMP,Door3,-0.184311342,0.010030912,1,0,0,0.6902,optionLeft,70,5715,3,17,0,17,0,1,,,,,,,,,,,,,,,,,,,,,,,,,,,,,,,,,,,,,,,
,,,,,,,,2023-08-16_08h31.35.844,HF_wild_card,2022.2.4,MacIntel,59.97361161,6146f9d153bd39dfa1fe49b5,64d2fd46c836a06233681665,64dc7b47f231ada7834e5780,,,,,,,decisionTrl,resources/DY.BMP,resources/DP.BMP,WildCard_NonEx,0.498108116,0.005774104,1,0,0,1.1433,optionRight,55,5770,3,18,0,18,0,1,,,,,,,,,,,,,,,,,,,,,,,,,,,,,,,,,,,,,,,
,,,,,,,,2023-08-16_08h31.35.844,HF_wild_card,2022.2.4,MacIntel,59.97361161,6146f9d153bd39dfa1fe49b5,64d2fd46c836a06233681665,64dc7b47f231ada7834e5780,,,,,,,sngl,resources/DP.BMP,resources/Empty.png,WildCard_NonEx,-0.320280884,0.02548307,1,0,0,0.6989,optionLeft,55,5825,3,19,0,19,0,1,,,,,,,,,,,,,,,,,,,,,,,,,,,,,,,,,,,,,,,
,,,,,,,,2023-08-16_08h31.35.844,HF_wild_card,2022.2.4,MacIntel,59.97361161,6146f9d153bd39dfa1fe49b5,64d2fd46c836a06233681665,64dc7b47f231ada7834e5780,,,,,,,decisionTrl,resources/DB.BMP,resources/DBN.BMP,Door4,0.453033413,-0.040480932,1,0,0,0.9465,optionRight,60,5885,3,20,0,20,0,1,,,,,,,,,,,,,,,,,,,,,,,,,,,,,,,,,,,,,,,
,,,,,,,,2023-08-16_08h31.35.844,HF_wild_card,2022.2.4,MacIntel,59.97361161,6146f9d153bd39dfa1fe49b5,64d2fd46c836a06233681665,64dc7b47f231ada7834e5780,,,,,,,ctch,resources/DBN.BMP,resources/DG.BMP,Door4,-0.265015747,0.012898191,1,0,0,0.6623,optionLeft,60,5945,3,21,0,21,0,1,,,,,,,,,,,,,,,,,,,,,,,,,,,,,,,,,,,,,,,
,,,,,,,,2023-08-16_08h31.35.844,HF_wild_card,2022.2.4,MacIntel,59.97361161,6146f9d153bd39dfa1fe49b5,64d2fd46c836a06233681665,64dc7b47f231ada7834e5780,,,,,,,decisionTrl,resources/DY.BMP,resources/DG.BMP,Door1,0.327486774,-0.040419142,1,0,0,1.4645,optionRight,30,5975,3,22,0,22,0,1,,,,,,,,,,,,,,,,,,,,,,,,,,,,,,,,,,,,,,,
,,,,,,,,2023-08-16_08h31.35.844,HF_wild_card,2022.2.4,MacIntel,59.97361161,6146f9d153bd39dfa1fe49b5,64d2fd46c836a06233681665,64dc7b47f231ada7834e5780,,,,,,,decisionTrl,resources/DY.BMP,resources/DG.BMP,Door1,0.360554235,0.018602026,1,0,0,0.8305,optionRight,30,6005,3,23,0,23,0,1,,,,,,,,,,,,,,,,,,,,,,,,,,,,,,,,,,,,,,,
,,,,,,,,2023-08-16_08h31.35.844,HF_wild_card,2022.2.4,MacIntel,59.97361161,6146f9d153bd39dfa1fe49b5,64d2fd46c836a06233681665,64dc7b47f231ada7834e5780,,,,,,,decisionTrl,resources/DG.BMP,resources/DY.BMP,Door1,-0.215422932,-0.007518515,1,0,0,1.0312,optionLeft,30,6035,3,24,0,24,0,1,,,,,,,,,,,,,,,,,,,,,,,,,,,,,,,,,,,,,,,
,,,,,,,,2023-08-16_08h31.35.844,HF_wild_card,2022.2.4,MacIntel,59.97361161,6146f9d153bd39dfa1fe49b5,64d2fd46c836a06233681665,64dc7b47f231ada7834e5780,,,,,,,ctch,resources/DG.BMP,resources/DBN.BMP,Door4,0.368021807,-0.000615054,1,0,0,0.7978,optionRight,60,6095,3,25,0,25,0,1,,,,,,,,,,,,,,,,,,,,,,,,,,,,,,,,,,,,,,,
,,,,,,,,2023-08-16_08h31.35.844,HF_wild_card,2022.2.4,MacIntel,59.97361161,6146f9d153bd39dfa1fe49b5,64d2fd46c836a06233681665,64dc7b47f231ada7834e5780,,,,,,,decisionTrl,resources/DP.BMP,resources/DG.BMP,Door1,0.269209734,-0.024428103,1,0,0,1.2128,optionRight,30,6125,3,26,0,26,0,1,,,,,,,,,,,,,,,,,,,,,,,,,,,,,,,,,,,,,,,
,,,,,,,,2023-08-16_08h31.35.844,HF_wild_card,2022.2.4,MacIntel,59.97361161,6146f9d153bd39dfa1fe49b5,64d2fd46c836a06233681665,64dc7b47f231ada7834e5780,,,,,,,decisionTrl,resources/DB.BMP,resources/DBN.BMP,Door3,-0.249837388,-0.016219217,1,0,0,0.6811,optionLeft,70,6195,3,27,0,27,0,1,,,,,,,,,,,,,,,,,,,,,,,,,,,,,,,,,,,,,,,
,,,,,,,,2023-08-16_08h31.35.844,HF_wild_card,2022.2.4,MacIntel,59.97361161,6146f9d153bd39dfa1fe49b5,64d2fd46c836a06233681665,64dc7b47f231ada7834e5780,,,,,,,sngl,resources/DB.BMP,resources/Empty.png,Door3,-0.303614613,0.003959046,1,0,0,0.6467,optionLeft,70,6265,3,28,0,28,0,1,,,,,,,,,,,,,,,,,,,,,,,,,,,,,,,,,,,,,,,
,,,,,,,,2023-08-16_08h31.35.844,HF_wild_card,2022.2.4,MacIntel,59.97361161,6146f9d153bd39dfa1fe49b5,64d2fd46c836a06233681665,64dc7b47f231ada7834e5780,,,,,,,decisionTrl,resources/DBN.BMP,resources/DP.BMP,Door4,-0.248627396,-0.008131304,1,0,0,0.8296,optionLeft,60,6325,3,29,0,29,0,1,,,,,,,,,,,,,,,,,,,,,,,,,,,,,,,,,,,,,,,
,,,,,,,,2023-08-16_08h31.35.844,HF_wild_card,2022.2.4,MacIntel,59.97361161,6146f9d153bd39dfa1fe49b5,64d2fd46c836a06233681665,64dc7b47f231ada7834e5780,,,,,,,decisionTrl,resources/DY.BMP,resources/DG.BMP,Door1,0.291501435,0.005571569,1,0,0,0.88,optionRight,30,6355,3,30,0,30,0,1,,,,,,,,,,,,,,,,,,,,,,,,,,,,,,,,,,,,,,,
,,,,,,,,2023-08-16_08h31.35.844,HF_wild_card,2022.2.4,MacIntel,59.97361161,6146f9d153bd39dfa1fe49b5,64d2fd46c836a06233681665,64dc7b47f231ada7834e5780,,,,,,,decisionTrl,resources/DB.BMP,resources/DBN.BMP,Door3,-0.350371662,-0.032836983,1,0,0,0.8124,optionLeft,70,6425,3,31,0,31,0,1,,,,,,,,,,,,,,,,,,,,,,,,,,,,,,,,,,,,,,,
,,,,,,,,2023-08-16_08h31.35.844,HF_wild_card,2022.2.4,MacIntel,59.97361161,6146f9d153bd39dfa1fe49b5,64d2fd46c836a06233681665,64dc7b47f231ada7834e5780,,,,,,,sngl,resources/Empty.png,resources/DP.BMP,WildCard_NonEx,0.492400196,-0.035205236,1,0,0,0.815,optionRight,45,6470,3,32,0,32,0,1,,,,,,,,,,,,,,,,,,,,,,,,,,,,,,,,,,,,,,,
,,,,,,,,2023-08-16_08h31.35.844,HF_wild_card,2022.2.4,MacIntel,59.97361161,6146f9d153bd39dfa1fe49b5,64d2fd46c836a06233681665,64dc7b47f231ada7834e5780,,,,,,,sngl,resources/Empty.png,resources/DG.BMP,Door1,0.582473669,-0.009332921,1,0,0,0.7314,optionRight,30,6500,3,33,0,33,0,1,,,,,,,,,,,,,,,,,,,,,,,,,,,,,,,,,,,,,,,
,,,,,,,,2023-08-16_08h31.35.844,HF_wild_card,2022.2.4,MacIntel,59.97361161,6146f9d153bd39dfa1fe49b5,64d2fd46c836a06233681665,64dc7b47f231ada7834e5780,,,,,,,ctch,resources/DY.BMP,resources/DB.BMP,Door3,0.314052861,0.011874874,1,0,0,1.1124,optionRight,70,6570,3,34,0,34,0,1,,,,,,,,,,,,,,,,,,,,,,,,,,,,,,,,,,,,,,,
,,,,,,,,2023-08-16_08h31.35.844,HF_wild_card,2022.2.4,MacIntel,59.97361161,6146f9d153bd39dfa1fe49b5,64d2fd46c836a06233681665,64dc7b47f231ada7834e5780,,,,,,,decisionTrl,resources/DG.BMP,resources/DY.BMP,Door1,-0.362102324,-0.046920313,1,0,0,1.1985,optionLeft,30,6600,3,35,0,35,0,1,,,,,,,,,,,,,,,,,,,,,,,,,,,,,,,,,,,,,,,
,,,,,,,,2023-08-16_08h31.35.844,HF_wild_card,2022.2.4,MacIntel,59.97361161,6146f9d153bd39dfa1fe49b5,64d2fd46c836a06233681665,64dc7b47f231ada7834e5780,,,,,,,decisionTrl,resources/DY.BMP,resources/DG.BMP,Door1,0.408703627,-0.042470273,1,0,0,0.7964,optionRight,30,6630,3,36,0,36,0,1,,,,,,,,,,,,,,,,,,,,,,,,,,,,,,,,,,,,,,,
,,,,,,,,2023-08-16_08h31.35.844,HF_wild_card,2022.2.4,MacIntel,59.97361161,6146f9d153bd39dfa1fe49b5,64d2fd46c836a06233681665,64dc7b47f231ada7834e5780,,,,,,,sngl,resources/Empty.png,resources/DBN.BMP,Door4,0.238857342,0.037715436,1,0,0,1.0619,optionRight,60,6690,3,37,0,37,0,1,,,,,,,,,,,,,,,,,,,,,,,,,,,,,,,,,,,,,,,
,,,,,,,,2023-08-16_08h31.35.844,HF_wild_card,2022.2.4,MacIntel,59.97361161,6146f9d153bd39dfa1fe49b5,64d2fd46c836a06233681665,64dc7b47f231ada7834e5780,,,,,,,ctch,resources/DG.BMP,resources/DBN.BMP,Door4,0.297247253,0.040654323,1,0,0,0.7291,optionRight,80,6770,3,38,0,38,0,1,,,,,,,,,,,,,,,,,,,,,,,,,,,,,,,,,,,,,,,
,,,,,,,,2023-08-16_08h31.35.844,HF_wild_card,2022.2.4,MacIntel,59.97361161,6146f9d153bd39dfa1fe49b5,64d2fd46c836a06233681665,64dc7b47f231ada7834e5780,,,,,,,decisionTrl,resources/DP.BMP,resources/DY.BMP,Door2,0.39093917,-0.005378715,1,0,0,1.3934,optionRight,40,6810,3,39,0,39,0,1,,,,,,,,,,,,,,,,,,,,,,,,,,,,,,,,,,,,,,,
,,,,,,,,2023-08-16_08h31.35.844,HF_wild_card,2022.2.4,MacIntel,59.97361161,6146f9d153bd39dfa1fe49b5,64d2fd46c836a06233681665,64dc7b47f231ada7834e5780,,,,,,,ctch,resources/DBN.BMP,resources/DG.BMP,Door4,-0.217380657,-0.047600213,1,0,0,0.8112,optionLeft,80,6890,3,40,0,40,0,1,,,,,,,,,,,,,,,,,,,,,,,,,,,,,,,,,,,,,,,
,,,,,,,,2023-08-16_08h31.35.844,HF_wild_card,2022.2.4,MacIntel,59.97361161,6146f9d153bd39dfa1fe49b5,64d2fd46c836a06233681665,64dc7b47f231ada7834e5780,,,,,,,decisionTrl,resources/DG.BMP,resources/DY.BMP,Door1,-0.333679028,-0.023196724,1,0,0,0.861,optionLeft,30,6920,3,41,0,41,0,1,,,,,,,,,,,,,,,,,,,,,,,,,,,,,,,,,,,,,,,
,,,,,,,,2023-08-16_08h31.35.844,HF_wild_card,2022.2.4,MacIntel,59.97361161,6146f9d153bd39dfa1fe49b5,64d2fd46c836a06233681665,64dc7b47f231ada7834e5780,,,,,,,sngl,resources/DG.BMP,resources/Empty.png,Door1,-0.438384495,-0.046107667,1,0,0,0.6436,optionLeft,30,6950,3,42,0,42,0,1,,,,,,,,,,,,,,,,,,,,,,,,,,,,,,,,,,,,,,,
,,,,,,,,2023-08-16_08h31.35.844,HF_wild_card,2022.2.4,MacIntel,59.97361161,6146f9d153bd39dfa1fe49b5,64d2fd46c836a06233681665,64dc7b47f231ada7834e5780,,,,,,,decisionTrl,resources/DBN.BMP,resources/DB.BMP,Door3,0.313848335,-0.007407498,1,0,0,0.9113,optionRight,70,7020,3,43,0,43,0,1,,,,,,,,,,,,,,,,,,,,,,,,,,,,,,,,,,,,,,,
,,,,,,,,2023-08-16_08h31.35.844,HF_wild_card,2022.2.4,MacIntel,59.97361161,6146f9d153bd39dfa1fe49b5,64d2fd46c836a06233681665,64dc7b47f231ada7834e5780,,,,,,,,,,,,,,,,,,,,,,,,,,2,0,2,0,1,,,,,,,,,,,,,,,,,,,,,,,,,,,,,,,,,,
,,,,,,,,2023-08-16_08h31.35.844,HF_wild_card,2022.2.4,MacIntel,59.97361161,6146f9d153bd39dfa1fe49b5,64d2fd46c836a06233681665,64dc7b47f231ada7834e5780,,,,,,,decisionTrl,resources/DY.BMP,resources/DR.BMP,WildCard_Ex,0.421814857,-0.019563896,1,0,0,2.1622,optionRight,45,7065,4,0,0,0,0,1,,,,,,,,,,,,,,,,,,,,,,,,,,,,,,,,,,,,,,,
,,,,,,,,2023-08-16_08h31.35.844,HF_wild_card,2022.2.4,MacIntel,59.97361161,6146f9d153bd39dfa1fe49b5,64d2fd46c836a06233681665,64dc7b47f231ada7834e5780,,,,,,,decisionTrl,resources/DB.BMP,resources/DR.BMP,Door3,-0.270266864,-0.040644574,1,0,0,0.8157,optionLeft,70,7135,4,1,0,1,0,1,,,,,,,,,,,,,,,,,,,,,,,,,,,,,,,,,,,,,,,
,,,,,,,,2023-08-16_08h31.35.844,HF_wild_card,2022.2.4,MacIntel,59.97361161,6146f9d153bd39dfa1fe49b5,64d2fd46c836a06233681665,64dc7b47f231ada7834e5780,,,,,,,decisionTrl,resources/DG.BMP,resources/DY.BMP,Door1,-0.252799035,-0.01764352,1,0,0,0.9329,optionLeft,30,7165,4,2,0,2,0,1,,,,,,,,,,,,,,,,,,,,,,,,,,,,,,,,,,,,,,,
,,,,,,,,2023-08-16_08h31.35.844,HF_wild_card,2022.2.4,MacIntel,59.97361161,6146f9d153bd39dfa1fe49b5,64d2fd46c836a06233681665,64dc7b47f231ada7834e5780,,,,,,,decisionTrl,resources/DB.BMP,resources/DBN.BMP,Door4,0.301718198,0.016515571,1,0,0,0.8587,optionRight,80,7245,4,3,0,3,0,1,,,,,,,,,,,,,,,,,,,,,,,,,,,,,,,,,,,,,,,
,,,,,,,,2023-08-16_08h31.35.844,HF_wild_card,2022.2.4,MacIntel,59.97361161,6146f9d153bd39dfa1fe49b5,64d2fd46c836a06233681665,64dc7b47f231ada7834e5780,,,,,,,decisionTrl,resources/DBN.BMP,resources/DB.BMP,Door4,-0.237057766,-0.031630148,1,0,0,1.1432,optionLeft,80,7325,4,4,0,4,0,1,,,,,,,,,,,,,,,,,,,,,,,,,,,,,,,,,,,,,,,
,,,,,,,,2023-08-16_08h31.35.844,HF_wild_card,2022.2.4,MacIntel,59.97361161,6146f9d153bd39dfa1fe49b5,64d2fd46c836a06233681665,64dc7b47f231ada7834e5780,,,,,,,decisionTrl,resources/DR.BMP,resources/DBN.BMP,WildCard_Ex,-0.272369762,-0.057680866,1,0,0,1.0461,optionLeft,45,7370,4,5,0,5,0,1,,,,,,,,,,,,,,,,,,,,,,,,,,,,,,,,,,,,,,,
,,,,,,,,2023-08-16_08h31.35.844,HF_wild_card,2022.2.4,MacIntel,59.97361161,6146f9d153bd39dfa1fe49b5,64d2fd46c836a06233681665,64dc7b47f231ada7834e5780,,,,,,,decisionTrl,resources/DBN.BMP,resources/DB.BMP,Door4,-0.586384004,0.051325658,1,0,0,1.6812,optionLeft,60,7430,4,6,0,6,0,1,,,,,,,,,,,,,,,,,,,,,,,,,,,,,,,,,,,,,,,
,,,,,,,,2023-08-16_08h31.35.844,HF_wild_card,2022.2.4,MacIntel,59.97361161,6146f9d153bd39dfa1fe49b5,64d2fd46c836a06233681665,64dc7b47f231ada7834e5780,,,,,,,sngl,resources/DBN.BMP,resources/Empty.png,Door4,-0.300956906,0.028445919,1,0,0,0.7124,optionLeft,60,7490,4,7,0,7,0,1,,,,,,,,,,,,,,,,,,,,,,,,,,,,,,,,,,,,,,,
,,,,,,,,2023-08-16_08h31.35.844,HF_wild_card,2022.2.4,MacIntel,59.97361161,6146f9d153bd39dfa1fe49b5,64d2fd46c836a06233681665,64dc7b47f231ada7834e5780,,,,,,,decisionTrl,resources/DBN.BMP,resources/DR.BMP,Door4,-0.277318519,-0.011732824,1,0,0,0.7138,optionLeft,60,7550,4,8,0,8,0,1,,,,,,,,,,,,,,,,,,,,,,,,,,,,,,,,,,,,,,,
,,,,,,,,2023-08-16_08h31.35.844,HF_wild_card,2022.2.4,MacIntel,59.97361161,6146f9d153bd39dfa1fe49b5,64d2fd46c836a06233681665,64dc7b47f231ada7834e5780,,,,,,,decisionTrl,resources/DG.BMP,resources/DY.BMP,Door1,-0.571399393,-0.022235162,1,0,0,1.0792,optionLeft,30,7580,4,9,0,9,0,1,,,,,,,,,,,,,,,,,,,,,,,,,,,,,,,,,,,,,,,
,,,,,,,,2023-08-16_08h31.35.844,HF_wild_card,2022.2.4,MacIntel,59.97361161,6146f9d153bd39dfa1fe49b5,64d2fd46c836a06233681665,64dc7b47f231ada7834e5780,,,,,,,sngl,resources/Empty.png,resources/DR.BMP,WildCard_Ex,0.293667874,0.00454427,1,0,0,0.7122,optionRight,45,7625,4,10,0,10,0,1,,,,,,,,,,,,,,,,,,,,,,,,,,,,,,,,,,,,,,,
,,,,,,,,2023-08-16_08h31.35.844,HF_wild_card,2022.2.4,MacIntel,59.97361161,6146f9d153bd39dfa1fe49b5,64d2fd46c836a06233681665,64dc7b47f231ada7834e5780,,,,,,,sngl,resources/DR.BMP,resources/Empty.png,WildCard_Ex,-0.428961532,-0.035596884,1,0,0,0.6138,optionLeft,45,7670,4,11,0,11,0,1,,,,,,,,,,,,,,,,,,,,,,,,,,,,,,,,,,,,,,,
,,,,,,,,2023-08-16_08h31.35.844,HF_wild_card,2022.2.4,MacIntel,59.97361161,6146f9d153bd39dfa1fe49b5,64d2fd46c836a06233681665,64dc7b47f231ada7834e5780,,,,,,,decisionTrl,resources/DB.BMP,resources/DBN.BMP,Door3,-0.34249902,-0.04235167,1,0,0,0.7802,optionLeft,70,7740,4,12,0,12,0,1,,,,,,,,,,,,,,,,,,,,,,,,,,,,,,,,,,,,,,,
,,,,,,,,2023-08-16_08h31.35.844,HF_wild_card,2022.2.4,MacIntel,59.97361161,6146f9d153bd39dfa1fe49b5,64d2fd46c836a06233681665,64dc7b47f231ada7834e5780,,,,,,,ctch,resources/DY.BMP,resources/DB.BMP,Door3,0.328454343,0.004881542,1,0,0,0.6626,optionRight,70,7810,4,13,0,13,0,1,,,,,,,,,,,,,,,,,,,,,,,,,,,,,,,,,,,,,,,
,,,,,,,,2023-08-16_08h31.35.844,HF_wild_card,2022.2.4,MacIntel,59.97361161,6146f9d153bd39dfa1fe49b5,64d2fd46c836a06233681665,64dc7b47f231ada7834e5780,,,,,,,decisionTrl,resources/DY.BMP,resources/DG.BMP,Door1,0.354158108,-0.014354659,1,0,0,0.9983,optionRight,30,7840,4,14,0,14,0,1,,,,,,,,,,,,,,,,,,,,,,,,,,,,,,,,,,,,,,,
,,,,,,,,2023-08-16_08h31.35.844,HF_wild_card,2022.2.4,MacIntel,59.97361161,6146f9d153bd39dfa1fe49b5,64d2fd46c836a06233681665,64dc7b47f231ada7834e5780,,,,,,,decisionTrl,resources/DY.BMP,resources/DG.BMP,Door1,0.269046813,0.051052269,1,0,0,0.6294,optionRight,30,7870,4,15,0,15,0,1,,,,,,,,,,,,,,,,,,,,,,,,,,,,,,,,,,,,,,,
,,,,,,,,2023-08-16_08h31.35.844,HF_wild_card,2022.2.4,MacIntel,59.97361161,6146f9d153bd39dfa1fe49b5,64d2fd46c836a06233681665,64dc7b47f231ada7834e5780,,,,,,,decisionTrl,resources/DBN.BMP,resources/DB.BMP,Door3,0.454609891,-0.048610039,1,0,0,0.8642,optionRight,70,7940,4,16,0,16,0,1,,,,,,,,,,,,,,,,,,,,,,,,,,,,,,,,,,,,,,,
,,,,,,,,2023-08-16_08h31.35.844,HF_wild_card,2022.2.4,MacIntel,59.97361161,6146f9d153bd39dfa1fe49b5,64d2fd46c836a06233681665,64dc7b47f231ada7834e5780,,,,,,,sngl,resources/Empty.png,resources/DR.BMP,WildCard_Ex,0.189207062,-0.026017042,1,0,0,1.3633,optionRight,55,7995,4,17,0,17,0,1,,,,,,,,,,,,,,,,,,,,,,,,,,,,,,,,,,,,,,,
,,,,,,,,2023-08-16_08h31.35.844,HF_wild_card,2022.2.4,MacIntel,59.97361161,6146f9d153bd39dfa1fe49b5,64d2fd46c836a06233681665,64dc7b47f231ada7834e5780,,,,,,,decisionTrl,resources/DR.BMP,resources/DB.BMP,Door3,0.316213601,-0.029400099,1,0,0,0.6447,optionRight,70,8065,4,18,0,18,0,1,,,,,,,,,,,,,,,,,,,,,,,,,,,,,,,,,,,,,,,
,,,,,,,,2023-08-16_08h31.35.844,HF_wild_card,2022.2.4,MacIntel,59.97361161,6146f9d153bd39dfa1fe49b5,64d2fd46c836a06233681665,64dc7b47f231ada7834e5780,,,,,,,decisionTrl,resources/DY.BMP,resources/DG.BMP,Door2,-0.247520146,-0.021028087,1,0,0,0.6949,optionLeft,20,8085,4,19,0,19,0,1,,,,,,,,,,,,,,,,,,,,,,,,,,,,,,,,,,,,,,,
,,,,,,,,2023-08-16_08h31.35.844,HF_wild_card,2022.2.4,MacIntel,59.97361161,6146f9d153bd39dfa1fe49b5,64d2fd46c836a06233681665,64dc7b47f231ada7834e5780,,,,,,,ctch,resources/DBN.BMP,resources/DG.BMP,Door4,-0.154201924,0.006545832,1,0,0,0.7817,optionLeft,60,8145,4,20,0,20,0,1,,,,,,,,,,,,,,,,,,,,,,,,,,,,,,,,,,,,,,,
,,,,,,,,2023-08-16_08h31.35.844,HF_wild_card,2022.2.4,MacIntel,59.97361161,6146f9d153bd39dfa1fe49b5,64d2fd46c836a06233681665,64dc7b47f231ada7834e5780,,,,,,,decisionTrl,resources/DY.BMP,resources/DG.BMP,Door1,0.330752739,0.004283721,1,0,0,0.9384,optionRight,30,8175,4,21,0,21,0,1,,,,,,,,,,,,,,,,,,,,,,,,,,,,,,,,,,,,,,,
,,,,,,,,2023-08-16_08h31.35.844,HF_wild_card,2022.2.4,MacIntel,59.97361161,6146f9d153bd39dfa1fe49b5,64d2fd46c836a06233681665,64dc7b47f231ada7834e5780,,,,,,,ctch,resources/DBN.BMP,resources/DG.BMP,Door4,-0.248622899,0.013593504,1,0,0,0.5959,optionLeft,60,8235,4,22,0,22,0,1,,,,,,,,,,,,,,,,,,,,,,,,,,,,,,,,,,,,,,,
,,,,,,,,2023-08-16_08h31.35.844,HF_wild_card,2022.2.4,MacIntel,59.97361161,6146f9d153bd39dfa1fe49b5,64d2fd46c836a06233681665,64dc7b47f231ada7834e5780,,,,,,,decisionTrl,resources/DB.BMP,resources/DBN.BMP,Door3,-0.431497065,-0.015342412,1,0,0,0.7441,optionLeft,70,8305,4,23,0,23,0,1,,,,,,,,,,,,,,,,,,,,,,,,,,,,,,,,,,,,,,,
,,,,,,,,2023-08-16_08h31.35.844,HF_wild_card,2022.2.4,MacIntel,59.97361161,6146f9d153bd39dfa1fe49b5,64d2fd46c836a06233681665,64dc7b47f231ada7834e5780,,,,,,,decisionTrl,resources/DR.BMP,resources/DG.BMP,Door1,0.292848121,0.040372628,1,0,0,0.8947,optionRight,30,8335,4,24,0,24,0,1,,,,,,,,,,,,,,,,,,,,,,,,,,,,,,,,,,,,,,,
,,,,,,,,2023-08-16_08h31.35.844,HF_wild_card,2022.2.4,MacIntel,59.97361161,6146f9d153bd39dfa1fe49b5,64d2fd46c836a06233681665,64dc7b47f231ada7834e5780,,,,,,,decisionTrl,resources/DB.BMP,resources/DBN.BMP,Door3,-0.286113452,-0.042019993,1,0,0,0.5458,optionLeft,70,8405,4,25,0,25,0,1,,,,,,,,,,,,,,,,,,,,,,,,,,,,,,,,,,,,,,,
,,,,,,,,2023-08-16_08h31.35.844,HF_wild_card,2022.2.4,MacIntel,59.97361161,6146f9d153bd39dfa1fe49b5,64d2fd46c836a06233681665,64dc7b47f231ada7834e5780,,,,,,,sngl,resources/Empty.png,resources/DBN.BMP,Door4,0.294510488,0.052977143,1,0,0,0.6142,optionRight,80,8485,4,26,0,26,0,1,,,,,,,,,,,,,,,,,,,,,,,,,,,,,,,,,,,,,,,
,,,,,,,,2023-08-16_08h31.35.844,HF_wild_card,2022.2.4,MacIntel,59.97361161,6146f9d153bd39dfa1fe49b5,64d2fd46c836a06233681665,64dc7b47f231ada7834e5780,,,,,,,sngl,resources/Empty.png,resources/DB.BMP,Door3,0.407310735,0.046974345,1,0,0,0.5142,optionRight,70,8555,4,27,0,27,0,1,,,,,,,,,,,,,,,,,,,,,,,,,,,,,,,,,,,,,,,
,,,,,,,,2023-08-16_08h31.35.844,HF_wild_card,2022.2.4,MacIntel,59.97361161,6146f9d153bd39dfa1fe49b5,64d2fd46c836a06233681665,64dc7b47f231ada7834e5780,,,,,,,sngl,resources/DY.BMP,resources/Empty.png,Door2,-0.243323379,-0.009194682,1,0,0,0.56,optionLeft,20,8575,4,28,0,28,0,1,,,,,,,,,,,,,,,,,,,,,,,,,,,,,,,,,,,,,,,
,,,,,,,,2023-08-16_08h31.35.844,HF_wild_card,2022.2.4,MacIntel,59.97361161,6146f9d153bd39dfa1fe49b5,64d2fd46c836a06233681665,64dc7b47f231ada7834e5780,,,,,,,decisionTrl,resources/DBN.BMP,resources/DB.BMP,Door3,0.514342232,0.001299486,1,0,0,1.1972,optionRight,70,8645,4,29,0,29,0,1,,,,,,,,,,,,,,,,,,,,,,,,,,,,,,,,,,,,,,,
,,,,,,,,2023-08-16_08h31.35.844,HF_wild_card,2022.2.4,MacIntel,59.97361161,6146f9d153bd39dfa1fe49b5,64d2fd46c836a06233681665,64dc7b47f231ada7834e5780,,,,,,,decisionTrl,resources/DR.BMP,resources/DY.BMP,WildCard_Ex,-0.228736388,0.019143275,1,0,0,0.878,optionLeft,55,8700,4,30,0,30,0,1,,,,,,,,,,,,,,,,,,,,,,,,,,,,,,,,,,,,,,,
,,,,,,,,2023-08-16_08h31.35.844,HF_wild_card,2022.2.4,MacIntel,59.97361161,6146f9d153bd39dfa1fe49b5,64d2fd46c836a06233681665,64dc7b47f231ada7834e5780,,,,,,,sngl,resources/Empty.png,resources/DY.BMP,Door2,0.365338869,0.110128396,1,0,0,2.123,optionRight,40,8740,4,31,0,31,0,1,,,,,,,,,,,,,,,,,,,,,,,,,,,,,,,,,,,,,,,
,,,,,,,,2023-08-16_08h31.35.844,HF_wild_card,2022.2.4,MacIntel,59.97361161,6146f9d153bd39dfa1fe49b5,64d2fd46c836a06233681665,64dc7b47f231ada7834e5780,,,,,,,sngl,resources/Empty.png,resources/DG.BMP,Door1,0.335532636,0.070075397,1,0,0,0.7068,optionRight,30,8770,4,32,0,32,0,1,,,,,,,,,,,,,,,,,,,,,,,,,,,,,,,,,,,,,,,
,,,,,,,,2023-08-16_08h31.35.844,HF_wild_card,2022.2.4,MacIntel,59.97361161,6146f9d153bd39dfa1fe49b5,64d2fd46c836a06233681665,64dc7b47f231ada7834e5780,,,,,,,ctch,resources/DG.BMP,resources/DBN.BMP,Door1,-0.241806425,0.067054603,1,0,0,0.5462,optionLeft,30,8800,4,33,0,33,0,1,,,,,,,,,,,,,,,,,,,,,,,,,,,,,,,,,,,,,,,
,,,,,,,,2023-08-16_08h31.35.844,HF_wild_card,2022.2.4,MacIntel,59.97361161,6146f9d153bd39dfa1fe49b5,64d2fd46c836a06233681665,64dc7b47f231ada7834e5780,,,,,,,ctch,resources/DG.BMP,resources/DBN.BMP,Door4,0.276537042,-0.025050881,1,0,0,0.6131,optionRight,80,8880,4,34,0,34,0,1,,,,,,,,,,,,,,,,,,,,,,,,,,,,,,,,,,,,,,,
,,,,,,,,2023-08-16_08h31.35.844,HF_wild_card,2022.2.4,MacIntel,59.97361161,6146f9d153bd39dfa1fe49b5,64d2fd46c836a06233681665,64dc7b47f231ada7834e5780,,,,,,,decisionTrl,resources/DG.BMP,resources/DY.BMP,Door1,-0.242562396,0.037069589,1,0,0,1.064,optionLeft,30,8910,4,35,0,35,0,1,,,,,,,,,,,,,,,,,,,,,,,,,,,,,,,,,,,,,,,
,,,,,,,,2023-08-16_08h31.35.844,HF_wild_card,2022.2.4,MacIntel,59.97361161,6146f9d153bd39dfa1fe49b5,64d2fd46c836a06233681665,64dc7b47f231ada7834e5780,,,,,,,decisionTrl,resources/DG.BMP,resources/DY.BMP,Door2,0.359441459,0.01241626,1,0,0,0.6628,optionRight,40,8950,4,36,0,36,0,1,,,,,,,,,,,,,,,,,,,,,,,,,,,,,,,,,,,,,,,
,,,,,,,,2023-08-16_08h31.35.844,HF_wild_card,2022.2.4,MacIntel,59.97361161,6146f9d153bd39dfa1fe49b5,64d2fd46c836a06233681665,64dc7b47f231ada7834e5780,,,,,,,ctch,resources/DB.BMP,resources/DY.BMP,Door3,-0.291785464,-0.005244526,1,0,0,0.913,optionLeft,70,9020,4,37,0,37,0,1,,,,,,,,,,,,,,,,,,,,,,,,,,,,,,,,,,,,,,,
,,,,,,,,2023-08-16_08h31.35.844,HF_wild_card,2022.2.4,MacIntel,59.97361161,6146f9d153bd39dfa1fe49b5,64d2fd46c836a06233681665,64dc7b47f231ada7834e5780,,,,,,,sngl,resources/DB.BMP,resources/Empty.png,Door3,-0.309028789,-0.02266845,1,0,0,0.6167,optionLeft,70,9090,4,38,0,38,0,1,,,,,,,,,,,,,,,,,,,,,,,,,,,,,,,,,,,,,,,
,,,,,,,,2023-08-16_08h31.35.844,HF_wild_card,2022.2.4,MacIntel,59.97361161,6146f9d153bd39dfa1fe49b5,64d2fd46c836a06233681665,64dc7b47f231ada7834e5780,,,,,,,ctch,resources/DY.BMP,resources/DB.BMP,Door3,0.258256841,-0.058983407,1,0,0,0.6806,optionRight,70,9160,4,39,0,39,0,1,,,,,,,,,,,,,,,,,,,,,,,,,,,,,,,,,,,,,,,
,,,,,,,,2023-08-16_08h31.35.844,HF_wild_card,2022.2.4,MacIntel,59.97361161,6146f9d153bd39dfa1fe49b5,64d2fd46c836a06233681665,64dc7b47f231ada7834e5780,,,,,,,ctch,resources/DB.BMP,resources/DY.BMP,Door3,-0.293584079,0.019714047,1,0,0,0.5814,optionLeft,70,9230,4,40,0,40,0,1,,,,,,,,,,,,,,,,,,,,,,,,,,,,,,,,,,,,,,,
,,,,,,,,2023-08-16_08h31.35.844,HF_wild_card,2022.2.4,MacIntel,59.97361161,6146f9d153bd39dfa1fe49b5,64d2fd46c836a06233681665,64dc7b47f231ada7834e5780,,,,,,,sngl,resources/DG.BMP,resources/Empty.png,Door1,-0.372130661,-0.014991202,1,0,0,0.8123,optionLeft,30,9260,4,41,0,41,0,1,,,,,,,,,,,,,,,,,,,,,,,,,,,,,,,,,,,,,,,
,,,,,,,,2023-08-16_08h31.35.844,HF_wild_card,2022.2.4,MacIntel,59.97361161,6146f9d153bd39dfa1fe49b5,64d2fd46c836a06233681665,64dc7b47f231ada7834e5780,,,,,,,decisionTrl,resources/DG.BMP,resources/DR.BMP,Door1,-0.274281488,-0.010553864,1,0,0,0.5963,optionLeft,30,9290,4,42,0,42,0,1,,,,,,,,,,,,,,,,,,,,,,,,,,,,,,,,,,,,,,,
,,,,,,,,2023-08-16_08h31.35.844,HF_wild_card,2022.2.4,MacIntel,59.97361161,6146f9d153bd39dfa1fe49b5,64d2fd46c836a06233681665,64dc7b47f231ada7834e5780,,,,,,,sngl,resources/DR.BMP,resources/Empty.png,WildCard_Ex,-0.332172201,-0.000309982,1,0,0,0.6653,optionLeft,55,9345,4,43,0,43,0,1,,,,,,,,,,,,,,,,,,,,,,,,,,,,,,,,,,,,,,,
,,,,,,,,2023-08-16_08h31.35.844,HF_wild_card,2022.2.4,MacIntel,59.97361161,6146f9d153bd39dfa1fe49b5,64d2fd46c836a06233681665,64dc7b47f231ada7834e5780,,,,,,,,,,,,,,,,,,,,,,,,,,3,0,3,0,1,,,,,,,,,,,,,,,,,,,,,,,,,,,,,,,,,,
,,,,,,,,2023-08-16_08h31.35.844,HF_wild_card,2022.2.4,MacIntel,59.97361161,6146f9d153bd39dfa1fe49b5,64d2fd46c836a06233681665,64dc7b47f231ada7834e5780,,,,,,,decisionTrl,resources/DY.BMP,resources/DG.BMP,Door1,0.293110113,-0.049168212,1,0,0,1.2199,optionRight,30,9375,5,0,0,0,0,1,,,,,,,,,,,,,,,,,,,,,,,,,,,,,,,,,,,,,,,
,,,,,,,,2023-08-16_08h31.35.844,HF_wild_card,2022.2.4,MacIntel,59.97361161,6146f9d153bd39dfa1fe49b5,64d2fd46c836a06233681665,64dc7b47f231ada7834e5780,,,,,,,sngl,resources/DR.BMP,resources/Empty.png,WildCard_Ex,-0.348731299,0.021119434,1,0,0,0.6463,optionLeft,45,9420,5,1,0,1,0,1,,,,,,,,,,,,,,,,,,,,,,,,,,,,,,,,,,,,,,,
,,,,,,,,2023-08-16_08h31.35.844,HF_wild_card,2022.2.4,MacIntel,59.97361161,6146f9d153bd39dfa1fe49b5,64d2fd46c836a06233681665,64dc7b47f231ada7834e5780,,,,,,,sngl,resources/Empty.png,resources/DBN.BMP,Door4,0.298732281,0.004413686,1,0,0,0.6796,optionRight,60,9480,5,2,0,2,0,1,,,,,,,,,,,,,,,,,,,,,,,,,,,,,,,,,,,,,,,
,,,,,,,,2023-08-16_08h31.35.844,HF_wild_card,2022.2.4,MacIntel,59.97361161,6146f9d153bd39dfa1fe49b5,64d2fd46c836a06233681665,64dc7b47f231ada7834e5780,,,,,,,sngl,resources/DR.BMP,resources/Empty.png,WildCard_Ex,-0.26553815,0.010764707,1,0,0,0.6297,optionLeft,55,9535,5,3,0,3,0,1,,,,,,,,,,,,,,,,,,,,,,,,,,,,,,,,,,,,,,,
,,,,,,,,2023-08-16_08h31.35.844,HF_wild_card,2022.2.4,MacIntel,59.97361161,6146f9d153bd39dfa1fe49b5,64d2fd46c836a06233681665,64dc7b47f231ada7834e5780,,,,,,,sngl,resources/Empty.png,resources/DY.BMP,Door2,0.216782114,-0.006852621,1,0,0,0.5924,optionRight,20,9555,5,4,0,4,0,1,,,,,,,,,,,,,,,,,,,,,,,,,,,,,,,,,,,,,,,
,,,,,,,,2023-08-16_08h31.35.844,HF_wild_card,2022.2.4,MacIntel,59.97361161,6146f9d153bd39dfa1fe49b5,64d2fd46c836a06233681665,64dc7b47f231ada7834e5780,,,,,,,ctch,resources/DBN.BMP,resources/DG.BMP,Door4,-0.401652041,0.014441268,1,0,0,0.6988,optionLeft,60,9615,5,5,0,5,0,1,,,,,,,,,,,,,,,,,,,,,,,,,,,,,,,,,,,,,,,
,,,,,,,,2023-08-16_08h31.35.844,HF_wild_card,2022.2.4,MacIntel,59.97361161,6146f9d153bd39dfa1fe49b5,64d2fd46c836a06233681665,64dc7b47f231ada7834e5780,,,,,,,sngl,resources/DBN.BMP,resources/Empty.png,Door4,-0.361986021,-0.013930605,1,0,0,0.6641,optionLeft,80,9695,5,6,0,6,0,1,,,,,,,,,,,,,,,,,,,,,,,,,,,,,,,,,,,,,,,
,,,,,,,,2023-08-16_08h31.35.844,HF_wild_card,2022.2.4,MacIntel,59.97361161,6146f9d153bd39dfa1fe49b5,64d2fd46c836a06233681665,64dc7b47f231ada7834e5780,,,,,,,decisionTrl,resources/DR.BMP,resources/DG.BMP,WildCard_Ex,-0.217498539,0.021711592,1,0,0,1.1786,optionLeft,45,9740,5,7,0,7,0,1,,,,,,,,,,,,,,,,,,,,,,,,,,,,,,,,,,,,,,,
,,,,,,,,2023-08-16_08h31.35.844,HF_wild_card,2022.2.4,MacIntel,59.97361161,6146f9d153bd39dfa1fe49b5,64d2fd46c836a06233681665,64dc7b47f231ada7834e5780,,,,,,,decisionTrl,resources/DG.BMP,resources/DY.BMP,Door1,-0.308238558,0.031260745,1,0,0,0.948,optionLeft,30,9770,5,8,0,8,0,1,,,,,,,,,,,,,,,,,,,,,,,,,,,,,,,,,,,,,,,
,,,,,,,,2023-08-16_08h31.35.844,HF_wild_card,2022.2.4,MacIntel,59.97361161,6146f9d153bd39dfa1fe49b5,64d2fd46c836a06233681665,64dc7b47f231ada7834e5780,,,,,,,sngl,resources/DY.BMP,resources/Empty.png,Door2,-0.383616461,0.011335238,1,0,0,0.5959,optionLeft,40,9810,5,9,0,9,0,1,,,,,,,,,,,,,,,,,,,,,,,,,,,,,,,,,,,,,,,
,,,,,,,,2023-08-16_08h31.35.844,HF_wild_card,2022.2.4,MacIntel,59.97361161,6146f9d153bd39dfa1fe49b5,64d2fd46c836a06233681665,64dc7b47f231ada7834e5780,,,,,,,decisionTrl,resources/DG.BMP,resources/DR.BMP,WildCard_Ex,0.372647435,0.000792736,1,0,0,0.8627,optionRight,45,9855,5,10,0,10,0,1,,,,,,,,,,,,,,,,,,,,,,,,,,,,,,,,,,,,,,,
,,,,,,,,2023-08-16_08h31.35.844,HF_wild_card,2022.2.4,MacIntel,59.97361161,6146f9d153bd39dfa1fe49b5,64d2fd46c836a06233681665,64dc7b47f231ada7834e5780,,,,,,,ctch,resources/DY.BMP,resources/DB.BMP,Door3,0.232508793,-0.004801867,1,0,0,0.6776,optionRight,70,9925,5,11,0,11,0,1,,,,,,,,,,,,,,,,,,,,,,,,,,,,,,,,,,,,,,,
,,,,,,,,2023-08-16_08h31.35.844,HF_wild_card,2022.2.4,MacIntel,59.97361161,6146f9d153bd39dfa1fe49b5,64d2fd46c836a06233681665,64dc7b47f231ada7834e5780,,,,,,,decisionTrl,resources/DY.BMP,resources/DR.BMP,WildCard_Ex,0.192270491,-0.032967429,1,0,0,0.8798,optionRight,55,9980,5,12,0,12,0,1,,,,,,,,,,,,,,,,,,,,,,,,,,,,,,,,,,,,,,,
,,,,,,,,2023-08-16_08h31.35.844,HF_wild_card,2022.2.4,MacIntel,59.97361161,6146f9d153bd39dfa1fe49b5,64d2fd46c836a06233681665,64dc7b47f231ada7834e5780,,,,,,,ctch,resources/DY.BMP,resources/DB.BMP,Door3,0.247598071,-0.025532331,1,0,0,0.6621,optionRight,70,10050,5,13,0,13,0,1,,,,,,,,,,,,,,,,,,,,,,,,,,,,,,,,,,,,,,,
,,,,,,,,2023-08-16_08h31.35.844,HF_wild_card,2022.2.4,MacIntel,59.97361161,6146f9d153bd39dfa1fe49b5,64d2fd46c836a06233681665,64dc7b47f231ada7834e5780,,,,,,,decisionTrl,resources/DG.BMP,resources/DY.BMP,Door1,-0.16670088,0.013344352,1,0,0,1.0967,optionLeft,30,10080,5,14,0,14,0,1,,,,,,,,,,,,,,,,,,,,,,,,,,,,,,,,,,,,,,,
,,,,,,,,2023-08-16_08h31.35.844,HF_wild_card,2022.2.4,MacIntel,59.97361161,6146f9d153bd39dfa1fe49b5,64d2fd46c836a06233681665,64dc7b47f231ada7834e5780,,,,,,,decisionTrl,resources/DB.BMP,resources/DR.BMP,Door3,-0.219386441,0.001185071,1,0,0,0.7627,optionLeft,70,10150,5,15,0,15,0,1,,,,,,,,,,,,,,,,,,,,,,,,,,,,,,,,,,,,,,,
,,,,,,,,2023-08-16_08h31.35.844,HF_wild_card,2022.2.4,MacIntel,59.97361161,6146f9d153bd39dfa1fe49b5,64d2fd46c836a06233681665,64dc7b47f231ada7834e5780,,,,,,,ctch,resources/DG.BMP,resources/DBN.BMP,Door4,0.231375627,-0.022625231,1,0,0,0.7782,optionRight,80,10230,5,16,0,16,0,1,,,,,,,,,,,,,,,,,,,,,,,,,,,,,,,,,,,,,,,
,,,,,,,,2023-08-16_08h31.35.844,HF_wild_card,2022.2.4,MacIntel,59.97361161,6146f9d153bd39dfa1fe49b5,64d2fd46c836a06233681665,64dc7b47f231ada7834e5780,,,,,,,ctch,resources/DG.BMP,resources/DBN.BMP,Door4,0.194259867,-0.014233275,1,0,0,0.6061,optionRight,60,10290,5,17,0,17,0,1,,,,,,,,,,,,,,,,,,,,,,,,,,,,,,,,,,,,,,,
,,,,,,,,2023-08-16_08h31.35.844,HF_wild_card,2022.2.4,MacIntel,59.97361161,6146f9d153bd39dfa1fe49b5,64d2fd46c836a06233681665,64dc7b47f231ada7834e5780,,,,,,,decisionTrl,resources/DBN.BMP,resources/DB.BMP,Door3,0.372847223,0.007964264,1,0,0,0.9604,optionRight,70,10360,5,18,0,18,0,1,,,,,,,,,,,,,,,,,,,,,,,,,,,,,,,,,,,,,,,
,,,,,,,,2023-08-16_08h31.35.844,HF_wild_card,2022.2.4,MacIntel,59.97361161,6146f9d153bd39dfa1fe49b5,64d2fd46c836a06233681665,64dc7b47f231ada7834e5780,,,,,,,decisionTrl,resources/DB.BMP,resources/DBN.BMP,Door3,-0.242330373,0.017388566,1,0,0,0.8124,optionLeft,70,10430,5,19,0,19,0,1,,,,,,,,,,,,,,,,,,,,,,,,,,,,,,,,,,,,,,,
,,,,,,,,2023-08-16_08h31.35.844,HF_wild_card,2022.2.4,MacIntel,59.97361161,6146f9d153bd39dfa1fe49b5,64d2fd46c836a06233681665,64dc7b47f231ada7834e5780,,,,,,,decisionTrl,resources/DR.BMP,resources/DBN.BMP,Door4,0.191078761,-0.046578749,1,0,0,0.5955,optionRight,80,10510,5,20,0,20,0,1,,,,,,,,,,,,,,,,,,,,,,,,,,,,,,,,,,,,,,,
,,,,,,,,2023-08-16_08h31.35.844,HF_wild_card,2022.2.4,MacIntel,59.97361161,6146f9d153bd39dfa1fe49b5,64d2fd46c836a06233681665,64dc7b47f231ada7834e5780,,,,,,,decisionTrl,resources/DY.BMP,resources/DG.BMP,Door1,0.0710338,0.000158973,1,0,0,0.9793,optionRight,30,10540,5,21,0,21,0,1,,,,,,,,,,,,,,,,,,,,,,,,,,,,,,,,,,,,,,,
,,,,,,,,2023-08-16_08h31.35.844,HF_wild_card,2022.2.4,MacIntel,59.97361161,6146f9d153bd39dfa1fe49b5,64d2fd46c836a06233681665,64dc7b47f231ada7834e5780,,,,,,,ctch,resources/DB.BMP,resources/DY.BMP,Door3,-0.265009808,0.023028757,1,0,0,0.6133,optionLeft,70,10610,5,22,0,22,0,1,,,,,,,,,,,,,,,,,,,,,,,,,,,,,,,,,,,,,,,
,,,,,,,,2023-08-16_08h31.35.844,HF_wild_card,2022.2.4,MacIntel,59.97361161,6146f9d153bd39dfa1fe49b5,64d2fd46c836a06233681665,64dc7b47f231ada7834e5780,,,,,,,sngl,resources/DB.BMP,resources/Empty.png,Door3,-0.381788393,0.012025265,1,0,0,0.8461,optionLeft,70,10680,5,23,0,23,0,1,,,,,,,,,,,,,,,,,,,,,,,,,,,,,,,,,,,,,,,
,,,,,,,,2023-08-16_08h31.35.844,HF_wild_card,2022.2.4,MacIntel,59.97361161,6146f9d153bd39dfa1fe49b5,64d2fd46c836a06233681665,64dc7b47f231ada7834e5780,,,,,,,decisionTrl,resources/DB.BMP,resources/DBN.BMP,Door3,-0.272412501,0.0023365,1,0,0,0.5277,optionLeft,70,10750,5,24,0,24,0,1,,,,,,,,,,,,,,,,,,,,,,,,,,,,,,,,,,,,,,,
,,,,,,,,2023-08-16_08h31.35.844,HF_wild_card,2022.2.4,MacIntel,59.97361161,6146f9d153bd39dfa1fe49b5,64d2fd46c836a06233681665,64dc7b47f231ada7834e5780,,,,,,,decisionTrl,resources/DY.BMP,resources/DG.BMP,Door2,-0.203503294,-0.005367901,1,0,0,0.8627,optionLeft,20,10770,5,25,0,25,0,1,,,,,,,,,,,,,,,,,,,,,,,,,,,,,,,,,,,,,,,
,,,,,,,,2023-08-16_08h31.35.844,HF_wild_card,2022.2.4,MacIntel,59.97361161,6146f9d153bd39dfa1fe49b5,64d2fd46c836a06233681665,64dc7b47f231ada7834e5780,,,,,,,decisionTrl,resources/DG.BMP,resources/DY.BMP,Door1,-0.067074273,-0.0018165,1,0,0,0.7642,optionLeft,30,10800,5,26,0,26,0,1,,,,,,,,,,,,,,,,,,,,,,,,,,,,,,,,,,,,,,,
,,,,,,,,2023-08-16_08h31.35.844,HF_wild_card,2022.2.4,MacIntel,59.97361161,6146f9d153bd39dfa1fe49b5,64d2fd46c836a06233681665,64dc7b47f231ada7834e5780,,,,,,,decisionTrl,resources/DB.BMP,resources/DBN.BMP,Door3,-0.489609331,0.012410253,1,0,0,0.8966,optionLeft,70,10870,5,27,0,27,0,1,,,,,,,,,,,,,,,,,,,,,,,,,,,,,,,,,,,,,,,
,,,,,,,,2023-08-16_08h31.35.844,HF_wild_card,2022.2.4,MacIntel,59.97361161,6146f9d153bd39dfa1fe49b5,64d2fd46c836a06233681665,64dc7b47f231ada7834e5780,,,,,,,ctch,resources/DBN.BMP,resources/DG.BMP,Door4,-0.266445439,-0.002933532,1,0,0,0.6118,optionLeft,60,10930,5,28,0,28,0,1,,,,,,,,,,,,,,,,,,,,,,,,,,,,,,,,,,,,,,,
,,,,,,,,2023-08-16_08h31.35.844,HF_wild_card,2022.2.4,MacIntel,59.97361161,6146f9d153bd39dfa1fe49b5,64d2fd46c836a06233681665,64dc7b47f231ada7834e5780,,,,,,,decisionTrl,resources/DBN.BMP,resources/DB.BMP,Door4,-0.367091588,0.048217705,1,0,0,0.6314,optionLeft,80,11010,5,29,0,29,0,1,,,,,,,,,,,,,,,,,,,,,,,,,,,,,,,,,,,,,,,
,,,,,,,,2023-08-16_08h31.35.844,HF_wild_card,2022.2.4,MacIntel,59.97361161,6146f9d153bd39dfa1fe49b5,64d2fd46c836a06233681665,64dc7b47f231ada7834e5780,,,,,,,sngl,resources/Empty.png,resources/DG.BMP,Door1,0.227391864,-0.039567671,1,0,0,0.7466,optionRight,30,11040,5,30,0,30,0,1,,,,,,,,,,,,,,,,,,,,,,,,,,,,,,,,,,,,,,,
,,,,,,,,2023-08-16_08h31.35.844,HF_wild_card,2022.2.4,MacIntel,59.97361161,6146f9d153bd39dfa1fe49b5,64d2fd46c836a06233681665,64dc7b47f231ada7834e5780,,,,,,,decisionTrl,resources/DY.BMP,resources/DG.BMP,Door1,0.273492905,-0.037479911,1,0,0,0.5772,optionRight,30,11070,5,31,0,31,0,1,,,,,,,,,,,,,,,,,,,,,,,,,,,,,,,,,,,,,,,
,,,,,,,,2023-08-16_08h31.35.844,HF_wild_card,2022.2.4,MacIntel,59.97361161,6146f9d153bd39dfa1fe49b5,64d2fd46c836a06233681665,64dc7b47f231ada7834e5780,,,,,,,decisionTrl,resources/DBN.BMP,resources/DR.BMP,Door4,-0.368803696,-0.011446186,1,0,0,0.7114,optionLeft,80,11150,5,32,0,32,0,1,,,,,,,,,,,,,,,,,,,,,,,,,,,,,,,,,,,,,,,
,,,,,,,,2023-08-16_08h31.35.844,HF_wild_card,2022.2.4,MacIntel,59.97361161,6146f9d153bd39dfa1fe49b5,64d2fd46c836a06233681665,64dc7b47f231ada7834e5780,,,,,,,ctch,resources/DB.BMP,resources/DY.BMP,Door3,-0.306113484,0.040974157,1,0,0,0.612,optionLeft,70,11220,5,33,0,33,0,1,,,,,,,,,,,,,,,,,,,,,,,,,,,,,,,,,,,,,,,
,,,,,,,,2023-08-16_08h31.35.844,HF_wild_card,2022.2.4,MacIntel,59.97361161,6146f9d153bd39dfa1fe49b5,64d2fd46c836a06233681665,64dc7b47f231ada7834e5780,,,,,,,decisionTrl,resources/DG.BMP,resources/DY.BMP,Door1,-0.328735489,-0.038193281,1,0,0,1.1984,optionLeft,30,11250,5,34,0,34,0,1,,,,,,,,,,,,,,,,,,,,,,,,,,,,,,,,,,,,,,,
,,,,,,,,2023-08-16_08h31.35.844,HF_wild_card,2022.2.4,MacIntel,59.97361161,6146f9d153bd39dfa1fe49b5,64d2fd46c836a06233681665,64dc7b47f231ada7834e5780,,,,,,,decisionTrl,resources/DR.BMP,resources/DY.BMP,WildCard_Ex,-0.213504684,0.028595966,1,0,0,0.9638,optionLeft,45,11295,5,35,0,35,0,1,,,,,,,,,,,,,,,,,,,,,,,,,,,,,,,,,,,,,,,
,,,,,,,,2023-08-16_08h31.35.844,HF_wild_card,2022.2.4,MacIntel,59.97361161,6146f9d153bd39dfa1fe49b5,64d2fd46c836a06233681665,64dc7b47f231ada7834e5780,,,,,,,decisionTrl,resources/DBN.BMP,resources/DB.BMP,Door3,0.490641917,-0.040662733,1,0,0,1.1822,optionRight,70,11365,5,36,0,36,0,1,,,,,,,,,,,,,,,,,,,,,,,,,,,,,,,,,,,,,,,
,,,,,,,,2023-08-16_08h31.35.844,HF_wild_card,2022.2.4,MacIntel,59.97361161,6146f9d153bd39dfa1fe49b5,64d2fd46c836a06233681665,64dc7b47f231ada7834e5780,,,,,,,decisionTrl,resources/DBN.BMP,resources/DB.BMP,Door4,-0.2482479,0.000956755,1,0,0,0.7637,optionLeft,80,11445,5,37,0,37,0,1,,,,,,,,,,,,,,,,,,,,,,,,,,,,,,,,,,,,,,,
,,,,,,,,2023-08-16_08h31.35.844,HF_wild_card,2022.2.4,MacIntel,59.97361161,6146f9d153bd39dfa1fe49b5,64d2fd46c836a06233681665,64dc7b47f231ada7834e5780,,,,,,,sngl,resources/Empty.png,resources/DR.BMP,WildCard_Ex,0.286477328,-0.060323022,1,0,0,0.7779,optionRight,55,11500,5,38,0,38,0,1,,,,,,,,,,,,,,,,,,,,,,,,,,,,,,,,,,,,,,,
,,,,,,,,2023-08-16_08h31.35.844,HF_wild_card,2022.2.4,MacIntel,59.97361161,6146f9d153bd39dfa1fe49b5,64d2fd46c836a06233681665,64dc7b47f231ada7834e5780,,,,,,,sngl,resources/Empty.png,resources/DR.BMP,WildCard_Ex,0.334993549,-0.015607184,1,0,0,1.0153,optionRight,45,11545,5,39,0,39,0,1,,,,,,,,,,,,,,,,,,,,,,,,,,,,,,,,,,,,,,,
,,,,,,,,2023-08-16_08h31.35.844,HF_wild_card,2022.2.4,MacIntel,59.97361161,6146f9d153bd39dfa1fe49b5,64d2fd46c836a06233681665,64dc7b47f231ada7834e5780,,,,,,,sngl,resources/DG.BMP,resources/Empty.png,Door1,-0.374392017,-0.02284493,1,0,0,0.7112,optionLeft,30,11575,5,40,0,40,0,1,,,,,,,,,,,,,,,,,,,,,,,,,,,,,,,,,,,,,,,
,,,,,,,,2023-08-16_08h31.35.844,HF_wild_card,2022.2.4,MacIntel,59.97361161,6146f9d153bd39dfa1fe49b5,64d2fd46c836a06233681665,64dc7b47f231ada7834e5780,,,,,,,decisionTrl,resources/DR.BMP,resources/DB.BMP,Door3,0.265042454,-0.053786013,1,0,0,0.6482,optionRight,70,11645,5,41,0,41,0,1,,,,,,,,,,,,,,,,,,,,,,,,,,,,,,,,,,,,,,,
,,,,,,,,2023-08-16_08h31.35.844,HF_wild_card,2022.2.4,MacIntel,59.97361161,6146f9d153bd39dfa1fe49b5,64d2fd46c836a06233681665,64dc7b47f231ada7834e5780,,,,,,,sngl,resources/Empty.png,resources/DB.BMP,Door3,0.269830178,-0.048421853,1,0,0,0.6309,optionRight,70,11715,5,42,0,42,0,1,,,,,,,,,,,,,,,,,,,,,,,,,,,,,,,,,,,,,,,
,,,,,,,,2023-08-16_08h31.35.844,HF_wild_card,2022.2.4,MacIntel,59.97361161,6146f9d153bd39dfa1fe49b5,64d2fd46c836a06233681665,64dc7b47f231ada7834e5780,,,,,,,decisionTrl,resources/DB.BMP,resources/DBN.BMP,Door3,-0.228329773,0.017423306,1,0,0,0.7596,optionLeft,70,11785,5,43,0,43,0,1,,,,,,,,,,,,,,,,,,,,,,,,,,,,,,,,,,,,,,,
,,,,,,,,2023-08-16_08h31.35.844,HF_wild_card,2022.2.4,MacIntel,59.97361161,6146f9d153bd39dfa1fe49b5,64d2fd46c836a06233681665,64dc7b47f231ada7834e5780,,,,,,,,,,,,,,,,,,,,,,,,,,4,0,4,0,1,,,,,,,,,,,,,,,,,,,,,,,,,,,,,,,,,,
,,,,,,,,2023-08-16_08h31.35.844,HF_wild_card,2022.2.4,MacIntel,59.97361161,6146f9d153bd39dfa1fe49b5,64d2fd46c836a06233681665,64dc7b47f231ada7834e5780,,,,,,,decisionTrl,resources/DY.BMP,resources/DG.BMP,Door1,0.285128307,-0.10651136,1,0,0,0.8541,optionRight,30,11815,6,0,0,0,0,1,,,,,,,,,,,,,,,,,,,,,,,,,,,,,,,,,,,,,,,
,,,,,,,,2023-08-16_08h31.35.844,HF_wild_card,2022.2.4,MacIntel,59.97361161,6146f9d153bd39dfa1fe49b5,64d2fd46c836a06233681665,64dc7b47f231ada7834e5780,,,,,,,decisionTrl,resources/DBN.BMP,resources/DB.BMP,Door3,0.522058064,-0.04394212,1,0,0,0.9634,optionRight,70,11885,6,1,0,1,0,1,,,,,,,,,,,,,,,,,,,,,,,,,,,,,,,,,,,,,,,
,,,,,,,,2023-08-16_08h31.35.844,HF_wild_card,2022.2.4,MacIntel,59.97361161,6146f9d153bd39dfa1fe49b5,64d2fd46c836a06233681665,64dc7b47f231ada7834e5780,,,,,,,decisionTrl,resources/DBN.BMP,resources/DB.BMP,Door3,0.266143353,0.079891621,1,0,0,0.5964,optionRight,70,11955,6,2,0,2,0,1,,,,,,,,,,,,,,,,,,,,,,,,,,,,,,,,,,,,,,,
,,,,,,,,2023-08-16_08h31.35.844,HF_wild_card,2022.2.4,MacIntel,59.97361161,6146f9d153bd39dfa1fe49b5,64d2fd46c836a06233681665,64dc7b47f231ada7834e5780,,,,,,,decisionTrl,resources/DG.BMP,resources/DR.BMP,Door1,-0.337034966,0.005513452,1,0,0,0.5618,optionLeft,30,11985,6,3,0,3,0,1,,,,,,,,,,,,,,,,,,,,,,,,,,,,,,,,,,,,,,,
,,,,,,,,2023-08-16_08h31.35.844,HF_wild_card,2022.2.4,MacIntel,59.97361161,6146f9d153bd39dfa1fe49b5,64d2fd46c836a06233681665,64dc7b47f231ada7834e5780,,,,,,,decisionTrl,resources/DBN.BMP,resources/DB.BMP,Door3,0.41448954,-0.041776093,1,0,0,0.7963,optionRight,70,12055,6,4,0,4,0,1,,,,,,,,,,,,,,,,,,,,,,,,,,,,,,,,,,,,,,,
,,,,,,,,2023-08-16_08h31.35.844,HF_wild_card,2022.2.4,MacIntel,59.97361161,6146f9d153bd39dfa1fe49b5,64d2fd46c836a06233681665,64dc7b47f231ada7834e5780,,,,,,,decisionTrl,resources/DG.BMP,resources/DY.BMP,Door1,-0.314498919,0.034784856,1,0,0,0.645,optionLeft,30,12085,6,5,0,5,0,1,,,,,,,,,,,,,,,,,,,,,,,,,,,,,,,,,,,,,,,
,,,,,,,,2023-08-16_08h31.35.844,HF_wild_card,2022.2.4,MacIntel,59.97361161,6146f9d153bd39dfa1fe49b5,64d2fd46c836a06233681665,64dc7b47f231ada7834e5780,,,,,,,decisionTrl,resources/DR.BMP,resources/DG.BMP,WildCard_Ex,-0.273805015,0.030051679,1,0,0,0.8445,optionLeft,55,12140,6,6,0,6,0,1,,,,,,,,,,,,,,,,,,,,,,,,,,,,,,,,,,,,,,,
,,,,,,,,2023-08-16_08h31.35.844,HF_wild_card,2022.2.4,MacIntel,59.97361161,6146f9d153bd39dfa1fe49b5,64d2fd46c836a06233681665,64dc7b47f231ada7834e5780,,,,,,,decisionTrl,resources/DR.BMP,resources/DY.BMP,WildCard_Ex,-0.256379444,0.018202894,1,0,0,0.4985,optionLeft,55,12195,6,7,0,7,0,1,,,,,,,,,,,,,,,,,,,,,,,,,,,,,,,,,,,,,,,
,,,,,,,,2023-08-16_08h31.35.844,HF_wild_card,2022.2.4,MacIntel,59.97361161,6146f9d153bd39dfa1fe49b5,64d2fd46c836a06233681665,64dc7b47f231ada7834e5780,,,,,,,sngl,resources/DG.BMP,resources/Empty.png,Door1,-0.324008319,0.023820909,1,0,0,0.6965,optionLeft,30,12225,6,8,0,8,0,1,,,,,,,,,,,,,,,,,,,,,,,,,,,,,,,,,,,,,,,
,,,,,,,,2023-08-16_08h31.35.844,HF_wild_card,2022.2.4,MacIntel,59.97361161,6146f9d153bd39dfa1fe49b5,64d2fd46c836a06233681665,64dc7b47f231ada7834e5780,,,,,,,decisionTrl,resources/DBN.BMP,resources/DB.BMP,Door3,0.256431966,0.020760123,1,0,0,0.997,optionRight,70,12295,6,9,0,9,0,1,,,,,,,,,,,,,,,,,,,,,,,,,,,,,,,,,,,,,,,
,,,,,,,,2023-08-16_08h31.35.844,HF_wild_card,2022.2.4,MacIntel,59.97361161,6146f9d153bd39dfa1fe49b5,64d2fd46c836a06233681665,64dc7b47f231ada7834e5780,,,,,,,sngl,resources/DR.BMP,resources/Empty.png,WildCard_Ex,-0.240335505,0.059299705,1,0,0,0.664,optionLeft,55,12350,6,10,0,10,0,1,,,,,,,,,,,,,,,,,,,,,,,,,,,,,,,,,,,,,,,
,,,,,,,,2023-08-16_08h31.35.844,HF_wild_card,2022.2.4,MacIntel,59.97361161,6146f9d153bd39dfa1fe49b5,64d2fd46c836a06233681665,64dc7b47f231ada7834e5780,,,,,,,decisionTrl,resources/DB.BMP,resources/DBN.BMP,Door3,-0.295600059,0.017317713,1,0,0,0.6799,optionLeft,70,12420,6,11,0,11,0,1,,,,,,,,,,,,,,,,,,,,,,,,,,,,,,,,,,,,,,,
,,,,,,,,2023-08-16_08h31.35.844,HF_wild_card,2022.2.4,MacIntel,59.97361161,6146f9d153bd39dfa1fe49b5,64d2fd46c836a06233681665,64dc7b47f231ada7834e5780,,,,,,,decisionTrl,resources/DG.BMP,resources/DY.BMP,Door1,-0.361466947,0.083931613,1,0,0,0.9977,optionLeft,30,12450,6,12,0,12,0,1,,,,,,,,,,,,,,,,,,,,,,,,,,,,,,,,,,,,,,,
,,,,,,,,2023-08-16_08h31.35.844,HF_wild_card,2022.2.4,MacIntel,59.97361161,6146f9d153bd39dfa1fe49b5,64d2fd46c836a06233681665,64dc7b47f231ada7834e5780,,,,,,,ctch,resources/DG.BMP,resources/DBN.BMP,Door4,0.259259768,0.005264849,1,0,0,0.7114,optionRight,80,12530,6,13,0,13,0,1,,,,,,,,,,,,,,,,,,,,,,,,,,,,,,,,,,,,,,,
,,,,,,,,2023-08-16_08h31.35.844,HF_wild_card,2022.2.4,MacIntel,59.97361161,6146f9d153bd39dfa1fe49b5,64d2fd46c836a06233681665,64dc7b47f231ada7834e5780,,,,,,,sngl,resources/DY.BMP,resources/Empty.png,Door2,-0.267676749,-0.000387803,1,0,0,0.662,optionLeft,20,12550,6,14,0,14,0,1,,,,,,,,,,,,,,,,,,,,,,,,,,,,,,,,,,,,,,,
,,,,,,,,2023-08-16_08h31.35.844,HF_wild_card,2022.2.4,MacIntel,59.97361161,6146f9d153bd39dfa1fe49b5,64d2fd46c836a06233681665,64dc7b47f231ada7834e5780,,,,,,,sngl,resources/Empty.png,resources/DB.BMP,Door3,0.219480637,-0.05602073,1,0,0,0.9987,optionRight,70,12620,6,15,0,15,0,1,,,,,,,,,,,,,,,,,,,,,,,,,,,,,,,,,,,,,,,
,,,,,,,,2023-08-16_08h31.35.844,HF_wild_card,2022.2.4,MacIntel,59.97361161,6146f9d153bd39dfa1fe49b5,64d2fd46c836a06233681665,64dc7b47f231ada7834e5780,,,,,,,decisionTrl,resources/DY.BMP,resources/DG.BMP,Door2,-0.166109546,-0.053801048,1,0,0,0.9447,optionLeft,20,12640,6,16,0,16,0,1,,,,,,,,,,,,,,,,,,,,,,,,,,,,,,,,,,,,,,,
,,,,,,,,2023-08-16_08h31.35.844,HF_wild_card,2022.2.4,MacIntel,59.97361161,6146f9d153bd39dfa1fe49b5,64d2fd46c836a06233681665,64dc7b47f231ada7834e5780,,,,,,,decisionTrl,resources/DR.BMP,resources/DB.BMP,Door3,0.289930517,0.061600813,1,0,0,0.6272,optionRight,70,12710,6,17,0,17,0,1,,,,,,,,,,,,,,,,,,,,,,,,,,,,,,,,,,,,,,,
,,,,,,,,2023-08-16_08h31.35.844,HF_wild_card,2022.2.4,MacIntel,59.97361161,6146f9d153bd39dfa1fe49b5,64d2fd46c836a06233681665,64dc7b47f231ada7834e5780,,,,,,,decisionTrl,resources/DY.BMP,resources/DR.BMP,WildCard_Ex,0.208774013,0.060087498,1,0,0,0.7464,optionRight,55,12765,6,18,0,18,0,1,,,,,,,,,,,,,,,,,,,,,,,,,,,,,,,,,,,,,,,
,,,,,,,,2023-08-16_08h31.35.844,HF_wild_card,2022.2.4,MacIntel,59.97361161,6146f9d153bd39dfa1fe49b5,64d2fd46c836a06233681665,64dc7b47f231ada7834e5780,,,,,,,ctch,resources/DB.BMP,resources/DY.BMP,Door2,0.478386964,-0.02212188,1,0,0,1.1812,optionRight,20,12785,6,19,0,19,0,1,,,,,,,,,,,,,,,,,,,,,,,,,,,,,,,,,,,,,,,
,,,,,,,,2023-08-16_08h31.35.844,HF_wild_card,2022.2.4,MacIntel,59.97361161,6146f9d153bd39dfa1fe49b5,64d2fd46c836a06233681665,64dc7b47f231ada7834e5780,,,,,,,decisionTrl,resources/DB.BMP,resources/DBN.BMP,Door3,-0.237749853,-0.000588656,1,0,0,0.5617,optionLeft,70,12855,6,20,0,20,0,1,,,,,,,,,,,,,,,,,,,,,,,,,,,,,,,,,,,,,,,
,,,,,,,,2023-08-16_08h31.35.844,HF_wild_card,2022.2.4,MacIntel,59.97361161,6146f9d153bd39dfa1fe49b5,64d2fd46c836a06233681665,64dc7b47f231ada7834e5780,,,,,,,sngl,resources/Empty.png,resources/DR.BMP,WildCard_Ex,0.24630624,0.031580441,1,0,0,0.6629,optionRight,55,12910,6,21,0,21,0,1,,,,,,,,,,,,,,,,,,,,,,,,,,,,,,,,,,,,,,,
,,,,,,,,2023-08-16_08h31.35.844,HF_wild_card,2022.2.4,MacIntel,59.97361161,6146f9d153bd39dfa1fe49b5,64d2fd46c836a06233681665,64dc7b47f231ada7834e5780,,,,,,,decisionTrl,resources/DR.BMP,resources/DBN.BMP,Door4,0.346923897,0.033541874,1,0,0,0.965,optionRight,60,12970,6,22,0,22,0,1,,,,,,,,,,,,,,,,,,,,,,,,,,,,,,,,,,,,,,,
,,,,,,,,2023-08-16_08h31.35.844,HF_wild_card,2022.2.4,MacIntel,59.97361161,6146f9d153bd39dfa1fe49b5,64d2fd46c836a06233681665,64dc7b47f231ada7834e5780,,,,,,,sngl,resources/DBN.BMP,resources/Empty.png,Door4,-0.274658306,0.046457057,1,0,0,0.6114,optionLeft,60,13030,6,23,0,23,0,1,,,,,,,,,,,,,,,,,,,,,,,,,,,,,,,,,,,,,,,
,,,,,,,,2023-08-16_08h31.35.844,HF_wild_card,2022.2.4,MacIntel,59.97361161,6146f9d153bd39dfa1fe49b5,64d2fd46c836a06233681665,64dc7b47f231ada7834e5780,,,,,,,decisionTrl,resources/DG.BMP,resources/DY.BMP,Door1,-0.395460646,0.013207486,1,0,0,1.0129,optionLeft,30,13060,6,24,0,24,0,1,,,,,,,,,,,,,,,,,,,,,,,,,,,,,,,,,,,,,,,
,,,,,,,,2023-08-16_08h31.35.844,HF_wild_card,2022.2.4,MacIntel,59.97361161,6146f9d153bd39dfa1fe49b5,64d2fd46c836a06233681665,64dc7b47f231ada7834e5780,,,,,,,sngl,resources/Empty.png,resources/DR.BMP,WildCard_Ex,0.329319339,-0.024838665,1,0,0,0.6957,optionRight,45,13105,6,25,0,25,0,1,,,,,,,,,,,,,,,,,,,,,,,,,,,,,,,,,,,,,,,
,,,,,,,,2023-08-16_08h31.35.844,HF_wild_card,2022.2.4,MacIntel,59.97361161,6146f9d153bd39dfa1fe49b5,64d2fd46c836a06233681665,64dc7b47f231ada7834e5780,,,,,,,decisionTrl,resources/DY.BMP,resources/DG.BMP,Door2,-0.304150439,0.071670755,1,0,0,0.598,optionLeft,20,13125,6,26,0,26,0,1,,,,,,,,,,,,,,,,,,,,,,,,,,,,,,,,,,,,,,,
,,,,,,,,2023-08-16_08h31.35.844,HF_wild_card,2022.2.4,MacIntel,59.97361161,6146f9d153bd39dfa1fe49b5,64d2fd46c836a06233681665,64dc7b47f231ada7834e5780,,,,,,,decisionTrl,resources/DBN.BMP,resources/DR.BMP,Door4,-0.366299298,0.025241367,1,0,0,0.6808,optionLeft,60,13185,6,27,0,27,0,1,,,,,,,,,,,,,,,,,,,,,,,,,,,,,,,,,,,,,,,
,,,,,,,,2023-08-16_08h31.35.844,HF_wild_card,2022.2.4,MacIntel,59.97361161,6146f9d153bd39dfa1fe49b5,64d2fd46c836a06233681665,64dc7b47f231ada7834e5780,,,,,,,sngl,resources/Empty.png,resources/DY.BMP,Door2,0.26079265,-0.007857538,1,0,0,0.5956,optionRight,40,13225,6,28,0,28,0,1,,,,,,,,,,,,,,,,,,,,,,,,,,,,,,,,,,,,,,,
,,,,,,,,2023-08-16_08h31.35.844,HF_wild_card,2022.2.4,MacIntel,59.97361161,6146f9d153bd39dfa1fe49b5,64d2fd46c836a06233681665,64dc7b47f231ada7834e5780,,,,,,,sngl,resources/DR.BMP,resources/Empty.png,WildCard_Ex,-0.223010446,0.015503136,1,0,0,0.5443,optionLeft,45,13270,6,29,0,29,0,1,,,,,,,,,,,,,,,,,,,,,,,,,,,,,,,,,,,,,,,
,,,,,,,,2023-08-16_08h31.35.844,HF_wild_card,2022.2.4,MacIntel,59.97361161,6146f9d153bd39dfa1fe49b5,64d2fd46c836a06233681665,64dc7b47f231ada7834e5780,,,,,,,ctch,resources/DG.BMP,resources/DBN.BMP,Door4,0.38019863,-0.009915158,1,0,0,0.6788,optionRight,60,13330,6,30,0,30,0,1,,,,,,,,,,,,,,,,,,,,,,,,,,,,,,,,,,,,,,,
,,,,,,,,2023-08-16_08h31.35.844,HF_wild_card,2022.2.4,MacIntel,59.97361161,6146f9d153bd39dfa1fe49b5,64d2fd46c836a06233681665,64dc7b47f231ada7834e5780,,,,,,,decisionTrl,resources/DG.BMP,resources/DY.BMP,Door1,-0.299226604,0.053603457,1,0,0,0.8286,optionLeft,30,13360,6,31,0,31,0,1,,,,,,,,,,,,,,,,,,,,,,,,,,,,,,,,,,,,,,,
,,,,,,,,2023-08-16_08h31.35.844,HF_wild_card,2022.2.4,MacIntel,59.97361161,6146f9d153bd39dfa1fe49b5,64d2fd46c836a06233681665,64dc7b47f231ada7834e5780,,,,,,,ctch,resources/DBN.BMP,resources/DG.BMP,Door4,-0.277763547,-0.008695004,1,0,0,0.7444,optionLeft,80,13440,6,32,0,32,0,1,,,,,,,,,,,,,,,,,,,,,,,,,,,,,,,,,,,,,,,
,,,,,,,,2023-08-16_08h31.35.844,HF_wild_card,2022.2.4,MacIntel,59.97361161,6146f9d153bd39dfa1fe49b5,64d2fd46c836a06233681665,64dc7b47f231ada7834e5780,,,,,,,decisionTrl,resources/DB.BMP,resources/DBN.BMP,Door3,-0.16779814,-0.033958753,1,0,0,0.7661,optionLeft,70,13510,6,33,0,33,0,1,,,,,,,,,,,,,,,,,,,,,,,,,,,,,,,,,,,,,,,
,,,,,,,,2023-08-16_08h31.35.844,HF_wild_card,2022.2.4,MacIntel,59.97361161,6146f9d153bd39dfa1fe49b5,64d2fd46c836a06233681665,64dc7b47f231ada7834e5780,,,,,,,decisionTrl,resources/DY.BMP,resources/DG.BMP,Door1,0.337520501,-0.025157126,1,0,0,0.9875,optionRight,30,13540,6,34,0,34,0,1,,,,,,,,,,,,,,,,,,,,,,,,,,,,,,,,,,,,,,,
,,,,,,,,2023-08-16_08h31.35.844,HF_wild_card,2022.2.4,MacIntel,59.97361161,6146f9d153bd39dfa1fe49b5,64d2fd46c836a06233681665,64dc7b47f231ada7834e5780,,,,,,,sngl,resources/Empty.png,resources/DBN.BMP,Door4,0.3171914,0.007292019,1,0,0,0.6631,optionRight,80,13620,6,35,0,35,0,1,,,,,,,,,,,,,,,,,,,,,,,,,,,,,,,,,,,,,,,
,,,,,,,,2023-08-16_08h31.35.844,HF_wild_card,2022.2.4,MacIntel,59.97361161,6146f9d153bd39dfa1fe49b5,64d2fd46c836a06233681665,64dc7b47f231ada7834e5780,,,,,,,ctch,resources/DY.BMP,resources/DB.BMP,Door3,0.341053056,-0.024761839,1,0,0,0.7786,optionRight,70,13690,6,36,0,36,0,1,,,,,,,,,,,,,,,,,,,,,,,,,,,,,,,,,,,,,,,
,,,,,,,,2023-08-16_08h31.35.844,HF_wild_card,2022.2.4,MacIntel,59.97361161,6146f9d153bd39dfa1fe49b5,64d2fd46c836a06233681665,64dc7b47f231ada7834e5780,,,,,,,decisionTrl,resources/DB.BMP,resources/DBN.BMP,Door3,-0.294343105,0.048730942,1,0,0,0.5634,optionLeft,70,13760,6,37,0,37,0,1,,,,,,,,,,,,,,,,,,,,,,,,,,,,,,,,,,,,,,,
,,,,,,,,2023-08-16_08h31.35.844,HF_wild_card,2022.2.4,MacIntel,59.97361161,6146f9d153bd39dfa1fe49b5,64d2fd46c836a06233681665,64dc7b47f231ada7834e5780,,,,,,,sngl,resources/DB.BMP,resources/Empty.png,Door3,-0.403304899,0.017875886,1,0,0,0.5476,optionLeft,70,13830,6,38,0,38,0,1,,,,,,,,,,,,,,,,,,,,,,,,,,,,,,,,,,,,,,,
,,,,,,,,2023-08-16_08h31.35.844,HF_wild_card,2022.2.4,MacIntel,59.97361161,6146f9d153bd39dfa1fe49b5,64d2fd46c836a06233681665,64dc7b47f231ada7834e5780,,,,,,,decisionTrl,resources/DB.BMP,resources/DR.BMP,Door3,-0.35374219,0.015658298,1,0,0,0.5612,optionLeft,70,13900,6,39,0,39,0,1,,,,,,,,,,,,,,,,,,,,,,,,,,,,,,,,,,,,,,,
,,,,,,,,2023-08-16_08h31.35.844,HF_wild_card,2022.2.4,MacIntel,59.97361161,6146f9d153bd39dfa1fe49b5,64d2fd46c836a06233681665,64dc7b47f231ada7834e5780,,,,,,,sngl,resources/Empty.png,resources/DG.BMP,Door1,0.214003676,-0.012276889,1,0,0,0.7148,optionRight,30,13930,6,40,0,40,0,1,,,,,,,,,,,,,,,,,,,,,,,,,,,,,,,,,,,,,,,
,,,,,,,,2023-08-16_08h31.35.844,HF_wild_card,2022.2.4,MacIntel,59.97361161,6146f9d153bd39dfa1fe49b5,64d2fd46c836a06233681665,64dc7b47f231ada7834e5780,,,,,,,ctch,resources/DY.BMP,resources/DB.BMP,Door3,0.23432955,0.005021944,1,0,0,0.7141,optionRight,70,14000,6,41,0,41,0,1,,,,,,,,,,,,,,,,,,,,,,,,,,,,,,,,,,,,,,,
,,,,,,,,2023-08-16_08h31.35.844,HF_wild_card,2022.2.4,MacIntel,59.97361161,6146f9d153bd39dfa1fe49b5,64d2fd46c836a06233681665,64dc7b47f231ada7834e5780,,,,,,,ctch,resources/DBN.BMP,resources/DG.BMP,Door4,-0.270497171,0.088692458,1,0,0,0.5799,optionLeft,80,14080,6,42,0,42,0,1,,,,,,,,,,,,,,,,,,,,,,,,,,,,,,,,,,,,,,,
,,,,,,,,2023-08-16_08h31.35.844,HF_wild_card,2022.2.4,MacIntel,59.97361161,6146f9d153bd39dfa1fe49b5,64d2fd46c836a06233681665,64dc7b47f231ada7834e5780,,,,,,,ctch,resources/DB.BMP,resources/DY.BMP,Door3,-0.291859784,0.02639386,1,0,0,0.5615,optionLeft,70,14150,6,43,0,43,0,1,,,,,,,,,,,,,,,,,,,,,,,,,,,,,,,,,,,,,,,
,,,,,,,,2023-08-16_08h31.35.844,HF_wild_card,2022.2.4,MacIntel,59.97361161,6146f9d153bd39dfa1fe49b5,64d2fd46c836a06233681665,64dc7b47f231ada7834e5780,,,,,,,,,,,,,,,,,,,,,,,,,,5,0,5,0,1,,,,,,,,,,,,,,,,,,,,,,,,,,,,,,,,,,
,,,,,,,,2023-08-16_08h31.35.844,HF_wild_card,2022.2.4,MacIntel,59.97361161,6146f9d153bd39dfa1fe49b5,64d2fd46c836a06233681665,64dc7b47f231ada7834e5780,,,,,,,decisionTrl,resources/DY.BMP,resources/DG.BMP,Door1,0.412889719,-0.02725333,1,0,0,1.0687,optionRight,30,14180,7,0,0,0,0,1,,,,,,,,,,,,,,,,,,,,,,,,,,,,,,,,,,,,,,,
,,,,,,,,2023-08-16_08h31.35.844,HF_wild_card,2022.2.4,MacIntel,59.97361161,6146f9d153bd39dfa1fe49b5,64d2fd46c836a06233681665,64dc7b47f231ada7834e5780,,,,,,,decisionTrl,resources/DG.BMP,resources/DY.BMP,Door1,-0.295413246,0.015202491,1,0,0,0.7154,optionLeft,30,14210,7,1,0,1,0,1,,,,,,,,,,,,,,,,,,,,,,,,,,,,,,,,,,,,,,,
,,,,,,,,2023-08-16_08h31.35.844,HF_wild_card,2022.2.4,MacIntel,59.97361161,6146f9d153bd39dfa1fe49b5,64d2fd46c836a06233681665,64dc7b47f231ada7834e5780,,,,,,,decisionTrl,resources/DB.BMP,resources/DBN.BMP,Door3,-0.359855763,0.011917784,1,0,0,0.5975,optionLeft,70,14280,7,2,0,2,0,1,,,,,,,,,,,,,,,,,,,,,,,,,,,,,,,,,,,,,,,
,,,,,,,,2023-08-16_08h31.35.844,HF_wild_card,2022.2.4,MacIntel,59.97361161,6146f9d153bd39dfa1fe49b5,64d2fd46c836a06233681665,64dc7b47f231ada7834e5780,,,,,,,decisionTrl,resources/DY.BMP,resources/DG.BMP,Door1,0.254855281,-0.011952146,1,0,0,0.6832,optionRight,30,14310,7,3,0,3,0,1,,,,,,,,,,,,,,,,,,,,,,,,,,,,,,,,,,,,,,,
,,,,,,,,2023-08-16_08h31.35.844,HF_wild_card,2022.2.4,MacIntel,59.97361161,6146f9d153bd39dfa1fe49b5,64d2fd46c836a06233681665,64dc7b47f231ada7834e5780,,,,,,,decisionTrl,resources/DB.BMP,resources/DBN.BMP,Door3,-0.357307494,0.027306573,1,0,0,0.6488,optionLeft,70,14380,7,4,0,4,0,1,,,,,,,,,,,,,,,,,,,,,,,,,,,,,,,,,,,,,,,
,,,,,,,,2023-08-16_08h31.35.844,HF_wild_card,2022.2.4,MacIntel,59.97361161,6146f9d153bd39dfa1fe49b5,64d2fd46c836a06233681665,64dc7b47f231ada7834e5780,,,,,,,decisionTrl,resources/DB.BMP,resources/DBN.BMP,Door3,-0.375333805,0.026224452,1,0,0,0.5178,optionLeft,70,14450,7,5,0,5,0,1,,,,,,,,,,,,,,,,,,,,,,,,,,,,,,,,,,,,,,,
,,,,,,,,2023-08-16_08h31.35.844,HF_wild_card,2022.2.4,MacIntel,59.97361161,6146f9d153bd39dfa1fe49b5,64d2fd46c836a06233681665,64dc7b47f231ada7834e5780,,,,,,,decisionTrl,resources/DBN.BMP,resources/DB.BMP,Door3,0.320505835,-0.016271774,1,0,0,0.5995,optionRight,70,14520,7,6,0,6,0,1,,,,,,,,,,,,,,,,,,,,,,,,,,,,,,,,,,,,,,,
,,,,,,,,2023-08-16_08h31.35.844,HF_wild_card,2022.2.4,MacIntel,59.97361161,6146f9d153bd39dfa1fe49b5,64d2fd46c836a06233681665,64dc7b47f231ada7834e5780,,,,,,,decisionTrl,resources/DY.BMP,resources/DG.BMP,Door1,0.411431878,-0.001335221,1,0,0,0.6654,optionRight,30,14550,7,7,0,7,0,1,,,,,,,,,,,,,,,,,,,,,,,,,,,,,,,,,,,,,,,
,,,,,,,,2023-08-16_08h31.35.844,HF_wild_card,2022.2.4,MacIntel,59.97361161,6146f9d153bd39dfa1fe49b5,64d2fd46c836a06233681665,64dc7b47f231ada7834e5780,,,,,,,decisionTrl,resources/DBN.BMP,resources/DB.BMP,Door3,0.429068223,-0.037618596,1,0,0,0.5652,optionRight,70,14620,7,8,0,8,0,1,,,,,,,,,,,,,,,,,,,,,,,,,,,,,,,,,,,,,,,
,,,,,,,,2023-08-16_08h31.35.844,HF_wild_card,2022.2.4,MacIntel,59.97361161,6146f9d153bd39dfa1fe49b5,64d2fd46c836a06233681665,64dc7b47f231ada7834e5780,,,,,,,ctch,resources/DY.BMP,resources/DB.BMP,Door3,0.24403208,-0.003836358,1,0,0,0.6162,optionRight,70,14690,7,9,0,9,0,1,,,,,,,,,,,,,,,,,,,,,,,,,,,,,,,,,,,,,,,
,,,,,,,,2023-08-16_08h31.35.844,HF_wild_card,2022.2.4,MacIntel,59.97361161,6146f9d153bd39dfa1fe49b5,64d2fd46c836a06233681665,64dc7b47f231ada7834e5780,,,,,,,decisionTrl,resources/DG.BMP,resources/DY.BMP,Door1,-0.307962733,0.047239186,1,0,0,0.6815,optionLeft,30,14720,7,10,0,10,0,1,,,,,,,,,,,,,,,,,,,,,,,,,,,,,,,,,,,,,,,
,,,,,,,,2023-08-16_08h31.35.844,HF_wild_card,2022.2.4,MacIntel,59.97361161,6146f9d153bd39dfa1fe49b5,64d2fd46c836a06233681665,64dc7b47f231ada7834e5780,,,,,,,decisionTrl,resources/DY.BMP,resources/DG.BMP,Door1,0.343460958,-0.055169019,1,0,0,0.6126,optionRight,30,14750,7,11,0,11,0,1,,,,,,,,,,,,,,,,,,,,,,,,,,,,,,,,,,,,,,,
,,,,,,,,2023-08-16_08h31.35.844,HF_wild_card,2022.2.4,MacIntel,59.97361161,6146f9d153bd39dfa1fe49b5,64d2fd46c836a06233681665,64dc7b47f231ada7834e5780,,,,,,,decisionTrl,resources/DB.BMP,resources/DBN.BMP,Door3,-0.310579796,-0.007277086,1,0,0,0.6805,optionLeft,70,14820,7,12,0,12,0,1,,,,,,,,,,,,,,,,,,,,,,,,,,,,,,,,,,,,,,,
,,,,,,,,2023-08-16_08h31.35.844,HF_wild_card,2022.2.4,MacIntel,59.97361161,6146f9d153bd39dfa1fe49b5,64d2fd46c836a06233681665,64dc7b47f231ada7834e5780,,,,,,,decisionTrl,resources/DY.BMP,resources/DG.BMP,Door1,0.372099423,-0.028261921,1,0,0,0.6492,optionRight,30,14850,7,13,0,13,0,1,,,,,,,,,,,,,,,,,,,,,,,,,,,,,,,,,,,,,,,
,,,,,,,,2023-08-16_08h31.35.844,HF_wild_card,2022.2.4,MacIntel,59.97361161,6146f9d153bd39dfa1fe49b5,64d2fd46c836a06233681665,64dc7b47f231ada7834e5780,,,,,,,decisionTrl,resources/DB.BMP,resources/DBN.BMP,Door3,-0.339882472,0.027750708,1,0,0,0.5288,optionLeft,70,14920,7,14,0,14,0,1,,,,,,,,,,,,,,,,,,,,,,,,,,,,,,,,,,,,,,,
,,,,,,,,2023-08-16_08h31.35.844,HF_wild_card,2022.2.4,MacIntel,59.97361161,6146f9d153bd39dfa1fe49b5,64d2fd46c836a06233681665,64dc7b47f231ada7834e5780,,,,,,,ctch,resources/DY.BMP,resources/DB.BMP,Door3,0.24679459,0.023406159,1,0,0,0.5942,optionRight,70,14990,7,15,0,15,0,1,,,,,,,,,,,,,,,,,,,,,,,,,,,,,,,,,,,,,,,
,,,,,,,,2023-08-16_08h31.35.844,HF_wild_card,2022.2.4,MacIntel,59.97361161,6146f9d153bd39dfa1fe49b5,64d2fd46c836a06233681665,64dc7b47f231ada7834e5780,,,,,,,ctch,resources/DG.BMP,resources/DBN.BMP,Door4,0.497782824,0.016589685,1,0,0,0.7957,optionRight,60,15050,7,16,0,16,0,1,,,,,,,,,,,,,,,,,,,,,,,,,,,,,,,,,,,,,,,
,,,,,,,,2023-08-16_08h31.35.844,HF_wild_card,2022.2.4,MacIntel,59.97361161,6146f9d153bd39dfa1fe49b5,64d2fd46c836a06233681665,64dc7b47f231ada7834e5780,,,,,,,decisionTrl,resources/DBN.BMP,resources/DB.BMP,Door3,0.366922351,0.062834011,1,0,0,1.0645,optionRight,70,15120,7,17,0,17,0,1,,,,,,,,,,,,,,,,,,,,,,,,,,,,,,,,,,,,,,,
,,,,,,,,2023-08-16_08h31.35.844,HF_wild_card,2022.2.4,MacIntel,59.97361161,6146f9d153bd39dfa1fe49b5,64d2fd46c836a06233681665,64dc7b47f231ada7834e5780,,,,,,,decisionTrl,resources/DBN.BMP,resources/DB.BMP,Door3,0.419703274,0.044693663,1,0,0,0.7143,optionRight,70,15190,7,18,0,18,0,1,,,,,,,,,,,,,,,,,,,,,,,,,,,,,,,,,,,,,,,
,,,,,,,,2023-08-16_08h31.35.844,HF_wild_card,2022.2.4,MacIntel,59.97361161,6146f9d153bd39dfa1fe49b5,64d2fd46c836a06233681665,64dc7b47f231ada7834e5780,,,,,,,ctch,resources/DY.BMP,resources/DB.BMP,Door3,0.340467695,-0.037995277,1,0,0,0.5811,optionRight,70,15260,7,19,0,19,0,1,,,,,,,,,,,,,,,,,,,,,,,,,,,,,,,,,,,,,,,
,,,,,,,,2023-08-16_08h31.35.844,HF_wild_card,2022.2.4,MacIntel,59.97361161,6146f9d153bd39dfa1fe49b5,64d2fd46c836a06233681665,64dc7b47f231ada7834e5780,,,,,,,decisionTrl,resources/DG.BMP,resources/DY.BMP,Door1,-0.454880224,0.024467408,1,0,0,0.9664,optionLeft,30,15290,7,20,0,20,0,1,,,,,,,,,,,,,,,,,,,,,,,,,,,,,,,,,,,,,,,
,,,,,,,,2023-08-16_08h31.35.844,HF_wild_card,2022.2.4,MacIntel,59.97361161,6146f9d153bd39dfa1fe49b5,64d2fd46c836a06233681665,64dc7b47f231ada7834e5780,,,,,,,decisionTrl,resources/DBN.BMP,resources/DB.BMP,Door3,0.295393816,-0.055862169,1,0,0,0.5986,optionRight,70,15360,7,21,0,21,0,1,,,,,,,,,,,,,,,,,,,,,,,,,,,,,,,,,,,,,,,
,,,,,,,,2023-08-16_08h31.35.844,HF_wild_card,2022.2.4,MacIntel,59.97361161,6146f9d153bd39dfa1fe49b5,64d2fd46c836a06233681665,64dc7b47f231ada7834e5780,,,,,,,decisionTrl,resources/DY.BMP,resources/DG.BMP,Door1,0.334973158,-0.022416551,1,0,0,0.75,optionRight,30,15390,7,22,0,22,0,1,,,,,,,,,,,,,,,,,,,,,,,,,,,,,,,,,,,,,,,
,,,,,,,,2023-08-16_08h31.35.844,HF_wild_card,2022.2.4,MacIntel,59.97361161,6146f9d153bd39dfa1fe49b5,64d2fd46c836a06233681665,64dc7b47f231ada7834e5780,,,,,,,decisionTrl,resources/DB.BMP,resources/DBN.BMP,Door3,-0.571323116,0.025436796,1,0,0,0.6488,optionLeft,70,15460,7,23,0,23,0,1,,,,,,,,,,,,,,,,,,,,,,,,,,,,,,,,,,,,,,,
,,,,,,,,2023-08-16_08h31.35.844,HF_wild_card,2022.2.4,MacIntel,59.97361161,6146f9d153bd39dfa1fe49b5,64d2fd46c836a06233681665,64dc7b47f231ada7834e5780,,,,,,,decisionTrl,resources/DG.BMP,resources/DY.BMP,Door1,-0.321918775,-0.001910902,1,0,0,0.7156,optionLeft,30,15490,7,24,0,24,0,1,,,,,,,,,,,,,,,,,,,,,,,,,,,,,,,,,,,,,,,
,,,,,,,,2023-08-16_08h31.35.844,HF_wild_card,2022.2.4,MacIntel,59.97361161,6146f9d153bd39dfa1fe49b5,64d2fd46c836a06233681665,64dc7b47f231ada7834e5780,,,,,,,ctch,resources/DG.BMP,resources/DBN.BMP,Door1,-0.201143108,0.011068647,1,0,0,0.6162,optionLeft,30,15520,7,25,0,25,0,1,,,,,,,,,,,,,,,,,,,,,,,,,,,,,,,,,,,,,,,
,,,,,,,,2023-08-16_08h31.35.844,HF_wild_card,2022.2.4,MacIntel,59.97361161,6146f9d153bd39dfa1fe49b5,64d2fd46c836a06233681665,64dc7b47f231ada7834e5780,,,,,,,ctch,resources/DB.BMP,resources/DY.BMP,Door3,-0.343698748,-0.006308625,1,0,0,0.6816,optionLeft,70,15590,7,26,0,26,0,1,,,,,,,,,,,,,,,,,,,,,,,,,,,,,,,,,,,,,,,
,,,,,,,,2023-08-16_08h31.35.844,HF_wild_card,2022.2.4,MacIntel,59.97361161,6146f9d153bd39dfa1fe49b5,64d2fd46c836a06233681665,64dc7b47f231ada7834e5780,,,,,,,ctch,resources/DB.BMP,resources/DY.BMP,Door3,-0.31749455,0.01048974,1,0,0,0.5649,optionLeft,70,15660,7,27,0,27,0,1,,,,,,,,,,,,,,,,,,,,,,,,,,,,,,,,,,,,,,,
,,,,,,,,2023-08-16_08h31.35.844,HF_wild_card,2022.2.4,MacIntel,59.97361161,6146f9d153bd39dfa1fe49b5,64d2fd46c836a06233681665,64dc7b47f231ada7834e5780,,,,,,,decisionTrl,resources/DG.BMP,resources/DY.BMP,Door1,-0.303273874,0.017248782,1,0,0,1.3988,optionLeft,30,15690,7,28,0,28,0,1,,,,,,,,,,,,,,,,,,,,,,,,,,,,,,,,,,,,,,,
,,,,,,,,2023-08-16_08h31.35.844,HF_wild_card,2022.2.4,MacIntel,59.97361161,6146f9d153bd39dfa1fe49b5,64d2fd46c836a06233681665,64dc7b47f231ada7834e5780,,,,,,,ctch,resources/DG.BMP,resources/DBN.BMP,Door4,0.281731622,-0.038027305,1,0,0,0.8834,optionRight,60,15750,7,29,0,29,0,1,,,,,,,,,,,,,,,,,,,,,,,,,,,,,,,,,,,,,,,
,,,,,,,,2023-08-16_08h31.35.844,HF_wild_card,2022.2.4,MacIntel,59.97361161,6146f9d153bd39dfa1fe49b5,64d2fd46c836a06233681665,64dc7b47f231ada7834e5780,,,,,,,ctch,resources/DB.BMP,resources/DY.BMP,Door3,-0.344380262,0.026930613,1,0,0,0.6817,optionLeft,70,15820,7,30,0,30,0,1,,,,,,,,,,,,,,,,,,,,,,,,,,,,,,,,,,,,,,,
,,,,,,,,2023-08-16_08h31.35.844,HF_wild_card,2022.2.4,MacIntel,59.97361161,6146f9d153bd39dfa1fe49b5,64d2fd46c836a06233681665,64dc7b47f231ada7834e5780,,,,,,,ctch,resources/DBN.BMP,resources/DG.BMP,Door4,-0.348259599,0.014997587,1,0,0,0.649,optionLeft,60,15880,7,31,0,31,0,1,,,,,,,,,,,,,,,,,,,,,,,,,,,,,,,,,,,,,,,
,,,,,,,,2023-08-16_08h31.35.844,HF_wild_card,2022.2.4,MacIntel,59.97361161,6146f9d153bd39dfa1fe49b5,64d2fd46c836a06233681665,64dc7b47f231ada7834e5780,,,,,,,decisionTrl,resources/DG.BMP,resources/DY.BMP,Door1,-0.461550701,0.02287253,1,0,0,0.8622,optionLeft,30,15910,7,32,0,32,0,1,,,,,,,,,,,,,,,,,,,,,,,,,,,,,,,,,,,,,,,
,,,,,,,,2023-08-16_08h31.35.844,HF_wild_card,2022.2.4,MacIntel,59.97361161,6146f9d153bd39dfa1fe49b5,64d2fd46c836a06233681665,64dc7b47f231ada7834e5780,,,,,,,ctch,resources/DBN.BMP,resources/DG.BMP,Door4,-0.346008129,0.018241273,1,0,0,0.5497,optionLeft,60,15970,7,33,0,33,0,1,,,,,,,,,,,,,,,,,,,,,,,,,,,,,,,,,,,,,,,
,,,,,,,,2023-08-16_08h31.35.844,HF_wild_card,2022.2.4,MacIntel,59.97361161,6146f9d153bd39dfa1fe49b5,64d2fd46c836a06233681665,64dc7b47f231ada7834e5780,,,,,,,ctch,resources/DBN.BMP,resources/DG.BMP,Door4,-0.267293889,0.022138495,1,0,0,0.5003,optionLeft,80,16050,7,34,0,34,0,1,,,,,,,,,,,,,,,,,,,,,,,,,,,,,,,,,,,,,,,
,,,,,,,,2023-08-16_08h31.35.844,HF_wild_card,2022.2.4,MacIntel,59.97361161,6146f9d153bd39dfa1fe49b5,64d2fd46c836a06233681665,64dc7b47f231ada7834e5780,,,,,,,decisionTrl,resources/DBN.BMP,resources/DB.BMP,Door4,-0.202246547,0.010829037,1,0,0,0.5126,optionLeft,60,16110,7,35,0,35,0,1,,,,,,,,,,,,,,,,,,,,,,,,,,,,,,,,,,,,,,,
,,,,,,,,2023-08-16_08h31.35.844,HF_wild_card,2022.2.4,MacIntel,59.97361161,6146f9d153bd39dfa1fe49b5,64d2fd46c836a06233681665,64dc7b47f231ada7834e5780,,,,,,,,,,,,,,,,,,,,,,,,,,6,0,6,0,1,,,,,,,,,,,,,,,,,,,,,,,,,,,,,,,,,,
,,,,,,,,2023-08-16_08h31.35.844,HF_wild_card,2022.2.4,MacIntel,59.97361161,6146f9d153bd39dfa1fe49b5,64d2fd46c836a06233681665,64dc7b47f231ada7834e5780,,,,,,,,,,,,,,,,,,,,,,,,,,,,,,,4,,,,,,,,,,,,,,,,,,,,,,,,,,,,,,,,,
,,,,,,,,2023-08-16_08h31.35.844,HF_wild_card,2022.2.4,MacIntel,59.97361161,6146f9d153bd39dfa1fe49b5,64d2fd46c836a06233681665,64dc7b47f231ada7834e5780,,,,,,,,,,,,,,,,,,,,,,,,,,,,,,,,,,,,,,,,,,,,,,,,,,,,,,,,,,,,,,,,
,,,,,,,,2023-08-16_08h31.35.844,HF_wild_card,2022.2.4,MacIntel,59.97361161,6146f9d153bd39dfa1fe49b5,64d2fd46c836a06233681665,64dc7b47f231ada7834e5780,,,,,,,,,,,,,,,,,,,,,,,,,,,,,,,,70,Door3,resources/DB.BMP,0,0,0,0,1,,,,,,,,,,,,,,,,,,,,,,,,,
,,,,,,,,2023-08-16_08h31.35.844,HF_wild_card,2022.2.4,MacIntel,59.97361161,6146f9d153bd39dfa1fe49b5,64d2fd46c836a06233681665,64dc7b47f231ada7834e5780,,,,,,,,,,,,,,,,,,,,,,,,,,,,,,,,20,Door2,resources/DY.BMP,1,0,1,0,1,,,,,,,,,,,,,,,,,,,,,,,,,
,,,,,,,,2023-08-16_08h31.35.844,HF_wild_card,2022.2.4,MacIntel,59.97361161,6146f9d153bd39dfa1fe49b5,64d2fd46c836a06233681665,64dc7b47f231ada7834e5780,,,,,,,,,,,,,,,,,,,,,,,,,,,,,,,,40,Door1,resources/DG.BMP,2,0,2,0,1,,,,,,,,,,,,,,,,,,,,,,,,,
