Condition,Low fixed image (Door1),Low risky image (Door2),High fixed image (Door3),High risky image (Door4),Extreme Wild Card,NonExtreme Wild Card,,date,expName,psychopyVersion,OS,frameRate,PROLIFIC_PID,STUDY_ID,SESSION_ID,mouse_2.x,mouse_2.y,mouse_2.leftButton,mouse_2.midButton,mouse_2.rightButton,mouse_2.clicked_name,Trial Type,Left Option Image,Right Option Image,Chosen Door,mouse.x,mouse.y,mouse.leftButton,mouse.midButton,mouse.rightButton,mouse.time,mouse.clicked_name,Feedback,Cumulative Reward,Block,trial.thisRepN,trial.thisTrialN,trial.thisN,trial.thisIndex,trial.ran,blocks.thisRepN,blocks.thisTrialN,blocks.thisN,blocks.thisIndex,blocks.ran,Money conversion,First Outcome Reported,Shown Door (First Outcome),Displayed Image (First Outcome),outcomes.thisRepN,outcomes.thisTrialN,outcomes.thisN,outcomes.thisIndex,outcomes.ran,judgments.thisRepN,judgments.thisTrialN,judgments.thisN,judgments.thisIndex,judgments.ran,freqMouse.x,freqMouse.y,freqMouse.leftButton,freqMouse.midButton,freqMouse.rightButton,freqMouse.clicked_name,FQJ for first outcome,FQJ for second outcome,Shown Door,Displayed Image,trials.thisRepN,trials.thisTrialN,trials.thisN,trials.thisIndex,trials.ran,judgBlock.thisRepN,judgBlock.thisTrialN,judgBlock.thisN,judgBlock.thisIndex,judgBlock.ran
0,resources/DR.BMP,resources/DG.BMP,resources/DB.BMP,resources/DP.BMP,resources/DBN.BMP,resources/DY.BMP,5cdc899d48d5f100195fafff,2023-08-16_08h48.56.432,HF_wild_card,2022.2.4,Win32,36.78905158,5cdc899d48d5f100195fafff,64d2fd46c836a06233681665,64dc7f3f0f8c32a0027f374d,,,,,,,,,,,,,,,,,,,,,,,,,,,,,,,,,,,,,,,,,,,,,,,,,,,,,,,,,,,,,,,,
,,,,,,,5cdc899d48d5f100195fafff,2023-08-16_08h48.56.432,HF_wild_card,2022.2.4,Win32,36.78905158,5cdc899d48d5f100195fafff,64d2fd46c836a06233681665,64dc7f3f0f8c32a0027f374d,-0.005208333,-0.420572917,1,0,0,agree,,,,,,,,,,,,,,,,,,,,,,,,,,,,,,,,,,,,,,,,,,,,,,,,,,,,,,,,,,
,,,,,,,5cdc899d48d5f100195fafff,2023-08-16_08h48.56.432,HF_wild_card,2022.2.4,Win32,36.78905158,5cdc899d48d5f100195fafff,64d2fd46c836a06233681665,64dc7f3f0f8c32a0027f374d,,,,,,,,,,,,,,,,,,,,,,,,,,,,,,,,,,,,,,,,,,,,,,,,,,,,,,,,,,,,,,,,
,,,,,,,5cdc899d48d5f100195fafff,2023-08-16_08h48.56.432,HF_wild_card,2022.2.4,Win32,36.78905158,5cdc899d48d5f100195fafff,64d2fd46c836a06233681665,64dc7f3f0f8c32a0027f374d,,,,,,,decisionTrl,resources/DG.BMP,resources/DR.BMP,Door2,-0.37890625,0.006510417,1,0,0,1.8076,optionLeft,40,40,1,0,0,0,0,1,,,,,,,,,,,,,,,,,,,,,,,,,,,,,,,,,,,,,,,
,,,,,,,5cdc899d48d5f100195fafff,2023-08-16_08h48.56.432,HF_wild_card,2022.2.4,Win32,36.78905158,5cdc899d48d5f100195fafff,64d2fd46c836a06233681665,64dc7f3f0f8c32a0027f374d,,,,,,,sngl,resources/DR.BMP,resources/Empty.png,Door1,-0.384114583,-0.014322917,1,0,0,1.0787,optionLeft,30,70,1,1,0,1,0,1,,,,,,,,,,,,,,,,,,,,,,,,,,,,,,,,,,,,,,,
,,,,,,,5cdc899d48d5f100195fafff,2023-08-16_08h48.56.432,HF_wild_card,2022.2.4,Win32,36.78905158,5cdc899d48d5f100195fafff,64d2fd46c836a06233681665,64dc7f3f0f8c32a0027f374d,,,,,,,decisionTrl,resources/DBN.BMP,resources/DP.BMP,Door4,0.381510417,-0.015625,1,0,0,0.7733,optionRight,80,150,1,2,0,2,0,1,,,,,,,,,,,,,,,,,,,,,,,,,,,,,,,,,,,,,,,
,,,,,,,5cdc899d48d5f100195fafff,2023-08-16_08h48.56.432,HF_wild_card,2022.2.4,Win32,36.78905158,5cdc899d48d5f100195fafff,64d2fd46c836a06233681665,64dc7f3f0f8c32a0027f374d,,,,,,,sngl,resources/Empty.png,resources/DBN.BMP,WildCard_Ex,0.348958333,0.013020833,1,0,0,0.6747,optionRight,5,155,1,3,0,3,0,1,,,,,,,,,,,,,,,,,,,,,,,,,,,,,,,,,,,,,,,
,,,,,,,5cdc899d48d5f100195fafff,2023-08-16_08h48.56.432,HF_wild_card,2022.2.4,Win32,36.78905158,5cdc899d48d5f100195fafff,64d2fd46c836a06233681665,64dc7f3f0f8c32a0027f374d,,,,,,,ctch,resources/DB.BMP,resources/DG.BMP,Door3,-0.375,-0.002604167,1,0,0,0.5334,optionLeft,70,225,1,4,0,4,0,1,,,,,,,,,,,,,,,,,,,,,,,,,,,,,,,,,,,,,,,
,,,,,,,5cdc899d48d5f100195fafff,2023-08-16_08h48.56.432,HF_wild_card,2022.2.4,Win32,36.78905158,5cdc899d48d5f100195fafff,64d2fd46c836a06233681665,64dc7f3f0f8c32a0027f374d,,,,,,,decisionTrl,resources/DP.BMP,resources/DB.BMP,Door3,0.373697917,0.005208333,1,0,0,0.5408,optionRight,70,295,1,5,0,5,0,1,,,,,,,,,,,,,,,,,,,,,,,,,,,,,,,,,,,,,,,
,,,,,,,5cdc899d48d5f100195fafff,2023-08-16_08h48.56.432,HF_wild_card,2022.2.4,Win32,36.78905158,5cdc899d48d5f100195fafff,64d2fd46c836a06233681665,64dc7f3f0f8c32a0027f374d,,,,,,,decisionTrl,resources/DBN.BMP,resources/DG.BMP,WildCard_Ex,-0.376302083,-0.020833333,1,0,0,0.6462,optionLeft,5,300,1,6,0,6,0,1,,,,,,,,,,,,,,,,,,,,,,,,,,,,,,,,,,,,,,,
,,,,,,,5cdc899d48d5f100195fafff,2023-08-16_08h48.56.432,HF_wild_card,2022.2.4,Win32,36.78905158,5cdc899d48d5f100195fafff,64d2fd46c836a06233681665,64dc7f3f0f8c32a0027f374d,,,,,,,ctch,resources/DB.BMP,resources/DG.BMP,Door2,0.475260417,0.009114583,1,0,0,0.5152,optionRight,20,320,1,7,0,7,0,1,,,,,,,,,,,,,,,,,,,,,,,,,,,,,,,,,,,,,,,
,,,,,,,5cdc899d48d5f100195fafff,2023-08-16_08h48.56.432,HF_wild_card,2022.2.4,Win32,36.78905158,5cdc899d48d5f100195fafff,64d2fd46c836a06233681665,64dc7f3f0f8c32a0027f374d,,,,,,,ctch,resources/DP.BMP,resources/DR.BMP,Door4,-0.296875,-0.0234375,1,0,0,0.5652,optionLeft,60,380,1,8,0,8,0,1,,,,,,,,,,,,,,,,,,,,,,,,,,,,,,,,,,,,,,,
,,,,,,,5cdc899d48d5f100195fafff,2023-08-16_08h48.56.432,HF_wild_card,2022.2.4,Win32,36.78905158,5cdc899d48d5f100195fafff,64d2fd46c836a06233681665,64dc7f3f0f8c32a0027f374d,,,,,,,decisionTrl,resources/DP.BMP,resources/DB.BMP,Door4,-0.354166667,-0.037760417,1,0,0,0.5431,optionLeft,80,460,1,9,0,9,0,1,,,,,,,,,,,,,,,,,,,,,,,,,,,,,,,,,,,,,,,
,,,,,,,5cdc899d48d5f100195fafff,2023-08-16_08h48.56.432,HF_wild_card,2022.2.4,Win32,36.78905158,5cdc899d48d5f100195fafff,64d2fd46c836a06233681665,64dc7f3f0f8c32a0027f374d,,,,,,,sngl,resources/Empty.png,resources/DB.BMP,Door3,0.375,0.001302083,1,0,0,1.0822,optionRight,70,530,1,10,0,10,0,1,,,,,,,,,,,,,,,,,,,,,,,,,,,,,,,,,,,,,,,
,,,,,,,5cdc899d48d5f100195fafff,2023-08-16_08h48.56.432,HF_wild_card,2022.2.4,Win32,36.78905158,5cdc899d48d5f100195fafff,64d2fd46c836a06233681665,64dc7f3f0f8c32a0027f374d,,,,,,,decisionTrl,resources/DB.BMP,resources/DP.BMP,Door4,0.270833333,0.032552083,1,0,0,1.0957,optionRight,80,610,1,11,0,11,0,1,,,,,,,,,,,,,,,,,,,,,,,,,,,,,,,,,,,,,,,
,,,,,,,5cdc899d48d5f100195fafff,2023-08-16_08h48.56.432,HF_wild_card,2022.2.4,Win32,36.78905158,5cdc899d48d5f100195fafff,64d2fd46c836a06233681665,64dc7f3f0f8c32a0027f374d,,,,,,,decisionTrl,resources/DB.BMP,resources/DP.BMP,Door4,0.411458333,-0.001302083,1,0,0,0.6611,optionRight,80,690,1,12,0,12,0,1,,,,,,,,,,,,,,,,,,,,,,,,,,,,,,,,,,,,,,,
,,,,,,,5cdc899d48d5f100195fafff,2023-08-16_08h48.56.432,HF_wild_card,2022.2.4,Win32,36.78905158,5cdc899d48d5f100195fafff,64d2fd46c836a06233681665,64dc7f3f0f8c32a0027f374d,,,,,,,decisionTrl,resources/DR.BMP,resources/DG.BMP,Door1,-0.309895833,-0.018229167,1,0,0,0.7729,optionLeft,30,720,1,13,0,13,0,1,,,,,,,,,,,,,,,,,,,,,,,,,,,,,,,,,,,,,,,
,,,,,,,5cdc899d48d5f100195fafff,2023-08-16_08h48.56.432,HF_wild_card,2022.2.4,Win32,36.78905158,5cdc899d48d5f100195fafff,64d2fd46c836a06233681665,64dc7f3f0f8c32a0027f374d,,,,,,,decisionTrl,resources/DG.BMP,resources/DBN.BMP,Door2,-0.015625,0,1,0,0,0.0873,optionLeft,40,760,1,14,0,14,0,1,,,,,,,,,,,,,,,,,,,,,,,,,,,,,,,,,,,,,,,
,,,,,,,5cdc899d48d5f100195fafff,2023-08-16_08h48.56.432,HF_wild_card,2022.2.4,Win32,36.78905158,5cdc899d48d5f100195fafff,64d2fd46c836a06233681665,64dc7f3f0f8c32a0027f374d,,,,,,,decisionTrl,resources/DG.BMP,resources/DR.BMP,Door1,0.299479167,0.03515625,1,0,0,0.8616,optionRight,30,790,1,15,0,15,0,1,,,,,,,,,,,,,,,,,,,,,,,,,,,,,,,,,,,,,,,
,,,,,,,5cdc899d48d5f100195fafff,2023-08-16_08h48.56.432,HF_wild_card,2022.2.4,Win32,36.78905158,5cdc899d48d5f100195fafff,64d2fd46c836a06233681665,64dc7f3f0f8c32a0027f374d,,,,,,,sngl,resources/DP.BMP,resources/Empty.png,Door4,-0.411458333,0.026041667,1,0,0,0.5173,optionLeft,80,870,1,16,0,16,0,1,,,,,,,,,,,,,,,,,,,,,,,,,,,,,,,,,,,,,,,
,,,,,,,5cdc899d48d5f100195fafff,2023-08-16_08h48.56.432,HF_wild_card,2022.2.4,Win32,36.78905158,5cdc899d48d5f100195fafff,64d2fd46c836a06233681665,64dc7f3f0f8c32a0027f374d,,,,,,,sngl,resources/Empty.png,resources/DG.BMP,Door2,0.299479167,0.033854167,1,0,0,0.6814,optionRight,20,890,1,17,0,17,0,1,,,,,,,,,,,,,,,,,,,,,,,,,,,,,,,,,,,,,,,
,,,,,,,5cdc899d48d5f100195fafff,2023-08-16_08h48.56.432,HF_wild_card,2022.2.4,Win32,36.78905158,5cdc899d48d5f100195fafff,64d2fd46c836a06233681665,64dc7f3f0f8c32a0027f374d,,,,,,,sngl,resources/DB.BMP,resources/Empty.png,Door3,-0.361979167,-0.01953125,1,0,0,0.5842,optionLeft,70,960,1,18,0,18,0,1,,,,,,,,,,,,,,,,,,,,,,,,,,,,,,,,,,,,,,,
,,,,,,,5cdc899d48d5f100195fafff,2023-08-16_08h48.56.432,HF_wild_card,2022.2.4,Win32,36.78905158,5cdc899d48d5f100195fafff,64d2fd46c836a06233681665,64dc7f3f0f8c32a0027f374d,,,,,,,decisionTrl,resources/DG.BMP,resources/DR.BMP,Door2,-0.358072917,0.001302083,1,0,0,0.7867,optionLeft,40,1000,1,19,0,19,0,1,,,,,,,,,,,,,,,,,,,,,,,,,,,,,,,,,,,,,,,
,,,,,,,5cdc899d48d5f100195fafff,2023-08-16_08h48.56.432,HF_wild_card,2022.2.4,Win32,36.78905158,5cdc899d48d5f100195fafff,64d2fd46c836a06233681665,64dc7f3f0f8c32a0027f374d,,,,,,,decisionTrl,resources/DB.BMP,resources/DBN.BMP,Door3,-0.674479167,0.044270833,1,0,0,0.7831,optionLeft,70,1070,1,20,0,20,0,1,,,,,,,,,,,,,,,,,,,,,,,,,,,,,,,,,,,,,,,
,,,,,,,5cdc899d48d5f100195fafff,2023-08-16_08h48.56.432,HF_wild_card,2022.2.4,Win32,36.78905158,5cdc899d48d5f100195fafff,64d2fd46c836a06233681665,64dc7f3f0f8c32a0027f374d,,,,,,,decisionTrl,resources/DR.BMP,resources/DG.BMP,Door2,0.505208333,-0.0546875,1,0,0,1.092,optionRight,20,1090,1,21,0,21,0,1,,,,,,,,,,,,,,,,,,,,,,,,,,,,,,,,,,,,,,,
,,,,,,,5cdc899d48d5f100195fafff,2023-08-16_08h48.56.432,HF_wild_card,2022.2.4,Win32,36.78905158,5cdc899d48d5f100195fafff,64d2fd46c836a06233681665,64dc7f3f0f8c32a0027f374d,,,,,,,decisionTrl,resources/DB.BMP,resources/DP.BMP,Door4,0.0078125,-0.018229167,1,0,0,0.3998,optionRight,60,1150,1,22,0,22,0,1,,,,,,,,,,,,,,,,,,,,,,,,,,,,,,,,,,,,,,,
,,,,,,,5cdc899d48d5f100195fafff,2023-08-16_08h48.56.432,HF_wild_card,2022.2.4,Win32,36.78905158,5cdc899d48d5f100195fafff,64d2fd46c836a06233681665,64dc7f3f0f8c32a0027f374d,,,,,,,decisionTrl,resources/DR.BMP,resources/DG.BMP,Door1,-0.373697917,0,1,0,0,0.9858,optionLeft,30,1180,1,23,0,23,0,1,,,,,,,,,,,,,,,,,,,,,,,,,,,,,,,,,,,,,,,
,,,,,,,5cdc899d48d5f100195fafff,2023-08-16_08h48.56.432,HF_wild_card,2022.2.4,Win32,36.78905158,5cdc899d48d5f100195fafff,64d2fd46c836a06233681665,64dc7f3f0f8c32a0027f374d,,,,,,,decisionTrl,resources/DR.BMP,resources/DBN.BMP,WildCard_Ex,0.358072917,0.040364583,1,0,0,0.9181,optionRight,5,1185,1,24,0,24,0,1,,,,,,,,,,,,,,,,,,,,,,,,,,,,,,,,,,,,,,,
,,,,,,,5cdc899d48d5f100195fafff,2023-08-16_08h48.56.432,HF_wild_card,2022.2.4,Win32,36.78905158,5cdc899d48d5f100195fafff,64d2fd46c836a06233681665,64dc7f3f0f8c32a0027f374d,,,,,,,decisionTrl,resources/DG.BMP,resources/DR.BMP,Door1,0.283854167,-0.0078125,1,0,0,0.9433,optionRight,30,1215,1,25,0,25,0,1,,,,,,,,,,,,,,,,,,,,,,,,,,,,,,,,,,,,,,,
,,,,,,,5cdc899d48d5f100195fafff,2023-08-16_08h48.56.432,HF_wild_card,2022.2.4,Win32,36.78905158,5cdc899d48d5f100195fafff,64d2fd46c836a06233681665,64dc7f3f0f8c32a0027f374d,,,,,,,decisionTrl,resources/DR.BMP,resources/DG.BMP,Door2,0.416666667,0.002604167,1,0,0,0.6085,optionRight,40,1255,1,26,0,26,0,1,,,,,,,,,,,,,,,,,,,,,,,,,,,,,,,,,,,,,,,
,,,,,,,5cdc899d48d5f100195fafff,2023-08-16_08h48.56.432,HF_wild_card,2022.2.4,Win32,36.78905158,5cdc899d48d5f100195fafff,64d2fd46c836a06233681665,64dc7f3f0f8c32a0027f374d,,,,,,,decisionTrl,resources/DP.BMP,resources/DB.BMP,Door4,-0.329427083,-0.010416667,1,0,0,0.6631,optionLeft,80,1335,1,27,0,27,0,1,,,,,,,,,,,,,,,,,,,,,,,,,,,,,,,,,,,,,,,
,,,,,,,5cdc899d48d5f100195fafff,2023-08-16_08h48.56.432,HF_wild_card,2022.2.4,Win32,36.78905158,5cdc899d48d5f100195fafff,64d2fd46c836a06233681665,64dc7f3f0f8c32a0027f374d,,,,,,,sngl,resources/DBN.BMP,resources/Empty.png,WildCard_Ex,-0.434895833,0.028645833,1,0,0,1.0152,optionLeft,5,1340,1,28,0,28,0,1,,,,,,,,,,,,,,,,,,,,,,,,,,,,,,,,,,,,,,,
,,,,,,,5cdc899d48d5f100195fafff,2023-08-16_08h48.56.432,HF_wild_card,2022.2.4,Win32,36.78905158,5cdc899d48d5f100195fafff,64d2fd46c836a06233681665,64dc7f3f0f8c32a0027f374d,,,,,,,decisionTrl,resources/DP.BMP,resources/DBN.BMP,Door4,-0.321614583,-0.006510417,1,0,0,0.6409,optionLeft,80,1420,1,29,0,29,0,1,,,,,,,,,,,,,,,,,,,,,,,,,,,,,,,,,,,,,,,
,,,,,,,5cdc899d48d5f100195fafff,2023-08-16_08h48.56.432,HF_wild_card,2022.2.4,Win32,36.78905158,5cdc899d48d5f100195fafff,64d2fd46c836a06233681665,64dc7f3f0f8c32a0027f374d,,,,,,,ctch,resources/DG.BMP,resources/DB.BMP,Door3,0.341145833,-0.002604167,1,0,0,0.9612,optionRight,70,1490,1,30,0,30,0,1,,,,,,,,,,,,,,,,,,,,,,,,,,,,,,,,,,,,,,,
,,,,,,,5cdc899d48d5f100195fafff,2023-08-16_08h48.56.432,HF_wild_card,2022.2.4,Win32,36.78905158,5cdc899d48d5f100195fafff,64d2fd46c836a06233681665,64dc7f3f0f8c32a0027f374d,,,,,,,decisionTrl,resources/DP.BMP,resources/DB.BMP,Door4,-0.31640625,-0.010416667,1,0,0,0.7212,optionLeft,60,1550,1,31,0,31,0,1,,,,,,,,,,,,,,,,,,,,,,,,,,,,,,,,,,,,,,,
,,,,,,,5cdc899d48d5f100195fafff,2023-08-16_08h48.56.432,HF_wild_card,2022.2.4,Win32,36.78905158,5cdc899d48d5f100195fafff,64d2fd46c836a06233681665,64dc7f3f0f8c32a0027f374d,,,,,,,ctch,resources/DP.BMP,resources/DR.BMP,Door4,-0.28515625,-0.013020833,1,0,0,0.7437,optionLeft,80,1630,1,32,0,32,0,1,,,,,,,,,,,,,,,,,,,,,,,,,,,,,,,,,,,,,,,
,,,,,,,5cdc899d48d5f100195fafff,2023-08-16_08h48.56.432,HF_wild_card,2022.2.4,Win32,36.78905158,5cdc899d48d5f100195fafff,64d2fd46c836a06233681665,64dc7f3f0f8c32a0027f374d,,,,,,,sngl,resources/DG.BMP,resources/Empty.png,Door2,-0.309895833,-0.002604167,1,0,0,0.5835,optionLeft,40,1670,1,33,0,33,0,1,,,,,,,,,,,,,,,,,,,,,,,,,,,,,,,,,,,,,,,
,,,,,,,5cdc899d48d5f100195fafff,2023-08-16_08h48.56.432,HF_wild_card,2022.2.4,Win32,36.78905158,5cdc899d48d5f100195fafff,64d2fd46c836a06233681665,64dc7f3f0f8c32a0027f374d,,,,,,,sngl,resources/Empty.png,resources/DP.BMP,Door4,0.240885417,-0.067708333,1,0,0,0.5206,optionRight,60,1730,1,34,0,34,0,1,,,,,,,,,,,,,,,,,,,,,,,,,,,,,,,,,,,,,,,
,,,,,,,5cdc899d48d5f100195fafff,2023-08-16_08h48.56.432,HF_wild_card,2022.2.4,Win32,36.78905158,5cdc899d48d5f100195fafff,64d2fd46c836a06233681665,64dc7f3f0f8c32a0027f374d,,,,,,,ctch,resources/DG.BMP,resources/DB.BMP,Door3,0.389322917,0.01171875,1,0,0,0.7829,optionRight,70,1800,1,35,0,35,0,1,,,,,,,,,,,,,,,,,,,,,,,,,,,,,,,,,,,,,,,
,,,,,,,5cdc899d48d5f100195fafff,2023-08-16_08h48.56.432,HF_wild_card,2022.2.4,Win32,36.78905158,5cdc899d48d5f100195fafff,64d2fd46c836a06233681665,64dc7f3f0f8c32a0027f374d,,,,,,,decisionTrl,resources/DB.BMP,resources/DP.BMP,Door4,0.407552083,-0.005208333,1,0,0,0.7308,optionRight,60,1860,1,36,0,36,0,1,,,,,,,,,,,,,,,,,,,,,,,,,,,,,,,,,,,,,,,
,,,,,,,5cdc899d48d5f100195fafff,2023-08-16_08h48.56.432,HF_wild_card,2022.2.4,Win32,36.78905158,5cdc899d48d5f100195fafff,64d2fd46c836a06233681665,64dc7f3f0f8c32a0027f374d,,,,,,,decisionTrl,resources/DBN.BMP,resources/DB.BMP,Door3,0.37890625,-0.0078125,1,0,0,0.6605,optionRight,70,1930,1,37,0,37,0,1,,,,,,,,,,,,,,,,,,,,,,,,,,,,,,,,,,,,,,,
,,,,,,,5cdc899d48d5f100195fafff,2023-08-16_08h48.56.432,HF_wild_card,2022.2.4,Win32,36.78905158,5cdc899d48d5f100195fafff,64d2fd46c836a06233681665,64dc7f3f0f8c32a0027f374d,,,,,,,sngl,resources/Empty.png,resources/DR.BMP,Door1,0.489583333,0.001302083,1,0,0,0.6754,optionRight,30,1960,1,38,0,38,0,1,,,,,,,,,,,,,,,,,,,,,,,,,,,,,,,,,,,,,,,
,,,,,,,5cdc899d48d5f100195fafff,2023-08-16_08h48.56.432,HF_wild_card,2022.2.4,Win32,36.78905158,5cdc899d48d5f100195fafff,64d2fd46c836a06233681665,64dc7f3f0f8c32a0027f374d,,,,,,,ctch,resources/DR.BMP,resources/DP.BMP,Door4,0.337239583,-0.006510417,1,0,0,0.5531,optionRight,60,2020,1,39,0,39,0,1,,,,,,,,,,,,,,,,,,,,,,,,,,,,,,,,,,,,,,,
,,,,,,,5cdc899d48d5f100195fafff,2023-08-16_08h48.56.432,HF_wild_card,2022.2.4,Win32,36.78905158,5cdc899d48d5f100195fafff,64d2fd46c836a06233681665,64dc7f3f0f8c32a0027f374d,,,,,,,decisionTrl,resources/DBN.BMP,resources/DR.BMP,Door1,0.440104167,-0.0078125,1,0,0,0.8112,optionRight,30,2050,1,40,0,40,0,1,,,,,,,,,,,,,,,,,,,,,,,,,,,,,,,,,,,,,,,
,,,,,,,5cdc899d48d5f100195fafff,2023-08-16_08h48.56.432,HF_wild_card,2022.2.4,Win32,36.78905158,5cdc899d48d5f100195fafff,64d2fd46c836a06233681665,64dc7f3f0f8c32a0027f374d,,,,,,,sngl,resources/Empty.png,resources/DBN.BMP,WildCard_Ex,0.369791667,0.006510417,1,0,0,0.625,optionRight,95,2145,1,41,0,41,0,1,,,,,,,,,,,,,,,,,,,,,,,,,,,,,,,,,,,,,,,
,,,,,,,5cdc899d48d5f100195fafff,2023-08-16_08h48.56.432,HF_wild_card,2022.2.4,Win32,36.78905158,5cdc899d48d5f100195fafff,64d2fd46c836a06233681665,64dc7f3f0f8c32a0027f374d,,,,,,,sngl,resources/DBN.BMP,resources/Empty.png,WildCard_Ex,-0.346354167,-0.016927083,1,0,0,0.5591,optionLeft,95,2240,1,42,0,42,0,1,,,,,,,,,,,,,,,,,,,,,,,,,,,,,,,,,,,,,,,
,,,,,,,5cdc899d48d5f100195fafff,2023-08-16_08h48.56.432,HF_wild_card,2022.2.4,Win32,36.78905158,5cdc899d48d5f100195fafff,64d2fd46c836a06233681665,64dc7f3f0f8c32a0027f374d,,,,,,,ctch,resources/DR.BMP,resources/DP.BMP,Door4,0.338541667,-0.024739583,1,0,0,0.6473,optionRight,80,2320,1,43,0,43,0,1,,,,,,,,,,,,,,,,,,,,,,,,,,,,,,,,,,,,,,,
,,,,,,,5cdc899d48d5f100195fafff,2023-08-16_08h48.56.432,HF_wild_card,2022.2.4,Win32,36.78905158,5cdc899d48d5f100195fafff,64d2fd46c836a06233681665,64dc7f3f0f8c32a0027f374d,,,,,,,,,,,,,,,,,,,,,,,,,,0,0,0,0,1,,,,,,,,,,,,,,,,,,,,,,,,,,,,,,,,,,
,,,,,,,5cdc899d48d5f100195fafff,2023-08-16_08h48.56.432,HF_wild_card,2022.2.4,Win32,36.78905158,5cdc899d48d5f100195fafff,64d2fd46c836a06233681665,64dc7f3f0f8c32a0027f374d,,,,,,,decisionTrl,resources/DR.BMP,resources/DG.BMP,Door1,-0.32421875,-0.07421875,1,0,0,1.0572,optionLeft,30,2350,2,0,0,0,0,1,,,,,,,,,,,,,,,,,,,,,,,,,,,,,,,,,,,,,,,
,,,,,,,5cdc899d48d5f100195fafff,2023-08-16_08h48.56.432,HF_wild_card,2022.2.4,Win32,36.78905158,5cdc899d48d5f100195fafff,64d2fd46c836a06233681665,64dc7f3f0f8c32a0027f374d,,,,,,,decisionTrl,resources/DB.BMP,resources/DP.BMP,Door4,0.385416667,-0.0390625,1,0,0,0.5657,optionRight,80,2430,2,1,0,1,0,1,,,,,,,,,,,,,,,,,,,,,,,,,,,,,,,,,,,,,,,
,,,,,,,5cdc899d48d5f100195fafff,2023-08-16_08h48.56.432,HF_wild_card,2022.2.4,Win32,36.78905158,5cdc899d48d5f100195fafff,64d2fd46c836a06233681665,64dc7f3f0f8c32a0027f374d,,,,,,,sngl,resources/DP.BMP,resources/Empty.png,Door4,-0.3203125,-0.01171875,1,0,0,0.514,optionLeft,60,2490,2,2,0,2,0,1,,,,,,,,,,,,,,,,,,,,,,,,,,,,,,,,,,,,,,,
,,,,,,,5cdc899d48d5f100195fafff,2023-08-16_08h48.56.432,HF_wild_card,2022.2.4,Win32,36.78905158,5cdc899d48d5f100195fafff,64d2fd46c836a06233681665,64dc7f3f0f8c32a0027f374d,,,,,,,decisionTrl,resources/DP.BMP,resources/DB.BMP,Door4,-0.28125,-0.018229167,1,0,0,0.5399,optionLeft,60,2550,2,3,0,3,0,1,,,,,,,,,,,,,,,,,,,,,,,,,,,,,,,,,,,,,,,
,,,,,,,5cdc899d48d5f100195fafff,2023-08-16_08h48.56.432,HF_wild_card,2022.2.4,Win32,36.78905158,5cdc899d48d5f100195fafff,64d2fd46c836a06233681665,64dc7f3f0f8c32a0027f374d,,,,,,,sngl,resources/Empty.png,resources/DBN.BMP,WildCard_Ex,0.26953125,0.03515625,1,0,0,0.7741,optionRight,5,2555,2,4,0,4,0,1,,,,,,,,,,,,,,,,,,,,,,,,,,,,,,,,,,,,,,,
,,,,,,,5cdc899d48d5f100195fafff,2023-08-16_08h48.56.432,HF_wild_card,2022.2.4,Win32,36.78905158,5cdc899d48d5f100195fafff,64d2fd46c836a06233681665,64dc7f3f0f8c32a0027f374d,,,,,,,decisionTrl,resources/DB.BMP,resources/DP.BMP,Door4,0.434895833,-0.029947917,1,0,0,0.6279,optionRight,80,2635,2,5,0,5,0,1,,,,,,,,,,,,,,,,,,,,,,,,,,,,,,,,,,,,,,,
,,,,,,,5cdc899d48d5f100195fafff,2023-08-16_08h48.56.432,HF_wild_card,2022.2.4,Win32,36.78905158,5cdc899d48d5f100195fafff,64d2fd46c836a06233681665,64dc7f3f0f8c32a0027f374d,,,,,,,ctch,resources/DB.BMP,resources/DG.BMP,Door3,-0.30859375,-0.015625,1,0,0,0.6281,optionLeft,70,2705,2,6,0,6,0,1,,,,,,,,,,,,,,,,,,,,,,,,,,,,,,,,,,,,,,,
,,,,,,,5cdc899d48d5f100195fafff,2023-08-16_08h48.56.432,HF_wild_card,2022.2.4,Win32,36.78905158,5cdc899d48d5f100195fafff,64d2fd46c836a06233681665,64dc7f3f0f8c32a0027f374d,,,,,,,sngl,resources/DR.BMP,resources/Empty.png,Door1,-0.274739583,-0.028645833,1,0,0,0.5653,optionLeft,30,2735,2,7,0,7,0,1,,,,,,,,,,,,,,,,,,,,,,,,,,,,,,,,,,,,,,,
,,,,,,,5cdc899d48d5f100195fafff,2023-08-16_08h48.56.432,HF_wild_card,2022.2.4,Win32,36.78905158,5cdc899d48d5f100195fafff,64d2fd46c836a06233681665,64dc7f3f0f8c32a0027f374d,,,,,,,decisionTrl,resources/DG.BMP,resources/DR.BMP,Door1,0.330729167,-0.006510417,1,0,0,0.5706,optionRight,30,2765,2,8,0,8,0,1,,,,,,,,,,,,,,,,,,,,,,,,,,,,,,,,,,,,,,,
,,,,,,,5cdc899d48d5f100195fafff,2023-08-16_08h48.56.432,HF_wild_card,2022.2.4,Win32,36.78905158,5cdc899d48d5f100195fafff,64d2fd46c836a06233681665,64dc7f3f0f8c32a0027f374d,,,,,,,decisionTrl,resources/DR.BMP,resources/DG.BMP,Door1,-0.307291667,-0.0234375,1,0,0,0.5126,optionLeft,30,2795,2,9,0,9,0,1,,,,,,,,,,,,,,,,,,,,,,,,,,,,,,,,,,,,,,,
,,,,,,,5cdc899d48d5f100195fafff,2023-08-16_08h48.56.432,HF_wild_card,2022.2.4,Win32,36.78905158,5cdc899d48d5f100195fafff,64d2fd46c836a06233681665,64dc7f3f0f8c32a0027f374d,,,,,,,decisionTrl,resources/DR.BMP,resources/DG.BMP,Door2,0.39453125,-0.026041667,1,0,0,0.621,optionRight,20,2815,2,10,0,10,0,1,,,,,,,,,,,,,,,,,,,,,,,,,,,,,,,,,,,,,,,
,,,,,,,5cdc899d48d5f100195fafff,2023-08-16_08h48.56.432,HF_wild_card,2022.2.4,Win32,36.78905158,5cdc899d48d5f100195fafff,64d2fd46c836a06233681665,64dc7f3f0f8c32a0027f374d,,,,,,,decisionTrl,resources/DB.BMP,resources/DP.BMP,Door4,0.397135417,-0.001302083,1,0,0,0.6021,optionRight,60,2875,2,11,0,11,0,1,,,,,,,,,,,,,,,,,,,,,,,,,,,,,,,,,,,,,,,
,,,,,,,5cdc899d48d5f100195fafff,2023-08-16_08h48.56.432,HF_wild_card,2022.2.4,Win32,36.78905158,5cdc899d48d5f100195fafff,64d2fd46c836a06233681665,64dc7f3f0f8c32a0027f374d,,,,,,,sngl,resources/Empty.png,resources/DG.BMP,Door2,0.295572917,-0.024739583,1,0,0,0.6947,optionRight,40,2915,2,12,0,12,0,1,,,,,,,,,,,,,,,,,,,,,,,,,,,,,,,,,,,,,,,
,,,,,,,5cdc899d48d5f100195fafff,2023-08-16_08h48.56.432,HF_wild_card,2022.2.4,Win32,36.78905158,5cdc899d48d5f100195fafff,64d2fd46c836a06233681665,64dc7f3f0f8c32a0027f374d,,,,,,,decisionTrl,resources/DP.BMP,resources/DBN.BMP,Door4,-0.247395833,-0.0078125,1,0,0,0.5057,optionLeft,80,2995,2,13,0,13,0,1,,,,,,,,,,,,,,,,,,,,,,,,,,,,,,,,,,,,,,,
,,,,,,,5cdc899d48d5f100195fafff,2023-08-16_08h48.56.432,HF_wild_card,2022.2.4,Win32,36.78905158,5cdc899d48d5f100195fafff,64d2fd46c836a06233681665,64dc7f3f0f8c32a0027f374d,,,,,,,decisionTrl,resources/DP.BMP,resources/DB.BMP,Door4,-0.368489583,0.079427083,1,0,0,0.7502,optionLeft,60,3055,2,14,0,14,0,1,,,,,,,,,,,,,,,,,,,,,,,,,,,,,,,,,,,,,,,
,,,,,,,5cdc899d48d5f100195fafff,2023-08-16_08h48.56.432,HF_wild_card,2022.2.4,Win32,36.78905158,5cdc899d48d5f100195fafff,64d2fd46c836a06233681665,64dc7f3f0f8c32a0027f374d,,,,,,,ctch,resources/DG.BMP,resources/DB.BMP,Door3,0.427083333,-0.026041667,1,0,0,0.6071,optionRight,70,3125,2,15,0,15,0,1,,,,,,,,,,,,,,,,,,,,,,,,,,,,,,,,,,,,,,,
,,,,,,,5cdc899d48d5f100195fafff,2023-08-16_08h48.56.432,HF_wild_card,2022.2.4,Win32,36.78905158,5cdc899d48d5f100195fafff,64d2fd46c836a06233681665,64dc7f3f0f8c32a0027f374d,,,,,,,decisionTrl,resources/DP.BMP,resources/DB.BMP,Door4,-0.51171875,-0.052083333,1,0,0,0.5092,optionLeft,60,3185,2,16,0,16,0,1,,,,,,,,,,,,,,,,,,,,,,,,,,,,,,,,,,,,,,,
,,,,,,,5cdc899d48d5f100195fafff,2023-08-16_08h48.56.432,HF_wild_card,2022.2.4,Win32,36.78905158,5cdc899d48d5f100195fafff,64d2fd46c836a06233681665,64dc7f3f0f8c32a0027f374d,,,,,,,decisionTrl,resources/DG.BMP,resources/DR.BMP,Door2,-0.3515625,0.095052083,1,0,0,0.5292,optionLeft,20,3205,2,17,0,17,0,1,,,,,,,,,,,,,,,,,,,,,,,,,,,,,,,,,,,,,,,
,,,,,,,5cdc899d48d5f100195fafff,2023-08-16_08h48.56.432,HF_wild_card,2022.2.4,Win32,36.78905158,5cdc899d48d5f100195fafff,64d2fd46c836a06233681665,64dc7f3f0f8c32a0027f374d,,,,,,,sngl,resources/Empty.png,resources/DR.BMP,Door1,0.337239583,-0.005208333,1,0,0,0.5954,optionRight,30,3235,2,18,0,18,0,1,,,,,,,,,,,,,,,,,,,,,,,,,,,,,,,,,,,,,,,
,,,,,,,5cdc899d48d5f100195fafff,2023-08-16_08h48.56.432,HF_wild_card,2022.2.4,Win32,36.78905158,5cdc899d48d5f100195fafff,64d2fd46c836a06233681665,64dc7f3f0f8c32a0027f374d,,,,,,,decisionTrl,resources/DBN.BMP,resources/DR.BMP,WildCard_Ex,-0.233072917,0.001302083,1,0,0,0.5756,optionLeft,95,3330,2,19,0,19,0,1,,,,,,,,,,,,,,,,,,,,,,,,,,,,,,,,,,,,,,,
,,,,,,,5cdc899d48d5f100195fafff,2023-08-16_08h48.56.432,HF_wild_card,2022.2.4,Win32,36.78905158,5cdc899d48d5f100195fafff,64d2fd46c836a06233681665,64dc7f3f0f8c32a0027f374d,,,,,,,sngl,resources/Empty.png,resources/DB.BMP,Door3,0.345052083,-0.083333333,1,0,0,0.5338,optionRight,70,3400,2,20,0,20,0,1,,,,,,,,,,,,,,,,,,,,,,,,,,,,,,,,,,,,,,,
,,,,,,,5cdc899d48d5f100195fafff,2023-08-16_08h48.56.432,HF_wild_card,2022.2.4,Win32,36.78905158,5cdc899d48d5f100195fafff,64d2fd46c836a06233681665,64dc7f3f0f8c32a0027f374d,,,,,,,ctch,resources/DR.BMP,resources/DP.BMP,Door4,0.334635417,-0.083333333,1,0,0,0.3843,optionRight,60,3460,2,21,0,21,0,1,,,,,,,,,,,,,,,,,,,,,,,,,,,,,,,,,,,,,,,
,,,,,,,5cdc899d48d5f100195fafff,2023-08-16_08h48.56.432,HF_wild_card,2022.2.4,Win32,36.78905158,5cdc899d48d5f100195fafff,64d2fd46c836a06233681665,64dc7f3f0f8c32a0027f374d,,,,,,,decisionTrl,resources/DR.BMP,resources/DBN.BMP,WildCard_Ex,0.263020833,0.014322917,1,0,0,0.6486,optionRight,5,3465,2,22,0,22,0,1,,,,,,,,,,,,,,,,,,,,,,,,,,,,,,,,,,,,,,,
,,,,,,,5cdc899d48d5f100195fafff,2023-08-16_08h48.56.432,HF_wild_card,2022.2.4,Win32,36.78905158,5cdc899d48d5f100195fafff,64d2fd46c836a06233681665,64dc7f3f0f8c32a0027f374d,,,,,,,decisionTrl,resources/DG.BMP,resources/DBN.BMP,Door2,-0.739583333,0.052083333,1,0,0,0.4419,optionLeft,40,3505,2,23,0,23,0,1,,,,,,,,,,,,,,,,,,,,,,,,,,,,,,,,,,,,,,,
,,,,,,,5cdc899d48d5f100195fafff,2023-08-16_08h48.56.432,HF_wild_card,2022.2.4,Win32,36.78905158,5cdc899d48d5f100195fafff,64d2fd46c836a06233681665,64dc7f3f0f8c32a0027f374d,,,,,,,ctch,resources/DP.BMP,resources/DR.BMP,Door4,-0.459635417,-0.02734375,1,0,0,0.5144,optionLeft,60,3565,2,24,0,24,0,1,,,,,,,,,,,,,,,,,,,,,,,,,,,,,,,,,,,,,,,
,,,,,,,5cdc899d48d5f100195fafff,2023-08-16_08h48.56.432,HF_wild_card,2022.2.4,Win32,36.78905158,5cdc899d48d5f100195fafff,64d2fd46c836a06233681665,64dc7f3f0f8c32a0027f374d,,,,,,,ctch,resources/DR.BMP,resources/DP.BMP,Door4,0.434895833,-0.02734375,1,0,0,0.4917,optionRight,60,3625,2,25,0,25,0,1,,,,,,,,,,,,,,,,,,,,,,,,,,,,,,,,,,,,,,,
,,,,,,,5cdc899d48d5f100195fafff,2023-08-16_08h48.56.432,HF_wild_card,2022.2.4,Win32,36.78905158,5cdc899d48d5f100195fafff,64d2fd46c836a06233681665,64dc7f3f0f8c32a0027f374d,,,,,,,sngl,resources/Empty.png,resources/DP.BMP,Door4,0.52734375,-0.033854167,1,0,0,0.4441,optionRight,80,3705,2,26,0,26,0,1,,,,,,,,,,,,,,,,,,,,,,,,,,,,,,,,,,,,,,,
,,,,,,,5cdc899d48d5f100195fafff,2023-08-16_08h48.56.432,HF_wild_card,2022.2.4,Win32,36.78905158,5cdc899d48d5f100195fafff,64d2fd46c836a06233681665,64dc7f3f0f8c32a0027f374d,,,,,,,decisionTrl,resources/DB.BMP,resources/DP.BMP,Door4,0.364583333,-0.033854167,1,0,0,0.5411,optionRight,60,3765,2,27,0,27,0,1,,,,,,,,,,,,,,,,,,,,,,,,,,,,,,,,,,,,,,,
,,,,,,,5cdc899d48d5f100195fafff,2023-08-16_08h48.56.432,HF_wild_card,2022.2.4,Win32,36.78905158,5cdc899d48d5f100195fafff,64d2fd46c836a06233681665,64dc7f3f0f8c32a0027f374d,,,,,,,decisionTrl,resources/DG.BMP,resources/DR.BMP,Door2,-0.328125,-0.010416667,1,0,0,0.5098,optionLeft,20,3785,2,28,0,28,0,1,,,,,,,,,,,,,,,,,,,,,,,,,,,,,,,,,,,,,,,
,,,,,,,5cdc899d48d5f100195fafff,2023-08-16_08h48.56.432,HF_wild_card,2022.2.4,Win32,36.78905158,5cdc899d48d5f100195fafff,64d2fd46c836a06233681665,64dc7f3f0f8c32a0027f374d,,,,,,,sngl,resources/DBN.BMP,resources/Empty.png,WildCard_Ex,-0.294270833,-0.0078125,1,0,0,0.5257,optionLeft,95,3880,2,29,0,29,0,1,,,,,,,,,,,,,,,,,,,,,,,,,,,,,,,,,,,,,,,
,,,,,,,5cdc899d48d5f100195fafff,2023-08-16_08h48.56.432,HF_wild_card,2022.2.4,Win32,36.78905158,5cdc899d48d5f100195fafff,64d2fd46c836a06233681665,64dc7f3f0f8c32a0027f374d,,,,,,,decisionTrl,resources/DB.BMP,resources/DBN.BMP,WildCard_Ex,0.3203125,-0.001302083,1,0,0,0.7406,optionRight,95,3975,2,30,0,30,0,1,,,,,,,,,,,,,,,,,,,,,,,,,,,,,,,,,,,,,,,
,,,,,,,5cdc899d48d5f100195fafff,2023-08-16_08h48.56.432,HF_wild_card,2022.2.4,Win32,36.78905158,5cdc899d48d5f100195fafff,64d2fd46c836a06233681665,64dc7f3f0f8c32a0027f374d,,,,,,,decisionTrl,resources/DG.BMP,resources/DR.BMP,Door2,-0.266927083,0.005208333,1,0,0,0.509,optionLeft,40,4015,2,31,0,31,0,1,,,,,,,,,,,,,,,,,,,,,,,,,,,,,,,,,,,,,,,
,,,,,,,5cdc899d48d5f100195fafff,2023-08-16_08h48.56.432,HF_wild_card,2022.2.4,Win32,36.78905158,5cdc899d48d5f100195fafff,64d2fd46c836a06233681665,64dc7f3f0f8c32a0027f374d,,,,,,,decisionTrl,resources/DBN.BMP,resources/DG.BMP,WildCard_Ex,-0.3359375,0.041666667,1,0,0,0.9711,optionLeft,5,4020,2,32,0,32,0,1,,,,,,,,,,,,,,,,,,,,,,,,,,,,,,,,,,,,,,,
,,,,,,,5cdc899d48d5f100195fafff,2023-08-16_08h48.56.432,HF_wild_card,2022.2.4,Win32,36.78905158,5cdc899d48d5f100195fafff,64d2fd46c836a06233681665,64dc7f3f0f8c32a0027f374d,,,,,,,sngl,resources/DG.BMP,resources/Empty.png,Door2,-0.272135417,0.005208333,1,0,0,0.4731,optionLeft,20,4040,2,33,0,33,0,1,,,,,,,,,,,,,,,,,,,,,,,,,,,,,,,,,,,,,,,
,,,,,,,5cdc899d48d5f100195fafff,2023-08-16_08h48.56.432,HF_wild_card,2022.2.4,Win32,36.78905158,5cdc899d48d5f100195fafff,64d2fd46c836a06233681665,64dc7f3f0f8c32a0027f374d,,,,,,,ctch,resources/DG.BMP,resources/DB.BMP,Door3,0.3515625,0.002604167,1,0,0,0.5293,optionRight,70,4110,2,34,0,34,0,1,,,,,,,,,,,,,,,,,,,,,,,,,,,,,,,,,,,,,,,
,,,,,,,5cdc899d48d5f100195fafff,2023-08-16_08h48.56.432,HF_wild_card,2022.2.4,Win32,36.78905158,5cdc899d48d5f100195fafff,64d2fd46c836a06233681665,64dc7f3f0f8c32a0027f374d,,,,,,,decisionTrl,resources/DP.BMP,resources/DB.BMP,Door4,-0.29296875,0.013020833,1,0,0,0.5474,optionLeft,80,4190,2,35,0,35,0,1,,,,,,,,,,,,,,,,,,,,,,,,,,,,,,,,,,,,,,,
,,,,,,,5cdc899d48d5f100195fafff,2023-08-16_08h48.56.432,HF_wild_card,2022.2.4,Win32,36.78905158,5cdc899d48d5f100195fafff,64d2fd46c836a06233681665,64dc7f3f0f8c32a0027f374d,,,,,,,ctch,resources/DP.BMP,resources/DR.BMP,Door4,-0.399739583,0.015625,1,0,0,0.5166,optionLeft,60,4250,2,36,0,36,0,1,,,,,,,,,,,,,,,,,,,,,,,,,,,,,,,,,,,,,,,
,,,,,,,5cdc899d48d5f100195fafff,2023-08-16_08h48.56.432,HF_wild_card,2022.2.4,Win32,36.78905158,5cdc899d48d5f100195fafff,64d2fd46c836a06233681665,64dc7f3f0f8c32a0027f374d,,,,,,,decisionTrl,resources/DR.BMP,resources/DG.BMP,Door2,0.3359375,-0.009114583,1,0,0,0.6341,optionRight,40,4290,2,37,0,37,0,1,,,,,,,,,,,,,,,,,,,,,,,,,,,,,,,,,,,,,,,
,,,,,,,5cdc899d48d5f100195fafff,2023-08-16_08h48.56.432,HF_wild_card,2022.2.4,Win32,36.78905158,5cdc899d48d5f100195fafff,64d2fd46c836a06233681665,64dc7f3f0f8c32a0027f374d,,,,,,,sngl,resources/Empty.png,resources/DBN.BMP,WildCard_Ex,0.3671875,0.015625,1,0,0,0.49,optionRight,95,4385,2,38,0,38,0,1,,,,,,,,,,,,,,,,,,,,,,,,,,,,,,,,,,,,,,,
,,,,,,,5cdc899d48d5f100195fafff,2023-08-16_08h48.56.432,HF_wild_card,2022.2.4,Win32,36.78905158,5cdc899d48d5f100195fafff,64d2fd46c836a06233681665,64dc7f3f0f8c32a0027f374d,,,,,,,sngl,resources/DBN.BMP,resources/Empty.png,WildCard_Ex,-0.2734375,0.0234375,1,0,0,0.4995,optionLeft,5,4390,2,39,0,39,0,1,,,,,,,,,,,,,,,,,,,,,,,,,,,,,,,,,,,,,,,
,,,,,,,5cdc899d48d5f100195fafff,2023-08-16_08h48.56.432,HF_wild_card,2022.2.4,Win32,36.78905158,5cdc899d48d5f100195fafff,64d2fd46c836a06233681665,64dc7f3f0f8c32a0027f374d,,,,,,,sngl,resources/DB.BMP,resources/Empty.png,Door3,-0.43359375,0.046875,1,0,0,0.4761,optionLeft,70,4460,2,40,0,40,0,1,,,,,,,,,,,,,,,,,,,,,,,,,,,,,,,,,,,,,,,
,,,,,,,5cdc899d48d5f100195fafff,2023-08-16_08h48.56.432,HF_wild_card,2022.2.4,Win32,36.78905158,5cdc899d48d5f100195fafff,64d2fd46c836a06233681665,64dc7f3f0f8c32a0027f374d,,,,,,,decisionTrl,resources/DBN.BMP,resources/DP.BMP,Door4,0.28515625,-0.010416667,1,0,0,0.5081,optionRight,80,4540,2,41,0,41,0,1,,,,,,,,,,,,,,,,,,,,,,,,,,,,,,,,,,,,,,,
,,,,,,,5cdc899d48d5f100195fafff,2023-08-16_08h48.56.432,HF_wild_card,2022.2.4,Win32,36.78905158,5cdc899d48d5f100195fafff,64d2fd46c836a06233681665,64dc7f3f0f8c32a0027f374d,,,,,,,ctch,resources/DB.BMP,resources/DG.BMP,Door3,-0.32421875,0.029947917,1,0,0,0.5661,optionLeft,70,4610,2,42,0,42,0,1,,,,,,,,,,,,,,,,,,,,,,,,,,,,,,,,,,,,,,,
,,,,,,,5cdc899d48d5f100195fafff,2023-08-16_08h48.56.432,HF_wild_card,2022.2.4,Win32,36.78905158,5cdc899d48d5f100195fafff,64d2fd46c836a06233681665,64dc7f3f0f8c32a0027f374d,,,,,,,decisionTrl,resources/DBN.BMP,resources/DB.BMP,Door3,0.2734375,0.024739583,1,0,0,0.6612,optionRight,70,4680,2,43,0,43,0,1,,,,,,,,,,,,,,,,,,,,,,,,,,,,,,,,,,,,,,,
,,,,,,,5cdc899d48d5f100195fafff,2023-08-16_08h48.56.432,HF_wild_card,2022.2.4,Win32,36.78905158,5cdc899d48d5f100195fafff,64d2fd46c836a06233681665,64dc7f3f0f8c32a0027f374d,,,,,,,,,,,,,,,,,,,,,,,,,,1,0,1,0,1,,,,,,,,,,,,,,,,,,,,,,,,,,,,,,,,,,
,,,,,,,5cdc899d48d5f100195fafff,2023-08-16_08h48.56.432,HF_wild_card,2022.2.4,Win32,36.78905158,5cdc899d48d5f100195fafff,64d2fd46c836a06233681665,64dc7f3f0f8c32a0027f374d,,,,,,,sngl,resources/DBN.BMP,resources/Empty.png,WildCard_Ex,-0.263020833,-0.037760417,1,0,0,0.671,optionLeft,95,4775,3,0,0,0,0,1,,,,,,,,,,,,,,,,,,,,,,,,,,,,,,,,,,,,,,,
,,,,,,,5cdc899d48d5f100195fafff,2023-08-16_08h48.56.432,HF_wild_card,2022.2.4,Win32,36.78905158,5cdc899d48d5f100195fafff,64d2fd46c836a06233681665,64dc7f3f0f8c32a0027f374d,,,,,,,ctch,resources/DR.BMP,resources/DP.BMP,Door4,0.307291667,-0.0078125,1,0,0,0.4627,optionRight,60,4835,3,1,0,1,0,1,,,,,,,,,,,,,,,,,,,,,,,,,,,,,,,,,,,,,,,
,,,,,,,5cdc899d48d5f100195fafff,2023-08-16_08h48.56.432,HF_wild_card,2022.2.4,Win32,36.78905158,5cdc899d48d5f100195fafff,64d2fd46c836a06233681665,64dc7f3f0f8c32a0027f374d,,,,,,,decisionTrl,resources/DB.BMP,resources/DP.BMP,Door4,0.247395833,-0.0546875,1,0,0,0.671,optionRight,60,4895,3,2,0,2,0,1,,,,,,,,,,,,,,,,,,,,,,,,,,,,,,,,,,,,,,,
,,,,,,,5cdc899d48d5f100195fafff,2023-08-16_08h48.56.432,HF_wild_card,2022.2.4,Win32,36.78905158,5cdc899d48d5f100195fafff,64d2fd46c836a06233681665,64dc7f3f0f8c32a0027f374d,,,,,,,decisionTrl,resources/DR.BMP,resources/DG.BMP,Door1,-0.299479167,0.005208333,1,0,0,0.4851,optionLeft,30,4925,3,3,0,3,0,1,,,,,,,,,,,,,,,,,,,,,,,,,,,,,,,,,,,,,,,
,,,,,,,5cdc899d48d5f100195fafff,2023-08-16_08h48.56.432,HF_wild_card,2022.2.4,Win32,36.78905158,5cdc899d48d5f100195fafff,64d2fd46c836a06233681665,64dc7f3f0f8c32a0027f374d,,,,,,,ctch,resources/DR.BMP,resources/DP.BMP,Door4,0.255208333,-0.020833333,1,0,0,0.4876,optionRight,80,5005,3,4,0,4,0,1,,,,,,,,,,,,,,,,,,,,,,,,,,,,,,,,,,,,,,,
,,,,,,,5cdc899d48d5f100195fafff,2023-08-16_08h48.56.432,HF_wild_card,2022.2.4,Win32,36.78905158,5cdc899d48d5f100195fafff,64d2fd46c836a06233681665,64dc7f3f0f8c32a0027f374d,,,,,,,decisionTrl,resources/DP.BMP,resources/DB.BMP,Door4,-0.350260417,0.014322917,1,0,0,0.5143,optionLeft,60,5065,3,5,0,5,0,1,,,,,,,,,,,,,,,,,,,,,,,,,,,,,,,,,,,,,,,
,,,,,,,5cdc899d48d5f100195fafff,2023-08-16_08h48.56.432,HF_wild_card,2022.2.4,Win32,36.78905158,5cdc899d48d5f100195fafff,64d2fd46c836a06233681665,64dc7f3f0f8c32a0027f374d,,,,,,,decisionTrl,resources/DR.BMP,resources/DG.BMP,Door2,0.296875,-0.026041667,1,0,0,0.6822,optionRight,40,5105,3,6,0,6,0,1,,,,,,,,,,,,,,,,,,,,,,,,,,,,,,,,,,,,,,,
,,,,,,,5cdc899d48d5f100195fafff,2023-08-16_08h48.56.432,HF_wild_card,2022.2.4,Win32,36.78905158,5cdc899d48d5f100195fafff,64d2fd46c836a06233681665,64dc7f3f0f8c32a0027f374d,,,,,,,ctch,resources/DP.BMP,resources/DR.BMP,Door4,-0.2421875,-0.010416667,1,0,0,0.4841,optionLeft,60,5165,3,7,0,7,0,1,,,,,,,,,,,,,,,,,,,,,,,,,,,,,,,,,,,,,,,
,,,,,,,5cdc899d48d5f100195fafff,2023-08-16_08h48.56.432,HF_wild_card,2022.2.4,Win32,36.78905158,5cdc899d48d5f100195fafff,64d2fd46c836a06233681665,64dc7f3f0f8c32a0027f374d,,,,,,,decisionTrl,resources/DP.BMP,resources/DB.BMP,Door4,-0.305989583,0.013020833,1,0,0,0.5705,optionLeft,60,5225,3,8,0,8,0,1,,,,,,,,,,,,,,,,,,,,,,,,,,,,,,,,,,,,,,,
,,,,,,,5cdc899d48d5f100195fafff,2023-08-16_08h48.56.432,HF_wild_card,2022.2.4,Win32,36.78905158,5cdc899d48d5f100195fafff,64d2fd46c836a06233681665,64dc7f3f0f8c32a0027f374d,,,,,,,decisionTrl,resources/DG.BMP,resources/DBN.BMP,WildCard_Ex,0.283854167,-0.016927083,1,0,0,0.8643,optionRight,5,5230,3,9,0,9,0,1,,,,,,,,,,,,,,,,,,,,,,,,,,,,,,,,,,,,,,,
,,,,,,,5cdc899d48d5f100195fafff,2023-08-16_08h48.56.432,HF_wild_card,2022.2.4,Win32,36.78905158,5cdc899d48d5f100195fafff,64d2fd46c836a06233681665,64dc7f3f0f8c32a0027f374d,,,,,,,sngl,resources/Empty.png,resources/DG.BMP,Door2,0.317708333,0.020833333,1,0,0,0.4974,optionRight,20,5250,3,10,0,10,0,1,,,,,,,,,,,,,,,,,,,,,,,,,,,,,,,,,,,,,,,
,,,,,,,5cdc899d48d5f100195fafff,2023-08-16_08h48.56.432,HF_wild_card,2022.2.4,Win32,36.78905158,5cdc899d48d5f100195fafff,64d2fd46c836a06233681665,64dc7f3f0f8c32a0027f374d,,,,,,,decisionTrl,resources/DBN.BMP,resources/DR.BMP,WildCard_Ex,-0.295572917,-0.005208333,1,0,0,0.45,optionLeft,95,5345,3,11,0,11,0,1,,,,,,,,,,,,,,,,,,,,,,,,,,,,,,,,,,,,,,,
,,,,,,,5cdc899d48d5f100195fafff,2023-08-16_08h48.56.432,HF_wild_card,2022.2.4,Win32,36.78905158,5cdc899d48d5f100195fafff,64d2fd46c836a06233681665,64dc7f3f0f8c32a0027f374d,,,,,,,sngl,resources/Empty.png,resources/DB.BMP,Door3,0.32421875,-0.014322917,1,0,0,0.465,optionRight,70,5415,3,12,0,12,0,1,,,,,,,,,,,,,,,,,,,,,,,,,,,,,,,,,,,,,,,
,,,,,,,5cdc899d48d5f100195fafff,2023-08-16_08h48.56.432,HF_wild_card,2022.2.4,Win32,36.78905158,5cdc899d48d5f100195fafff,64d2fd46c836a06233681665,64dc7f3f0f8c32a0027f374d,,,,,,,ctch,resources/DB.BMP,resources/DG.BMP,Door3,-0.270833333,-0.006510417,1,0,0,0.499,optionLeft,70,5485,3,13,0,13,0,1,,,,,,,,,,,,,,,,,,,,,,,,,,,,,,,,,,,,,,,
,,,,,,,5cdc899d48d5f100195fafff,2023-08-16_08h48.56.432,HF_wild_card,2022.2.4,Win32,36.78905158,5cdc899d48d5f100195fafff,64d2fd46c836a06233681665,64dc7f3f0f8c32a0027f374d,,,,,,,ctch,resources/DG.BMP,resources/DB.BMP,Door3,0.270833333,-0.002604167,1,0,0,0.4622,optionRight,70,5555,3,14,0,14,0,1,,,,,,,,,,,,,,,,,,,,,,,,,,,,,,,,,,,,,,,
,,,,,,,5cdc899d48d5f100195fafff,2023-08-16_08h48.56.432,HF_wild_card,2022.2.4,Win32,36.78905158,5cdc899d48d5f100195fafff,64d2fd46c836a06233681665,64dc7f3f0f8c32a0027f374d,,,,,,,sngl,resources/Empty.png,resources/DBN.BMP,WildCard_Ex,0.260416667,0.0859375,1,0,0,0.7214,optionRight,95,5650,3,15,0,15,0,1,,,,,,,,,,,,,,,,,,,,,,,,,,,,,,,,,,,,,,,
,,,,,,,5cdc899d48d5f100195fafff,2023-08-16_08h48.56.432,HF_wild_card,2022.2.4,Win32,36.78905158,5cdc899d48d5f100195fafff,64d2fd46c836a06233681665,64dc7f3f0f8c32a0027f374d,,,,,,,sngl,resources/Empty.png,resources/DP.BMP,Door4,0.455729167,0.055989583,1,0,0,0.8458,optionRight,60,5710,3,16,0,16,0,1,,,,,,,,,,,,,,,,,,,,,,,,,,,,,,,,,,,,,,,
,,,,,,,5cdc899d48d5f100195fafff,2023-08-16_08h48.56.432,HF_wild_card,2022.2.4,Win32,36.78905158,5cdc899d48d5f100195fafff,64d2fd46c836a06233681665,64dc7f3f0f8c32a0027f374d,,,,,,,decisionTrl,resources/DG.BMP,resources/DR.BMP,Door2,-0.341145833,-0.020833333,1,0,0,0.5195,optionLeft,40,5750,3,17,0,17,0,1,,,,,,,,,,,,,,,,,,,,,,,,,,,,,,,,,,,,,,,
,,,,,,,5cdc899d48d5f100195fafff,2023-08-16_08h48.56.432,HF_wild_card,2022.2.4,Win32,36.78905158,5cdc899d48d5f100195fafff,64d2fd46c836a06233681665,64dc7f3f0f8c32a0027f374d,,,,,,,decisionTrl,resources/DBN.BMP,resources/DP.BMP,Door4,0.29296875,-0.01953125,1,0,0,0.6871,optionRight,80,5830,3,18,0,18,0,1,,,,,,,,,,,,,,,,,,,,,,,,,,,,,,,,,,,,,,,
,,,,,,,5cdc899d48d5f100195fafff,2023-08-16_08h48.56.432,HF_wild_card,2022.2.4,Win32,36.78905158,5cdc899d48d5f100195fafff,64d2fd46c836a06233681665,64dc7f3f0f8c32a0027f374d,,,,,,,sngl,resources/Empty.png,resources/DR.BMP,Door1,0.252604167,0.005208333,1,0,0,0.4497,optionRight,30,5860,3,19,0,19,0,1,,,,,,,,,,,,,,,,,,,,,,,,,,,,,,,,,,,,,,,
,,,,,,,5cdc899d48d5f100195fafff,2023-08-16_08h48.56.432,HF_wild_card,2022.2.4,Win32,36.78905158,5cdc899d48d5f100195fafff,64d2fd46c836a06233681665,64dc7f3f0f8c32a0027f374d,,,,,,,sngl,resources/DP.BMP,resources/Empty.png,Door4,-0.299479167,0.002604167,1,0,0,0.4514,optionLeft,80,5940,3,20,0,20,0,1,,,,,,,,,,,,,,,,,,,,,,,,,,,,,,,,,,,,,,,
,,,,,,,5cdc899d48d5f100195fafff,2023-08-16_08h48.56.432,HF_wild_card,2022.2.4,Win32,36.78905158,5cdc899d48d5f100195fafff,64d2fd46c836a06233681665,64dc7f3f0f8c32a0027f374d,,,,,,,decisionTrl,resources/DR.BMP,resources/DBN.BMP,Door1,-0.282552083,0.001302083,1,0,0,0.4963,optionLeft,30,5970,3,21,0,21,0,1,,,,,,,,,,,,,,,,,,,,,,,,,,,,,,,,,,,,,,,
,,,,,,,5cdc899d48d5f100195fafff,2023-08-16_08h48.56.432,HF_wild_card,2022.2.4,Win32,36.78905158,5cdc899d48d5f100195fafff,64d2fd46c836a06233681665,64dc7f3f0f8c32a0027f374d,,,,,,,sngl,resources/DB.BMP,resources/Empty.png,Door3,-0.3125,0.01171875,1,0,0,0.4956,optionLeft,70,6040,3,22,0,22,0,1,,,,,,,,,,,,,,,,,,,,,,,,,,,,,,,,,,,,,,,
,,,,,,,5cdc899d48d5f100195fafff,2023-08-16_08h48.56.432,HF_wild_card,2022.2.4,Win32,36.78905158,5cdc899d48d5f100195fafff,64d2fd46c836a06233681665,64dc7f3f0f8c32a0027f374d,,,,,,,decisionTrl,resources/DP.BMP,resources/DBN.BMP,Door4,-0.309895833,-0.0078125,1,0,0,0.616,optionLeft,60,6100,3,23,0,23,0,1,,,,,,,,,,,,,,,,,,,,,,,,,,,,,,,,,,,,,,,
,,,,,,,5cdc899d48d5f100195fafff,2023-08-16_08h48.56.432,HF_wild_card,2022.2.4,Win32,36.78905158,5cdc899d48d5f100195fafff,64d2fd46c836a06233681665,64dc7f3f0f8c32a0027f374d,,,,,,,decisionTrl,resources/DB.BMP,resources/DP.BMP,Door4,0.291666667,-0.014322917,1,0,0,0.5611,optionRight,60,6160,3,24,0,24,0,1,,,,,,,,,,,,,,,,,,,,,,,,,,,,,,,,,,,,,,,
,,,,,,,5cdc899d48d5f100195fafff,2023-08-16_08h48.56.432,HF_wild_card,2022.2.4,Win32,36.78905158,5cdc899d48d5f100195fafff,64d2fd46c836a06233681665,64dc7f3f0f8c32a0027f374d,,,,,,,decisionTrl,resources/DP.BMP,resources/DB.BMP,Door4,-0.32421875,-0.001302083,1,0,0,0.7155,optionLeft,60,6220,3,25,0,25,0,1,,,,,,,,,,,,,,,,,,,,,,,,,,,,,,,,,,,,,,,
,,,,,,,5cdc899d48d5f100195fafff,2023-08-16_08h48.56.432,HF_wild_card,2022.2.4,Win32,36.78905158,5cdc899d48d5f100195fafff,64d2fd46c836a06233681665,64dc7f3f0f8c32a0027f374d,,,,,,,ctch,resources/DG.BMP,resources/DB.BMP,Door3,0.307291667,-0.018229167,1,0,0,0.4588,optionRight,70,6290,3,26,0,26,0,1,,,,,,,,,,,,,,,,,,,,,,,,,,,,,,,,,,,,,,,
,,,,,,,5cdc899d48d5f100195fafff,2023-08-16_08h48.56.432,HF_wild_card,2022.2.4,Win32,36.78905158,5cdc899d48d5f100195fafff,64d2fd46c836a06233681665,64dc7f3f0f8c32a0027f374d,,,,,,,ctch,resources/DP.BMP,resources/DR.BMP,Door4,-0.3515625,-0.02734375,1,0,0,0.7461,optionLeft,80,6370,3,27,0,27,0,1,,,,,,,,,,,,,,,,,,,,,,,,,,,,,,,,,,,,,,,
,,,,,,,5cdc899d48d5f100195fafff,2023-08-16_08h48.56.432,HF_wild_card,2022.2.4,Win32,36.78905158,5cdc899d48d5f100195fafff,64d2fd46c836a06233681665,64dc7f3f0f8c32a0027f374d,,,,,,,sngl,resources/DBN.BMP,resources/Empty.png,WildCard_Ex,-0.48046875,0.009114583,1,0,0,0.4913,optionLeft,5,6375,3,28,0,28,0,1,,,,,,,,,,,,,,,,,,,,,,,,,,,,,,,,,,,,,,,
,,,,,,,5cdc899d48d5f100195fafff,2023-08-16_08h48.56.432,HF_wild_card,2022.2.4,Win32,36.78905158,5cdc899d48d5f100195fafff,64d2fd46c836a06233681665,64dc7f3f0f8c32a0027f374d,,,,,,,sngl,resources/DG.BMP,resources/Empty.png,Door2,-0.40234375,0.0078125,1,0,0,0.4739,optionLeft,40,6415,3,29,0,29,0,1,,,,,,,,,,,,,,,,,,,,,,,,,,,,,,,,,,,,,,,
,,,,,,,5cdc899d48d5f100195fafff,2023-08-16_08h48.56.432,HF_wild_card,2022.2.4,Win32,36.78905158,5cdc899d48d5f100195fafff,64d2fd46c836a06233681665,64dc7f3f0f8c32a0027f374d,,,,,,,decisionTrl,resources/DR.BMP,resources/DG.BMP,Door1,-0.390625,0.002604167,1,0,0,0.6421,optionLeft,30,6445,3,30,0,30,0,1,,,,,,,,,,,,,,,,,,,,,,,,,,,,,,,,,,,,,,,
,,,,,,,5cdc899d48d5f100195fafff,2023-08-16_08h48.56.432,HF_wild_card,2022.2.4,Win32,36.78905158,5cdc899d48d5f100195fafff,64d2fd46c836a06233681665,64dc7f3f0f8c32a0027f374d,,,,,,,decisionTrl,resources/DG.BMP,resources/DR.BMP,Door1,0.240885417,0.00390625,1,0,0,0.5803,optionRight,30,6475,3,31,0,31,0,1,,,,,,,,,,,,,,,,,,,,,,,,,,,,,,,,,,,,,,,
,,,,,,,5cdc899d48d5f100195fafff,2023-08-16_08h48.56.432,HF_wild_card,2022.2.4,Win32,36.78905158,5cdc899d48d5f100195fafff,64d2fd46c836a06233681665,64dc7f3f0f8c32a0027f374d,,,,,,,sngl,resources/Empty.png,resources/DBN.BMP,WildCard_Ex,0.303385417,0.046875,1,0,0,0.5305,optionRight,5,6480,3,32,0,32,0,1,,,,,,,,,,,,,,,,,,,,,,,,,,,,,,,,,,,,,,,
,,,,,,,5cdc899d48d5f100195fafff,2023-08-16_08h48.56.432,HF_wild_card,2022.2.4,Win32,36.78905158,5cdc899d48d5f100195fafff,64d2fd46c836a06233681665,64dc7f3f0f8c32a0027f374d,,,,,,,sngl,resources/DR.BMP,resources/Empty.png,Door1,-0.283854167,0.006510417,1,0,0,0.4576,optionLeft,30,6510,3,33,0,33,0,1,,,,,,,,,,,,,,,,,,,,,,,,,,,,,,,,,,,,,,,
,,,,,,,5cdc899d48d5f100195fafff,2023-08-16_08h48.56.432,HF_wild_card,2022.2.4,Win32,36.78905158,5cdc899d48d5f100195fafff,64d2fd46c836a06233681665,64dc7f3f0f8c32a0027f374d,,,,,,,decisionTrl,resources/DG.BMP,resources/DR.BMP,Door2,-0.2734375,-0.005208333,1,0,0,0.5777,optionLeft,20,6530,3,34,0,34,0,1,,,,,,,,,,,,,,,,,,,,,,,,,,,,,,,,,,,,,,,
,,,,,,,5cdc899d48d5f100195fafff,2023-08-16_08h48.56.432,HF_wild_card,2022.2.4,Win32,36.78905158,5cdc899d48d5f100195fafff,64d2fd46c836a06233681665,64dc7f3f0f8c32a0027f374d,,,,,,,decisionTrl,resources/DR.BMP,resources/DG.BMP,Door1,-0.393229167,0.006510417,1,0,0,0.5097,optionLeft,30,6560,3,35,0,35,0,1,,,,,,,,,,,,,,,,,,,,,,,,,,,,,,,,,,,,,,,
,,,,,,,5cdc899d48d5f100195fafff,2023-08-16_08h48.56.432,HF_wild_card,2022.2.4,Win32,36.78905158,5cdc899d48d5f100195fafff,64d2fd46c836a06233681665,64dc7f3f0f8c32a0027f374d,,,,,,,decisionTrl,resources/DBN.BMP,resources/DG.BMP,WildCard_Ex,-0.296875,0.033854167,1,0,0,0.8203,optionLeft,5,6565,3,36,0,36,0,1,,,,,,,,,,,,,,,,,,,,,,,,,,,,,,,,,,,,,,,
,,,,,,,5cdc899d48d5f100195fafff,2023-08-16_08h48.56.432,HF_wild_card,2022.2.4,Win32,36.78905158,5cdc899d48d5f100195fafff,64d2fd46c836a06233681665,64dc7f3f0f8c32a0027f374d,,,,,,,decisionTrl,resources/DB.BMP,resources/DP.BMP,Door4,0.25,0.00390625,1,0,0,0.6218,optionRight,60,6625,3,37,0,37,0,1,,,,,,,,,,,,,,,,,,,,,,,,,,,,,,,,,,,,,,,
,,,,,,,5cdc899d48d5f100195fafff,2023-08-16_08h48.56.432,HF_wild_card,2022.2.4,Win32,36.78905158,5cdc899d48d5f100195fafff,64d2fd46c836a06233681665,64dc7f3f0f8c32a0027f374d,,,,,,,decisionTrl,resources/DP.BMP,resources/DB.BMP,Door4,-0.430989583,0,1,0,0,0.4997,optionLeft,60,6685,3,38,0,38,0,1,,,,,,,,,,,,,,,,,,,,,,,,,,,,,,,,,,,,,,,
,,,,,,,5cdc899d48d5f100195fafff,2023-08-16_08h48.56.432,HF_wild_card,2022.2.4,Win32,36.78905158,5cdc899d48d5f100195fafff,64d2fd46c836a06233681665,64dc7f3f0f8c32a0027f374d,,,,,,,decisionTrl,resources/DB.BMP,resources/DP.BMP,Door4,0.252604167,0.02734375,1,0,0,0.5808,optionRight,80,6765,3,39,0,39,0,1,,,,,,,,,,,,,,,,,,,,,,,,,,,,,,,,,,,,,,,
,,,,,,,5cdc899d48d5f100195fafff,2023-08-16_08h48.56.432,HF_wild_card,2022.2.4,Win32,36.78905158,5cdc899d48d5f100195fafff,64d2fd46c836a06233681665,64dc7f3f0f8c32a0027f374d,,,,,,,decisionTrl,resources/DBN.BMP,resources/DB.BMP,WildCard_Ex,-0.36328125,-0.00390625,1,0,0,0.6098,optionLeft,5,6770,3,40,0,40,0,1,,,,,,,,,,,,,,,,,,,,,,,,,,,,,,,,,,,,,,,
,,,,,,,5cdc899d48d5f100195fafff,2023-08-16_08h48.56.432,HF_wild_card,2022.2.4,Win32,36.78905158,5cdc899d48d5f100195fafff,64d2fd46c836a06233681665,64dc7f3f0f8c32a0027f374d,,,,,,,decisionTrl,resources/DB.BMP,resources/DBN.BMP,Door3,-0.376302083,-0.00390625,1,0,0,0.5435,optionLeft,70,6840,3,41,0,41,0,1,,,,,,,,,,,,,,,,,,,,,,,,,,,,,,,,,,,,,,,
,,,,,,,5cdc899d48d5f100195fafff,2023-08-16_08h48.56.432,HF_wild_card,2022.2.4,Win32,36.78905158,5cdc899d48d5f100195fafff,64d2fd46c836a06233681665,64dc7f3f0f8c32a0027f374d,,,,,,,ctch,resources/DB.BMP,resources/DG.BMP,Door3,-0.298177083,-0.013020833,1,0,0,0.5448,optionLeft,70,6910,3,42,0,42,0,1,,,,,,,,,,,,,,,,,,,,,,,,,,,,,,,,,,,,,,,
,,,,,,,5cdc899d48d5f100195fafff,2023-08-16_08h48.56.432,HF_wild_card,2022.2.4,Win32,36.78905158,5cdc899d48d5f100195fafff,64d2fd46c836a06233681665,64dc7f3f0f8c32a0027f374d,,,,,,,decisionTrl,resources/DG.BMP,resources/DR.BMP,Door2,-0.391927083,-0.014322917,1,0,0,0.8104,optionLeft,40,6950,3,43,0,43,0,1,,,,,,,,,,,,,,,,,,,,,,,,,,,,,,,,,,,,,,,
,,,,,,,5cdc899d48d5f100195fafff,2023-08-16_08h48.56.432,HF_wild_card,2022.2.4,Win32,36.78905158,5cdc899d48d5f100195fafff,64d2fd46c836a06233681665,64dc7f3f0f8c32a0027f374d,,,,,,,,,,,,,,,,,,,,,,,,,,2,0,2,0,1,,,,,,,,,,,,,,,,,,,,,,,,,,,,,,,,,,
,,,,,,,5cdc899d48d5f100195fafff,2023-08-16_08h48.56.432,HF_wild_card,2022.2.4,Win32,36.78905158,5cdc899d48d5f100195fafff,64d2fd46c836a06233681665,64dc7f3f0f8c32a0027f374d,,,,,,,decisionTrl,resources/DR.BMP,resources/DG.BMP,Door1,-0.447916667,0.010416667,1,0,0,0.6994,optionLeft,30,6980,4,0,0,0,0,1,,,,,,,,,,,,,,,,,,,,,,,,,,,,,,,,,,,,,,,
,,,,,,,5cdc899d48d5f100195fafff,2023-08-16_08h48.56.432,HF_wild_card,2022.2.4,Win32,36.78905158,5cdc899d48d5f100195fafff,64d2fd46c836a06233681665,64dc7f3f0f8c32a0027f374d,,,,,,,decisionTrl,resources/DB.BMP,resources/DY.BMP,Door3,-0.31640625,-0.005208333,1,0,0,0.5391,optionLeft,70,7050,4,1,0,1,0,1,,,,,,,,,,,,,,,,,,,,,,,,,,,,,,,,,,,,,,,
,,,,,,,5cdc899d48d5f100195fafff,2023-08-16_08h48.56.432,HF_wild_card,2022.2.4,Win32,36.78905158,5cdc899d48d5f100195fafff,64d2fd46c836a06233681665,64dc7f3f0f8c32a0027f374d,,,,,,,decisionTrl,resources/DB.BMP,resources/DP.BMP,Door4,0.290364583,0.024739583,1,0,0,0.646,optionRight,80,7130,4,2,0,2,0,1,,,,,,,,,,,,,,,,,,,,,,,,,,,,,,,,,,,,,,,
,,,,,,,5cdc899d48d5f100195fafff,2023-08-16_08h48.56.432,HF_wild_card,2022.2.4,Win32,36.78905158,5cdc899d48d5f100195fafff,64d2fd46c836a06233681665,64dc7f3f0f8c32a0027f374d,,,,,,,decisionTrl,resources/DB.BMP,resources/DP.BMP,Door4,0.317708333,0.001302083,1,0,0,0.6128,optionRight,80,7210,4,3,0,3,0,1,,,,,,,,,,,,,,,,,,,,,,,,,,,,,,,,,,,,,,,
,,,,,,,5cdc899d48d5f100195fafff,2023-08-16_08h48.56.432,HF_wild_card,2022.2.4,Win32,36.78905158,5cdc899d48d5f100195fafff,64d2fd46c836a06233681665,64dc7f3f0f8c32a0027f374d,,,,,,,sngl,resources/Empty.png,resources/DG.BMP,Door2,0.319010417,0.018229167,1,0,0,0.6842,optionRight,40,7250,4,4,0,4,0,1,,,,,,,,,,,,,,,,,,,,,,,,,,,,,,,,,,,,,,,
,,,,,,,5cdc899d48d5f100195fafff,2023-08-16_08h48.56.432,HF_wild_card,2022.2.4,Win32,36.78905158,5cdc899d48d5f100195fafff,64d2fd46c836a06233681665,64dc7f3f0f8c32a0027f374d,,,,,,,sngl,resources/DP.BMP,resources/Empty.png,Door4,-0.350260417,0.002604167,1,0,0,0.4812,optionLeft,60,7310,4,5,0,5,0,1,,,,,,,,,,,,,,,,,,,,,,,,,,,,,,,,,,,,,,,
,,,,,,,5cdc899d48d5f100195fafff,2023-08-16_08h48.56.432,HF_wild_card,2022.2.4,Win32,36.78905158,5cdc899d48d5f100195fafff,64d2fd46c836a06233681665,64dc7f3f0f8c32a0027f374d,,,,,,,decisionTrl,resources/DP.BMP,resources/DB.BMP,Door4,-0.354166667,0.020833333,1,0,0,0.7715,optionLeft,80,7390,4,6,0,6,0,1,,,,,,,,,,,,,,,,,,,,,,,,,,,,,,,,,,,,,,,
,,,,,,,5cdc899d48d5f100195fafff,2023-08-16_08h48.56.432,HF_wild_card,2022.2.4,Win32,36.78905158,5cdc899d48d5f100195fafff,64d2fd46c836a06233681665,64dc7f3f0f8c32a0027f374d,,,,,,,decisionTrl,resources/DY.BMP,resources/DR.BMP,WildCard_NonEx,-0.450520833,0.013020833,1,0,0,0.9228,optionLeft,55,7445,4,7,0,7,0,1,,,,,,,,,,,,,,,,,,,,,,,,,,,,,,,,,,,,,,,
,,,,,,,5cdc899d48d5f100195fafff,2023-08-16_08h48.56.432,HF_wild_card,2022.2.4,Win32,36.78905158,5cdc899d48d5f100195fafff,64d2fd46c836a06233681665,64dc7f3f0f8c32a0027f374d,,,,,,,decisionTrl,resources/DB.BMP,resources/DP.BMP,Door4,0.27734375,0.013020833,1,0,0,0.6491,optionRight,60,7505,4,8,0,8,0,1,,,,,,,,,,,,,,,,,,,,,,,,,,,,,,,,,,,,,,,
,,,,,,,5cdc899d48d5f100195fafff,2023-08-16_08h48.56.432,HF_wild_card,2022.2.4,Win32,36.78905158,5cdc899d48d5f100195fafff,64d2fd46c836a06233681665,64dc7f3f0f8c32a0027f374d,,,,,,,decisionTrl,resources/DG.BMP,resources/DR.BMP,Door2,-0.3359375,-0.014322917,1,0,0,0.6164,optionLeft,40,7545,4,9,0,9,0,1,,,,,,,,,,,,,,,,,,,,,,,,,,,,,,,,,,,,,,,
,,,,,,,5cdc899d48d5f100195fafff,2023-08-16_08h48.56.432,HF_wild_card,2022.2.4,Win32,36.78905158,5cdc899d48d5f100195fafff,64d2fd46c836a06233681665,64dc7f3f0f8c32a0027f374d,,,,,,,decisionTrl,resources/DG.BMP,resources/DR.BMP,Door2,-0.251302083,0.001302083,1,0,0,0.5948,optionLeft,20,7565,4,10,0,10,0,1,,,,,,,,,,,,,,,,,,,,,,,,,,,,,,,,,,,,,,,
,,,,,,,5cdc899d48d5f100195fafff,2023-08-16_08h48.56.432,HF_wild_card,2022.2.4,Win32,36.78905158,5cdc899d48d5f100195fafff,64d2fd46c836a06233681665,64dc7f3f0f8c32a0027f374d,,,,,,,ctch,resources/DP.BMP,resources/DR.BMP,Door4,-0.3984375,0.001302083,1,0,0,0.5114,optionLeft,80,7645,4,11,0,11,0,1,,,,,,,,,,,,,,,,,,,,,,,,,,,,,,,,,,,,,,,
,,,,,,,5cdc899d48d5f100195fafff,2023-08-16_08h48.56.432,HF_wild_card,2022.2.4,Win32,36.78905158,5cdc899d48d5f100195fafff,64d2fd46c836a06233681665,64dc7f3f0f8c32a0027f374d,,,,,,,decisionTrl,resources/DP.BMP,resources/DB.BMP,Door4,-0.346354167,-0.01953125,1,0,0,0.5134,optionLeft,60,7705,4,12,0,12,0,1,,,,,,,,,,,,,,,,,,,,,,,,,,,,,,,,,,,,,,,
,,,,,,,5cdc899d48d5f100195fafff,2023-08-16_08h48.56.432,HF_wild_card,2022.2.4,Win32,36.78905158,5cdc899d48d5f100195fafff,64d2fd46c836a06233681665,64dc7f3f0f8c32a0027f374d,,,,,,,ctch,resources/DG.BMP,resources/DB.BMP,Door3,0.572916667,-0.102864583,1,0,0,0.6828,optionRight,70,7775,4,13,0,13,0,1,,,,,,,,,,,,,,,,,,,,,,,,,,,,,,,,,,,,,,,
,,,,,,,5cdc899d48d5f100195fafff,2023-08-16_08h48.56.432,HF_wild_card,2022.2.4,Win32,36.78905158,5cdc899d48d5f100195fafff,64d2fd46c836a06233681665,64dc7f3f0f8c32a0027f374d,,,,,,,ctch,resources/DR.BMP,resources/DP.BMP,Door4,0.27734375,0.005208333,1,0,0,0.5334,optionRight,60,7835,4,14,0,14,0,1,,,,,,,,,,,,,,,,,,,,,,,,,,,,,,,,,,,,,,,
,,,,,,,5cdc899d48d5f100195fafff,2023-08-16_08h48.56.432,HF_wild_card,2022.2.4,Win32,36.78905158,5cdc899d48d5f100195fafff,64d2fd46c836a06233681665,64dc7f3f0f8c32a0027f374d,,,,,,,decisionTrl,resources/DY.BMP,resources/DG.BMP,WildCard_NonEx,-0.225260417,-0.020833333,1,0,0,0.5263,optionLeft,55,7890,4,15,0,15,0,1,,,,,,,,,,,,,,,,,,,,,,,,,,,,,,,,,,,,,,,
,,,,,,,5cdc899d48d5f100195fafff,2023-08-16_08h48.56.432,HF_wild_card,2022.2.4,Win32,36.78905158,5cdc899d48d5f100195fafff,64d2fd46c836a06233681665,64dc7f3f0f8c32a0027f374d,,,,,,,sngl,resources/DB.BMP,resources/Empty.png,Door3,-0.384114583,-0.03125,1,0,0,0.4569,optionLeft,70,7960,4,16,0,16,0,1,,,,,,,,,,,,,,,,,,,,,,,,,,,,,,,,,,,,,,,
,,,,,,,5cdc899d48d5f100195fafff,2023-08-16_08h48.56.432,HF_wild_card,2022.2.4,Win32,36.78905158,5cdc899d48d5f100195fafff,64d2fd46c836a06233681665,64dc7f3f0f8c32a0027f374d,,,,,,,decisionTrl,resources/DR.BMP,resources/DG.BMP,Door1,-0.337239583,-0.018229167,1,0,0,0.5825,optionLeft,30,7990,4,17,0,17,0,1,,,,,,,,,,,,,,,,,,,,,,,,,,,,,,,,,,,,,,,
,,,,,,,5cdc899d48d5f100195fafff,2023-08-16_08h48.56.432,HF_wild_card,2022.2.4,Win32,36.78905158,5cdc899d48d5f100195fafff,64d2fd46c836a06233681665,64dc7f3f0f8c32a0027f374d,,,,,,,decisionTrl,resources/DP.BMP,resources/DB.BMP,Door4,-0.315104167,-0.016927083,1,0,0,0.5053,optionLeft,80,8070,4,18,0,18,0,1,,,,,,,,,,,,,,,,,,,,,,,,,,,,,,,,,,,,,,,
,,,,,,,5cdc899d48d5f100195fafff,2023-08-16_08h48.56.432,HF_wild_card,2022.2.4,Win32,36.78905158,5cdc899d48d5f100195fafff,64d2fd46c836a06233681665,64dc7f3f0f8c32a0027f374d,,,,,,,sngl,resources/Empty.png,resources/DP.BMP,Door4,0.2421875,0.01171875,1,0,0,0.5804,optionRight,80,8150,4,19,0,19,0,1,,,,,,,,,,,,,,,,,,,,,,,,,,,,,,,,,,,,,,,
,,,,,,,5cdc899d48d5f100195fafff,2023-08-16_08h48.56.432,HF_wild_card,2022.2.4,Win32,36.78905158,5cdc899d48d5f100195fafff,64d2fd46c836a06233681665,64dc7f3f0f8c32a0027f374d,,,,,,,sngl,resources/DG.BMP,resources/Empty.png,Door2,-0.263020833,0,1,0,0,0.47,optionLeft,20,8170,4,20,0,20,0,1,,,,,,,,,,,,,,,,,,,,,,,,,,,,,,,,,,,,,,,
,,,,,,,5cdc899d48d5f100195fafff,2023-08-16_08h48.56.432,HF_wild_card,2022.2.4,Win32,36.78905158,5cdc899d48d5f100195fafff,64d2fd46c836a06233681665,64dc7f3f0f8c32a0027f374d,,,,,,,sngl,resources/Empty.png,resources/DR.BMP,Door1,0.299479167,-0.01953125,1,0,0,0.5581,optionRight,30,8200,4,21,0,21,0,1,,,,,,,,,,,,,,,,,,,,,,,,,,,,,,,,,,,,,,,
,,,,,,,5cdc899d48d5f100195fafff,2023-08-16_08h48.56.432,HF_wild_card,2022.2.4,Win32,36.78905158,5cdc899d48d5f100195fafff,64d2fd46c836a06233681665,64dc7f3f0f8c32a0027f374d,,,,,,,decisionTrl,resources/DP.BMP,resources/DY.BMP,Door4,-0.299479167,-0.013020833,1,0,0,0.5044,optionLeft,80,8280,4,22,0,22,0,1,,,,,,,,,,,,,,,,,,,,,,,,,,,,,,,,,,,,,,,
,,,,,,,5cdc899d48d5f100195fafff,2023-08-16_08h48.56.432,HF_wild_card,2022.2.4,Win32,36.78905158,5cdc899d48d5f100195fafff,64d2fd46c836a06233681665,64dc7f3f0f8c32a0027f374d,,,,,,,sngl,resources/DY.BMP,resources/Empty.png,WildCard_NonEx,-0.341145833,-0.010416667,1,0,0,0.4915,optionLeft,45,8325,4,23,0,23,0,1,,,,,,,,,,,,,,,,,,,,,,,,,,,,,,,,,,,,,,,
,,,,,,,5cdc899d48d5f100195fafff,2023-08-16_08h48.56.432,HF_wild_card,2022.2.4,Win32,36.78905158,5cdc899d48d5f100195fafff,64d2fd46c836a06233681665,64dc7f3f0f8c32a0027f374d,,,,,,,ctch,resources/DB.BMP,resources/DG.BMP,Door3,-0.282552083,-0.037760417,1,0,0,0.5125,optionLeft,70,8395,4,24,0,24,0,1,,,,,,,,,,,,,,,,,,,,,,,,,,,,,,,,,,,,,,,
,,,,,,,5cdc899d48d5f100195fafff,2023-08-16_08h48.56.432,HF_wild_card,2022.2.4,Win32,36.78905158,5cdc899d48d5f100195fafff,64d2fd46c836a06233681665,64dc7f3f0f8c32a0027f374d,,,,,,,decisionTrl,resources/DG.BMP,resources/DY.BMP,WildCard_NonEx,0.311197917,-0.049479167,1,0,0,0.5213,optionRight,55,8450,4,25,0,25,0,1,,,,,,,,,,,,,,,,,,,,,,,,,,,,,,,,,,,,,,,
,,,,,,,5cdc899d48d5f100195fafff,2023-08-16_08h48.56.432,HF_wild_card,2022.2.4,Win32,36.78905158,5cdc899d48d5f100195fafff,64d2fd46c836a06233681665,64dc7f3f0f8c32a0027f374d,,,,,,,ctch,resources/DP.BMP,resources/DR.BMP,Door4,-0.346354167,-0.014322917,1,0,0,0.4757,optionLeft,60,8510,4,26,0,26,0,1,,,,,,,,,,,,,,,,,,,,,,,,,,,,,,,,,,,,,,,
,,,,,,,5cdc899d48d5f100195fafff,2023-08-16_08h48.56.432,HF_wild_card,2022.2.4,Win32,36.78905158,5cdc899d48d5f100195fafff,64d2fd46c836a06233681665,64dc7f3f0f8c32a0027f374d,,,,,,,sngl,resources/DR.BMP,resources/Empty.png,Door1,-0.309895833,-0.0078125,1,0,0,0.515,optionLeft,30,8540,4,27,0,27,0,1,,,,,,,,,,,,,,,,,,,,,,,,,,,,,,,,,,,,,,,
,,,,,,,5cdc899d48d5f100195fafff,2023-08-16_08h48.56.432,HF_wild_card,2022.2.4,Win32,36.78905158,5cdc899d48d5f100195fafff,64d2fd46c836a06233681665,64dc7f3f0f8c32a0027f374d,,,,,,,decisionTrl,resources/DR.BMP,resources/DG.BMP,Door1,-0.317708333,-0.01171875,1,0,0,0.5188,optionLeft,30,8570,4,28,0,28,0,1,,,,,,,,,,,,,,,,,,,,,,,,,,,,,,,,,,,,,,,
,,,,,,,5cdc899d48d5f100195fafff,2023-08-16_08h48.56.432,HF_wild_card,2022.2.4,Win32,36.78905158,5cdc899d48d5f100195fafff,64d2fd46c836a06233681665,64dc7f3f0f8c32a0027f374d,,,,,,,decisionTrl,resources/DY.BMP,resources/DB.BMP,Door3,0.278645833,-0.036458333,1,0,0,0.5203,optionRight,70,8640,4,29,0,29,0,1,,,,,,,,,,,,,,,,,,,,,,,,,,,,,,,,,,,,,,,
,,,,,,,5cdc899d48d5f100195fafff,2023-08-16_08h48.56.432,HF_wild_card,2022.2.4,Win32,36.78905158,5cdc899d48d5f100195fafff,64d2fd46c836a06233681665,64dc7f3f0f8c32a0027f374d,,,,,,,ctch,resources/DB.BMP,resources/DG.BMP,Door3,-0.346354167,-0.0390625,1,0,0,0.4337,optionLeft,70,8710,4,30,0,30,0,1,,,,,,,,,,,,,,,,,,,,,,,,,,,,,,,,,,,,,,,
,,,,,,,5cdc899d48d5f100195fafff,2023-08-16_08h48.56.432,HF_wild_card,2022.2.4,Win32,36.78905158,5cdc899d48d5f100195fafff,64d2fd46c836a06233681665,64dc7f3f0f8c32a0027f374d,,,,,,,decisionTrl,resources/DG.BMP,resources/DR.BMP,Door1,0.278645833,-0.020833333,1,0,0,0.6183,optionRight,30,8740,4,31,0,31,0,1,,,,,,,,,,,,,,,,,,,,,,,,,,,,,,,,,,,,,,,
,,,,,,,5cdc899d48d5f100195fafff,2023-08-16_08h48.56.432,HF_wild_card,2022.2.4,Win32,36.78905158,5cdc899d48d5f100195fafff,64d2fd46c836a06233681665,64dc7f3f0f8c32a0027f374d,,,,,,,sngl,resources/Empty.png,resources/DB.BMP,Door3,0.205729167,-0.016927083,1,0,0,0.583,optionRight,70,8810,4,32,0,32,0,1,,,,,,,,,,,,,,,,,,,,,,,,,,,,,,,,,,,,,,,
,,,,,,,5cdc899d48d5f100195fafff,2023-08-16_08h48.56.432,HF_wild_card,2022.2.4,Win32,36.78905158,5cdc899d48d5f100195fafff,64d2fd46c836a06233681665,64dc7f3f0f8c32a0027f374d,,,,,,,decisionTrl,resources/DY.BMP,resources/DP.BMP,WildCard_NonEx,-0.313802083,-0.01953125,1,0,0,0.5821,optionLeft,45,8855,4,33,0,33,0,1,,,,,,,,,,,,,,,,,,,,,,,,,,,,,,,,,,,,,,,
,,,,,,,5cdc899d48d5f100195fafff,2023-08-16_08h48.56.432,HF_wild_card,2022.2.4,Win32,36.78905158,5cdc899d48d5f100195fafff,64d2fd46c836a06233681665,64dc7f3f0f8c32a0027f374d,,,,,,,sngl,resources/Empty.png,resources/DY.BMP,WildCard_NonEx,0.204427083,-0.020833333,1,0,0,0.5355,optionRight,55,8910,4,34,0,34,0,1,,,,,,,,,,,,,,,,,,,,,,,,,,,,,,,,,,,,,,,
,,,,,,,5cdc899d48d5f100195fafff,2023-08-16_08h48.56.432,HF_wild_card,2022.2.4,Win32,36.78905158,5cdc899d48d5f100195fafff,64d2fd46c836a06233681665,64dc7f3f0f8c32a0027f374d,,,,,,,decisionTrl,resources/DR.BMP,resources/DY.BMP,Door1,-0.352864583,-0.0078125,1,0,0,0.6095,optionLeft,30,8940,4,35,0,35,0,1,,,,,,,,,,,,,,,,,,,,,,,,,,,,,,,,,,,,,,,
,,,,,,,5cdc899d48d5f100195fafff,2023-08-16_08h48.56.432,HF_wild_card,2022.2.4,Win32,36.78905158,5cdc899d48d5f100195fafff,64d2fd46c836a06233681665,64dc7f3f0f8c32a0027f374d,,,,,,,ctch,resources/DR.BMP,resources/DP.BMP,Door4,0.291666667,-0.03515625,1,0,0,0.4943,optionRight,80,9020,4,36,0,36,0,1,,,,,,,,,,,,,,,,,,,,,,,,,,,,,,,,,,,,,,,
,,,,,,,5cdc899d48d5f100195fafff,2023-08-16_08h48.56.432,HF_wild_card,2022.2.4,Win32,36.78905158,5cdc899d48d5f100195fafff,64d2fd46c836a06233681665,64dc7f3f0f8c32a0027f374d,,,,,,,sngl,resources/DY.BMP,resources/Empty.png,WildCard_NonEx,-0.229166667,-0.005208333,1,0,0,0.5857,optionLeft,55,9075,4,37,0,37,0,1,,,,,,,,,,,,,,,,,,,,,,,,,,,,,,,,,,,,,,,
,,,,,,,5cdc899d48d5f100195fafff,2023-08-16_08h48.56.432,HF_wild_card,2022.2.4,Win32,36.78905158,5cdc899d48d5f100195fafff,64d2fd46c836a06233681665,64dc7f3f0f8c32a0027f374d,,,,,,,decisionTrl,resources/DR.BMP,resources/DG.BMP,Door1,-0.299479167,-0.02734375,1,0,0,0.5488,optionLeft,30,9105,4,38,0,38,0,1,,,,,,,,,,,,,,,,,,,,,,,,,,,,,,,,,,,,,,,
,,,,,,,5cdc899d48d5f100195fafff,2023-08-16_08h48.56.432,HF_wild_card,2022.2.4,Win32,36.78905158,5cdc899d48d5f100195fafff,64d2fd46c836a06233681665,64dc7f3f0f8c32a0027f374d,,,,,,,decisionTrl,resources/DG.BMP,resources/DR.BMP,Door1,0.329427083,0,1,0,0,0.5438,optionRight,30,9135,4,39,0,39,0,1,,,,,,,,,,,,,,,,,,,,,,,,,,,,,,,,,,,,,,,
,,,,,,,5cdc899d48d5f100195fafff,2023-08-16_08h48.56.432,HF_wild_card,2022.2.4,Win32,36.78905158,5cdc899d48d5f100195fafff,64d2fd46c836a06233681665,64dc7f3f0f8c32a0027f374d,,,,,,,ctch,resources/DG.BMP,resources/DB.BMP,Door2,-0.2890625,-0.005208333,1,0,0,0.5425,optionLeft,20,9155,4,40,0,40,0,1,,,,,,,,,,,,,,,,,,,,,,,,,,,,,,,,,,,,,,,
,,,,,,,5cdc899d48d5f100195fafff,2023-08-16_08h48.56.432,HF_wild_card,2022.2.4,Win32,36.78905158,5cdc899d48d5f100195fafff,64d2fd46c836a06233681665,64dc7f3f0f8c32a0027f374d,,,,,,,decisionTrl,resources/DP.BMP,resources/DB.BMP,Door4,-0.3046875,-0.005208333,1,0,0,0.4781,optionLeft,80,9235,4,41,0,41,0,1,,,,,,,,,,,,,,,,,,,,,,,,,,,,,,,,,,,,,,,
,,,,,,,5cdc899d48d5f100195fafff,2023-08-16_08h48.56.432,HF_wild_card,2022.2.4,Win32,36.78905158,5cdc899d48d5f100195fafff,64d2fd46c836a06233681665,64dc7f3f0f8c32a0027f374d,,,,,,,sngl,resources/Empty.png,resources/DY.BMP,WildCard_NonEx,0.223958333,-0.01953125,1,0,0,0.5188,optionRight,45,9280,4,42,0,42,0,1,,,,,,,,,,,,,,,,,,,,,,,,,,,,,,,,,,,,,,,
,,,,,,,5cdc899d48d5f100195fafff,2023-08-16_08h48.56.432,HF_wild_card,2022.2.4,Win32,36.78905158,5cdc899d48d5f100195fafff,64d2fd46c836a06233681665,64dc7f3f0f8c32a0027f374d,,,,,,,decisionTrl,resources/DB.BMP,resources/DP.BMP,Door4,0.278645833,-0.037760417,1,0,0,0.5716,optionRight,80,9360,4,43,0,43,0,1,,,,,,,,,,,,,,,,,,,,,,,,,,,,,,,,,,,,,,,
,,,,,,,5cdc899d48d5f100195fafff,2023-08-16_08h48.56.432,HF_wild_card,2022.2.4,Win32,36.78905158,5cdc899d48d5f100195fafff,64d2fd46c836a06233681665,64dc7f3f0f8c32a0027f374d,,,,,,,,,,,,,,,,,,,,,,,,,,3,0,3,0,1,,,,,,,,,,,,,,,,,,,,,,,,,,,,,,,,,,
,,,,,,,5cdc899d48d5f100195fafff,2023-08-16_08h48.56.432,HF_wild_card,2022.2.4,Win32,36.78905158,5cdc899d48d5f100195fafff,64d2fd46c836a06233681665,64dc7f3f0f8c32a0027f374d,,,,,,,sngl,resources/DY.BMP,resources/Empty.png,WildCard_NonEx,-0.3125,-0.03515625,1,0,0,0.8106,optionLeft,45,9405,5,0,0,0,0,1,,,,,,,,,,,,,,,,,,,,,,,,,,,,,,,,,,,,,,,
,,,,,,,5cdc899d48d5f100195fafff,2023-08-16_08h48.56.432,HF_wild_card,2022.2.4,Win32,36.78905158,5cdc899d48d5f100195fafff,64d2fd46c836a06233681665,64dc7f3f0f8c32a0027f374d,,,,,,,sngl,resources/Empty.png,resources/DB.BMP,Door3,0.3046875,-0.006510417,1,0,0,0.4696,optionRight,70,9475,5,1,0,1,0,1,,,,,,,,,,,,,,,,,,,,,,,,,,,,,,,,,,,,,,,
,,,,,,,5cdc899d48d5f100195fafff,2023-08-16_08h48.56.432,HF_wild_card,2022.2.4,Win32,36.78905158,5cdc899d48d5f100195fafff,64d2fd46c836a06233681665,64dc7f3f0f8c32a0027f374d,,,,,,,decisionTrl,resources/DG.BMP,resources/DR.BMP,Door2,0.018229167,0.015625,1,0,0,0.1557,optionLeft,20,9495,5,2,0,2,0,1,,,,,,,,,,,,,,,,,,,,,,,,,,,,,,,,,,,,,,,
,,,,,,,5cdc899d48d5f100195fafff,2023-08-16_08h48.56.432,HF_wild_card,2022.2.4,Win32,36.78905158,5cdc899d48d5f100195fafff,64d2fd46c836a06233681665,64dc7f3f0f8c32a0027f374d,,,,,,,decisionTrl,resources/DR.BMP,resources/DG.BMP,Door2,0.315104167,-0.020833333,1,0,0,0.6029,optionRight,20,9515,5,3,0,3,0,1,,,,,,,,,,,,,,,,,,,,,,,,,,,,,,,,,,,,,,,
,,,,,,,5cdc899d48d5f100195fafff,2023-08-16_08h48.56.432,HF_wild_card,2022.2.4,Win32,36.78905158,5cdc899d48d5f100195fafff,64d2fd46c836a06233681665,64dc7f3f0f8c32a0027f374d,,,,,,,sngl,resources/DY.BMP,resources/Empty.png,WildCard_NonEx,-0.450520833,-0.03125,1,0,0,0.4457,optionLeft,55,9570,5,4,0,4,0,1,,,,,,,,,,,,,,,,,,,,,,,,,,,,,,,,,,,,,,,
,,,,,,,5cdc899d48d5f100195fafff,2023-08-16_08h48.56.432,HF_wild_card,2022.2.4,Win32,36.78905158,5cdc899d48d5f100195fafff,64d2fd46c836a06233681665,64dc7f3f0f8c32a0027f374d,,,,,,,decisionTrl,resources/DY.BMP,resources/DG.BMP,Door2,0.373697917,-0.009114583,1,0,0,0.6443,optionRight,40,9610,5,5,0,5,0,1,,,,,,,,,,,,,,,,,,,,,,,,,,,,,,,,,,,,,,,
,,,,,,,5cdc899d48d5f100195fafff,2023-08-16_08h48.56.432,HF_wild_card,2022.2.4,Win32,36.78905158,5cdc899d48d5f100195fafff,64d2fd46c836a06233681665,64dc7f3f0f8c32a0027f374d,,,,,,,sngl,resources/Empty.png,resources/DR.BMP,Door1,0.23046875,0.036458333,1,0,0,1.1067,optionRight,30,9640,5,6,0,6,0,1,,,,,,,,,,,,,,,,,,,,,,,,,,,,,,,,,,,,,,,
,,,,,,,5cdc899d48d5f100195fafff,2023-08-16_08h48.56.432,HF_wild_card,2022.2.4,Win32,36.78905158,5cdc899d48d5f100195fafff,64d2fd46c836a06233681665,64dc7f3f0f8c32a0027f374d,,,,,,,ctch,resources/DR.BMP,resources/DP.BMP,Door4,0.358072917,0.026041667,1,0,0,0.5305,optionRight,60,9700,5,7,0,7,0,1,,,,,,,,,,,,,,,,,,,,,,,,,,,,,,,,,,,,,,,
,,,,,,,5cdc899d48d5f100195fafff,2023-08-16_08h48.56.432,HF_wild_card,2022.2.4,Win32,36.78905158,5cdc899d48d5f100195fafff,64d2fd46c836a06233681665,64dc7f3f0f8c32a0027f374d,,,,,,,ctch,resources/DR.BMP,resources/DP.BMP,Door4,0.2734375,-0.009114583,1,0,0,0.6576,optionRight,80,9780,5,8,0,8,0,1,,,,,,,,,,,,,,,,,,,,,,,,,,,,,,,,,,,,,,,
,,,,,,,5cdc899d48d5f100195fafff,2023-08-16_08h48.56.432,HF_wild_card,2022.2.4,Win32,36.78905158,5cdc899d48d5f100195fafff,64d2fd46c836a06233681665,64dc7f3f0f8c32a0027f374d,,,,,,,sngl,resources/Empty.png,resources/DY.BMP,WildCard_NonEx,0.265625,0.00390625,1,0,0,0.6154,optionRight,55,9835,5,9,0,9,0,1,,,,,,,,,,,,,,,,,,,,,,,,,,,,,,,,,,,,,,,
,,,,,,,5cdc899d48d5f100195fafff,2023-08-16_08h48.56.432,HF_wild_card,2022.2.4,Win32,36.78905158,5cdc899d48d5f100195fafff,64d2fd46c836a06233681665,64dc7f3f0f8c32a0027f374d,,,,,,,decisionTrl,resources/DB.BMP,resources/DP.BMP,Door4,0.493489583,-0.065104167,1,0,0,0.5052,optionRight,60,9895,5,10,0,10,0,1,,,,,,,,,,,,,,,,,,,,,,,,,,,,,,,,,,,,,,,
,,,,,,,5cdc899d48d5f100195fafff,2023-08-16_08h48.56.432,HF_wild_card,2022.2.4,Win32,36.78905158,5cdc899d48d5f100195fafff,64d2fd46c836a06233681665,64dc7f3f0f8c32a0027f374d,,,,,,,decisionTrl,resources/DP.BMP,resources/DB.BMP,Door4,-0.265625,-0.00390625,1,0,0,0.6986,optionLeft,80,9975,5,11,0,11,0,1,,,,,,,,,,,,,,,,,,,,,,,,,,,,,,,,,,,,,,,
,,,,,,,5cdc899d48d5f100195fafff,2023-08-16_08h48.56.432,HF_wild_card,2022.2.4,Win32,36.78905158,5cdc899d48d5f100195fafff,64d2fd46c836a06233681665,64dc7f3f0f8c32a0027f374d,,,,,,,sngl,resources/Empty.png,resources/DG.BMP,Door2,0.4921875,-0.006510417,1,0,0,0.5755,optionRight,20,9995,5,12,0,12,0,1,,,,,,,,,,,,,,,,,,,,,,,,,,,,,,,,,,,,,,,
,,,,,,,5cdc899d48d5f100195fafff,2023-08-16_08h48.56.432,HF_wild_card,2022.2.4,Win32,36.78905158,5cdc899d48d5f100195fafff,64d2fd46c836a06233681665,64dc7f3f0f8c32a0027f374d,,,,,,,sngl,resources/Empty.png,resources/DY.BMP,WildCard_NonEx,0.37109375,0.018229167,1,0,0,1.1557,optionRight,45,10040,5,13,0,13,0,1,,,,,,,,,,,,,,,,,,,,,,,,,,,,,,,,,,,,,,,
,,,,,,,5cdc899d48d5f100195fafff,2023-08-16_08h48.56.432,HF_wild_card,2022.2.4,Win32,36.78905158,5cdc899d48d5f100195fafff,64d2fd46c836a06233681665,64dc7f3f0f8c32a0027f374d,,,,,,,decisionTrl,resources/DG.BMP,resources/DY.BMP,Door2,-0.260416667,0.00390625,1,0,0,1.0779,optionLeft,20,10060,5,14,0,14,0,1,,,,,,,,,,,,,,,,,,,,,,,,,,,,,,,,,,,,,,,
,,,,,,,5cdc899d48d5f100195fafff,2023-08-16_08h48.56.432,HF_wild_card,2022.2.4,Win32,36.78905158,5cdc899d48d5f100195fafff,64d2fd46c836a06233681665,64dc7f3f0f8c32a0027f374d,,,,,,,decisionTrl,resources/DR.BMP,resources/DY.BMP,WildCard_NonEx,0.423177083,-0.01171875,1,0,0,0.4587,optionRight,45,10105,5,15,0,15,0,1,,,,,,,,,,,,,,,,,,,,,,,,,,,,,,,,,,,,,,,
,,,,,,,5cdc899d48d5f100195fafff,2023-08-16_08h48.56.432,HF_wild_card,2022.2.4,Win32,36.78905158,5cdc899d48d5f100195fafff,64d2fd46c836a06233681665,64dc7f3f0f8c32a0027f374d,,,,,,,decisionTrl,resources/DP.BMP,resources/DY.BMP,Door4,-0.372395833,-0.0390625,1,0,0,0.4772,optionLeft,80,10185,5,16,0,16,0,1,,,,,,,,,,,,,,,,,,,,,,,,,,,,,,,,,,,,,,,
,,,,,,,5cdc899d48d5f100195fafff,2023-08-16_08h48.56.432,HF_wild_card,2022.2.4,Win32,36.78905158,5cdc899d48d5f100195fafff,64d2fd46c836a06233681665,64dc7f3f0f8c32a0027f374d,,,,,,,decisionTrl,resources/DG.BMP,resources/DR.BMP,Door1,0.302083333,-0.013020833,1,0,0,0.6089,optionRight,30,10215,5,17,0,17,0,1,,,,,,,,,,,,,,,,,,,,,,,,,,,,,,,,,,,,,,,
,,,,,,,5cdc899d48d5f100195fafff,2023-08-16_08h48.56.432,HF_wild_card,2022.2.4,Win32,36.78905158,5cdc899d48d5f100195fafff,64d2fd46c836a06233681665,64dc7f3f0f8c32a0027f374d,,,,,,,sngl,resources/DR.BMP,resources/Empty.png,Door1,-0.247395833,-0.020833333,1,0,0,0.5146,optionLeft,30,10245,5,18,0,18,0,1,,,,,,,,,,,,,,,,,,,,,,,,,,,,,,,,,,,,,,,
,,,,,,,5cdc899d48d5f100195fafff,2023-08-16_08h48.56.432,HF_wild_card,2022.2.4,Win32,36.78905158,5cdc899d48d5f100195fafff,64d2fd46c836a06233681665,64dc7f3f0f8c32a0027f374d,,,,,,,decisionTrl,resources/DP.BMP,resources/DB.BMP,Door4,-0.27734375,-0.02734375,1,0,0,0.7221,optionLeft,80,10325,5,19,0,19,0,1,,,,,,,,,,,,,,,,,,,,,,,,,,,,,,,,,,,,,,,
,,,,,,,5cdc899d48d5f100195fafff,2023-08-16_08h48.56.432,HF_wild_card,2022.2.4,Win32,36.78905158,5cdc899d48d5f100195fafff,64d2fd46c836a06233681665,64dc7f3f0f8c32a0027f374d,,,,,,,sngl,resources/DG.BMP,resources/Empty.png,Door2,-0.33203125,-0.018229167,1,0,0,0.5311,optionLeft,40,10365,5,20,0,20,0,1,,,,,,,,,,,,,,,,,,,,,,,,,,,,,,,,,,,,,,,
,,,,,,,5cdc899d48d5f100195fafff,2023-08-16_08h48.56.432,HF_wild_card,2022.2.4,Win32,36.78905158,5cdc899d48d5f100195fafff,64d2fd46c836a06233681665,64dc7f3f0f8c32a0027f374d,,,,,,,decisionTrl,resources/DR.BMP,resources/DG.BMP,Door2,0.35546875,-0.059895833,1,0,0,0.719,optionRight,40,10405,5,21,0,21,0,1,,,,,,,,,,,,,,,,,,,,,,,,,,,,,,,,,,,,,,,
,,,,,,,5cdc899d48d5f100195fafff,2023-08-16_08h48.56.432,HF_wild_card,2022.2.4,Win32,36.78905158,5cdc899d48d5f100195fafff,64d2fd46c836a06233681665,64dc7f3f0f8c32a0027f374d,,,,,,,decisionTrl,resources/DB.BMP,resources/DY.BMP,Door3,-0.243489583,-0.032552083,1,0,0,0.6111,optionLeft,70,10475,5,22,0,22,0,1,,,,,,,,,,,,,,,,,,,,,,,,,,,,,,,,,,,,,,,
,,,,,,,5cdc899d48d5f100195fafff,2023-08-16_08h48.56.432,HF_wild_card,2022.2.4,Win32,36.78905158,5cdc899d48d5f100195fafff,64d2fd46c836a06233681665,64dc7f3f0f8c32a0027f374d,,,,,,,sngl,resources/DB.BMP,resources/Empty.png,Door3,-0.368489583,-0.009114583,1,0,0,0.643,optionLeft,70,10545,5,23,0,23,0,1,,,,,,,,,,,,,,,,,,,,,,,,,,,,,,,,,,,,,,,
,,,,,,,5cdc899d48d5f100195fafff,2023-08-16_08h48.56.432,HF_wild_card,2022.2.4,Win32,36.78905158,5cdc899d48d5f100195fafff,64d2fd46c836a06233681665,64dc7f3f0f8c32a0027f374d,,,,,,,sngl,resources/Empty.png,resources/DP.BMP,Door4,0.411458333,-0.018229167,1,0,0,0.5833,optionRight,60,10605,5,24,0,24,0,1,,,,,,,,,,,,,,,,,,,,,,,,,,,,,,,,,,,,,,,
,,,,,,,5cdc899d48d5f100195fafff,2023-08-16_08h48.56.432,HF_wild_card,2022.2.4,Win32,36.78905158,5cdc899d48d5f100195fafff,64d2fd46c836a06233681665,64dc7f3f0f8c32a0027f374d,,,,,,,ctch,resources/DP.BMP,resources/DR.BMP,Door4,-0.268229167,-0.02734375,1,0,0,0.525,optionLeft,80,10685,5,25,0,25,0,1,,,,,,,,,,,,,,,,,,,,,,,,,,,,,,,,,,,,,,,
,,,,,,,5cdc899d48d5f100195fafff,2023-08-16_08h48.56.432,HF_wild_card,2022.2.4,Win32,36.78905158,5cdc899d48d5f100195fafff,64d2fd46c836a06233681665,64dc7f3f0f8c32a0027f374d,,,,,,,decisionTrl,resources/DB.BMP,resources/DP.BMP,Door4,0.345052083,-0.015625,1,0,0,0.493,optionRight,80,10765,5,26,0,26,0,1,,,,,,,,,,,,,,,,,,,,,,,,,,,,,,,,,,,,,,,
,,,,,,,5cdc899d48d5f100195fafff,2023-08-16_08h48.56.432,HF_wild_card,2022.2.4,Win32,36.78905158,5cdc899d48d5f100195fafff,64d2fd46c836a06233681665,64dc7f3f0f8c32a0027f374d,,,,,,,decisionTrl,resources/DY.BMP,resources/DB.BMP,Door3,0.33203125,-0.0234375,1,0,0,0.6496,optionRight,70,10835,5,27,0,27,0,1,,,,,,,,,,,,,,,,,,,,,,,,,,,,,,,,,,,,,,,
,,,,,,,5cdc899d48d5f100195fafff,2023-08-16_08h48.56.432,HF_wild_card,2022.2.4,Win32,36.78905158,5cdc899d48d5f100195fafff,64d2fd46c836a06233681665,64dc7f3f0f8c32a0027f374d,,,,,,,ctch,resources/DB.BMP,resources/DG.BMP,Door3,-0.330729167,-0.00390625,1,0,0,0.6497,optionLeft,70,10905,5,28,0,28,0,1,,,,,,,,,,,,,,,,,,,,,,,,,,,,,,,,,,,,,,,
,,,,,,,5cdc899d48d5f100195fafff,2023-08-16_08h48.56.432,HF_wild_card,2022.2.4,Win32,36.78905158,5cdc899d48d5f100195fafff,64d2fd46c836a06233681665,64dc7f3f0f8c32a0027f374d,,,,,,,decisionTrl,resources/DY.BMP,resources/DR.BMP,WildCard_NonEx,-0.2265625,-0.03515625,1,0,0,0.615,optionLeft,55,10960,5,29,0,29,0,1,,,,,,,,,,,,,,,,,,,,,,,,,,,,,,,,,,,,,,,
,,,,,,,5cdc899d48d5f100195fafff,2023-08-16_08h48.56.432,HF_wild_card,2022.2.4,Win32,36.78905158,5cdc899d48d5f100195fafff,64d2fd46c836a06233681665,64dc7f3f0f8c32a0027f374d,,,,,,,decisionTrl,resources/DP.BMP,resources/DB.BMP,Door4,-0.41796875,-0.071614583,1,0,0,0.714,optionLeft,80,11040,5,30,0,30,0,1,,,,,,,,,,,,,,,,,,,,,,,,,,,,,,,,,,,,,,,
,,,,,,,5cdc899d48d5f100195fafff,2023-08-16_08h48.56.432,HF_wild_card,2022.2.4,Win32,36.78905158,5cdc899d48d5f100195fafff,64d2fd46c836a06233681665,64dc7f3f0f8c32a0027f374d,,,,,,,decisionTrl,resources/DP.BMP,resources/DB.BMP,Door4,-0.264322917,-0.063802083,1,0,0,2.9103,optionLeft,80,11120,5,31,0,31,0,1,,,,,,,,,,,,,,,,,,,,,,,,,,,,,,,,,,,,,,,
,,,,,,,5cdc899d48d5f100195fafff,2023-08-16_08h48.56.432,HF_wild_card,2022.2.4,Win32,36.78905158,5cdc899d48d5f100195fafff,64d2fd46c836a06233681665,64dc7f3f0f8c32a0027f374d,,,,,,,sngl,resources/DP.BMP,resources/Empty.png,Door4,-0.376302083,-0.006510417,1,0,0,2.4369,optionLeft,80,11200,5,32,0,32,0,1,,,,,,,,,,,,,,,,,,,,,,,,,,,,,,,,,,,,,,,
,,,,,,,5cdc899d48d5f100195fafff,2023-08-16_08h48.56.432,HF_wild_card,2022.2.4,Win32,36.78905158,5cdc899d48d5f100195fafff,64d2fd46c836a06233681665,64dc7f3f0f8c32a0027f374d,,,,,,,decisionTrl,resources/DB.BMP,resources/DP.BMP,Door4,0.2890625,0.014322917,1,0,0,0.8322,optionRight,60,11260,5,33,0,33,0,1,,,,,,,,,,,,,,,,,,,,,,,,,,,,,,,,,,,,,,,
,,,,,,,5cdc899d48d5f100195fafff,2023-08-16_08h48.56.432,HF_wild_card,2022.2.4,Win32,36.78905158,5cdc899d48d5f100195fafff,64d2fd46c836a06233681665,64dc7f3f0f8c32a0027f374d,,,,,,,ctch,resources/DP.BMP,resources/DR.BMP,Door4,-0.389322917,-0.010416667,1,0,0,0.517,optionLeft,80,11340,5,34,0,34,0,1,,,,,,,,,,,,,,,,,,,,,,,,,,,,,,,,,,,,,,,
,,,,,,,5cdc899d48d5f100195fafff,2023-08-16_08h48.56.432,HF_wild_card,2022.2.4,Win32,36.78905158,5cdc899d48d5f100195fafff,64d2fd46c836a06233681665,64dc7f3f0f8c32a0027f374d,,,,,,,ctch,resources/DG.BMP,resources/DB.BMP,Door3,0.436197917,-0.10546875,1,0,0,3.065,optionRight,70,11410,5,35,0,35,0,1,,,,,,,,,,,,,,,,,,,,,,,,,,,,,,,,,,,,,,,
,,,,,,,5cdc899d48d5f100195fafff,2023-08-16_08h48.56.432,HF_wild_card,2022.2.4,Win32,36.78905158,5cdc899d48d5f100195fafff,64d2fd46c836a06233681665,64dc7f3f0f8c32a0027f374d,,,,,,,decisionTrl,resources/DR.BMP,resources/DG.BMP,Door1,-0.430989583,-0.026041667,1,0,0,0.5811,optionLeft,30,11440,5,36,0,36,0,1,,,,,,,,,,,,,,,,,,,,,,,,,,,,,,,,,,,,,,,
,,,,,,,5cdc899d48d5f100195fafff,2023-08-16_08h48.56.432,HF_wild_card,2022.2.4,Win32,36.78905158,5cdc899d48d5f100195fafff,64d2fd46c836a06233681665,64dc7f3f0f8c32a0027f374d,,,,,,,decisionTrl,resources/DB.BMP,resources/DP.BMP,Door4,0.407552083,-0.033854167,1,0,0,3.982,optionRight,60,11500,5,37,0,37,0,1,,,,,,,,,,,,,,,,,,,,,,,,,,,,,,,,,,,,,,,
,,,,,,,5cdc899d48d5f100195fafff,2023-08-16_08h48.56.432,HF_wild_card,2022.2.4,Win32,36.78905158,5cdc899d48d5f100195fafff,64d2fd46c836a06233681665,64dc7f3f0f8c32a0027f374d,,,,,,,ctch,resources/DB.BMP,resources/DG.BMP,Door3,-0.341145833,0.01171875,1,0,0,0.551,optionLeft,70,11570,5,38,0,38,0,1,,,,,,,,,,,,,,,,,,,,,,,,,,,,,,,,,,,,,,,
,,,,,,,5cdc899d48d5f100195fafff,2023-08-16_08h48.56.432,HF_wild_card,2022.2.4,Win32,36.78905158,5cdc899d48d5f100195fafff,64d2fd46c836a06233681665,64dc7f3f0f8c32a0027f374d,,,,,,,decisionTrl,resources/DG.BMP,resources/DR.BMP,Door2,-0.346354167,-0.015625,1,0,0,0.9359,optionLeft,40,11610,5,39,0,39,0,1,,,,,,,,,,,,,,,,,,,,,,,,,,,,,,,,,,,,,,,
,,,,,,,5cdc899d48d5f100195fafff,2023-08-16_08h48.56.432,HF_wild_card,2022.2.4,Win32,36.78905158,5cdc899d48d5f100195fafff,64d2fd46c836a06233681665,64dc7f3f0f8c32a0027f374d,,,,,,,ctch,resources/DG.BMP,resources/DB.BMP,Door3,0.341145833,-0.063802083,1,0,0,3.7367,optionRight,70,11680,5,40,0,40,0,1,,,,,,,,,,,,,,,,,,,,,,,,,,,,,,,,,,,,,,,
,,,,,,,5cdc899d48d5f100195fafff,2023-08-16_08h48.56.432,HF_wild_card,2022.2.4,Win32,36.78905158,5cdc899d48d5f100195fafff,64d2fd46c836a06233681665,64dc7f3f0f8c32a0027f374d,,,,,,,decisionTrl,resources/DR.BMP,resources/DG.BMP,Door1,-0.28125,-0.00390625,1,0,0,0.7531,optionLeft,30,11710,5,41,0,41,0,1,,,,,,,,,,,,,,,,,,,,,,,,,,,,,,,,,,,,,,,
,,,,,,,5cdc899d48d5f100195fafff,2023-08-16_08h48.56.432,HF_wild_card,2022.2.4,Win32,36.78905158,5cdc899d48d5f100195fafff,64d2fd46c836a06233681665,64dc7f3f0f8c32a0027f374d,,,,,,,decisionTrl,resources/DY.BMP,resources/DP.BMP,Door4,0.537760417,-0.091145833,1,0,0,0.5893,optionRight,80,11790,5,42,0,42,0,1,,,,,,,,,,,,,,,,,,,,,,,,,,,,,,,,,,,,,,,
,,,,,,,5cdc899d48d5f100195fafff,2023-08-16_08h48.56.432,HF_wild_card,2022.2.4,Win32,36.78905158,5cdc899d48d5f100195fafff,64d2fd46c836a06233681665,64dc7f3f0f8c32a0027f374d,,,,,,,decisionTrl,resources/DG.BMP,resources/DR.BMP,Door2,-0.432291667,-0.029947917,1,0,0,0.7241,optionLeft,20,11810,5,43,0,43,0,1,,,,,,,,,,,,,,,,,,,,,,,,,,,,,,,,,,,,,,,
,,,,,,,5cdc899d48d5f100195fafff,2023-08-16_08h48.56.432,HF_wild_card,2022.2.4,Win32,36.78905158,5cdc899d48d5f100195fafff,64d2fd46c836a06233681665,64dc7f3f0f8c32a0027f374d,,,,,,,,,,,,,,,,,,,,,,,,,,4,0,4,0,1,,,,,,,,,,,,,,,,,,,,,,,,,,,,,,,,,,
,,,,,,,5cdc899d48d5f100195fafff,2023-08-16_08h48.56.432,HF_wild_card,2022.2.4,Win32,36.78905158,5cdc899d48d5f100195fafff,64d2fd46c836a06233681665,64dc7f3f0f8c32a0027f374d,,,,,,,decisionTrl,resources/DP.BMP,resources/DB.BMP,Door4,-0.317708333,-0.063802083,1,0,0,1.0826,optionLeft,60,11870,6,0,0,0,0,1,,,,,,,,,,,,,,,,,,,,,,,,,,,,,,,,,,,,,,,
,,,,,,,5cdc899d48d5f100195fafff,2023-08-16_08h48.56.432,HF_wild_card,2022.2.4,Win32,36.78905158,5cdc899d48d5f100195fafff,64d2fd46c836a06233681665,64dc7f3f0f8c32a0027f374d,,,,,,,decisionTrl,resources/DP.BMP,resources/DB.BMP,Door4,-0.416666667,0.005208333,1,0,0,0.4577,optionLeft,80,11950,6,1,0,1,0,1,,,,,,,,,,,,,,,,,,,,,,,,,,,,,,,,,,,,,,,
,,,,,,,5cdc899d48d5f100195fafff,2023-08-16_08h48.56.432,HF_wild_card,2022.2.4,Win32,36.78905158,5cdc899d48d5f100195fafff,64d2fd46c836a06233681665,64dc7f3f0f8c32a0027f374d,,,,,,,decisionTrl,resources/DR.BMP,resources/DG.BMP,Door1,-0.32421875,-0.036458333,1,0,0,0.5537,optionLeft,30,11980,6,2,0,2,0,1,,,,,,,,,,,,,,,,,,,,,,,,,,,,,,,,,,,,,,,
,,,,,,,5cdc899d48d5f100195fafff,2023-08-16_08h48.56.432,HF_wild_card,2022.2.4,Win32,36.78905158,5cdc899d48d5f100195fafff,64d2fd46c836a06233681665,64dc7f3f0f8c32a0027f374d,,,,,,,decisionTrl,resources/DR.BMP,resources/DG.BMP,Door1,-0.3125,-0.041666667,1,0,0,0.5354,optionLeft,30,12010,6,3,0,3,0,1,,,,,,,,,,,,,,,,,,,,,,,,,,,,,,,,,,,,,,,
,,,,,,,5cdc899d48d5f100195fafff,2023-08-16_08h48.56.432,HF_wild_card,2022.2.4,Win32,36.78905158,5cdc899d48d5f100195fafff,64d2fd46c836a06233681665,64dc7f3f0f8c32a0027f374d,,,,,,,decisionTrl,resources/DB.BMP,resources/DP.BMP,Door4,0.345052083,-0.00390625,1,0,0,1.0624,optionRight,80,12090,6,4,0,4,0,1,,,,,,,,,,,,,,,,,,,,,,,,,,,,,,,,,,,,,,,
,,,,,,,5cdc899d48d5f100195fafff,2023-08-16_08h48.56.432,HF_wild_card,2022.2.4,Win32,36.78905158,5cdc899d48d5f100195fafff,64d2fd46c836a06233681665,64dc7f3f0f8c32a0027f374d,,,,,,,sngl,resources/DR.BMP,resources/Empty.png,Door1,-0.317708333,0.009114583,1,0,0,0.4884,optionLeft,30,12120,6,5,0,5,0,1,,,,,,,,,,,,,,,,,,,,,,,,,,,,,,,,,,,,,,,
,,,,,,,5cdc899d48d5f100195fafff,2023-08-16_08h48.56.432,HF_wild_card,2022.2.4,Win32,36.78905158,5cdc899d48d5f100195fafff,64d2fd46c836a06233681665,64dc7f3f0f8c32a0027f374d,,,,,,,decisionTrl,resources/DG.BMP,resources/DY.BMP,WildCard_NonEx,0.360677083,-0.040364583,1,0,0,0.5817,optionRight,55,12175,6,6,0,6,0,1,,,,,,,,,,,,,,,,,,,,,,,,,,,,,,,,,,,,,,,
,,,,,,,5cdc899d48d5f100195fafff,2023-08-16_08h48.56.432,HF_wild_card,2022.2.4,Win32,36.78905158,5cdc899d48d5f100195fafff,64d2fd46c836a06233681665,64dc7f3f0f8c32a0027f374d,,,,,,,sngl,resources/DY.BMP,resources/Empty.png,WildCard_NonEx,-0.2734375,-0.020833333,1,0,0,0.5388,optionLeft,55,12230,6,7,0,7,0,1,,,,,,,,,,,,,,,,,,,,,,,,,,,,,,,,,,,,,,,
,,,,,,,5cdc899d48d5f100195fafff,2023-08-16_08h48.56.432,HF_wild_card,2022.2.4,Win32,36.78905158,5cdc899d48d5f100195fafff,64d2fd46c836a06233681665,64dc7f3f0f8c32a0027f374d,,,,,,,decisionTrl,resources/DY.BMP,resources/DB.BMP,Door3,0.471354167,-0.01953125,1,0,0,0.7572,optionRight,70,12300,6,8,0,8,0,1,,,,,,,,,,,,,,,,,,,,,,,,,,,,,,,,,,,,,,,
,,,,,,,5cdc899d48d5f100195fafff,2023-08-16_08h48.56.432,HF_wild_card,2022.2.4,Win32,36.78905158,5cdc899d48d5f100195fafff,64d2fd46c836a06233681665,64dc7f3f0f8c32a0027f374d,,,,,,,sngl,resources/DP.BMP,resources/Empty.png,Door4,-0.270833333,0.03515625,1,0,0,0.5158,optionLeft,60,12360,6,9,0,9,0,1,,,,,,,,,,,,,,,,,,,,,,,,,,,,,,,,,,,,,,,
,,,,,,,5cdc899d48d5f100195fafff,2023-08-16_08h48.56.432,HF_wild_card,2022.2.4,Win32,36.78905158,5cdc899d48d5f100195fafff,64d2fd46c836a06233681665,64dc7f3f0f8c32a0027f374d,,,,,,,ctch,resources/DG.BMP,resources/DB.BMP,Door3,0.407552083,-0.05078125,1,0,0,0.7671,optionRight,70,12430,6,10,0,10,0,1,,,,,,,,,,,,,,,,,,,,,,,,,,,,,,,,,,,,,,,
,,,,,,,5cdc899d48d5f100195fafff,2023-08-16_08h48.56.432,HF_wild_card,2022.2.4,Win32,36.78905158,5cdc899d48d5f100195fafff,64d2fd46c836a06233681665,64dc7f3f0f8c32a0027f374d,,,,,,,decisionTrl,resources/DY.BMP,resources/DR.BMP,WildCard_NonEx,-0.307291667,-0.024739583,1,0,0,1.0588,optionLeft,55,12485,6,11,0,11,0,1,,,,,,,,,,,,,,,,,,,,,,,,,,,,,,,,,,,,,,,
,,,,,,,5cdc899d48d5f100195fafff,2023-08-16_08h48.56.432,HF_wild_card,2022.2.4,Win32,36.78905158,5cdc899d48d5f100195fafff,64d2fd46c836a06233681665,64dc7f3f0f8c32a0027f374d,,,,,,,ctch,resources/DP.BMP,resources/DR.BMP,Door4,-0.239583333,-0.0078125,1,0,0,0.5995,optionLeft,60,12545,6,12,0,12,0,1,,,,,,,,,,,,,,,,,,,,,,,,,,,,,,,,,,,,,,,
,,,,,,,5cdc899d48d5f100195fafff,2023-08-16_08h48.56.432,HF_wild_card,2022.2.4,Win32,36.78905158,5cdc899d48d5f100195fafff,64d2fd46c836a06233681665,64dc7f3f0f8c32a0027f374d,,,,,,,decisionTrl,resources/DR.BMP,resources/DG.BMP,Door1,-0.2734375,-0.01953125,1,0,0,1.7273,optionLeft,30,12575,6,13,0,13,0,1,,,,,,,,,,,,,,,,,,,,,,,,,,,,,,,,,,,,,,,
,,,,,,,5cdc899d48d5f100195fafff,2023-08-16_08h48.56.432,HF_wild_card,2022.2.4,Win32,36.78905158,5cdc899d48d5f100195fafff,64d2fd46c836a06233681665,64dc7f3f0f8c32a0027f374d,,,,,,,decisionTrl,resources/DG.BMP,resources/DR.BMP,Door1,0.470052083,-0.0703125,1,0,0,0.6645,optionRight,30,12605,6,14,0,14,0,1,,,,,,,,,,,,,,,,,,,,,,,,,,,,,,,,,,,,,,,
,,,,,,,5cdc899d48d5f100195fafff,2023-08-16_08h48.56.432,HF_wild_card,2022.2.4,Win32,36.78905158,5cdc899d48d5f100195fafff,64d2fd46c836a06233681665,64dc7f3f0f8c32a0027f374d,,,,,,,sngl,resources/Empty.png,resources/DP.BMP,Door4,0.3203125,-0.006510417,1,0,0,0.5524,optionRight,80,12685,6,15,0,15,0,1,,,,,,,,,,,,,,,,,,,,,,,,,,,,,,,,,,,,,,,
,,,,,,,5cdc899d48d5f100195fafff,2023-08-16_08h48.56.432,HF_wild_card,2022.2.4,Win32,36.78905158,5cdc899d48d5f100195fafff,64d2fd46c836a06233681665,64dc7f3f0f8c32a0027f374d,,,,,,,decisionTrl,resources/DB.BMP,resources/DP.BMP,Door4,0.567708333,-0.01171875,1,0,0,0.9808,optionRight,60,12745,6,16,0,16,0,1,,,,,,,,,,,,,,,,,,,,,,,,,,,,,,,,,,,,,,,
,,,,,,,5cdc899d48d5f100195fafff,2023-08-16_08h48.56.432,HF_wild_card,2022.2.4,Win32,36.78905158,5cdc899d48d5f100195fafff,64d2fd46c836a06233681665,64dc7f3f0f8c32a0027f374d,,,,,,,sngl,resources/Empty.png,resources/DY.BMP,WildCard_NonEx,0.446614583,-0.0390625,1,0,0,0.8425,optionRight,45,12790,6,17,0,17,0,1,,,,,,,,,,,,,,,,,,,,,,,,,,,,,,,,,,,,,,,
,,,,,,,5cdc899d48d5f100195fafff,2023-08-16_08h48.56.432,HF_wild_card,2022.2.4,Win32,36.78905158,5cdc899d48d5f100195fafff,64d2fd46c836a06233681665,64dc7f3f0f8c32a0027f374d,,,,,,,sngl,resources/DG.BMP,resources/Empty.png,Door2,-0.395833333,-0.006510417,1,0,0,0.6155,optionLeft,20,12810,6,18,0,18,0,1,,,,,,,,,,,,,,,,,,,,,,,,,,,,,,,,,,,,,,,
,,,,,,,5cdc899d48d5f100195fafff,2023-08-16_08h48.56.432,HF_wild_card,2022.2.4,Win32,36.78905158,5cdc899d48d5f100195fafff,64d2fd46c836a06233681665,64dc7f3f0f8c32a0027f374d,,,,,,,decisionTrl,resources/DR.BMP,resources/DY.BMP,Door1,-0.328125,-0.036458333,1,0,0,1.1697,optionLeft,30,12840,6,19,0,19,0,1,,,,,,,,,,,,,,,,,,,,,,,,,,,,,,,,,,,,,,,
,,,,,,,5cdc899d48d5f100195fafff,2023-08-16_08h48.56.432,HF_wild_card,2022.2.4,Win32,36.78905158,5cdc899d48d5f100195fafff,64d2fd46c836a06233681665,64dc7f3f0f8c32a0027f374d,,,,,,,sngl,resources/Empty.png,resources/DB.BMP,Door3,0.384114583,-0.05078125,1,0,0,1.3118,optionRight,70,12910,6,20,0,20,0,1,,,,,,,,,,,,,,,,,,,,,,,,,,,,,,,,,,,,,,,
,,,,,,,5cdc899d48d5f100195fafff,2023-08-16_08h48.56.432,HF_wild_card,2022.2.4,Win32,36.78905158,5cdc899d48d5f100195fafff,64d2fd46c836a06233681665,64dc7f3f0f8c32a0027f374d,,,,,,,decisionTrl,resources/DB.BMP,resources/DP.BMP,Door4,0.680989583,-0.087239583,1,0,0,1.4353,optionRight,60,12970,6,21,0,21,0,1,,,,,,,,,,,,,,,,,,,,,,,,,,,,,,,,,,,,,,,
,,,,,,,5cdc899d48d5f100195fafff,2023-08-16_08h48.56.432,HF_wild_card,2022.2.4,Win32,36.78905158,5cdc899d48d5f100195fafff,64d2fd46c836a06233681665,64dc7f3f0f8c32a0027f374d,,,,,,,decisionTrl,resources/DY.BMP,resources/DP.BMP,Door4,0.4765625,0.0546875,1,0,0,0.505,optionRight,60,13030,6,22,0,22,0,1,,,,,,,,,,,,,,,,,,,,,,,,,,,,,,,,,,,,,,,
,,,,,,,5cdc899d48d5f100195fafff,2023-08-16_08h48.56.432,HF_wild_card,2022.2.4,Win32,36.78905158,5cdc899d48d5f100195fafff,64d2fd46c836a06233681665,64dc7f3f0f8c32a0027f374d,,,,,,,sngl,resources/DB.BMP,resources/Empty.png,Door3,-0.259114583,-0.006510417,1,0,0,0.4758,optionLeft,70,13100,6,23,0,23,0,1,,,,,,,,,,,,,,,,,,,,,,,,,,,,,,,,,,,,,,,
,,,,,,,5cdc899d48d5f100195fafff,2023-08-16_08h48.56.432,HF_wild_card,2022.2.4,Win32,36.78905158,5cdc899d48d5f100195fafff,64d2fd46c836a06233681665,64dc7f3f0f8c32a0027f374d,,,,,,,ctch,resources/DB.BMP,resources/DG.BMP,Door2,0.37109375,-0.013020833,1,0,0,0.5003,optionRight,40,13140,6,24,0,24,0,1,,,,,,,,,,,,,,,,,,,,,,,,,,,,,,,,,,,,,,,
,,,,,,,5cdc899d48d5f100195fafff,2023-08-16_08h48.56.432,HF_wild_card,2022.2.4,Win32,36.78905158,5cdc899d48d5f100195fafff,64d2fd46c836a06233681665,64dc7f3f0f8c32a0027f374d,,,,,,,decisionTrl,resources/DB.BMP,resources/DP.BMP,Door4,0.520833333,-0.067708333,1,0,0,0.524,optionRight,80,13220,6,25,0,25,0,1,,,,,,,,,,,,,,,,,,,,,,,,,,,,,,,,,,,,,,,
,,,,,,,5cdc899d48d5f100195fafff,2023-08-16_08h48.56.432,HF_wild_card,2022.2.4,Win32,36.78905158,5cdc899d48d5f100195fafff,64d2fd46c836a06233681665,64dc7f3f0f8c32a0027f374d,,,,,,,ctch,resources/DP.BMP,resources/DR.BMP,Door4,-0.369791667,-0.0234375,1,0,0,0.5208,optionLeft,80,13300,6,26,0,26,0,1,,,,,,,,,,,,,,,,,,,,,,,,,,,,,,,,,,,,,,,
,,,,,,,5cdc899d48d5f100195fafff,2023-08-16_08h48.56.432,HF_wild_card,2022.2.4,Win32,36.78905158,5cdc899d48d5f100195fafff,64d2fd46c836a06233681665,64dc7f3f0f8c32a0027f374d,,,,,,,sngl,resources/Empty.png,resources/DR.BMP,Door1,0.463541667,-0.0625,1,0,0,0.4749,optionRight,30,13330,6,27,0,27,0,1,,,,,,,,,,,,,,,,,,,,,,,,,,,,,,,,,,,,,,,
,,,,,,,5cdc899d48d5f100195fafff,2023-08-16_08h48.56.432,HF_wild_card,2022.2.4,Win32,36.78905158,5cdc899d48d5f100195fafff,64d2fd46c836a06233681665,64dc7f3f0f8c32a0027f374d,,,,,,,sngl,resources/Empty.png,resources/DY.BMP,WildCard_NonEx,0.305989583,0.0078125,1,0,0,0.5369,optionRight,55,13385,6,28,0,28,0,1,,,,,,,,,,,,,,,,,,,,,,,,,,,,,,,,,,,,,,,
,,,,,,,5cdc899d48d5f100195fafff,2023-08-16_08h48.56.432,HF_wild_card,2022.2.4,Win32,36.78905158,5cdc899d48d5f100195fafff,64d2fd46c836a06233681665,64dc7f3f0f8c32a0027f374d,,,,,,,ctch,resources/DR.BMP,resources/DP.BMP,Door4,0.510416667,-0.0546875,1,0,0,0.5164,optionRight,60,13445,6,29,0,29,0,1,,,,,,,,,,,,,,,,,,,,,,,,,,,,,,,,,,,,,,,
,,,,,,,5cdc899d48d5f100195fafff,2023-08-16_08h48.56.432,HF_wild_card,2022.2.4,Win32,36.78905158,5cdc899d48d5f100195fafff,64d2fd46c836a06233681665,64dc7f3f0f8c32a0027f374d,,,,,,,decisionTrl,resources/DP.BMP,resources/DB.BMP,Door4,-0.5546875,0.061197917,1,0,0,0.8921,optionLeft,80,13525,6,30,0,30,0,1,,,,,,,,,,,,,,,,,,,,,,,,,,,,,,,,,,,,,,,
,,,,,,,5cdc899d48d5f100195fafff,2023-08-16_08h48.56.432,HF_wild_card,2022.2.4,Win32,36.78905158,5cdc899d48d5f100195fafff,64d2fd46c836a06233681665,64dc7f3f0f8c32a0027f374d,,,,,,,decisionTrl,resources/DG.BMP,resources/DR.BMP,Door1,0.38671875,-0.020833333,1,0,0,0.5336,optionRight,30,13555,6,31,0,31,0,1,,,,,,,,,,,,,,,,,,,,,,,,,,,,,,,,,,,,,,,
,,,,,,,5cdc899d48d5f100195fafff,2023-08-16_08h48.56.432,HF_wild_card,2022.2.4,Win32,36.78905158,5cdc899d48d5f100195fafff,64d2fd46c836a06233681665,64dc7f3f0f8c32a0027f374d,,,,,,,decisionTrl,resources/DR.BMP,resources/DG.BMP,Door1,-0.25390625,-0.0234375,1,0,0,0.5878,optionLeft,30,13585,6,32,0,32,0,1,,,,,,,,,,,,,,,,,,,,,,,,,,,,,,,,,,,,,,,
,,,,,,,5cdc899d48d5f100195fafff,2023-08-16_08h48.56.432,HF_wild_card,2022.2.4,Win32,36.78905158,5cdc899d48d5f100195fafff,64d2fd46c836a06233681665,64dc7f3f0f8c32a0027f374d,,,,,,,decisionTrl,resources/DG.BMP,resources/DR.BMP,Door1,0.3515625,-0.059895833,1,0,0,0.5922,optionRight,30,13615,6,33,0,33,0,1,,,,,,,,,,,,,,,,,,,,,,,,,,,,,,,,,,,,,,,
,,,,,,,5cdc899d48d5f100195fafff,2023-08-16_08h48.56.432,HF_wild_card,2022.2.4,Win32,36.78905158,5cdc899d48d5f100195fafff,64d2fd46c836a06233681665,64dc7f3f0f8c32a0027f374d,,,,,,,sngl,resources/DY.BMP,resources/Empty.png,WildCard_NonEx,-0.319010417,-0.029947917,1,0,0,0.5159,optionLeft,45,13660,6,34,0,34,0,1,,,,,,,,,,,,,,,,,,,,,,,,,,,,,,,,,,,,,,,
,,,,,,,5cdc899d48d5f100195fafff,2023-08-16_08h48.56.432,HF_wild_card,2022.2.4,Win32,36.78905158,5cdc899d48d5f100195fafff,64d2fd46c836a06233681665,64dc7f3f0f8c32a0027f374d,,,,,,,ctch,resources/DG.BMP,resources/DB.BMP,Door3,0.248697917,-0.053385417,1,0,0,0.6709,optionRight,70,13730,6,35,0,35,0,1,,,,,,,,,,,,,,,,,,,,,,,,,,,,,,,,,,,,,,,
,,,,,,,5cdc899d48d5f100195fafff,2023-08-16_08h48.56.432,HF_wild_card,2022.2.4,Win32,36.78905158,5cdc899d48d5f100195fafff,64d2fd46c836a06233681665,64dc7f3f0f8c32a0027f374d,,,,,,,ctch,resources/DR.BMP,resources/DP.BMP,Door4,0.321614583,0.001302083,1,0,0,0.6001,optionRight,80,13810,6,36,0,36,0,1,,,,,,,,,,,,,,,,,,,,,,,,,,,,,,,,,,,,,,,
,,,,,,,5cdc899d48d5f100195fafff,2023-08-16_08h48.56.432,HF_wild_card,2022.2.4,Win32,36.78905158,5cdc899d48d5f100195fafff,64d2fd46c836a06233681665,64dc7f3f0f8c32a0027f374d,,,,,,,decisionTrl,resources/DP.BMP,resources/DB.BMP,Door4,-0.221354167,-0.033854167,1,0,0,0.62,optionLeft,80,13890,6,37,0,37,0,1,,,,,,,,,,,,,,,,,,,,,,,,,,,,,,,,,,,,,,,
,,,,,,,5cdc899d48d5f100195fafff,2023-08-16_08h48.56.432,HF_wild_card,2022.2.4,Win32,36.78905158,5cdc899d48d5f100195fafff,64d2fd46c836a06233681665,64dc7f3f0f8c32a0027f374d,,,,,,,sngl,resources/Empty.png,resources/DG.BMP,Door2,0.1875,0,1,0,0,0.5783,optionRight,40,13930,6,38,0,38,0,1,,,,,,,,,,,,,,,,,,,,,,,,,,,,,,,,,,,,,,,
,,,,,,,5cdc899d48d5f100195fafff,2023-08-16_08h48.56.432,HF_wild_card,2022.2.4,Win32,36.78905158,5cdc899d48d5f100195fafff,64d2fd46c836a06233681665,64dc7f3f0f8c32a0027f374d,,,,,,,decisionTrl,resources/DP.BMP,resources/DY.BMP,Door4,-0.20703125,-0.028645833,1,0,0,0.6495,optionLeft,80,14010,6,39,0,39,0,1,,,,,,,,,,,,,,,,,,,,,,,,,,,,,,,,,,,,,,,
,,,,,,,5cdc899d48d5f100195fafff,2023-08-16_08h48.56.432,HF_wild_card,2022.2.4,Win32,36.78905158,5cdc899d48d5f100195fafff,64d2fd46c836a06233681665,64dc7f3f0f8c32a0027f374d,,,,,,,ctch,resources/DB.BMP,resources/DG.BMP,Door3,-0.174479167,-0.059895833,1,0,0,0.6069,optionLeft,70,14080,6,40,0,40,0,1,,,,,,,,,,,,,,,,,,,,,,,,,,,,,,,,,,,,,,,
,,,,,,,5cdc899d48d5f100195fafff,2023-08-16_08h48.56.432,HF_wild_card,2022.2.4,Win32,36.78905158,5cdc899d48d5f100195fafff,64d2fd46c836a06233681665,64dc7f3f0f8c32a0027f374d,,,,,,,decisionTrl,resources/DG.BMP,resources/DR.BMP,Door2,-0.2578125,-0.041666667,1,0,0,0.6492,optionLeft,20,14100,6,41,0,41,0,1,,,,,,,,,,,,,,,,,,,,,,,,,,,,,,,,,,,,,,,
,,,,,,,5cdc899d48d5f100195fafff,2023-08-16_08h48.56.432,HF_wild_card,2022.2.4,Win32,36.78905158,5cdc899d48d5f100195fafff,64d2fd46c836a06233681665,64dc7f3f0f8c32a0027f374d,,,,,,,decisionTrl,resources/DY.BMP,resources/DG.BMP,Door2,0.311197917,-0.0234375,1,0,0,1.3919,optionRight,40,14140,6,42,0,42,0,1,,,,,,,,,,,,,,,,,,,,,,,,,,,,,,,,,,,,,,,
,,,,,,,5cdc899d48d5f100195fafff,2023-08-16_08h48.56.432,HF_wild_card,2022.2.4,Win32,36.78905158,5cdc899d48d5f100195fafff,64d2fd46c836a06233681665,64dc7f3f0f8c32a0027f374d,,,,,,,decisionTrl,resources/DB.BMP,resources/DY.BMP,Door3,-0.223958333,-0.015625,1,0,0,0.565,optionLeft,70,14210,6,43,0,43,0,1,,,,,,,,,,,,,,,,,,,,,,,,,,,,,,,,,,,,,,,
,,,,,,,5cdc899d48d5f100195fafff,2023-08-16_08h48.56.432,HF_wild_card,2022.2.4,Win32,36.78905158,5cdc899d48d5f100195fafff,64d2fd46c836a06233681665,64dc7f3f0f8c32a0027f374d,,,,,,,,,,,,,,,,,,,,,,,,,,5,0,5,0,1,,,,,,,,,,,,,,,,,,,,,,,,,,,,,,,,,,
,,,,,,,5cdc899d48d5f100195fafff,2023-08-16_08h48.56.432,HF_wild_card,2022.2.4,Win32,36.78905158,5cdc899d48d5f100195fafff,64d2fd46c836a06233681665,64dc7f3f0f8c32a0027f374d,,,,,,,decisionTrl,resources/DG.BMP,resources/DR.BMP,Door2,-0.259114583,-0.055989583,1,0,0,0.8374,optionLeft,20,14230,7,0,0,0,0,1,,,,,,,,,,,,,,,,,,,,,,,,,,,,,,,,,,,,,,,
,,,,,,,5cdc899d48d5f100195fafff,2023-08-16_08h48.56.432,HF_wild_card,2022.2.4,Win32,36.78905158,5cdc899d48d5f100195fafff,64d2fd46c836a06233681665,64dc7f3f0f8c32a0027f374d,,,,,,,decisionTrl,resources/DR.BMP,resources/DG.BMP,Door2,0.3203125,-0.037760417,1,0,0,0.9973,optionRight,40,14270,7,1,0,1,0,1,,,,,,,,,,,,,,,,,,,,,,,,,,,,,,,,,,,,,,,
,,,,,,,5cdc899d48d5f100195fafff,2023-08-16_08h48.56.432,HF_wild_card,2022.2.4,Win32,36.78905158,5cdc899d48d5f100195fafff,64d2fd46c836a06233681665,64dc7f3f0f8c32a0027f374d,,,,,,,ctch,resources/DP.BMP,resources/DR.BMP,Door4,-0.348958333,-0.029947917,1,0,0,1.0431,optionLeft,60,14330,7,2,0,2,0,1,,,,,,,,,,,,,,,,,,,,,,,,,,,,,,,,,,,,,,,
,,,,,,,5cdc899d48d5f100195fafff,2023-08-16_08h48.56.432,HF_wild_card,2022.2.4,Win32,36.78905158,5cdc899d48d5f100195fafff,64d2fd46c836a06233681665,64dc7f3f0f8c32a0027f374d,,,,,,,decisionTrl,resources/DP.BMP,resources/DB.BMP,Door4,-0.37890625,-0.03125,1,0,0,0.5639,optionLeft,80,14410,7,3,0,3,0,1,,,,,,,,,,,,,,,,,,,,,,,,,,,,,,,,,,,,,,,
,,,,,,,5cdc899d48d5f100195fafff,2023-08-16_08h48.56.432,HF_wild_card,2022.2.4,Win32,36.78905158,5cdc899d48d5f100195fafff,64d2fd46c836a06233681665,64dc7f3f0f8c32a0027f374d,,,,,,,decisionTrl,resources/DP.BMP,resources/DB.BMP,Door4,-0.303385417,-0.006510417,1,0,0,0.9237,optionLeft,80,14490,7,4,0,4,0,1,,,,,,,,,,,,,,,,,,,,,,,,,,,,,,,,,,,,,,,
,,,,,,,5cdc899d48d5f100195fafff,2023-08-16_08h48.56.432,HF_wild_card,2022.2.4,Win32,36.78905158,5cdc899d48d5f100195fafff,64d2fd46c836a06233681665,64dc7f3f0f8c32a0027f374d,,,,,,,decisionTrl,resources/DB.BMP,resources/DP.BMP,Door4,0.287760417,-0.026041667,1,0,0,0.7171,optionRight,60,14550,7,5,0,5,0,1,,,,,,,,,,,,,,,,,,,,,,,,,,,,,,,,,,,,,,,
,,,,,,,5cdc899d48d5f100195fafff,2023-08-16_08h48.56.432,HF_wild_card,2022.2.4,Win32,36.78905158,5cdc899d48d5f100195fafff,64d2fd46c836a06233681665,64dc7f3f0f8c32a0027f374d,,,,,,,ctch,resources/DG.BMP,resources/DB.BMP,Door3,0.348958333,-0.057291667,1,0,0,0.6444,optionRight,70,14620,7,6,0,6,0,1,,,,,,,,,,,,,,,,,,,,,,,,,,,,,,,,,,,,,,,
,,,,,,,5cdc899d48d5f100195fafff,2023-08-16_08h48.56.432,HF_wild_card,2022.2.4,Win32,36.78905158,5cdc899d48d5f100195fafff,64d2fd46c836a06233681665,64dc7f3f0f8c32a0027f374d,,,,,,,decisionTrl,resources/DB.BMP,resources/DP.BMP,Door4,0.35546875,0.006510417,1,0,0,0.6388,optionRight,60,14680,7,7,0,7,0,1,,,,,,,,,,,,,,,,,,,,,,,,,,,,,,,,,,,,,,,
,,,,,,,5cdc899d48d5f100195fafff,2023-08-16_08h48.56.432,HF_wild_card,2022.2.4,Win32,36.78905158,5cdc899d48d5f100195fafff,64d2fd46c836a06233681665,64dc7f3f0f8c32a0027f374d,,,,,,,decisionTrl,resources/DP.BMP,resources/DB.BMP,Door4,-0.247395833,-0.01171875,1,0,0,0.6169,optionLeft,80,14760,7,8,0,8,0,1,,,,,,,,,,,,,,,,,,,,,,,,,,,,,,,,,,,,,,,
,,,,,,,5cdc899d48d5f100195fafff,2023-08-16_08h48.56.432,HF_wild_card,2022.2.4,Win32,36.78905158,5cdc899d48d5f100195fafff,64d2fd46c836a06233681665,64dc7f3f0f8c32a0027f374d,,,,,,,ctch,resources/DG.BMP,resources/DB.BMP,Door3,0.294270833,-0.032552083,1,0,0,0.6198,optionRight,70,14830,7,9,0,9,0,1,,,,,,,,,,,,,,,,,,,,,,,,,,,,,,,,,,,,,,,
,,,,,,,5cdc899d48d5f100195fafff,2023-08-16_08h48.56.432,HF_wild_card,2022.2.4,Win32,36.78905158,5cdc899d48d5f100195fafff,64d2fd46c836a06233681665,64dc7f3f0f8c32a0027f374d,,,,,,,ctch,resources/DG.BMP,resources/DB.BMP,Door3,0.290364583,-0.037760417,1,0,0,0.563,optionRight,70,14900,7,10,0,10,0,1,,,,,,,,,,,,,,,,,,,,,,,,,,,,,,,,,,,,,,,
,,,,,,,5cdc899d48d5f100195fafff,2023-08-16_08h48.56.432,HF_wild_card,2022.2.4,Win32,36.78905158,5cdc899d48d5f100195fafff,64d2fd46c836a06233681665,64dc7f3f0f8c32a0027f374d,,,,,,,decisionTrl,resources/DB.BMP,resources/DP.BMP,Door4,0.36328125,0.015625,1,0,0,0.6167,optionRight,60,14960,7,11,0,11,0,1,,,,,,,,,,,,,,,,,,,,,,,,,,,,,,,,,,,,,,,
,,,,,,,5cdc899d48d5f100195fafff,2023-08-16_08h48.56.432,HF_wild_card,2022.2.4,Win32,36.78905158,5cdc899d48d5f100195fafff,64d2fd46c836a06233681665,64dc7f3f0f8c32a0027f374d,,,,,,,decisionTrl,resources/DP.BMP,resources/DB.BMP,Door4,-0.21484375,0.006510417,1,0,0,0.5525,optionLeft,80,15040,7,12,0,12,0,1,,,,,,,,,,,,,,,,,,,,,,,,,,,,,,,,,,,,,,,
,,,,,,,5cdc899d48d5f100195fafff,2023-08-16_08h48.56.432,HF_wild_card,2022.2.4,Win32,36.78905158,5cdc899d48d5f100195fafff,64d2fd46c836a06233681665,64dc7f3f0f8c32a0027f374d,,,,,,,decisionTrl,resources/DG.BMP,resources/DR.BMP,Door2,-0.1796875,-0.0234375,1,0,0,0.6457,optionLeft,40,15080,7,13,0,13,0,1,,,,,,,,,,,,,,,,,,,,,,,,,,,,,,,,,,,,,,,
,,,,,,,5cdc899d48d5f100195fafff,2023-08-16_08h48.56.432,HF_wild_card,2022.2.4,Win32,36.78905158,5cdc899d48d5f100195fafff,64d2fd46c836a06233681665,64dc7f3f0f8c32a0027f374d,,,,,,,ctch,resources/DR.BMP,resources/DP.BMP,Door4,0.311197917,-0.0625,1,0,0,0.5521,optionRight,80,15160,7,14,0,14,0,1,,,,,,,,,,,,,,,,,,,,,,,,,,,,,,,,,,,,,,,
,,,,,,,5cdc899d48d5f100195fafff,2023-08-16_08h48.56.432,HF_wild_card,2022.2.4,Win32,36.78905158,5cdc899d48d5f100195fafff,64d2fd46c836a06233681665,64dc7f3f0f8c32a0027f374d,,,,,,,decisionTrl,resources/DB.BMP,resources/DP.BMP,Door4,0.272135417,-0.018229167,1,0,0,0.5479,optionRight,80,15240,7,15,0,15,0,1,,,,,,,,,,,,,,,,,,,,,,,,,,,,,,,,,,,,,,,
,,,,,,,5cdc899d48d5f100195fafff,2023-08-16_08h48.56.432,HF_wild_card,2022.2.4,Win32,36.78905158,5cdc899d48d5f100195fafff,64d2fd46c836a06233681665,64dc7f3f0f8c32a0027f374d,,,,,,,decisionTrl,resources/DR.BMP,resources/DG.BMP,Door2,0.35546875,-0.07421875,1,0,0,0.5508,optionRight,40,15280,7,16,0,16,0,1,,,,,,,,,,,,,,,,,,,,,,,,,,,,,,,,,,,,,,,
,,,,,,,5cdc899d48d5f100195fafff,2023-08-16_08h48.56.432,HF_wild_card,2022.2.4,Win32,36.78905158,5cdc899d48d5f100195fafff,64d2fd46c836a06233681665,64dc7f3f0f8c32a0027f374d,,,,,,,ctch,resources/DB.BMP,resources/DG.BMP,Door3,-0.37890625,0.009114583,1,0,0,0.6497,optionLeft,70,15350,7,17,0,17,0,1,,,,,,,,,,,,,,,,,,,,,,,,,,,,,,,,,,,,,,,
,,,,,,,5cdc899d48d5f100195fafff,2023-08-16_08h48.56.432,HF_wild_card,2022.2.4,Win32,36.78905158,5cdc899d48d5f100195fafff,64d2fd46c836a06233681665,64dc7f3f0f8c32a0027f374d,,,,,,,decisionTrl,resources/DG.BMP,resources/DR.BMP,Door1,0.302083333,-0.0234375,1,0,0,1.3206,optionRight,30,15380,7,18,0,18,0,1,,,,,,,,,,,,,,,,,,,,,,,,,,,,,,,,,,,,,,,
,,,,,,,5cdc899d48d5f100195fafff,2023-08-16_08h48.56.432,HF_wild_card,2022.2.4,Win32,36.78905158,5cdc899d48d5f100195fafff,64d2fd46c836a06233681665,64dc7f3f0f8c32a0027f374d,,,,,,,decisionTrl,resources/DR.BMP,resources/DG.BMP,Door1,-0.408854167,-0.006510417,1,0,0,0.758,optionLeft,30,15410,7,19,0,19,0,1,,,,,,,,,,,,,,,,,,,,,,,,,,,,,,,,,,,,,,,
,,,,,,,5cdc899d48d5f100195fafff,2023-08-16_08h48.56.432,HF_wild_card,2022.2.4,Win32,36.78905158,5cdc899d48d5f100195fafff,64d2fd46c836a06233681665,64dc7f3f0f8c32a0027f374d,,,,,,,ctch,resources/DP.BMP,resources/DR.BMP,Door1,0.375,-0.061197917,1,0,0,0.5095,optionRight,30,15440,7,20,0,20,0,1,,,,,,,,,,,,,,,,,,,,,,,,,,,,,,,,,,,,,,,
,,,,,,,5cdc899d48d5f100195fafff,2023-08-16_08h48.56.432,HF_wild_card,2022.2.4,Win32,36.78905158,5cdc899d48d5f100195fafff,64d2fd46c836a06233681665,64dc7f3f0f8c32a0027f374d,,,,,,,ctch,resources/DR.BMP,resources/DP.BMP,Door4,0.263020833,-0.02734375,1,0,0,0.6693,optionRight,60,15500,7,21,0,21,0,1,,,,,,,,,,,,,,,,,,,,,,,,,,,,,,,,,,,,,,,
