Condition,Low fixed image (Door1),Low risky image (Door2),High fixed image (Door3),High risky image (Door4),Extreme Wild Card,NonExtreme Wild Card,,date,expName,psychopyVersion,OS,frameRate,PROLIFIC_PID,STUDY_ID,SESSION_ID,mouse_2.x,mouse_2.y,mouse_2.leftButton,mouse_2.midButton,mouse_2.rightButton,mouse_2.clicked_name,Trial Type,Left Option Image,Right Option Image,Chosen Door,mouse.x,mouse.y,mouse.leftButton,mouse.midButton,mouse.rightButton,mouse.time,mouse.clicked_name,Feedback,Cumulative Reward,Block,trial.thisRepN,trial.thisTrialN,trial.thisN,trial.thisIndex,trial.ran,blocks.thisRepN,blocks.thisTrialN,blocks.thisN,blocks.thisIndex,blocks.ran,Money conversion,First Outcome Reported,Shown Door (First Outcome),Displayed Image (First Outcome),outcomes.thisRepN,outcomes.thisTrialN,outcomes.thisN,outcomes.thisIndex,outcomes.ran,judgments.thisRepN,judgments.thisTrialN,judgments.thisN,judgments.thisIndex,judgments.ran,freqMouse.x,freqMouse.y,freqMouse.leftButton,freqMouse.midButton,freqMouse.rightButton,freqMouse.clicked_name,FQJ for first outcome,FQJ for second outcome,Shown Door,Displayed Image,trials.thisRepN,trials.thisTrialN,trials.thisN,trials.thisIndex,trials.ran,judgBlock.thisRepN,judgBlock.thisTrialN,judgBlock.thisN,judgBlock.thisIndex,judgBlock.ran
0,resources/DBN.BMP,resources/DB.BMP,resources/DG.BMP,resources/DP.BMP,resources/DR.BMP,resources/DY.BMP,,2023-08-16_08h49.31.394,HF_wild_card,2022.2.4,Win32,60.08532116,63d0234a81df5f9f9131e255,64d2fd46c836a06233681665,64dc7f41a2d5bf81038bcdf7,,,,,,,,,,,,,,,,,,,,,,,,,,,,,,,,,,,,,,,,,,,,,,,,,,,,,,,,,,,,,,,,
,,,,,,,,2023-08-16_08h49.31.394,HF_wild_card,2022.2.4,Win32,60.08532116,63d0234a81df5f9f9131e255,64d2fd46c836a06233681665,64dc7f41a2d5bf81038bcdf7,-0.000821018,-0.406951353,1,0,0,agree,,,,,,,,,,,,,,,,,,,,,,,,,,,,,,,,,,,,,,,,,,,,,,,,,,,,,,,,,,
,,,,,,,,2023-08-16_08h49.31.394,HF_wild_card,2022.2.4,Win32,60.08532116,63d0234a81df5f9f9131e255,64d2fd46c836a06233681665,64dc7f41a2d5bf81038bcdf7,,,,,,,,,,,,,,,,,,,,,,,,,,,,,,,,,,,,,,,,,,,,,,,,,,,,,,,,,,,,,,,,
,,,,,,,,2023-08-16_08h49.31.394,HF_wild_card,2022.2.4,Win32,60.08532116,63d0234a81df5f9f9131e255,64d2fd46c836a06233681665,64dc7f41a2d5bf81038bcdf7,,,,,,,decisionTrl,resources/DP.BMP,resources/DG.BMP,Door4,-0.18910781,0.016694017,1,0,0,3.7009,optionLeft,80,80,1,0,0,0,0,1,,,,,,,,,,,,,,,,,,,,,,,,,,,,,,,,,,,,,,,
,,,,,,,,2023-08-16_08h49.31.394,HF_wild_card,2022.2.4,Win32,60.08532116,63d0234a81df5f9f9131e255,64d2fd46c836a06233681665,64dc7f41a2d5bf81038bcdf7,,,,,,,decisionTrl,resources/DBN.BMP,resources/DB.BMP,Door2,0.179802956,0.071428571,1,0,0,2.9097,optionRight,20,100,1,1,0,1,0,1,,,,,,,,,,,,,,,,,,,,,,,,,,,,,,,,,,,,,,,
,,,,,,,,2023-08-16_08h49.31.394,HF_wild_card,2022.2.4,Win32,60.08532116,63d0234a81df5f9f9131e255,64d2fd46c836a06233681665,64dc7f41a2d5bf81038bcdf7,,,,,,,sngl,resources/DR.BMP,resources/Empty.png,WildCard_Ex,-0.26683087,-0.009578561,1,0,0,1.2615,optionLeft,5,105,1,2,0,2,0,1,,,,,,,,,,,,,,,,,,,,,,,,,,,,,,,,,,,,,,,
,,,,,,,,2023-08-16_08h49.31.394,HF_wild_card,2022.2.4,Win32,60.08532116,63d0234a81df5f9f9131e255,64d2fd46c836a06233681665,64dc7f41a2d5bf81038bcdf7,,,,,,,decisionTrl,resources/DB.BMP,resources/DBN.BMP,Door1,0.188560548,0.046250667,1,0,0,2.0769,optionRight,30,135,1,3,0,3,0,1,,,,,,,,,,,,,,,,,,,,,,,,,,,,,,,,,,,,,,,
,,,,,,,,2023-08-16_08h49.31.394,HF_wild_card,2022.2.4,Win32,60.08532116,63d0234a81df5f9f9131e255,64d2fd46c836a06233681665,64dc7f41a2d5bf81038bcdf7,,,,,,,decisionTrl,resources/DP.BMP,resources/DG.BMP,Door3,0.155719826,0.009031199,1,0,0,2.0058,optionRight,70,205,1,4,0,4,0,1,,,,,,,,,,,,,,,,,,,,,,,,,,,,,,,,,,,,,,,
,,,,,,,,2023-08-16_08h49.31.394,HF_wild_card,2022.2.4,Win32,60.08532116,63d0234a81df5f9f9131e255,64d2fd46c836a06233681665,64dc7f41a2d5bf81038bcdf7,,,,,,,decisionTrl,resources/DR.BMP,resources/DBN.BMP,Door1,0.128352524,0.115216185,1,0,0,3.1078,optionRight,30,235,1,5,0,5,0,1,,,,,,,,,,,,,,,,,,,,,,,,,,,,,,,,,,,,,,,
,,,,,,,,2023-08-16_08h49.31.394,HF_wild_card,2022.2.4,Win32,60.08532116,63d0234a81df5f9f9131e255,64d2fd46c836a06233681665,64dc7f41a2d5bf81038bcdf7,,,,,,,decisionTrl,resources/DG.BMP,resources/DP.BMP,Door3,-0.145320197,0.097701149,1,0,0,2.3087,optionLeft,70,305,1,6,0,6,0,1,,,,,,,,,,,,,,,,,,,,,,,,,,,,,,,,,,,,,,,
,,,,,,,,2023-08-16_08h49.31.394,HF_wild_card,2022.2.4,Win32,60.08532116,63d0234a81df5f9f9131e255,64d2fd46c836a06233681665,64dc7f41a2d5bf81038bcdf7,,,,,,,ctch,resources/DB.BMP,resources/DG.BMP,Door3,0.224685343,0.050629414,1,0,0,1.7056,optionRight,70,375,1,7,0,7,0,1,,,,,,,,,,,,,,,,,,,,,,,,,,,,,,,,,,,,,,,
,,,,,,,,2023-08-16_08h49.31.394,HF_wild_card,2022.2.4,Win32,60.08532116,63d0234a81df5f9f9131e255,64d2fd46c836a06233681665,64dc7f41a2d5bf81038bcdf7,,,,,,,sngl,resources/DP.BMP,resources/Empty.png,Door4,-0.190202484,0.045155993,1,0,0,1.0128,optionLeft,80,455,1,8,0,8,0,1,,,,,,,,,,,,,,,,,,,,,,,,,,,,,,,,,,,,,,,
,,,,,,,,2023-08-16_08h49.31.394,HF_wild_card,2022.2.4,Win32,60.08532116,63d0234a81df5f9f9131e255,64d2fd46c836a06233681665,64dc7f41a2d5bf81038bcdf7,,,,,,,ctch,resources/DB.BMP,resources/DG.BMP,Door3,0.159003898,-0.00410509,1,0,0,1.7941,optionRight,70,525,1,9,0,9,0,1,,,,,,,,,,,,,,,,,,,,,,,,,,,,,,,,,,,,,,,
,,,,,,,,2023-08-16_08h49.31.394,HF_wild_card,2022.2.4,Win32,60.08532116,63d0234a81df5f9f9131e255,64d2fd46c836a06233681665,64dc7f41a2d5bf81038bcdf7,,,,,,,ctch,resources/DG.BMP,resources/DB.BMP,Door3,-0.134373256,0.046250667,1,0,0,1.5778,optionLeft,70,595,1,10,0,10,0,1,,,,,,,,,,,,,,,,,,,,,,,,,,,,,,,,,,,,,,,
,,,,,,,,2023-08-16_08h49.31.394,HF_wild_card,2022.2.4,Win32,60.08532116,63d0234a81df5f9f9131e255,64d2fd46c836a06233681665,64dc7f41a2d5bf81038bcdf7,,,,,,,decisionTrl,resources/DB.BMP,resources/DBN.BMP,Door1,0.121784379,0.014504619,1,0,0,2.1256,optionRight,30,625,1,11,0,11,0,1,,,,,,,,,,,,,,,,,,,,,,,,,,,,,,,,,,,,,,,
,,,,,,,,2023-08-16_08h49.31.394,HF_wild_card,2022.2.4,Win32,60.08532116,63d0234a81df5f9f9131e255,64d2fd46c836a06233681665,64dc7f41a2d5bf81038bcdf7,,,,,,,decisionTrl,resources/DP.BMP,resources/DG.BMP,Door4,-0.172687449,0.053913486,1,0,0,1.3439,optionLeft,80,705,1,12,0,12,0,1,,,,,,,,,,,,,,,,,,,,,,,,,,,,,,,,,,,,,,,
,,,,,,,,2023-08-16_08h49.31.394,HF_wild_card,2022.2.4,Win32,60.08532116,63d0234a81df5f9f9131e255,64d2fd46c836a06233681665,64dc7f41a2d5bf81038bcdf7,,,,,,,decisionTrl,resources/DR.BMP,resources/DP.BMP,Door4,0.125068452,0.019978089,1,0,0,0.9775,optionRight,60,765,1,13,0,13,0,1,,,,,,,,,,,,,,,,,,,,,,,,,,,,,,,,,,,,,,,
,,,,,,,,2023-08-16_08h49.31.394,HF_wild_card,2022.2.4,Win32,60.08532116,63d0234a81df5f9f9131e255,64d2fd46c836a06233681665,64dc7f41a2d5bf81038bcdf7,,,,,,,sngl,resources/Empty.png,resources/DR.BMP,WildCard_Ex,0.165572043,0.041871921,1,0,0,0.9627,optionRight,95,860,1,14,0,14,0,1,,,,,,,,,,,,,,,,,,,,,,,,,,,,,,,,,,,,,,,
,,,,,,,,2023-08-16_08h49.31.394,HF_wild_card,2022.2.4,Win32,60.08532116,63d0234a81df5f9f9131e255,64d2fd46c836a06233681665,64dc7f41a2d5bf81038bcdf7,,,,,,,sngl,resources/DG.BMP,resources/Empty.png,Door3,-0.150793617,0.093322353,1,0,0,1.9591,optionLeft,70,930,1,15,0,15,0,1,,,,,,,,,,,,,,,,,,,,,,,,,,,,,,,,,,,,,,,
,,,,,,,,2023-08-16_08h49.31.394,HF_wild_card,2022.2.4,Win32,60.08532116,63d0234a81df5f9f9131e255,64d2fd46c836a06233681665,64dc7f41a2d5bf81038bcdf7,,,,,,,sngl,resources/DB.BMP,resources/Empty.png,Door2,-0.155172414,0.088943607,1,0,0,0.9792,optionLeft,40,970,1,16,0,16,0,1,,,,,,,,,,,,,,,,,,,,,,,,,,,,,,,,,,,,,,,
,,,,,,,,2023-08-16_08h49.31.394,HF_wild_card,2022.2.4,Win32,60.08532116,63d0234a81df5f9f9131e255,64d2fd46c836a06233681665,64dc7f41a2d5bf81038bcdf7,,,,,,,ctch,resources/DBN.BMP,resources/DP.BMP,Door4,0.168856115,0.067049775,1,0,0,1.6599,optionRight,80,1050,1,17,0,17,0,1,,,,,,,,,,,,,,,,,,,,,,,,,,,,,,,,,,,,,,,
,,,,,,,,2023-08-16_08h49.31.394,HF_wild_card,2022.2.4,Win32,60.08532116,63d0234a81df5f9f9131e255,64d2fd46c836a06233681665,64dc7f41a2d5bf81038bcdf7,,,,,,,decisionTrl,resources/DG.BMP,resources/DP.BMP,Door4,0.119595031,0.021072764,1,0,0,1.6619,optionRight,80,1130,1,18,0,18,0,1,,,,,,,,,,,,,,,,,,,,,,,,,,,,,,,,,,,,,,,
,,,,,,,,2023-08-16_08h49.31.394,HF_wild_card,2022.2.4,Win32,60.08532116,63d0234a81df5f9f9131e255,64d2fd46c836a06233681665,64dc7f41a2d5bf81038bcdf7,,,,,,,sngl,resources/Empty.png,resources/DP.BMP,Door4,0.111932163,0.012315271,1,0,0,0.9951,optionRight,60,1190,1,19,0,19,0,1,,,,,,,,,,,,,,,,,,,,,,,,,,,,,,,,,,,,,,,
,,,,,,,,2023-08-16_08h49.31.394,HF_wild_card,2022.2.4,Win32,60.08532116,63d0234a81df5f9f9131e255,64d2fd46c836a06233681665,64dc7f41a2d5bf81038bcdf7,,,,,,,decisionTrl,resources/DBN.BMP,resources/DR.BMP,WildCard_Ex,0.196223317,0.062671029,1,0,0,1.2121,optionRight,95,1285,1,20,0,20,0,1,,,,,,,,,,,,,,,,,,,,,,,,,,,,,,,,,,,,,,,
,,,,,,,,2023-08-16_08h49.31.394,HF_wild_card,2022.2.4,Win32,60.08532116,63d0234a81df5f9f9131e255,64d2fd46c836a06233681665,64dc7f41a2d5bf81038bcdf7,,,,,,,decisionTrl,resources/DR.BMP,resources/DG.BMP,WildCard_Ex,-0.15407769,0.061576355,1,0,0,0.7812,optionLeft,95,1380,1,21,0,21,0,1,,,,,,,,,,,,,,,,,,,,,,,,,,,,,,,,,,,,,,,
,,,,,,,,2023-08-16_08h49.31.394,HF_wild_card,2022.2.4,Win32,60.08532116,63d0234a81df5f9f9131e255,64d2fd46c836a06233681665,64dc7f41a2d5bf81038bcdf7,,,,,,,decisionTrl,resources/DB.BMP,resources/DBN.BMP,Door2,-0.152982965,0.133825944,1,0,0,2.3273,optionLeft,20,1400,1,22,0,22,0,1,,,,,,,,,,,,,,,,,,,,,,,,,,,,,,,,,,,,,,,
,,,,,,,,2023-08-16_08h49.31.394,HF_wild_card,2022.2.4,Win32,60.08532116,63d0234a81df5f9f9131e255,64d2fd46c836a06233681665,64dc7f41a2d5bf81038bcdf7,,,,,,,decisionTrl,resources/DP.BMP,resources/DG.BMP,Door4,-0.169403377,0.07909139,1,0,0,1.0935,optionLeft,80,1480,1,23,0,23,0,1,,,,,,,,,,,,,,,,,,,,,,,,,,,,,,,,,,,,,,,
,,,,,,,,2023-08-16_08h49.31.394,HF_wild_card,2022.2.4,Win32,60.08532116,63d0234a81df5f9f9131e255,64d2fd46c836a06233681665,64dc7f41a2d5bf81038bcdf7,,,,,,,decisionTrl,resources/DG.BMP,resources/DP.BMP,Door4,0.137110016,0.040777197,1,0,0,1.0284,optionRight,80,1560,1,24,0,24,0,1,,,,,,,,,,,,,,,,,,,,,,,,,,,,,,,,,,,,,,,
,,,,,,,,2023-08-16_08h49.31.394,HF_wild_card,2022.2.4,Win32,60.08532116,63d0234a81df5f9f9131e255,64d2fd46c836a06233681665,64dc7f41a2d5bf81038bcdf7,,,,,,,ctch,resources/DP.BMP,resources/DBN.BMP,Door4,-0.137657328,0.038587849,1,0,0,0.8978,optionLeft,80,1640,1,25,0,25,0,1,,,,,,,,,,,,,,,,,,,,,,,,,,,,,,,,,,,,,,,
,,,,,,,,2023-08-16_08h49.31.394,HF_wild_card,2022.2.4,Win32,60.08532116,63d0234a81df5f9f9131e255,64d2fd46c836a06233681665,64dc7f41a2d5bf81038bcdf7,,,,,,,sngl,resources/Empty.png,resources/DB.BMP,Door2,0.123973727,0.037493125,1,0,0,1.0796,optionRight,20,1660,1,26,0,26,0,1,,,,,,,,,,,,,,,,,,,,,,,,,,,,,,,,,,,,,,,
,,,,,,,,2023-08-16_08h49.31.394,HF_wild_card,2022.2.4,Win32,60.08532116,63d0234a81df5f9f9131e255,64d2fd46c836a06233681665,64dc7f41a2d5bf81038bcdf7,,,,,,,decisionTrl,resources/DBN.BMP,resources/DB.BMP,Door1,-0.15955111,0.153530378,1,0,0,1.4124,optionLeft,30,1690,1,27,0,27,0,1,,,,,,,,,,,,,,,,,,,,,,,,,,,,,,,,,,,,,,,
,,,,,,,,2023-08-16_08h49.31.394,HF_wild_card,2022.2.4,Win32,60.08532116,63d0234a81df5f9f9131e255,64d2fd46c836a06233681665,64dc7f41a2d5bf81038bcdf7,,,,,,,sngl,resources/DR.BMP,resources/Empty.png,WildCard_Ex,-0.166119305,0.128352474,1,0,0,0.828,optionLeft,95,1785,1,28,0,28,0,1,,,,,,,,,,,,,,,,,,,,,,,,,,,,,,,,,,,,,,,
,,,,,,,,2023-08-16_08h49.31.394,HF_wild_card,2022.2.4,Win32,60.08532116,63d0234a81df5f9f9131e255,64d2fd46c836a06233681665,64dc7f41a2d5bf81038bcdf7,,,,,,,decisionTrl,resources/DP.BMP,resources/DR.BMP,WildCard_Ex,0.178708332,0.040777197,1,0,0,1.1278,optionRight,5,1790,1,29,0,29,0,1,,,,,,,,,,,,,,,,,,,,,,,,,,,,,,,,,,,,,,,
,,,,,,,,2023-08-16_08h49.31.394,HF_wild_card,2022.2.4,Win32,60.08532116,63d0234a81df5f9f9131e255,64d2fd46c836a06233681665,64dc7f41a2d5bf81038bcdf7,,,,,,,sngl,resources/Empty.png,resources/DG.BMP,Door3,0.252052545,0.057197558,1,0,0,0.9465,optionRight,70,1860,1,30,0,30,0,1,,,,,,,,,,,,,,,,,,,,,,,,,,,,,,,,,,,,,,,
,,,,,,,,2023-08-16_08h49.31.394,HF_wild_card,2022.2.4,Win32,60.08532116,63d0234a81df5f9f9131e255,64d2fd46c836a06233681665,64dc7f41a2d5bf81038bcdf7,,,,,,,decisionTrl,resources/DBN.BMP,resources/DB.BMP,Door1,-0.145320197,0.10864804,1,0,0,1.8298,optionLeft,30,1890,1,31,0,31,0,1,,,,,,,,,,,,,,,,,,,,,,,,,,,,,,,,,,,,,,,
,,,,,,,,2023-08-16_08h49.31.394,HF_wild_card,2022.2.4,Win32,60.08532116,63d0234a81df5f9f9131e255,64d2fd46c836a06233681665,64dc7f41a2d5bf81038bcdf7,,,,,,,decisionTrl,resources/DBN.BMP,resources/DB.BMP,Door1,-0.101532534,0.141488763,1,0,0,2.9942,optionLeft,30,1920,1,32,0,32,0,1,,,,,,,,,,,,,,,,,,,,,,,,,,,,,,,,,,,,,,,
,,,,,,,,2023-08-16_08h49.31.394,HF_wild_card,2022.2.4,Win32,60.08532116,63d0234a81df5f9f9131e255,64d2fd46c836a06233681665,64dc7f41a2d5bf81038bcdf7,,,,,,,decisionTrl,resources/DB.BMP,resources/DBN.BMP,Door2,-0.155172414,0.104269294,1,0,0,2.1751,optionLeft,40,1960,1,33,0,33,0,1,,,,,,,,,,,,,,,,,,,,,,,,,,,,,,,,,,,,,,,
,,,,,,,,2023-08-16_08h49.31.394,HF_wild_card,2022.2.4,Win32,60.08532116,63d0234a81df5f9f9131e255,64d2fd46c836a06233681665,64dc7f41a2d5bf81038bcdf7,,,,,,,sngl,resources/Empty.png,resources/DBN.BMP,Door1,0.163382594,0.174329485,1,0,0,1.2784,optionRight,30,1990,1,34,0,34,0,1,,,,,,,,,,,,,,,,,,,,,,,,,,,,,,,,,,,,,,,
,,,,,,,,2023-08-16_08h49.31.394,HF_wild_card,2022.2.4,Win32,60.08532116,63d0234a81df5f9f9131e255,64d2fd46c836a06233681665,64dc7f41a2d5bf81038bcdf7,,,,,,,ctch,resources/DP.BMP,resources/DBN.BMP,Door4,-0.171592775,0.188560448,1,0,0,1.0773,optionLeft,60,2050,1,35,0,35,0,1,,,,,,,,,,,,,,,,,,,,,,,,,,,,,,,,,,,,,,,
,,,,,,,,2023-08-16_08h49.31.394,HF_wild_card,2022.2.4,Win32,60.08532116,63d0234a81df5f9f9131e255,64d2fd46c836a06233681665,64dc7f41a2d5bf81038bcdf7,,,,,,,decisionTrl,resources/DR.BMP,resources/DB.BMP,WildCard_Ex,-0.165024631,0.146962233,1,0,0,1.0977,optionLeft,5,2055,1,36,0,36,0,1,,,,,,,,,,,,,,,,,,,,,,,,,,,,,,,,,,,,,,,
,,,,,,,,2023-08-16_08h49.31.394,HF_wild_card,2022.2.4,Win32,60.08532116,63d0234a81df5f9f9131e255,64d2fd46c836a06233681665,64dc7f41a2d5bf81038bcdf7,,,,,,,ctch,resources/DBN.BMP,resources/DP.BMP,Door4,0.164477319,0.109742714,1,0,0,0.8627,optionRight,60,2115,1,37,0,37,0,1,,,,,,,,,,,,,,,,,,,,,,,,,,,,,,,,,,,,,,,
,,,,,,,,2023-08-16_08h49.31.394,HF_wild_card,2022.2.4,Win32,60.08532116,63d0234a81df5f9f9131e255,64d2fd46c836a06233681665,64dc7f41a2d5bf81038bcdf7,,,,,,,ctch,resources/DG.BMP,resources/DB.BMP,Door3,-0.166119305,0.160098522,1,0,0,1.7295,optionLeft,70,2185,1,38,0,38,0,1,,,,,,,,,,,,,,,,,,,,,,,,,,,,,,,,,,,,,,,
,,,,,,,,2023-08-16_08h49.31.394,HF_wild_card,2022.2.4,Win32,60.08532116,63d0234a81df5f9f9131e255,64d2fd46c836a06233681665,64dc7f41a2d5bf81038bcdf7,,,,,,,decisionTrl,resources/DG.BMP,resources/DR.BMP,Door3,-0.143130749,0.15681445,1,0,0,2.1608,optionLeft,70,2255,1,39,0,39,0,1,,,,,,,,,,,,,,,,,,,,,,,,,,,,,,,,,,,,,,,
,,,,,,,,2023-08-16_08h49.31.394,HF_wild_card,2022.2.4,Win32,60.08532116,63d0234a81df5f9f9131e255,64d2fd46c836a06233681665,64dc7f41a2d5bf81038bcdf7,,,,,,,decisionTrl,resources/DG.BMP,resources/DP.BMP,Door4,0.10864809,0.059386956,1,0,0,0.8617,optionRight,80,2335,1,40,0,40,0,1,,,,,,,,,,,,,,,,,,,,,,,,,,,,,,,,,,,,,,,
,,,,,,,,2023-08-16_08h49.31.394,HF_wild_card,2022.2.4,Win32,60.08532116,63d0234a81df5f9f9131e255,64d2fd46c836a06233681665,64dc7f41a2d5bf81038bcdf7,,,,,,,sngl,resources/DBN.BMP,resources/Empty.png,Door1,-0.233990148,0.200602063,1,0,0,1.2465,optionLeft,30,2365,1,41,0,41,0,1,,,,,,,,,,,,,,,,,,,,,,,,,,,,,,,,,,,,,,,
,,,,,,,,2023-08-16_08h49.31.394,HF_wild_card,2022.2.4,Win32,60.08532116,63d0234a81df5f9f9131e255,64d2fd46c836a06233681665,64dc7f41a2d5bf81038bcdf7,,,,,,,decisionTrl,resources/DB.BMP,resources/DR.BMP,Door2,-0.161740558,0.183087028,1,0,0,2.2586,optionLeft,40,2405,1,42,0,42,0,1,,,,,,,,,,,,,,,,,,,,,,,,,,,,,,,,,,,,,,,
,,,,,,,,2023-08-16_08h49.31.394,HF_wild_card,2022.2.4,Win32,60.08532116,63d0234a81df5f9f9131e255,64d2fd46c836a06233681665,64dc7f41a2d5bf81038bcdf7,,,,,,,sngl,resources/Empty.png,resources/DR.BMP,WildCard_Ex,0.144772885,0.10864804,1,0,0,1.244,optionRight,5,2410,1,43,0,43,0,1,,,,,,,,,,,,,,,,,,,,,,,,,,,,,,,,,,,,,,,
,,,,,,,,2023-08-16_08h49.31.394,HF_wild_card,2022.2.4,Win32,60.08532116,63d0234a81df5f9f9131e255,64d2fd46c836a06233681665,64dc7f41a2d5bf81038bcdf7,,,,,,,,,,,,,,,,,,,,,,,,,,0,0,0,0,1,,,,,,,,,,,,,,,,,,,,,,,,,,,,,,,,,,
,,,,,,,,2023-08-16_08h49.31.394,HF_wild_card,2022.2.4,Win32,60.08532116,63d0234a81df5f9f9131e255,64d2fd46c836a06233681665,64dc7f41a2d5bf81038bcdf7,,,,,,,ctch,resources/DBN.BMP,resources/DP.BMP,Door4,0.146962233,-0.010673235,1,0,0,3.8022,optionRight,60,2470,2,0,0,0,0,1,,,,,,,,,,,,,,,,,,,,,,,,,,,,,,,,,,,,,,,
,,,,,,,,2023-08-16_08h49.31.394,HF_wild_card,2022.2.4,Win32,60.08532116,63d0234a81df5f9f9131e255,64d2fd46c836a06233681665,64dc7f41a2d5bf81038bcdf7,,,,,,,decisionTrl,resources/DP.BMP,resources/DG.BMP,Door4,-0.230706076,0.120689655,1,0,0,0.7277,optionLeft,80,2550,2,1,0,1,0,1,,,,,,,,,,,,,,,,,,,,,,,,,,,,,,,,,,,,,,,
,,,,,,,,2023-08-16_08h49.31.394,HF_wild_card,2022.2.4,Win32,60.08532116,63d0234a81df5f9f9131e255,64d2fd46c836a06233681665,64dc7f41a2d5bf81038bcdf7,,,,,,,decisionTrl,resources/DBN.BMP,resources/DR.BMP,Door1,-0.184729064,0.183087028,1,0,0,1.464,optionLeft,30,2580,2,2,0,2,0,1,,,,,,,,,,,,,,,,,,,,,,,,,,,,,,,,,,,,,,,
,,,,,,,,2023-08-16_08h49.31.394,HF_wild_card,2022.2.4,Win32,60.08532116,63d0234a81df5f9f9131e255,64d2fd46c836a06233681665,64dc7f41a2d5bf81038bcdf7,,,,,,,sngl,resources/DBN.BMP,resources/Empty.png,Door1,-0.158456486,0.10317457,1,0,0,0.6954,optionLeft,30,2610,2,3,0,3,0,1,,,,,,,,,,,,,,,,,,,,,,,,,,,,,,,,,,,,,,,
,,,,,,,,2023-08-16_08h49.31.394,HF_wild_card,2022.2.4,Win32,60.08532116,63d0234a81df5f9f9131e255,64d2fd46c836a06233681665,64dc7f41a2d5bf81038bcdf7,,,,,,,decisionTrl,resources/DB.BMP,resources/DR.BMP,Door2,-0.167213979,0.173234811,1,0,0,1.3139,optionLeft,40,2650,2,4,0,4,0,1,,,,,,,,,,,,,,,,,,,,,,,,,,,,,,,,,,,,,,,
,,,,,,,,2023-08-16_08h49.31.394,HF_wild_card,2022.2.4,Win32,60.08532116,63d0234a81df5f9f9131e255,64d2fd46c836a06233681665,64dc7f41a2d5bf81038bcdf7,,,,,,,decisionTrl,resources/DR.BMP,resources/DG.BMP,Door3,0.126163176,0.148056907,1,0,0,1.6455,optionRight,70,2720,2,5,0,5,0,1,,,,,,,,,,,,,,,,,,,,,,,,,,,,,,,,,,,,,,,
,,,,,,,,2023-08-16_08h49.31.394,HF_wild_card,2022.2.4,Win32,60.08532116,63d0234a81df5f9f9131e255,64d2fd46c836a06233681665,64dc7f41a2d5bf81038bcdf7,,,,,,,ctch,resources/DG.BMP,resources/DB.BMP,Door3,-0.175971521,0.168856015,1,0,0,1.3447,optionLeft,70,2790,2,6,0,6,0,1,,,,,,,,,,,,,,,,,,,,,,,,,,,,,,,,,,,,,,,
,,,,,,,,2023-08-16_08h49.31.394,HF_wild_card,2022.2.4,Win32,60.08532116,63d0234a81df5f9f9131e255,64d2fd46c836a06233681665,64dc7f41a2d5bf81038bcdf7,,,,,,,sngl,resources/DG.BMP,resources/Empty.png,Door3,-0.168308703,0.165571943,1,0,0,0.6621,optionLeft,70,2860,2,7,0,7,0,1,,,,,,,,,,,,,,,,,,,,,,,,,,,,,,,,,,,,,,,
,,,,,,,,2023-08-16_08h49.31.394,HF_wild_card,2022.2.4,Win32,60.08532116,63d0234a81df5f9f9131e255,64d2fd46c836a06233681665,64dc7f41a2d5bf81038bcdf7,,,,,,,decisionTrl,resources/DG.BMP,resources/DP.BMP,Door3,-0.160645834,0.18089763,1,0,0,1.3461,optionLeft,70,2930,2,8,0,8,0,1,,,,,,,,,,,,,,,,,,,,,,,,,,,,,,,,,,,,,,,
,,,,,,,,2023-08-16_08h49.31.394,HF_wild_card,2022.2.4,Win32,60.08532116,63d0234a81df5f9f9131e255,64d2fd46c836a06233681665,64dc7f41a2d5bf81038bcdf7,,,,,,,decisionTrl,resources/DR.BMP,resources/DBN.BMP,WildCard_Ex,-0.177066195,0.177613557,1,0,0,1.246,optionLeft,5,2935,2,9,0,9,0,1,,,,,,,,,,,,,,,,,,,,,,,,,,,,,,,,,,,,,,,
,,,,,,,,2023-08-16_08h49.31.394,HF_wild_card,2022.2.4,Win32,60.08532116,63d0234a81df5f9f9131e255,64d2fd46c836a06233681665,64dc7f41a2d5bf81038bcdf7,,,,,,,ctch,resources/DB.BMP,resources/DG.BMP,Door3,0.122879103,0.18089763,1,0,0,2.1965,optionRight,70,3005,2,10,0,10,0,1,,,,,,,,,,,,,,,,,,,,,,,,,,,,,,,,,,,,,,,
,,,,,,,,2023-08-16_08h49.31.394,HF_wild_card,2022.2.4,Win32,60.08532116,63d0234a81df5f9f9131e255,64d2fd46c836a06233681665,64dc7f41a2d5bf81038bcdf7,,,,,,,sngl,resources/DP.BMP,resources/Empty.png,Door4,-0.136562604,0.134920618,1,0,0,0.7636,optionLeft,60,3065,2,11,0,11,0,1,,,,,,,,,,,,,,,,,,,,,,,,,,,,,,,,,,,,,,,
,,,,,,,,2023-08-16_08h49.31.394,HF_wild_card,2022.2.4,Win32,60.08532116,63d0234a81df5f9f9131e255,64d2fd46c836a06233681665,64dc7f41a2d5bf81038bcdf7,,,,,,,ctch,resources/DG.BMP,resources/DB.BMP,Door3,-0.203338773,0.200602063,1,0,0,1.1107,optionLeft,70,3135,2,12,0,12,0,1,,,,,,,,,,,,,,,,,,,,,,,,,,,,,,,,,,,,,,,
,,,,,,,,2023-08-16_08h49.31.394,HF_wild_card,2022.2.4,Win32,60.08532116,63d0234a81df5f9f9131e255,64d2fd46c836a06233681665,64dc7f41a2d5bf81038bcdf7,,,,,,,decisionTrl,resources/DB.BMP,resources/DBN.BMP,Door2,-0.15955111,0.194033919,1,0,0,1.9451,optionLeft,20,3155,2,13,0,13,0,1,,,,,,,,,,,,,,,,,,,,,,,,,,,,,,,,,,,,,,,
,,,,,,,,2023-08-16_08h49.31.394,HF_wild_card,2022.2.4,Win32,60.08532116,63d0234a81df5f9f9131e255,64d2fd46c836a06233681665,64dc7f41a2d5bf81038bcdf7,,,,,,,decisionTrl,resources/DBN.BMP,resources/DB.BMP,Door2,0.172140187,0.236726858,1,0,0,2.3772,optionRight,20,3175,2,14,0,14,0,1,,,,,,,,,,,,,,,,,,,,,,,,,,,,,,,,,,,,,,,
,,,,,,,,2023-08-16_08h49.31.394,HF_wild_card,2022.2.4,Win32,60.08532116,63d0234a81df5f9f9131e255,64d2fd46c836a06233681665,64dc7f41a2d5bf81038bcdf7,,,,,,,sngl,resources/Empty.png,resources/DR.BMP,WildCard_Ex,0.152435754,0.045155993,1,0,0,0.8446,optionRight,5,3180,2,15,0,15,0,1,,,,,,,,,,,,,,,,,,,,,,,,,,,,,,,,,,,,,,,
,,,,,,,,2023-08-16_08h49.31.394,HF_wild_card,2022.2.4,Win32,60.08532116,63d0234a81df5f9f9131e255,64d2fd46c836a06233681665,64dc7f41a2d5bf81038bcdf7,,,,,,,decisionTrl,resources/DBN.BMP,resources/DB.BMP,Door1,-0.126710387,0.177613557,1,0,0,1.1296,optionLeft,30,3210,2,16,0,16,0,1,,,,,,,,,,,,,,,,,,,,,,,,,,,,,,,,,,,,,,,
,,,,,,,,2023-08-16_08h49.31.394,HF_wild_card,2022.2.4,Win32,60.08532116,63d0234a81df5f9f9131e255,64d2fd46c836a06233681665,64dc7f41a2d5bf81038bcdf7,,,,,,,decisionTrl,resources/DP.BMP,resources/DR.BMP,Door4,-0.144225473,0.109742714,1,0,0,1.1453,optionLeft,60,3270,2,17,0,17,0,1,,,,,,,,,,,,,,,,,,,,,,,,,,,,,,,,,,,,,,,
,,,,,,,,2023-08-16_08h49.31.394,HF_wild_card,2022.2.4,Win32,60.08532116,63d0234a81df5f9f9131e255,64d2fd46c836a06233681665,64dc7f41a2d5bf81038bcdf7,,,,,,,decisionTrl,resources/DG.BMP,resources/DP.BMP,Door3,-0.134373256,0.130541872,1,0,0,2.0887,optionLeft,70,3340,2,18,0,18,0,1,,,,,,,,,,,,,,,,,,,,,,,,,,,,,,,,,,,,,,,
,,,,,,,,2023-08-16_08h49.31.394,HF_wild_card,2022.2.4,Win32,60.08532116,63d0234a81df5f9f9131e255,64d2fd46c836a06233681665,64dc7f41a2d5bf81038bcdf7,,,,,,,ctch,resources/DB.BMP,resources/DG.BMP,Door3,0.149151681,0.159003798,1,0,0,2.4947,optionRight,70,3410,2,19,0,19,0,1,,,,,,,,,,,,,,,,,,,,,,,,,,,,,,,,,,,,,,,
,,,,,,,,2023-08-16_08h49.31.394,HF_wild_card,2022.2.4,Win32,60.08532116,63d0234a81df5f9f9131e255,64d2fd46c836a06233681665,64dc7f41a2d5bf81038bcdf7,,,,,,,decisionTrl,resources/DG.BMP,resources/DP.BMP,Door3,-0.158456486,0.090038281,1,0,0,0.9772,optionLeft,70,3480,2,20,0,20,0,1,,,,,,,,,,,,,,,,,,,,,,,,,,,,,,,,,,,,,,,
,,,,,,,,2023-08-16_08h49.31.394,HF_wild_card,2022.2.4,Win32,60.08532116,63d0234a81df5f9f9131e255,64d2fd46c836a06233681665,64dc7f41a2d5bf81038bcdf7,,,,,,,ctch,resources/DP.BMP,resources/DBN.BMP,Door4,-0.195675955,0.133825944,1,0,0,1.2281,optionLeft,60,3540,2,21,0,21,0,1,,,,,,,,,,,,,,,,,,,,,,,,,,,,,,,,,,,,,,,
,,,,,,,,2023-08-16_08h49.31.394,HF_wild_card,2022.2.4,Win32,60.08532116,63d0234a81df5f9f9131e255,64d2fd46c836a06233681665,64dc7f41a2d5bf81038bcdf7,,,,,,,ctch,resources/DP.BMP,resources/DBN.BMP,Door4,-0.172687449,0.15681445,1,0,0,0.7124,optionLeft,60,3600,2,22,0,22,0,1,,,,,,,,,,,,,,,,,,,,,,,,,,,,,,,,,,,,,,,
,,,,,,,,2023-08-16_08h49.31.394,HF_wild_card,2022.2.4,Win32,60.08532116,63d0234a81df5f9f9131e255,64d2fd46c836a06233681665,64dc7f41a2d5bf81038bcdf7,,,,,,,ctch,resources/DBN.BMP,resources/DP.BMP,Door1,-0.190202484,0.177613557,1,0,0,1.2141,optionLeft,30,3630,2,23,0,23,0,1,,,,,,,,,,,,,,,,,,,,,,,,,,,,,,,,,,,,,,,
,,,,,,,,2023-08-16_08h49.31.394,HF_wild_card,2022.2.4,Win32,60.08532116,63d0234a81df5f9f9131e255,64d2fd46c836a06233681665,64dc7f41a2d5bf81038bcdf7,,,,,,,sngl,resources/Empty.png,resources/DP.BMP,Door4,0.115216235,0.130541872,1,0,0,0.7581,optionRight,80,3710,2,24,0,24,0,1,,,,,,,,,,,,,,,,,,,,,,,,,,,,,,,,,,,,,,,
,,,,,,,,2023-08-16_08h49.31.394,HF_wild_card,2022.2.4,Win32,60.08532116,63d0234a81df5f9f9131e255,64d2fd46c836a06233681665,64dc7f41a2d5bf81038bcdf7,,,,,,,decisionTrl,resources/DG.BMP,resources/DP.BMP,Door4,0.137110016,0.144772835,1,0,0,1.212,optionRight,80,3790,2,25,0,25,0,1,,,,,,,,,,,,,,,,,,,,,,,,,,,,,,,,,,,,,,,
,,,,,,,,2023-08-16_08h49.31.394,HF_wild_card,2022.2.4,Win32,60.08532116,63d0234a81df5f9f9131e255,64d2fd46c836a06233681665,64dc7f41a2d5bf81038bcdf7,,,,,,,sngl,resources/DR.BMP,resources/Empty.png,WildCard_Ex,-0.17816092,0.144772835,1,0,0,0.7128,optionLeft,5,3795,2,26,0,26,0,1,,,,,,,,,,,,,,,,,,,,,,,,,,,,,,,,,,,,,,,
,,,,,,,,2023-08-16_08h49.31.394,HF_wild_card,2022.2.4,Win32,60.08532116,63d0234a81df5f9f9131e255,64d2fd46c836a06233681665,64dc7f41a2d5bf81038bcdf7,,,,,,,decisionTrl,resources/DP.BMP,resources/DG.BMP,Door4,-0.166119305,0.167761341,1,0,0,1.0282,optionLeft,80,3875,2,27,0,27,0,1,,,,,,,,,,,,,,,,,,,,,,,,,,,,,,,,,,,,,,,
,,,,,,,,2023-08-16_08h49.31.394,HF_wild_card,2022.2.4,Win32,60.08532116,63d0234a81df5f9f9131e255,64d2fd46c836a06233681665,64dc7f41a2d5bf81038bcdf7,,,,,,,sngl,resources/DR.BMP,resources/Empty.png,WildCard_Ex,-0.200054701,0.154625052,1,0,0,0.7477,optionLeft,95,3970,2,28,0,28,0,1,,,,,,,,,,,,,,,,,,,,,,,,,,,,,,,,,,,,,,,
,,,,,,,,2023-08-16_08h49.31.394,HF_wild_card,2022.2.4,Win32,60.08532116,63d0234a81df5f9f9131e255,64d2fd46c836a06233681665,64dc7f41a2d5bf81038bcdf7,,,,,,,decisionTrl,resources/DR.BMP,resources/DB.BMP,WildCard_Ex,-0.21319099,0.171045413,1,0,0,0.7123,optionLeft,95,4065,2,29,0,29,0,1,,,,,,,,,,,,,,,,,,,,,,,,,,,,,,,,,,,,,,,
,,,,,,,,2023-08-16_08h49.31.394,HF_wild_card,2022.2.4,Win32,60.08532116,63d0234a81df5f9f9131e255,64d2fd46c836a06233681665,64dc7f41a2d5bf81038bcdf7,,,,,,,sngl,resources/DB.BMP,resources/Empty.png,Door2,-0.162835182,0.131636546,1,0,0,0.8468,optionLeft,20,4085,2,30,0,30,0,1,,,,,,,,,,,,,,,,,,,,,,,,,,,,,,,,,,,,,,,
,,,,,,,,2023-08-16_08h49.31.394,HF_wild_card,2022.2.4,Win32,60.08532116,63d0234a81df5f9f9131e255,64d2fd46c836a06233681665,64dc7f41a2d5bf81038bcdf7,,,,,,,sngl,resources/Empty.png,resources/DBN.BMP,Door1,0.190749897,0.096606425,1,0,0,0.8452,optionRight,30,4115,2,31,0,31,0,1,,,,,,,,,,,,,,,,,,,,,,,,,,,,,,,,,,,,,,,
,,,,,,,,2023-08-16_08h49.31.394,HF_wild_card,2022.2.4,Win32,60.08532116,63d0234a81df5f9f9131e255,64d2fd46c836a06233681665,64dc7f41a2d5bf81038bcdf7,,,,,,,sngl,resources/Empty.png,resources/DB.BMP,Door2,0.462233169,0.271756979,1,0,0,1.2977,optionRight,40,4155,2,32,0,32,0,1,,,,,,,,,,,,,,,,,,,,,,,,,,,,,,,,,,,,,,,
,,,,,,,,2023-08-16_08h49.31.394,HF_wild_card,2022.2.4,Win32,60.08532116,63d0234a81df5f9f9131e255,64d2fd46c836a06233681665,64dc7f41a2d5bf81038bcdf7,,,,,,,decisionTrl,resources/DP.BMP,resources/DG.BMP,Door4,-0.15955111,0.128352474,1,0,0,1.2976,optionLeft,60,4215,2,33,0,33,0,1,,,,,,,,,,,,,,,,,,,,,,,,,,,,,,,,,,,,,,,
,,,,,,,,2023-08-16_08h49.31.394,HF_wild_card,2022.2.4,Win32,60.08532116,63d0234a81df5f9f9131e255,64d2fd46c836a06233681665,64dc7f41a2d5bf81038bcdf7,,,,,,,decisionTrl,resources/DB.BMP,resources/DBN.BMP,Door1,0.175424259,0.1863711,1,0,0,2.4937,optionRight,30,4245,2,34,0,34,0,1,,,,,,,,,,,,,,,,,,,,,,,,,,,,,,,,,,,,,,,
,,,,,,,,2023-08-16_08h49.31.394,HF_wild_card,2022.2.4,Win32,60.08532116,63d0234a81df5f9f9131e255,64d2fd46c836a06233681665,64dc7f41a2d5bf81038bcdf7,,,,,,,decisionTrl,resources/DB.BMP,resources/DBN.BMP,Door1,0.117405583,0.137110016,1,0,0,1.0644,optionRight,30,4275,2,35,0,35,0,1,,,,,,,,,,,,,,,,,,,,,,,,,,,,,,,,,,,,,,,
,,,,,,,,2023-08-16_08h49.31.394,HF_wild_card,2022.2.4,Win32,60.08532116,63d0234a81df5f9f9131e255,64d2fd46c836a06233681665,64dc7f41a2d5bf81038bcdf7,,,,,,,decisionTrl,resources/DP.BMP,resources/DG.BMP,Door3,0.134920668,0.197317991,1,0,0,2.577,optionRight,70,4345,2,36,0,36,0,1,,,,,,,,,,,,,,,,,,,,,,,,,,,,,,,,,,,,,,,
,,,,,,,,2023-08-16_08h49.31.394,HF_wild_card,2022.2.4,Win32,60.08532116,63d0234a81df5f9f9131e255,64d2fd46c836a06233681665,64dc7f41a2d5bf81038bcdf7,,,,,,,decisionTrl,resources/DBN.BMP,resources/DB.BMP,Door1,-0.163929906,0.173234811,1,0,0,1.9459,optionLeft,30,4375,2,37,0,37,0,1,,,,,,,,,,,,,,,,,,,,,,,,,,,,,,,,,,,,,,,
,,,,,,,,2023-08-16_08h49.31.394,HF_wild_card,2022.2.4,Win32,60.08532116,63d0234a81df5f9f9131e255,64d2fd46c836a06233681665,64dc7f41a2d5bf81038bcdf7,,,,,,,sngl,resources/Empty.png,resources/DR.BMP,WildCard_Ex,0.219211823,0.109742714,1,0,0,0.8632,optionRight,95,4470,2,38,0,38,0,1,,,,,,,,,,,,,,,,,,,,,,,,,,,,,,,,,,,,,,,
,,,,,,,,2023-08-16_08h49.31.394,HF_wild_card,2022.2.4,Win32,60.08532116,63d0234a81df5f9f9131e255,64d2fd46c836a06233681665,64dc7f41a2d5bf81038bcdf7,,,,,,,decisionTrl,resources/DB.BMP,resources/DBN.BMP,Door2,-0.157361762,0.188560448,1,0,0,4.678,optionLeft,40,4510,2,39,0,39,0,1,,,,,,,,,,,,,,,,,,,,,,,,,,,,,,,,,,,,,,,
,,,,,,,,2023-08-16_08h49.31.394,HF_wild_card,2022.2.4,Win32,60.08532116,63d0234a81df5f9f9131e255,64d2fd46c836a06233681665,64dc7f41a2d5bf81038bcdf7,,,,,,,sngl,resources/Empty.png,resources/DG.BMP,Door3,0.166666667,0.069239173,1,0,0,1.061,optionRight,70,4580,2,40,0,40,0,1,,,,,,,,,,,,,,,,,,,,,,,,,,,,,,,,,,,,,,,
,,,,,,,,2023-08-16_08h49.31.394,HF_wild_card,2022.2.4,Win32,60.08532116,63d0234a81df5f9f9131e255,64d2fd46c836a06233681665,64dc7f41a2d5bf81038bcdf7,,,,,,,decisionTrl,resources/DBN.BMP,resources/DB.BMP,Door1,-0.196770629,0.207170208,1,0,0,2.7277,optionLeft,30,4610,2,41,0,41,0,1,,,,,,,,,,,,,,,,,,,,,,,,,,,,,,,,,,,,,,,
,,,,,,,,2023-08-16_08h49.31.394,HF_wild_card,2022.2.4,Win32,60.08532116,63d0234a81df5f9f9131e255,64d2fd46c836a06233681665,64dc7f41a2d5bf81038bcdf7,,,,,,,decisionTrl,resources/DG.BMP,resources/DR.BMP,Door3,-0.114668823,0.104269294,1,0,0,1.8781,optionLeft,70,4680,2,42,0,42,0,1,,,,,,,,,,,,,,,,,,,,,,,,,,,,,,,,,,,,,,,
,,,,,,,,2023-08-16_08h49.31.394,HF_wild_card,2022.2.4,Win32,60.08532116,63d0234a81df5f9f9131e255,64d2fd46c836a06233681665,64dc7f41a2d5bf81038bcdf7,,,,,,,decisionTrl,resources/DR.BMP,resources/DP.BMP,Door4,0.191844621,0.117405583,1,0,0,2.2601,optionRight,80,4760,2,43,0,43,0,1,,,,,,,,,,,,,,,,,,,,,,,,,,,,,,,,,,,,,,,
,,,,,,,,2023-08-16_08h49.31.394,HF_wild_card,2022.2.4,Win32,60.08532116,63d0234a81df5f9f9131e255,64d2fd46c836a06233681665,64dc7f41a2d5bf81038bcdf7,,,,,,,,,,,,,,,,,,,,,,,,,,1,0,1,0,1,,,,,,,,,,,,,,,,,,,,,,,,,,,,,,,,,,
,,,,,,,,2023-08-16_08h49.31.394,HF_wild_card,2022.2.4,Win32,60.08532116,63d0234a81df5f9f9131e255,64d2fd46c836a06233681665,64dc7f41a2d5bf81038bcdf7,,,,,,,decisionTrl,resources/DP.BMP,resources/DG.BMP,Door4,-0.15955111,0.19841269,1,0,0,1.7535,optionLeft,80,4840,3,0,0,0,0,1,,,,,,,,,,,,,,,,,,,,,,,,,,,,,,,,,,,,,,,
,,,,,,,,2023-08-16_08h49.31.394,HF_wild_card,2022.2.4,Win32,60.08532116,63d0234a81df5f9f9131e255,64d2fd46c836a06233681665,64dc7f41a2d5bf81038bcdf7,,,,,,,sngl,resources/Empty.png,resources/DBN.BMP,Door1,0.16228797,0.104269294,1,0,0,0.861,optionRight,30,4870,3,1,0,1,0,1,,,,,,,,,,,,,,,,,,,,,,,,,,,,,,,,,,,,,,,
,,,,,,,,2023-08-16_08h49.31.394,HF_wild_card,2022.2.4,Win32,60.08532116,63d0234a81df5f9f9131e255,64d2fd46c836a06233681665,64dc7f41a2d5bf81038bcdf7,,,,,,,sngl,resources/Empty.png,resources/DG.BMP,Door3,0.197318041,0.130541872,1,0,0,0.8445,optionRight,70,4940,3,2,0,2,0,1,,,,,,,,,,,,,,,,,,,,,,,,,,,,,,,,,,,,,,,
,,,,,,,,2023-08-16_08h49.31.394,HF_wild_card,2022.2.4,Win32,60.08532116,63d0234a81df5f9f9131e255,64d2fd46c836a06233681665,64dc7f41a2d5bf81038bcdf7,,,,,,,ctch,resources/DB.BMP,resources/DG.BMP,Door3,0.179802956,0.176518883,1,0,0,1.1448,optionRight,70,5010,3,3,0,3,0,1,,,,,,,,,,,,,,,,,,,,,,,,,,,,,,,,,,,,,,,
,,,,,,,,2023-08-16_08h49.31.394,HF_wild_card,2022.2.4,Win32,60.08532116,63d0234a81df5f9f9131e255,64d2fd46c836a06233681665,64dc7f41a2d5bf81038bcdf7,,,,,,,ctch,resources/DG.BMP,resources/DB.BMP,Door3,-0.167213979,0.177613557,1,0,0,0.9781,optionLeft,70,5080,3,4,0,4,0,1,,,,,,,,,,,,,,,,,,,,,,,,,,,,,,,,,,,,,,,
,,,,,,,,2023-08-16_08h49.31.394,HF_wild_card,2022.2.4,Win32,60.08532116,63d0234a81df5f9f9131e255,64d2fd46c836a06233681665,64dc7f41a2d5bf81038bcdf7,,,,,,,ctch,resources/DG.BMP,resources/DB.BMP,Door3,-0.146414821,0.126163076,1,0,0,0.7123,optionLeft,70,5150,3,5,0,5,0,1,,,,,,,,,,,,,,,,,,,,,,,,,,,,,,,,,,,,,,,
,,,,,,,,2023-08-16_08h49.31.394,HF_wild_card,2022.2.4,Win32,60.08532116,63d0234a81df5f9f9131e255,64d2fd46c836a06233681665,64dc7f41a2d5bf81038bcdf7,,,,,,,decisionTrl,resources/DG.BMP,resources/DP.BMP,Door4,0.155719826,0.235632184,1,0,0,3.2773,optionRight,60,5210,3,6,0,6,0,1,,,,,,,,,,,,,,,,,,,,,,,,,,,,,,,,,,,,,,,
,,,,,,,,2023-08-16_08h49.31.394,HF_wild_card,2022.2.4,Win32,60.08532116,63d0234a81df5f9f9131e255,64d2fd46c836a06233681665,64dc7f41a2d5bf81038bcdf7,,,,,,,decisionTrl,resources/DP.BMP,resources/DG.BMP,Door4,-0.186918412,0.197317991,1,0,0,1.4105,optionLeft,60,5270,3,7,0,7,0,1,,,,,,,,,,,,,,,,,,,,,,,,,,,,,,,,,,,,,,,
,,,,,,,,2023-08-16_08h49.31.394,HF_wild_card,2022.2.4,Win32,60.08532116,63d0234a81df5f9f9131e255,64d2fd46c836a06233681665,64dc7f41a2d5bf81038bcdf7,,,,,,,decisionTrl,resources/DG.BMP,resources/DP.BMP,Door3,-0.125615764,0.109742714,1,0,0,1.1264,optionLeft,70,5340,3,8,0,8,0,1,,,,,,,,,,,,,,,,,,,,,,,,,,,,,,,,,,,,,,,
,,,,,,,,2023-08-16_08h49.31.394,HF_wild_card,2022.2.4,Win32,60.08532116,63d0234a81df5f9f9131e255,64d2fd46c836a06233681665,64dc7f41a2d5bf81038bcdf7,,,,,,,decisionTrl,resources/DR.BMP,resources/DB.BMP,WildCard_Ex,-0.151888342,0.196223317,1,0,0,1.278,optionLeft,5,5345,3,9,0,9,0,1,,,,,,,,,,,,,,,,,,,,,,,,,,,,,,,,,,,,,,,
,,,,,,,,2023-08-16_08h49.31.394,HF_wild_card,2022.2.4,Win32,60.08532116,63d0234a81df5f9f9131e255,64d2fd46c836a06233681665,64dc7f41a2d5bf81038bcdf7,,,,,,,sngl,resources/DR.BMP,resources/Empty.png,WildCard_Ex,-0.166119305,0.164477268,1,0,0,0.7962,optionLeft,95,5440,3,10,0,10,0,1,,,,,,,,,,,,,,,,,,,,,,,,,,,,,,,,,,,,,,,
,,,,,,,,2023-08-16_08h49.31.394,HF_wild_card,2022.2.4,Win32,60.08532116,63d0234a81df5f9f9131e255,64d2fd46c836a06233681665,64dc7f41a2d5bf81038bcdf7,,,,,,,ctch,resources/DB.BMP,resources/DG.BMP,Door3,0.178708332,0.109742714,1,0,0,1.511,optionRight,70,5510,3,11,0,11,0,1,,,,,,,,,,,,,,,,,,,,,,,,,,,,,,,,,,,,,,,
,,,,,,,,2023-08-16_08h49.31.394,HF_wild_card,2022.2.4,Win32,60.08532116,63d0234a81df5f9f9131e255,64d2fd46c836a06233681665,64dc7f41a2d5bf81038bcdf7,,,,,,,sngl,resources/Empty.png,resources/DR.BMP,WildCard_Ex,0.136015392,0.053913486,1,0,0,0.929,optionRight,5,5515,3,12,0,12,0,1,,,,,,,,,,,,,,,,,,,,,,,,,,,,,,,,,,,,,,,
,,,,,,,,2023-08-16_08h49.31.394,HF_wild_card,2022.2.4,Win32,60.08532116,63d0234a81df5f9f9131e255,64d2fd46c836a06233681665,64dc7f41a2d5bf81038bcdf7,,,,,,,decisionTrl,resources/DB.BMP,resources/DR.BMP,Door2,-0.174876847,0.118500257,1,0,0,1.4607,optionLeft,40,5555,3,13,0,13,0,1,,,,,,,,,,,,,,,,,,,,,,,,,,,,,,,,,,,,,,,
,,,,,,,,2023-08-16_08h49.31.394,HF_wild_card,2022.2.4,Win32,60.08532116,63d0234a81df5f9f9131e255,64d2fd46c836a06233681665,64dc7f41a2d5bf81038bcdf7,,,,,,,decisionTrl,resources/DBN.BMP,resources/DB.BMP,Door2,0.121784379,0.167761341,1,0,0,1.1441,optionRight,20,5575,3,14,0,14,0,1,,,,,,,,,,,,,,,,,,,,,,,,,,,,,,,,,,,,,,,
,,,,,,,,2023-08-16_08h49.31.394,HF_wild_card,2022.2.4,Win32,60.08532116,63d0234a81df5f9f9131e255,64d2fd46c836a06233681665,64dc7f41a2d5bf81038bcdf7,,,,,,,decisionTrl,resources/DG.BMP,resources/DP.BMP,Door3,-0.161740558,0.183087028,1,0,0,1.9442,optionLeft,70,5645,3,15,0,15,0,1,,,,,,,,,,,,,,,,,,,,,,,,,,,,,,,,,,,,,,,
,,,,,,,,2023-08-16_08h49.31.394,HF_wild_card,2022.2.4,Win32,60.08532116,63d0234a81df5f9f9131e255,64d2fd46c836a06233681665,64dc7f41a2d5bf81038bcdf7,,,,,,,decisionTrl,resources/DB.BMP,resources/DBN.BMP,Door1,0.150246305,0.176518883,1,0,0,3.1106,optionRight,30,5675,3,16,0,16,0,1,,,,,,,,,,,,,,,,,,,,,,,,,,,,,,,,,,,,,,,
,,,,,,,,2023-08-16_08h49.31.394,HF_wild_card,2022.2.4,Win32,60.08532116,63d0234a81df5f9f9131e255,64d2fd46c836a06233681665,64dc7f41a2d5bf81038bcdf7,,,,,,,decisionTrl,resources/DB.BMP,resources/DBN.BMP,Door1,0.125068452,0.173234811,1,0,0,0.9448,optionRight,30,5705,3,17,0,17,0,1,,,,,,,,,,,,,,,,,,,,,,,,,,,,,,,,,,,,,,,
,,,,,,,,2023-08-16_08h49.31.394,HF_wild_card,2022.2.4,Win32,60.08532116,63d0234a81df5f9f9131e255,64d2fd46c836a06233681665,64dc7f41a2d5bf81038bcdf7,,,,,,,sngl,resources/DB.BMP,resources/Empty.png,Door2,-0.167213979,0.157909124,1,0,0,0.7612,optionLeft,40,5745,3,18,0,18,0,1,,,,,,,,,,,,,,,,,,,,,,,,,,,,,,,,,,,,,,,
,,,,,,,,2023-08-16_08h49.31.394,HF_wild_card,2022.2.4,Win32,60.08532116,63d0234a81df5f9f9131e255,64d2fd46c836a06233681665,64dc7f41a2d5bf81038bcdf7,,,,,,,decisionTrl,resources/DG.BMP,resources/DR.BMP,Door3,-0.168308703,0.18089763,1,0,0,1.1452,optionLeft,70,5815,3,19,0,19,0,1,,,,,,,,,,,,,,,,,,,,,,,,,,,,,,,,,,,,,,,
,,,,,,,,2023-08-16_08h49.31.394,HF_wild_card,2022.2.4,Win32,60.08532116,63d0234a81df5f9f9131e255,64d2fd46c836a06233681665,64dc7f41a2d5bf81038bcdf7,,,,,,,sngl,resources/DBN.BMP,resources/Empty.png,Door1,-0.181444992,0.125068401,1,0,0,0.7623,optionLeft,30,5845,3,20,0,20,0,1,,,,,,,,,,,,,,,,,,,,,,,,,,,,,,,,,,,,,,,
,,,,,,,,2023-08-16_08h49.31.394,HF_wild_card,2022.2.4,Win32,60.08532116,63d0234a81df5f9f9131e255,64d2fd46c836a06233681665,64dc7f41a2d5bf81038bcdf7,,,,,,,decisionTrl,resources/DBN.BMP,resources/DB.BMP,Door2,0.138204741,0.191844521,1,0,0,3.4763,optionRight,40,5885,3,21,0,21,0,1,,,,,,,,,,,,,,,,,,,,,,,,,,,,,,,,,,,,,,,
,,,,,,,,2023-08-16_08h49.31.394,HF_wild_card,2022.2.4,Win32,60.08532116,63d0234a81df5f9f9131e255,64d2fd46c836a06233681665,64dc7f41a2d5bf81038bcdf7,,,,,,,sngl,resources/Empty.png,resources/DB.BMP,Door2,0.244389777,0.13273122,1,0,0,0.8301,optionRight,20,5905,3,22,0,22,0,1,,,,,,,,,,,,,,,,,,,,,,,,,,,,,,,,,,,,,,,
,,,,,,,,2023-08-16_08h49.31.394,HF_wild_card,2022.2.4,Win32,60.08532116,63d0234a81df5f9f9131e255,64d2fd46c836a06233681665,64dc7f41a2d5bf81038bcdf7,,,,,,,sngl,resources/DP.BMP,resources/Empty.png,Door4,-0.166119305,0.187465774,1,0,0,0.6786,optionLeft,80,5985,3,23,0,23,0,1,,,,,,,,,,,,,,,,,,,,,,,,,,,,,,,,,,,,,,,
,,,,,,,,2023-08-16_08h49.31.394,HF_wild_card,2022.2.4,Win32,60.08532116,63d0234a81df5f9f9131e255,64d2fd46c836a06233681665,64dc7f41a2d5bf81038bcdf7,,,,,,,decisionTrl,resources/DP.BMP,resources/DG.BMP,Door4,-0.167213979,0.143678161,1,0,0,1.1953,optionLeft,60,6045,3,24,0,24,0,1,,,,,,,,,,,,,,,,,,,,,,,,,,,,,,,,,,,,,,,
,,,,,,,,2023-08-16_08h49.31.394,HF_wild_card,2022.2.4,Win32,60.08532116,63d0234a81df5f9f9131e255,64d2fd46c836a06233681665,64dc7f41a2d5bf81038bcdf7,,,,,,,sngl,resources/Empty.png,resources/DR.BMP,WildCard_Ex,0.161193246,0.092227679,1,0,0,0.8454,optionRight,95,6140,3,25,0,25,0,1,,,,,,,,,,,,,,,,,,,,,,,,,,,,,,,,,,,,,,,
,,,,,,,,2023-08-16_08h49.31.394,HF_wild_card,2022.2.4,Win32,60.08532116,63d0234a81df5f9f9131e255,64d2fd46c836a06233681665,64dc7f41a2d5bf81038bcdf7,,,,,,,decisionTrl,resources/DR.BMP,resources/DBN.BMP,WildCard_Ex,-0.145320197,0.163382594,1,0,0,0.7461,optionLeft,95,6235,3,26,0,26,0,1,,,,,,,,,,,,,,,,,,,,,,,,,,,,,,,,,,,,,,,
,,,,,,,,2023-08-16_08h49.31.394,HF_wild_card,2022.2.4,Win32,60.08532116,63d0234a81df5f9f9131e255,64d2fd46c836a06233681665,64dc7f41a2d5bf81038bcdf7,,,,,,,ctch,resources/DP.BMP,resources/DBN.BMP,Door4,-0.149698893,0.211548979,1,0,0,2.0111,optionLeft,60,6295,3,27,0,27,0,1,,,,,,,,,,,,,,,,,,,,,,,,,,,,,,,,,,,,,,,
,,,,,,,,2023-08-16_08h49.31.394,HF_wild_card,2022.2.4,Win32,60.08532116,63d0234a81df5f9f9131e255,64d2fd46c836a06233681665,64dc7f41a2d5bf81038bcdf7,,,,,,,ctch,resources/DP.BMP,resources/DBN.BMP,Door4,-0.165024631,0.141488763,1,0,0,0.73,optionLeft,60,6355,3,28,0,28,0,1,,,,,,,,,,,,,,,,,,,,,,,,,,,,,,,,,,,,,,,
,,,,,,,,2023-08-16_08h49.31.394,HF_wild_card,2022.2.4,Win32,60.08532116,63d0234a81df5f9f9131e255,64d2fd46c836a06233681665,64dc7f41a2d5bf81038bcdf7,,,,,,,decisionTrl,resources/DBN.BMP,resources/DB.BMP,Door1,-0.114668823,0.181992304,1,0,0,1.4966,optionLeft,30,6385,3,29,0,29,0,1,,,,,,,,,,,,,,,,,,,,,,,,,,,,,,,,,,,,,,,
,,,,,,,,2023-08-16_08h49.31.394,HF_wild_card,2022.2.4,Win32,60.08532116,63d0234a81df5f9f9131e255,64d2fd46c836a06233681665,64dc7f41a2d5bf81038bcdf7,,,,,,,decisionTrl,resources/DBN.BMP,resources/DB.BMP,Door2,0.120689655,0.123973727,1,0,0,0.8296,optionRight,40,6425,3,30,0,30,0,1,,,,,,,,,,,,,,,,,,,,,,,,,,,,,,,,,,,,,,,
,,,,,,,,2023-08-16_08h49.31.394,HF_wild_card,2022.2.4,Win32,60.08532116,63d0234a81df5f9f9131e255,64d2fd46c836a06233681665,64dc7f41a2d5bf81038bcdf7,,,,,,,sngl,resources/DR.BMP,resources/Empty.png,WildCard_Ex,-0.162835182,0.134920618,1,0,0,0.7111,optionLeft,5,6430,3,31,0,31,0,1,,,,,,,,,,,,,,,,,,,,,,,,,,,,,,,,,,,,,,,
,,,,,,,,2023-08-16_08h49.31.394,HF_wild_card,2022.2.4,Win32,60.08532116,63d0234a81df5f9f9131e255,64d2fd46c836a06233681665,64dc7f41a2d5bf81038bcdf7,,,,,,,ctch,resources/DBN.BMP,resources/DP.BMP,Door4,0.183087028,0.201696762,1,0,0,1.3113,optionRight,60,6490,3,32,0,32,0,1,,,,,,,,,,,,,,,,,,,,,,,,,,,,,,,,,,,,,,,
,,,,,,,,2023-08-16_08h49.31.394,HF_wild_card,2022.2.4,Win32,60.08532116,63d0234a81df5f9f9131e255,64d2fd46c836a06233681665,64dc7f41a2d5bf81038bcdf7,,,,,,,sngl,resources/DG.BMP,resources/Empty.png,Door3,-0.169403377,0.129447148,1,0,0,0.7434,optionLeft,70,6560,3,33,0,33,0,1,,,,,,,,,,,,,,,,,,,,,,,,,,,,,,,,,,,,,,,
,,,,,,,,2023-08-16_08h49.31.394,HF_wild_card,2022.2.4,Win32,60.08532116,63d0234a81df5f9f9131e255,64d2fd46c836a06233681665,64dc7f41a2d5bf81038bcdf7,,,,,,,ctch,resources/DBN.BMP,resources/DP.BMP,Door4,0.171045463,0.114121511,1,0,0,0.7786,optionRight,80,6640,3,34,0,34,0,1,,,,,,,,,,,,,,,,,,,,,,,,,,,,,,,,,,,,,,,
,,,,,,,,2023-08-16_08h49.31.394,HF_wild_card,2022.2.4,Win32,60.08532116,63d0234a81df5f9f9131e255,64d2fd46c836a06233681665,64dc7f41a2d5bf81038bcdf7,,,,,,,decisionTrl,resources/DB.BMP,resources/DBN.BMP,Door2,-0.15407769,0.211548979,1,0,0,1.2621,optionLeft,40,6680,3,35,0,35,0,1,,,,,,,,,,,,,,,,,,,,,,,,,,,,,,,,,,,,,,,
,,,,,,,,2023-08-16_08h49.31.394,HF_wild_card,2022.2.4,Win32,60.08532116,63d0234a81df5f9f9131e255,64d2fd46c836a06233681665,64dc7f41a2d5bf81038bcdf7,,,,,,,decisionTrl,resources/DR.BMP,resources/DG.BMP,Door3,0.222495895,0.137110016,1,0,0,1.0116,optionRight,70,6750,3,36,0,36,0,1,,,,,,,,,,,,,,,,,,,,,,,,,,,,,,,,,,,,,,,
,,,,,,,,2023-08-16_08h49.31.394,HF_wild_card,2022.2.4,Win32,60.08532116,63d0234a81df5f9f9131e255,64d2fd46c836a06233681665,64dc7f41a2d5bf81038bcdf7,,,,,,,decisionTrl,resources/DR.BMP,resources/DP.BMP,Door4,0.194033969,0.191844521,1,0,0,3.3426,optionRight,60,6810,3,37,0,37,0,1,,,,,,,,,,,,,,,,,,,,,,,,,,,,,,,,,,,,,,,
,,,,,,,,2023-08-16_08h49.31.394,HF_wild_card,2022.2.4,Win32,60.08532116,63d0234a81df5f9f9131e255,64d2fd46c836a06233681665,64dc7f41a2d5bf81038bcdf7,,,,,,,decisionTrl,resources/DB.BMP,resources/DBN.BMP,Door2,-0.124521039,0.154625052,1,0,0,1.0952,optionLeft,20,6830,3,38,0,38,0,1,,,,,,,,,,,,,,,,,,,,,,,,,,,,,,,,,,,,,,,
,,,,,,,,2023-08-16_08h49.31.394,HF_wild_card,2022.2.4,Win32,60.08532116,63d0234a81df5f9f9131e255,64d2fd46c836a06233681665,64dc7f41a2d5bf81038bcdf7,,,,,,,decisionTrl,resources/DP.BMP,resources/DR.BMP,Door4,-0.12999446,0.192939245,1,0,0,1.6458,optionLeft,80,6910,3,39,0,39,0,1,,,,,,,,,,,,,,,,,,,,,,,,,,,,,,,,,,,,,,,
,,,,,,,,2023-08-16_08h49.31.394,HF_wild_card,2022.2.4,Win32,60.08532116,63d0234a81df5f9f9131e255,64d2fd46c836a06233681665,64dc7f41a2d5bf81038bcdf7,,,,,,,decisionTrl,resources/DP.BMP,resources/DG.BMP,Door4,-0.11138475,0.219211823,1,0,0,3.3292,optionLeft,60,6970,3,40,0,40,0,1,,,,,,,,,,,,,,,,,,,,,,,,,,,,,,,,,,,,,,,
,,,,,,,,2023-08-16_08h49.31.394,HF_wild_card,2022.2.4,Win32,60.08532116,63d0234a81df5f9f9131e255,64d2fd46c836a06233681665,64dc7f41a2d5bf81038bcdf7,,,,,,,decisionTrl,resources/DBN.BMP,resources/DR.BMP,WildCard_Ex,0.15134103,0.209359606,1,0,0,2.6433,optionRight,5,6975,3,41,0,41,0,1,,,,,,,,,,,,,,,,,,,,,,,,,,,,,,,,,,,,,,,
,,,,,,,,2023-08-16_08h49.31.394,HF_wild_card,2022.2.4,Win32,60.08532116,63d0234a81df5f9f9131e255,64d2fd46c836a06233681665,64dc7f41a2d5bf81038bcdf7,,,,,,,decisionTrl,resources/DG.BMP,resources/DP.BMP,Door3,-0.166119305,0.194033919,1,0,0,1.5614,optionLeft,70,7045,3,42,0,42,0,1,,,,,,,,,,,,,,,,,,,,,,,,,,,,,,,,,,,,,,,
,,,,,,,,2023-08-16_08h49.31.394,HF_wild_card,2022.2.4,Win32,60.08532116,63d0234a81df5f9f9131e255,64d2fd46c836a06233681665,64dc7f41a2d5bf81038bcdf7,,,,,,,sngl,resources/Empty.png,resources/DP.BMP,Door4,0.155719826,0.140394089,1,0,0,0.7793,optionRight,60,7105,3,43,0,43,0,1,,,,,,,,,,,,,,,,,,,,,,,,,,,,,,,,,,,,,,,
,,,,,,,,2023-08-16_08h49.31.394,HF_wild_card,2022.2.4,Win32,60.08532116,63d0234a81df5f9f9131e255,64d2fd46c836a06233681665,64dc7f41a2d5bf81038bcdf7,,,,,,,,,,,,,,,,,,,,,,,,,,2,0,2,0,1,,,,,,,,,,,,,,,,,,,,,,,,,,,,,,,,,,
,,,,,,,,2023-08-16_08h49.31.394,HF_wild_card,2022.2.4,Win32,60.08532116,63d0234a81df5f9f9131e255,64d2fd46c836a06233681665,64dc7f41a2d5bf81038bcdf7,,,,,,,ctch,resources/DP.BMP,resources/DBN.BMP,Door4,-0.197865353,0.159003798,1,0,0,1.4782,optionLeft,60,7165,4,0,0,0,0,1,,,,,,,,,,,,,,,,,,,,,,,,,,,,,,,,,,,,,,,
,,,,,,,,2023-08-16_08h49.31.394,HF_wild_card,2022.2.4,Win32,60.08532116,63d0234a81df5f9f9131e255,64d2fd46c836a06233681665,64dc7f41a2d5bf81038bcdf7,,,,,,,decisionTrl,resources/DY.BMP,resources/DB.BMP,WildCard_NonEx,-0.156267038,0.178708232,1,0,0,1.5613,optionLeft,45,7210,4,1,0,1,0,1,,,,,,,,,,,,,,,,,,,,,,,,,,,,,,,,,,,,,,,
,,,,,,,,2023-08-16_08h49.31.394,HF_wild_card,2022.2.4,Win32,60.08532116,63d0234a81df5f9f9131e255,64d2fd46c836a06233681665,64dc7f41a2d5bf81038bcdf7,,,,,,,decisionTrl,resources/DG.BMP,resources/DP.BMP,Door3,-0.179255594,0.213738352,1,0,0,1.8959,optionLeft,70,7280,4,2,0,2,0,1,,,,,,,,,,,,,,,,,,,,,,,,,,,,,,,,,,,,,,,
,,,,,,,,2023-08-16_08h49.31.394,HF_wild_card,2022.2.4,Win32,60.08532116,63d0234a81df5f9f9131e255,64d2fd46c836a06233681665,64dc7f41a2d5bf81038bcdf7,,,,,,,ctch,resources/DG.BMP,resources/DB.BMP,Door3,-0.180350268,0.175424159,1,0,0,0.9118,optionLeft,70,7350,4,3,0,3,0,1,,,,,,,,,,,,,,,,,,,,,,,,,,,,,,,,,,,,,,,
,,,,,,,,2023-08-16_08h49.31.394,HF_wild_card,2022.2.4,Win32,60.08532116,63d0234a81df5f9f9131e255,64d2fd46c836a06233681665,64dc7f41a2d5bf81038bcdf7,,,,,,,ctch,resources/DB.BMP,resources/DG.BMP,Door3,0.118500307,0.16228787,1,0,0,0.8456,optionRight,70,7420,4,4,0,4,0,1,,,,,,,,,,,,,,,,,,,,,,,,,,,,,,,,,,,,,,,
,,,,,,,,2023-08-16_08h49.31.394,HF_wild_card,2022.2.4,Win32,60.08532116,63d0234a81df5f9f9131e255,64d2fd46c836a06233681665,64dc7f41a2d5bf81038bcdf7,,,,,,,decisionTrl,resources/DBN.BMP,resources/DB.BMP,Door2,0.137110016,0.173234811,1,0,0,1.0624,optionRight,20,7440,4,5,0,5,0,1,,,,,,,,,,,,,,,,,,,,,,,,,,,,,,,,,,,,,,,
,,,,,,,,2023-08-16_08h49.31.394,HF_wild_card,2022.2.4,Win32,60.08532116,63d0234a81df5f9f9131e255,64d2fd46c836a06233681665,64dc7f41a2d5bf81038bcdf7,,,,,,,decisionTrl,resources/DP.BMP,resources/DG.BMP,Door3,0.134920668,0.15681445,1,0,0,1.1952,optionRight,70,7510,4,6,0,6,0,1,,,,,,,,,,,,,,,,,,,,,,,,,,,,,,,,,,,,,,,
,,,,,,,,2023-08-16_08h49.31.394,HF_wild_card,2022.2.4,Win32,60.08532116,63d0234a81df5f9f9131e255,64d2fd46c836a06233681665,64dc7f41a2d5bf81038bcdf7,,,,,,,decisionTrl,resources/DG.BMP,resources/DP.BMP,Door3,-0.145320197,0.118500257,1,0,0,1.0301,optionLeft,70,7580,4,7,0,7,0,1,,,,,,,,,,,,,,,,,,,,,,,,,,,,,,,,,,,,,,,
,,,,,,,,2023-08-16_08h49.31.394,HF_wild_card,2022.2.4,Win32,60.08532116,63d0234a81df5f9f9131e255,64d2fd46c836a06233681665,64dc7f41a2d5bf81038bcdf7,,,,,,,decisionTrl,resources/DY.BMP,resources/DP.BMP,Door4,0.15681445,0.167761341,1,0,0,2.0274,optionRight,80,7660,4,8,0,8,0,1,,,,,,,,,,,,,,,,,,,,,,,,,,,,,,,,,,,,,,,
,,,,,,,,2023-08-16_08h49.31.394,HF_wild_card,2022.2.4,Win32,60.08532116,63d0234a81df5f9f9131e255,64d2fd46c836a06233681665,64dc7f41a2d5bf81038bcdf7,,,,,,,ctch,resources/DP.BMP,resources/DBN.BMP,Door4,-0.150793617,0.201696762,1,0,0,1.0612,optionLeft,60,7720,4,9,0,9,0,1,,,,,,,,,,,,,,,,,,,,,,,,,,,,,,,,,,,,,,,
,,,,,,,,2023-08-16_08h49.31.394,HF_wild_card,2022.2.4,Win32,60.08532116,63d0234a81df5f9f9131e255,64d2fd46c836a06233681665,64dc7f41a2d5bf81038bcdf7,,,,,,,decisionTrl,resources/DP.BMP,resources/DG.BMP,Door4,-0.174876847,0.155719726,1,0,0,1.2446,optionLeft,80,7800,4,10,0,10,0,1,,,,,,,,,,,,,,,,,,,,,,,,,,,,,,,,,,,,,,,
,,,,,,,,2023-08-16_08h49.31.394,HF_wild_card,2022.2.4,Win32,60.08532116,63d0234a81df5f9f9131e255,64d2fd46c836a06233681665,64dc7f41a2d5bf81038bcdf7,,,,,,,sngl,resources/Empty.png,resources/DY.BMP,WildCard_NonEx,0.173234811,0.07909139,1,0,0,1.0278,optionRight,55,7855,4,11,0,11,0,1,,,,,,,,,,,,,,,,,,,,,,,,,,,,,,,,,,,,,,,
,,,,,,,,2023-08-16_08h49.31.394,HF_wild_card,2022.2.4,Win32,60.08532116,63d0234a81df5f9f9131e255,64d2fd46c836a06233681665,64dc7f41a2d5bf81038bcdf7,,,,,,,ctch,resources/DBN.BMP,resources/DP.BMP,Door4,0.15681445,0.169950739,1,0,0,1.195,optionRight,60,7915,4,12,0,12,0,1,,,,,,,,,,,,,,,,,,,,,,,,,,,,,,,,,,,,,,,
,,,,,,,,2023-08-16_08h49.31.394,HF_wild_card,2022.2.4,Win32,60.08532116,63d0234a81df5f9f9131e255,64d2fd46c836a06233681665,64dc7f41a2d5bf81038bcdf7,,,,,,,sngl,resources/Empty.png,resources/DB.BMP,Door2,0.198412765,0.094417077,1,0,0,0.8946,optionRight,40,7955,4,13,0,13,0,1,,,,,,,,,,,,,,,,,,,,,,,,,,,,,,,,,,,,,,,
,,,,,,,,2023-08-16_08h49.31.394,HF_wild_card,2022.2.4,Win32,60.08532116,63d0234a81df5f9f9131e255,64d2fd46c836a06233681665,64dc7f41a2d5bf81038bcdf7,,,,,,,sngl,resources/Empty.png,resources/DY.BMP,WildCard_NonEx,0.200602113,0.074712644,1,0,0,0.812,optionRight,45,8000,4,14,0,14,0,1,,,,,,,,,,,,,,,,,,,,,,,,,,,,,,,,,,,,,,,
,,,,,,,,2023-08-16_08h49.31.394,HF_wild_card,2022.2.4,Win32,60.08532116,63d0234a81df5f9f9131e255,64d2fd46c836a06233681665,64dc7f41a2d5bf81038bcdf7,,,,,,,sngl,resources/DBN.BMP,resources/Empty.png,Door1,-0.18363434,0.104269294,1,0,0,0.7952,optionLeft,30,8030,4,15,0,15,0,1,,,,,,,,,,,,,,,,,,,,,,,,,,,,,,,,,,,,,,,
,,,,,,,,2023-08-16_08h49.31.394,HF_wild_card,2022.2.4,Win32,60.08532116,63d0234a81df5f9f9131e255,64d2fd46c836a06233681665,64dc7f41a2d5bf81038bcdf7,,,,,,,ctch,resources/DB.BMP,resources/DG.BMP,Door3,0.184181752,0.131636546,1,0,0,1.2621,optionRight,70,8100,4,16,0,16,0,1,,,,,,,,,,,,,,,,,,,,,,,,,,,,,,,,,,,,,,,
,,,,,,,,2023-08-16_08h49.31.394,HF_wild_card,2022.2.4,Win32,60.08532116,63d0234a81df5f9f9131e255,64d2fd46c836a06233681665,64dc7f41a2d5bf81038bcdf7,,,,,,,sngl,resources/DP.BMP,resources/Empty.png,Door4,-0.15955111,0.088943607,1,0,0,0.7782,optionLeft,60,8160,4,17,0,17,0,1,,,,,,,,,,,,,,,,,,,,,,,,,,,,,,,,,,,,,,,
,,,,,,,,2023-08-16_08h49.31.394,HF_wild_card,2022.2.4,Win32,60.08532116,63d0234a81df5f9f9131e255,64d2fd46c836a06233681665,64dc7f41a2d5bf81038bcdf7,,,,,,,decisionTrl,resources/DP.BMP,resources/DG.BMP,Door3,0.138204741,0.07909139,1,0,0,0.8291,optionRight,70,8230,4,18,0,18,0,1,,,,,,,,,,,,,,,,,,,,,,,,,,,,,,,,,,,,,,,
,,,,,,,,2023-08-16_08h49.31.394,HF_wild_card,2022.2.4,Win32,60.08532116,63d0234a81df5f9f9131e255,64d2fd46c836a06233681665,64dc7f41a2d5bf81038bcdf7,,,,,,,decisionTrl,resources/DP.BMP,resources/DG.BMP,Door3,0.130541872,0.114121511,1,0,0,0.8772,optionRight,70,8300,4,19,0,19,0,1,,,,,,,,,,,,,,,,,,,,,,,,,,,,,,,,,,,,,,,
,,,,,,,,2023-08-16_08h49.31.394,HF_wild_card,2022.2.4,Win32,60.08532116,63d0234a81df5f9f9131e255,64d2fd46c836a06233681665,64dc7f41a2d5bf81038bcdf7,,,,,,,sngl,resources/Empty.png,resources/DG.BMP,Door3,0.227969415,0.064860427,1,0,0,0.7126,optionRight,70,8370,4,20,0,20,0,1,,,,,,,,,,,,,,,,,,,,,,,,,,,,,,,,,,,,,,,
,,,,,,,,2023-08-16_08h49.31.394,HF_wild_card,2022.2.4,Win32,60.08532116,63d0234a81df5f9f9131e255,64d2fd46c836a06233681665,64dc7f41a2d5bf81038bcdf7,,,,,,,sngl,resources/DB.BMP,resources/Empty.png,Door2,-0.198960027,0.087848933,1,0,0,0.662,optionLeft,20,8390,4,21,0,21,0,1,,,,,,,,,,,,,,,,,,,,,,,,,,,,,,,,,,,,,,,
,,,,,,,,2023-08-16_08h49.31.394,HF_wild_card,2022.2.4,Win32,60.08532116,63d0234a81df5f9f9131e255,64d2fd46c836a06233681665,64dc7f41a2d5bf81038bcdf7,,,,,,,decisionTrl,resources/DG.BMP,resources/DP.BMP,Door3,-0.165024631,0.134920618,1,0,0,1.4774,optionLeft,70,8460,4,22,0,22,0,1,,,,,,,,,,,,,,,,,,,,,,,,,,,,,,,,,,,,,,,
,,,,,,,,2023-08-16_08h49.31.394,HF_wild_card,2022.2.4,Win32,60.08532116,63d0234a81df5f9f9131e255,64d2fd46c836a06233681665,64dc7f41a2d5bf81038bcdf7,,,,,,,decisionTrl,resources/DB.BMP,resources/DBN.BMP,Door1,0.142583537,0.134920618,1,0,0,3.4605,optionRight,30,8490,4,23,0,23,0,1,,,,,,,,,,,,,,,,,,,,,,,,,,,,,,,,,,,,,,,
,,,,,,,,2023-08-16_08h49.31.394,HF_wild_card,2022.2.4,Win32,60.08532116,63d0234a81df5f9f9131e255,64d2fd46c836a06233681665,64dc7f41a2d5bf81038bcdf7,,,,,,,ctch,resources/DBN.BMP,resources/DP.BMP,Door4,0.152435754,0.175424159,1,0,0,1.5774,optionRight,80,8570,4,24,0,24,0,1,,,,,,,,,,,,,,,,,,,,,,,,,,,,,,,,,,,,,,,
,,,,,,,,2023-08-16_08h49.31.394,HF_wild_card,2022.2.4,Win32,60.08532116,63d0234a81df5f9f9131e255,64d2fd46c836a06233681665,64dc7f41a2d5bf81038bcdf7,,,,,,,decisionTrl,resources/DB.BMP,resources/DBN.BMP,Door1,0.154625102,0.128352474,1,0,0,1.4609,optionRight,30,8600,4,25,0,25,0,1,,,,,,,,,,,,,,,,,,,,,,,,,,,,,,,,,,,,,,,
,,,,,,,,2023-08-16_08h49.31.394,HF_wild_card,2022.2.4,Win32,60.08532116,63d0234a81df5f9f9131e255,64d2fd46c836a06233681665,64dc7f41a2d5bf81038bcdf7,,,,,,,decisionTrl,resources/DBN.BMP,resources/DY.BMP,WildCard_NonEx,0.176518883,0.106458642,1,0,0,1.2607,optionRight,45,8645,4,26,0,26,0,1,,,,,,,,,,,,,,,,,,,,,,,,,,,,,,,,,,,,,,,
,,,,,,,,2023-08-16_08h49.31.394,HF_wild_card,2022.2.4,Win32,60.08532116,63d0234a81df5f9f9131e255,64d2fd46c836a06233681665,64dc7f41a2d5bf81038bcdf7,,,,,,,decisionTrl,resources/DBN.BMP,resources/DB.BMP,Door1,-0.193486557,0.16228787,1,0,0,1.1283,optionLeft,30,8675,4,27,0,27,0,1,,,,,,,,,,,,,,,,,,,,,,,,,,,,,,,,,,,,,,,
,,,,,,,,2023-08-16_08h49.31.394,HF_wild_card,2022.2.4,Win32,60.08532116,63d0234a81df5f9f9131e255,64d2fd46c836a06233681665,64dc7f41a2d5bf81038bcdf7,,,,,,,decisionTrl,resources/DB.BMP,resources/DY.BMP,WildCard_NonEx,0.184181752,0.126163076,1,0,0,1.3758,optionRight,55,8730,4,28,0,28,0,1,,,,,,,,,,,,,,,,,,,,,,,,,,,,,,,,,,,,,,,
,,,,,,,,2023-08-16_08h49.31.394,HF_wild_card,2022.2.4,Win32,60.08532116,63d0234a81df5f9f9131e255,64d2fd46c836a06233681665,64dc7f41a2d5bf81038bcdf7,,,,,,,decisionTrl,resources/DG.BMP,resources/DY.BMP,Door3,-0.197865353,0.118500257,1,0,0,1.1941,optionLeft,70,8800,4,29,0,29,0,1,,,,,,,,,,,,,,,,,,,,,,,,,,,,,,,,,,,,,,,
,,,,,,,,2023-08-16_08h49.31.394,HF_wild_card,2022.2.4,Win32,60.08532116,63d0234a81df5f9f9131e255,64d2fd46c836a06233681665,64dc7f41a2d5bf81038bcdf7,,,,,,,decisionTrl,resources/DB.BMP,resources/DBN.BMP,Door2,-0.150793617,0.1863711,1,0,0,2.294,optionLeft,40,8840,4,30,0,30,0,1,,,,,,,,,,,,,,,,,,,,,,,,,,,,,,,,,,,,,,,
,,,,,,,,2023-08-16_08h49.31.394,HF_wild_card,2022.2.4,Win32,60.08532116,63d0234a81df5f9f9131e255,64d2fd46c836a06233681665,64dc7f41a2d5bf81038bcdf7,,,,,,,sngl,resources/Empty.png,resources/DBN.BMP,Door1,0.187465824,0.063765703,1,0,0,0.8124,optionRight,30,8870,4,31,0,31,0,1,,,,,,,,,,,,,,,,,,,,,,,,,,,,,,,,,,,,,,,
,,,,,,,,2023-08-16_08h49.31.394,HF_wild_card,2022.2.4,Win32,60.08532116,63d0234a81df5f9f9131e255,64d2fd46c836a06233681665,64dc7f41a2d5bf81038bcdf7,,,,,,,decisionTrl,resources/DY.BMP,resources/DG.BMP,Door3,0.15681445,0.200602063,1,0,0,1.1447,optionRight,70,8940,4,32,0,32,0,1,,,,,,,,,,,,,,,,,,,,,,,,,,,,,,,,,,,,,,,
,,,,,,,,2023-08-16_08h49.31.394,HF_wild_card,2022.2.4,Win32,60.08532116,63d0234a81df5f9f9131e255,64d2fd46c836a06233681665,64dc7f41a2d5bf81038bcdf7,,,,,,,ctch,resources/DG.BMP,resources/DB.BMP,Door3,-0.192391883,0.146962233,1,0,0,1.0629,optionLeft,70,9010,4,33,0,33,0,1,,,,,,,,,,,,,,,,,,,,,,,,,,,,,,,,,,,,,,,
,,,,,,,,2023-08-16_08h49.31.394,HF_wild_card,2022.2.4,Win32,60.08532116,63d0234a81df5f9f9131e255,64d2fd46c836a06233681665,64dc7f41a2d5bf81038bcdf7,,,,,,,decisionTrl,resources/DP.BMP,resources/DY.BMP,Door4,-0.191297209,0.171045413,1,0,0,1.2949,optionLeft,60,9070,4,34,0,34,0,1,,,,,,,,,,,,,,,,,,,,,,,,,,,,,,,,,,,,,,,
,,,,,,,,2023-08-16_08h49.31.394,HF_wild_card,2022.2.4,Win32,60.08532116,63d0234a81df5f9f9131e255,64d2fd46c836a06233681665,64dc7f41a2d5bf81038bcdf7,,,,,,,decisionTrl,resources/DY.BMP,resources/DBN.BMP,WildCard_NonEx,-0.136562604,0.114121511,1,0,0,1.2105,optionLeft,45,9115,4,35,0,35,0,1,,,,,,,,,,,,,,,,,,,,,,,,,,,,,,,,,,,,,,,
,,,,,,,,2023-08-16_08h49.31.394,HF_wild_card,2022.2.4,Win32,60.08532116,63d0234a81df5f9f9131e255,64d2fd46c836a06233681665,64dc7f41a2d5bf81038bcdf7,,,,,,,decisionTrl,resources/DB.BMP,resources/DBN.BMP,Door2,-0.168308703,0.192939245,1,0,0,2.4278,optionLeft,40,9155,4,36,0,36,0,1,,,,,,,,,,,,,,,,,,,,,,,,,,,,,,,,,,,,,,,
,,,,,,,,2023-08-16_08h49.31.394,HF_wild_card,2022.2.4,Win32,60.08532116,63d0234a81df5f9f9131e255,64d2fd46c836a06233681665,64dc7f41a2d5bf81038bcdf7,,,,,,,sngl,resources/DY.BMP,resources/Empty.png,WildCard_NonEx,-0.204433498,0.141488763,1,0,0,0.6452,optionLeft,55,9210,4,37,0,37,0,1,,,,,,,,,,,,,,,,,,,,,,,,,,,,,,,,,,,,,,,
,,,,,,,,2023-08-16_08h49.31.394,HF_wild_card,2022.2.4,Win32,60.08532116,63d0234a81df5f9f9131e255,64d2fd46c836a06233681665,64dc7f41a2d5bf81038bcdf7,,,,,,,sngl,resources/Empty.png,resources/DP.BMP,Door4,0.199507389,0.071428571,1,0,0,0.8954,optionRight,80,9290,4,38,0,38,0,1,,,,,,,,,,,,,,,,,,,,,,,,,,,,,,,,,,,,,,,
,,,,,,,,2023-08-16_08h49.31.394,HF_wild_card,2022.2.4,Win32,60.08532116,63d0234a81df5f9f9131e255,64d2fd46c836a06233681665,64dc7f41a2d5bf81038bcdf7,,,,,,,decisionTrl,resources/DBN.BMP,resources/DB.BMP,Door1,-0.258073328,0.157909124,1,0,0,1.6782,optionLeft,30,9320,4,39,0,39,0,1,,,,,,,,,,,,,,,,,,,,,,,,,,,,,,,,,,,,,,,
,,,,,,,,2023-08-16_08h49.31.394,HF_wild_card,2022.2.4,Win32,60.08532116,63d0234a81df5f9f9131e255,64d2fd46c836a06233681665,64dc7f41a2d5bf81038bcdf7,,,,,,,sngl,resources/DY.BMP,resources/Empty.png,WildCard_NonEx,-0.124521039,0.087848933,1,0,0,0.6784,optionLeft,45,9365,4,40,0,40,0,1,,,,,,,,,,,,,,,,,,,,,,,,,,,,,,,,,,,,,,,
,,,,,,,,2023-08-16_08h49.31.394,HF_wild_card,2022.2.4,Win32,60.08532116,63d0234a81df5f9f9131e255,64d2fd46c836a06233681665,64dc7f41a2d5bf81038bcdf7,,,,,,,decisionTrl,resources/DBN.BMP,resources/DB.BMP,Door1,-0.18363434,0.155719726,1,0,0,0.9959,optionLeft,30,9395,4,41,0,41,0,1,,,,,,,,,,,,,,,,,,,,,,,,,,,,,,,,,,,,,,,
,,,,,,,,2023-08-16_08h49.31.394,HF_wild_card,2022.2.4,Win32,60.08532116,63d0234a81df5f9f9131e255,64d2fd46c836a06233681665,64dc7f41a2d5bf81038bcdf7,,,,,,,decisionTrl,resources/DG.BMP,resources/DP.BMP,Door3,-0.185823738,0.133825944,1,0,0,1.7951,optionLeft,70,9465,4,42,0,42,0,1,,,,,,,,,,,,,,,,,,,,,,,,,,,,,,,,,,,,,,,
,,,,,,,,2023-08-16_08h49.31.394,HF_wild_card,2022.2.4,Win32,60.08532116,63d0234a81df5f9f9131e255,64d2fd46c836a06233681665,64dc7f41a2d5bf81038bcdf7,,,,,,,sngl,resources/DG.BMP,resources/Empty.png,Door3,-0.230706076,0.114121511,1,0,0,1.2281,optionLeft,70,9535,4,43,0,43,0,1,,,,,,,,,,,,,,,,,,,,,,,,,,,,,,,,,,,,,,,
,,,,,,,,2023-08-16_08h49.31.394,HF_wild_card,2022.2.4,Win32,60.08532116,63d0234a81df5f9f9131e255,64d2fd46c836a06233681665,64dc7f41a2d5bf81038bcdf7,,,,,,,,,,,,,,,,,,,,,,,,,,3,0,3,0,1,,,,,,,,,,,,,,,,,,,,,,,,,,,,,,,,,,
,,,,,,,,2023-08-16_08h49.31.394,HF_wild_card,2022.2.4,Win32,60.08532116,63d0234a81df5f9f9131e255,64d2fd46c836a06233681665,64dc7f41a2d5bf81038bcdf7,,,,,,,decisionTrl,resources/DY.BMP,resources/DB.BMP,WildCard_NonEx,-0.198960027,0.105363968,1,0,0,1.5445,optionLeft,45,9580,5,0,0,0,0,1,,,,,,,,,,,,,,,,,,,,,,,,,,,,,,,,,,,,,,,
,,,,,,,,2023-08-16_08h49.31.394,HF_wild_card,2022.2.4,Win32,60.08532116,63d0234a81df5f9f9131e255,64d2fd46c836a06233681665,64dc7f41a2d5bf81038bcdf7,,,,,,,sngl,resources/Empty.png,resources/DG.BMP,Door3,0.185276476,-0.008483887,1,0,0,1.0908,optionRight,70,9650,5,1,0,1,0,1,,,,,,,,,,,,,,,,,,,,,,,,,,,,,,,,,,,,,,,
,,,,,,,,2023-08-16_08h49.31.394,HF_wild_card,2022.2.4,Win32,60.08532116,63d0234a81df5f9f9131e255,64d2fd46c836a06233681665,64dc7f41a2d5bf81038bcdf7,,,,,,,sngl,resources/DB.BMP,resources/Empty.png,Door2,-0.192391883,0.071428571,1,0,0,0.7941,optionLeft,40,9690,5,2,0,2,0,1,,,,,,,,,,,,,,,,,,,,,,,,,,,,,,,,,,,,,,,
,,,,,,,,2023-08-16_08h49.31.394,HF_wild_card,2022.2.4,Win32,60.08532116,63d0234a81df5f9f9131e255,64d2fd46c836a06233681665,64dc7f41a2d5bf81038bcdf7,,,,,,,ctch,resources/DP.BMP,resources/DBN.BMP,Door4,-0.198960027,0.122879003,1,0,0,0.9113,optionLeft,80,9770,5,3,0,3,0,1,,,,,,,,,,,,,,,,,,,,,,,,,,,,,,,,,,,,,,,
,,,,,,,,2023-08-16_08h49.31.394,HF_wild_card,2022.2.4,Win32,60.08532116,63d0234a81df5f9f9131e255,64d2fd46c836a06233681665,64dc7f41a2d5bf81038bcdf7,,,,,,,sngl,resources/DG.BMP,resources/Empty.png,Door3,-0.251505183,0.065955101,1,0,0,0.5769,optionLeft,70,9840,5,4,0,4,0,1,,,,,,,,,,,,,,,,,,,,,,,,,,,,,,,,,,,,,,,
,,,,,,,,2023-08-16_08h49.31.394,HF_wild_card,2022.2.4,Win32,60.08532116,63d0234a81df5f9f9131e255,64d2fd46c836a06233681665,64dc7f41a2d5bf81038bcdf7,,,,,,,decisionTrl,resources/DG.BMP,resources/DP.BMP,Door3,-0.193486557,0.150246305,1,0,0,1.3264,optionLeft,70,9910,5,5,0,5,0,1,,,,,,,,,,,,,,,,,,,,,,,,,,,,,,,,,,,,,,,
,,,,,,,,2023-08-16_08h49.31.394,HF_wild_card,2022.2.4,Win32,60.08532116,63d0234a81df5f9f9131e255,64d2fd46c836a06233681665,64dc7f41a2d5bf81038bcdf7,,,,,,,decisionTrl,resources/DY.BMP,resources/DP.BMP,Door4,0.174329535,0.139299365,1,0,0,1.2434,optionRight,80,9990,5,6,0,6,0,1,,,,,,,,,,,,,,,,,,,,,,,,,,,,,,,,,,,,,,,
,,,,,,,,2023-08-16_08h49.31.394,HF_wild_card,2022.2.4,Win32,60.08532116,63d0234a81df5f9f9131e255,64d2fd46c836a06233681665,64dc7f41a2d5bf81038bcdf7,,,,,,,decisionTrl,resources/DBN.BMP,resources/DY.BMP,WildCard_NonEx,0.172140187,0.082375462,1,0,0,1.1942,optionRight,55,10045,5,7,0,7,0,1,,,,,,,,,,,,,,,,,,,,,,,,,,,,,,,,,,,,,,,
,,,,,,,,2023-08-16_08h49.31.394,HF_wild_card,2022.2.4,Win32,60.08532116,63d0234a81df5f9f9131e255,64d2fd46c836a06233681665,64dc7f41a2d5bf81038bcdf7,,,,,,,decisionTrl,resources/DBN.BMP,resources/DB.BMP,Door1,-0.173782123,0.13273122,1,0,0,1.28,optionLeft,30,10075,5,8,0,8,0,1,,,,,,,,,,,,,,,,,,,,,,,,,,,,,,,,,,,,,,,
,,,,,,,,2023-08-16_08h49.31.394,HF_wild_card,2022.2.4,Win32,60.08532116,63d0234a81df5f9f9131e255,64d2fd46c836a06233681665,64dc7f41a2d5bf81038bcdf7,,,,,,,decisionTrl,resources/DBN.BMP,resources/DB.BMP,Door2,0.183087028,0.118500257,1,0,0,0.7405,optionRight,40,10115,5,9,0,9,0,1,,,,,,,,,,,,,,,,,,,,,,,,,,,,,,,,,,,,,,,
,,,,,,,,2023-08-16_08h49.31.394,HF_wild_card,2022.2.4,Win32,60.08532116,63d0234a81df5f9f9131e255,64d2fd46c836a06233681665,64dc7f41a2d5bf81038bcdf7,,,,,,,ctch,resources/DP.BMP,resources/DBN.BMP,Door4,-0.137657328,0.075807318,1,0,0,0.8525,optionLeft,60,10175,5,10,0,10,0,1,,,,,,,,,,,,,,,,,,,,,,,,,,,,,,,,,,,,,,,
,,,,,,,,2023-08-16_08h49.31.394,HF_wild_card,2022.2.4,Win32,60.08532116,63d0234a81df5f9f9131e255,64d2fd46c836a06233681665,64dc7f41a2d5bf81038bcdf7,,,,,,,decisionTrl,resources/DBN.BMP,resources/DB.BMP,Door2,0.175424259,0.155719726,1,0,0,1.2327,optionRight,40,10215,5,11,0,11,0,1,,,,,,,,,,,,,,,,,,,,,,,,,,,,,,,,,,,,,,,
,,,,,,,,2023-08-16_08h49.31.394,HF_wild_card,2022.2.4,Win32,60.08532116,63d0234a81df5f9f9131e255,64d2fd46c836a06233681665,64dc7f41a2d5bf81038bcdf7,,,,,,,decisionTrl,resources/DP.BMP,resources/DG.BMP,Door4,-0.132183908,0.074712644,1,0,0,0.9295,optionLeft,60,10275,5,12,0,12,0,1,,,,,,,,,,,,,,,,,,,,,,,,,,,,,,,,,,,,,,,
,,,,,,,,2023-08-16_08h49.31.394,HF_wild_card,2022.2.4,Win32,60.08532116,63d0234a81df5f9f9131e255,64d2fd46c836a06233681665,64dc7f41a2d5bf81038bcdf7,,,,,,,decisionTrl,resources/DP.BMP,resources/DG.BMP,Door3,0.188560548,0.102079896,1,0,0,0.6569,optionRight,70,10345,5,13,0,13,0,1,,,,,,,,,,,,,,,,,,,,,,,,,,,,,,,,,,,,,,,
,,,,,,,,2023-08-16_08h49.31.394,HF_wild_card,2022.2.4,Win32,60.08532116,63d0234a81df5f9f9131e255,64d2fd46c836a06233681665,64dc7f41a2d5bf81038bcdf7,,,,,,,decisionTrl,resources/DB.BMP,resources/DY.BMP,WildCard_NonEx,0.173234811,0.090038281,1,0,0,1.9224,optionRight,45,10390,5,14,0,14,0,1,,,,,,,,,,,,,,,,,,,,,,,,,,,,,,,,,,,,,,,
,,,,,,,,2023-08-16_08h49.31.394,HF_wild_card,2022.2.4,Win32,60.08532116,63d0234a81df5f9f9131e255,64d2fd46c836a06233681665,64dc7f41a2d5bf81038bcdf7,,,,,,,sngl,resources/DBN.BMP,resources/Empty.png,Door1,-0.121236967,0.067049775,1,0,0,0.654,optionLeft,30,10420,5,15,0,15,0,1,,,,,,,,,,,,,,,,,,,,,,,,,,,,,,,,,,,,,,,
,,,,,,,,2023-08-16_08h49.31.394,HF_wild_card,2022.2.4,Win32,60.08532116,63d0234a81df5f9f9131e255,64d2fd46c836a06233681665,64dc7f41a2d5bf81038bcdf7,,,,,,,decisionTrl,resources/DB.BMP,resources/DBN.BMP,Door2,-0.136562604,0.119594931,1,0,0,1.1606,optionLeft,40,10460,5,16,0,16,0,1,,,,,,,,,,,,,,,,,,,,,,,,,,,,,,,,,,,,,,,
,,,,,,,,2023-08-16_08h49.31.394,HF_wild_card,2022.2.4,Win32,60.08532116,63d0234a81df5f9f9131e255,64d2fd46c836a06233681665,64dc7f41a2d5bf81038bcdf7,,,,,,,sngl,resources/Empty.png,resources/DP.BMP,Door4,0.167761391,0.074712644,1,0,0,0.7285,optionRight,60,10520,5,17,0,17,0,1,,,,,,,,,,,,,,,,,,,,,,,,,,,,,,,,,,,,,,,
,,,,,,,,2023-08-16_08h49.31.394,HF_wild_card,2022.2.4,Win32,60.08532116,63d0234a81df5f9f9131e255,64d2fd46c836a06233681665,64dc7f41a2d5bf81038bcdf7,,,,,,,decisionTrl,resources/DB.BMP,resources/DBN.BMP,Door2,-0.138752053,0.07909139,1,0,0,0.9995,optionLeft,40,10560,5,18,0,18,0,1,,,,,,,,,,,,,,,,,,,,,,,,,,,,,,,,,,,,,,,
,,,,,,,,2023-08-16_08h49.31.394,HF_wild_card,2022.2.4,Win32,60.08532116,63d0234a81df5f9f9131e255,64d2fd46c836a06233681665,64dc7f41a2d5bf81038bcdf7,,,,,,,sngl,resources/Empty.png,resources/DB.BMP,Door2,0.136015392,0.065955101,1,0,0,0.6774,optionRight,20,10580,5,19,0,19,0,1,,,,,,,,,,,,,,,,,,,,,,,,,,,,,,,,,,,,,,,
,,,,,,,,2023-08-16_08h49.31.394,HF_wild_card,2022.2.4,Win32,60.08532116,63d0234a81df5f9f9131e255,64d2fd46c836a06233681665,64dc7f41a2d5bf81038bcdf7,,,,,,,decisionTrl,resources/DP.BMP,resources/DG.BMP,Door4,-0.185823738,0.099890498,1,0,0,1.0265,optionLeft,60,10640,5,20,0,20,0,1,,,,,,,,,,,,,,,,,,,,,,,,,,,,,,,,,,,,,,,
,,,,,,,,2023-08-16_08h49.31.394,HF_wild_card,2022.2.4,Win32,60.08532116,63d0234a81df5f9f9131e255,64d2fd46c836a06233681665,64dc7f41a2d5bf81038bcdf7,,,,,,,ctch,resources/DBN.BMP,resources/DP.BMP,Door4,0.237821632,0.119594931,1,0,0,0.84,optionRight,60,10700,5,21,0,21,0,1,,,,,,,,,,,,,,,,,,,,,,,,,,,,,,,,,,,,,,,
,,,,,,,,2023-08-16_08h49.31.394,HF_wild_card,2022.2.4,Win32,60.08532116,63d0234a81df5f9f9131e255,64d2fd46c836a06233681665,64dc7f41a2d5bf81038bcdf7,,,,,,,ctch,resources/DG.BMP,resources/DB.BMP,Door3,-0.163929906,0.114121511,1,0,0,0.6898,optionLeft,70,10770,5,22,0,22,0,1,,,,,,,,,,,,,,,,,,,,,,,,,,,,,,,,,,,,,,,
,,,,,,,,2023-08-16_08h49.31.394,HF_wild_card,2022.2.4,Win32,60.08532116,63d0234a81df5f9f9131e255,64d2fd46c836a06233681665,64dc7f41a2d5bf81038bcdf7,,,,,,,decisionTrl,resources/DB.BMP,resources/DBN.BMP,Door2,-0.137657328,0.152435654,1,0,0,1.2389,optionLeft,20,10790,5,23,0,23,0,1,,,,,,,,,,,,,,,,,,,,,,,,,,,,,,,,,,,,,,,
,,,,,,,,2023-08-16_08h49.31.394,HF_wild_card,2022.2.4,Win32,60.08532116,63d0234a81df5f9f9131e255,64d2fd46c836a06233681665,64dc7f41a2d5bf81038bcdf7,,,,,,,ctch,resources/DB.BMP,resources/DG.BMP,Door3,0.188560548,0.134920618,1,0,0,1.2634,optionRight,70,10860,5,24,0,24,0,1,,,,,,,,,,,,,,,,,,,,,,,,,,,,,,,,,,,,,,,
,,,,,,,,2023-08-16_08h49.31.394,HF_wild_card,2022.2.4,Win32,60.08532116,63d0234a81df5f9f9131e255,64d2fd46c836a06233681665,64dc7f41a2d5bf81038bcdf7,,,,,,,sngl,resources/Empty.png,resources/DBN.BMP,Door1,0.241105704,0.116310859,1,0,0,0.6106,optionRight,30,10890,5,25,0,25,0,1,,,,,,,,,,,,,,,,,,,,,,,,,,,,,,,,,,,,,,,
,,,,,,,,2023-08-16_08h49.31.394,HF_wild_card,2022.2.4,Win32,60.08532116,63d0234a81df5f9f9131e255,64d2fd46c836a06233681665,64dc7f41a2d5bf81038bcdf7,,,,,,,ctch,resources/DBN.BMP,resources/DP.BMP,Door4,0.1863711,0.160098522,1,0,0,1.4052,optionRight,80,10970,5,26,0,26,0,1,,,,,,,,,,,,,,,,,,,,,,,,,,,,,,,,,,,,,,,
,,,,,,,,2023-08-16_08h49.31.394,HF_wild_card,2022.2.4,Win32,60.08532116,63d0234a81df5f9f9131e255,64d2fd46c836a06233681665,64dc7f41a2d5bf81038bcdf7,,,,,,,decisionTrl,resources/DBN.BMP,resources/DB.BMP,Door2,0.214833126,0.174329485,1,0,0,1.5065,optionRight,40,11010,5,27,0,27,0,1,,,,,,,,,,,,,,,,,,,,,,,,,,,,,,,,,,,,,,,
,,,,,,,,2023-08-16_08h49.31.394,HF_wild_card,2022.2.4,Win32,60.08532116,63d0234a81df5f9f9131e255,64d2fd46c836a06233681665,64dc7f41a2d5bf81038bcdf7,,,,,,,sngl,resources/DP.BMP,resources/Empty.png,Door4,-0.170498051,0.068144499,1,0,0,0.6274,optionLeft,80,11090,5,28,0,28,0,1,,,,,,,,,,,,,,,,,,,,,,,,,,,,,,,,,,,,,,,
,,,,,,,,2023-08-16_08h49.31.394,HF_wild_card,2022.2.4,Win32,60.08532116,63d0234a81df5f9f9131e255,64d2fd46c836a06233681665,64dc7f41a2d5bf81038bcdf7,,,,,,,decisionTrl,resources/DG.BMP,resources/DP.BMP,Door3,-0.157361762,0.099890498,1,0,0,2.4485,optionLeft,70,11160,5,29,0,29,0,1,,,,,,,,,,,,,,,,,,,,,,,,,,,,,,,,,,,,,,,
,,,,,,,,2023-08-16_08h49.31.394,HF_wild_card,2022.2.4,Win32,60.08532116,63d0234a81df5f9f9131e255,64d2fd46c836a06233681665,64dc7f41a2d5bf81038bcdf7,,,,,,,sngl,resources/Empty.png,resources/DY.BMP,WildCard_NonEx,0.164477319,0.033114378,1,0,0,0.6616,optionRight,45,11205,5,30,0,30,0,1,,,,,,,,,,,,,,,,,,,,,,,,,,,,,,,,,,,,,,,
,,,,,,,,2023-08-16_08h49.31.394,HF_wild_card,2022.2.4,Win32,60.08532116,63d0234a81df5f9f9131e255,64d2fd46c836a06233681665,64dc7f41a2d5bf81038bcdf7,,,,,,,decisionTrl,resources/DP.BMP,resources/DG.BMP,Door4,-0.15955111,0.067049775,1,0,0,1.3408,optionLeft,60,11265,5,31,0,31,0,1,,,,,,,,,,,,,,,,,,,,,,,,,,,,,,,,,,,,,,,
,,,,,,,,2023-08-16_08h49.31.394,HF_wild_card,2022.2.4,Win32,60.08532116,63d0234a81df5f9f9131e255,64d2fd46c836a06233681665,64dc7f41a2d5bf81038bcdf7,,,,,,,ctch,resources/DG.BMP,resources/DB.BMP,Door3,-0.197865353,0.113026787,1,0,0,0.8286,optionLeft,70,11335,5,32,0,32,0,1,,,,,,,,,,,,,,,,,,,,,,,,,,,,,,,,,,,,,,,
,,,,,,,,2023-08-16_08h49.31.394,HF_wild_card,2022.2.4,Win32,60.08532116,63d0234a81df5f9f9131e255,64d2fd46c836a06233681665,64dc7f41a2d5bf81038bcdf7,,,,,,,decisionTrl,resources/DY.BMP,resources/DG.BMP,Door3,0.125068452,0.047345342,1,0,0,0.9628,optionRight,70,11405,5,33,0,33,0,1,,,,,,,,,,,,,,,,,,,,,,,,,,,,,,,,,,,,,,,
,,,,,,,,2023-08-16_08h49.31.394,HF_wild_card,2022.2.4,Win32,60.08532116,63d0234a81df5f9f9131e255,64d2fd46c836a06233681665,64dc7f41a2d5bf81038bcdf7,,,,,,,sngl,resources/DY.BMP,resources/Empty.png,WildCard_NonEx,-0.195675955,0.096606425,1,0,0,0.6019,optionLeft,45,11450,5,34,0,34,0,1,,,,,,,,,,,,,,,,,,,,,,,,,,,,,,,,,,,,,,,
,,,,,,,,2023-08-16_08h49.31.394,HF_wild_card,2022.2.4,Win32,60.08532116,63d0234a81df5f9f9131e255,64d2fd46c836a06233681665,64dc7f41a2d5bf81038bcdf7,,,,,,,decisionTrl,resources/DG.BMP,resources/DP.BMP,Door3,-0.188013136,0.092227679,1,0,0,3.0761,optionLeft,70,11520,5,35,0,35,0,1,,,,,,,,,,,,,,,,,,,,,,,,,,,,,,,,,,,,,,,
,,,,,,,,2023-08-16_08h49.31.394,HF_wild_card,2022.2.4,Win32,60.08532116,63d0234a81df5f9f9131e255,64d2fd46c836a06233681665,64dc7f41a2d5bf81038bcdf7,,,,,,,decisionTrl,resources/DP.BMP,resources/DY.BMP,Door4,-0.179255594,0.10317457,1,0,0,0.84,optionLeft,80,11600,5,36,0,36,0,1,,,,,,,,,,,,,,,,,,,,,,,,,,,,,,,,,,,,,,,
,,,,,,,,2023-08-16_08h49.31.394,HF_wild_card,2022.2.4,Win32,60.08532116,63d0234a81df5f9f9131e255,64d2fd46c836a06233681665,64dc7f41a2d5bf81038bcdf7,,,,,,,ctch,resources/DB.BMP,resources/DG.BMP,Door3,0.172140187,0.13820469,1,0,0,1.061,optionRight,70,11670,5,37,0,37,0,1,,,,,,,,,,,,,,,,,,,,,,,,,,,,,,,,,,,,,,,
,,,,,,,,2023-08-16_08h49.31.394,HF_wild_card,2022.2.4,Win32,60.08532116,63d0234a81df5f9f9131e255,64d2fd46c836a06233681665,64dc7f41a2d5bf81038bcdf7,,,,,,,decisionTrl,resources/DB.BMP,resources/DBN.BMP,Door2,-0.138752053,0.133825944,1,0,0,1.2741,optionLeft,40,11710,5,38,0,38,0,1,,,,,,,,,,,,,,,,,,,,,,,,,,,,,,,,,,,,,,,
,,,,,,,,2023-08-16_08h49.31.394,HF_wild_card,2022.2.4,Win32,60.08532116,63d0234a81df5f9f9131e255,64d2fd46c836a06233681665,64dc7f41a2d5bf81038bcdf7,,,,,,,sngl,resources/DY.BMP,resources/Empty.png,WildCard_NonEx,-0.17816092,0.048440066,1,0,0,0.5946,optionLeft,55,11765,5,39,0,39,0,1,,,,,,,,,,,,,,,,,,,,,,,,,,,,,,,,,,,,,,,
,,,,,,,,2023-08-16_08h49.31.394,HF_wild_card,2022.2.4,Win32,60.08532116,63d0234a81df5f9f9131e255,64d2fd46c836a06233681665,64dc7f41a2d5bf81038bcdf7,,,,,,,decisionTrl,resources/DY.BMP,resources/DBN.BMP,WildCard_NonEx,-0.171592775,0.102079896,1,0,0,0.8013,optionLeft,55,11820,5,40,0,40,0,1,,,,,,,,,,,,,,,,,,,,,,,,,,,,,,,,,,,,,,,
,,,,,,,,2023-08-16_08h49.31.394,HF_wild_card,2022.2.4,Win32,60.08532116,63d0234a81df5f9f9131e255,64d2fd46c836a06233681665,64dc7f41a2d5bf81038bcdf7,,,,,,,sngl,resources/Empty.png,resources/DY.BMP,WildCard_NonEx,0.150246305,0.037493125,1,0,0,0.6969,optionRight,55,11875,5,41,0,41,0,1,,,,,,,,,,,,,,,,,,,,,,,,,,,,,,,,,,,,,,,
,,,,,,,,2023-08-16_08h49.31.394,HF_wild_card,2022.2.4,Win32,60.08532116,63d0234a81df5f9f9131e255,64d2fd46c836a06233681665,64dc7f41a2d5bf81038bcdf7,,,,,,,decisionTrl,resources/DG.BMP,resources/DY.BMP,Door3,-0.175971521,0.064860427,1,0,0,0.9334,optionLeft,70,11945,5,42,0,42,0,1,,,,,,,,,,,,,,,,,,,,,,,,,,,,,,,,,,,,,,,
,,,,,,,,2023-08-16_08h49.31.394,HF_wild_card,2022.2.4,Win32,60.08532116,63d0234a81df5f9f9131e255,64d2fd46c836a06233681665,64dc7f41a2d5bf81038bcdf7,,,,,,,decisionTrl,resources/DG.BMP,resources/DP.BMP,Door4,0.161193246,0.060481631,1,0,0,2.2278,optionRight,60,12005,5,43,0,43,0,1,,,,,,,,,,,,,,,,,,,,,,,,,,,,,,,,,,,,,,,
,,,,,,,,2023-08-16_08h49.31.394,HF_wild_card,2022.2.4,Win32,60.08532116,63d0234a81df5f9f9131e255,64d2fd46c836a06233681665,64dc7f41a2d5bf81038bcdf7,,,,,,,,,,,,,,,,,,,,,,,,,,4,0,4,0,1,,,,,,,,,,,,,,,,,,,,,,,,,,,,,,,,,,
,,,,,,,,2023-08-16_08h49.31.394,HF_wild_card,2022.2.4,Win32,60.08532116,63d0234a81df5f9f9131e255,64d2fd46c836a06233681665,64dc7f41a2d5bf81038bcdf7,,,,,,,ctch,resources/DG.BMP,resources/DB.BMP,Door3,-0.165024631,0.07909139,1,0,0,1.4233,optionLeft,70,12075,6,0,0,0,0,1,,,,,,,,,,,,,,,,,,,,,,,,,,,,,,,,,,,,,,,
,,,,,,,,2023-08-16_08h49.31.394,HF_wild_card,2022.2.4,Win32,60.08532116,63d0234a81df5f9f9131e255,64d2fd46c836a06233681665,64dc7f41a2d5bf81038bcdf7,,,,,,,sngl,resources/Empty.png,resources/DB.BMP,Door2,0.196223317,0.046250667,1,0,0,0.5356,optionRight,40,12115,6,1,0,1,0,1,,,,,,,,,,,,,,,,,,,,,,,,,,,,,,,,,,,,,,,
,,,,,,,,2023-08-16_08h49.31.394,HF_wild_card,2022.2.4,Win32,60.08532116,63d0234a81df5f9f9131e255,64d2fd46c836a06233681665,64dc7f41a2d5bf81038bcdf7,,,,,,,decisionTrl,resources/DBN.BMP,resources/DB.BMP,Door2,0.15134103,0.075807318,1,0,0,1.2779,optionRight,20,12135,6,2,0,2,0,1,,,,,,,,,,,,,,,,,,,,,,,,,,,,,,,,,,,,,,,
,,,,,,,,2023-08-16_08h49.31.394,HF_wild_card,2022.2.4,Win32,60.08532116,63d0234a81df5f9f9131e255,64d2fd46c836a06233681665,64dc7f41a2d5bf81038bcdf7,,,,,,,decisionTrl,resources/DG.BMP,resources/DP.BMP,Door3,-0.123426315,0.064860427,1,0,0,0.9109,optionLeft,70,12205,6,3,0,3,0,1,,,,,,,,,,,,,,,,,,,,,,,,,,,,,,,,,,,,,,,
,,,,,,,,2023-08-16_08h49.31.394,HF_wild_card,2022.2.4,Win32,60.08532116,63d0234a81df5f9f9131e255,64d2fd46c836a06233681665,64dc7f41a2d5bf81038bcdf7,,,,,,,decisionTrl,resources/DB.BMP,resources/DY.BMP,WildCard_NonEx,0.18089768,0.080186064,1,0,0,1.1429,optionRight,55,12260,6,4,0,4,0,1,,,,,,,,,,,,,,,,,,,,,,,,,,,,,,,,,,,,,,,
,,,,,,,,2023-08-16_08h49.31.394,HF_wild_card,2022.2.4,Win32,60.08532116,63d0234a81df5f9f9131e255,64d2fd46c836a06233681665,64dc7f41a2d5bf81038bcdf7,,,,,,,sngl,resources/Empty.png,resources/DY.BMP,WildCard_NonEx,0.245484401,0.085659534,1,0,0,0.5943,optionRight,45,12305,6,5,0,5,0,1,,,,,,,,,,,,,,,,,,,,,,,,,,,,,,,,,,,,,,,
,,,,,,,,2023-08-16_08h49.31.394,HF_wild_card,2022.2.4,Win32,60.08532116,63d0234a81df5f9f9131e255,64d2fd46c836a06233681665,64dc7f41a2d5bf81038bcdf7,,,,,,,sngl,resources/Empty.png,resources/DG.BMP,Door3,0.231253488,0.071428571,1,0,0,0.6278,optionRight,70,12375,6,6,0,6,0,1,,,,,,,,,,,,,,,,,,,,,,,,,,,,,,,,,,,,,,,
,,,,,,,,2023-08-16_08h49.31.394,HF_wild_card,2022.2.4,Win32,60.08532116,63d0234a81df5f9f9131e255,64d2fd46c836a06233681665,64dc7f41a2d5bf81038bcdf7,,,,,,,decisionTrl,resources/DB.BMP,resources/DBN.BMP,Door2,-0.121236967,0.064860427,1,0,0,2.2772,optionLeft,20,12395,6,7,0,7,0,1,,,,,,,,,,,,,,,,,,,,,,,,,,,,,,,,,,,,,,,
,,,,,,,,2023-08-16_08h49.31.394,HF_wild_card,2022.2.4,Win32,60.08532116,63d0234a81df5f9f9131e255,64d2fd46c836a06233681665,64dc7f41a2d5bf81038bcdf7,,,,,,,ctch,resources/DB.BMP,resources/DG.BMP,Door3,0.15134103,0.015599343,1,0,0,1.1933,optionRight,70,12465,6,8,0,8,0,1,,,,,,,,,,,,,,,,,,,,,,,,,,,,,,,,,,,,,,,
,,,,,,,,2023-08-16_08h49.31.394,HF_wild_card,2022.2.4,Win32,60.08532116,63d0234a81df5f9f9131e255,64d2fd46c836a06233681665,64dc7f41a2d5bf81038bcdf7,,,,,,,decisionTrl,resources/DP.BMP,resources/DG.BMP,Door4,-0.145320197,0.046250667,1,0,0,1.1778,optionLeft,60,12525,6,9,0,9,0,1,,,,,,,,,,,,,,,,,,,,,,,,,,,,,,,,,,,,,,,
,,,,,,,,2023-08-16_08h49.31.394,HF_wild_card,2022.2.4,Win32,60.08532116,63d0234a81df5f9f9131e255,64d2fd46c836a06233681665,64dc7f41a2d5bf81038bcdf7,,,,,,,decisionTrl,resources/DP.BMP,resources/DG.BMP,Door3,0.191844621,0.045155993,1,0,0,0.5779,optionRight,70,12595,6,10,0,10,0,1,,,,,,,,,,,,,,,,,,,,,,,,,,,,,,,,,,,,,,,
,,,,,,,,2023-08-16_08h49.31.394,HF_wild_card,2022.2.4,Win32,60.08532116,63d0234a81df5f9f9131e255,64d2fd46c836a06233681665,64dc7f41a2d5bf81038bcdf7,,,,,,,decisionTrl,resources/DG.BMP,resources/DP.BMP,Door3,-0.155172414,0.056102884,1,0,0,0.7909,optionLeft,70,12665,6,11,0,11,0,1,,,,,,,,,,,,,,,,,,,,,,,,,,,,,,,,,,,,,,,
,,,,,,,,2023-08-16_08h49.31.394,HF_wild_card,2022.2.4,Win32,60.08532116,63d0234a81df5f9f9131e255,64d2fd46c836a06233681665,64dc7f41a2d5bf81038bcdf7,,,,,,,decisionTrl,resources/DY.BMP,resources/DG.BMP,Door3,0.16228797,0.047345342,1,0,0,1.1273,optionRight,70,12735,6,12,0,12,0,1,,,,,,,,,,,,,,,,,,,,,,,,,,,,,,,,,,,,,,,
,,,,,,,,2023-08-16_08h49.31.394,HF_wild_card,2022.2.4,Win32,60.08532116,63d0234a81df5f9f9131e255,64d2fd46c836a06233681665,64dc7f41a2d5bf81038bcdf7,,,,,,,decisionTrl,resources/DB.BMP,resources/DBN.BMP,Door2,-0.116858171,0.05500821,1,0,0,0.7459,optionLeft,20,12755,6,13,0,13,0,1,,,,,,,,,,,,,,,,,,,,,,,,,,,,,,,,,,,,,,,
,,,,,,,,2023-08-16_08h49.31.394,HF_wild_card,2022.2.4,Win32,60.08532116,63d0234a81df5f9f9131e255,64d2fd46c836a06233681665,64dc7f41a2d5bf81038bcdf7,,,,,,,sngl,resources/DP.BMP,resources/Empty.png,Door4,-0.170498051,0.046250667,1,0,0,0.5944,optionLeft,60,12815,6,14,0,14,0,1,,,,,,,,,,,,,,,,,,,,,,,,,,,,,,,,,,,,,,,
,,,,,,,,2023-08-16_08h49.31.394,HF_wild_card,2022.2.4,Win32,60.08532116,63d0234a81df5f9f9131e255,64d2fd46c836a06233681665,64dc7f41a2d5bf81038bcdf7,,,,,,,decisionTrl,resources/DB.BMP,resources/DBN.BMP,Door2,-0.137657328,0.106458642,1,0,0,1.7442,optionLeft,40,12855,6,15,0,15,0,1,,,,,,,,,,,,,,,,,,,,,,,,,,,,,,,,,,,,,,,
,,,,,,,,2023-08-16_08h49.31.394,HF_wild_card,2022.2.4,Win32,60.08532116,63d0234a81df5f9f9131e255,64d2fd46c836a06233681665,64dc7f41a2d5bf81038bcdf7,,,,,,,decisionTrl,resources/DP.BMP,resources/DY.BMP,Door4,-0.167213979,0.083470136,1,0,0,1.2747,optionLeft,80,12935,6,16,0,16,0,1,,,,,,,,,,,,,,,,,,,,,,,,,,,,,,,,,,,,,,,
,,,,,,,,2023-08-16_08h49.31.394,HF_wild_card,2022.2.4,Win32,60.08532116,63d0234a81df5f9f9131e255,64d2fd46c836a06233681665,64dc7f41a2d5bf81038bcdf7,,,,,,,decisionTrl,resources/DY.BMP,resources/DB.BMP,WildCard_NonEx,-0.167213979,0.093322353,1,0,0,1.6593,optionLeft,45,12980,6,17,0,17,0,1,,,,,,,,,,,,,,,,,,,,,,,,,,,,,,,,,,,,,,,
,,,,,,,,2023-08-16_08h49.31.394,HF_wild_card,2022.2.4,Win32,60.08532116,63d0234a81df5f9f9131e255,64d2fd46c836a06233681665,64dc7f41a2d5bf81038bcdf7,,,,,,,decisionTrl,resources/DBN.BMP,resources/DB.BMP,Door2,0.149151681,0.063765703,1,0,0,2.1431,optionRight,40,13020,6,18,0,18,0,1,,,,,,,,,,,,,,,,,,,,,,,,,,,,,,,,,,,,,,,
,,,,,,,,2023-08-16_08h49.31.394,HF_wild_card,2022.2.4,Win32,60.08532116,63d0234a81df5f9f9131e255,64d2fd46c836a06233681665,64dc7f41a2d5bf81038bcdf7,,,,,,,decisionTrl,resources/DY.BMP,resources/DBN.BMP,WildCard_NonEx,-0.195675955,0.094417077,1,0,0,0.7461,optionLeft,55,13075,6,19,0,19,0,1,,,,,,,,,,,,,,,,,,,,,,,,,,,,,,,,,,,,,,,
,,,,,,,,2023-08-16_08h49.31.394,HF_wild_card,2022.2.4,Win32,60.08532116,63d0234a81df5f9f9131e255,64d2fd46c836a06233681665,64dc7f41a2d5bf81038bcdf7,,,,,,,decisionTrl,resources/DBN.BMP,resources/DB.BMP,Door2,0.34181722,0.058292282,1,0,0,3.6749,optionRight,20,13095,6,20,0,20,0,1,,,,,,,,,,,,,,,,,,,,,,,,,,,,,,,,,,,,,,,
,,,,,,,,2023-08-16_08h49.31.394,HF_wild_card,2022.2.4,Win32,60.08532116,63d0234a81df5f9f9131e255,64d2fd46c836a06233681665,64dc7f41a2d5bf81038bcdf7,,,,,,,sngl,resources/DB.BMP,resources/Empty.png,Door2,-0.190202484,0.05500821,1,0,0,0.8976,optionLeft,20,13115,6,21,0,21,0,1,,,,,,,,,,,,,,,,,,,,,,,,,,,,,,,,,,,,,,,
,,,,,,,,2023-08-16_08h49.31.394,HF_wild_card,2022.2.4,Win32,60.08532116,63d0234a81df5f9f9131e255,64d2fd46c836a06233681665,64dc7f41a2d5bf81038bcdf7,,,,,,,decisionTrl,resources/DBN.BMP,resources/DB.BMP,Door1,-0.172687449,0.085659534,1,0,0,1.9932,optionLeft,30,13145,6,22,0,22,0,1,,,,,,,,,,,,,,,,,,,,,,,,,,,,,,,,,,,,,,,
,,,,,,,,2023-08-16_08h49.31.394,HF_wild_card,2022.2.4,Win32,60.08532116,63d0234a81df5f9f9131e255,64d2fd46c836a06233681665,64dc7f41a2d5bf81038bcdf7,,,,,,,sngl,resources/DG.BMP,resources/Empty.png,Door3,-0.216475062,0.032019704,1,0,0,0.5752,optionLeft,70,13215,6,23,0,23,0,1,,,,,,,,,,,,,,,,,,,,,,,,,,,,,,,,,,,,,,,
,,,,,,,,2023-08-16_08h49.31.394,HF_wild_card,2022.2.4,Win32,60.08532116,63d0234a81df5f9f9131e255,64d2fd46c836a06233681665,64dc7f41a2d5bf81038bcdf7,,,,,,,decisionTrl,resources/DG.BMP,resources/DP.BMP,Door3,-0.149698893,0.069239173,1,0,0,2.5113,optionLeft,70,13285,6,24,0,24,0,1,,,,,,,,,,,,,,,,,,,,,,,,,,,,,,,,,,,,,,,
,,,,,,,,2023-08-16_08h49.31.394,HF_wild_card,2022.2.4,Win32,60.08532116,63d0234a81df5f9f9131e255,64d2fd46c836a06233681665,64dc7f41a2d5bf81038bcdf7,,,,,,,sngl,resources/DY.BMP,resources/Empty.png,WildCard_NonEx,-0.191297209,0.056102884,1,0,0,1.081,optionLeft,45,13330,6,25,0,25,0,1,,,,,,,,,,,,,,,,,,,,,,,,,,,,,,,,,,,,,,,
,,,,,,,,2023-08-16_08h49.31.394,HF_wild_card,2022.2.4,Win32,60.08532116,63d0234a81df5f9f9131e255,64d2fd46c836a06233681665,64dc7f41a2d5bf81038bcdf7,,,,,,,decisionTrl,resources/DP.BMP,resources/DG.BMP,Door3,0.166666667,0.080186064,1,0,0,1.577,optionRight,70,13400,6,26,0,26,0,1,,,,,,,,,,,,,,,,,,,,,,,,,,,,,,,,,,,,,,,
,,,,,,,,2023-08-16_08h49.31.394,HF_wild_card,2022.2.4,Win32,60.08532116,63d0234a81df5f9f9131e255,64d2fd46c836a06233681665,64dc7f41a2d5bf81038bcdf7,,,,,,,decisionTrl,resources/DBN.BMP,resources/DY.BMP,WildCard_NonEx,0.190749897,0.046250667,1,0,0,0.9629,optionRight,55,13455,6,27,0,27,0,1,,,,,,,,,,,,,,,,,,,,,,,,,,,,,,,,,,,,,,,
,,,,,,,,2023-08-16_08h49.31.394,HF_wild_card,2022.2.4,Win32,60.08532116,63d0234a81df5f9f9131e255,64d2fd46c836a06233681665,64dc7f41a2d5bf81038bcdf7,,,,,,,ctch,resources/DBN.BMP,resources/DP.BMP,Door4,0.221401271,0.056102884,1,0,0,1.2435,optionRight,80,13535,6,28,0,28,0,1,,,,,,,,,,,,,,,,,,,,,,,,,,,,,,,,,,,,,,,
,,,,,,,,2023-08-16_08h49.31.394,HF_wild_card,2022.2.4,Win32,60.08532116,63d0234a81df5f9f9131e255,64d2fd46c836a06233681665,64dc7f41a2d5bf81038bcdf7,,,,,,,decisionTrl,resources/DB.BMP,resources/DBN.BMP,Door2,-0.198960027,0.036398451,1,0,0,1.4105,optionLeft,40,13575,6,29,0,29,0,1,,,,,,,,,,,,,,,,,,,,,,,,,,,,,,,,,,,,,,,
,,,,,,,,2023-08-16_08h49.31.394,HF_wild_card,2022.2.4,Win32,60.08532116,63d0234a81df5f9f9131e255,64d2fd46c836a06233681665,64dc7f41a2d5bf81038bcdf7,,,,,,,ctch,resources/DB.BMP,resources/DG.BMP,Door3,0.206075534,0.052818812,1,0,0,0.7112,optionRight,70,13645,6,30,0,30,0,1,,,,,,,,,,,,,,,,,,,,,,,,,,,,,,,,,,,,,,,
,,,,,,,,2023-08-16_08h49.31.394,HF_wild_card,2022.2.4,Win32,60.08532116,63d0234a81df5f9f9131e255,64d2fd46c836a06233681665,64dc7f41a2d5bf81038bcdf7,,,,,,,decisionTrl,resources/DG.BMP,resources/DY.BMP,Door3,-0.18910781,0.029830306,1,0,0,0.7588,optionLeft,70,13715,6,31,0,31,0,1,,,,,,,,,,,,,,,,,,,,,,,,,,,,,,,,,,,,,,,
,,,,,,,,2023-08-16_08h49.31.394,HF_wild_card,2022.2.4,Win32,60.08532116,63d0234a81df5f9f9131e255,64d2fd46c836a06233681665,64dc7f41a2d5bf81038bcdf7,,,,,,,ctch,resources/DBN.BMP,resources/DP.BMP,Door4,0.200602113,0.021072764,1,0,0,0.7968,optionRight,80,13795,6,32,0,32,0,1,,,,,,,,,,,,,,,,,,,,,,,,,,,,,,,,,,,,,,,
,,,,,,,,2023-08-16_08h49.31.394,HF_wild_card,2022.2.4,Win32,60.08532116,63d0234a81df5f9f9131e255,64d2fd46c836a06233681665,64dc7f41a2d5bf81038bcdf7,,,,,,,sngl,resources/Empty.png,resources/DBN.BMP,Door1,0.185276476,0.023262162,1,0,0,0.5766,optionRight,30,13825,6,33,0,33,0,1,,,,,,,,,,,,,,,,,,,,,,,,,,,,,,,,,,,,,,,
,,,,,,,,2023-08-16_08h49.31.394,HF_wild_card,2022.2.4,Win32,60.08532116,63d0234a81df5f9f9131e255,64d2fd46c836a06233681665,64dc7f41a2d5bf81038bcdf7,,,,,,,decisionTrl,resources/DG.BMP,resources/DP.BMP,Door3,-0.21319099,-0.07635468,1,0,0,1.5286,optionLeft,70,13895,6,34,0,34,0,1,,,,,,,,,,,,,,,,,,,,,,,,,,,,,,,,,,,,,,,
,,,,,,,,2023-08-16_08h49.31.394,HF_wild_card,2022.2.4,Win32,60.08532116,63d0234a81df5f9f9131e255,64d2fd46c836a06233681665,64dc7f41a2d5bf81038bcdf7,,,,,,,sngl,resources/DY.BMP,resources/Empty.png,WildCard_NonEx,-0.208812244,-0.086206897,1,0,0,1.3959,optionLeft,55,13950,6,35,0,35,0,1,,,,,,,,,,,,,,,,,,,,,,,,,,,,,,,,,,,,,,,
,,,,,,,,2023-08-16_08h49.31.394,HF_wild_card,2022.2.4,Win32,60.08532116,63d0234a81df5f9f9131e255,64d2fd46c836a06233681665,64dc7f41a2d5bf81038bcdf7,,,,,,,sngl,resources/DBN.BMP,resources/Empty.png,Door1,-0.179255594,0.036398451,1,0,0,0.9957,optionLeft,30,13980,6,36,0,36,0,1,,,,,,,,,,,,,,,,,,,,,,,,,,,,,,,,,,,,,,,
,,,,,,,,2023-08-16_08h49.31.394,HF_wild_card,2022.2.4,Win32,60.08532116,63d0234a81df5f9f9131e255,64d2fd46c836a06233681665,64dc7f41a2d5bf81038bcdf7,,,,,,,ctch,resources/DP.BMP,resources/DBN.BMP,Door4,-0.166119305,0.034209053,1,0,0,0.7274,optionLeft,60,14040,6,37,0,37,0,1,,,,,,,,,,,,,,,,,,,,,,,,,,,,,,,,,,,,,,,
,,,,,,,,2023-08-16_08h49.31.394,HF_wild_card,2022.2.4,Win32,60.08532116,63d0234a81df5f9f9131e255,64d2fd46c836a06233681665,64dc7f41a2d5bf81038bcdf7,,,,,,,decisionTrl,resources/DY.BMP,resources/DP.BMP,Door4,0.23453756,0.059386956,1,0,0,1.5722,optionRight,80,14120,6,38,0,38,0,1,,,,,,,,,,,,,,,,,,,,,,,,,,,,,,,,,,,,,,,
,,,,,,,,2023-08-16_08h49.31.394,HF_wild_card,2022.2.4,Win32,60.08532116,63d0234a81df5f9f9131e255,64d2fd46c836a06233681665,64dc7f41a2d5bf81038bcdf7,,,,,,,sngl,resources/Empty.png,resources/DY.BMP,WildCard_NonEx,0.222495895,0.019978089,1,0,0,0.9809,optionRight,55,14175,6,39,0,39,0,1,,,,,,,,,,,,,,,,,,,,,,,,,,,,,,,,,,,,,,,
,,,,,,,,2023-08-16_08h49.31.394,HF_wild_card,2022.2.4,Win32,60.08532116,63d0234a81df5f9f9131e255,64d2fd46c836a06233681665,64dc7f41a2d5bf81038bcdf7,,,,,,,ctch,resources/DG.BMP,resources/DB.BMP,Door3,-0.204433498,0.059386956,1,0,0,3.4273,optionLeft,70,14245,6,40,0,40,0,1,,,,,,,,,,,,,,,,,,,,,,,,,,,,,,,,,,,,,,,
,,,,,,,,2023-08-16_08h49.31.394,HF_wild_card,2022.2.4,Win32,60.08532116,63d0234a81df5f9f9131e255,64d2fd46c836a06233681665,64dc7f41a2d5bf81038bcdf7,,,,,,,decisionTrl,resources/DP.BMP,resources/DG.BMP,Door4,-0.156267038,0.010125873,1,0,0,1.2151,optionLeft,60,14305,6,41,0,41,0,1,,,,,,,,,,,,,,,,,,,,,,,,,,,,,,,,,,,,,,,
,,,,,,,,2023-08-16_08h49.31.394,HF_wild_card,2022.2.4,Win32,60.08532116,63d0234a81df5f9f9131e255,64d2fd46c836a06233681665,64dc7f41a2d5bf81038bcdf7,,,,,,,sngl,resources/Empty.png,resources/DP.BMP,Door4,0.233442836,-0.018336103,1,0,0,0.6831,optionRight,80,14385,6,42,0,42,0,1,,,,,,,,,,,,,,,,,,,,,,,,,,,,,,,,,,,,,,,
,,,,,,,,2023-08-16_08h49.31.394,HF_wild_card,2022.2.4,Win32,60.08532116,63d0234a81df5f9f9131e255,64d2fd46c836a06233681665,64dc7f41a2d5bf81038bcdf7,,,,,,,ctch,resources/DP.BMP,resources/DBN.BMP,Door4,-0.12999446,0.032019704,1,0,0,1.105,optionLeft,60,14445,6,43,0,43,0,1,,,,,,,,,,,,,,,,,,,,,,,,,,,,,,,,,,,,,,,
,,,,,,,,2023-08-16_08h49.31.394,HF_wild_card,2022.2.4,Win32,60.08532116,63d0234a81df5f9f9131e255,64d2fd46c836a06233681665,64dc7f41a2d5bf81038bcdf7,,,,,,,,,,,,,,,,,,,,,,,,,,5,0,5,0,1,,,,,,,,,,,,,,,,,,,,,,,,,,,,,,,,,,
,,,,,,,,2023-08-16_08h49.31.394,HF_wild_card,2022.2.4,Win32,60.08532116,63d0234a81df5f9f9131e255,64d2fd46c836a06233681665,64dc7f41a2d5bf81038bcdf7,,,,,,,ctch,resources/DB.BMP,resources/DG.BMP,Door3,0.209359606,0.109742714,1,0,0,0.8602,optionRight,70,14515,7,0,0,0,0,1,,,,,,,,,,,,,,,,,,,,,,,,,,,,,,,,,,,,,,,
,,,,,,,,2023-08-16_08h49.31.394,HF_wild_card,2022.2.4,Win32,60.08532116,63d0234a81df5f9f9131e255,64d2fd46c836a06233681665,64dc7f41a2d5bf81038bcdf7,,,,,,,decisionTrl,resources/DG.BMP,resources/DP.BMP,Door3,-0.13546798,0.011220547,1,0,0,1.0102,optionLeft,70,14585,7,1,0,1,0,1,,,,,,,,,,,,,,,,,,,,,,,,,,,,,,,,,,,,,,,
,,,,,,,,2023-08-16_08h49.31.394,HF_wild_card,2022.2.4,Win32,60.08532116,63d0234a81df5f9f9131e255,64d2fd46c836a06233681665,64dc7f41a2d5bf81038bcdf7,,,,,,,decisionTrl,resources/DP.BMP,resources/DG.BMP,Door3,0.150246305,0.017788691,1,0,0,0.8138,optionRight,70,14655,7,2,0,2,0,1,,,,,,,,,,,,,,,,,,,,,,,,,,,,,,,,,,,,,,,
,,,,,,,,2023-08-16_08h49.31.394,HF_wild_card,2022.2.4,Win32,60.08532116,63d0234a81df5f9f9131e255,64d2fd46c836a06233681665,64dc7f41a2d5bf81038bcdf7,,,,,,,ctch,resources/DBN.BMP,resources/DP.BMP,Door4,0.141488813,0.019978089,1,0,0,0.9643,optionRight,60,14715,7,3,0,3,0,1,,,,,,,,,,,,,,,,,,,,,,,,,,,,,,,,,,,,,,,
,,,,,,,,2023-08-16_08h49.31.394,HF_wild_card,2022.2.4,Win32,60.08532116,63d0234a81df5f9f9131e255,64d2fd46c836a06233681665,64dc7f41a2d5bf81038bcdf7,,,,,,,ctch,resources/DBN.BMP,resources/DP.BMP,Door4,0.166666667,0.016694017,1,0,0,0.7487,optionRight,80,14795,7,4,0,4,0,1,,,,,,,,,,,,,,,,,,,,,,,,,,,,,,,,,,,,,,,
,,,,,,,,2023-08-16_08h49.31.394,HF_wild_card,2022.2.4,Win32,60.08532116,63d0234a81df5f9f9131e255,64d2fd46c836a06233681665,64dc7f41a2d5bf81038bcdf7,,,,,,,decisionTrl,resources/DG.BMP,resources/DP.BMP,Door4,0.237821632,0.011220547,1,0,0,0.6646,optionRight,60,14855,7,5,0,5,0,1,,,,,,,,,,,,,,,,,,,,,,,,,,,,,,,,,,,,,,,
,,,,,,,,2023-08-16_08h49.31.394,HF_wild_card,2022.2.4,Win32,60.08532116,63d0234a81df5f9f9131e255,64d2fd46c836a06233681665,64dc7f41a2d5bf81038bcdf7,,,,,,,ctch,resources/DB.BMP,resources/DG.BMP,Door3,0.125068452,-0.001915742,1,0,0,0.9634,optionRight,70,14925,7,6,0,6,0,1,,,,,,,,,,,,,,,,,,,,,,,,,,,,,,,,,,,,,,,
,,,,,,,,2023-08-16_08h49.31.394,HF_wild_card,2022.2.4,Win32,60.08532116,63d0234a81df5f9f9131e255,64d2fd46c836a06233681665,64dc7f41a2d5bf81038bcdf7,,,,,,,ctch,resources/DG.BMP,resources/DB.BMP,Door3,-0.11138475,0.012315271,1,0,0,0.747,optionLeft,70,14995,7,7,0,7,0,1,,,,,,,,,,,,,,,,,,,,,,,,,,,,,,,,,,,,,,,
,,,,,,,,2023-08-16_08h49.31.394,HF_wild_card,2022.2.4,Win32,60.08532116,63d0234a81df5f9f9131e255,64d2fd46c836a06233681665,64dc7f41a2d5bf81038bcdf7,,,,,,,decisionTrl,resources/DB.BMP,resources/DBN.BMP,Door2,-0.155172414,0.037493125,1,0,0,0.7966,optionLeft,20,15015,7,8,0,8,0,1,,,,,,,,,,,,,,,,,,,,,,,,,,,,,,,,,,,,,,,
,,,,,,,,2023-08-16_08h49.31.394,HF_wild_card,2022.2.4,Win32,60.08532116,63d0234a81df5f9f9131e255,64d2fd46c836a06233681665,64dc7f41a2d5bf81038bcdf7,,,,,,,decisionTrl,resources/DBN.BMP,resources/DB.BMP,Door1,-0.185823738,0.038587849,1,0,0,1.5975,optionLeft,30,15045,7,9,0,9,0,1,,,,,,,,,,,,,,,,,,,,,,,,,,,,,,,,,,,,,,,
,,,,,,,,2023-08-16_08h49.31.394,HF_wild_card,2022.2.4,Win32,60.08532116,63d0234a81df5f9f9131e255,64d2fd46c836a06233681665,64dc7f41a2d5bf81038bcdf7,,,,,,,ctch,resources/DBN.BMP,resources/DP.BMP,Door4,0.171045463,0.065955101,1,0,0,1.2474,optionRight,80,15125,7,10,0,10,0,1,,,,,,,,,,,,,,,,,,,,,,,,,,,,,,,,,,,,,,,
,,,,,,,,2023-08-16_08h49.31.394,HF_wild_card,2022.2.4,Win32,60.08532116,63d0234a81df5f9f9131e255,64d2fd46c836a06233681665,64dc7f41a2d5bf81038bcdf7,,,,,,,ctch,resources/DG.BMP,resources/DB.BMP,Door3,-0.150793617,0.005747126,1,0,0,0.8798,optionLeft,70,15195,7,11,0,11,0,1,,,,,,,,,,,,,,,,,,,,,,,,,,,,,,,,,,,,,,,
,,,,,,,,2023-08-16_08h49.31.394,HF_wild_card,2022.2.4,Win32,60.08532116,63d0234a81df5f9f9131e255,64d2fd46c836a06233681665,64dc7f41a2d5bf81038bcdf7,,,,,,,decisionTrl,resources/DB.BMP,resources/DBN.BMP,Door2,-0.099343186,0.038587849,1,0,0,3.2631,optionLeft,40,15235,7,12,0,12,0,1,,,,,,,,,,,,,,,,,,,,,,,,,,,,,,,,,,,,,,,
,,,,,,,,2023-08-16_08h49.31.394,HF_wild_card,2022.2.4,Win32,60.08532116,63d0234a81df5f9f9131e255,64d2fd46c836a06233681665,64dc7f41a2d5bf81038bcdf7,,,,,,,decisionTrl,resources/DB.BMP,resources/DBN.BMP,Door2,-0.171592775,0.028735632,1,0,0,0.8477,optionLeft,40,15275,7,13,0,13,0,1,,,,,,,,,,,,,,,,,,,,,,,,,,,,,,,,,,,,,,,
,,,,,,,,2023-08-16_08h49.31.394,HF_wild_card,2022.2.4,Win32,60.08532116,63d0234a81df5f9f9131e255,64d2fd46c836a06233681665,64dc7f41a2d5bf81038bcdf7,,,,,,,decisionTrl,resources/DBN.BMP,resources/DB.BMP,Door2,0.191844621,0.076901992,1,0,0,2.5128,optionRight,40,15315,7,14,0,14,0,1,,,,,,,,,,,,,,,,,,,,,,,,,,,,,,,,,,,,,,,
,,,,,,,,2023-08-16_08h49.31.394,HF_wild_card,2022.2.4,Win32,60.08532116,63d0234a81df5f9f9131e255,64d2fd46c836a06233681665,64dc7f41a2d5bf81038bcdf7,,,,,,,decisionTrl,resources/DP.BMP,resources/DG.BMP,Door3,0.1272578,0.00136833,1,0,0,1.3469,optionRight,70,15385,7,15,0,15,0,1,,,,,,,,,,,,,,,,,,,,,,,,,,,,,,,,,,,,,,,
,,,,,,,,2023-08-16_08h49.31.394,HF_wild_card,2022.2.4,Win32,60.08532116,63d0234a81df5f9f9131e255,64d2fd46c836a06233681665,64dc7f41a2d5bf81038bcdf7,,,,,,,ctch,resources/DP.BMP,resources/DBN.BMP,Door4,-0.165024631,0.040777197,1,0,0,1.0478,optionLeft,80,15465,7,16,0,16,0,1,,,,,,,,,,,,,,,,,,,,,,,,,,,,,,,,,,,,,,,
,,,,,,,,2023-08-16_08h49.31.394,HF_wild_card,2022.2.4,Win32,60.08532116,63d0234a81df5f9f9131e255,64d2fd46c836a06233681665,64dc7f41a2d5bf81038bcdf7,,,,,,,ctch,resources/DP.BMP,resources/DBN.BMP,Door4,-0.150793617,0.016694017,1,0,0,1.0324,optionLeft,80,15545,7,17,0,17,0,1,,,,,,,,,,,,,,,,,,,,,,,,,,,,,,,,,,,,,,,
,,,,,,,,2023-08-16_08h49.31.394,HF_wild_card,2022.2.4,Win32,60.08532116,63d0234a81df5f9f9131e255,64d2fd46c836a06233681665,64dc7f41a2d5bf81038bcdf7,,,,,,,decisionTrl,resources/DG.BMP,resources/DP.BMP,Door3,-0.180350268,0.023262162,1,0,0,1.078,optionLeft,70,15615,7,18,0,18,0,1,,,,,,,,,,,,,,,,,,,,,,,,,,,,,,,,,,,,,,,
,,,,,,,,2023-08-16_08h49.31.394,HF_wild_card,2022.2.4,Win32,60.08532116,63d0234a81df5f9f9131e255,64d2fd46c836a06233681665,64dc7f41a2d5bf81038bcdf7,,,,,,,decisionTrl,resources/DP.BMP,resources/DG.BMP,Door3,0.13273132,0.019978089,1,0,0,1.2911,optionRight,70,15685,7,19,0,19,0,1,,,,,,,,,,,,,,,,,,,,,,,,,,,,,,,,,,,,,,,
,,,,,,,,2023-08-16_08h49.31.394,HF_wild_card,2022.2.4,Win32,60.08532116,63d0234a81df5f9f9131e255,64d2fd46c836a06233681665,64dc7f41a2d5bf81038bcdf7,,,,,,,decisionTrl,resources/DP.BMP,resources/DG.BMP,Door3,0.199507389,0.02545156,1,0,0,0.7541,optionRight,70,15755,7,20,0,20,0,1,,,,,,,,,,,,,,,,,,,,,,,,,,,,,,,,,,,,,,,
,,,,,,,,2023-08-16_08h49.31.394,HF_wild_card,2022.2.4,Win32,60.08532116,63d0234a81df5f9f9131e255,64d2fd46c836a06233681665,64dc7f41a2d5bf81038bcdf7,,,,,,,decisionTrl,resources/DB.BMP,resources/DBN.BMP,Door2,-0.145320197,-0.006294489,1,0,0,1.0104,optionLeft,40,15795,7,21,0,21,0,1,,,,,,,,,,,,,,,,,,,,,,,,,,,,,,,,,,,,,,,
,,,,,,,,2023-08-16_08h49.31.394,HF_wild_card,2022.2.4,Win32,60.08532116,63d0234a81df5f9f9131e255,64d2fd46c836a06233681665,64dc7f41a2d5bf81038bcdf7,,,,,,,decisionTrl,resources/DP.BMP,resources/DG.BMP,Door3,0.177613608,0.013409945,1,0,0,0.631,optionRight,70,15865,7,22,0,22,0,1,,,,,,,,,,,,,,,,,,,,,,,,,,,,,,,,,,,,,,,
,,,,,,,,2023-08-16_08h49.31.394,HF_wild_card,2022.2.4,Win32,60.08532116,63d0234a81df5f9f9131e255,64d2fd46c836a06233681665,64dc7f41a2d5bf81038bcdf7,,,,,,,decisionTrl,resources/DBN.BMP,resources/DB.BMP,Door2,0.138204741,0.067049775,1,0,0,1.5623,optionRight,40,15905,7,23,0,23,0,1,,,,,,,,,,,,,,,,,,,,,,,,,,,,,,,,,,,,,,,
,,,,,,,,2023-08-16_08h49.31.394,HF_wild_card,2022.2.4,Win32,60.08532116,63d0234a81df5f9f9131e255,64d2fd46c836a06233681665,64dc7f41a2d5bf81038bcdf7,,,,,,,ctch,resources/DB.BMP,resources/DG.BMP,Door3,0.15681445,0.036398451,1,0,0,0.6462,optionRight,70,15975,7,24,0,24,0,1,,,,,,,,,,,,,,,,,,,,,,,,,,,,,,,,,,,,,,,
,,,,,,,,2023-08-16_08h49.31.394,HF_wild_card,2022.2.4,Win32,60.08532116,63d0234a81df5f9f9131e255,64d2fd46c836a06233681665,64dc7f41a2d5bf81038bcdf7,,,,,,,decisionTrl,resources/DG.BMP,resources/DP.BMP,Door3,-0.138752053,0.021072764,1,0,0,0.7167,optionLeft,70,16045,7,25,0,25,0,1,,,,,,,,,,,,,,,,,,,,,,,,,,,,,,,,,,,,,,,
,,,,,,,,2023-08-16_08h49.31.394,HF_wild_card,2022.2.4,Win32,60.08532116,63d0234a81df5f9f9131e255,64d2fd46c836a06233681665,64dc7f41a2d5bf81038bcdf7,,,,,,,ctch,resources/DG.BMP,resources/DB.BMP,Door3,-0.139846676,0.019978089,1,0,0,0.648,optionLeft,70,16115,7,26,0,26,0,1,,,,,,,,,,,,,,,,,,,,,,,,,,,,,,,,,,,,,,,
,,,,,,,,2023-08-16_08h49.31.394,HF_wild_card,2022.2.4,Win32,60.08532116,63d0234a81df5f9f9131e255,64d2fd46c836a06233681665,64dc7f41a2d5bf81038bcdf7,,,,,,,decisionTrl,resources/DBN.BMP,resources/DB.BMP,Door2,0.130541872,0.044061269,1,0,0,1.237,optionRight,40,16155,7,27,0,27,0,1,,,,,,,,,,,,,,,,,,,,,,,,,,,,,,,,,,,,,,,
,,,,,,,,2023-08-16_08h49.31.394,HF_wild_card,2022.2.4,Win32,60.08532116,63d0234a81df5f9f9131e255,64d2fd46c836a06233681665,64dc7f41a2d5bf81038bcdf7,,,,,,,decisionTrl,resources/DBN.BMP,resources/DB.BMP,Door2,0.197318041,0.016694017,1,0,0,4.5567,optionRight,20,16175,7,28,0,28,0,1,,,,,,,,,,,,,,,,,,,,,,,,,,,,,,,,,,,,,,,
,,,,,,,,2023-08-16_08h49.31.394,HF_wild_card,2022.2.4,Win32,60.08532116,63d0234a81df5f9f9131e255,64d2fd46c836a06233681665,64dc7f41a2d5bf81038bcdf7,,,,,,,decisionTrl,resources/DB.BMP,resources/DBN.BMP,Door1,0.176518883,0.026546234,1,0,0,2.357,optionRight,30,16205,7,29,0,29,0,1,,,,,,,,,,,,,,,,,,,,,,,,,,,,,,,,,,,,,,,
,,,,,,,,2023-08-16_08h49.31.394,HF_wild_card,2022.2.4,Win32,60.08532116,63d0234a81df5f9f9131e255,64d2fd46c836a06233681665,64dc7f41a2d5bf81038bcdf7,,,,,,,decisionTrl,resources/DG.BMP,resources/DP.BMP,Door3,-0.156267038,-0.006294489,1,0,0,0.8626,optionLeft,70,16275,7,30,0,30,0,1,,,,,,,,,,,,,,,,,,,,,,,,,,,,,,,,,,,,,,,
,,,,,,,,2023-08-16_08h49.31.394,HF_wild_card,2022.2.4,Win32,60.08532116,63d0234a81df5f9f9131e255,64d2fd46c836a06233681665,64dc7f41a2d5bf81038bcdf7,,,,,,,decisionTrl,resources/DBN.BMP,resources/DB.BMP,Door2,0.128352524,0.005747126,1,0,0,1.3135,optionRight,20,16295,7,31,0,31,0,1,,,,,,,,,,,,,,,,,,,,,,,,,,,,,,,,,,,,,,,
,,,,,,,,2023-08-16_08h49.31.394,HF_wild_card,2022.2.4,Win32,60.08532116,63d0234a81df5f9f9131e255,64d2fd46c836a06233681665,64dc7f41a2d5bf81038bcdf7,,,,,,,decisionTrl,resources/DP.BMP,resources/DG.BMP,Door3,0.15681445,0.041871921,1,0,0,0.8193,optionRight,70,16365,7,32,0,32,0,1,,,,,,,,,,,,,,,,,,,,,,,,,,,,,,,,,,,,,,,
,,,,,,,,2023-08-16_08h49.31.394,HF_wild_card,2022.2.4,Win32,60.08532116,63d0234a81df5f9f9131e255,64d2fd46c836a06233681665,64dc7f41a2d5bf81038bcdf7,,,,,,,decisionTrl,resources/DG.BMP,resources/DP.BMP,Door3,-0.132183908,-0.000821018,1,0,0,0.7637,optionLeft,70,16435,7,33,0,33,0,1,,,,,,,,,,,,,,,,,,,,,,,,,,,,,,,,,,,,,,,
,,,,,,,,2023-08-16_08h49.31.394,HF_wild_card,2022.2.4,Win32,60.08532116,63d0234a81df5f9f9131e255,64d2fd46c836a06233681665,64dc7f41a2d5bf81038bcdf7,,,,,,,decisionTrl,resources/DB.BMP,resources/DBN.BMP,Door2,-0.146414821,0.011220547,1,0,0,2.4665,optionLeft,40,16475,7,34,0,34,0,1,,,,,,,,,,,,,,,,,,,,,,,,,,,,,,,,,,,,,,,
,,,,,,,,2023-08-16_08h49.31.394,HF_wild_card,2022.2.4,Win32,60.08532116,63d0234a81df5f9f9131e255,64d2fd46c836a06233681665,64dc7f41a2d5bf81038bcdf7,,,,,,,ctch,resources/DP.BMP,resources/DBN.BMP,Door4,-0.15407769,0.015599343,1,0,0,19.0416,optionLeft,60,16535,7,35,0,35,0,1,,,,,,,,,,,,,,,,,,,,,,,,,,,,,,,,,,,,,,,
,,,,,,,,2023-08-16_08h49.31.394,HF_wild_card,2022.2.4,Win32,60.08532116,63d0234a81df5f9f9131e255,64d2fd46c836a06233681665,64dc7f41a2d5bf81038bcdf7,,,,,,,,,,,,,,,,,,,,,,,,,,6,0,6,0,1,,,,,,,,,,,,,,,,,,,,,,,,,,,,,,,,,,
,,,,,,,,2023-08-16_08h49.31.394,HF_wild_card,2022.2.4,Win32,60.08532116,63d0234a81df5f9f9131e255,64d2fd46c836a06233681665,64dc7f41a2d5bf81038bcdf7,,,,,,,,,,,,,,,,,,,,,,,,,,,,,,,4,,,,,,,,,,,,,,,,,,,,,,,,,,,,,,,,,
,,,,,,,,2023-08-16_08h49.31.394,HF_wild_card,2022.2.4,Win32,60.08532116,63d0234a81df5f9f9131e255,64d2fd46c836a06233681665,64dc7f41a2d5bf81038bcdf7,,,,,,,,,,,,,,,,,,,,,,,,,,,,,,,,,,,,,,,,,,,,,,,,,,,,,,,,,,,,,,,,
,,,,,,,,2023-08-16_08h49.31.394,HF_wild_card,2022.2.4,Win32,60.08532116,63d0234a81df5f9f9131e255,64d2fd46c836a06233681665,64dc7f41a2d5bf81038bcdf7,,,,,,,,,,,,,,,,,,,,,,,,,,,,,,,,95,WC_extreme,resources/DR.BMP,0,0,0,0,1,,,,,,,,,,,,,,,,,,,,,,,,,
,,,,,,,,2023-08-16_08h49.31.394,HF_wild_card,2022.2.4,Win32,60.08532116,63d0234a81df5f9f9131e255,64d2fd46c836a06233681665,64dc7f41a2d5bf81038bcdf7,,,,,,,,,,,,,,,,,,,,,,,,,,,,,,,,80,Door4,resources/DP.BMP,1,0,1,0,1,,,,,,,,,,,,,,,,,,,,,,,,,
,,,,,,,,2023-08-16_08h49.31.394,HF_wild_card,2022.2.4,Win32,60.08532116,63d0234a81df5f9f9131e255,64d2fd46c836a06233681665,64dc7f41a2d5bf81038bcdf7,,,,,,,,,,,,,,,,,,,,,,,,,,,,,,,,40,Door2,resources/DB.BMP,2,0,2,0,1,,,,,,,,,,,,,,,,,,,,,,,,,
,,,,,,,,2023-08-16_08h49.31.394,HF_wild_card,2022.2.4,Win32,60.08532116,63d0234a81df5f9f9131e255,64d2fd46c836a06233681665,64dc7f41a2d5bf81038bcdf7,,,,,,,,,,,,,,,,,,,,,,,,,,,,,,,,70,Door3,resources/DG.BMP,3,0,3,0,1,,,,,,,,,,,,,,,,,,,,,,,,,
,,,,,,,,2023-08-16_08h49.31.394,HF_wild_card,2022.2.4,Win32,60.08532116,63d0234a81df5f9f9131e255,64d2fd46c836a06233681665,64dc7f41a2d5bf81038bcdf7,,,,,,,,,,,,,,,,,,,,,,,,,,,,,,,,45,WC_nonExtreme,resources/DY.BMP,4,0,4,0,1,,,,,,,,,,,,,,,,,,,,,,,,,
,,,,,,,,2023-08-16_08h49.31.394,HF_wild_card,2022.2.4,Win32,60.08532116,63d0234a81df5f9f9131e255,64d2fd46c836a06233681665,64dc7f41a2d5bf81038bcdf7,,,,,,,,,,,,,,,,,,,,,,,,,,,,,,,,30,Door1,resources/DBN.BMP,5,0,5,0,1,,,,,,,,,,,,,,,,,,,,,,,,,
,,,,,,,,2023-08-16_08h49.31.394,HF_wild_card,2022.2.4,Win32,60.08532116,63d0234a81df5f9f9131e255,64d2fd46c836a06233681665,64dc7f41a2d5bf81038bcdf7,,,,,,,,,,,,,,,,,,,,,,,,,,,,,,,,,,,,,,,,,,,,,,,,,,,,,,,,,,,,,,,,
,,,,,,,,2023-08-16_08h49.31.394,HF_wild_card,2022.2.4,Win32,60.08532116,63d0234a81df5f9f9131e255,64d2fd46c836a06233681665,64dc7f41a2d5bf81038bcdf7,,,,,,,,,,,,,,,,,,,,,,,,,,,,,,,,,,,,,,,,0,0,0,0,1,,,,,,,,,,,,,,,,,,,,
