Condition,Low fixed image (Door1),Low risky image (Door2),High fixed image (Door3),High risky image (Door4),NonExtreme Wild Card 1,NonExtreme Wild Card 2,,date,expName,psychopyVersion,OS,frameRate,PROLIFIC_PID,STUDY_ID,SESSION_ID,mouse_2.x,mouse_2.y,mouse_2.leftButton,mouse_2.midButton,mouse_2.rightButton,mouse_2.clicked_name,Trial Type,Left Option Image,Right Option Image,Chosen Door,mouse.x,mouse.y,mouse.leftButton,mouse.midButton,mouse.rightButton,mouse.time,mouse.clicked_name,Feedback,Cumulative Reward,Block,trial.thisRepN,trial.thisTrialN,trial.thisN,trial.thisIndex,trial.ran,blocks.thisRepN,blocks.thisTrialN,blocks.thisN,blocks.thisIndex,blocks.ran,Money conversion,First Outcome Reported,Shown Door (First Outcome),Displayed Image (First Outcome),outcomes.thisRepN,outcomes.thisTrialN,outcomes.thisN,outcomes.thisIndex,outcomes.ran,judgments.thisRepN,judgments.thisTrialN,judgments.thisN,judgments.thisIndex,judgments.ran,freqMouse.x,freqMouse.y,freqMouse.leftButton,freqMouse.midButton,freqMouse.rightButton,freqMouse.clicked_name,FQJ for first outcome,FQJ for second outcome,Shown Door,Displayed Image,trials.thisRepN,trials.thisTrialN,trials.thisN,trials.thisIndex,trials.ran,judgBlock.thisRepN,judgBlock.thisTrialN,judgBlock.thisN,judgBlock.thisIndex,judgBlock.ran
2,resources/DB.BMP,resources/DR.BMP,resources/DP.BMP,resources/DBN.BMP,resources/DG.BMP,resources/DY.BMP,,2023-08-16_08h50.54.262,HF_wild_card,2022.2.4,Win32,59.85515054,6384d247abd7c0f44276bfab,64d2fd46c836a06233681665,64dc7fb882aaae7350779d87,,,,,,,,,,,,,,,,,,,,,,,,,,,,,,,,,,,,,,,,,,,,,,,,,,,,,,,,,,,,,,,,
,,,,,,,,2023-08-16_08h50.54.262,HF_wild_card,2022.2.4,Win32,59.85515054,6384d247abd7c0f44276bfab,64d2fd46c836a06233681665,64dc7fb882aaae7350779d87,0.001851852,-0.414814815,1,0,0,agree,,,,,,,,,,,,,,,,,,,,,,,,,,,,,,,,,,,,,,,,,,,,,,,,,,,,,,,,,,
,,,,,,,,2023-08-16_08h50.54.262,HF_wild_card,2022.2.4,Win32,59.85515054,6384d247abd7c0f44276bfab,64d2fd46c836a06233681665,64dc7fb882aaae7350779d87,,,,,,,,,,,,,,,,,,,,,,,,,,,,,,,,,,,,,,,,,,,,,,,,,,,,,,,,,,,,,,,,
,,,,,,,,2023-08-16_08h50.54.262,HF_wild_card,2022.2.4,Win32,59.85515054,6384d247abd7c0f44276bfab,64d2fd46c836a06233681665,64dc7fb882aaae7350779d87,,,,,,,ctch,resources/DBN.BMP,resources/DB.BMP,Door4,-0.419444444,0.015740741,1,0,0,3.9419,optionLeft,60,60,1,0,0,0,0,1,,,,,,,,,,,,,,,,,,,,,,,,,,,,,,,,,,,,,,,
,,,,,,,,2023-08-16_08h50.54.262,HF_wild_card,2022.2.4,Win32,59.85515054,6384d247abd7c0f44276bfab,64d2fd46c836a06233681665,64dc7fb882aaae7350779d87,,,,,,,decisionTrl,resources/DBN.BMP,resources/DP.BMP,Door4,-0.300925926,0.034259259,1,0,0,3.3308,optionLeft,60,120,1,1,0,1,0,1,,,,,,,,,,,,,,,,,,,,,,,,,,,,,,,,,,,,,,,
,,,,,,,,2023-08-16_08h50.54.262,HF_wild_card,2022.2.4,Win32,59.85515054,6384d247abd7c0f44276bfab,64d2fd46c836a06233681665,64dc7fb882aaae7350779d87,,,,,,,sngl,resources/DP.BMP,resources/Empty.png,Door3,-0.381481481,-0.007407407,1,0,0,1.0473,optionLeft,70,190,1,2,0,2,0,1,,,,,,,,,,,,,,,,,,,,,,,,,,,,,,,,,,,,,,,
,,,,,,,,2023-08-16_08h50.54.262,HF_wild_card,2022.2.4,Win32,59.85515054,6384d247abd7c0f44276bfab,64d2fd46c836a06233681665,64dc7fb882aaae7350779d87,,,,,,,decisionTrl,resources/DBN.BMP,resources/DY.BMP,WildCard_NonEx,0.334259259,-0.025925926,1,0,0,1.3306,optionRight,55,245,1,3,0,3,0,1,,,,,,,,,,,,,,,,,,,,,,,,,,,,,,,,,,,,,,,
,,,,,,,,2023-08-16_08h50.54.262,HF_wild_card,2022.2.4,Win32,59.85515054,6384d247abd7c0f44276bfab,64d2fd46c836a06233681665,64dc7fb882aaae7350779d87,,,,,,,sngl,resources/Empty.png,resources/DP.BMP,Door3,0.394444444,-0.011111111,1,0,0,0.6636,optionRight,70,315,1,4,0,4,0,1,,,,,,,,,,,,,,,,,,,,,,,,,,,,,,,,,,,,,,,
,,,,,,,,2023-08-16_08h50.54.262,HF_wild_card,2022.2.4,Win32,59.85515054,6384d247abd7c0f44276bfab,64d2fd46c836a06233681665,64dc7fb882aaae7350779d87,,,,,,,decisionTrl,resources/DY.BMP,resources/DP.BMP,WildCard_NonEx,-0.238888889,-0.147222222,1,0,0,2.6975,optionLeft,45,360,1,5,0,5,0,1,,,,,,,,,,,,,,,,,,,,,,,,,,,,,,,,,,,,,,,
,,,,,,,,2023-08-16_08h50.54.262,HF_wild_card,2022.2.4,Win32,59.85515054,6384d247abd7c0f44276bfab,64d2fd46c836a06233681665,64dc7fb882aaae7350779d87,,,,,,,decisionTrl,resources/DY.BMP,resources/DBN.BMP,Door4,0.243518519,0.010185185,1,0,0,1.3639,optionRight,80,440,1,6,0,6,0,1,,,,,,,,,,,,,,,,,,,,,,,,,,,,,,,,,,,,,,,
,,,,,,,,2023-08-16_08h50.54.262,HF_wild_card,2022.2.4,Win32,59.85515054,6384d247abd7c0f44276bfab,64d2fd46c836a06233681665,64dc7fb882aaae7350779d87,,,,,,,ctch,resources/DBN.BMP,resources/DB.BMP,Door4,-0.275,0.003703704,1,0,0,0.8471,optionLeft,80,520,1,7,0,7,0,1,,,,,,,,,,,,,,,,,,,,,,,,,,,,,,,,,,,,,,,
,,,,,,,,2023-08-16_08h50.54.262,HF_wild_card,2022.2.4,Win32,59.85515054,6384d247abd7c0f44276bfab,64d2fd46c836a06233681665,64dc7fb882aaae7350779d87,,,,,,,ctch,resources/DP.BMP,resources/DR.BMP,Door2,0.225,0.008333333,1,0,0,1.8635,optionRight,40,560,1,8,0,8,0,1,,,,,,,,,,,,,,,,,,,,,,,,,,,,,,,,,,,,,,,
,,,,,,,,2023-08-16_08h50.54.262,HF_wild_card,2022.2.4,Win32,59.85515054,6384d247abd7c0f44276bfab,64d2fd46c836a06233681665,64dc7fb882aaae7350779d87,,,,,,,decisionTrl,resources/DBN.BMP,resources/DP.BMP,Door4,-0.309259259,-0.009259259,1,0,0,0.815,optionLeft,60,620,1,9,0,9,0,1,,,,,,,,,,,,,,,,,,,,,,,,,,,,,,,,,,,,,,,
,,,,,,,,2023-08-16_08h50.54.262,HF_wild_card,2022.2.4,Win32,59.85515054,6384d247abd7c0f44276bfab,64d2fd46c836a06233681665,64dc7fb882aaae7350779d87,,,,,,,decisionTrl,resources/DP.BMP,resources/DBN.BMP,Door3,-0.250925926,0.001851852,1,0,0,0.8476,optionLeft,70,690,1,10,0,10,0,1,,,,,,,,,,,,,,,,,,,,,,,,,,,,,,,,,,,,,,,
,,,,,,,,2023-08-16_08h50.54.262,HF_wild_card,2022.2.4,Win32,59.85515054,6384d247abd7c0f44276bfab,64d2fd46c836a06233681665,64dc7fb882aaae7350779d87,,,,,,,decisionTrl,resources/DY.BMP,resources/DB.BMP,Door1,0.260185185,0.005555556,1,0,0,2.9967,optionRight,30,720,1,11,0,11,0,1,,,,,,,,,,,,,,,,,,,,,,,,,,,,,,,,,,,,,,,
,,,,,,,,2023-08-16_08h50.54.262,HF_wild_card,2022.2.4,Win32,59.85515054,6384d247abd7c0f44276bfab,64d2fd46c836a06233681665,64dc7fb882aaae7350779d87,,,,,,,decisionTrl,resources/DB.BMP,resources/DY.BMP,WildCard_NonEx,0.158333333,0.002777778,1,0,0,0.8296,optionRight,45,765,1,12,0,12,0,1,,,,,,,,,,,,,,,,,,,,,,,,,,,,,,,,,,,,,,,
,,,,,,,,2023-08-16_08h50.54.262,HF_wild_card,2022.2.4,Win32,59.85515054,6384d247abd7c0f44276bfab,64d2fd46c836a06233681665,64dc7fb882aaae7350779d87,,,,,,,sngl,resources/Empty.png,resources/DR.BMP,Door2,0.237962963,0.016666667,1,0,0,0.5638,optionRight,20,785,1,13,0,13,0,1,,,,,,,,,,,,,,,,,,,,,,,,,,,,,,,,,,,,,,,
,,,,,,,,2023-08-16_08h50.54.262,HF_wild_card,2022.2.4,Win32,59.85515054,6384d247abd7c0f44276bfab,64d2fd46c836a06233681665,64dc7fb882aaae7350779d87,,,,,,,sngl,resources/DR.BMP,resources/Empty.png,Door2,-0.305555556,-0.002777778,1,0,0,0.6142,optionLeft,40,825,1,14,0,14,0,1,,,,,,,,,,,,,,,,,,,,,,,,,,,,,,,,,,,,,,,
,,,,,,,,2023-08-16_08h50.54.262,HF_wild_card,2022.2.4,Win32,59.85515054,6384d247abd7c0f44276bfab,64d2fd46c836a06233681665,64dc7fb882aaae7350779d87,,,,,,,ctch,resources/DR.BMP,resources/DP.BMP,Door2,-0.276851852,-0.02962963,1,0,0,1.1982,optionLeft,20,845,1,15,0,15,0,1,,,,,,,,,,,,,,,,,,,,,,,,,,,,,,,,,,,,,,,
,,,,,,,,2023-08-16_08h50.54.262,HF_wild_card,2022.2.4,Win32,59.85515054,6384d247abd7c0f44276bfab,64d2fd46c836a06233681665,64dc7fb882aaae7350779d87,,,,,,,decisionTrl,resources/DR.BMP,resources/DB.BMP,Door2,-0.232407407,-0.012962963,1,0,0,0.8808,optionLeft,20,865,1,16,0,16,0,1,,,,,,,,,,,,,,,,,,,,,,,,,,,,,,,,,,,,,,,
,,,,,,,,2023-08-16_08h50.54.262,HF_wild_card,2022.2.4,Win32,59.85515054,6384d247abd7c0f44276bfab,64d2fd46c836a06233681665,64dc7fb882aaae7350779d87,,,,,,,decisionTrl,resources/DB.BMP,resources/DR.BMP,Door1,-0.387037037,-0.037037037,1,0,0,0.6824,optionLeft,30,895,1,17,0,17,0,1,,,,,,,,,,,,,,,,,,,,,,,,,,,,,,,,,,,,,,,
,,,,,,,,2023-08-16_08h50.54.262,HF_wild_card,2022.2.4,Win32,59.85515054,6384d247abd7c0f44276bfab,64d2fd46c836a06233681665,64dc7fb882aaae7350779d87,,,,,,,decisionTrl,resources/DBN.BMP,resources/DP.BMP,Door4,-0.278703704,-0.009259259,1,0,0,1.0487,optionLeft,80,975,1,18,0,18,0,1,,,,,,,,,,,,,,,,,,,,,,,,,,,,,,,,,,,,,,,
,,,,,,,,2023-08-16_08h50.54.262,HF_wild_card,2022.2.4,Win32,59.85515054,6384d247abd7c0f44276bfab,64d2fd46c836a06233681665,64dc7fb882aaae7350779d87,,,,,,,decisionTrl,resources/DB.BMP,resources/DR.BMP,Door1,-0.265740741,-0.015740741,1,0,0,1.3488,optionLeft,30,1005,1,19,0,19,0,1,,,,,,,,,,,,,,,,,,,,,,,,,,,,,,,,,,,,,,,
,,,,,,,,2023-08-16_08h50.54.262,HF_wild_card,2022.2.4,Win32,59.85515054,6384d247abd7c0f44276bfab,64d2fd46c836a06233681665,64dc7fb882aaae7350779d87,,,,,,,decisionTrl,resources/DR.BMP,resources/DB.BMP,Door2,-0.25462963,-0.012962963,1,0,0,1.148,optionLeft,20,1025,1,20,0,20,0,1,,,,,,,,,,,,,,,,,,,,,,,,,,,,,,,,,,,,,,,
,,,,,,,,2023-08-16_08h50.54.262,HF_wild_card,2022.2.4,Win32,59.85515054,6384d247abd7c0f44276bfab,64d2fd46c836a06233681665,64dc7fb882aaae7350779d87,,,,,,,decisionTrl,resources/DBN.BMP,resources/DP.BMP,Door4,-0.285185185,-0.007407407,1,0,0,0.7484,optionLeft,80,1105,1,21,0,21,0,1,,,,,,,,,,,,,,,,,,,,,,,,,,,,,,,,,,,,,,,
,,,,,,,,2023-08-16_08h50.54.262,HF_wild_card,2022.2.4,Win32,59.85515054,6384d247abd7c0f44276bfab,64d2fd46c836a06233681665,64dc7fb882aaae7350779d87,,,,,,,sngl,resources/Empty.png,resources/DB.BMP,Door1,0.251851852,0.00462963,1,0,0,0.5651,optionRight,30,1135,1,22,0,22,0,1,,,,,,,,,,,,,,,,,,,,,,,,,,,,,,,,,,,,,,,
,,,,,,,,2023-08-16_08h50.54.262,HF_wild_card,2022.2.4,Win32,59.85515054,6384d247abd7c0f44276bfab,64d2fd46c836a06233681665,64dc7fb882aaae7350779d87,,,,,,,ctch,resources/DP.BMP,resources/DR.BMP,Door3,-0.217592593,0.00462963,1,0,0,2.099,optionLeft,70,1205,1,23,0,23,0,1,,,,,,,,,,,,,,,,,,,,,,,,,,,,,,,,,,,,,,,
,,,,,,,,2023-08-16_08h50.54.262,HF_wild_card,2022.2.4,Win32,59.85515054,6384d247abd7c0f44276bfab,64d2fd46c836a06233681665,64dc7fb882aaae7350779d87,,,,,,,sngl,resources/Empty.png,resources/DBN.BMP,Door4,0.333333333,0.012962963,1,0,0,0.5984,optionRight,60,1265,1,24,0,24,0,1,,,,,,,,,,,,,,,,,,,,,,,,,,,,,,,,,,,,,,,
,,,,,,,,2023-08-16_08h50.54.262,HF_wild_card,2022.2.4,Win32,59.85515054,6384d247abd7c0f44276bfab,64d2fd46c836a06233681665,64dc7fb882aaae7350779d87,,,,,,,decisionTrl,resources/DR.BMP,resources/DB.BMP,Door1,0.230555556,0,1,0,0,2.0145,optionRight,30,1295,1,25,0,25,0,1,,,,,,,,,,,,,,,,,,,,,,,,,,,,,,,,,,,,,,,
,,,,,,,,2023-08-16_08h50.54.262,HF_wild_card,2022.2.4,Win32,59.85515054,6384d247abd7c0f44276bfab,64d2fd46c836a06233681665,64dc7fb882aaae7350779d87,,,,,,,sngl,resources/DBN.BMP,resources/Empty.png,Door4,-0.272222222,0.007407407,1,0,0,5.9998,optionLeft,80,1375,1,26,0,26,0,1,,,,,,,,,,,,,,,,,,,,,,,,,,,,,,,,,,,,,,,
,,,,,,,,2023-08-16_08h50.54.262,HF_wild_card,2022.2.4,Win32,59.85515054,6384d247abd7c0f44276bfab,64d2fd46c836a06233681665,64dc7fb882aaae7350779d87,,,,,,,decisionTrl,resources/DR.BMP,resources/DY.BMP,Door2,-0.257407407,-0.023148148,1,0,0,1.7147,optionLeft,20,1395,1,27,0,27,0,1,,,,,,,,,,,,,,,,,,,,,,,,,,,,,,,,,,,,,,,
,,,,,,,,2023-08-16_08h50.54.262,HF_wild_card,2022.2.4,Win32,59.85515054,6384d247abd7c0f44276bfab,64d2fd46c836a06233681665,64dc7fb882aaae7350779d87,,,,,,,decisionTrl,resources/DP.BMP,resources/DY.BMP,Door3,-0.282407407,-0.012037037,1,0,0,0.8642,optionLeft,70,1465,1,28,0,28,0,1,,,,,,,,,,,,,,,,,,,,,,,,,,,,,,,,,,,,,,,
,,,,,,,,2023-08-16_08h50.54.262,HF_wild_card,2022.2.4,Win32,59.85515054,6384d247abd7c0f44276bfab,64d2fd46c836a06233681665,64dc7fb882aaae7350779d87,,,,,,,decisionTrl,resources/DP.BMP,resources/DBN.BMP,Door4,0.226851852,0.00462963,1,0,0,0.8809,optionRight,80,1545,1,29,0,29,0,1,,,,,,,,,,,,,,,,,,,,,,,,,,,,,,,,,,,,,,,
,,,,,,,,2023-08-16_08h50.54.262,HF_wild_card,2022.2.4,Win32,59.85515054,6384d247abd7c0f44276bfab,64d2fd46c836a06233681665,64dc7fb882aaae7350779d87,,,,,,,decisionTrl,resources/DY.BMP,resources/DR.BMP,WildCard_NonEx,-0.252777778,-0.02037037,1,0,0,2.0641,optionLeft,55,1600,1,30,0,30,0,1,,,,,,,,,,,,,,,,,,,,,,,,,,,,,,,,,,,,,,,
,,,,,,,,2023-08-16_08h50.54.262,HF_wild_card,2022.2.4,Win32,59.85515054,6384d247abd7c0f44276bfab,64d2fd46c836a06233681665,64dc7fb882aaae7350779d87,,,,,,,ctch,resources/DB.BMP,resources/DBN.BMP,Door4,0.312037037,-0.010185185,1,0,0,0.8475,optionRight,80,1680,1,31,0,31,0,1,,,,,,,,,,,,,,,,,,,,,,,,,,,,,,,,,,,,,,,
,,,,,,,,2023-08-16_08h50.54.262,HF_wild_card,2022.2.4,Win32,59.85515054,6384d247abd7c0f44276bfab,64d2fd46c836a06233681665,64dc7fb882aaae7350779d87,,,,,,,decisionTrl,resources/DR.BMP,resources/DB.BMP,Door1,0.32037037,-0.005555556,1,0,0,1.3978,optionRight,30,1710,1,32,0,32,0,1,,,,,,,,,,,,,,,,,,,,,,,,,,,,,,,,,,,,,,,
,,,,,,,,2023-08-16_08h50.54.262,HF_wild_card,2022.2.4,Win32,59.85515054,6384d247abd7c0f44276bfab,64d2fd46c836a06233681665,64dc7fb882aaae7350779d87,,,,,,,ctch,resources/DB.BMP,resources/DBN.BMP,Door4,0.319444444,0.02037037,1,0,0,1.115,optionRight,80,1790,1,33,0,33,0,1,,,,,,,,,,,,,,,,,,,,,,,,,,,,,,,,,,,,,,,
,,,,,,,,2023-08-16_08h50.54.262,HF_wild_card,2022.2.4,Win32,59.85515054,6384d247abd7c0f44276bfab,64d2fd46c836a06233681665,64dc7fb882aaae7350779d87,,,,,,,sngl,resources/Empty.png,resources/DY.BMP,WildCard_NonEx,0.262037037,0.018518519,1,0,0,0.6491,optionRight,45,1835,1,34,0,34,0,1,,,,,,,,,,,,,,,,,,,,,,,,,,,,,,,,,,,,,,,
,,,,,,,,2023-08-16_08h50.54.262,HF_wild_card,2022.2.4,Win32,59.85515054,6384d247abd7c0f44276bfab,64d2fd46c836a06233681665,64dc7fb882aaae7350779d87,,,,,,,decisionTrl,resources/DP.BMP,resources/DBN.BMP,Door4,0.234259259,0.033333333,1,0,0,1.299,optionRight,80,1915,1,35,0,35,0,1,,,,,,,,,,,,,,,,,,,,,,,,,,,,,,,,,,,,,,,
,,,,,,,,2023-08-16_08h50.54.262,HF_wild_card,2022.2.4,Win32,59.85515054,6384d247abd7c0f44276bfab,64d2fd46c836a06233681665,64dc7fb882aaae7350779d87,,,,,,,decisionTrl,resources/DB.BMP,resources/DR.BMP,Door2,0.286111111,0.009259259,1,0,0,1.3811,optionRight,20,1935,1,36,0,36,0,1,,,,,,,,,,,,,,,,,,,,,,,,,,,,,,,,,,,,,,,
,,,,,,,,2023-08-16_08h50.54.262,HF_wild_card,2022.2.4,Win32,59.85515054,6384d247abd7c0f44276bfab,64d2fd46c836a06233681665,64dc7fb882aaae7350779d87,,,,,,,sngl,resources/DB.BMP,resources/Empty.png,Door1,-0.402777778,-0.046296296,1,0,0,0.5651,optionLeft,30,1965,1,37,0,37,0,1,,,,,,,,,,,,,,,,,,,,,,,,,,,,,,,,,,,,,,,
,,,,,,,,2023-08-16_08h50.54.262,HF_wild_card,2022.2.4,Win32,59.85515054,6384d247abd7c0f44276bfab,64d2fd46c836a06233681665,64dc7fb882aaae7350779d87,,,,,,,decisionTrl,resources/DB.BMP,resources/DR.BMP,Door2,0.226851852,0.012037037,1,0,0,1.4326,optionRight,40,2005,1,38,0,38,0,1,,,,,,,,,,,,,,,,,,,,,,,,,,,,,,,,,,,,,,,
,,,,,,,,2023-08-16_08h50.54.262,HF_wild_card,2022.2.4,Win32,59.85515054,6384d247abd7c0f44276bfab,64d2fd46c836a06233681665,64dc7fb882aaae7350779d87,,,,,,,decisionTrl,resources/DP.BMP,resources/DBN.BMP,Door4,0.299074074,0.008333333,1,0,0,0.732,optionRight,60,2065,1,39,0,39,0,1,,,,,,,,,,,,,,,,,,,,,,,,,,,,,,,,,,,,,,,
,,,,,,,,2023-08-16_08h50.54.262,HF_wild_card,2022.2.4,Win32,59.85515054,6384d247abd7c0f44276bfab,64d2fd46c836a06233681665,64dc7fb882aaae7350779d87,,,,,,,sngl,resources/Empty.png,resources/DY.BMP,WildCard_NonEx,0.242592593,0.011111111,1,0,0,0.6484,optionRight,55,2120,1,40,0,40,0,1,,,,,,,,,,,,,,,,,,,,,,,,,,,,,,,,,,,,,,,
,,,,,,,,2023-08-16_08h50.54.262,HF_wild_card,2022.2.4,Win32,59.85515054,6384d247abd7c0f44276bfab,64d2fd46c836a06233681665,64dc7fb882aaae7350779d87,,,,,,,sngl,resources/DY.BMP,resources/Empty.png,WildCard_NonEx,-0.221296296,0.001851852,1,0,0,0.6138,optionLeft,55,2175,1,41,0,41,0,1,,,,,,,,,,,,,,,,,,,,,,,,,,,,,,,,,,,,,,,
,,,,,,,,2023-08-16_08h50.54.262,HF_wild_card,2022.2.4,Win32,59.85515054,6384d247abd7c0f44276bfab,64d2fd46c836a06233681665,64dc7fb882aaae7350779d87,,,,,,,ctch,resources/DR.BMP,resources/DP.BMP,Door2,-0.17037037,-0.009259259,1,0,0,3.749,optionLeft,20,2195,1,42,0,42,0,1,,,,,,,,,,,,,,,,,,,,,,,,,,,,,,,,,,,,,,,
,,,,,,,,2023-08-16_08h50.54.262,HF_wild_card,2022.2.4,Win32,59.85515054,6384d247abd7c0f44276bfab,64d2fd46c836a06233681665,64dc7fb882aaae7350779d87,,,,,,,sngl,resources/DY.BMP,resources/Empty.png,WildCard_NonEx,-0.227777778,-0.014814815,1,0,0,0.5659,optionLeft,45,2240,1,43,0,43,0,1,,,,,,,,,,,,,,,,,,,,,,,,,,,,,,,,,,,,,,,
,,,,,,,,2023-08-16_08h50.54.262,HF_wild_card,2022.2.4,Win32,59.85515054,6384d247abd7c0f44276bfab,64d2fd46c836a06233681665,64dc7fb882aaae7350779d87,,,,,,,,,,,,,,,,,,,,,,,,,,0,0,0,0,1,,,,,,,,,,,,,,,,,,,,,,,,,,,,,,,,,,
,,,,,,,,2023-08-16_08h50.54.262,HF_wild_card,2022.2.4,Win32,59.85515054,6384d247abd7c0f44276bfab,64d2fd46c836a06233681665,64dc7fb882aaae7350779d87,,,,,,,sngl,resources/Empty.png,resources/DBN.BMP,Door4,0.322222222,-0.046296296,1,0,0,0.7242,optionRight,80,2320,2,0,0,0,0,1,,,,,,,,,,,,,,,,,,,,,,,,,,,,,,,,,,,,,,,
,,,,,,,,2023-08-16_08h50.54.262,HF_wild_card,2022.2.4,Win32,59.85515054,6384d247abd7c0f44276bfab,64d2fd46c836a06233681665,64dc7fb882aaae7350779d87,,,,,,,decisionTrl,resources/DP.BMP,resources/DBN.BMP,Door4,0.483333333,0.033333333,1,0,0,0.8574,optionRight,80,2400,2,1,0,1,0,1,,,,,,,,,,,,,,,,,,,,,,,,,,,,,,,,,,,,,,,
,,,,,,,,2023-08-16_08h50.54.262,HF_wild_card,2022.2.4,Win32,59.85515054,6384d247abd7c0f44276bfab,64d2fd46c836a06233681665,64dc7fb882aaae7350779d87,,,,,,,ctch,resources/DB.BMP,resources/DBN.BMP,Door4,0.277777778,-0.003703704,1,0,0,0.6167,optionRight,60,2460,2,2,0,2,0,1,,,,,,,,,,,,,,,,,,,,,,,,,,,,,,,,,,,,,,,
,,,,,,,,2023-08-16_08h50.54.262,HF_wild_card,2022.2.4,Win32,59.85515054,6384d247abd7c0f44276bfab,64d2fd46c836a06233681665,64dc7fb882aaae7350779d87,,,,,,,decisionTrl,resources/DY.BMP,resources/DB.BMP,WildCard_NonEx,-0.186111111,-0.010185185,1,0,0,1.4151,optionLeft,55,2515,2,3,0,3,0,1,,,,,,,,,,,,,,,,,,,,,,,,,,,,,,,,,,,,,,,
,,,,,,,,2023-08-16_08h50.54.262,HF_wild_card,2022.2.4,Win32,59.85515054,6384d247abd7c0f44276bfab,64d2fd46c836a06233681665,64dc7fb882aaae7350779d87,,,,,,,decisionTrl,resources/DB.BMP,resources/DR.BMP,Door2,0.303703704,0.044444444,1,0,0,2.6825,optionRight,40,2555,2,4,0,4,0,1,,,,,,,,,,,,,,,,,,,,,,,,,,,,,,,,,,,,,,,
,,,,,,,,2023-08-16_08h50.54.262,HF_wild_card,2022.2.4,Win32,59.85515054,6384d247abd7c0f44276bfab,64d2fd46c836a06233681665,64dc7fb882aaae7350779d87,,,,,,,sngl,resources/DY.BMP,resources/Empty.png,WildCard_NonEx,-0.257407407,-0.021296296,1,0,0,0.6137,optionLeft,55,2610,2,5,0,5,0,1,,,,,,,,,,,,,,,,,,,,,,,,,,,,,,,,,,,,,,,
,,,,,,,,2023-08-16_08h50.54.262,HF_wild_card,2022.2.4,Win32,59.85515054,6384d247abd7c0f44276bfab,64d2fd46c836a06233681665,64dc7fb882aaae7350779d87,,,,,,,decisionTrl,resources/DY.BMP,resources/DP.BMP,WildCard_NonEx,-0.398148148,-0.019444444,1,0,0,1.0813,optionLeft,45,2655,2,6,0,6,0,1,,,,,,,,,,,,,,,,,,,,,,,,,,,,,,,,,,,,,,,
,,,,,,,,2023-08-16_08h50.54.262,HF_wild_card,2022.2.4,Win32,59.85515054,6384d247abd7c0f44276bfab,64d2fd46c836a06233681665,64dc7fb882aaae7350779d87,,,,,,,decisionTrl,resources/DB.BMP,resources/DR.BMP,Door2,0.307407407,0.012037037,1,0,0,1.2992,optionRight,40,2695,2,7,0,7,0,1,,,,,,,,,,,,,,,,,,,,,,,,,,,,,,,,,,,,,,,
,,,,,,,,2023-08-16_08h50.54.262,HF_wild_card,2022.2.4,Win32,59.85515054,6384d247abd7c0f44276bfab,64d2fd46c836a06233681665,64dc7fb882aaae7350779d87,,,,,,,decisionTrl,resources/DBN.BMP,resources/DY.BMP,Door4,-0.37037037,0.00462963,1,0,0,0.6979,optionLeft,80,2775,2,8,0,8,0,1,,,,,,,,,,,,,,,,,,,,,,,,,,,,,,,,,,,,,,,
,,,,,,,,2023-08-16_08h50.54.262,HF_wild_card,2022.2.4,Win32,59.85515054,6384d247abd7c0f44276bfab,64d2fd46c836a06233681665,64dc7fb882aaae7350779d87,,,,,,,ctch,resources/DR.BMP,resources/DP.BMP,Door3,0.248148148,0.017592593,1,0,0,2.6479,optionRight,70,2845,2,9,0,9,0,1,,,,,,,,,,,,,,,,,,,,,,,,,,,,,,,,,,,,,,,
,,,,,,,,2023-08-16_08h50.54.262,HF_wild_card,2022.2.4,Win32,59.85515054,6384d247abd7c0f44276bfab,64d2fd46c836a06233681665,64dc7fb882aaae7350779d87,,,,,,,sngl,resources/Empty.png,resources/DR.BMP,Door2,0.24537037,0.031481481,1,0,0,0.6475,optionRight,40,2885,2,10,0,10,0,1,,,,,,,,,,,,,,,,,,,,,,,,,,,,,,,,,,,,,,,
,,,,,,,,2023-08-16_08h50.54.262,HF_wild_card,2022.2.4,Win32,59.85515054,6384d247abd7c0f44276bfab,64d2fd46c836a06233681665,64dc7fb882aaae7350779d87,,,,,,,decisionTrl,resources/DP.BMP,resources/DBN.BMP,Door4,0.333333333,0.028703704,1,0,0,1.2159,optionRight,80,2965,2,11,0,11,0,1,,,,,,,,,,,,,,,,,,,,,,,,,,,,,,,,,,,,,,,
,,,,,,,,2023-08-16_08h50.54.262,HF_wild_card,2022.2.4,Win32,59.85515054,6384d247abd7c0f44276bfab,64d2fd46c836a06233681665,64dc7fb882aaae7350779d87,,,,,,,decisionTrl,resources/DBN.BMP,resources/DP.BMP,Door4,-0.223148148,0.016666667,1,0,0,0.7643,optionLeft,60,3025,2,12,0,12,0,1,,,,,,,,,,,,,,,,,,,,,,,,,,,,,,,,,,,,,,,
,,,,,,,,2023-08-16_08h50.54.262,HF_wild_card,2022.2.4,Win32,59.85515054,6384d247abd7c0f44276bfab,64d2fd46c836a06233681665,64dc7fb882aaae7350779d87,,,,,,,decisionTrl,resources/DB.BMP,resources/DR.BMP,Door2,0.293518519,-0.014814815,1,0,0,2.199,optionRight,40,3065,2,13,0,13,0,1,,,,,,,,,,,,,,,,,,,,,,,,,,,,,,,,,,,,,,,
,,,,,,,,2023-08-16_08h50.54.262,HF_wild_card,2022.2.4,Win32,59.85515054,6384d247abd7c0f44276bfab,64d2fd46c836a06233681665,64dc7fb882aaae7350779d87,,,,,,,decisionTrl,resources/DR.BMP,resources/DY.BMP,WildCard_NonEx,0.275925926,0.010185185,1,0,0,1.1655,optionRight,45,3110,2,14,0,14,0,1,,,,,,,,,,,,,,,,,,,,,,,,,,,,,,,,,,,,,,,
,,,,,,,,2023-08-16_08h50.54.262,HF_wild_card,2022.2.4,Win32,59.85515054,6384d247abd7c0f44276bfab,64d2fd46c836a06233681665,64dc7fb882aaae7350779d87,,,,,,,decisionTrl,resources/DR.BMP,resources/DB.BMP,Door2,-0.146296296,-0.007407407,1,0,0,1.6978,optionLeft,40,3150,2,15,0,15,0,1,,,,,,,,,,,,,,,,,,,,,,,,,,,,,,,,,,,,,,,
,,,,,,,,2023-08-16_08h50.54.262,HF_wild_card,2022.2.4,Win32,59.85515054,6384d247abd7c0f44276bfab,64d2fd46c836a06233681665,64dc7fb882aaae7350779d87,,,,,,,decisionTrl,resources/DR.BMP,resources/DB.BMP,Door2,-0.17037037,0.003703704,1,0,0,0.7149,optionLeft,20,3170,2,16,0,16,0,1,,,,,,,,,,,,,,,,,,,,,,,,,,,,,,,,,,,,,,,
,,,,,,,,2023-08-16_08h50.54.262,HF_wild_card,2022.2.4,Win32,59.85515054,6384d247abd7c0f44276bfab,64d2fd46c836a06233681665,64dc7fb882aaae7350779d87,,,,,,,sngl,resources/Empty.png,resources/DY.BMP,WildCard_NonEx,0.287037037,0.00462963,1,0,0,0.6321,optionRight,45,3215,2,17,0,17,0,1,,,,,,,,,,,,,,,,,,,,,,,,,,,,,,,,,,,,,,,
,,,,,,,,2023-08-16_08h50.54.262,HF_wild_card,2022.2.4,Win32,59.85515054,6384d247abd7c0f44276bfab,64d2fd46c836a06233681665,64dc7fb882aaae7350779d87,,,,,,,decisionTrl,resources/DP.BMP,resources/DY.BMP,WildCard_NonEx,0.427777778,0.018518519,1,0,0,2.8478,optionRight,45,3260,2,18,0,18,0,1,,,,,,,,,,,,,,,,,,,,,,,,,,,,,,,,,,,,,,,
,,,,,,,,2023-08-16_08h50.54.262,HF_wild_card,2022.2.4,Win32,59.85515054,6384d247abd7c0f44276bfab,64d2fd46c836a06233681665,64dc7fb882aaae7350779d87,,,,,,,ctch,resources/DB.BMP,resources/DBN.BMP,Door4,0.432407407,0.023148148,1,0,0,0.8988,optionRight,80,3340,2,19,0,19,0,1,,,,,,,,,,,,,,,,,,,,,,,,,,,,,,,,,,,,,,,
,,,,,,,,2023-08-16_08h50.54.262,HF_wild_card,2022.2.4,Win32,59.85515054,6384d247abd7c0f44276bfab,64d2fd46c836a06233681665,64dc7fb882aaae7350779d87,,,,,,,ctch,resources/DP.BMP,resources/DR.BMP,Door3,-0.251851852,-0.025925926,1,0,0,0.9651,optionLeft,70,3410,2,20,0,20,0,1,,,,,,,,,,,,,,,,,,,,,,,,,,,,,,,,,,,,,,,
,,,,,,,,2023-08-16_08h50.54.262,HF_wild_card,2022.2.4,Win32,59.85515054,6384d247abd7c0f44276bfab,64d2fd46c836a06233681665,64dc7fb882aaae7350779d87,,,,,,,sngl,resources/DR.BMP,resources/Empty.png,Door2,-0.268518519,-0.019444444,1,0,0,0.8483,optionLeft,20,3430,2,21,0,21,0,1,,,,,,,,,,,,,,,,,,,,,,,,,,,,,,,,,,,,,,,
,,,,,,,,2023-08-16_08h50.54.262,HF_wild_card,2022.2.4,Win32,59.85515054,6384d247abd7c0f44276bfab,64d2fd46c836a06233681665,64dc7fb882aaae7350779d87,,,,,,,ctch,resources/DBN.BMP,resources/DB.BMP,Door4,-0.225,0.00462963,1,0,0,0.7311,optionLeft,60,3490,2,22,0,22,0,1,,,,,,,,,,,,,,,,,,,,,,,,,,,,,,,,,,,,,,,
,,,,,,,,2023-08-16_08h50.54.262,HF_wild_card,2022.2.4,Win32,59.85515054,6384d247abd7c0f44276bfab,64d2fd46c836a06233681665,64dc7fb882aaae7350779d87,,,,,,,decisionTrl,resources/DP.BMP,resources/DBN.BMP,Door4,0.387037037,0.012962963,1,0,0,1.2806,optionRight,80,3570,2,23,0,23,0,1,,,,,,,,,,,,,,,,,,,,,,,,,,,,,,,,,,,,,,,
,,,,,,,,2023-08-16_08h50.54.262,HF_wild_card,2022.2.4,Win32,59.85515054,6384d247abd7c0f44276bfab,64d2fd46c836a06233681665,64dc7fb882aaae7350779d87,,,,,,,ctch,resources/DR.BMP,resources/DP.BMP,Door3,0.34537037,0.001851852,1,0,0,1.3981,optionRight,70,3640,2,24,0,24,0,1,,,,,,,,,,,,,,,,,,,,,,,,,,,,,,,,,,,,,,,
,,,,,,,,2023-08-16_08h50.54.262,HF_wild_card,2022.2.4,Win32,59.85515054,6384d247abd7c0f44276bfab,64d2fd46c836a06233681665,64dc7fb882aaae7350779d87,,,,,,,sngl,resources/Empty.png,resources/DB.BMP,Door1,0.30462963,-0.012037037,1,0,0,0.9493,optionRight,30,3670,2,25,0,25,0,1,,,,,,,,,,,,,,,,,,,,,,,,,,,,,,,,,,,,,,,
,,,,,,,,2023-08-16_08h50.54.262,HF_wild_card,2022.2.4,Win32,59.85515054,6384d247abd7c0f44276bfab,64d2fd46c836a06233681665,64dc7fb882aaae7350779d87,,,,,,,decisionTrl,resources/DBN.BMP,resources/DP.BMP,Door4,-0.208333333,0.024074074,1,0,0,0.9654,optionLeft,80,3750,2,26,0,26,0,1,,,,,,,,,,,,,,,,,,,,,,,,,,,,,,,,,,,,,,,
,,,,,,,,2023-08-16_08h50.54.262,HF_wild_card,2022.2.4,Win32,59.85515054,6384d247abd7c0f44276bfab,64d2fd46c836a06233681665,64dc7fb882aaae7350779d87,,,,,,,decisionTrl,resources/DY.BMP,resources/DR.BMP,WildCard_NonEx,-0.156481481,0.003703704,1,0,0,1.9656,optionLeft,55,3805,2,27,0,27,0,1,,,,,,,,,,,,,,,,,,,,,,,,,,,,,,,,,,,,,,,
,,,,,,,,2023-08-16_08h50.54.262,HF_wild_card,2022.2.4,Win32,59.85515054,6384d247abd7c0f44276bfab,64d2fd46c836a06233681665,64dc7fb882aaae7350779d87,,,,,,,sngl,resources/DY.BMP,resources/Empty.png,WildCard_NonEx,-0.12962963,-0.013888889,1,0,0,0.648,optionLeft,45,3850,2,28,0,28,0,1,,,,,,,,,,,,,,,,,,,,,,,,,,,,,,,,,,,,,,,
,,,,,,,,2023-08-16_08h50.54.262,HF_wild_card,2022.2.4,Win32,59.85515054,6384d247abd7c0f44276bfab,64d2fd46c836a06233681665,64dc7fb882aaae7350779d87,,,,,,,decisionTrl,resources/DB.BMP,resources/DY.BMP,WildCard_NonEx,0.247222222,-0.021296296,1,0,0,1.6992,optionRight,55,3905,2,29,0,29,0,1,,,,,,,,,,,,,,,,,,,,,,,,,,,,,,,,,,,,,,,
,,,,,,,,2023-08-16_08h50.54.262,HF_wild_card,2022.2.4,Win32,59.85515054,6384d247abd7c0f44276bfab,64d2fd46c836a06233681665,64dc7fb882aaae7350779d87,,,,,,,sngl,resources/DP.BMP,resources/Empty.png,Door3,-0.212962963,-0.008333333,1,0,0,0.5484,optionLeft,70,3975,2,30,0,30,0,1,,,,,,,,,,,,,,,,,,,,,,,,,,,,,,,,,,,,,,,
,,,,,,,,2023-08-16_08h50.54.262,HF_wild_card,2022.2.4,Win32,59.85515054,6384d247abd7c0f44276bfab,64d2fd46c836a06233681665,64dc7fb882aaae7350779d87,,,,,,,sngl,resources/Empty.png,resources/DP.BMP,Door3,0.373148148,-0.005555556,1,0,0,0.548,optionRight,70,4045,2,31,0,31,0,1,,,,,,,,,,,,,,,,,,,,,,,,,,,,,,,,,,,,,,,
,,,,,,,,2023-08-16_08h50.54.262,HF_wild_card,2022.2.4,Win32,59.85515054,6384d247abd7c0f44276bfab,64d2fd46c836a06233681665,64dc7fb882aaae7350779d87,,,,,,,decisionTrl,resources/DR.BMP,resources/DB.BMP,Door2,-0.197222222,-0.011111111,1,0,0,2.8986,optionLeft,20,4065,2,32,0,32,0,1,,,,,,,,,,,,,,,,,,,,,,,,,,,,,,,,,,,,,,,
,,,,,,,,2023-08-16_08h50.54.262,HF_wild_card,2022.2.4,Win32,59.85515054,6384d247abd7c0f44276bfab,64d2fd46c836a06233681665,64dc7fb882aaae7350779d87,,,,,,,decisionTrl,resources/DBN.BMP,resources/DP.BMP,Door4,-0.27962963,-0.012037037,1,0,0,0.7808,optionLeft,80,4145,2,33,0,33,0,1,,,,,,,,,,,,,,,,,,,,,,,,,,,,,,,,,,,,,,,
,,,,,,,,2023-08-16_08h50.54.262,HF_wild_card,2022.2.4,Win32,59.85515054,6384d247abd7c0f44276bfab,64d2fd46c836a06233681665,64dc7fb882aaae7350779d87,,,,,,,decisionTrl,resources/DBN.BMP,resources/DP.BMP,Door4,-0.198148148,0.00462963,1,0,0,1.0486,optionLeft,80,4225,2,34,0,34,0,1,,,,,,,,,,,,,,,,,,,,,,,,,,,,,,,,,,,,,,,
,,,,,,,,2023-08-16_08h50.54.262,HF_wild_card,2022.2.4,Win32,59.85515054,6384d247abd7c0f44276bfab,64d2fd46c836a06233681665,64dc7fb882aaae7350779d87,,,,,,,decisionTrl,resources/DR.BMP,resources/DB.BMP,Door1,0.284259259,-0.030555556,1,0,0,1.7653,optionRight,30,4255,2,35,0,35,0,1,,,,,,,,,,,,,,,,,,,,,,,,,,,,,,,,,,,,,,,
,,,,,,,,2023-08-16_08h50.54.262,HF_wild_card,2022.2.4,Win32,59.85515054,6384d247abd7c0f44276bfab,64d2fd46c836a06233681665,64dc7fb882aaae7350779d87,,,,,,,ctch,resources/DBN.BMP,resources/DB.BMP,Door4,-0.240740741,-0.007407407,1,0,0,0.9985,optionLeft,60,4315,2,36,0,36,0,1,,,,,,,,,,,,,,,,,,,,,,,,,,,,,,,,,,,,,,,
,,,,,,,,2023-08-16_08h50.54.262,HF_wild_card,2022.2.4,Win32,59.85515054,6384d247abd7c0f44276bfab,64d2fd46c836a06233681665,64dc7fb882aaae7350779d87,,,,,,,sngl,resources/DB.BMP,resources/Empty.png,Door1,-0.218518519,0.003703704,1,0,0,0.5813,optionLeft,30,4345,2,37,0,37,0,1,,,,,,,,,,,,,,,,,,,,,,,,,,,,,,,,,,,,,,,
,,,,,,,,2023-08-16_08h50.54.262,HF_wild_card,2022.2.4,Win32,59.85515054,6384d247abd7c0f44276bfab,64d2fd46c836a06233681665,64dc7fb882aaae7350779d87,,,,,,,sngl,resources/Empty.png,resources/DY.BMP,WildCard_NonEx,0.22962963,0.013888889,1,0,0,0.831,optionRight,55,4400,2,38,0,38,0,1,,,,,,,,,,,,,,,,,,,,,,,,,,,,,,,,,,,,,,,
,,,,,,,,2023-08-16_08h50.54.262,HF_wild_card,2022.2.4,Win32,59.85515054,6384d247abd7c0f44276bfab,64d2fd46c836a06233681665,64dc7fb882aaae7350779d87,,,,,,,decisionTrl,resources/DB.BMP,resources/DR.BMP,Door1,-0.25,-0.011111111,1,0,0,1.5817,optionLeft,30,4430,2,39,0,39,0,1,,,,,,,,,,,,,,,,,,,,,,,,,,,,,,,,,,,,,,,
,,,,,,,,2023-08-16_08h50.54.262,HF_wild_card,2022.2.4,Win32,59.85515054,6384d247abd7c0f44276bfab,64d2fd46c836a06233681665,64dc7fb882aaae7350779d87,,,,,,,decisionTrl,resources/DY.BMP,resources/DBN.BMP,Door4,0.209259259,-0.002777778,1,0,0,1.1305,optionRight,80,4510,2,40,0,40,0,1,,,,,,,,,,,,,,,,,,,,,,,,,,,,,,,,,,,,,,,
,,,,,,,,2023-08-16_08h50.54.262,HF_wild_card,2022.2.4,Win32,59.85515054,6384d247abd7c0f44276bfab,64d2fd46c836a06233681665,64dc7fb882aaae7350779d87,,,,,,,sngl,resources/DBN.BMP,resources/Empty.png,Door4,-0.346296296,0.003703704,1,0,0,0.5304,optionLeft,60,4570,2,41,0,41,0,1,,,,,,,,,,,,,,,,,,,,,,,,,,,,,,,,,,,,,,,
,,,,,,,,2023-08-16_08h50.54.262,HF_wild_card,2022.2.4,Win32,59.85515054,6384d247abd7c0f44276bfab,64d2fd46c836a06233681665,64dc7fb882aaae7350779d87,,,,,,,ctch,resources/DP.BMP,resources/DR.BMP,Door3,-0.232407407,-0.014814815,1,0,0,1.3986,optionLeft,70,4640,2,42,0,42,0,1,,,,,,,,,,,,,,,,,,,,,,,,,,,,,,,,,,,,,,,
,,,,,,,,2023-08-16_08h50.54.262,HF_wild_card,2022.2.4,Win32,59.85515054,6384d247abd7c0f44276bfab,64d2fd46c836a06233681665,64dc7fb882aaae7350779d87,,,,,,,decisionTrl,resources/DP.BMP,resources/DBN.BMP,Door4,0.341666667,0.015740741,1,0,0,1.1478,optionRight,80,4720,2,43,0,43,0,1,,,,,,,,,,,,,,,,,,,,,,,,,,,,,,,,,,,,,,,
,,,,,,,,2023-08-16_08h50.54.262,HF_wild_card,2022.2.4,Win32,59.85515054,6384d247abd7c0f44276bfab,64d2fd46c836a06233681665,64dc7fb882aaae7350779d87,,,,,,,,,,,,,,,,,,,,,,,,,,1,0,1,0,1,,,,,,,,,,,,,,,,,,,,,,,,,,,,,,,,,,
,,,,,,,,2023-08-16_08h50.54.262,HF_wild_card,2022.2.4,Win32,59.85515054,6384d247abd7c0f44276bfab,64d2fd46c836a06233681665,64dc7fb882aaae7350779d87,,,,,,,ctch,resources/DP.BMP,resources/DR.BMP,Door3,-0.318518519,-0.026851852,1,0,0,1.1586,optionLeft,70,4790,3,0,0,0,0,1,,,,,,,,,,,,,,,,,,,,,,,,,,,,,,,,,,,,,,,
,,,,,,,,2023-08-16_08h50.54.262,HF_wild_card,2022.2.4,Win32,59.85515054,6384d247abd7c0f44276bfab,64d2fd46c836a06233681665,64dc7fb882aaae7350779d87,,,,,,,ctch,resources/DB.BMP,resources/DBN.BMP,Door4,0.235185185,-0.008333333,1,0,0,0.6984,optionRight,80,4870,3,1,0,1,0,1,,,,,,,,,,,,,,,,,,,,,,,,,,,,,,,,,,,,,,,
,,,,,,,,2023-08-16_08h50.54.262,HF_wild_card,2022.2.4,Win32,59.85515054,6384d247abd7c0f44276bfab,64d2fd46c836a06233681665,64dc7fb882aaae7350779d87,,,,,,,decisionTrl,resources/DY.BMP,resources/DB.BMP,WildCard_NonEx,-0.185185185,-0.02962963,1,0,0,1.1487,optionLeft,45,4915,3,2,0,2,0,1,,,,,,,,,,,,,,,,,,,,,,,,,,,,,,,,,,,,,,,
,,,,,,,,2023-08-16_08h50.54.262,HF_wild_card,2022.2.4,Win32,59.85515054,6384d247abd7c0f44276bfab,64d2fd46c836a06233681665,64dc7fb882aaae7350779d87,,,,,,,sngl,resources/Empty.png,resources/DY.BMP,WildCard_NonEx,0.24537037,0.018518519,1,0,0,0.5317,optionRight,55,4970,3,3,0,3,0,1,,,,,,,,,,,,,,,,,,,,,,,,,,,,,,,,,,,,,,,
,,,,,,,,2023-08-16_08h50.54.262,HF_wild_card,2022.2.4,Win32,59.85515054,6384d247abd7c0f44276bfab,64d2fd46c836a06233681665,64dc7fb882aaae7350779d87,,,,,,,decisionTrl,resources/DBN.BMP,resources/DP.BMP,Door4,-0.308333333,-0.00462963,1,0,0,0.6485,optionLeft,80,5050,3,4,0,4,0,1,,,,,,,,,,,,,,,,,,,,,,,,,,,,,,,,,,,,,,,
,,,,,,,,2023-08-16_08h50.54.262,HF_wild_card,2022.2.4,Win32,59.85515054,6384d247abd7c0f44276bfab,64d2fd46c836a06233681665,64dc7fb882aaae7350779d87,,,,,,,ctch,resources/DBN.BMP,resources/DB.BMP,Door4,-0.32962963,-0.012962963,1,0,0,0.6315,optionLeft,80,5130,3,5,0,5,0,1,,,,,,,,,,,,,,,,,,,,,,,,,,,,,,,,,,,,,,,
,,,,,,,,2023-08-16_08h50.54.262,HF_wild_card,2022.2.4,Win32,59.85515054,6384d247abd7c0f44276bfab,64d2fd46c836a06233681665,64dc7fb882aaae7350779d87,,,,,,,decisionTrl,resources/DP.BMP,resources/DBN.BMP,Door4,0.225925926,-0.003703704,1,0,0,0.499,optionRight,60,5190,3,6,0,6,0,1,,,,,,,,,,,,,,,,,,,,,,,,,,,,,,,,,,,,,,,
,,,,,,,,2023-08-16_08h50.54.262,HF_wild_card,2022.2.4,Win32,59.85515054,6384d247abd7c0f44276bfab,64d2fd46c836a06233681665,64dc7fb882aaae7350779d87,,,,,,,decisionTrl,resources/DP.BMP,resources/DY.BMP,Door3,-0.198148148,-0.010185185,1,0,0,0.6973,optionLeft,70,5260,3,7,0,7,0,1,,,,,,,,,,,,,,,,,,,,,,,,,,,,,,,,,,,,,,,
,,,,,,,,2023-08-16_08h50.54.262,HF_wild_card,2022.2.4,Win32,59.85515054,6384d247abd7c0f44276bfab,64d2fd46c836a06233681665,64dc7fb882aaae7350779d87,,,,,,,sngl,resources/DY.BMP,resources/Empty.png,WildCard_NonEx,-0.156481481,0.012037037,1,0,0,0.582,optionLeft,55,5315,3,8,0,8,0,1,,,,,,,,,,,,,,,,,,,,,,,,,,,,,,,,,,,,,,,
,,,,,,,,2023-08-16_08h50.54.262,HF_wild_card,2022.2.4,Win32,59.85515054,6384d247abd7c0f44276bfab,64d2fd46c836a06233681665,64dc7fb882aaae7350779d87,,,,,,,sngl,resources/Empty.png,resources/DP.BMP,Door3,0.343518519,0.042592593,1,0,0,0.4987,optionRight,70,5385,3,9,0,9,0,1,,,,,,,,,,,,,,,,,,,,,,,,,,,,,,,,,,,,,,,
,,,,,,,,2023-08-16_08h50.54.262,HF_wild_card,2022.2.4,Win32,59.85515054,6384d247abd7c0f44276bfab,64d2fd46c836a06233681665,64dc7fb882aaae7350779d87,,,,,,,sngl,resources/Empty.png,resources/DB.BMP,Door1,0.212962963,0.053703704,1,0,0,1.0153,optionRight,30,5415,3,10,0,10,0,1,,,,,,,,,,,,,,,,,,,,,,,,,,,,,,,,,,,,,,,
,,,,,,,,2023-08-16_08h50.54.262,HF_wild_card,2022.2.4,Win32,59.85515054,6384d247abd7c0f44276bfab,64d2fd46c836a06233681665,64dc7fb882aaae7350779d87,,,,,,,sngl,resources/Empty.png,resources/DY.BMP,WildCard_NonEx,0.206481481,0.000925926,1,0,0,0.498,optionRight,45,5460,3,11,0,11,0,1,,,,,,,,,,,,,,,,,,,,,,,,,,,,,,,,,,,,,,,
,,,,,,,,2023-08-16_08h50.54.262,HF_wild_card,2022.2.4,Win32,59.85515054,6384d247abd7c0f44276bfab,64d2fd46c836a06233681665,64dc7fb882aaae7350779d87,,,,,,,decisionTrl,resources/DP.BMP,resources/DBN.BMP,Door4,0.410185185,0.013888889,1,0,0,3.4646,optionRight,80,5540,3,12,0,12,0,1,,,,,,,,,,,,,,,,,,,,,,,,,,,,,,,,,,,,,,,
,,,,,,,,2023-08-16_08h50.54.262,HF_wild_card,2022.2.4,Win32,59.85515054,6384d247abd7c0f44276bfab,64d2fd46c836a06233681665,64dc7fb882aaae7350779d87,,,,,,,decisionTrl,resources/DB.BMP,resources/DR.BMP,Door1,-0.264814815,-0.036111111,1,0,0,1.9305,optionLeft,30,5570,3,13,0,13,0,1,,,,,,,,,,,,,,,,,,,,,,,,,,,,,,,,,,,,,,,
,,,,,,,,2023-08-16_08h50.54.262,HF_wild_card,2022.2.4,Win32,59.85515054,6384d247abd7c0f44276bfab,64d2fd46c836a06233681665,64dc7fb882aaae7350779d87,,,,,,,decisionTrl,resources/DB.BMP,resources/DR.BMP,Door1,-0.216666667,0.001851852,1,0,0,0.6324,optionLeft,30,5600,3,14,0,14,0,1,,,,,,,,,,,,,,,,,,,,,,,,,,,,,,,,,,,,,,,
,,,,,,,,2023-08-16_08h50.54.262,HF_wild_card,2022.2.4,Win32,59.85515054,6384d247abd7c0f44276bfab,64d2fd46c836a06233681665,64dc7fb882aaae7350779d87,,,,,,,decisionTrl,resources/DY.BMP,resources/DBN.BMP,Door4,0.12962963,0.022222222,1,0,0,1.0145,optionRight,80,5680,3,15,0,15,0,1,,,,,,,,,,,,,,,,,,,,,,,,,,,,,,,,,,,,,,,
,,,,,,,,2023-08-16_08h50.54.262,HF_wild_card,2022.2.4,Win32,59.85515054,6384d247abd7c0f44276bfab,64d2fd46c836a06233681665,64dc7fb882aaae7350779d87,,,,,,,decisionTrl,resources/DBN.BMP,resources/DP.BMP,Door4,-0.278703704,-0.012962963,1,0,0,1.1148,optionLeft,80,5760,3,16,0,16,0,1,,,,,,,,,,,,,,,,,,,,,,,,,,,,,,,,,,,,,,,
,,,,,,,,2023-08-16_08h50.54.262,HF_wild_card,2022.2.4,Win32,59.85515054,6384d247abd7c0f44276bfab,64d2fd46c836a06233681665,64dc7fb882aaae7350779d87,,,,,,,sngl,resources/Empty.png,resources/DR.BMP,Door2,0.363888889,0.031481481,1,0,0,0.6159,optionRight,20,5780,3,17,0,17,0,1,,,,,,,,,,,,,,,,,,,,,,,,,,,,,,,,,,,,,,,
,,,,,,,,2023-08-16_08h50.54.262,HF_wild_card,2022.2.4,Win32,59.85515054,6384d247abd7c0f44276bfab,64d2fd46c836a06233681665,64dc7fb882aaae7350779d87,,,,,,,decisionTrl,resources/DY.BMP,resources/DR.BMP,WildCard_NonEx,-0.389814815,-0.040740741,1,0,0,1.0649,optionLeft,55,5835,3,18,0,18,0,1,,,,,,,,,,,,,,,,,,,,,,,,,,,,,,,,,,,,,,,
,,,,,,,,2023-08-16_08h50.54.262,HF_wild_card,2022.2.4,Win32,59.85515054,6384d247abd7c0f44276bfab,64d2fd46c836a06233681665,64dc7fb882aaae7350779d87,,,,,,,decisionTrl,resources/DBN.BMP,resources/DY.BMP,Door4,-0.328703704,-0.02037037,1,0,0,0.665,optionLeft,60,5895,3,19,0,19,0,1,,,,,,,,,,,,,,,,,,,,,,,,,,,,,,,,,,,,,,,
,,,,,,,,2023-08-16_08h50.54.262,HF_wild_card,2022.2.4,Win32,59.85515054,6384d247abd7c0f44276bfab,64d2fd46c836a06233681665,64dc7fb882aaae7350779d87,,,,,,,decisionTrl,resources/DB.BMP,resources/DR.BMP,Door1,-0.172222222,-0.026851852,1,0,0,1.198,optionLeft,30,5925,3,20,0,20,0,1,,,,,,,,,,,,,,,,,,,,,,,,,,,,,,,,,,,,,,,
,,,,,,,,2023-08-16_08h50.54.262,HF_wild_card,2022.2.4,Win32,59.85515054,6384d247abd7c0f44276bfab,64d2fd46c836a06233681665,64dc7fb882aaae7350779d87,,,,,,,ctch,resources/DR.BMP,resources/DP.BMP,Door3,0.337962963,0.012037037,1,0,0,0.8642,optionRight,70,5995,3,21,0,21,0,1,,,,,,,,,,,,,,,,,,,,,,,,,,,,,,,,,,,,,,,
,,,,,,,,2023-08-16_08h50.54.262,HF_wild_card,2022.2.4,Win32,59.85515054,6384d247abd7c0f44276bfab,64d2fd46c836a06233681665,64dc7fb882aaae7350779d87,,,,,,,decisionTrl,resources/DR.BMP,resources/DB.BMP,Door1,0.342592593,0.010185185,1,0,0,1.2316,optionRight,30,6025,3,22,0,22,0,1,,,,,,,,,,,,,,,,,,,,,,,,,,,,,,,,,,,,,,,
,,,,,,,,2023-08-16_08h50.54.262,HF_wild_card,2022.2.4,Win32,59.85515054,6384d247abd7c0f44276bfab,64d2fd46c836a06233681665,64dc7fb882aaae7350779d87,,,,,,,decisionTrl,resources/DR.BMP,resources/DY.BMP,WildCard_NonEx,0.261111111,0.002777778,1,0,0,1.4487,optionRight,45,6070,3,23,0,23,0,1,,,,,,,,,,,,,,,,,,,,,,,,,,,,,,,,,,,,,,,
,,,,,,,,2023-08-16_08h50.54.262,HF_wild_card,2022.2.4,Win32,59.85515054,6384d247abd7c0f44276bfab,64d2fd46c836a06233681665,64dc7fb882aaae7350779d87,,,,,,,decisionTrl,resources/DR.BMP,resources/DB.BMP,Door1,0.188888889,0.011111111,1,0,0,1.275,optionRight,30,6100,3,24,0,24,0,1,,,,,,,,,,,,,,,,,,,,,,,,,,,,,,,,,,,,,,,
,,,,,,,,2023-08-16_08h50.54.262,HF_wild_card,2022.2.4,Win32,59.85515054,6384d247abd7c0f44276bfab,64d2fd46c836a06233681665,64dc7fb882aaae7350779d87,,,,,,,decisionTrl,resources/DP.BMP,resources/DBN.BMP,Door4,0.311111111,-0.005555556,1,0,0,1.1642,optionRight,80,6180,3,25,0,25,0,1,,,,,,,,,,,,,,,,,,,,,,,,,,,,,,,,,,,,,,,
,,,,,,,,2023-08-16_08h50.54.262,HF_wild_card,2022.2.4,Win32,59.85515054,6384d247abd7c0f44276bfab,64d2fd46c836a06233681665,64dc7fb882aaae7350779d87,,,,,,,decisionTrl,resources/DY.BMP,resources/DP.BMP,Door3,0.182407407,-0.014814815,1,0,0,1.4982,optionRight,70,6250,3,26,0,26,0,1,,,,,,,,,,,,,,,,,,,,,,,,,,,,,,,,,,,,,,,
,,,,,,,,2023-08-16_08h50.54.262,HF_wild_card,2022.2.4,Win32,59.85515054,6384d247abd7c0f44276bfab,64d2fd46c836a06233681665,64dc7fb882aaae7350779d87,,,,,,,decisionTrl,resources/DBN.BMP,resources/DP.BMP,Door4,-0.271296296,-0.000925926,1,0,0,0.8499,optionLeft,80,6330,3,27,0,27,0,1,,,,,,,,,,,,,,,,,,,,,,,,,,,,,,,,,,,,,,,
,,,,,,,,2023-08-16_08h50.54.262,HF_wild_card,2022.2.4,Win32,59.85515054,6384d247abd7c0f44276bfab,64d2fd46c836a06233681665,64dc7fb882aaae7350779d87,,,,,,,decisionTrl,resources/DR.BMP,resources/DB.BMP,Door2,-0.209259259,-0.021296296,1,0,0,2.2647,optionLeft,40,6370,3,28,0,28,0,1,,,,,,,,,,,,,,,,,,,,,,,,,,,,,,,,,,,,,,,
,,,,,,,,2023-08-16_08h50.54.262,HF_wild_card,2022.2.4,Win32,59.85515054,6384d247abd7c0f44276bfab,64d2fd46c836a06233681665,64dc7fb882aaae7350779d87,,,,,,,decisionTrl,resources/DB.BMP,resources/DR.BMP,Door2,0.264814815,-0.000925926,1,0,0,1.0153,optionRight,20,6390,3,29,0,29,0,1,,,,,,,,,,,,,,,,,,,,,,,,,,,,,,,,,,,,,,,
,,,,,,,,2023-08-16_08h50.54.262,HF_wild_card,2022.2.4,Win32,59.85515054,6384d247abd7c0f44276bfab,64d2fd46c836a06233681665,64dc7fb882aaae7350779d87,,,,,,,sngl,resources/DBN.BMP,resources/Empty.png,Door4,-0.277777778,-0.036111111,1,0,0,0.632,optionLeft,80,6470,3,30,0,30,0,1,,,,,,,,,,,,,,,,,,,,,,,,,,,,,,,,,,,,,,,
,,,,,,,,2023-08-16_08h50.54.262,HF_wild_card,2022.2.4,Win32,59.85515054,6384d247abd7c0f44276bfab,64d2fd46c836a06233681665,64dc7fb882aaae7350779d87,,,,,,,ctch,resources/DR.BMP,resources/DP.BMP,Door3,0.25,0.00462963,1,0,0,1.2143,optionRight,70,6540,3,31,0,31,0,1,,,,,,,,,,,,,,,,,,,,,,,,,,,,,,,,,,,,,,,
,,,,,,,,2023-08-16_08h50.54.262,HF_wild_card,2022.2.4,Win32,59.85515054,6384d247abd7c0f44276bfab,64d2fd46c836a06233681665,64dc7fb882aaae7350779d87,,,,,,,decisionTrl,resources/DR.BMP,resources/DB.BMP,Door1,0.297222222,-0.011111111,1,0,0,2.3812,optionRight,30,6570,3,32,0,32,0,1,,,,,,,,,,,,,,,,,,,,,,,,,,,,,,,,,,,,,,,
,,,,,,,,2023-08-16_08h50.54.262,HF_wild_card,2022.2.4,Win32,59.85515054,6384d247abd7c0f44276bfab,64d2fd46c836a06233681665,64dc7fb882aaae7350779d87,,,,,,,decisionTrl,resources/DB.BMP,resources/DY.BMP,WildCard_NonEx,0.336111111,-0.037962963,1,0,0,1.1494,optionRight,45,6615,3,33,0,33,0,1,,,,,,,,,,,,,,,,,,,,,,,,,,,,,,,,,,,,,,,
,,,,,,,,2023-08-16_08h50.54.262,HF_wild_card,2022.2.4,Win32,59.85515054,6384d247abd7c0f44276bfab,64d2fd46c836a06233681665,64dc7fb882aaae7350779d87,,,,,,,decisionTrl,resources/DP.BMP,resources/DBN.BMP,Door4,0.396296296,0.003703704,1,0,0,1.2322,optionRight,60,6675,3,34,0,34,0,1,,,,,,,,,,,,,,,,,,,,,,,,,,,,,,,,,,,,,,,
,,,,,,,,2023-08-16_08h50.54.262,HF_wild_card,2022.2.4,Win32,59.85515054,6384d247abd7c0f44276bfab,64d2fd46c836a06233681665,64dc7fb882aaae7350779d87,,,,,,,ctch,resources/DB.BMP,resources/DBN.BMP,Door4,0.325925926,0.018518519,1,0,0,0.9482,optionRight,60,6735,3,35,0,35,0,1,,,,,,,,,,,,,,,,,,,,,,,,,,,,,,,,,,,,,,,
,,,,,,,,2023-08-16_08h50.54.262,HF_wild_card,2022.2.4,Win32,59.85515054,6384d247abd7c0f44276bfab,64d2fd46c836a06233681665,64dc7fb882aaae7350779d87,,,,,,,ctch,resources/DP.BMP,resources/DR.BMP,Door3,-0.403703704,-0.014814815,1,0,0,2.2647,optionLeft,70,6805,3,36,0,36,0,1,,,,,,,,,,,,,,,,,,,,,,,,,,,,,,,,,,,,,,,
,,,,,,,,2023-08-16_08h50.54.262,HF_wild_card,2022.2.4,Win32,59.85515054,6384d247abd7c0f44276bfab,64d2fd46c836a06233681665,64dc7fb882aaae7350779d87,,,,,,,ctch,resources/DBN.BMP,resources/DB.BMP,Door4,-0.301851852,0.003703704,1,0,0,1.0642,optionLeft,60,6865,3,37,0,37,0,1,,,,,,,,,,,,,,,,,,,,,,,,,,,,,,,,,,,,,,,
,,,,,,,,2023-08-16_08h50.54.262,HF_wild_card,2022.2.4,Win32,59.85515054,6384d247abd7c0f44276bfab,64d2fd46c836a06233681665,64dc7fb882aaae7350779d87,,,,,,,sngl,resources/DP.BMP,resources/Empty.png,Door3,-0.260185185,-0.007407407,1,0,0,1.0629,optionLeft,70,6935,3,38,0,38,0,1,,,,,,,,,,,,,,,,,,,,,,,,,,,,,,,,,,,,,,,
,,,,,,,,2023-08-16_08h50.54.262,HF_wild_card,2022.2.4,Win32,59.85515054,6384d247abd7c0f44276bfab,64d2fd46c836a06233681665,64dc7fb882aaae7350779d87,,,,,,,sngl,resources/DB.BMP,resources/Empty.png,Door1,-0.234259259,-0.014814815,1,0,0,1.0328,optionLeft,30,6965,3,39,0,39,0,1,,,,,,,,,,,,,,,,,,,,,,,,,,,,,,,,,,,,,,,
,,,,,,,,2023-08-16_08h50.54.262,HF_wild_card,2022.2.4,Win32,59.85515054,6384d247abd7c0f44276bfab,64d2fd46c836a06233681665,64dc7fb882aaae7350779d87,,,,,,,decisionTrl,resources/DBN.BMP,resources/DP.BMP,Door4,-0.471296296,0.001851852,1,0,0,1.5307,optionLeft,60,7025,3,40,0,40,0,1,,,,,,,,,,,,,,,,,,,,,,,,,,,,,,,,,,,,,,,
,,,,,,,,2023-08-16_08h50.54.262,HF_wild_card,2022.2.4,Win32,59.85515054,6384d247abd7c0f44276bfab,64d2fd46c836a06233681665,64dc7fb882aaae7350779d87,,,,,,,sngl,resources/Empty.png,resources/DBN.BMP,Door4,0.424074074,-0.005555556,1,0,0,0.5157,optionRight,60,7085,3,41,0,41,0,1,,,,,,,,,,,,,,,,,,,,,,,,,,,,,,,,,,,,,,,
,,,,,,,,2023-08-16_08h50.54.262,HF_wild_card,2022.2.4,Win32,59.85515054,6384d247abd7c0f44276bfab,64d2fd46c836a06233681665,64dc7fb882aaae7350779d87,,,,,,,sngl,resources/DY.BMP,resources/Empty.png,WildCard_NonEx,-0.272222222,-0.012037037,1,0,0,0.9507,optionLeft,45,7130,3,42,0,42,0,1,,,,,,,,,,,,,,,,,,,,,,,,,,,,,,,,,,,,,,,
,,,,,,,,2023-08-16_08h50.54.262,HF_wild_card,2022.2.4,Win32,59.85515054,6384d247abd7c0f44276bfab,64d2fd46c836a06233681665,64dc7fb882aaae7350779d87,,,,,,,sngl,resources/DR.BMP,resources/Empty.png,Door2,-0.378703704,-0.017592593,1,0,0,2.2996,optionLeft,40,7170,3,43,0,43,0,1,,,,,,,,,,,,,,,,,,,,,,,,,,,,,,,,,,,,,,,
,,,,,,,,2023-08-16_08h50.54.262,HF_wild_card,2022.2.4,Win32,59.85515054,6384d247abd7c0f44276bfab,64d2fd46c836a06233681665,64dc7fb882aaae7350779d87,,,,,,,,,,,,,,,,,,,,,,,,,,2,0,2,0,1,,,,,,,,,,,,,,,,,,,,,,,,,,,,,,,,,,
,,,,,,,,2023-08-16_08h50.54.262,HF_wild_card,2022.2.4,Win32,59.85515054,6384d247abd7c0f44276bfab,64d2fd46c836a06233681665,64dc7fb882aaae7350779d87,,,,,,,decisionTrl,resources/DP.BMP,resources/DBN.BMP,Door4,0.411111111,-0.038888889,1,0,0,0.7627,optionRight,80,7250,4,0,0,0,0,1,,,,,,,,,,,,,,,,,,,,,,,,,,,,,,,,,,,,,,,
,,,,,,,,2023-08-16_08h50.54.262,HF_wild_card,2022.2.4,Win32,59.85515054,6384d247abd7c0f44276bfab,64d2fd46c836a06233681665,64dc7fb882aaae7350779d87,,,,,,,sngl,resources/Empty.png,resources/DB.BMP,Door1,0.312037037,-0.023148148,1,0,0,0.6468,optionRight,30,7280,4,1,0,1,0,1,,,,,,,,,,,,,,,,,,,,,,,,,,,,,,,,,,,,,,,
,,,,,,,,2023-08-16_08h50.54.262,HF_wild_card,2022.2.4,Win32,59.85515054,6384d247abd7c0f44276bfab,64d2fd46c836a06233681665,64dc7fb882aaae7350779d87,,,,,,,sngl,resources/Empty.png,resources/DR.BMP,Door2,0.431481481,0,1,0,0,0.5311,optionRight,40,7320,4,2,0,2,0,1,,,,,,,,,,,,,,,,,,,,,,,,,,,,,,,,,,,,,,,
,,,,,,,,2023-08-16_08h50.54.262,HF_wild_card,2022.2.4,Win32,59.85515054,6384d247abd7c0f44276bfab,64d2fd46c836a06233681665,64dc7fb882aaae7350779d87,,,,,,,decisionTrl,resources/DR.BMP,resources/DB.BMP,Door2,-0.386111111,-0.024074074,1,0,0,2.0985,optionLeft,40,7360,4,3,0,3,0,1,,,,,,,,,,,,,,,,,,,,,,,,,,,,,,,,,,,,,,,
,,,,,,,,2023-08-16_08h50.54.262,HF_wild_card,2022.2.4,Win32,59.85515054,6384d247abd7c0f44276bfab,64d2fd46c836a06233681665,64dc7fb882aaae7350779d87,,,,,,,ctch,resources/DR.BMP,resources/DP.BMP,Door3,0.362037037,-0.025925926,1,0,0,1.0301,optionRight,70,7430,4,4,0,4,0,1,,,,,,,,,,,,,,,,,,,,,,,,,,,,,,,,,,,,,,,
,,,,,,,,2023-08-16_08h50.54.262,HF_wild_card,2022.2.4,Win32,59.85515054,6384d247abd7c0f44276bfab,64d2fd46c836a06233681665,64dc7fb882aaae7350779d87,,,,,,,decisionTrl,resources/DP.BMP,resources/DBN.BMP,Door4,0.358333333,0.007407407,1,0,0,0.7154,optionRight,60,7490,4,5,0,5,0,1,,,,,,,,,,,,,,,,,,,,,,,,,,,,,,,,,,,,,,,
,,,,,,,,2023-08-16_08h50.54.262,HF_wild_card,2022.2.4,Win32,59.85515054,6384d247abd7c0f44276bfab,64d2fd46c836a06233681665,64dc7fb882aaae7350779d87,,,,,,,ctch,resources/DBN.BMP,resources/DB.BMP,Door4,-0.251851852,0.026851852,1,0,0,0.7649,optionLeft,60,7550,4,6,0,6,0,1,,,,,,,,,,,,,,,,,,,,,,,,,,,,,,,,,,,,,,,
,,,,,,,,2023-08-16_08h50.54.262,HF_wild_card,2022.2.4,Win32,59.85515054,6384d247abd7c0f44276bfab,64d2fd46c836a06233681665,64dc7fb882aaae7350779d87,,,,,,,sngl,resources/DBN.BMP,resources/Empty.png,Door4,-0.4,0,1,0,0,0.6156,optionLeft,60,7610,4,7,0,7,0,1,,,,,,,,,,,,,,,,,,,,,,,,,,,,,,,,,,,,,,,
,,,,,,,,2023-08-16_08h50.54.262,HF_wild_card,2022.2.4,Win32,59.85515054,6384d247abd7c0f44276bfab,64d2fd46c836a06233681665,64dc7fb882aaae7350779d87,,,,,,,decisionTrl,resources/DG.BMP,resources/DR.BMP,WildCard_Ex,-0.257407407,0.00462963,1,0,0,1.6616,optionLeft,55,7665,4,8,0,8,0,1,,,,,,,,,,,,,,,,,,,,,,,,,,,,,,,,,,,,,,,
,,,,,,,,2023-08-16_08h50.54.262,HF_wild_card,2022.2.4,Win32,59.85515054,6384d247abd7c0f44276bfab,64d2fd46c836a06233681665,64dc7fb882aaae7350779d87,,,,,,,ctch,resources/DB.BMP,resources/DBN.BMP,Door4,0.387037037,-0.005555556,1,0,0,0.9319,optionRight,60,7725,4,9,0,9,0,1,,,,,,,,,,,,,,,,,,,,,,,,,,,,,,,,,,,,,,,
,,,,,,,,2023-08-16_08h50.54.262,HF_wild_card,2022.2.4,Win32,59.85515054,6384d247abd7c0f44276bfab,64d2fd46c836a06233681665,64dc7fb882aaae7350779d87,,,,,,,decisionTrl,resources/DP.BMP,resources/DBN.BMP,Door4,0.275925926,-0.008333333,1,0,0,0.999,optionRight,60,7785,4,10,0,10,0,1,,,,,,,,,,,,,,,,,,,,,,,,,,,,,,,,,,,,,,,
,,,,,,,,2023-08-16_08h50.54.262,HF_wild_card,2022.2.4,Win32,59.85515054,6384d247abd7c0f44276bfab,64d2fd46c836a06233681665,64dc7fb882aaae7350779d87,,,,,,,decisionTrl,resources/DP.BMP,resources/DBN.BMP,Door4,0.262962963,0.034259259,1,0,0,0.9597,optionRight,80,7865,4,11,0,11,0,1,,,,,,,,,,,,,,,,,,,,,,,,,,,,,,,,,,,,,,,
,,,,,,,,2023-08-16_08h50.54.262,HF_wild_card,2022.2.4,Win32,59.85515054,6384d247abd7c0f44276bfab,64d2fd46c836a06233681665,64dc7fb882aaae7350779d87,,,,,,,sngl,resources/DR.BMP,resources/Empty.png,Door2,-0.264814815,-0.021296296,1,0,0,0.6806,optionLeft,20,7885,4,12,0,12,0,1,,,,,,,,,,,,,,,,,,,,,,,,,,,,,,,,,,,,,,,
,,,,,,,,2023-08-16_08h50.54.262,HF_wild_card,2022.2.4,Win32,59.85515054,6384d247abd7c0f44276bfab,64d2fd46c836a06233681665,64dc7fb882aaae7350779d87,,,,,,,decisionTrl,resources/DG.BMP,resources/DBN.BMP,Door4,0.299074074,0.012037037,1,0,0,0.9829,optionRight,80,7965,4,13,0,13,0,1,,,,,,,,,,,,,,,,,,,,,,,,,,,,,,,,,,,,,,,
,,,,,,,,2023-08-16_08h50.54.262,HF_wild_card,2022.2.4,Win32,59.85515054,6384d247abd7c0f44276bfab,64d2fd46c836a06233681665,64dc7fb882aaae7350779d87,,,,,,,sngl,resources/DP.BMP,resources/Empty.png,Door3,-0.317592593,-0.024074074,1,0,0,0.6658,optionLeft,70,8035,4,14,0,14,0,1,,,,,,,,,,,,,,,,,,,,,,,,,,,,,,,,,,,,,,,
,,,,,,,,2023-08-16_08h50.54.262,HF_wild_card,2022.2.4,Win32,59.85515054,6384d247abd7c0f44276bfab,64d2fd46c836a06233681665,64dc7fb882aaae7350779d87,,,,,,,decisionTrl,resources/DR.BMP,resources/DB.BMP,Door2,-0.267592593,-0.011111111,1,0,0,1.7807,optionLeft,40,8075,4,15,0,15,0,1,,,,,,,,,,,,,,,,,,,,,,,,,,,,,,,,,,,,,,,
,,,,,,,,2023-08-16_08h50.54.262,HF_wild_card,2022.2.4,Win32,59.85515054,6384d247abd7c0f44276bfab,64d2fd46c836a06233681665,64dc7fb882aaae7350779d87,,,,,,,decisionTrl,resources/DR.BMP,resources/DB.BMP,Door1,0.377777778,-0.001851852,1,0,0,0.814,optionRight,30,8105,4,16,0,16,0,1,,,,,,,,,,,,,,,,,,,,,,,,,,,,,,,,,,,,,,,
,,,,,,,,2023-08-16_08h50.54.262,HF_wild_card,2022.2.4,Win32,59.85515054,6384d247abd7c0f44276bfab,64d2fd46c836a06233681665,64dc7fb882aaae7350779d87,,,,,,,decisionTrl,resources/DBN.BMP,resources/DG.BMP,Door4,-0.293518519,-0.02037037,1,0,0,1.1481,optionLeft,60,8165,4,17,0,17,0,1,,,,,,,,,,,,,,,,,,,,,,,,,,,,,,,,,,,,,,,
,,,,,,,,2023-08-16_08h50.54.262,HF_wild_card,2022.2.4,Win32,59.85515054,6384d247abd7c0f44276bfab,64d2fd46c836a06233681665,64dc7fb882aaae7350779d87,,,,,,,sngl,resources/DG.BMP,resources/Empty.png,WildCard_Ex,-0.237037037,-0.013888889,1,0,0,1.0821,optionLeft,55,8220,4,18,0,18,0,1,,,,,,,,,,,,,,,,,,,,,,,,,,,,,,,,,,,,,,,
,,,,,,,,2023-08-16_08h50.54.262,HF_wild_card,2022.2.4,Win32,59.85515054,6384d247abd7c0f44276bfab,64d2fd46c836a06233681665,64dc7fb882aaae7350779d87,,,,,,,sngl,resources/Empty.png,resources/DG.BMP,WildCard_Ex,0.353703704,0.025,1,0,0,0.5649,optionRight,45,8265,4,19,0,19,0,1,,,,,,,,,,,,,,,,,,,,,,,,,,,,,,,,,,,,,,,
,,,,,,,,2023-08-16_08h50.54.262,HF_wild_card,2022.2.4,Win32,59.85515054,6384d247abd7c0f44276bfab,64d2fd46c836a06233681665,64dc7fb882aaae7350779d87,,,,,,,decisionTrl,resources/DBN.BMP,resources/DP.BMP,Door4,-0.177777778,-0.006481481,1,0,0,1.0306,optionLeft,60,8325,4,20,0,20,0,1,,,,,,,,,,,,,,,,,,,,,,,,,,,,,,,,,,,,,,,
,,,,,,,,2023-08-16_08h50.54.262,HF_wild_card,2022.2.4,Win32,59.85515054,6384d247abd7c0f44276bfab,64d2fd46c836a06233681665,64dc7fb882aaae7350779d87,,,,,,,decisionTrl,resources/DBN.BMP,resources/DP.BMP,Door3,0.405555556,-0.006481481,1,0,0,1.7155,optionRight,70,8395,4,21,0,21,0,1,,,,,,,,,,,,,,,,,,,,,,,,,,,,,,,,,,,,,,,
,,,,,,,,2023-08-16_08h50.54.262,HF_wild_card,2022.2.4,Win32,59.85515054,6384d247abd7c0f44276bfab,64d2fd46c836a06233681665,64dc7fb882aaae7350779d87,,,,,,,sngl,resources/Empty.png,resources/DP.BMP,Door3,0.408333333,-0.019444444,1,0,0,0.6658,optionRight,70,8465,4,22,0,22,0,1,,,,,,,,,,,,,,,,,,,,,,,,,,,,,,,,,,,,,,,
,,,,,,,,2023-08-16_08h50.54.262,HF_wild_card,2022.2.4,Win32,59.85515054,6384d247abd7c0f44276bfab,64d2fd46c836a06233681665,64dc7fb882aaae7350779d87,,,,,,,decisionTrl,resources/DR.BMP,resources/DG.BMP,Door2,-0.325,-0.035185185,1,0,0,1.8161,optionLeft,40,8505,4,23,0,23,0,1,,,,,,,,,,,,,,,,,,,,,,,,,,,,,,,,,,,,,,,
,,,,,,,,2023-08-16_08h50.54.262,HF_wild_card,2022.2.4,Win32,59.85515054,6384d247abd7c0f44276bfab,64d2fd46c836a06233681665,64dc7fb882aaae7350779d87,,,,,,,decisionTrl,resources/DB.BMP,resources/DR.BMP,Door1,-0.412962963,0,1,0,0,1.5324,optionLeft,30,8535,4,24,0,24,0,1,,,,,,,,,,,,,,,,,,,,,,,,,,,,,,,,,,,,,,,
,,,,,,,,2023-08-16_08h50.54.262,HF_wild_card,2022.2.4,Win32,59.85515054,6384d247abd7c0f44276bfab,64d2fd46c836a06233681665,64dc7fb882aaae7350779d87,,,,,,,ctch,resources/DB.BMP,resources/DBN.BMP,Door4,0.301851852,0.012962963,1,0,0,1.4979,optionRight,60,8595,4,25,0,25,0,1,,,,,,,,,,,,,,,,,,,,,,,,,,,,,,,,,,,,,,,
,,,,,,,,2023-08-16_08h50.54.262,HF_wild_card,2022.2.4,Win32,59.85515054,6384d247abd7c0f44276bfab,64d2fd46c836a06233681665,64dc7fb882aaae7350779d87,,,,,,,decisionTrl,resources/DB.BMP,resources/DR.BMP,Door2,0.448148148,-0.007407407,1,0,0,2.9145,optionRight,40,8635,4,26,0,26,0,1,,,,,,,,,,,,,,,,,,,,,,,,,,,,,,,,,,,,,,,
,,,,,,,,2023-08-16_08h50.54.262,HF_wild_card,2022.2.4,Win32,59.85515054,6384d247abd7c0f44276bfab,64d2fd46c836a06233681665,64dc7fb882aaae7350779d87,,,,,,,sngl,resources/DB.BMP,resources/Empty.png,Door1,-0.213888889,-0.02962963,1,0,0,0.648,optionLeft,30,8665,4,27,0,27,0,1,,,,,,,,,,,,,,,,,,,,,,,,,,,,,,,,,,,,,,,
,,,,,,,,2023-08-16_08h50.54.262,HF_wild_card,2022.2.4,Win32,59.85515054,6384d247abd7c0f44276bfab,64d2fd46c836a06233681665,64dc7fb882aaae7350779d87,,,,,,,decisionTrl,resources/DG.BMP,resources/DB.BMP,WildCard_Ex,-0.234259259,-0.015740741,1,0,0,2.6311,optionLeft,45,8710,4,28,0,28,0,1,,,,,,,,,,,,,,,,,,,,,,,,,,,,,,,,,,,,,,,
,,,,,,,,2023-08-16_08h50.54.262,HF_wild_card,2022.2.4,Win32,59.85515054,6384d247abd7c0f44276bfab,64d2fd46c836a06233681665,64dc7fb882aaae7350779d87,,,,,,,sngl,resources/Empty.png,resources/DBN.BMP,Door4,0.414814815,0.014814815,1,0,0,0.6656,optionRight,80,8790,4,29,0,29,0,1,,,,,,,,,,,,,,,,,,,,,,,,,,,,,,,,,,,,,,,
,,,,,,,,2023-08-16_08h50.54.262,HF_wild_card,2022.2.4,Win32,59.85515054,6384d247abd7c0f44276bfab,64d2fd46c836a06233681665,64dc7fb882aaae7350779d87,,,,,,,ctch,resources/DR.BMP,resources/DP.BMP,Door3,0.357407407,-0.027777778,1,0,0,1.748,optionRight,70,8860,4,30,0,30,0,1,,,,,,,,,,,,,,,,,,,,,,,,,,,,,,,,,,,,,,,
,,,,,,,,2023-08-16_08h50.54.262,HF_wild_card,2022.2.4,Win32,59.85515054,6384d247abd7c0f44276bfab,64d2fd46c836a06233681665,64dc7fb882aaae7350779d87,,,,,,,decisionTrl,resources/DB.BMP,resources/DR.BMP,Door2,0.453703704,0.064814815,1,0,0,2.2661,optionRight,40,8900,4,31,0,31,0,1,,,,,,,,,,,,,,,,,,,,,,,,,,,,,,,,,,,,,,,
,,,,,,,,2023-08-16_08h50.54.262,HF_wild_card,2022.2.4,Win32,59.85515054,6384d247abd7c0f44276bfab,64d2fd46c836a06233681665,64dc7fb882aaae7350779d87,,,,,,,decisionTrl,resources/DR.BMP,resources/DB.BMP,Door1,0.474074074,-0.013888889,1,0,0,1.3478,optionRight,30,8930,4,32,0,32,0,1,,,,,,,,,,,,,,,,,,,,,,,,,,,,,,,,,,,,,,,
,,,,,,,,2023-08-16_08h50.54.262,HF_wild_card,2022.2.4,Win32,59.85515054,6384d247abd7c0f44276bfab,64d2fd46c836a06233681665,64dc7fb882aaae7350779d87,,,,,,,decisionTrl,resources/DBN.BMP,resources/DP.BMP,Door4,-0.301851852,-0.007407407,1,0,0,1.1006,optionLeft,80,9010,4,33,0,33,0,1,,,,,,,,,,,,,,,,,,,,,,,,,,,,,,,,,,,,,,,
,,,,,,,,2023-08-16_08h50.54.262,HF_wild_card,2022.2.4,Win32,59.85515054,6384d247abd7c0f44276bfab,64d2fd46c836a06233681665,64dc7fb882aaae7350779d87,,,,,,,ctch,resources/DBN.BMP,resources/DB.BMP,Door4,-0.231481481,-0.006481481,1,0,0,0.8306,optionLeft,60,9070,4,34,0,34,0,1,,,,,,,,,,,,,,,,,,,,,,,,,,,,,,,,,,,,,,,
,,,,,,,,2023-08-16_08h50.54.262,HF_wild_card,2022.2.4,Win32,59.85515054,6384d247abd7c0f44276bfab,64d2fd46c836a06233681665,64dc7fb882aaae7350779d87,,,,,,,decisionTrl,resources/DBN.BMP,resources/DP.BMP,Door4,-0.278703704,0.006481481,1,0,0,0.7647,optionLeft,80,9150,4,35,0,35,0,1,,,,,,,,,,,,,,,,,,,,,,,,,,,,,,,,,,,,,,,
,,,,,,,,2023-08-16_08h50.54.262,HF_wild_card,2022.2.4,Win32,59.85515054,6384d247abd7c0f44276bfab,64d2fd46c836a06233681665,64dc7fb882aaae7350779d87,,,,,,,decisionTrl,resources/DG.BMP,resources/DP.BMP,Door3,0.359259259,0.003703704,1,0,0,1.9145,optionRight,70,9220,4,36,0,36,0,1,,,,,,,,,,,,,,,,,,,,,,,,,,,,,,,,,,,,,,,
,,,,,,,,2023-08-16_08h50.54.262,HF_wild_card,2022.2.4,Win32,59.85515054,6384d247abd7c0f44276bfab,64d2fd46c836a06233681665,64dc7fb882aaae7350779d87,,,,,,,ctch,resources/DP.BMP,resources/DR.BMP,Door3,-0.257407407,-0.009259259,1,0,0,1.3979,optionLeft,70,9290,4,37,0,37,0,1,,,,,,,,,,,,,,,,,,,,,,,,,,,,,,,,,,,,,,,
,,,,,,,,2023-08-16_08h50.54.262,HF_wild_card,2022.2.4,Win32,59.85515054,6384d247abd7c0f44276bfab,64d2fd46c836a06233681665,64dc7fb882aaae7350779d87,,,,,,,sngl,resources/DG.BMP,resources/Empty.png,WildCard_Ex,-0.198148148,-0.012037037,1,0,0,0.8654,optionLeft,45,9335,4,38,0,38,0,1,,,,,,,,,,,,,,,,,,,,,,,,,,,,,,,,,,,,,,,
,,,,,,,,2023-08-16_08h50.54.262,HF_wild_card,2022.2.4,Win32,59.85515054,6384d247abd7c0f44276bfab,64d2fd46c836a06233681665,64dc7fb882aaae7350779d87,,,,,,,decisionTrl,resources/DB.BMP,resources/DG.BMP,WildCard_Ex,0.386111111,0.007407407,1,0,0,1.5155,optionRight,45,9380,4,39,0,39,0,1,,,,,,,,,,,,,,,,,,,,,,,,,,,,,,,,,,,,,,,
,,,,,,,,2023-08-16_08h50.54.262,HF_wild_card,2022.2.4,Win32,59.85515054,6384d247abd7c0f44276bfab,64d2fd46c836a06233681665,64dc7fb882aaae7350779d87,,,,,,,decisionTrl,resources/DP.BMP,resources/DG.BMP,Door3,-0.208333333,-0.003703704,1,0,0,1.0311,optionLeft,70,9450,4,40,0,40,0,1,,,,,,,,,,,,,,,,,,,,,,,,,,,,,,,,,,,,,,,
,,,,,,,,2023-08-16_08h50.54.262,HF_wild_card,2022.2.4,Win32,59.85515054,6384d247abd7c0f44276bfab,64d2fd46c836a06233681665,64dc7fb882aaae7350779d87,,,,,,,sngl,resources/Empty.png,resources/DG.BMP,WildCard_Ex,0.325925926,0.009259259,1,0,0,0.6329,optionRight,55,9505,4,41,0,41,0,1,,,,,,,,,,,,,,,,,,,,,,,,,,,,,,,,,,,,,,,
,,,,,,,,2023-08-16_08h50.54.262,HF_wild_card,2022.2.4,Win32,59.85515054,6384d247abd7c0f44276bfab,64d2fd46c836a06233681665,64dc7fb882aaae7350779d87,,,,,,,decisionTrl,resources/DB.BMP,resources/DR.BMP,Door2,0.412962963,0.017592593,1,0,0,1.2657,optionRight,20,9525,4,42,0,42,0,1,,,,,,,,,,,,,,,,,,,,,,,,,,,,,,,,,,,,,,,
,,,,,,,,2023-08-16_08h50.54.262,HF_wild_card,2022.2.4,Win32,59.85515054,6384d247abd7c0f44276bfab,64d2fd46c836a06233681665,64dc7fb882aaae7350779d87,,,,,,,ctch,resources/DP.BMP,resources/DR.BMP,Door3,-0.327777778,-0.028703704,1,0,0,0.8649,optionLeft,70,9595,4,43,0,43,0,1,,,,,,,,,,,,,,,,,,,,,,,,,,,,,,,,,,,,,,,
,,,,,,,,2023-08-16_08h50.54.262,HF_wild_card,2022.2.4,Win32,59.85515054,6384d247abd7c0f44276bfab,64d2fd46c836a06233681665,64dc7fb882aaae7350779d87,,,,,,,,,,,,,,,,,,,,,,,,,,3,0,3,0,1,,,,,,,,,,,,,,,,,,,,,,,,,,,,,,,,,,
,,,,,,,,2023-08-16_08h50.54.262,HF_wild_card,2022.2.4,Win32,59.85515054,6384d247abd7c0f44276bfab,64d2fd46c836a06233681665,64dc7fb882aaae7350779d87,,,,,,,ctch,resources/DP.BMP,resources/DR.BMP,Door3,-0.202777778,-0.087037037,1,0,0,1.6417,optionLeft,70,9665,5,0,0,0,0,1,,,,,,,,,,,,,,,,,,,,,,,,,,,,,,,,,,,,,,,
,,,,,,,,2023-08-16_08h50.54.262,HF_wild_card,2022.2.4,Win32,59.85515054,6384d247abd7c0f44276bfab,64d2fd46c836a06233681665,64dc7fb882aaae7350779d87,,,,,,,sngl,resources/DBN.BMP,resources/Empty.png,Door4,-0.290740741,-0.017592593,1,0,0,0.5827,optionLeft,80,9745,5,1,0,1,0,1,,,,,,,,,,,,,,,,,,,,,,,,,,,,,,,,,,,,,,,
,,,,,,,,2023-08-16_08h50.54.262,HF_wild_card,2022.2.4,Win32,59.85515054,6384d247abd7c0f44276bfab,64d2fd46c836a06233681665,64dc7fb882aaae7350779d87,,,,,,,ctch,resources/DR.BMP,resources/DP.BMP,Door3,0.319444444,-0.04537037,1,0,0,1.2156,optionRight,70,9815,5,2,0,2,0,1,,,,,,,,,,,,,,,,,,,,,,,,,,,,,,,,,,,,,,,
,,,,,,,,2023-08-16_08h50.54.262,HF_wild_card,2022.2.4,Win32,59.85515054,6384d247abd7c0f44276bfab,64d2fd46c836a06233681665,64dc7fb882aaae7350779d87,,,,,,,sngl,resources/DG.BMP,resources/Empty.png,WildCard_Ex,-0.209259259,0.012962963,1,0,0,0.6151,optionLeft,45,9860,5,3,0,3,0,1,,,,,,,,,,,,,,,,,,,,,,,,,,,,,,,,,,,,,,,
,,,,,,,,2023-08-16_08h50.54.262,HF_wild_card,2022.2.4,Win32,59.85515054,6384d247abd7c0f44276bfab,64d2fd46c836a06233681665,64dc7fb882aaae7350779d87,,,,,,,sngl,resources/DP.BMP,resources/Empty.png,Door3,-0.266666667,-0.02037037,1,0,0,0.9148,optionLeft,70,9930,5,4,0,4,0,1,,,,,,,,,,,,,,,,,,,,,,,,,,,,,,,,,,,,,,,
,,,,,,,,2023-08-16_08h50.54.262,HF_wild_card,2022.2.4,Win32,59.85515054,6384d247abd7c0f44276bfab,64d2fd46c836a06233681665,64dc7fb882aaae7350779d87,,,,,,,decisionTrl,resources/DR.BMP,resources/DG.BMP,WildCard_Ex,0.321296296,-0.003703704,1,0,0,1.5322,optionRight,55,9985,5,5,0,5,0,1,,,,,,,,,,,,,,,,,,,,,,,,,,,,,,,,,,,,,,,
,,,,,,,,2023-08-16_08h50.54.262,HF_wild_card,2022.2.4,Win32,59.85515054,6384d247abd7c0f44276bfab,64d2fd46c836a06233681665,64dc7fb882aaae7350779d87,,,,,,,ctch,resources/DBN.BMP,resources/DB.BMP,Door4,-0.268518519,-0.010185185,1,0,0,0.831,optionLeft,60,10045,5,6,0,6,0,1,,,,,,,,,,,,,,,,,,,,,,,,,,,,,,,,,,,,,,,
,,,,,,,,2023-08-16_08h50.54.262,HF_wild_card,2022.2.4,Win32,59.85515054,6384d247abd7c0f44276bfab,64d2fd46c836a06233681665,64dc7fb882aaae7350779d87,,,,,,,decisionTrl,resources/DBN.BMP,resources/DP.BMP,Door4,-0.181481481,0.002777778,1,0,0,0.8655,optionLeft,60,10105,5,7,0,7,0,1,,,,,,,,,,,,,,,,,,,,,,,,,,,,,,,,,,,,,,,
,,,,,,,,2023-08-16_08h50.54.262,HF_wild_card,2022.2.4,Win32,59.85515054,6384d247abd7c0f44276bfab,64d2fd46c836a06233681665,64dc7fb882aaae7350779d87,,,,,,,decisionTrl,resources/DG.BMP,resources/DR.BMP,WildCard_Ex,-0.247222222,-0.013888889,1,0,0,2.4495,optionLeft,55,10160,5,8,0,8,0,1,,,,,,,,,,,,,,,,,,,,,,,,,,,,,,,,,,,,,,,
,,,,,,,,2023-08-16_08h50.54.262,HF_wild_card,2022.2.4,Win32,59.85515054,6384d247abd7c0f44276bfab,64d2fd46c836a06233681665,64dc7fb882aaae7350779d87,,,,,,,decisionTrl,resources/DR.BMP,resources/DB.BMP,Door1,0.468518519,-0.009259259,1,0,0,1.7653,optionRight,30,10190,5,9,0,9,0,1,,,,,,,,,,,,,,,,,,,,,,,,,,,,,,,,,,,,,,,
,,,,,,,,2023-08-16_08h50.54.262,HF_wild_card,2022.2.4,Win32,59.85515054,6384d247abd7c0f44276bfab,64d2fd46c836a06233681665,64dc7fb882aaae7350779d87,,,,,,,decisionTrl,resources/DB.BMP,resources/DR.BMP,Door2,0.341666667,-0.015740741,1,0,0,1.298,optionRight,40,10230,5,10,0,10,0,1,,,,,,,,,,,,,,,,,,,,,,,,,,,,,,,,,,,,,,,
,,,,,,,,2023-08-16_08h50.54.262,HF_wild_card,2022.2.4,Win32,59.85515054,6384d247abd7c0f44276bfab,64d2fd46c836a06233681665,64dc7fb882aaae7350779d87,,,,,,,decisionTrl,resources/DB.BMP,resources/DG.BMP,WildCard_Ex,0.326851852,-0.003703704,1,0,0,0.999,optionRight,55,10285,5,11,0,11,0,1,,,,,,,,,,,,,,,,,,,,,,,,,,,,,,,,,,,,,,,
,,,,,,,,2023-08-16_08h50.54.262,HF_wild_card,2022.2.4,Win32,59.85515054,6384d247abd7c0f44276bfab,64d2fd46c836a06233681665,64dc7fb882aaae7350779d87,,,,,,,sngl,resources/Empty.png,resources/DG.BMP,WildCard_Ex,0.380555556,0.021296296,1,0,0,0.632,optionRight,55,10340,5,12,0,12,0,1,,,,,,,,,,,,,,,,,,,,,,,,,,,,,,,,,,,,,,,
,,,,,,,,2023-08-16_08h50.54.262,HF_wild_card,2022.2.4,Win32,59.85515054,6384d247abd7c0f44276bfab,64d2fd46c836a06233681665,64dc7fb882aaae7350779d87,,,,,,,sngl,resources/DB.BMP,resources/Empty.png,Door1,-0.187037037,-0.000925926,1,0,0,0.7992,optionLeft,30,10370,5,13,0,13,0,1,,,,,,,,,,,,,,,,,,,,,,,,,,,,,,,,,,,,,,,
,,,,,,,,2023-08-16_08h50.54.262,HF_wild_card,2022.2.4,Win32,59.85515054,6384d247abd7c0f44276bfab,64d2fd46c836a06233681665,64dc7fb882aaae7350779d87,,,,,,,decisionTrl,resources/DB.BMP,resources/DR.BMP,Door2,0.389814815,0.015740741,1,0,0,1.1322,optionRight,20,10390,5,14,0,14,0,1,,,,,,,,,,,,,,,,,,,,,,,,,,,,,,,,,,,,,,,
,,,,,,,,2023-08-16_08h50.54.262,HF_wild_card,2022.2.4,Win32,59.85515054,6384d247abd7c0f44276bfab,64d2fd46c836a06233681665,64dc7fb882aaae7350779d87,,,,,,,decisionTrl,resources/DP.BMP,resources/DBN.BMP,Door4,0.430555556,-0.000925926,1,0,0,1.0203,optionRight,60,10450,5,15,0,15,0,1,,,,,,,,,,,,,,,,,,,,,,,,,,,,,,,,,,,,,,,
,,,,,,,,2023-08-16_08h50.54.262,HF_wild_card,2022.2.4,Win32,59.85515054,6384d247abd7c0f44276bfab,64d2fd46c836a06233681665,64dc7fb882aaae7350779d87,,,,,,,decisionTrl,resources/DB.BMP,resources/DR.BMP,Door2,0.35,-0.003703704,1,0,0,6.9151,optionRight,20,10470,5,16,0,16,0,1,,,,,,,,,,,,,,,,,,,,,,,,,,,,,,,,,,,,,,,
,,,,,,,,2023-08-16_08h50.54.262,HF_wild_card,2022.2.4,Win32,59.85515054,6384d247abd7c0f44276bfab,64d2fd46c836a06233681665,64dc7fb882aaae7350779d87,,,,,,,decisionTrl,resources/DP.BMP,resources/DBN.BMP,Door3,-0.351851852,-0.008333333,1,0,0,1.9645,optionLeft,70,10540,5,17,0,17,0,1,,,,,,,,,,,,,,,,,,,,,,,,,,,,,,,,,,,,,,,
,,,,,,,,2023-08-16_08h50.54.262,HF_wild_card,2022.2.4,Win32,59.85515054,6384d247abd7c0f44276bfab,64d2fd46c836a06233681665,64dc7fb882aaae7350779d87,,,,,,,sngl,resources/Empty.png,resources/DP.BMP,Door3,0.262037037,0.008333333,1,0,0,0.6977,optionRight,70,10610,5,18,0,18,0,1,,,,,,,,,,,,,,,,,,,,,,,,,,,,,,,,,,,,,,,
,,,,,,,,2023-08-16_08h50.54.262,HF_wild_card,2022.2.4,Win32,59.85515054,6384d247abd7c0f44276bfab,64d2fd46c836a06233681665,64dc7fb882aaae7350779d87,,,,,,,decisionTrl,resources/DP.BMP,resources/DBN.BMP,Door4,0.221296296,0.017592593,1,0,0,0.7155,optionRight,60,10670,5,19,0,19,0,1,,,,,,,,,,,,,,,,,,,,,,,,,,,,,,,,,,,,,,,
,,,,,,,,2023-08-16_08h50.54.262,HF_wild_card,2022.2.4,Win32,59.85515054,6384d247abd7c0f44276bfab,64d2fd46c836a06233681665,64dc7fb882aaae7350779d87,,,,,,,decisionTrl,resources/DG.BMP,resources/DP.BMP,Door3,0.328703704,0.00462963,1,0,0,0.6149,optionRight,70,10740,5,20,0,20,0,1,,,,,,,,,,,,,,,,,,,,,,,,,,,,,,,,,,,,,,,
,,,,,,,,2023-08-16_08h50.54.262,HF_wild_card,2022.2.4,Win32,59.85515054,6384d247abd7c0f44276bfab,64d2fd46c836a06233681665,64dc7fb882aaae7350779d87,,,,,,,decisionTrl,resources/DBN.BMP,resources/DP.BMP,Door4,-0.275925926,0.019444444,1,0,0,1.2653,optionLeft,80,10820,5,21,0,21,0,1,,,,,,,,,,,,,,,,,,,,,,,,,,,,,,,,,,,,,,,
,,,,,,,,2023-08-16_08h50.54.262,HF_wild_card,2022.2.4,Win32,59.85515054,6384d247abd7c0f44276bfab,64d2fd46c836a06233681665,64dc7fb882aaae7350779d87,,,,,,,ctch,resources/DB.BMP,resources/DBN.BMP,Door4,0.180555556,-0.006481481,1,0,0,0.7316,optionRight,80,10900,5,22,0,22,0,1,,,,,,,,,,,,,,,,,,,,,,,,,,,,,,,,,,,,,,,
,,,,,,,,2023-08-16_08h50.54.262,HF_wild_card,2022.2.4,Win32,59.85515054,6384d247abd7c0f44276bfab,64d2fd46c836a06233681665,64dc7fb882aaae7350779d87,,,,,,,ctch,resources/DBN.BMP,resources/DB.BMP,Door4,-0.241666667,-0.009259259,1,0,0,0.5613,optionLeft,80,10980,5,23,0,23,0,1,,,,,,,,,,,,,,,,,,,,,,,,,,,,,,,,,,,,,,,
,,,,,,,,2023-08-16_08h50.54.262,HF_wild_card,2022.2.4,Win32,59.85515054,6384d247abd7c0f44276bfab,64d2fd46c836a06233681665,64dc7fb882aaae7350779d87,,,,,,,decisionTrl,resources/DG.BMP,resources/DB.BMP,WildCard_Ex,-0.175,-0.002777778,1,0,0,3.1156,optionLeft,45,11025,5,24,0,24,0,1,,,,,,,,,,,,,,,,,,,,,,,,,,,,,,,,,,,,,,,
,,,,,,,,2023-08-16_08h50.54.262,HF_wild_card,2022.2.4,Win32,59.85515054,6384d247abd7c0f44276bfab,64d2fd46c836a06233681665,64dc7fb882aaae7350779d87,,,,,,,decisionTrl,resources/DBN.BMP,resources/DP.BMP,Door4,-0.281481481,0.003703704,1,0,0,0.6319,optionLeft,80,11105,5,25,0,25,0,1,,,,,,,,,,,,,,,,,,,,,,,,,,,,,,,,,,,,,,,
,,,,,,,,2023-08-16_08h50.54.262,HF_wild_card,2022.2.4,Win32,59.85515054,6384d247abd7c0f44276bfab,64d2fd46c836a06233681665,64dc7fb882aaae7350779d87,,,,,,,decisionTrl,resources/DB.BMP,resources/DR.BMP,Door2,0.352777778,-0.014814815,1,0,0,2.699,optionRight,20,11125,5,26,0,26,0,1,,,,,,,,,,,,,,,,,,,,,,,,,,,,,,,,,,,,,,,
,,,,,,,,2023-08-16_08h50.54.262,HF_wild_card,2022.2.4,Win32,59.85515054,6384d247abd7c0f44276bfab,64d2fd46c836a06233681665,64dc7fb882aaae7350779d87,,,,,,,decisionTrl,resources/DBN.BMP,resources/DG.BMP,Door4,-0.338888889,0.006481481,1,0,0,0.7319,optionLeft,80,11205,5,27,0,27,0,1,,,,,,,,,,,,,,,,,,,,,,,,,,,,,,,,,,,,,,,
,,,,,,,,2023-08-16_08h50.54.262,HF_wild_card,2022.2.4,Win32,59.85515054,6384d247abd7c0f44276bfab,64d2fd46c836a06233681665,64dc7fb882aaae7350779d87,,,,,,,ctch,resources/DR.BMP,resources/DP.BMP,Door3,0.390740741,0,1,0,0,1.165,optionRight,70,11275,5,28,0,28,0,1,,,,,,,,,,,,,,,,,,,,,,,,,,,,,,,,,,,,,,,
,,,,,,,,2023-08-16_08h50.54.262,HF_wild_card,2022.2.4,Win32,59.85515054,6384d247abd7c0f44276bfab,64d2fd46c836a06233681665,64dc7fb882aaae7350779d87,,,,,,,sngl,resources/DG.BMP,resources/Empty.png,WildCard_Ex,-0.315740741,0.011111111,1,0,0,3.2654,optionLeft,55,11330,5,29,0,29,0,1,,,,,,,,,,,,,,,,,,,,,,,,,,,,,,,,,,,,,,,
,,,,,,,,2023-08-16_08h50.54.262,HF_wild_card,2022.2.4,Win32,59.85515054,6384d247abd7c0f44276bfab,64d2fd46c836a06233681665,64dc7fb882aaae7350779d87,,,,,,,ctch,resources/DP.BMP,resources/DR.BMP,Door3,-0.242592593,-0.021296296,1,0,0,4.0119,optionLeft,70,11400,5,30,0,30,0,1,,,,,,,,,,,,,,,,,,,,,,,,,,,,,,,,,,,,,,,
,,,,,,,,2023-08-16_08h50.54.262,HF_wild_card,2022.2.4,Win32,59.85515054,6384d247abd7c0f44276bfab,64d2fd46c836a06233681665,64dc7fb882aaae7350779d87,,,,,,,sngl,resources/DR.BMP,resources/Empty.png,Door2,-0.24537037,-0.010185185,1,0,0,0.6288,optionLeft,40,11440,5,31,0,31,0,1,,,,,,,,,,,,,,,,,,,,,,,,,,,,,,,,,,,,,,,
,,,,,,,,2023-08-16_08h50.54.262,HF_wild_card,2022.2.4,Win32,59.85515054,6384d247abd7c0f44276bfab,64d2fd46c836a06233681665,64dc7fb882aaae7350779d87,,,,,,,decisionTrl,resources/DR.BMP,resources/DB.BMP,Door2,-0.223148148,-0.001851852,1,0,0,1.0614,optionLeft,20,11460,5,32,0,32,0,1,,,,,,,,,,,,,,,,,,,,,,,,,,,,,,,,,,,,,,,
,,,,,,,,2023-08-16_08h50.54.262,HF_wild_card,2022.2.4,Win32,59.85515054,6384d247abd7c0f44276bfab,64d2fd46c836a06233681665,64dc7fb882aaae7350779d87,,,,,,,sngl,resources/Empty.png,resources/DR.BMP,Door2,0.458333333,0.025,1,0,0,0.5149,optionRight,20,11480,5,33,0,33,0,1,,,,,,,,,,,,,,,,,,,,,,,,,,,,,,,,,,,,,,,
,,,,,,,,2023-08-16_08h50.54.262,HF_wild_card,2022.2.4,Win32,59.85515054,6384d247abd7c0f44276bfab,64d2fd46c836a06233681665,64dc7fb882aaae7350779d87,,,,,,,sngl,resources/Empty.png,resources/DB.BMP,Door1,0.458333333,0.017592593,1,0,0,0.4995,optionRight,30,11510,5,34,0,34,0,1,,,,,,,,,,,,,,,,,,,,,,,,,,,,,,,,,,,,,,,
,,,,,,,,2023-08-16_08h50.54.262,HF_wild_card,2022.2.4,Win32,59.85515054,6384d247abd7c0f44276bfab,64d2fd46c836a06233681665,64dc7fb882aaae7350779d87,,,,,,,decisionTrl,resources/DP.BMP,resources/DG.BMP,Door3,-0.316666667,-0.018518519,1,0,0,1.7828,optionLeft,70,11580,5,35,0,35,0,1,,,,,,,,,,,,,,,,,,,,,,,,,,,,,,,,,,,,,,,
,,,,,,,,2023-08-16_08h50.54.262,HF_wild_card,2022.2.4,Win32,59.85515054,6384d247abd7c0f44276bfab,64d2fd46c836a06233681665,64dc7fb882aaae7350779d87,,,,,,,decisionTrl,resources/DR.BMP,resources/DB.BMP,Door1,0.260185185,-0.006481481,1,0,0,1.5952,optionRight,30,11610,5,36,0,36,0,1,,,,,,,,,,,,,,,,,,,,,,,,,,,,,,,,,,,,,,,
,,,,,,,,2023-08-16_08h50.54.262,HF_wild_card,2022.2.4,Win32,59.85515054,6384d247abd7c0f44276bfab,64d2fd46c836a06233681665,64dc7fb882aaae7350779d87,,,,,,,sngl,resources/Empty.png,resources/DBN.BMP,Door4,0.342592593,0.006481481,1,0,0,0.582,optionRight,60,11670,5,37,0,37,0,1,,,,,,,,,,,,,,,,,,,,,,,,,,,,,,,,,,,,,,,
,,,,,,,,2023-08-16_08h50.54.262,HF_wild_card,2022.2.4,Win32,59.85515054,6384d247abd7c0f44276bfab,64d2fd46c836a06233681665,64dc7fb882aaae7350779d87,,,,,,,decisionTrl,resources/DR.BMP,resources/DB.BMP,Door1,0.316666667,0.009259259,1,0,0,1.2687,optionRight,30,11700,5,38,0,38,0,1,,,,,,,,,,,,,,,,,,,,,,,,,,,,,,,,,,,,,,,
,,,,,,,,2023-08-16_08h50.54.262,HF_wild_card,2022.2.4,Win32,59.85515054,6384d247abd7c0f44276bfab,64d2fd46c836a06233681665,64dc7fb882aaae7350779d87,,,,,,,decisionTrl,resources/DG.BMP,resources/DBN.BMP,Door4,0.453703704,-0.015740741,1,0,0,0.8357,optionRight,60,11760,5,39,0,39,0,1,,,,,,,,,,,,,,,,,,,,,,,,,,,,,,,,,,,,,,,
,,,,,,,,2023-08-16_08h50.54.262,HF_wild_card,2022.2.4,Win32,59.85515054,6384d247abd7c0f44276bfab,64d2fd46c836a06233681665,64dc7fb882aaae7350779d87,,,,,,,ctch,resources/DB.BMP,resources/DBN.BMP,Door4,0.439814815,0.009259259,1,0,0,0.8187,optionRight,80,11840,5,40,0,40,0,1,,,,,,,,,,,,,,,,,,,,,,,,,,,,,,,,,,,,,,,
,,,,,,,,2023-08-16_08h50.54.262,HF_wild_card,2022.2.4,Win32,59.85515054,6384d247abd7c0f44276bfab,64d2fd46c836a06233681665,64dc7fb882aaae7350779d87,,,,,,,decisionTrl,resources/DBN.BMP,resources/DP.BMP,Door4,-0.3,-0.010185185,1,0,0,0.6968,optionLeft,80,11920,5,41,0,41,0,1,,,,,,,,,,,,,,,,,,,,,,,,,,,,,,,,,,,,,,,
,,,,,,,,2023-08-16_08h50.54.262,HF_wild_card,2022.2.4,Win32,59.85515054,6384d247abd7c0f44276bfab,64d2fd46c836a06233681665,64dc7fb882aaae7350779d87,,,,,,,decisionTrl,resources/DP.BMP,resources/DBN.BMP,Door4,0.351851852,0.008333333,1,0,0,0.5657,optionRight,80,12000,5,42,0,42,0,1,,,,,,,,,,,,,,,,,,,,,,,,,,,,,,,,,,,,,,,
,,,,,,,,2023-08-16_08h50.54.262,HF_wild_card,2022.2.4,Win32,59.85515054,6384d247abd7c0f44276bfab,64d2fd46c836a06233681665,64dc7fb882aaae7350779d87,,,,,,,sngl,resources/Empty.png,resources/DG.BMP,WildCard_Ex,0.392592593,0.023148148,1,0,0,0.5652,optionRight,45,12045,5,43,0,43,0,1,,,,,,,,,,,,,,,,,,,,,,,,,,,,,,,,,,,,,,,
,,,,,,,,2023-08-16_08h50.54.262,HF_wild_card,2022.2.4,Win32,59.85515054,6384d247abd7c0f44276bfab,64d2fd46c836a06233681665,64dc7fb882aaae7350779d87,,,,,,,,,,,,,,,,,,,,,,,,,,4,0,4,0,1,,,,,,,,,,,,,,,,,,,,,,,,,,,,,,,,,,
,,,,,,,,2023-08-16_08h50.54.262,HF_wild_card,2022.2.4,Win32,59.85515054,6384d247abd7c0f44276bfab,64d2fd46c836a06233681665,64dc7fb882aaae7350779d87,,,,,,,ctch,resources/DP.BMP,resources/DR.BMP,Door3,-0.258333333,-0.125925926,1,0,0,2.1305,optionLeft,70,12115,6,0,0,0,0,1,,,,,,,,,,,,,,,,,,,,,,,,,,,,,,,,,,,,,,,
,,,,,,,,2023-08-16_08h50.54.262,HF_wild_card,2022.2.4,Win32,59.85515054,6384d247abd7c0f44276bfab,64d2fd46c836a06233681665,64dc7fb882aaae7350779d87,,,,,,,decisionTrl,resources/DBN.BMP,resources/DP.BMP,Door4,-0.296296296,0.002777778,1,0,0,0.6651,optionLeft,80,12195,6,1,0,1,0,1,,,,,,,,,,,,,,,,,,,,,,,,,,,,,,,,,,,,,,,
,,,,,,,,2023-08-16_08h50.54.262,HF_wild_card,2022.2.4,Win32,59.85515054,6384d247abd7c0f44276bfab,64d2fd46c836a06233681665,64dc7fb882aaae7350779d87,,,,,,,ctch,resources/DB.BMP,resources/DBN.BMP,Door4,0.311111111,0.001851852,1,0,0,0.5826,optionRight,60,12255,6,2,0,2,0,1,,,,,,,,,,,,,,,,,,,,,,,,,,,,,,,,,,,,,,,
,,,,,,,,2023-08-16_08h50.54.262,HF_wild_card,2022.2.4,Win32,59.85515054,6384d247abd7c0f44276bfab,64d2fd46c836a06233681665,64dc7fb882aaae7350779d87,,,,,,,sngl,resources/DBN.BMP,resources/Empty.png,Door4,-0.297222222,0.031481481,1,0,0,0.534,optionLeft,60,12315,6,3,0,3,0,1,,,,,,,,,,,,,,,,,,,,,,,,,,,,,,,,,,,,,,,
,,,,,,,,2023-08-16_08h50.54.262,HF_wild_card,2022.2.4,Win32,59.85515054,6384d247abd7c0f44276bfab,64d2fd46c836a06233681665,64dc7fb882aaae7350779d87,,,,,,,sngl,resources/Empty.png,resources/DR.BMP,Door2,0.288888889,0.02037037,1,0,0,1.2986,optionRight,40,12355,6,4,0,4,0,1,,,,,,,,,,,,,,,,,,,,,,,,,,,,,,,,,,,,,,,
,,,,,,,,2023-08-16_08h50.54.262,HF_wild_card,2022.2.4,Win32,59.85515054,6384d247abd7c0f44276bfab,64d2fd46c836a06233681665,64dc7fb882aaae7350779d87,,,,,,,decisionTrl,resources/DR.BMP,resources/DG.BMP,WildCard_Ex,0.274074074,-0.046296296,1,0,0,3.7798,optionRight,55,12410,6,5,0,5,0,1,,,,,,,,,,,,,,,,,,,,,,,,,,,,,,,,,,,,,,,
,,,,,,,,2023-08-16_08h50.54.262,HF_wild_card,2022.2.4,Win32,59.85515054,6384d247abd7c0f44276bfab,64d2fd46c836a06233681665,64dc7fb882aaae7350779d87,,,,,,,decisionTrl,resources/DBN.BMP,resources/DP.BMP,Door4,-0.22037037,-0.009259259,1,0,0,0.8184,optionLeft,80,12490,6,6,0,6,0,1,,,,,,,,,,,,,,,,,,,,,,,,,,,,,,,,,,,,,,,
,,,,,,,,2023-08-16_08h50.54.262,HF_wild_card,2022.2.4,Win32,59.85515054,6384d247abd7c0f44276bfab,64d2fd46c836a06233681665,64dc7fb882aaae7350779d87,,,,,,,ctch,resources/DB.BMP,resources/DBN.BMP,Door4,0.325,-0.003703704,1,0,0,0.8284,optionRight,80,12570,6,7,0,7,0,1,,,,,,,,,,,,,,,,,,,,,,,,,,,,,,,,,,,,,,,
,,,,,,,,2023-08-16_08h50.54.262,HF_wild_card,2022.2.4,Win32,59.85515054,6384d247abd7c0f44276bfab,64d2fd46c836a06233681665,64dc7fb882aaae7350779d87,,,,,,,sngl,resources/DR.BMP,resources/Empty.png,Door2,-0.151851852,0.005555556,1,0,0,0.5638,optionLeft,20,12590,6,8,0,8,0,1,,,,,,,,,,,,,,,,,,,,,,,,,,,,,,,,,,,,,,,
,,,,,,,,2023-08-16_08h50.54.262,HF_wild_card,2022.2.4,Win32,59.85515054,6384d247abd7c0f44276bfab,64d2fd46c836a06233681665,64dc7fb882aaae7350779d87,,,,,,,decisionTrl,resources/DP.BMP,resources/DG.BMP,Door3,-0.151851852,0.001851852,1,0,0,0.9178,optionLeft,70,12660,6,9,0,9,0,1,,,,,,,,,,,,,,,,,,,,,,,,,,,,,,,,,,,,,,,
,,,,,,,,2023-08-16_08h50.54.262,HF_wild_card,2022.2.4,Win32,59.85515054,6384d247abd7c0f44276bfab,64d2fd46c836a06233681665,64dc7fb882aaae7350779d87,,,,,,,ctch,resources/DBN.BMP,resources/DB.BMP,Door4,-0.214814815,-0.009259259,1,0,0,0.6494,optionLeft,60,12720,6,10,0,10,0,1,,,,,,,,,,,,,,,,,,,,,,,,,,,,,,,,,,,,,,,
,,,,,,,,2023-08-16_08h50.54.262,HF_wild_card,2022.2.4,Win32,59.85515054,6384d247abd7c0f44276bfab,64d2fd46c836a06233681665,64dc7fb882aaae7350779d87,,,,,,,ctch,resources/DR.BMP,resources/DP.BMP,Door3,0.288888889,-0.00462963,1,0,0,0.8004,optionRight,70,12790,6,11,0,11,0,1,,,,,,,,,,,,,,,,,,,,,,,,,,,,,,,,,,,,,,,
,,,,,,,,2023-08-16_08h50.54.262,HF_wild_card,2022.2.4,Win32,59.85515054,6384d247abd7c0f44276bfab,64d2fd46c836a06233681665,64dc7fb882aaae7350779d87,,,,,,,decisionTrl,resources/DB.BMP,resources/DR.BMP,Door2,0.247222222,0.001851852,1,0,0,1.2794,optionRight,20,12810,6,12,0,12,0,1,,,,,,,,,,,,,,,,,,,,,,,,,,,,,,,,,,,,,,,
,,,,,,,,2023-08-16_08h50.54.262,HF_wild_card,2022.2.4,Win32,59.85515054,6384d247abd7c0f44276bfab,64d2fd46c836a06233681665,64dc7fb882aaae7350779d87,,,,,,,sngl,resources/Empty.png,resources/DG.BMP,WildCard_Ex,0.363888889,-0.012037037,1,0,0,0.7494,optionRight,55,12865,6,13,0,13,0,1,,,,,,,,,,,,,,,,,,,,,,,,,,,,,,,,,,,,,,,
,,,,,,,,2023-08-16_08h50.54.262,HF_wild_card,2022.2.4,Win32,59.85515054,6384d247abd7c0f44276bfab,64d2fd46c836a06233681665,64dc7fb882aaae7350779d87,,,,,,,decisionTrl,resources/DP.BMP,resources/DBN.BMP,Door4,0.305555556,-0.006481481,1,0,0,1.1825,optionRight,60,12925,6,14,0,14,0,1,,,,,,,,,,,,,,,,,,,,,,,,,,,,,,,,,,,,,,,
,,,,,,,,2023-08-16_08h50.54.262,HF_wild_card,2022.2.4,Win32,59.85515054,6384d247abd7c0f44276bfab,64d2fd46c836a06233681665,64dc7fb882aaae7350779d87,,,,,,,decisionTrl,resources/DB.BMP,resources/DR.BMP,Door2,0.283333333,-0.023148148,1,0,0,1.4981,optionRight,20,12945,6,15,0,15,0,1,,,,,,,,,,,,,,,,,,,,,,,,,,,,,,,,,,,,,,,
,,,,,,,,2023-08-16_08h50.54.262,HF_wild_card,2022.2.4,Win32,59.85515054,6384d247abd7c0f44276bfab,64d2fd46c836a06233681665,64dc7fb882aaae7350779d87,,,,,,,decisionTrl,resources/DG.BMP,resources/DB.BMP,WildCard_Ex,-0.187037037,-0.003703704,1,0,0,1.4493,optionLeft,45,12990,6,16,0,16,0,1,,,,,,,,,,,,,,,,,,,,,,,,,,,,,,,,,,,,,,,
,,,,,,,,2023-08-16_08h50.54.262,HF_wild_card,2022.2.4,Win32,59.85515054,6384d247abd7c0f44276bfab,64d2fd46c836a06233681665,64dc7fb882aaae7350779d87,,,,,,,decisionTrl,resources/DR.BMP,resources/DB.BMP,Door2,-0.184259259,-0.006481481,1,0,0,1.4656,optionLeft,40,13030,6,17,0,17,0,1,,,,,,,,,,,,,,,,,,,,,,,,,,,,,,,,,,,,,,,
,,,,,,,,2023-08-16_08h50.54.262,HF_wild_card,2022.2.4,Win32,59.85515054,6384d247abd7c0f44276bfab,64d2fd46c836a06233681665,64dc7fb882aaae7350779d87,,,,,,,sngl,resources/Empty.png,resources/DB.BMP,Door1,0.358333333,0.018518519,1,0,0,1.1817,optionRight,30,13060,6,18,0,18,0,1,,,,,,,,,,,,,,,,,,,,,,,,,,,,,,,,,,,,,,,
,,,,,,,,2023-08-16_08h50.54.262,HF_wild_card,2022.2.4,Win32,59.85515054,6384d247abd7c0f44276bfab,64d2fd46c836a06233681665,64dc7fb882aaae7350779d87,,,,,,,decisionTrl,resources/DP.BMP,resources/DBN.BMP,Door4,0.269444444,0,1,0,0,0.8674,optionRight,80,13140,6,19,0,19,0,1,,,,,,,,,,,,,,,,,,,,,,,,,,,,,,,,,,,,,,,
,,,,,,,,2023-08-16_08h50.54.262,HF_wild_card,2022.2.4,Win32,59.85515054,6384d247abd7c0f44276bfab,64d2fd46c836a06233681665,64dc7fb882aaae7350779d87,,,,,,,decisionTrl,resources/DR.BMP,resources/DB.BMP,Door2,-0.237962963,-0.023148148,1,0,0,1.3153,optionLeft,40,13180,6,20,0,20,0,1,,,,,,,,,,,,,,,,,,,,,,,,,,,,,,,,,,,,,,,
,,,,,,,,2023-08-16_08h50.54.262,HF_wild_card,2022.2.4,Win32,59.85515054,6384d247abd7c0f44276bfab,64d2fd46c836a06233681665,64dc7fb882aaae7350779d87,,,,,,,ctch,resources/DP.BMP,resources/DR.BMP,Door3,-0.296296296,-0.00462963,1,0,0,0.949,optionLeft,70,13250,6,21,0,21,0,1,,,,,,,,,,,,,,,,,,,,,,,,,,,,,,,,,,,,,,,
,,,,,,,,2023-08-16_08h50.54.262,HF_wild_card,2022.2.4,Win32,59.85515054,6384d247abd7c0f44276bfab,64d2fd46c836a06233681665,64dc7fb882aaae7350779d87,,,,,,,decisionTrl,resources/DB.BMP,resources/DR.BMP,Door2,0.359259259,0,1,0,0,1.0303,optionRight,40,13290,6,22,0,22,0,1,,,,,,,,,,,,,,,,,,,,,,,,,,,,,,,,,,,,,,,
,,,,,,,,2023-08-16_08h50.54.262,HF_wild_card,2022.2.4,Win32,59.85515054,6384d247abd7c0f44276bfab,64d2fd46c836a06233681665,64dc7fb882aaae7350779d87,,,,,,,sngl,resources/DP.BMP,resources/Empty.png,Door3,-0.273148148,-0.018518519,1,0,0,1.0815,optionLeft,70,13360,6,23,0,23,0,1,,,,,,,,,,,,,,,,,,,,,,,,,,,,,,,,,,,,,,,
,,,,,,,,2023-08-16_08h50.54.262,HF_wild_card,2022.2.4,Win32,59.85515054,6384d247abd7c0f44276bfab,64d2fd46c836a06233681665,64dc7fb882aaae7350779d87,,,,,,,sngl,resources/DB.BMP,resources/Empty.png,Door1,-0.313888889,-0.013888889,1,0,0,0.7169,optionLeft,30,13390,6,24,0,24,0,1,,,,,,,,,,,,,,,,,,,,,,,,,,,,,,,,,,,,,,,
,,,,,,,,2023-08-16_08h50.54.262,HF_wild_card,2022.2.4,Win32,59.85515054,6384d247abd7c0f44276bfab,64d2fd46c836a06233681665,64dc7fb882aaae7350779d87,,,,,,,sngl,resources/Empty.png,resources/DP.BMP,Door3,0.421296296,0.000925926,1,0,0,0.5482,optionRight,70,13460,6,25,0,25,0,1,,,,,,,,,,,,,,,,,,,,,,,,,,,,,,,,,,,,,,,
,,,,,,,,2023-08-16_08h50.54.262,HF_wild_card,2022.2.4,Win32,59.85515054,6384d247abd7c0f44276bfab,64d2fd46c836a06233681665,64dc7fb882aaae7350779d87,,,,,,,decisionTrl,resources/DP.BMP,resources/DBN.BMP,Door4,0.236111111,-0.001851852,1,0,0,0.6986,optionRight,60,13520,6,26,0,26,0,1,,,,,,,,,,,,,,,,,,,,,,,,,,,,,,,,,,,,,,,
,,,,,,,,2023-08-16_08h50.54.262,HF_wild_card,2022.2.4,Win32,59.85515054,6384d247abd7c0f44276bfab,64d2fd46c836a06233681665,64dc7fb882aaae7350779d87,,,,,,,decisionTrl,resources/DG.BMP,resources/DBN.BMP,Door4,0.380555556,-0.006481481,1,0,0,0.5821,optionRight,60,13580,6,27,0,27,0,1,,,,,,,,,,,,,,,,,,,,,,,,,,,,,,,,,,,,,,,
,,,,,,,,2023-08-16_08h50.54.262,HF_wild_card,2022.2.4,Win32,59.85515054,6384d247abd7c0f44276bfab,64d2fd46c836a06233681665,64dc7fb882aaae7350779d87,,,,,,,decisionTrl,resources/DG.BMP,resources/DR.BMP,WildCard_Ex,-0.333333333,0.00462963,1,0,0,0.832,optionLeft,55,13635,6,28,0,28,0,1,,,,,,,,,,,,,,,,,,,,,,,,,,,,,,,,,,,,,,,
,,,,,,,,2023-08-16_08h50.54.262,HF_wild_card,2022.2.4,Win32,59.85515054,6384d247abd7c0f44276bfab,64d2fd46c836a06233681665,64dc7fb882aaae7350779d87,,,,,,,decisionTrl,resources/DR.BMP,resources/DB.BMP,Door2,-0.322222222,-0.02962963,1,0,0,1.5495,optionLeft,40,13675,6,29,0,29,0,1,,,,,,,,,,,,,,,,,,,,,,,,,,,,,,,,,,,,,,,
,,,,,,,,2023-08-16_08h50.54.262,HF_wild_card,2022.2.4,Win32,59.85515054,6384d247abd7c0f44276bfab,64d2fd46c836a06233681665,64dc7fb882aaae7350779d87,,,,,,,ctch,resources/DBN.BMP,resources/DB.BMP,Door4,-0.272222222,-0.012962963,1,0,0,0.7322,optionLeft,80,13755,6,30,0,30,0,1,,,,,,,,,,,,,,,,,,,,,,,,,,,,,,,,,,,,,,,
,,,,,,,,2023-08-16_08h50.54.262,HF_wild_card,2022.2.4,Win32,59.85515054,6384d247abd7c0f44276bfab,64d2fd46c836a06233681665,64dc7fb882aaae7350779d87,,,,,,,sngl,resources/Empty.png,resources/DBN.BMP,Door4,0.387037037,-0.090740741,1,0,0,2.0155,optionRight,80,13835,6,31,0,31,0,1,,,,,,,,,,,,,,,,,,,,,,,,,,,,,,,,,,,,,,,
,,,,,,,,2023-08-16_08h50.54.262,HF_wild_card,2022.2.4,Win32,59.85515054,6384d247abd7c0f44276bfab,64d2fd46c836a06233681665,64dc7fb882aaae7350779d87,,,,,,,decisionTrl,resources/DP.BMP,resources/DBN.BMP,Door4,0.321296296,0.012037037,1,0,0,0.8137,optionRight,60,13895,6,32,0,32,0,1,,,,,,,,,,,,,,,,,,,,,,,,,,,,,,,,,,,,,,,
,,,,,,,,2023-08-16_08h50.54.262,HF_wild_card,2022.2.4,Win32,59.85515054,6384d247abd7c0f44276bfab,64d2fd46c836a06233681665,64dc7fb882aaae7350779d87,,,,,,,decisionTrl,resources/DBN.BMP,resources/DG.BMP,Door4,-0.351851852,0.003703704,1,0,0,0.8658,optionLeft,80,13975,6,33,0,33,0,1,,,,,,,,,,,,,,,,,,,,,,,,,,,,,,,,,,,,,,,
,,,,,,,,2023-08-16_08h50.54.262,HF_wild_card,2022.2.4,Win32,59.85515054,6384d247abd7c0f44276bfab,64d2fd46c836a06233681665,64dc7fb882aaae7350779d87,,,,,,,decisionTrl,resources/DB.BMP,resources/DR.BMP,Door2,0.340740741,0.013888889,1,0,0,1.965,optionRight,40,14015,6,34,0,34,0,1,,,,,,,,,,,,,,,,,,,,,,,,,,,,,,,,,,,,,,,
,,,,,,,,2023-08-16_08h50.54.262,HF_wild_card,2022.2.4,Win32,59.85515054,6384d247abd7c0f44276bfab,64d2fd46c836a06233681665,64dc7fb882aaae7350779d87,,,,,,,ctch,resources/DR.BMP,resources/DP.BMP,Door3,0.405555556,0.001851852,1,0,0,1.1824,optionRight,70,14085,6,35,0,35,0,1,,,,,,,,,,,,,,,,,,,,,,,,,,,,,,,,,,,,,,,
,,,,,,,,2023-08-16_08h50.54.262,HF_wild_card,2022.2.4,Win32,59.85515054,6384d247abd7c0f44276bfab,64d2fd46c836a06233681665,64dc7fb882aaae7350779d87,,,,,,,decisionTrl,resources/DR.BMP,resources/DB.BMP,Door2,-0.265740741,-0.026851852,1,0,0,1.3821,optionLeft,20,14105,6,36,0,36,0,1,,,,,,,,,,,,,,,,,,,,,,,,,,,,,,,,,,,,,,,
,,,,,,,,2023-08-16_08h50.54.262,HF_wild_card,2022.2.4,Win32,59.85515054,6384d247abd7c0f44276bfab,64d2fd46c836a06233681665,64dc7fb882aaae7350779d87,,,,,,,decisionTrl,resources/DBN.BMP,resources/DP.BMP,Door4,-0.372222222,0.010185185,1,0,0,0.6484,optionLeft,80,14185,6,37,0,37,0,1,,,,,,,,,,,,,,,,,,,,,,,,,,,,,,,,,,,,,,,
,,,,,,,,2023-08-16_08h50.54.262,HF_wild_card,2022.2.4,Win32,59.85515054,6384d247abd7c0f44276bfab,64d2fd46c836a06233681665,64dc7fb882aaae7350779d87,,,,,,,decisionTrl,resources/DB.BMP,resources/DG.BMP,WildCard_Ex,0.311111111,0.002777778,1,0,0,0.881,optionRight,45,14230,6,38,0,38,0,1,,,,,,,,,,,,,,,,,,,,,,,,,,,,,,,,,,,,,,,
,,,,,,,,2023-08-16_08h50.54.262,HF_wild_card,2022.2.4,Win32,59.85515054,6384d247abd7c0f44276bfab,64d2fd46c836a06233681665,64dc7fb882aaae7350779d87,,,,,,,decisionTrl,resources/DBN.BMP,resources/DP.BMP,Door4,-0.219444444,0.005555556,1,0,0,0.6318,optionLeft,80,14310,6,39,0,39,0,1,,,,,,,,,,,,,,,,,,,,,,,,,,,,,,,,,,,,,,,
,,,,,,,,2023-08-16_08h50.54.262,HF_wild_card,2022.2.4,Win32,59.85515054,6384d247abd7c0f44276bfab,64d2fd46c836a06233681665,64dc7fb882aaae7350779d87,,,,,,,sngl,resources/DG.BMP,resources/Empty.png,WildCard_Ex,-0.299074074,0.007407407,1,0,0,0.7822,optionLeft,55,14365,6,40,0,40,0,1,,,,,,,,,,,,,,,,,,,,,,,,,,,,,,,,,,,,,,,
,,,,,,,,2023-08-16_08h50.54.262,HF_wild_card,2022.2.4,Win32,59.85515054,6384d247abd7c0f44276bfab,64d2fd46c836a06233681665,64dc7fb882aaae7350779d87,,,,,,,decisionTrl,resources/DG.BMP,resources/DP.BMP,Door3,0.402777778,0.00462963,1,0,0,1.9482,optionRight,70,14435,6,41,0,41,0,1,,,,,,,,,,,,,,,,,,,,,,,,,,,,,,,,,,,,,,,
,,,,,,,,2023-08-16_08h50.54.262,HF_wild_card,2022.2.4,Win32,59.85515054,6384d247abd7c0f44276bfab,64d2fd46c836a06233681665,64dc7fb882aaae7350779d87,,,,,,,sngl,resources/Empty.png,resources/DG.BMP,WildCard_Ex,0.288888889,0.014814815,1,0,0,0.5655,optionRight,45,14480,6,42,0,42,0,1,,,,,,,,,,,,,,,,,,,,,,,,,,,,,,,,,,,,,,,
,,,,,,,,2023-08-16_08h50.54.262,HF_wild_card,2022.2.4,Win32,59.85515054,6384d247abd7c0f44276bfab,64d2fd46c836a06233681665,64dc7fb882aaae7350779d87,,,,,,,sngl,resources/DG.BMP,resources/Empty.png,WildCard_Ex,-0.2,-0.016666667,1,0,0,0.5318,optionLeft,45,14525,6,43,0,43,0,1,,,,,,,,,,,,,,,,,,,,,,,,,,,,,,,,,,,,,,,
,,,,,,,,2023-08-16_08h50.54.262,HF_wild_card,2022.2.4,Win32,59.85515054,6384d247abd7c0f44276bfab,64d2fd46c836a06233681665,64dc7fb882aaae7350779d87,,,,,,,,,,,,,,,,,,,,,,,,,,5,0,5,0,1,,,,,,,,,,,,,,,,,,,,,,,,,,,,,,,,,,
,,,,,,,,2023-08-16_08h50.54.262,HF_wild_card,2022.2.4,Win32,59.85515054,6384d247abd7c0f44276bfab,64d2fd46c836a06233681665,64dc7fb882aaae7350779d87,,,,,,,ctch,resources/DB.BMP,resources/DBN.BMP,Door4,0.385185185,-0.063888889,1,0,0,0.936,optionRight,80,14605,7,0,0,0,0,1,,,,,,,,,,,,,,,,,,,,,,,,,,,,,,,,,,,,,,,
,,,,,,,,2023-08-16_08h50.54.262,HF_wild_card,2022.2.4,Win32,59.85515054,6384d247abd7c0f44276bfab,64d2fd46c836a06233681665,64dc7fb882aaae7350779d87,,,,,,,decisionTrl,resources/DBN.BMP,resources/DP.BMP,Door4,-0.20462963,-0.024074074,1,0,0,0.749,optionLeft,80,14685,7,1,0,1,0,1,,,,,,,,,,,,,,,,,,,,,,,,,,,,,,,,,,,,,,,
,,,,,,,,2023-08-16_08h50.54.262,HF_wild_card,2022.2.4,Win32,59.85515054,6384d247abd7c0f44276bfab,64d2fd46c836a06233681665,64dc7fb882aaae7350779d87,,,,,,,decisionTrl,resources/DB.BMP,resources/DR.BMP,Door2,0.259259259,-0.001851852,1,0,0,1.1487,optionRight,20,14705,7,2,0,2,0,1,,,,,,,,,,,,,,,,,,,,,,,,,,,,,,,,,,,,,,,
,,,,,,,,2023-08-16_08h50.54.262,HF_wild_card,2022.2.4,Win32,59.85515054,6384d247abd7c0f44276bfab,64d2fd46c836a06233681665,64dc7fb882aaae7350779d87,,,,,,,decisionTrl,resources/DBN.BMP,resources/DP.BMP,Door4,-0.137037037,-0.009259259,1,0,0,1.5165,optionLeft,60,14765,7,3,0,3,0,1,,,,,,,,,,,,,,,,,,,,,,,,,,,,,,,,,,,,,,,
,,,,,,,,2023-08-16_08h50.54.262,HF_wild_card,2022.2.4,Win32,59.85515054,6384d247abd7c0f44276bfab,64d2fd46c836a06233681665,64dc7fb882aaae7350779d87,,,,,,,decisionTrl,resources/DR.BMP,resources/DB.BMP,Door2,-0.290740741,-0.005555556,1,0,0,1.1659,optionLeft,20,14785,7,4,0,4,0,1,,,,,,,,,,,,,,,,,,,,,,,,,,,,,,,,,,,,,,,
,,,,,,,,2023-08-16_08h50.54.262,HF_wild_card,2022.2.4,Win32,59.85515054,6384d247abd7c0f44276bfab,64d2fd46c836a06233681665,64dc7fb882aaae7350779d87,,,,,,,ctch,resources/DBN.BMP,resources/DB.BMP,Door4,-0.228703704,0.024074074,1,0,0,0.7487,optionLeft,60,14845,7,5,0,5,0,1,,,,,,,,,,,,,,,,,,,,,,,,,,,,,,,,,,,,,,,
,,,,,,,,2023-08-16_08h50.54.262,HF_wild_card,2022.2.4,Win32,59.85515054,6384d247abd7c0f44276bfab,64d2fd46c836a06233681665,64dc7fb882aaae7350779d87,,,,,,,decisionTrl,resources/DB.BMP,resources/DR.BMP,Door2,0.201851852,-0.046296296,1,0,0,0.9816,optionRight,40,14885,7,6,0,6,0,1,,,,,,,,,,,,,,,,,,,,,,,,,,,,,,,,,,,,,,,
,,,,,,,,2023-08-16_08h50.54.262,HF_wild_card,2022.2.4,Win32,59.85515054,6384d247abd7c0f44276bfab,64d2fd46c836a06233681665,64dc7fb882aaae7350779d87,,,,,,,decisionTrl,resources/DBN.BMP,resources/DP.BMP,Door4,-0.280555556,0,1,0,0,0.7488,optionLeft,80,14965,7,7,0,7,0,1,,,,,,,,,,,,,,,,,,,,,,,,,,,,,,,,,,,,,,,
,,,,,,,,2023-08-16_08h50.54.262,HF_wild_card,2022.2.4,Win32,59.85515054,6384d247abd7c0f44276bfab,64d2fd46c836a06233681665,64dc7fb882aaae7350779d87,,,,,,,decisionTrl,resources/DR.BMP,resources/DB.BMP,Door2,-0.414814815,-0.021296296,1,0,0,1.2655,optionLeft,40,15005,7,8,0,8,0,1,,,,,,,,,,,,,,,,,,,,,,,,,,,,,,,,,,,,,,,
,,,,,,,,2023-08-16_08h50.54.262,HF_wild_card,2022.2.4,Win32,59.85515054,6384d247abd7c0f44276bfab,64d2fd46c836a06233681665,64dc7fb882aaae7350779d87,,,,,,,decisionTrl,resources/DBN.BMP,resources/DP.BMP,Door4,-0.235185185,0.002777778,1,0,0,1.2658,optionLeft,80,15085,7,9,0,9,0,1,,,,,,,,,,,,,,,,,,,,,,,,,,,,,,,,,,,,,,,
,,,,,,,,2023-08-16_08h50.54.262,HF_wild_card,2022.2.4,Win32,59.85515054,6384d247abd7c0f44276bfab,64d2fd46c836a06233681665,64dc7fb882aaae7350779d87,,,,,,,ctch,resources/DP.BMP,resources/DR.BMP,Door3,-0.2,0.001851852,1,0,0,1.0329,optionLeft,70,15155,7,10,0,10,0,1,,,,,,,,,,,,,,,,,,,,,,,,,,,,,,,,,,,,,,,
,,,,,,,,2023-08-16_08h50.54.262,HF_wild_card,2022.2.4,Win32,59.85515054,6384d247abd7c0f44276bfab,64d2fd46c836a06233681665,64dc7fb882aaae7350779d87,,,,,,,decisionTrl,resources/DBN.BMP,resources/DP.BMP,Door4,-0.12962963,0.023148148,1,0,0,0.6158,optionLeft,60,15215,7,11,0,11,0,1,,,,,,,,,,,,,,,,,,,,,,,,,,,,,,,,,,,,,,,
,,,,,,,,2023-08-16_08h50.54.262,HF_wild_card,2022.2.4,Win32,59.85515054,6384d247abd7c0f44276bfab,64d2fd46c836a06233681665,64dc7fb882aaae7350779d87,,,,,,,ctch,resources/DR.BMP,resources/DP.BMP,Door3,0.348148148,-0.009259259,1,0,0,0.8991,optionRight,70,15285,7,12,0,12,0,1,,,,,,,,,,,,,,,,,,,,,,,,,,,,,,,,,,,,,,,
,,,,,,,,2023-08-16_08h50.54.262,HF_wild_card,2022.2.4,Win32,59.85515054,6384d247abd7c0f44276bfab,64d2fd46c836a06233681665,64dc7fb882aaae7350779d87,,,,,,,ctch,resources/DR.BMP,resources/DP.BMP,Door3,0.308333333,0,1,0,0,0.7326,optionRight,70,15355,7,13,0,13,0,1,,,,,,,,,,,,,,,,,,,,,,,,,,,,,,,,,,,,,,,
,,,,,,,,2023-08-16_08h50.54.262,HF_wild_card,2022.2.4,Win32,59.85515054,6384d247abd7c0f44276bfab,64d2fd46c836a06233681665,64dc7fb882aaae7350779d87,,,,,,,ctch,resources/DP.BMP,resources/DR.BMP,Door3,-0.201851852,-0.016666667,1,0,0,0.6159,optionLeft,70,15425,7,14,0,14,0,1,,,,,,,,,,,,,,,,,,,,,,,,,,,,,,,,,,,,,,,
,,,,,,,,2023-08-16_08h50.54.262,HF_wild_card,2022.2.4,Win32,59.85515054,6384d247abd7c0f44276bfab,64d2fd46c836a06233681665,64dc7fb882aaae7350779d87,,,,,,,decisionTrl,resources/DR.BMP,resources/DB.BMP,Door2,-0.275,-0.028703704,1,0,0,1.3319,optionLeft,40,15465,7,15,0,15,0,1,,,,,,,,,,,,,,,,,,,,,,,,,,,,,,,,,,,,,,,
,,,,,,,,2023-08-16_08h50.54.262,HF_wild_card,2022.2.4,Win32,59.85515054,6384d247abd7c0f44276bfab,64d2fd46c836a06233681665,64dc7fb882aaae7350779d87,,,,,,,decisionTrl,resources/DR.BMP,resources/DB.BMP,Door2,-0.250925926,-0.003703704,1,0,0,0.5992,optionLeft,20,15485,7,16,0,16,0,1,,,,,,,,,,,,,,,,,,,,,,,,,,,,,,,,,,,,,,,
,,,,,,,,2023-08-16_08h50.54.262,HF_wild_card,2022.2.4,Win32,59.85515054,6384d247abd7c0f44276bfab,64d2fd46c836a06233681665,64dc7fb882aaae7350779d87,,,,,,,decisionTrl,resources/DR.BMP,resources/DB.BMP,Door2,-0.389814815,-0.017592593,1,0,0,0.5662,optionLeft,20,15505,7,17,0,17,0,1,,,,,,,,,,,,,,,,,,,,,,,,,,,,,,,,,,,,,,,
,,,,,,,,2023-08-16_08h50.54.262,HF_wild_card,2022.2.4,Win32,59.85515054,6384d247abd7c0f44276bfab,64d2fd46c836a06233681665,64dc7fb882aaae7350779d87,,,,,,,decisionTrl,resources/DP.BMP,resources/DBN.BMP,Door4,0.340740741,-0.006481481,1,0,0,1.2663,optionRight,60,15565,7,18,0,18,0,1,,,,,,,,,,,,,,,,,,,,,,,,,,,,,,,,,,,,,,,
,,,,,,,,2023-08-16_08h50.54.262,HF_wild_card,2022.2.4,Win32,59.85515054,6384d247abd7c0f44276bfab,64d2fd46c836a06233681665,64dc7fb882aaae7350779d87,,,,,,,ctch,resources/DP.BMP,resources/DR.BMP,Door3,-0.175,-0.007407407,1,0,0,1.016,optionLeft,70,15635,7,19,0,19,0,1,,,,,,,,,,,,,,,,,,,,,,,,,,,,,,,,,,,,,,,
,,,,,,,,2023-08-16_08h50.54.262,HF_wild_card,2022.2.4,Win32,59.85515054,6384d247abd7c0f44276bfab,64d2fd46c836a06233681665,64dc7fb882aaae7350779d87,,,,,,,decisionTrl,resources/DP.BMP,resources/DBN.BMP,Door4,0.361111111,0.02037037,1,0,0,1.333,optionRight,80,15715,7,20,0,20,0,1,,,,,,,,,,,,,,,,,,,,,,,,,,,,,,,,,,,,,,,
,,,,,,,,2023-08-16_08h50.54.262,HF_wild_card,2022.2.4,Win32,59.85515054,6384d247abd7c0f44276bfab,64d2fd46c836a06233681665,64dc7fb882aaae7350779d87,,,,,,,decisionTrl,resources/DP.BMP,resources/DBN.BMP,Door4,0.343518519,-0.006481481,1,0,0,2.1157,optionRight,80,15795,7,21,0,21,0,1,,,,,,,,,,,,,,,,,,,,,,,,,,,,,,,,,,,,,,,
,,,,,,,,2023-08-16_08h50.54.262,HF_wild_card,2022.2.4,Win32,59.85515054,6384d247abd7c0f44276bfab,64d2fd46c836a06233681665,64dc7fb882aaae7350779d87,,,,,,,decisionTrl,resources/DB.BMP,resources/DR.BMP,Door2,0.338888889,-0.008333333,1,0,0,1.4325,optionRight,40,15835,7,22,0,22,0,1,,,,,,,,,,,,,,,,,,,,,,,,,,,,,,,,,,,,,,,
,,,,,,,,2023-08-16_08h50.54.262,HF_wild_card,2022.2.4,Win32,59.85515054,6384d247abd7c0f44276bfab,64d2fd46c836a06233681665,64dc7fb882aaae7350779d87,,,,,,,decisionTrl,resources/DB.BMP,resources/DR.BMP,Door2,0.446296296,0.000925926,1,0,0,0.5487,optionRight,40,15875,7,23,0,23,0,1,,,,,,,,,,,,,,,,,,,,,,,,,,,,,,,,,,,,,,,
,,,,,,,,2023-08-16_08h50.54.262,HF_wild_card,2022.2.4,Win32,59.85515054,6384d247abd7c0f44276bfab,64d2fd46c836a06233681665,64dc7fb882aaae7350779d87,,,,,,,decisionTrl,resources/DP.BMP,resources/DBN.BMP,Door4,0.336111111,0.010185185,1,0,0,0.6325,optionRight,80,15955,7,24,0,24,0,1,,,,,,,,,,,,,,,,,,,,,,,,,,,,,,,,,,,,,,,
,,,,,,,,2023-08-16_08h50.54.262,HF_wild_card,2022.2.4,Win32,59.85515054,6384d247abd7c0f44276bfab,64d2fd46c836a06233681665,64dc7fb882aaae7350779d87,,,,,,,decisionTrl,resources/DBN.BMP,resources/DP.BMP,Door4,-0.289814815,0.003703704,1,0,0,0.6162,optionLeft,80,16035,7,25,0,25,0,1,,,,,,,,,,,,,,,,,,,,,,,,,,,,,,,,,,,,,,,
,,,,,,,,2023-08-16_08h50.54.262,HF_wild_card,2022.2.4,Win32,59.85515054,6384d247abd7c0f44276bfab,64d2fd46c836a06233681665,64dc7fb882aaae7350779d87,,,,,,,decisionTrl,resources/DR.BMP,resources/DB.BMP,Door2,-0.238888889,-0.014814815,1,0,0,1.1832,optionLeft,40,16075,7,26,0,26,0,1,,,,,,,,,,,,,,,,,,,,,,,,,,,,,,,,,,,,,,,
,,,,,,,,2023-08-16_08h50.54.262,HF_wild_card,2022.2.4,Win32,59.85515054,6384d247abd7c0f44276bfab,64d2fd46c836a06233681665,64dc7fb882aaae7350779d87,,,,,,,decisionTrl,resources/DP.BMP,resources/DBN.BMP,Door4,0.275,-0.006481481,1,0,0,0.8657,optionRight,60,16135,7,27,0,27,0,1,,,,,,,,,,,,,,,,,,,,,,,,,,,,,,,,,,,,,,,
,,,,,,,,2023-08-16_08h50.54.262,HF_wild_card,2022.2.4,Win32,59.85515054,6384d247abd7c0f44276bfab,64d2fd46c836a06233681665,64dc7fb882aaae7350779d87,,,,,,,ctch,resources/DBN.BMP,resources/DB.BMP,Door4,-0.228703704,0.003703704,1,0,0,0.6168,optionLeft,60,16195,7,28,0,28,0,1,,,,,,,,,,,,,,,,,,,,,,,,,,,,,,,,,,,,,,,
,,,,,,,,2023-08-16_08h50.54.262,HF_wild_card,2022.2.4,Win32,59.85515054,6384d247abd7c0f44276bfab,64d2fd46c836a06233681665,64dc7fb882aaae7350779d87,,,,,,,ctch,resources/DBN.BMP,resources/DB.BMP,Door4,-0.317592593,-0.015740741,1,0,0,0.5329,optionLeft,80,16275,7,29,0,29,0,1,,,,,,,,,,,,,,,,,,,,,,,,,,,,,,,,,,,,,,,
,,,,,,,,2023-08-16_08h50.54.262,HF_wild_card,2022.2.4,Win32,59.85515054,6384d247abd7c0f44276bfab,64d2fd46c836a06233681665,64dc7fb882aaae7350779d87,,,,,,,ctch,resources/DB.BMP,resources/DBN.BMP,Door4,0.380555556,0.001851852,1,0,0,0.5319,optionRight,80,16355,7,30,0,30,0,1,,,,,,,,,,,,,,,,,,,,,,,,,,,,,,,,,,,,,,,
,,,,,,,,2023-08-16_08h50.54.262,HF_wild_card,2022.2.4,Win32,59.85515054,6384d247abd7c0f44276bfab,64d2fd46c836a06233681665,64dc7fb882aaae7350779d87,,,,,,,ctch,resources/DB.BMP,resources/DBN.BMP,Door4,0.337037037,-0.002777778,1,0,0,0.4999,optionRight,60,16415,7,31,0,31,0,1,,,,,,,,,,,,,,,,,,,,,,,,,,,,,,,,,,,,,,,
,,,,,,,,2023-08-16_08h50.54.262,HF_wild_card,2022.2.4,Win32,59.85515054,6384d247abd7c0f44276bfab,64d2fd46c836a06233681665,64dc7fb882aaae7350779d87,,,,,,,decisionTrl,resources/DB.BMP,resources/DR.BMP,Door2,0.351851852,-0.000925926,1,0,0,1.1489,optionRight,40,16455,7,32,0,32,0,1,,,,,,,,,,,,,,,,,,,,,,,,,,,,,,,,,,,,,,,
,,,,,,,,2023-08-16_08h50.54.262,HF_wild_card,2022.2.4,Win32,59.85515054,6384d247abd7c0f44276bfab,64d2fd46c836a06233681665,64dc7fb882aaae7350779d87,,,,,,,ctch,resources/DR.BMP,resources/DP.BMP,Door2,-0.242592593,-0.011111111,1,0,0,0.8496,optionLeft,20,16475,7,33,0,33,0,1,,,,,,,,,,,,,,,,,,,,,,,,,,,,,,,,,,,,,,,
,,,,,,,,2023-08-16_08h50.54.262,HF_wild_card,2022.2.4,Win32,59.85515054,6384d247abd7c0f44276bfab,64d2fd46c836a06233681665,64dc7fb882aaae7350779d87,,,,,,,decisionTrl,resources/DP.BMP,resources/DBN.BMP,Door4,0.451851852,-0.005555556,1,0,0,0.7153,optionRight,80,16555,7,34,0,34,0,1,,,,,,,,,,,,,,,,,,,,,,,,,,,,,,,,,,,,,,,
,,,,,,,,2023-08-16_08h50.54.262,HF_wild_card,2022.2.4,Win32,59.85515054,6384d247abd7c0f44276bfab,64d2fd46c836a06233681665,64dc7fb882aaae7350779d87,,,,,,,decisionTrl,resources/DB.BMP,resources/DR.BMP,Door2,0.300925926,0.002777778,1,0,0,0.832,optionRight,40,16595,7,35,0,35,0,1,,,,,,,,,,,,,,,,,,,,,,,,,,,,,,,,,,,,,,,
,,,,,,,,2023-08-16_08h50.54.262,HF_wild_card,2022.2.4,Win32,59.85515054,6384d247abd7c0f44276bfab,64d2fd46c836a06233681665,64dc7fb882aaae7350779d87,,,,,,,,,,,,,,,,,,,,,,,,,,6,0,6,0,1,,,,,,,,,,,,,,,,,,,,,,,,,,,,,,,,,,
,,,,,,,,2023-08-16_08h50.54.262,HF_wild_card,2022.2.4,Win32,59.85515054,6384d247abd7c0f44276bfab,64d2fd46c836a06233681665,64dc7fb882aaae7350779d87,,,,,,,,,,,,,,,,,,,,,,,,,,,,,,,4,,,,,,,,,,,,,,,,,,,,,,,,,,,,,,,,,
,,,,,,,,2023-08-16_08h50.54.262,HF_wild_card,2022.2.4,Win32,59.85515054,6384d247abd7c0f44276bfab,64d2fd46c836a06233681665,64dc7fb882aaae7350779d87,,,,,,,,,,,,,,,,,,,,,,,,,,,,,,,,,,,,,,,,,,,,,,,,,,,,,,,,,,,,,,,,
,,,,,,,,2023-08-16_08h50.54.262,HF_wild_card,2022.2.4,Win32,59.85515054,6384d247abd7c0f44276bfab,64d2fd46c836a06233681665,64dc7fb882aaae7350779d87,,,,,,,,,,,,,,,,,,,,,,,,,,,,,,,,45,WC_nonExtreme,resources/DY.BMP,0,0,0,0,1,,,,,,,,,,,,,,,,,,,,,,,,,
,,,,,,,,2023-08-16_08h50.54.262,HF_wild_card,2022.2.4,Win32,59.85515054,6384d247abd7c0f44276bfab,64d2fd46c836a06233681665,64dc7fb882aaae7350779d87,,,,,,,,,,,,,,,,,,,,,,,,,,,,,,,,40,Door2,resources/DR.BMP,1,0,1,0,1,,,,,,,,,,,,,,,,,,,,,,,,,
,,,,,,,,2023-08-16_08h50.54.262,HF_wild_card,2022.2.4,Win32,59.85515054,6384d247abd7c0f44276bfab,64d2fd46c836a06233681665,64dc7fb882aaae7350779d87,,,,,,,,,,,,,,,,,,,,,,,,,,,,,,,,30,Door1,resources/DB.BMP,2,0,2,0,1,,,,,,,,,,,,,,,,,,,,,,,,,
,,,,,,,,2023-08-16_08h50.54.262,HF_wild_card,2022.2.4,Win32,59.85515054,6384d247abd7c0f44276bfab,64d2fd46c836a06233681665,64dc7fb882aaae7350779d87,,,,,,,,,,,,,,,,,,,,,,,,,,,,,,,,70,Door3,resources/DP.BMP,3,0,3,0,1,,,,,,,,,,,,,,,,,,,,,,,,,
,,,,,,,,2023-08-16_08h50.54.262,HF_wild_card,2022.2.4,Win32,59.85515054,6384d247abd7c0f44276bfab,64d2fd46c836a06233681665,64dc7fb882aaae7350779d87,,,,,,,,,,,,,,,,,,,,,,,,,,,,,,,,55,WC_extreme,resources/DG.BMP,4,0,4,0,1,,,,,,,,,,,,,,,,,,,,,,,,,
,,,,,,,,2023-08-16_08h50.54.262,HF_wild_card,2022.2.4,Win32,59.85515054,6384d247abd7c0f44276bfab,64d2fd46c836a06233681665,64dc7fb882aaae7350779d87,,,,,,,,,,,,,,,,,,,,,,,,,,,,,,,,80,Door4,resources/DBN.BMP,5,0,5,0,1,,,,,,,,,,,,,,,,,,,,,,,,,
,,,,,,,,2023-08-16_08h50.54.262,HF_wild_card,2022.2.4,Win32,59.85515054,6384d247abd7c0f44276bfab,64d2fd46c836a06233681665,64dc7fb882aaae7350779d87,,,,,,,,,,,,,,,,,,,,,,,,,,,,,,,,,,,,,,,,,,,,,,,,,,,,,,,,,,,,,,,,
,,,,,,,,2023-08-16_08h50.54.262,HF_wild_card,2022.2.4,Win32,59.85515054,6384d247abd7c0f44276bfab,64d2fd46c836a06233681665,64dc7fb882aaae7350779d87,,,,,,,,,,,,,,,,,,,,,,,,,,,,,,,,,,,,,,,,0,0,0,0,1,,,,,,,,,,,,,,,,,,,,
