Condition,Low fixed image (Door1),Low risky image (Door2),High fixed image (Door3),High risky image (Door4),Extreme Wild Card,NonExtreme Wild Card,,date,expName,psychopyVersion,OS,frameRate,PROLIFIC_PID,STUDY_ID,SESSION_ID,mouse_2.x,mouse_2.y,mouse_2.leftButton,mouse_2.midButton,mouse_2.rightButton,mouse_2.clicked_name,Trial Type,Left Option Image,Right Option Image,Chosen Door,mouse.x,mouse.y,mouse.leftButton,mouse.midButton,mouse.rightButton,mouse.time,mouse.clicked_name,Feedback,Cumulative Reward,Block,trial.thisRepN,trial.thisTrialN,trial.thisN,trial.thisIndex,trial.ran,blocks.thisRepN,blocks.thisTrialN,blocks.thisN,blocks.thisIndex,blocks.ran,Money conversion,First Outcome Reported,Shown Door (First Outcome),Displayed Image (First Outcome),outcomes.thisRepN,outcomes.thisTrialN,outcomes.thisN,outcomes.thisIndex,outcomes.ran,judgments.thisRepN,judgments.thisTrialN,judgments.thisN,judgments.thisIndex,judgments.ran,freqMouse.x,freqMouse.y,freqMouse.leftButton,freqMouse.midButton,freqMouse.rightButton,freqMouse.clicked_name,trials.thisRepN,trials.thisTrialN,trials.thisN,trials.thisIndex,trials.ran,FQJ for first outcome,FQJ for second outcome,Shown Door,Displayed Image,judgBlock.thisRepN,judgBlock.thisTrialN,judgBlock.thisN,judgBlock.thisIndex,judgBlock.ran
1,resources/DY.BMP,resources/DBN.BMP,resources/DR.BMP,resources/DB.BMP,resources/DG.BMP,resources/DP.BMP,,2023-08-16_08h33.13.503,HF_wild_card,2022.2.4,Win32,59.93407252,5d1904fd8b97090001215bdf,64d2fd46c836a06233681665,64dc7b996affa6e52df02fc4,,,,,,,,,,,,,,,,,,,,,,,,,,,,,,,,,,,,,,,,,,,,,,,,,,,,,,,,,,,,,,,,
,,,,,,,,2023-08-16_08h33.13.503,HF_wild_card,2022.2.4,Win32,59.93407252,5d1904fd8b97090001215bdf,64d2fd46c836a06233681665,64dc7b996affa6e52df02fc4,0.018229167,-0.412760417,1,0,0,agree,,,,,,,,,,,,,,,,,,,,,,,,,,,,,,,,,,,,,,,,,,,,,,,,,,,,,,,,,,
,,,,,,,,2023-08-16_08h33.13.503,HF_wild_card,2022.2.4,Win32,59.93407252,5d1904fd8b97090001215bdf,64d2fd46c836a06233681665,64dc7b996affa6e52df02fc4,,,,,,,,,,,,,,,,,,,,,,,,,,,,,,,,,,,,,,,,,,,,,,,,,,,,,,,,,,,,,,,,
,,,,,,,,2023-08-16_08h33.13.503,HF_wild_card,2022.2.4,Win32,59.93407252,5d1904fd8b97090001215bdf,64d2fd46c836a06233681665,64dc7b996affa6e52df02fc4,,,,,,,decisionTrl,resources/DY.BMP,resources/DBN.BMP,Door1,-0.251302083,-0.11328125,1,0,0,1.2746,optionLeft,30,30,1,0,0,0,0,1,,,,,,,,,,,,,,,,,,,,,,,,,,,,,,,,,,,,,,,
,,,,,,,,2023-08-16_08h33.13.503,HF_wild_card,2022.2.4,Win32,59.93407252,5d1904fd8b97090001215bdf,64d2fd46c836a06233681665,64dc7b996affa6e52df02fc4,,,,,,,ctch,resources/DR.BMP,resources/DBN.BMP,Door3,-0.2734375,-0.022135417,1,0,0,1.122,optionLeft,70,100,1,1,0,1,0,1,,,,,,,,,,,,,,,,,,,,,,,,,,,,,,,,,,,,,,,
,,,,,,,,2023-08-16_08h33.13.503,HF_wild_card,2022.2.4,Win32,59.93407252,5d1904fd8b97090001215bdf,64d2fd46c836a06233681665,64dc7b996affa6e52df02fc4,,,,,,,decisionTrl,resources/DB.BMP,resources/DR.BMP,Door3,0.32421875,-0.049479167,1,0,0,0.8851,optionRight,70,170,1,2,0,2,0,1,,,,,,,,,,,,,,,,,,,,,,,,,,,,,,,,,,,,,,,
,,,,,,,,2023-08-16_08h33.13.503,HF_wild_card,2022.2.4,Win32,59.93407252,5d1904fd8b97090001215bdf,64d2fd46c836a06233681665,64dc7b996affa6e52df02fc4,,,,,,,sngl,resources/Empty.png,resources/DR.BMP,Door3,0.326822917,-0.08984375,1,0,0,0.9065,optionRight,70,240,1,3,0,3,0,1,,,,,,,,,,,,,,,,,,,,,,,,,,,,,,,,,,,,,,,
,,,,,,,,2023-08-16_08h33.13.503,HF_wild_card,2022.2.4,Win32,59.93407252,5d1904fd8b97090001215bdf,64d2fd46c836a06233681665,64dc7b996affa6e52df02fc4,,,,,,,decisionTrl,resources/DB.BMP,resources/DR.BMP,Door3,0.240885417,-0.01171875,1,0,0,0.7769,optionRight,70,310,1,4,0,4,0,1,,,,,,,,,,,,,,,,,,,,,,,,,,,,,,,,,,,,,,,
,,,,,,,,2023-08-16_08h33.13.503,HF_wild_card,2022.2.4,Win32,59.93407252,5d1904fd8b97090001215bdf,64d2fd46c836a06233681665,64dc7b996affa6e52df02fc4,,,,,,,ctch,resources/DBN.BMP,resources/DR.BMP,Door2,-0.21875,-0.028645833,1,0,0,0.7589,optionLeft,40,350,1,5,0,5,0,1,,,,,,,,,,,,,,,,,,,,,,,,,,,,,,,,,,,,,,,
,,,,,,,,2023-08-16_08h33.13.503,HF_wild_card,2022.2.4,Win32,59.93407252,5d1904fd8b97090001215bdf,64d2fd46c836a06233681665,64dc7b996affa6e52df02fc4,,,,,,,ctch,resources/DBN.BMP,resources/DR.BMP,Door3,0.497395833,-0.069010417,1,0,0,0.6528,optionRight,70,420,1,6,0,6,0,1,,,,,,,,,,,,,,,,,,,,,,,,,,,,,,,,,,,,,,,
,,,,,,,,2023-08-16_08h33.13.503,HF_wild_card,2022.2.4,Win32,59.93407252,5d1904fd8b97090001215bdf,64d2fd46c836a06233681665,64dc7b996affa6e52df02fc4,,,,,,,ctch,resources/DB.BMP,resources/DY.BMP,Door4,-0.44140625,-0.029947917,1,0,0,0.7467,optionLeft,80,500,1,7,0,7,0,1,,,,,,,,,,,,,,,,,,,,,,,,,,,,,,,,,,,,,,,
,,,,,,,,2023-08-16_08h33.13.503,HF_wild_card,2022.2.4,Win32,59.93407252,5d1904fd8b97090001215bdf,64d2fd46c836a06233681665,64dc7b996affa6e52df02fc4,,,,,,,sngl,resources/DB.BMP,resources/Empty.png,Door4,-0.184895833,-0.032552083,1,0,0,0.6768,optionLeft,80,580,1,8,0,8,0,1,,,,,,,,,,,,,,,,,,,,,,,,,,,,,,,,,,,,,,,
,,,,,,,,2023-08-16_08h33.13.503,HF_wild_card,2022.2.4,Win32,59.93407252,5d1904fd8b97090001215bdf,64d2fd46c836a06233681665,64dc7b996affa6e52df02fc4,,,,,,,decisionTrl,resources/DR.BMP,resources/DB.BMP,Door4,0.322916667,-0.01953125,1,0,0,0.5945,optionRight,80,660,1,9,0,9,0,1,,,,,,,,,,,,,,,,,,,,,,,,,,,,,,,,,,,,,,,
,,,,,,,,2023-08-16_08h33.13.503,HF_wild_card,2022.2.4,Win32,59.93407252,5d1904fd8b97090001215bdf,64d2fd46c836a06233681665,64dc7b996affa6e52df02fc4,,,,,,,sngl,resources/Empty.png,resources/DB.BMP,Door4,0.326822917,-0.029947917,1,0,0,0.5459,optionRight,60,720,1,10,0,10,0,1,,,,,,,,,,,,,,,,,,,,,,,,,,,,,,,,,,,,,,,
,,,,,,,,2023-08-16_08h33.13.503,HF_wild_card,2022.2.4,Win32,59.93407252,5d1904fd8b97090001215bdf,64d2fd46c836a06233681665,64dc7b996affa6e52df02fc4,,,,,,,decisionTrl,resources/DY.BMP,resources/DBN.BMP,Door1,-0.3125,-0.014322917,1,0,0,0.6107,optionLeft,30,750,1,11,0,11,0,1,,,,,,,,,,,,,,,,,,,,,,,,,,,,,,,,,,,,,,,
,,,,,,,,2023-08-16_08h33.13.503,HF_wild_card,2022.2.4,Win32,59.93407252,5d1904fd8b97090001215bdf,64d2fd46c836a06233681665,64dc7b996affa6e52df02fc4,,,,,,,ctch,resources/DR.BMP,resources/DBN.BMP,Door3,-0.432291667,-0.029947917,1,0,0,0.6481,optionLeft,70,820,1,12,0,12,0,1,,,,,,,,,,,,,,,,,,,,,,,,,,,,,,,,,,,,,,,
,,,,,,,,2023-08-16_08h33.13.503,HF_wild_card,2022.2.4,Win32,59.93407252,5d1904fd8b97090001215bdf,64d2fd46c836a06233681665,64dc7b996affa6e52df02fc4,,,,,,,sngl,resources/Empty.png,resources/DY.BMP,Door1,0.329427083,-0.01171875,1,0,0,0.5739,optionRight,30,850,1,13,0,13,0,1,,,,,,,,,,,,,,,,,,,,,,,,,,,,,,,,,,,,,,,
,,,,,,,,2023-08-16_08h33.13.503,HF_wild_card,2022.2.4,Win32,59.93407252,5d1904fd8b97090001215bdf,64d2fd46c836a06233681665,64dc7b996affa6e52df02fc4,,,,,,,decisionTrl,resources/DY.BMP,resources/DP.BMP,Door1,-0.252604167,-0.026041667,1,0,0,0.6122,optionLeft,30,880,1,14,0,14,0,1,,,,,,,,,,,,,,,,,,,,,,,,,,,,,,,,,,,,,,,
,,,,,,,,2023-08-16_08h33.13.503,HF_wild_card,2022.2.4,Win32,59.93407252,5d1904fd8b97090001215bdf,64d2fd46c836a06233681665,64dc7b996affa6e52df02fc4,,,,,,,sngl,resources/Empty.png,resources/DBN.BMP,Door2,0.365885417,0.00390625,1,0,0,0.5987,optionRight,20,900,1,15,0,15,0,1,,,,,,,,,,,,,,,,,,,,,,,,,,,,,,,,,,,,,,,
,,,,,,,,2023-08-16_08h33.13.503,HF_wild_card,2022.2.4,Win32,59.93407252,5d1904fd8b97090001215bdf,64d2fd46c836a06233681665,64dc7b996affa6e52df02fc4,,,,,,,decisionTrl,resources/DP.BMP,resources/DY.BMP,Door1,0.416666667,-0.00390625,1,0,0,0.8242,optionRight,30,930,1,16,0,16,0,1,,,,,,,,,,,,,,,,,,,,,,,,,,,,,,,,,,,,,,,
,,,,,,,,2023-08-16_08h33.13.503,HF_wild_card,2022.2.4,Win32,59.93407252,5d1904fd8b97090001215bdf,64d2fd46c836a06233681665,64dc7b996affa6e52df02fc4,,,,,,,decisionTrl,resources/DBN.BMP,resources/DY.BMP,Door2,-0.092447917,-0.010416667,1,0,0,1.0609,optionLeft,20,950,1,17,0,17,0,1,,,,,,,,,,,,,,,,,,,,,,,,,,,,,,,,,,,,,,,
,,,,,,,,2023-08-16_08h33.13.503,HF_wild_card,2022.2.4,Win32,59.93407252,5d1904fd8b97090001215bdf,64d2fd46c836a06233681665,64dc7b996affa6e52df02fc4,,,,,,,decisionTrl,resources/DBN.BMP,resources/DY.BMP,Door1,0.350260417,0.006510417,1,0,0,0.807,optionRight,30,980,1,18,0,18,0,1,,,,,,,,,,,,,,,,,,,,,,,,,,,,,,,,,,,,,,,
,,,,,,,,2023-08-16_08h33.13.503,HF_wild_card,2022.2.4,Win32,59.93407252,5d1904fd8b97090001215bdf,64d2fd46c836a06233681665,64dc7b996affa6e52df02fc4,,,,,,,sngl,resources/DY.BMP,resources/Empty.png,Door1,-0.319010417,0.002604167,1,0,0,0.6558,optionLeft,30,1010,1,19,0,19,0,1,,,,,,,,,,,,,,,,,,,,,,,,,,,,,,,,,,,,,,,
,,,,,,,,2023-08-16_08h33.13.503,HF_wild_card,2022.2.4,Win32,59.93407252,5d1904fd8b97090001215bdf,64d2fd46c836a06233681665,64dc7b996affa6e52df02fc4,,,,,,,decisionTrl,resources/DR.BMP,resources/DB.BMP,Door4,0.330729167,0.016927083,1,0,0,1.1105,optionRight,60,1070,1,20,0,20,0,1,,,,,,,,,,,,,,,,,,,,,,,,,,,,,,,,,,,,,,,
,,,,,,,,2023-08-16_08h33.13.503,HF_wild_card,2022.2.4,Win32,59.93407252,5d1904fd8b97090001215bdf,64d2fd46c836a06233681665,64dc7b996affa6e52df02fc4,,,,,,,decisionTrl,resources/DY.BMP,resources/DBN.BMP,Door1,-0.212239583,-0.015625,1,0,0,1.6542,optionLeft,30,1100,1,21,0,21,0,1,,,,,,,,,,,,,,,,,,,,,,,,,,,,,,,,,,,,,,,
,,,,,,,,2023-08-16_08h33.13.503,HF_wild_card,2022.2.4,Win32,59.93407252,5d1904fd8b97090001215bdf,64d2fd46c836a06233681665,64dc7b996affa6e52df02fc4,,,,,,,decisionTrl,resources/DBN.BMP,resources/DY.BMP,Door1,0.20703125,0.016927083,1,0,0,0.5887,optionRight,30,1130,1,22,0,22,0,1,,,,,,,,,,,,,,,,,,,,,,,,,,,,,,,,,,,,,,,
,,,,,,,,2023-08-16_08h33.13.503,HF_wild_card,2022.2.4,Win32,59.93407252,5d1904fd8b97090001215bdf,64d2fd46c836a06233681665,64dc7b996affa6e52df02fc4,,,,,,,ctch,resources/DY.BMP,resources/DB.BMP,Door4,0.477864583,0.005208333,1,0,0,0.9623,optionRight,60,1190,1,23,0,23,0,1,,,,,,,,,,,,,,,,,,,,,,,,,,,,,,,,,,,,,,,
,,,,,,,,2023-08-16_08h33.13.503,HF_wild_card,2022.2.4,Win32,59.93407252,5d1904fd8b97090001215bdf,64d2fd46c836a06233681665,64dc7b996affa6e52df02fc4,,,,,,,decisionTrl,resources/DY.BMP,resources/DBN.BMP,Door1,-0.454427083,-0.065104167,1,0,0,1.0767,optionLeft,30,1220,1,24,0,24,0,1,,,,,,,,,,,,,,,,,,,,,,,,,,,,,,,,,,,,,,,
,,,,,,,,2023-08-16_08h33.13.503,HF_wild_card,2022.2.4,Win32,59.93407252,5d1904fd8b97090001215bdf,64d2fd46c836a06233681665,64dc7b996affa6e52df02fc4,,,,,,,decisionTrl,resources/DP.BMP,resources/DR.BMP,WildCard_NonEx,-0.223958333,-0.0390625,1,0,0,1.0088,optionLeft,55,1275,1,25,0,25,0,1,,,,,,,,,,,,,,,,,,,,,,,,,,,,,,,,,,,,,,,
,,,,,,,,2023-08-16_08h33.13.503,HF_wild_card,2022.2.4,Win32,59.93407252,5d1904fd8b97090001215bdf,64d2fd46c836a06233681665,64dc7b996affa6e52df02fc4,,,,,,,sngl,resources/DP.BMP,resources/Empty.png,WildCard_NonEx,-0.272135417,-0.010416667,1,0,0,0.6208,optionLeft,55,1330,1,26,0,26,0,1,,,,,,,,,,,,,,,,,,,,,,,,,,,,,,,,,,,,,,,
,,,,,,,,2023-08-16_08h33.13.503,HF_wild_card,2022.2.4,Win32,59.93407252,5d1904fd8b97090001215bdf,64d2fd46c836a06233681665,64dc7b996affa6e52df02fc4,,,,,,,ctch,resources/DB.BMP,resources/DY.BMP,Door1,0.467447917,0.010416667,1,0,0,0.795,optionRight,30,1360,1,27,0,27,0,1,,,,,,,,,,,,,,,,,,,,,,,,,,,,,,,,,,,,,,,
,,,,,,,,2023-08-16_08h33.13.503,HF_wild_card,2022.2.4,Win32,59.93407252,5d1904fd8b97090001215bdf,64d2fd46c836a06233681665,64dc7b996affa6e52df02fc4,,,,,,,sngl,resources/Empty.png,resources/DP.BMP,WildCard_NonEx,0.514322917,0.009114583,1,0,0,0.6214,optionRight,55,1415,1,28,0,28,0,1,,,,,,,,,,,,,,,,,,,,,,,,,,,,,,,,,,,,,,,
,,,,,,,,2023-08-16_08h33.13.503,HF_wild_card,2022.2.4,Win32,59.93407252,5d1904fd8b97090001215bdf,64d2fd46c836a06233681665,64dc7b996affa6e52df02fc4,,,,,,,decisionTrl,resources/DB.BMP,resources/DP.BMP,Door4,-0.13671875,-0.014322917,1,0,0,1.0776,optionLeft,60,1475,1,29,0,29,0,1,,,,,,,,,,,,,,,,,,,,,,,,,,,,,,,,,,,,,,,
,,,,,,,,2023-08-16_08h33.13.503,HF_wild_card,2022.2.4,Win32,59.93407252,5d1904fd8b97090001215bdf,64d2fd46c836a06233681665,64dc7b996affa6e52df02fc4,,,,,,,sngl,resources/DBN.BMP,resources/Empty.png,Door2,-0.30859375,-0.041666667,1,0,0,0.846,optionLeft,40,1515,1,30,0,30,0,1,,,,,,,,,,,,,,,,,,,,,,,,,,,,,,,,,,,,,,,
,,,,,,,,2023-08-16_08h33.13.503,HF_wild_card,2022.2.4,Win32,59.93407252,5d1904fd8b97090001215bdf,64d2fd46c836a06233681665,64dc7b996affa6e52df02fc4,,,,,,,decisionTrl,resources/DB.BMP,resources/DR.BMP,Door4,-0.290364583,-0.040364583,1,0,0,1.3297,optionLeft,60,1575,1,31,0,31,0,1,,,,,,,,,,,,,,,,,,,,,,,,,,,,,,,,,,,,,,,
,,,,,,,,2023-08-16_08h33.13.503,HF_wild_card,2022.2.4,Win32,59.93407252,5d1904fd8b97090001215bdf,64d2fd46c836a06233681665,64dc7b996affa6e52df02fc4,,,,,,,decisionTrl,resources/DR.BMP,resources/DB.BMP,Door4,0.337239583,0.005208333,1,0,0,0.8672,optionRight,80,1655,1,32,0,32,0,1,,,,,,,,,,,,,,,,,,,,,,,,,,,,,,,,,,,,,,,
,,,,,,,,2023-08-16_08h33.13.503,HF_wild_card,2022.2.4,Win32,59.93407252,5d1904fd8b97090001215bdf,64d2fd46c836a06233681665,64dc7b996affa6e52df02fc4,,,,,,,decisionTrl,resources/DBN.BMP,resources/DP.BMP,WildCard_NonEx,0.28125,-0.002604167,1,0,0,0.9336,optionRight,45,1700,1,33,0,33,0,1,,,,,,,,,,,,,,,,,,,,,,,,,,,,,,,,,,,,,,,
,,,,,,,,2023-08-16_08h33.13.503,HF_wild_card,2022.2.4,Win32,59.93407252,5d1904fd8b97090001215bdf,64d2fd46c836a06233681665,64dc7b996affa6e52df02fc4,,,,,,,decisionTrl,resources/DBN.BMP,resources/DY.BMP,Door1,0.311197917,0.001302083,1,0,0,1.2738,optionRight,30,1730,1,34,0,34,0,1,,,,,,,,,,,,,,,,,,,,,,,,,,,,,,,,,,,,,,,
,,,,,,,,2023-08-16_08h33.13.503,HF_wild_card,2022.2.4,Win32,59.93407252,5d1904fd8b97090001215bdf,64d2fd46c836a06233681665,64dc7b996affa6e52df02fc4,,,,,,,sngl,resources/Empty.png,resources/DP.BMP,WildCard_NonEx,0.2890625,0.016927083,1,0,0,0.6284,optionRight,45,1775,1,35,0,35,0,1,,,,,,,,,,,,,,,,,,,,,,,,,,,,,,,,,,,,,,,
,,,,,,,,2023-08-16_08h33.13.503,HF_wild_card,2022.2.4,Win32,59.93407252,5d1904fd8b97090001215bdf,64d2fd46c836a06233681665,64dc7b996affa6e52df02fc4,,,,,,,decisionTrl,resources/DP.BMP,resources/DBN.BMP,WildCard_NonEx,-0.3125,-0.03125,1,0,0,0.7227,optionLeft,55,1830,1,36,0,36,0,1,,,,,,,,,,,,,,,,,,,,,,,,,,,,,,,,,,,,,,,
,,,,,,,,2023-08-16_08h33.13.503,HF_wild_card,2022.2.4,Win32,59.93407252,5d1904fd8b97090001215bdf,64d2fd46c836a06233681665,64dc7b996affa6e52df02fc4,,,,,,,sngl,resources/DP.BMP,resources/Empty.png,WildCard_NonEx,-0.227864583,0.010416667,1,0,0,0.5842,optionLeft,45,1875,1,37,0,37,0,1,,,,,,,,,,,,,,,,,,,,,,,,,,,,,,,,,,,,,,,
,,,,,,,,2023-08-16_08h33.13.503,HF_wild_card,2022.2.4,Win32,59.93407252,5d1904fd8b97090001215bdf,64d2fd46c836a06233681665,64dc7b996affa6e52df02fc4,,,,,,,decisionTrl,resources/DR.BMP,resources/DB.BMP,Door3,-0.46484375,-0.022135417,1,0,0,1.0427,optionLeft,70,1945,1,38,0,38,0,1,,,,,,,,,,,,,,,,,,,,,,,,,,,,,,,,,,,,,,,
,,,,,,,,2023-08-16_08h33.13.503,HF_wild_card,2022.2.4,Win32,59.93407252,5d1904fd8b97090001215bdf,64d2fd46c836a06233681665,64dc7b996affa6e52df02fc4,,,,,,,sngl,resources/DR.BMP,resources/Empty.png,Door3,-0.411458333,-0.063802083,1,0,0,0.5931,optionLeft,70,2015,1,39,0,39,0,1,,,,,,,,,,,,,,,,,,,,,,,,,,,,,,,,,,,,,,,
,,,,,,,,2023-08-16_08h33.13.503,HF_wild_card,2022.2.4,Win32,59.93407252,5d1904fd8b97090001215bdf,64d2fd46c836a06233681665,64dc7b996affa6e52df02fc4,,,,,,,decisionTrl,resources/DR.BMP,resources/DP.BMP,Door3,-0.337239583,-0.033854167,1,0,0,1.0451,optionLeft,70,2085,1,40,0,40,0,1,,,,,,,,,,,,,,,,,,,,,,,,,,,,,,,,,,,,,,,
,,,,,,,,2023-08-16_08h33.13.503,HF_wild_card,2022.2.4,Win32,59.93407252,5d1904fd8b97090001215bdf,64d2fd46c836a06233681665,64dc7b996affa6e52df02fc4,,,,,,,ctch,resources/DY.BMP,resources/DB.BMP,Door4,0.477864583,-0.024739583,1,0,0,1.428,optionRight,80,2165,1,41,0,41,0,1,,,,,,,,,,,,,,,,,,,,,,,,,,,,,,,,,,,,,,,
,,,,,,,,2023-08-16_08h33.13.503,HF_wild_card,2022.2.4,Win32,59.93407252,5d1904fd8b97090001215bdf,64d2fd46c836a06233681665,64dc7b996affa6e52df02fc4,,,,,,,decisionTrl,resources/DP.BMP,resources/DB.BMP,Door4,0.37109375,-0.0078125,1,0,0,0.7562,optionRight,80,2245,1,42,0,42,0,1,,,,,,,,,,,,,,,,,,,,,,,,,,,,,,,,,,,,,,,
,,,,,,,,2023-08-16_08h33.13.503,HF_wild_card,2022.2.4,Win32,59.93407252,5d1904fd8b97090001215bdf,64d2fd46c836a06233681665,64dc7b996affa6e52df02fc4,,,,,,,decisionTrl,resources/DB.BMP,resources/DR.BMP,Door4,-0.322916667,-0.01171875,1,0,0,0.6055,optionLeft,80,2325,1,43,0,43,0,1,,,,,,,,,,,,,,,,,,,,,,,,,,,,,,,,,,,,,,,
,,,,,,,,2023-08-16_08h33.13.503,HF_wild_card,2022.2.4,Win32,59.93407252,5d1904fd8b97090001215bdf,64d2fd46c836a06233681665,64dc7b996affa6e52df02fc4,,,,,,,,,,,,,,,,,,,,,,,,,,0,0,0,0,1,,,,,,,,,,,,,,,,,,,,,,,,,,,,,,,,,,
,,,,,,,,2023-08-16_08h33.13.503,HF_wild_card,2022.2.4,Win32,59.93407252,5d1904fd8b97090001215bdf,64d2fd46c836a06233681665,64dc7b996affa6e52df02fc4,,,,,,,sngl,resources/DR.BMP,resources/Empty.png,Door3,-0.326822917,-0.080729167,1,0,0,0.8264,optionLeft,70,2395,2,0,0,0,0,1,,,,,,,,,,,,,,,,,,,,,,,,,,,,,,,,,,,,,,,
,,,,,,,,2023-08-16_08h33.13.503,HF_wild_card,2022.2.4,Win32,59.93407252,5d1904fd8b97090001215bdf,64d2fd46c836a06233681665,64dc7b996affa6e52df02fc4,,,,,,,sngl,resources/Empty.png,resources/DP.BMP,WildCard_NonEx,0.298177083,-0.009114583,1,0,0,0.5719,optionRight,45,2440,2,1,0,1,0,1,,,,,,,,,,,,,,,,,,,,,,,,,,,,,,,,,,,,,,,
,,,,,,,,2023-08-16_08h33.13.503,HF_wild_card,2022.2.4,Win32,59.93407252,5d1904fd8b97090001215bdf,64d2fd46c836a06233681665,64dc7b996affa6e52df02fc4,,,,,,,decisionTrl,resources/DBN.BMP,resources/DY.BMP,Door1,0.489583333,0.002604167,1,0,0,1.1783,optionRight,30,2470,2,2,0,2,0,1,,,,,,,,,,,,,,,,,,,,,,,,,,,,,,,,,,,,,,,
,,,,,,,,2023-08-16_08h33.13.503,HF_wild_card,2022.2.4,Win32,59.93407252,5d1904fd8b97090001215bdf,64d2fd46c836a06233681665,64dc7b996affa6e52df02fc4,,,,,,,sngl,resources/DP.BMP,resources/Empty.png,WildCard_NonEx,-0.2421875,-0.0078125,1,0,0,0.538,optionLeft,45,2515,2,3,0,3,0,1,,,,,,,,,,,,,,,,,,,,,,,,,,,,,,,,,,,,,,,
,,,,,,,,2023-08-16_08h33.13.503,HF_wild_card,2022.2.4,Win32,59.93407252,5d1904fd8b97090001215bdf,64d2fd46c836a06233681665,64dc7b996affa6e52df02fc4,,,,,,,ctch,resources/DBN.BMP,resources/DR.BMP,Door3,0.2265625,-0.01953125,1,0,0,1.236,optionRight,70,2585,2,4,0,4,0,1,,,,,,,,,,,,,,,,,,,,,,,,,,,,,,,,,,,,,,,
,,,,,,,,2023-08-16_08h33.13.503,HF_wild_card,2022.2.4,Win32,59.93407252,5d1904fd8b97090001215bdf,64d2fd46c836a06233681665,64dc7b996affa6e52df02fc4,,,,,,,ctch,resources/DY.BMP,resources/DB.BMP,Door1,-0.260416667,-0.022135417,1,0,0,0.9863,optionLeft,30,2615,2,5,0,5,0,1,,,,,,,,,,,,,,,,,,,,,,,,,,,,,,,,,,,,,,,
,,,,,,,,2023-08-16_08h33.13.503,HF_wild_card,2022.2.4,Win32,59.93407252,5d1904fd8b97090001215bdf,64d2fd46c836a06233681665,64dc7b996affa6e52df02fc4,,,,,,,decisionTrl,resources/DY.BMP,resources/DBN.BMP,Door1,-0.421875,-0.040364583,1,0,0,1.1361,optionLeft,30,2645,2,6,0,6,0,1,,,,,,,,,,,,,,,,,,,,,,,,,,,,,,,,,,,,,,,
,,,,,,,,2023-08-16_08h33.13.503,HF_wild_card,2022.2.4,Win32,59.93407252,5d1904fd8b97090001215bdf,64d2fd46c836a06233681665,64dc7b996affa6e52df02fc4,,,,,,,decisionTrl,resources/DP.BMP,resources/DR.BMP,Door3,0.290364583,-0.006510417,1,0,0,0.7752,optionRight,70,2715,2,7,0,7,0,1,,,,,,,,,,,,,,,,,,,,,,,,,,,,,,,,,,,,,,,
,,,,,,,,2023-08-16_08h33.13.503,HF_wild_card,2022.2.4,Win32,59.93407252,5d1904fd8b97090001215bdf,64d2fd46c836a06233681665,64dc7b996affa6e52df02fc4,,,,,,,sngl,resources/DBN.BMP,resources/Empty.png,Door2,-0.227864583,-0.016927083,1,0,0,0.6911,optionLeft,20,2735,2,8,0,8,0,1,,,,,,,,,,,,,,,,,,,,,,,,,,,,,,,,,,,,,,,
,,,,,,,,2023-08-16_08h33.13.503,HF_wild_card,2022.2.4,Win32,59.93407252,5d1904fd8b97090001215bdf,64d2fd46c836a06233681665,64dc7b996affa6e52df02fc4,,,,,,,ctch,resources/DR.BMP,resources/DBN.BMP,Door3,-0.375,-0.0625,1,0,0,0.8715,optionLeft,70,2805,2,9,0,9,0,1,,,,,,,,,,,,,,,,,,,,,,,,,,,,,,,,,,,,,,,
,,,,,,,,2023-08-16_08h33.13.503,HF_wild_card,2022.2.4,Win32,59.93407252,5d1904fd8b97090001215bdf,64d2fd46c836a06233681665,64dc7b996affa6e52df02fc4,,,,,,,decisionTrl,resources/DB.BMP,resources/DR.BMP,Door3,0.2890625,-0.065104167,1,0,0,1.5942,optionRight,70,2875,2,10,0,10,0,1,,,,,,,,,,,,,,,,,,,,,,,,,,,,,,,,,,,,,,,
,,,,,,,,2023-08-16_08h33.13.503,HF_wild_card,2022.2.4,Win32,59.93407252,5d1904fd8b97090001215bdf,64d2fd46c836a06233681665,64dc7b996affa6e52df02fc4,,,,,,,decisionTrl,resources/DBN.BMP,resources/DY.BMP,Door1,0.2578125,0.02734375,1,0,0,0.9974,optionRight,30,2905,2,11,0,11,0,1,,,,,,,,,,,,,,,,,,,,,,,,,,,,,,,,,,,,,,,
,,,,,,,,2023-08-16_08h33.13.503,HF_wild_card,2022.2.4,Win32,59.93407252,5d1904fd8b97090001215bdf,64d2fd46c836a06233681665,64dc7b996affa6e52df02fc4,,,,,,,sngl,resources/DB.BMP,resources/Empty.png,Door4,-0.286458333,-0.03125,1,0,0,0.659,optionLeft,60,2965,2,12,0,12,0,1,,,,,,,,,,,,,,,,,,,,,,,,,,,,,,,,,,,,,,,
,,,,,,,,2023-08-16_08h33.13.503,HF_wild_card,2022.2.4,Win32,59.93407252,5d1904fd8b97090001215bdf,64d2fd46c836a06233681665,64dc7b996affa6e52df02fc4,,,,,,,sngl,resources/DP.BMP,resources/Empty.png,WildCard_NonEx,-0.149739583,-0.032552083,1,0,0,0.6393,optionLeft,55,3020,2,13,0,13,0,1,,,,,,,,,,,,,,,,,,,,,,,,,,,,,,,,,,,,,,,
,,,,,,,,2023-08-16_08h33.13.503,HF_wild_card,2022.2.4,Win32,59.93407252,5d1904fd8b97090001215bdf,64d2fd46c836a06233681665,64dc7b996affa6e52df02fc4,,,,,,,decisionTrl,resources/DY.BMP,resources/DBN.BMP,Door1,-0.16796875,0.006510417,1,0,0,1.01,optionLeft,30,3050,2,14,0,14,0,1,,,,,,,,,,,,,,,,,,,,,,,,,,,,,,,,,,,,,,,
,,,,,,,,2023-08-16_08h33.13.503,HF_wild_card,2022.2.4,Win32,59.93407252,5d1904fd8b97090001215bdf,64d2fd46c836a06233681665,64dc7b996affa6e52df02fc4,,,,,,,decisionTrl,resources/DY.BMP,resources/DBN.BMP,Door2,0.375,0.015625,1,0,0,0.7797,optionRight,20,3070,2,15,0,15,0,1,,,,,,,,,,,,,,,,,,,,,,,,,,,,,,,,,,,,,,,
,,,,,,,,2023-08-16_08h33.13.503,HF_wild_card,2022.2.4,Win32,59.93407252,5d1904fd8b97090001215bdf,64d2fd46c836a06233681665,64dc7b996affa6e52df02fc4,,,,,,,ctch,resources/DY.BMP,resources/DB.BMP,Door4,0.37109375,-0.001302083,1,0,0,0.9444,optionRight,60,3130,2,16,0,16,0,1,,,,,,,,,,,,,,,,,,,,,,,,,,,,,,,,,,,,,,,
,,,,,,,,2023-08-16_08h33.13.503,HF_wild_card,2022.2.4,Win32,59.93407252,5d1904fd8b97090001215bdf,64d2fd46c836a06233681665,64dc7b996affa6e52df02fc4,,,,,,,decisionTrl,resources/DB.BMP,resources/DR.BMP,Door4,-0.109375,-0.03515625,1,0,0,1.2545,optionLeft,60,3190,2,17,0,17,0,1,,,,,,,,,,,,,,,,,,,,,,,,,,,,,,,,,,,,,,,
,,,,,,,,2023-08-16_08h33.13.503,HF_wild_card,2022.2.4,Win32,59.93407252,5d1904fd8b97090001215bdf,64d2fd46c836a06233681665,64dc7b996affa6e52df02fc4,,,,,,,ctch,resources/DB.BMP,resources/DY.BMP,Door4,-0.12890625,-0.033854167,1,0,0,1.326,optionLeft,80,3270,2,18,0,18,0,1,,,,,,,,,,,,,,,,,,,,,,,,,,,,,,,,,,,,,,,
,,,,,,,,2023-08-16_08h33.13.503,HF_wild_card,2022.2.4,Win32,59.93407252,5d1904fd8b97090001215bdf,64d2fd46c836a06233681665,64dc7b996affa6e52df02fc4,,,,,,,decisionTrl,resources/DR.BMP,resources/DB.BMP,Door4,0.322916667,-0.009114583,1,0,0,1.463,optionRight,80,3350,2,19,0,19,0,1,,,,,,,,,,,,,,,,,,,,,,,,,,,,,,,,,,,,,,,
,,,,,,,,2023-08-16_08h33.13.503,HF_wild_card,2022.2.4,Win32,59.93407252,5d1904fd8b97090001215bdf,64d2fd46c836a06233681665,64dc7b996affa6e52df02fc4,,,,,,,decisionTrl,resources/DP.BMP,resources/DY.BMP,WildCard_NonEx,-0.354166667,-0.076822917,1,0,0,1.2619,optionLeft,55,3405,2,20,0,20,0,1,,,,,,,,,,,,,,,,,,,,,,,,,,,,,,,,,,,,,,,
,,,,,,,,2023-08-16_08h33.13.503,HF_wild_card,2022.2.4,Win32,59.93407252,5d1904fd8b97090001215bdf,64d2fd46c836a06233681665,64dc7b996affa6e52df02fc4,,,,,,,decisionTrl,resources/DY.BMP,resources/DP.BMP,WildCard_NonEx,0.32421875,-0.0234375,1,0,0,1.0392,optionRight,45,3450,2,21,0,21,0,1,,,,,,,,,,,,,,,,,,,,,,,,,,,,,,,,,,,,,,,
,,,,,,,,2023-08-16_08h33.13.503,HF_wild_card,2022.2.4,Win32,59.93407252,5d1904fd8b97090001215bdf,64d2fd46c836a06233681665,64dc7b996affa6e52df02fc4,,,,,,,decisionTrl,resources/DB.BMP,resources/DP.BMP,WildCard_NonEx,0.265625,-0.016927083,1,0,0,0.7276,optionRight,55,3505,2,22,0,22,0,1,,,,,,,,,,,,,,,,,,,,,,,,,,,,,,,,,,,,,,,
,,,,,,,,2023-08-16_08h33.13.503,HF_wild_card,2022.2.4,Win32,59.93407252,5d1904fd8b97090001215bdf,64d2fd46c836a06233681665,64dc7b996affa6e52df02fc4,,,,,,,ctch,resources/DB.BMP,resources/DY.BMP,Door1,0.434895833,0.0078125,1,0,0,1.3438,optionRight,30,3535,2,23,0,23,0,1,,,,,,,,,,,,,,,,,,,,,,,,,,,,,,,,,,,,,,,
,,,,,,,,2023-08-16_08h33.13.503,HF_wild_card,2022.2.4,Win32,59.93407252,5d1904fd8b97090001215bdf,64d2fd46c836a06233681665,64dc7b996affa6e52df02fc4,,,,,,,decisionTrl,resources/DR.BMP,resources/DB.BMP,Door4,0.360677083,-0.018229167,1,0,0,0.8145,optionRight,60,3595,2,24,0,24,0,1,,,,,,,,,,,,,,,,,,,,,,,,,,,,,,,,,,,,,,,
,,,,,,,,2023-08-16_08h33.13.503,HF_wild_card,2022.2.4,Win32,59.93407252,5d1904fd8b97090001215bdf,64d2fd46c836a06233681665,64dc7b996affa6e52df02fc4,,,,,,,sngl,resources/Empty.png,resources/DR.BMP,Door3,0.2890625,0.022135417,1,0,0,0.6584,optionRight,70,3665,2,25,0,25,0,1,,,,,,,,,,,,,,,,,,,,,,,,,,,,,,,,,,,,,,,
,,,,,,,,2023-08-16_08h33.13.503,HF_wild_card,2022.2.4,Win32,59.93407252,5d1904fd8b97090001215bdf,64d2fd46c836a06233681665,64dc7b996affa6e52df02fc4,,,,,,,decisionTrl,resources/DY.BMP,resources/DBN.BMP,Door1,-0.26171875,-0.015625,1,0,0,0.7121,optionLeft,30,3695,2,26,0,26,0,1,,,,,,,,,,,,,,,,,,,,,,,,,,,,,,,,,,,,,,,
,,,,,,,,2023-08-16_08h33.13.503,HF_wild_card,2022.2.4,Win32,59.93407252,5d1904fd8b97090001215bdf,64d2fd46c836a06233681665,64dc7b996affa6e52df02fc4,,,,,,,sngl,resources/DY.BMP,resources/Empty.png,Door1,-0.240885417,-0.015625,1,0,0,0.5866,optionLeft,30,3725,2,27,0,27,0,1,,,,,,,,,,,,,,,,,,,,,,,,,,,,,,,,,,,,,,,
,,,,,,,,2023-08-16_08h33.13.503,HF_wild_card,2022.2.4,Win32,59.93407252,5d1904fd8b97090001215bdf,64d2fd46c836a06233681665,64dc7b996affa6e52df02fc4,,,,,,,decisionTrl,resources/DP.BMP,resources/DBN.BMP,WildCard_NonEx,-0.204427083,-0.029947917,1,0,0,0.728,optionLeft,55,3780,2,28,0,28,0,1,,,,,,,,,,,,,,,,,,,,,,,,,,,,,,,,,,,,,,,
,,,,,,,,2023-08-16_08h33.13.503,HF_wild_card,2022.2.4,Win32,59.93407252,5d1904fd8b97090001215bdf,64d2fd46c836a06233681665,64dc7b996affa6e52df02fc4,,,,,,,sngl,resources/Empty.png,resources/DB.BMP,Door4,0.450520833,0.016927083,1,0,0,0.6413,optionRight,80,3860,2,29,0,29,0,1,,,,,,,,,,,,,,,,,,,,,,,,,,,,,,,,,,,,,,,
,,,,,,,,2023-08-16_08h33.13.503,HF_wild_card,2022.2.4,Win32,59.93407252,5d1904fd8b97090001215bdf,64d2fd46c836a06233681665,64dc7b996affa6e52df02fc4,,,,,,,decisionTrl,resources/DR.BMP,resources/DB.BMP,Door4,0.260416667,-0.01171875,1,0,0,0.7601,optionRight,60,3920,2,30,0,30,0,1,,,,,,,,,,,,,,,,,,,,,,,,,,,,,,,,,,,,,,,
,,,,,,,,2023-08-16_08h33.13.503,HF_wild_card,2022.2.4,Win32,59.93407252,5d1904fd8b97090001215bdf,64d2fd46c836a06233681665,64dc7b996affa6e52df02fc4,,,,,,,sngl,resources/Empty.png,resources/DY.BMP,Door1,0.37109375,-0.018229167,1,0,0,0.6936,optionRight,30,3950,2,31,0,31,0,1,,,,,,,,,,,,,,,,,,,,,,,,,,,,,,,,,,,,,,,
,,,,,,,,2023-08-16_08h33.13.503,HF_wild_card,2022.2.4,Win32,59.93407252,5d1904fd8b97090001215bdf,64d2fd46c836a06233681665,64dc7b996affa6e52df02fc4,,,,,,,ctch,resources/DR.BMP,resources/DBN.BMP,Door3,-0.35546875,-0.0703125,1,0,0,0.6865,optionLeft,70,4020,2,32,0,32,0,1,,,,,,,,,,,,,,,,,,,,,,,,,,,,,,,,,,,,,,,
,,,,,,,,2023-08-16_08h33.13.503,HF_wild_card,2022.2.4,Win32,59.93407252,5d1904fd8b97090001215bdf,64d2fd46c836a06233681665,64dc7b996affa6e52df02fc4,,,,,,,decisionTrl,resources/DB.BMP,resources/DR.BMP,Door3,0.470052083,-0.00390625,1,0,0,0.87,optionRight,70,4090,2,33,0,33,0,1,,,,,,,,,,,,,,,,,,,,,,,,,,,,,,,,,,,,,,,
,,,,,,,,2023-08-16_08h33.13.503,HF_wild_card,2022.2.4,Win32,59.93407252,5d1904fd8b97090001215bdf,64d2fd46c836a06233681665,64dc7b996affa6e52df02fc4,,,,,,,decisionTrl,resources/DR.BMP,resources/DP.BMP,Door3,-0.360677083,-0.05859375,1,0,0,1.3905,optionLeft,70,4160,2,34,0,34,0,1,,,,,,,,,,,,,,,,,,,,,,,,,,,,,,,,,,,,,,,
,,,,,,,,2023-08-16_08h33.13.503,HF_wild_card,2022.2.4,Win32,59.93407252,5d1904fd8b97090001215bdf,64d2fd46c836a06233681665,64dc7b996affa6e52df02fc4,,,,,,,decisionTrl,resources/DBN.BMP,resources/DP.BMP,WildCard_NonEx,0.510416667,-0.00390625,1,0,0,0.68,optionRight,55,4215,2,35,0,35,0,1,,,,,,,,,,,,,,,,,,,,,,,,,,,,,,,,,,,,,,,
,,,,,,,,2023-08-16_08h33.13.503,HF_wild_card,2022.2.4,Win32,59.93407252,5d1904fd8b97090001215bdf,64d2fd46c836a06233681665,64dc7b996affa6e52df02fc4,,,,,,,sngl,resources/Empty.png,resources/DBN.BMP,Door2,0.32421875,-0.005208333,1,0,0,0.8609,optionRight,40,4255,2,36,0,36,0,1,,,,,,,,,,,,,,,,,,,,,,,,,,,,,,,,,,,,,,,
,,,,,,,,2023-08-16_08h33.13.503,HF_wild_card,2022.2.4,Win32,59.93407252,5d1904fd8b97090001215bdf,64d2fd46c836a06233681665,64dc7b996affa6e52df02fc4,,,,,,,decisionTrl,resources/DB.BMP,resources/DR.BMP,Door4,-0.38671875,-0.028645833,1,0,0,1.5054,optionLeft,80,4335,2,37,0,37,0,1,,,,,,,,,,,,,,,,,,,,,,,,,,,,,,,,,,,,,,,
,,,,,,,,2023-08-16_08h33.13.503,HF_wild_card,2022.2.4,Win32,59.93407252,5d1904fd8b97090001215bdf,64d2fd46c836a06233681665,64dc7b996affa6e52df02fc4,,,,,,,decisionTrl,resources/DBN.BMP,resources/DY.BMP,Door1,0.4921875,-0.018229167,1,0,0,1.1116,optionRight,30,4365,2,38,0,38,0,1,,,,,,,,,,,,,,,,,,,,,,,,,,,,,,,,,,,,,,,
,,,,,,,,2023-08-16_08h33.13.503,HF_wild_card,2022.2.4,Win32,59.93407252,5d1904fd8b97090001215bdf,64d2fd46c836a06233681665,64dc7b996affa6e52df02fc4,,,,,,,sngl,resources/Empty.png,resources/DP.BMP,WildCard_NonEx,0.49609375,-0.005208333,1,0,0,0.9399,optionRight,55,4420,2,39,0,39,0,1,,,,,,,,,,,,,,,,,,,,,,,,,,,,,,,,,,,,,,,
,,,,,,,,2023-08-16_08h33.13.503,HF_wild_card,2022.2.4,Win32,59.93407252,5d1904fd8b97090001215bdf,64d2fd46c836a06233681665,64dc7b996affa6e52df02fc4,,,,,,,ctch,resources/DBN.BMP,resources/DR.BMP,Door3,0.467447917,-0.009114583,1,0,0,0.936,optionRight,70,4490,2,40,0,40,0,1,,,,,,,,,,,,,,,,,,,,,,,,,,,,,,,,,,,,,,,
,,,,,,,,2023-08-16_08h33.13.503,HF_wild_card,2022.2.4,Win32,59.93407252,5d1904fd8b97090001215bdf,64d2fd46c836a06233681665,64dc7b996affa6e52df02fc4,,,,,,,decisionTrl,resources/DP.BMP,resources/DB.BMP,WildCard_NonEx,-0.239583333,-0.032552083,1,0,0,0.7394,optionLeft,45,4535,2,41,0,41,0,1,,,,,,,,,,,,,,,,,,,,,,,,,,,,,,,,,,,,,,,
,,,,,,,,2023-08-16_08h33.13.503,HF_wild_card,2022.2.4,Win32,59.93407252,5d1904fd8b97090001215bdf,64d2fd46c836a06233681665,64dc7b996affa6e52df02fc4,,,,,,,decisionTrl,resources/DR.BMP,resources/DB.BMP,Door4,0.376302083,-0.01171875,1,0,0,0.6232,optionRight,60,4595,2,42,0,42,0,1,,,,,,,,,,,,,,,,,,,,,,,,,,,,,,,,,,,,,,,
,,,,,,,,2023-08-16_08h33.13.503,HF_wild_card,2022.2.4,Win32,59.93407252,5d1904fd8b97090001215bdf,64d2fd46c836a06233681665,64dc7b996affa6e52df02fc4,,,,,,,decisionTrl,resources/DBN.BMP,resources/DY.BMP,Door1,0.279947917,-0.02734375,1,0,0,0.8245,optionRight,30,4625,2,43,0,43,0,1,,,,,,,,,,,,,,,,,,,,,,,,,,,,,,,,,,,,,,,
,,,,,,,,2023-08-16_08h33.13.503,HF_wild_card,2022.2.4,Win32,59.93407252,5d1904fd8b97090001215bdf,64d2fd46c836a06233681665,64dc7b996affa6e52df02fc4,,,,,,,,,,,,,,,,,,,,,,,,,,1,0,1,0,1,,,,,,,,,,,,,,,,,,,,,,,,,,,,,,,,,,
,,,,,,,,2023-08-16_08h33.13.503,HF_wild_card,2022.2.4,Win32,59.93407252,5d1904fd8b97090001215bdf,64d2fd46c836a06233681665,64dc7b996affa6e52df02fc4,,,,,,,decisionTrl,resources/DY.BMP,resources/DBN.BMP,Door1,-0.3359375,-0.12109375,1,0,0,0.7438,optionLeft,30,4655,3,0,0,0,0,1,,,,,,,,,,,,,,,,,,,,,,,,,,,,,,,,,,,,,,,
,,,,,,,,2023-08-16_08h33.13.503,HF_wild_card,2022.2.4,Win32,59.93407252,5d1904fd8b97090001215bdf,64d2fd46c836a06233681665,64dc7b996affa6e52df02fc4,,,,,,,decisionTrl,resources/DR.BMP,resources/DB.BMP,Door3,-0.19140625,-0.0234375,1,0,0,1.1697,optionLeft,70,4725,3,1,0,1,0,1,,,,,,,,,,,,,,,,,,,,,,,,,,,,,,,,,,,,,,,
,,,,,,,,2023-08-16_08h33.13.503,HF_wild_card,2022.2.4,Win32,59.93407252,5d1904fd8b97090001215bdf,64d2fd46c836a06233681665,64dc7b996affa6e52df02fc4,,,,,,,decisionTrl,resources/DB.BMP,resources/DR.BMP,Door3,0.313802083,0.014322917,1,0,0,0.7064,optionRight,70,4795,3,2,0,2,0,1,,,,,,,,,,,,,,,,,,,,,,,,,,,,,,,,,,,,,,,
,,,,,,,,2023-08-16_08h33.13.503,HF_wild_card,2022.2.4,Win32,59.93407252,5d1904fd8b97090001215bdf,64d2fd46c836a06233681665,64dc7b996affa6e52df02fc4,,,,,,,decisionTrl,resources/DBN.BMP,resources/DY.BMP,Door1,0.328125,-0.0078125,1,0,0,0.6409,optionRight,30,4825,3,3,0,3,0,1,,,,,,,,,,,,,,,,,,,,,,,,,,,,,,,,,,,,,,,
,,,,,,,,2023-08-16_08h33.13.503,HF_wild_card,2022.2.4,Win32,59.93407252,5d1904fd8b97090001215bdf,64d2fd46c836a06233681665,64dc7b996affa6e52df02fc4,,,,,,,sngl,resources/DP.BMP,resources/Empty.png,WildCard_NonEx,-0.23046875,-0.016927083,1,0,0,0.6067,optionLeft,55,4880,3,4,0,4,0,1,,,,,,,,,,,,,,,,,,,,,,,,,,,,,,,,,,,,,,,
,,,,,,,,2023-08-16_08h33.13.503,HF_wild_card,2022.2.4,Win32,59.93407252,5d1904fd8b97090001215bdf,64d2fd46c836a06233681665,64dc7b996affa6e52df02fc4,,,,,,,ctch,resources/DR.BMP,resources/DBN.BMP,Door3,-0.317708333,-0.03125,1,0,0,0.7355,optionLeft,70,4950,3,5,0,5,0,1,,,,,,,,,,,,,,,,,,,,,,,,,,,,,,,,,,,,,,,
,,,,,,,,2023-08-16_08h33.13.503,HF_wild_card,2022.2.4,Win32,59.93407252,5d1904fd8b97090001215bdf,64d2fd46c836a06233681665,64dc7b996affa6e52df02fc4,,,,,,,ctch,resources/DB.BMP,resources/DY.BMP,Door4,-0.348958333,-0.044270833,1,0,0,0.8235,optionLeft,80,5030,3,6,0,6,0,1,,,,,,,,,,,,,,,,,,,,,,,,,,,,,,,,,,,,,,,
,,,,,,,,2023-08-16_08h33.13.503,HF_wild_card,2022.2.4,Win32,59.93407252,5d1904fd8b97090001215bdf,64d2fd46c836a06233681665,64dc7b996affa6e52df02fc4,,,,,,,decisionTrl,resources/DBN.BMP,resources/DY.BMP,Door1,0.243489583,-0.016927083,1,0,0,0.8603,optionRight,30,5060,3,7,0,7,0,1,,,,,,,,,,,,,,,,,,,,,,,,,,,,,,,,,,,,,,,
,,,,,,,,2023-08-16_08h33.13.503,HF_wild_card,2022.2.4,Win32,59.93407252,5d1904fd8b97090001215bdf,64d2fd46c836a06233681665,64dc7b996affa6e52df02fc4,,,,,,,sngl,resources/Empty.png,resources/DP.BMP,WildCard_NonEx,0.295572917,-0.03125,1,0,0,0.6281,optionRight,55,5115,3,8,0,8,0,1,,,,,,,,,,,,,,,,,,,,,,,,,,,,,,,,,,,,,,,
,,,,,,,,2023-08-16_08h33.13.503,HF_wild_card,2022.2.4,Win32,59.93407252,5d1904fd8b97090001215bdf,64d2fd46c836a06233681665,64dc7b996affa6e52df02fc4,,,,,,,decisionTrl,resources/DY.BMP,resources/DBN.BMP,Door1,-0.311197917,-0.010416667,1,0,0,0.6309,optionLeft,30,5145,3,9,0,9,0,1,,,,,,,,,,,,,,,,,,,,,,,,,,,,,,,,,,,,,,,
,,,,,,,,2023-08-16_08h33.13.503,HF_wild_card,2022.2.4,Win32,59.93407252,5d1904fd8b97090001215bdf,64d2fd46c836a06233681665,64dc7b996affa6e52df02fc4,,,,,,,ctch,resources/DBN.BMP,resources/DR.BMP,Door3,0.3984375,-0.01953125,1,0,0,0.9035,optionRight,70,5215,3,10,0,10,0,1,,,,,,,,,,,,,,,,,,,,,,,,,,,,,,,,,,,,,,,
,,,,,,,,2023-08-16_08h33.13.503,HF_wild_card,2022.2.4,Win32,59.93407252,5d1904fd8b97090001215bdf,64d2fd46c836a06233681665,64dc7b996affa6e52df02fc4,,,,,,,decisionTrl,resources/DR.BMP,resources/DB.BMP,Door4,0.1875,-0.022135417,1,0,0,1.9036,optionRight,60,5275,3,11,0,11,0,1,,,,,,,,,,,,,,,,,,,,,,,,,,,,,,,,,,,,,,,
,,,,,,,,2023-08-16_08h33.13.503,HF_wild_card,2022.2.4,Win32,59.93407252,5d1904fd8b97090001215bdf,64d2fd46c836a06233681665,64dc7b996affa6e52df02fc4,,,,,,,ctch,resources/DBN.BMP,resources/DR.BMP,Door3,0.424479167,-0.014322917,1,0,0,0.8736,optionRight,70,5345,3,12,0,12,0,1,,,,,,,,,,,,,,,,,,,,,,,,,,,,,,,,,,,,,,,
,,,,,,,,2023-08-16_08h33.13.503,HF_wild_card,2022.2.4,Win32,59.93407252,5d1904fd8b97090001215bdf,64d2fd46c836a06233681665,64dc7b996affa6e52df02fc4,,,,,,,ctch,resources/DR.BMP,resources/DBN.BMP,Door3,-0.244791667,0.006510417,1,0,0,0.657,optionLeft,70,5415,3,13,0,13,0,1,,,,,,,,,,,,,,,,,,,,,,,,,,,,,,,,,,,,,,,
,,,,,,,,2023-08-16_08h33.13.503,HF_wild_card,2022.2.4,Win32,59.93407252,5d1904fd8b97090001215bdf,64d2fd46c836a06233681665,64dc7b996affa6e52df02fc4,,,,,,,decisionTrl,resources/DBN.BMP,resources/DY.BMP,Door1,0.29296875,-0.015625,1,0,0,0.6561,optionRight,30,5445,3,14,0,14,0,1,,,,,,,,,,,,,,,,,,,,,,,,,,,,,,,,,,,,,,,
,,,,,,,,2023-08-16_08h33.13.503,HF_wild_card,2022.2.4,Win32,59.93407252,5d1904fd8b97090001215bdf,64d2fd46c836a06233681665,64dc7b996affa6e52df02fc4,,,,,,,decisionTrl,resources/DB.BMP,resources/DR.BMP,Door4,-0.3046875,-0.014322917,1,0,0,0.8686,optionLeft,60,5505,3,15,0,15,0,1,,,,,,,,,,,,,,,,,,,,,,,,,,,,,,,,,,,,,,,
,,,,,,,,2023-08-16_08h33.13.503,HF_wild_card,2022.2.4,Win32,59.93407252,5d1904fd8b97090001215bdf,64d2fd46c836a06233681665,64dc7b996affa6e52df02fc4,,,,,,,decisionTrl,resources/DP.BMP,resources/DY.BMP,WildCard_NonEx,-0.416666667,-0.053385417,1,0,0,1.4419,optionLeft,55,5560,3,16,0,16,0,1,,,,,,,,,,,,,,,,,,,,,,,,,,,,,,,,,,,,,,,
,,,,,,,,2023-08-16_08h33.13.503,HF_wild_card,2022.2.4,Win32,59.93407252,5d1904fd8b97090001215bdf,64d2fd46c836a06233681665,64dc7b996affa6e52df02fc4,,,,,,,decisionTrl,resources/DP.BMP,resources/DB.BMP,WildCard_NonEx,-0.217447917,-0.040364583,1,0,0,0.8525,optionLeft,45,5605,3,17,0,17,0,1,,,,,,,,,,,,,,,,,,,,,,,,,,,,,,,,,,,,,,,
,,,,,,,,2023-08-16_08h33.13.503,HF_wild_card,2022.2.4,Win32,59.93407252,5d1904fd8b97090001215bdf,64d2fd46c836a06233681665,64dc7b996affa6e52df02fc4,,,,,,,decisionTrl,resources/DB.BMP,resources/DR.BMP,Door4,-0.313802083,-0.013020833,1,0,0,1.2609,optionLeft,80,5685,3,18,0,18,0,1,,,,,,,,,,,,,,,,,,,,,,,,,,,,,,,,,,,,,,,
,,,,,,,,2023-08-16_08h33.13.503,HF_wild_card,2022.2.4,Win32,59.93407252,5d1904fd8b97090001215bdf,64d2fd46c836a06233681665,64dc7b996affa6e52df02fc4,,,,,,,sngl,resources/Empty.png,resources/DR.BMP,Door3,0.23046875,0.002604167,1,0,0,0.697,optionRight,70,5755,3,19,0,19,0,1,,,,,,,,,,,,,,,,,,,,,,,,,,,,,,,,,,,,,,,
,,,,,,,,2023-08-16_08h33.13.503,HF_wild_card,2022.2.4,Win32,59.93407252,5d1904fd8b97090001215bdf,64d2fd46c836a06233681665,64dc7b996affa6e52df02fc4,,,,,,,sngl,resources/Empty.png,resources/DP.BMP,WildCard_NonEx,0.369791667,-0.00390625,1,0,0,0.6114,optionRight,45,5800,3,20,0,20,0,1,,,,,,,,,,,,,,,,,,,,,,,,,,,,,,,,,,,,,,,
,,,,,,,,2023-08-16_08h33.13.503,HF_wild_card,2022.2.4,Win32,59.93407252,5d1904fd8b97090001215bdf,64d2fd46c836a06233681665,64dc7b996affa6e52df02fc4,,,,,,,decisionTrl,resources/DY.BMP,resources/DBN.BMP,Door1,-0.259114583,-0.01171875,1,0,0,0.7379,optionLeft,30,5830,3,21,0,21,0,1,,,,,,,,,,,,,,,,,,,,,,,,,,,,,,,,,,,,,,,
,,,,,,,,2023-08-16_08h33.13.503,HF_wild_card,2022.2.4,Win32,59.93407252,5d1904fd8b97090001215bdf,64d2fd46c836a06233681665,64dc7b996affa6e52df02fc4,,,,,,,decisionTrl,resources/DB.BMP,resources/DP.BMP,WildCard_NonEx,0.427083333,-0.002604167,1,0,0,1.7944,optionRight,45,5875,3,22,0,22,0,1,,,,,,,,,,,,,,,,,,,,,,,,,,,,,,,,,,,,,,,
,,,,,,,,2023-08-16_08h33.13.503,HF_wild_card,2022.2.4,Win32,59.93407252,5d1904fd8b97090001215bdf,64d2fd46c836a06233681665,64dc7b996affa6e52df02fc4,,,,,,,decisionTrl,resources/DBN.BMP,resources/DP.BMP,WildCard_NonEx,0.506510417,0.0234375,1,0,0,0.9904,optionRight,55,5930,3,23,0,23,0,1,,,,,,,,,,,,,,,,,,,,,,,,,,,,,,,,,,,,,,,
,,,,,,,,2023-08-16_08h33.13.503,HF_wild_card,2022.2.4,Win32,59.93407252,5d1904fd8b97090001215bdf,64d2fd46c836a06233681665,64dc7b996affa6e52df02fc4,,,,,,,sngl,resources/DBN.BMP,resources/Empty.png,Door2,-0.265625,-0.005208333,1,0,0,0.7089,optionLeft,40,5970,3,24,0,24,0,1,,,,,,,,,,,,,,,,,,,,,,,,,,,,,,,,,,,,,,,
,,,,,,,,2023-08-16_08h33.13.503,HF_wild_card,2022.2.4,Win32,59.93407252,5d1904fd8b97090001215bdf,64d2fd46c836a06233681665,64dc7b996affa6e52df02fc4,,,,,,,ctch,resources/DY.BMP,resources/DB.BMP,Door1,-0.391927083,-0.002604167,1,0,0,1.7896,optionLeft,30,6000,3,25,0,25,0,1,,,,,,,,,,,,,,,,,,,,,,,,,,,,,,,,,,,,,,,
,,,,,,,,2023-08-16_08h33.13.503,HF_wild_card,2022.2.4,Win32,59.93407252,5d1904fd8b97090001215bdf,64d2fd46c836a06233681665,64dc7b996affa6e52df02fc4,,,,,,,ctch,resources/DY.BMP,resources/DB.BMP,Door4,0.372395833,0.001302083,1,0,0,0.7467,optionRight,80,6080,3,26,0,26,0,1,,,,,,,,,,,,,,,,,,,,,,,,,,,,,,,,,,,,,,,
,,,,,,,,2023-08-16_08h33.13.503,HF_wild_card,2022.2.4,Win32,59.93407252,5d1904fd8b97090001215bdf,64d2fd46c836a06233681665,64dc7b996affa6e52df02fc4,,,,,,,decisionTrl,resources/DP.BMP,resources/DR.BMP,Door3,0.286458333,-0.002604167,1,0,0,1.319,optionRight,70,6150,3,27,0,27,0,1,,,,,,,,,,,,,,,,,,,,,,,,,,,,,,,,,,,,,,,
,,,,,,,,2023-08-16_08h33.13.503,HF_wild_card,2022.2.4,Win32,59.93407252,5d1904fd8b97090001215bdf,64d2fd46c836a06233681665,64dc7b996affa6e52df02fc4,,,,,,,decisionTrl,resources/DR.BMP,resources/DB.BMP,Door4,0.321614583,-0.014322917,1,0,0,1.4157,optionRight,60,6210,3,28,0,28,0,1,,,,,,,,,,,,,,,,,,,,,,,,,,,,,,,,,,,,,,,
,,,,,,,,2023-08-16_08h33.13.503,HF_wild_card,2022.2.4,Win32,59.93407252,5d1904fd8b97090001215bdf,64d2fd46c836a06233681665,64dc7b996affa6e52df02fc4,,,,,,,decisionTrl,resources/DR.BMP,resources/DB.BMP,Door3,-0.268229167,-0.010416667,1,0,0,0.6964,optionLeft,70,6280,3,29,0,29,0,1,,,,,,,,,,,,,,,,,,,,,,,,,,,,,,,,,,,,,,,
,,,,,,,,2023-08-16_08h33.13.503,HF_wild_card,2022.2.4,Win32,59.93407252,5d1904fd8b97090001215bdf,64d2fd46c836a06233681665,64dc7b996affa6e52df02fc4,,,,,,,sngl,resources/Empty.png,resources/DB.BMP,Door4,0.454427083,-0.006510417,1,0,0,0.6573,optionRight,60,6340,3,30,0,30,0,1,,,,,,,,,,,,,,,,,,,,,,,,,,,,,,,,,,,,,,,
,,,,,,,,2023-08-16_08h33.13.503,HF_wild_card,2022.2.4,Win32,59.93407252,5d1904fd8b97090001215bdf,64d2fd46c836a06233681665,64dc7b996affa6e52df02fc4,,,,,,,sngl,resources/Empty.png,resources/DBN.BMP,Door2,0.264322917,-0.001302083,1,0,0,0.7059,optionRight,20,6360,3,31,0,31,0,1,,,,,,,,,,,,,,,,,,,,,,,,,,,,,,,,,,,,,,,
,,,,,,,,2023-08-16_08h33.13.503,HF_wild_card,2022.2.4,Win32,59.93407252,5d1904fd8b97090001215bdf,64d2fd46c836a06233681665,64dc7b996affa6e52df02fc4,,,,,,,decisionTrl,resources/DP.BMP,resources/DBN.BMP,WildCard_NonEx,-0.350260417,-0.009114583,1,0,0,0.6703,optionLeft,45,6405,3,32,0,32,0,1,,,,,,,,,,,,,,,,,,,,,,,,,,,,,,,,,,,,,,,
,,,,,,,,2023-08-16_08h33.13.503,HF_wild_card,2022.2.4,Win32,59.93407252,5d1904fd8b97090001215bdf,64d2fd46c836a06233681665,64dc7b996affa6e52df02fc4,,,,,,,decisionTrl,resources/DBN.BMP,resources/DY.BMP,Door1,0.368489583,-0.015625,1,0,0,0.9247,optionRight,30,6435,3,33,0,33,0,1,,,,,,,,,,,,,,,,,,,,,,,,,,,,,,,,,,,,,,,
,,,,,,,,2023-08-16_08h33.13.503,HF_wild_card,2022.2.4,Win32,59.93407252,5d1904fd8b97090001215bdf,64d2fd46c836a06233681665,64dc7b996affa6e52df02fc4,,,,,,,sngl,resources/Empty.png,resources/DY.BMP,Door1,0.421875,-0.016927083,1,0,0,0.6049,optionRight,30,6465,3,34,0,34,0,1,,,,,,,,,,,,,,,,,,,,,,,,,,,,,,,,,,,,,,,
,,,,,,,,2023-08-16_08h33.13.503,HF_wild_card,2022.2.4,Win32,59.93407252,5d1904fd8b97090001215bdf,64d2fd46c836a06233681665,64dc7b996affa6e52df02fc4,,,,,,,ctch,resources/DB.BMP,resources/DY.BMP,Door4,-0.25,-0.016927083,1,0,0,0.7884,optionLeft,60,6525,3,35,0,35,0,1,,,,,,,,,,,,,,,,,,,,,,,,,,,,,,,,,,,,,,,
,,,,,,,,2023-08-16_08h33.13.503,HF_wild_card,2022.2.4,Win32,59.93407252,5d1904fd8b97090001215bdf,64d2fd46c836a06233681665,64dc7b996affa6e52df02fc4,,,,,,,decisionTrl,resources/DY.BMP,resources/DP.BMP,WildCard_NonEx,0.21484375,-0.006510417,1,0,0,0.9382,optionRight,55,6580,3,36,0,36,0,1,,,,,,,,,,,,,,,,,,,,,,,,,,,,,,,,,,,,,,,
,,,,,,,,2023-08-16_08h33.13.503,HF_wild_card,2022.2.4,Win32,59.93407252,5d1904fd8b97090001215bdf,64d2fd46c836a06233681665,64dc7b996affa6e52df02fc4,,,,,,,decisionTrl,resources/DR.BMP,resources/DP.BMP,Door3,-0.346354167,-0.02734375,1,0,0,1.2937,optionLeft,70,6650,3,37,0,37,0,1,,,,,,,,,,,,,,,,,,,,,,,,,,,,,,,,,,,,,,,
,,,,,,,,2023-08-16_08h33.13.503,HF_wild_card,2022.2.4,Win32,59.93407252,5d1904fd8b97090001215bdf,64d2fd46c836a06233681665,64dc7b996affa6e52df02fc4,,,,,,,sngl,resources/DR.BMP,resources/Empty.png,Door3,-0.329427083,0.002604167,1,0,0,0.5695,optionLeft,70,6720,3,38,0,38,0,1,,,,,,,,,,,,,,,,,,,,,,,,,,,,,,,,,,,,,,,
,,,,,,,,2023-08-16_08h33.13.503,HF_wild_card,2022.2.4,Win32,59.93407252,5d1904fd8b97090001215bdf,64d2fd46c836a06233681665,64dc7b996affa6e52df02fc4,,,,,,,decisionTrl,resources/DY.BMP,resources/DBN.BMP,Door1,-0.263020833,-0.009114583,1,0,0,0.9398,optionLeft,30,6750,3,39,0,39,0,1,,,,,,,,,,,,,,,,,,,,,,,,,,,,,,,,,,,,,,,
,,,,,,,,2023-08-16_08h33.13.503,HF_wild_card,2022.2.4,Win32,59.93407252,5d1904fd8b97090001215bdf,64d2fd46c836a06233681665,64dc7b996affa6e52df02fc4,,,,,,,sngl,resources/DP.BMP,resources/Empty.png,WildCard_NonEx,-0.307291667,0.0078125,1,0,0,0.6212,optionLeft,45,6795,3,40,0,40,0,1,,,,,,,,,,,,,,,,,,,,,,,,,,,,,,,,,,,,,,,
,,,,,,,,2023-08-16_08h33.13.503,HF_wild_card,2022.2.4,Win32,59.93407252,5d1904fd8b97090001215bdf,64d2fd46c836a06233681665,64dc7b996affa6e52df02fc4,,,,,,,sngl,resources/DB.BMP,resources/Empty.png,Door4,-0.239583333,-0.001302083,1,0,0,0.607,optionLeft,80,6875,3,41,0,41,0,1,,,,,,,,,,,,,,,,,,,,,,,,,,,,,,,,,,,,,,,
,,,,,,,,2023-08-16_08h33.13.503,HF_wild_card,2022.2.4,Win32,59.93407252,5d1904fd8b97090001215bdf,64d2fd46c836a06233681665,64dc7b996affa6e52df02fc4,,,,,,,sngl,resources/DY.BMP,resources/Empty.png,Door1,-0.319010417,-0.001302083,1,0,0,0.5716,optionLeft,30,6905,3,42,0,42,0,1,,,,,,,,,,,,,,,,,,,,,,,,,,,,,,,,,,,,,,,
,,,,,,,,2023-08-16_08h33.13.503,HF_wild_card,2022.2.4,Win32,59.93407252,5d1904fd8b97090001215bdf,64d2fd46c836a06233681665,64dc7b996affa6e52df02fc4,,,,,,,decisionTrl,resources/DB.BMP,resources/DR.BMP,Door4,-0.248697917,-0.020833333,1,0,0,1.0945,optionLeft,60,6965,3,43,0,43,0,1,,,,,,,,,,,,,,,,,,,,,,,,,,,,,,,,,,,,,,,
,,,,,,,,2023-08-16_08h33.13.503,HF_wild_card,2022.2.4,Win32,59.93407252,5d1904fd8b97090001215bdf,64d2fd46c836a06233681665,64dc7b996affa6e52df02fc4,,,,,,,,,,,,,,,,,,,,,,,,,,2,0,2,0,1,,,,,,,,,,,,,,,,,,,,,,,,,,,,,,,,,,
,,,,,,,,2023-08-16_08h33.13.503,HF_wild_card,2022.2.4,Win32,59.93407252,5d1904fd8b97090001215bdf,64d2fd46c836a06233681665,64dc7b996affa6e52df02fc4,,,,,,,decisionTrl,resources/DG.BMP,resources/DB.BMP,WildCard_Ex,-0.28515625,-0.095052083,1,0,0,3.5358,optionLeft,5,6970,4,0,0,0,0,1,,,,,,,,,,,,,,,,,,,,,,,,,,,,,,,,,,,,,,,
,,,,,,,,2023-08-16_08h33.13.503,HF_wild_card,2022.2.4,Win32,59.93407252,5d1904fd8b97090001215bdf,64d2fd46c836a06233681665,64dc7b996affa6e52df02fc4,,,,,,,decisionTrl,resources/DBN.BMP,resources/DY.BMP,Door1,0.430989583,0.009114583,1,0,0,0.558,optionRight,30,7000,4,1,0,1,0,1,,,,,,,,,,,,,,,,,,,,,,,,,,,,,,,,,,,,,,,
,,,,,,,,2023-08-16_08h33.13.503,HF_wild_card,2022.2.4,Win32,59.93407252,5d1904fd8b97090001215bdf,64d2fd46c836a06233681665,64dc7b996affa6e52df02fc4,,,,,,,ctch,resources/DR.BMP,resources/DBN.BMP,Door3,-0.233072917,-0.010416667,1,0,0,0.7203,optionLeft,70,7070,4,2,0,2,0,1,,,,,,,,,,,,,,,,,,,,,,,,,,,,,,,,,,,,,,,
,,,,,,,,2023-08-16_08h33.13.503,HF_wild_card,2022.2.4,Win32,59.93407252,5d1904fd8b97090001215bdf,64d2fd46c836a06233681665,64dc7b996affa6e52df02fc4,,,,,,,sngl,resources/Empty.png,resources/DG.BMP,WildCard_Ex,0.421875,0.0078125,1,0,0,0.7796,optionRight,95,7165,4,3,0,3,0,1,,,,,,,,,,,,,,,,,,,,,,,,,,,,,,,,,,,,,,,
,,,,,,,,2023-08-16_08h33.13.503,HF_wild_card,2022.2.4,Win32,59.93407252,5d1904fd8b97090001215bdf,64d2fd46c836a06233681665,64dc7b996affa6e52df02fc4,,,,,,,decisionTrl,resources/DY.BMP,resources/DBN.BMP,Door1,-0.236979167,-0.013020833,1,0,0,0.6584,optionLeft,30,7195,4,4,0,4,0,1,,,,,,,,,,,,,,,,,,,,,,,,,,,,,,,,,,,,,,,
,,,,,,,,2023-08-16_08h33.13.503,HF_wild_card,2022.2.4,Win32,59.93407252,5d1904fd8b97090001215bdf,64d2fd46c836a06233681665,64dc7b996affa6e52df02fc4,,,,,,,decisionTrl,resources/DR.BMP,resources/DG.BMP,WildCard_Ex,0.463541667,0.0078125,1,0,0,0.6609,optionRight,5,7200,4,5,0,5,0,1,,,,,,,,,,,,,,,,,,,,,,,,,,,,,,,,,,,,,,,
,,,,,,,,2023-08-16_08h33.13.503,HF_wild_card,2022.2.4,Win32,59.93407252,5d1904fd8b97090001215bdf,64d2fd46c836a06233681665,64dc7b996affa6e52df02fc4,,,,,,,decisionTrl,resources/DB.BMP,resources/DR.BMP,Door4,-0.3671875,-0.03125,1,0,0,1.1205,optionLeft,60,7260,4,6,0,6,0,1,,,,,,,,,,,,,,,,,,,,,,,,,,,,,,,,,,,,,,,
,,,,,,,,2023-08-16_08h33.13.503,HF_wild_card,2022.2.4,Win32,59.93407252,5d1904fd8b97090001215bdf,64d2fd46c836a06233681665,64dc7b996affa6e52df02fc4,,,,,,,sngl,resources/Empty.png,resources/DB.BMP,Door4,0.377604167,-0.009114583,1,0,0,0.7452,optionRight,80,7340,4,7,0,7,0,1,,,,,,,,,,,,,,,,,,,,,,,,,,,,,,,,,,,,,,,
,,,,,,,,2023-08-16_08h33.13.503,HF_wild_card,2022.2.4,Win32,59.93407252,5d1904fd8b97090001215bdf,64d2fd46c836a06233681665,64dc7b996affa6e52df02fc4,,,,,,,decisionTrl,resources/DY.BMP,resources/DBN.BMP,Door1,-0.34765625,-0.005208333,1,0,0,0.697,optionLeft,30,7370,4,8,0,8,0,1,,,,,,,,,,,,,,,,,,,,,,,,,,,,,,,,,,,,,,,
,,,,,,,,2023-08-16_08h33.13.503,HF_wild_card,2022.2.4,Win32,59.93407252,5d1904fd8b97090001215bdf,64d2fd46c836a06233681665,64dc7b996affa6e52df02fc4,,,,,,,decisionTrl,resources/DY.BMP,resources/DBN.BMP,Door1,-0.356770833,-0.0078125,1,0,0,0.6113,optionLeft,30,7400,4,9,0,9,0,1,,,,,,,,,,,,,,,,,,,,,,,,,,,,,,,,,,,,,,,
,,,,,,,,2023-08-16_08h33.13.503,HF_wild_card,2022.2.4,Win32,59.93407252,5d1904fd8b97090001215bdf,64d2fd46c836a06233681665,64dc7b996affa6e52df02fc4,,,,,,,decisionTrl,resources/DBN.BMP,resources/DY.BMP,Door1,0.032552083,-0.015625,1,0,0,0.6391,optionRight,30,7430,4,10,0,10,0,1,,,,,,,,,,,,,,,,,,,,,,,,,,,,,,,,,,,,,,,
,,,,,,,,2023-08-16_08h33.13.503,HF_wild_card,2022.2.4,Win32,59.93407252,5d1904fd8b97090001215bdf,64d2fd46c836a06233681665,64dc7b996affa6e52df02fc4,,,,,,,sngl,resources/Empty.png,resources/DBN.BMP,Door2,0.264322917,-0.00390625,1,0,0,0.7214,optionRight,40,7470,4,11,0,11,0,1,,,,,,,,,,,,,,,,,,,,,,,,,,,,,,,,,,,,,,,
,,,,,,,,2023-08-16_08h33.13.503,HF_wild_card,2022.2.4,Win32,59.93407252,5d1904fd8b97090001215bdf,64d2fd46c836a06233681665,64dc7b996affa6e52df02fc4,,,,,,,sngl,resources/Empty.png,resources/DG.BMP,WildCard_Ex,0.23046875,0.016927083,1,0,0,0.7259,optionRight,5,7475,4,12,0,12,0,1,,,,,,,,,,,,,,,,,,,,,,,,,,,,,,,,,,,,,,,
,,,,,,,,2023-08-16_08h33.13.503,HF_wild_card,2022.2.4,Win32,59.93407252,5d1904fd8b97090001215bdf,64d2fd46c836a06233681665,64dc7b996affa6e52df02fc4,,,,,,,decisionTrl,resources/DR.BMP,resources/DB.BMP,Door3,-0.3515625,-0.018229167,1,0,0,1.2955,optionLeft,70,7545,4,13,0,13,0,1,,,,,,,,,,,,,,,,,,,,,,,,,,,,,,,,,,,,,,,
,,,,,,,,2023-08-16_08h33.13.503,HF_wild_card,2022.2.4,Win32,59.93407252,5d1904fd8b97090001215bdf,64d2fd46c836a06233681665,64dc7b996affa6e52df02fc4,,,,,,,decisionTrl,resources/DY.BMP,resources/DBN.BMP,Door2,0.28125,-0.001302083,1,0,0,1.1375,optionRight,20,7565,4,14,0,14,0,1,,,,,,,,,,,,,,,,,,,,,,,,,,,,,,,,,,,,,,,
,,,,,,,,2023-08-16_08h33.13.503,HF_wild_card,2022.2.4,Win32,59.93407252,5d1904fd8b97090001215bdf,64d2fd46c836a06233681665,64dc7b996affa6e52df02fc4,,,,,,,sngl,resources/Empty.png,resources/DR.BMP,Door3,0.040364583,-0.0078125,1,0,0,0.6109,optionRight,70,7635,4,15,0,15,0,1,,,,,,,,,,,,,,,,,,,,,,,,,,,,,,,,,,,,,,,
,,,,,,,,2023-08-16_08h33.13.503,HF_wild_card,2022.2.4,Win32,59.93407252,5d1904fd8b97090001215bdf,64d2fd46c836a06233681665,64dc7b996affa6e52df02fc4,,,,,,,sngl,resources/DG.BMP,resources/Empty.png,WildCard_Ex,-0.391927083,-0.010416667,1,0,0,0.5966,optionLeft,5,7640,4,16,0,16,0,1,,,,,,,,,,,,,,,,,,,,,,,,,,,,,,,,,,,,,,,
,,,,,,,,2023-08-16_08h33.13.503,HF_wild_card,2022.2.4,Win32,59.93407252,5d1904fd8b97090001215bdf,64d2fd46c836a06233681665,64dc7b996affa6e52df02fc4,,,,,,,decisionTrl,resources/DR.BMP,resources/DB.BMP,Door4,0.403645833,0.018229167,1,0,0,1.5449,optionRight,60,7700,4,17,0,17,0,1,,,,,,,,,,,,,,,,,,,,,,,,,,,,,,,,,,,,,,,
,,,,,,,,2023-08-16_08h33.13.503,HF_wild_card,2022.2.4,Win32,59.93407252,5d1904fd8b97090001215bdf,64d2fd46c836a06233681665,64dc7b996affa6e52df02fc4,,,,,,,decisionTrl,resources/DR.BMP,resources/DB.BMP,Door3,-0.315104167,-0.014322917,1,0,0,0.6906,optionLeft,70,7770,4,18,0,18,0,1,,,,,,,,,,,,,,,,,,,,,,,,,,,,,,,,,,,,,,,
,,,,,,,,2023-08-16_08h33.13.503,HF_wild_card,2022.2.4,Win32,59.93407252,5d1904fd8b97090001215bdf,64d2fd46c836a06233681665,64dc7b996affa6e52df02fc4,,,,,,,decisionTrl,resources/DBN.BMP,resources/DY.BMP,Door2,-0.270833333,-0.018229167,1,0,0,1.4552,optionLeft,40,7810,4,19,0,19,0,1,,,,,,,,,,,,,,,,,,,,,,,,,,,,,,,,,,,,,,,
,,,,,,,,2023-08-16_08h33.13.503,HF_wild_card,2022.2.4,Win32,59.93407252,5d1904fd8b97090001215bdf,64d2fd46c836a06233681665,64dc7b996affa6e52df02fc4,,,,,,,decisionTrl,resources/DBN.BMP,resources/DG.BMP,Door2,-0.326822917,-0.03125,1,0,0,1.0881,optionLeft,40,7850,4,20,0,20,0,1,,,,,,,,,,,,,,,,,,,,,,,,,,,,,,,,,,,,,,,
,,,,,,,,2023-08-16_08h33.13.503,HF_wild_card,2022.2.4,Win32,59.93407252,5d1904fd8b97090001215bdf,64d2fd46c836a06233681665,64dc7b996affa6e52df02fc4,,,,,,,decisionTrl,resources/DR.BMP,resources/DB.BMP,Door3,-0.247395833,-0.052083333,1,0,0,1.8936,optionLeft,70,7920,4,21,0,21,0,1,,,,,,,,,,,,,,,,,,,,,,,,,,,,,,,,,,,,,,,
,,,,,,,,2023-08-16_08h33.13.503,HF_wild_card,2022.2.4,Win32,59.93407252,5d1904fd8b97090001215bdf,64d2fd46c836a06233681665,64dc7b996affa6e52df02fc4,,,,,,,ctch,resources/DB.BMP,resources/DY.BMP,Door4,-0.35546875,-0.013020833,1,0,0,1.272,optionLeft,60,7980,4,22,0,22,0,1,,,,,,,,,,,,,,,,,,,,,,,,,,,,,,,,,,,,,,,
,,,,,,,,2023-08-16_08h33.13.503,HF_wild_card,2022.2.4,Win32,59.93407252,5d1904fd8b97090001215bdf,64d2fd46c836a06233681665,64dc7b996affa6e52df02fc4,,,,,,,decisionTrl,resources/DG.BMP,resources/DR.BMP,Door3,0.346354167,-0.006510417,1,0,0,1.1641,optionRight,70,8050,4,23,0,23,0,1,,,,,,,,,,,,,,,,,,,,,,,,,,,,,,,,,,,,,,,
,,,,,,,,2023-08-16_08h33.13.503,HF_wild_card,2022.2.4,Win32,59.93407252,5d1904fd8b97090001215bdf,64d2fd46c836a06233681665,64dc7b996affa6e52df02fc4,,,,,,,decisionTrl,resources/DG.BMP,resources/DBN.BMP,Door2,0.3515625,0.022135417,1,0,0,0.9065,optionRight,40,8090,4,24,0,24,0,1,,,,,,,,,,,,,,,,,,,,,,,,,,,,,,,,,,,,,,,
,,,,,,,,2023-08-16_08h33.13.503,HF_wild_card,2022.2.4,Win32,59.93407252,5d1904fd8b97090001215bdf,64d2fd46c836a06233681665,64dc7b996affa6e52df02fc4,,,,,,,ctch,resources/DY.BMP,resources/DB.BMP,Door1,-0.24609375,-0.016927083,1,0,0,0.9384,optionLeft,30,8120,4,25,0,25,0,1,,,,,,,,,,,,,,,,,,,,,,,,,,,,,,,,,,,,,,,
,,,,,,,,2023-08-16_08h33.13.503,HF_wild_card,2022.2.4,Win32,59.93407252,5d1904fd8b97090001215bdf,64d2fd46c836a06233681665,64dc7b996affa6e52df02fc4,,,,,,,sngl,resources/DR.BMP,resources/Empty.png,Door3,-0.390625,-0.018229167,1,0,0,0.7057,optionLeft,70,8190,4,26,0,26,0,1,,,,,,,,,,,,,,,,,,,,,,,,,,,,,,,,,,,,,,,
,,,,,,,,2023-08-16_08h33.13.503,HF_wild_card,2022.2.4,Win32,59.93407252,5d1904fd8b97090001215bdf,64d2fd46c836a06233681665,64dc7b996affa6e52df02fc4,,,,,,,decisionTrl,resources/DY.BMP,resources/DG.BMP,Door1,-0.395833333,-0.03515625,1,0,0,0.9414,optionLeft,30,8220,4,27,0,27,0,1,,,,,,,,,,,,,,,,,,,,,,,,,,,,,,,,,,,,,,,
,,,,,,,,2023-08-16_08h33.13.503,HF_wild_card,2022.2.4,Win32,59.93407252,5d1904fd8b97090001215bdf,64d2fd46c836a06233681665,64dc7b996affa6e52df02fc4,,,,,,,decisionTrl,resources/DB.BMP,resources/DR.BMP,Door3,0.38671875,0.002604167,1,0,0,1.0786,optionRight,70,8290,4,28,0,28,0,1,,,,,,,,,,,,,,,,,,,,,,,,,,,,,,,,,,,,,,,
,,,,,,,,2023-08-16_08h33.13.503,HF_wild_card,2022.2.4,Win32,59.93407252,5d1904fd8b97090001215bdf,64d2fd46c836a06233681665,64dc7b996affa6e52df02fc4,,,,,,,sngl,resources/DBN.BMP,resources/Empty.png,Door2,-0.294270833,-0.001302083,1,0,0,0.5888,optionLeft,20,8310,4,29,0,29,0,1,,,,,,,,,,,,,,,,,,,,,,,,,,,,,,,,,,,,,,,
,,,,,,,,2023-08-16_08h33.13.503,HF_wild_card,2022.2.4,Win32,59.93407252,5d1904fd8b97090001215bdf,64d2fd46c836a06233681665,64dc7b996affa6e52df02fc4,,,,,,,decisionTrl,resources/DG.BMP,resources/DY.BMP,WildCard_Ex,-0.373697917,-0.013020833,1,0,0,1.5864,optionLeft,5,8315,4,30,0,30,0,1,,,,,,,,,,,,,,,,,,,,,,,,,,,,,,,,,,,,,,,
,,,,,,,,2023-08-16_08h33.13.503,HF_wild_card,2022.2.4,Win32,59.93407252,5d1904fd8b97090001215bdf,64d2fd46c836a06233681665,64dc7b996affa6e52df02fc4,,,,,,,sngl,resources/Empty.png,resources/DY.BMP,Door1,0.283854167,0.001302083,1,0,0,0.5758,optionRight,30,8345,4,31,0,31,0,1,,,,,,,,,,,,,,,,,,,,,,,,,,,,,,,,,,,,,,,
,,,,,,,,2023-08-16_08h33.13.503,HF_wild_card,2022.2.4,Win32,59.93407252,5d1904fd8b97090001215bdf,64d2fd46c836a06233681665,64dc7b996affa6e52df02fc4,,,,,,,ctch,resources/DB.BMP,resources/DY.BMP,Door1,0.423177083,0.001302083,1,0,0,0.6574,optionRight,30,8375,4,32,0,32,0,1,,,,,,,,,,,,,,,,,,,,,,,,,,,,,,,,,,,,,,,
,,,,,,,,2023-08-16_08h33.13.503,HF_wild_card,2022.2.4,Win32,59.93407252,5d1904fd8b97090001215bdf,64d2fd46c836a06233681665,64dc7b996affa6e52df02fc4,,,,,,,decisionTrl,resources/DB.BMP,resources/DG.BMP,Door4,-0.260416667,0.005208333,1,0,0,0.7878,optionLeft,60,8435,4,33,0,33,0,1,,,,,,,,,,,,,,,,,,,,,,,,,,,,,,,,,,,,,,,
,,,,,,,,2023-08-16_08h33.13.503,HF_wild_card,2022.2.4,Win32,59.93407252,5d1904fd8b97090001215bdf,64d2fd46c836a06233681665,64dc7b996affa6e52df02fc4,,,,,,,decisionTrl,resources/DB.BMP,resources/DR.BMP,Door4,-0.264322917,-0.0078125,1,0,0,1.1882,optionLeft,80,8515,4,34,0,34,0,1,,,,,,,,,,,,,,,,,,,,,,,,,,,,,,,,,,,,,,,
,,,,,,,,2023-08-16_08h33.13.503,HF_wild_card,2022.2.4,Win32,59.93407252,5d1904fd8b97090001215bdf,64d2fd46c836a06233681665,64dc7b996affa6e52df02fc4,,,,,,,ctch,resources/DBN.BMP,resources/DR.BMP,Door2,-0.346354167,-0.015625,1,0,0,1.0759,optionLeft,40,8555,4,35,0,35,0,1,,,,,,,,,,,,,,,,,,,,,,,,,,,,,,,,,,,,,,,
,,,,,,,,2023-08-16_08h33.13.503,HF_wild_card,2022.2.4,Win32,59.93407252,5d1904fd8b97090001215bdf,64d2fd46c836a06233681665,64dc7b996affa6e52df02fc4,,,,,,,sngl,resources/DB.BMP,resources/Empty.png,Door4,-0.454427083,-0.01171875,1,0,0,0.6454,optionLeft,60,8615,4,36,0,36,0,1,,,,,,,,,,,,,,,,,,,,,,,,,,,,,,,,,,,,,,,
,,,,,,,,2023-08-16_08h33.13.503,HF_wild_card,2022.2.4,Win32,59.93407252,5d1904fd8b97090001215bdf,64d2fd46c836a06233681665,64dc7b996affa6e52df02fc4,,,,,,,sngl,resources/DG.BMP,resources/Empty.png,WildCard_Ex,-0.33984375,0.0078125,1,0,0,0.6378,optionLeft,95,8710,4,37,0,37,0,1,,,,,,,,,,,,,,,,,,,,,,,,,,,,,,,,,,,,,,,
,,,,,,,,2023-08-16_08h33.13.503,HF_wild_card,2022.2.4,Win32,59.93407252,5d1904fd8b97090001215bdf,64d2fd46c836a06233681665,64dc7b996affa6e52df02fc4,,,,,,,ctch,resources/DY.BMP,resources/DB.BMP,Door4,0.4296875,-0.014322917,1,0,0,1.673,optionRight,80,8790,4,38,0,38,0,1,,,,,,,,,,,,,,,,,,,,,,,,,,,,,,,,,,,,,,,
,,,,,,,,2023-08-16_08h33.13.503,HF_wild_card,2022.2.4,Win32,59.93407252,5d1904fd8b97090001215bdf,64d2fd46c836a06233681665,64dc7b996affa6e52df02fc4,,,,,,,ctch,resources/DR.BMP,resources/DBN.BMP,Door2,0.453125,0.0234375,1,0,0,1.2134,optionRight,40,8830,4,39,0,39,0,1,,,,,,,,,,,,,,,,,,,,,,,,,,,,,,,,,,,,,,,
,,,,,,,,2023-08-16_08h33.13.503,HF_wild_card,2022.2.4,Win32,59.93407252,5d1904fd8b97090001215bdf,64d2fd46c836a06233681665,64dc7b996affa6e52df02fc4,,,,,,,ctch,resources/DBN.BMP,resources/DR.BMP,Door2,-0.299479167,-0.002604167,1,0,0,1.2802,optionLeft,20,8850,4,40,0,40,0,1,,,,,,,,,,,,,,,,,,,,,,,,,,,,,,,,,,,,,,,
,,,,,,,,2023-08-16_08h33.13.503,HF_wild_card,2022.2.4,Win32,59.93407252,5d1904fd8b97090001215bdf,64d2fd46c836a06233681665,64dc7b996affa6e52df02fc4,,,,,,,decisionTrl,resources/DB.BMP,resources/DR.BMP,Door3,0.444010417,0.014322917,1,0,0,1.1642,optionRight,70,8920,4,41,0,41,0,1,,,,,,,,,,,,,,,,,,,,,,,,,,,,,,,,,,,,,,,
,,,,,,,,2023-08-16_08h33.13.503,HF_wild_card,2022.2.4,Win32,59.93407252,5d1904fd8b97090001215bdf,64d2fd46c836a06233681665,64dc7b996affa6e52df02fc4,,,,,,,sngl,resources/DY.BMP,resources/Empty.png,Door1,-0.287760417,0.0078125,1,0,0,0.7086,optionLeft,30,8950,4,42,0,42,0,1,,,,,,,,,,,,,,,,,,,,,,,,,,,,,,,,,,,,,,,
,,,,,,,,2023-08-16_08h33.13.503,HF_wild_card,2022.2.4,Win32,59.93407252,5d1904fd8b97090001215bdf,64d2fd46c836a06233681665,64dc7b996affa6e52df02fc4,,,,,,,decisionTrl,resources/DBN.BMP,resources/DY.BMP,Door2,-0.255208333,0.002604167,1,0,0,1.3329,optionLeft,20,8970,4,43,0,43,0,1,,,,,,,,,,,,,,,,,,,,,,,,,,,,,,,,,,,,,,,
,,,,,,,,2023-08-16_08h33.13.503,HF_wild_card,2022.2.4,Win32,59.93407252,5d1904fd8b97090001215bdf,64d2fd46c836a06233681665,64dc7b996affa6e52df02fc4,,,,,,,,,,,,,,,,,,,,,,,,,,3,0,3,0,1,,,,,,,,,,,,,,,,,,,,,,,,,,,,,,,,,,
,,,,,,,,2023-08-16_08h33.13.503,HF_wild_card,2022.2.4,Win32,59.93407252,5d1904fd8b97090001215bdf,64d2fd46c836a06233681665,64dc7b996affa6e52df02fc4,,,,,,,decisionTrl,resources/DB.BMP,resources/DR.BMP,Door3,0.287760417,-0.014322917,1,0,0,1.1432,optionRight,70,9040,5,0,0,0,0,1,,,,,,,,,,,,,,,,,,,,,,,,,,,,,,,,,,,,,,,
,,,,,,,,2023-08-16_08h33.13.503,HF_wild_card,2022.2.4,Win32,59.93407252,5d1904fd8b97090001215bdf,64d2fd46c836a06233681665,64dc7b996affa6e52df02fc4,,,,,,,decisionTrl,resources/DB.BMP,resources/DG.BMP,Door4,-0.2890625,-0.002604167,1,0,0,1.8144,optionLeft,80,9120,5,1,0,1,0,1,,,,,,,,,,,,,,,,,,,,,,,,,,,,,,,,,,,,,,,
,,,,,,,,2023-08-16_08h33.13.503,HF_wild_card,2022.2.4,Win32,59.93407252,5d1904fd8b97090001215bdf,64d2fd46c836a06233681665,64dc7b996affa6e52df02fc4,,,,,,,decisionTrl,resources/DY.BMP,resources/DG.BMP,WildCard_Ex,0.34765625,0.018229167,1,0,0,0.923,optionRight,5,9125,5,2,0,2,0,1,,,,,,,,,,,,,,,,,,,,,,,,,,,,,,,,,,,,,,,
,,,,,,,,2023-08-16_08h33.13.503,HF_wild_card,2022.2.4,Win32,59.93407252,5d1904fd8b97090001215bdf,64d2fd46c836a06233681665,64dc7b996affa6e52df02fc4,,,,,,,decisionTrl,resources/DB.BMP,resources/DR.BMP,Door4,-0.381510417,-0.002604167,1,0,0,0.8706,optionLeft,60,9185,5,3,0,3,0,1,,,,,,,,,,,,,,,,,,,,,,,,,,,,,,,,,,,,,,,
,,,,,,,,2023-08-16_08h33.13.503,HF_wild_card,2022.2.4,Win32,59.93407252,5d1904fd8b97090001215bdf,64d2fd46c836a06233681665,64dc7b996affa6e52df02fc4,,,,,,,decisionTrl,resources/DY.BMP,resources/DBN.BMP,Door1,-0.315104167,-0.001302083,1,0,0,1.4351,optionLeft,30,9215,5,4,0,4,0,1,,,,,,,,,,,,,,,,,,,,,,,,,,,,,,,,,,,,,,,
,,,,,,,,2023-08-16_08h33.13.503,HF_wild_card,2022.2.4,Win32,59.93407252,5d1904fd8b97090001215bdf,64d2fd46c836a06233681665,64dc7b996affa6e52df02fc4,,,,,,,sngl,resources/DG.BMP,resources/Empty.png,WildCard_Ex,-0.165364583,-0.002604167,1,0,0,0.708,optionLeft,95,9310,5,5,0,5,0,1,,,,,,,,,,,,,,,,,,,,,,,,,,,,,,,,,,,,,,,
,,,,,,,,2023-08-16_08h33.13.503,HF_wild_card,2022.2.4,Win32,59.93407252,5d1904fd8b97090001215bdf,64d2fd46c836a06233681665,64dc7b996affa6e52df02fc4,,,,,,,decisionTrl,resources/DG.BMP,resources/DBN.BMP,WildCard_Ex,-0.368489583,-0.002604167,1,0,0,0.593,optionLeft,95,9405,5,6,0,6,0,1,,,,,,,,,,,,,,,,,,,,,,,,,,,,,,,,,,,,,,,
,,,,,,,,2023-08-16_08h33.13.503,HF_wild_card,2022.2.4,Win32,59.93407252,5d1904fd8b97090001215bdf,64d2fd46c836a06233681665,64dc7b996affa6e52df02fc4,,,,,,,ctch,resources/DY.BMP,resources/DB.BMP,Door4,0.401041667,-0.006510417,1,0,0,0.9237,optionRight,80,9485,5,7,0,7,0,1,,,,,,,,,,,,,,,,,,,,,,,,,,,,,,,,,,,,,,,
,,,,,,,,2023-08-16_08h33.13.503,HF_wild_card,2022.2.4,Win32,59.93407252,5d1904fd8b97090001215bdf,64d2fd46c836a06233681665,64dc7b996affa6e52df02fc4,,,,,,,sngl,resources/Empty.png,resources/DR.BMP,Door3,0.403645833,-0.00390625,1,0,0,0.7071,optionRight,70,9555,5,8,0,8,0,1,,,,,,,,,,,,,,,,,,,,,,,,,,,,,,,,,,,,,,,
,,,,,,,,2023-08-16_08h33.13.503,HF_wild_card,2022.2.4,Win32,59.93407252,5d1904fd8b97090001215bdf,64d2fd46c836a06233681665,64dc7b996affa6e52df02fc4,,,,,,,decisionTrl,resources/DR.BMP,resources/DG.BMP,Door3,-0.368489583,-0.013020833,1,0,0,1.4222,optionLeft,70,9625,5,9,0,9,0,1,,,,,,,,,,,,,,,,,,,,,,,,,,,,,,,,,,,,,,,
,,,,,,,,2023-08-16_08h33.13.503,HF_wild_card,2022.2.4,Win32,59.93407252,5d1904fd8b97090001215bdf,64d2fd46c836a06233681665,64dc7b996affa6e52df02fc4,,,,,,,decisionTrl,resources/DB.BMP,resources/DR.BMP,Door4,-0.3125,-0.028645833,1,0,0,1.0777,optionLeft,60,9685,5,10,0,10,0,1,,,,,,,,,,,,,,,,,,,,,,,,,,,,,,,,,,,,,,,
,,,,,,,,2023-08-16_08h33.13.503,HF_wild_card,2022.2.4,Win32,59.93407252,5d1904fd8b97090001215bdf,64d2fd46c836a06233681665,64dc7b996affa6e52df02fc4,,,,,,,ctch,resources/DBN.BMP,resources/DR.BMP,Door3,0.358072917,-0.002604167,1,0,0,0.9452,optionRight,70,9755,5,11,0,11,0,1,,,,,,,,,,,,,,,,,,,,,,,,,,,,,,,,,,,,,,,
,,,,,,,,2023-08-16_08h33.13.503,HF_wild_card,2022.2.4,Win32,59.93407252,5d1904fd8b97090001215bdf,64d2fd46c836a06233681665,64dc7b996affa6e52df02fc4,,,,,,,decisionTrl,resources/DR.BMP,resources/DB.BMP,Door3,-0.26953125,0,1,0,0,1.4617,optionLeft,70,9825,5,12,0,12,0,1,,,,,,,,,,,,,,,,,,,,,,,,,,,,,,,,,,,,,,,
,,,,,,,,2023-08-16_08h33.13.503,HF_wild_card,2022.2.4,Win32,59.93407252,5d1904fd8b97090001215bdf,64d2fd46c836a06233681665,64dc7b996affa6e52df02fc4,,,,,,,decisionTrl,resources/DY.BMP,resources/DBN.BMP,Door1,-0.298177083,-0.006510417,1,0,0,1.2601,optionLeft,30,9855,5,13,0,13,0,1,,,,,,,,,,,,,,,,,,,,,,,,,,,,,,,,,,,,,,,
,,,,,,,,2023-08-16_08h33.13.503,HF_wild_card,2022.2.4,Win32,59.93407252,5d1904fd8b97090001215bdf,64d2fd46c836a06233681665,64dc7b996affa6e52df02fc4,,,,,,,ctch,resources/DB.BMP,resources/DY.BMP,Door4,-0.393229167,-0.022135417,1,0,0,0.8925,optionLeft,80,9935,5,14,0,14,0,1,,,,,,,,,,,,,,,,,,,,,,,,,,,,,,,,,,,,,,,
,,,,,,,,2023-08-16_08h33.13.503,HF_wild_card,2022.2.4,Win32,59.93407252,5d1904fd8b97090001215bdf,64d2fd46c836a06233681665,64dc7b996affa6e52df02fc4,,,,,,,sngl,resources/Empty.png,resources/DB.BMP,Door4,0.30859375,-0.016927083,1,0,0,0.607,optionRight,60,9995,5,15,0,15,0,1,,,,,,,,,,,,,,,,,,,,,,,,,,,,,,,,,,,,,,,
,,,,,,,,2023-08-16_08h33.13.503,HF_wild_card,2022.2.4,Win32,59.93407252,5d1904fd8b97090001215bdf,64d2fd46c836a06233681665,64dc7b996affa6e52df02fc4,,,,,,,decisionTrl,resources/DBN.BMP,resources/DY.BMP,Door1,0.395833333,-0.001302083,1,0,0,1.157,optionRight,30,10025,5,16,0,16,0,1,,,,,,,,,,,,,,,,,,,,,,,,,,,,,,,,,,,,,,,
,,,,,,,,2023-08-16_08h33.13.503,HF_wild_card,2022.2.4,Win32,59.93407252,5d1904fd8b97090001215bdf,64d2fd46c836a06233681665,64dc7b996affa6e52df02fc4,,,,,,,sngl,resources/Empty.png,resources/DG.BMP,WildCard_Ex,0.322916667,0.009114583,1,0,0,0.9352,optionRight,95,10120,5,17,0,17,0,1,,,,,,,,,,,,,,,,,,,,,,,,,,,,,,,,,,,,,,,
,,,,,,,,2023-08-16_08h33.13.503,HF_wild_card,2022.2.4,Win32,59.93407252,5d1904fd8b97090001215bdf,64d2fd46c836a06233681665,64dc7b996affa6e52df02fc4,,,,,,,decisionTrl,resources/DY.BMP,resources/DBN.BMP,Door1,-0.3515625,-0.022135417,1,0,0,0.7467,optionLeft,30,10150,5,18,0,18,0,1,,,,,,,,,,,,,,,,,,,,,,,,,,,,,,,,,,,,,,,
,,,,,,,,2023-08-16_08h33.13.503,HF_wild_card,2022.2.4,Win32,59.93407252,5d1904fd8b97090001215bdf,64d2fd46c836a06233681665,64dc7b996affa6e52df02fc4,,,,,,,decisionTrl,resources/DBN.BMP,resources/DY.BMP,Door2,-0.290364583,-0.01953125,1,0,0,0.9053,optionLeft,20,10170,5,19,0,19,0,1,,,,,,,,,,,,,,,,,,,,,,,,,,,,,,,,,,,,,,,
,,,,,,,,2023-08-16_08h33.13.503,HF_wild_card,2022.2.4,Win32,59.93407252,5d1904fd8b97090001215bdf,64d2fd46c836a06233681665,64dc7b996affa6e52df02fc4,,,,,,,decisionTrl,resources/DBN.BMP,resources/DG.BMP,WildCard_Ex,0.278645833,0.001302083,1,0,0,1.3436,optionRight,5,10175,5,20,0,20,0,1,,,,,,,,,,,,,,,,,,,,,,,,,,,,,,,,,,,,,,,
,,,,,,,,2023-08-16_08h33.13.503,HF_wild_card,2022.2.4,Win32,59.93407252,5d1904fd8b97090001215bdf,64d2fd46c836a06233681665,64dc7b996affa6e52df02fc4,,,,,,,decisionTrl,resources/DR.BMP,resources/DB.BMP,Door3,-0.348958333,0,1,0,0,1.169,optionLeft,70,10245,5,21,0,21,0,1,,,,,,,,,,,,,,,,,,,,,,,,,,,,,,,,,,,,,,,
,,,,,,,,2023-08-16_08h33.13.503,HF_wild_card,2022.2.4,Win32,59.93407252,5d1904fd8b97090001215bdf,64d2fd46c836a06233681665,64dc7b996affa6e52df02fc4,,,,,,,sngl,resources/DR.BMP,resources/Empty.png,Door3,-0.247395833,-0.00390625,1,0,0,0.573,optionLeft,70,10315,5,22,0,22,0,1,,,,,,,,,,,,,,,,,,,,,,,,,,,,,,,,,,,,,,,
,,,,,,,,2023-08-16_08h33.13.503,HF_wild_card,2022.2.4,Win32,59.93407252,5d1904fd8b97090001215bdf,64d2fd46c836a06233681665,64dc7b996affa6e52df02fc4,,,,,,,decisionTrl,resources/DR.BMP,resources/DB.BMP,Door4,0.326822917,-0.014322917,1,0,0,0.6875,optionRight,60,10375,5,23,0,23,0,1,,,,,,,,,,,,,,,,,,,,,,,,,,,,,,,,,,,,,,,
,,,,,,,,2023-08-16_08h33.13.503,HF_wild_card,2022.2.4,Win32,59.93407252,5d1904fd8b97090001215bdf,64d2fd46c836a06233681665,64dc7b996affa6e52df02fc4,,,,,,,ctch,resources/DY.BMP,resources/DB.BMP,Door1,-0.338541667,-0.037760417,1,0,0,1.4913,optionLeft,30,10405,5,24,0,24,0,1,,,,,,,,,,,,,,,,,,,,,,,,,,,,,,,,,,,,,,,
,,,,,,,,2023-08-16_08h33.13.503,HF_wild_card,2022.2.4,Win32,59.93407252,5d1904fd8b97090001215bdf,64d2fd46c836a06233681665,64dc7b996affa6e52df02fc4,,,,,,,decisionTrl,resources/DR.BMP,resources/DB.BMP,Door3,-0.264322917,-0.01171875,1,0,0,0.8286,optionLeft,70,10475,5,25,0,25,0,1,,,,,,,,,,,,,,,,,,,,,,,,,,,,,,,,,,,,,,,
,,,,,,,,2023-08-16_08h33.13.503,HF_wild_card,2022.2.4,Win32,59.93407252,5d1904fd8b97090001215bdf,64d2fd46c836a06233681665,64dc7b996affa6e52df02fc4,,,,,,,sngl,resources/Empty.png,resources/DY.BMP,Door1,0.274739583,-0.010416667,1,0,0,0.6209,optionRight,30,10505,5,26,0,26,0,1,,,,,,,,,,,,,,,,,,,,,,,,,,,,,,,,,,,,,,,
,,,,,,,,2023-08-16_08h33.13.503,HF_wild_card,2022.2.4,Win32,59.93407252,5d1904fd8b97090001215bdf,64d2fd46c836a06233681665,64dc7b996affa6e52df02fc4,,,,,,,sngl,resources/DB.BMP,resources/Empty.png,Door4,-0.252604167,-0.005208333,1,0,0,0.5722,optionLeft,80,10585,5,27,0,27,0,1,,,,,,,,,,,,,,,,,,,,,,,,,,,,,,,,,,,,,,,
,,,,,,,,2023-08-16_08h33.13.503,HF_wild_card,2022.2.4,Win32,59.93407252,5d1904fd8b97090001215bdf,64d2fd46c836a06233681665,64dc7b996affa6e52df02fc4,,,,,,,ctch,resources/DR.BMP,resources/DBN.BMP,Door3,-0.251302083,-0.020833333,1,0,0,1.1207,optionLeft,70,10655,5,28,0,28,0,1,,,,,,,,,,,,,,,,,,,,,,,,,,,,,,,,,,,,,,,
,,,,,,,,2023-08-16_08h33.13.503,HF_wild_card,2022.2.4,Win32,59.93407252,5d1904fd8b97090001215bdf,64d2fd46c836a06233681665,64dc7b996affa6e52df02fc4,,,,,,,decisionTrl,resources/DB.BMP,resources/DR.BMP,Door4,-0.260416667,-0.016927083,1,0,0,0.7497,optionLeft,60,10715,5,29,0,29,0,1,,,,,,,,,,,,,,,,,,,,,,,,,,,,,,,,,,,,,,,
,,,,,,,,2023-08-16_08h33.13.503,HF_wild_card,2022.2.4,Win32,59.93407252,5d1904fd8b97090001215bdf,64d2fd46c836a06233681665,64dc7b996affa6e52df02fc4,,,,,,,ctch,resources/DBN.BMP,resources/DR.BMP,Door3,0.307291667,-0.009114583,1,0,0,0.7412,optionRight,70,10785,5,30,0,30,0,1,,,,,,,,,,,,,,,,,,,,,,,,,,,,,,,,,,,,,,,
,,,,,,,,2023-08-16_08h33.13.503,HF_wild_card,2022.2.4,Win32,59.93407252,5d1904fd8b97090001215bdf,64d2fd46c836a06233681665,64dc7b996affa6e52df02fc4,,,,,,,sngl,resources/DY.BMP,resources/Empty.png,Door1,-0.376302083,-0.026041667,1,0,0,0.5773,optionLeft,30,10815,5,31,0,31,0,1,,,,,,,,,,,,,,,,,,,,,,,,,,,,,,,,,,,,,,,
,,,,,,,,2023-08-16_08h33.13.503,HF_wild_card,2022.2.4,Win32,59.93407252,5d1904fd8b97090001215bdf,64d2fd46c836a06233681665,64dc7b996affa6e52df02fc4,,,,,,,decisionTrl,resources/DBN.BMP,resources/DY.BMP,Door1,0.268229167,-0.028645833,1,0,0,1.1133,optionRight,30,10845,5,32,0,32,0,1,,,,,,,,,,,,,,,,,,,,,,,,,,,,,,,,,,,,,,,
,,,,,,,,2023-08-16_08h33.13.503,HF_wild_card,2022.2.4,Win32,59.93407252,5d1904fd8b97090001215bdf,64d2fd46c836a06233681665,64dc7b996affa6e52df02fc4,,,,,,,decisionTrl,resources/DG.BMP,resources/DR.BMP,WildCard_Ex,-0.37109375,-0.0078125,1,0,0,1.4901,optionLeft,95,10940,5,33,0,33,0,1,,,,,,,,,,,,,,,,,,,,,,,,,,,,,,,,,,,,,,,
,,,,,,,,2023-08-16_08h33.13.503,HF_wild_card,2022.2.4,Win32,59.93407252,5d1904fd8b97090001215bdf,64d2fd46c836a06233681665,64dc7b996affa6e52df02fc4,,,,,,,sngl,resources/Empty.png,resources/DBN.BMP,Door2,0.221354167,-0.009114583,1,0,0,0.6742,optionRight,20,10960,5,34,0,34,0,1,,,,,,,,,,,,,,,,,,,,,,,,,,,,,,,,,,,,,,,
,,,,,,,,2023-08-16_08h33.13.503,HF_wild_card,2022.2.4,Win32,59.93407252,5d1904fd8b97090001215bdf,64d2fd46c836a06233681665,64dc7b996affa6e52df02fc4,,,,,,,decisionTrl,resources/DG.BMP,resources/DY.BMP,WildCard_Ex,-0.29296875,-0.018229167,1,0,0,0.8736,optionLeft,5,10965,5,35,0,35,0,1,,,,,,,,,,,,,,,,,,,,,,,,,,,,,,,,,,,,,,,
,,,,,,,,2023-08-16_08h33.13.503,HF_wild_card,2022.2.4,Win32,59.93407252,5d1904fd8b97090001215bdf,64d2fd46c836a06233681665,64dc7b996affa6e52df02fc4,,,,,,,sngl,resources/DG.BMP,resources/Empty.png,WildCard_Ex,-0.348958333,-0.005208333,1,0,0,0.5711,optionLeft,5,10970,5,36,0,36,0,1,,,,,,,,,,,,,,,,,,,,,,,,,,,,,,,,,,,,,,,
,,,,,,,,2023-08-16_08h33.13.503,HF_wild_card,2022.2.4,Win32,59.93407252,5d1904fd8b97090001215bdf,64d2fd46c836a06233681665,64dc7b996affa6e52df02fc4,,,,,,,ctch,resources/DR.BMP,resources/DBN.BMP,Door3,-0.307291667,-0.014322917,1,0,0,0.7593,optionLeft,70,11040,5,37,0,37,0,1,,,,,,,,,,,,,,,,,,,,,,,,,,,,,,,,,,,,,,,
,,,,,,,,2023-08-16_08h33.13.503,HF_wild_card,2022.2.4,Win32,59.93407252,5d1904fd8b97090001215bdf,64d2fd46c836a06233681665,64dc7b996affa6e52df02fc4,,,,,,,sngl,resources/DBN.BMP,resources/Empty.png,Door2,-0.321614583,-0.0078125,1,0,0,0.6792,optionLeft,40,11080,5,38,0,38,0,1,,,,,,,,,,,,,,,,,,,,,,,,,,,,,,,,,,,,,,,
,,,,,,,,2023-08-16_08h33.13.503,HF_wild_card,2022.2.4,Win32,59.93407252,5d1904fd8b97090001215bdf,64d2fd46c836a06233681665,64dc7b996affa6e52df02fc4,,,,,,,decisionTrl,resources/DY.BMP,resources/DBN.BMP,Door1,-0.3359375,0,1,0,0,0.9901,optionLeft,30,11110,5,39,0,39,0,1,,,,,,,,,,,,,,,,,,,,,,,,,,,,,,,,,,,,,,,
,,,,,,,,2023-08-16_08h33.13.503,HF_wild_card,2022.2.4,Win32,59.93407252,5d1904fd8b97090001215bdf,64d2fd46c836a06233681665,64dc7b996affa6e52df02fc4,,,,,,,ctch,resources/DB.BMP,resources/DY.BMP,Door4,-0.2890625,0.001302083,1,0,0,1.0085,optionLeft,60,11170,5,40,0,40,0,1,,,,,,,,,,,,,,,,,,,,,,,,,,,,,,,,,,,,,,,
,,,,,,,,2023-08-16_08h33.13.503,HF_wild_card,2022.2.4,Win32,59.93407252,5d1904fd8b97090001215bdf,64d2fd46c836a06233681665,64dc7b996affa6e52df02fc4,,,,,,,decisionTrl,resources/DG.BMP,resources/DB.BMP,WildCard_Ex,-0.395833333,0.009114583,1,0,0,1.344,optionLeft,5,11175,5,41,0,41,0,1,,,,,,,,,,,,,,,,,,,,,,,,,,,,,,,,,,,,,,,
,,,,,,,,2023-08-16_08h33.13.503,HF_wild_card,2022.2.4,Win32,59.93407252,5d1904fd8b97090001215bdf,64d2fd46c836a06233681665,64dc7b996affa6e52df02fc4,,,,,,,decisionTrl,resources/DBN.BMP,resources/DY.BMP,Door1,0.33203125,-0.001302083,1,0,0,1.3988,optionRight,30,11205,5,42,0,42,0,1,,,,,,,,,,,,,,,,,,,,,,,,,,,,,,,,,,,,,,,
,,,,,,,,2023-08-16_08h33.13.503,HF_wild_card,2022.2.4,Win32,59.93407252,5d1904fd8b97090001215bdf,64d2fd46c836a06233681665,64dc7b996affa6e52df02fc4,,,,,,,sngl,resources/Empty.png,resources/DG.BMP,WildCard_Ex,0.3984375,0.002604167,1,0,0,0.6724,optionRight,5,11210,5,43,0,43,0,1,,,,,,,,,,,,,,,,,,,,,,,,,,,,,,,,,,,,,,,
,,,,,,,,2023-08-16_08h33.13.503,HF_wild_card,2022.2.4,Win32,59.93407252,5d1904fd8b97090001215bdf,64d2fd46c836a06233681665,64dc7b996affa6e52df02fc4,,,,,,,,,,,,,,,,,,,,,,,,,,4,0,4,0,1,,,,,,,,,,,,,,,,,,,,,,,,,,,,,,,,,,
,,,,,,,,2023-08-16_08h33.13.503,HF_wild_card,2022.2.4,Win32,59.93407252,5d1904fd8b97090001215bdf,64d2fd46c836a06233681665,64dc7b996affa6e52df02fc4,,,,,,,sngl,resources/DG.BMP,resources/Empty.png,WildCard_Ex,-0.260416667,-0.088541667,1,0,0,1.1648,optionLeft,95,11305,6,0,0,0,0,1,,,,,,,,,,,,,,,,,,,,,,,,,,,,,,,,,,,,,,,
,,,,,,,,2023-08-16_08h33.13.503,HF_wild_card,2022.2.4,Win32,59.93407252,5d1904fd8b97090001215bdf,64d2fd46c836a06233681665,64dc7b996affa6e52df02fc4,,,,,,,sngl,resources/DR.BMP,resources/Empty.png,Door3,-0.321614583,-0.01171875,1,0,0,0.528,optionLeft,70,11375,6,1,0,1,0,1,,,,,,,,,,,,,,,,,,,,,,,,,,,,,,,,,,,,,,,
,,,,,,,,2023-08-16_08h33.13.503,HF_wild_card,2022.2.4,Win32,59.93407252,5d1904fd8b97090001215bdf,64d2fd46c836a06233681665,64dc7b996affa6e52df02fc4,,,,,,,decisionTrl,resources/DB.BMP,resources/DR.BMP,Door3,0.380208333,0.013020833,1,0,0,0.8895,optionRight,70,11445,6,2,0,2,0,1,,,,,,,,,,,,,,,,,,,,,,,,,,,,,,,,,,,,,,,
,,,,,,,,2023-08-16_08h33.13.503,HF_wild_card,2022.2.4,Win32,59.93407252,5d1904fd8b97090001215bdf,64d2fd46c836a06233681665,64dc7b996affa6e52df02fc4,,,,,,,sngl,resources/DY.BMP,resources/Empty.png,Door1,-0.1640625,-0.001302083,1,0,0,0.5182,optionLeft,30,11475,6,3,0,3,0,1,,,,,,,,,,,,,,,,,,,,,,,,,,,,,,,,,,,,,,,
,,,,,,,,2023-08-16_08h33.13.503,HF_wild_card,2022.2.4,Win32,59.93407252,5d1904fd8b97090001215bdf,64d2fd46c836a06233681665,64dc7b996affa6e52df02fc4,,,,,,,decisionTrl,resources/DY.BMP,resources/DBN.BMP,Door2,0.299479167,0.009114583,1,0,0,1.1945,optionRight,40,11515,6,4,0,4,0,1,,,,,,,,,,,,,,,,,,,,,,,,,,,,,,,,,,,,,,,
,,,,,,,,2023-08-16_08h33.13.503,HF_wild_card,2022.2.4,Win32,59.93407252,5d1904fd8b97090001215bdf,64d2fd46c836a06233681665,64dc7b996affa6e52df02fc4,,,,,,,sngl,resources/Empty.png,resources/DR.BMP,Door3,0.376302083,0.00390625,1,0,0,0.5904,optionRight,70,11585,6,5,0,5,0,1,,,,,,,,,,,,,,,,,,,,,,,,,,,,,,,,,,,,,,,
,,,,,,,,2023-08-16_08h33.13.503,HF_wild_card,2022.2.4,Win32,59.93407252,5d1904fd8b97090001215bdf,64d2fd46c836a06233681665,64dc7b996affa6e52df02fc4,,,,,,,decisionTrl,resources/DBN.BMP,resources/DY.BMP,Door2,-0.35546875,-0.018229167,1,0,0,1.3375,optionLeft,40,11625,6,6,0,6,0,1,,,,,,,,,,,,,,,,,,,,,,,,,,,,,,,,,,,,,,,
,,,,,,,,2023-08-16_08h33.13.503,HF_wild_card,2022.2.4,Win32,59.93407252,5d1904fd8b97090001215bdf,64d2fd46c836a06233681665,64dc7b996affa6e52df02fc4,,,,,,,sngl,resources/Empty.png,resources/DG.BMP,WildCard_Ex,0.330729167,0.005208333,1,0,0,0.6254,optionRight,95,11720,6,7,0,7,0,1,,,,,,,,,,,,,,,,,,,,,,,,,,,,,,,,,,,,,,,
,,,,,,,,2023-08-16_08h33.13.503,HF_wild_card,2022.2.4,Win32,59.93407252,5d1904fd8b97090001215bdf,64d2fd46c836a06233681665,64dc7b996affa6e52df02fc4,,,,,,,decisionTrl,resources/DG.BMP,resources/DBN.BMP,WildCard_Ex,-0.21875,-0.01171875,1,0,0,0.6714,optionLeft,95,11815,6,8,0,8,0,1,,,,,,,,,,,,,,,,,,,,,,,,,,,,,,,,,,,,,,,
,,,,,,,,2023-08-16_08h33.13.503,HF_wild_card,2022.2.4,Win32,59.93407252,5d1904fd8b97090001215bdf,64d2fd46c836a06233681665,64dc7b996affa6e52df02fc4,,,,,,,ctch,resources/DBN.BMP,resources/DR.BMP,Door3,-0.0078125,0.001302083,1,0,0,0.6417,optionRight,70,11885,6,9,0,9,0,1,,,,,,,,,,,,,,,,,,,,,,,,,,,,,,,,,,,,,,,
,,,,,,,,2023-08-16_08h33.13.503,HF_wild_card,2022.2.4,Win32,59.93407252,5d1904fd8b97090001215bdf,64d2fd46c836a06233681665,64dc7b996affa6e52df02fc4,,,,,,,sngl,resources/Empty.png,resources/DBN.BMP,Door2,0.51171875,-0.006510417,1,0,0,0.6782,optionRight,40,11925,6,10,0,10,0,1,,,,,,,,,,,,,,,,,,,,,,,,,,,,,,,,,,,,,,,
,,,,,,,,2023-08-16_08h33.13.503,HF_wild_card,2022.2.4,Win32,59.93407252,5d1904fd8b97090001215bdf,64d2fd46c836a06233681665,64dc7b996affa6e52df02fc4,,,,,,,decisionTrl,resources/DB.BMP,resources/DR.BMP,Door4,-0.256510417,-0.016927083,1,0,0,1.1265,optionLeft,80,12005,6,11,0,11,0,1,,,,,,,,,,,,,,,,,,,,,,,,,,,,,,,,,,,,,,,
,,,,,,,,2023-08-16_08h33.13.503,HF_wild_card,2022.2.4,Win32,59.93407252,5d1904fd8b97090001215bdf,64d2fd46c836a06233681665,64dc7b996affa6e52df02fc4,,,,,,,decisionTrl,resources/DR.BMP,resources/DB.BMP,Door3,-0.37109375,0.005208333,1,0,0,1.1277,optionLeft,70,12075,6,12,0,12,0,1,,,,,,,,,,,,,,,,,,,,,,,,,,,,,,,,,,,,,,,
,,,,,,,,2023-08-16_08h33.13.503,HF_wild_card,2022.2.4,Win32,59.93407252,5d1904fd8b97090001215bdf,64d2fd46c836a06233681665,64dc7b996affa6e52df02fc4,,,,,,,sngl,resources/DB.BMP,resources/Empty.png,Door4,-0.436197917,-0.010416667,1,0,0,0.5753,optionLeft,60,12135,6,13,0,13,0,1,,,,,,,,,,,,,,,,,,,,,,,,,,,,,,,,,,,,,,,
,,,,,,,,2023-08-16_08h33.13.503,HF_wild_card,2022.2.4,Win32,59.93407252,5d1904fd8b97090001215bdf,64d2fd46c836a06233681665,64dc7b996affa6e52df02fc4,,,,,,,ctch,resources/DB.BMP,resources/DY.BMP,Door4,-0.180989583,0.002604167,1,0,0,1.4403,optionLeft,60,12195,6,14,0,14,0,1,,,,,,,,,,,,,,,,,,,,,,,,,,,,,,,,,,,,,,,
,,,,,,,,2023-08-16_08h33.13.503,HF_wild_card,2022.2.4,Win32,59.93407252,5d1904fd8b97090001215bdf,64d2fd46c836a06233681665,64dc7b996affa6e52df02fc4,,,,,,,decisionTrl,resources/DY.BMP,resources/DBN.BMP,Door2,0.325520833,-0.002604167,1,0,0,0.8434,optionRight,40,12235,6,15,0,15,0,1,,,,,,,,,,,,,,,,,,,,,,,,,,,,,,,,,,,,,,,
,,,,,,,,2023-08-16_08h33.13.503,HF_wild_card,2022.2.4,Win32,59.93407252,5d1904fd8b97090001215bdf,64d2fd46c836a06233681665,64dc7b996affa6e52df02fc4,,,,,,,decisionTrl,resources/DB.BMP,resources/DR.BMP,Door3,0.295572917,0.006510417,1,0,0,1.7022,optionRight,70,12305,6,16,0,16,0,1,,,,,,,,,,,,,,,,,,,,,,,,,,,,,,,,,,,,,,,
,,,,,,,,2023-08-16_08h33.13.503,HF_wild_card,2022.2.4,Win32,59.93407252,5d1904fd8b97090001215bdf,64d2fd46c836a06233681665,64dc7b996affa6e52df02fc4,,,,,,,decisionTrl,resources/DR.BMP,resources/DB.BMP,Door3,-0.3359375,0.001302083,1,0,0,1.0401,optionLeft,70,12375,6,17,0,17,0,1,,,,,,,,,,,,,,,,,,,,,,,,,,,,,,,,,,,,,,,
,,,,,,,,2023-08-16_08h33.13.503,HF_wild_card,2022.2.4,Win32,59.93407252,5d1904fd8b97090001215bdf,64d2fd46c836a06233681665,64dc7b996affa6e52df02fc4,,,,,,,decisionTrl,resources/DY.BMP,resources/DBN.BMP,Door2,0.380208333,0.00390625,1,0,0,1.0796,optionRight,40,12415,6,18,0,18,0,1,,,,,,,,,,,,,,,,,,,,,,,,,,,,,,,,,,,,,,,
,,,,,,,,2023-08-16_08h33.13.503,HF_wild_card,2022.2.4,Win32,59.93407252,5d1904fd8b97090001215bdf,64d2fd46c836a06233681665,64dc7b996affa6e52df02fc4,,,,,,,ctch,resources/DR.BMP,resources/DBN.BMP,Door3,-0.385416667,-0.0234375,1,0,0,1.4767,optionLeft,70,12485,6,19,0,19,0,1,,,,,,,,,,,,,,,,,,,,,,,,,,,,,,,,,,,,,,,
,,,,,,,,2023-08-16_08h33.13.503,HF_wild_card,2022.2.4,Win32,59.93407252,5d1904fd8b97090001215bdf,64d2fd46c836a06233681665,64dc7b996affa6e52df02fc4,,,,,,,sngl,resources/Empty.png,resources/DB.BMP,Door4,0.329427083,-0.0078125,1,0,0,0.6403,optionRight,80,12565,6,20,0,20,0,1,,,,,,,,,,,,,,,,,,,,,,,,,,,,,,,,,,,,,,,
,,,,,,,,2023-08-16_08h33.13.503,HF_wild_card,2022.2.4,Win32,59.93407252,5d1904fd8b97090001215bdf,64d2fd46c836a06233681665,64dc7b996affa6e52df02fc4,,,,,,,ctch,resources/DY.BMP,resources/DB.BMP,Door4,0.350260417,0.01171875,1,0,0,0.9087,optionRight,60,12625,6,21,0,21,0,1,,,,,,,,,,,,,,,,,,,,,,,,,,,,,,,,,,,,,,,
,,,,,,,,2023-08-16_08h33.13.503,HF_wild_card,2022.2.4,Win32,59.93407252,5d1904fd8b97090001215bdf,64d2fd46c836a06233681665,64dc7b996affa6e52df02fc4,,,,,,,ctch,resources/DB.BMP,resources/DY.BMP,Door4,-0.264322917,-0.006510417,1,0,0,0.9933,optionLeft,60,12685,6,22,0,22,0,1,,,,,,,,,,,,,,,,,,,,,,,,,,,,,,,,,,,,,,,
,,,,,,,,2023-08-16_08h33.13.503,HF_wild_card,2022.2.4,Win32,59.93407252,5d1904fd8b97090001215bdf,64d2fd46c836a06233681665,64dc7b996affa6e52df02fc4,,,,,,,ctch,resources/DR.BMP,resources/DBN.BMP,Door2,0.30078125,0.01171875,1,0,0,1.0423,optionRight,40,12725,6,23,0,23,0,1,,,,,,,,,,,,,,,,,,,,,,,,,,,,,,,,,,,,,,,
,,,,,,,,2023-08-16_08h33.13.503,HF_wild_card,2022.2.4,Win32,59.93407252,5d1904fd8b97090001215bdf,64d2fd46c836a06233681665,64dc7b996affa6e52df02fc4,,,,,,,decisionTrl,resources/DR.BMP,resources/DB.BMP,Door4,0.408854167,-0.005208333,1,0,0,0.9627,optionRight,60,12785,6,24,0,24,0,1,,,,,,,,,,,,,,,,,,,,,,,,,,,,,,,,,,,,,,,
,,,,,,,,2023-08-16_08h33.13.503,HF_wild_card,2022.2.4,Win32,59.93407252,5d1904fd8b97090001215bdf,64d2fd46c836a06233681665,64dc7b996affa6e52df02fc4,,,,,,,decisionTrl,resources/DB.BMP,resources/DG.BMP,WildCard_Ex,0.436197917,-0.005208333,1,0,0,0.9872,optionRight,95,12880,6,25,0,25,0,1,,,,,,,,,,,,,,,,,,,,,,,,,,,,,,,,,,,,,,,
,,,,,,,,2023-08-16_08h33.13.503,HF_wild_card,2022.2.4,Win32,59.93407252,5d1904fd8b97090001215bdf,64d2fd46c836a06233681665,64dc7b996affa6e52df02fc4,,,,,,,decisionTrl,resources/DY.BMP,resources/DG.BMP,WildCard_Ex,0.377604167,0.015625,1,0,0,0.6787,optionRight,5,12885,6,26,0,26,0,1,,,,,,,,,,,,,,,,,,,,,,,,,,,,,,,,,,,,,,,
,,,,,,,,2023-08-16_08h33.13.503,HF_wild_card,2022.2.4,Win32,59.93407252,5d1904fd8b97090001215bdf,64d2fd46c836a06233681665,64dc7b996affa6e52df02fc4,,,,,,,sngl,resources/Empty.png,resources/DY.BMP,Door1,0.380208333,-0.002604167,1,0,0,0.778,optionRight,30,12915,6,27,0,27,0,1,,,,,,,,,,,,,,,,,,,,,,,,,,,,,,,,,,,,,,,
,,,,,,,,2023-08-16_08h33.13.503,HF_wild_card,2022.2.4,Win32,59.93407252,5d1904fd8b97090001215bdf,64d2fd46c836a06233681665,64dc7b996affa6e52df02fc4,,,,,,,decisionTrl,resources/DB.BMP,resources/DR.BMP,Door4,-0.29296875,-0.009114583,1,0,0,0.8827,optionLeft,80,12995,6,28,0,28,0,1,,,,,,,,,,,,,,,,,,,,,,,,,,,,,,,,,,,,,,,
,,,,,,,,2023-08-16_08h33.13.503,HF_wild_card,2022.2.4,Win32,59.93407252,5d1904fd8b97090001215bdf,64d2fd46c836a06233681665,64dc7b996affa6e52df02fc4,,,,,,,decisionTrl,resources/DBN.BMP,resources/DY.BMP,Door2,-0.329427083,-0.006510417,1,0,0,1.7866,optionLeft,20,13015,6,29,0,29,0,1,,,,,,,,,,,,,,,,,,,,,,,,,,,,,,,,,,,,,,,
,,,,,,,,2023-08-16_08h33.13.503,HF_wild_card,2022.2.4,Win32,59.93407252,5d1904fd8b97090001215bdf,64d2fd46c836a06233681665,64dc7b996affa6e52df02fc4,,,,,,,sngl,resources/DG.BMP,resources/Empty.png,WildCard_Ex,-0.268229167,0,1,0,0,0.5873,optionLeft,5,13020,6,30,0,30,0,1,,,,,,,,,,,,,,,,,,,,,,,,,,,,,,,,,,,,,,,
,,,,,,,,2023-08-16_08h33.13.503,HF_wild_card,2022.2.4,Win32,59.93407252,5d1904fd8b97090001215bdf,64d2fd46c836a06233681665,64dc7b996affa6e52df02fc4,,,,,,,decisionTrl,resources/DBN.BMP,resources/DY.BMP,Door1,0.30078125,0.006510417,1,0,0,0.7373,optionRight,30,13050,6,31,0,31,0,1,,,,,,,,,,,,,,,,,,,,,,,,,,,,,,,,,,,,,,,
,,,,,,,,2023-08-16_08h33.13.503,HF_wild_card,2022.2.4,Win32,59.93407252,5d1904fd8b97090001215bdf,64d2fd46c836a06233681665,64dc7b996affa6e52df02fc4,,,,,,,decisionTrl,resources/DY.BMP,resources/DBN.BMP,Door1,-0.225260417,-0.005208333,1,0,0,0.7424,optionLeft,30,13080,6,32,0,32,0,1,,,,,,,,,,,,,,,,,,,,,,,,,,,,,,,,,,,,,,,
,,,,,,,,2023-08-16_08h33.13.503,HF_wild_card,2022.2.4,Win32,59.93407252,5d1904fd8b97090001215bdf,64d2fd46c836a06233681665,64dc7b996affa6e52df02fc4,,,,,,,decisionTrl,resources/DR.BMP,resources/DG.BMP,Door3,-0.2890625,-0.001302083,1,0,0,0.8367,optionLeft,70,13150,6,33,0,33,0,1,,,,,,,,,,,,,,,,,,,,,,,,,,,,,,,,,,,,,,,
,,,,,,,,2023-08-16_08h33.13.503,HF_wild_card,2022.2.4,Win32,59.93407252,5d1904fd8b97090001215bdf,64d2fd46c836a06233681665,64dc7b996affa6e52df02fc4,,,,,,,decisionTrl,resources/DBN.BMP,resources/DY.BMP,Door1,0.356770833,0.009114583,1,0,0,0.8446,optionRight,30,13180,6,34,0,34,0,1,,,,,,,,,,,,,,,,,,,,,,,,,,,,,,,,,,,,,,,
,,,,,,,,2023-08-16_08h33.13.503,HF_wild_card,2022.2.4,Win32,59.93407252,5d1904fd8b97090001215bdf,64d2fd46c836a06233681665,64dc7b996affa6e52df02fc4,,,,,,,decisionTrl,resources/DG.BMP,resources/DY.BMP,WildCard_Ex,-0.416666667,-0.001302083,1,0,0,1.0382,optionLeft,5,13185,6,35,0,35,0,1,,,,,,,,,,,,,,,,,,,,,,,,,,,,,,,,,,,,,,,
,,,,,,,,2023-08-16_08h33.13.503,HF_wild_card,2022.2.4,Win32,59.93407252,5d1904fd8b97090001215bdf,64d2fd46c836a06233681665,64dc7b996affa6e52df02fc4,,,,,,,decisionTrl,resources/DBN.BMP,resources/DG.BMP,WildCard_Ex,0.4140625,0.015625,1,0,0,0.633,optionRight,5,13190,6,36,0,36,0,1,,,,,,,,,,,,,,,,,,,,,,,,,,,,,,,,,,,,,,,
,,,,,,,,2023-08-16_08h33.13.503,HF_wild_card,2022.2.4,Win32,59.93407252,5d1904fd8b97090001215bdf,64d2fd46c836a06233681665,64dc7b996affa6e52df02fc4,,,,,,,decisionTrl,resources/DG.BMP,resources/DR.BMP,WildCard_Ex,-0.350260417,0.00390625,1,0,0,0.6051,optionLeft,5,13195,6,37,0,37,0,1,,,,,,,,,,,,,,,,,,,,,,,,,,,,,,,,,,,,,,,
,,,,,,,,2023-08-16_08h33.13.503,HF_wild_card,2022.2.4,Win32,59.93407252,5d1904fd8b97090001215bdf,64d2fd46c836a06233681665,64dc7b996affa6e52df02fc4,,,,,,,decisionTrl,resources/DG.BMP,resources/DB.BMP,WildCard_Ex,-0.388020833,0.002604167,1,0,0,0.5659,optionLeft,95,13290,6,38,0,38,0,1,,,,,,,,,,,,,,,,,,,,,,,,,,,,,,,,,,,,,,,
,,,,,,,,2023-08-16_08h33.13.503,HF_wild_card,2022.2.4,Win32,59.93407252,5d1904fd8b97090001215bdf,64d2fd46c836a06233681665,64dc7b996affa6e52df02fc4,,,,,,,decisionTrl,resources/DR.BMP,resources/DB.BMP,Door3,-0.244791667,-0.00390625,1,0,0,0.885,optionLeft,70,13360,6,39,0,39,0,1,,,,,,,,,,,,,,,,,,,,,,,,,,,,,,,,,,,,,,,
,,,,,,,,2023-08-16_08h33.13.503,HF_wild_card,2022.2.4,Win32,59.93407252,5d1904fd8b97090001215bdf,64d2fd46c836a06233681665,64dc7b996affa6e52df02fc4,,,,,,,sngl,resources/DBN.BMP,resources/Empty.png,Door2,-0.361979167,-0.006510417,1,0,0,0.6809,optionLeft,20,13380,6,40,0,40,0,1,,,,,,,,,,,,,,,,,,,,,,,,,,,,,,,,,,,,,,,
,,,,,,,,2023-08-16_08h33.13.503,HF_wild_card,2022.2.4,Win32,59.93407252,5d1904fd8b97090001215bdf,64d2fd46c836a06233681665,64dc7b996affa6e52df02fc4,,,,,,,ctch,resources/DY.BMP,resources/DB.BMP,Door4,0.319010417,-0.0078125,1,0,0,1.1297,optionRight,60,13440,6,41,0,41,0,1,,,,,,,,,,,,,,,,,,,,,,,,,,,,,,,,,,,,,,,
,,,,,,,,2023-08-16_08h33.13.503,HF_wild_card,2022.2.4,Win32,59.93407252,5d1904fd8b97090001215bdf,64d2fd46c836a06233681665,64dc7b996affa6e52df02fc4,,,,,,,sngl,resources/Empty.png,resources/DG.BMP,WildCard_Ex,0.463541667,-0.001302083,1,0,0,0.6707,optionRight,5,13445,6,42,0,42,0,1,,,,,,,,,,,,,,,,,,,,,,,,,,,,,,,,,,,,,,,
,,,,,,,,2023-08-16_08h33.13.503,HF_wild_card,2022.2.4,Win32,59.93407252,5d1904fd8b97090001215bdf,64d2fd46c836a06233681665,64dc7b996affa6e52df02fc4,,,,,,,ctch,resources/DBN.BMP,resources/DR.BMP,Door3,0.376302083,0.010416667,1,0,0,1.1963,optionRight,70,13515,6,43,0,43,0,1,,,,,,,,,,,,,,,,,,,,,,,,,,,,,,,,,,,,,,,
,,,,,,,,2023-08-16_08h33.13.503,HF_wild_card,2022.2.4,Win32,59.93407252,5d1904fd8b97090001215bdf,64d2fd46c836a06233681665,64dc7b996affa6e52df02fc4,,,,,,,,,,,,,,,,,,,,,,,,,,5,0,5,0,1,,,,,,,,,,,,,,,,,,,,,,,,,,,,,,,,,,
,,,,,,,,2023-08-16_08h33.13.503,HF_wild_card,2022.2.4,Win32,59.93407252,5d1904fd8b97090001215bdf,64d2fd46c836a06233681665,64dc7b996affa6e52df02fc4,,,,,,,ctch,resources/DY.BMP,resources/DB.BMP,Door1,-0.341145833,-0.106770833,1,0,0,0.7143,optionLeft,30,13545,7,0,0,0,0,1,,,,,,,,,,,,,,,,,,,,,,,,,,,,,,,,,,,,,,,
,,,,,,,,2023-08-16_08h33.13.503,HF_wild_card,2022.2.4,Win32,59.93407252,5d1904fd8b97090001215bdf,64d2fd46c836a06233681665,64dc7b996affa6e52df02fc4,,,,,,,decisionTrl,resources/DR.BMP,resources/DB.BMP,Door4,0.3125,0.0625,1,0,0,1.3428,optionRight,80,13625,7,1,0,1,0,1,,,,,,,,,,,,,,,,,,,,,,,,,,,,,,,,,,,,,,,
,,,,,,,,2023-08-16_08h33.13.503,HF_wild_card,2022.2.4,Win32,59.93407252,5d1904fd8b97090001215bdf,64d2fd46c836a06233681665,64dc7b996affa6e52df02fc4,,,,,,,decisionTrl,resources/DY.BMP,resources/DBN.BMP,Door1,-0.225260417,-0.005208333,1,0,0,0.7235,optionLeft,30,13655,7,2,0,2,0,1,,,,,,,,,,,,,,,,,,,,,,,,,,,,,,,,,,,,,,,
,,,,,,,,2023-08-16_08h33.13.503,HF_wild_card,2022.2.4,Win32,59.93407252,5d1904fd8b97090001215bdf,64d2fd46c836a06233681665,64dc7b996affa6e52df02fc4,,,,,,,decisionTrl,resources/DR.BMP,resources/DB.BMP,Door3,-0.395833333,-0.002604167,1,0,0,1.1965,optionLeft,70,13725,7,3,0,3,0,1,,,,,,,,,,,,,,,,,,,,,,,,,,,,,,,,,,,,,,,
,,,,,,,,2023-08-16_08h33.13.503,HF_wild_card,2022.2.4,Win32,59.93407252,5d1904fd8b97090001215bdf,64d2fd46c836a06233681665,64dc7b996affa6e52df02fc4,,,,,,,decisionTrl,resources/DBN.BMP,resources/DY.BMP,Door1,0.401041667,-0.00390625,1,0,0,0.6608,optionRight,30,13755,7,4,0,4,0,1,,,,,,,,,,,,,,,,,,,,,,,,,,,,,,,,,,,,,,,
,,,,,,,,2023-08-16_08h33.13.503,HF_wild_card,2022.2.4,Win32,59.93407252,5d1904fd8b97090001215bdf,64d2fd46c836a06233681665,64dc7b996affa6e52df02fc4,,,,,,,ctch,resources/DB.BMP,resources/DY.BMP,Door4,-0.309895833,-0.0078125,1,0,0,0.7264,optionLeft,60,13815,7,5,0,5,0,1,,,,,,,,,,,,,,,,,,,,,,,,,,,,,,,,,,,,,,,
,,,,,,,,2023-08-16_08h33.13.503,HF_wild_card,2022.2.4,Win32,59.93407252,5d1904fd8b97090001215bdf,64d2fd46c836a06233681665,64dc7b996affa6e52df02fc4,,,,,,,ctch,resources/DR.BMP,resources/DBN.BMP,Door3,-0.291666667,-0.009114583,1,0,0,0.6956,optionLeft,70,13885,7,6,0,6,0,1,,,,,,,,,,,,,,,,,,,,,,,,,,,,,,,,,,,,,,,
,,,,,,,,2023-08-16_08h33.13.503,HF_wild_card,2022.2.4,Win32,59.93407252,5d1904fd8b97090001215bdf,64d2fd46c836a06233681665,64dc7b996affa6e52df02fc4,,,,,,,decisionTrl,resources/DB.BMP,resources/DR.BMP,Door3,0.21875,-0.01171875,1,0,0,0.609,optionRight,70,13955,7,7,0,7,0,1,,,,,,,,,,,,,,,,,,,,,,,,,,,,,,,,,,,,,,,
,,,,,,,,2023-08-16_08h33.13.503,HF_wild_card,2022.2.4,Win32,59.93407252,5d1904fd8b97090001215bdf,64d2fd46c836a06233681665,64dc7b996affa6e52df02fc4,,,,,,,decisionTrl,resources/DY.BMP,resources/DBN.BMP,Door1,-0.44921875,0,1,0,0,0.8777,optionLeft,30,13985,7,8,0,8,0,1,,,,,,,,,,,,,,,,,,,,,,,,,,,,,,,,,,,,,,,
,,,,,,,,2023-08-16_08h33.13.503,HF_wild_card,2022.2.4,Win32,59.93407252,5d1904fd8b97090001215bdf,64d2fd46c836a06233681665,64dc7b996affa6e52df02fc4,,,,,,,decisionTrl,resources/DB.BMP,resources/DR.BMP,Door3,0.348958333,-0.005208333,1,0,0,1.2092,optionRight,70,14055,7,9,0,9,0,1,,,,,,,,,,,,,,,,,,,,,,,,,,,,,,,,,,,,,,,
,,,,,,,,2023-08-16_08h33.13.503,HF_wild_card,2022.2.4,Win32,59.93407252,5d1904fd8b97090001215bdf,64d2fd46c836a06233681665,64dc7b996affa6e52df02fc4,,,,,,,ctch,resources/DBN.BMP,resources/DR.BMP,Door3,0.438802083,-0.005208333,1,0,0,0.7976,optionRight,70,14125,7,10,0,10,0,1,,,,,,,,,,,,,,,,,,,,,,,,,,,,,,,,,,,,,,,
,,,,,,,,2023-08-16_08h33.13.503,HF_wild_card,2022.2.4,Win32,59.93407252,5d1904fd8b97090001215bdf,64d2fd46c836a06233681665,64dc7b996affa6e52df02fc4,,,,,,,decisionTrl,resources/DBN.BMP,resources/DY.BMP,Door2,-0.4296875,0.006510417,1,0,0,1.6282,optionLeft,20,14145,7,11,0,11,0,1,,,,,,,,,,,,,,,,,,,,,,,,,,,,,,,,,,,,,,,
,,,,,,,,2023-08-16_08h33.13.503,HF_wild_card,2022.2.4,Win32,59.93407252,5d1904fd8b97090001215bdf,64d2fd46c836a06233681665,64dc7b996affa6e52df02fc4,,,,,,,ctch,resources/DR.BMP,resources/DBN.BMP,Door3,-0.345052083,0.001302083,1,0,0,0.681,optionLeft,70,14215,7,12,0,12,0,1,,,,,,,,,,,,,,,,,,,,,,,,,,,,,,,,,,,,,,,
,,,,,,,,2023-08-16_08h33.13.503,HF_wild_card,2022.2.4,Win32,59.93407252,5d1904fd8b97090001215bdf,64d2fd46c836a06233681665,64dc7b996affa6e52df02fc4,,,,,,,ctch,resources/DR.BMP,resources/DBN.BMP,Door3,-0.283854167,-0.002604167,1,0,0,0.616,optionLeft,70,14285,7,13,0,13,0,1,,,,,,,,,,,,,,,,,,,,,,,,,,,,,,,,,,,,,,,
,,,,,,,,2023-08-16_08h33.13.503,HF_wild_card,2022.2.4,Win32,59.93407252,5d1904fd8b97090001215bdf,64d2fd46c836a06233681665,64dc7b996affa6e52df02fc4,,,,,,,ctch,resources/DBN.BMP,resources/DR.BMP,Door3,0.404947917,-0.006510417,1,0,0,0.6097,optionRight,70,14355,7,14,0,14,0,1,,,,,,,,,,,,,,,,,,,,,,,,,,,,,,,,,,,,,,,
,,,,,,,,2023-08-16_08h33.13.503,HF_wild_card,2022.2.4,Win32,59.93407252,5d1904fd8b97090001215bdf,64d2fd46c836a06233681665,64dc7b996affa6e52df02fc4,,,,,,,ctch,resources/DY.BMP,resources/DB.BMP,Door4,0.294270833,-0.001302083,1,0,0,1.0594,optionRight,60,14415,7,15,0,15,0,1,,,,,,,,,,,,,,,,,,,,,,,,,,,,,,,,,,,,,,,
,,,,,,,,2023-08-16_08h33.13.503,HF_wild_card,2022.2.4,Win32,59.93407252,5d1904fd8b97090001215bdf,64d2fd46c836a06233681665,64dc7b996affa6e52df02fc4,,,,,,,ctch,resources/DY.BMP,resources/DB.BMP,Door4,0.282552083,-0.0078125,1,0,0,0.5977,optionRight,60,14475,7,16,0,16,0,1,,,,,,,,,,,,,,,,,,,,,,,,,,,,,,,,,,,,,,,
,,,,,,,,2023-08-16_08h33.13.503,HF_wild_card,2022.2.4,Win32,59.93407252,5d1904fd8b97090001215bdf,64d2fd46c836a06233681665,64dc7b996affa6e52df02fc4,,,,,,,decisionTrl,resources/DB.BMP,resources/DR.BMP,Door3,0.341145833,0.0078125,1,0,0,1.2765,optionRight,70,14545,7,17,0,17,0,1,,,,,,,,,,,,,,,,,,,,,,,,,,,,,,,,,,,,,,,
,,,,,,,,2023-08-16_08h33.13.503,HF_wild_card,2022.2.4,Win32,59.93407252,5d1904fd8b97090001215bdf,64d2fd46c836a06233681665,64dc7b996affa6e52df02fc4,,,,,,,decisionTrl,resources/DBN.BMP,resources/DY.BMP,Door2,-0.26953125,0.033854167,1,0,0,1.4602,optionLeft,20,14565,7,18,0,18,0,1,,,,,,,,,,,,,,,,,,,,,,,,,,,,,,,,,,,,,,,
,,,,,,,,2023-08-16_08h33.13.503,HF_wild_card,2022.2.4,Win32,59.93407252,5d1904fd8b97090001215bdf,64d2fd46c836a06233681665,64dc7b996affa6e52df02fc4,,,,,,,ctch,resources/DB.BMP,resources/DY.BMP,Door4,-0.364583333,0.018229167,1,0,0,1.9787,optionLeft,60,14625,7,19,0,19,0,1,,,,,,,,,,,,,,,,,,,,,,,,,,,,,,,,,,,,,,,
,,,,,,,,2023-08-16_08h33.13.503,HF_wild_card,2022.2.4,Win32,59.93407252,5d1904fd8b97090001215bdf,64d2fd46c836a06233681665,64dc7b996affa6e52df02fc4,,,,,,,decisionTrl,resources/DR.BMP,resources/DB.BMP,Door3,-0.283854167,0.040364583,1,0,0,0.9633,optionLeft,70,14695,7,20,0,20,0,1,,,,,,,,,,,,,,,,,,,,,,,,,,,,,,,,,,,,,,,
,,,,,,,,2023-08-16_08h33.13.503,HF_wild_card,2022.2.4,Win32,59.93407252,5d1904fd8b97090001215bdf,64d2fd46c836a06233681665,64dc7b996affa6e52df02fc4,,,,,,,decisionTrl,resources/DB.BMP,resources/DR.BMP,Door3,0.35546875,0.018229167,1,0,0,0.7797,optionRight,70,14765,7,21,0,21,0,1,,,,,,,,,,,,,,,,,,,,,,,,,,,,,,,,,,,,,,,
,,,,,,,,2023-08-16_08h33.13.503,HF_wild_card,2022.2.4,Win32,59.93407252,5d1904fd8b97090001215bdf,64d2fd46c836a06233681665,64dc7b996affa6e52df02fc4,,,,,,,decisionTrl,resources/DBN.BMP,resources/DY.BMP,Door2,-0.2578125,0.0625,1,0,0,1.1301,optionLeft,40,14805,7,22,0,22,0,1,,,,,,,,,,,,,,,,,,,,,,,,,,,,,,,,,,,,,,,
,,,,,,,,2023-08-16_08h33.13.503,HF_wild_card,2022.2.4,Win32,59.93407252,5d1904fd8b97090001215bdf,64d2fd46c836a06233681665,64dc7b996affa6e52df02fc4,,,,,,,decisionTrl,resources/DY.BMP,resources/DBN.BMP,Door1,-0.248697917,0.020833333,1,0,0,0.7624,optionLeft,30,14835,7,23,0,23,0,1,,,,,,,,,,,,,,,,,,,,,,,,,,,,,,,,,,,,,,,
,,,,,,,,2023-08-16_08h33.13.503,HF_wild_card,2022.2.4,Win32,59.93407252,5d1904fd8b97090001215bdf,64d2fd46c836a06233681665,64dc7b996affa6e52df02fc4,,,,,,,ctch,resources/DB.BMP,resources/DY.BMP,Door4,-0.3515625,0.001302083,1,0,0,0.7154,optionLeft,60,14895,7,24,0,24,0,1,,,,,,,,,,,,,,,,,,,,,,,,,,,,,,,,,,,,,,,
,,,,,,,,2023-08-16_08h33.13.503,HF_wild_card,2022.2.4,Win32,59.93407252,5d1904fd8b97090001215bdf,64d2fd46c836a06233681665,64dc7b996affa6e52df02fc4,,,,,,,decisionTrl,resources/DY.BMP,resources/DBN.BMP,Door2,0.337239583,-0.005208333,1,0,0,0.8423,optionRight,40,14935,7,25,0,25,0,1,,,,,,,,,,,,,,,,,,,,,,,,,,,,,,,,,,,,,,,
,,,,,,,,2023-08-16_08h33.13.503,HF_wild_card,2022.2.4,Win32,59.93407252,5d1904fd8b97090001215bdf,64d2fd46c836a06233681665,64dc7b996affa6e52df02fc4,,,,,,,decisionTrl,resources/DB.BMP,resources/DR.BMP,Door3,0.326822917,0,1,0,0,1.3976,optionRight,70,15005,7,26,0,26,0,1,,,,,,,,,,,,,,,,,,,,,,,,,,,,,,,,,,,,,,,
,,,,,,,,2023-08-16_08h33.13.503,HF_wild_card,2022.2.4,Win32,59.93407252,5d1904fd8b97090001215bdf,64d2fd46c836a06233681665,64dc7b996affa6e52df02fc4,,,,,,,decisionTrl,resources/DBN.BMP,resources/DY.BMP,Door2,-0.32421875,0.020833333,1,0,0,1.042,optionLeft,40,15045,7,27,0,27,0,1,,,,,,,,,,,,,,,,,,,,,,,,,,,,,,,,,,,,,,,
,,,,,,,,2023-08-16_08h33.13.503,HF_wild_card,2022.2.4,Win32,59.93407252,5d1904fd8b97090001215bdf,64d2fd46c836a06233681665,64dc7b996affa6e52df02fc4,,,,,,,decisionTrl,resources/DR.BMP,resources/DB.BMP,Door3,-0.360677083,-0.0078125,1,0,0,0.8451,optionLeft,70,15115,7,28,0,28,0,1,,,,,,,,,,,,,,,,,,,,,,,,,,,,,,,,,,,,,,,
,,,,,,,,2023-08-16_08h33.13.503,HF_wild_card,2022.2.4,Win32,59.93407252,5d1904fd8b97090001215bdf,64d2fd46c836a06233681665,64dc7b996affa6e52df02fc4,,,,,,,decisionTrl,resources/DR.BMP,resources/DB.BMP,Door3,-0.299479167,0.00390625,1,0,0,0.6423,optionLeft,70,15185,7,29,0,29,0,1,,,,,,,,,,,,,,,,,,,,,,,,,,,,,,,,,,,,,,,
,,,,,,,,2023-08-16_08h33.13.503,HF_wild_card,2022.2.4,Win32,59.93407252,5d1904fd8b97090001215bdf,64d2fd46c836a06233681665,64dc7b996affa6e52df02fc4,,,,,,,decisionTrl,resources/DY.BMP,resources/DBN.BMP,Door2,0.192708333,0.001302083,1,0,0,0.9764,optionRight,20,15205,7,30,0,30,0,1,,,,,,,,,,,,,,,,,,,,,,,,,,,,,,,,,,,,,,,
,,,,,,,,2023-08-16_08h33.13.503,HF_wild_card,2022.2.4,Win32,59.93407252,5d1904fd8b97090001215bdf,64d2fd46c836a06233681665,64dc7b996affa6e52df02fc4,,,,,,,ctch,resources/DBN.BMP,resources/DR.BMP,Door3,0.3828125,-0.005208333,1,0,0,0.8276,optionRight,70,15275,7,31,0,31,0,1,,,,,,,,,,,,,,,,,,,,,,,,,,,,,,,,,,,,,,,
,,,,,,,,2023-08-16_08h33.13.503,HF_wild_card,2022.2.4,Win32,59.93407252,5d1904fd8b97090001215bdf,64d2fd46c836a06233681665,64dc7b996affa6e52df02fc4,,,,,,,decisionTrl,resources/DR.BMP,resources/DB.BMP,Door3,-0.20703125,-0.01953125,1,0,0,0.8256,optionLeft,70,15345,7,32,0,32,0,1,,,,,,,,,,,,,,,,,,,,,,,,,,,,,,,,,,,,,,,
,,,,,,,,2023-08-16_08h33.13.503,HF_wild_card,2022.2.4,Win32,59.93407252,5d1904fd8b97090001215bdf,64d2fd46c836a06233681665,64dc7b996affa6e52df02fc4,,,,,,,decisionTrl,resources/DY.BMP,resources/DBN.BMP,Door2,0.188802083,-0.018229167,1,0,0,0.9932,optionRight,20,15365,7,33,0,33,0,1,,,,,,,,,,,,,,,,,,,,,,,,,,,,,,,,,,,,,,,
,,,,,,,,2023-08-16_08h33.13.503,HF_wild_card,2022.2.4,Win32,59.93407252,5d1904fd8b97090001215bdf,64d2fd46c836a06233681665,64dc7b996affa6e52df02fc4,,,,,,,decisionTrl,resources/DBN.BMP,resources/DY.BMP,Door2,-0.375,-0.014322917,1,0,0,0.9934,optionLeft,20,15385,7,34,0,34,0,1,,,,,,,,,,,,,,,,,,,,,,,,,,,,,,,,,,,,,,,
,,,,,,,,2023-08-16_08h33.13.503,HF_wild_card,2022.2.4,Win32,59.93407252,5d1904fd8b97090001215bdf,64d2fd46c836a06233681665,64dc7b996affa6e52df02fc4,,,,,,,decisionTrl,resources/DB.BMP,resources/DR.BMP,Door3,0.221354167,-0.010416667,1,0,0,0.9438,optionRight,70,15455,7,35,0,35,0,1,,,,,,,,,,,,,,,,,,,,,,,,,,,,,,,,,,,,,,,
,,,,,,,,2023-08-16_08h33.13.503,HF_wild_card,2022.2.4,Win32,59.93407252,5d1904fd8b97090001215bdf,64d2fd46c836a06233681665,64dc7b996affa6e52df02fc4,,,,,,,,,,,,,,,,,,,,,,,,,,6,0,6,0,1,,,,,,,,,,,,,,,,,,,,,,,,,,,,,,,,,,
,,,,,,,,2023-08-16_08h33.13.503,HF_wild_card,2022.2.4,Win32,59.93407252,5d1904fd8b97090001215bdf,64d2fd46c836a06233681665,64dc7b996affa6e52df02fc4,,,,,,,,,,,,,,,,,,,,,,,,,,,,,,,3,,,,,,,,,,,,,,,,,,,,,,,,,,,,,,,,,
,,,,,,,,2023-08-16_08h33.13.503,HF_wild_card,2022.2.4,Win32,59.93407252,5d1904fd8b97090001215bdf,64d2fd46c836a06233681665,64dc7b996affa6e52df02fc4,,,,,,,,,,,,,,,,,,,,,,,,,,,,,,,,,,,,,,,,,,,,,,,,,,,,,,,,,,,,,,,,
,,,,,,,,2023-08-16_08h33.13.503,HF_wild_card,2022.2.4,Win32,59.93407252,5d1904fd8b97090001215bdf,64d2fd46c836a06233681665,64dc7b996affa6e52df02fc4,,,,,,,,,,,,,,,,,,,,,,,,,,,,,,,,95,WC_extreme,resources/DG.BMP,0,0,0,0,1,,,,,,,,,,,,,,,,,,,,,,,,,
,,,,,,,,2023-08-16_08h33.13.503,HF_wild_card,2022.2.4,Win32,59.93407252,5d1904fd8b97090001215bdf,64d2fd46c836a06233681665,64dc7b996affa6e52df02fc4,,,,,,,,,,,,,,,,,,,,,,,,,,,,,,,,60,Door4,resources/DB.BMP,1,0,1,0,1,,,,,,,,,,,,,,,,,,,,,,,,,
,,,,,,,,2023-08-16_08h33.13.503,HF_wild_card,2022.2.4,Win32,59.93407252,5d1904fd8b97090001215bdf,64d2fd46c836a06233681665,64dc7b996affa6e52df02fc4,,,,,,,,,,,,,,,,,,,,,,,,,,,,,,,,70,Door3,resources/DR.BMP,2,0,2,0,1,,,,,,,,,,,,,,,,,,,,,,,,,
,,,,,,,,2023-08-16_08h33.13.503,HF_wild_card,2022.2.4,Win32,59.93407252,5d1904fd8b97090001215bdf,64d2fd46c836a06233681665,64dc7b996affa6e52df02fc4,,,,,,,,,,,,,,,,,,,,,,,,,,,,,,,,20,Door2,resources/DBN.BMP,3,0,3,0,1,,,,,,,,,,,,,,,,,,,,,,,,,
,,,,,,,,2023-08-16_08h33.13.503,HF_wild_card,2022.2.4,Win32,59.93407252,5d1904fd8b97090001215bdf,64d2fd46c836a06233681665,64dc7b996affa6e52df02fc4,,,,,,,,,,,,,,,,,,,,,,,,,,,,,,,,30,Door1,resources/DY.BMP,4,0,4,0,1,,,,,,,,,,,,,,,,,,,,,,,,,
,,,,,,,,2023-08-16_08h33.13.503,HF_wild_card,2022.2.4,Win32,59.93407252,5d1904fd8b97090001215bdf,64d2fd46c836a06233681665,64dc7b996affa6e52df02fc4,,,,,,,,,,,,,,,,,,,,,,,,,,,,,,,,55,WC_nonExtreme,resources/DP.BMP,5,0,5,0,1,,,,,,,,,,,,,,,,,,,,,,,,,
,,,,,,,,2023-08-16_08h33.13.503,HF_wild_card,2022.2.4,Win32,59.93407252,5d1904fd8b97090001215bdf,64d2fd46c836a06233681665,64dc7b996affa6e52df02fc4,,,,,,,,,,,,,,,,,,,,,,,,,,,,,,,,,,,,,,,,,,,,,,,,,,,,,,,,,,,,,,,,
,,,,,,,,2023-08-16_08h33.13.503,HF_wild_card,2022.2.4,Win32,59.93407252,5d1904fd8b97090001215bdf,64d2fd46c836a06233681665,64dc7b996affa6e52df02fc4,,,,,,,,,,,,,,,,,,,,,,,,,,,,,,,,,,,,,,,,0,0,0,0,1,,,,,,,,,,,,,,,,,,,,
