Condition,Low fixed image (Door1),Low risky image (Door2),High fixed image (Door3),High risky image (Door4),Extreme Wild Card,NonExtreme Wild Card,,date,expName,psychopyVersion,OS,frameRate,PROLIFIC_PID,STUDY_ID,SESSION_ID,mouse_2.x,mouse_2.y,mouse_2.leftButton,mouse_2.midButton,mouse_2.rightButton,mouse_2.clicked_name,Trial Type,Left Option Image,Right Option Image,Chosen Door,mouse.x,mouse.y,mouse.leftButton,mouse.midButton,mouse.rightButton,mouse.time,mouse.clicked_name,Feedback,Cumulative Reward,Block,trial.thisRepN,trial.thisTrialN,trial.thisN,trial.thisIndex,trial.ran,blocks.thisRepN,blocks.thisTrialN,blocks.thisN,blocks.thisIndex,blocks.ran,Money conversion,First Outcome Reported,Shown Door (First Outcome),Displayed Image (First Outcome),outcomes.thisRepN,outcomes.thisTrialN,outcomes.thisN,outcomes.thisIndex,outcomes.ran,judgments.thisRepN,judgments.thisTrialN,judgments.thisN,judgments.thisIndex,judgments.ran,freqMouse.x,freqMouse.y,freqMouse.leftButton,freqMouse.midButton,freqMouse.rightButton,freqMouse.clicked_name,FQJ for first outcome,FQJ for second outcome,Shown Door,Displayed Image,trials.thisRepN,trials.thisTrialN,trials.thisN,trials.thisIndex,trials.ran,judgBlock.thisRepN,judgBlock.thisTrialN,judgBlock.thisN,judgBlock.thisIndex,judgBlock.ran
1,resources/DBN.BMP,resources/DB.BMP,resources/DG.BMP,resources/DR.BMP,resources/DY.BMP,resources/DP.BMP,62cbe9cf46e97288fedcc91a,2023-08-16_08h42.02.090,HF_wild_card,2022.2.4,Linux x86_64,59.99520038,62cbe9cf46e97288fedcc91a,64d2fd46c836a06233681665,64dc7d797a6b0686ea53d2b0,,,,,,,,,,,,,,,,,,,,,,,,,,,,,,,,,,,,,,,,,,,,,,,,,,,,,,,,,,,,,,,,
,,,,,,,62cbe9cf46e97288fedcc91a,2023-08-16_08h42.02.090,HF_wild_card,2022.2.4,Linux x86_64,59.99520038,62cbe9cf46e97288fedcc91a,64d2fd46c836a06233681665,64dc7d797a6b0686ea53d2b0,0.006962129,-0.423785206,1,0,0,agree,,,,,,,,,,,,,,,,,,,,,,,,,,,,,,,,,,,,,,,,,,,,,,,,,,,,,,,,,,
,,,,,,,62cbe9cf46e97288fedcc91a,2023-08-16_08h42.02.090,HF_wild_card,2022.2.4,Linux x86_64,59.99520038,62cbe9cf46e97288fedcc91a,64d2fd46c836a06233681665,64dc7d797a6b0686ea53d2b0,,,,,,,,,,,,,,,,,,,,,,,,,,,,,,,,,,,,,,,,,,,,,,,,,,,,,,,,,,,,,,,,
,,,,,,,62cbe9cf46e97288fedcc91a,2023-08-16_08h42.02.090,HF_wild_card,2022.2.4,Linux x86_64,59.99520038,62cbe9cf46e97288fedcc91a,64d2fd46c836a06233681665,64dc7d797a6b0686ea53d2b0,,,,,,,ctch,resources/DB.BMP,resources/DG.BMP,Door2,-0.26698655,-0.177083437,1,0,0,3.3258,optionLeft,40,40,1,0,0,0,0,1,,,,,,,,,,,,,,,,,,,,,,,,,,,,,,,,,,,,,,,
,,,,,,,62cbe9cf46e97288fedcc91a,2023-08-16_08h42.02.090,HF_wild_card,2022.2.4,Linux x86_64,59.99520038,62cbe9cf46e97288fedcc91a,64d2fd46c836a06233681665,64dc7d797a6b0686ea53d2b0,,,,,,,decisionTrl,resources/DB.BMP,resources/DP.BMP,WildCard_NonEx,0.361191126,0.027058207,1,0,0,1.5799,optionRight,55,95,1,1,0,1,0,1,,,,,,,,,,,,,,,,,,,,,,,,,,,,,,,,,,,,,,,
,,,,,,,62cbe9cf46e97288fedcc91a,2023-08-16_08h42.02.090,HF_wild_card,2022.2.4,Linux x86_64,59.99520038,62cbe9cf46e97288fedcc91a,64d2fd46c836a06233681665,64dc7d797a6b0686ea53d2b0,,,,,,,decisionTrl,resources/DBN.BMP,resources/DP.BMP,Door1,-0.219503026,-0.013858129,1,0,0,1.1548,optionLeft,30,125,1,2,0,2,0,1,,,,,,,,,,,,,,,,,,,,,,,,,,,,,,,,,,,,,,,
,,,,,,,62cbe9cf46e97288fedcc91a,2023-08-16_08h42.02.090,HF_wild_card,2022.2.4,Linux x86_64,59.99520038,62cbe9cf46e97288fedcc91a,64d2fd46c836a06233681665,64dc7d797a6b0686ea53d2b0,,,,,,,ctch,resources/DBN.BMP,resources/DR.BMP,Door1,-0.473652678,-0.041785912,1,0,0,1.2239,optionLeft,30,155,1,3,0,3,0,1,,,,,,,,,,,,,,,,,,,,,,,,,,,,,,,,,,,,,,,
,,,,,,,62cbe9cf46e97288fedcc91a,2023-08-16_08h42.02.090,HF_wild_card,2022.2.4,Linux x86_64,59.99520038,62cbe9cf46e97288fedcc91a,64d2fd46c836a06233681665,64dc7d797a6b0686ea53d2b0,,,,,,,sngl,resources/DB.BMP,resources/Empty.png,Door2,-0.306696062,-0.050807064,1,0,0,2.5359,optionLeft,40,195,1,4,0,4,0,1,,,,,,,,,,,,,,,,,,,,,,,,,,,,,,,,,,,,,,,
,,,,,,,62cbe9cf46e97288fedcc91a,2023-08-16_08h42.02.090,HF_wild_card,2022.2.4,Linux x86_64,59.99520038,62cbe9cf46e97288fedcc91a,64d2fd46c836a06233681665,64dc7d797a6b0686ea53d2b0,,,,,,,decisionTrl,resources/DR.BMP,resources/DG.BMP,Door3,0.249070555,-0.026397783,1,0,0,2.3211,optionRight,70,265,1,5,0,5,0,1,,,,,,,,,,,,,,,,,,,,,,,,,,,,,,,,,,,,,,,
,,,,,,,62cbe9cf46e97288fedcc91a,2023-08-16_08h42.02.090,HF_wild_card,2022.2.4,Linux x86_64,59.99520038,62cbe9cf46e97288fedcc91a,64d2fd46c836a06233681665,64dc7d797a6b0686ea53d2b0,,,,,,,ctch,resources/DBN.BMP,resources/DR.BMP,Door1,-0.40748085,-0.0030413,1,0,0,0.9567,optionLeft,30,295,1,6,0,6,0,1,,,,,,,,,,,,,,,,,,,,,,,,,,,,,,,,,,,,,,,
,,,,,,,62cbe9cf46e97288fedcc91a,2023-08-16_08h42.02.090,HF_wild_card,2022.2.4,Linux x86_64,59.99520038,62cbe9cf46e97288fedcc91a,64d2fd46c836a06233681665,64dc7d797a6b0686ea53d2b0,,,,,,,decisionTrl,resources/DG.BMP,resources/DR.BMP,Door4,0.394639869,0.000198267,1,0,0,1.1936,optionRight,60,355,1,7,0,7,0,1,,,,,,,,,,,,,,,,,,,,,,,,,,,,,,,,,,,,,,,
,,,,,,,62cbe9cf46e97288fedcc91a,2023-08-16_08h42.02.090,HF_wild_card,2022.2.4,Linux x86_64,59.99520038,62cbe9cf46e97288fedcc91a,64d2fd46c836a06233681665,64dc7d797a6b0686ea53d2b0,,,,,,,decisionTrl,resources/DBN.BMP,resources/DB.BMP,Door1,-0.303091061,-0.039039252,1,0,0,0.8624,optionLeft,30,385,1,8,0,8,0,1,,,,,,,,,,,,,,,,,,,,,,,,,,,,,,,,,,,,,,,
,,,,,,,62cbe9cf46e97288fedcc91a,2023-08-16_08h42.02.090,HF_wild_card,2022.2.4,Linux x86_64,59.99520038,62cbe9cf46e97288fedcc91a,64d2fd46c836a06233681665,64dc7d797a6b0686ea53d2b0,,,,,,,decisionTrl,resources/DR.BMP,resources/DP.BMP,WildCard_NonEx,0.280399162,-0.023686733,1,0,0,1.1536,optionRight,45,430,1,9,0,9,0,1,,,,,,,,,,,,,,,,,,,,,,,,,,,,,,,,,,,,,,,
,,,,,,,62cbe9cf46e97288fedcc91a,2023-08-16_08h42.02.090,HF_wild_card,2022.2.4,Linux x86_64,59.99520038,62cbe9cf46e97288fedcc91a,64d2fd46c836a06233681665,64dc7d797a6b0686ea53d2b0,,,,,,,sngl,resources/DR.BMP,resources/Empty.png,Door4,-0.300574702,-0.040812382,1,0,0,0.7753,optionLeft,80,510,1,10,0,10,0,1,,,,,,,,,,,,,,,,,,,,,,,,,,,,,,,,,,,,,,,
,,,,,,,62cbe9cf46e97288fedcc91a,2023-08-16_08h42.02.090,HF_wild_card,2022.2.4,Linux x86_64,59.99520038,62cbe9cf46e97288fedcc91a,64d2fd46c836a06233681665,64dc7d797a6b0686ea53d2b0,,,,,,,sngl,resources/Empty.png,resources/DB.BMP,Door2,0.411923859,-0.029811592,1,0,0,0.9911,optionRight,20,530,1,11,0,11,0,1,,,,,,,,,,,,,,,,,,,,,,,,,,,,,,,,,,,,,,,
,,,,,,,62cbe9cf46e97288fedcc91a,2023-08-16_08h42.02.090,HF_wild_card,2022.2.4,Linux x86_64,59.99520038,62cbe9cf46e97288fedcc91a,64d2fd46c836a06233681665,64dc7d797a6b0686ea53d2b0,,,,,,,sngl,resources/Empty.png,resources/DR.BMP,Door4,0.374907475,0.022519562,1,0,0,1.2199,optionRight,60,590,1,12,0,12,0,1,,,,,,,,,,,,,,,,,,,,,,,,,,,,,,,,,,,,,,,
,,,,,,,62cbe9cf46e97288fedcc91a,2023-08-16_08h42.02.090,HF_wild_card,2022.2.4,Linux x86_64,59.99520038,62cbe9cf46e97288fedcc91a,64d2fd46c836a06233681665,64dc7d797a6b0686ea53d2b0,,,,,,,decisionTrl,resources/DG.BMP,resources/DP.BMP,WildCard_NonEx,0.377402919,-0.023267923,1,0,0,1.4738,optionRight,55,645,1,13,0,13,0,1,,,,,,,,,,,,,,,,,,,,,,,,,,,,,,,,,,,,,,,
,,,,,,,62cbe9cf46e97288fedcc91a,2023-08-16_08h42.02.090,HF_wild_card,2022.2.4,Linux x86_64,59.99520038,62cbe9cf46e97288fedcc91a,64d2fd46c836a06233681665,64dc7d797a6b0686ea53d2b0,,,,,,,decisionTrl,resources/DB.BMP,resources/DBN.BMP,Door1,0.304760042,0.047167191,1,0,0,2.018,optionRight,30,675,1,14,0,14,0,1,,,,,,,,,,,,,,,,,,,,,,,,,,,,,,,,,,,,,,,
,,,,,,,62cbe9cf46e97288fedcc91a,2023-08-16_08h42.02.090,HF_wild_card,2022.2.4,Linux x86_64,59.99520038,62cbe9cf46e97288fedcc91a,64d2fd46c836a06233681665,64dc7d797a6b0686ea53d2b0,,,,,,,decisionTrl,resources/DP.BMP,resources/DG.BMP,WildCard_NonEx,-0.250927657,-0.006434116,1,0,0,1.6796,optionLeft,55,730,1,15,0,15,0,1,,,,,,,,,,,,,,,,,,,,,,,,,,,,,,,,,,,,,,,
,,,,,,,62cbe9cf46e97288fedcc91a,2023-08-16_08h42.02.090,HF_wild_card,2022.2.4,Linux x86_64,59.99520038,62cbe9cf46e97288fedcc91a,64d2fd46c836a06233681665,64dc7d797a6b0686ea53d2b0,,,,,,,sngl,resources/Empty.png,resources/DG.BMP,Door3,-0.325483811,-0.006465139,1,0,0,1.2201,optionRight,70,800,1,16,0,16,0,1,,,,,,,,,,,,,,,,,,,,,,,,,,,,,,,,,,,,,,,
,,,,,,,62cbe9cf46e97288fedcc91a,2023-08-16_08h42.02.090,HF_wild_card,2022.2.4,Linux x86_64,59.99520038,62cbe9cf46e97288fedcc91a,64d2fd46c836a06233681665,64dc7d797a6b0686ea53d2b0,,,,,,,decisionTrl,resources/DP.BMP,resources/DB.BMP,WildCard_NonEx,-0.244747633,-0.025391519,1,0,0,1.7077,optionLeft,45,845,1,17,0,17,0,1,,,,,,,,,,,,,,,,,,,,,,,,,,,,,,,,,,,,,,,
,,,,,,,62cbe9cf46e97288fedcc91a,2023-08-16_08h42.02.090,HF_wild_card,2022.2.4,Linux x86_64,59.99520038,62cbe9cf46e97288fedcc91a,64d2fd46c836a06233681665,64dc7d797a6b0686ea53d2b0,,,,,,,sngl,resources/Empty.png,resources/DP.BMP,WildCard_NonEx,0.377351914,0.009534158,1,0,0,0.6878,optionRight,55,900,1,18,0,18,0,1,,,,,,,,,,,,,,,,,,,,,,,,,,,,,,,,,,,,,,,
,,,,,,,62cbe9cf46e97288fedcc91a,2023-08-16_08h42.02.090,HF_wild_card,2022.2.4,Linux x86_64,59.99520038,62cbe9cf46e97288fedcc91a,64d2fd46c836a06233681665,64dc7d797a6b0686ea53d2b0,,,,,,,ctch,resources/DR.BMP,resources/DBN.BMP,Door1,0.351350704,-0.046012927,1,0,0,1.9103,optionRight,30,930,1,19,0,19,0,1,,,,,,,,,,,,,,,,,,,,,,,,,,,,,,,,,,,,,,,
,,,,,,,62cbe9cf46e97288fedcc91a,2023-08-16_08h42.02.090,HF_wild_card,2022.2.4,Linux x86_64,59.99520038,62cbe9cf46e97288fedcc91a,64d2fd46c836a06233681665,64dc7d797a6b0686ea53d2b0,,,,,,,decisionTrl,resources/DG.BMP,resources/DR.BMP,Door4,0.30445059,-0.010180897,1,0,0,1.9406,optionRight,60,990,1,20,0,20,0,1,,,,,,,,,,,,,,,,,,,,,,,,,,,,,,,,,,,,,,,
,,,,,,,62cbe9cf46e97288fedcc91a,2023-08-16_08h42.02.090,HF_wild_card,2022.2.4,Linux x86_64,59.99520038,62cbe9cf46e97288fedcc91a,64d2fd46c836a06233681665,64dc7d797a6b0686ea53d2b0,,,,,,,sngl,resources/Empty.png,resources/DP.BMP,WildCard_NonEx,0.308150954,-0.008697432,1,0,0,0.8551,optionRight,45,1035,1,21,0,21,0,1,,,,,,,,,,,,,,,,,,,,,,,,,,,,,,,,,,,,,,,
,,,,,,,62cbe9cf46e97288fedcc91a,2023-08-16_08h42.02.090,HF_wild_card,2022.2.4,Linux x86_64,59.99520038,62cbe9cf46e97288fedcc91a,64d2fd46c836a06233681665,64dc7d797a6b0686ea53d2b0,,,,,,,decisionTrl,resources/DB.BMP,resources/DBN.BMP,Door1,0.341524977,0.061039394,1,0,0,0.8121,optionRight,30,1065,1,22,0,22,0,1,,,,,,,,,,,,,,,,,,,,,,,,,,,,,,,,,,,,,,,
,,,,,,,62cbe9cf46e97288fedcc91a,2023-08-16_08h42.02.090,HF_wild_card,2022.2.4,Linux x86_64,59.99520038,62cbe9cf46e97288fedcc91a,64d2fd46c836a06233681665,64dc7d797a6b0686ea53d2b0,,,,,,,ctch,resources/DG.BMP,resources/DB.BMP,Door2,0.343784911,-0.014837491,1,0,0,1.472,optionRight,40,1105,1,23,0,23,0,1,,,,,,,,,,,,,,,,,,,,,,,,,,,,,,,,,,,,,,,
,,,,,,,62cbe9cf46e97288fedcc91a,2023-08-16_08h42.02.090,HF_wild_card,2022.2.4,Linux x86_64,59.99520038,62cbe9cf46e97288fedcc91a,64d2fd46c836a06233681665,64dc7d797a6b0686ea53d2b0,,,,,,,decisionTrl,resources/DP.BMP,resources/DBN.BMP,Door1,0.240596076,0.081725647,1,0,0,0.994,optionRight,30,1135,1,24,0,24,0,1,,,,,,,,,,,,,,,,,,,,,,,,,,,,,,,,,,,,,,,
,,,,,,,62cbe9cf46e97288fedcc91a,2023-08-16_08h42.02.090,HF_wild_card,2022.2.4,Linux x86_64,59.99520038,62cbe9cf46e97288fedcc91a,64d2fd46c836a06233681665,64dc7d797a6b0686ea53d2b0,,,,,,,decisionTrl,resources/DB.BMP,resources/DBN.BMP,Door1,0.403865119,0.142977964,1,0,0,0.8834,optionRight,30,1165,1,25,0,25,0,1,,,,,,,,,,,,,,,,,,,,,,,,,,,,,,,,,,,,,,,
,,,,,,,62cbe9cf46e97288fedcc91a,2023-08-16_08h42.02.090,HF_wild_card,2022.2.4,Linux x86_64,59.99520038,62cbe9cf46e97288fedcc91a,64d2fd46c836a06233681665,64dc7d797a6b0686ea53d2b0,,,,,,,ctch,resources/DG.BMP,resources/DB.BMP,Door2,0.456130262,0.002920629,1,0,0,1.3855,optionRight,20,1185,1,26,0,26,0,1,,,,,,,,,,,,,,,,,,,,,,,,,,,,,,,,,,,,,,,
,,,,,,,62cbe9cf46e97288fedcc91a,2023-08-16_08h42.02.090,HF_wild_card,2022.2.4,Linux x86_64,59.99520038,62cbe9cf46e97288fedcc91a,64d2fd46c836a06233681665,64dc7d797a6b0686ea53d2b0,,,,,,,sngl,resources/DG.BMP,resources/Empty.png,Door3,-0.224723592,-0.001781138,1,0,0,0.7964,optionLeft,70,1255,1,27,0,27,0,1,,,,,,,,,,,,,,,,,,,,,,,,,,,,,,,,,,,,,,,
,,,,,,,62cbe9cf46e97288fedcc91a,2023-08-16_08h42.02.090,HF_wild_card,2022.2.4,Linux x86_64,59.99520038,62cbe9cf46e97288fedcc91a,64d2fd46c836a06233681665,64dc7d797a6b0686ea53d2b0,,,,,,,decisionTrl,resources/DBN.BMP,resources/DB.BMP,Door2,0.312730612,-0.022284558,1,0,0,2.4706,optionRight,20,1275,1,28,0,28,0,1,,,,,,,,,,,,,,,,,,,,,,,,,,,,,,,,,,,,,,,
,,,,,,,62cbe9cf46e97288fedcc91a,2023-08-16_08h42.02.090,HF_wild_card,2022.2.4,Linux x86_64,59.99520038,62cbe9cf46e97288fedcc91a,64d2fd46c836a06233681665,64dc7d797a6b0686ea53d2b0,,,,,,,decisionTrl,resources/DB.BMP,resources/DBN.BMP,Door1,0.328423334,0.044626418,1,0,0,0.9266,optionRight,30,1305,1,29,0,29,0,1,,,,,,,,,,,,,,,,,,,,,,,,,,,,,,,,,,,,,,,
,,,,,,,62cbe9cf46e97288fedcc91a,2023-08-16_08h42.02.090,HF_wild_card,2022.2.4,Linux x86_64,59.99520038,62cbe9cf46e97288fedcc91a,64d2fd46c836a06233681665,64dc7d797a6b0686ea53d2b0,,,,,,,decisionTrl,resources/DR.BMP,resources/DG.BMP,Door4,-0.312364362,-0.01487038,1,0,0,1.0039,optionLeft,80,1385,1,30,0,30,0,1,,,,,,,,,,,,,,,,,,,,,,,,,,,,,,,,,,,,,,,
,,,,,,,62cbe9cf46e97288fedcc91a,2023-08-16_08h42.02.090,HF_wild_card,2022.2.4,Linux x86_64,59.99520038,62cbe9cf46e97288fedcc91a,64d2fd46c836a06233681665,64dc7d797a6b0686ea53d2b0,,,,,,,sngl,resources/Empty.png,resources/DBN.BMP,Door1,0.420109879,0.011875886,1,0,0,0.7761,optionRight,30,1415,1,31,0,31,0,1,,,,,,,,,,,,,,,,,,,,,,,,,,,,,,,,,,,,,,,
,,,,,,,62cbe9cf46e97288fedcc91a,2023-08-16_08h42.02.090,HF_wild_card,2022.2.4,Linux x86_64,59.99520038,62cbe9cf46e97288fedcc91a,64d2fd46c836a06233681665,64dc7d797a6b0686ea53d2b0,,,,,,,ctch,resources/DR.BMP,resources/DBN.BMP,Door1,0.303928565,0.05684243,1,0,0,0.7935,optionRight,30,1445,1,32,0,32,0,1,,,,,,,,,,,,,,,,,,,,,,,,,,,,,,,,,,,,,,,
,,,,,,,62cbe9cf46e97288fedcc91a,2023-08-16_08h42.02.090,HF_wild_card,2022.2.4,Linux x86_64,59.99520038,62cbe9cf46e97288fedcc91a,64d2fd46c836a06233681665,64dc7d797a6b0686ea53d2b0,,,,,,,decisionTrl,resources/DG.BMP,resources/DR.BMP,Door4,0.277353624,-0.026819236,1,0,0,0.7407,optionRight,80,1525,1,33,0,33,0,1,,,,,,,,,,,,,,,,,,,,,,,,,,,,,,,,,,,,,,,
,,,,,,,62cbe9cf46e97288fedcc91a,2023-08-16_08h42.02.090,HF_wild_card,2022.2.4,Linux x86_64,59.99520038,62cbe9cf46e97288fedcc91a,64d2fd46c836a06233681665,64dc7d797a6b0686ea53d2b0,,,,,,,sngl,resources/DP.BMP,resources/Empty.png,WildCard_NonEx,-0.371088696,0.076907057,1,0,0,0.8141,optionLeft,55,1580,1,34,0,34,0,1,,,,,,,,,,,,,,,,,,,,,,,,,,,,,,,,,,,,,,,
,,,,,,,62cbe9cf46e97288fedcc91a,2023-08-16_08h42.02.090,HF_wild_card,2022.2.4,Linux x86_64,59.99520038,62cbe9cf46e97288fedcc91a,64d2fd46c836a06233681665,64dc7d797a6b0686ea53d2b0,,,,,,,sngl,resources/DBN.BMP,resources/Empty.png,Door1,-0.241922561,0.005130296,1,0,0,0.669,optionLeft,30,1610,1,35,0,35,0,1,,,,,,,,,,,,,,,,,,,,,,,,,,,,,,,,,,,,,,,
,,,,,,,62cbe9cf46e97288fedcc91a,2023-08-16_08h42.02.090,HF_wild_card,2022.2.4,Linux x86_64,59.99520038,62cbe9cf46e97288fedcc91a,64d2fd46c836a06233681665,64dc7d797a6b0686ea53d2b0,,,,,,,decisionTrl,resources/DG.BMP,resources/DR.BMP,Door4,0.304188956,-0.009591305,1,0,0,0.8532,optionRight,80,1690,1,36,0,36,0,1,,,,,,,,,,,,,,,,,,,,,,,,,,,,,,,,,,,,,,,
,,,,,,,62cbe9cf46e97288fedcc91a,2023-08-16_08h42.02.090,HF_wild_card,2022.2.4,Linux x86_64,59.99520038,62cbe9cf46e97288fedcc91a,64d2fd46c836a06233681665,64dc7d797a6b0686ea53d2b0,,,,,,,decisionTrl,resources/DR.BMP,resources/DG.BMP,Door4,-0.375668354,-0.048607699,1,0,0,0.7304,optionLeft,60,1750,1,37,0,37,0,1,,,,,,,,,,,,,,,,,,,,,,,,,,,,,,,,,,,,,,,
,,,,,,,62cbe9cf46e97288fedcc91a,2023-08-16_08h42.02.090,HF_wild_card,2022.2.4,Linux x86_64,59.99520038,62cbe9cf46e97288fedcc91a,64d2fd46c836a06233681665,64dc7d797a6b0686ea53d2b0,,,,,,,decisionTrl,resources/DP.BMP,resources/DR.BMP,Door4,0.361319883,-0.023640043,1,0,0,0.6946,optionRight,80,1830,1,38,0,38,0,1,,,,,,,,,,,,,,,,,,,,,,,,,,,,,,,,,,,,,,,
,,,,,,,62cbe9cf46e97288fedcc91a,2023-08-16_08h42.02.090,HF_wild_card,2022.2.4,Linux x86_64,59.99520038,62cbe9cf46e97288fedcc91a,64d2fd46c836a06233681665,64dc7d797a6b0686ea53d2b0,,,,,,,ctch,resources/DB.BMP,resources/DG.BMP,Door2,-0.367919805,-0.055105144,1,0,0,1.3194,optionLeft,40,1870,1,39,0,39,0,1,,,,,,,,,,,,,,,,,,,,,,,,,,,,,,,,,,,,,,,
,,,,,,,62cbe9cf46e97288fedcc91a,2023-08-16_08h42.02.090,HF_wild_card,2022.2.4,Linux x86_64,59.99520038,62cbe9cf46e97288fedcc91a,64d2fd46c836a06233681665,64dc7d797a6b0686ea53d2b0,,,,,,,decisionTrl,resources/DR.BMP,resources/DG.BMP,Door4,-0.365306218,-0.058868253,1,0,0,1.0631,optionLeft,60,1930,1,40,0,40,0,1,,,,,,,,,,,,,,,,,,,,,,,,,,,,,,,,,,,,,,,
,,,,,,,62cbe9cf46e97288fedcc91a,2023-08-16_08h42.02.090,HF_wild_card,2022.2.4,Linux x86_64,59.99520038,62cbe9cf46e97288fedcc91a,64d2fd46c836a06233681665,64dc7d797a6b0686ea53d2b0,,,,,,,sngl,resources/DP.BMP,resources/Empty.png,WildCard_NonEx,-0.435778964,0.105115174,1,0,0,0.8649,optionLeft,45,1975,1,41,0,41,0,1,,,,,,,,,,,,,,,,,,,,,,,,,,,,,,,,,,,,,,,
,,,,,,,62cbe9cf46e97288fedcc91a,2023-08-16_08h42.02.090,HF_wild_card,2022.2.4,Linux x86_64,59.99520038,62cbe9cf46e97288fedcc91a,64d2fd46c836a06233681665,64dc7d797a6b0686ea53d2b0,,,,,,,decisionTrl,resources/DBN.BMP,resources/DB.BMP,Door1,-0.365145699,0.039425717,1,0,0,0.8506,optionLeft,30,2005,1,42,0,42,0,1,,,,,,,,,,,,,,,,,,,,,,,,,,,,,,,,,,,,,,,
,,,,,,,62cbe9cf46e97288fedcc91a,2023-08-16_08h42.02.090,HF_wild_card,2022.2.4,Linux x86_64,59.99520038,62cbe9cf46e97288fedcc91a,64d2fd46c836a06233681665,64dc7d797a6b0686ea53d2b0,,,,,,,decisionTrl,resources/DBN.BMP,resources/DB.BMP,Door1,-0.2422193,0.022214892,1,0,0,0.9207,optionLeft,30,2035,1,43,0,43,0,1,,,,,,,,,,,,,,,,,,,,,,,,,,,,,,,,,,,,,,,
,,,,,,,62cbe9cf46e97288fedcc91a,2023-08-16_08h42.02.090,HF_wild_card,2022.2.4,Linux x86_64,59.99520038,62cbe9cf46e97288fedcc91a,64d2fd46c836a06233681665,64dc7d797a6b0686ea53d2b0,,,,,,,,,,,,,,,,,,,,,,,,,,0,0,0,0,1,,,,,,,,,,,,,,,,,,,,,,,,,,,,,,,,,,
,,,,,,,62cbe9cf46e97288fedcc91a,2023-08-16_08h42.02.090,HF_wild_card,2022.2.4,Linux x86_64,59.99520038,62cbe9cf46e97288fedcc91a,64d2fd46c836a06233681665,64dc7d797a6b0686ea53d2b0,,,,,,,ctch,resources/DBN.BMP,resources/DR.BMP,Door1,-0.451958995,0.062969737,1,0,0,2.2414,optionLeft,30,2065,2,0,0,0,0,1,,,,,,,,,,,,,,,,,,,,,,,,,,,,,,,,,,,,,,,
,,,,,,,62cbe9cf46e97288fedcc91a,2023-08-16_08h42.02.090,HF_wild_card,2022.2.4,Linux x86_64,59.99520038,62cbe9cf46e97288fedcc91a,64d2fd46c836a06233681665,64dc7d797a6b0686ea53d2b0,,,,,,,decisionTrl,resources/DR.BMP,resources/DG.BMP,Door4,-0.418406104,0.044170909,1,0,0,0.9133,optionLeft,60,2125,2,1,0,1,0,1,,,,,,,,,,,,,,,,,,,,,,,,,,,,,,,,,,,,,,,
,,,,,,,62cbe9cf46e97288fedcc91a,2023-08-16_08h42.02.090,HF_wild_card,2022.2.4,Linux x86_64,59.99520038,62cbe9cf46e97288fedcc91a,64d2fd46c836a06233681665,64dc7d797a6b0686ea53d2b0,,,,,,,ctch,resources/DR.BMP,resources/DBN.BMP,Door1,0.241941882,-0.002663543,1,0,0,0.9142,optionRight,30,2155,2,2,0,2,0,1,,,,,,,,,,,,,,,,,,,,,,,,,,,,,,,,,,,,,,,
,,,,,,,62cbe9cf46e97288fedcc91a,2023-08-16_08h42.02.090,HF_wild_card,2022.2.4,Linux x86_64,59.99520038,62cbe9cf46e97288fedcc91a,64d2fd46c836a06233681665,64dc7d797a6b0686ea53d2b0,,,,,,,sngl,resources/DP.BMP,resources/Empty.png,WildCard_NonEx,-0.21241354,0.01180381,1,0,0,0.8403,optionLeft,55,2210,2,3,0,3,0,1,,,,,,,,,,,,,,,,,,,,,,,,,,,,,,,,,,,,,,,
,,,,,,,62cbe9cf46e97288fedcc91a,2023-08-16_08h42.02.090,HF_wild_card,2022.2.4,Linux x86_64,59.99520038,62cbe9cf46e97288fedcc91a,64d2fd46c836a06233681665,64dc7d797a6b0686ea53d2b0,,,,,,,decisionTrl,resources/DG.BMP,resources/DR.BMP,Door4,0.431289342,-0.040563693,1,0,0,1.0461,optionRight,60,2270,2,4,0,4,0,1,,,,,,,,,,,,,,,,,,,,,,,,,,,,,,,,,,,,,,,
,,,,,,,62cbe9cf46e97288fedcc91a,2023-08-16_08h42.02.090,HF_wild_card,2022.2.4,Linux x86_64,59.99520038,62cbe9cf46e97288fedcc91a,64d2fd46c836a06233681665,64dc7d797a6b0686ea53d2b0,,,,,,,decisionTrl,resources/DR.BMP,resources/DG.BMP,Door4,-0.404841099,0.026338691,1,0,0,1.0993,optionLeft,80,2350,2,5,0,5,0,1,,,,,,,,,,,,,,,,,,,,,,,,,,,,,,,,,,,,,,,
,,,,,,,62cbe9cf46e97288fedcc91a,2023-08-16_08h42.02.090,HF_wild_card,2022.2.4,Linux x86_64,59.99520038,62cbe9cf46e97288fedcc91a,64d2fd46c836a06233681665,64dc7d797a6b0686ea53d2b0,,,,,,,decisionTrl,resources/DG.BMP,resources/DR.BMP,Door4,0.443185522,-0.020759145,1,0,0,0.8233,optionRight,60,2410,2,6,0,6,0,1,,,,,,,,,,,,,,,,,,,,,,,,,,,,,,,,,,,,,,,
,,,,,,,62cbe9cf46e97288fedcc91a,2023-08-16_08h42.02.090,HF_wild_card,2022.2.4,Linux x86_64,59.99520038,62cbe9cf46e97288fedcc91a,64d2fd46c836a06233681665,64dc7d797a6b0686ea53d2b0,,,,,,,sngl,resources/Empty.png,resources/DG.BMP,Door3,0.546109145,0.02493947,1,0,0,0.7352,optionRight,70,2480,2,7,0,7,0,1,,,,,,,,,,,,,,,,,,,,,,,,,,,,,,,,,,,,,,,
,,,,,,,62cbe9cf46e97288fedcc91a,2023-08-16_08h42.02.090,HF_wild_card,2022.2.4,Linux x86_64,59.99520038,62cbe9cf46e97288fedcc91a,64d2fd46c836a06233681665,64dc7d797a6b0686ea53d2b0,,,,,,,sngl,resources/Empty.png,resources/DB.BMP,Door2,0.398728603,0.067309065,1,0,0,0.7492,optionRight,40,2520,2,8,0,8,0,1,,,,,,,,,,,,,,,,,,,,,,,,,,,,,,,,,,,,,,,
,,,,,,,62cbe9cf46e97288fedcc91a,2023-08-16_08h42.02.090,HF_wild_card,2022.2.4,Linux x86_64,59.99520038,62cbe9cf46e97288fedcc91a,64d2fd46c836a06233681665,64dc7d797a6b0686ea53d2b0,,,,,,,decisionTrl,resources/DR.BMP,resources/DG.BMP,Door4,-0.318130901,-0.001491513,1,0,0,1.2176,optionLeft,60,2580,2,9,0,9,0,1,,,,,,,,,,,,,,,,,,,,,,,,,,,,,,,,,,,,,,,
,,,,,,,62cbe9cf46e97288fedcc91a,2023-08-16_08h42.02.090,HF_wild_card,2022.2.4,Linux x86_64,59.99520038,62cbe9cf46e97288fedcc91a,64d2fd46c836a06233681665,64dc7d797a6b0686ea53d2b0,,,,,,,decisionTrl,resources/DB.BMP,resources/DP.BMP,WildCard_NonEx,0.318881167,0.005931023,1,0,0,1.7056,optionRight,55,2635,2,10,0,10,0,1,,,,,,,,,,,,,,,,,,,,,,,,,,,,,,,,,,,,,,,
,,,,,,,62cbe9cf46e97288fedcc91a,2023-08-16_08h42.02.090,HF_wild_card,2022.2.4,Linux x86_64,59.99520038,62cbe9cf46e97288fedcc91a,64d2fd46c836a06233681665,64dc7d797a6b0686ea53d2b0,,,,,,,ctch,resources/DG.BMP,resources/DB.BMP,Door2,0.313614416,-0.035596092,1,0,0,1.1435,optionRight,20,2655,2,11,0,11,0,1,,,,,,,,,,,,,,,,,,,,,,,,,,,,,,,,,,,,,,,
,,,,,,,62cbe9cf46e97288fedcc91a,2023-08-16_08h42.02.090,HF_wild_card,2022.2.4,Linux x86_64,59.99520038,62cbe9cf46e97288fedcc91a,64d2fd46c836a06233681665,64dc7d797a6b0686ea53d2b0,,,,,,,decisionTrl,resources/DB.BMP,resources/DBN.BMP,Door1,0.148362236,0.005271338,1,0,0,0.981,optionRight,30,2685,2,12,0,12,0,1,,,,,,,,,,,,,,,,,,,,,,,,,,,,,,,,,,,,,,,
,,,,,,,62cbe9cf46e97288fedcc91a,2023-08-16_08h42.02.090,HF_wild_card,2022.2.4,Linux x86_64,59.99520038,62cbe9cf46e97288fedcc91a,64d2fd46c836a06233681665,64dc7d797a6b0686ea53d2b0,,,,,,,sngl,resources/DP.BMP,resources/Empty.png,WildCard_NonEx,-0.372529981,-0.037265773,1,0,0,0.6879,optionLeft,45,2730,2,13,0,13,0,1,,,,,,,,,,,,,,,,,,,,,,,,,,,,,,,,,,,,,,,
,,,,,,,62cbe9cf46e97288fedcc91a,2023-08-16_08h42.02.090,HF_wild_card,2022.2.4,Linux x86_64,59.99520038,62cbe9cf46e97288fedcc91a,64d2fd46c836a06233681665,64dc7d797a6b0686ea53d2b0,,,,,,,decisionTrl,resources/DB.BMP,resources/DBN.BMP,Door1,0.361146575,0.055292253,1,0,0,0.62,optionRight,30,2760,2,14,0,14,0,1,,,,,,,,,,,,,,,,,,,,,,,,,,,,,,,,,,,,,,,
,,,,,,,62cbe9cf46e97288fedcc91a,2023-08-16_08h42.02.090,HF_wild_card,2022.2.4,Linux x86_64,59.99520038,62cbe9cf46e97288fedcc91a,64d2fd46c836a06233681665,64dc7d797a6b0686ea53d2b0,,,,,,,sngl,resources/Empty.png,resources/DBN.BMP,Door1,0.323249263,0.043225953,1,0,0,0.7697,optionRight,30,2790,2,15,0,15,0,1,,,,,,,,,,,,,,,,,,,,,,,,,,,,,,,,,,,,,,,
,,,,,,,62cbe9cf46e97288fedcc91a,2023-08-16_08h42.02.090,HF_wild_card,2022.2.4,Linux x86_64,59.99520038,62cbe9cf46e97288fedcc91a,64d2fd46c836a06233681665,64dc7d797a6b0686ea53d2b0,,,,,,,decisionTrl,resources/DG.BMP,resources/DR.BMP,Door4,0.353656978,0.020909128,1,0,0,0.9126,optionRight,60,2850,2,16,0,16,0,1,,,,,,,,,,,,,,,,,,,,,,,,,,,,,,,,,,,,,,,
,,,,,,,62cbe9cf46e97288fedcc91a,2023-08-16_08h42.02.090,HF_wild_card,2022.2.4,Linux x86_64,59.99520038,62cbe9cf46e97288fedcc91a,64d2fd46c836a06233681665,64dc7d797a6b0686ea53d2b0,,,,,,,sngl,resources/DR.BMP,resources/Empty.png,Door4,-0.27658913,-0.010761936,1,0,0,0.6694,optionLeft,60,2910,2,17,0,17,0,1,,,,,,,,,,,,,,,,,,,,,,,,,,,,,,,,,,,,,,,
,,,,,,,62cbe9cf46e97288fedcc91a,2023-08-16_08h42.02.090,HF_wild_card,2022.2.4,Linux x86_64,59.99520038,62cbe9cf46e97288fedcc91a,64d2fd46c836a06233681665,64dc7d797a6b0686ea53d2b0,,,,,,,sngl,resources/Empty.png,resources/DP.BMP,WildCard_NonEx,0.336843542,0.000142947,1,0,0,0.6729,optionRight,45,2955,2,18,0,18,0,1,,,,,,,,,,,,,,,,,,,,,,,,,,,,,,,,,,,,,,,
,,,,,,,62cbe9cf46e97288fedcc91a,2023-08-16_08h42.02.090,HF_wild_card,2022.2.4,Linux x86_64,59.99520038,62cbe9cf46e97288fedcc91a,64d2fd46c836a06233681665,64dc7d797a6b0686ea53d2b0,,,,,,,sngl,resources/DG.BMP,resources/Empty.png,Door3,-0.335255189,4.89836E-05,1,0,0,0.6956,optionLeft,70,3025,2,19,0,19,0,1,,,,,,,,,,,,,,,,,,,,,,,,,,,,,,,,,,,,,,,
,,,,,,,62cbe9cf46e97288fedcc91a,2023-08-16_08h42.02.090,HF_wild_card,2022.2.4,Linux x86_64,59.99520038,62cbe9cf46e97288fedcc91a,64d2fd46c836a06233681665,64dc7d797a6b0686ea53d2b0,,,,,,,decisionTrl,resources/DG.BMP,resources/DR.BMP,Door4,0.315176294,-0.039095156,1,0,0,1.2248,optionRight,60,3085,2,20,0,20,0,1,,,,,,,,,,,,,,,,,,,,,,,,,,,,,,,,,,,,,,,
,,,,,,,62cbe9cf46e97288fedcc91a,2023-08-16_08h42.02.090,HF_wild_card,2022.2.4,Linux x86_64,59.99520038,62cbe9cf46e97288fedcc91a,64d2fd46c836a06233681665,64dc7d797a6b0686ea53d2b0,,,,,,,ctch,resources/DBN.BMP,resources/DR.BMP,Door1,-0.44006231,0.170090324,1,0,0,1.109,optionLeft,30,3115,2,21,0,21,0,1,,,,,,,,,,,,,,,,,,,,,,,,,,,,,,,,,,,,,,,
,,,,,,,62cbe9cf46e97288fedcc91a,2023-08-16_08h42.02.090,HF_wild_card,2022.2.4,Linux x86_64,59.99520038,62cbe9cf46e97288fedcc91a,64d2fd46c836a06233681665,64dc7d797a6b0686ea53d2b0,,,,,,,decisionTrl,resources/DP.BMP,resources/DR.BMP,WildCard_NonEx,-0.31840346,0.052683875,1,0,0,0.7859,optionLeft,45,3160,2,22,0,22,0,1,,,,,,,,,,,,,,,,,,,,,,,,,,,,,,,,,,,,,,,
,,,,,,,62cbe9cf46e97288fedcc91a,2023-08-16_08h42.02.090,HF_wild_card,2022.2.4,Linux x86_64,59.99520038,62cbe9cf46e97288fedcc91a,64d2fd46c836a06233681665,64dc7d797a6b0686ea53d2b0,,,,,,,decisionTrl,resources/DB.BMP,resources/DBN.BMP,Door1,0.43827192,0.07183107,1,0,0,0.642,optionRight,30,3190,2,23,0,23,0,1,,,,,,,,,,,,,,,,,,,,,,,,,,,,,,,,,,,,,,,
,,,,,,,62cbe9cf46e97288fedcc91a,2023-08-16_08h42.02.090,HF_wild_card,2022.2.4,Linux x86_64,59.99520038,62cbe9cf46e97288fedcc91a,64d2fd46c836a06233681665,64dc7d797a6b0686ea53d2b0,,,,,,,decisionTrl,resources/DP.BMP,resources/DG.BMP,WildCard_NonEx,-0.291208138,0.05759981,1,0,0,1.1112,optionLeft,55,3245,2,24,0,24,0,1,,,,,,,,,,,,,,,,,,,,,,,,,,,,,,,,,,,,,,,
,,,,,,,62cbe9cf46e97288fedcc91a,2023-08-16_08h42.02.090,HF_wild_card,2022.2.4,Linux x86_64,59.99520038,62cbe9cf46e97288fedcc91a,64d2fd46c836a06233681665,64dc7d797a6b0686ea53d2b0,,,,,,,decisionTrl,resources/DB.BMP,resources/DBN.BMP,Door1,0.182584843,0.000386932,1,0,0,2.9587,optionRight,30,3275,2,25,0,25,0,1,,,,,,,,,,,,,,,,,,,,,,,,,,,,,,,,,,,,,,,
,,,,,,,62cbe9cf46e97288fedcc91a,2023-08-16_08h42.02.090,HF_wild_card,2022.2.4,Linux x86_64,59.99520038,62cbe9cf46e97288fedcc91a,64d2fd46c836a06233681665,64dc7d797a6b0686ea53d2b0,,,,,,,decisionTrl,resources/DR.BMP,resources/DP.BMP,WildCard_NonEx,0.277470796,0.038632805,1,0,0,0.7729,optionRight,55,3330,2,26,0,26,0,1,,,,,,,,,,,,,,,,,,,,,,,,,,,,,,,,,,,,,,,
,,,,,,,62cbe9cf46e97288fedcc91a,2023-08-16_08h42.02.090,HF_wild_card,2022.2.4,Linux x86_64,59.99520038,62cbe9cf46e97288fedcc91a,64d2fd46c836a06233681665,64dc7d797a6b0686ea53d2b0,,,,,,,sngl,resources/DBN.BMP,resources/Empty.png,Door1,-0.249999806,0.022860854,1,0,0,0.7204,optionLeft,30,3360,2,27,0,27,0,1,,,,,,,,,,,,,,,,,,,,,,,,,,,,,,,,,,,,,,,
,,,,,,,62cbe9cf46e97288fedcc91a,2023-08-16_08h42.02.090,HF_wild_card,2022.2.4,Linux x86_64,59.99520038,62cbe9cf46e97288fedcc91a,64d2fd46c836a06233681665,64dc7d797a6b0686ea53d2b0,,,,,,,sngl,resources/DB.BMP,resources/Empty.png,Door2,-0.243398212,-0.003228021,1,0,0,0.6803,optionLeft,20,3380,2,28,0,28,0,1,,,,,,,,,,,,,,,,,,,,,,,,,,,,,,,,,,,,,,,
,,,,,,,62cbe9cf46e97288fedcc91a,2023-08-16_08h42.02.090,HF_wild_card,2022.2.4,Linux x86_64,59.99520038,62cbe9cf46e97288fedcc91a,64d2fd46c836a06233681665,64dc7d797a6b0686ea53d2b0,,,,,,,decisionTrl,resources/DBN.BMP,resources/DP.BMP,Door1,-0.361308376,-0.001534315,1,0,0,1.032,optionLeft,30,3410,2,29,0,29,0,1,,,,,,,,,,,,,,,,,,,,,,,,,,,,,,,,,,,,,,,
,,,,,,,62cbe9cf46e97288fedcc91a,2023-08-16_08h42.02.090,HF_wild_card,2022.2.4,Linux x86_64,59.99520038,62cbe9cf46e97288fedcc91a,64d2fd46c836a06233681665,64dc7d797a6b0686ea53d2b0,,,,,,,sngl,resources/Empty.png,resources/DR.BMP,Door4,0.414253536,0.095109179,1,0,0,0.6557,optionRight,80,3490,2,30,0,30,0,1,,,,,,,,,,,,,,,,,,,,,,,,,,,,,,,,,,,,,,,
,,,,,,,62cbe9cf46e97288fedcc91a,2023-08-16_08h42.02.090,HF_wild_card,2022.2.4,Linux x86_64,59.99520038,62cbe9cf46e97288fedcc91a,64d2fd46c836a06233681665,64dc7d797a6b0686ea53d2b0,,,,,,,decisionTrl,resources/DR.BMP,resources/DG.BMP,Door4,-0.387594702,0.015811682,1,0,0,1.2833,optionLeft,60,3550,2,31,0,31,0,1,,,,,,,,,,,,,,,,,,,,,,,,,,,,,,,,,,,,,,,
,,,,,,,62cbe9cf46e97288fedcc91a,2023-08-16_08h42.02.090,HF_wild_card,2022.2.4,Linux x86_64,59.99520038,62cbe9cf46e97288fedcc91a,64d2fd46c836a06233681665,64dc7d797a6b0686ea53d2b0,,,,,,,sngl,resources/Empty.png,resources/DP.BMP,WildCard_NonEx,0.326185248,0.032738286,1,0,0,0.6334,optionRight,55,3605,2,32,0,32,0,1,,,,,,,,,,,,,,,,,,,,,,,,,,,,,,,,,,,,,,,
,,,,,,,62cbe9cf46e97288fedcc91a,2023-08-16_08h42.02.090,HF_wild_card,2022.2.4,Linux x86_64,59.99520038,62cbe9cf46e97288fedcc91a,64d2fd46c836a06233681665,64dc7d797a6b0686ea53d2b0,,,,,,,decisionTrl,resources/DBN.BMP,resources/DB.BMP,Door1,-0.381854715,0.020056386,1,0,0,0.7067,optionLeft,30,3635,2,33,0,33,0,1,,,,,,,,,,,,,,,,,,,,,,,,,,,,,,,,,,,,,,,
,,,,,,,62cbe9cf46e97288fedcc91a,2023-08-16_08h42.02.090,HF_wild_card,2022.2.4,Linux x86_64,59.99520038,62cbe9cf46e97288fedcc91a,64d2fd46c836a06233681665,64dc7d797a6b0686ea53d2b0,,,,,,,ctch,resources/DG.BMP,resources/DB.BMP,Door3,-0.404696869,0.005128042,1,0,0,0.9374,optionLeft,70,3705,2,34,0,34,0,1,,,,,,,,,,,,,,,,,,,,,,,,,,,,,,,,,,,,,,,
,,,,,,,62cbe9cf46e97288fedcc91a,2023-08-16_08h42.02.090,HF_wild_card,2022.2.4,Linux x86_64,59.99520038,62cbe9cf46e97288fedcc91a,64d2fd46c836a06233681665,64dc7d797a6b0686ea53d2b0,,,,,,,ctch,resources/DB.BMP,resources/DG.BMP,Door3,0.563459613,0.055805998,1,0,0,0.8287,optionRight,70,3775,2,35,0,35,0,1,,,,,,,,,,,,,,,,,,,,,,,,,,,,,,,,,,,,,,,
,,,,,,,62cbe9cf46e97288fedcc91a,2023-08-16_08h42.02.090,HF_wild_card,2022.2.4,Linux x86_64,59.99520038,62cbe9cf46e97288fedcc91a,64d2fd46c836a06233681665,64dc7d797a6b0686ea53d2b0,,,,,,,decisionTrl,resources/DG.BMP,resources/DP.BMP,Door3,-0.289962127,0.004192338,1,0,0,0.7378,optionLeft,70,3845,2,36,0,36,0,1,,,,,,,,,,,,,,,,,,,,,,,,,,,,,,,,,,,,,,,
,,,,,,,62cbe9cf46e97288fedcc91a,2023-08-16_08h42.02.090,HF_wild_card,2022.2.4,Linux x86_64,59.99520038,62cbe9cf46e97288fedcc91a,64d2fd46c836a06233681665,64dc7d797a6b0686ea53d2b0,,,,,,,decisionTrl,resources/DP.BMP,resources/DB.BMP,WildCard_NonEx,-0.194312612,0.000736076,1,0,0,0.7264,optionLeft,55,3900,2,37,0,37,0,1,,,,,,,,,,,,,,,,,,,,,,,,,,,,,,,,,,,,,,,
,,,,,,,62cbe9cf46e97288fedcc91a,2023-08-16_08h42.02.090,HF_wild_card,2022.2.4,Linux x86_64,59.99520038,62cbe9cf46e97288fedcc91a,64d2fd46c836a06233681665,64dc7d797a6b0686ea53d2b0,,,,,,,ctch,resources/DR.BMP,resources/DBN.BMP,Door1,0.284106834,0.034435102,1,0,0,0.714,optionRight,30,3930,2,38,0,38,0,1,,,,,,,,,,,,,,,,,,,,,,,,,,,,,,,,,,,,,,,
,,,,,,,62cbe9cf46e97288fedcc91a,2023-08-16_08h42.02.090,HF_wild_card,2022.2.4,Linux x86_64,59.99520038,62cbe9cf46e97288fedcc91a,64d2fd46c836a06233681665,64dc7d797a6b0686ea53d2b0,,,,,,,decisionTrl,resources/DBN.BMP,resources/DB.BMP,Door1,-0.387399428,0.057230295,1,0,0,0.8312,optionLeft,30,3960,2,39,0,39,0,1,,,,,,,,,,,,,,,,,,,,,,,,,,,,,,,,,,,,,,,
,,,,,,,62cbe9cf46e97288fedcc91a,2023-08-16_08h42.02.090,HF_wild_card,2022.2.4,Linux x86_64,59.99520038,62cbe9cf46e97288fedcc91a,64d2fd46c836a06233681665,64dc7d797a6b0686ea53d2b0,,,,,,,decisionTrl,resources/DBN.BMP,resources/DB.BMP,Door1,-0.319622336,0.03607928,1,0,0,0.807,optionLeft,30,3990,2,40,0,40,0,1,,,,,,,,,,,,,,,,,,,,,,,,,,,,,,,,,,,,,,,
,,,,,,,62cbe9cf46e97288fedcc91a,2023-08-16_08h42.02.090,HF_wild_card,2022.2.4,Linux x86_64,59.99520038,62cbe9cf46e97288fedcc91a,64d2fd46c836a06233681665,64dc7d797a6b0686ea53d2b0,,,,,,,decisionTrl,resources/DBN.BMP,resources/DB.BMP,Door1,-0.290815647,0.006315545,1,0,0,0.6539,optionLeft,30,4020,2,41,0,41,0,1,,,,,,,,,,,,,,,,,,,,,,,,,,,,,,,,,,,,,,,
,,,,,,,62cbe9cf46e97288fedcc91a,2023-08-16_08h42.02.090,HF_wild_card,2022.2.4,Linux x86_64,59.99520038,62cbe9cf46e97288fedcc91a,64d2fd46c836a06233681665,64dc7d797a6b0686ea53d2b0,,,,,,,decisionTrl,resources/DP.BMP,resources/DBN.BMP,Door1,0.117934772,-0.002341767,1,0,0,0.7648,optionRight,30,4050,2,42,0,42,0,1,,,,,,,,,,,,,,,,,,,,,,,,,,,,,,,,,,,,,,,
,,,,,,,62cbe9cf46e97288fedcc91a,2023-08-16_08h42.02.090,HF_wild_card,2022.2.4,Linux x86_64,59.99520038,62cbe9cf46e97288fedcc91a,64d2fd46c836a06233681665,64dc7d797a6b0686ea53d2b0,,,,,,,ctch,resources/DB.BMP,resources/DG.BMP,Door3,0.353113026,-0.002625328,1,0,0,1.5132,optionRight,70,4120,2,43,0,43,0,1,,,,,,,,,,,,,,,,,,,,,,,,,,,,,,,,,,,,,,,
,,,,,,,62cbe9cf46e97288fedcc91a,2023-08-16_08h42.02.090,HF_wild_card,2022.2.4,Linux x86_64,59.99520038,62cbe9cf46e97288fedcc91a,64d2fd46c836a06233681665,64dc7d797a6b0686ea53d2b0,,,,,,,,,,,,,,,,,,,,,,,,,,1,0,1,0,1,,,,,,,,,,,,,,,,,,,,,,,,,,,,,,,,,,
,,,,,,,62cbe9cf46e97288fedcc91a,2023-08-16_08h42.02.090,HF_wild_card,2022.2.4,Linux x86_64,59.99520038,62cbe9cf46e97288fedcc91a,64d2fd46c836a06233681665,64dc7d797a6b0686ea53d2b0,,,,,,,sngl,resources/Empty.png,resources/DG.BMP,Door3,0.453191556,-0.072631369,1,0,0,0.8594,optionRight,70,4190,3,0,0,0,0,1,,,,,,,,,,,,,,,,,,,,,,,,,,,,,,,,,,,,,,,
,,,,,,,62cbe9cf46e97288fedcc91a,2023-08-16_08h42.02.090,HF_wild_card,2022.2.4,Linux x86_64,59.99520038,62cbe9cf46e97288fedcc91a,64d2fd46c836a06233681665,64dc7d797a6b0686ea53d2b0,,,,,,,ctch,resources/DBN.BMP,resources/DR.BMP,Door1,-0.278192216,0.077492956,1,0,0,0.6971,optionLeft,30,4220,3,1,0,1,0,1,,,,,,,,,,,,,,,,,,,,,,,,,,,,,,,,,,,,,,,
,,,,,,,62cbe9cf46e97288fedcc91a,2023-08-16_08h42.02.090,HF_wild_card,2022.2.4,Linux x86_64,59.99520038,62cbe9cf46e97288fedcc91a,64d2fd46c836a06233681665,64dc7d797a6b0686ea53d2b0,,,,,,,ctch,resources/DR.BMP,resources/DBN.BMP,Door4,-0.194739314,0.058835519,1,0,0,0.6882,optionLeft,80,4300,3,2,0,2,0,1,,,,,,,,,,,,,,,,,,,,,,,,,,,,,,,,,,,,,,,
,,,,,,,62cbe9cf46e97288fedcc91a,2023-08-16_08h42.02.090,HF_wild_card,2022.2.4,Linux x86_64,59.99520038,62cbe9cf46e97288fedcc91a,64d2fd46c836a06233681665,64dc7d797a6b0686ea53d2b0,,,,,,,sngl,resources/DB.BMP,resources/Empty.png,Door2,-0.204459998,0.012753704,1,0,0,0.713,optionLeft,40,4340,3,3,0,3,0,1,,,,,,,,,,,,,,,,,,,,,,,,,,,,,,,,,,,,,,,
,,,,,,,62cbe9cf46e97288fedcc91a,2023-08-16_08h42.02.090,HF_wild_card,2022.2.4,Linux x86_64,59.99520038,62cbe9cf46e97288fedcc91a,64d2fd46c836a06233681665,64dc7d797a6b0686ea53d2b0,,,,,,,sngl,resources/Empty.png,resources/DBN.BMP,Door1,0.340459,0.03900061,1,0,0,0.6793,optionRight,30,4370,3,4,0,4,0,1,,,,,,,,,,,,,,,,,,,,,,,,,,,,,,,,,,,,,,,
,,,,,,,62cbe9cf46e97288fedcc91a,2023-08-16_08h42.02.090,HF_wild_card,2022.2.4,Linux x86_64,59.99520038,62cbe9cf46e97288fedcc91a,64d2fd46c836a06233681665,64dc7d797a6b0686ea53d2b0,,,,,,,decisionTrl,resources/DR.BMP,resources/DP.BMP,Door4,-0.231723353,0.046700214,1,0,0,0.8054,optionLeft,60,4430,3,5,0,5,0,1,,,,,,,,,,,,,,,,,,,,,,,,,,,,,,,,,,,,,,,
,,,,,,,62cbe9cf46e97288fedcc91a,2023-08-16_08h42.02.090,HF_wild_card,2022.2.4,Linux x86_64,59.99520038,62cbe9cf46e97288fedcc91a,64d2fd46c836a06233681665,64dc7d797a6b0686ea53d2b0,,,,,,,decisionTrl,resources/DP.BMP,resources/DG.BMP,Door3,0.329895875,0.030859258,1,0,0,0.8805,optionRight,70,4500,3,6,0,6,0,1,,,,,,,,,,,,,,,,,,,,,,,,,,,,,,,,,,,,,,,
,,,,,,,62cbe9cf46e97288fedcc91a,2023-08-16_08h42.02.090,HF_wild_card,2022.2.4,Linux x86_64,59.99520038,62cbe9cf46e97288fedcc91a,64d2fd46c836a06233681665,64dc7d797a6b0686ea53d2b0,,,,,,,sngl,resources/DP.BMP,resources/Empty.png,WildCard_NonEx,-0.395769175,0.02944126,1,0,0,0.6405,optionLeft,55,4555,3,7,0,7,0,1,,,,,,,,,,,,,,,,,,,,,,,,,,,,,,,,,,,,,,,
,,,,,,,62cbe9cf46e97288fedcc91a,2023-08-16_08h42.02.090,HF_wild_card,2022.2.4,Linux x86_64,59.99520038,62cbe9cf46e97288fedcc91a,64d2fd46c836a06233681665,64dc7d797a6b0686ea53d2b0,,,,,,,decisionTrl,resources/DG.BMP,resources/DR.BMP,Door4,0.440140762,0.005164663,1,0,0,1.1183,optionRight,80,4635,3,8,0,8,0,1,,,,,,,,,,,,,,,,,,,,,,,,,,,,,,,,,,,,,,,
,,,,,,,62cbe9cf46e97288fedcc91a,2023-08-16_08h42.02.090,HF_wild_card,2022.2.4,Linux x86_64,59.99520038,62cbe9cf46e97288fedcc91a,64d2fd46c836a06233681665,64dc7d797a6b0686ea53d2b0,,,,,,,decisionTrl,resources/DBN.BMP,resources/DB.BMP,Door1,-0.320912744,0.051455397,1,0,0,0.6333,optionLeft,30,4665,3,9,0,9,0,1,,,,,,,,,,,,,,,,,,,,,,,,,,,,,,,,,,,,,,,
,,,,,,,62cbe9cf46e97288fedcc91a,2023-08-16_08h42.02.090,HF_wild_card,2022.2.4,Linux x86_64,59.99520038,62cbe9cf46e97288fedcc91a,64d2fd46c836a06233681665,64dc7d797a6b0686ea53d2b0,,,,,,,decisionTrl,resources/DB.BMP,resources/DBN.BMP,Door1,0.292743581,0.070436631,1,0,0,2.2437,optionRight,30,4695,3,10,0,10,0,1,,,,,,,,,,,,,,,,,,,,,,,,,,,,,,,,,,,,,,,
,,,,,,,62cbe9cf46e97288fedcc91a,2023-08-16_08h42.02.090,HF_wild_card,2022.2.4,Linux x86_64,59.99520038,62cbe9cf46e97288fedcc91a,64d2fd46c836a06233681665,64dc7d797a6b0686ea53d2b0,,,,,,,decisionTrl,resources/DR.BMP,resources/DG.BMP,Door3,0.20504197,0.000244529,1,0,0,0.6858,optionRight,70,4765,3,11,0,11,0,1,,,,,,,,,,,,,,,,,,,,,,,,,,,,,,,,,,,,,,,
,,,,,,,62cbe9cf46e97288fedcc91a,2023-08-16_08h42.02.090,HF_wild_card,2022.2.4,Linux x86_64,59.99520038,62cbe9cf46e97288fedcc91a,64d2fd46c836a06233681665,64dc7d797a6b0686ea53d2b0,,,,,,,ctch,resources/DR.BMP,resources/DBN.BMP,Door4,-0.505291709,-0.004443515,1,0,0,1.4984,optionLeft,80,4845,3,12,0,12,0,1,,,,,,,,,,,,,,,,,,,,,,,,,,,,,,,,,,,,,,,
,,,,,,,62cbe9cf46e97288fedcc91a,2023-08-16_08h42.02.090,HF_wild_card,2022.2.4,Linux x86_64,59.99520038,62cbe9cf46e97288fedcc91a,64d2fd46c836a06233681665,64dc7d797a6b0686ea53d2b0,,,,,,,ctch,resources/DB.BMP,resources/DG.BMP,Door3,0.244750355,-0.003951346,1,0,0,0.6947,optionRight,70,4915,3,13,0,13,0,1,,,,,,,,,,,,,,,,,,,,,,,,,,,,,,,,,,,,,,,
,,,,,,,62cbe9cf46e97288fedcc91a,2023-08-16_08h42.02.090,HF_wild_card,2022.2.4,Linux x86_64,59.99520038,62cbe9cf46e97288fedcc91a,64d2fd46c836a06233681665,64dc7d797a6b0686ea53d2b0,,,,,,,decisionTrl,resources/DB.BMP,resources/DP.BMP,WildCard_NonEx,0.295253953,-0.020928877,1,0,0,0.7415,optionRight,55,4970,3,14,0,14,0,1,,,,,,,,,,,,,,,,,,,,,,,,,,,,,,,,,,,,,,,
,,,,,,,62cbe9cf46e97288fedcc91a,2023-08-16_08h42.02.090,HF_wild_card,2022.2.4,Linux x86_64,59.99520038,62cbe9cf46e97288fedcc91a,64d2fd46c836a06233681665,64dc7d797a6b0686ea53d2b0,,,,,,,decisionTrl,resources/DP.BMP,resources/DBN.BMP,WildCard_NonEx,-0.20506273,0.008353652,1,0,0,1.0813,optionLeft,45,5015,3,15,0,15,0,1,,,,,,,,,,,,,,,,,,,,,,,,,,,,,,,,,,,,,,,
,,,,,,,62cbe9cf46e97288fedcc91a,2023-08-16_08h42.02.090,HF_wild_card,2022.2.4,Linux x86_64,59.99520038,62cbe9cf46e97288fedcc91a,64d2fd46c836a06233681665,64dc7d797a6b0686ea53d2b0,,,,,,,sngl,resources/DR.BMP,resources/Empty.png,Door4,-0.417680602,0.038490713,1,0,0,0.7289,optionLeft,80,5095,3,16,0,16,0,1,,,,,,,,,,,,,,,,,,,,,,,,,,,,,,,,,,,,,,,
,,,,,,,62cbe9cf46e97288fedcc91a,2023-08-16_08h42.02.090,HF_wild_card,2022.2.4,Linux x86_64,59.99520038,62cbe9cf46e97288fedcc91a,64d2fd46c836a06233681665,64dc7d797a6b0686ea53d2b0,,,,,,,decisionTrl,resources/DBN.BMP,resources/DP.BMP,Door1,-0.40314852,0.021725017,1,0,0,1.2669,optionLeft,30,5125,3,17,0,17,0,1,,,,,,,,,,,,,,,,,,,,,,,,,,,,,,,,,,,,,,,
,,,,,,,62cbe9cf46e97288fedcc91a,2023-08-16_08h42.02.090,HF_wild_card,2022.2.4,Linux x86_64,59.99520038,62cbe9cf46e97288fedcc91a,64d2fd46c836a06233681665,64dc7d797a6b0686ea53d2b0,,,,,,,decisionTrl,resources/DG.BMP,resources/DR.BMP,Door4,0.429352856,-0.026494662,1,0,0,0.7628,optionRight,80,5205,3,18,0,18,0,1,,,,,,,,,,,,,,,,,,,,,,,,,,,,,,,,,,,,,,,
,,,,,,,62cbe9cf46e97288fedcc91a,2023-08-16_08h42.02.090,HF_wild_card,2022.2.4,Linux x86_64,59.99520038,62cbe9cf46e97288fedcc91a,64d2fd46c836a06233681665,64dc7d797a6b0686ea53d2b0,,,,,,,decisionTrl,resources/DG.BMP,resources/DP.BMP,Door3,-0.258261439,0.007024136,1,0,0,0.7737,optionLeft,70,5275,3,19,0,19,0,1,,,,,,,,,,,,,,,,,,,,,,,,,,,,,,,,,,,,,,,
,,,,,,,62cbe9cf46e97288fedcc91a,2023-08-16_08h42.02.090,HF_wild_card,2022.2.4,Linux x86_64,59.99520038,62cbe9cf46e97288fedcc91a,64d2fd46c836a06233681665,64dc7d797a6b0686ea53d2b0,,,,,,,decisionTrl,resources/DBN.BMP,resources/DB.BMP,Door1,-0.202660122,0.03525414,1,0,0,1.5359,optionLeft,30,5305,3,20,0,20,0,1,,,,,,,,,,,,,,,,,,,,,,,,,,,,,,,,,,,,,,,
,,,,,,,62cbe9cf46e97288fedcc91a,2023-08-16_08h42.02.090,HF_wild_card,2022.2.4,Linux x86_64,59.99520038,62cbe9cf46e97288fedcc91a,64d2fd46c836a06233681665,64dc7d797a6b0686ea53d2b0,,,,,,,sngl,resources/Empty.png,resources/DP.BMP,WildCard_NonEx,0.178532964,-0.012298856,1,0,0,0.7711,optionRight,45,5350,3,21,0,21,0,1,,,,,,,,,,,,,,,,,,,,,,,,,,,,,,,,,,,,,,,
,,,,,,,62cbe9cf46e97288fedcc91a,2023-08-16_08h42.02.090,HF_wild_card,2022.2.4,Linux x86_64,59.99520038,62cbe9cf46e97288fedcc91a,64d2fd46c836a06233681665,64dc7d797a6b0686ea53d2b0,,,,,,,sngl,resources/DP.BMP,resources/Empty.png,WildCard_NonEx,-0.284841627,0.022887484,1,0,0,0.731,optionLeft,45,5395,3,22,0,22,0,1,,,,,,,,,,,,,,,,,,,,,,,,,,,,,,,,,,,,,,,
,,,,,,,62cbe9cf46e97288fedcc91a,2023-08-16_08h42.02.090,HF_wild_card,2022.2.4,Linux x86_64,59.99520038,62cbe9cf46e97288fedcc91a,64d2fd46c836a06233681665,64dc7d797a6b0686ea53d2b0,,,,,,,ctch,resources/DB.BMP,resources/DG.BMP,Door3,0.38232243,-0.029676848,1,0,0,0.9986,optionRight,70,5465,3,23,0,23,0,1,,,,,,,,,,,,,,,,,,,,,,,,,,,,,,,,,,,,,,,
,,,,,,,62cbe9cf46e97288fedcc91a,2023-08-16_08h42.02.090,HF_wild_card,2022.2.4,Linux x86_64,59.99520038,62cbe9cf46e97288fedcc91a,64d2fd46c836a06233681665,64dc7d797a6b0686ea53d2b0,,,,,,,sngl,resources/DG.BMP,resources/Empty.png,Door3,-0.152074807,-0.001299699,1,0,0,0.7389,optionLeft,70,5535,3,24,0,24,0,1,,,,,,,,,,,,,,,,,,,,,,,,,,,,,,,,,,,,,,,
,,,,,,,62cbe9cf46e97288fedcc91a,2023-08-16_08h42.02.090,HF_wild_card,2022.2.4,Linux x86_64,59.99520038,62cbe9cf46e97288fedcc91a,64d2fd46c836a06233681665,64dc7d797a6b0686ea53d2b0,,,,,,,decisionTrl,resources/DP.BMP,resources/DR.BMP,Door4,0.451986247,-0.019811856,1,0,0,1.3921,optionRight,80,5615,3,25,0,25,0,1,,,,,,,,,,,,,,,,,,,,,,,,,,,,,,,,,,,,,,,
,,,,,,,62cbe9cf46e97288fedcc91a,2023-08-16_08h42.02.090,HF_wild_card,2022.2.4,Linux x86_64,59.99520038,62cbe9cf46e97288fedcc91a,64d2fd46c836a06233681665,64dc7d797a6b0686ea53d2b0,,,,,,,decisionTrl,resources/DR.BMP,resources/DG.BMP,Door4,-0.411855127,0.007385371,1,0,0,0.7134,optionLeft,80,5695,3,26,0,26,0,1,,,,,,,,,,,,,,,,,,,,,,,,,,,,,,,,,,,,,,,
,,,,,,,62cbe9cf46e97288fedcc91a,2023-08-16_08h42.02.090,HF_wild_card,2022.2.4,Linux x86_64,59.99520038,62cbe9cf46e97288fedcc91a,64d2fd46c836a06233681665,64dc7d797a6b0686ea53d2b0,,,,,,,decisionTrl,resources/DR.BMP,resources/DG.BMP,Door4,-0.371927405,-0.007106514,1,0,0,0.7616,optionLeft,80,5775,3,27,0,27,0,1,,,,,,,,,,,,,,,,,,,,,,,,,,,,,,,,,,,,,,,
,,,,,,,62cbe9cf46e97288fedcc91a,2023-08-16_08h42.02.090,HF_wild_card,2022.2.4,Linux x86_64,59.99520038,62cbe9cf46e97288fedcc91a,64d2fd46c836a06233681665,64dc7d797a6b0686ea53d2b0,,,,,,,ctch,resources/DBN.BMP,resources/DR.BMP,Door4,0.237278096,0.019917949,1,0,0,0.9059,optionRight,60,5835,3,28,0,28,0,1,,,,,,,,,,,,,,,,,,,,,,,,,,,,,,,,,,,,,,,
,,,,,,,62cbe9cf46e97288fedcc91a,2023-08-16_08h42.02.090,HF_wild_card,2022.2.4,Linux x86_64,59.99520038,62cbe9cf46e97288fedcc91a,64d2fd46c836a06233681665,64dc7d797a6b0686ea53d2b0,,,,,,,ctch,resources/DG.BMP,resources/DB.BMP,Door3,-0.241421645,-0.016368813,1,0,0,0.7884,optionLeft,70,5905,3,29,0,29,0,1,,,,,,,,,,,,,,,,,,,,,,,,,,,,,,,,,,,,,,,
,,,,,,,62cbe9cf46e97288fedcc91a,2023-08-16_08h42.02.090,HF_wild_card,2022.2.4,Linux x86_64,59.99520038,62cbe9cf46e97288fedcc91a,64d2fd46c836a06233681665,64dc7d797a6b0686ea53d2b0,,,,,,,decisionTrl,resources/DB.BMP,resources/DBN.BMP,Door1,0.287142731,-0.008761655,1,0,0,0.6563,optionRight,30,5935,3,30,0,30,0,1,,,,,,,,,,,,,,,,,,,,,,,,,,,,,,,,,,,,,,,
,,,,,,,62cbe9cf46e97288fedcc91a,2023-08-16_08h42.02.090,HF_wild_card,2022.2.4,Linux x86_64,59.99520038,62cbe9cf46e97288fedcc91a,64d2fd46c836a06233681665,64dc7d797a6b0686ea53d2b0,,,,,,,sngl,resources/Empty.png,resources/DB.BMP,Door2,0.268371038,0.016415697,1,0,0,0.7425,optionRight,20,5955,3,31,0,31,0,1,,,,,,,,,,,,,,,,,,,,,,,,,,,,,,,,,,,,,,,
,,,,,,,62cbe9cf46e97288fedcc91a,2023-08-16_08h42.02.090,HF_wild_card,2022.2.4,Linux x86_64,59.99520038,62cbe9cf46e97288fedcc91a,64d2fd46c836a06233681665,64dc7d797a6b0686ea53d2b0,,,,,,,decisionTrl,resources/DB.BMP,resources/DBN.BMP,Door1,0.328736751,0.028623894,1,0,0,0.8538,optionRight,30,5985,3,32,0,32,0,1,,,,,,,,,,,,,,,,,,,,,,,,,,,,,,,,,,,,,,,
,,,,,,,62cbe9cf46e97288fedcc91a,2023-08-16_08h42.02.090,HF_wild_card,2022.2.4,Linux x86_64,59.99520038,62cbe9cf46e97288fedcc91a,64d2fd46c836a06233681665,64dc7d797a6b0686ea53d2b0,,,,,,,ctch,resources/DG.BMP,resources/DB.BMP,Door3,-0.324254866,-0.007998016,1,0,0,1.7119,optionLeft,70,6055,3,33,0,33,0,1,,,,,,,,,,,,,,,,,,,,,,,,,,,,,,,,,,,,,,,
,,,,,,,62cbe9cf46e97288fedcc91a,2023-08-16_08h42.02.090,HF_wild_card,2022.2.4,Linux x86_64,59.99520038,62cbe9cf46e97288fedcc91a,64d2fd46c836a06233681665,64dc7d797a6b0686ea53d2b0,,,,,,,decisionTrl,resources/DB.BMP,resources/DBN.BMP,Door1,0.349434589,0.016590638,1,0,0,0.6943,optionRight,30,6085,3,34,0,34,0,1,,,,,,,,,,,,,,,,,,,,,,,,,,,,,,,,,,,,,,,
,,,,,,,62cbe9cf46e97288fedcc91a,2023-08-16_08h42.02.090,HF_wild_card,2022.2.4,Linux x86_64,59.99520038,62cbe9cf46e97288fedcc91a,64d2fd46c836a06233681665,64dc7d797a6b0686ea53d2b0,,,,,,,decisionTrl,resources/DP.BMP,resources/DB.BMP,WildCard_NonEx,-0.209007467,-0.028298386,1,0,0,0.7451,optionLeft,55,6140,3,35,0,35,0,1,,,,,,,,,,,,,,,,,,,,,,,,,,,,,,,,,,,,,,,
,,,,,,,62cbe9cf46e97288fedcc91a,2023-08-16_08h42.02.090,HF_wild_card,2022.2.4,Linux x86_64,59.99520038,62cbe9cf46e97288fedcc91a,64d2fd46c836a06233681665,64dc7d797a6b0686ea53d2b0,,,,,,,decisionTrl,resources/DR.BMP,resources/DG.BMP,Door4,-0.2299863,0.034744788,1,0,0,1.1695,optionLeft,60,6200,3,36,0,36,0,1,,,,,,,,,,,,,,,,,,,,,,,,,,,,,,,,,,,,,,,
,,,,,,,62cbe9cf46e97288fedcc91a,2023-08-16_08h42.02.090,HF_wild_card,2022.2.4,Linux x86_64,59.99520038,62cbe9cf46e97288fedcc91a,64d2fd46c836a06233681665,64dc7d797a6b0686ea53d2b0,,,,,,,sngl,resources/Empty.png,resources/DP.BMP,WildCard_NonEx,0.168020688,-0.005783139,1,0,0,0.6703,optionRight,55,6255,3,37,0,37,0,1,,,,,,,,,,,,,,,,,,,,,,,,,,,,,,,,,,,,,,,
,,,,,,,62cbe9cf46e97288fedcc91a,2023-08-16_08h42.02.090,HF_wild_card,2022.2.4,Linux x86_64,59.99520038,62cbe9cf46e97288fedcc91a,64d2fd46c836a06233681665,64dc7d797a6b0686ea53d2b0,,,,,,,decisionTrl,resources/DBN.BMP,resources/DB.BMP,Door1,-0.222224961,0.009404818,1,0,0,1.2664,optionLeft,30,6285,3,38,0,38,0,1,,,,,,,,,,,,,,,,,,,,,,,,,,,,,,,,,,,,,,,
,,,,,,,62cbe9cf46e97288fedcc91a,2023-08-16_08h42.02.090,HF_wild_card,2022.2.4,Linux x86_64,59.99520038,62cbe9cf46e97288fedcc91a,64d2fd46c836a06233681665,64dc7d797a6b0686ea53d2b0,,,,,,,decisionTrl,resources/DBN.BMP,resources/DB.BMP,Door1,-0.322009122,-0.011308298,1,0,0,0.7977,optionLeft,30,6315,3,39,0,39,0,1,,,,,,,,,,,,,,,,,,,,,,,,,,,,,,,,,,,,,,,
,,,,,,,62cbe9cf46e97288fedcc91a,2023-08-16_08h42.02.090,HF_wild_card,2022.2.4,Linux x86_64,59.99520038,62cbe9cf46e97288fedcc91a,64d2fd46c836a06233681665,64dc7d797a6b0686ea53d2b0,,,,,,,decisionTrl,resources/DG.BMP,resources/DR.BMP,Door4,0.239302287,-0.023882162,1,0,0,0.9059,optionRight,80,6395,3,40,0,40,0,1,,,,,,,,,,,,,,,,,,,,,,,,,,,,,,,,,,,,,,,
,,,,,,,62cbe9cf46e97288fedcc91a,2023-08-16_08h42.02.090,HF_wild_card,2022.2.4,Linux x86_64,59.99520038,62cbe9cf46e97288fedcc91a,64d2fd46c836a06233681665,64dc7d797a6b0686ea53d2b0,,,,,,,sngl,resources/Empty.png,resources/DR.BMP,Door4,0.363215938,-0.049961007,1,0,0,1.3364,optionRight,60,6455,3,41,0,41,0,1,,,,,,,,,,,,,,,,,,,,,,,,,,,,,,,,,,,,,,,
,,,,,,,62cbe9cf46e97288fedcc91a,2023-08-16_08h42.02.090,HF_wild_card,2022.2.4,Linux x86_64,59.99520038,62cbe9cf46e97288fedcc91a,64d2fd46c836a06233681665,64dc7d797a6b0686ea53d2b0,,,,,,,decisionTrl,resources/DG.BMP,resources/DR.BMP,Door4,0.21480674,0.00338889,1,0,0,0.7381,optionRight,80,6535,3,42,0,42,0,1,,,,,,,,,,,,,,,,,,,,,,,,,,,,,,,,,,,,,,,
,,,,,,,62cbe9cf46e97288fedcc91a,2023-08-16_08h42.02.090,HF_wild_card,2022.2.4,Linux x86_64,59.99520038,62cbe9cf46e97288fedcc91a,64d2fd46c836a06233681665,64dc7d797a6b0686ea53d2b0,,,,,,,sngl,resources/DBN.BMP,resources/Empty.png,Door1,-0.433497843,0.055220916,1,0,0,0.6971,optionLeft,30,6565,3,43,0,43,0,1,,,,,,,,,,,,,,,,,,,,,,,,,,,,,,,,,,,,,,,
,,,,,,,62cbe9cf46e97288fedcc91a,2023-08-16_08h42.02.090,HF_wild_card,2022.2.4,Linux x86_64,59.99520038,62cbe9cf46e97288fedcc91a,64d2fd46c836a06233681665,64dc7d797a6b0686ea53d2b0,,,,,,,,,,,,,,,,,,,,,,,,,,2,0,2,0,1,,,,,,,,,,,,,,,,,,,,,,,,,,,,,,,,,,
,,,,,,,62cbe9cf46e97288fedcc91a,2023-08-16_08h42.02.090,HF_wild_card,2022.2.4,Linux x86_64,59.99520038,62cbe9cf46e97288fedcc91a,64d2fd46c836a06233681665,64dc7d797a6b0686ea53d2b0,,,,,,,decisionTrl,resources/DB.BMP,resources/DBN.BMP,Door1,0.281134539,-0.049001473,1,0,0,1.2559,optionRight,30,6595,4,0,0,0,0,1,,,,,,,,,,,,,,,,,,,,,,,,,,,,,,,,,,,,,,,
,,,,,,,62cbe9cf46e97288fedcc91a,2023-08-16_08h42.02.090,HF_wild_card,2022.2.4,Linux x86_64,59.99520038,62cbe9cf46e97288fedcc91a,64d2fd46c836a06233681665,64dc7d797a6b0686ea53d2b0,,,,,,,sngl,resources/Empty.png,resources/DY.BMP,WildCard_Ex,0.316380203,0.017009332,1,0,0,0.9044,optionRight,95,6690,4,1,0,1,0,1,,,,,,,,,,,,,,,,,,,,,,,,,,,,,,,,,,,,,,,
,,,,,,,62cbe9cf46e97288fedcc91a,2023-08-16_08h42.02.090,HF_wild_card,2022.2.4,Linux x86_64,59.99520038,62cbe9cf46e97288fedcc91a,64d2fd46c836a06233681665,64dc7d797a6b0686ea53d2b0,,,,,,,decisionTrl,resources/DR.BMP,resources/DG.BMP,Door4,-0.364401303,0.0103212,1,0,0,1.1213,optionLeft,60,6750,4,2,0,2,0,1,,,,,,,,,,,,,,,,,,,,,,,,,,,,,,,,,,,,,,,
,,,,,,,62cbe9cf46e97288fedcc91a,2023-08-16_08h42.02.090,HF_wild_card,2022.2.4,Linux x86_64,59.99520038,62cbe9cf46e97288fedcc91a,64d2fd46c836a06233681665,64dc7d797a6b0686ea53d2b0,,,,,,,sngl,resources/DG.BMP,resources/Empty.png,Door3,-0.254856532,0.006873297,1,0,0,0.729,optionLeft,70,6820,4,3,0,3,0,1,,,,,,,,,,,,,,,,,,,,,,,,,,,,,,,,,,,,,,,
,,,,,,,62cbe9cf46e97288fedcc91a,2023-08-16_08h42.02.090,HF_wild_card,2022.2.4,Linux x86_64,59.99520038,62cbe9cf46e97288fedcc91a,64d2fd46c836a06233681665,64dc7d797a6b0686ea53d2b0,,,,,,,decisionTrl,resources/DY.BMP,resources/DG.BMP,WildCard_Ex,-0.33367675,0.082893945,1,0,0,1.301,optionLeft,95,6915,4,4,0,4,0,1,,,,,,,,,,,,,,,,,,,,,,,,,,,,,,,,,,,,,,,
,,,,,,,62cbe9cf46e97288fedcc91a,2023-08-16_08h42.02.090,HF_wild_card,2022.2.4,Linux x86_64,59.99520038,62cbe9cf46e97288fedcc91a,64d2fd46c836a06233681665,64dc7d797a6b0686ea53d2b0,,,,,,,sngl,resources/Empty.png,resources/DG.BMP,Door3,0.349866967,-0.00739058,1,0,0,0.7147,optionRight,70,6985,4,5,0,5,0,1,,,,,,,,,,,,,,,,,,,,,,,,,,,,,,,,,,,,,,,
,,,,,,,62cbe9cf46e97288fedcc91a,2023-08-16_08h42.02.090,HF_wild_card,2022.2.4,Linux x86_64,59.99520038,62cbe9cf46e97288fedcc91a,64d2fd46c836a06233681665,64dc7d797a6b0686ea53d2b0,,,,,,,decisionTrl,resources/DB.BMP,resources/DBN.BMP,Door1,0.182099672,0.015182204,1,0,0,1.0563,optionRight,30,7015,4,6,0,6,0,1,,,,,,,,,,,,,,,,,,,,,,,,,,,,,,,,,,,,,,,
,,,,,,,62cbe9cf46e97288fedcc91a,2023-08-16_08h42.02.090,HF_wild_card,2022.2.4,Linux x86_64,59.99520038,62cbe9cf46e97288fedcc91a,64d2fd46c836a06233681665,64dc7d797a6b0686ea53d2b0,,,,,,,decisionTrl,resources/DG.BMP,resources/DR.BMP,Door4,0.594009535,-0.048463236,1,0,0,2.0662,optionRight,80,7095,4,7,0,7,0,1,,,,,,,,,,,,,,,,,,,,,,,,,,,,,,,,,,,,,,,
,,,,,,,62cbe9cf46e97288fedcc91a,2023-08-16_08h42.02.090,HF_wild_card,2022.2.4,Linux x86_64,59.99520038,62cbe9cf46e97288fedcc91a,64d2fd46c836a06233681665,64dc7d797a6b0686ea53d2b0,,,,,,,decisionTrl,resources/DY.BMP,resources/DBN.BMP,WildCard_Ex,-0.516690394,0.087335633,1,0,0,0.7824,optionLeft,95,7190,4,8,0,8,0,1,,,,,,,,,,,,,,,,,,,,,,,,,,,,,,,,,,,,,,,
,,,,,,,62cbe9cf46e97288fedcc91a,2023-08-16_08h42.02.090,HF_wild_card,2022.2.4,Linux x86_64,59.99520038,62cbe9cf46e97288fedcc91a,64d2fd46c836a06233681665,64dc7d797a6b0686ea53d2b0,,,,,,,decisionTrl,resources/DB.BMP,resources/DBN.BMP,Door1,0.339705196,-0.009568291,1,0,0,0.8364,optionRight,30,7220,4,9,0,9,0,1,,,,,,,,,,,,,,,,,,,,,,,,,,,,,,,,,,,,,,,
,,,,,,,62cbe9cf46e97288fedcc91a,2023-08-16_08h42.02.090,HF_wild_card,2022.2.4,Linux x86_64,59.99520038,62cbe9cf46e97288fedcc91a,64d2fd46c836a06233681665,64dc7d797a6b0686ea53d2b0,,,,,,,sngl,resources/Empty.png,resources/DY.BMP,WildCard_Ex,0.439052392,-0.018056376,1,0,0,0.7948,optionRight,5,7225,4,10,0,10,0,1,,,,,,,,,,,,,,,,,,,,,,,,,,,,,,,,,,,,,,,
,,,,,,,62cbe9cf46e97288fedcc91a,2023-08-16_08h42.02.090,HF_wild_card,2022.2.4,Linux x86_64,59.99520038,62cbe9cf46e97288fedcc91a,64d2fd46c836a06233681665,64dc7d797a6b0686ea53d2b0,,,,,,,ctch,resources/DG.BMP,resources/DB.BMP,Door3,-0.366891654,-0.026507452,1,0,0,0.8454,optionLeft,70,7295,4,11,0,11,0,1,,,,,,,,,,,,,,,,,,,,,,,,,,,,,,,,,,,,,,,
,,,,,,,62cbe9cf46e97288fedcc91a,2023-08-16_08h42.02.090,HF_wild_card,2022.2.4,Linux x86_64,59.99520038,62cbe9cf46e97288fedcc91a,64d2fd46c836a06233681665,64dc7d797a6b0686ea53d2b0,,,,,,,ctch,resources/DBN.BMP,resources/DR.BMP,Door4,0.426910206,-0.01181664,1,0,0,1.4811,optionRight,80,7375,4,12,0,12,0,1,,,,,,,,,,,,,,,,,,,,,,,,,,,,,,,,,,,,,,,
,,,,,,,62cbe9cf46e97288fedcc91a,2023-08-16_08h42.02.090,HF_wild_card,2022.2.4,Linux x86_64,59.99520038,62cbe9cf46e97288fedcc91a,64d2fd46c836a06233681665,64dc7d797a6b0686ea53d2b0,,,,,,,sngl,resources/DB.BMP,resources/Empty.png,Door2,-0.430807903,0.075271704,1,0,0,0.6506,optionLeft,20,7395,4,13,0,13,0,1,,,,,,,,,,,,,,,,,,,,,,,,,,,,,,,,,,,,,,,
,,,,,,,62cbe9cf46e97288fedcc91a,2023-08-16_08h42.02.090,HF_wild_card,2022.2.4,Linux x86_64,59.99520038,62cbe9cf46e97288fedcc91a,64d2fd46c836a06233681665,64dc7d797a6b0686ea53d2b0,,,,,,,sngl,resources/Empty.png,resources/DR.BMP,Door4,0.245688274,0.016469346,1,0,0,0.9082,optionRight,80,7475,4,14,0,14,0,1,,,,,,,,,,,,,,,,,,,,,,,,,,,,,,,,,,,,,,,
,,,,,,,62cbe9cf46e97288fedcc91a,2023-08-16_08h42.02.090,HF_wild_card,2022.2.4,Linux x86_64,59.99520038,62cbe9cf46e97288fedcc91a,64d2fd46c836a06233681665,64dc7d797a6b0686ea53d2b0,,,,,,,ctch,resources/DR.BMP,resources/DBN.BMP,Door4,-0.485443115,0.020643139,1,0,0,1.1769,optionLeft,60,7535,4,15,0,15,0,1,,,,,,,,,,,,,,,,,,,,,,,,,,,,,,,,,,,,,,,
,,,,,,,62cbe9cf46e97288fedcc91a,2023-08-16_08h42.02.090,HF_wild_card,2022.2.4,Linux x86_64,59.99520038,62cbe9cf46e97288fedcc91a,64d2fd46c836a06233681665,64dc7d797a6b0686ea53d2b0,,,,,,,decisionTrl,resources/DB.BMP,resources/DBN.BMP,Door1,0.2214766,-0.00402832,1,0,0,0.9051,optionRight,30,7565,4,16,0,16,0,1,,,,,,,,,,,,,,,,,,,,,,,,,,,,,,,,,,,,,,,
,,,,,,,62cbe9cf46e97288fedcc91a,2023-08-16_08h42.02.090,HF_wild_card,2022.2.4,Linux x86_64,59.99520038,62cbe9cf46e97288fedcc91a,64d2fd46c836a06233681665,64dc7d797a6b0686ea53d2b0,,,,,,,decisionTrl,resources/DR.BMP,resources/DY.BMP,WildCard_Ex,0.253335008,0.014684903,1,0,0,0.7967,optionRight,95,7660,4,17,0,17,0,1,,,,,,,,,,,,,,,,,,,,,,,,,,,,,,,,,,,,,,,
,,,,,,,62cbe9cf46e97288fedcc91a,2023-08-16_08h42.02.090,HF_wild_card,2022.2.4,Linux x86_64,59.99520038,62cbe9cf46e97288fedcc91a,64d2fd46c836a06233681665,64dc7d797a6b0686ea53d2b0,,,,,,,decisionTrl,resources/DR.BMP,resources/DG.BMP,Door4,-0.187894746,0.010932524,1,0,0,0.9696,optionLeft,60,7720,4,18,0,18,0,1,,,,,,,,,,,,,,,,,,,,,,,,,,,,,,,,,,,,,,,
,,,,,,,62cbe9cf46e97288fedcc91a,2023-08-16_08h42.02.090,HF_wild_card,2022.2.4,Linux x86_64,59.99520038,62cbe9cf46e97288fedcc91a,64d2fd46c836a06233681665,64dc7d797a6b0686ea53d2b0,,,,,,,ctch,resources/DB.BMP,resources/DG.BMP,Door3,0.303282603,0.011687105,1,0,0,0.6539,optionRight,70,7790,4,19,0,19,0,1,,,,,,,,,,,,,,,,,,,,,,,,,,,,,,,,,,,,,,,
,,,,,,,62cbe9cf46e97288fedcc91a,2023-08-16_08h42.02.090,HF_wild_card,2022.2.4,Linux x86_64,59.99520038,62cbe9cf46e97288fedcc91a,64d2fd46c836a06233681665,64dc7d797a6b0686ea53d2b0,,,,,,,ctch,resources/DG.BMP,resources/DB.BMP,Door3,-0.301195084,0.008775106,1,0,0,0.6621,optionLeft,70,7860,4,20,0,20,0,1,,,,,,,,,,,,,,,,,,,,,,,,,,,,,,,,,,,,,,,
,,,,,,,62cbe9cf46e97288fedcc91a,2023-08-16_08h42.02.090,HF_wild_card,2022.2.4,Linux x86_64,59.99520038,62cbe9cf46e97288fedcc91a,64d2fd46c836a06233681665,64dc7d797a6b0686ea53d2b0,,,,,,,decisionTrl,resources/DB.BMP,resources/DY.BMP,WildCard_Ex,0.144709613,-0.006806081,1,0,0,0.8185,optionRight,5,7865,4,21,0,21,0,1,,,,,,,,,,,,,,,,,,,,,,,,,,,,,,,,,,,,,,,
,,,,,,,62cbe9cf46e97288fedcc91a,2023-08-16_08h42.02.090,HF_wild_card,2022.2.4,Linux x86_64,59.99520038,62cbe9cf46e97288fedcc91a,64d2fd46c836a06233681665,64dc7d797a6b0686ea53d2b0,,,,,,,sngl,resources/Empty.png,resources/DBN.BMP,Door1,0.146434847,-0.002507729,1,0,0,0.7101,optionRight,30,7895,4,22,0,22,0,1,,,,,,,,,,,,,,,,,,,,,,,,,,,,,,,,,,,,,,,
,,,,,,,62cbe9cf46e97288fedcc91a,2023-08-16_08h42.02.090,HF_wild_card,2022.2.4,Linux x86_64,59.99520038,62cbe9cf46e97288fedcc91a,64d2fd46c836a06233681665,64dc7d797a6b0686ea53d2b0,,,,,,,decisionTrl,resources/DBN.BMP,resources/DB.BMP,Door1,-0.340040695,0.001125418,1,0,0,1.0447,optionLeft,30,7925,4,23,0,23,0,1,,,,,,,,,,,,,,,,,,,,,,,,,,,,,,,,,,,,,,,
,,,,,,,62cbe9cf46e97288fedcc91a,2023-08-16_08h42.02.090,HF_wild_card,2022.2.4,Linux x86_64,59.99520038,62cbe9cf46e97288fedcc91a,64d2fd46c836a06233681665,64dc7d797a6b0686ea53d2b0,,,,,,,decisionTrl,resources/DY.BMP,resources/DR.BMP,WildCard_Ex,-0.20379351,-0.018533384,1,0,0,0.7189,optionLeft,95,8020,4,24,0,24,0,1,,,,,,,,,,,,,,,,,,,,,,,,,,,,,,,,,,,,,,,
,,,,,,,62cbe9cf46e97288fedcc91a,2023-08-16_08h42.02.090,HF_wild_card,2022.2.4,Linux x86_64,59.99520038,62cbe9cf46e97288fedcc91a,64d2fd46c836a06233681665,64dc7d797a6b0686ea53d2b0,,,,,,,decisionTrl,resources/DBN.BMP,resources/DB.BMP,Door1,-0.203457233,0.028898436,1,0,0,0.8534,optionLeft,30,8050,4,25,0,25,0,1,,,,,,,,,,,,,,,,,,,,,,,,,,,,,,,,,,,,,,,
,,,,,,,62cbe9cf46e97288fedcc91a,2023-08-16_08h42.02.090,HF_wild_card,2022.2.4,Linux x86_64,59.99520038,62cbe9cf46e97288fedcc91a,64d2fd46c836a06233681665,64dc7d797a6b0686ea53d2b0,,,,,,,decisionTrl,resources/DR.BMP,resources/DG.BMP,Door4,-0.378118119,0.015231576,1,0,0,1.0193,optionLeft,60,8110,4,26,0,26,0,1,,,,,,,,,,,,,,,,,,,,,,,,,,,,,,,,,,,,,,,
,,,,,,,62cbe9cf46e97288fedcc91a,2023-08-16_08h42.02.090,HF_wild_card,2022.2.4,Linux x86_64,59.99520038,62cbe9cf46e97288fedcc91a,64d2fd46c836a06233681665,64dc7d797a6b0686ea53d2b0,,,,,,,sngl,resources/Empty.png,resources/DB.BMP,Door2,0.289896777,-0.057912178,1,0,0,0.7833,optionRight,40,8150,4,27,0,27,0,1,,,,,,,,,,,,,,,,,,,,,,,,,,,,,,,,,,,,,,,
,,,,,,,62cbe9cf46e97288fedcc91a,2023-08-16_08h42.02.090,HF_wild_card,2022.2.4,Linux x86_64,59.99520038,62cbe9cf46e97288fedcc91a,64d2fd46c836a06233681665,64dc7d797a6b0686ea53d2b0,,,,,,,ctch,resources/DR.BMP,resources/DBN.BMP,Door4,-0.332131472,0.005204238,1,0,0,0.9079,optionLeft,60,8210,4,28,0,28,0,1,,,,,,,,,,,,,,,,,,,,,,,,,,,,,,,,,,,,,,,
,,,,,,,62cbe9cf46e97288fedcc91a,2023-08-16_08h42.02.090,HF_wild_card,2022.2.4,Linux x86_64,59.99520038,62cbe9cf46e97288fedcc91a,64d2fd46c836a06233681665,64dc7d797a6b0686ea53d2b0,,,,,,,decisionTrl,resources/DBN.BMP,resources/DB.BMP,Door1,-0.367669483,0.002181987,1,0,0,0.9841,optionLeft,30,8240,4,29,0,29,0,1,,,,,,,,,,,,,,,,,,,,,,,,,,,,,,,,,,,,,,,
,,,,,,,62cbe9cf46e97288fedcc91a,2023-08-16_08h42.02.090,HF_wild_card,2022.2.4,Linux x86_64,59.99520038,62cbe9cf46e97288fedcc91a,64d2fd46c836a06233681665,64dc7d797a6b0686ea53d2b0,,,,,,,decisionTrl,resources/DG.BMP,resources/DR.BMP,Door4,0.28509436,-0.013969548,1,0,0,0.765,optionRight,80,8320,4,30,0,30,0,1,,,,,,,,,,,,,,,,,,,,,,,,,,,,,,,,,,,,,,,
,,,,,,,62cbe9cf46e97288fedcc91a,2023-08-16_08h42.02.090,HF_wild_card,2022.2.4,Linux x86_64,59.99520038,62cbe9cf46e97288fedcc91a,64d2fd46c836a06233681665,64dc7d797a6b0686ea53d2b0,,,,,,,sngl,resources/DBN.BMP,resources/Empty.png,Door1,-0.299423159,0.034185091,1,0,0,0.6435,optionLeft,30,8350,4,31,0,31,0,1,,,,,,,,,,,,,,,,,,,,,,,,,,,,,,,,,,,,,,,
,,,,,,,62cbe9cf46e97288fedcc91a,2023-08-16_08h42.02.090,HF_wild_card,2022.2.4,Linux x86_64,59.99520038,62cbe9cf46e97288fedcc91a,64d2fd46c836a06233681665,64dc7d797a6b0686ea53d2b0,,,,,,,decisionTrl,resources/DBN.BMP,resources/DY.BMP,WildCard_Ex,0.231041703,-0.033693817,1,0,0,1.1769,optionRight,5,8355,4,32,0,32,0,1,,,,,,,,,,,,,,,,,,,,,,,,,,,,,,,,,,,,,,,
,,,,,,,62cbe9cf46e97288fedcc91a,2023-08-16_08h42.02.090,HF_wild_card,2022.2.4,Linux x86_64,59.99520038,62cbe9cf46e97288fedcc91a,64d2fd46c836a06233681665,64dc7d797a6b0686ea53d2b0,,,,,,,sngl,resources/DY.BMP,resources/Empty.png,WildCard_Ex,-0.231688131,-0.005929235,1,0,0,0.6648,optionLeft,5,8360,4,33,0,33,0,1,,,,,,,,,,,,,,,,,,,,,,,,,,,,,,,,,,,,,,,
,,,,,,,62cbe9cf46e97288fedcc91a,2023-08-16_08h42.02.090,HF_wild_card,2022.2.4,Linux x86_64,59.99520038,62cbe9cf46e97288fedcc91a,64d2fd46c836a06233681665,64dc7d797a6b0686ea53d2b0,,,,,,,sngl,resources/DR.BMP,resources/Empty.png,Door4,-0.45952024,0.020306202,1,0,0,0.653,optionLeft,60,8420,4,34,0,34,0,1,,,,,,,,,,,,,,,,,,,,,,,,,,,,,,,,,,,,,,,
,,,,,,,62cbe9cf46e97288fedcc91a,2023-08-16_08h42.02.090,HF_wild_card,2022.2.4,Linux x86_64,59.99520038,62cbe9cf46e97288fedcc91a,64d2fd46c836a06233681665,64dc7d797a6b0686ea53d2b0,,,,,,,ctch,resources/DB.BMP,resources/DG.BMP,Door3,0.228557689,-0.021772951,1,0,0,0.6898,optionRight,70,8490,4,35,0,35,0,1,,,,,,,,,,,,,,,,,,,,,,,,,,,,,,,,,,,,,,,
,,,,,,,62cbe9cf46e97288fedcc91a,2023-08-16_08h42.02.090,HF_wild_card,2022.2.4,Linux x86_64,59.99520038,62cbe9cf46e97288fedcc91a,64d2fd46c836a06233681665,64dc7d797a6b0686ea53d2b0,,,,,,,ctch,resources/DBN.BMP,resources/DR.BMP,Door4,0.258804924,-0.017283679,1,0,0,0.8135,optionRight,60,8550,4,36,0,36,0,1,,,,,,,,,,,,,,,,,,,,,,,,,,,,,,,,,,,,,,,
,,,,,,,62cbe9cf46e97288fedcc91a,2023-08-16_08h42.02.090,HF_wild_card,2022.2.4,Linux x86_64,59.99520038,62cbe9cf46e97288fedcc91a,64d2fd46c836a06233681665,64dc7d797a6b0686ea53d2b0,,,,,,,decisionTrl,resources/DG.BMP,resources/DR.BMP,Door4,0.182337437,0.009532914,1,0,0,0.6527,optionRight,60,8610,4,37,0,37,0,1,,,,,,,,,,,,,,,,,,,,,,,,,,,,,,,,,,,,,,,
,,,,,,,62cbe9cf46e97288fedcc91a,2023-08-16_08h42.02.090,HF_wild_card,2022.2.4,Linux x86_64,59.99520038,62cbe9cf46e97288fedcc91a,64d2fd46c836a06233681665,64dc7d797a6b0686ea53d2b0,,,,,,,decisionTrl,resources/DBN.BMP,resources/DB.BMP,Door1,-0.361644108,0.063239614,1,0,0,0.931,optionLeft,30,8640,4,38,0,38,0,1,,,,,,,,,,,,,,,,,,,,,,,,,,,,,,,,,,,,,,,
,,,,,,,62cbe9cf46e97288fedcc91a,2023-08-16_08h42.02.090,HF_wild_card,2022.2.4,Linux x86_64,59.99520038,62cbe9cf46e97288fedcc91a,64d2fd46c836a06233681665,64dc7d797a6b0686ea53d2b0,,,,,,,decisionTrl,resources/DG.BMP,resources/DY.BMP,WildCard_Ex,0.237567877,0.029718834,1,0,0,1.2956,optionRight,95,8735,4,39,0,39,0,1,,,,,,,,,,,,,,,,,,,,,,,,,,,,,,,,,,,,,,,
,,,,,,,62cbe9cf46e97288fedcc91a,2023-08-16_08h42.02.090,HF_wild_card,2022.2.4,Linux x86_64,59.99520038,62cbe9cf46e97288fedcc91a,64d2fd46c836a06233681665,64dc7d797a6b0686ea53d2b0,,,,,,,decisionTrl,resources/DY.BMP,resources/DB.BMP,WildCard_Ex,-0.271954579,-0.011832345,1,0,0,0.6431,optionLeft,5,8740,4,40,0,40,0,1,,,,,,,,,,,,,,,,,,,,,,,,,,,,,,,,,,,,,,,
,,,,,,,62cbe9cf46e97288fedcc91a,2023-08-16_08h42.02.090,HF_wild_card,2022.2.4,Linux x86_64,59.99520038,62cbe9cf46e97288fedcc91a,64d2fd46c836a06233681665,64dc7d797a6b0686ea53d2b0,,,,,,,sngl,resources/DY.BMP,resources/Empty.png,WildCard_Ex,-0.202460844,-0.00177379,1,0,0,0.7546,optionLeft,95,8835,4,41,0,41,0,1,,,,,,,,,,,,,,,,,,,,,,,,,,,,,,,,,,,,,,,
,,,,,,,62cbe9cf46e97288fedcc91a,2023-08-16_08h42.02.090,HF_wild_card,2022.2.4,Linux x86_64,59.99520038,62cbe9cf46e97288fedcc91a,64d2fd46c836a06233681665,64dc7d797a6b0686ea53d2b0,,,,,,,decisionTrl,resources/DR.BMP,resources/DG.BMP,Door3,0.253391766,0.037212552,1,0,0,1.8278,optionRight,70,8905,4,42,0,42,0,1,,,,,,,,,,,,,,,,,,,,,,,,,,,,,,,,,,,,,,,
,,,,,,,62cbe9cf46e97288fedcc91a,2023-08-16_08h42.02.090,HF_wild_card,2022.2.4,Linux x86_64,59.99520038,62cbe9cf46e97288fedcc91a,64d2fd46c836a06233681665,64dc7d797a6b0686ea53d2b0,,,,,,,decisionTrl,resources/DG.BMP,resources/DR.BMP,Door3,-0.248256921,-0.014993344,1,0,0,0.7253,optionLeft,70,8975,4,43,0,43,0,1,,,,,,,,,,,,,,,,,,,,,,,,,,,,,,,,,,,,,,,
,,,,,,,62cbe9cf46e97288fedcc91a,2023-08-16_08h42.02.090,HF_wild_card,2022.2.4,Linux x86_64,59.99520038,62cbe9cf46e97288fedcc91a,64d2fd46c836a06233681665,64dc7d797a6b0686ea53d2b0,,,,,,,,,,,,,,,,,,,,,,,,,,3,0,3,0,1,,,,,,,,,,,,,,,,,,,,,,,,,,,,,,,,,,
,,,,,,,62cbe9cf46e97288fedcc91a,2023-08-16_08h42.02.090,HF_wild_card,2022.2.4,Linux x86_64,59.99520038,62cbe9cf46e97288fedcc91a,64d2fd46c836a06233681665,64dc7d797a6b0686ea53d2b0,,,,,,,ctch,resources/DBN.BMP,resources/DR.BMP,Door4,0.494913633,-0.04699155,1,0,0,9.1927,optionRight,60,9035,5,0,0,0,0,1,,,,,,,,,,,,,,,,,,,,,,,,,,,,,,,,,,,,,,,
,,,,,,,62cbe9cf46e97288fedcc91a,2023-08-16_08h42.02.090,HF_wild_card,2022.2.4,Linux x86_64,59.99520038,62cbe9cf46e97288fedcc91a,64d2fd46c836a06233681665,64dc7d797a6b0686ea53d2b0,,,,,,,decisionTrl,resources/DY.BMP,resources/DB.BMP,WildCard_Ex,-0.329080764,0.026169892,1,0,0,0.8651,optionLeft,5,9040,5,1,0,1,0,1,,,,,,,,,,,,,,,,,,,,,,,,,,,,,,,,,,,,,,,
,,,,,,,62cbe9cf46e97288fedcc91a,2023-08-16_08h42.02.090,HF_wild_card,2022.2.4,Linux x86_64,59.99520038,62cbe9cf46e97288fedcc91a,64d2fd46c836a06233681665,64dc7d797a6b0686ea53d2b0,,,,,,,decisionTrl,resources/DG.BMP,resources/DR.BMP,Door4,0.13157959,-0.020176434,1,0,0,0.5845,optionRight,60,9100,5,2,0,2,0,1,,,,,,,,,,,,,,,,,,,,,,,,,,,,,,,,,,,,,,,
,,,,,,,62cbe9cf46e97288fedcc91a,2023-08-16_08h42.02.090,HF_wild_card,2022.2.4,Linux x86_64,59.99520038,62cbe9cf46e97288fedcc91a,64d2fd46c836a06233681665,64dc7d797a6b0686ea53d2b0,,,,,,,sngl,resources/DY.BMP,resources/Empty.png,WildCard_Ex,-0.284987917,0.072536279,1,0,0,0.5942,optionLeft,5,9105,5,3,0,3,0,1,,,,,,,,,,,,,,,,,,,,,,,,,,,,,,,,,,,,,,,
,,,,,,,62cbe9cf46e97288fedcc91a,2023-08-16_08h42.02.090,HF_wild_card,2022.2.4,Linux x86_64,59.99520038,62cbe9cf46e97288fedcc91a,64d2fd46c836a06233681665,64dc7d797a6b0686ea53d2b0,,,,,,,ctch,resources/DR.BMP,resources/DBN.BMP,Door4,-0.080614379,0.007228506,1,0,0,1.3822,optionLeft,60,9165,5,4,0,4,0,1,,,,,,,,,,,,,,,,,,,,,,,,,,,,,,,,,,,,,,,
,,,,,,,62cbe9cf46e97288fedcc91a,2023-08-16_08h42.02.090,HF_wild_card,2022.2.4,Linux x86_64,59.99520038,62cbe9cf46e97288fedcc91a,64d2fd46c836a06233681665,64dc7d797a6b0686ea53d2b0,,,,,,,ctch,resources/DR.BMP,resources/DBN.BMP,Door4,-0.215160822,0.010732857,1,0,0,0.6468,optionLeft,60,9225,5,5,0,5,0,1,,,,,,,,,,,,,,,,,,,,,,,,,,,,,,,,,,,,,,,
,,,,,,,62cbe9cf46e97288fedcc91a,2023-08-16_08h42.02.090,HF_wild_card,2022.2.4,Linux x86_64,59.99520038,62cbe9cf46e97288fedcc91a,64d2fd46c836a06233681665,64dc7d797a6b0686ea53d2b0,,,,,,,sngl,resources/Empty.png,resources/DY.BMP,WildCard_Ex,0.456576713,0.057372503,1,0,0,0.6118,optionRight,95,9320,5,6,0,6,0,1,,,,,,,,,,,,,,,,,,,,,,,,,,,,,,,,,,,,,,,
,,,,,,,62cbe9cf46e97288fedcc91a,2023-08-16_08h42.02.090,HF_wild_card,2022.2.4,Linux x86_64,59.99520038,62cbe9cf46e97288fedcc91a,64d2fd46c836a06233681665,64dc7d797a6b0686ea53d2b0,,,,,,,decisionTrl,resources/DB.BMP,resources/DBN.BMP,Door1,0.221956017,0.001768853,1,0,0,0.8714,optionRight,30,9350,5,7,0,7,0,1,,,,,,,,,,,,,,,,,,,,,,,,,,,,,,,,,,,,,,,
,,,,,,,62cbe9cf46e97288fedcc91a,2023-08-16_08h42.02.090,HF_wild_card,2022.2.4,Linux x86_64,59.99520038,62cbe9cf46e97288fedcc91a,64d2fd46c836a06233681665,64dc7d797a6b0686ea53d2b0,,,,,,,decisionTrl,resources/DG.BMP,resources/DR.BMP,Door3,-0.238724668,0.006076186,1,0,0,0.8857,optionLeft,70,9420,5,8,0,8,0,1,,,,,,,,,,,,,,,,,,,,,,,,,,,,,,,,,,,,,,,
,,,,,,,62cbe9cf46e97288fedcc91a,2023-08-16_08h42.02.090,HF_wild_card,2022.2.4,Linux x86_64,59.99520038,62cbe9cf46e97288fedcc91a,64d2fd46c836a06233681665,64dc7d797a6b0686ea53d2b0,,,,,,,decisionTrl,resources/DR.BMP,resources/DG.BMP,Door3,0.446743288,-0.052511733,1,0,0,0.8691,optionRight,70,9490,5,9,0,9,0,1,,,,,,,,,,,,,,,,,,,,,,,,,,,,,,,,,,,,,,,
,,,,,,,62cbe9cf46e97288fedcc91a,2023-08-16_08h42.02.090,HF_wild_card,2022.2.4,Linux x86_64,59.99520038,62cbe9cf46e97288fedcc91a,64d2fd46c836a06233681665,64dc7d797a6b0686ea53d2b0,,,,,,,sngl,resources/Empty.png,resources/DBN.BMP,Door1,0.215069852,0.005232579,1,0,0,0.8966,optionRight,30,9520,5,10,0,10,0,1,,,,,,,,,,,,,,,,,,,,,,,,,,,,,,,,,,,,,,,
,,,,,,,62cbe9cf46e97288fedcc91a,2023-08-16_08h42.02.090,HF_wild_card,2022.2.4,Linux x86_64,59.99520038,62cbe9cf46e97288fedcc91a,64d2fd46c836a06233681665,64dc7d797a6b0686ea53d2b0,,,,,,,decisionTrl,resources/DY.BMP,resources/DBN.BMP,WildCard_Ex,-0.246777538,-0.076593134,1,0,0,0.9477,optionLeft,5,9525,5,11,0,11,0,1,,,,,,,,,,,,,,,,,,,,,,,,,,,,,,,,,,,,,,,
,,,,,,,62cbe9cf46e97288fedcc91a,2023-08-16_08h42.02.090,HF_wild_card,2022.2.4,Linux x86_64,59.99520038,62cbe9cf46e97288fedcc91a,64d2fd46c836a06233681665,64dc7d797a6b0686ea53d2b0,,,,,,,decisionTrl,resources/DBN.BMP,resources/DB.BMP,Door1,-0.245340763,0.016449869,1,0,0,0.8889,optionLeft,30,9555,5,12,0,12,0,1,,,,,,,,,,,,,,,,,,,,,,,,,,,,,,,,,,,,,,,
,,,,,,,62cbe9cf46e97288fedcc91a,2023-08-16_08h42.02.090,HF_wild_card,2022.2.4,Linux x86_64,59.99520038,62cbe9cf46e97288fedcc91a,64d2fd46c836a06233681665,64dc7d797a6b0686ea53d2b0,,,,,,,sngl,resources/Empty.png,resources/DB.BMP,Door2,0.366145237,-0.040788629,1,0,0,0.8896,optionRight,20,9575,5,13,0,13,0,1,,,,,,,,,,,,,,,,,,,,,,,,,,,,,,,,,,,,,,,
,,,,,,,62cbe9cf46e97288fedcc91a,2023-08-16_08h42.02.090,HF_wild_card,2022.2.4,Linux x86_64,59.99520038,62cbe9cf46e97288fedcc91a,64d2fd46c836a06233681665,64dc7d797a6b0686ea53d2b0,,,,,,,decisionTrl,resources/DG.BMP,resources/DY.BMP,WildCard_Ex,0.238440952,0.001769359,1,0,0,0.7572,optionRight,95,9670,5,14,0,14,0,1,,,,,,,,,,,,,,,,,,,,,,,,,,,,,,,,,,,,,,,
,,,,,,,62cbe9cf46e97288fedcc91a,2023-08-16_08h42.02.090,HF_wild_card,2022.2.4,Linux x86_64,59.99520038,62cbe9cf46e97288fedcc91a,64d2fd46c836a06233681665,64dc7d797a6b0686ea53d2b0,,,,,,,decisionTrl,resources/DBN.BMP,resources/DY.BMP,WildCard_Ex,0.183627961,-0.00273939,1,0,0,0.7262,optionRight,5,9675,5,15,0,15,0,1,,,,,,,,,,,,,,,,,,,,,,,,,,,,,,,,,,,,,,,
,,,,,,,62cbe9cf46e97288fedcc91a,2023-08-16_08h42.02.090,HF_wild_card,2022.2.4,Linux x86_64,59.99520038,62cbe9cf46e97288fedcc91a,64d2fd46c836a06233681665,64dc7d797a6b0686ea53d2b0,,,,,,,ctch,resources/DG.BMP,resources/DB.BMP,Door3,-0.159436346,0.006185077,1,0,0,2.4935,optionLeft,70,9745,5,16,0,16,0,1,,,,,,,,,,,,,,,,,,,,,,,,,,,,,,,,,,,,,,,
,,,,,,,62cbe9cf46e97288fedcc91a,2023-08-16_08h42.02.090,HF_wild_card,2022.2.4,Linux x86_64,59.99520038,62cbe9cf46e97288fedcc91a,64d2fd46c836a06233681665,64dc7d797a6b0686ea53d2b0,,,,,,,decisionTrl,resources/DBN.BMP,resources/DB.BMP,Door1,-0.397057717,0.05025557,1,0,0,0.7189,optionLeft,30,9775,5,17,0,17,0,1,,,,,,,,,,,,,,,,,,,,,,,,,,,,,,,,,,,,,,,
,,,,,,,62cbe9cf46e97288fedcc91a,2023-08-16_08h42.02.090,HF_wild_card,2022.2.4,Linux x86_64,59.99520038,62cbe9cf46e97288fedcc91a,64d2fd46c836a06233681665,64dc7d797a6b0686ea53d2b0,,,,,,,ctch,resources/DG.BMP,resources/DB.BMP,Door3,-0.323667101,0.010981041,1,0,0,0.6796,optionLeft,70,9845,5,18,0,18,0,1,,,,,,,,,,,,,,,,,,,,,,,,,,,,,,,,,,,,,,,
,,,,,,,62cbe9cf46e97288fedcc91a,2023-08-16_08h42.02.090,HF_wild_card,2022.2.4,Linux x86_64,59.99520038,62cbe9cf46e97288fedcc91a,64d2fd46c836a06233681665,64dc7d797a6b0686ea53d2b0,,,,,,,decisionTrl,resources/DR.BMP,resources/DG.BMP,Door4,-0.2760977,0.001915221,1,0,0,0.6144,optionLeft,60,9905,5,19,0,19,0,1,,,,,,,,,,,,,,,,,,,,,,,,,,,,,,,,,,,,,,,
,,,,,,,62cbe9cf46e97288fedcc91a,2023-08-16_08h42.02.090,HF_wild_card,2022.2.4,Linux x86_64,59.99520038,62cbe9cf46e97288fedcc91a,64d2fd46c836a06233681665,64dc7d797a6b0686ea53d2b0,,,,,,,decisionTrl,resources/DB.BMP,resources/DBN.BMP,Door1,0.208876767,0.011773682,1,0,0,0.7296,optionRight,30,9935,5,20,0,20,0,1,,,,,,,,,,,,,,,,,,,,,,,,,,,,,,,,,,,,,,,
,,,,,,,62cbe9cf46e97288fedcc91a,2023-08-16_08h42.02.090,HF_wild_card,2022.2.4,Linux x86_64,59.99520038,62cbe9cf46e97288fedcc91a,64d2fd46c836a06233681665,64dc7d797a6b0686ea53d2b0,,,,,,,decisionTrl,resources/DB.BMP,resources/DY.BMP,WildCard_Ex,0.265483414,-0.006062074,1,0,0,0.8149,optionRight,5,9940,5,21,0,21,0,1,,,,,,,,,,,,,,,,,,,,,,,,,,,,,,,,,,,,,,,
,,,,,,,62cbe9cf46e97288fedcc91a,2023-08-16_08h42.02.090,HF_wild_card,2022.2.4,Linux x86_64,59.99520038,62cbe9cf46e97288fedcc91a,64d2fd46c836a06233681665,64dc7d797a6b0686ea53d2b0,,,,,,,decisionTrl,resources/DB.BMP,resources/DBN.BMP,Door1,0.310261526,-0.035978553,1,0,0,0.7668,optionRight,30,9970,5,22,0,22,0,1,,,,,,,,,,,,,,,,,,,,,,,,,,,,,,,,,,,,,,,
,,,,,,,62cbe9cf46e97288fedcc91a,2023-08-16_08h42.02.090,HF_wild_card,2022.2.4,Linux x86_64,59.99520038,62cbe9cf46e97288fedcc91a,64d2fd46c836a06233681665,64dc7d797a6b0686ea53d2b0,,,,,,,decisionTrl,resources/DG.BMP,resources/DR.BMP,Door3,-0.351229606,0.051580811,1,0,0,1.5561,optionLeft,70,10040,5,23,0,23,0,1,,,,,,,,,,,,,,,,,,,,,,,,,,,,,,,,,,,,,,,
,,,,,,,62cbe9cf46e97288fedcc91a,2023-08-16_08h42.02.090,HF_wild_card,2022.2.4,Linux x86_64,59.99520038,62cbe9cf46e97288fedcc91a,64d2fd46c836a06233681665,64dc7d797a6b0686ea53d2b0,,,,,,,ctch,resources/DB.BMP,resources/DG.BMP,Door3,0.377292667,0.023584606,1,0,0,0.6513,optionRight,70,10110,5,24,0,24,0,1,,,,,,,,,,,,,,,,,,,,,,,,,,,,,,,,,,,,,,,
,,,,,,,62cbe9cf46e97288fedcc91a,2023-08-16_08h42.02.090,HF_wild_card,2022.2.4,Linux x86_64,59.99520038,62cbe9cf46e97288fedcc91a,64d2fd46c836a06233681665,64dc7d797a6b0686ea53d2b0,,,,,,,decisionTrl,resources/DBN.BMP,resources/DB.BMP,Door1,-0.305314413,-0.01133209,1,0,0,1.1957,optionLeft,30,10140,5,25,0,25,0,1,,,,,,,,,,,,,,,,,,,,,,,,,,,,,,,,,,,,,,,
,,,,,,,62cbe9cf46e97288fedcc91a,2023-08-16_08h42.02.090,HF_wild_card,2022.2.4,Linux x86_64,59.99520038,62cbe9cf46e97288fedcc91a,64d2fd46c836a06233681665,64dc7d797a6b0686ea53d2b0,,,,,,,decisionTrl,resources/DY.BMP,resources/DR.BMP,WildCard_Ex,-0.544671359,0.064449315,1,0,0,0.9394,optionLeft,5,10145,5,26,0,26,0,1,,,,,,,,,,,,,,,,,,,,,,,,,,,,,,,,,,,,,,,
,,,,,,,62cbe9cf46e97288fedcc91a,2023-08-16_08h42.02.090,HF_wild_card,2022.2.4,Linux x86_64,59.99520038,62cbe9cf46e97288fedcc91a,64d2fd46c836a06233681665,64dc7d797a6b0686ea53d2b0,,,,,,,decisionTrl,resources/DR.BMP,resources/DY.BMP,Door4,-0.365514243,0.067530113,1,0,0,0.6353,optionLeft,80,10225,5,27,0,27,0,1,,,,,,,,,,,,,,,,,,,,,,,,,,,,,,,,,,,,,,,
,,,,,,,62cbe9cf46e97288fedcc91a,2023-08-16_08h42.02.090,HF_wild_card,2022.2.4,Linux x86_64,59.99520038,62cbe9cf46e97288fedcc91a,64d2fd46c836a06233681665,64dc7d797a6b0686ea53d2b0,,,,,,,ctch,resources/DBN.BMP,resources/DR.BMP,Door4,0.291279281,-0.001527084,1,0,0,0.7214,optionRight,60,10285,5,28,0,28,0,1,,,,,,,,,,,,,,,,,,,,,,,,,,,,,,,,,,,,,,,
,,,,,,,62cbe9cf46e97288fedcc91a,2023-08-16_08h42.02.090,HF_wild_card,2022.2.4,Linux x86_64,59.99520038,62cbe9cf46e97288fedcc91a,64d2fd46c836a06233681665,64dc7d797a6b0686ea53d2b0,,,,,,,decisionTrl,resources/DBN.BMP,resources/DB.BMP,Door1,-0.317630141,-0.017631696,1,0,0,0.6124,optionLeft,30,10315,5,29,0,29,0,1,,,,,,,,,,,,,,,,,,,,,,,,,,,,,,,,,,,,,,,
,,,,,,,62cbe9cf46e97288fedcc91a,2023-08-16_08h42.02.090,HF_wild_card,2022.2.4,Linux x86_64,59.99520038,62cbe9cf46e97288fedcc91a,64d2fd46c836a06233681665,64dc7d797a6b0686ea53d2b0,,,,,,,sngl,resources/Empty.png,resources/DY.BMP,WildCard_Ex,0.352428655,0.042356999,1,0,0,0.5589,optionRight,5,10320,5,30,0,30,0,1,,,,,,,,,,,,,,,,,,,,,,,,,,,,,,,,,,,,,,,
,,,,,,,62cbe9cf46e97288fedcc91a,2023-08-16_08h42.02.090,HF_wild_card,2022.2.4,Linux x86_64,59.99520038,62cbe9cf46e97288fedcc91a,64d2fd46c836a06233681665,64dc7d797a6b0686ea53d2b0,,,,,,,sngl,resources/DG.BMP,resources/Empty.png,Door3,-0.217402639,-0.009338729,1,0,0,0.4647,optionLeft,70,10390,5,31,0,31,0,1,,,,,,,,,,,,,,,,,,,,,,,,,,,,,,,,,,,,,,,
,,,,,,,62cbe9cf46e97288fedcc91a,2023-08-16_08h42.02.090,HF_wild_card,2022.2.4,Linux x86_64,59.99520038,62cbe9cf46e97288fedcc91a,64d2fd46c836a06233681665,64dc7d797a6b0686ea53d2b0,,,,,,,sngl,resources/DB.BMP,resources/Empty.png,Door2,-0.260909976,0.043919771,1,0,0,0.7151,optionLeft,40,10430,5,32,0,32,0,1,,,,,,,,,,,,,,,,,,,,,,,,,,,,,,,,,,,,,,,
,,,,,,,62cbe9cf46e97288fedcc91a,2023-08-16_08h42.02.090,HF_wild_card,2022.2.4,Linux x86_64,59.99520038,62cbe9cf46e97288fedcc91a,64d2fd46c836a06233681665,64dc7d797a6b0686ea53d2b0,,,,,,,sngl,resources/DBN.BMP,resources/Empty.png,Door1,-0.457094812,0.055774703,1,0,0,0.5049,optionLeft,30,10460,5,33,0,33,0,1,,,,,,,,,,,,,,,,,,,,,,,,,,,,,,,,,,,,,,,
,,,,,,,62cbe9cf46e97288fedcc91a,2023-08-16_08h42.02.090,HF_wild_card,2022.2.4,Linux x86_64,59.99520038,62cbe9cf46e97288fedcc91a,64d2fd46c836a06233681665,64dc7d797a6b0686ea53d2b0,,,,,,,ctch,resources/DB.BMP,resources/DG.BMP,Door3,0.378654412,-0.031371682,1,0,0,0.7302,optionRight,70,10530,5,34,0,34,0,1,,,,,,,,,,,,,,,,,,,,,,,,,,,,,,,,,,,,,,,
,,,,,,,62cbe9cf46e97288fedcc91a,2023-08-16_08h42.02.090,HF_wild_card,2022.2.4,Linux x86_64,59.99520038,62cbe9cf46e97288fedcc91a,64d2fd46c836a06233681665,64dc7d797a6b0686ea53d2b0,,,,,,,sngl,resources/Empty.png,resources/DR.BMP,Door4,0.26431636,0.018045841,1,0,0,0.6757,optionRight,60,10590,5,35,0,35,0,1,,,,,,,,,,,,,,,,,,,,,,,,,,,,,,,,,,,,,,,
,,,,,,,62cbe9cf46e97288fedcc91a,2023-08-16_08h42.02.090,HF_wild_card,2022.2.4,Linux x86_64,59.99520038,62cbe9cf46e97288fedcc91a,64d2fd46c836a06233681665,64dc7d797a6b0686ea53d2b0,,,,,,,sngl,resources/DY.BMP,resources/Empty.png,WildCard_Ex,-0.124151495,-0.000192747,1,0,0,0.518,optionLeft,95,10685,5,36,0,36,0,1,,,,,,,,,,,,,,,,,,,,,,,,,,,,,,,,,,,,,,,
,,,,,,,62cbe9cf46e97288fedcc91a,2023-08-16_08h42.02.090,HF_wild_card,2022.2.4,Linux x86_64,59.99520038,62cbe9cf46e97288fedcc91a,64d2fd46c836a06233681665,64dc7d797a6b0686ea53d2b0,,,,,,,sngl,resources/Empty.png,resources/DG.BMP,Door3,0.366070051,-0.025822575,1,0,0,0.5148,optionRight,70,10755,5,37,0,37,0,1,,,,,,,,,,,,,,,,,,,,,,,,,,,,,,,,,,,,,,,
,,,,,,,62cbe9cf46e97288fedcc91a,2023-08-16_08h42.02.090,HF_wild_card,2022.2.4,Linux x86_64,59.99520038,62cbe9cf46e97288fedcc91a,64d2fd46c836a06233681665,64dc7d797a6b0686ea53d2b0,,,,,,,decisionTrl,resources/DR.BMP,resources/DG.BMP,Door4,-0.216212493,0.005209798,1,0,0,0.6764,optionLeft,80,10835,5,38,0,38,0,1,,,,,,,,,,,,,,,,,,,,,,,,,,,,,,,,,,,,,,,
,,,,,,,62cbe9cf46e97288fedcc91a,2023-08-16_08h42.02.090,HF_wild_card,2022.2.4,Linux x86_64,59.99520038,62cbe9cf46e97288fedcc91a,64d2fd46c836a06233681665,64dc7d797a6b0686ea53d2b0,,,,,,,sngl,resources/DR.BMP,resources/Empty.png,Door4,-0.147511321,0.029117424,1,0,0,0.5765,optionLeft,80,10915,5,39,0,39,0,1,,,,,,,,,,,,,,,,,,,,,,,,,,,,,,,,,,,,,,,
,,,,,,,62cbe9cf46e97288fedcc91a,2023-08-16_08h42.02.090,HF_wild_card,2022.2.4,Linux x86_64,59.99520038,62cbe9cf46e97288fedcc91a,64d2fd46c836a06233681665,64dc7d797a6b0686ea53d2b0,,,,,,,decisionTrl,resources/DB.BMP,resources/DBN.BMP,Door1,0.097283897,-0.006442824,1,0,0,1.3217,optionRight,30,10945,5,40,0,40,0,1,,,,,,,,,,,,,,,,,,,,,,,,,,,,,,,,,,,,,,,
,,,,,,,62cbe9cf46e97288fedcc91a,2023-08-16_08h42.02.090,HF_wild_card,2022.2.4,Linux x86_64,59.99520038,62cbe9cf46e97288fedcc91a,64d2fd46c836a06233681665,64dc7d797a6b0686ea53d2b0,,,,,,,decisionTrl,resources/DR.BMP,resources/DG.BMP,Door4,-0.202380527,0.024147102,1,0,0,0.6532,optionLeft,80,11025,5,41,0,41,0,1,,,,,,,,,,,,,,,,,,,,,,,,,,,,,,,,,,,,,,,
,,,,,,,62cbe9cf46e97288fedcc91a,2023-08-16_08h42.02.090,HF_wild_card,2022.2.4,Linux x86_64,59.99520038,62cbe9cf46e97288fedcc91a,64d2fd46c836a06233681665,64dc7d797a6b0686ea53d2b0,,,,,,,decisionTrl,resources/DY.BMP,resources/DG.BMP,WildCard_Ex,-0.124137733,0.008239241,1,0,0,0.5747,optionLeft,95,11120,5,42,0,42,0,1,,,,,,,,,,,,,,,,,,,,,,,,,,,,,,,,,,,,,,,
,,,,,,,62cbe9cf46e97288fedcc91a,2023-08-16_08h42.02.090,HF_wild_card,2022.2.4,Linux x86_64,59.99520038,62cbe9cf46e97288fedcc91a,64d2fd46c836a06233681665,64dc7d797a6b0686ea53d2b0,,,,,,,decisionTrl,resources/DG.BMP,resources/DR.BMP,Door4,0.422038279,-0.026161884,1,0,0,0.6167,optionRight,60,11180,5,43,0,43,0,1,,,,,,,,,,,,,,,,,,,,,,,,,,,,,,,,,,,,,,,
,,,,,,,62cbe9cf46e97288fedcc91a,2023-08-16_08h42.02.090,HF_wild_card,2022.2.4,Linux x86_64,59.99520038,62cbe9cf46e97288fedcc91a,64d2fd46c836a06233681665,64dc7d797a6b0686ea53d2b0,,,,,,,,,,,,,,,,,,,,,,,,,,4,0,4,0,1,,,,,,,,,,,,,,,,,,,,,,,,,,,,,,,,,,
,,,,,,,62cbe9cf46e97288fedcc91a,2023-08-16_08h42.02.090,HF_wild_card,2022.2.4,Linux x86_64,59.99520038,62cbe9cf46e97288fedcc91a,64d2fd46c836a06233681665,64dc7d797a6b0686ea53d2b0,,,,,,,decisionTrl,resources/DBN.BMP,resources/DB.BMP,Door2,0.467197763,0.083870702,1,0,0,1.8344,optionRight,40,11220,6,0,0,0,0,1,,,,,,,,,,,,,,,,,,,,,,,,,,,,,,,,,,,,,,,
,,,,,,,62cbe9cf46e97288fedcc91a,2023-08-16_08h42.02.090,HF_wild_card,2022.2.4,Linux x86_64,59.99520038,62cbe9cf46e97288fedcc91a,64d2fd46c836a06233681665,64dc7d797a6b0686ea53d2b0,,,,,,,sngl,resources/Empty.png,resources/DR.BMP,Door4,0.253649669,0.021020391,1,0,0,0.6337,optionRight,80,11300,6,1,0,1,0,1,,,,,,,,,,,,,,,,,,,,,,,,,,,,,,,,,,,,,,,
,,,,,,,62cbe9cf46e97288fedcc91a,2023-08-16_08h42.02.090,HF_wild_card,2022.2.4,Linux x86_64,59.99520038,62cbe9cf46e97288fedcc91a,64d2fd46c836a06233681665,64dc7d797a6b0686ea53d2b0,,,,,,,ctch,resources/DG.BMP,resources/DB.BMP,Door3,-0.240187646,0.014896271,1,0,0,1.0529,optionLeft,70,11370,6,2,0,2,0,1,,,,,,,,,,,,,,,,,,,,,,,,,,,,,,,,,,,,,,,
,,,,,,,62cbe9cf46e97288fedcc91a,2023-08-16_08h42.02.090,HF_wild_card,2022.2.4,Linux x86_64,59.99520038,62cbe9cf46e97288fedcc91a,64d2fd46c836a06233681665,64dc7d797a6b0686ea53d2b0,,,,,,,sngl,resources/Empty.png,resources/DB.BMP,Door2,0.21274072,-0.024070633,1,0,0,0.893,optionRight,40,11410,6,3,0,3,0,1,,,,,,,,,,,,,,,,,,,,,,,,,,,,,,,,,,,,,,,
,,,,,,,62cbe9cf46e97288fedcc91a,2023-08-16_08h42.02.090,HF_wild_card,2022.2.4,Linux x86_64,59.99520038,62cbe9cf46e97288fedcc91a,64d2fd46c836a06233681665,64dc7d797a6b0686ea53d2b0,,,,,,,decisionTrl,resources/DG.BMP,resources/DR.BMP,Door3,-0.26750811,0.031671337,1,0,0,1.0411,optionLeft,70,11480,6,4,0,4,0,1,,,,,,,,,,,,,,,,,,,,,,,,,,,,,,,,,,,,,,,
,,,,,,,62cbe9cf46e97288fedcc91a,2023-08-16_08h42.02.090,HF_wild_card,2022.2.4,Linux x86_64,59.99520038,62cbe9cf46e97288fedcc91a,64d2fd46c836a06233681665,64dc7d797a6b0686ea53d2b0,,,,,,,decisionTrl,resources/DBN.BMP,resources/DB.BMP,Door1,-0.372172712,0.137993957,1,0,0,1.1375,optionLeft,30,11510,6,5,0,5,0,1,,,,,,,,,,,,,,,,,,,,,,,,,,,,,,,,,,,,,,,
,,,,,,,62cbe9cf46e97288fedcc91a,2023-08-16_08h42.02.090,HF_wild_card,2022.2.4,Linux x86_64,59.99520038,62cbe9cf46e97288fedcc91a,64d2fd46c836a06233681665,64dc7d797a6b0686ea53d2b0,,,,,,,decisionTrl,resources/DY.BMP,resources/DR.BMP,WildCard_Ex,-0.353393321,0.018007626,1,0,0,0.8112,optionLeft,5,11515,6,6,0,6,0,1,,,,,,,,,,,,,,,,,,,,,,,,,,,,,,,,,,,,,,,
,,,,,,,62cbe9cf46e97288fedcc91a,2023-08-16_08h42.02.090,HF_wild_card,2022.2.4,Linux x86_64,59.99520038,62cbe9cf46e97288fedcc91a,64d2fd46c836a06233681665,64dc7d797a6b0686ea53d2b0,,,,,,,sngl,resources/DG.BMP,resources/Empty.png,Door3,-0.175390703,0.037865628,1,0,0,0.5547,optionLeft,70,11585,6,7,0,7,0,1,,,,,,,,,,,,,,,,,,,,,,,,,,,,,,,,,,,,,,,
,,,,,,,62cbe9cf46e97288fedcc91a,2023-08-16_08h42.02.090,HF_wild_card,2022.2.4,Linux x86_64,59.99520038,62cbe9cf46e97288fedcc91a,64d2fd46c836a06233681665,64dc7d797a6b0686ea53d2b0,,,,,,,decisionTrl,resources/DR.BMP,resources/DY.BMP,WildCard_Ex,0.185093504,-0.028875732,1,0,0,0.6654,optionRight,5,11590,6,8,0,8,0,1,,,,,,,,,,,,,,,,,,,,,,,,,,,,,,,,,,,,,,,
,,,,,,,62cbe9cf46e97288fedcc91a,2023-08-16_08h42.02.090,HF_wild_card,2022.2.4,Linux x86_64,59.99520038,62cbe9cf46e97288fedcc91a,64d2fd46c836a06233681665,64dc7d797a6b0686ea53d2b0,,,,,,,decisionTrl,resources/DY.BMP,resources/DG.BMP,WildCard_Ex,-0.258293667,0.019048372,1,0,0,0.4999,optionLeft,95,11685,6,9,0,9,0,1,,,,,,,,,,,,,,,,,,,,,,,,,,,,,,,,,,,,,,,
,,,,,,,62cbe9cf46e97288fedcc91a,2023-08-16_08h42.02.090,HF_wild_card,2022.2.4,Linux x86_64,59.99520038,62cbe9cf46e97288fedcc91a,64d2fd46c836a06233681665,64dc7d797a6b0686ea53d2b0,,,,,,,decisionTrl,resources/DY.BMP,resources/DB.BMP,WildCard_Ex,-0.238754564,0.029365141,1,0,0,0.5448,optionLeft,95,11780,6,10,0,10,0,1,,,,,,,,,,,,,,,,,,,,,,,,,,,,,,,,,,,,,,,
,,,,,,,62cbe9cf46e97288fedcc91a,2023-08-16_08h42.02.090,HF_wild_card,2022.2.4,Linux x86_64,59.99520038,62cbe9cf46e97288fedcc91a,64d2fd46c836a06233681665,64dc7d797a6b0686ea53d2b0,,,,,,,decisionTrl,resources/DB.BMP,resources/DY.BMP,WildCard_Ex,0.239502186,0.015090845,1,0,0,0.6086,optionRight,5,11785,6,11,0,11,0,1,,,,,,,,,,,,,,,,,,,,,,,,,,,,,,,,,,,,,,,
,,,,,,,62cbe9cf46e97288fedcc91a,2023-08-16_08h42.02.090,HF_wild_card,2022.2.4,Linux x86_64,59.99520038,62cbe9cf46e97288fedcc91a,64d2fd46c836a06233681665,64dc7d797a6b0686ea53d2b0,,,,,,,ctch,resources/DBN.BMP,resources/DR.BMP,Door4,0.316836528,-0.01021091,1,0,0,0.8011,optionRight,80,11865,6,12,0,12,0,1,,,,,,,,,,,,,,,,,,,,,,,,,,,,,,,,,,,,,,,
,,,,,,,62cbe9cf46e97288fedcc91a,2023-08-16_08h42.02.090,HF_wild_card,2022.2.4,Linux x86_64,59.99520038,62cbe9cf46e97288fedcc91a,64d2fd46c836a06233681665,64dc7d797a6b0686ea53d2b0,,,,,,,decisionTrl,resources/DY.BMP,resources/DBN.BMP,WildCard_Ex,-0.247304462,0.017856049,1,0,0,0.5242,optionLeft,95,11960,6,13,0,13,0,1,,,,,,,,,,,,,,,,,,,,,,,,,,,,,,,,,,,,,,,
,,,,,,,62cbe9cf46e97288fedcc91a,2023-08-16_08h42.02.090,HF_wild_card,2022.2.4,Linux x86_64,59.99520038,62cbe9cf46e97288fedcc91a,64d2fd46c836a06233681665,64dc7d797a6b0686ea53d2b0,,,,,,,ctch,resources/DG.BMP,resources/DB.BMP,Door3,-0.216603817,0.010653317,1,0,0,0.7001,optionLeft,70,12030,6,14,0,14,0,1,,,,,,,,,,,,,,,,,,,,,,,,,,,,,,,,,,,,,,,
,,,,,,,62cbe9cf46e97288fedcc91a,2023-08-16_08h42.02.090,HF_wild_card,2022.2.4,Linux x86_64,59.99520038,62cbe9cf46e97288fedcc91a,64d2fd46c836a06233681665,64dc7d797a6b0686ea53d2b0,,,,,,,sngl,resources/Empty.png,resources/DY.BMP,WildCard_Ex,0.271529627,-0.056801727,1,0,0,0.7615,optionRight,95,12125,6,15,0,15,0,1,,,,,,,,,,,,,,,,,,,,,,,,,,,,,,,,,,,,,,,
,,,,,,,62cbe9cf46e97288fedcc91a,2023-08-16_08h42.02.090,HF_wild_card,2022.2.4,Linux x86_64,59.99520038,62cbe9cf46e97288fedcc91a,64d2fd46c836a06233681665,64dc7d797a6b0686ea53d2b0,,,,,,,ctch,resources/DR.BMP,resources/DBN.BMP,Door4,-0.211748762,0.002236258,1,0,0,0.7327,optionLeft,60,12185,6,16,0,16,0,1,,,,,,,,,,,,,,,,,,,,,,,,,,,,,,,,,,,,,,,
,,,,,,,62cbe9cf46e97288fedcc91a,2023-08-16_08h42.02.090,HF_wild_card,2022.2.4,Linux x86_64,59.99520038,62cbe9cf46e97288fedcc91a,64d2fd46c836a06233681665,64dc7d797a6b0686ea53d2b0,,,,,,,sngl,resources/Empty.png,resources/DY.BMP,WildCard_Ex,0.339518981,-0.071668958,1,0,0,0.5806,optionRight,5,12190,6,17,0,17,0,1,,,,,,,,,,,,,,,,,,,,,,,,,,,,,,,,,,,,,,,
,,,,,,,62cbe9cf46e97288fedcc91a,2023-08-16_08h42.02.090,HF_wild_card,2022.2.4,Linux x86_64,59.99520038,62cbe9cf46e97288fedcc91a,64d2fd46c836a06233681665,64dc7d797a6b0686ea53d2b0,,,,,,,sngl,resources/DY.BMP,resources/Empty.png,WildCard_Ex,-0.189040185,0.001718315,1,0,0,0.5897,optionLeft,5,12195,6,18,0,18,0,1,,,,,,,,,,,,,,,,,,,,,,,,,,,,,,,,,,,,,,,
,,,,,,,62cbe9cf46e97288fedcc91a,2023-08-16_08h42.02.090,HF_wild_card,2022.2.4,Linux x86_64,59.99520038,62cbe9cf46e97288fedcc91a,64d2fd46c836a06233681665,64dc7d797a6b0686ea53d2b0,,,,,,,sngl,resources/Empty.png,resources/DBN.BMP,Door1,0.421891639,-0.041158183,1,0,0,0.6243,optionRight,30,12225,6,19,0,19,0,1,,,,,,,,,,,,,,,,,,,,,,,,,,,,,,,,,,,,,,,
,,,,,,,62cbe9cf46e97288fedcc91a,2023-08-16_08h42.02.090,HF_wild_card,2022.2.4,Linux x86_64,59.99520038,62cbe9cf46e97288fedcc91a,64d2fd46c836a06233681665,64dc7d797a6b0686ea53d2b0,,,,,,,decisionTrl,resources/DB.BMP,resources/DBN.BMP,Door1,0.414475829,-0.003587273,1,0,0,1.771,optionRight,30,12255,6,20,0,20,0,1,,,,,,,,,,,,,,,,,,,,,,,,,,,,,,,,,,,,,,,
,,,,,,,62cbe9cf46e97288fedcc91a,2023-08-16_08h42.02.090,HF_wild_card,2022.2.4,Linux x86_64,59.99520038,62cbe9cf46e97288fedcc91a,64d2fd46c836a06233681665,64dc7d797a6b0686ea53d2b0,,,,,,,decisionTrl,resources/DG.BMP,resources/DY.BMP,WildCard_Ex,0.141609182,-0.038809612,1,0,0,1.0543,optionRight,5,12260,6,21,0,21,0,1,,,,,,,,,,,,,,,,,,,,,,,,,,,,,,,,,,,,,,,
,,,,,,,62cbe9cf46e97288fedcc91a,2023-08-16_08h42.02.090,HF_wild_card,2022.2.4,Linux x86_64,59.99520038,62cbe9cf46e97288fedcc91a,64d2fd46c836a06233681665,64dc7d797a6b0686ea53d2b0,,,,,,,decisionTrl,resources/DR.BMP,resources/DG.BMP,Door4,-0.417054078,0.015411571,1,0,0,0.7001,optionLeft,60,12320,6,22,0,22,0,1,,,,,,,,,,,,,,,,,,,,,,,,,,,,,,,,,,,,,,,
,,,,,,,62cbe9cf46e97288fedcc91a,2023-08-16_08h42.02.090,HF_wild_card,2022.2.4,Linux x86_64,59.99520038,62cbe9cf46e97288fedcc91a,64d2fd46c836a06233681665,64dc7d797a6b0686ea53d2b0,,,,,,,decisionTrl,resources/DR.BMP,resources/DG.BMP,Door4,-0.157065694,0.011820488,1,0,0,0.6263,optionLeft,80,12400,6,23,0,23,0,1,,,,,,,,,,,,,,,,,,,,,,,,,,,,,,,,,,,,,,,
,,,,,,,62cbe9cf46e97288fedcc91a,2023-08-16_08h42.02.090,HF_wild_card,2022.2.4,Linux x86_64,59.99520038,62cbe9cf46e97288fedcc91a,64d2fd46c836a06233681665,64dc7d797a6b0686ea53d2b0,,,,,,,decisionTrl,resources/DG.BMP,resources/DR.BMP,Door4,0.21285447,-0.049381446,1,0,0,0.6644,optionRight,60,12460,6,24,0,24,0,1,,,,,,,,,,,,,,,,,,,,,,,,,,,,,,,,,,,,,,,
,,,,,,,62cbe9cf46e97288fedcc91a,2023-08-16_08h42.02.090,HF_wild_card,2022.2.4,Linux x86_64,59.99520038,62cbe9cf46e97288fedcc91a,64d2fd46c836a06233681665,64dc7d797a6b0686ea53d2b0,,,,,,,sngl,resources/DY.BMP,resources/Empty.png,WildCard_Ex,-0.150935743,0.027152986,1,0,0,0.6001,optionLeft,95,12555,6,25,0,25,0,1,,,,,,,,,,,,,,,,,,,,,,,,,,,,,,,,,,,,,,,
,,,,,,,62cbe9cf46e97288fedcc91a,2023-08-16_08h42.02.090,HF_wild_card,2022.2.4,Linux x86_64,59.99520038,62cbe9cf46e97288fedcc91a,64d2fd46c836a06233681665,64dc7d797a6b0686ea53d2b0,,,,,,,decisionTrl,resources/DG.BMP,resources/DR.BMP,Door4,0.281427663,-0.03104007,1,0,0,0.6704,optionRight,80,12635,6,26,0,26,0,1,,,,,,,,,,,,,,,,,,,,,,,,,,,,,,,,,,,,,,,
,,,,,,,62cbe9cf46e97288fedcc91a,2023-08-16_08h42.02.090,HF_wild_card,2022.2.4,Linux x86_64,59.99520038,62cbe9cf46e97288fedcc91a,64d2fd46c836a06233681665,64dc7d797a6b0686ea53d2b0,,,,,,,decisionTrl,resources/DBN.BMP,resources/DB.BMP,Door2,0.446625417,0.11869915,1,0,0,1.6992,optionRight,40,12675,6,27,0,27,0,1,,,,,,,,,,,,,,,,,,,,,,,,,,,,,,,,,,,,,,,
,,,,,,,62cbe9cf46e97288fedcc91a,2023-08-16_08h42.02.090,HF_wild_card,2022.2.4,Linux x86_64,59.99520038,62cbe9cf46e97288fedcc91a,64d2fd46c836a06233681665,64dc7d797a6b0686ea53d2b0,,,,,,,ctch,resources/DB.BMP,resources/DG.BMP,Door2,-0.119946522,0.010508815,1,0,0,0.7003,optionLeft,40,12715,6,28,0,28,0,1,,,,,,,,,,,,,,,,,,,,,,,,,,,,,,,,,,,,,,,
,,,,,,,62cbe9cf46e97288fedcc91a,2023-08-16_08h42.02.090,HF_wild_card,2022.2.4,Linux x86_64,59.99520038,62cbe9cf46e97288fedcc91a,64d2fd46c836a06233681665,64dc7d797a6b0686ea53d2b0,,,,,,,sngl,resources/Empty.png,resources/DG.BMP,Door3,0.253452257,0.013542263,1,0,0,0.5473,optionRight,70,12785,6,29,0,29,0,1,,,,,,,,,,,,,,,,,,,,,,,,,,,,,,,,,,,,,,,
,,,,,,,62cbe9cf46e97288fedcc91a,2023-08-16_08h42.02.090,HF_wild_card,2022.2.4,Linux x86_64,59.99520038,62cbe9cf46e97288fedcc91a,64d2fd46c836a06233681665,64dc7d797a6b0686ea53d2b0,,,,,,,decisionTrl,resources/DB.BMP,resources/DBN.BMP,Door2,-0.185488406,-0.032262056,1,0,0,1.1353,optionLeft,40,12825,6,30,0,30,0,1,,,,,,,,,,,,,,,,,,,,,,,,,,,,,,,,,,,,,,,
,,,,,,,62cbe9cf46e97288fedcc91a,2023-08-16_08h42.02.090,HF_wild_card,2022.2.4,Linux x86_64,59.99520038,62cbe9cf46e97288fedcc91a,64d2fd46c836a06233681665,64dc7d797a6b0686ea53d2b0,,,,,,,sngl,resources/DR.BMP,resources/Empty.png,Door4,-0.346008884,0.053976693,1,0,0,0.683,optionLeft,60,12885,6,31,0,31,0,1,,,,,,,,,,,,,,,,,,,,,,,,,,,,,,,,,,,,,,,
,,,,,,,62cbe9cf46e97288fedcc91a,2023-08-16_08h42.02.090,HF_wild_card,2022.2.4,Linux x86_64,59.99520038,62cbe9cf46e97288fedcc91a,64d2fd46c836a06233681665,64dc7d797a6b0686ea53d2b0,,,,,,,ctch,resources/DR.BMP,resources/DBN.BMP,Door4,-0.24492689,-0.013869092,1,0,0,0.8875,optionLeft,60,12945,6,32,0,32,0,1,,,,,,,,,,,,,,,,,,,,,,,,,,,,,,,,,,,,,,,
,,,,,,,62cbe9cf46e97288fedcc91a,2023-08-16_08h42.02.090,HF_wild_card,2022.2.4,Linux x86_64,59.99520038,62cbe9cf46e97288fedcc91a,64d2fd46c836a06233681665,64dc7d797a6b0686ea53d2b0,,,,,,,decisionTrl,resources/DBN.BMP,resources/DB.BMP,Door2,0.515097687,-0.041634801,1,0,0,1.2913,optionRight,40,12985,6,33,0,33,0,1,,,,,,,,,,,,,,,,,,,,,,,,,,,,,,,,,,,,,,,
,,,,,,,62cbe9cf46e97288fedcc91a,2023-08-16_08h42.02.090,HF_wild_card,2022.2.4,Linux x86_64,59.99520038,62cbe9cf46e97288fedcc91a,64d2fd46c836a06233681665,64dc7d797a6b0686ea53d2b0,,,,,,,decisionTrl,resources/DB.BMP,resources/DBN.BMP,Door2,-0.332590441,-0.014910461,1,0,0,0.5998,optionLeft,20,13005,6,34,0,34,0,1,,,,,,,,,,,,,,,,,,,,,,,,,,,,,,,,,,,,,,,
,,,,,,,62cbe9cf46e97288fedcc91a,2023-08-16_08h42.02.090,HF_wild_card,2022.2.4,Linux x86_64,59.99520038,62cbe9cf46e97288fedcc91a,64d2fd46c836a06233681665,64dc7d797a6b0686ea53d2b0,,,,,,,sngl,resources/DB.BMP,resources/Empty.png,Door2,-0.299047502,0.053701918,1,0,0,0.5522,optionLeft,20,13025,6,35,0,35,0,1,,,,,,,,,,,,,,,,,,,,,,,,,,,,,,,,,,,,,,,
,,,,,,,62cbe9cf46e97288fedcc91a,2023-08-16_08h42.02.090,HF_wild_card,2022.2.4,Linux x86_64,59.99520038,62cbe9cf46e97288fedcc91a,64d2fd46c836a06233681665,64dc7d797a6b0686ea53d2b0,,,,,,,sngl,resources/DBN.BMP,resources/Empty.png,Door1,-0.308033937,0.021301581,1,0,0,0.4987,optionLeft,30,13055,6,36,0,36,0,1,,,,,,,,,,,,,,,,,,,,,,,,,,,,,,,,,,,,,,,
,,,,,,,62cbe9cf46e97288fedcc91a,2023-08-16_08h42.02.090,HF_wild_card,2022.2.4,Linux x86_64,59.99520038,62cbe9cf46e97288fedcc91a,64d2fd46c836a06233681665,64dc7d797a6b0686ea53d2b0,,,,,,,ctch,resources/DB.BMP,resources/DG.BMP,Door3,0.367800495,-0.060564991,1,0,0,1.4137,optionRight,70,13125,6,37,0,37,0,1,,,,,,,,,,,,,,,,,,,,,,,,,,,,,,,,,,,,,,,
,,,,,,,62cbe9cf46e97288fedcc91a,2023-08-16_08h42.02.090,HF_wild_card,2022.2.4,Linux x86_64,59.99520038,62cbe9cf46e97288fedcc91a,64d2fd46c836a06233681665,64dc7d797a6b0686ea53d2b0,,,,,,,ctch,resources/DBN.BMP,resources/DR.BMP,Door4,0.467257788,-0.039957617,1,0,0,1.1495,optionRight,60,13185,6,38,0,38,0,1,,,,,,,,,,,,,,,,,,,,,,,,,,,,,,,,,,,,,,,
,,,,,,,62cbe9cf46e97288fedcc91a,2023-08-16_08h42.02.090,HF_wild_card,2022.2.4,Linux x86_64,59.99520038,62cbe9cf46e97288fedcc91a,64d2fd46c836a06233681665,64dc7d797a6b0686ea53d2b0,,,,,,,decisionTrl,resources/DG.BMP,resources/DR.BMP,Door3,-0.278092889,-0.063751143,1,0,0,1.8466,optionLeft,70,13255,6,39,0,39,0,1,,,,,,,,,,,,,,,,,,,,,,,,,,,,,,,,,,,,,,,
,,,,,,,62cbe9cf46e97288fedcc91a,2023-08-16_08h42.02.090,HF_wild_card,2022.2.4,Linux x86_64,59.99520038,62cbe9cf46e97288fedcc91a,64d2fd46c836a06233681665,64dc7d797a6b0686ea53d2b0,,,,,,,decisionTrl,resources/DB.BMP,resources/DBN.BMP,Door2,-0.110266891,0.010242399,1,0,0,0.8516,optionLeft,40,13295,6,40,0,40,0,1,,,,,,,,,,,,,,,,,,,,,,,,,,,,,,,,,,,,,,,
,,,,,,,62cbe9cf46e97288fedcc91a,2023-08-16_08h42.02.090,HF_wild_card,2022.2.4,Linux x86_64,59.99520038,62cbe9cf46e97288fedcc91a,64d2fd46c836a06233681665,64dc7d797a6b0686ea53d2b0,,,,,,,decisionTrl,resources/DR.BMP,resources/DG.BMP,Door4,-0.195278833,-0.006105887,1,0,0,0.7951,optionLeft,60,13355,6,41,0,41,0,1,,,,,,,,,,,,,,,,,,,,,,,,,,,,,,,,,,,,,,,
,,,,,,,62cbe9cf46e97288fedcc91a,2023-08-16_08h42.02.090,HF_wild_card,2022.2.4,Linux x86_64,59.99520038,62cbe9cf46e97288fedcc91a,64d2fd46c836a06233681665,64dc7d797a6b0686ea53d2b0,,,,,,,decisionTrl,resources/DR.BMP,resources/DG.BMP,Door3,0.284134125,0.02019389,1,0,0,1.0647,optionRight,70,13425,6,42,0,42,0,1,,,,,,,,,,,,,,,,,,,,,,,,,,,,,,,,,,,,,,,
,,,,,,,62cbe9cf46e97288fedcc91a,2023-08-16_08h42.02.090,HF_wild_card,2022.2.4,Linux x86_64,59.99520038,62cbe9cf46e97288fedcc91a,64d2fd46c836a06233681665,64dc7d797a6b0686ea53d2b0,,,,,,,decisionTrl,resources/DBN.BMP,resources/DY.BMP,WildCard_Ex,0.174652838,-0.016636667,1,0,0,0.9238,optionRight,5,13430,6,43,0,43,0,1,,,,,,,,,,,,,,,,,,,,,,,,,,,,,,,,,,,,,,,
,,,,,,,62cbe9cf46e97288fedcc91a,2023-08-16_08h42.02.090,HF_wild_card,2022.2.4,Linux x86_64,59.99520038,62cbe9cf46e97288fedcc91a,64d2fd46c836a06233681665,64dc7d797a6b0686ea53d2b0,,,,,,,,,,,,,,,,,,,,,,,,,,5,0,5,0,1,,,,,,,,,,,,,,,,,,,,,,,,,,,,,,,,,,
,,,,,,,62cbe9cf46e97288fedcc91a,2023-08-16_08h42.02.090,HF_wild_card,2022.2.4,Linux x86_64,59.99520038,62cbe9cf46e97288fedcc91a,64d2fd46c836a06233681665,64dc7d797a6b0686ea53d2b0,,,,,,,ctch,resources/DR.BMP,resources/DBN.BMP,Door4,-0.245234554,-0.061119012,1,0,0,1.5354,optionLeft,60,13490,7,0,0,0,0,1,,,,,,,,,,,,,,,,,,,,,,,,,,,,,,,,,,,,,,,
,,,,,,,62cbe9cf46e97288fedcc91a,2023-08-16_08h42.02.090,HF_wild_card,2022.2.4,Linux x86_64,59.99520038,62cbe9cf46e97288fedcc91a,64d2fd46c836a06233681665,64dc7d797a6b0686ea53d2b0,,,,,,,decisionTrl,resources/DBN.BMP,resources/DB.BMP,Door2,0.278650602,-0.035871022,1,0,0,1.3891,optionRight,20,13510,7,1,0,1,0,1,,,,,,,,,,,,,,,,,,,,,,,,,,,,,,,,,,,,,,,
,,,,,,,62cbe9cf46e97288fedcc91a,2023-08-16_08h42.02.090,HF_wild_card,2022.2.4,Linux x86_64,59.99520038,62cbe9cf46e97288fedcc91a,64d2fd46c836a06233681665,64dc7d797a6b0686ea53d2b0,,,,,,,decisionTrl,resources/DBN.BMP,resources/DB.BMP,Door2,0.25279681,-0.023752978,1,0,0,1.0107,optionRight,20,13530,7,2,0,2,0,1,,,,,,,,,,,,,,,,,,,,,,,,,,,,,,,,,,,,,,,
,,,,,,,62cbe9cf46e97288fedcc91a,2023-08-16_08h42.02.090,HF_wild_card,2022.2.4,Linux x86_64,59.99520038,62cbe9cf46e97288fedcc91a,64d2fd46c836a06233681665,64dc7d797a6b0686ea53d2b0,,,,,,,decisionTrl,resources/DB.BMP,resources/DBN.BMP,Door2,-0.277452486,0.010518534,1,0,0,1.1957,optionLeft,20,13550,7,3,0,3,0,1,,,,,,,,,,,,,,,,,,,,,,,,,,,,,,,,,,,,,,,
,,,,,,,62cbe9cf46e97288fedcc91a,2023-08-16_08h42.02.090,HF_wild_card,2022.2.4,Linux x86_64,59.99520038,62cbe9cf46e97288fedcc91a,64d2fd46c836a06233681665,64dc7d797a6b0686ea53d2b0,,,,,,,decisionTrl,resources/DB.BMP,resources/DBN.BMP,Door2,-0.18714553,-0.029986261,1,0,0,0.7355,optionLeft,20,13570,7,4,0,4,0,1,,,,,,,,,,,,,,,,,,,,,,,,,,,,,,,,,,,,,,,
,,,,,,,62cbe9cf46e97288fedcc91a,2023-08-16_08h42.02.090,HF_wild_card,2022.2.4,Linux x86_64,59.99520038,62cbe9cf46e97288fedcc91a,64d2fd46c836a06233681665,64dc7d797a6b0686ea53d2b0,,,,,,,decisionTrl,resources/DR.BMP,resources/DG.BMP,Door3,0.459548542,0.078938478,1,0,0,1.3998,optionRight,70,13640,7,5,0,5,0,1,,,,,,,,,,,,,,,,,,,,,,,,,,,,,,,,,,,,,,,
,,,,,,,62cbe9cf46e97288fedcc91a,2023-08-16_08h42.02.090,HF_wild_card,2022.2.4,Linux x86_64,59.99520038,62cbe9cf46e97288fedcc91a,64d2fd46c836a06233681665,64dc7d797a6b0686ea53d2b0,,,,,,,decisionTrl,resources/DG.BMP,resources/DR.BMP,Door4,0.283333515,-0.032350888,1,0,0,1.1158,optionRight,80,13720,7,6,0,6,0,1,,,,,,,,,,,,,,,,,,,,,,,,,,,,,,,,,,,,,,,
,,,,,,,62cbe9cf46e97288fedcc91a,2023-08-16_08h42.02.090,HF_wild_card,2022.2.4,Linux x86_64,59.99520038,62cbe9cf46e97288fedcc91a,64d2fd46c836a06233681665,64dc7d797a6b0686ea53d2b0,,,,,,,decisionTrl,resources/DG.BMP,resources/DR.BMP,Door4,0.166832408,-0.028557067,1,0,0,0.667,optionRight,60,13780,7,7,0,7,0,1,,,,,,,,,,,,,,,,,,,,,,,,,,,,,,,,,,,,,,,
,,,,,,,62cbe9cf46e97288fedcc91a,2023-08-16_08h42.02.090,HF_wild_card,2022.2.4,Linux x86_64,59.99520038,62cbe9cf46e97288fedcc91a,64d2fd46c836a06233681665,64dc7d797a6b0686ea53d2b0,,,,,,,decisionTrl,resources/DG.BMP,resources/DR.BMP,Door3,-0.153010394,-0.01315086,1,0,0,0.6745,optionLeft,70,13850,7,8,0,8,0,1,,,,,,,,,,,,,,,,,,,,,,,,,,,,,,,,,,,,,,,
,,,,,,,62cbe9cf46e97288fedcc91a,2023-08-16_08h42.02.090,HF_wild_card,2022.2.4,Linux x86_64,59.99520038,62cbe9cf46e97288fedcc91a,64d2fd46c836a06233681665,64dc7d797a6b0686ea53d2b0,,,,,,,ctch,resources/DG.BMP,resources/DB.BMP,Door3,-0.274795824,0.012589492,1,0,0,1.5085,optionLeft,70,13920,7,9,0,9,0,1,,,,,,,,,,,,,,,,,,,,,,,,,,,,,,,,,,,,,,,
,,,,,,,62cbe9cf46e97288fedcc91a,2023-08-16_08h42.02.090,HF_wild_card,2022.2.4,Linux x86_64,59.99520038,62cbe9cf46e97288fedcc91a,64d2fd46c836a06233681665,64dc7d797a6b0686ea53d2b0,,,,,,,decisionTrl,resources/DG.BMP,resources/DR.BMP,Door3,-0.241735101,-0.005863068,1,0,0,0.8952,optionLeft,70,13990,7,10,0,10,0,1,,,,,,,,,,,,,,,,,,,,,,,,,,,,,,,,,,,,,,,
,,,,,,,62cbe9cf46e97288fedcc91a,2023-08-16_08h42.02.090,HF_wild_card,2022.2.4,Linux x86_64,59.99520038,62cbe9cf46e97288fedcc91a,64d2fd46c836a06233681665,64dc7d797a6b0686ea53d2b0,,,,,,,ctch,resources/DR.BMP,resources/DBN.BMP,Door4,-0.150327724,-0.008155113,1,0,0,1.0887,optionLeft,60,14050,7,11,0,11,0,1,,,,,,,,,,,,,,,,,,,,,,,,,,,,,,,,,,,,,,,
,,,,,,,62cbe9cf46e97288fedcc91a,2023-08-16_08h42.02.090,HF_wild_card,2022.2.4,Linux x86_64,59.99520038,62cbe9cf46e97288fedcc91a,64d2fd46c836a06233681665,64dc7d797a6b0686ea53d2b0,,,,,,,ctch,resources/DG.BMP,resources/DB.BMP,Door3,-0.153006506,-0.001218409,1,0,0,1.3055,optionLeft,70,14120,7,12,0,12,0,1,,,,,,,,,,,,,,,,,,,,,,,,,,,,,,,,,,,,,,,
,,,,,,,62cbe9cf46e97288fedcc91a,2023-08-16_08h42.02.090,HF_wild_card,2022.2.4,Linux x86_64,59.99520038,62cbe9cf46e97288fedcc91a,64d2fd46c836a06233681665,64dc7d797a6b0686ea53d2b0,,,,,,,decisionTrl,resources/DG.BMP,resources/DR.BMP,Door3,-0.304406505,-0.010807149,1,0,0,1.6694,optionLeft,70,14190,7,13,0,13,0,1,,,,,,,,,,,,,,,,,,,,,,,,,,,,,,,,,,,,,,,
,,,,,,,62cbe9cf46e97288fedcc91a,2023-08-16_08h42.02.090,HF_wild_card,2022.2.4,Linux x86_64,59.99520038,62cbe9cf46e97288fedcc91a,64d2fd46c836a06233681665,64dc7d797a6b0686ea53d2b0,,,,,,,decisionTrl,resources/DR.BMP,resources/DG.BMP,Door4,-0.416255956,0.010015519,1,0,0,1.0303,optionLeft,60,14250,7,14,0,14,0,1,,,,,,,,,,,,,,,,,,,,,,,,,,,,,,,,,,,,,,,
