Condition,Low fixed image (Door1),Low risky image (Door2),High fixed image (Door3),High risky image (Door4),NonExtreme Wild Card 1,NonExtreme Wild Card 2,,date,expName,psychopyVersion,OS,frameRate,PROLIFIC_PID,STUDY_ID,SESSION_ID,mouse_2.x,mouse_2.y,mouse_2.leftButton,mouse_2.midButton,mouse_2.rightButton,mouse_2.clicked_name,Trial Type,Left Option Image,Right Option Image,Chosen Door,mouse.x,mouse.y,mouse.leftButton,mouse.midButton,mouse.rightButton,mouse.time,mouse.clicked_name,Feedback,Cumulative Reward,Block,trial.thisRepN,trial.thisTrialN,trial.thisN,trial.thisIndex,trial.ran,blocks.thisRepN,blocks.thisTrialN,blocks.thisN,blocks.thisIndex,blocks.ran,Money conversion,First Outcome Reported,Shown Door (First Outcome),Displayed Image (First Outcome),outcomes.thisRepN,outcomes.thisTrialN,outcomes.thisN,outcomes.thisIndex,outcomes.ran,judgments.thisRepN,judgments.thisTrialN,judgments.thisN,judgments.thisIndex,judgments.ran,freqMouse.x,freqMouse.y,freqMouse.leftButton,freqMouse.midButton,freqMouse.rightButton,freqMouse.clicked_name,FQJ for first outcome,FQJ for second outcome,Shown Door,Displayed Image,trials.thisRepN,trials.thisTrialN,trials.thisN,trials.thisIndex,trials.ran,judgBlock.thisRepN,judgBlock.thisTrialN,judgBlock.thisN,judgBlock.thisIndex,judgBlock.ran
2,resources/DP.BMP,resources/DY.BMP,resources/DB.BMP,resources/DR.BMP,resources/DBN.BMP,resources/DG.BMP,,2023-08-16_08h44.25.712,HF_wild_card,2022.2.4,MacIntel,62.97229219,5e25d748cf445f81e521f802,64d2fd46c836a06233681665,64dc7e414fa711d3e01f214b,,,,,,,,,,,,,,,,,,,,,,,,,,,,,,,,,,,,,,,,,,,,,,,,,,,,,,,,,,,,,,,,
,,,,,,,,2023-08-16_08h44.25.712,HF_wild_card,2022.2.4,MacIntel,62.97229219,5e25d748cf445f81e521f802,64d2fd46c836a06233681665,64dc7e414fa711d3e01f214b,0.00308642,-0.415123457,1,0,0,agree,,,,,,,,,,,,,,,,,,,,,,,,,,,,,,,,,,,,,,,,,,,,,,,,,,,,,,,,,,
,,,,,,,,2023-08-16_08h44.25.712,HF_wild_card,2022.2.4,MacIntel,62.97229219,5e25d748cf445f81e521f802,64d2fd46c836a06233681665,64dc7e414fa711d3e01f214b,,,,,,,,,,,,,,,,,,,,,,,,,,,,,,,,,,,,,,,,,,,,,,,,,,,,,,,,,,,,,,,,
,,,,,,,,2023-08-16_08h44.25.712,HF_wild_card,2022.2.4,MacIntel,62.97229219,5e25d748cf445f81e521f802,64d2fd46c836a06233681665,64dc7e414fa711d3e01f214b,,,,,,,ctch,resources/DY.BMP,resources/DB.BMP,Door3,0.311728395,-0.154320988,1,0,0,3.775,optionRight,70,70,1,0,0,0,0,1,,,,,,,,,,,,,,,,,,,,,,,,,,,,,,,,,,,,,,,
,,,,,,,,2023-08-16_08h44.25.712,HF_wild_card,2022.2.4,MacIntel,62.97229219,5e25d748cf445f81e521f802,64d2fd46c836a06233681665,64dc7e414fa711d3e01f214b,,,,,,,decisionTrl,resources/DR.BMP,resources/DB.BMP,Door3,0.402777778,-0.035493827,1,0,0,4.305,optionRight,70,140,1,1,0,1,0,1,,,,,,,,,,,,,,,,,,,,,,,,,,,,,,,,,,,,,,,
,,,,,,,,2023-08-16_08h44.25.712,HF_wild_card,2022.2.4,MacIntel,62.97229219,5e25d748cf445f81e521f802,64d2fd46c836a06233681665,64dc7e414fa711d3e01f214b,,,,,,,sngl,resources/Empty.png,resources/DP.BMP,Door1,0.410493827,-0.029320988,1,0,0,2.55,optionRight,30,170,1,2,0,2,0,1,,,,,,,,,,,,,,,,,,,,,,,,,,,,,,,,,,,,,,,
,,,,,,,,2023-08-16_08h44.25.712,HF_wild_card,2022.2.4,MacIntel,62.97229219,5e25d748cf445f81e521f802,64d2fd46c836a06233681665,64dc7e414fa711d3e01f214b,,,,,,,sngl,resources/Empty.png,resources/DB.BMP,Door3,0.316358025,-0.020061728,1,0,0,1.72,optionRight,70,240,1,3,0,3,0,1,,,,,,,,,,,,,,,,,,,,,,,,,,,,,,,,,,,,,,,
,,,,,,,,2023-08-16_08h44.25.712,HF_wild_card,2022.2.4,MacIntel,62.97229219,5e25d748cf445f81e521f802,64d2fd46c836a06233681665,64dc7e414fa711d3e01f214b,,,,,,,ctch,resources/DY.BMP,resources/DB.BMP,Door2,-0.455246914,-0.016975309,1,0,0,1.132,optionLeft,40,280,1,4,0,4,0,1,,,,,,,,,,,,,,,,,,,,,,,,,,,,,,,,,,,,,,,
,,,,,,,,2023-08-16_08h44.25.712,HF_wild_card,2022.2.4,MacIntel,62.97229219,5e25d748cf445f81e521f802,64d2fd46c836a06233681665,64dc7e414fa711d3e01f214b,,,,,,,ctch,resources/DR.BMP,resources/DP.BMP,Door4,-0.354938272,0.010802469,1,0,0,4.052,optionLeft,80,360,1,5,0,5,0,1,,,,,,,,,,,,,,,,,,,,,,,,,,,,,,,,,,,,,,,
,,,,,,,,2023-08-16_08h44.25.712,HF_wild_card,2022.2.4,MacIntel,62.97229219,5e25d748cf445f81e521f802,64d2fd46c836a06233681665,64dc7e414fa711d3e01f214b,,,,,,,sngl,resources/Empty.png,resources/DY.BMP,Door2,0.322530864,-0.016975309,1,0,0,1.75,optionRight,20,380,1,6,0,6,0,1,,,,,,,,,,,,,,,,,,,,,,,,,,,,,,,,,,,,,,,
,,,,,,,,2023-08-16_08h44.25.712,HF_wild_card,2022.2.4,MacIntel,62.97229219,5e25d748cf445f81e521f802,64d2fd46c836a06233681665,64dc7e414fa711d3e01f214b,,,,,,,ctch,resources/DP.BMP,resources/DR.BMP,Door1,-0.455246914,0.013888889,1,0,0,2.052,optionLeft,30,410,1,7,0,7,0,1,,,,,,,,,,,,,,,,,,,,,,,,,,,,,,,,,,,,,,,
,,,,,,,,2023-08-16_08h44.25.712,HF_wild_card,2022.2.4,MacIntel,62.97229219,5e25d748cf445f81e521f802,64d2fd46c836a06233681665,64dc7e414fa711d3e01f214b,,,,,,,decisionTrl,resources/DR.BMP,resources/DB.BMP,Door4,-0.459876543,-0.00154321,1,0,0,0.763,optionLeft,80,490,1,8,0,8,0,1,,,,,,,,,,,,,,,,,,,,,,,,,,,,,,,,,,,,,,,
,,,,,,,,2023-08-16_08h44.25.712,HF_wild_card,2022.2.4,MacIntel,62.97229219,5e25d748cf445f81e521f802,64d2fd46c836a06233681665,64dc7e414fa711d3e01f214b,,,,,,,decisionTrl,resources/DR.BMP,resources/DB.BMP,Door4,-0.404320988,0.009259259,1,0,0,0.748,optionLeft,60,550,1,9,0,9,0,1,,,,,,,,,,,,,,,,,,,,,,,,,,,,,,,,,,,,,,,
,,,,,,,,2023-08-16_08h44.25.712,HF_wild_card,2022.2.4,MacIntel,62.97229219,5e25d748cf445f81e521f802,64d2fd46c836a06233681665,64dc7e414fa711d3e01f214b,,,,,,,decisionTrl,resources/DP.BMP,resources/DY.BMP,Door2,0.266975309,-0.032407407,1,0,0,3.036,optionRight,40,590,1,10,0,10,0,1,,,,,,,,,,,,,,,,,,,,,,,,,,,,,,,,,,,,,,,
,,,,,,,,2023-08-16_08h44.25.712,HF_wild_card,2022.2.4,MacIntel,62.97229219,5e25d748cf445f81e521f802,64d2fd46c836a06233681665,64dc7e414fa711d3e01f214b,,,,,,,sngl,resources/DY.BMP,resources/Empty.png,Door2,-0.36882716,0.032407407,1,0,0,1.135,optionLeft,40,630,1,11,0,11,0,1,,,,,,,,,,,,,,,,,,,,,,,,,,,,,,,,,,,,,,,
,,,,,,,,2023-08-16_08h44.25.712,HF_wild_card,2022.2.4,MacIntel,62.97229219,5e25d748cf445f81e521f802,64d2fd46c836a06233681665,64dc7e414fa711d3e01f214b,,,,,,,decisionTrl,resources/DG.BMP,resources/DY.BMP,WildCard_NonEx,-0.313271605,0.009259259,1,0,0,1.581,optionLeft,55,685,1,12,0,12,0,1,,,,,,,,,,,,,,,,,,,,,,,,,,,,,,,,,,,,,,,
,,,,,,,,2023-08-16_08h44.25.712,HF_wild_card,2022.2.4,MacIntel,62.97229219,5e25d748cf445f81e521f802,64d2fd46c836a06233681665,64dc7e414fa711d3e01f214b,,,,,,,decisionTrl,resources/DY.BMP,resources/DP.BMP,Door1,0.347222222,-0.037037037,1,0,0,1.467,optionRight,30,715,1,13,0,13,0,1,,,,,,,,,,,,,,,,,,,,,,,,,,,,,,,,,,,,,,,
,,,,,,,,2023-08-16_08h44.25.712,HF_wild_card,2022.2.4,MacIntel,62.97229219,5e25d748cf445f81e521f802,64d2fd46c836a06233681665,64dc7e414fa711d3e01f214b,,,,,,,decisionTrl,resources/DP.BMP,resources/DY.BMP,Door1,-0.345679012,0.016975309,1,0,0,1.75,optionLeft,30,745,1,14,0,14,0,1,,,,,,,,,,,,,,,,,,,,,,,,,,,,,,,,,,,,,,,
,,,,,,,,2023-08-16_08h44.25.712,HF_wild_card,2022.2.4,MacIntel,62.97229219,5e25d748cf445f81e521f802,64d2fd46c836a06233681665,64dc7e414fa711d3e01f214b,,,,,,,ctch,resources/DB.BMP,resources/DY.BMP,Door3,-0.328703704,0.018518519,1,0,0,1.067,optionLeft,70,815,1,15,0,15,0,1,,,,,,,,,,,,,,,,,,,,,,,,,,,,,,,,,,,,,,,
,,,,,,,,2023-08-16_08h44.25.712,HF_wild_card,2022.2.4,MacIntel,62.97229219,5e25d748cf445f81e521f802,64d2fd46c836a06233681665,64dc7e414fa711d3e01f214b,,,,,,,decisionTrl,resources/DB.BMP,resources/DR.BMP,Door4,0.328703704,-0.016975309,1,0,0,1.901,optionRight,60,875,1,16,0,16,0,1,,,,,,,,,,,,,,,,,,,,,,,,,,,,,,,,,,,,,,,
,,,,,,,,2023-08-16_08h44.25.712,HF_wild_card,2022.2.4,MacIntel,62.97229219,5e25d748cf445f81e521f802,64d2fd46c836a06233681665,64dc7e414fa711d3e01f214b,,,,,,,decisionTrl,resources/DY.BMP,resources/DP.BMP,Door1,0.328703704,-0.023148148,1,0,0,1.748,optionRight,30,905,1,17,0,17,0,1,,,,,,,,,,,,,,,,,,,,,,,,,,,,,,,,,,,,,,,
,,,,,,,,2023-08-16_08h44.25.712,HF_wild_card,2022.2.4,MacIntel,62.97229219,5e25d748cf445f81e521f802,64d2fd46c836a06233681665,64dc7e414fa711d3e01f214b,,,,,,,sngl,resources/DR.BMP,resources/Empty.png,Door4,-0.481481481,0.00462963,1,0,0,0.714,optionLeft,80,985,1,18,0,18,0,1,,,,,,,,,,,,,,,,,,,,,,,,,,,,,,,,,,,,,,,
,,,,,,,,2023-08-16_08h44.25.712,HF_wild_card,2022.2.4,MacIntel,62.97229219,5e25d748cf445f81e521f802,64d2fd46c836a06233681665,64dc7e414fa711d3e01f214b,,,,,,,sngl,resources/DG.BMP,resources/Empty.png,WildCard_NonEx,-0.37037037,0,1,0,0,0.981,optionLeft,55,1040,1,19,0,19,0,1,,,,,,,,,,,,,,,,,,,,,,,,,,,,,,,,,,,,,,,
,,,,,,,,2023-08-16_08h44.25.712,HF_wild_card,2022.2.4,MacIntel,62.97229219,5e25d748cf445f81e521f802,64d2fd46c836a06233681665,64dc7e414fa711d3e01f214b,,,,,,,sngl,resources/Empty.png,resources/DG.BMP,WildCard_NonEx,0.5,-0.030864198,1,0,0,0.698,optionRight,55,1095,1,20,0,20,0,1,,,,,,,,,,,,,,,,,,,,,,,,,,,,,,,,,,,,,,,
,,,,,,,,2023-08-16_08h44.25.712,HF_wild_card,2022.2.4,MacIntel,62.97229219,5e25d748cf445f81e521f802,64d2fd46c836a06233681665,64dc7e414fa711d3e01f214b,,,,,,,decisionTrl,resources/DB.BMP,resources/DR.BMP,Door4,0.334876543,-0.012345679,1,0,0,1.418,optionRight,60,1155,1,21,0,21,0,1,,,,,,,,,,,,,,,,,,,,,,,,,,,,,,,,,,,,,,,
,,,,,,,,2023-08-16_08h44.25.712,HF_wild_card,2022.2.4,MacIntel,62.97229219,5e25d748cf445f81e521f802,64d2fd46c836a06233681665,64dc7e414fa711d3e01f214b,,,,,,,ctch,resources/DB.BMP,resources/DY.BMP,Door3,-0.325617284,-0.00308642,1,0,0,1.52,optionLeft,70,1225,1,22,0,22,0,1,,,,,,,,,,,,,,,,,,,,,,,,,,,,,,,,,,,,,,,
,,,,,,,,2023-08-16_08h44.25.712,HF_wild_card,2022.2.4,MacIntel,62.97229219,5e25d748cf445f81e521f802,64d2fd46c836a06233681665,64dc7e414fa711d3e01f214b,,,,,,,decisionTrl,resources/DP.BMP,resources/DY.BMP,Door1,-0.37037037,0.00308642,1,0,0,2.15,optionLeft,30,1255,1,23,0,23,0,1,,,,,,,,,,,,,,,,,,,,,,,,,,,,,,,,,,,,,,,
,,,,,,,,2023-08-16_08h44.25.712,HF_wild_card,2022.2.4,MacIntel,62.97229219,5e25d748cf445f81e521f802,64d2fd46c836a06233681665,64dc7e414fa711d3e01f214b,,,,,,,ctch,resources/DR.BMP,resources/DP.BMP,Door4,-0.367283951,0,1,0,0,2.249,optionLeft,60,1315,1,24,0,24,0,1,,,,,,,,,,,,,,,,,,,,,,,,,,,,,,,,,,,,,,,
,,,,,,,,2023-08-16_08h44.25.712,HF_wild_card,2022.2.4,MacIntel,62.97229219,5e25d748cf445f81e521f802,64d2fd46c836a06233681665,64dc7e414fa711d3e01f214b,,,,,,,sngl,resources/Empty.png,resources/DG.BMP,WildCard_NonEx,0.597222222,-0.041666667,1,0,0,0.981,optionRight,45,1360,1,25,0,25,0,1,,,,,,,,,,,,,,,,,,,,,,,,,,,,,,,,,,,,,,,
,,,,,,,,2023-08-16_08h44.25.712,HF_wild_card,2022.2.4,MacIntel,62.97229219,5e25d748cf445f81e521f802,64d2fd46c836a06233681665,64dc7e414fa711d3e01f214b,,,,,,,sngl,resources/Empty.png,resources/DR.BMP,Door4,0.354938272,-0.030864198,1,0,0,0.815,optionRight,60,1420,1,26,0,26,0,1,,,,,,,,,,,,,,,,,,,,,,,,,,,,,,,,,,,,,,,
,,,,,,,,2023-08-16_08h44.25.712,HF_wild_card,2022.2.4,MacIntel,62.97229219,5e25d748cf445f81e521f802,64d2fd46c836a06233681665,64dc7e414fa711d3e01f214b,,,,,,,decisionTrl,resources/DY.BMP,resources/DG.BMP,WildCard_NonEx,0.328703704,-0.021604938,1,0,0,1.416,optionRight,55,1475,1,27,0,27,0,1,,,,,,,,,,,,,,,,,,,,,,,,,,,,,,,,,,,,,,,
,,,,,,,,2023-08-16_08h44.25.712,HF_wild_card,2022.2.4,MacIntel,62.97229219,5e25d748cf445f81e521f802,64d2fd46c836a06233681665,64dc7e414fa711d3e01f214b,,,,,,,decisionTrl,resources/DB.BMP,resources/DG.BMP,Door3,-0.425925926,0.015432099,1,0,0,1.681,optionLeft,70,1545,1,28,0,28,0,1,,,,,,,,,,,,,,,,,,,,,,,,,,,,,,,,,,,,,,,
,,,,,,,,2023-08-16_08h44.25.712,HF_wild_card,2022.2.4,MacIntel,62.97229219,5e25d748cf445f81e521f802,64d2fd46c836a06233681665,64dc7e414fa711d3e01f214b,,,,,,,decisionTrl,resources/DG.BMP,resources/DR.BMP,Door4,0.339506173,-0.010802469,1,0,0,1.633,optionRight,60,1605,1,29,0,29,0,1,,,,,,,,,,,,,,,,,,,,,,,,,,,,,,,,,,,,,,,
,,,,,,,,2023-08-16_08h44.25.712,HF_wild_card,2022.2.4,MacIntel,62.97229219,5e25d748cf445f81e521f802,64d2fd46c836a06233681665,64dc7e414fa711d3e01f214b,,,,,,,sngl,resources/DP.BMP,resources/Empty.png,Door1,-0.464506173,0.015432099,1,0,0,0.914,optionLeft,30,1635,1,30,0,30,0,1,,,,,,,,,,,,,,,,,,,,,,,,,,,,,,,,,,,,,,,
,,,,,,,,2023-08-16_08h44.25.712,HF_wild_card,2022.2.4,MacIntel,62.97229219,5e25d748cf445f81e521f802,64d2fd46c836a06233681665,64dc7e414fa711d3e01f214b,,,,,,,decisionTrl,resources/DG.BMP,resources/DB.BMP,Door3,0.271604938,-0.035493827,1,0,0,1.3,optionRight,70,1705,1,31,0,31,0,1,,,,,,,,,,,,,,,,,,,,,,,,,,,,,,,,,,,,,,,
,,,,,,,,2023-08-16_08h44.25.712,HF_wild_card,2022.2.4,MacIntel,62.97229219,5e25d748cf445f81e521f802,64d2fd46c836a06233681665,64dc7e414fa711d3e01f214b,,,,,,,decisionTrl,resources/DB.BMP,resources/DR.BMP,Door3,-0.351851852,0.010802469,1,0,0,2.104,optionLeft,70,1775,1,32,0,32,0,1,,,,,,,,,,,,,,,,,,,,,,,,,,,,,,,,,,,,,,,
,,,,,,,,2023-08-16_08h44.25.712,HF_wild_card,2022.2.4,MacIntel,62.97229219,5e25d748cf445f81e521f802,64d2fd46c836a06233681665,64dc7e414fa711d3e01f214b,,,,,,,decisionTrl,resources/DY.BMP,resources/DP.BMP,Door2,-0.324074074,-0.040123457,1,0,0,2.301,optionLeft,40,1815,1,33,0,33,0,1,,,,,,,,,,,,,,,,,,,,,,,,,,,,,,,,,,,,,,,
,,,,,,,,2023-08-16_08h44.25.712,HF_wild_card,2022.2.4,MacIntel,62.97229219,5e25d748cf445f81e521f802,64d2fd46c836a06233681665,64dc7e414fa711d3e01f214b,,,,,,,decisionTrl,resources/DP.BMP,resources/DY.BMP,Door2,0.276234568,-0.029320988,1,0,0,1.781,optionRight,20,1835,1,34,0,34,0,1,,,,,,,,,,,,,,,,,,,,,,,,,,,,,,,,,,,,,,,
,,,,,,,,2023-08-16_08h44.25.712,HF_wild_card,2022.2.4,MacIntel,62.97229219,5e25d748cf445f81e521f802,64d2fd46c836a06233681665,64dc7e414fa711d3e01f214b,,,,,,,sngl,resources/DG.BMP,resources/Empty.png,WildCard_NonEx,-0.410493827,0.018518519,1,0,0,1.967,optionLeft,45,1880,1,35,0,35,0,1,,,,,,,,,,,,,,,,,,,,,,,,,,,,,,,,,,,,,,,
,,,,,,,,2023-08-16_08h44.25.712,HF_wild_card,2022.2.4,MacIntel,62.97229219,5e25d748cf445f81e521f802,64d2fd46c836a06233681665,64dc7e414fa711d3e01f214b,,,,,,,ctch,resources/DP.BMP,resources/DR.BMP,Door4,0.287037037,-0.037037037,1,0,0,2.15,optionRight,60,1940,1,36,0,36,0,1,,,,,,,,,,,,,,,,,,,,,,,,,,,,,,,,,,,,,,,
,,,,,,,,2023-08-16_08h44.25.712,HF_wild_card,2022.2.4,MacIntel,62.97229219,5e25d748cf445f81e521f802,64d2fd46c836a06233681665,64dc7e414fa711d3e01f214b,,,,,,,decisionTrl,resources/DB.BMP,resources/DR.BMP,Door3,-0.337962963,-0.012345679,1,0,0,1.566,optionLeft,70,2010,1,37,0,37,0,1,,,,,,,,,,,,,,,,,,,,,,,,,,,,,,,,,,,,,,,
,,,,,,,,2023-08-16_08h44.25.712,HF_wild_card,2022.2.4,MacIntel,62.97229219,5e25d748cf445f81e521f802,64d2fd46c836a06233681665,64dc7e414fa711d3e01f214b,,,,,,,decisionTrl,resources/DY.BMP,resources/DP.BMP,Door2,-0.319444444,-0.016975309,1,0,0,3.555,optionLeft,40,2050,1,38,0,38,0,1,,,,,,,,,,,,,,,,,,,,,,,,,,,,,,,,,,,,,,,
,,,,,,,,2023-08-16_08h44.25.712,HF_wild_card,2022.2.4,MacIntel,62.97229219,5e25d748cf445f81e521f802,64d2fd46c836a06233681665,64dc7e414fa711d3e01f214b,,,,,,,decisionTrl,resources/DR.BMP,resources/DG.BMP,Door4,-0.293209877,0.027777778,1,0,0,2.399,optionLeft,80,2130,1,39,0,39,0,1,,,,,,,,,,,,,,,,,,,,,,,,,,,,,,,,,,,,,,,
,,,,,,,,2023-08-16_08h44.25.712,HF_wild_card,2022.2.4,MacIntel,62.97229219,5e25d748cf445f81e521f802,64d2fd46c836a06233681665,64dc7e414fa711d3e01f214b,,,,,,,decisionTrl,resources/DG.BMP,resources/DP.BMP,WildCard_NonEx,-0.413580247,-0.012345679,1,0,0,3.404,optionLeft,55,2185,1,40,0,40,0,1,,,,,,,,,,,,,,,,,,,,,,,,,,,,,,,,,,,,,,,
,,,,,,,,2023-08-16_08h44.25.712,HF_wild_card,2022.2.4,MacIntel,62.97229219,5e25d748cf445f81e521f802,64d2fd46c836a06233681665,64dc7e414fa711d3e01f214b,,,,,,,sngl,resources/DB.BMP,resources/Empty.png,Door3,-0.327160494,-0.012345679,1,0,0,0.763,optionLeft,70,2255,1,41,0,41,0,1,,,,,,,,,,,,,,,,,,,,,,,,,,,,,,,,,,,,,,,
,,,,,,,,2023-08-16_08h44.25.712,HF_wild_card,2022.2.4,MacIntel,62.97229219,5e25d748cf445f81e521f802,64d2fd46c836a06233681665,64dc7e414fa711d3e01f214b,,,,,,,decisionTrl,resources/DP.BMP,resources/DG.BMP,Door1,-0.345679012,0.033950617,1,0,0,1.584,optionLeft,30,2285,1,42,0,42,0,1,,,,,,,,,,,,,,,,,,,,,,,,,,,,,,,,,,,,,,,
,,,,,,,,2023-08-16_08h44.25.712,HF_wild_card,2022.2.4,MacIntel,62.97229219,5e25d748cf445f81e521f802,64d2fd46c836a06233681665,64dc7e414fa711d3e01f214b,,,,,,,decisionTrl,resources/DR.BMP,resources/DB.BMP,Door3,0.266975309,-0.024691358,1,0,0,2.868,optionRight,70,2355,1,43,0,43,0,1,,,,,,,,,,,,,,,,,,,,,,,,,,,,,,,,,,,,,,,
,,,,,,,,2023-08-16_08h44.25.712,HF_wild_card,2022.2.4,MacIntel,62.97229219,5e25d748cf445f81e521f802,64d2fd46c836a06233681665,64dc7e414fa711d3e01f214b,,,,,,,,,,,,,,,,,,,,,,,,,,0,0,0,0,1,,,,,,,,,,,,,,,,,,,,,,,,,,,,,,,,,,
,,,,,,,,2023-08-16_08h44.25.712,HF_wild_card,2022.2.4,MacIntel,62.97229219,5e25d748cf445f81e521f802,64d2fd46c836a06233681665,64dc7e414fa711d3e01f214b,,,,,,,ctch,resources/DY.BMP,resources/DB.BMP,Door3,0.533950617,-0.020061728,1,0,0,1.394,optionRight,70,2425,2,0,0,0,0,1,,,,,,,,,,,,,,,,,,,,,,,,,,,,,,,,,,,,,,,
,,,,,,,,2023-08-16_08h44.25.712,HF_wild_card,2022.2.4,MacIntel,62.97229219,5e25d748cf445f81e521f802,64d2fd46c836a06233681665,64dc7e414fa711d3e01f214b,,,,,,,decisionTrl,resources/DR.BMP,resources/DB.BMP,Door4,-0.347222222,0.016975309,1,0,0,1.248,optionLeft,60,2485,2,1,0,1,0,1,,,,,,,,,,,,,,,,,,,,,,,,,,,,,,,,,,,,,,,
,,,,,,,,2023-08-16_08h44.25.712,HF_wild_card,2022.2.4,MacIntel,62.97229219,5e25d748cf445f81e521f802,64d2fd46c836a06233681665,64dc7e414fa711d3e01f214b,,,,,,,sngl,resources/DG.BMP,resources/Empty.png,WildCard_NonEx,-0.310185185,0.032407407,1,0,0,1.032,optionLeft,55,2540,2,2,0,2,0,1,,,,,,,,,,,,,,,,,,,,,,,,,,,,,,,,,,,,,,,
,,,,,,,,2023-08-16_08h44.25.712,HF_wild_card,2022.2.4,MacIntel,62.97229219,5e25d748cf445f81e521f802,64d2fd46c836a06233681665,64dc7e414fa711d3e01f214b,,,,,,,ctch,resources/DB.BMP,resources/DY.BMP,Door3,-0.385802469,0.026234568,1,0,0,1.155,optionLeft,70,2610,2,3,0,3,0,1,,,,,,,,,,,,,,,,,,,,,,,,,,,,,,,,,,,,,,,
,,,,,,,,2023-08-16_08h44.25.712,HF_wild_card,2022.2.4,MacIntel,62.97229219,5e25d748cf445f81e521f802,64d2fd46c836a06233681665,64dc7e414fa711d3e01f214b,,,,,,,decisionTrl,resources/DB.BMP,resources/DR.BMP,Door4,0.390432099,-0.010802469,1,0,0,1.199,optionRight,80,2690,2,4,0,4,0,1,,,,,,,,,,,,,,,,,,,,,,,,,,,,,,,,,,,,,,,
,,,,,,,,2023-08-16_08h44.25.712,HF_wild_card,2022.2.4,MacIntel,62.97229219,5e25d748cf445f81e521f802,64d2fd46c836a06233681665,64dc7e414fa711d3e01f214b,,,,,,,decisionTrl,resources/DR.BMP,resources/DB.BMP,Door4,-0.387345679,0.018518519,1,0,0,0.93,optionLeft,80,2770,2,5,0,5,0,1,,,,,,,,,,,,,,,,,,,,,,,,,,,,,,,,,,,,,,,
,,,,,,,,2023-08-16_08h44.25.712,HF_wild_card,2022.2.4,MacIntel,62.97229219,5e25d748cf445f81e521f802,64d2fd46c836a06233681665,64dc7e414fa711d3e01f214b,,,,,,,sngl,resources/Empty.png,resources/DR.BMP,Door4,0.37808642,-0.021604938,1,0,0,0.677,optionRight,80,2850,2,6,0,6,0,1,,,,,,,,,,,,,,,,,,,,,,,,,,,,,,,,,,,,,,,
,,,,,,,,2023-08-16_08h44.25.712,HF_wild_card,2022.2.4,MacIntel,62.97229219,5e25d748cf445f81e521f802,64d2fd46c836a06233681665,64dc7e414fa711d3e01f214b,,,,,,,sngl,resources/DG.BMP,resources/Empty.png,WildCard_NonEx,-0.407407407,0.035493827,1,0,0,0.746,optionLeft,45,2895,2,7,0,7,0,1,,,,,,,,,,,,,,,,,,,,,,,,,,,,,,,,,,,,,,,
,,,,,,,,2023-08-16_08h44.25.712,HF_wild_card,2022.2.4,MacIntel,62.97229219,5e25d748cf445f81e521f802,64d2fd46c836a06233681665,64dc7e414fa711d3e01f214b,,,,,,,decisionTrl,resources/DG.BMP,resources/DP.BMP,WildCard_NonEx,-0.367283951,0.032407407,1,0,0,1.935,optionLeft,55,2950,2,8,0,8,0,1,,,,,,,,,,,,,,,,,,,,,,,,,,,,,,,,,,,,,,,
,,,,,,,,2023-08-16_08h44.25.712,HF_wild_card,2022.2.4,MacIntel,62.97229219,5e25d748cf445f81e521f802,64d2fd46c836a06233681665,64dc7e414fa711d3e01f214b,,,,,,,decisionTrl,resources/DY.BMP,resources/DP.BMP,Door2,-0.320987654,0.016975309,1,0,0,1.08,optionLeft,20,2970,2,9,0,9,0,1,,,,,,,,,,,,,,,,,,,,,,,,,,,,,,,,,,,,,,,
,,,,,,,,2023-08-16_08h44.25.712,HF_wild_card,2022.2.4,MacIntel,62.97229219,5e25d748cf445f81e521f802,64d2fd46c836a06233681665,64dc7e414fa711d3e01f214b,,,,,,,decisionTrl,resources/DY.BMP,resources/DP.BMP,Door1,0.37191358,-0.032407407,1,0,0,0.648,optionRight,30,3000,2,10,0,10,0,1,,,,,,,,,,,,,,,,,,,,,,,,,,,,,,,,,,,,,,,
,,,,,,,,2023-08-16_08h44.25.712,HF_wild_card,2022.2.4,MacIntel,62.97229219,5e25d748cf445f81e521f802,64d2fd46c836a06233681665,64dc7e414fa711d3e01f214b,,,,,,,decisionTrl,resources/DP.BMP,resources/DY.BMP,Door2,0.348765432,-0.026234568,1,0,0,1.9,optionRight,20,3020,2,11,0,11,0,1,,,,,,,,,,,,,,,,,,,,,,,,,,,,,,,,,,,,,,,
,,,,,,,,2023-08-16_08h44.25.712,HF_wild_card,2022.2.4,MacIntel,62.97229219,5e25d748cf445f81e521f802,64d2fd46c836a06233681665,64dc7e414fa711d3e01f214b,,,,,,,decisionTrl,resources/DY.BMP,resources/DP.BMP,Door1,0.429012346,-0.020061728,1,0,0,0.713,optionRight,30,3050,2,12,0,12,0,1,,,,,,,,,,,,,,,,,,,,,,,,,,,,,,,,,,,,,,,
,,,,,,,,2023-08-16_08h44.25.712,HF_wild_card,2022.2.4,MacIntel,62.97229219,5e25d748cf445f81e521f802,64d2fd46c836a06233681665,64dc7e414fa711d3e01f214b,,,,,,,decisionTrl,resources/DR.BMP,resources/DG.BMP,Door4,-0.441358025,0.009259259,1,0,0,2.05,optionLeft,80,3130,2,13,0,13,0,1,,,,,,,,,,,,,,,,,,,,,,,,,,,,,,,,,,,,,,,
,,,,,,,,2023-08-16_08h44.25.712,HF_wild_card,2022.2.4,MacIntel,62.97229219,5e25d748cf445f81e521f802,64d2fd46c836a06233681665,64dc7e414fa711d3e01f214b,,,,,,,sngl,resources/DB.BMP,resources/Empty.png,Door3,-0.330246914,0.00462963,1,0,0,0.779,optionLeft,70,3200,2,14,0,14,0,1,,,,,,,,,,,,,,,,,,,,,,,,,,,,,,,,,,,,,,,
,,,,,,,,2023-08-16_08h44.25.712,HF_wild_card,2022.2.4,MacIntel,62.97229219,5e25d748cf445f81e521f802,64d2fd46c836a06233681665,64dc7e414fa711d3e01f214b,,,,,,,decisionTrl,resources/DB.BMP,resources/DG.BMP,Door3,-0.327160494,0.00308642,1,0,0,1.063,optionLeft,70,3270,2,15,0,15,0,1,,,,,,,,,,,,,,,,,,,,,,,,,,,,,,,,,,,,,,,
,,,,,,,,2023-08-16_08h44.25.712,HF_wild_card,2022.2.4,MacIntel,62.97229219,5e25d748cf445f81e521f802,64d2fd46c836a06233681665,64dc7e414fa711d3e01f214b,,,,,,,sngl,resources/Empty.png,resources/DB.BMP,Door3,0.419753086,-0.015432099,1,0,0,0.696,optionRight,70,3340,2,16,0,16,0,1,,,,,,,,,,,,,,,,,,,,,,,,,,,,,,,,,,,,,,,
,,,,,,,,2023-08-16_08h44.25.712,HF_wild_card,2022.2.4,MacIntel,62.97229219,5e25d748cf445f81e521f802,64d2fd46c836a06233681665,64dc7e414fa711d3e01f214b,,,,,,,decisionTrl,resources/DB.BMP,resources/DR.BMP,Door4,0.37191358,0.00154321,1,0,0,1.027,optionRight,60,3400,2,17,0,17,0,1,,,,,,,,,,,,,,,,,,,,,,,,,,,,,,,,,,,,,,,
,,,,,,,,2023-08-16_08h44.25.712,HF_wild_card,2022.2.4,MacIntel,62.97229219,5e25d748cf445f81e521f802,64d2fd46c836a06233681665,64dc7e414fa711d3e01f214b,,,,,,,decisionTrl,resources/DR.BMP,resources/DB.BMP,Door4,-0.342592593,0.00154321,1,0,0,1.016,optionLeft,80,3480,2,18,0,18,0,1,,,,,,,,,,,,,,,,,,,,,,,,,,,,,,,,,,,,,,,
,,,,,,,,2023-08-16_08h44.25.712,HF_wild_card,2022.2.4,MacIntel,62.97229219,5e25d748cf445f81e521f802,64d2fd46c836a06233681665,64dc7e414fa711d3e01f214b,,,,,,,decisionTrl,resources/DR.BMP,resources/DB.BMP,Door4,-0.314814815,0.00308642,1,0,0,0.846,optionLeft,60,3540,2,19,0,19,0,1,,,,,,,,,,,,,,,,,,,,,,,,,,,,,,,,,,,,,,,
,,,,,,,,2023-08-16_08h44.25.712,HF_wild_card,2022.2.4,MacIntel,62.97229219,5e25d748cf445f81e521f802,64d2fd46c836a06233681665,64dc7e414fa711d3e01f214b,,,,,,,ctch,resources/DP.BMP,resources/DR.BMP,Door4,0.430555556,-0.018518519,1,0,0,0.866,optionRight,60,3600,2,20,0,20,0,1,,,,,,,,,,,,,,,,,,,,,,,,,,,,,,,,,,,,,,,
,,,,,,,,2023-08-16_08h44.25.712,HF_wild_card,2022.2.4,MacIntel,62.97229219,5e25d748cf445f81e521f802,64d2fd46c836a06233681665,64dc7e414fa711d3e01f214b,,,,,,,sngl,resources/DR.BMP,resources/Empty.png,Door4,-0.37345679,0.007716049,1,0,0,0.762,optionLeft,60,3660,2,21,0,21,0,1,,,,,,,,,,,,,,,,,,,,,,,,,,,,,,,,,,,,,,,
,,,,,,,,2023-08-16_08h44.25.712,HF_wild_card,2022.2.4,MacIntel,62.97229219,5e25d748cf445f81e521f802,64d2fd46c836a06233681665,64dc7e414fa711d3e01f214b,,,,,,,decisionTrl,resources/DP.BMP,resources/DY.BMP,Door2,0.358024691,-0.021604938,1,0,0,1.95,optionRight,40,3700,2,22,0,22,0,1,,,,,,,,,,,,,,,,,,,,,,,,,,,,,,,,,,,,,,,
,,,,,,,,2023-08-16_08h44.25.712,HF_wild_card,2022.2.4,MacIntel,62.97229219,5e25d748cf445f81e521f802,64d2fd46c836a06233681665,64dc7e414fa711d3e01f214b,,,,,,,decisionTrl,resources/DB.BMP,resources/DR.BMP,Door4,0.313271605,-0.00617284,1,0,0,1.381,optionRight,60,3760,2,23,0,23,0,1,,,,,,,,,,,,,,,,,,,,,,,,,,,,,,,,,,,,,,,
,,,,,,,,2023-08-16_08h44.25.712,HF_wild_card,2022.2.4,MacIntel,62.97229219,5e25d748cf445f81e521f802,64d2fd46c836a06233681665,64dc7e414fa711d3e01f214b,,,,,,,sngl,resources/Empty.png,resources/DY.BMP,Door2,0.350308642,0,1,0,0,0.614,optionRight,40,3800,2,24,0,24,0,1,,,,,,,,,,,,,,,,,,,,,,,,,,,,,,,,,,,,,,,
,,,,,,,,2023-08-16_08h44.25.712,HF_wild_card,2022.2.4,MacIntel,62.97229219,5e25d748cf445f81e521f802,64d2fd46c836a06233681665,64dc7e414fa711d3e01f214b,,,,,,,ctch,resources/DY.BMP,resources/DB.BMP,Door3,0.223765432,-0.020061728,1,0,0,1.382,optionRight,70,3870,2,25,0,25,0,1,,,,,,,,,,,,,,,,,,,,,,,,,,,,,,,,,,,,,,,
,,,,,,,,2023-08-16_08h44.25.712,HF_wild_card,2022.2.4,MacIntel,62.97229219,5e25d748cf445f81e521f802,64d2fd46c836a06233681665,64dc7e414fa711d3e01f214b,,,,,,,ctch,resources/DB.BMP,resources/DY.BMP,Door3,-0.395061728,0.020061728,1,0,0,0.697,optionLeft,70,3940,2,26,0,26,0,1,,,,,,,,,,,,,,,,,,,,,,,,,,,,,,,,,,,,,,,
,,,,,,,,2023-08-16_08h44.25.712,HF_wild_card,2022.2.4,MacIntel,62.97229219,5e25d748cf445f81e521f802,64d2fd46c836a06233681665,64dc7e414fa711d3e01f214b,,,,,,,decisionTrl,resources/DY.BMP,resources/DP.BMP,Door1,0.364197531,-0.020061728,1,0,0,1.501,optionRight,30,3970,2,27,0,27,0,1,,,,,,,,,,,,,,,,,,,,,,,,,,,,,,,,,,,,,,,
,,,,,,,,2023-08-16_08h44.25.712,HF_wild_card,2022.2.4,MacIntel,62.97229219,5e25d748cf445f81e521f802,64d2fd46c836a06233681665,64dc7e414fa711d3e01f214b,,,,,,,ctch,resources/DR.BMP,resources/DP.BMP,Door4,-0.466049383,0.027777778,1,0,0,1.257,optionLeft,80,4050,2,28,0,28,0,1,,,,,,,,,,,,,,,,,,,,,,,,,,,,,,,,,,,,,,,
,,,,,,,,2023-08-16_08h44.25.712,HF_wild_card,2022.2.4,MacIntel,62.97229219,5e25d748cf445f81e521f802,64d2fd46c836a06233681665,64dc7e414fa711d3e01f214b,,,,,,,ctch,resources/DP.BMP,resources/DR.BMP,Door4,0.398148148,-0.007716049,1,0,0,2.081,optionRight,80,4130,2,29,0,29,0,1,,,,,,,,,,,,,,,,,,,,,,,,,,,,,,,,,,,,,,,
,,,,,,,,2023-08-16_08h44.25.712,HF_wild_card,2022.2.4,MacIntel,62.97229219,5e25d748cf445f81e521f802,64d2fd46c836a06233681665,64dc7e414fa711d3e01f214b,,,,,,,sngl,resources/Empty.png,resources/DP.BMP,Door1,0.353395062,-0.016975309,1,0,0,1.031,optionRight,30,4160,2,30,0,30,0,1,,,,,,,,,,,,,,,,,,,,,,,,,,,,,,,,,,,,,,,
,,,,,,,,2023-08-16_08h44.25.712,HF_wild_card,2022.2.4,MacIntel,62.97229219,5e25d748cf445f81e521f802,64d2fd46c836a06233681665,64dc7e414fa711d3e01f214b,,,,,,,decisionTrl,resources/DB.BMP,resources/DR.BMP,Door4,0.351851852,-0.018518519,1,0,0,0.63,optionRight,60,4220,2,31,0,31,0,1,,,,,,,,,,,,,,,,,,,,,,,,,,,,,,,,,,,,,,,
,,,,,,,,2023-08-16_08h44.25.712,HF_wild_card,2022.2.4,MacIntel,62.97229219,5e25d748cf445f81e521f802,64d2fd46c836a06233681665,64dc7e414fa711d3e01f214b,,,,,,,decisionTrl,resources/DG.BMP,resources/DB.BMP,Door3,0.487654321,-0.010802469,1,0,0,0.645,optionRight,70,4290,2,32,0,32,0,1,,,,,,,,,,,,,,,,,,,,,,,,,,,,,,,,,,,,,,,
,,,,,,,,2023-08-16_08h44.25.712,HF_wild_card,2022.2.4,MacIntel,62.97229219,5e25d748cf445f81e521f802,64d2fd46c836a06233681665,64dc7e414fa711d3e01f214b,,,,,,,sngl,resources/Empty.png,resources/DG.BMP,WildCard_NonEx,0.327160494,-0.012345679,1,0,0,0.681,optionRight,55,4345,2,33,0,33,0,1,,,,,,,,,,,,,,,,,,,,,,,,,,,,,,,,,,,,,,,
,,,,,,,,2023-08-16_08h44.25.712,HF_wild_card,2022.2.4,MacIntel,62.97229219,5e25d748cf445f81e521f802,64d2fd46c836a06233681665,64dc7e414fa711d3e01f214b,,,,,,,decisionTrl,resources/DP.BMP,resources/DG.BMP,WildCard_NonEx,0.398148148,-0.018518519,1,0,0,1.216,optionRight,55,4400,2,34,0,34,0,1,,,,,,,,,,,,,,,,,,,,,,,,,,,,,,,,,,,,,,,
,,,,,,,,2023-08-16_08h44.25.712,HF_wild_card,2022.2.4,MacIntel,62.97229219,5e25d748cf445f81e521f802,64d2fd46c836a06233681665,64dc7e414fa711d3e01f214b,,,,,,,decisionTrl,resources/DP.BMP,resources/DY.BMP,Door1,-0.61882716,-0.012345679,1,0,0,1.817,optionLeft,30,4430,2,35,0,35,0,1,,,,,,,,,,,,,,,,,,,,,,,,,,,,,,,,,,,,,,,
,,,,,,,,2023-08-16_08h44.25.712,HF_wild_card,2022.2.4,MacIntel,62.97229219,5e25d748cf445f81e521f802,64d2fd46c836a06233681665,64dc7e414fa711d3e01f214b,,,,,,,decisionTrl,resources/DG.BMP,resources/DY.BMP,WildCard_NonEx,-0.365740741,0.00462963,1,0,0,1.315,optionLeft,45,4475,2,36,0,36,0,1,,,,,,,,,,,,,,,,,,,,,,,,,,,,,,,,,,,,,,,
,,,,,,,,2023-08-16_08h44.25.712,HF_wild_card,2022.2.4,MacIntel,62.97229219,5e25d748cf445f81e521f802,64d2fd46c836a06233681665,64dc7e414fa711d3e01f214b,,,,,,,decisionTrl,resources/DP.BMP,resources/DY.BMP,Door2,0.277777778,-0.015432099,1,0,0,2.202,optionRight,20,4495,2,37,0,37,0,1,,,,,,,,,,,,,,,,,,,,,,,,,,,,,,,,,,,,,,,
,,,,,,,,2023-08-16_08h44.25.712,HF_wild_card,2022.2.4,MacIntel,62.97229219,5e25d748cf445f81e521f802,64d2fd46c836a06233681665,64dc7e414fa711d3e01f214b,,,,,,,ctch,resources/DR.BMP,resources/DP.BMP,Door4,-0.277777778,0,1,0,0,1.1,optionLeft,60,4555,2,38,0,38,0,1,,,,,,,,,,,,,,,,,,,,,,,,,,,,,,,,,,,,,,,
,,,,,,,,2023-08-16_08h44.25.712,HF_wild_card,2022.2.4,MacIntel,62.97229219,5e25d748cf445f81e521f802,64d2fd46c836a06233681665,64dc7e414fa711d3e01f214b,,,,,,,decisionTrl,resources/DY.BMP,resources/DG.BMP,WildCard_NonEx,0.37191358,-0.020061728,1,0,0,1.382,optionRight,45,4600,2,39,0,39,0,1,,,,,,,,,,,,,,,,,,,,,,,,,,,,,,,,,,,,,,,
,,,,,,,,2023-08-16_08h44.25.712,HF_wild_card,2022.2.4,MacIntel,62.97229219,5e25d748cf445f81e521f802,64d2fd46c836a06233681665,64dc7e414fa711d3e01f214b,,,,,,,sngl,resources/Empty.png,resources/DG.BMP,WildCard_NonEx,0.384259259,-0.00462963,1,0,0,0.702,optionRight,45,4645,2,40,0,40,0,1,,,,,,,,,,,,,,,,,,,,,,,,,,,,,,,,,,,,,,,
,,,,,,,,2023-08-16_08h44.25.712,HF_wild_card,2022.2.4,MacIntel,62.97229219,5e25d748cf445f81e521f802,64d2fd46c836a06233681665,64dc7e414fa711d3e01f214b,,,,,,,sngl,resources/DY.BMP,resources/Empty.png,Door2,-0.311728395,-0.040123457,1,0,0,0.629,optionLeft,20,4665,2,41,0,41,0,1,,,,,,,,,,,,,,,,,,,,,,,,,,,,,,,,,,,,,,,
,,,,,,,,2023-08-16_08h44.25.712,HF_wild_card,2022.2.4,MacIntel,62.97229219,5e25d748cf445f81e521f802,64d2fd46c836a06233681665,64dc7e414fa711d3e01f214b,,,,,,,decisionTrl,resources/DG.BMP,resources/DR.BMP,Door4,0.36882716,0.007716049,1,0,0,1.116,optionRight,80,4745,2,42,0,42,0,1,,,,,,,,,,,,,,,,,,,,,,,,,,,,,,,,,,,,,,,
,,,,,,,,2023-08-16_08h44.25.712,HF_wild_card,2022.2.4,MacIntel,62.97229219,5e25d748cf445f81e521f802,64d2fd46c836a06233681665,64dc7e414fa711d3e01f214b,,,,,,,sngl,resources/DP.BMP,resources/Empty.png,Door1,-0.336419753,-0.016975309,1,0,0,0.681,optionLeft,30,4775,2,43,0,43,0,1,,,,,,,,,,,,,,,,,,,,,,,,,,,,,,,,,,,,,,,
,,,,,,,,2023-08-16_08h44.25.712,HF_wild_card,2022.2.4,MacIntel,62.97229219,5e25d748cf445f81e521f802,64d2fd46c836a06233681665,64dc7e414fa711d3e01f214b,,,,,,,,,,,,,,,,,,,,,,,,,,1,0,1,0,1,,,,,,,,,,,,,,,,,,,,,,,,,,,,,,,,,,
,,,,,,,,2023-08-16_08h44.25.712,HF_wild_card,2022.2.4,MacIntel,62.97229219,5e25d748cf445f81e521f802,64d2fd46c836a06233681665,64dc7e414fa711d3e01f214b,,,,,,,decisionTrl,resources/DP.BMP,resources/DG.BMP,Door1,-0.288580247,-0.037037037,1,0,0,1.28,optionLeft,30,4805,3,0,0,0,0,1,,,,,,,,,,,,,,,,,,,,,,,,,,,,,,,,,,,,,,,
,,,,,,,,2023-08-16_08h44.25.712,HF_wild_card,2022.2.4,MacIntel,62.97229219,5e25d748cf445f81e521f802,64d2fd46c836a06233681665,64dc7e414fa711d3e01f214b,,,,,,,ctch,resources/DY.BMP,resources/DB.BMP,Door3,0.441358025,-0.015432099,1,0,0,0.715,optionRight,70,4875,3,1,0,1,0,1,,,,,,,,,,,,,,,,,,,,,,,,,,,,,,,,,,,,,,,
,,,,,,,,2023-08-16_08h44.25.712,HF_wild_card,2022.2.4,MacIntel,62.97229219,5e25d748cf445f81e521f802,64d2fd46c836a06233681665,64dc7e414fa711d3e01f214b,,,,,,,decisionTrl,resources/DY.BMP,resources/DG.BMP,WildCard_NonEx,0.523148148,0.00154321,1,0,0,1.103,optionRight,55,4930,3,2,0,2,0,1,,,,,,,,,,,,,,,,,,,,,,,,,,,,,,,,,,,,,,,
,,,,,,,,2023-08-16_08h44.25.712,HF_wild_card,2022.2.4,MacIntel,62.97229219,5e25d748cf445f81e521f802,64d2fd46c836a06233681665,64dc7e414fa711d3e01f214b,,,,,,,decisionTrl,resources/DR.BMP,resources/DB.BMP,Door4,-0.412037037,-0.027777778,1,0,0,0.965,optionLeft,80,5010,3,3,0,3,0,1,,,,,,,,,,,,,,,,,,,,,,,,,,,,,,,,,,,,,,,
,,,,,,,,2023-08-16_08h44.25.712,HF_wild_card,2022.2.4,MacIntel,62.97229219,5e25d748cf445f81e521f802,64d2fd46c836a06233681665,64dc7e414fa711d3e01f214b,,,,,,,decisionTrl,resources/DP.BMP,resources/DY.BMP,Door1,-0.324074074,0.010802469,1,0,0,1.282,optionLeft,30,5040,3,4,0,4,0,1,,,,,,,,,,,,,,,,,,,,,,,,,,,,,,,,,,,,,,,
,,,,,,,,2023-08-16_08h44.25.712,HF_wild_card,2022.2.4,MacIntel,62.97229219,5e25d748cf445f81e521f802,64d2fd46c836a06233681665,64dc7e414fa711d3e01f214b,,,,,,,decisionTrl,resources/DG.BMP,resources/DR.BMP,Door4,0.344135802,-0.010802469,1,0,0,0.983,optionRight,60,5100,3,5,0,5,0,1,,,,,,,,,,,,,,,,,,,,,,,,,,,,,,,,,,,,,,,
,,,,,,,,2023-08-16_08h44.25.712,HF_wild_card,2022.2.4,MacIntel,62.97229219,5e25d748cf445f81e521f802,64d2fd46c836a06233681665,64dc7e414fa711d3e01f214b,,,,,,,decisionTrl,resources/DY.BMP,resources/DP.BMP,Door2,-0.271604938,0,1,0,0,1.581,optionLeft,20,5120,3,6,0,6,0,1,,,,,,,,,,,,,,,,,,,,,,,,,,,,,,,,,,,,,,,
,,,,,,,,2023-08-16_08h44.25.712,HF_wild_card,2022.2.4,MacIntel,62.97229219,5e25d748cf445f81e521f802,64d2fd46c836a06233681665,64dc7e414fa711d3e01f214b,,,,,,,decisionTrl,resources/DB.BMP,resources/DR.BMP,Door4,0.304012346,-0.020061728,1,0,0,1.112,optionRight,80,5200,3,7,0,7,0,1,,,,,,,,,,,,,,,,,,,,,,,,,,,,,,,,,,,,,,,
,,,,,,,,2023-08-16_08h44.25.712,HF_wild_card,2022.2.4,MacIntel,62.97229219,5e25d748cf445f81e521f802,64d2fd46c836a06233681665,64dc7e414fa711d3e01f214b,,,,,,,ctch,resources/DR.BMP,resources/DP.BMP,Door4,-0.282407407,-0.00308642,1,0,0,0.747,optionLeft,80,5280,3,8,0,8,0,1,,,,,,,,,,,,,,,,,,,,,,,,,,,,,,,,,,,,,,,
,,,,,,,,2023-08-16_08h44.25.712,HF_wild_card,2022.2.4,MacIntel,62.97229219,5e25d748cf445f81e521f802,64d2fd46c836a06233681665,64dc7e414fa711d3e01f214b,,,,,,,sngl,resources/DB.BMP,resources/Empty.png,Door3,-0.416666667,0.010802469,1,0,0,0.73,optionLeft,70,5350,3,9,0,9,0,1,,,,,,,,,,,,,,,,,,,,,,,,,,,,,,,,,,,,,,,
,,,,,,,,2023-08-16_08h44.25.712,HF_wild_card,2022.2.4,MacIntel,62.97229219,5e25d748cf445f81e521f802,64d2fd46c836a06233681665,64dc7e414fa711d3e01f214b,,,,,,,decisionTrl,resources/DY.BMP,resources/DP.BMP,Door1,0.478395062,-0.018518519,1,0,0,1.216,optionRight,30,5380,3,10,0,10,0,1,,,,,,,,,,,,,,,,,,,,,,,,,,,,,,,,,,,,,,,
,,,,,,,,2023-08-16_08h44.25.712,HF_wild_card,2022.2.4,MacIntel,62.97229219,5e25d748cf445f81e521f802,64d2fd46c836a06233681665,64dc7e414fa711d3e01f214b,,,,,,,decisionTrl,resources/DR.BMP,resources/DB.BMP,Door4,-0.393518519,0.016975309,1,0,0,1.032,optionLeft,80,5460,3,11,0,11,0,1,,,,,,,,,,,,,,,,,,,,,,,,,,,,,,,,,,,,,,,
,,,,,,,,2023-08-16_08h44.25.712,HF_wild_card,2022.2.4,MacIntel,62.97229219,5e25d748cf445f81e521f802,64d2fd46c836a06233681665,64dc7e414fa711d3e01f214b,,,,,,,decisionTrl,resources/DR.BMP,resources/DB.BMP,Door4,-0.416666667,0.007716049,1,0,0,0.631,optionLeft,60,5520,3,12,0,12,0,1,,,,,,,,,,,,,,,,,,,,,,,,,,,,,,,,,,,,,,,
,,,,,,,,2023-08-16_08h44.25.712,HF_wild_card,2022.2.4,MacIntel,62.97229219,5e25d748cf445f81e521f802,64d2fd46c836a06233681665,64dc7e414fa711d3e01f214b,,,,,,,decisionTrl,resources/DB.BMP,resources/DG.BMP,Door3,-0.341049383,0.009259259,1,0,0,0.78,optionLeft,70,5590,3,13,0,13,0,1,,,,,,,,,,,,,,,,,,,,,,,,,,,,,,,,,,,,,,,
,,,,,,,,2023-08-16_08h44.25.712,HF_wild_card,2022.2.4,MacIntel,62.97229219,5e25d748cf445f81e521f802,64d2fd46c836a06233681665,64dc7e414fa711d3e01f214b,,,,,,,decisionTrl,resources/DB.BMP,resources/DR.BMP,Door4,0.674382716,-0.043209877,1,0,0,0.697,optionRight,80,5670,3,14,0,14,0,1,,,,,,,,,,,,,,,,,,,,,,,,,,,,,,,,,,,,,,,
,,,,,,,,2023-08-16_08h44.25.712,HF_wild_card,2022.2.4,MacIntel,62.97229219,5e25d748cf445f81e521f802,64d2fd46c836a06233681665,64dc7e414fa711d3e01f214b,,,,,,,ctch,resources/DB.BMP,resources/DY.BMP,Door3,-0.407407407,-0.016975309,1,0,0,0.698,optionLeft,70,5740,3,15,0,15,0,1,,,,,,,,,,,,,,,,,,,,,,,,,,,,,,,,,,,,,,,
,,,,,,,,2023-08-16_08h44.25.712,HF_wild_card,2022.2.4,MacIntel,62.97229219,5e25d748cf445f81e521f802,64d2fd46c836a06233681665,64dc7e414fa711d3e01f214b,,,,,,,sngl,resources/DG.BMP,resources/Empty.png,WildCard_NonEx,-0.37654321,0,1,0,0,0.681,optionLeft,45,5785,3,16,0,16,0,1,,,,,,,,,,,,,,,,,,,,,,,,,,,,,,,,,,,,,,,
,,,,,,,,2023-08-16_08h44.25.712,HF_wild_card,2022.2.4,MacIntel,62.97229219,5e25d748cf445f81e521f802,64d2fd46c836a06233681665,64dc7e414fa711d3e01f214b,,,,,,,ctch,resources/DB.BMP,resources/DY.BMP,Door3,-0.37808642,0.007716049,1,0,0,0.796,optionLeft,70,5855,3,17,0,17,0,1,,,,,,,,,,,,,,,,,,,,,,,,,,,,,,,,,,,,,,,
,,,,,,,,2023-08-16_08h44.25.712,HF_wild_card,2022.2.4,MacIntel,62.97229219,5e25d748cf445f81e521f802,64d2fd46c836a06233681665,64dc7e414fa711d3e01f214b,,,,,,,sngl,resources/Empty.png,resources/DP.BMP,Door1,0.354938272,-0.033950617,1,0,0,0.63,optionRight,30,5885,3,18,0,18,0,1,,,,,,,,,,,,,,,,,,,,,,,,,,,,,,,,,,,,,,,
,,,,,,,,2023-08-16_08h44.25.712,HF_wild_card,2022.2.4,MacIntel,62.97229219,5e25d748cf445f81e521f802,64d2fd46c836a06233681665,64dc7e414fa711d3e01f214b,,,,,,,decisionTrl,resources/DP.BMP,resources/DY.BMP,Door1,-0.37654321,0.009259259,1,0,0,1.069,optionLeft,30,5915,3,19,0,19,0,1,,,,,,,,,,,,,,,,,,,,,,,,,,,,,,,,,,,,,,,
,,,,,,,,2023-08-16_08h44.25.712,HF_wild_card,2022.2.4,MacIntel,62.97229219,5e25d748cf445f81e521f802,64d2fd46c836a06233681665,64dc7e414fa711d3e01f214b,,,,,,,decisionTrl,resources/DR.BMP,resources/DG.BMP,Door4,-0.396604938,0.029320988,1,0,0,0.979,optionLeft,60,5975,3,20,0,20,0,1,,,,,,,,,,,,,,,,,,,,,,,,,,,,,,,,,,,,,,,
,,,,,,,,2023-08-16_08h44.25.712,HF_wild_card,2022.2.4,MacIntel,62.97229219,5e25d748cf445f81e521f802,64d2fd46c836a06233681665,64dc7e414fa711d3e01f214b,,,,,,,sngl,resources/Empty.png,resources/DR.BMP,Door4,0.334876543,-0.020061728,1,0,0,0.645,optionRight,60,6035,3,21,0,21,0,1,,,,,,,,,,,,,,,,,,,,,,,,,,,,,,,,,,,,,,,
,,,,,,,,2023-08-16_08h44.25.712,HF_wild_card,2022.2.4,MacIntel,62.97229219,5e25d748cf445f81e521f802,64d2fd46c836a06233681665,64dc7e414fa711d3e01f214b,,,,,,,sngl,resources/Empty.png,resources/DG.BMP,WildCard_NonEx,0.339506173,-0.00308642,1,0,0,0.914,optionRight,55,6090,3,22,0,22,0,1,,,,,,,,,,,,,,,,,,,,,,,,,,,,,,,,,,,,,,,
,,,,,,,,2023-08-16_08h44.25.712,HF_wild_card,2022.2.4,MacIntel,62.97229219,5e25d748cf445f81e521f802,64d2fd46c836a06233681665,64dc7e414fa711d3e01f214b,,,,,,,decisionTrl,resources/DG.BMP,resources/DB.BMP,Door3,0.257716049,-0.012345679,1,0,0,0.762,optionRight,70,6160,3,23,0,23,0,1,,,,,,,,,,,,,,,,,,,,,,,,,,,,,,,,,,,,,,,
,,,,,,,,2023-08-16_08h44.25.712,HF_wild_card,2022.2.4,MacIntel,62.97229219,5e25d748cf445f81e521f802,64d2fd46c836a06233681665,64dc7e414fa711d3e01f214b,,,,,,,decisionTrl,resources/DB.BMP,resources/DR.BMP,Door4,0.450617284,-0.037037037,1,0,0,1.265,optionRight,60,6220,3,24,0,24,0,1,,,,,,,,,,,,,,,,,,,,,,,,,,,,,,,,,,,,,,,
,,,,,,,,2023-08-16_08h44.25.712,HF_wild_card,2022.2.4,MacIntel,62.97229219,5e25d748cf445f81e521f802,64d2fd46c836a06233681665,64dc7e414fa711d3e01f214b,,,,,,,decisionTrl,resources/DP.BMP,resources/DY.BMP,Door1,-0.453703704,0.013888889,1,0,0,0.964,optionLeft,30,6250,3,25,0,25,0,1,,,,,,,,,,,,,,,,,,,,,,,,,,,,,,,,,,,,,,,
,,,,,,,,2023-08-16_08h44.25.712,HF_wild_card,2022.2.4,MacIntel,62.97229219,5e25d748cf445f81e521f802,64d2fd46c836a06233681665,64dc7e414fa711d3e01f214b,,,,,,,sngl,resources/Empty.png,resources/DB.BMP,Door3,0.317901235,-0.00154321,1,0,0,0.565,optionRight,70,6320,3,26,0,26,0,1,,,,,,,,,,,,,,,,,,,,,,,,,,,,,,,,,,,,,,,
,,,,,,,,2023-08-16_08h44.25.712,HF_wild_card,2022.2.4,MacIntel,62.97229219,5e25d748cf445f81e521f802,64d2fd46c836a06233681665,64dc7e414fa711d3e01f214b,,,,,,,decisionTrl,resources/DY.BMP,resources/DP.BMP,Door1,0.37654321,-0.00617284,1,0,0,1.733,optionRight,30,6350,3,27,0,27,0,1,,,,,,,,,,,,,,,,,,,,,,,,,,,,,,,,,,,,,,,
,,,,,,,,2023-08-16_08h44.25.712,HF_wild_card,2022.2.4,MacIntel,62.97229219,5e25d748cf445f81e521f802,64d2fd46c836a06233681665,64dc7e414fa711d3e01f214b,,,,,,,decisionTrl,resources/DB.BMP,resources/DR.BMP,Door4,0.311728395,-0.00617284,1,0,0,1.05,optionRight,60,6410,3,28,0,28,0,1,,,,,,,,,,,,,,,,,,,,,,,,,,,,,,,,,,,,,,,
,,,,,,,,2023-08-16_08h44.25.712,HF_wild_card,2022.2.4,MacIntel,62.97229219,5e25d748cf445f81e521f802,64d2fd46c836a06233681665,64dc7e414fa711d3e01f214b,,,,,,,sngl,resources/DP.BMP,resources/Empty.png,Door1,-0.302469136,-0.049382716,1,0,0,0.646,optionLeft,30,6440,3,29,0,29,0,1,,,,,,,,,,,,,,,,,,,,,,,,,,,,,,,,,,,,,,,
,,,,,,,,2023-08-16_08h44.25.712,HF_wild_card,2022.2.4,MacIntel,62.97229219,5e25d748cf445f81e521f802,64d2fd46c836a06233681665,64dc7e414fa711d3e01f214b,,,,,,,decisionTrl,resources/DG.BMP,resources/DY.BMP,WildCard_NonEx,-0.316358025,-0.00154321,1,0,0,1.214,optionLeft,55,6495,3,30,0,30,0,1,,,,,,,,,,,,,,,,,,,,,,,,,,,,,,,,,,,,,,,
,,,,,,,,2023-08-16_08h44.25.712,HF_wild_card,2022.2.4,MacIntel,62.97229219,5e25d748cf445f81e521f802,64d2fd46c836a06233681665,64dc7e414fa711d3e01f214b,,,,,,,decisionTrl,resources/DG.BMP,resources/DP.BMP,WildCard_NonEx,-0.421296296,-0.00617284,1,0,0,1.498,optionLeft,55,6550,3,31,0,31,0,1,,,,,,,,,,,,,,,,,,,,,,,,,,,,,,,,,,,,,,,
,,,,,,,,2023-08-16_08h44.25.712,HF_wild_card,2022.2.4,MacIntel,62.97229219,5e25d748cf445f81e521f802,64d2fd46c836a06233681665,64dc7e414fa711d3e01f214b,,,,,,,sngl,resources/Empty.png,resources/DG.BMP,WildCard_NonEx,0.328703704,-0.020061728,1,0,0,0.6,optionRight,45,6595,3,32,0,32,0,1,,,,,,,,,,,,,,,,,,,,,,,,,,,,,,,,,,,,,,,
,,,,,,,,2023-08-16_08h44.25.712,HF_wild_card,2022.2.4,MacIntel,62.97229219,5e25d748cf445f81e521f802,64d2fd46c836a06233681665,64dc7e414fa711d3e01f214b,,,,,,,decisionTrl,resources/DP.BMP,resources/DY.BMP,Door1,-0.37191358,-0.040123457,1,0,0,1.08,optionLeft,30,6625,3,33,0,33,0,1,,,,,,,,,,,,,,,,,,,,,,,,,,,,,,,,,,,,,,,
,,,,,,,,2023-08-16_08h44.25.712,HF_wild_card,2022.2.4,MacIntel,62.97229219,5e25d748cf445f81e521f802,64d2fd46c836a06233681665,64dc7e414fa711d3e01f214b,,,,,,,ctch,resources/DP.BMP,resources/DR.BMP,Door4,0.351851852,0.012345679,1,0,0,0.98,optionRight,60,6685,3,34,0,34,0,1,,,,,,,,,,,,,,,,,,,,,,,,,,,,,,,,,,,,,,,
,,,,,,,,2023-08-16_08h44.25.712,HF_wild_card,2022.2.4,MacIntel,62.97229219,5e25d748cf445f81e521f802,64d2fd46c836a06233681665,64dc7e414fa711d3e01f214b,,,,,,,sngl,resources/DY.BMP,resources/Empty.png,Door2,-0.239197531,-0.00154321,1,0,0,0.68,optionLeft,40,6725,3,35,0,35,0,1,,,,,,,,,,,,,,,,,,,,,,,,,,,,,,,,,,,,,,,
,,,,,,,,2023-08-16_08h44.25.712,HF_wild_card,2022.2.4,MacIntel,62.97229219,5e25d748cf445f81e521f802,64d2fd46c836a06233681665,64dc7e414fa711d3e01f214b,,,,,,,decisionTrl,resources/DY.BMP,resources/DP.BMP,Door1,0.191358025,-0.020061728,1,0,0,1.651,optionRight,30,6755,3,36,0,36,0,1,,,,,,,,,,,,,,,,,,,,,,,,,,,,,,,,,,,,,,,
,,,,,,,,2023-08-16_08h44.25.712,HF_wild_card,2022.2.4,MacIntel,62.97229219,5e25d748cf445f81e521f802,64d2fd46c836a06233681665,64dc7e414fa711d3e01f214b,,,,,,,ctch,resources/DP.BMP,resources/DR.BMP,Door4,0.464506173,-0.016975309,1,0,0,0.933,optionRight,80,6835,3,37,0,37,0,1,,,,,,,,,,,,,,,,,,,,,,,,,,,,,,,,,,,,,,,
,,,,,,,,2023-08-16_08h44.25.712,HF_wild_card,2022.2.4,MacIntel,62.97229219,5e25d748cf445f81e521f802,64d2fd46c836a06233681665,64dc7e414fa711d3e01f214b,,,,,,,ctch,resources/DR.BMP,resources/DP.BMP,Door4,-0.319444444,-0.016975309,1,0,0,0.631,optionLeft,60,6895,3,38,0,38,0,1,,,,,,,,,,,,,,,,,,,,,,,,,,,,,,,,,,,,,,,
,,,,,,,,2023-08-16_08h44.25.712,HF_wild_card,2022.2.4,MacIntel,62.97229219,5e25d748cf445f81e521f802,64d2fd46c836a06233681665,64dc7e414fa711d3e01f214b,,,,,,,sngl,resources/DG.BMP,resources/Empty.png,WildCard_NonEx,-0.337962963,0,1,0,0,0.597,optionLeft,55,6950,3,39,0,39,0,1,,,,,,,,,,,,,,,,,,,,,,,,,,,,,,,,,,,,,,,
,,,,,,,,2023-08-16_08h44.25.712,HF_wild_card,2022.2.4,MacIntel,62.97229219,5e25d748cf445f81e521f802,64d2fd46c836a06233681665,64dc7e414fa711d3e01f214b,,,,,,,sngl,resources/DR.BMP,resources/Empty.png,Door4,-0.358024691,-0.00462963,1,0,0,0.598,optionLeft,80,7030,3,40,0,40,0,1,,,,,,,,,,,,,,,,,,,,,,,,,,,,,,,,,,,,,,,
,,,,,,,,2023-08-16_08h44.25.712,HF_wild_card,2022.2.4,MacIntel,62.97229219,5e25d748cf445f81e521f802,64d2fd46c836a06233681665,64dc7e414fa711d3e01f214b,,,,,,,ctch,resources/DY.BMP,resources/DB.BMP,Door3,0.455246914,-0.013888889,1,0,0,0.799,optionRight,70,7100,3,41,0,41,0,1,,,,,,,,,,,,,,,,,,,,,,,,,,,,,,,,,,,,,,,
,,,,,,,,2023-08-16_08h44.25.712,HF_wild_card,2022.2.4,MacIntel,62.97229219,5e25d748cf445f81e521f802,64d2fd46c836a06233681665,64dc7e414fa711d3e01f214b,,,,,,,sngl,resources/Empty.png,resources/DY.BMP,Door2,0.316358025,-0.020061728,1,0,0,0.63,optionRight,20,7120,3,42,0,42,0,1,,,,,,,,,,,,,,,,,,,,,,,,,,,,,,,,,,,,,,,
,,,,,,,,2023-08-16_08h44.25.712,HF_wild_card,2022.2.4,MacIntel,62.97229219,5e25d748cf445f81e521f802,64d2fd46c836a06233681665,64dc7e414fa711d3e01f214b,,,,,,,decisionTrl,resources/DR.BMP,resources/DB.BMP,Door4,-0.337962963,0.00154321,1,0,0,3.053,optionLeft,60,7180,3,43,0,43,0,1,,,,,,,,,,,,,,,,,,,,,,,,,,,,,,,,,,,,,,,
,,,,,,,,2023-08-16_08h44.25.712,HF_wild_card,2022.2.4,MacIntel,62.97229219,5e25d748cf445f81e521f802,64d2fd46c836a06233681665,64dc7e414fa711d3e01f214b,,,,,,,,,,,,,,,,,,,,,,,,,,2,0,2,0,1,,,,,,,,,,,,,,,,,,,,,,,,,,,,,,,,,,
,,,,,,,,2023-08-16_08h44.25.712,HF_wild_card,2022.2.4,MacIntel,62.97229219,5e25d748cf445f81e521f802,64d2fd46c836a06233681665,64dc7e414fa711d3e01f214b,,,,,,,decisionTrl,resources/DR.BMP,resources/DB.BMP,Door4,-0.317901235,-0.033950617,1,0,0,1.682,optionLeft,80,7260,4,0,0,0,0,1,,,,,,,,,,,,,,,,,,,,,,,,,,,,,,,,,,,,,,,
,,,,,,,,2023-08-16_08h44.25.712,HF_wild_card,2022.2.4,MacIntel,62.97229219,5e25d748cf445f81e521f802,64d2fd46c836a06233681665,64dc7e414fa711d3e01f214b,,,,,,,ctch,resources/DP.BMP,resources/DR.BMP,Door4,0.273148148,0.00617284,1,0,0,0.763,optionRight,60,7320,4,1,0,1,0,1,,,,,,,,,,,,,,,,,,,,,,,,,,,,,,,,,,,,,,,
,,,,,,,,2023-08-16_08h44.25.712,HF_wild_card,2022.2.4,MacIntel,62.97229219,5e25d748cf445f81e521f802,64d2fd46c836a06233681665,64dc7e414fa711d3e01f214b,,,,,,,ctch,resources/DP.BMP,resources/DR.BMP,Door4,0.358024691,-0.021604938,1,0,0,0.763,optionRight,80,7400,4,2,0,2,0,1,,,,,,,,,,,,,,,,,,,,,,,,,,,,,,,,,,,,,,,
,,,,,,,,2023-08-16_08h44.25.712,HF_wild_card,2022.2.4,MacIntel,62.97229219,5e25d748cf445f81e521f802,64d2fd46c836a06233681665,64dc7e414fa711d3e01f214b,,,,,,,ctch,resources/DY.BMP,resources/DB.BMP,Door3,0.359567901,-0.041666667,1,0,0,0.713,optionRight,70,7470,4,3,0,3,0,1,,,,,,,,,,,,,,,,,,,,,,,,,,,,,,,,,,,,,,,
,,,,,,,,2023-08-16_08h44.25.712,HF_wild_card,2022.2.4,MacIntel,62.97229219,5e25d748cf445f81e521f802,64d2fd46c836a06233681665,64dc7e414fa711d3e01f214b,,,,,,,sngl,resources/DP.BMP,resources/Empty.png,Door1,-0.302469136,-0.00154321,1,0,0,0.595,optionLeft,30,7500,4,4,0,4,0,1,,,,,,,,,,,,,,,,,,,,,,,,,,,,,,,,,,,,,,,
,,,,,,,,2023-08-16_08h44.25.712,HF_wild_card,2022.2.4,MacIntel,62.97229219,5e25d748cf445f81e521f802,64d2fd46c836a06233681665,64dc7e414fa711d3e01f214b,,,,,,,decisionTrl,resources/DR.BMP,resources/DB.BMP,Door3,0.580246914,-0.064814815,1,0,0,1.444,optionRight,70,7570,4,5,0,5,0,1,,,,,,,,,,,,,,,,,,,,,,,,,,,,,,,,,,,,,,,
,,,,,,,,2023-08-16_08h44.25.712,HF_wild_card,2022.2.4,MacIntel,62.97229219,5e25d748cf445f81e521f802,64d2fd46c836a06233681665,64dc7e414fa711d3e01f214b,,,,,,,ctch,resources/DR.BMP,resources/DP.BMP,Door4,-0.351851852,-0.030864198,1,0,0,0.731,optionLeft,60,7630,4,6,0,6,0,1,,,,,,,,,,,,,,,,,,,,,,,,,,,,,,,,,,,,,,,
,,,,,,,,2023-08-16_08h44.25.712,HF_wild_card,2022.2.4,MacIntel,62.97229219,5e25d748cf445f81e521f802,64d2fd46c836a06233681665,64dc7e414fa711d3e01f214b,,,,,,,decisionTrl,resources/DBN.BMP,resources/DR.BMP,Door4,0.345679012,-0.040123457,1,0,0,0.583,optionRight,80,7710,4,7,0,7,0,1,,,,,,,,,,,,,,,,,,,,,,,,,,,,,,,,,,,,,,,
,,,,,,,,2023-08-16_08h44.25.712,HF_wild_card,2022.2.4,MacIntel,62.97229219,5e25d748cf445f81e521f802,64d2fd46c836a06233681665,64dc7e414fa711d3e01f214b,,,,,,,decisionTrl,resources/DP.BMP,resources/DY.BMP,Door1,-0.364197531,0.023148148,1,0,0,1.383,optionLeft,30,7740,4,8,0,8,0,1,,,,,,,,,,,,,,,,,,,,,,,,,,,,,,,,,,,,,,,
,,,,,,,,2023-08-16_08h44.25.712,HF_wild_card,2022.2.4,MacIntel,62.97229219,5e25d748cf445f81e521f802,64d2fd46c836a06233681665,64dc7e414fa711d3e01f214b,,,,,,,decisionTrl,resources/DB.BMP,resources/DBN.BMP,WildCard_Ex,0.344135802,-0.00617284,1,0,0,0.681,optionRight,45,7785,4,9,0,9,0,1,,,,,,,,,,,,,,,,,,,,,,,,,,,,,,,,,,,,,,,
,,,,,,,,2023-08-16_08h44.25.712,HF_wild_card,2022.2.4,MacIntel,62.97229219,5e25d748cf445f81e521f802,64d2fd46c836a06233681665,64dc7e414fa711d3e01f214b,,,,,,,decisionTrl,resources/DB.BMP,resources/DR.BMP,Door4,0.361111111,-0.018518519,1,0,0,1.188,optionRight,60,7845,4,10,0,10,0,1,,,,,,,,,,,,,,,,,,,,,,,,,,,,,,,,,,,,,,,
,,,,,,,,2023-08-16_08h44.25.712,HF_wild_card,2022.2.4,MacIntel,62.97229219,5e25d748cf445f81e521f802,64d2fd46c836a06233681665,64dc7e414fa711d3e01f214b,,,,,,,sngl,resources/Empty.png,resources/DB.BMP,Door3,0.387345679,-0.030864198,1,0,0,0.497,optionRight,70,7915,4,11,0,11,0,1,,,,,,,,,,,,,,,,,,,,,,,,,,,,,,,,,,,,,,,
,,,,,,,,2023-08-16_08h44.25.712,HF_wild_card,2022.2.4,MacIntel,62.97229219,5e25d748cf445f81e521f802,64d2fd46c836a06233681665,64dc7e414fa711d3e01f214b,,,,,,,sngl,resources/Empty.png,resources/DBN.BMP,WildCard_Ex,0.319444444,-0.016975309,1,0,0,0.698,optionRight,45,7960,4,12,0,12,0,1,,,,,,,,,,,,,,,,,,,,,,,,,,,,,,,,,,,,,,,
,,,,,,,,2023-08-16_08h44.25.712,HF_wild_card,2022.2.4,MacIntel,62.97229219,5e25d748cf445f81e521f802,64d2fd46c836a06233681665,64dc7e414fa711d3e01f214b,,,,,,,sngl,resources/Empty.png,resources/DY.BMP,Door2,0.322530864,-0.016975309,1,0,0,0.566,optionRight,40,8000,4,13,0,13,0,1,,,,,,,,,,,,,,,,,,,,,,,,,,,,,,,,,,,,,,,
,,,,,,,,2023-08-16_08h44.25.712,HF_wild_card,2022.2.4,MacIntel,62.97229219,5e25d748cf445f81e521f802,64d2fd46c836a06233681665,64dc7e414fa711d3e01f214b,,,,,,,decisionTrl,resources/DR.BMP,resources/DB.BMP,Door4,-0.148148148,-0.010802469,1,0,0,1.516,optionLeft,60,8060,4,14,0,14,0,1,,,,,,,,,,,,,,,,,,,,,,,,,,,,,,,,,,,,,,,
,,,,,,,,2023-08-16_08h44.25.712,HF_wild_card,2022.2.4,MacIntel,62.97229219,5e25d748cf445f81e521f802,64d2fd46c836a06233681665,64dc7e414fa711d3e01f214b,,,,,,,decisionTrl,resources/DY.BMP,resources/DP.BMP,Door1,0.345679012,-0.044753086,1,0,0,2.25,optionRight,30,8090,4,15,0,15,0,1,,,,,,,,,,,,,,,,,,,,,,,,,,,,,,,,,,,,,,,
,,,,,,,,2023-08-16_08h44.25.712,HF_wild_card,2022.2.4,MacIntel,62.97229219,5e25d748cf445f81e521f802,64d2fd46c836a06233681665,64dc7e414fa711d3e01f214b,,,,,,,decisionTrl,resources/DR.BMP,resources/DB.BMP,Door4,-0.487654321,0.041666667,1,0,0,1.165,optionLeft,60,8150,4,16,0,16,0,1,,,,,,,,,,,,,,,,,,,,,,,,,,,,,,,,,,,,,,,
,,,,,,,,2023-08-16_08h44.25.712,HF_wild_card,2022.2.4,MacIntel,62.97229219,5e25d748cf445f81e521f802,64d2fd46c836a06233681665,64dc7e414fa711d3e01f214b,,,,,,,decisionTrl,resources/DP.BMP,resources/DY.BMP,Door1,-0.421296296,0.013888889,1,0,0,0.981,optionLeft,30,8180,4,17,0,17,0,1,,,,,,,,,,,,,,,,,,,,,,,,,,,,,,,,,,,,,,,
,,,,,,,,2023-08-16_08h44.25.712,HF_wild_card,2022.2.4,MacIntel,62.97229219,5e25d748cf445f81e521f802,64d2fd46c836a06233681665,64dc7e414fa711d3e01f214b,,,,,,,decisionTrl,resources/DR.BMP,resources/DBN.BMP,Door4,-0.322530864,0.046296296,1,0,0,1.449,optionLeft,80,8260,4,18,0,18,0,1,,,,,,,,,,,,,,,,,,,,,,,,,,,,,,,,,,,,,,,
,,,,,,,,2023-08-16_08h44.25.712,HF_wild_card,2022.2.4,MacIntel,62.97229219,5e25d748cf445f81e521f802,64d2fd46c836a06233681665,64dc7e414fa711d3e01f214b,,,,,,,sngl,resources/DBN.BMP,resources/Empty.png,WildCard_Ex,-0.313271605,-0.00154321,1,0,0,0.649,optionLeft,45,8305,4,19,0,19,0,1,,,,,,,,,,,,,,,,,,,,,,,,,,,,,,,,,,,,,,,
,,,,,,,,2023-08-16_08h44.25.712,HF_wild_card,2022.2.4,MacIntel,62.97229219,5e25d748cf445f81e521f802,64d2fd46c836a06233681665,64dc7e414fa711d3e01f214b,,,,,,,ctch,resources/DY.BMP,resources/DB.BMP,Door3,0.319444444,-0.013888889,1,0,0,0.749,optionRight,70,8375,4,20,0,20,0,1,,,,,,,,,,,,,,,,,,,,,,,,,,,,,,,,,,,,,,,
,,,,,,,,2023-08-16_08h44.25.712,HF_wild_card,2022.2.4,MacIntel,62.97229219,5e25d748cf445f81e521f802,64d2fd46c836a06233681665,64dc7e414fa711d3e01f214b,,,,,,,decisionTrl,resources/DB.BMP,resources/DR.BMP,Door4,0.407407407,-0.021604938,1,0,0,1.281,optionRight,60,8435,4,21,0,21,0,1,,,,,,,,,,,,,,,,,,,,,,,,,,,,,,,,,,,,,,,
,,,,,,,,2023-08-16_08h44.25.712,HF_wild_card,2022.2.4,MacIntel,62.97229219,5e25d748cf445f81e521f802,64d2fd46c836a06233681665,64dc7e414fa711d3e01f214b,,,,,,,decisionTrl,resources/DY.BMP,resources/DP.BMP,Door1,0.512345679,-0.066358025,1,0,0,2.284,optionRight,30,8465,4,22,0,22,0,1,,,,,,,,,,,,,,,,,,,,,,,,,,,,,,,,,,,,,,,
,,,,,,,,2023-08-16_08h44.25.712,HF_wild_card,2022.2.4,MacIntel,62.97229219,5e25d748cf445f81e521f802,64d2fd46c836a06233681665,64dc7e414fa711d3e01f214b,,,,,,,decisionTrl,resources/DP.BMP,resources/DY.BMP,Door2,0.421296296,-0.033950617,1,0,0,0.681,optionRight,20,8485,4,23,0,23,0,1,,,,,,,,,,,,,,,,,,,,,,,,,,,,,,,,,,,,,,,
,,,,,,,,2023-08-16_08h44.25.712,HF_wild_card,2022.2.4,MacIntel,62.97229219,5e25d748cf445f81e521f802,64d2fd46c836a06233681665,64dc7e414fa711d3e01f214b,,,,,,,decisionTrl,resources/DY.BMP,resources/DP.BMP,Door1,0.319444444,-0.044753086,1,0,0,1.084,optionRight,30,8515,4,24,0,24,0,1,,,,,,,,,,,,,,,,,,,,,,,,,,,,,,,,,,,,,,,
,,,,,,,,2023-08-16_08h44.25.712,HF_wild_card,2022.2.4,MacIntel,62.97229219,5e25d748cf445f81e521f802,64d2fd46c836a06233681665,64dc7e414fa711d3e01f214b,,,,,,,decisionTrl,resources/DP.BMP,resources/DBN.BMP,WildCard_Ex,0.445987654,-0.026234568,1,0,0,2.402,optionRight,55,8570,4,25,0,25,0,1,,,,,,,,,,,,,,,,,,,,,,,,,,,,,,,,,,,,,,,
,,,,,,,,2023-08-16_08h44.25.712,HF_wild_card,2022.2.4,MacIntel,62.97229219,5e25d748cf445f81e521f802,64d2fd46c836a06233681665,64dc7e414fa711d3e01f214b,,,,,,,sngl,resources/DBN.BMP,resources/Empty.png,WildCard_Ex,-0.421296296,-0.016975309,1,0,0,0.612,optionLeft,55,8625,4,26,0,26,0,1,,,,,,,,,,,,,,,,,,,,,,,,,,,,,,,,,,,,,,,
,,,,,,,,2023-08-16_08h44.25.712,HF_wild_card,2022.2.4,MacIntel,62.97229219,5e25d748cf445f81e521f802,64d2fd46c836a06233681665,64dc7e414fa711d3e01f214b,,,,,,,ctch,resources/DB.BMP,resources/DY.BMP,Door3,-0.341049383,-0.015432099,1,0,0,0.813,optionLeft,70,8695,4,27,0,27,0,1,,,,,,,,,,,,,,,,,,,,,,,,,,,,,,,,,,,,,,,
,,,,,,,,2023-08-16_08h44.25.712,HF_wild_card,2022.2.4,MacIntel,62.97229219,5e25d748cf445f81e521f802,64d2fd46c836a06233681665,64dc7e414fa711d3e01f214b,,,,,,,decisionTrl,resources/DB.BMP,resources/DR.BMP,Door4,0.439814815,-0.040123457,1,0,0,0.563,optionRight,60,8755,4,28,0,28,0,1,,,,,,,,,,,,,,,,,,,,,,,,,,,,,,,,,,,,,,,
,,,,,,,,2023-08-16_08h44.25.712,HF_wild_card,2022.2.4,MacIntel,62.97229219,5e25d748cf445f81e521f802,64d2fd46c836a06233681665,64dc7e414fa711d3e01f214b,,,,,,,ctch,resources/DR.BMP,resources/DP.BMP,Door4,-0.361111111,-0.00617284,1,0,0,1.031,optionLeft,60,8815,4,29,0,29,0,1,,,,,,,,,,,,,,,,,,,,,,,,,,,,,,,,,,,,,,,
,,,,,,,,2023-08-16_08h44.25.712,HF_wild_card,2022.2.4,MacIntel,62.97229219,5e25d748cf445f81e521f802,64d2fd46c836a06233681665,64dc7e414fa711d3e01f214b,,,,,,,sngl,resources/Empty.png,resources/DR.BMP,Door4,0.399691358,-0.044753086,1,0,0,0.663,optionRight,80,8895,4,30,0,30,0,1,,,,,,,,,,,,,,,,,,,,,,,,,,,,,,,,,,,,,,,
,,,,,,,,2023-08-16_08h44.25.712,HF_wild_card,2022.2.4,MacIntel,62.97229219,5e25d748cf445f81e521f802,64d2fd46c836a06233681665,64dc7e414fa711d3e01f214b,,,,,,,sngl,resources/Empty.png,resources/DP.BMP,Door1,0.447530864,-0.027777778,1,0,0,1.365,optionRight,30,8925,4,31,0,31,0,1,,,,,,,,,,,,,,,,,,,,,,,,,,,,,,,,,,,,,,,
,,,,,,,,2023-08-16_08h44.25.712,HF_wild_card,2022.2.4,MacIntel,62.97229219,5e25d748cf445f81e521f802,64d2fd46c836a06233681665,64dc7e414fa711d3e01f214b,,,,,,,decisionTrl,resources/DBN.BMP,resources/DP.BMP,WildCard_Ex,-0.353395062,0.00154321,1,0,0,1.35,optionLeft,55,8980,4,32,0,32,0,1,,,,,,,,,,,,,,,,,,,,,,,,,,,,,,,,,,,,,,,
,,,,,,,,2023-08-16_08h44.25.712,HF_wild_card,2022.2.4,MacIntel,62.97229219,5e25d748cf445f81e521f802,64d2fd46c836a06233681665,64dc7e414fa711d3e01f214b,,,,,,,sngl,resources/DB.BMP,resources/Empty.png,Door3,-0.342592593,-0.009259259,1,0,0,0.664,optionLeft,70,9050,4,33,0,33,0,1,,,,,,,,,,,,,,,,,,,,,,,,,,,,,,,,,,,,,,,
,,,,,,,,2023-08-16_08h44.25.712,HF_wild_card,2022.2.4,MacIntel,62.97229219,5e25d748cf445f81e521f802,64d2fd46c836a06233681665,64dc7e414fa711d3e01f214b,,,,,,,ctch,resources/DB.BMP,resources/DY.BMP,Door3,-0.317901235,-0.00154321,1,0,0,0.664,optionLeft,70,9120,4,34,0,34,0,1,,,,,,,,,,,,,,,,,,,,,,,,,,,,,,,,,,,,,,,
,,,,,,,,2023-08-16_08h44.25.712,HF_wild_card,2022.2.4,MacIntel,62.97229219,5e25d748cf445f81e521f802,64d2fd46c836a06233681665,64dc7e414fa711d3e01f214b,,,,,,,decisionTrl,resources/DY.BMP,resources/DBN.BMP,WildCard_Ex,0.348765432,-0.021604938,1,0,0,1.382,optionRight,55,9175,4,35,0,35,0,1,,,,,,,,,,,,,,,,,,,,,,,,,,,,,,,,,,,,,,,
,,,,,,,,2023-08-16_08h44.25.712,HF_wild_card,2022.2.4,MacIntel,62.97229219,5e25d748cf445f81e521f802,64d2fd46c836a06233681665,64dc7e414fa711d3e01f214b,,,,,,,decisionTrl,resources/DBN.BMP,resources/DY.BMP,WildCard_Ex,-0.419753086,-0.027777778,1,0,0,0.802,optionLeft,55,9230,4,36,0,36,0,1,,,,,,,,,,,,,,,,,,,,,,,,,,,,,,,,,,,,,,,
,,,,,,,,2023-08-16_08h44.25.712,HF_wild_card,2022.2.4,MacIntel,62.97229219,5e25d748cf445f81e521f802,64d2fd46c836a06233681665,64dc7e414fa711d3e01f214b,,,,,,,sngl,resources/DY.BMP,resources/Empty.png,Door2,-0.291666667,-0.020061728,1,0,0,0.579,optionLeft,20,9250,4,37,0,37,0,1,,,,,,,,,,,,,,,,,,,,,,,,,,,,,,,,,,,,,,,
,,,,,,,,2023-08-16_08h44.25.712,HF_wild_card,2022.2.4,MacIntel,62.97229219,5e25d748cf445f81e521f802,64d2fd46c836a06233681665,64dc7e414fa711d3e01f214b,,,,,,,sngl,resources/Empty.png,resources/DBN.BMP,WildCard_Ex,0.37808642,-0.037037037,1,0,0,0.61,optionRight,55,9305,4,38,0,38,0,1,,,,,,,,,,,,,,,,,,,,,,,,,,,,,,,,,,,,,,,
,,,,,,,,2023-08-16_08h44.25.712,HF_wild_card,2022.2.4,MacIntel,62.97229219,5e25d748cf445f81e521f802,64d2fd46c836a06233681665,64dc7e414fa711d3e01f214b,,,,,,,decisionTrl,resources/DP.BMP,resources/DY.BMP,Door1,-0.37808642,0.00308642,1,0,0,0.931,optionLeft,30,9335,4,39,0,39,0,1,,,,,,,,,,,,,,,,,,,,,,,,,,,,,,,,,,,,,,,
,,,,,,,,2023-08-16_08h44.25.712,HF_wild_card,2022.2.4,MacIntel,62.97229219,5e25d748cf445f81e521f802,64d2fd46c836a06233681665,64dc7e414fa711d3e01f214b,,,,,,,sngl,resources/DR.BMP,resources/Empty.png,Door4,-0.308641975,-0.013888889,1,0,0,2.818,optionLeft,60,9395,4,40,0,40,0,1,,,,,,,,,,,,,,,,,,,,,,,,,,,,,,,,,,,,,,,
,,,,,,,,2023-08-16_08h44.25.712,HF_wild_card,2022.2.4,MacIntel,62.97229219,5e25d748cf445f81e521f802,64d2fd46c836a06233681665,64dc7e414fa711d3e01f214b,,,,,,,decisionTrl,resources/DY.BMP,resources/DP.BMP,Door1,0.456790123,-0.049382716,1,0,0,1.098,optionRight,30,9425,4,41,0,41,0,1,,,,,,,,,,,,,,,,,,,,,,,,,,,,,,,,,,,,,,,
,,,,,,,,2023-08-16_08h44.25.712,HF_wild_card,2022.2.4,MacIntel,62.97229219,5e25d748cf445f81e521f802,64d2fd46c836a06233681665,64dc7e414fa711d3e01f214b,,,,,,,decisionTrl,resources/DBN.BMP,resources/DB.BMP,Door3,0.364197531,-0.044753086,1,0,0,1.182,optionRight,70,9495,4,42,0,42,0,1,,,,,,,,,,,,,,,,,,,,,,,,,,,,,,,,,,,,,,,
,,,,,,,,2023-08-16_08h44.25.712,HF_wild_card,2022.2.4,MacIntel,62.97229219,5e25d748cf445f81e521f802,64d2fd46c836a06233681665,64dc7e414fa711d3e01f214b,,,,,,,decisionTrl,resources/DB.BMP,resources/DR.BMP,Door4,0.273148148,-0.023148148,1,0,0,3.086,optionRight,60,9555,4,43,0,43,0,1,,,,,,,,,,,,,,,,,,,,,,,,,,,,,,,,,,,,,,,
,,,,,,,,2023-08-16_08h44.25.712,HF_wild_card,2022.2.4,MacIntel,62.97229219,5e25d748cf445f81e521f802,64d2fd46c836a06233681665,64dc7e414fa711d3e01f214b,,,,,,,,,,,,,,,,,,,,,,,,,,3,0,3,0,1,,,,,,,,,,,,,,,,,,,,,,,,,,,,,,,,,,
,,,,,,,,2023-08-16_08h44.25.712,HF_wild_card,2022.2.4,MacIntel,62.97229219,5e25d748cf445f81e521f802,64d2fd46c836a06233681665,64dc7e414fa711d3e01f214b,,,,,,,decisionTrl,resources/DY.BMP,resources/DBN.BMP,WildCard_Ex,0.578703704,0.007716049,1,0,0,1.43,optionRight,55,9610,5,0,0,0,0,1,,,,,,,,,,,,,,,,,,,,,,,,,,,,,,,,,,,,,,,
,,,,,,,,2023-08-16_08h44.25.712,HF_wild_card,2022.2.4,MacIntel,62.97229219,5e25d748cf445f81e521f802,64d2fd46c836a06233681665,64dc7e414fa711d3e01f214b,,,,,,,sngl,resources/DBN.BMP,resources/Empty.png,WildCard_Ex,-0.314814815,0.040123457,1,0,0,0.648,optionLeft,45,9655,5,1,0,1,0,1,,,,,,,,,,,,,,,,,,,,,,,,,,,,,,,,,,,,,,,
,,,,,,,,2023-08-16_08h44.25.712,HF_wild_card,2022.2.4,MacIntel,62.97229219,5e25d748cf445f81e521f802,64d2fd46c836a06233681665,64dc7e414fa711d3e01f214b,,,,,,,decisionTrl,resources/DR.BMP,resources/DB.BMP,Door4,-0.442901235,-0.010802469,1,0,0,1.017,optionLeft,60,9715,5,2,0,2,0,1,,,,,,,,,,,,,,,,,,,,,,,,,,,,,,,,,,,,,,,
,,,,,,,,2023-08-16_08h44.25.712,HF_wild_card,2022.2.4,MacIntel,62.97229219,5e25d748cf445f81e521f802,64d2fd46c836a06233681665,64dc7e414fa711d3e01f214b,,,,,,,sngl,resources/Empty.png,resources/DB.BMP,Door3,0.319444444,-0.027777778,1,0,0,0.532,optionRight,70,9785,5,3,0,3,0,1,,,,,,,,,,,,,,,,,,,,,,,,,,,,,,,,,,,,,,,
,,,,,,,,2023-08-16_08h44.25.712,HF_wild_card,2022.2.4,MacIntel,62.97229219,5e25d748cf445f81e521f802,64d2fd46c836a06233681665,64dc7e414fa711d3e01f214b,,,,,,,ctch,resources/DP.BMP,resources/DR.BMP,Door4,0.274691358,-0.029320988,1,0,0,0.897,optionRight,80,9865,5,4,0,4,0,1,,,,,,,,,,,,,,,,,,,,,,,,,,,,,,,,,,,,,,,
,,,,,,,,2023-08-16_08h44.25.712,HF_wild_card,2022.2.4,MacIntel,62.97229219,5e25d748cf445f81e521f802,64d2fd46c836a06233681665,64dc7e414fa711d3e01f214b,,,,,,,decisionTrl,resources/DP.BMP,resources/DBN.BMP,WildCard_Ex,0.322530864,-0.041666667,1,0,0,2.386,optionRight,45,9910,5,5,0,5,0,1,,,,,,,,,,,,,,,,,,,,,,,,,,,,,,,,,,,,,,,
,,,,,,,,2023-08-16_08h44.25.712,HF_wild_card,2022.2.4,MacIntel,62.97229219,5e25d748cf445f81e521f802,64d2fd46c836a06233681665,64dc7e414fa711d3e01f214b,,,,,,,decisionTrl,resources/DP.BMP,resources/DY.BMP,Door1,-0.356481481,-0.030864198,1,0,0,1.114,optionLeft,30,9940,5,6,0,6,0,1,,,,,,,,,,,,,,,,,,,,,,,,,,,,,,,,,,,,,,,
,,,,,,,,2023-08-16_08h44.25.712,HF_wild_card,2022.2.4,MacIntel,62.97229219,5e25d748cf445f81e521f802,64d2fd46c836a06233681665,64dc7e414fa711d3e01f214b,,,,,,,ctch,resources/DR.BMP,resources/DP.BMP,Door4,-0.365740741,0.012345679,1,0,0,0.965,optionLeft,60,10000,5,7,0,7,0,1,,,,,,,,,,,,,,,,,,,,,,,,,,,,,,,,,,,,,,,
,,,,,,,,2023-08-16_08h44.25.712,HF_wild_card,2022.2.4,MacIntel,62.97229219,5e25d748cf445f81e521f802,64d2fd46c836a06233681665,64dc7e414fa711d3e01f214b,,,,,,,sngl,resources/DB.BMP,resources/Empty.png,Door3,-0.367283951,0.00462963,1,0,0,0.663,optionLeft,70,10070,5,8,0,8,0,1,,,,,,,,,,,,,,,,,,,,,,,,,,,,,,,,,,,,,,,
,,,,,,,,2023-08-16_08h44.25.712,HF_wild_card,2022.2.4,MacIntel,62.97229219,5e25d748cf445f81e521f802,64d2fd46c836a06233681665,64dc7e414fa711d3e01f214b,,,,,,,decisionTrl,resources/DY.BMP,resources/DP.BMP,Door1,0.507716049,-0.047839506,1,0,0,1.048,optionRight,30,10100,5,9,0,9,0,1,,,,,,,,,,,,,,,,,,,,,,,,,,,,,,,,,,,,,,,
,,,,,,,,2023-08-16_08h44.25.712,HF_wild_card,2022.2.4,MacIntel,62.97229219,5e25d748cf445f81e521f802,64d2fd46c836a06233681665,64dc7e414fa711d3e01f214b,,,,,,,decisionTrl,resources/DB.BMP,resources/DR.BMP,Door3,-0.433641975,-0.010802469,1,0,0,1.065,optionLeft,70,10170,5,10,0,10,0,1,,,,,,,,,,,,,,,,,,,,,,,,,,,,,,,,,,,,,,,
,,,,,,,,2023-08-16_08h44.25.712,HF_wild_card,2022.2.4,MacIntel,62.97229219,5e25d748cf445f81e521f802,64d2fd46c836a06233681665,64dc7e414fa711d3e01f214b,,,,,,,decisionTrl,resources/DP.BMP,resources/DY.BMP,Door1,-0.37345679,-0.00308642,1,0,0,1.1,optionLeft,30,10200,5,11,0,11,0,1,,,,,,,,,,,,,,,,,,,,,,,,,,,,,,,,,,,,,,,
,,,,,,,,2023-08-16_08h44.25.712,HF_wild_card,2022.2.4,MacIntel,62.97229219,5e25d748cf445f81e521f802,64d2fd46c836a06233681665,64dc7e414fa711d3e01f214b,,,,,,,decisionTrl,resources/DBN.BMP,resources/DR.BMP,Door4,0.37654321,-0.050925926,1,0,0,1.785,optionRight,80,10280,5,12,0,12,0,1,,,,,,,,,,,,,,,,,,,,,,,,,,,,,,,,,,,,,,,
,,,,,,,,2023-08-16_08h44.25.712,HF_wild_card,2022.2.4,MacIntel,62.97229219,5e25d748cf445f81e521f802,64d2fd46c836a06233681665,64dc7e414fa711d3e01f214b,,,,,,,decisionTrl,resources/DBN.BMP,resources/DY.BMP,WildCard_Ex,-0.438271605,0.012345679,1,0,0,0.966,optionLeft,55,10335,5,13,0,13,0,1,,,,,,,,,,,,,,,,,,,,,,,,,,,,,,,,,,,,,,,
,,,,,,,,2023-08-16_08h44.25.712,HF_wild_card,2022.2.4,MacIntel,62.97229219,5e25d748cf445f81e521f802,64d2fd46c836a06233681665,64dc7e414fa711d3e01f214b,,,,,,,sngl,resources/Empty.png,resources/DBN.BMP,WildCard_Ex,0.317901235,-0.035493827,1,0,0,0.647,optionRight,45,10380,5,14,0,14,0,1,,,,,,,,,,,,,,,,,,,,,,,,,,,,,,,,,,,,,,,
,,,,,,,,2023-08-16_08h44.25.712,HF_wild_card,2022.2.4,MacIntel,62.97229219,5e25d748cf445f81e521f802,64d2fd46c836a06233681665,64dc7e414fa711d3e01f214b,,,,,,,decisionTrl,resources/DR.BMP,resources/DBN.BMP,Door4,-0.322530864,-0.020061728,1,0,0,0.75,optionLeft,60,10440,5,15,0,15,0,1,,,,,,,,,,,,,,,,,,,,,,,,,,,,,,,,,,,,,,,
,,,,,,,,2023-08-16_08h44.25.712,HF_wild_card,2022.2.4,MacIntel,62.97229219,5e25d748cf445f81e521f802,64d2fd46c836a06233681665,64dc7e414fa711d3e01f214b,,,,,,,decisionTrl,resources/DB.BMP,resources/DR.BMP,Door3,-0.393518519,0.023148148,1,0,0,1.127,optionLeft,70,10510,5,16,0,16,0,1,,,,,,,,,,,,,,,,,,,,,,,,,,,,,,,,,,,,,,,
,,,,,,,,2023-08-16_08h44.25.712,HF_wild_card,2022.2.4,MacIntel,62.97229219,5e25d748cf445f81e521f802,64d2fd46c836a06233681665,64dc7e414fa711d3e01f214b,,,,,,,ctch,resources/DY.BMP,resources/DB.BMP,Door3,0.549382716,-0.095679012,1,0,0,1.096,optionRight,70,10580,5,17,0,17,0,1,,,,,,,,,,,,,,,,,,,,,,,,,,,,,,,,,,,,,,,
,,,,,,,,2023-08-16_08h44.25.712,HF_wild_card,2022.2.4,MacIntel,62.97229219,5e25d748cf445f81e521f802,64d2fd46c836a06233681665,64dc7e414fa711d3e01f214b,,,,,,,decisionTrl,resources/DBN.BMP,resources/DP.BMP,WildCard_Ex,-0.297839506,0,1,0,0,1.232,optionLeft,45,10625,5,18,0,18,0,1,,,,,,,,,,,,,,,,,,,,,,,,,,,,,,,,,,,,,,,
,,,,,,,,2023-08-16_08h44.25.712,HF_wild_card,2022.2.4,MacIntel,62.97229219,5e25d748cf445f81e521f802,64d2fd46c836a06233681665,64dc7e414fa711d3e01f214b,,,,,,,decisionTrl,resources/DB.BMP,resources/DR.BMP,Door3,-0.354938272,0.009259259,1,0,0,2.25,optionLeft,70,10695,5,19,0,19,0,1,,,,,,,,,,,,,,,,,,,,,,,,,,,,,,,,,,,,,,,
,,,,,,,,2023-08-16_08h44.25.712,HF_wild_card,2022.2.4,MacIntel,62.97229219,5e25d748cf445f81e521f802,64d2fd46c836a06233681665,64dc7e414fa711d3e01f214b,,,,,,,decisionTrl,resources/DR.BMP,resources/DB.BMP,Door4,-0.367283951,0.00462963,1,0,0,1.551,optionLeft,60,10755,5,20,0,20,0,1,,,,,,,,,,,,,,,,,,,,,,,,,,,,,,,,,,,,,,,
,,,,,,,,2023-08-16_08h44.25.712,HF_wild_card,2022.2.4,MacIntel,62.97229219,5e25d748cf445f81e521f802,64d2fd46c836a06233681665,64dc7e414fa711d3e01f214b,,,,,,,decisionTrl,resources/DY.BMP,resources/DP.BMP,Door1,0.314814815,-0.037037037,1,0,0,1.216,optionRight,30,10785,5,21,0,21,0,1,,,,,,,,,,,,,,,,,,,,,,,,,,,,,,,,,,,,,,,
,,,,,,,,2023-08-16_08h44.25.712,HF_wild_card,2022.2.4,MacIntel,62.97229219,5e25d748cf445f81e521f802,64d2fd46c836a06233681665,64dc7e414fa711d3e01f214b,,,,,,,decisionTrl,resources/DY.BMP,resources/DP.BMP,Door2,-0.328703704,0.00617284,1,0,0,0.615,optionLeft,20,10805,5,22,0,22,0,1,,,,,,,,,,,,,,,,,,,,,,,,,,,,,,,,,,,,,,,
,,,,,,,,2023-08-16_08h44.25.712,HF_wild_card,2022.2.4,MacIntel,62.97229219,5e25d748cf445f81e521f802,64d2fd46c836a06233681665,64dc7e414fa711d3e01f214b,,,,,,,decisionTrl,resources/DR.BMP,resources/DB.BMP,Door3,0.336419753,-0.057098765,1,0,0,1.301,optionRight,70,10875,5,23,0,23,0,1,,,,,,,,,,,,,,,,,,,,,,,,,,,,,,,,,,,,,,,
,,,,,,,,2023-08-16_08h44.25.712,HF_wild_card,2022.2.4,MacIntel,62.97229219,5e25d748cf445f81e521f802,64d2fd46c836a06233681665,64dc7e414fa711d3e01f214b,,,,,,,ctch,resources/DY.BMP,resources/DB.BMP,Door3,0.296296296,-0.041666667,1,0,0,0.68,optionRight,70,10945,5,24,0,24,0,1,,,,,,,,,,,,,,,,,,,,,,,,,,,,,,,,,,,,,,,
,,,,,,,,2023-08-16_08h44.25.712,HF_wild_card,2022.2.4,MacIntel,62.97229219,5e25d748cf445f81e521f802,64d2fd46c836a06233681665,64dc7e414fa711d3e01f214b,,,,,,,ctch,resources/DB.BMP,resources/DY.BMP,Door3,-0.390432099,-0.00308642,1,0,0,0.648,optionLeft,70,11015,5,25,0,25,0,1,,,,,,,,,,,,,,,,,,,,,,,,,,,,,,,,,,,,,,,
,,,,,,,,2023-08-16_08h44.25.712,HF_wild_card,2022.2.4,MacIntel,62.97229219,5e25d748cf445f81e521f802,64d2fd46c836a06233681665,64dc7e414fa711d3e01f214b,,,,,,,decisionTrl,resources/DR.BMP,resources/DB.BMP,Door3,0.330246914,-0.046296296,1,0,0,1.165,optionRight,70,11085,5,26,0,26,0,1,,,,,,,,,,,,,,,,,,,,,,,,,,,,,,,,,,,,,,,
,,,,,,,,2023-08-16_08h44.25.712,HF_wild_card,2022.2.4,MacIntel,62.97229219,5e25d748cf445f81e521f802,64d2fd46c836a06233681665,64dc7e414fa711d3e01f214b,,,,,,,decisionTrl,resources/DBN.BMP,resources/DB.BMP,Door3,0.271604938,-0.041666667,1,0,0,0.631,optionRight,70,11155,5,27,0,27,0,1,,,,,,,,,,,,,,,,,,,,,,,,,,,,,,,,,,,,,,,
,,,,,,,,2023-08-16_08h44.25.712,HF_wild_card,2022.2.4,MacIntel,62.97229219,5e25d748cf445f81e521f802,64d2fd46c836a06233681665,64dc7e414fa711d3e01f214b,,,,,,,decisionTrl,resources/DB.BMP,resources/DR.BMP,Door3,-0.291666667,-0.041666667,1,0,0,0.601,optionLeft,70,11225,5,28,0,28,0,1,,,,,,,,,,,,,,,,,,,,,,,,,,,,,,,,,,,,,,,
,,,,,,,,2023-08-16_08h44.25.712,HF_wild_card,2022.2.4,MacIntel,62.97229219,5e25d748cf445f81e521f802,64d2fd46c836a06233681665,64dc7e414fa711d3e01f214b,,,,,,,decisionTrl,resources/DB.BMP,resources/DBN.BMP,Door3,-0.293209877,-0.010802469,1,0,0,0.681,optionLeft,70,11295,5,29,0,29,0,1,,,,,,,,,,,,,,,,,,,,,,,,,,,,,,,,,,,,,,,
,,,,,,,,2023-08-16_08h44.25.712,HF_wild_card,2022.2.4,MacIntel,62.97229219,5e25d748cf445f81e521f802,64d2fd46c836a06233681665,64dc7e414fa711d3e01f214b,,,,,,,ctch,resources/DR.BMP,resources/DP.BMP,Door4,-0.328703704,0.007716049,1,0,0,0.88,optionLeft,60,11355,5,30,0,30,0,1,,,,,,,,,,,,,,,,,,,,,,,,,,,,,,,,,,,,,,,
,,,,,,,,2023-08-16_08h44.25.712,HF_wild_card,2022.2.4,MacIntel,62.97229219,5e25d748cf445f81e521f802,64d2fd46c836a06233681665,64dc7e414fa711d3e01f214b,,,,,,,sngl,resources/DR.BMP,resources/Empty.png,Door4,-0.287037037,0.00617284,1,0,0,0.529,optionLeft,80,11435,5,31,0,31,0,1,,,,,,,,,,,,,,,,,,,,,,,,,,,,,,,,,,,,,,,
,,,,,,,,2023-08-16_08h44.25.712,HF_wild_card,2022.2.4,MacIntel,62.97229219,5e25d748cf445f81e521f802,64d2fd46c836a06233681665,64dc7e414fa711d3e01f214b,,,,,,,sngl,resources/DP.BMP,resources/Empty.png,Door1,-0.302469136,-0.015432099,1,0,0,1.319,optionLeft,30,11465,5,32,0,32,0,1,,,,,,,,,,,,,,,,,,,,,,,,,,,,,,,,,,,,,,,
,,,,,,,,2023-08-16_08h44.25.712,HF_wild_card,2022.2.4,MacIntel,62.97229219,5e25d748cf445f81e521f802,64d2fd46c836a06233681665,64dc7e414fa711d3e01f214b,,,,,,,decisionTrl,resources/DP.BMP,resources/DY.BMP,Door1,-0.285493827,-0.023148148,1,0,0,0.716,optionLeft,30,11495,5,33,0,33,0,1,,,,,,,,,,,,,,,,,,,,,,,,,,,,,,,,,,,,,,,
,,,,,,,,2023-08-16_08h44.25.712,HF_wild_card,2022.2.4,MacIntel,62.97229219,5e25d748cf445f81e521f802,64d2fd46c836a06233681665,64dc7e414fa711d3e01f214b,,,,,,,sngl,resources/DY.BMP,resources/Empty.png,Door2,-0.293209877,-0.032407407,1,0,0,0.531,optionLeft,40,11535,5,34,0,34,0,1,,,,,,,,,,,,,,,,,,,,,,,,,,,,,,,,,,,,,,,
,,,,,,,,2023-08-16_08h44.25.712,HF_wild_card,2022.2.4,MacIntel,62.97229219,5e25d748cf445f81e521f802,64d2fd46c836a06233681665,64dc7e414fa711d3e01f214b,,,,,,,decisionTrl,resources/DY.BMP,resources/DP.BMP,Door1,0.354938272,-0.023148148,1,0,0,2.355,optionRight,30,11565,5,35,0,35,0,1,,,,,,,,,,,,,,,,,,,,,,,,,,,,,,,,,,,,,,,
,,,,,,,,2023-08-16_08h44.25.712,HF_wild_card,2022.2.4,MacIntel,62.97229219,5e25d748cf445f81e521f802,64d2fd46c836a06233681665,64dc7e414fa711d3e01f214b,,,,,,,sngl,resources/Empty.png,resources/DY.BMP,Door2,0.314814815,-0.044753086,1,0,0,0.564,optionRight,20,11585,5,36,0,36,0,1,,,,,,,,,,,,,,,,,,,,,,,,,,,,,,,,,,,,,,,
,,,,,,,,2023-08-16_08h44.25.712,HF_wild_card,2022.2.4,MacIntel,62.97229219,5e25d748cf445f81e521f802,64d2fd46c836a06233681665,64dc7e414fa711d3e01f214b,,,,,,,sngl,resources/Empty.png,resources/DP.BMP,Door1,0.297839506,-0.027777778,1,0,0,0.614,optionRight,30,11615,5,37,0,37,0,1,,,,,,,,,,,,,,,,,,,,,,,,,,,,,,,,,,,,,,,
,,,,,,,,2023-08-16_08h44.25.712,HF_wild_card,2022.2.4,MacIntel,62.97229219,5e25d748cf445f81e521f802,64d2fd46c836a06233681665,64dc7e414fa711d3e01f214b,,,,,,,decisionTrl,resources/DP.BMP,resources/DY.BMP,Door2,0.317901235,-0.027777778,1,0,0,0.579,optionRight,40,11655,5,38,0,38,0,1,,,,,,,,,,,,,,,,,,,,,,,,,,,,,,,,,,,,,,,
,,,,,,,,2023-08-16_08h44.25.712,HF_wild_card,2022.2.4,MacIntel,62.97229219,5e25d748cf445f81e521f802,64d2fd46c836a06233681665,64dc7e414fa711d3e01f214b,,,,,,,sngl,resources/Empty.png,resources/DR.BMP,Door4,0.25308642,-0.010802469,1,0,0,0.68,optionRight,60,11715,5,39,0,39,0,1,,,,,,,,,,,,,,,,,,,,,,,,,,,,,,,,,,,,,,,
,,,,,,,,2023-08-16_08h44.25.712,HF_wild_card,2022.2.4,MacIntel,62.97229219,5e25d748cf445f81e521f802,64d2fd46c836a06233681665,64dc7e414fa711d3e01f214b,,,,,,,sngl,resources/DBN.BMP,resources/Empty.png,WildCard_Ex,-0.274691358,-0.021604938,1,0,0,0.565,optionLeft,55,11770,5,40,0,40,0,1,,,,,,,,,,,,,,,,,,,,,,,,,,,,,,,,,,,,,,,
,,,,,,,,2023-08-16_08h44.25.712,HF_wild_card,2022.2.4,MacIntel,62.97229219,5e25d748cf445f81e521f802,64d2fd46c836a06233681665,64dc7e414fa711d3e01f214b,,,,,,,ctch,resources/DB.BMP,resources/DY.BMP,Door3,-0.37191358,-0.023148148,1,0,0,0.915,optionLeft,70,11840,5,41,0,41,0,1,,,,,,,,,,,,,,,,,,,,,,,,,,,,,,,,,,,,,,,
,,,,,,,,2023-08-16_08h44.25.712,HF_wild_card,2022.2.4,MacIntel,62.97229219,5e25d748cf445f81e521f802,64d2fd46c836a06233681665,64dc7e414fa711d3e01f214b,,,,,,,sngl,resources/Empty.png,resources/DBN.BMP,WildCard_Ex,0.330246914,-0.023148148,1,0,0,0.582,optionRight,55,11895,5,42,0,42,0,1,,,,,,,,,,,,,,,,,,,,,,,,,,,,,,,,,,,,,,,
,,,,,,,,2023-08-16_08h44.25.712,HF_wild_card,2022.2.4,MacIntel,62.97229219,5e25d748cf445f81e521f802,64d2fd46c836a06233681665,64dc7e414fa711d3e01f214b,,,,,,,ctch,resources/DP.BMP,resources/DR.BMP,Door4,0.351851852,-0.040123457,1,0,0,0.875,optionRight,60,11955,5,43,0,43,0,1,,,,,,,,,,,,,,,,,,,,,,,,,,,,,,,,,,,,,,,
,,,,,,,,2023-08-16_08h44.25.712,HF_wild_card,2022.2.4,MacIntel,62.97229219,5e25d748cf445f81e521f802,64d2fd46c836a06233681665,64dc7e414fa711d3e01f214b,,,,,,,,,,,,,,,,,,,,,,,,,,4,0,4,0,1,,,,,,,,,,,,,,,,,,,,,,,,,,,,,,,,,,
,,,,,,,,2023-08-16_08h44.25.712,HF_wild_card,2022.2.4,MacIntel,62.97229219,5e25d748cf445f81e521f802,64d2fd46c836a06233681665,64dc7e414fa711d3e01f214b,,,,,,,decisionTrl,resources/DBN.BMP,resources/DB.BMP,Door3,0.419753086,-0.092592593,1,0,0,1.075,optionRight,70,12025,6,0,0,0,0,1,,,,,,,,,,,,,,,,,,,,,,,,,,,,,,,,,,,,,,,
,,,,,,,,2023-08-16_08h44.25.712,HF_wild_card,2022.2.4,MacIntel,62.97229219,5e25d748cf445f81e521f802,64d2fd46c836a06233681665,64dc7e414fa711d3e01f214b,,,,,,,decisionTrl,resources/DBN.BMP,resources/DR.BMP,Door4,0.396604938,-0.040123457,1,0,0,0.681,optionRight,60,12085,6,1,0,1,0,1,,,,,,,,,,,,,,,,,,,,,,,,,,,,,,,,,,,,,,,
,,,,,,,,2023-08-16_08h44.25.712,HF_wild_card,2022.2.4,MacIntel,62.97229219,5e25d748cf445f81e521f802,64d2fd46c836a06233681665,64dc7e414fa711d3e01f214b,,,,,,,decisionTrl,resources/DB.BMP,resources/DR.BMP,Door3,-0.311728395,-0.043209877,1,0,0,0.797,optionLeft,70,12155,6,2,0,2,0,1,,,,,,,,,,,,,,,,,,,,,,,,,,,,,,,,,,,,,,,
,,,,,,,,2023-08-16_08h44.25.712,HF_wild_card,2022.2.4,MacIntel,62.97229219,5e25d748cf445f81e521f802,64d2fd46c836a06233681665,64dc7e414fa711d3e01f214b,,,,,,,ctch,resources/DP.BMP,resources/DR.BMP,Door4,0.492283951,-0.057098765,1,0,0,0.628,optionRight,80,12235,6,3,0,3,0,1,,,,,,,,,,,,,,,,,,,,,,,,,,,,,,,,,,,,,,,
,,,,,,,,2023-08-16_08h44.25.712,HF_wild_card,2022.2.4,MacIntel,62.97229219,5e25d748cf445f81e521f802,64d2fd46c836a06233681665,64dc7e414fa711d3e01f214b,,,,,,,decisionTrl,resources/DP.BMP,resources/DY.BMP,Door1,-0.347222222,-0.066358025,1,0,0,1.032,optionLeft,30,12265,6,4,0,4,0,1,,,,,,,,,,,,,,,,,,,,,,,,,,,,,,,,,,,,,,,
,,,,,,,,2023-08-16_08h44.25.712,HF_wild_card,2022.2.4,MacIntel,62.97229219,5e25d748cf445f81e521f802,64d2fd46c836a06233681665,64dc7e414fa711d3e01f214b,,,,,,,decisionTrl,resources/DR.BMP,resources/DBN.BMP,Door4,-0.387345679,-0.030864198,1,0,0,0.831,optionLeft,80,12345,6,5,0,5,0,1,,,,,,,,,,,,,,,,,,,,,,,,,,,,,,,,,,,,,,,
,,,,,,,,2023-08-16_08h44.25.712,HF_wild_card,2022.2.4,MacIntel,62.97229219,5e25d748cf445f81e521f802,64d2fd46c836a06233681665,64dc7e414fa711d3e01f214b,,,,,,,sngl,resources/Empty.png,resources/DP.BMP,Door1,0.390432099,-0.021604938,1,0,0,0.515,optionRight,30,12375,6,6,0,6,0,1,,,,,,,,,,,,,,,,,,,,,,,,,,,,,,,,,,,,,,,
,,,,,,,,2023-08-16_08h44.25.712,HF_wild_card,2022.2.4,MacIntel,62.97229219,5e25d748cf445f81e521f802,64d2fd46c836a06233681665,64dc7e414fa711d3e01f214b,,,,,,,decisionTrl,resources/DR.BMP,resources/DB.BMP,Door4,-0.331790123,-0.016975309,1,0,0,0.579,optionLeft,60,12435,6,7,0,7,0,1,,,,,,,,,,,,,,,,,,,,,,,,,,,,,,,,,,,,,,,
,,,,,,,,2023-08-16_08h44.25.712,HF_wild_card,2022.2.4,MacIntel,62.97229219,5e25d748cf445f81e521f802,64d2fd46c836a06233681665,64dc7e414fa711d3e01f214b,,,,,,,sngl,resources/DBN.BMP,resources/Empty.png,WildCard_Ex,-0.282407407,-0.020061728,1,0,0,0.547,optionLeft,55,12490,6,8,0,8,0,1,,,,,,,,,,,,,,,,,,,,,,,,,,,,,,,,,,,,,,,
,,,,,,,,2023-08-16_08h44.25.712,HF_wild_card,2022.2.4,MacIntel,62.97229219,5e25d748cf445f81e521f802,64d2fd46c836a06233681665,64dc7e414fa711d3e01f214b,,,,,,,sngl,resources/Empty.png,resources/DBN.BMP,WildCard_Ex,0.257716049,-0.020061728,1,0,0,0.514,optionRight,45,12535,6,9,0,9,0,1,,,,,,,,,,,,,,,,,,,,,,,,,,,,,,,,,,,,,,,
,,,,,,,,2023-08-16_08h44.25.712,HF_wild_card,2022.2.4,MacIntel,62.97229219,5e25d748cf445f81e521f802,64d2fd46c836a06233681665,64dc7e414fa711d3e01f214b,,,,,,,sngl,resources/Empty.png,resources/DB.BMP,Door3,0.333333333,-0.026234568,1,0,0,0.529,optionRight,70,12605,6,10,0,10,0,1,,,,,,,,,,,,,,,,,,,,,,,,,,,,,,,,,,,,,,,
,,,,,,,,2023-08-16_08h44.25.712,HF_wild_card,2022.2.4,MacIntel,62.97229219,5e25d748cf445f81e521f802,64d2fd46c836a06233681665,64dc7e414fa711d3e01f214b,,,,,,,decisionTrl,resources/DY.BMP,resources/DBN.BMP,WildCard_Ex,0.317901235,0.00617284,1,0,0,1.147,optionRight,55,12660,6,11,0,11,0,1,,,,,,,,,,,,,,,,,,,,,,,,,,,,,,,,,,,,,,,
,,,,,,,,2023-08-16_08h44.25.712,HF_wild_card,2022.2.4,MacIntel,62.97229219,5e25d748cf445f81e521f802,64d2fd46c836a06233681665,64dc7e414fa711d3e01f214b,,,,,,,ctch,resources/DY.BMP,resources/DB.BMP,Door3,0.351851852,-0.038580247,1,0,0,0.631,optionRight,70,12730,6,12,0,12,0,1,,,,,,,,,,,,,,,,,,,,,,,,,,,,,,,,,,,,,,,
,,,,,,,,2023-08-16_08h44.25.712,HF_wild_card,2022.2.4,MacIntel,62.97229219,5e25d748cf445f81e521f802,64d2fd46c836a06233681665,64dc7e414fa711d3e01f214b,,,,,,,ctch,resources/DP.BMP,resources/DR.BMP,Door4,0.262345679,-0.020061728,1,0,0,1.065,optionRight,60,12790,6,13,0,13,0,1,,,,,,,,,,,,,,,,,,,,,,,,,,,,,,,,,,,,,,,
,,,,,,,,2023-08-16_08h44.25.712,HF_wild_card,2022.2.4,MacIntel,62.97229219,5e25d748cf445f81e521f802,64d2fd46c836a06233681665,64dc7e414fa711d3e01f214b,,,,,,,decisionTrl,resources/DY.BMP,resources/DP.BMP,Door1,0.25462963,-0.020061728,1,0,0,1.035,optionRight,30,12820,6,14,0,14,0,1,,,,,,,,,,,,,,,,,,,,,,,,,,,,,,,,,,,,,,,
,,,,,,,,2023-08-16_08h44.25.712,HF_wild_card,2022.2.4,MacIntel,62.97229219,5e25d748cf445f81e521f802,64d2fd46c836a06233681665,64dc7e414fa711d3e01f214b,,,,,,,decisionTrl,resources/DP.BMP,resources/DY.BMP,Door2,0.273148148,-0.020061728,1,0,0,0.629,optionRight,40,12860,6,15,0,15,0,1,,,,,,,,,,,,,,,,,,,,,,,,,,,,,,,,,,,,,,,
,,,,,,,,2023-08-16_08h44.25.712,HF_wild_card,2022.2.4,MacIntel,62.97229219,5e25d748cf445f81e521f802,64d2fd46c836a06233681665,64dc7e414fa711d3e01f214b,,,,,,,decisionTrl,resources/DB.BMP,resources/DR.BMP,Door4,0.470679012,-0.023148148,1,0,0,2.436,optionRight,80,12940,6,16,0,16,0,1,,,,,,,,,,,,,,,,,,,,,,,,,,,,,,,,,,,,,,,
,,,,,,,,2023-08-16_08h44.25.712,HF_wild_card,2022.2.4,MacIntel,62.97229219,5e25d748cf445f81e521f802,64d2fd46c836a06233681665,64dc7e414fa711d3e01f214b,,,,,,,sngl,resources/Empty.png,resources/DY.BMP,Door2,0.390432099,-0.00617284,1,0,0,0.591,optionRight,40,12980,6,17,0,17,0,1,,,,,,,,,,,,,,,,,,,,,,,,,,,,,,,,,,,,,,,
,,,,,,,,2023-08-16_08h44.25.712,HF_wild_card,2022.2.4,MacIntel,62.97229219,5e25d748cf445f81e521f802,64d2fd46c836a06233681665,64dc7e414fa711d3e01f214b,,,,,,,sngl,resources/Empty.png,resources/DR.BMP,Door4,0.300925926,0.00617284,1,0,0,0.565,optionRight,80,13060,6,18,0,18,0,1,,,,,,,,,,,,,,,,,,,,,,,,,,,,,,,,,,,,,,,
,,,,,,,,2023-08-16_08h44.25.712,HF_wild_card,2022.2.4,MacIntel,62.97229219,5e25d748cf445f81e521f802,64d2fd46c836a06233681665,64dc7e414fa711d3e01f214b,,,,,,,decisionTrl,resources/DR.BMP,resources/DB.BMP,Door4,-0.353395062,0.012345679,1,0,0,0.579,optionLeft,60,13120,6,19,0,19,0,1,,,,,,,,,,,,,,,,,,,,,,,,,,,,,,,,,,,,,,,
,,,,,,,,2023-08-16_08h44.25.712,HF_wild_card,2022.2.4,MacIntel,62.97229219,5e25d748cf445f81e521f802,64d2fd46c836a06233681665,64dc7e414fa711d3e01f214b,,,,,,,decisionTrl,resources/DY.BMP,resources/DP.BMP,Door1,0.300925926,-0.013888889,1,0,0,1.699,optionRight,30,13150,6,20,0,20,0,1,,,,,,,,,,,,,,,,,,,,,,,,,,,,,,,,,,,,,,,
,,,,,,,,2023-08-16_08h44.25.712,HF_wild_card,2022.2.4,MacIntel,62.97229219,5e25d748cf445f81e521f802,64d2fd46c836a06233681665,64dc7e414fa711d3e01f214b,,,,,,,decisionTrl,resources/DBN.BMP,resources/DP.BMP,WildCard_Ex,-0.36882716,-0.021604938,1,0,0,0.983,optionLeft,45,13195,6,21,0,21,0,1,,,,,,,,,,,,,,,,,,,,,,,,,,,,,,,,,,,,,,,
,,,,,,,,2023-08-16_08h44.25.712,HF_wild_card,2022.2.4,MacIntel,62.97229219,5e25d748cf445f81e521f802,64d2fd46c836a06233681665,64dc7e414fa711d3e01f214b,,,,,,,sngl,resources/DBN.BMP,resources/Empty.png,WildCard_Ex,-0.351851852,-0.016975309,1,0,0,0.532,optionLeft,45,13240,6,22,0,22,0,1,,,,,,,,,,,,,,,,,,,,,,,,,,,,,,,,,,,,,,,
,,,,,,,,2023-08-16_08h44.25.712,HF_wild_card,2022.2.4,MacIntel,62.97229219,5e25d748cf445f81e521f802,64d2fd46c836a06233681665,64dc7e414fa711d3e01f214b,,,,,,,sngl,resources/DB.BMP,resources/Empty.png,Door3,-0.259259259,-0.010802469,1,0,0,0.662,optionLeft,70,13310,6,23,0,23,0,1,,,,,,,,,,,,,,,,,,,,,,,,,,,,,,,,,,,,,,,
,,,,,,,,2023-08-16_08h44.25.712,HF_wild_card,2022.2.4,MacIntel,62.97229219,5e25d748cf445f81e521f802,64d2fd46c836a06233681665,64dc7e414fa711d3e01f214b,,,,,,,decisionTrl,resources/DB.BMP,resources/DR.BMP,Door3,-0.307098765,-0.013888889,1,0,0,1.116,optionLeft,70,13380,6,24,0,24,0,1,,,,,,,,,,,,,,,,,,,,,,,,,,,,,,,,,,,,,,,
,,,,,,,,2023-08-16_08h44.25.712,HF_wild_card,2022.2.4,MacIntel,62.97229219,5e25d748cf445f81e521f802,64d2fd46c836a06233681665,64dc7e414fa711d3e01f214b,,,,,,,sngl,resources/DR.BMP,resources/Empty.png,Door4,-0.290123457,0,1,0,0,0.548,optionLeft,60,13440,6,25,0,25,0,1,,,,,,,,,,,,,,,,,,,,,,,,,,,,,,,,,,,,,,,
,,,,,,,,2023-08-16_08h44.25.712,HF_wild_card,2022.2.4,MacIntel,62.97229219,5e25d748cf445f81e521f802,64d2fd46c836a06233681665,64dc7e414fa711d3e01f214b,,,,,,,ctch,resources/DB.BMP,resources/DY.BMP,Door3,-0.429012346,-0.018518519,1,0,0,0.832,optionLeft,70,13510,6,26,0,26,0,1,,,,,,,,,,,,,,,,,,,,,,,,,,,,,,,,,,,,,,,
,,,,,,,,2023-08-16_08h44.25.712,HF_wild_card,2022.2.4,MacIntel,62.97229219,5e25d748cf445f81e521f802,64d2fd46c836a06233681665,64dc7e414fa711d3e01f214b,,,,,,,decisionTrl,resources/DP.BMP,resources/DY.BMP,Door1,-0.291666667,-0.026234568,1,0,0,1.05,optionLeft,30,13540,6,27,0,27,0,1,,,,,,,,,,,,,,,,,,,,,,,,,,,,,,,,,,,,,,,
,,,,,,,,2023-08-16_08h44.25.712,HF_wild_card,2022.2.4,MacIntel,62.97229219,5e25d748cf445f81e521f802,64d2fd46c836a06233681665,64dc7e414fa711d3e01f214b,,,,,,,decisionTrl,resources/DB.BMP,resources/DBN.BMP,Door3,-0.319444444,-0.009259259,1,0,0,0.932,optionLeft,70,13610,6,28,0,28,0,1,,,,,,,,,,,,,,,,,,,,,,,,,,,,,,,,,,,,,,,
,,,,,,,,2023-08-16_08h44.25.712,HF_wild_card,2022.2.4,MacIntel,62.97229219,5e25d748cf445f81e521f802,64d2fd46c836a06233681665,64dc7e414fa711d3e01f214b,,,,,,,ctch,resources/DY.BMP,resources/DB.BMP,Door2,-0.263888889,0.007716049,1,0,0,0.719,optionLeft,40,13650,6,29,0,29,0,1,,,,,,,,,,,,,,,,,,,,,,,,,,,,,,,,,,,,,,,
,,,,,,,,2023-08-16_08h44.25.712,HF_wild_card,2022.2.4,MacIntel,62.97229219,5e25d748cf445f81e521f802,64d2fd46c836a06233681665,64dc7e414fa711d3e01f214b,,,,,,,decisionTrl,resources/DP.BMP,resources/DBN.BMP,WildCard_Ex,0.50308642,-0.00462963,1,0,0,1.683,optionRight,45,13695,6,30,0,30,0,1,,,,,,,,,,,,,,,,,,,,,,,,,,,,,,,,,,,,,,,
,,,,,,,,2023-08-16_08h44.25.712,HF_wild_card,2022.2.4,MacIntel,62.97229219,5e25d748cf445f81e521f802,64d2fd46c836a06233681665,64dc7e414fa711d3e01f214b,,,,,,,sngl,resources/DP.BMP,resources/Empty.png,Door1,-0.211419753,-0.00154321,1,0,0,0.58,optionLeft,30,13725,6,31,0,31,0,1,,,,,,,,,,,,,,,,,,,,,,,,,,,,,,,,,,,,,,,
,,,,,,,,2023-08-16_08h44.25.712,HF_wild_card,2022.2.4,MacIntel,62.97229219,5e25d748cf445f81e521f802,64d2fd46c836a06233681665,64dc7e414fa711d3e01f214b,,,,,,,decisionTrl,resources/DB.BMP,resources/DR.BMP,Door4,0.390432099,-0.040123457,1,0,0,1.282,optionRight,80,13805,6,32,0,32,0,1,,,,,,,,,,,,,,,,,,,,,,,,,,,,,,,,,,,,,,,
,,,,,,,,2023-08-16_08h44.25.712,HF_wild_card,2022.2.4,MacIntel,62.97229219,5e25d748cf445f81e521f802,64d2fd46c836a06233681665,64dc7e414fa711d3e01f214b,,,,,,,sngl,resources/DY.BMP,resources/Empty.png,Door2,-0.25462963,-0.030864198,1,0,0,0.563,optionLeft,20,13825,6,33,0,33,0,1,,,,,,,,,,,,,,,,,,,,,,,,,,,,,,,,,,,,,,,
,,,,,,,,2023-08-16_08h44.25.712,HF_wild_card,2022.2.4,MacIntel,62.97229219,5e25d748cf445f81e521f802,64d2fd46c836a06233681665,64dc7e414fa711d3e01f214b,,,,,,,decisionTrl,resources/DBN.BMP,resources/DY.BMP,WildCard_Ex,-0.229938272,-0.00462963,1,0,0,0.782,optionLeft,55,13880,6,34,0,34,0,1,,,,,,,,,,,,,,,,,,,,,,,,,,,,,,,,,,,,,,,
,,,,,,,,2023-08-16_08h44.25.712,HF_wild_card,2022.2.4,MacIntel,62.97229219,5e25d748cf445f81e521f802,64d2fd46c836a06233681665,64dc7e414fa711d3e01f214b,,,,,,,decisionTrl,resources/DY.BMP,resources/DP.BMP,Door1,0.410493827,-0.035493827,1,0,0,1.065,optionRight,30,13910,6,35,0,35,0,1,,,,,,,,,,,,,,,,,,,,,,,,,,,,,,,,,,,,,,,
,,,,,,,,2023-08-16_08h44.25.712,HF_wild_card,2022.2.4,MacIntel,62.97229219,5e25d748cf445f81e521f802,64d2fd46c836a06233681665,64dc7e414fa711d3e01f214b,,,,,,,ctch,resources/DB.BMP,resources/DY.BMP,Door3,-0.359567901,-0.00617284,1,0,0,0.931,optionLeft,70,13980,6,36,0,36,0,1,,,,,,,,,,,,,,,,,,,,,,,,,,,,,,,,,,,,,,,
,,,,,,,,2023-08-16_08h44.25.712,HF_wild_card,2022.2.4,MacIntel,62.97229219,5e25d748cf445f81e521f802,64d2fd46c836a06233681665,64dc7e414fa711d3e01f214b,,,,,,,decisionTrl,resources/DP.BMP,resources/DY.BMP,Door1,-0.393518519,0.00617284,1,0,0,1.114,optionLeft,30,14010,6,37,0,37,0,1,,,,,,,,,,,,,,,,,,,,,,,,,,,,,,,,,,,,,,,
,,,,,,,,2023-08-16_08h44.25.712,HF_wild_card,2022.2.4,MacIntel,62.97229219,5e25d748cf445f81e521f802,64d2fd46c836a06233681665,64dc7e414fa711d3e01f214b,,,,,,,sngl,resources/Empty.png,resources/DBN.BMP,WildCard_Ex,0.37037037,-0.038580247,1,0,0,0.547,optionRight,55,14065,6,38,0,38,0,1,,,,,,,,,,,,,,,,,,,,,,,,,,,,,,,,,,,,,,,
,,,,,,,,2023-08-16_08h44.25.712,HF_wild_card,2022.2.4,MacIntel,62.97229219,5e25d748cf445f81e521f802,64d2fd46c836a06233681665,64dc7e414fa711d3e01f214b,,,,,,,decisionTrl,resources/DR.BMP,resources/DB.BMP,Door3,0.435185185,-0.033950617,1,0,0,1.736,optionRight,70,14135,6,39,0,39,0,1,,,,,,,,,,,,,,,,,,,,,,,,,,,,,,,,,,,,,,,
,,,,,,,,2023-08-16_08h44.25.712,HF_wild_card,2022.2.4,MacIntel,62.97229219,5e25d748cf445f81e521f802,64d2fd46c836a06233681665,64dc7e414fa711d3e01f214b,,,,,,,ctch,resources/DR.BMP,resources/DP.BMP,Door4,-0.37962963,-0.010802469,1,0,0,0.73,optionLeft,60,14195,6,40,0,40,0,1,,,,,,,,,,,,,,,,,,,,,,,,,,,,,,,,,,,,,,,
,,,,,,,,2023-08-16_08h44.25.712,HF_wild_card,2022.2.4,MacIntel,62.97229219,5e25d748cf445f81e521f802,64d2fd46c836a06233681665,64dc7e414fa711d3e01f214b,,,,,,,ctch,resources/DR.BMP,resources/DP.BMP,Door4,-0.282407407,0.00462963,1,0,0,0.665,optionLeft,60,14255,6,41,0,41,0,1,,,,,,,,,,,,,,,,,,,,,,,,,,,,,,,,,,,,,,,
,,,,,,,,2023-08-16_08h44.25.712,HF_wild_card,2022.2.4,MacIntel,62.97229219,5e25d748cf445f81e521f802,64d2fd46c836a06233681665,64dc7e414fa711d3e01f214b,,,,,,,decisionTrl,resources/DR.BMP,resources/DB.BMP,Door3,0.283950617,-0.015432099,1,0,0,1.166,optionRight,70,14325,6,42,0,42,0,1,,,,,,,,,,,,,,,,,,,,,,,,,,,,,,,,,,,,,,,
,,,,,,,,2023-08-16_08h44.25.712,HF_wild_card,2022.2.4,MacIntel,62.97229219,5e25d748cf445f81e521f802,64d2fd46c836a06233681665,64dc7e414fa711d3e01f214b,,,,,,,decisionTrl,resources/DY.BMP,resources/DP.BMP,Door1,0.558641975,-0.046296296,1,0,0,1.037,optionRight,30,14355,6,43,0,43,0,1,,,,,,,,,,,,,,,,,,,,,,,,,,,,,,,,,,,,,,,
,,,,,,,,2023-08-16_08h44.25.712,HF_wild_card,2022.2.4,MacIntel,62.97229219,5e25d748cf445f81e521f802,64d2fd46c836a06233681665,64dc7e414fa711d3e01f214b,,,,,,,,,,,,,,,,,,,,,,,,,,5,0,5,0,1,,,,,,,,,,,,,,,,,,,,,,,,,,,,,,,,,,
,,,,,,,,2023-08-16_08h44.25.712,HF_wild_card,2022.2.4,MacIntel,62.97229219,5e25d748cf445f81e521f802,64d2fd46c836a06233681665,64dc7e414fa711d3e01f214b,,,,,,,decisionTrl,resources/DR.BMP,resources/DB.BMP,Door3,0.276234568,-0.060185185,1,0,0,1.861,optionRight,70,14425,7,0,0,0,0,1,,,,,,,,,,,,,,,,,,,,,,,,,,,,,,,,,,,,,,,
,,,,,,,,2023-08-16_08h44.25.712,HF_wild_card,2022.2.4,MacIntel,62.97229219,5e25d748cf445f81e521f802,64d2fd46c836a06233681665,64dc7e414fa711d3e01f214b,,,,,,,decisionTrl,resources/DR.BMP,resources/DB.BMP,Door3,0.331790123,-0.020061728,1,0,0,1.035,optionRight,70,14495,7,1,0,1,0,1,,,,,,,,,,,,,,,,,,,,,,,,,,,,,,,,,,,,,,,
,,,,,,,,2023-08-16_08h44.25.712,HF_wild_card,2022.2.4,MacIntel,62.97229219,5e25d748cf445f81e521f802,64d2fd46c836a06233681665,64dc7e414fa711d3e01f214b,,,,,,,ctch,resources/DP.BMP,resources/DR.BMP,Door4,0.319444444,-0.00308642,1,0,0,0.732,optionRight,60,14555,7,2,0,2,0,1,,,,,,,,,,,,,,,,,,,,,,,,,,,,,,,,,,,,,,,
,,,,,,,,2023-08-16_08h44.25.712,HF_wild_card,2022.2.4,MacIntel,62.97229219,5e25d748cf445f81e521f802,64d2fd46c836a06233681665,64dc7e414fa711d3e01f214b,,,,,,,decisionTrl,resources/DR.BMP,resources/DB.BMP,Door3,0.439814815,-0.007716049,1,0,0,1.282,optionRight,70,14625,7,3,0,3,0,1,,,,,,,,,,,,,,,,,,,,,,,,,,,,,,,,,,,,,,,
,,,,,,,,2023-08-16_08h44.25.712,HF_wild_card,2022.2.4,MacIntel,62.97229219,5e25d748cf445f81e521f802,64d2fd46c836a06233681665,64dc7e414fa711d3e01f214b,,,,,,,decisionTrl,resources/DP.BMP,resources/DY.BMP,Door1,-0.388888889,-0.00462963,1,0,0,0.798,optionLeft,30,14655,7,4,0,4,0,1,,,,,,,,,,,,,,,,,,,,,,,,,,,,,,,,,,,,,,,
,,,,,,,,2023-08-16_08h44.25.712,HF_wild_card,2022.2.4,MacIntel,62.97229219,5e25d748cf445f81e521f802,64d2fd46c836a06233681665,64dc7e414fa711d3e01f214b,,,,,,,ctch,resources/DR.BMP,resources/DP.BMP,Door4,-0.333333333,-0.023148148,1,0,0,0.866,optionLeft,80,14735,7,5,0,5,0,1,,,,,,,,,,,,,,,,,,,,,,,,,,,,,,,,,,,,,,,
,,,,,,,,2023-08-16_08h44.25.712,HF_wild_card,2022.2.4,MacIntel,62.97229219,5e25d748cf445f81e521f802,64d2fd46c836a06233681665,64dc7e414fa711d3e01f214b,,,,,,,decisionTrl,resources/DR.BMP,resources/DB.BMP,Door3,0.314814815,-0.020061728,1,0,0,0.636,optionRight,70,14805,7,6,0,6,0,1,,,,,,,,,,,,,,,,,,,,,,,,,,,,,,,,,,,,,,,
,,,,,,,,2023-08-16_08h44.25.712,HF_wild_card,2022.2.4,MacIntel,62.97229219,5e25d748cf445f81e521f802,64d2fd46c836a06233681665,64dc7e414fa711d3e01f214b,,,,,,,ctch,resources/DR.BMP,resources/DP.BMP,Door4,-0.390432099,-0.007716049,1,0,0,0.749,optionLeft,60,14865,7,7,0,7,0,1,,,,,,,,,,,,,,,,,,,,,,,,,,,,,,,,,,,,,,,
,,,,,,,,2023-08-16_08h44.25.712,HF_wild_card,2022.2.4,MacIntel,62.97229219,5e25d748cf445f81e521f802,64d2fd46c836a06233681665,64dc7e414fa711d3e01f214b,,,,,,,decisionTrl,resources/DY.BMP,resources/DP.BMP,Door1,0.287037037,-0.026234568,1,0,0,0.901,optionRight,30,14895,7,8,0,8,0,1,,,,,,,,,,,,,,,,,,,,,,,,,,,,,,,,,,,,,,,
,,,,,,,,2023-08-16_08h44.25.712,HF_wild_card,2022.2.4,MacIntel,62.97229219,5e25d748cf445f81e521f802,64d2fd46c836a06233681665,64dc7e414fa711d3e01f214b,,,,,,,decisionTrl,resources/DP.BMP,resources/DY.BMP,Door1,-0.384259259,-0.009259259,1,0,0,0.707,optionLeft,30,14925,7,9,0,9,0,1,,,,,,,,,,,,,,,,,,,,,,,,,,,,,,,,,,,,,,,
,,,,,,,,2023-08-16_08h44.25.712,HF_wild_card,2022.2.4,MacIntel,62.97229219,5e25d748cf445f81e521f802,64d2fd46c836a06233681665,64dc7e414fa711d3e01f214b,,,,,,,decisionTrl,resources/DB.BMP,resources/DR.BMP,Door3,-0.308641975,-0.013888889,1,0,0,1.182,optionLeft,70,14995,7,10,0,10,0,1,,,,,,,,,,,,,,,,,,,,,,,,,,,,,,,,,,,,,,,
,,,,,,,,2023-08-16_08h44.25.712,HF_wild_card,2022.2.4,MacIntel,62.97229219,5e25d748cf445f81e521f802,64d2fd46c836a06233681665,64dc7e414fa711d3e01f214b,,,,,,,decisionTrl,resources/DR.BMP,resources/DB.BMP,Door3,0.324074074,-0.023148148,1,0,0,0.884,optionRight,70,15065,7,11,0,11,0,1,,,,,,,,,,,,,,,,,,,,,,,,,,,,,,,,,,,,,,,
,,,,,,,,2023-08-16_08h44.25.712,HF_wild_card,2022.2.4,MacIntel,62.97229219,5e25d748cf445f81e521f802,64d2fd46c836a06233681665,64dc7e414fa711d3e01f214b,,,,,,,decisionTrl,resources/DB.BMP,resources/DR.BMP,Door4,0.37037037,-0.015432099,1,0,0,0.617,optionRight,60,15125,7,12,0,12,0,1,,,,,,,,,,,,,,,,,,,,,,,,,,,,,,,,,,,,,,,
,,,,,,,,2023-08-16_08h44.25.712,HF_wild_card,2022.2.4,MacIntel,62.97229219,5e25d748cf445f81e521f802,64d2fd46c836a06233681665,64dc7e414fa711d3e01f214b,,,,,,,ctch,resources/DY.BMP,resources/DB.BMP,Door3,0.396604938,-0.016975309,1,0,0,0.632,optionRight,70,15195,7,13,0,13,0,1,,,,,,,,,,,,,,,,,,,,,,,,,,,,,,,,,,,,,,,
,,,,,,,,2023-08-16_08h44.25.712,HF_wild_card,2022.2.4,MacIntel,62.97229219,5e25d748cf445f81e521f802,64d2fd46c836a06233681665,64dc7e414fa711d3e01f214b,,,,,,,decisionTrl,resources/DY.BMP,resources/DP.BMP,Door1,0.415123457,-0.013888889,1,0,0,1.016,optionRight,30,15225,7,14,0,14,0,1,,,,,,,,,,,,,,,,,,,,,,,,,,,,,,,,,,,,,,,
,,,,,,,,2023-08-16_08h44.25.712,HF_wild_card,2022.2.4,MacIntel,62.97229219,5e25d748cf445f81e521f802,64d2fd46c836a06233681665,64dc7e414fa711d3e01f214b,,,,,,,ctch,resources/DB.BMP,resources/DY.BMP,Door3,-0.419753086,0.00462963,1,0,0,0.732,optionLeft,70,15295,7,15,0,15,0,1,,,,,,,,,,,,,,,,,,,,,,,,,,,,,,,,,,,,,,,
,,,,,,,,2023-08-16_08h44.25.712,HF_wild_card,2022.2.4,MacIntel,62.97229219,5e25d748cf445f81e521f802,64d2fd46c836a06233681665,64dc7e414fa711d3e01f214b,,,,,,,ctch,resources/DP.BMP,resources/DR.BMP,Door4,0.410493827,-0.018518519,1,0,0,0.748,optionRight,80,15375,7,16,0,16,0,1,,,,,,,,,,,,,,,,,,,,,,,,,,,,,,,,,,,,,,,
,,,,,,,,2023-08-16_08h44.25.712,HF_wild_card,2022.2.4,MacIntel,62.97229219,5e25d748cf445f81e521f802,64d2fd46c836a06233681665,64dc7e414fa711d3e01f214b,,,,,,,ctch,resources/DP.BMP,resources/DR.BMP,Door4,0.365740741,-0.024691358,1,0,0,0.533,optionRight,60,15435,7,17,0,17,0,1,,,,,,,,,,,,,,,,,,,,,,,,,,,,,,,,,,,,,,,
,,,,,,,,2023-08-16_08h44.25.712,HF_wild_card,2022.2.4,MacIntel,62.97229219,5e25d748cf445f81e521f802,64d2fd46c836a06233681665,64dc7e414fa711d3e01f214b,,,,,,,decisionTrl,resources/DB.BMP,resources/DR.BMP,Door4,0.265432099,-0.023148148,1,0,0,1.653,optionRight,80,15515,7,18,0,18,0,1,,,,,,,,,,,,,,,,,,,,,,,,,,,,,,,,,,,,,,,
,,,,,,,,2023-08-16_08h44.25.712,HF_wild_card,2022.2.4,MacIntel,62.97229219,5e25d748cf445f81e521f802,64d2fd46c836a06233681665,64dc7e414fa711d3e01f214b,,,,,,,decisionTrl,resources/DP.BMP,resources/DY.BMP,Door1,-0.290123457,-0.043209877,1,0,0,0.813,optionLeft,30,15545,7,19,0,19,0,1,,,,,,,,,,,,,,,,,,,,,,,,,,,,,,,,,,,,,,,
,,,,,,,,2023-08-16_08h44.25.712,HF_wild_card,2022.2.4,MacIntel,62.97229219,5e25d748cf445f81e521f802,64d2fd46c836a06233681665,64dc7e414fa711d3e01f214b,,,,,,,decisionTrl,resources/DR.BMP,resources/DB.BMP,Door3,0.591049383,-0.043209877,1,0,0,1.653,optionRight,70,15615,7,20,0,20,0,1,,,,,,,,,,,,,,,,,,,,,,,,,,,,,,,,,,,,,,,
,,,,,,,,2023-08-16_08h44.25.712,HF_wild_card,2022.2.4,MacIntel,62.97229219,5e25d748cf445f81e521f802,64d2fd46c836a06233681665,64dc7e414fa711d3e01f214b,,,,,,,ctch,resources/DY.BMP,resources/DB.BMP,Door3,0.50617284,-0.037037037,1,0,0,0.615,optionRight,70,15685,7,21,0,21,0,1,,,,,,,,,,,,,,,,,,,,,,,,,,,,,,,,,,,,,,,
,,,,,,,,2023-08-16_08h44.25.712,HF_wild_card,2022.2.4,MacIntel,62.97229219,5e25d748cf445f81e521f802,64d2fd46c836a06233681665,64dc7e414fa711d3e01f214b,,,,,,,ctch,resources/DR.BMP,resources/DP.BMP,Door4,-0.385802469,-0.030864198,1,0,0,1.593,optionLeft,80,15765,7,22,0,22,0,1,,,,,,,,,,,,,,,,,,,,,,,,,,,,,,,,,,,,,,,
,,,,,,,,2023-08-16_08h44.25.712,HF_wild_card,2022.2.4,MacIntel,62.97229219,5e25d748cf445f81e521f802,64d2fd46c836a06233681665,64dc7e414fa711d3e01f214b,,,,,,,decisionTrl,resources/DB.BMP,resources/DR.BMP,Door4,0.304012346,-0.027777778,1,0,0,1.134,optionRight,60,15825,7,23,0,23,0,1,,,,,,,,,,,,,,,,,,,,,,,,,,,,,,,,,,,,,,,
,,,,,,,,2023-08-16_08h44.25.712,HF_wild_card,2022.2.4,MacIntel,62.97229219,5e25d748cf445f81e521f802,64d2fd46c836a06233681665,64dc7e414fa711d3e01f214b,,,,,,,decisionTrl,resources/DY.BMP,resources/DP.BMP,Door1,0.561728395,-0.049382716,1,0,0,0.95,optionRight,30,15855,7,24,0,24,0,1,,,,,,,,,,,,,,,,,,,,,,,,,,,,,,,,,,,,,,,
,,,,,,,,2023-08-16_08h44.25.712,HF_wild_card,2022.2.4,MacIntel,62.97229219,5e25d748cf445f81e521f802,64d2fd46c836a06233681665,64dc7e414fa711d3e01f214b,,,,,,,decisionTrl,resources/DY.BMP,resources/DP.BMP,Door1,0.24845679,-0.020061728,1,0,0,0.633,optionRight,30,15885,7,25,0,25,0,1,,,,,,,,,,,,,,,,,,,,,,,,,,,,,,,,,,,,,,,
,,,,,,,,2023-08-16_08h44.25.712,HF_wild_card,2022.2.4,MacIntel,62.97229219,5e25d748cf445f81e521f802,64d2fd46c836a06233681665,64dc7e414fa711d3e01f214b,,,,,,,decisionTrl,resources/DP.BMP,resources/DY.BMP,Door1,-0.330246914,-0.030864198,1,0,0,0.682,optionLeft,30,15915,7,26,0,26,0,1,,,,,,,,,,,,,,,,,,,,,,,,,,,,,,,,,,,,,,,
,,,,,,,,2023-08-16_08h44.25.712,HF_wild_card,2022.2.4,MacIntel,62.97229219,5e25d748cf445f81e521f802,64d2fd46c836a06233681665,64dc7e414fa711d3e01f214b,,,,,,,ctch,resources/DY.BMP,resources/DB.BMP,Door3,0.348765432,-0.012345679,1,0,0,0.467,optionRight,70,15985,7,27,0,27,0,1,,,,,,,,,,,,,,,,,,,,,,,,,,,,,,,,,,,,,,,
,,,,,,,,2023-08-16_08h44.25.712,HF_wild_card,2022.2.4,MacIntel,62.97229219,5e25d748cf445f81e521f802,64d2fd46c836a06233681665,64dc7e414fa711d3e01f214b,,,,,,,decisionTrl,resources/DY.BMP,resources/DP.BMP,Door1,0.350308642,-0.016975309,1,0,0,0.872,optionRight,30,16015,7,28,0,28,0,1,,,,,,,,,,,,,,,,,,,,,,,,,,,,,,,,,,,,,,,
,,,,,,,,2023-08-16_08h44.25.712,HF_wild_card,2022.2.4,MacIntel,62.97229219,5e25d748cf445f81e521f802,64d2fd46c836a06233681665,64dc7e414fa711d3e01f214b,,,,,,,decisionTrl,resources/DB.BMP,resources/DR.BMP,Door4,0.5,-0.023148148,1,0,0,1.068,optionRight,60,16075,7,29,0,29,0,1,,,,,,,,,,,,,,,,,,,,,,,,,,,,,,,,,,,,,,,
,,,,,,,,2023-08-16_08h44.25.712,HF_wild_card,2022.2.4,MacIntel,62.97229219,5e25d748cf445f81e521f802,64d2fd46c836a06233681665,64dc7e414fa711d3e01f214b,,,,,,,decisionTrl,resources/DB.BMP,resources/DR.BMP,Door4,0.24537037,-0.016975309,1,0,0,0.635,optionRight,60,16135,7,30,0,30,0,1,,,,,,,,,,,,,,,,,,,,,,,,,,,,,,,,,,,,,,,
,,,,,,,,2023-08-16_08h44.25.712,HF_wild_card,2022.2.4,MacIntel,62.97229219,5e25d748cf445f81e521f802,64d2fd46c836a06233681665,64dc7e414fa711d3e01f214b,,,,,,,decisionTrl,resources/DP.BMP,resources/DY.BMP,Door1,-0.362654321,-0.009259259,1,0,0,1.051,optionLeft,30,16165,7,31,0,31,0,1,,,,,,,,,,,,,,,,,,,,,,,,,,,,,,,,,,,,,,,
,,,,,,,,2023-08-16_08h44.25.712,HF_wild_card,2022.2.4,MacIntel,62.97229219,5e25d748cf445f81e521f802,64d2fd46c836a06233681665,64dc7e414fa711d3e01f214b,,,,,,,ctch,resources/DB.BMP,resources/DY.BMP,Door3,-0.334876543,-0.016975309,1,0,0,0.7,optionLeft,70,16235,7,32,0,32,0,1,,,,,,,,,,,,,,,,,,,,,,,,,,,,,,,,,,,,,,,
,,,,,,,,2023-08-16_08h44.25.712,HF_wild_card,2022.2.4,MacIntel,62.97229219,5e25d748cf445f81e521f802,64d2fd46c836a06233681665,64dc7e414fa711d3e01f214b,,,,,,,decisionTrl,resources/DP.BMP,resources/DY.BMP,Door1,-0.401234568,-0.033950617,1,0,0,0.777,optionLeft,30,16265,7,33,0,33,0,1,,,,,,,,,,,,,,,,,,,,,,,,,,,,,,,,,,,,,,,
,,,,,,,,2023-08-16_08h44.25.712,HF_wild_card,2022.2.4,MacIntel,62.97229219,5e25d748cf445f81e521f802,64d2fd46c836a06233681665,64dc7e414fa711d3e01f214b,,,,,,,ctch,resources/DB.BMP,resources/DY.BMP,Door3,-0.304012346,-0.027777778,1,0,0,0.682,optionLeft,70,16335,7,34,0,34,0,1,,,,,,,,,,,,,,,,,,,,,,,,,,,,,,,,,,,,,,,
,,,,,,,,2023-08-16_08h44.25.712,HF_wild_card,2022.2.4,MacIntel,62.97229219,5e25d748cf445f81e521f802,64d2fd46c836a06233681665,64dc7e414fa711d3e01f214b,,,,,,,decisionTrl,resources/DY.BMP,resources/DP.BMP,Door1,0.492283951,-0.041666667,1,0,0,0.817,optionRight,30,16365,7,35,0,35,0,1,,,,,,,,,,,,,,,,,,,,,,,,,,,,,,,,,,,,,,,
,,,,,,,,2023-08-16_08h44.25.712,HF_wild_card,2022.2.4,MacIntel,62.97229219,5e25d748cf445f81e521f802,64d2fd46c836a06233681665,64dc7e414fa711d3e01f214b,,,,,,,,,,,,,,,,,,,,,,,,,,6,0,6,0,1,,,,,,,,,,,,,,,,,,,,,,,,,,,,,,,,,,
,,,,,,,,2023-08-16_08h44.25.712,HF_wild_card,2022.2.4,MacIntel,62.97229219,5e25d748cf445f81e521f802,64d2fd46c836a06233681665,64dc7e414fa711d3e01f214b,,,,,,,,,,,,,,,,,,,,,,,,,,,,,,,4,,,,,,,,,,,,,,,,,,,,,,,,,,,,,,,,,
,,,,,,,,2023-08-16_08h44.25.712,HF_wild_card,2022.2.4,MacIntel,62.97229219,5e25d748cf445f81e521f802,64d2fd46c836a06233681665,64dc7e414fa711d3e01f214b,,,,,,,,,,,,,,,,,,,,,,,,,,,,,,,,,,,,,,,,,,,,,,,,,,,,,,,,,,,,,,,,
,,,,,,,,2023-08-16_08h44.25.712,HF_wild_card,2022.2.4,MacIntel,62.97229219,5e25d748cf445f81e521f802,64d2fd46c836a06233681665,64dc7e414fa711d3e01f214b,,,,,,,,,,,,,,,,,,,,,,,,,,,,,,,,45,WC_extreme,resources/DBN.BMP,0,0,0,0,1,,,,,,,,,,,,,,,,,,,,,,,,,
,,,,,,,,2023-08-16_08h44.25.712,HF_wild_card,2022.2.4,MacIntel,62.97229219,5e25d748cf445f81e521f802,64d2fd46c836a06233681665,64dc7e414fa711d3e01f214b,,,,,,,,,,,,,,,,,,,,,,,,,,,,,,,,70,Door3,resources/DB.BMP,1,0,1,0,1,,,,,,,,,,,,,,,,,,,,,,,,,
,,,,,,,,2023-08-16_08h44.25.712,HF_wild_card,2022.2.4,MacIntel,62.97229219,5e25d748cf445f81e521f802,64d2fd46c836a06233681665,64dc7e414fa711d3e01f214b,,,,,,,,,,,,,,,,,,,,,,,,,,,,,,,,30,Door1,resources/DP.BMP,2,0,2,0,1,,,,,,,,,,,,,,,,,,,,,,,,,
,,,,,,,,2023-08-16_08h44.25.712,HF_wild_card,2022.2.4,MacIntel,62.97229219,5e25d748cf445f81e521f802,64d2fd46c836a06233681665,64dc7e414fa711d3e01f214b,,,,,,,,,,,,,,,,,,,,,,,,,,,,,,,,55,WC_nonExtreme,resources/DG.BMP,3,0,3,0,1,,,,,,,,,,,,,,,,,,,,,,,,,
,,,,,,,,2023-08-16_08h44.25.712,HF_wild_card,2022.2.4,MacIntel,62.97229219,5e25d748cf445f81e521f802,64d2fd46c836a06233681665,64dc7e414fa711d3e01f214b,,,,,,,,,,,,,,,,,,,,,,,,,,,,,,,,80,Door4,resources/DR.BMP,4,0,4,0,1,,,,,,,,,,,,,,,,,,,,,,,,,
