Condition,Low fixed image (Door1),Low risky image (Door2),High fixed image (Door3),High risky image (Door4),Extreme Wild Card,NonExtreme Wild Card,,date,expName,psychopyVersion,OS,frameRate,PROLIFIC_PID,STUDY_ID,SESSION_ID,mouse_2.x,mouse_2.y,mouse_2.leftButton,mouse_2.midButton,mouse_2.rightButton,mouse_2.clicked_name,Trial Type,Left Option Image,Right Option Image,Chosen Door,mouse.x,mouse.y,mouse.leftButton,mouse.midButton,mouse.rightButton,mouse.time,mouse.clicked_name,Feedback,Cumulative Reward,Block,trial.thisRepN,trial.thisTrialN,trial.thisN,trial.thisIndex,trial.ran,blocks.thisRepN,blocks.thisTrialN,blocks.thisN,blocks.thisIndex,blocks.ran,Money conversion,First Outcome Reported,Shown Door (First Outcome),Displayed Image (First Outcome),outcomes.thisRepN,outcomes.thisTrialN,outcomes.thisN,outcomes.thisIndex,outcomes.ran,judgments.thisRepN,judgments.thisTrialN,judgments.thisN,judgments.thisIndex,judgments.ran,freqMouse.x,freqMouse.y,freqMouse.leftButton,freqMouse.midButton,freqMouse.rightButton,freqMouse.clicked_name,trials.thisRepN,trials.thisTrialN,trials.thisN,trials.thisIndex,trials.ran,FQJ for first outcome,FQJ for second outcome,Shown Door,Displayed Image,judgBlock.thisRepN,judgBlock.thisTrialN,judgBlock.thisN,judgBlock.thisIndex,judgBlock.ran
0,resources/DG.BMP,resources/DB.BMP,resources/DBN.BMP,resources/DR.BMP,resources/DP.BMP,resources/DY.BMP,,2023-08-16_08h31.57.294,HF_wild_card,2022.2.4,Linux x86_64,59.86231667,61fa9016d42cb19beec49061,64d2fd46c836a06233681665,64dc7b5bc0748f546373268d,,,,,,,,,,,,,,,,,,,,,,,,,,,,,,,,,,,,,,,,,,,,,,,,,,,,,,,,,,,,,,,,
,,,,,,,,2023-08-16_08h31.57.294,HF_wild_card,2022.2.4,Linux x86_64,59.86231667,61fa9016d42cb19beec49061,64d2fd46c836a06233681665,64dc7b5bc0748f546373268d,0,-0.421875,1,0,0,agree,,,,,,,,,,,,,,,,,,,,,,,,,,,,,,,,,,,,,,,,,,,,,,,,,,,,,,,,,,
,,,,,,,,2023-08-16_08h31.57.294,HF_wild_card,2022.2.4,Linux x86_64,59.86231667,61fa9016d42cb19beec49061,64d2fd46c836a06233681665,64dc7b5bc0748f546373268d,,,,,,,,,,,,,,,,,,,,,,,,,,,,,,,,,,,,,,,,,,,,,,,,,,,,,,,,,,,,,,,,
,,,,,,,,2023-08-16_08h31.57.294,HF_wild_card,2022.2.4,Linux x86_64,59.86231667,61fa9016d42cb19beec49061,64d2fd46c836a06233681665,64dc7b5bc0748f546373268d,,,,,,,decisionTrl,resources/DR.BMP,resources/DP.BMP,WildCard_Ex,0.34375,-0.080729167,1,0,0,4.4125,optionRight,5,5,1,0,0,0,0,1,,,,,,,,,,,,,,,,,,,,,,,,,,,,,,,,,,,,,,,
,,,,,,,,2023-08-16_08h31.57.294,HF_wild_card,2022.2.4,Linux x86_64,59.86231667,61fa9016d42cb19beec49061,64d2fd46c836a06233681665,64dc7b5bc0748f546373268d,,,,,,,ctch,resources/DBN.BMP,resources/DB.BMP,Door3,-0.354166667,-0.08203125,1,0,0,3.8832,optionLeft,70,75,1,1,0,1,0,1,,,,,,,,,,,,,,,,,,,,,,,,,,,,,,,,,,,,,,,
,,,,,,,,2023-08-16_08h31.57.294,HF_wild_card,2022.2.4,Linux x86_64,59.86231667,61fa9016d42cb19beec49061,64d2fd46c836a06233681665,64dc7b5bc0748f546373268d,,,,,,,ctch,resources/DBN.BMP,resources/DB.BMP,Door3,-0.287760417,-0.0546875,1,0,0,2.4829,optionLeft,70,145,1,2,0,2,0,1,,,,,,,,,,,,,,,,,,,,,,,,,,,,,,,,,,,,,,,
,,,,,,,,2023-08-16_08h31.57.294,HF_wild_card,2022.2.4,Linux x86_64,59.86231667,61fa9016d42cb19beec49061,64d2fd46c836a06233681665,64dc7b5bc0748f546373268d,,,,,,,ctch,resources/DB.BMP,resources/DBN.BMP,Door2,-0.309895833,-0.09375,1,0,0,1.7668,optionLeft,40,185,1,3,0,3,0,1,,,,,,,,,,,,,,,,,,,,,,,,,,,,,,,,,,,,,,,
,,,,,,,,2023-08-16_08h31.57.294,HF_wild_card,2022.2.4,Linux x86_64,59.86231667,61fa9016d42cb19beec49061,64d2fd46c836a06233681665,64dc7b5bc0748f546373268d,,,,,,,sngl,resources/DG.BMP,resources/Empty.png,Door1,-0.360677083,-0.057291667,1,0,0,1.9615,optionLeft,30,215,1,4,0,4,0,1,,,,,,,,,,,,,,,,,,,,,,,,,,,,,,,,,,,,,,,
,,,,,,,,2023-08-16_08h31.57.294,HF_wild_card,2022.2.4,Linux x86_64,59.86231667,61fa9016d42cb19beec49061,64d2fd46c836a06233681665,64dc7b5bc0748f546373268d,,,,,,,ctch,resources/DG.BMP,resources/DR.BMP,Door1,-0.256510417,-0.067708333,1,0,0,1.6007,optionLeft,30,245,1,5,0,5,0,1,,,,,,,,,,,,,,,,,,,,,,,,,,,,,,,,,,,,,,,
,,,,,,,,2023-08-16_08h31.57.294,HF_wild_card,2022.2.4,Linux x86_64,59.86231667,61fa9016d42cb19beec49061,64d2fd46c836a06233681665,64dc7b5bc0748f546373268d,,,,,,,sngl,resources/Empty.png,resources/DP.BMP,WildCard_Ex,0.35546875,-0.09375,1,0,0,1.5133,optionRight,5,250,1,6,0,6,0,1,,,,,,,,,,,,,,,,,,,,,,,,,,,,,,,,,,,,,,,
,,,,,,,,2023-08-16_08h31.57.294,HF_wild_card,2022.2.4,Linux x86_64,59.86231667,61fa9016d42cb19beec49061,64d2fd46c836a06233681665,64dc7b5bc0748f546373268d,,,,,,,sngl,resources/Empty.png,resources/DR.BMP,Door4,0.272135417,-0.069010417,1,0,0,1.1981,optionRight,60,310,1,7,0,7,0,1,,,,,,,,,,,,,,,,,,,,,,,,,,,,,,,,,,,,,,,
,,,,,,,,2023-08-16_08h31.57.294,HF_wild_card,2022.2.4,Linux x86_64,59.86231667,61fa9016d42cb19beec49061,64d2fd46c836a06233681665,64dc7b5bc0748f546373268d,,,,,,,decisionTrl,resources/DP.BMP,resources/DBN.BMP,Door3,0.28125,0.01171875,1,0,0,2.6974,optionRight,70,380,1,8,0,8,0,1,,,,,,,,,,,,,,,,,,,,,,,,,,,,,,,,,,,,,,,
,,,,,,,,2023-08-16_08h31.57.294,HF_wild_card,2022.2.4,Linux x86_64,59.86231667,61fa9016d42cb19beec49061,64d2fd46c836a06233681665,64dc7b5bc0748f546373268d,,,,,,,sngl,resources/DR.BMP,resources/Empty.png,Door4,-0.264322917,-0.055989583,1,0,0,1.2796,optionLeft,80,460,1,9,0,9,0,1,,,,,,,,,,,,,,,,,,,,,,,,,,,,,,,,,,,,,,,
,,,,,,,,2023-08-16_08h31.57.294,HF_wild_card,2022.2.4,Linux x86_64,59.86231667,61fa9016d42cb19beec49061,64d2fd46c836a06233681665,64dc7b5bc0748f546373268d,,,,,,,decisionTrl,resources/DB.BMP,resources/DG.BMP,Door1,0.279947917,-0.044270833,1,0,0,2.5159,optionRight,30,490,1,10,0,10,0,1,,,,,,,,,,,,,,,,,,,,,,,,,,,,,,,,,,,,,,,
,,,,,,,,2023-08-16_08h31.57.294,HF_wild_card,2022.2.4,Linux x86_64,59.86231667,61fa9016d42cb19beec49061,64d2fd46c836a06233681665,64dc7b5bc0748f546373268d,,,,,,,ctch,resources/DR.BMP,resources/DG.BMP,Door4,-0.30078125,-0.055989583,1,0,0,2.1665,optionLeft,60,550,1,11,0,11,0,1,,,,,,,,,,,,,,,,,,,,,,,,,,,,,,,,,,,,,,,
,,,,,,,,2023-08-16_08h31.57.294,HF_wild_card,2022.2.4,Linux x86_64,59.86231667,61fa9016d42cb19beec49061,64d2fd46c836a06233681665,64dc7b5bc0748f546373268d,,,,,,,decisionTrl,resources/DB.BMP,resources/DG.BMP,Door1,0.197916667,-0.0390625,1,0,0,2.401,optionRight,30,580,1,12,0,12,0,1,,,,,,,,,,,,,,,,,,,,,,,,,,,,,,,,,,,,,,,
,,,,,,,,2023-08-16_08h31.57.294,HF_wild_card,2022.2.4,Linux x86_64,59.86231667,61fa9016d42cb19beec49061,64d2fd46c836a06233681665,64dc7b5bc0748f546373268d,,,,,,,decisionTrl,resources/DR.BMP,resources/DBN.BMP,Door4,-0.274739583,-0.0703125,1,0,0,1.0653,optionLeft,80,660,1,13,0,13,0,1,,,,,,,,,,,,,,,,,,,,,,,,,,,,,,,,,,,,,,,
,,,,,,,,2023-08-16_08h31.57.294,HF_wild_card,2022.2.4,Linux x86_64,59.86231667,61fa9016d42cb19beec49061,64d2fd46c836a06233681665,64dc7b5bc0748f546373268d,,,,,,,decisionTrl,resources/DG.BMP,resources/DP.BMP,Door1,-0.205729167,-0.098958333,1,0,0,1.3308,optionLeft,30,690,1,14,0,14,0,1,,,,,,,,,,,,,,,,,,,,,,,,,,,,,,,,,,,,,,,
,,,,,,,,2023-08-16_08h31.57.294,HF_wild_card,2022.2.4,Linux x86_64,59.86231667,61fa9016d42cb19beec49061,64d2fd46c836a06233681665,64dc7b5bc0748f546373268d,,,,,,,sngl,resources/DP.BMP,resources/Empty.png,WildCard_Ex,-0.255208333,-0.036458333,1,0,0,1.1643,optionLeft,95,785,1,15,0,15,0,1,,,,,,,,,,,,,,,,,,,,,,,,,,,,,,,,,,,,,,,
,,,,,,,,2023-08-16_08h31.57.294,HF_wild_card,2022.2.4,Linux x86_64,59.86231667,61fa9016d42cb19beec49061,64d2fd46c836a06233681665,64dc7b5bc0748f546373268d,,,,,,,decisionTrl,resources/DBN.BMP,resources/DR.BMP,Door4,0.243489583,-0.044270833,1,0,0,1.6787,optionRight,60,845,1,16,0,16,0,1,,,,,,,,,,,,,,,,,,,,,,,,,,,,,,,,,,,,,,,
,,,,,,,,2023-08-16_08h31.57.294,HF_wild_card,2022.2.4,Linux x86_64,59.86231667,61fa9016d42cb19beec49061,64d2fd46c836a06233681665,64dc7b5bc0748f546373268d,,,,,,,sngl,resources/DBN.BMP,resources/Empty.png,Door3,-0.32421875,-0.095052083,1,0,0,1.1782,optionLeft,70,915,1,17,0,17,0,1,,,,,,,,,,,,,,,,,,,,,,,,,,,,,,,,,,,,,,,
,,,,,,,,2023-08-16_08h31.57.294,HF_wild_card,2022.2.4,Linux x86_64,59.86231667,61fa9016d42cb19beec49061,64d2fd46c836a06233681665,64dc7b5bc0748f546373268d,,,,,,,sngl,resources/Empty.png,resources/DP.BMP,WildCard_Ex,0.296875,-0.020833333,1,0,0,1.3314,optionRight,95,1010,1,18,0,18,0,1,,,,,,,,,,,,,,,,,,,,,,,,,,,,,,,,,,,,,,,
,,,,,,,,2023-08-16_08h31.57.294,HF_wild_card,2022.2.4,Linux x86_64,59.86231667,61fa9016d42cb19beec49061,64d2fd46c836a06233681665,64dc7b5bc0748f546373268d,,,,,,,sngl,resources/DB.BMP,resources/Empty.png,Door2,-0.28515625,-0.0546875,1,0,0,1.2345,optionLeft,40,1050,1,19,0,19,0,1,,,,,,,,,,,,,,,,,,,,,,,,,,,,,,,,,,,,,,,
,,,,,,,,2023-08-16_08h31.57.294,HF_wild_card,2022.2.4,Linux x86_64,59.86231667,61fa9016d42cb19beec49061,64d2fd46c836a06233681665,64dc7b5bc0748f546373268d,,,,,,,decisionTrl,resources/DB.BMP,resources/DG.BMP,Door2,-0.19921875,-0.002604167,1,0,0,1.6294,optionLeft,40,1090,1,20,0,20,0,1,,,,,,,,,,,,,,,,,,,,,,,,,,,,,,,,,,,,,,,
,,,,,,,,2023-08-16_08h31.57.294,HF_wild_card,2022.2.4,Linux x86_64,59.86231667,61fa9016d42cb19beec49061,64d2fd46c836a06233681665,64dc7b5bc0748f546373268d,,,,,,,decisionTrl,resources/DR.BMP,resources/DBN.BMP,Door4,-0.278645833,0.002604167,1,0,0,1.9312,optionLeft,60,1150,1,21,0,21,0,1,,,,,,,,,,,,,,,,,,,,,,,,,,,,,,,,,,,,,,,
,,,,,,,,2023-08-16_08h31.57.294,HF_wild_card,2022.2.4,Linux x86_64,59.86231667,61fa9016d42cb19beec49061,64d2fd46c836a06233681665,64dc7b5bc0748f546373268d,,,,,,,decisionTrl,resources/DR.BMP,resources/DBN.BMP,Door3,0.201822917,-0.057291667,1,0,0,1.8133,optionRight,70,1220,1,22,0,22,0,1,,,,,,,,,,,,,,,,,,,,,,,,,,,,,,,,,,,,,,,
,,,,,,,,2023-08-16_08h31.57.294,HF_wild_card,2022.2.4,Linux x86_64,59.86231667,61fa9016d42cb19beec49061,64d2fd46c836a06233681665,64dc7b5bc0748f546373268d,,,,,,,decisionTrl,resources/DBN.BMP,resources/DR.BMP,Door3,-0.294270833,-0.080729167,1,0,0,1.8297,optionLeft,70,1290,1,23,0,23,0,1,,,,,,,,,,,,,,,,,,,,,,,,,,,,,,,,,,,,,,,
,,,,,,,,2023-08-16_08h31.57.294,HF_wild_card,2022.2.4,Linux x86_64,59.86231667,61fa9016d42cb19beec49061,64d2fd46c836a06233681665,64dc7b5bc0748f546373268d,,,,,,,decisionTrl,resources/DP.BMP,resources/DB.BMP,Door2,0.21484375,-0.046875,1,0,0,1.6654,optionRight,40,1330,1,24,0,24,0,1,,,,,,,,,,,,,,,,,,,,,,,,,,,,,,,,,,,,,,,
,,,,,,,,2023-08-16_08h31.57.294,HF_wild_card,2022.2.4,Linux x86_64,59.86231667,61fa9016d42cb19beec49061,64d2fd46c836a06233681665,64dc7b5bc0748f546373268d,,,,,,,decisionTrl,resources/DB.BMP,resources/DP.BMP,WildCard_Ex,0.17578125,0.009114583,1,0,0,1.8829,optionRight,95,1425,1,25,0,25,0,1,,,,,,,,,,,,,,,,,,,,,,,,,,,,,,,,,,,,,,,
,,,,,,,,2023-08-16_08h31.57.294,HF_wild_card,2022.2.4,Linux x86_64,59.86231667,61fa9016d42cb19beec49061,64d2fd46c836a06233681665,64dc7b5bc0748f546373268d,,,,,,,ctch,resources/DR.BMP,resources/DG.BMP,Door4,-0.309895833,0.024739583,1,0,0,1.4128,optionLeft,60,1485,1,26,0,26,0,1,,,,,,,,,,,,,,,,,,,,,,,,,,,,,,,,,,,,,,,
,,,,,,,,2023-08-16_08h31.57.294,HF_wild_card,2022.2.4,Linux x86_64,59.86231667,61fa9016d42cb19beec49061,64d2fd46c836a06233681665,64dc7b5bc0748f546373268d,,,,,,,sngl,resources/Empty.png,resources/DB.BMP,Door2,0.296875,0.014322917,1,0,0,1.2649,optionRight,20,1505,1,27,0,27,0,1,,,,,,,,,,,,,,,,,,,,,,,,,,,,,,,,,,,,,,,
,,,,,,,,2023-08-16_08h31.57.294,HF_wild_card,2022.2.4,Linux x86_64,59.86231667,61fa9016d42cb19beec49061,64d2fd46c836a06233681665,64dc7b5bc0748f546373268d,,,,,,,decisionTrl,resources/DP.BMP,resources/DG.BMP,Door1,0.17578125,-0.00390625,1,0,0,3.3494,optionRight,30,1535,1,28,0,28,0,1,,,,,,,,,,,,,,,,,,,,,,,,,,,,,,,,,,,,,,,
,,,,,,,,2023-08-16_08h31.57.294,HF_wild_card,2022.2.4,Linux x86_64,59.86231667,61fa9016d42cb19beec49061,64d2fd46c836a06233681665,64dc7b5bc0748f546373268d,,,,,,,decisionTrl,resources/DBN.BMP,resources/DR.BMP,Door4,0.213541667,-0.079427083,1,0,0,1.4948,optionRight,80,1615,1,29,0,29,0,1,,,,,,,,,,,,,,,,,,,,,,,,,,,,,,,,,,,,,,,
,,,,,,,,2023-08-16_08h31.57.294,HF_wild_card,2022.2.4,Linux x86_64,59.86231667,61fa9016d42cb19beec49061,64d2fd46c836a06233681665,64dc7b5bc0748f546373268d,,,,,,,decisionTrl,resources/DG.BMP,resources/DB.BMP,Door1,-0.221354167,-0.111979167,1,0,0,1.7301,optionLeft,30,1645,1,30,0,30,0,1,,,,,,,,,,,,,,,,,,,,,,,,,,,,,,,,,,,,,,,
,,,,,,,,2023-08-16_08h31.57.294,HF_wild_card,2022.2.4,Linux x86_64,59.86231667,61fa9016d42cb19beec49061,64d2fd46c836a06233681665,64dc7b5bc0748f546373268d,,,,,,,sngl,resources/Empty.png,resources/DBN.BMP,Door3,0.256510417,-0.015625,1,0,0,1.3003,optionRight,70,1715,1,31,0,31,0,1,,,,,,,,,,,,,,,,,,,,,,,,,,,,,,,,,,,,,,,
,,,,,,,,2023-08-16_08h31.57.294,HF_wild_card,2022.2.4,Linux x86_64,59.86231667,61fa9016d42cb19beec49061,64d2fd46c836a06233681665,64dc7b5bc0748f546373268d,,,,,,,ctch,resources/DG.BMP,resources/DR.BMP,Door4,0.201822917,-0.059895833,1,0,0,1.235,optionRight,60,1775,1,32,0,32,0,1,,,,,,,,,,,,,,,,,,,,,,,,,,,,,,,,,,,,,,,
,,,,,,,,2023-08-16_08h31.57.294,HF_wild_card,2022.2.4,Linux x86_64,59.86231667,61fa9016d42cb19beec49061,64d2fd46c836a06233681665,64dc7b5bc0748f546373268d,,,,,,,decisionTrl,resources/DR.BMP,resources/DBN.BMP,Door4,-0.264322917,-0.02734375,1,0,0,2.0972,optionLeft,60,1835,1,33,0,33,0,1,,,,,,,,,,,,,,,,,,,,,,,,,,,,,,,,,,,,,,,
,,,,,,,,2023-08-16_08h31.57.294,HF_wild_card,2022.2.4,Linux x86_64,59.86231667,61fa9016d42cb19beec49061,64d2fd46c836a06233681665,64dc7b5bc0748f546373268d,,,,,,,sngl,resources/DP.BMP,resources/Empty.png,WildCard_Ex,-0.266927083,-0.08203125,1,0,0,1.1939,optionLeft,5,1840,1,34,0,34,0,1,,,,,,,,,,,,,,,,,,,,,,,,,,,,,,,,,,,,,,,
,,,,,,,,2023-08-16_08h31.57.294,HF_wild_card,2022.2.4,Linux x86_64,59.86231667,61fa9016d42cb19beec49061,64d2fd46c836a06233681665,64dc7b5bc0748f546373268d,,,,,,,decisionTrl,resources/DP.BMP,resources/DR.BMP,Door4,0.270833333,0.015625,1,0,0,1.0324,optionRight,80,1920,1,35,0,35,0,1,,,,,,,,,,,,,,,,,,,,,,,,,,,,,,,,,,,,,,,
,,,,,,,,2023-08-16_08h31.57.294,HF_wild_card,2022.2.4,Linux x86_64,59.86231667,61fa9016d42cb19beec49061,64d2fd46c836a06233681665,64dc7b5bc0748f546373268d,,,,,,,decisionTrl,resources/DB.BMP,resources/DG.BMP,Door1,0.049479167,-0.013020833,1,0,0,1.9497,optionRight,30,1950,1,36,0,36,0,1,,,,,,,,,,,,,,,,,,,,,,,,,,,,,,,,,,,,,,,
,,,,,,,,2023-08-16_08h31.57.294,HF_wild_card,2022.2.4,Linux x86_64,59.86231667,61fa9016d42cb19beec49061,64d2fd46c836a06233681665,64dc7b5bc0748f546373268d,,,,,,,decisionTrl,resources/DG.BMP,resources/DB.BMP,Door1,-0.010416667,0.022135417,1,0,0,0.2926,optionLeft,30,1980,1,37,0,37,0,1,,,,,,,,,,,,,,,,,,,,,,,,,,,,,,,,,,,,,,,
,,,,,,,,2023-08-16_08h31.57.294,HF_wild_card,2022.2.4,Linux x86_64,59.86231667,61fa9016d42cb19beec49061,64d2fd46c836a06233681665,64dc7b5bc0748f546373268d,,,,,,,decisionTrl,resources/DBN.BMP,resources/DP.BMP,Door3,-0.231770833,-0.005208333,1,0,0,1.197,optionLeft,70,2050,1,38,0,38,0,1,,,,,,,,,,,,,,,,,,,,,,,,,,,,,,,,,,,,,,,
,,,,,,,,2023-08-16_08h31.57.294,HF_wild_card,2022.2.4,Linux x86_64,59.86231667,61fa9016d42cb19beec49061,64d2fd46c836a06233681665,64dc7b5bc0748f546373268d,,,,,,,decisionTrl,resources/DG.BMP,resources/DB.BMP,Door1,-0.209635417,-0.002604167,1,0,0,1.9644,optionLeft,30,2080,1,39,0,39,0,1,,,,,,,,,,,,,,,,,,,,,,,,,,,,,,,,,,,,,,,
,,,,,,,,2023-08-16_08h31.57.294,HF_wild_card,2022.2.4,Linux x86_64,59.86231667,61fa9016d42cb19beec49061,64d2fd46c836a06233681665,64dc7b5bc0748f546373268d,,,,,,,ctch,resources/DB.BMP,resources/DBN.BMP,Door3,0.282552083,-0.002604167,1,0,0,1.48,optionRight,70,2150,1,40,0,40,0,1,,,,,,,,,,,,,,,,,,,,,,,,,,,,,,,,,,,,,,,
,,,,,,,,2023-08-16_08h31.57.294,HF_wild_card,2022.2.4,Linux x86_64,59.86231667,61fa9016d42cb19beec49061,64d2fd46c836a06233681665,64dc7b5bc0748f546373268d,,,,,,,decisionTrl,resources/DG.BMP,resources/DB.BMP,Door2,0.182291667,-0.044270833,1,0,0,1.2144,optionRight,20,2170,1,41,0,41,0,1,,,,,,,,,,,,,,,,,,,,,,,,,,,,,,,,,,,,,,,
,,,,,,,,2023-08-16_08h31.57.294,HF_wild_card,2022.2.4,Linux x86_64,59.86231667,61fa9016d42cb19beec49061,64d2fd46c836a06233681665,64dc7b5bc0748f546373268d,,,,,,,decisionTrl,resources/DBN.BMP,resources/DR.BMP,Door4,0.213541667,-0.046875,1,0,0,1.3306,optionRight,80,2250,1,42,0,42,0,1,,,,,,,,,,,,,,,,,,,,,,,,,,,,,,,,,,,,,,,
,,,,,,,,2023-08-16_08h31.57.294,HF_wild_card,2022.2.4,Linux x86_64,59.86231667,61fa9016d42cb19beec49061,64d2fd46c836a06233681665,64dc7b5bc0748f546373268d,,,,,,,sngl,resources/Empty.png,resources/DG.BMP,Door1,0.26171875,-0.033854167,1,0,0,1.3619,optionRight,30,2280,1,43,0,43,0,1,,,,,,,,,,,,,,,,,,,,,,,,,,,,,,,,,,,,,,,
,,,,,,,,2023-08-16_08h31.57.294,HF_wild_card,2022.2.4,Linux x86_64,59.86231667,61fa9016d42cb19beec49061,64d2fd46c836a06233681665,64dc7b5bc0748f546373268d,,,,,,,,,,,,,,,,,,,,,,,,,,0,0,0,0,1,,,,,,,,,,,,,,,,,,,,,,,,,,,,,,,,,,
,,,,,,,,2023-08-16_08h31.57.294,HF_wild_card,2022.2.4,Linux x86_64,59.86231667,61fa9016d42cb19beec49061,64d2fd46c836a06233681665,64dc7b5bc0748f546373268d,,,,,,,decisionTrl,resources/DG.BMP,resources/DB.BMP,Door2,0.2578125,-0.14453125,1,0,0,3.9305,optionRight,40,2320,2,0,0,0,0,1,,,,,,,,,,,,,,,,,,,,,,,,,,,,,,,,,,,,,,,
,,,,,,,,2023-08-16_08h31.57.294,HF_wild_card,2022.2.4,Linux x86_64,59.86231667,61fa9016d42cb19beec49061,64d2fd46c836a06233681665,64dc7b5bc0748f546373268d,,,,,,,decisionTrl,resources/DR.BMP,resources/DBN.BMP,Door4,-0.328125,-0.06640625,1,0,0,2.3123,optionLeft,80,2400,2,1,0,1,0,1,,,,,,,,,,,,,,,,,,,,,,,,,,,,,,,,,,,,,,,
,,,,,,,,2023-08-16_08h31.57.294,HF_wild_card,2022.2.4,Linux x86_64,59.86231667,61fa9016d42cb19beec49061,64d2fd46c836a06233681665,64dc7b5bc0748f546373268d,,,,,,,sngl,resources/DG.BMP,resources/Empty.png,Door1,-0.3046875,-0.0390625,1,0,0,2.0221,optionLeft,30,2430,2,2,0,2,0,1,,,,,,,,,,,,,,,,,,,,,,,,,,,,,,,,,,,,,,,
,,,,,,,,2023-08-16_08h31.57.294,HF_wild_card,2022.2.4,Linux x86_64,59.86231667,61fa9016d42cb19beec49061,64d2fd46c836a06233681665,64dc7b5bc0748f546373268d,,,,,,,sngl,resources/DR.BMP,resources/Empty.png,Door4,-0.338541667,-0.048177083,1,0,0,1.6291,optionLeft,60,2490,2,3,0,3,0,1,,,,,,,,,,,,,,,,,,,,,,,,,,,,,,,,,,,,,,,
,,,,,,,,2023-08-16_08h31.57.294,HF_wild_card,2022.2.4,Linux x86_64,59.86231667,61fa9016d42cb19beec49061,64d2fd46c836a06233681665,64dc7b5bc0748f546373268d,,,,,,,decisionTrl,resources/DP.BMP,resources/DR.BMP,Door4,0.291666667,0.010416667,1,0,0,6.0459,optionRight,60,2550,2,4,0,4,0,1,,,,,,,,,,,,,,,,,,,,,,,,,,,,,,,,,,,,,,,
,,,,,,,,2023-08-16_08h31.57.294,HF_wild_card,2022.2.4,Linux x86_64,59.86231667,61fa9016d42cb19beec49061,64d2fd46c836a06233681665,64dc7b5bc0748f546373268d,,,,,,,ctch,resources/DBN.BMP,resources/DB.BMP,Door3,-0.286458333,-0.014322917,1,0,0,3.1667,optionLeft,70,2620,2,5,0,5,0,1,,,,,,,,,,,,,,,,,,,,,,,,,,,,,,,,,,,,,,,
,,,,,,,,2023-08-16_08h31.57.294,HF_wild_card,2022.2.4,Linux x86_64,59.86231667,61fa9016d42cb19beec49061,64d2fd46c836a06233681665,64dc7b5bc0748f546373268d,,,,,,,sngl,resources/Empty.png,resources/DP.BMP,WildCard_Ex,0.305989583,-0.020833333,1,0,0,1.9126,optionRight,95,2715,2,6,0,6,0,1,,,,,,,,,,,,,,,,,,,,,,,,,,,,,,,,,,,,,,,
,,,,,,,,2023-08-16_08h31.57.294,HF_wild_card,2022.2.4,Linux x86_64,59.86231667,61fa9016d42cb19beec49061,64d2fd46c836a06233681665,64dc7b5bc0748f546373268d,,,,,,,ctch,resources/DB.BMP,resources/DBN.BMP,Door3,0.37109375,0.071614583,1,0,0,1.3975,optionRight,70,2785,2,7,0,7,0,1,,,,,,,,,,,,,,,,,,,,,,,,,,,,,,,,,,,,,,,
,,,,,,,,2023-08-16_08h31.57.294,HF_wild_card,2022.2.4,Linux x86_64,59.86231667,61fa9016d42cb19beec49061,64d2fd46c836a06233681665,64dc7b5bc0748f546373268d,,,,,,,sngl,resources/Empty.png,resources/DR.BMP,Door4,0.286458333,-0.018229167,1,0,0,0.9159,optionRight,80,2865,2,8,0,8,0,1,,,,,,,,,,,,,,,,,,,,,,,,,,,,,,,,,,,,,,,
,,,,,,,,2023-08-16_08h31.57.294,HF_wild_card,2022.2.4,Linux x86_64,59.86231667,61fa9016d42cb19beec49061,64d2fd46c836a06233681665,64dc7b5bc0748f546373268d,,,,,,,decisionTrl,resources/DBN.BMP,resources/DP.BMP,WildCard_Ex,0.283854167,-0.1640625,1,0,0,3.1982,optionRight,95,2960,2,9,0,9,0,1,,,,,,,,,,,,,,,,,,,,,,,,,,,,,,,,,,,,,,,
,,,,,,,,2023-08-16_08h31.57.294,HF_wild_card,2022.2.4,Linux x86_64,59.86231667,61fa9016d42cb19beec49061,64d2fd46c836a06233681665,64dc7b5bc0748f546373268d,,,,,,,decisionTrl,resources/DBN.BMP,resources/DR.BMP,Door4,0.265625,0.002604167,1,0,0,1.7515,optionRight,80,3040,2,10,0,10,0,1,,,,,,,,,,,,,,,,,,,,,,,,,,,,,,,,,,,,,,,
,,,,,,,,2023-08-16_08h31.57.294,HF_wild_card,2022.2.4,Linux x86_64,59.86231667,61fa9016d42cb19beec49061,64d2fd46c836a06233681665,64dc7b5bc0748f546373268d,,,,,,,sngl,resources/DP.BMP,resources/Empty.png,WildCard_Ex,-0.2734375,-0.016927083,1,0,0,0.8431,optionLeft,95,3135,2,11,0,11,0,1,,,,,,,,,,,,,,,,,,,,,,,,,,,,,,,,,,,,,,,
,,,,,,,,2023-08-16_08h31.57.294,HF_wild_card,2022.2.4,Linux x86_64,59.86231667,61fa9016d42cb19beec49061,64d2fd46c836a06233681665,64dc7b5bc0748f546373268d,,,,,,,sngl,resources/DB.BMP,resources/Empty.png,Door2,-0.2734375,-0.014322917,1,0,0,1.9811,optionLeft,20,3155,2,12,0,12,0,1,,,,,,,,,,,,,,,,,,,,,,,,,,,,,,,,,,,,,,,
,,,,,,,,2023-08-16_08h31.57.294,HF_wild_card,2022.2.4,Linux x86_64,59.86231667,61fa9016d42cb19beec49061,64d2fd46c836a06233681665,64dc7b5bc0748f546373268d,,,,,,,decisionTrl,resources/DB.BMP,resources/DG.BMP,Door2,-0.346354167,-0.061197917,1,0,0,5.5198,optionLeft,20,3175,2,13,0,13,0,1,,,,,,,,,,,,,,,,,,,,,,,,,,,,,,,,,,,,,,,
,,,,,,,,2023-08-16_08h31.57.294,HF_wild_card,2022.2.4,Linux x86_64,59.86231667,61fa9016d42cb19beec49061,64d2fd46c836a06233681665,64dc7b5bc0748f546373268d,,,,,,,decisionTrl,resources/DP.BMP,resources/DBN.BMP,WildCard_Ex,-0.298177083,-0.01953125,1,0,0,1.3511,optionLeft,95,3270,2,14,0,14,0,1,,,,,,,,,,,,,,,,,,,,,,,,,,,,,,,,,,,,,,,
,,,,,,,,2023-08-16_08h31.57.294,HF_wild_card,2022.2.4,Linux x86_64,59.86231667,61fa9016d42cb19beec49061,64d2fd46c836a06233681665,64dc7b5bc0748f546373268d,,,,,,,ctch,resources/DR.BMP,resources/DG.BMP,Door4,-0.229166667,-0.032552083,1,0,0,1.4071,optionLeft,60,3330,2,15,0,15,0,1,,,,,,,,,,,,,,,,,,,,,,,,,,,,,,,,,,,,,,,
,,,,,,,,2023-08-16_08h31.57.294,HF_wild_card,2022.2.4,Linux x86_64,59.86231667,61fa9016d42cb19beec49061,64d2fd46c836a06233681665,64dc7b5bc0748f546373268d,,,,,,,sngl,resources/DBN.BMP,resources/Empty.png,Door3,-0.31640625,-0.032552083,1,0,0,0.9357,optionLeft,70,3400,2,16,0,16,0,1,,,,,,,,,,,,,,,,,,,,,,,,,,,,,,,,,,,,,,,
,,,,,,,,2023-08-16_08h31.57.294,HF_wild_card,2022.2.4,Linux x86_64,59.86231667,61fa9016d42cb19beec49061,64d2fd46c836a06233681665,64dc7b5bc0748f546373268d,,,,,,,ctch,resources/DR.BMP,resources/DG.BMP,Door4,-0.348958333,0.028645833,1,0,0,5.0188,optionLeft,60,3460,2,17,0,17,0,1,,,,,,,,,,,,,,,,,,,,,,,,,,,,,,,,,,,,,,,
,,,,,,,,2023-08-16_08h31.57.294,HF_wild_card,2022.2.4,Linux x86_64,59.86231667,61fa9016d42cb19beec49061,64d2fd46c836a06233681665,64dc7b5bc0748f546373268d,,,,,,,decisionTrl,resources/DP.BMP,resources/DG.BMP,WildCard_Ex,-0.381510417,-0.135416667,1,0,0,1.7807,optionLeft,5,3465,2,18,0,18,0,1,,,,,,,,,,,,,,,,,,,,,,,,,,,,,,,,,,,,,,,
,,,,,,,,2023-08-16_08h31.57.294,HF_wild_card,2022.2.4,Linux x86_64,59.86231667,61fa9016d42cb19beec49061,64d2fd46c836a06233681665,64dc7b5bc0748f546373268d,,,,,,,decisionTrl,resources/DR.BMP,resources/DBN.BMP,Door3,0.256510417,-0.03125,1,0,0,1.289,optionRight,70,3535,2,19,0,19,0,1,,,,,,,,,,,,,,,,,,,,,,,,,,,,,,,,,,,,,,,
,,,,,,,,2023-08-16_08h31.57.294,HF_wild_card,2022.2.4,Linux x86_64,59.86231667,61fa9016d42cb19beec49061,64d2fd46c836a06233681665,64dc7b5bc0748f546373268d,,,,,,,ctch,resources/DB.BMP,resources/DBN.BMP,Door3,0.26953125,0.00390625,1,0,0,0.9959,optionRight,70,3605,2,20,0,20,0,1,,,,,,,,,,,,,,,,,,,,,,,,,,,,,,,,,,,,,,,
,,,,,,,,2023-08-16_08h31.57.294,HF_wild_card,2022.2.4,Linux x86_64,59.86231667,61fa9016d42cb19beec49061,64d2fd46c836a06233681665,64dc7b5bc0748f546373268d,,,,,,,decisionTrl,resources/DB.BMP,resources/DG.BMP,Door1,0.23046875,-0.02734375,1,0,0,4.1055,optionRight,30,3635,2,21,0,21,0,1,,,,,,,,,,,,,,,,,,,,,,,,,,,,,,,,,,,,,,,
,,,,,,,,2023-08-16_08h31.57.294,HF_wild_card,2022.2.4,Linux x86_64,59.86231667,61fa9016d42cb19beec49061,64d2fd46c836a06233681665,64dc7b5bc0748f546373268d,,,,,,,sngl,resources/Empty.png,resources/DBN.BMP,Door3,0.325520833,0.005208333,1,0,0,0.9306,optionRight,70,3705,2,22,0,22,0,1,,,,,,,,,,,,,,,,,,,,,,,,,,,,,,,,,,,,,,,
,,,,,,,,2023-08-16_08h31.57.294,HF_wild_card,2022.2.4,Linux x86_64,59.86231667,61fa9016d42cb19beec49061,64d2fd46c836a06233681665,64dc7b5bc0748f546373268d,,,,,,,decisionTrl,resources/DR.BMP,resources/DP.BMP,WildCard_Ex,0.201822917,0.010416667,1,0,0,1.6932,optionRight,95,3800,2,23,0,23,0,1,,,,,,,,,,,,,,,,,,,,,,,,,,,,,,,,,,,,,,,
,,,,,,,,2023-08-16_08h31.57.294,HF_wild_card,2022.2.4,Linux x86_64,59.86231667,61fa9016d42cb19beec49061,64d2fd46c836a06233681665,64dc7b5bc0748f546373268d,,,,,,,sngl,resources/DP.BMP,resources/Empty.png,WildCard_Ex,-0.248697917,-0.015625,1,0,0,0.914,optionLeft,5,3805,2,24,0,24,0,1,,,,,,,,,,,,,,,,,,,,,,,,,,,,,,,,,,,,,,,
,,,,,,,,2023-08-16_08h31.57.294,HF_wild_card,2022.2.4,Linux x86_64,59.86231667,61fa9016d42cb19beec49061,64d2fd46c836a06233681665,64dc7b5bc0748f546373268d,,,,,,,sngl,resources/Empty.png,resources/DB.BMP,Door2,0.305989583,0.016927083,1,0,0,1.6793,optionRight,40,3845,2,25,0,25,0,1,,,,,,,,,,,,,,,,,,,,,,,,,,,,,,,,,,,,,,,
,,,,,,,,2023-08-16_08h31.57.294,HF_wild_card,2022.2.4,Linux x86_64,59.86231667,61fa9016d42cb19beec49061,64d2fd46c836a06233681665,64dc7b5bc0748f546373268d,,,,,,,decisionTrl,resources/DG.BMP,resources/DB.BMP,Door1,-0.139322917,-0.0390625,1,0,0,1.8665,optionLeft,30,3875,2,26,0,26,0,1,,,,,,,,,,,,,,,,,,,,,,,,,,,,,,,,,,,,,,,
,,,,,,,,2023-08-16_08h31.57.294,HF_wild_card,2022.2.4,Linux x86_64,59.86231667,61fa9016d42cb19beec49061,64d2fd46c836a06233681665,64dc7b5bc0748f546373268d,,,,,,,ctch,resources/DBN.BMP,resources/DB.BMP,Door3,-0.240885417,0.015625,1,0,0,1.2298,optionLeft,70,3945,2,27,0,27,0,1,,,,,,,,,,,,,,,,,,,,,,,,,,,,,,,,,,,,,,,
,,,,,,,,2023-08-16_08h31.57.294,HF_wild_card,2022.2.4,Linux x86_64,59.86231667,61fa9016d42cb19beec49061,64d2fd46c836a06233681665,64dc7b5bc0748f546373268d,,,,,,,decisionTrl,resources/DBN.BMP,resources/DR.BMP,Door3,-0.29296875,0.024739583,1,0,0,2.8017,optionLeft,70,4015,2,28,0,28,0,1,,,,,,,,,,,,,,,,,,,,,,,,,,,,,,,,,,,,,,,
,,,,,,,,2023-08-16_08h31.57.294,HF_wild_card,2022.2.4,Linux x86_64,59.86231667,61fa9016d42cb19beec49061,64d2fd46c836a06233681665,64dc7b5bc0748f546373268d,,,,,,,decisionTrl,resources/DB.BMP,resources/DG.BMP,Door1,0.182291667,0.01171875,1,0,0,1.6104,optionRight,30,4045,2,29,0,29,0,1,,,,,,,,,,,,,,,,,,,,,,,,,,,,,,,,,,,,,,,
,,,,,,,,2023-08-16_08h31.57.294,HF_wild_card,2022.2.4,Linux x86_64,59.86231667,61fa9016d42cb19beec49061,64d2fd46c836a06233681665,64dc7b5bc0748f546373268d,,,,,,,decisionTrl,resources/DBN.BMP,resources/DR.BMP,Door3,-0.24609375,0.002604167,1,0,0,2.183,optionLeft,70,4115,2,30,0,30,0,1,,,,,,,,,,,,,,,,,,,,,,,,,,,,,,,,,,,,,,,
,,,,,,,,2023-08-16_08h31.57.294,HF_wild_card,2022.2.4,Linux x86_64,59.86231667,61fa9016d42cb19beec49061,64d2fd46c836a06233681665,64dc7b5bc0748f546373268d,,,,,,,decisionTrl,resources/DP.BMP,resources/DB.BMP,WildCard_Ex,-0.158854167,-0.014322917,1,0,0,1.215,optionLeft,95,4210,2,31,0,31,0,1,,,,,,,,,,,,,,,,,,,,,,,,,,,,,,,,,,,,,,,
,,,,,,,,2023-08-16_08h31.57.294,HF_wild_card,2022.2.4,Linux x86_64,59.86231667,61fa9016d42cb19beec49061,64d2fd46c836a06233681665,64dc7b5bc0748f546373268d,,,,,,,sngl,resources/Empty.png,resources/DP.BMP,WildCard_Ex,0.270833333,-0.01953125,1,0,0,0.8642,optionRight,5,4215,2,32,0,32,0,1,,,,,,,,,,,,,,,,,,,,,,,,,,,,,,,,,,,,,,,
,,,,,,,,2023-08-16_08h31.57.294,HF_wild_card,2022.2.4,Linux x86_64,59.86231667,61fa9016d42cb19beec49061,64d2fd46c836a06233681665,64dc7b5bc0748f546373268d,,,,,,,decisionTrl,resources/DB.BMP,resources/DG.BMP,Door2,-0.229166667,0.014322917,1,0,0,3.4365,optionLeft,20,4235,2,33,0,33,0,1,,,,,,,,,,,,,,,,,,,,,,,,,,,,,,,,,,,,,,,
,,,,,,,,2023-08-16_08h31.57.294,HF_wild_card,2022.2.4,Linux x86_64,59.86231667,61fa9016d42cb19beec49061,64d2fd46c836a06233681665,64dc7b5bc0748f546373268d,,,,,,,decisionTrl,resources/DB.BMP,resources/DP.BMP,WildCard_Ex,0.264322917,-0.005208333,1,0,0,1.0138,optionRight,5,4240,2,34,0,34,0,1,,,,,,,,,,,,,,,,,,,,,,,,,,,,,,,,,,,,,,,
,,,,,,,,2023-08-16_08h31.57.294,HF_wild_card,2022.2.4,Linux x86_64,59.86231667,61fa9016d42cb19beec49061,64d2fd46c836a06233681665,64dc7b5bc0748f546373268d,,,,,,,decisionTrl,resources/DR.BMP,resources/DBN.BMP,Door3,0.213541667,-0.006510417,1,0,0,1.2289,optionRight,70,4310,2,35,0,35,0,1,,,,,,,,,,,,,,,,,,,,,,,,,,,,,,,,,,,,,,,
,,,,,,,,2023-08-16_08h31.57.294,HF_wild_card,2022.2.4,Linux x86_64,59.86231667,61fa9016d42cb19beec49061,64d2fd46c836a06233681665,64dc7b5bc0748f546373268d,,,,,,,decisionTrl,resources/DR.BMP,resources/DBN.BMP,Door3,0.28515625,-0.002604167,1,0,0,1.1289,optionRight,70,4380,2,36,0,36,0,1,,,,,,,,,,,,,,,,,,,,,,,,,,,,,,,,,,,,,,,
,,,,,,,,2023-08-16_08h31.57.294,HF_wild_card,2022.2.4,Linux x86_64,59.86231667,61fa9016d42cb19beec49061,64d2fd46c836a06233681665,64dc7b5bc0748f546373268d,,,,,,,decisionTrl,resources/DG.BMP,resources/DB.BMP,Door1,-0.252604167,-0.013020833,1,0,0,2.1161,optionLeft,30,4410,2,37,0,37,0,1,,,,,,,,,,,,,,,,,,,,,,,,,,,,,,,,,,,,,,,
,,,,,,,,2023-08-16_08h31.57.294,HF_wild_card,2022.2.4,Linux x86_64,59.86231667,61fa9016d42cb19beec49061,64d2fd46c836a06233681665,64dc7b5bc0748f546373268d,,,,,,,sngl,resources/Empty.png,resources/DG.BMP,Door1,0.240885417,0.01953125,1,0,0,0.8379,optionRight,30,4440,2,38,0,38,0,1,,,,,,,,,,,,,,,,,,,,,,,,,,,,,,,,,,,,,,,
,,,,,,,,2023-08-16_08h31.57.294,HF_wild_card,2022.2.4,Linux x86_64,59.86231667,61fa9016d42cb19beec49061,64d2fd46c836a06233681665,64dc7b5bc0748f546373268d,,,,,,,ctch,resources/DG.BMP,resources/DR.BMP,Door4,0.276041667,-0.024739583,1,0,0,1.3094,optionRight,60,4500,2,39,0,39,0,1,,,,,,,,,,,,,,,,,,,,,,,,,,,,,,,,,,,,,,,
,,,,,,,,2023-08-16_08h31.57.294,HF_wild_card,2022.2.4,Linux x86_64,59.86231667,61fa9016d42cb19beec49061,64d2fd46c836a06233681665,64dc7b5bc0748f546373268d,,,,,,,decisionTrl,resources/DBN.BMP,resources/DR.BMP,Door3,-0.294270833,0.0078125,1,0,0,1.9685,optionLeft,70,4570,2,40,0,40,0,1,,,,,,,,,,,,,,,,,,,,,,,,,,,,,,,,,,,,,,,
,,,,,,,,2023-08-16_08h31.57.294,HF_wild_card,2022.2.4,Linux x86_64,59.86231667,61fa9016d42cb19beec49061,64d2fd46c836a06233681665,64dc7b5bc0748f546373268d,,,,,,,ctch,resources/DG.BMP,resources/DR.BMP,Door4,0.26171875,0.006510417,1,0,0,1.4334,optionRight,80,4650,2,41,0,41,0,1,,,,,,,,,,,,,,,,,,,,,,,,,,,,,,,,,,,,,,,
,,,,,,,,2023-08-16_08h31.57.294,HF_wild_card,2022.2.4,Linux x86_64,59.86231667,61fa9016d42cb19beec49061,64d2fd46c836a06233681665,64dc7b5bc0748f546373268d,,,,,,,decisionTrl,resources/DG.BMP,resources/DB.BMP,Door2,0.216145833,-0.044270833,1,0,0,2.7529,optionRight,20,4670,2,42,0,42,0,1,,,,,,,,,,,,,,,,,,,,,,,,,,,,,,,,,,,,,,,
,,,,,,,,2023-08-16_08h31.57.294,HF_wild_card,2022.2.4,Linux x86_64,59.86231667,61fa9016d42cb19beec49061,64d2fd46c836a06233681665,64dc7b5bc0748f546373268d,,,,,,,decisionTrl,resources/DG.BMP,resources/DP.BMP,WildCard_Ex,0.234375,-0.0078125,1,0,0,1.4624,optionRight,95,4765,2,43,0,43,0,1,,,,,,,,,,,,,,,,,,,,,,,,,,,,,,,,,,,,,,,
,,,,,,,,2023-08-16_08h31.57.294,HF_wild_card,2022.2.4,Linux x86_64,59.86231667,61fa9016d42cb19beec49061,64d2fd46c836a06233681665,64dc7b5bc0748f546373268d,,,,,,,,,,,,,,,,,,,,,,,,,,1,0,1,0,1,,,,,,,,,,,,,,,,,,,,,,,,,,,,,,,,,,
,,,,,,,,2023-08-16_08h31.57.294,HF_wild_card,2022.2.4,Linux x86_64,59.86231667,61fa9016d42cb19beec49061,64d2fd46c836a06233681665,64dc7b5bc0748f546373268d,,,,,,,decisionTrl,resources/DP.BMP,resources/DBN.BMP,WildCard_Ex,-0.221354167,-0.088541667,1,0,0,3.9134,optionLeft,5,4770,3,0,0,0,0,1,,,,,,,,,,,,,,,,,,,,,,,,,,,,,,,,,,,,,,,
,,,,,,,,2023-08-16_08h31.57.294,HF_wild_card,2022.2.4,Linux x86_64,59.86231667,61fa9016d42cb19beec49061,64d2fd46c836a06233681665,64dc7b5bc0748f546373268d,,,,,,,sngl,resources/DG.BMP,resources/Empty.png,Door1,-0.227864583,-0.048177083,1,0,0,0.9845,optionLeft,30,4800,3,1,0,1,0,1,,,,,,,,,,,,,,,,,,,,,,,,,,,,,,,,,,,,,,,
,,,,,,,,2023-08-16_08h31.57.294,HF_wild_card,2022.2.4,Linux x86_64,59.86231667,61fa9016d42cb19beec49061,64d2fd46c836a06233681665,64dc7b5bc0748f546373268d,,,,,,,ctch,resources/DBN.BMP,resources/DB.BMP,Door3,-0.251302083,-0.029947917,1,0,0,1.9453,optionLeft,70,4870,3,2,0,2,0,1,,,,,,,,,,,,,,,,,,,,,,,,,,,,,,,,,,,,,,,
,,,,,,,,2023-08-16_08h31.57.294,HF_wild_card,2022.2.4,Linux x86_64,59.86231667,61fa9016d42cb19beec49061,64d2fd46c836a06233681665,64dc7b5bc0748f546373268d,,,,,,,sngl,resources/DP.BMP,resources/Empty.png,WildCard_Ex,-0.244791667,-0.013020833,1,0,0,0.8618,optionLeft,95,4965,3,3,0,3,0,1,,,,,,,,,,,,,,,,,,,,,,,,,,,,,,,,,,,,,,,
,,,,,,,,2023-08-16_08h31.57.294,HF_wild_card,2022.2.4,Linux x86_64,59.86231667,61fa9016d42cb19beec49061,64d2fd46c836a06233681665,64dc7b5bc0748f546373268d,,,,,,,ctch,resources/DBN.BMP,resources/DB.BMP,Door3,-0.2421875,0.016927083,1,0,0,1.5152,optionLeft,70,5035,3,4,0,4,0,1,,,,,,,,,,,,,,,,,,,,,,,,,,,,,,,,,,,,,,,
,,,,,,,,2023-08-16_08h31.57.294,HF_wild_card,2022.2.4,Linux x86_64,59.86231667,61fa9016d42cb19beec49061,64d2fd46c836a06233681665,64dc7b5bc0748f546373268d,,,,,,,sngl,resources/DP.BMP,resources/Empty.png,WildCard_Ex,-0.213541667,-0.016927083,1,0,0,0.8465,optionLeft,5,5040,3,5,0,5,0,1,,,,,,,,,,,,,,,,,,,,,,,,,,,,,,,,,,,,,,,
,,,,,,,,2023-08-16_08h31.57.294,HF_wild_card,2022.2.4,Linux x86_64,59.86231667,61fa9016d42cb19beec49061,64d2fd46c836a06233681665,64dc7b5bc0748f546373268d,,,,,,,ctch,resources/DR.BMP,resources/DG.BMP,Door4,-0.235677083,0.006510417,1,0,0,3.5546,optionLeft,60,5100,3,6,0,6,0,1,,,,,,,,,,,,,,,,,,,,,,,,,,,,,,,,,,,,,,,
,,,,,,,,2023-08-16_08h31.57.294,HF_wild_card,2022.2.4,Linux x86_64,59.86231667,61fa9016d42cb19beec49061,64d2fd46c836a06233681665,64dc7b5bc0748f546373268d,,,,,,,sngl,resources/Empty.png,resources/DP.BMP,WildCard_Ex,0.341145833,-0.010416667,1,0,0,0.8949,optionRight,95,5195,3,7,0,7,0,1,,,,,,,,,,,,,,,,,,,,,,,,,,,,,,,,,,,,,,,
,,,,,,,,2023-08-16_08h31.57.294,HF_wild_card,2022.2.4,Linux x86_64,59.86231667,61fa9016d42cb19beec49061,64d2fd46c836a06233681665,64dc7b5bc0748f546373268d,,,,,,,sngl,resources/Empty.png,resources/DR.BMP,Door4,0.234375,-0.018229167,1,0,0,1.613,optionRight,60,5255,3,8,0,8,0,1,,,,,,,,,,,,,,,,,,,,,,,,,,,,,,,,,,,,,,,
,,,,,,,,2023-08-16_08h31.57.294,HF_wild_card,2022.2.4,Linux x86_64,59.86231667,61fa9016d42cb19beec49061,64d2fd46c836a06233681665,64dc7b5bc0748f546373268d,,,,,,,decisionTrl,resources/DG.BMP,resources/DB.BMP,Door1,-0.299479167,-0.033854167,1,0,0,2.2171,optionLeft,30,5285,3,9,0,9,0,1,,,,,,,,,,,,,,,,,,,,,,,,,,,,,,,,,,,,,,,
,,,,,,,,2023-08-16_08h31.57.294,HF_wild_card,2022.2.4,Linux x86_64,59.86231667,61fa9016d42cb19beec49061,64d2fd46c836a06233681665,64dc7b5bc0748f546373268d,,,,,,,ctch,resources/DG.BMP,resources/DR.BMP,Door4,0.203125,-0.01171875,1,0,0,1.3098,optionRight,80,5365,3,10,0,10,0,1,,,,,,,,,,,,,,,,,,,,,,,,,,,,,,,,,,,,,,,
,,,,,,,,2023-08-16_08h31.57.294,HF_wild_card,2022.2.4,Linux x86_64,59.86231667,61fa9016d42cb19beec49061,64d2fd46c836a06233681665,64dc7b5bc0748f546373268d,,,,,,,decisionTrl,resources/DP.BMP,resources/DR.BMP,WildCard_Ex,-0.225260417,0.005208333,1,0,0,1.1633,optionLeft,5,5370,3,11,0,11,0,1,,,,,,,,,,,,,,,,,,,,,,,,,,,,,,,,,,,,,,,
,,,,,,,,2023-08-16_08h31.57.294,HF_wild_card,2022.2.4,Linux x86_64,59.86231667,61fa9016d42cb19beec49061,64d2fd46c836a06233681665,64dc7b5bc0748f546373268d,,,,,,,sngl,resources/DBN.BMP,resources/Empty.png,Door3,-0.260416667,0.0078125,1,0,0,1.0317,optionLeft,70,5440,3,12,0,12,0,1,,,,,,,,,,,,,,,,,,,,,,,,,,,,,,,,,,,,,,,
,,,,,,,,2023-08-16_08h31.57.294,HF_wild_card,2022.2.4,Linux x86_64,59.86231667,61fa9016d42cb19beec49061,64d2fd46c836a06233681665,64dc7b5bc0748f546373268d,,,,,,,decisionTrl,resources/DBN.BMP,resources/DR.BMP,Door3,-0.170572917,0.020833333,1,0,0,1.4274,optionLeft,70,5510,3,13,0,13,0,1,,,,,,,,,,,,,,,,,,,,,,,,,,,,,,,,,,,,,,,
,,,,,,,,2023-08-16_08h31.57.294,HF_wild_card,2022.2.4,Linux x86_64,59.86231667,61fa9016d42cb19beec49061,64d2fd46c836a06233681665,64dc7b5bc0748f546373268d,,,,,,,decisionTrl,resources/DBN.BMP,resources/DR.BMP,Door3,-0.233072917,-0.024739583,1,0,0,0.9108,optionLeft,70,5580,3,14,0,14,0,1,,,,,,,,,,,,,,,,,,,,,,,,,,,,,,,,,,,,,,,
,,,,,,,,2023-08-16_08h31.57.294,HF_wild_card,2022.2.4,Linux x86_64,59.86231667,61fa9016d42cb19beec49061,64d2fd46c836a06233681665,64dc7b5bc0748f546373268d,,,,,,,decisionTrl,resources/DB.BMP,resources/DG.BMP,Door1,0.18359375,0.026041667,1,0,0,2.0803,optionRight,30,5610,3,15,0,15,0,1,,,,,,,,,,,,,,,,,,,,,,,,,,,,,,,,,,,,,,,
,,,,,,,,2023-08-16_08h31.57.294,HF_wild_card,2022.2.4,Linux x86_64,59.86231667,61fa9016d42cb19beec49061,64d2fd46c836a06233681665,64dc7b5bc0748f546373268d,,,,,,,decisionTrl,resources/DR.BMP,resources/DBN.BMP,Door3,0.22265625,-0.005208333,1,0,0,1.21,optionRight,70,5680,3,16,0,16,0,1,,,,,,,,,,,,,,,,,,,,,,,,,,,,,,,,,,,,,,,
,,,,,,,,2023-08-16_08h31.57.294,HF_wild_card,2022.2.4,Linux x86_64,59.86231667,61fa9016d42cb19beec49061,64d2fd46c836a06233681665,64dc7b5bc0748f546373268d,,,,,,,sngl,resources/DB.BMP,resources/Empty.png,Door2,-0.229166667,-0.002604167,1,0,0,1.1443,optionLeft,40,5720,3,17,0,17,0,1,,,,,,,,,,,,,,,,,,,,,,,,,,,,,,,,,,,,,,,
,,,,,,,,2023-08-16_08h31.57.294,HF_wild_card,2022.2.4,Linux x86_64,59.86231667,61fa9016d42cb19beec49061,64d2fd46c836a06233681665,64dc7b5bc0748f546373268d,,,,,,,decisionTrl,resources/DR.BMP,resources/DBN.BMP,Door3,0.203125,0.016927083,1,0,0,1.5684,optionRight,70,5790,3,18,0,18,0,1,,,,,,,,,,,,,,,,,,,,,,,,,,,,,,,,,,,,,,,
,,,,,,,,2023-08-16_08h31.57.294,HF_wild_card,2022.2.4,Linux x86_64,59.86231667,61fa9016d42cb19beec49061,64d2fd46c836a06233681665,64dc7b5bc0748f546373268d,,,,,,,sngl,resources/Empty.png,resources/DBN.BMP,Door3,0.21875,0.002604167,1,0,0,1.8032,optionRight,70,5860,3,19,0,19,0,1,,,,,,,,,,,,,,,,,,,,,,,,,,,,,,,,,,,,,,,
,,,,,,,,2023-08-16_08h31.57.294,HF_wild_card,2022.2.4,Linux x86_64,59.86231667,61fa9016d42cb19beec49061,64d2fd46c836a06233681665,64dc7b5bc0748f546373268d,,,,,,,decisionTrl,resources/DR.BMP,resources/DBN.BMP,Door3,0.248697917,0.005208333,1,0,0,1.9671,optionRight,70,5930,3,20,0,20,0,1,,,,,,,,,,,,,,,,,,,,,,,,,,,,,,,,,,,,,,,
,,,,,,,,2023-08-16_08h31.57.294,HF_wild_card,2022.2.4,Linux x86_64,59.86231667,61fa9016d42cb19beec49061,64d2fd46c836a06233681665,64dc7b5bc0748f546373268d,,,,,,,decisionTrl,resources/DR.BMP,resources/DBN.BMP,Door3,0.239583333,-0.006510417,1,0,0,1.3516,optionRight,70,6000,3,21,0,21,0,1,,,,,,,,,,,,,,,,,,,,,,,,,,,,,,,,,,,,,,,
,,,,,,,,2023-08-16_08h31.57.294,HF_wild_card,2022.2.4,Linux x86_64,59.86231667,61fa9016d42cb19beec49061,64d2fd46c836a06233681665,64dc7b5bc0748f546373268d,,,,,,,decisionTrl,resources/DBN.BMP,resources/DP.BMP,WildCard_Ex,0.2734375,0.005208333,1,0,0,1.5487,optionRight,95,6095,3,22,0,22,0,1,,,,,,,,,,,,,,,,,,,,,,,,,,,,,,,,,,,,,,,
,,,,,,,,2023-08-16_08h31.57.294,HF_wild_card,2022.2.4,Linux x86_64,59.86231667,61fa9016d42cb19beec49061,64d2fd46c836a06233681665,64dc7b5bc0748f546373268d,,,,,,,decisionTrl,resources/DB.BMP,resources/DG.BMP,Door2,-0.294270833,-0.01953125,1,0,0,1.6655,optionLeft,40,6135,3,23,0,23,0,1,,,,,,,,,,,,,,,,,,,,,,,,,,,,,,,,,,,,,,,
,,,,,,,,2023-08-16_08h31.57.294,HF_wild_card,2022.2.4,Linux x86_64,59.86231667,61fa9016d42cb19beec49061,64d2fd46c836a06233681665,64dc7b5bc0748f546373268d,,,,,,,decisionTrl,resources/DG.BMP,resources/DP.BMP,WildCard_Ex,0.2421875,0.0234375,1,0,0,1.1455,optionRight,95,6230,3,24,0,24,0,1,,,,,,,,,,,,,,,,,,,,,,,,,,,,,,,,,,,,,,,
,,,,,,,,2023-08-16_08h31.57.294,HF_wild_card,2022.2.4,Linux x86_64,59.86231667,61fa9016d42cb19beec49061,64d2fd46c836a06233681665,64dc7b5bc0748f546373268d,,,,,,,decisionTrl,resources/DG.BMP,resources/DB.BMP,Door2,0.196614583,-0.00390625,1,0,0,2.0309,optionRight,40,6270,3,25,0,25,0,1,,,,,,,,,,,,,,,,,,,,,,,,,,,,,,,,,,,,,,,
,,,,,,,,2023-08-16_08h31.57.294,HF_wild_card,2022.2.4,Linux x86_64,59.86231667,61fa9016d42cb19beec49061,64d2fd46c836a06233681665,64dc7b5bc0748f546373268d,,,,,,,decisionTrl,resources/DB.BMP,resources/DG.BMP,Door2,-0.200520833,0.009114583,1,0,0,1.8471,optionLeft,40,6310,3,26,0,26,0,1,,,,,,,,,,,,,,,,,,,,,,,,,,,,,,,,,,,,,,,
,,,,,,,,2023-08-16_08h31.57.294,HF_wild_card,2022.2.4,Linux x86_64,59.86231667,61fa9016d42cb19beec49061,64d2fd46c836a06233681665,64dc7b5bc0748f546373268d,,,,,,,decisionTrl,resources/DP.BMP,resources/DB.BMP,WildCard_Ex,-0.2578125,0.009114583,1,0,0,1.2439,optionLeft,95,6405,3,27,0,27,0,1,,,,,,,,,,,,,,,,,,,,,,,,,,,,,,,,,,,,,,,
,,,,,,,,2023-08-16_08h31.57.294,HF_wild_card,2022.2.4,Linux x86_64,59.86231667,61fa9016d42cb19beec49061,64d2fd46c836a06233681665,64dc7b5bc0748f546373268d,,,,,,,sngl,resources/Empty.png,resources/DP.BMP,WildCard_Ex,0.26171875,-0.006510417,1,0,0,0.9323,optionRight,5,6410,3,28,0,28,0,1,,,,,,,,,,,,,,,,,,,,,,,,,,,,,,,,,,,,,,,
,,,,,,,,2023-08-16_08h31.57.294,HF_wild_card,2022.2.4,Linux x86_64,59.86231667,61fa9016d42cb19beec49061,64d2fd46c836a06233681665,64dc7b5bc0748f546373268d,,,,,,,decisionTrl,resources/DB.BMP,resources/DG.BMP,Door1,0.21484375,-0.002604167,1,0,0,1.1999,optionRight,30,6440,3,29,0,29,0,1,,,,,,,,,,,,,,,,,,,,,,,,,,,,,,,,,,,,,,,
,,,,,,,,2023-08-16_08h31.57.294,HF_wild_card,2022.2.4,Linux x86_64,59.86231667,61fa9016d42cb19beec49061,64d2fd46c836a06233681665,64dc7b5bc0748f546373268d,,,,,,,decisionTrl,resources/DBN.BMP,resources/DR.BMP,Door3,-0.2734375,0.016927083,1,0,0,1.4945,optionLeft,70,6510,3,30,0,30,0,1,,,,,,,,,,,,,,,,,,,,,,,,,,,,,,,,,,,,,,,
,,,,,,,,2023-08-16_08h31.57.294,HF_wild_card,2022.2.4,Linux x86_64,59.86231667,61fa9016d42cb19beec49061,64d2fd46c836a06233681665,64dc7b5bc0748f546373268d,,,,,,,ctch,resources/DG.BMP,resources/DR.BMP,Door4,0.268229167,0.001302083,1,0,0,1.3824,optionRight,60,6570,3,31,0,31,0,1,,,,,,,,,,,,,,,,,,,,,,,,,,,,,,,,,,,,,,,
,,,,,,,,2023-08-16_08h31.57.294,HF_wild_card,2022.2.4,Linux x86_64,59.86231667,61fa9016d42cb19beec49061,64d2fd46c836a06233681665,64dc7b5bc0748f546373268d,,,,,,,ctch,resources/DB.BMP,resources/DBN.BMP,Door3,0.278645833,0.015625,1,0,0,1.0603,optionRight,70,6640,3,32,0,32,0,1,,,,,,,,,,,,,,,,,,,,,,,,,,,,,,,,,,,,,,,
,,,,,,,,2023-08-16_08h31.57.294,HF_wild_card,2022.2.4,Linux x86_64,59.86231667,61fa9016d42cb19beec49061,64d2fd46c836a06233681665,64dc7b5bc0748f546373268d,,,,,,,sngl,resources/DR.BMP,resources/Empty.png,Door4,-0.243489583,-0.022135417,1,0,0,0.995,optionLeft,80,6720,3,33,0,33,0,1,,,,,,,,,,,,,,,,,,,,,,,,,,,,,,,,,,,,,,,
,,,,,,,,2023-08-16_08h31.57.294,HF_wild_card,2022.2.4,Linux x86_64,59.86231667,61fa9016d42cb19beec49061,64d2fd46c836a06233681665,64dc7b5bc0748f546373268d,,,,,,,decisionTrl,resources/DBN.BMP,resources/DR.BMP,Door4,0.157552083,0.009114583,1,0,0,2.6181,optionRight,80,6800,3,34,0,34,0,1,,,,,,,,,,,,,,,,,,,,,,,,,,,,,,,,,,,,,,,
,,,,,,,,2023-08-16_08h31.57.294,HF_wild_card,2022.2.4,Linux x86_64,59.86231667,61fa9016d42cb19beec49061,64d2fd46c836a06233681665,64dc7b5bc0748f546373268d,,,,,,,sngl,resources/Empty.png,resources/DG.BMP,Door1,0.251302083,0.001302083,1,0,0,0.9658,optionRight,30,6830,3,35,0,35,0,1,,,,,,,,,,,,,,,,,,,,,,,,,,,,,,,,,,,,,,,
,,,,,,,,2023-08-16_08h31.57.294,HF_wild_card,2022.2.4,Linux x86_64,59.86231667,61fa9016d42cb19beec49061,64d2fd46c836a06233681665,64dc7b5bc0748f546373268d,,,,,,,decisionTrl,resources/DP.BMP,resources/DG.BMP,WildCard_Ex,-0.307291667,0.01171875,1,0,0,1.098,optionLeft,95,6925,3,36,0,36,0,1,,,,,,,,,,,,,,,,,,,,,,,,,,,,,,,,,,,,,,,
,,,,,,,,2023-08-16_08h31.57.294,HF_wild_card,2022.2.4,Linux x86_64,59.86231667,61fa9016d42cb19beec49061,64d2fd46c836a06233681665,64dc7b5bc0748f546373268d,,,,,,,decisionTrl,resources/DG.BMP,resources/DB.BMP,Door1,-0.227864583,-0.00390625,1,0,0,3.5985,optionLeft,30,6955,3,37,0,37,0,1,,,,,,,,,,,,,,,,,,,,,,,,,,,,,,,,,,,,,,,
,,,,,,,,2023-08-16_08h31.57.294,HF_wild_card,2022.2.4,Linux x86_64,59.86231667,61fa9016d42cb19beec49061,64d2fd46c836a06233681665,64dc7b5bc0748f546373268d,,,,,,,decisionTrl,resources/DB.BMP,resources/DP.BMP,WildCard_Ex,0.286458333,0.015625,1,0,0,1.1107,optionRight,95,7050,3,38,0,38,0,1,,,,,,,,,,,,,,,,,,,,,,,,,,,,,,,,,,,,,,,
,,,,,,,,2023-08-16_08h31.57.294,HF_wild_card,2022.2.4,Linux x86_64,59.86231667,61fa9016d42cb19beec49061,64d2fd46c836a06233681665,64dc7b5bc0748f546373268d,,,,,,,sngl,resources/Empty.png,resources/DB.BMP,Door2,0.213541667,-0.005208333,1,0,0,1.8834,optionRight,20,7070,3,39,0,39,0,1,,,,,,,,,,,,,,,,,,,,,,,,,,,,,,,,,,,,,,,
,,,,,,,,2023-08-16_08h31.57.294,HF_wild_card,2022.2.4,Linux x86_64,59.86231667,61fa9016d42cb19beec49061,64d2fd46c836a06233681665,64dc7b5bc0748f546373268d,,,,,,,decisionTrl,resources/DR.BMP,resources/DP.BMP,WildCard_Ex,0.220052083,-0.014322917,1,0,0,2.4515,optionRight,5,7075,3,40,0,40,0,1,,,,,,,,,,,,,,,,,,,,,,,,,,,,,,,,,,,,,,,
,,,,,,,,2023-08-16_08h31.57.294,HF_wild_card,2022.2.4,Linux x86_64,59.86231667,61fa9016d42cb19beec49061,64d2fd46c836a06233681665,64dc7b5bc0748f546373268d,,,,,,,ctch,resources/DR.BMP,resources/DG.BMP,Door4,-0.333333333,-0.022135417,1,0,0,1.3278,optionLeft,80,7155,3,41,0,41,0,1,,,,,,,,,,,,,,,,,,,,,,,,,,,,,,,,,,,,,,,
,,,,,,,,2023-08-16_08h31.57.294,HF_wild_card,2022.2.4,Linux x86_64,59.86231667,61fa9016d42cb19beec49061,64d2fd46c836a06233681665,64dc7b5bc0748f546373268d,,,,,,,decisionTrl,resources/DG.BMP,resources/DB.BMP,Door1,-0.161458333,0.009114583,1,0,0,4.3564,optionLeft,30,7185,3,42,0,42,0,1,,,,,,,,,,,,,,,,,,,,,,,,,,,,,,,,,,,,,,,
,,,,,,,,2023-08-16_08h31.57.294,HF_wild_card,2022.2.4,Linux x86_64,59.86231667,61fa9016d42cb19beec49061,64d2fd46c836a06233681665,64dc7b5bc0748f546373268d,,,,,,,ctch,resources/DB.BMP,resources/DBN.BMP,Door3,0.31640625,0.001302083,1,0,0,2.1345,optionRight,70,7255,3,43,0,43,0,1,,,,,,,,,,,,,,,,,,,,,,,,,,,,,,,,,,,,,,,
,,,,,,,,2023-08-16_08h31.57.294,HF_wild_card,2022.2.4,Linux x86_64,59.86231667,61fa9016d42cb19beec49061,64d2fd46c836a06233681665,64dc7b5bc0748f546373268d,,,,,,,,,,,,,,,,,,,,,,,,,,2,0,2,0,1,,,,,,,,,,,,,,,,,,,,,,,,,,,,,,,,,,
,,,,,,,,2023-08-16_08h31.57.294,HF_wild_card,2022.2.4,Linux x86_64,59.86231667,61fa9016d42cb19beec49061,64d2fd46c836a06233681665,64dc7b5bc0748f546373268d,,,,,,,decisionTrl,resources/DBN.BMP,resources/DY.BMP,WildCard_NonEx,0.291666667,0.036458333,1,0,0,2.3795,optionRight,55,7310,4,0,0,0,0,1,,,,,,,,,,,,,,,,,,,,,,,,,,,,,,,,,,,,,,,
,,,,,,,,2023-08-16_08h31.57.294,HF_wild_card,2022.2.4,Linux x86_64,59.86231667,61fa9016d42cb19beec49061,64d2fd46c836a06233681665,64dc7b5bc0748f546373268d,,,,,,,decisionTrl,resources/DY.BMP,resources/DBN.BMP,Door3,0.27734375,0.033854167,1,0,0,1.0488,optionRight,70,7380,4,1,0,1,0,1,,,,,,,,,,,,,,,,,,,,,,,,,,,,,,,,,,,,,,,
,,,,,,,,2023-08-16_08h31.57.294,HF_wild_card,2022.2.4,Linux x86_64,59.86231667,61fa9016d42cb19beec49061,64d2fd46c836a06233681665,64dc7b5bc0748f546373268d,,,,,,,decisionTrl,resources/DBN.BMP,resources/DR.BMP,Door3,0.001302083,0.014322917,1,0,0,0.2289,optionLeft,70,7450,4,2,0,2,0,1,,,,,,,,,,,,,,,,,,,,,,,,,,,,,,,,,,,,,,,
,,,,,,,,2023-08-16_08h31.57.294,HF_wild_card,2022.2.4,Linux x86_64,59.86231667,61fa9016d42cb19beec49061,64d2fd46c836a06233681665,64dc7b5bc0748f546373268d,,,,,,,decisionTrl,resources/DG.BMP,resources/DB.BMP,Door1,-0.235677083,0.015625,1,0,0,1.4109,optionLeft,30,7480,4,3,0,3,0,1,,,,,,,,,,,,,,,,,,,,,,,,,,,,,,,,,,,,,,,
,,,,,,,,2023-08-16_08h31.57.294,HF_wild_card,2022.2.4,Linux x86_64,59.86231667,61fa9016d42cb19beec49061,64d2fd46c836a06233681665,64dc7b5bc0748f546373268d,,,,,,,ctch,resources/DR.BMP,resources/DG.BMP,Door4,-0.260416667,0.0078125,1,0,0,1.2777,optionLeft,60,7540,4,4,0,4,0,1,,,,,,,,,,,,,,,,,,,,,,,,,,,,,,,,,,,,,,,
,,,,,,,,2023-08-16_08h31.57.294,HF_wild_card,2022.2.4,Linux x86_64,59.86231667,61fa9016d42cb19beec49061,64d2fd46c836a06233681665,64dc7b5bc0748f546373268d,,,,,,,ctch,resources/DG.BMP,resources/DR.BMP,Door4,0.192708333,-0.03125,1,0,0,1.964,optionRight,60,7600,4,5,0,5,0,1,,,,,,,,,,,,,,,,,,,,,,,,,,,,,,,,,,,,,,,
,,,,,,,,2023-08-16_08h31.57.294,HF_wild_card,2022.2.4,Linux x86_64,59.86231667,61fa9016d42cb19beec49061,64d2fd46c836a06233681665,64dc7b5bc0748f546373268d,,,,,,,decisionTrl,resources/DR.BMP,resources/DBN.BMP,Door3,0.247395833,-0.009114583,1,0,0,1.0637,optionRight,70,7670,4,6,0,6,0,1,,,,,,,,,,,,,,,,,,,,,,,,,,,,,,,,,,,,,,,
,,,,,,,,2023-08-16_08h31.57.294,HF_wild_card,2022.2.4,Linux x86_64,59.86231667,61fa9016d42cb19beec49061,64d2fd46c836a06233681665,64dc7b5bc0748f546373268d,,,,,,,decisionTrl,resources/DR.BMP,resources/DBN.BMP,Door4,-0.325520833,-0.010416667,1,0,0,0.8845,optionLeft,60,7730,4,7,0,7,0,1,,,,,,,,,,,,,,,,,,,,,,,,,,,,,,,,,,,,,,,
,,,,,,,,2023-08-16_08h31.57.294,HF_wild_card,2022.2.4,Linux x86_64,59.86231667,61fa9016d42cb19beec49061,64d2fd46c836a06233681665,64dc7b5bc0748f546373268d,,,,,,,sngl,resources/Empty.png,resources/DB.BMP,Door2,0.263020833,0.014322917,1,0,0,0.9801,optionRight,40,7770,4,8,0,8,0,1,,,,,,,,,,,,,,,,,,,,,,,,,,,,,,,,,,,,,,,
,,,,,,,,2023-08-16_08h31.57.294,HF_wild_card,2022.2.4,Linux x86_64,59.86231667,61fa9016d42cb19beec49061,64d2fd46c836a06233681665,64dc7b5bc0748f546373268d,,,,,,,ctch,resources/DB.BMP,resources/DBN.BMP,Door3,0.2578125,-0.002604167,1,0,0,1.2322,optionRight,70,7840,4,9,0,9,0,1,,,,,,,,,,,,,,,,,,,,,,,,,,,,,,,,,,,,,,,
,,,,,,,,2023-08-16_08h31.57.294,HF_wild_card,2022.2.4,Linux x86_64,59.86231667,61fa9016d42cb19beec49061,64d2fd46c836a06233681665,64dc7b5bc0748f546373268d,,,,,,,sngl,resources/DB.BMP,resources/Empty.png,Door2,-0.263020833,0.01171875,1,0,0,1.0805,optionLeft,20,7860,4,10,0,10,0,1,,,,,,,,,,,,,,,,,,,,,,,,,,,,,,,,,,,,,,,
,,,,,,,,2023-08-16_08h31.57.294,HF_wild_card,2022.2.4,Linux x86_64,59.86231667,61fa9016d42cb19beec49061,64d2fd46c836a06233681665,64dc7b5bc0748f546373268d,,,,,,,sngl,resources/Empty.png,resources/DR.BMP,Door4,0.303385417,0.028645833,1,0,0,0.926,optionRight,80,7940,4,11,0,11,0,1,,,,,,,,,,,,,,,,,,,,,,,,,,,,,,,,,,,,,,,
,,,,,,,,2023-08-16_08h31.57.294,HF_wild_card,2022.2.4,Linux x86_64,59.86231667,61fa9016d42cb19beec49061,64d2fd46c836a06233681665,64dc7b5bc0748f546373268d,,,,,,,decisionTrl,resources/DR.BMP,resources/DBN.BMP,Door3,0.255208333,0.05078125,1,0,0,1.8333,optionRight,70,8010,4,12,0,12,0,1,,,,,,,,,,,,,,,,,,,,,,,,,,,,,,,,,,,,,,,
,,,,,,,,2023-08-16_08h31.57.294,HF_wild_card,2022.2.4,Linux x86_64,59.86231667,61fa9016d42cb19beec49061,64d2fd46c836a06233681665,64dc7b5bc0748f546373268d,,,,,,,decisionTrl,resources/DBN.BMP,resources/DR.BMP,Door4,0.23828125,-0.005208333,1,0,0,1.4803,optionRight,60,8070,4,13,0,13,0,1,,,,,,,,,,,,,,,,,,,,,,,,,,,,,,,,,,,,,,,
,,,,,,,,2023-08-16_08h31.57.294,HF_wild_card,2022.2.4,Linux x86_64,59.86231667,61fa9016d42cb19beec49061,64d2fd46c836a06233681665,64dc7b5bc0748f546373268d,,,,,,,ctch,resources/DBN.BMP,resources/DB.BMP,Door3,-0.33203125,0.00390625,1,0,0,1.044,optionLeft,70,8140,4,14,0,14,0,1,,,,,,,,,,,,,,,,,,,,,,,,,,,,,,,,,,,,,,,
,,,,,,,,2023-08-16_08h31.57.294,HF_wild_card,2022.2.4,Linux x86_64,59.86231667,61fa9016d42cb19beec49061,64d2fd46c836a06233681665,64dc7b5bc0748f546373268d,,,,,,,decisionTrl,resources/DG.BMP,resources/DB.BMP,Door2,0.19921875,-0.01171875,1,0,0,1.7803,optionRight,20,8160,4,15,0,15,0,1,,,,,,,,,,,,,,,,,,,,,,,,,,,,,,,,,,,,,,,
,,,,,,,,2023-08-16_08h31.57.294,HF_wild_card,2022.2.4,Linux x86_64,59.86231667,61fa9016d42cb19beec49061,64d2fd46c836a06233681665,64dc7b5bc0748f546373268d,,,,,,,decisionTrl,resources/DB.BMP,resources/DG.BMP,Door1,0.240885417,0.002604167,1,0,0,1.333,optionRight,30,8190,4,16,0,16,0,1,,,,,,,,,,,,,,,,,,,,,,,,,,,,,,,,,,,,,,,
,,,,,,,,2023-08-16_08h31.57.294,HF_wild_card,2022.2.4,Linux x86_64,59.86231667,61fa9016d42cb19beec49061,64d2fd46c836a06233681665,64dc7b5bc0748f546373268d,,,,,,,decisionTrl,resources/DB.BMP,resources/DG.BMP,Door1,0.212239583,-0.015625,1,0,0,1.5166,optionRight,30,8220,4,17,0,17,0,1,,,,,,,,,,,,,,,,,,,,,,,,,,,,,,,,,,,,,,,
,,,,,,,,2023-08-16_08h31.57.294,HF_wild_card,2022.2.4,Linux x86_64,59.86231667,61fa9016d42cb19beec49061,64d2fd46c836a06233681665,64dc7b5bc0748f546373268d,,,,,,,ctch,resources/DB.BMP,resources/DBN.BMP,Door3,0.231770833,0.006510417,1,0,0,1.1823,optionRight,70,8290,4,18,0,18,0,1,,,,,,,,,,,,,,,,,,,,,,,,,,,,,,,,,,,,,,,
,,,,,,,,2023-08-16_08h31.57.294,HF_wild_card,2022.2.4,Linux x86_64,59.86231667,61fa9016d42cb19beec49061,64d2fd46c836a06233681665,64dc7b5bc0748f546373268d,,,,,,,ctch,resources/DR.BMP,resources/DG.BMP,Door4,-0.287760417,0.015625,1,0,0,1.9796,optionLeft,80,8370,4,19,0,19,0,1,,,,,,,,,,,,,,,,,,,,,,,,,,,,,,,,,,,,,,,
,,,,,,,,2023-08-16_08h31.57.294,HF_wild_card,2022.2.4,Linux x86_64,59.86231667,61fa9016d42cb19beec49061,64d2fd46c836a06233681665,64dc7b5bc0748f546373268d,,,,,,,sngl,resources/DY.BMP,resources/Empty.png,WildCard_NonEx,-0.296875,-0.014322917,1,0,0,1.5294,optionLeft,45,8415,4,20,0,20,0,1,,,,,,,,,,,,,,,,,,,,,,,,,,,,,,,,,,,,,,,
,,,,,,,,2023-08-16_08h31.57.294,HF_wild_card,2022.2.4,Linux x86_64,59.86231667,61fa9016d42cb19beec49061,64d2fd46c836a06233681665,64dc7b5bc0748f546373268d,,,,,,,sngl,resources/Empty.png,resources/DY.BMP,WildCard_NonEx,0.315104167,-0.01171875,1,0,0,0.9813,optionRight,45,8460,4,21,0,21,0,1,,,,,,,,,,,,,,,,,,,,,,,,,,,,,,,,,,,,,,,
,,,,,,,,2023-08-16_08h31.57.294,HF_wild_card,2022.2.4,Linux x86_64,59.86231667,61fa9016d42cb19beec49061,64d2fd46c836a06233681665,64dc7b5bc0748f546373268d,,,,,,,ctch,resources/DBN.BMP,resources/DB.BMP,Door3,-0.298177083,-0.002604167,1,0,0,1.2651,optionLeft,70,8530,4,22,0,22,0,1,,,,,,,,,,,,,,,,,,,,,,,,,,,,,,,,,,,,,,,
,,,,,,,,2023-08-16_08h31.57.294,HF_wild_card,2022.2.4,Linux x86_64,59.86231667,61fa9016d42cb19beec49061,64d2fd46c836a06233681665,64dc7b5bc0748f546373268d,,,,,,,sngl,resources/DR.BMP,resources/Empty.png,Door4,-0.319010417,-0.00390625,1,0,0,0.9816,optionLeft,60,8590,4,23,0,23,0,1,,,,,,,,,,,,,,,,,,,,,,,,,,,,,,,,,,,,,,,
,,,,,,,,2023-08-16_08h31.57.294,HF_wild_card,2022.2.4,Linux x86_64,59.86231667,61fa9016d42cb19beec49061,64d2fd46c836a06233681665,64dc7b5bc0748f546373268d,,,,,,,decisionTrl,resources/DG.BMP,resources/DB.BMP,Door1,-0.24609375,-0.002604167,1,0,0,1.3328,optionLeft,30,8620,4,24,0,24,0,1,,,,,,,,,,,,,,,,,,,,,,,,,,,,,,,,,,,,,,,
,,,,,,,,2023-08-16_08h31.57.294,HF_wild_card,2022.2.4,Linux x86_64,59.86231667,61fa9016d42cb19beec49061,64d2fd46c836a06233681665,64dc7b5bc0748f546373268d,,,,,,,decisionTrl,resources/DY.BMP,resources/DB.BMP,WildCard_NonEx,-0.302083333,0.040364583,1,0,0,2.2206,optionLeft,45,8665,4,25,0,25,0,1,,,,,,,,,,,,,,,,,,,,,,,,,,,,,,,,,,,,,,,
,,,,,,,,2023-08-16_08h31.57.294,HF_wild_card,2022.2.4,Linux x86_64,59.86231667,61fa9016d42cb19beec49061,64d2fd46c836a06233681665,64dc7b5bc0748f546373268d,,,,,,,decisionTrl,resources/DR.BMP,resources/DBN.BMP,Door4,-0.286458333,0.009114583,1,0,0,2.8033,optionLeft,80,8745,4,26,0,26,0,1,,,,,,,,,,,,,,,,,,,,,,,,,,,,,,,,,,,,,,,
,,,,,,,,2023-08-16_08h31.57.294,HF_wild_card,2022.2.4,Linux x86_64,59.86231667,61fa9016d42cb19beec49061,64d2fd46c836a06233681665,64dc7b5bc0748f546373268d,,,,,,,decisionTrl,resources/DY.BMP,resources/DG.BMP,WildCard_NonEx,-0.2890625,0.0234375,1,0,0,1.5484,optionLeft,45,8790,4,27,0,27,0,1,,,,,,,,,,,,,,,,,,,,,,,,,,,,,,,,,,,,,,,
,,,,,,,,2023-08-16_08h31.57.294,HF_wild_card,2022.2.4,Linux x86_64,59.86231667,61fa9016d42cb19beec49061,64d2fd46c836a06233681665,64dc7b5bc0748f546373268d,,,,,,,sngl,resources/Empty.png,resources/DBN.BMP,Door3,0.313802083,0.014322917,1,0,0,1.1824,optionRight,70,8860,4,28,0,28,0,1,,,,,,,,,,,,,,,,,,,,,,,,,,,,,,,,,,,,,,,
,,,,,,,,2023-08-16_08h31.57.294,HF_wild_card,2022.2.4,Linux x86_64,59.86231667,61fa9016d42cb19beec49061,64d2fd46c836a06233681665,64dc7b5bc0748f546373268d,,,,,,,decisionTrl,resources/DG.BMP,resources/DB.BMP,Door1,-0.240885417,0.006510417,1,0,0,1.1409,optionLeft,30,8890,4,29,0,29,0,1,,,,,,,,,,,,,,,,,,,,,,,,,,,,,,,,,,,,,,,
,,,,,,,,2023-08-16_08h31.57.294,HF_wild_card,2022.2.4,Linux x86_64,59.86231667,61fa9016d42cb19beec49061,64d2fd46c836a06233681665,64dc7b5bc0748f546373268d,,,,,,,sngl,resources/DY.BMP,resources/Empty.png,WildCard_NonEx,-0.23828125,-0.016927083,1,0,0,0.9475,optionLeft,55,8945,4,30,0,30,0,1,,,,,,,,,,,,,,,,,,,,,,,,,,,,,,,,,,,,,,,
,,,,,,,,2023-08-16_08h31.57.294,HF_wild_card,2022.2.4,Linux x86_64,59.86231667,61fa9016d42cb19beec49061,64d2fd46c836a06233681665,64dc7b5bc0748f546373268d,,,,,,,decisionTrl,resources/DBN.BMP,resources/DR.BMP,Door4,0.221354167,0.024739583,1,0,0,1.996,optionRight,80,9025,4,31,0,31,0,1,,,,,,,,,,,,,,,,,,,,,,,,,,,,,,,,,,,,,,,
,,,,,,,,2023-08-16_08h31.57.294,HF_wild_card,2022.2.4,Linux x86_64,59.86231667,61fa9016d42cb19beec49061,64d2fd46c836a06233681665,64dc7b5bc0748f546373268d,,,,,,,sngl,resources/DBN.BMP,resources/Empty.png,Door3,-0.329427083,0.005208333,1,0,0,0.9309,optionLeft,70,9095,4,32,0,32,0,1,,,,,,,,,,,,,,,,,,,,,,,,,,,,,,,,,,,,,,,
,,,,,,,,2023-08-16_08h31.57.294,HF_wild_card,2022.2.4,Linux x86_64,59.86231667,61fa9016d42cb19beec49061,64d2fd46c836a06233681665,64dc7b5bc0748f546373268d,,,,,,,decisionTrl,resources/DB.BMP,resources/DG.BMP,Door1,0.247395833,0.013020833,1,0,0,1.64,optionRight,30,9125,4,33,0,33,0,1,,,,,,,,,,,,,,,,,,,,,,,,,,,,,,,,,,,,,,,
,,,,,,,,2023-08-16_08h31.57.294,HF_wild_card,2022.2.4,Linux x86_64,59.86231667,61fa9016d42cb19beec49061,64d2fd46c836a06233681665,64dc7b5bc0748f546373268d,,,,,,,ctch,resources/DG.BMP,resources/DR.BMP,Door4,0.231770833,-0.009114583,1,0,0,1.5149,optionRight,60,9185,4,34,0,34,0,1,,,,,,,,,,,,,,,,,,,,,,,,,,,,,,,,,,,,,,,
,,,,,,,,2023-08-16_08h31.57.294,HF_wild_card,2022.2.4,Linux x86_64,59.86231667,61fa9016d42cb19beec49061,64d2fd46c836a06233681665,64dc7b5bc0748f546373268d,,,,,,,decisionTrl,resources/DR.BMP,resources/DY.BMP,Door4,-0.291666667,0.018229167,1,0,0,1.6791,optionLeft,60,9245,4,35,0,35,0,1,,,,,,,,,,,,,,,,,,,,,,,,,,,,,,,,,,,,,,,
,,,,,,,,2023-08-16_08h31.57.294,HF_wild_card,2022.2.4,Linux x86_64,59.86231667,61fa9016d42cb19beec49061,64d2fd46c836a06233681665,64dc7b5bc0748f546373268d,,,,,,,sngl,resources/DG.BMP,resources/Empty.png,Door1,-0.223958333,-0.020833333,1,0,0,1.0146,optionLeft,30,9275,4,36,0,36,0,1,,,,,,,,,,,,,,,,,,,,,,,,,,,,,,,,,,,,,,,
,,,,,,,,2023-08-16_08h31.57.294,HF_wild_card,2022.2.4,Linux x86_64,59.86231667,61fa9016d42cb19beec49061,64d2fd46c836a06233681665,64dc7b5bc0748f546373268d,,,,,,,sngl,resources/Empty.png,resources/DG.BMP,Door1,0.25,0.03515625,1,0,0,0.8958,optionRight,30,9305,4,37,0,37,0,1,,,,,,,,,,,,,,,,,,,,,,,,,,,,,,,,,,,,,,,
,,,,,,,,2023-08-16_08h31.57.294,HF_wild_card,2022.2.4,Linux x86_64,59.86231667,61fa9016d42cb19beec49061,64d2fd46c836a06233681665,64dc7b5bc0748f546373268d,,,,,,,sngl,resources/Empty.png,resources/DY.BMP,WildCard_NonEx,0.255208333,-0.022135417,1,0,0,0.911,optionRight,55,9360,4,38,0,38,0,1,,,,,,,,,,,,,,,,,,,,,,,,,,,,,,,,,,,,,,,
,,,,,,,,2023-08-16_08h31.57.294,HF_wild_card,2022.2.4,Linux x86_64,59.86231667,61fa9016d42cb19beec49061,64d2fd46c836a06233681665,64dc7b5bc0748f546373268d,,,,,,,decisionTrl,resources/DG.BMP,resources/DY.BMP,WildCard_NonEx,0.319010417,0.001302083,1,0,0,1.6666,optionRight,55,9415,4,39,0,39,0,1,,,,,,,,,,,,,,,,,,,,,,,,,,,,,,,,,,,,,,,
,,,,,,,,2023-08-16_08h31.57.294,HF_wild_card,2022.2.4,Linux x86_64,59.86231667,61fa9016d42cb19beec49061,64d2fd46c836a06233681665,64dc7b5bc0748f546373268d,,,,,,,decisionTrl,resources/DBN.BMP,resources/DR.BMP,Door4,0.28125,-0.009114583,1,0,0,2.0336,optionRight,80,9495,4,40,0,40,0,1,,,,,,,,,,,,,,,,,,,,,,,,,,,,,,,,,,,,,,,
,,,,,,,,2023-08-16_08h31.57.294,HF_wild_card,2022.2.4,Linux x86_64,59.86231667,61fa9016d42cb19beec49061,64d2fd46c836a06233681665,64dc7b5bc0748f546373268d,,,,,,,decisionTrl,resources/DB.BMP,resources/DY.BMP,WildCard_NonEx,0.209635417,0.016927083,1,0,0,1.2325,optionRight,55,9550,4,41,0,41,0,1,,,,,,,,,,,,,,,,,,,,,,,,,,,,,,,,,,,,,,,
,,,,,,,,2023-08-16_08h31.57.294,HF_wild_card,2022.2.4,Linux x86_64,59.86231667,61fa9016d42cb19beec49061,64d2fd46c836a06233681665,64dc7b5bc0748f546373268d,,,,,,,decisionTrl,resources/DY.BMP,resources/DR.BMP,Door4,0.217447917,0.026041667,1,0,0,1.7139,optionRight,60,9610,4,42,0,42,0,1,,,,,,,,,,,,,,,,,,,,,,,,,,,,,,,,,,,,,,,
,,,,,,,,2023-08-16_08h31.57.294,HF_wild_card,2022.2.4,Linux x86_64,59.86231667,61fa9016d42cb19beec49061,64d2fd46c836a06233681665,64dc7b5bc0748f546373268d,,,,,,,decisionTrl,resources/DB.BMP,resources/DG.BMP,Door1,0.178385417,0.001302083,1,0,0,1.366,optionRight,30,9640,4,43,0,43,0,1,,,,,,,,,,,,,,,,,,,,,,,,,,,,,,,,,,,,,,,
,,,,,,,,2023-08-16_08h31.57.294,HF_wild_card,2022.2.4,Linux x86_64,59.86231667,61fa9016d42cb19beec49061,64d2fd46c836a06233681665,64dc7b5bc0748f546373268d,,,,,,,,,,,,,,,,,,,,,,,,,,3,0,3,0,1,,,,,,,,,,,,,,,,,,,,,,,,,,,,,,,,,,
,,,,,,,,2023-08-16_08h31.57.294,HF_wild_card,2022.2.4,Linux x86_64,59.86231667,61fa9016d42cb19beec49061,64d2fd46c836a06233681665,64dc7b5bc0748f546373268d,,,,,,,sngl,resources/DY.BMP,resources/Empty.png,WildCard_NonEx,0.015625,-0.282552083,0,0,1,0.1531,optionLeft,55,9695,5,0,0,0,0,1,,,,,,,,,,,,,,,,,,,,,,,,,,,,,,,,,,,,,,,
,,,,,,,,2023-08-16_08h31.57.294,HF_wild_card,2022.2.4,Linux x86_64,59.86231667,61fa9016d42cb19beec49061,64d2fd46c836a06233681665,64dc7b5bc0748f546373268d,,,,,,,decisionTrl,resources/DB.BMP,resources/DG.BMP,Door1,0.01171875,0.015625,0,0,1,0.1791,optionRight,30,9725,5,1,0,1,0,1,,,,,,,,,,,,,,,,,,,,,,,,,,,,,,,,,,,,,,,
,,,,,,,,2023-08-16_08h31.57.294,HF_wild_card,2022.2.4,Linux x86_64,59.86231667,61fa9016d42cb19beec49061,64d2fd46c836a06233681665,64dc7b5bc0748f546373268d,,,,,,,sngl,resources/Empty.png,resources/DR.BMP,Door4,0.0078125,-0.009114583,0,0,1,0.1783,optionRight,60,9785,5,2,0,2,0,1,,,,,,,,,,,,,,,,,,,,,,,,,,,,,,,,,,,,,,,
,,,,,,,,2023-08-16_08h31.57.294,HF_wild_card,2022.2.4,Linux x86_64,59.86231667,61fa9016d42cb19beec49061,64d2fd46c836a06233681665,64dc7b5bc0748f546373268d,,,,,,,ctch,resources/DR.BMP,resources/DG.BMP,Door4,-0.014322917,0.013020833,0,0,1,0.1621,optionLeft,60,9845,5,3,0,3,0,1,,,,,,,,,,,,,,,,,,,,,,,,,,,,,,,,,,,,,,,
,,,,,,,,2023-08-16_08h31.57.294,HF_wild_card,2022.2.4,Linux x86_64,59.86231667,61fa9016d42cb19beec49061,64d2fd46c836a06233681665,64dc7b5bc0748f546373268d,,,,,,,ctch,resources/DB.BMP,resources/DBN.BMP,Door3,0.018229167,-0.002604167,0,0,1,0.1605,optionRight,70,9915,5,4,0,4,0,1,,,,,,,,,,,,,,,,,,,,,,,,,,,,,,,,,,,,,,,
,,,,,,,,2023-08-16_08h31.57.294,HF_wild_card,2022.2.4,Linux x86_64,59.86231667,61fa9016d42cb19beec49061,64d2fd46c836a06233681665,64dc7b5bc0748f546373268d,,,,,,,decisionTrl,resources/DBN.BMP,resources/DR.BMP,Door4,-0.002604167,0.001302083,0,0,1,0.1919,optionRight,60,9975,5,5,0,5,0,1,,,,,,,,,,,,,,,,,,,,,,,,,,,,,,,,,,,,,,,
,,,,,,,,2023-08-16_08h31.57.294,HF_wild_card,2022.2.4,Linux x86_64,59.86231667,61fa9016d42cb19beec49061,64d2fd46c836a06233681665,64dc7b5bc0748f546373268d,,,,,,,decisionTrl,resources/DY.BMP,resources/DG.BMP,WildCard_NonEx,0.0078125,-0.010416667,0,0,1,0.1796,optionLeft,45,10020,5,6,0,6,0,1,,,,,,,,,,,,,,,,,,,,,,,,,,,,,,,,,,,,,,,
,,,,,,,,2023-08-16_08h31.57.294,HF_wild_card,2022.2.4,Linux x86_64,59.86231667,61fa9016d42cb19beec49061,64d2fd46c836a06233681665,64dc7b5bc0748f546373268d,,,,,,,ctch,resources/DG.BMP,resources/DR.BMP,Door4,0.005208333,0.002604167,0,0,1,0.1783,optionRight,60,10080,5,7,0,7,0,1,,,,,,,,,,,,,,,,,,,,,,,,,,,,,,,,,,,,,,,
,,,,,,,,2023-08-16_08h31.57.294,HF_wild_card,2022.2.4,Linux x86_64,59.86231667,61fa9016d42cb19beec49061,64d2fd46c836a06233681665,64dc7b5bc0748f546373268d,,,,,,,decisionTrl,resources/DR.BMP,resources/DBN.BMP,Door4,0.006510417,0.015625,0,0,1,0.1804,optionLeft,60,10140,5,8,0,8,0,1,,,,,,,,,,,,,,,,,,,,,,,,,,,,,,,,,,,,,,,
,,,,,,,,2023-08-16_08h31.57.294,HF_wild_card,2022.2.4,Linux x86_64,59.86231667,61fa9016d42cb19beec49061,64d2fd46c836a06233681665,64dc7b5bc0748f546373268d,,,,,,,decisionTrl,resources/DG.BMP,resources/DB.BMP,Door1,-0.006510417,0.006510417,0,0,1,0.1625,optionLeft,30,10170,5,9,0,9,0,1,,,,,,,,,,,,,,,,,,,,,,,,,,,,,,,,,,,,,,,
,,,,,,,,2023-08-16_08h31.57.294,HF_wild_card,2022.2.4,Linux x86_64,59.86231667,61fa9016d42cb19beec49061,64d2fd46c836a06233681665,64dc7b5bc0748f546373268d,,,,,,,decisionTrl,resources/DB.BMP,resources/DG.BMP,Door1,0.005208333,0.001302083,0,0,1,0.1782,optionRight,30,10200,5,10,0,10,0,1,,,,,,,,,,,,,,,,,,,,,,,,,,,,,,,,,,,,,,,
,,,,,,,,2023-08-16_08h31.57.294,HF_wild_card,2022.2.4,Linux x86_64,59.86231667,61fa9016d42cb19beec49061,64d2fd46c836a06233681665,64dc7b5bc0748f546373268d,,,,,,,decisionTrl,resources/DB.BMP,resources/DG.BMP,Door2,-0.010416667,0.010416667,0,0,1,0.167,optionLeft,20,10220,5,11,0,11,0,1,,,,,,,,,,,,,,,,,,,,,,,,,,,,,,,,,,,,,,,
,,,,,,,,2023-08-16_08h31.57.294,HF_wild_card,2022.2.4,Linux x86_64,59.86231667,61fa9016d42cb19beec49061,64d2fd46c836a06233681665,64dc7b5bc0748f546373268d,,,,,,,ctch,resources/DR.BMP,resources/DG.BMP,Door4,0.015625,-0.009114583,0,0,1,0.1614,optionLeft,60,10280,5,12,0,12,0,1,,,,,,,,,,,,,,,,,,,,,,,,,,,,,,,,,,,,,,,
,,,,,,,,2023-08-16_08h31.57.294,HF_wild_card,2022.2.4,Linux x86_64,59.86231667,61fa9016d42cb19beec49061,64d2fd46c836a06233681665,64dc7b5bc0748f546373268d,,,,,,,decisionTrl,resources/DBN.BMP,resources/DR.BMP,Door4,0.00390625,0,0,0,1,0.1786,optionRight,80,10360,5,13,0,13,0,1,,,,,,,,,,,,,,,,,,,,,,,,,,,,,,,,,,,,,,,
,,,,,,,,2023-08-16_08h31.57.294,HF_wild_card,2022.2.4,Linux x86_64,59.86231667,61fa9016d42cb19beec49061,64d2fd46c836a06233681665,64dc7b5bc0748f546373268d,,,,,,,decisionTrl,resources/DY.BMP,resources/DR.BMP,Door4,0.01171875,-0.002604167,0,0,1,0.1744,optionRight,80,10440,5,14,0,14,0,1,,,,,,,,,,,,,,,,,,,,,,,,,,,,,,,,,,,,,,,
,,,,,,,,2023-08-16_08h31.57.294,HF_wild_card,2022.2.4,Linux x86_64,59.86231667,61fa9016d42cb19beec49061,64d2fd46c836a06233681665,64dc7b5bc0748f546373268d,,,,,,,decisionTrl,resources/DG.BMP,resources/DB.BMP,Door1,0.005208333,-0.0078125,0,0,1,0.1751,optionLeft,30,10470,5,15,0,15,0,1,,,,,,,,,,,,,,,,,,,,,,,,,,,,,,,,,,,,,,,
,,,,,,,,2023-08-16_08h31.57.294,HF_wild_card,2022.2.4,Linux x86_64,59.86231667,61fa9016d42cb19beec49061,64d2fd46c836a06233681665,64dc7b5bc0748f546373268d,,,,,,,sngl,resources/Empty.png,resources/DB.BMP,Door2,-0.014322917,0.016927083,0,0,1,0.163,optionRight,20,10490,5,16,0,16,0,1,,,,,,,,,,,,,,,,,,,,,,,,,,,,,,,,,,,,,,,
,,,,,,,,2023-08-16_08h31.57.294,HF_wild_card,2022.2.4,Linux x86_64,59.86231667,61fa9016d42cb19beec49061,64d2fd46c836a06233681665,64dc7b5bc0748f546373268d,,,,,,,decisionTrl,resources/DBN.BMP,resources/DR.BMP,Door4,-0.013020833,0.001302083,0,0,1,0.1653,optionRight,60,10550,5,17,0,17,0,1,,,,,,,,,,,,,,,,,,,,,,,,,,,,,,,,,,,,,,,
,,,,,,,,2023-08-16_08h31.57.294,HF_wild_card,2022.2.4,Linux x86_64,59.86231667,61fa9016d42cb19beec49061,64d2fd46c836a06233681665,64dc7b5bc0748f546373268d,,,,,,,decisionTrl,resources/DBN.BMP,resources/DY.BMP,Door3,0,0.015625,0,0,1,0.163,optionLeft,70,10620,5,18,0,18,0,1,,,,,,,,,,,,,,,,,,,,,,,,,,,,,,,,,,,,,,,
,,,,,,,,2023-08-16_08h31.57.294,HF_wild_card,2022.2.4,Linux x86_64,59.86231667,61fa9016d42cb19beec49061,64d2fd46c836a06233681665,64dc7b5bc0748f546373268d,,,,,,,sngl,resources/DY.BMP,resources/Empty.png,WildCard_NonEx,0.0078125,0,0,0,1,0.1564,optionLeft,45,10665,5,19,0,19,0,1,,,,,,,,,,,,,,,,,,,,,,,,,,,,,,,,,,,,,,,
,,,,,,,,2023-08-16_08h31.57.294,HF_wild_card,2022.2.4,Linux x86_64,59.86231667,61fa9016d42cb19beec49061,64d2fd46c836a06233681665,64dc7b5bc0748f546373268d,,,,,,,sngl,resources/DR.BMP,resources/Empty.png,Door4,0.009114583,0,0,0,1,0.1765,optionLeft,80,10745,5,20,0,20,0,1,,,,,,,,,,,,,,,,,,,,,,,,,,,,,,,,,,,,,,,
,,,,,,,,2023-08-16_08h31.57.294,HF_wild_card,2022.2.4,Linux x86_64,59.86231667,61fa9016d42cb19beec49061,64d2fd46c836a06233681665,64dc7b5bc0748f546373268d,,,,,,,sngl,resources/Empty.png,resources/DY.BMP,WildCard_NonEx,-0.006510417,-0.0078125,0,0,1,0.175,optionRight,45,10790,5,21,0,21,0,1,,,,,,,,,,,,,,,,,,,,,,,,,,,,,,,,,,,,,,,
,,,,,,,,2023-08-16_08h31.57.294,HF_wild_card,2022.2.4,Linux x86_64,59.86231667,61fa9016d42cb19beec49061,64d2fd46c836a06233681665,64dc7b5bc0748f546373268d,,,,,,,decisionTrl,resources/DG.BMP,resources/DB.BMP,Door1,0.009114583,0.013020833,0,0,1,0.18,optionLeft,30,10820,5,22,0,22,0,1,,,,,,,,,,,,,,,,,,,,,,,,,,,,,,,,,,,,,,,
,,,,,,,,2023-08-16_08h31.57.294,HF_wild_card,2022.2.4,Linux x86_64,59.86231667,61fa9016d42cb19beec49061,64d2fd46c836a06233681665,64dc7b5bc0748f546373268d,,,,,,,ctch,resources/DB.BMP,resources/DBN.BMP,Door3,-0.002604167,0.00390625,0,0,1,0.1802,optionRight,70,10890,5,23,0,23,0,1,,,,,,,,,,,,,,,,,,,,,,,,,,,,,,,,,,,,,,,
,,,,,,,,2023-08-16_08h31.57.294,HF_wild_card,2022.2.4,Linux x86_64,59.86231667,61fa9016d42cb19beec49061,64d2fd46c836a06233681665,64dc7b5bc0748f546373268d,,,,,,,sngl,resources/DG.BMP,resources/Empty.png,Door1,0.001302083,0.01171875,0,0,1,0.1782,optionLeft,30,10920,5,24,0,24,0,1,,,,,,,,,,,,,,,,,,,,,,,,,,,,,,,,,,,,,,,
,,,,,,,,2023-08-16_08h31.57.294,HF_wild_card,2022.2.4,Linux x86_64,59.86231667,61fa9016d42cb19beec49061,64d2fd46c836a06233681665,64dc7b5bc0748f546373268d,,,,,,,decisionTrl,resources/DB.BMP,resources/DG.BMP,Door1,-0.006510417,-0.001302083,0,0,1,0.1749,optionRight,30,10950,5,25,0,25,0,1,,,,,,,,,,,,,,,,,,,,,,,,,,,,,,,,,,,,,,,
,,,,,,,,2023-08-16_08h31.57.294,HF_wild_card,2022.2.4,Linux x86_64,59.86231667,61fa9016d42cb19beec49061,64d2fd46c836a06233681665,64dc7b5bc0748f546373268d,,,,,,,decisionTrl,resources/DY.BMP,resources/DBN.BMP,Door3,-0.001302083,0.00390625,0,0,1,0.18,optionRight,70,11020,5,26,0,26,0,1,,,,,,,,,,,,,,,,,,,,,,,,,,,,,,,,,,,,,,,
,,,,,,,,2023-08-16_08h31.57.294,HF_wild_card,2022.2.4,Linux x86_64,59.86231667,61fa9016d42cb19beec49061,64d2fd46c836a06233681665,64dc7b5bc0748f546373268d,,,,,,,sngl,resources/DBN.BMP,resources/Empty.png,Door3,0.020833333,0,0,0,1,0.1772,optionLeft,70,11090,5,27,0,27,0,1,,,,,,,,,,,,,,,,,,,,,,,,,,,,,,,,,,,,,,,
,,,,,,,,2023-08-16_08h31.57.294,HF_wild_card,2022.2.4,Linux x86_64,59.86231667,61fa9016d42cb19beec49061,64d2fd46c836a06233681665,64dc7b5bc0748f546373268d,,,,,,,decisionTrl,resources/DG.BMP,resources/DB.BMP,Door1,-0.001302083,0,0,0,1,0.18,optionLeft,30,11120,5,28,0,28,0,1,,,,,,,,,,,,,,,,,,,,,,,,,,,,,,,,,,,,,,,
,,,,,,,,2023-08-16_08h31.57.294,HF_wild_card,2022.2.4,Linux x86_64,59.86231667,61fa9016d42cb19beec49061,64d2fd46c836a06233681665,64dc7b5bc0748f546373268d,,,,,,,decisionTrl,resources/DG.BMP,resources/DY.BMP,WildCard_NonEx,0.002604167,0.0078125,0,0,1,0.1582,optionRight,45,11165,5,29,0,29,0,1,,,,,,,,,,,,,,,,,,,,,,,,,,,,,,,,,,,,,,,
,,,,,,,,2023-08-16_08h31.57.294,HF_wild_card,2022.2.4,Linux x86_64,59.86231667,61fa9016d42cb19beec49061,64d2fd46c836a06233681665,64dc7b5bc0748f546373268d,,,,,,,decisionTrl,resources/DR.BMP,resources/DY.BMP,Door4,-0.001302083,-0.005208333,0,0,1,0.1636,optionLeft,80,11245,5,30,0,30,0,1,,,,,,,,,,,,,,,,,,,,,,,,,,,,,,,,,,,,,,,
,,,,,,,,2023-08-16_08h31.57.294,HF_wild_card,2022.2.4,Linux x86_64,59.86231667,61fa9016d42cb19beec49061,64d2fd46c836a06233681665,64dc7b5bc0748f546373268d,,,,,,,decisionTrl,resources/DY.BMP,resources/DB.BMP,WildCard_NonEx,-0.006510417,0.013020833,0,0,1,0.1791,optionLeft,45,11290,5,31,0,31,0,1,,,,,,,,,,,,,,,,,,,,,,,,,,,,,,,,,,,,,,,
,,,,,,,,2023-08-16_08h31.57.294,HF_wild_card,2022.2.4,Linux x86_64,59.86231667,61fa9016d42cb19beec49061,64d2fd46c836a06233681665,64dc7b5bc0748f546373268d,,,,,,,decisionTrl,resources/DR.BMP,resources/DBN.BMP,Door4,-0.001302083,-0.001302083,0,0,1,0.1795,optionLeft,80,11370,5,32,0,32,0,1,,,,,,,,,,,,,,,,,,,,,,,,,,,,,,,,,,,,,,,
,,,,,,,,2023-08-16_08h31.57.294,HF_wild_card,2022.2.4,Linux x86_64,59.86231667,61fa9016d42cb19beec49061,64d2fd46c836a06233681665,64dc7b5bc0748f546373268d,,,,,,,ctch,resources/DBN.BMP,resources/DB.BMP,Door3,0,0.002604167,0,0,1,0.1799,optionLeft,70,11440,5,33,0,33,0,1,,,,,,,,,,,,,,,,,,,,,,,,,,,,,,,,,,,,,,,
,,,,,,,,2023-08-16_08h31.57.294,HF_wild_card,2022.2.4,Linux x86_64,59.86231667,61fa9016d42cb19beec49061,64d2fd46c836a06233681665,64dc7b5bc0748f546373268d,,,,,,,ctch,resources/DG.BMP,resources/DR.BMP,Door4,0.005208333,0,0,0,1,0.1813,optionRight,60,11500,5,34,0,34,0,1,,,,,,,,,,,,,,,,,,,,,,,,,,,,,,,,,,,,,,,
,,,,,,,,2023-08-16_08h31.57.294,HF_wild_card,2022.2.4,Linux x86_64,59.86231667,61fa9016d42cb19beec49061,64d2fd46c836a06233681665,64dc7b5bc0748f546373268d,,,,,,,sngl,resources/DB.BMP,resources/Empty.png,Door2,-0.002604167,0.006510417,0,0,1,0.1809,optionLeft,40,11540,5,35,0,35,0,1,,,,,,,,,,,,,,,,,,,,,,,,,,,,,,,,,,,,,,,
,,,,,,,,2023-08-16_08h31.57.294,HF_wild_card,2022.2.4,Linux x86_64,59.86231667,61fa9016d42cb19beec49061,64d2fd46c836a06233681665,64dc7b5bc0748f546373268d,,,,,,,decisionTrl,resources/DBN.BMP,resources/DR.BMP,Door4,0.006510417,0.001302083,0,0,1,0.1766,optionRight,60,11600,5,36,0,36,0,1,,,,,,,,,,,,,,,,,,,,,,,,,,,,,,,,,,,,,,,
,,,,,,,,2023-08-16_08h31.57.294,HF_wild_card,2022.2.4,Linux x86_64,59.86231667,61fa9016d42cb19beec49061,64d2fd46c836a06233681665,64dc7b5bc0748f546373268d,,,,,,,ctch,resources/DBN.BMP,resources/DB.BMP,Door3,0.002604167,0.013020833,0,0,1,0.1561,optionLeft,70,11670,5,37,0,37,0,1,,,,,,,,,,,,,,,,,,,,,,,,,,,,,,,,,,,,,,,
,,,,,,,,2023-08-16_08h31.57.294,HF_wild_card,2022.2.4,Linux x86_64,59.86231667,61fa9016d42cb19beec49061,64d2fd46c836a06233681665,64dc7b5bc0748f546373268d,,,,,,,sngl,resources/Empty.png,resources/DG.BMP,Door1,0.013020833,0.006510417,0,0,1,0.1791,optionRight,30,11700,5,38,0,38,0,1,,,,,,,,,,,,,,,,,,,,,,,,,,,,,,,,,,,,,,,
,,,,,,,,2023-08-16_08h31.57.294,HF_wild_card,2022.2.4,Linux x86_64,59.86231667,61fa9016d42cb19beec49061,64d2fd46c836a06233681665,64dc7b5bc0748f546373268d,,,,,,,sngl,resources/Empty.png,resources/DY.BMP,WildCard_NonEx,-0.006510417,-0.005208333,0,0,1,0.1587,optionRight,55,11755,5,39,0,39,0,1,,,,,,,,,,,,,,,,,,,,,,,,,,,,,,,,,,,,,,,
,,,,,,,,2023-08-16_08h31.57.294,HF_wild_card,2022.2.4,Linux x86_64,59.86231667,61fa9016d42cb19beec49061,64d2fd46c836a06233681665,64dc7b5bc0748f546373268d,,,,,,,sngl,resources/Empty.png,resources/DBN.BMP,Door3,0.00390625,0.002604167,0,0,1,0.1596,optionRight,70,11825,5,40,0,40,0,1,,,,,,,,,,,,,,,,,,,,,,,,,,,,,,,,,,,,,,,
,,,,,,,,2023-08-16_08h31.57.294,HF_wild_card,2022.2.4,Linux x86_64,59.86231667,61fa9016d42cb19beec49061,64d2fd46c836a06233681665,64dc7b5bc0748f546373268d,,,,,,,decisionTrl,resources/DR.BMP,resources/DBN.BMP,Door4,-0.015625,-0.00390625,0,0,1,0.1647,optionLeft,60,11885,5,41,0,41,0,1,,,,,,,,,,,,,,,,,,,,,,,,,,,,,,,,,,,,,,,
,,,,,,,,2023-08-16_08h31.57.294,HF_wild_card,2022.2.4,Linux x86_64,59.86231667,61fa9016d42cb19beec49061,64d2fd46c836a06233681665,64dc7b5bc0748f546373268d,,,,,,,decisionTrl,resources/DB.BMP,resources/DY.BMP,WildCard_NonEx,0.005208333,0.001302083,0,0,1,0.1742,optionRight,55,11940,5,42,0,42,0,1,,,,,,,,,,,,,,,,,,,,,,,,,,,,,,,,,,,,,,,
,,,,,,,,2023-08-16_08h31.57.294,HF_wild_card,2022.2.4,Linux x86_64,59.86231667,61fa9016d42cb19beec49061,64d2fd46c836a06233681665,64dc7b5bc0748f546373268d,,,,,,,decisionTrl,resources/DR.BMP,resources/DBN.BMP,Door4,-0.001302083,-0.00390625,0,0,1,0.1627,optionLeft,60,12000,5,43,0,43,0,1,,,,,,,,,,,,,,,,,,,,,,,,,,,,,,,,,,,,,,,
,,,,,,,,2023-08-16_08h31.57.294,HF_wild_card,2022.2.4,Linux x86_64,59.86231667,61fa9016d42cb19beec49061,64d2fd46c836a06233681665,64dc7b5bc0748f546373268d,,,,,,,,,,,,,,,,,,,,,,,,,,4,0,4,0,1,,,,,,,,,,,,,,,,,,,,,,,,,,,,,,,,,,
,,,,,,,,2023-08-16_08h31.57.294,HF_wild_card,2022.2.4,Linux x86_64,59.86231667,61fa9016d42cb19beec49061,64d2fd46c836a06233681665,64dc7b5bc0748f546373268d,,,,,,,decisionTrl,resources/DY.BMP,resources/DG.BMP,WildCard_NonEx,0.006510417,-0.270833333,0,0,1,0.1378,optionLeft,55,12055,6,0,0,0,0,1,,,,,,,,,,,,,,,,,,,,,,,,,,,,,,,,,,,,,,,
,,,,,,,,2023-08-16_08h31.57.294,HF_wild_card,2022.2.4,Linux x86_64,59.86231667,61fa9016d42cb19beec49061,64d2fd46c836a06233681665,64dc7b5bc0748f546373268d,,,,,,,decisionTrl,resources/DY.BMP,resources/DBN.BMP,Door3,0.001302083,-0.015625,0,0,1,0.1765,optionRight,70,12125,6,1,0,1,0,1,,,,,,,,,,,,,,,,,,,,,,,,,,,,,,,,,,,,,,,
,,,,,,,,2023-08-16_08h31.57.294,HF_wild_card,2022.2.4,Linux x86_64,59.86231667,61fa9016d42cb19beec49061,64d2fd46c836a06233681665,64dc7b5bc0748f546373268d,,,,,,,decisionTrl,resources/DG.BMP,resources/DY.BMP,WildCard_NonEx,0.014322917,-0.00390625,0,0,1,0.1609,optionRight,55,12180,6,2,0,2,0,1,,,,,,,,,,,,,,,,,,,,,,,,,,,,,,,,,,,,,,,
,,,,,,,,2023-08-16_08h31.57.294,HF_wild_card,2022.2.4,Linux x86_64,59.86231667,61fa9016d42cb19beec49061,64d2fd46c836a06233681665,64dc7b5bc0748f546373268d,,,,,,,decisionTrl,resources/DR.BMP,resources/DBN.BMP,Door4,0.006510417,0.006510417,0,0,1,0.1637,optionLeft,80,12260,6,3,0,3,0,1,,,,,,,,,,,,,,,,,,,,,,,,,,,,,,,,,,,,,,,
,,,,,,,,2023-08-16_08h31.57.294,HF_wild_card,2022.2.4,Linux x86_64,59.86231667,61fa9016d42cb19beec49061,64d2fd46c836a06233681665,64dc7b5bc0748f546373268d,,,,,,,ctch,resources/DR.BMP,resources/DG.BMP,Door4,-0.010416667,0.002604167,0,0,1,0.1609,optionLeft,60,12320,6,4,0,4,0,1,,,,,,,,,,,,,,,,,,,,,,,,,,,,,,,,,,,,,,,
,,,,,,,,2023-08-16_08h31.57.294,HF_wild_card,2022.2.4,Linux x86_64,59.86231667,61fa9016d42cb19beec49061,64d2fd46c836a06233681665,64dc7b5bc0748f546373268d,,,,,,,ctch,resources/DG.BMP,resources/DR.BMP,Door4,0.009114583,0.002604167,0,0,1,0.1742,optionRight,80,12400,6,5,0,5,0,1,,,,,,,,,,,,,,,,,,,,,,,,,,,,,,,,,,,,,,,
,,,,,,,,2023-08-16_08h31.57.294,HF_wild_card,2022.2.4,Linux x86_64,59.86231667,61fa9016d42cb19beec49061,64d2fd46c836a06233681665,64dc7b5bc0748f546373268d,,,,,,,sngl,resources/DG.BMP,resources/Empty.png,Door1,0.00390625,0.016927083,0,0,1,0.176,optionLeft,30,12430,6,6,0,6,0,1,,,,,,,,,,,,,,,,,,,,,,,,,,,,,,,,,,,,,,,
,,,,,,,,2023-08-16_08h31.57.294,HF_wild_card,2022.2.4,Linux x86_64,59.86231667,61fa9016d42cb19beec49061,64d2fd46c836a06233681665,64dc7b5bc0748f546373268d,,,,,,,ctch,resources/DR.BMP,resources/DG.BMP,Door4,0.0078125,0.002604167,0,0,1,0.1808,optionLeft,80,12510,6,7,0,7,0,1,,,,,,,,,,,,,,,,,,,,,,,,,,,,,,,,,,,,,,,
,,,,,,,,2023-08-16_08h31.57.294,HF_wild_card,2022.2.4,Linux x86_64,59.86231667,61fa9016d42cb19beec49061,64d2fd46c836a06233681665,64dc7b5bc0748f546373268d,,,,,,,decisionTrl,resources/DB.BMP,resources/DG.BMP,Door1,0.014322917,0.00390625,0,0,1,0.1627,optionRight,30,12540,6,8,0,8,0,1,,,,,,,,,,,,,,,,,,,,,,,,,,,,,,,,,,,,,,,
,,,,,,,,2023-08-16_08h31.57.294,HF_wild_card,2022.2.4,Linux x86_64,59.86231667,61fa9016d42cb19beec49061,64d2fd46c836a06233681665,64dc7b5bc0748f546373268d,,,,,,,decisionTrl,resources/DG.BMP,resources/DB.BMP,Door1,0.005208333,-0.0078125,1,0,1,0.229,optionLeft,30,12570,6,9,0,9,0,1,,,,,,,,,,,,,,,,,,,,,,,,,,,,,,,,,,,,,,,
,,,,,,,,2023-08-16_08h31.57.294,HF_wild_card,2022.2.4,Linux x86_64,59.86231667,61fa9016d42cb19beec49061,64d2fd46c836a06233681665,64dc7b5bc0748f546373268d,,,,,,,sngl,resources/Empty.png,resources/DG.BMP,Door1,0.0078125,-0.014322917,0,0,1,0.175,optionRight,30,12600,6,10,0,10,0,1,,,,,,,,,,,,,,,,,,,,,,,,,,,,,,,,,,,,,,,
,,,,,,,,2023-08-16_08h31.57.294,HF_wild_card,2022.2.4,Linux x86_64,59.86231667,61fa9016d42cb19beec49061,64d2fd46c836a06233681665,64dc7b5bc0748f546373268d,,,,,,,sngl,resources/DB.BMP,resources/Empty.png,Door2,0.001302083,0.013020833,0,0,1,0.1797,optionLeft,20,12620,6,11,0,11,0,1,,,,,,,,,,,,,,,,,,,,,,,,,,,,,,,,,,,,,,,
,,,,,,,,2023-08-16_08h31.57.294,HF_wild_card,2022.2.4,Linux x86_64,59.86231667,61fa9016d42cb19beec49061,64d2fd46c836a06233681665,64dc7b5bc0748f546373268d,,,,,,,decisionTrl,resources/DBN.BMP,resources/DY.BMP,Door3,0.001302083,0.001302083,0,0,1,0.1756,optionLeft,70,12690,6,12,0,12,0,1,,,,,,,,,,,,,,,,,,,,,,,,,,,,,,,,,,,,,,,
,,,,,,,,2023-08-16_08h31.57.294,HF_wild_card,2022.2.4,Linux x86_64,59.86231667,61fa9016d42cb19beec49061,64d2fd46c836a06233681665,64dc7b5bc0748f546373268d,,,,,,,decisionTrl,resources/DB.BMP,resources/DY.BMP,WildCard_NonEx,-0.016927083,-0.00390625,0,0,1,0.176,optionRight,45,12735,6,13,0,13,0,1,,,,,,,,,,,,,,,,,,,,,,,,,,,,,,,,,,,,,,,
,,,,,,,,2023-08-16_08h31.57.294,HF_wild_card,2022.2.4,Linux x86_64,59.86231667,61fa9016d42cb19beec49061,64d2fd46c836a06233681665,64dc7b5bc0748f546373268d,,,,,,,sngl,resources/DBN.BMP,resources/Empty.png,Door3,0.0078125,-0.009114583,0,0,1,0.0953,optionLeft,70,12805,6,14,0,14,0,1,,,,,,,,,,,,,,,,,,,,,,,,,,,,,,,,,,,,,,,
,,,,,,,,2023-08-16_08h31.57.294,HF_wild_card,2022.2.4,Linux x86_64,59.86231667,61fa9016d42cb19beec49061,64d2fd46c836a06233681665,64dc7b5bc0748f546373268d,,,,,,,sngl,resources/DY.BMP,resources/Empty.png,WildCard_NonEx,0.013020833,0.0078125,0,0,1,0.1733,optionLeft,45,12850,6,15,0,15,0,1,,,,,,,,,,,,,,,,,,,,,,,,,,,,,,,,,,,,,,,
,,,,,,,,2023-08-16_08h31.57.294,HF_wild_card,2022.2.4,Linux x86_64,59.86231667,61fa9016d42cb19beec49061,64d2fd46c836a06233681665,64dc7b5bc0748f546373268d,,,,,,,sngl,resources/Empty.png,resources/DR.BMP,Door4,0.0078125,0.001302083,0,0,1,0.1791,optionRight,80,12930,6,16,0,16,0,1,,,,,,,,,,,,,,,,,,,,,,,,,,,,,,,,,,,,,,,
,,,,,,,,2023-08-16_08h31.57.294,HF_wild_card,2022.2.4,Linux x86_64,59.86231667,61fa9016d42cb19beec49061,64d2fd46c836a06233681665,64dc7b5bc0748f546373268d,,,,,,,decisionTrl,resources/DG.BMP,resources/DB.BMP,Door1,-0.006510417,0.013020833,0,0,1,0.1799,optionLeft,30,12960,6,17,0,17,0,1,,,,,,,,,,,,,,,,,,,,,,,,,,,,,,,,,,,,,,,
,,,,,,,,2023-08-16_08h31.57.294,HF_wild_card,2022.2.4,Linux x86_64,59.86231667,61fa9016d42cb19beec49061,64d2fd46c836a06233681665,64dc7b5bc0748f546373268d,,,,,,,ctch,resources/DBN.BMP,resources/DB.BMP,Door3,-0.00390625,0.00390625,0,0,1,0.1764,optionLeft,70,13030,6,18,0,18,0,1,,,,,,,,,,,,,,,,,,,,,,,,,,,,,,,,,,,,,,,
,,,,,,,,2023-08-16_08h31.57.294,HF_wild_card,2022.2.4,Linux x86_64,59.86231667,61fa9016d42cb19beec49061,64d2fd46c836a06233681665,64dc7b5bc0748f546373268d,,,,,,,decisionTrl,resources/DB.BMP,resources/DG.BMP,Door2,-0.005208333,-0.001302083,0,0,1,0.1748,optionLeft,20,13050,6,19,0,19,0,1,,,,,,,,,,,,,,,,,,,,,,,,,,,,,,,,,,,,,,,
,,,,,,,,2023-08-16_08h31.57.294,HF_wild_card,2022.2.4,Linux x86_64,59.86231667,61fa9016d42cb19beec49061,64d2fd46c836a06233681665,64dc7b5bc0748f546373268d,,,,,,,sngl,resources/DY.BMP,resources/Empty.png,WildCard_NonEx,0,0.006510417,0,0,1,0.1619,optionLeft,55,13105,6,20,0,20,0,1,,,,,,,,,,,,,,,,,,,,,,,,,,,,,,,,,,,,,,,
,,,,,,,,2023-08-16_08h31.57.294,HF_wild_card,2022.2.4,Linux x86_64,59.86231667,61fa9016d42cb19beec49061,64d2fd46c836a06233681665,64dc7b5bc0748f546373268d,,,,,,,decisionTrl,resources/DY.BMP,resources/DR.BMP,Door4,0.00390625,-0.005208333,0,0,1,0.1765,optionRight,60,13165,6,21,0,21,0,1,,,,,,,,,,,,,,,,,,,,,,,,,,,,,,,,,,,,,,,
,,,,,,,,2023-08-16_08h31.57.294,HF_wild_card,2022.2.4,Linux x86_64,59.86231667,61fa9016d42cb19beec49061,64d2fd46c836a06233681665,64dc7b5bc0748f546373268d,,,,,,,decisionTrl,resources/DY.BMP,resources/DB.BMP,WildCard_NonEx,0.01171875,0.020833333,0,0,1,0.3798,optionLeft,45,13210,6,22,0,22,0,1,,,,,,,,,,,,,,,,,,,,,,,,,,,,,,,,,,,,,,,
,,,,,,,,2023-08-16_08h31.57.294,HF_wild_card,2022.2.4,Linux x86_64,59.86231667,61fa9016d42cb19beec49061,64d2fd46c836a06233681665,64dc7b5bc0748f546373268d,,,,,,,ctch,resources/DB.BMP,resources/DBN.BMP,Door3,-0.015625,-0.00390625,0,0,1,0.1637,optionRight,70,13280,6,23,0,23,0,1,,,,,,,,,,,,,,,,,,,,,,,,,,,,,,,,,,,,,,,
,,,,,,,,2023-08-16_08h31.57.294,HF_wild_card,2022.2.4,Linux x86_64,59.86231667,61fa9016d42cb19beec49061,64d2fd46c836a06233681665,64dc7b5bc0748f546373268d,,,,,,,sngl,resources/Empty.png,resources/DBN.BMP,Door3,-0.002604167,-0.001302083,0,0,1,0.1793,optionRight,70,13350,6,24,0,24,0,1,,,,,,,,,,,,,,,,,,,,,,,,,,,,,,,,,,,,,,,
,,,,,,,,2023-08-16_08h31.57.294,HF_wild_card,2022.2.4,Linux x86_64,59.86231667,61fa9016d42cb19beec49061,64d2fd46c836a06233681665,64dc7b5bc0748f546373268d,,,,,,,decisionTrl,resources/DR.BMP,resources/DBN.BMP,Door4,-0.009114583,0.01171875,0,0,1,0.1906,optionLeft,80,13430,6,25,0,25,0,1,,,,,,,,,,,,,,,,,,,,,,,,,,,,,,,,,,,,,,,
,,,,,,,,2023-08-16_08h31.57.294,HF_wild_card,2022.2.4,Linux x86_64,59.86231667,61fa9016d42cb19beec49061,64d2fd46c836a06233681665,64dc7b5bc0748f546373268d,,,,,,,sngl,resources/Empty.png,resources/DB.BMP,Door2,0.00390625,0.013020833,0,0,1,0.1796,optionRight,40,13470,6,26,0,26,0,1,,,,,,,,,,,,,,,,,,,,,,,,,,,,,,,,,,,,,,,
,,,,,,,,2023-08-16_08h31.57.294,HF_wild_card,2022.2.4,Linux x86_64,59.86231667,61fa9016d42cb19beec49061,64d2fd46c836a06233681665,64dc7b5bc0748f546373268d,,,,,,,decisionTrl,resources/DG.BMP,resources/DB.BMP,Door2,-0.00390625,-0.01171875,0,0,1,0.1618,optionRight,20,13490,6,27,0,27,0,1,,,,,,,,,,,,,,,,,,,,,,,,,,,,,,,,,,,,,,,
,,,,,,,,2023-08-16_08h31.57.294,HF_wild_card,2022.2.4,Linux x86_64,59.86231667,61fa9016d42cb19beec49061,64d2fd46c836a06233681665,64dc7b5bc0748f546373268d,,,,,,,sngl,resources/Empty.png,resources/DY.BMP,WildCard_NonEx,0.0078125,0.006510417,0,0,1,0.1779,optionRight,55,13545,6,28,0,28,0,1,,,,,,,,,,,,,,,,,,,,,,,,,,,,,,,,,,,,,,,
,,,,,,,,2023-08-16_08h31.57.294,HF_wild_card,2022.2.4,Linux x86_64,59.86231667,61fa9016d42cb19beec49061,64d2fd46c836a06233681665,64dc7b5bc0748f546373268d,,,,,,,sngl,resources/DR.BMP,resources/Empty.png,Door4,-0.001302083,-0.013020833,0,0,1,0.179,optionLeft,60,13605,6,29,0,29,0,1,,,,,,,,,,,,,,,,,,,,,,,,,,,,,,,,,,,,,,,
,,,,,,,,2023-08-16_08h31.57.294,HF_wild_card,2022.2.4,Linux x86_64,59.86231667,61fa9016d42cb19beec49061,64d2fd46c836a06233681665,64dc7b5bc0748f546373268d,,,,,,,decisionTrl,resources/DR.BMP,resources/DY.BMP,Door4,-0.005208333,-0.005208333,0,0,1,0.176,optionLeft,80,13685,6,30,0,30,0,1,,,,,,,,,,,,,,,,,,,,,,,,,,,,,,,,,,,,,,,
,,,,,,,,2023-08-16_08h31.57.294,HF_wild_card,2022.2.4,Linux x86_64,59.86231667,61fa9016d42cb19beec49061,64d2fd46c836a06233681665,64dc7b5bc0748f546373268d,,,,,,,decisionTrl,resources/DR.BMP,resources/DBN.BMP,Door4,0.014322917,0.005208333,0,0,1,0.179,optionLeft,60,13745,6,31,0,31,0,1,,,,,,,,,,,,,,,,,,,,,,,,,,,,,,,,,,,,,,,
,,,,,,,,2023-08-16_08h31.57.294,HF_wild_card,2022.2.4,Linux x86_64,59.86231667,61fa9016d42cb19beec49061,64d2fd46c836a06233681665,64dc7b5bc0748f546373268d,,,,,,,decisionTrl,resources/DB.BMP,resources/DG.BMP,Door2,0.001302083,0.0078125,0,0,1,0.1765,optionLeft,40,13785,6,32,0,32,0,1,,,,,,,,,,,,,,,,,,,,,,,,,,,,,,,,,,,,,,,
,,,,,,,,2023-08-16_08h31.57.294,HF_wild_card,2022.2.4,Linux x86_64,59.86231667,61fa9016d42cb19beec49061,64d2fd46c836a06233681665,64dc7b5bc0748f546373268d,,,,,,,ctch,resources/DBN.BMP,resources/DB.BMP,Door3,0.006510417,-0.001302083,0,0,1,0.162,optionLeft,70,13855,6,33,0,33,0,1,,,,,,,,,,,,,,,,,,,,,,,,,,,,,,,,,,,,,,,
,,,,,,,,2023-08-16_08h31.57.294,HF_wild_card,2022.2.4,Linux x86_64,59.86231667,61fa9016d42cb19beec49061,64d2fd46c836a06233681665,64dc7b5bc0748f546373268d,,,,,,,decisionTrl,resources/DG.BMP,resources/DB.BMP,Door2,-0.005208333,-0.002604167,0,0,1,0.1755,optionRight,20,13875,6,34,0,34,0,1,,,,,,,,,,,,,,,,,,,,,,,,,,,,,,,,,,,,,,,
,,,,,,,,2023-08-16_08h31.57.294,HF_wild_card,2022.2.4,Linux x86_64,59.86231667,61fa9016d42cb19beec49061,64d2fd46c836a06233681665,64dc7b5bc0748f546373268d,,,,,,,decisionTrl,resources/DR.BMP,resources/DBN.BMP,Door4,-0.002604167,0.00390625,0,0,1,0.1793,optionLeft,60,13935,6,35,0,35,0,1,,,,,,,,,,,,,,,,,,,,,,,,,,,,,,,,,,,,,,,
,,,,,,,,2023-08-16_08h31.57.294,HF_wild_card,2022.2.4,Linux x86_64,59.86231667,61fa9016d42cb19beec49061,64d2fd46c836a06233681665,64dc7b5bc0748f546373268d,,,,,,,ctch,resources/DB.BMP,resources/DBN.BMP,Door3,0,-0.005208333,0,0,1,0.1763,optionRight,70,14005,6,36,0,36,0,1,,,,,,,,,,,,,,,,,,,,,,,,,,,,,,,,,,,,,,,
,,,,,,,,2023-08-16_08h31.57.294,HF_wild_card,2022.2.4,Linux x86_64,59.86231667,61fa9016d42cb19beec49061,64d2fd46c836a06233681665,64dc7b5bc0748f546373268d,,,,,,,decisionTrl,resources/DBN.BMP,resources/DR.BMP,Door4,-0.013020833,0.005208333,0,0,1,0.1791,optionRight,80,14085,6,37,0,37,0,1,,,,,,,,,,,,,,,,,,,,,,,,,,,,,,,,,,,,,,,
,,,,,,,,2023-08-16_08h31.57.294,HF_wild_card,2022.2.4,Linux x86_64,59.86231667,61fa9016d42cb19beec49061,64d2fd46c836a06233681665,64dc7b5bc0748f546373268d,,,,,,,ctch,resources/DG.BMP,resources/DR.BMP,Door4,0.005208333,0.0078125,0,0,1,0.18,optionRight,80,14165,6,38,0,38,0,1,,,,,,,,,,,,,,,,,,,,,,,,,,,,,,,,,,,,,,,
,,,,,,,,2023-08-16_08h31.57.294,HF_wild_card,2022.2.4,Linux x86_64,59.86231667,61fa9016d42cb19beec49061,64d2fd46c836a06233681665,64dc7b5bc0748f546373268d,,,,,,,decisionTrl,resources/DBN.BMP,resources/DR.BMP,Door4,-0.013020833,0.01953125,0,0,1,0.1792,optionRight,60,14225,6,39,0,39,0,1,,,,,,,,,,,,,,,,,,,,,,,,,,,,,,,,,,,,,,,
,,,,,,,,2023-08-16_08h31.57.294,HF_wild_card,2022.2.4,Linux x86_64,59.86231667,61fa9016d42cb19beec49061,64d2fd46c836a06233681665,64dc7b5bc0748f546373268d,,,,,,,decisionTrl,resources/DB.BMP,resources/DG.BMP,Door2,-0.020833333,0.010416667,0,0,1,0.1741,optionLeft,20,14245,6,40,0,40,0,1,,,,,,,,,,,,,,,,,,,,,,,,,,,,,,,,,,,,,,,
,,,,,,,,2023-08-16_08h31.57.294,HF_wild_card,2022.2.4,Linux x86_64,59.86231667,61fa9016d42cb19beec49061,64d2fd46c836a06233681665,64dc7b5bc0748f546373268d,,,,,,,decisionTrl,resources/DBN.BMP,resources/DR.BMP,Door4,0.005208333,0.00390625,0,0,1,0.1762,optionRight,60,14305,6,41,0,41,0,1,,,,,,,,,,,,,,,,,,,,,,,,,,,,,,,,,,,,,,,
,,,,,,,,2023-08-16_08h31.57.294,HF_wild_card,2022.2.4,Linux x86_64,59.86231667,61fa9016d42cb19beec49061,64d2fd46c836a06233681665,64dc7b5bc0748f546373268d,,,,,,,decisionTrl,resources/DBN.BMP,resources/DR.BMP,Door4,0.014322917,0.006510417,0,0,1,0.1748,optionRight,80,14385,6,42,0,42,0,1,,,,,,,,,,,,,,,,,,,,,,,,,,,,,,,,,,,,,,,
,,,,,,,,2023-08-16_08h31.57.294,HF_wild_card,2022.2.4,Linux x86_64,59.86231667,61fa9016d42cb19beec49061,64d2fd46c836a06233681665,64dc7b5bc0748f546373268d,,,,,,,sngl,resources/Empty.png,resources/DY.BMP,WildCard_NonEx,-0.00390625,0.005208333,0,0,1,0.1756,optionRight,45,14430,6,43,0,43,0,1,,,,,,,,,,,,,,,,,,,,,,,,,,,,,,,,,,,,,,,
,,,,,,,,2023-08-16_08h31.57.294,HF_wild_card,2022.2.4,Linux x86_64,59.86231667,61fa9016d42cb19beec49061,64d2fd46c836a06233681665,64dc7b5bc0748f546373268d,,,,,,,,,,,,,,,,,,,,,,,,,,5,0,5,0,1,,,,,,,,,,,,,,,,,,,,,,,,,,,,,,,,,,
,,,,,,,,2023-08-16_08h31.57.294,HF_wild_card,2022.2.4,Linux x86_64,59.86231667,61fa9016d42cb19beec49061,64d2fd46c836a06233681665,64dc7b5bc0748f546373268d,,,,,,,decisionTrl,resources/DG.BMP,resources/DB.BMP,Door2,0.313802083,0,1,0,1,3.4641,optionRight,40,14470,7,0,0,0,0,1,,,,,,,,,,,,,,,,,,,,,,,,,,,,,,,,,,,,,,,
,,,,,,,,2023-08-16_08h31.57.294,HF_wild_card,2022.2.4,Linux x86_64,59.86231667,61fa9016d42cb19beec49061,64d2fd46c836a06233681665,64dc7b5bc0748f546373268d,,,,,,,decisionTrl,resources/DG.BMP,resources/DB.BMP,Door2,0.014322917,0.016927083,0,0,1,0.1626,optionRight,40,14510,7,1,0,1,0,1,,,,,,,,,,,,,,,,,,,,,,,,,,,,,,,,,,,,,,,
,,,,,,,,2023-08-16_08h31.57.294,HF_wild_card,2022.2.4,Linux x86_64,59.86231667,61fa9016d42cb19beec49061,64d2fd46c836a06233681665,64dc7b5bc0748f546373268d,,,,,,,ctch,resources/DB.BMP,resources/DBN.BMP,Door3,-0.005208333,0.001302083,0,0,1,0.179,optionRight,70,14580,7,2,0,2,0,1,,,,,,,,,,,,,,,,,,,,,,,,,,,,,,,,,,,,,,,
,,,,,,,,2023-08-16_08h31.57.294,HF_wild_card,2022.2.4,Linux x86_64,59.86231667,61fa9016d42cb19beec49061,64d2fd46c836a06233681665,64dc7b5bc0748f546373268d,,,,,,,decisionTrl,resources/DBN.BMP,resources/DR.BMP,Door4,0.009114583,-0.014322917,0,0,1,0.1795,optionRight,60,14640,7,3,0,3,0,1,,,,,,,,,,,,,,,,,,,,,,,,,,,,,,,,,,,,,,,
,,,,,,,,2023-08-16_08h31.57.294,HF_wild_card,2022.2.4,Linux x86_64,59.86231667,61fa9016d42cb19beec49061,64d2fd46c836a06233681665,64dc7b5bc0748f546373268d,,,,,,,decisionTrl,resources/DG.BMP,resources/DB.BMP,Door2,-0.001302083,0.015625,0,0,1,0.1811,optionRight,40,14680,7,4,0,4,0,1,,,,,,,,,,,,,,,,,,,,,,,,,,,,,,,,,,,,,,,
,,,,,,,,2023-08-16_08h31.57.294,HF_wild_card,2022.2.4,Linux x86_64,59.86231667,61fa9016d42cb19beec49061,64d2fd46c836a06233681665,64dc7b5bc0748f546373268d,,,,,,,decisionTrl,resources/DG.BMP,resources/DB.BMP,Door2,-0.001302083,0,0,0,1,0.1826,optionRight,20,14700,7,5,0,5,0,1,,,,,,,,,,,,,,,,,,,,,,,,,,,,,,,,,,,,,,,
,,,,,,,,2023-08-16_08h31.57.294,HF_wild_card,2022.2.4,Linux x86_64,59.86231667,61fa9016d42cb19beec49061,64d2fd46c836a06233681665,64dc7b5bc0748f546373268d,,,,,,,decisionTrl,resources/DR.BMP,resources/DBN.BMP,Door4,0.002604167,-0.002604167,0,0,1,0.1803,optionLeft,80,14780,7,6,0,6,0,1,,,,,,,,,,,,,,,,,,,,,,,,,,,,,,,,,,,,,,,
,,,,,,,,2023-08-16_08h31.57.294,HF_wild_card,2022.2.4,Linux x86_64,59.86231667,61fa9016d42cb19beec49061,64d2fd46c836a06233681665,64dc7b5bc0748f546373268d,,,,,,,decisionTrl,resources/DB.BMP,resources/DG.BMP,Door2,0,-0.005208333,0,0,1,0.1801,optionLeft,40,14820,7,7,0,7,0,1,,,,,,,,,,,,,,,,,,,,,,,,,,,,,,,,,,,,,,,
,,,,,,,,2023-08-16_08h31.57.294,HF_wild_card,2022.2.4,Linux x86_64,59.86231667,61fa9016d42cb19beec49061,64d2fd46c836a06233681665,64dc7b5bc0748f546373268d,,,,,,,ctch,resources/DB.BMP,resources/DBN.BMP,Door3,-0.00390625,0.014322917,0,0,1,0.1655,optionRight,70,14890,7,8,0,8,0,1,,,,,,,,,,,,,,,,,,,,,,,,,,,,,,,,,,,,,,,
,,,,,,,,2023-08-16_08h31.57.294,HF_wild_card,2022.2.4,Linux x86_64,59.86231667,61fa9016d42cb19beec49061,64d2fd46c836a06233681665,64dc7b5bc0748f546373268d,,,,,,,decisionTrl,resources/DR.BMP,resources/DBN.BMP,Door4,0.01171875,-0.01171875,0,0,1,0.1818,optionLeft,60,14950,7,9,0,9,0,1,,,,,,,,,,,,,,,,,,,,,,,,,,,,,,,,,,,,,,,
,,,,,,,,2023-08-16_08h31.57.294,HF_wild_card,2022.2.4,Linux x86_64,59.86231667,61fa9016d42cb19beec49061,64d2fd46c836a06233681665,64dc7b5bc0748f546373268d,,,,,,,decisionTrl,resources/DBN.BMP,resources/DR.BMP,Door4,0.00390625,-0.013020833,0,0,1,0.1802,optionRight,80,15030,7,10,0,10,0,1,,,,,,,,,,,,,,,,,,,,,,,,,,,,,,,,,,,,,,,
,,,,,,,,2023-08-16_08h31.57.294,HF_wild_card,2022.2.4,Linux x86_64,59.86231667,61fa9016d42cb19beec49061,64d2fd46c836a06233681665,64dc7b5bc0748f546373268d,,,,,,,decisionTrl,resources/DBN.BMP,resources/DR.BMP,Door4,0.009114583,0.01171875,0,0,1,0.1786,optionRight,60,15090,7,11,0,11,0,1,,,,,,,,,,,,,,,,,,,,,,,,,,,,,,,,,,,,,,,
,,,,,,,,2023-08-16_08h31.57.294,HF_wild_card,2022.2.4,Linux x86_64,59.86231667,61fa9016d42cb19beec49061,64d2fd46c836a06233681665,64dc7b5bc0748f546373268d,,,,,,,ctch,resources/DBN.BMP,resources/DB.BMP,Door3,0.01171875,0.009114583,0,0,1,0.1812,optionLeft,70,15160,7,12,0,12,0,1,,,,,,,,,,,,,,,,,,,,,,,,,,,,,,,,,,,,,,,
,,,,,,,,2023-08-16_08h31.57.294,HF_wild_card,2022.2.4,Linux x86_64,59.86231667,61fa9016d42cb19beec49061,64d2fd46c836a06233681665,64dc7b5bc0748f546373268d,,,,,,,ctch,resources/DG.BMP,resources/DR.BMP,Door4,-0.005208333,-0.006510417,0,0,1,0.1629,optionRight,80,15240,7,13,0,13,0,1,,,,,,,,,,,,,,,,,,,,,,,,,,,,,,,,,,,,,,,
,,,,,,,,2023-08-16_08h31.57.294,HF_wild_card,2022.2.4,Linux x86_64,59.86231667,61fa9016d42cb19beec49061,64d2fd46c836a06233681665,64dc7b5bc0748f546373268d,,,,,,,decisionTrl,resources/DG.BMP,resources/DB.BMP,Door1,0.002604167,0.00390625,0,0,1,0.1789,optionLeft,30,15270,7,14,0,14,0,1,,,,,,,,,,,,,,,,,,,,,,,,,,,,,,,,,,,,,,,
,,,,,,,,2023-08-16_08h31.57.294,HF_wild_card,2022.2.4,Linux x86_64,59.86231667,61fa9016d42cb19beec49061,64d2fd46c836a06233681665,64dc7b5bc0748f546373268d,,,,,,,decisionTrl,resources/DBN.BMP,resources/DR.BMP,Door4,0.001302083,0.001302083,0,0,1,0.1804,optionRight,60,15330,7,15,0,15,0,1,,,,,,,,,,,,,,,,,,,,,,,,,,,,,,,,,,,,,,,
,,,,,,,,2023-08-16_08h31.57.294,HF_wild_card,2022.2.4,Linux x86_64,59.86231667,61fa9016d42cb19beec49061,64d2fd46c836a06233681665,64dc7b5bc0748f546373268d,,,,,,,ctch,resources/DG.BMP,resources/DR.BMP,Door4,0.006510417,-0.005208333,0,0,1,0.1824,optionRight,60,15390,7,16,0,16,0,1,,,,,,,,,,,,,,,,,,,,,,,,,,,,,,,,,,,,,,,
,,,,,,,,2023-08-16_08h31.57.294,HF_wild_card,2022.2.4,Linux x86_64,59.86231667,61fa9016d42cb19beec49061,64d2fd46c836a06233681665,64dc7b5bc0748f546373268d,,,,,,,ctch,resources/DR.BMP,resources/DG.BMP,Door4,0.0078125,0.002604167,0,0,1,0.1801,optionLeft,60,15450,7,17,0,17,0,1,,,,,,,,,,,,,,,,,,,,,,,,,,,,,,,,,,,,,,,
,,,,,,,,2023-08-16_08h31.57.294,HF_wild_card,2022.2.4,Linux x86_64,59.86231667,61fa9016d42cb19beec49061,64d2fd46c836a06233681665,64dc7b5bc0748f546373268d,,,,,,,ctch,resources/DR.BMP,resources/DG.BMP,Door4,0.001302083,0.015625,0,0,1,0.1819,optionLeft,80,15530,7,18,0,18,0,1,,,,,,,,,,,,,,,,,,,,,,,,,,,,,,,,,,,,,,,
,,,,,,,,2023-08-16_08h31.57.294,HF_wild_card,2022.2.4,Linux x86_64,59.86231667,61fa9016d42cb19beec49061,64d2fd46c836a06233681665,64dc7b5bc0748f546373268d,,,,,,,ctch,resources/DBN.BMP,resources/DB.BMP,Door3,-0.009114583,0.005208333,0,0,1,0.1635,optionLeft,70,15600,7,19,0,19,0,1,,,,,,,,,,,,,,,,,,,,,,,,,,,,,,,,,,,,,,,
,,,,,,,,2023-08-16_08h31.57.294,HF_wild_card,2022.2.4,Linux x86_64,59.86231667,61fa9016d42cb19beec49061,64d2fd46c836a06233681665,64dc7b5bc0748f546373268d,,,,,,,decisionTrl,resources/DB.BMP,resources/DG.BMP,Door2,0.002604167,0,0,0,1,0.1812,optionLeft,20,15620,7,20,0,20,0,1,,,,,,,,,,,,,,,,,,,,,,,,,,,,,,,,,,,,,,,
,,,,,,,,2023-08-16_08h31.57.294,HF_wild_card,2022.2.4,Linux x86_64,59.86231667,61fa9016d42cb19beec49061,64d2fd46c836a06233681665,64dc7b5bc0748f546373268d,,,,,,,decisionTrl,resources/DB.BMP,resources/DG.BMP,Door2,0.022135417,0,0,0,1,0.1547,optionLeft,20,15640,7,21,0,21,0,1,,,,,,,,,,,,,,,,,,,,,,,,,,,,,,,,,,,,,,,
,,,,,,,,2023-08-16_08h31.57.294,HF_wild_card,2022.2.4,Linux x86_64,59.86231667,61fa9016d42cb19beec49061,64d2fd46c836a06233681665,64dc7b5bc0748f546373268d,,,,,,,ctch,resources/DBN.BMP,resources/DB.BMP,Door3,0,-0.002604167,0,0,1,0.1633,optionLeft,70,15710,7,22,0,22,0,1,,,,,,,,,,,,,,,,,,,,,,,,,,,,,,,,,,,,,,,
,,,,,,,,2023-08-16_08h31.57.294,HF_wild_card,2022.2.4,Linux x86_64,59.86231667,61fa9016d42cb19beec49061,64d2fd46c836a06233681665,64dc7b5bc0748f546373268d,,,,,,,decisionTrl,resources/DR.BMP,resources/DBN.BMP,Door4,0.018229167,-0.0078125,0,0,1,0.1805,optionLeft,80,15790,7,23,0,23,0,1,,,,,,,,,,,,,,,,,,,,,,,,,,,,,,,,,,,,,,,
,,,,,,,,2023-08-16_08h31.57.294,HF_wild_card,2022.2.4,Linux x86_64,59.86231667,61fa9016d42cb19beec49061,64d2fd46c836a06233681665,64dc7b5bc0748f546373268d,,,,,,,decisionTrl,resources/DR.BMP,resources/DBN.BMP,Door4,-0.001302083,0.001302083,0,0,1,0.1824,optionLeft,60,15850,7,24,0,24,0,1,,,,,,,,,,,,,,,,,,,,,,,,,,,,,,,,,,,,,,,
,,,,,,,,2023-08-16_08h31.57.294,HF_wild_card,2022.2.4,Linux x86_64,59.86231667,61fa9016d42cb19beec49061,64d2fd46c836a06233681665,64dc7b5bc0748f546373268d,,,,,,,decisionTrl,resources/DR.BMP,resources/DBN.BMP,Door4,0.005208333,-0.013020833,0,0,1,0.164,optionLeft,60,15910,7,25,0,25,0,1,,,,,,,,,,,,,,,,,,,,,,,,,,,,,,,,,,,,,,,
,,,,,,,,2023-08-16_08h31.57.294,HF_wild_card,2022.2.4,Linux x86_64,59.86231667,61fa9016d42cb19beec49061,64d2fd46c836a06233681665,64dc7b5bc0748f546373268d,,,,,,,decisionTrl,resources/DB.BMP,resources/DG.BMP,Door2,0.006510417,-0.015625,0,0,1,0.1791,optionLeft,20,15930,7,26,0,26,0,1,,,,,,,,,,,,,,,,,,,,,,,,,,,,,,,,,,,,,,,
,,,,,,,,2023-08-16_08h31.57.294,HF_wild_card,2022.2.4,Linux x86_64,59.86231667,61fa9016d42cb19beec49061,64d2fd46c836a06233681665,64dc7b5bc0748f546373268d,,,,,,,decisionTrl,resources/DR.BMP,resources/DBN.BMP,Door4,0.005208333,0.01171875,0,0,1,0.1787,optionLeft,80,16010,7,27,0,27,0,1,,,,,,,,,,,,,,,,,,,,,,,,,,,,,,,,,,,,,,,
,,,,,,,,2023-08-16_08h31.57.294,HF_wild_card,2022.2.4,Linux x86_64,59.86231667,61fa9016d42cb19beec49061,64d2fd46c836a06233681665,64dc7b5bc0748f546373268d,,,,,,,ctch,resources/DR.BMP,resources/DG.BMP,Door4,0.015625,0.01171875,0,0,1,0.1793,optionLeft,80,16090,7,28,0,28,0,1,,,,,,,,,,,,,,,,,,,,,,,,,,,,,,,,,,,,,,,
,,,,,,,,2023-08-16_08h31.57.294,HF_wild_card,2022.2.4,Linux x86_64,59.86231667,61fa9016d42cb19beec49061,64d2fd46c836a06233681665,64dc7b5bc0748f546373268d,,,,,,,ctch,resources/DB.BMP,resources/DBN.BMP,Door3,-0.002604167,-0.006510417,0,0,1,0.1807,optionRight,70,16160,7,29,0,29,0,1,,,,,,,,,,,,,,,,,,,,,,,,,,,,,,,,,,,,,,,
,,,,,,,,2023-08-16_08h31.57.294,HF_wild_card,2022.2.4,Linux x86_64,59.86231667,61fa9016d42cb19beec49061,64d2fd46c836a06233681665,64dc7b5bc0748f546373268d,,,,,,,decisionTrl,resources/DBN.BMP,resources/DR.BMP,Door4,0.010416667,0.013020833,0,0,1,0.1798,optionRight,80,16240,7,30,0,30,0,1,,,,,,,,,,,,,,,,,,,,,,,,,,,,,,,,,,,,,,,
,,,,,,,,2023-08-16_08h31.57.294,HF_wild_card,2022.2.4,Linux x86_64,59.86231667,61fa9016d42cb19beec49061,64d2fd46c836a06233681665,64dc7b5bc0748f546373268d,,,,,,,decisionTrl,resources/DBN.BMP,resources/DR.BMP,Door4,0.005208333,0.014322917,0,0,1,0.165,optionRight,60,16300,7,31,0,31,0,1,,,,,,,,,,,,,,,,,,,,,,,,,,,,,,,,,,,,,,,
,,,,,,,,2023-08-16_08h31.57.294,HF_wild_card,2022.2.4,Linux x86_64,59.86231667,61fa9016d42cb19beec49061,64d2fd46c836a06233681665,64dc7b5bc0748f546373268d,,,,,,,decisionTrl,resources/DG.BMP,resources/DB.BMP,Door2,-0.016927083,-0.00390625,0,0,1,0.1815,optionRight,40,16340,7,32,0,32,0,1,,,,,,,,,,,,,,,,,,,,,,,,,,,,,,,,,,,,,,,
,,,,,,,,2023-08-16_08h31.57.294,HF_wild_card,2022.2.4,Linux x86_64,59.86231667,61fa9016d42cb19beec49061,64d2fd46c836a06233681665,64dc7b5bc0748f546373268d,,,,,,,decisionTrl,resources/DB.BMP,resources/DG.BMP,Door2,0.0078125,0.005208333,0,0,1,0.1793,optionLeft,20,16360,7,33,0,33,0,1,,,,,,,,,,,,,,,,,,,,,,,,,,,,,,,,,,,,,,,
,,,,,,,,2023-08-16_08h31.57.294,HF_wild_card,2022.2.4,Linux x86_64,59.86231667,61fa9016d42cb19beec49061,64d2fd46c836a06233681665,64dc7b5bc0748f546373268d,,,,,,,decisionTrl,resources/DB.BMP,resources/DG.BMP,Door2,0.001302083,-0.001302083,0,0,1,0.1655,optionLeft,20,16380,7,34,0,34,0,1,,,,,,,,,,,,,,,,,,,,,,,,,,,,,,,,,,,,,,,
,,,,,,,,2023-08-16_08h31.57.294,HF_wild_card,2022.2.4,Linux x86_64,59.86231667,61fa9016d42cb19beec49061,64d2fd46c836a06233681665,64dc7b5bc0748f546373268d,,,,,,,ctch,resources/DG.BMP,resources/DR.BMP,Door4,0.013020833,0.010416667,0,0,1,0.1638,optionRight,80,16460,7,35,0,35,0,1,,,,,,,,,,,,,,,,,,,,,,,,,,,,,,,,,,,,,,,
,,,,,,,,2023-08-16_08h31.57.294,HF_wild_card,2022.2.4,Linux x86_64,59.86231667,61fa9016d42cb19beec49061,64d2fd46c836a06233681665,64dc7b5bc0748f546373268d,,,,,,,,,,,,,,,,,,,,,,,,,,6,0,6,0,1,,,,,,,,,,,,,,,,,,,,,,,,,,,,,,,,,,
,,,,,,,,2023-08-16_08h31.57.294,HF_wild_card,2022.2.4,Linux x86_64,59.86231667,61fa9016d42cb19beec49061,64d2fd46c836a06233681665,64dc7b5bc0748f546373268d,,,,,,,,,,,,,,,,,,,,,,,,,,,,,,,4,,,,,,,,,,,,,,,,,,,,,,,,,,,,,,,,,
