Condition,Low fixed image (Door1),Low risky image (Door2),High fixed image (Door3),High risky image (Door4),NonExtreme Wild Card 1,NonExtreme Wild Card 2,,date,expName,psychopyVersion,OS,frameRate,PROLIFIC_PID,STUDY_ID,SESSION_ID,mouse_2.x,mouse_2.y,mouse_2.leftButton,mouse_2.midButton,mouse_2.rightButton,mouse_2.clicked_name,Trial Type,Left Option Image,Right Option Image,Chosen Door,mouse.x,mouse.y,mouse.leftButton,mouse.midButton,mouse.rightButton,mouse.time,mouse.clicked_name,Feedback,Cumulative Reward,Block,trial.thisRepN,trial.thisTrialN,trial.thisN,trial.thisIndex,trial.ran,blocks.thisRepN,blocks.thisTrialN,blocks.thisN,blocks.thisIndex,blocks.ran,Money conversion,First Outcome Reported,Shown Door (First Outcome),Displayed Image (First Outcome),outcomes.thisRepN,outcomes.thisTrialN,outcomes.thisN,outcomes.thisIndex,outcomes.ran,judgments.thisRepN,judgments.thisTrialN,judgments.thisN,judgments.thisIndex,judgments.ran,freqMouse.x,freqMouse.y,freqMouse.leftButton,freqMouse.midButton,freqMouse.rightButton,freqMouse.clicked_name,FQJ for first outcome,FQJ for second outcome,Shown Door,Displayed Image,trials.thisRepN,trials.thisTrialN,trials.thisN,trials.thisIndex,trials.ran,judgBlock.thisRepN,judgBlock.thisTrialN,judgBlock.thisN,judgBlock.thisIndex,judgBlock.ran
2,resources/DBN.BMP,resources/DP.BMP,resources/DB.BMP,resources/DY.BMP,resources/DG.BMP,resources/DR.BMP,,2023-08-16_08h36.00.241,HF_wild_card,2022.2.4,Win32,59.93407252,5642444817bdbe00062a1129,64d2fd46c836a06233681665,64dc7c512c6c239c09739a7b,,,,,,,,,,,,,,,,,,,,,,,,,,,,,,,,,,,,,,,,,,,,,,,,,,,,,,,,,,,,,,,,
,,,,,,,,2023-08-16_08h36.00.241,HF_wild_card,2022.2.4,Win32,59.93407252,5642444817bdbe00062a1129,64d2fd46c836a06233681665,64dc7c512c6c239c09739a7b,-0.003703704,-0.422222222,1,0,0,agree,,,,,,,,,,,,,,,,,,,,,,,,,,,,,,,,,,,,,,,,,,,,,,,,,,,,,,,,,,
,,,,,,,,2023-08-16_08h36.00.241,HF_wild_card,2022.2.4,Win32,59.93407252,5642444817bdbe00062a1129,64d2fd46c836a06233681665,64dc7c512c6c239c09739a7b,,,,,,,,,,,,,,,,,,,,,,,,,,,,,,,,,,,,,,,,,,,,,,,,,,,,,,,,,,,,,,,,
,,,,,,,,2023-08-16_08h36.00.241,HF_wild_card,2022.2.4,Win32,59.93407252,5642444817bdbe00062a1129,64d2fd46c836a06233681665,64dc7c512c6c239c09739a7b,,,,,,,decisionTrl,resources/DB.BMP,resources/DY.BMP,Door3,-0.32037037,-0.057407407,1,0,0,1.5735,optionLeft,70,70,1,0,0,0,0,1,,,,,,,,,,,,,,,,,,,,,,,,,,,,,,,,,,,,,,,
,,,,,,,,2023-08-16_08h36.00.241,HF_wild_card,2022.2.4,Win32,59.93407252,5642444817bdbe00062a1129,64d2fd46c836a06233681665,64dc7c512c6c239c09739a7b,,,,,,,ctch,resources/DBN.BMP,resources/DY.BMP,Door4,0.32037037,-0.022222222,1,0,0,1.3491,optionRight,60,130,1,1,0,1,0,1,,,,,,,,,,,,,,,,,,,,,,,,,,,,,,,,,,,,,,,
,,,,,,,,2023-08-16_08h36.00.241,HF_wild_card,2022.2.4,Win32,59.93407252,5642444817bdbe00062a1129,64d2fd46c836a06233681665,64dc7c512c6c239c09739a7b,,,,,,,decisionTrl,resources/DB.BMP,resources/DY.BMP,Door3,-0.24537037,-0.012037037,1,0,0,1.0157,optionLeft,70,200,1,2,0,2,0,1,,,,,,,,,,,,,,,,,,,,,,,,,,,,,,,,,,,,,,,
,,,,,,,,2023-08-16_08h36.00.241,HF_wild_card,2022.2.4,Win32,59.93407252,5642444817bdbe00062a1129,64d2fd46c836a06233681665,64dc7c512c6c239c09739a7b,,,,,,,sngl,resources/DR.BMP,resources/Empty.png,WildCard_NonEx,-0.333333333,-0.013888889,1,0,0,0.8826,optionLeft,55,255,1,3,0,3,0,1,,,,,,,,,,,,,,,,,,,,,,,,,,,,,,,,,,,,,,,
,,,,,,,,2023-08-16_08h36.00.241,HF_wild_card,2022.2.4,Win32,59.93407252,5642444817bdbe00062a1129,64d2fd46c836a06233681665,64dc7c512c6c239c09739a7b,,,,,,,ctch,resources/DY.BMP,resources/DBN.BMP,Door1,0.367592593,-0.034259259,1,0,0,1.6502,optionRight,30,285,1,4,0,4,0,1,,,,,,,,,,,,,,,,,,,,,,,,,,,,,,,,,,,,,,,
,,,,,,,,2023-08-16_08h36.00.241,HF_wild_card,2022.2.4,Win32,59.93407252,5642444817bdbe00062a1129,64d2fd46c836a06233681665,64dc7c512c6c239c09739a7b,,,,,,,decisionTrl,resources/DBN.BMP,resources/DP.BMP,Door2,0.334259259,-0.002777778,1,0,0,1.299,optionRight,40,325,1,5,0,5,0,1,,,,,,,,,,,,,,,,,,,,,,,,,,,,,,,,,,,,,,,
,,,,,,,,2023-08-16_08h36.00.241,HF_wild_card,2022.2.4,Win32,59.93407252,5642444817bdbe00062a1129,64d2fd46c836a06233681665,64dc7c512c6c239c09739a7b,,,,,,,decisionTrl,resources/DP.BMP,resources/DBN.BMP,Door2,-0.285185185,-0.025925926,1,0,0,1.1494,optionLeft,40,365,1,6,0,6,0,1,,,,,,,,,,,,,,,,,,,,,,,,,,,,,,,,,,,,,,,
,,,,,,,,2023-08-16_08h36.00.241,HF_wild_card,2022.2.4,Win32,59.93407252,5642444817bdbe00062a1129,64d2fd46c836a06233681665,64dc7c512c6c239c09739a7b,,,,,,,decisionTrl,resources/DP.BMP,resources/DBN.BMP,Door2,-0.333333333,-0.007407407,1,0,0,0.8161,optionLeft,40,405,1,7,0,7,0,1,,,,,,,,,,,,,,,,,,,,,,,,,,,,,,,,,,,,,,,
,,,,,,,,2023-08-16_08h36.00.241,HF_wild_card,2022.2.4,Win32,59.93407252,5642444817bdbe00062a1129,64d2fd46c836a06233681665,64dc7c512c6c239c09739a7b,,,,,,,ctch,resources/DBN.BMP,resources/DY.BMP,Door4,0.309259259,0,1,0,0,0.9497,optionRight,80,485,1,8,0,8,0,1,,,,,,,,,,,,,,,,,,,,,,,,,,,,,,,,,,,,,,,
,,,,,,,,2023-08-16_08h36.00.241,HF_wild_card,2022.2.4,Win32,59.93407252,5642444817bdbe00062a1129,64d2fd46c836a06233681665,64dc7c512c6c239c09739a7b,,,,,,,decisionTrl,resources/DB.BMP,resources/DY.BMP,Door4,0.403703704,0.001851852,1,0,0,0.5159,optionRight,80,565,1,9,0,9,0,1,,,,,,,,,,,,,,,,,,,,,,,,,,,,,,,,,,,,,,,
,,,,,,,,2023-08-16_08h36.00.241,HF_wild_card,2022.2.4,Win32,59.93407252,5642444817bdbe00062a1129,64d2fd46c836a06233681665,64dc7c512c6c239c09739a7b,,,,,,,decisionTrl,resources/DP.BMP,resources/DR.BMP,WildCard_NonEx,0.35,-0.000925926,1,0,0,1.2336,optionRight,55,620,1,10,0,10,0,1,,,,,,,,,,,,,,,,,,,,,,,,,,,,,,,,,,,,,,,
,,,,,,,,2023-08-16_08h36.00.241,HF_wild_card,2022.2.4,Win32,59.93407252,5642444817bdbe00062a1129,64d2fd46c836a06233681665,64dc7c512c6c239c09739a7b,,,,,,,decisionTrl,resources/DR.BMP,resources/DB.BMP,Door3,0.285185185,-0.000925926,1,0,0,1.3169,optionRight,70,690,1,11,0,11,0,1,,,,,,,,,,,,,,,,,,,,,,,,,,,,,,,,,,,,,,,
,,,,,,,,2023-08-16_08h36.00.241,HF_wild_card,2022.2.4,Win32,59.93407252,5642444817bdbe00062a1129,64d2fd46c836a06233681665,64dc7c512c6c239c09739a7b,,,,,,,decisionTrl,resources/DY.BMP,resources/DB.BMP,Door4,-0.178703704,0.010185185,1,0,0,0.5991,optionLeft,80,770,1,12,0,12,0,1,,,,,,,,,,,,,,,,,,,,,,,,,,,,,,,,,,,,,,,
,,,,,,,,2023-08-16_08h36.00.241,HF_wild_card,2022.2.4,Win32,59.93407252,5642444817bdbe00062a1129,64d2fd46c836a06233681665,64dc7c512c6c239c09739a7b,,,,,,,sngl,resources/DP.BMP,resources/Empty.png,Door2,-0.213888889,0.009259259,1,0,0,0.6993,optionLeft,40,810,1,13,0,13,0,1,,,,,,,,,,,,,,,,,,,,,,,,,,,,,,,,,,,,,,,
,,,,,,,,2023-08-16_08h36.00.241,HF_wild_card,2022.2.4,Win32,59.93407252,5642444817bdbe00062a1129,64d2fd46c836a06233681665,64dc7c512c6c239c09739a7b,,,,,,,sngl,resources/DR.BMP,resources/Empty.png,WildCard_NonEx,-0.240740741,-0.001851852,1,0,0,0.516,optionLeft,45,855,1,14,0,14,0,1,,,,,,,,,,,,,,,,,,,,,,,,,,,,,,,,,,,,,,,
,,,,,,,,2023-08-16_08h36.00.241,HF_wild_card,2022.2.4,Win32,59.93407252,5642444817bdbe00062a1129,64d2fd46c836a06233681665,64dc7c512c6c239c09739a7b,,,,,,,decisionTrl,resources/DY.BMP,resources/DB.BMP,Door4,-0.173148148,0,1,0,0,0.9998,optionLeft,60,915,1,15,0,15,0,1,,,,,,,,,,,,,,,,,,,,,,,,,,,,,,,,,,,,,,,
,,,,,,,,2023-08-16_08h36.00.241,HF_wild_card,2022.2.4,Win32,59.93407252,5642444817bdbe00062a1129,64d2fd46c836a06233681665,64dc7c512c6c239c09739a7b,,,,,,,decisionTrl,resources/DB.BMP,resources/DY.BMP,Door3,-0.258333333,-0.003703704,1,0,0,0.9831,optionLeft,70,985,1,16,0,16,0,1,,,,,,,,,,,,,,,,,,,,,,,,,,,,,,,,,,,,,,,
,,,,,,,,2023-08-16_08h36.00.241,HF_wild_card,2022.2.4,Win32,59.93407252,5642444817bdbe00062a1129,64d2fd46c836a06233681665,64dc7c512c6c239c09739a7b,,,,,,,decisionTrl,resources/DBN.BMP,resources/DP.BMP,Door2,0.303703704,0.014814815,1,0,0,1.1328,optionRight,40,1025,1,17,0,17,0,1,,,,,,,,,,,,,,,,,,,,,,,,,,,,,,,,,,,,,,,
,,,,,,,,2023-08-16_08h36.00.241,HF_wild_card,2022.2.4,Win32,59.93407252,5642444817bdbe00062a1129,64d2fd46c836a06233681665,64dc7c512c6c239c09739a7b,,,,,,,ctch,resources/DP.BMP,resources/DB.BMP,Door3,0.271296296,-0.003703704,1,0,0,0.9164,optionRight,70,1095,1,18,0,18,0,1,,,,,,,,,,,,,,,,,,,,,,,,,,,,,,,,,,,,,,,
,,,,,,,,2023-08-16_08h36.00.241,HF_wild_card,2022.2.4,Win32,59.93407252,5642444817bdbe00062a1129,64d2fd46c836a06233681665,64dc7c512c6c239c09739a7b,,,,,,,decisionTrl,resources/DP.BMP,resources/DBN.BMP,Door2,-0.40462963,-0.000925926,1,0,0,1.2001,optionLeft,40,1135,1,19,0,19,0,1,,,,,,,,,,,,,,,,,,,,,,,,,,,,,,,,,,,,,,,
,,,,,,,,2023-08-16_08h36.00.241,HF_wild_card,2022.2.4,Win32,59.93407252,5642444817bdbe00062a1129,64d2fd46c836a06233681665,64dc7c512c6c239c09739a7b,,,,,,,decisionTrl,resources/DBN.BMP,resources/DR.BMP,WildCard_NonEx,0.17037037,0.171296296,1,0,0,2.6514,optionRight,55,1190,1,20,0,20,0,1,,,,,,,,,,,,,,,,,,,,,,,,,,,,,,,,,,,,,,,
,,,,,,,,2023-08-16_08h36.00.241,HF_wild_card,2022.2.4,Win32,59.93407252,5642444817bdbe00062a1129,64d2fd46c836a06233681665,64dc7c512c6c239c09739a7b,,,,,,,sngl,resources/Empty.png,resources/DBN.BMP,Door1,0.259259259,0.006481481,1,0,0,0.6826,optionRight,30,1220,1,21,0,21,0,1,,,,,,,,,,,,,,,,,,,,,,,,,,,,,,,,,,,,,,,
,,,,,,,,2023-08-16_08h36.00.241,HF_wild_card,2022.2.4,Win32,59.93407252,5642444817bdbe00062a1129,64d2fd46c836a06233681665,64dc7c512c6c239c09739a7b,,,,,,,sngl,resources/Empty.png,resources/DR.BMP,WildCard_NonEx,0.232407407,-0.034259259,1,0,0,0.5655,optionRight,55,1275,1,22,0,22,0,1,,,,,,,,,,,,,,,,,,,,,,,,,,,,,,,,,,,,,,,
,,,,,,,,2023-08-16_08h36.00.241,HF_wild_card,2022.2.4,Win32,59.93407252,5642444817bdbe00062a1129,64d2fd46c836a06233681665,64dc7c512c6c239c09739a7b,,,,,,,decisionTrl,resources/DR.BMP,resources/DP.BMP,WildCard_NonEx,-0.280555556,-0.011111111,1,0,0,1.4335,optionLeft,55,1330,1,23,0,23,0,1,,,,,,,,,,,,,,,,,,,,,,,,,,,,,,,,,,,,,,,
,,,,,,,,2023-08-16_08h36.00.241,HF_wild_card,2022.2.4,Win32,59.93407252,5642444817bdbe00062a1129,64d2fd46c836a06233681665,64dc7c512c6c239c09739a7b,,,,,,,sngl,resources/Empty.png,resources/DB.BMP,Door3,0.391666667,-0.015740741,1,0,0,0.4492,optionRight,70,1400,1,24,0,24,0,1,,,,,,,,,,,,,,,,,,,,,,,,,,,,,,,,,,,,,,,
,,,,,,,,2023-08-16_08h36.00.241,HF_wild_card,2022.2.4,Win32,59.93407252,5642444817bdbe00062a1129,64d2fd46c836a06233681665,64dc7c512c6c239c09739a7b,,,,,,,ctch,resources/DY.BMP,resources/DBN.BMP,Door4,-0.326851852,0.007407407,1,0,0,0.5992,optionLeft,60,1460,1,25,0,25,0,1,,,,,,,,,,,,,,,,,,,,,,,,,,,,,,,,,,,,,,,
,,,,,,,,2023-08-16_08h36.00.241,HF_wild_card,2022.2.4,Win32,59.93407252,5642444817bdbe00062a1129,64d2fd46c836a06233681665,64dc7c512c6c239c09739a7b,,,,,,,ctch,resources/DB.BMP,resources/DP.BMP,Door3,-0.291666667,-0.010185185,1,0,0,0.8662,optionLeft,70,1530,1,26,0,26,0,1,,,,,,,,,,,,,,,,,,,,,,,,,,,,,,,,,,,,,,,
,,,,,,,,2023-08-16_08h36.00.241,HF_wild_card,2022.2.4,Win32,59.93407252,5642444817bdbe00062a1129,64d2fd46c836a06233681665,64dc7c512c6c239c09739a7b,,,,,,,sngl,resources/DB.BMP,resources/Empty.png,Door3,-0.222222222,-0.012037037,1,0,0,0.4492,optionLeft,70,1600,1,27,0,27,0,1,,,,,,,,,,,,,,,,,,,,,,,,,,,,,,,,,,,,,,,
,,,,,,,,2023-08-16_08h36.00.241,HF_wild_card,2022.2.4,Win32,59.93407252,5642444817bdbe00062a1129,64d2fd46c836a06233681665,64dc7c512c6c239c09739a7b,,,,,,,decisionTrl,resources/DB.BMP,resources/DR.BMP,Door3,-0.239814815,-0.007407407,1,0,0,0.5493,optionLeft,70,1670,1,28,0,28,0,1,,,,,,,,,,,,,,,,,,,,,,,,,,,,,,,,,,,,,,,
,,,,,,,,2023-08-16_08h36.00.241,HF_wild_card,2022.2.4,Win32,59.93407252,5642444817bdbe00062a1129,64d2fd46c836a06233681665,64dc7c512c6c239c09739a7b,,,,,,,decisionTrl,resources/DP.BMP,resources/DBN.BMP,Door2,-0.397222222,-0.017592593,1,0,0,1.0999,optionLeft,40,1710,1,29,0,29,0,1,,,,,,,,,,,,,,,,,,,,,,,,,,,,,,,,,,,,,,,
,,,,,,,,2023-08-16_08h36.00.241,HF_wild_card,2022.2.4,Win32,59.93407252,5642444817bdbe00062a1129,64d2fd46c836a06233681665,64dc7c512c6c239c09739a7b,,,,,,,decisionTrl,resources/DY.BMP,resources/DR.BMP,Door4,-0.383333333,-0.015740741,1,0,0,1.2666,optionLeft,60,1770,1,30,0,30,0,1,,,,,,,,,,,,,,,,,,,,,,,,,,,,,,,,,,,,,,,
,,,,,,,,2023-08-16_08h36.00.241,HF_wild_card,2022.2.4,Win32,59.93407252,5642444817bdbe00062a1129,64d2fd46c836a06233681665,64dc7c512c6c239c09739a7b,,,,,,,decisionTrl,resources/DR.BMP,resources/DY.BMP,Door4,0.412037037,-0.012037037,1,0,0,0.5994,optionRight,60,1830,1,31,0,31,0,1,,,,,,,,,,,,,,,,,,,,,,,,,,,,,,,,,,,,,,,
,,,,,,,,2023-08-16_08h36.00.241,HF_wild_card,2022.2.4,Win32,59.93407252,5642444817bdbe00062a1129,64d2fd46c836a06233681665,64dc7c512c6c239c09739a7b,,,,,,,decisionTrl,resources/DY.BMP,resources/DB.BMP,Door3,0.417592593,-0.034259259,1,0,0,0.8997,optionRight,70,1900,1,32,0,32,0,1,,,,,,,,,,,,,,,,,,,,,,,,,,,,,,,,,,,,,,,
,,,,,,,,2023-08-16_08h36.00.241,HF_wild_card,2022.2.4,Win32,59.93407252,5642444817bdbe00062a1129,64d2fd46c836a06233681665,64dc7c512c6c239c09739a7b,,,,,,,ctch,resources/DB.BMP,resources/DP.BMP,Door3,-0.297222222,0.000925926,1,0,0,0.616,optionLeft,70,1970,1,33,0,33,0,1,,,,,,,,,,,,,,,,,,,,,,,,,,,,,,,,,,,,,,,
,,,,,,,,2023-08-16_08h36.00.241,HF_wild_card,2022.2.4,Win32,59.93407252,5642444817bdbe00062a1129,64d2fd46c836a06233681665,64dc7c512c6c239c09739a7b,,,,,,,sngl,resources/Empty.png,resources/DR.BMP,WildCard_NonEx,0.283333333,0.005555556,1,0,0,0.5826,optionRight,45,2015,1,34,0,34,0,1,,,,,,,,,,,,,,,,,,,,,,,,,,,,,,,,,,,,,,,
,,,,,,,,2023-08-16_08h36.00.241,HF_wild_card,2022.2.4,Win32,59.93407252,5642444817bdbe00062a1129,64d2fd46c836a06233681665,64dc7c512c6c239c09739a7b,,,,,,,sngl,resources/DBN.BMP,resources/Empty.png,Door1,-0.338888889,-0.002777778,1,0,0,0.5994,optionLeft,30,2045,1,35,0,35,0,1,,,,,,,,,,,,,,,,,,,,,,,,,,,,,,,,,,,,,,,
,,,,,,,,2023-08-16_08h36.00.241,HF_wild_card,2022.2.4,Win32,59.93407252,5642444817bdbe00062a1129,64d2fd46c836a06233681665,64dc7c512c6c239c09739a7b,,,,,,,decisionTrl,resources/DR.BMP,resources/DBN.BMP,WildCard_NonEx,-0.239814815,0.005555556,1,0,0,0.9155,optionLeft,55,2100,1,36,0,36,0,1,,,,,,,,,,,,,,,,,,,,,,,,,,,,,,,,,,,,,,,
,,,,,,,,2023-08-16_08h36.00.241,HF_wild_card,2022.2.4,Win32,59.93407252,5642444817bdbe00062a1129,64d2fd46c836a06233681665,64dc7c512c6c239c09739a7b,,,,,,,sngl,resources/Empty.png,resources/DY.BMP,Door4,0.332407407,0.001851852,1,0,0,0.4817,optionRight,60,2160,1,37,0,37,0,1,,,,,,,,,,,,,,,,,,,,,,,,,,,,,,,,,,,,,,,
,,,,,,,,2023-08-16_08h36.00.241,HF_wild_card,2022.2.4,Win32,59.93407252,5642444817bdbe00062a1129,64d2fd46c836a06233681665,64dc7c512c6c239c09739a7b,,,,,,,decisionTrl,resources/DY.BMP,resources/DB.BMP,Door3,0.390740741,0.002777778,1,0,0,0.482,optionRight,70,2230,1,38,0,38,0,1,,,,,,,,,,,,,,,,,,,,,,,,,,,,,,,,,,,,,,,
,,,,,,,,2023-08-16_08h36.00.241,HF_wild_card,2022.2.4,Win32,59.93407252,5642444817bdbe00062a1129,64d2fd46c836a06233681665,64dc7c512c6c239c09739a7b,,,,,,,sngl,resources/DY.BMP,resources/Empty.png,Door4,-0.20462963,-0.002777778,1,0,0,0.4825,optionLeft,80,2310,1,39,0,39,0,1,,,,,,,,,,,,,,,,,,,,,,,,,,,,,,,,,,,,,,,
,,,,,,,,2023-08-16_08h36.00.241,HF_wild_card,2022.2.4,Win32,59.93407252,5642444817bdbe00062a1129,64d2fd46c836a06233681665,64dc7c512c6c239c09739a7b,,,,,,,sngl,resources/Empty.png,resources/DP.BMP,Door2,0.239814815,0.012962963,1,0,0,0.6659,optionRight,20,2330,1,40,0,40,0,1,,,,,,,,,,,,,,,,,,,,,,,,,,,,,,,,,,,,,,,
,,,,,,,,2023-08-16_08h36.00.241,HF_wild_card,2022.2.4,Win32,59.93407252,5642444817bdbe00062a1129,64d2fd46c836a06233681665,64dc7c512c6c239c09739a7b,,,,,,,decisionTrl,resources/DBN.BMP,resources/DP.BMP,Door1,-0.25462963,0.002777778,1,0,0,0.8664,optionLeft,30,2360,1,41,0,41,0,1,,,,,,,,,,,,,,,,,,,,,,,,,,,,,,,,,,,,,,,
,,,,,,,,2023-08-16_08h36.00.241,HF_wild_card,2022.2.4,Win32,59.93407252,5642444817bdbe00062a1129,64d2fd46c836a06233681665,64dc7c512c6c239c09739a7b,,,,,,,decisionTrl,resources/DBN.BMP,resources/DP.BMP,Door1,-0.235185185,0.017592593,1,0,0,1.2502,optionLeft,30,2390,1,42,0,42,0,1,,,,,,,,,,,,,,,,,,,,,,,,,,,,,,,,,,,,,,,
,,,,,,,,2023-08-16_08h36.00.241,HF_wild_card,2022.2.4,Win32,59.93407252,5642444817bdbe00062a1129,64d2fd46c836a06233681665,64dc7c512c6c239c09739a7b,,,,,,,ctch,resources/DP.BMP,resources/DB.BMP,Door3,0.336111111,0.018518519,1,0,0,0.7826,optionRight,70,2460,1,43,0,43,0,1,,,,,,,,,,,,,,,,,,,,,,,,,,,,,,,,,,,,,,,
,,,,,,,,2023-08-16_08h36.00.241,HF_wild_card,2022.2.4,Win32,59.93407252,5642444817bdbe00062a1129,64d2fd46c836a06233681665,64dc7c512c6c239c09739a7b,,,,,,,,,,,,,,,,,,,,,,,,,,0,0,0,0,1,,,,,,,,,,,,,,,,,,,,,,,,,,,,,,,,,,
,,,,,,,,2023-08-16_08h36.00.241,HF_wild_card,2022.2.4,Win32,59.93407252,5642444817bdbe00062a1129,64d2fd46c836a06233681665,64dc7c512c6c239c09739a7b,,,,,,,ctch,resources/DB.BMP,resources/DP.BMP,Door3,-0.285185185,-0.140740741,1,0,0,1.1424,optionLeft,70,2530,2,0,0,0,0,1,,,,,,,,,,,,,,,,,,,,,,,,,,,,,,,,,,,,,,,
,,,,,,,,2023-08-16_08h36.00.241,HF_wild_card,2022.2.4,Win32,59.93407252,5642444817bdbe00062a1129,64d2fd46c836a06233681665,64dc7c512c6c239c09739a7b,,,,,,,sngl,resources/DR.BMP,resources/Empty.png,WildCard_NonEx,-0.240740741,0.038888889,1,0,0,0.6099,optionLeft,45,2575,2,1,0,1,0,1,,,,,,,,,,,,,,,,,,,,,,,,,,,,,,,,,,,,,,,
,,,,,,,,2023-08-16_08h36.00.241,HF_wild_card,2022.2.4,Win32,59.93407252,5642444817bdbe00062a1129,64d2fd46c836a06233681665,64dc7c512c6c239c09739a7b,,,,,,,sngl,resources/DR.BMP,resources/Empty.png,WildCard_NonEx,-0.255555556,0.006481481,1,0,0,0.8163,optionLeft,55,2630,2,2,0,2,0,1,,,,,,,,,,,,,,,,,,,,,,,,,,,,,,,,,,,,,,,
,,,,,,,,2023-08-16_08h36.00.241,HF_wild_card,2022.2.4,Win32,59.93407252,5642444817bdbe00062a1129,64d2fd46c836a06233681665,64dc7c512c6c239c09739a7b,,,,,,,ctch,resources/DP.BMP,resources/DB.BMP,Door3,0.351851852,0.024074074,1,0,0,0.5491,optionRight,70,2700,2,3,0,3,0,1,,,,,,,,,,,,,,,,,,,,,,,,,,,,,,,,,,,,,,,
,,,,,,,,2023-08-16_08h36.00.241,HF_wild_card,2022.2.4,Win32,59.93407252,5642444817bdbe00062a1129,64d2fd46c836a06233681665,64dc7c512c6c239c09739a7b,,,,,,,ctch,resources/DBN.BMP,resources/DY.BMP,Door4,0.433333333,-0.017592593,1,0,0,0.599,optionRight,80,2780,2,4,0,4,0,1,,,,,,,,,,,,,,,,,,,,,,,,,,,,,,,,,,,,,,,
,,,,,,,,2023-08-16_08h36.00.241,HF_wild_card,2022.2.4,Win32,59.93407252,5642444817bdbe00062a1129,64d2fd46c836a06233681665,64dc7c512c6c239c09739a7b,,,,,,,sngl,resources/Empty.png,resources/DY.BMP,Door4,0.361111111,-0.02037037,1,0,0,0.4158,optionRight,80,2860,2,5,0,5,0,1,,,,,,,,,,,,,,,,,,,,,,,,,,,,,,,,,,,,,,,
,,,,,,,,2023-08-16_08h36.00.241,HF_wild_card,2022.2.4,Win32,59.93407252,5642444817bdbe00062a1129,64d2fd46c836a06233681665,64dc7c512c6c239c09739a7b,,,,,,,sngl,resources/DY.BMP,resources/Empty.png,Door4,-0.281481481,-0.041666667,1,0,0,0.4655,optionLeft,60,2920,2,6,0,6,0,1,,,,,,,,,,,,,,,,,,,,,,,,,,,,,,,,,,,,,,,
,,,,,,,,2023-08-16_08h36.00.241,HF_wild_card,2022.2.4,Win32,59.93407252,5642444817bdbe00062a1129,64d2fd46c836a06233681665,64dc7c512c6c239c09739a7b,,,,,,,sngl,resources/Empty.png,resources/DP.BMP,Door2,0.500925926,-0.012962963,1,0,0,0.6659,optionRight,40,2960,2,7,0,7,0,1,,,,,,,,,,,,,,,,,,,,,,,,,,,,,,,,,,,,,,,
,,,,,,,,2023-08-16_08h36.00.241,HF_wild_card,2022.2.4,Win32,59.93407252,5642444817bdbe00062a1129,64d2fd46c836a06233681665,64dc7c512c6c239c09739a7b,,,,,,,decisionTrl,resources/DY.BMP,resources/DR.BMP,Door4,-0.277777778,-0.002777778,1,0,0,0.4993,optionLeft,80,3040,2,8,0,8,0,1,,,,,,,,,,,,,,,,,,,,,,,,,,,,,,,,,,,,,,,
,,,,,,,,2023-08-16_08h36.00.241,HF_wild_card,2022.2.4,Win32,59.93407252,5642444817bdbe00062a1129,64d2fd46c836a06233681665,64dc7c512c6c239c09739a7b,,,,,,,decisionTrl,resources/DBN.BMP,resources/DR.BMP,WildCard_NonEx,0.213888889,0.012962963,1,0,0,0.9331,optionRight,45,3085,2,9,0,9,0,1,,,,,,,,,,,,,,,,,,,,,,,,,,,,,,,,,,,,,,,
,,,,,,,,2023-08-16_08h36.00.241,HF_wild_card,2022.2.4,Win32,59.93407252,5642444817bdbe00062a1129,64d2fd46c836a06233681665,64dc7c512c6c239c09739a7b,,,,,,,sngl,resources/DB.BMP,resources/Empty.png,Door3,-0.238888889,0.065740741,1,0,0,10.6263,optionLeft,70,3155,2,10,0,10,0,1,,,,,,,,,,,,,,,,,,,,,,,,,,,,,,,,,,,,,,,
,,,,,,,,2023-08-16_08h36.00.241,HF_wild_card,2022.2.4,Win32,59.93407252,5642444817bdbe00062a1129,64d2fd46c836a06233681665,64dc7c512c6c239c09739a7b,,,,,,,decisionTrl,resources/DBN.BMP,resources/DP.BMP,Door2,0.333333333,-0.039814815,1,0,0,1.233,optionRight,20,3175,2,11,0,11,0,1,,,,,,,,,,,,,,,,,,,,,,,,,,,,,,,,,,,,,,,
,,,,,,,,2023-08-16_08h36.00.241,HF_wild_card,2022.2.4,Win32,59.93407252,5642444817bdbe00062a1129,64d2fd46c836a06233681665,64dc7c512c6c239c09739a7b,,,,,,,decisionTrl,resources/DB.BMP,resources/DR.BMP,Door3,-0.356481481,0.007407407,1,0,0,1.1165,optionLeft,70,3245,2,12,0,12,0,1,,,,,,,,,,,,,,,,,,,,,,,,,,,,,,,,,,,,,,,
,,,,,,,,2023-08-16_08h36.00.241,HF_wild_card,2022.2.4,Win32,59.93407252,5642444817bdbe00062a1129,64d2fd46c836a06233681665,64dc7c512c6c239c09739a7b,,,,,,,sngl,resources/DP.BMP,resources/Empty.png,Door2,-0.253703704,-0.014814815,1,0,0,0.583,optionLeft,20,3265,2,13,0,13,0,1,,,,,,,,,,,,,,,,,,,,,,,,,,,,,,,,,,,,,,,
,,,,,,,,2023-08-16_08h36.00.241,HF_wild_card,2022.2.4,Win32,59.93407252,5642444817bdbe00062a1129,64d2fd46c836a06233681665,64dc7c512c6c239c09739a7b,,,,,,,sngl,resources/DBN.BMP,resources/Empty.png,Door1,-0.257407407,0.000925926,1,0,0,0.5656,optionLeft,30,3295,2,14,0,14,0,1,,,,,,,,,,,,,,,,,,,,,,,,,,,,,,,,,,,,,,,
,,,,,,,,2023-08-16_08h36.00.241,HF_wild_card,2022.2.4,Win32,59.93407252,5642444817bdbe00062a1129,64d2fd46c836a06233681665,64dc7c512c6c239c09739a7b,,,,,,,decisionTrl,resources/DY.BMP,resources/DB.BMP,Door3,0.362037037,0.009259259,1,0,0,1.1497,optionRight,70,3365,2,15,0,15,0,1,,,,,,,,,,,,,,,,,,,,,,,,,,,,,,,,,,,,,,,
,,,,,,,,2023-08-16_08h36.00.241,HF_wild_card,2022.2.4,Win32,59.93407252,5642444817bdbe00062a1129,64d2fd46c836a06233681665,64dc7c512c6c239c09739a7b,,,,,,,decisionTrl,resources/DP.BMP,resources/DBN.BMP,Door2,-0.393518519,-0.027777778,1,0,0,1.7672,optionLeft,40,3405,2,16,0,16,0,1,,,,,,,,,,,,,,,,,,,,,,,,,,,,,,,,,,,,,,,
,,,,,,,,2023-08-16_08h36.00.241,HF_wild_card,2022.2.4,Win32,59.93407252,5642444817bdbe00062a1129,64d2fd46c836a06233681665,64dc7c512c6c239c09739a7b,,,,,,,decisionTrl,resources/DY.BMP,resources/DB.BMP,Door4,-0.166666667,0.012962963,1,0,0,1.1663,optionLeft,60,3465,2,17,0,17,0,1,,,,,,,,,,,,,,,,,,,,,,,,,,,,,,,,,,,,,,,
,,,,,,,,2023-08-16_08h36.00.241,HF_wild_card,2022.2.4,Win32,59.93407252,5642444817bdbe00062a1129,64d2fd46c836a06233681665,64dc7c512c6c239c09739a7b,,,,,,,decisionTrl,resources/DB.BMP,resources/DY.BMP,Door4,0.281481481,0.041666667,1,0,0,0.6827,optionRight,60,3525,2,18,0,18,0,1,,,,,,,,,,,,,,,,,,,,,,,,,,,,,,,,,,,,,,,
,,,,,,,,2023-08-16_08h36.00.241,HF_wild_card,2022.2.4,Win32,59.93407252,5642444817bdbe00062a1129,64d2fd46c836a06233681665,64dc7c512c6c239c09739a7b,,,,,,,decisionTrl,resources/DBN.BMP,resources/DP.BMP,Door1,-0.299074074,0.008333333,1,0,0,2.4459,optionLeft,30,3555,2,19,0,19,0,1,,,,,,,,,,,,,,,,,,,,,,,,,,,,,,,,,,,,,,,
,,,,,,,,2023-08-16_08h36.00.241,HF_wild_card,2022.2.4,Win32,59.93407252,5642444817bdbe00062a1129,64d2fd46c836a06233681665,64dc7c512c6c239c09739a7b,,,,,,,ctch,resources/DP.BMP,resources/DB.BMP,Door3,0.219444444,0.015740741,1,0,0,0.883,optionRight,70,3625,2,20,0,20,0,1,,,,,,,,,,,,,,,,,,,,,,,,,,,,,,,,,,,,,,,
,,,,,,,,2023-08-16_08h36.00.241,HF_wild_card,2022.2.4,Win32,59.93407252,5642444817bdbe00062a1129,64d2fd46c836a06233681665,64dc7c512c6c239c09739a7b,,,,,,,decisionTrl,resources/DP.BMP,resources/DBN.BMP,Door1,0.2,0.011111111,1,0,0,1.7006,optionRight,30,3655,2,21,0,21,0,1,,,,,,,,,,,,,,,,,,,,,,,,,,,,,,,,,,,,,,,
,,,,,,,,2023-08-16_08h36.00.241,HF_wild_card,2022.2.4,Win32,59.93407252,5642444817bdbe00062a1129,64d2fd46c836a06233681665,64dc7c512c6c239c09739a7b,,,,,,,decisionTrl,resources/DP.BMP,resources/DR.BMP,WildCard_NonEx,0.217592593,0.018518519,1,0,0,0.7996,optionRight,55,3710,2,22,0,22,0,1,,,,,,,,,,,,,,,,,,,,,,,,,,,,,,,,,,,,,,,
,,,,,,,,2023-08-16_08h36.00.241,HF_wild_card,2022.2.4,Win32,59.93407252,5642444817bdbe00062a1129,64d2fd46c836a06233681665,64dc7c512c6c239c09739a7b,,,,,,,decisionTrl,resources/DB.BMP,resources/DY.BMP,Door3,-0.384259259,0.009259259,1,0,0,1.8673,optionLeft,70,3780,2,23,0,23,0,1,,,,,,,,,,,,,,,,,,,,,,,,,,,,,,,,,,,,,,,
,,,,,,,,2023-08-16_08h36.00.241,HF_wild_card,2022.2.4,Win32,59.93407252,5642444817bdbe00062a1129,64d2fd46c836a06233681665,64dc7c512c6c239c09739a7b,,,,,,,decisionTrl,resources/DBN.BMP,resources/DP.BMP,Door1,-0.267592593,-0.001851852,1,0,0,0.9837,optionLeft,30,3810,2,24,0,24,0,1,,,,,,,,,,,,,,,,,,,,,,,,,,,,,,,,,,,,,,,
,,,,,,,,2023-08-16_08h36.00.241,HF_wild_card,2022.2.4,Win32,59.93407252,5642444817bdbe00062a1129,64d2fd46c836a06233681665,64dc7c512c6c239c09739a7b,,,,,,,ctch,resources/DB.BMP,resources/DP.BMP,Door3,-0.275,-0.012962963,1,0,0,0.8039,optionLeft,70,3880,2,25,0,25,0,1,,,,,,,,,,,,,,,,,,,,,,,,,,,,,,,,,,,,,,,
,,,,,,,,2023-08-16_08h36.00.241,HF_wild_card,2022.2.4,Win32,59.93407252,5642444817bdbe00062a1129,64d2fd46c836a06233681665,64dc7c512c6c239c09739a7b,,,,,,,decisionTrl,resources/DR.BMP,resources/DBN.BMP,WildCard_NonEx,-0.284259259,-0.001851852,1,0,0,1.8172,optionLeft,55,3935,2,26,0,26,0,1,,,,,,,,,,,,,,,,,,,,,,,,,,,,,,,,,,,,,,,
,,,,,,,,2023-08-16_08h36.00.241,HF_wild_card,2022.2.4,Win32,59.93407252,5642444817bdbe00062a1129,64d2fd46c836a06233681665,64dc7c512c6c239c09739a7b,,,,,,,decisionTrl,resources/DR.BMP,resources/DP.BMP,WildCard_NonEx,-0.227777778,-0.013888889,1,0,0,0.7496,optionLeft,45,3980,2,27,0,27,0,1,,,,,,,,,,,,,,,,,,,,,,,,,,,,,,,,,,,,,,,
,,,,,,,,2023-08-16_08h36.00.241,HF_wild_card,2022.2.4,Win32,59.93407252,5642444817bdbe00062a1129,64d2fd46c836a06233681665,64dc7c512c6c239c09739a7b,,,,,,,decisionTrl,resources/DR.BMP,resources/DB.BMP,Door3,0.247222222,0.005555556,1,0,0,0.737,optionRight,70,4050,2,28,0,28,0,1,,,,,,,,,,,,,,,,,,,,,,,,,,,,,,,,,,,,,,,
,,,,,,,,2023-08-16_08h36.00.241,HF_wild_card,2022.2.4,Win32,59.93407252,5642444817bdbe00062a1129,64d2fd46c836a06233681665,64dc7c512c6c239c09739a7b,,,,,,,decisionTrl,resources/DBN.BMP,resources/DP.BMP,Door2,0.307407407,0.011111111,1,0,0,1.2835,optionRight,40,4090,2,29,0,29,0,1,,,,,,,,,,,,,,,,,,,,,,,,,,,,,,,,,,,,,,,
,,,,,,,,2023-08-16_08h36.00.241,HF_wild_card,2022.2.4,Win32,59.93407252,5642444817bdbe00062a1129,64d2fd46c836a06233681665,64dc7c512c6c239c09739a7b,,,,,,,sngl,resources/Empty.png,resources/DB.BMP,Door3,0.300925926,0.024074074,1,0,0,0.5252,optionRight,70,4160,2,30,0,30,0,1,,,,,,,,,,,,,,,,,,,,,,,,,,,,,,,,,,,,,,,
,,,,,,,,2023-08-16_08h36.00.241,HF_wild_card,2022.2.4,Win32,59.93407252,5642444817bdbe00062a1129,64d2fd46c836a06233681665,64dc7c512c6c239c09739a7b,,,,,,,decisionTrl,resources/DP.BMP,resources/DBN.BMP,Door2,-0.366666667,-0.005555556,1,0,0,1.2208,optionLeft,40,4200,2,31,0,31,0,1,,,,,,,,,,,,,,,,,,,,,,,,,,,,,,,,,,,,,,,
,,,,,,,,2023-08-16_08h36.00.241,HF_wild_card,2022.2.4,Win32,59.93407252,5642444817bdbe00062a1129,64d2fd46c836a06233681665,64dc7c512c6c239c09739a7b,,,,,,,ctch,resources/DBN.BMP,resources/DY.BMP,Door4,0.6,0.005555556,1,0,0,0.9667,optionRight,80,4280,2,32,0,32,0,1,,,,,,,,,,,,,,,,,,,,,,,,,,,,,,,,,,,,,,,
,,,,,,,,2023-08-16_08h36.00.241,HF_wild_card,2022.2.4,Win32,59.93407252,5642444817bdbe00062a1129,64d2fd46c836a06233681665,64dc7c512c6c239c09739a7b,,,,,,,ctch,resources/DY.BMP,resources/DBN.BMP,Door4,-0.185185185,-0.008333333,1,0,0,0.587,optionLeft,60,4340,2,33,0,33,0,1,,,,,,,,,,,,,,,,,,,,,,,,,,,,,,,,,,,,,,,
,,,,,,,,2023-08-16_08h36.00.241,HF_wild_card,2022.2.4,Win32,59.93407252,5642444817bdbe00062a1129,64d2fd46c836a06233681665,64dc7c512c6c239c09739a7b,,,,,,,decisionTrl,resources/DB.BMP,resources/DY.BMP,Door3,-0.225925926,-0.02037037,1,0,0,0.9498,optionLeft,70,4410,2,34,0,34,0,1,,,,,,,,,,,,,,,,,,,,,,,,,,,,,,,,,,,,,,,
,,,,,,,,2023-08-16_08h36.00.241,HF_wild_card,2022.2.4,Win32,59.93407252,5642444817bdbe00062a1129,64d2fd46c836a06233681665,64dc7c512c6c239c09739a7b,,,,,,,sngl,resources/Empty.png,resources/DR.BMP,WildCard_NonEx,0.376851852,0.00462963,1,0,0,0.6032,optionRight,55,4465,2,35,0,35,0,1,,,,,,,,,,,,,,,,,,,,,,,,,,,,,,,,,,,,,,,
,,,,,,,,2023-08-16_08h36.00.241,HF_wild_card,2022.2.4,Win32,59.93407252,5642444817bdbe00062a1129,64d2fd46c836a06233681665,64dc7c512c6c239c09739a7b,,,,,,,decisionTrl,resources/DR.BMP,resources/DY.BMP,Door4,0.258333333,0.014814815,1,0,0,0.7033,optionRight,80,4545,2,36,0,36,0,1,,,,,,,,,,,,,,,,,,,,,,,,,,,,,,,,,,,,,,,
,,,,,,,,2023-08-16_08h36.00.241,HF_wild_card,2022.2.4,Win32,59.93407252,5642444817bdbe00062a1129,64d2fd46c836a06233681665,64dc7c512c6c239c09739a7b,,,,,,,sngl,resources/Empty.png,resources/DBN.BMP,Door1,0.274074074,0.025925926,1,0,0,0.7461,optionRight,30,4575,2,37,0,37,0,1,,,,,,,,,,,,,,,,,,,,,,,,,,,,,,,,,,,,,,,
,,,,,,,,2023-08-16_08h36.00.241,HF_wild_card,2022.2.4,Win32,59.93407252,5642444817bdbe00062a1129,64d2fd46c836a06233681665,64dc7c512c6c239c09739a7b,,,,,,,decisionTrl,resources/DP.BMP,resources/DBN.BMP,Door2,-0.207407407,-0.013888889,1,0,0,1.1666,optionLeft,40,4615,2,38,0,38,0,1,,,,,,,,,,,,,,,,,,,,,,,,,,,,,,,,,,,,,,,
,,,,,,,,2023-08-16_08h36.00.241,HF_wild_card,2022.2.4,Win32,59.93407252,5642444817bdbe00062a1129,64d2fd46c836a06233681665,64dc7c512c6c239c09739a7b,,,,,,,ctch,resources/DY.BMP,resources/DBN.BMP,Door4,-0.221296296,-0.016666667,1,0,0,0.8162,optionLeft,80,4695,2,39,0,39,0,1,,,,,,,,,,,,,,,,,,,,,,,,,,,,,,,,,,,,,,,
,,,,,,,,2023-08-16_08h36.00.241,HF_wild_card,2022.2.4,Win32,59.93407252,5642444817bdbe00062a1129,64d2fd46c836a06233681665,64dc7c512c6c239c09739a7b,,,,,,,sngl,resources/Empty.png,resources/DR.BMP,WildCard_NonEx,0.378703704,-0.031481481,1,0,0,0.553,optionRight,45,4740,2,40,0,40,0,1,,,,,,,,,,,,,,,,,,,,,,,,,,,,,,,,,,,,,,,
,,,,,,,,2023-08-16_08h36.00.241,HF_wild_card,2022.2.4,Win32,59.93407252,5642444817bdbe00062a1129,64d2fd46c836a06233681665,64dc7c512c6c239c09739a7b,,,,,,,decisionTrl,resources/DY.BMP,resources/DB.BMP,Door4,-0.171296296,-0.000925926,1,0,0,0.7038,optionLeft,60,4800,2,41,0,41,0,1,,,,,,,,,,,,,,,,,,,,,,,,,,,,,,,,,,,,,,,
,,,,,,,,2023-08-16_08h36.00.241,HF_wild_card,2022.2.4,Win32,59.93407252,5642444817bdbe00062a1129,64d2fd46c836a06233681665,64dc7c512c6c239c09739a7b,,,,,,,decisionTrl,resources/DB.BMP,resources/DY.BMP,Door3,-0.132407407,-0.02037037,1,0,0,0.5826,optionLeft,70,4870,2,42,0,42,0,1,,,,,,,,,,,,,,,,,,,,,,,,,,,,,,,,,,,,,,,
,,,,,,,,2023-08-16_08h36.00.241,HF_wild_card,2022.2.4,Win32,59.93407252,5642444817bdbe00062a1129,64d2fd46c836a06233681665,64dc7c512c6c239c09739a7b,,,,,,,decisionTrl,resources/DY.BMP,resources/DB.BMP,Door3,0.25462963,0.062037037,1,0,0,1.2833,optionRight,70,4940,2,43,0,43,0,1,,,,,,,,,,,,,,,,,,,,,,,,,,,,,,,,,,,,,,,
,,,,,,,,2023-08-16_08h36.00.241,HF_wild_card,2022.2.4,Win32,59.93407252,5642444817bdbe00062a1129,64d2fd46c836a06233681665,64dc7c512c6c239c09739a7b,,,,,,,,,,,,,,,,,,,,,,,,,,1,0,1,0,1,,,,,,,,,,,,,,,,,,,,,,,,,,,,,,,,,,
,,,,,,,,2023-08-16_08h36.00.241,HF_wild_card,2022.2.4,Win32,59.93407252,5642444817bdbe00062a1129,64d2fd46c836a06233681665,64dc7c512c6c239c09739a7b,,,,,,,decisionTrl,resources/DY.BMP,resources/DB.BMP,Door3,0.312962963,-0.00462963,1,0,0,1.1631,optionRight,70,5010,3,0,0,0,0,1,,,,,,,,,,,,,,,,,,,,,,,,,,,,,,,,,,,,,,,
,,,,,,,,2023-08-16_08h36.00.241,HF_wild_card,2022.2.4,Win32,59.93407252,5642444817bdbe00062a1129,64d2fd46c836a06233681665,64dc7c512c6c239c09739a7b,,,,,,,decisionTrl,resources/DP.BMP,resources/DBN.BMP,Door2,-0.226851852,-0.046296296,1,0,0,1.1999,optionLeft,40,5050,3,1,0,1,0,1,,,,,,,,,,,,,,,,,,,,,,,,,,,,,,,,,,,,,,,
,,,,,,,,2023-08-16_08h36.00.241,HF_wild_card,2022.2.4,Win32,59.93407252,5642444817bdbe00062a1129,64d2fd46c836a06233681665,64dc7c512c6c239c09739a7b,,,,,,,ctch,resources/DY.BMP,resources/DBN.BMP,Door4,-0.225925926,0.019444444,1,0,0,0.6986,optionLeft,60,5110,3,2,0,2,0,1,,,,,,,,,,,,,,,,,,,,,,,,,,,,,,,,,,,,,,,
,,,,,,,,2023-08-16_08h36.00.241,HF_wild_card,2022.2.4,Win32,59.93407252,5642444817bdbe00062a1129,64d2fd46c836a06233681665,64dc7c512c6c239c09739a7b,,,,,,,decisionTrl,resources/DR.BMP,resources/DY.BMP,Door4,0.301851852,0.07037037,1,0,0,0.566,optionRight,80,5190,3,3,0,3,0,1,,,,,,,,,,,,,,,,,,,,,,,,,,,,,,,,,,,,,,,
,,,,,,,,2023-08-16_08h36.00.241,HF_wild_card,2022.2.4,Win32,59.93407252,5642444817bdbe00062a1129,64d2fd46c836a06233681665,64dc7c512c6c239c09739a7b,,,,,,,sngl,resources/DR.BMP,resources/Empty.png,WildCard_NonEx,-0.266666667,-0.028703704,1,0,0,0.4868,optionLeft,55,5245,3,4,0,4,0,1,,,,,,,,,,,,,,,,,,,,,,,,,,,,,,,,,,,,,,,
,,,,,,,,2023-08-16_08h36.00.241,HF_wild_card,2022.2.4,Win32,59.93407252,5642444817bdbe00062a1129,64d2fd46c836a06233681665,64dc7c512c6c239c09739a7b,,,,,,,decisionTrl,resources/DB.BMP,resources/DY.BMP,Door3,-0.258333333,-0.02962963,1,0,0,1.0834,optionLeft,70,5315,3,5,0,5,0,1,,,,,,,,,,,,,,,,,,,,,,,,,,,,,,,,,,,,,,,
,,,,,,,,2023-08-16_08h36.00.241,HF_wild_card,2022.2.4,Win32,59.93407252,5642444817bdbe00062a1129,64d2fd46c836a06233681665,64dc7c512c6c239c09739a7b,,,,,,,decisionTrl,resources/DBN.BMP,resources/DP.BMP,Door2,0.263888889,0.00462963,1,0,0,0.8329,optionRight,20,5335,3,6,0,6,0,1,,,,,,,,,,,,,,,,,,,,,,,,,,,,,,,,,,,,,,,
,,,,,,,,2023-08-16_08h36.00.241,HF_wild_card,2022.2.4,Win32,59.93407252,5642444817bdbe00062a1129,64d2fd46c836a06233681665,64dc7c512c6c239c09739a7b,,,,,,,decisionTrl,resources/DB.BMP,resources/DY.BMP,Door3,-0.303703704,0.006481481,1,0,0,1.0664,optionLeft,70,5405,3,7,0,7,0,1,,,,,,,,,,,,,,,,,,,,,,,,,,,,,,,,,,,,,,,
,,,,,,,,2023-08-16_08h36.00.241,HF_wild_card,2022.2.4,Win32,59.93407252,5642444817bdbe00062a1129,64d2fd46c836a06233681665,64dc7c512c6c239c09739a7b,,,,,,,decisionTrl,resources/DB.BMP,resources/DY.BMP,Door4,0.329179647,0.089823468,1,0,0,2.3178,optionRight,80,5485,3,8,0,8,0,1,,,,,,,,,,,,,,,,,,,,,,,,,,,,,,,,,,,,,,,
,,,,,,,,2023-08-16_08h36.00.241,HF_wild_card,2022.2.4,Win32,59.93407252,5642444817bdbe00062a1129,64d2fd46c836a06233681665,64dc7c512c6c239c09739a7b,,,,,,,ctch,resources/DBN.BMP,resources/DY.BMP,Door4,-0.002076843,0.072170301,1,0,0,0.3744,optionRight,80,5565,3,9,0,9,0,1,,,,,,,,,,,,,,,,,,,,,,,,,,,,,,,,,,,,,,,
,,,,,,,,2023-08-16_08h36.00.241,HF_wild_card,2022.2.4,Win32,59.93407252,5642444817bdbe00062a1129,64d2fd46c836a06233681665,64dc7c512c6c239c09739a7b,,,,,,,ctch,resources/DB.BMP,resources/DP.BMP,Door3,-0.038421599,0.008826584,1,0,0,0.2208,optionLeft,70,5635,3,10,0,10,0,1,,,,,,,,,,,,,,,,,,,,,,,,,,,,,,,,,,,,,,,
,,,,,,,,2023-08-16_08h36.00.241,HF_wild_card,2022.2.4,Win32,59.93407252,5642444817bdbe00062a1129,64d2fd46c836a06233681665,64dc7c512c6c239c09739a7b,,,,,,,decisionTrl,resources/DR.BMP,resources/DBN.BMP,WildCard_NonEx,-0.198338525,0.003634476,1,0,0,1.8456,optionLeft,45,5680,3,11,0,11,0,1,,,,,,,,,,,,,,,,,,,,,,,,,,,,,,,,,,,,,,,
,,,,,,,,2023-08-16_08h36.00.241,HF_wild_card,2022.2.4,Win32,59.93407252,5642444817bdbe00062a1129,64d2fd46c836a06233681665,64dc7c512c6c239c09739a7b,,,,,,,decisionTrl,resources/DB.BMP,resources/DR.BMP,Door3,-0.221183801,0.03271028,1,0,0,1.0669,optionLeft,70,5750,3,12,0,12,0,1,,,,,,,,,,,,,,,,,,,,,,,,,,,,,,,,,,,,,,,
,,,,,,,,2023-08-16_08h36.00.241,HF_wild_card,2022.2.4,Win32,59.93407252,5642444817bdbe00062a1129,64d2fd46c836a06233681665,64dc7c512c6c239c09739a7b,,,,,,,sngl,resources/Empty.png,resources/DB.BMP,Door3,0.012461059,-0.002596054,1,0,0,0.2138,optionRight,70,5820,3,13,0,13,0,1,,,,,,,,,,,,,,,,,,,,,,,,,,,,,,,,,,,,,,,
,,,,,,,,2023-08-16_08h36.00.241,HF_wild_card,2022.2.4,Win32,59.93407252,5642444817bdbe00062a1129,64d2fd46c836a06233681665,64dc7c512c6c239c09739a7b,,,,,,,decisionTrl,resources/DBN.BMP,resources/DR.BMP,WildCard_NonEx,0.009345794,0.065939772,1,0,0,0.3279,optionRight,45,5865,3,14,0,14,0,1,,,,,,,,,,,,,,,,,,,,,,,,,,,,,,,,,,,,,,,
,,,,,,,,2023-08-16_08h36.00.241,HF_wild_card,2022.2.4,Win32,59.93407252,5642444817bdbe00062a1129,64d2fd46c836a06233681665,64dc7c512c6c239c09739a7b,,,,,,,sngl,resources/Empty.png,resources/DY.BMP,Door4,0.390446521,0.113707165,1,0,0,3.9973,optionRight,60,5925,3,15,0,15,0,1,,,,,,,,,,,,,,,,,,,,,,,,,,,,,,,,,,,,,,,
,,,,,,,,2023-08-16_08h36.00.241,HF_wild_card,2022.2.4,Win32,59.93407252,5642444817bdbe00062a1129,64d2fd46c836a06233681665,64dc7c512c6c239c09739a7b,,,,,,,sngl,resources/DP.BMP,resources/Empty.png,Door2,-0.359293873,-0.021287643,1,0,0,1.1176,optionLeft,40,5965,3,16,0,16,0,1,,,,,,,,,,,,,,,,,,,,,,,,,,,,,,,,,,,,,,,
,,,,,,,,2023-08-16_08h36.00.241,HF_wild_card,2022.2.4,Win32,59.93407252,5642444817bdbe00062a1129,64d2fd46c836a06233681665,64dc7c512c6c239c09739a7b,,,,,,,sngl,resources/Empty.png,resources/DR.BMP,WildCard_NonEx,0.38317757,0.003634476,1,0,0,0.8088,optionRight,45,6010,3,17,0,17,0,1,,,,,,,,,,,,,,,,,,,,,,,,,,,,,,,,,,,,,,,
,,,,,,,,2023-08-16_08h36.00.241,HF_wild_card,2022.2.4,Win32,59.93407252,5642444817bdbe00062a1129,64d2fd46c836a06233681665,64dc7c512c6c239c09739a7b,,,,,,,decisionTrl,resources/DR.BMP,resources/DP.BMP,WildCard_NonEx,-0.209761163,-0.022326064,1,0,0,1.4223,optionLeft,55,6065,3,18,0,18,0,1,,,,,,,,,,,,,,,,,,,,,,,,,,,,,,,,,,,,,,,
,,,,,,,,2023-08-16_08h36.00.241,HF_wild_card,2022.2.4,Win32,59.93407252,5642444817bdbe00062a1129,64d2fd46c836a06233681665,64dc7c512c6c239c09739a7b,,,,,,,decisionTrl,resources/DP.BMP,resources/DBN.BMP,Door2,-0.232606438,-0.000519211,1,0,0,1.2042,optionLeft,20,6085,3,19,0,19,0,1,,,,,,,,,,,,,,,,,,,,,,,,,,,,,,,,,,,,,,,
,,,,,,,,2023-08-16_08h36.00.241,HF_wild_card,2022.2.4,Win32,59.93407252,5642444817bdbe00062a1129,64d2fd46c836a06233681665,64dc7c512c6c239c09739a7b,,,,,,,decisionTrl,resources/DY.BMP,resources/DB.BMP,Door3,0.224299065,0.04517134,1,0,0,1.9378,optionRight,70,6155,3,20,0,20,0,1,,,,,,,,,,,,,,,,,,,,,,,,,,,,,,,,,,,,,,,
,,,,,,,,2023-08-16_08h36.00.241,HF_wild_card,2022.2.4,Win32,59.93407252,5642444817bdbe00062a1129,64d2fd46c836a06233681665,64dc7c512c6c239c09739a7b,,,,,,,sngl,resources/DY.BMP,resources/Empty.png,Door4,-0.368639668,0.00674974,1,0,0,0.7382,optionLeft,80,6235,3,21,0,21,0,1,,,,,,,,,,,,,,,,,,,,,,,,,,,,,,,,,,,,,,,
,,,,,,,,2023-08-16_08h36.00.241,HF_wild_card,2022.2.4,Win32,59.93407252,5642444817bdbe00062a1129,64d2fd46c836a06233681665,64dc7c512c6c239c09739a7b,,,,,,,decisionTrl,resources/DP.BMP,resources/DR.BMP,WildCard_NonEx,-0.015576324,0.047248183,1,0,0,0.3454,optionRight,55,6290,3,22,0,22,0,1,,,,,,,,,,,,,,,,,,,,,,,,,,,,,,,,,,,,,,,
,,,,,,,,2023-08-16_08h36.00.241,HF_wild_card,2022.2.4,Win32,59.93407252,5642444817bdbe00062a1129,64d2fd46c836a06233681665,64dc7c512c6c239c09739a7b,,,,,,,decisionTrl,resources/DR.BMP,resources/DB.BMP,Door3,0.012461059,0.030633437,1,0,0,0.3279,optionRight,70,6360,3,23,0,23,0,1,,,,,,,,,,,,,,,,,,,,,,,,,,,,,,,,,,,,,,,
,,,,,,,,2023-08-16_08h36.00.241,HF_wild_card,2022.2.4,Win32,59.93407252,5642444817bdbe00062a1129,64d2fd46c836a06233681665,64dc7c512c6c239c09739a7b,,,,,,,sngl,resources/DB.BMP,resources/Empty.png,Door3,-0.003115265,0.011941848,1,0,0,0.2017,optionLeft,70,6430,3,24,0,24,0,1,,,,,,,,,,,,,,,,,,,,,,,,,,,,,,,,,,,,,,,
,,,,,,,,2023-08-16_08h36.00.241,HF_wild_card,2022.2.4,Win32,59.93407252,5642444817bdbe00062a1129,64d2fd46c836a06233681665,64dc7c512c6c239c09739a7b,,,,,,,sngl,resources/DR.BMP,resources/Empty.png,WildCard_NonEx,0.008307373,0.017133956,1,0,0,0.2042,optionLeft,45,6475,3,25,0,25,0,1,,,,,,,,,,,,,,,,,,,,,,,,,,,,,,,,,,,,,,,
,,,,,,,,2023-08-16_08h36.00.241,HF_wild_card,2022.2.4,Win32,59.93407252,5642444817bdbe00062a1129,64d2fd46c836a06233681665,64dc7c512c6c239c09739a7b,,,,,,,decisionTrl,resources/DB.BMP,resources/DY.BMP,Door3,-0.014537902,0.001557632,1,0,0,0.3272,optionLeft,70,6545,3,26,0,26,0,1,,,,,,,,,,,,,,,,,,,,,,,,,,,,,,,,,,,,,,,
,,,,,,,,2023-08-16_08h36.00.241,HF_wild_card,2022.2.4,Win32,59.93407252,5642444817bdbe00062a1129,64d2fd46c836a06233681665,64dc7c512c6c239c09739a7b,,,,,,,decisionTrl,resources/DY.BMP,resources/DB.BMP,Door3,-0.002076843,-0.031671859,1,0,0,0.3248,optionRight,70,6615,3,27,0,27,0,1,,,,,,,,,,,,,,,,,,,,,,,,,,,,,,,,,,,,,,,
,,,,,,,,2023-08-16_08h36.00.241,HF_wild_card,2022.2.4,Win32,59.93407252,5642444817bdbe00062a1129,64d2fd46c836a06233681665,64dc7c512c6c239c09739a7b,,,,,,,decisionTrl,resources/DY.BMP,resources/DR.BMP,Door4,-0.004153686,0.002596054,1,0,0,0.23,optionLeft,80,6695,3,28,0,28,0,1,,,,,,,,,,,,,,,,,,,,,,,,,,,,,,,,,,,,,,,
,,,,,,,,2023-08-16_08h36.00.241,HF_wild_card,2022.2.4,Win32,59.93407252,5642444817bdbe00062a1129,64d2fd46c836a06233681665,64dc7c512c6c239c09739a7b,,,,,,,ctch,resources/DY.BMP,resources/DBN.BMP,Door4,-0.367601246,0.01298027,1,0,0,4.2312,optionLeft,80,6775,3,29,0,29,0,1,,,,,,,,,,,,,,,,,,,,,,,,,,,,,,,,,,,,,,,
,,,,,,,,2023-08-16_08h36.00.241,HF_wild_card,2022.2.4,Win32,59.93407252,5642444817bdbe00062a1129,64d2fd46c836a06233681665,64dc7c512c6c239c09739a7b,,,,,,,sngl,resources/Empty.png,resources/DBN.BMP,Door1,0.288681205,0.041017653,1,0,0,0.9077,optionRight,30,6805,3,30,0,30,0,1,,,,,,,,,,,,,,,,,,,,,,,,,,,,,,,,,,,,,,,
,,,,,,,,2023-08-16_08h36.00.241,HF_wild_card,2022.2.4,Win32,59.93407252,5642444817bdbe00062a1129,64d2fd46c836a06233681665,64dc7c512c6c239c09739a7b,,,,,,,ctch,resources/DBN.BMP,resources/DY.BMP,Door4,0.28556594,0.01298027,1,0,0,0.88,optionRight,80,6885,3,31,0,31,0,1,,,,,,,,,,,,,,,,,,,,,,,,,,,,,,,,,,,,,,,
,,,,,,,,2023-08-16_08h36.00.241,HF_wild_card,2022.2.4,Win32,59.93407252,5642444817bdbe00062a1129,64d2fd46c836a06233681665,64dc7c512c6c239c09739a7b,,,,,,,decisionTrl,resources/DBN.BMP,resources/DP.BMP,Door2,0.319833853,0.025441329,1,0,0,1.9751,optionRight,40,6925,3,32,0,32,0,1,,,,,,,,,,,,,,,,,,,,,,,,,,,,,,,,,,,,,,,
,,,,,,,,2023-08-16_08h36.00.241,HF_wild_card,2022.2.4,Win32,59.93407252,5642444817bdbe00062a1129,64d2fd46c836a06233681665,64dc7c512c6c239c09739a7b,,,,,,,decisionTrl,resources/DY.BMP,resources/DB.BMP,Door3,0.485981308,0.03894081,1,0,0,1.3229,optionRight,70,6995,3,33,0,33,0,1,,,,,,,,,,,,,,,,,,,,,,,,,,,,,,,,,,,,,,,
,,,,,,,,2023-08-16_08h36.00.241,HF_wild_card,2022.2.4,Win32,59.93407252,5642444817bdbe00062a1129,64d2fd46c836a06233681665,64dc7c512c6c239c09739a7b,,,,,,,ctch,resources/DP.BMP,resources/DB.BMP,Door3,-0.02596054,0.028556594,1,0,0,0.3384,optionRight,70,7065,3,34,0,34,0,1,,,,,,,,,,,,,,,,,,,,,,,,,,,,,,,,,,,,,,,
,,,,,,,,2023-08-16_08h36.00.241,HF_wild_card,2022.2.4,Win32,59.93407252,5642444817bdbe00062a1129,64d2fd46c836a06233681665,64dc7c512c6c239c09739a7b,,,,,,,sngl,resources/Empty.png,resources/DP.BMP,Door2,0.214953271,-0.072170301,1,0,0,2.1291,optionRight,20,7085,3,35,0,35,0,1,,,,,,,,,,,,,,,,,,,,,,,,,,,,,,,,,,,,,,,
,,,,,,,,2023-08-16_08h36.00.241,HF_wild_card,2022.2.4,Win32,59.93407252,5642444817bdbe00062a1129,64d2fd46c836a06233681665,64dc7c512c6c239c09739a7b,,,,,,,decisionTrl,resources/DP.BMP,resources/DBN.BMP,Door2,0.035306334,0.03271028,1,0,0,0.2249,optionLeft,20,7105,3,36,0,36,0,1,,,,,,,,,,,,,,,,,,,,,,,,,,,,,,,,,,,,,,,
,,,,,,,,2023-08-16_08h36.00.241,HF_wild_card,2022.2.4,Win32,59.93407252,5642444817bdbe00062a1129,64d2fd46c836a06233681665,64dc7c512c6c239c09739a7b,,,,,,,decisionTrl,resources/DP.BMP,resources/DBN.BMP,Door2,0.007268951,0.000519211,1,0,0,0.2223,optionLeft,20,7125,3,37,0,37,0,1,,,,,,,,,,,,,,,,,,,,,,,,,,,,,,,,,,,,,,,
,,,,,,,,2023-08-16_08h36.00.241,HF_wild_card,2022.2.4,Win32,59.93407252,5642444817bdbe00062a1129,64d2fd46c836a06233681665,64dc7c512c6c239c09739a7b,,,,,,,sngl,resources/DBN.BMP,resources/Empty.png,Door1,-0.013499481,-0.000519211,1,0,0,0.2901,optionLeft,30,7155,3,38,0,38,0,1,,,,,,,,,,,,,,,,,,,,,,,,,,,,,,,,,,,,,,,
,,,,,,,,2023-08-16_08h36.00.241,HF_wild_card,2022.2.4,Win32,59.93407252,5642444817bdbe00062a1129,64d2fd46c836a06233681665,64dc7c512c6c239c09739a7b,,,,,,,ctch,resources/DP.BMP,resources/DB.BMP,Door3,-0.009345794,-0.022326064,1,0,0,0.2241,optionRight,70,7225,3,39,0,39,0,1,,,,,,,,,,,,,,,,,,,,,,,,,,,,,,,,,,,,,,,
,,,,,,,,2023-08-16_08h36.00.241,HF_wild_card,2022.2.4,Win32,59.93407252,5642444817bdbe00062a1129,64d2fd46c836a06233681665,64dc7c512c6c239c09739a7b,,,,,,,sngl,resources/Empty.png,resources/DR.BMP,WildCard_NonEx,-0.005192108,-0.007788162,1,0,0,0.1924,optionRight,55,7280,3,40,0,40,0,1,,,,,,,,,,,,,,,,,,,,,,,,,,,,,,,,,,,,,,,
,,,,,,,,2023-08-16_08h36.00.241,HF_wild_card,2022.2.4,Win32,59.93407252,5642444817bdbe00062a1129,64d2fd46c836a06233681665,64dc7c512c6c239c09739a7b,,,,,,,decisionTrl,resources/DBN.BMP,resources/DP.BMP,Door2,-0.011422638,0.017133956,1,0,0,0.3272,optionRight,20,7300,3,41,0,41,0,1,,,,,,,,,,,,,,,,,,,,,,,,,,,,,,,,,,,,,,,
,,,,,,,,2023-08-16_08h36.00.241,HF_wild_card,2022.2.4,Win32,59.93407252,5642444817bdbe00062a1129,64d2fd46c836a06233681665,64dc7c512c6c239c09739a7b,,,,,,,ctch,resources/DB.BMP,resources/DP.BMP,Door3,-0.228452752,0.024402908,1,0,0,0.771,optionLeft,70,7370,3,42,0,42,0,1,,,,,,,,,,,,,,,,,,,,,,,,,,,,,,,,,,,,,,,
,,,,,,,,2023-08-16_08h36.00.241,HF_wild_card,2022.2.4,Win32,59.93407252,5642444817bdbe00062a1129,64d2fd46c836a06233681665,64dc7c512c6c239c09739a7b,,,,,,,decisionTrl,resources/DBN.BMP,resources/DP.BMP,Door1,-0.036344756,0.028556594,1,0,0,0.2245,optionLeft,30,7400,3,43,0,43,0,1,,,,,,,,,,,,,,,,,,,,,,,,,,,,,,,,,,,,,,,
,,,,,,,,2023-08-16_08h36.00.241,HF_wild_card,2022.2.4,Win32,59.93407252,5642444817bdbe00062a1129,64d2fd46c836a06233681665,64dc7c512c6c239c09739a7b,,,,,,,,,,,,,,,,,,,,,,,,,,2,0,2,0,1,,,,,,,,,,,,,,,,,,,,,,,,,,,,,,,,,,
,,,,,,,,2023-08-16_08h36.00.241,HF_wild_card,2022.2.4,Win32,59.93407252,5642444817bdbe00062a1129,64d2fd46c836a06233681665,64dc7c512c6c239c09739a7b,,,,,,,sngl,resources/Empty.png,resources/DG.BMP,WildCard_Ex,0.382139148,0.099169263,1,0,0,1.3304,optionRight,55,7455,4,0,0,0,0,1,,,,,,,,,,,,,,,,,,,,,,,,,,,,,,,,,,,,,,,
,,,,,,,,2023-08-16_08h36.00.241,HF_wild_card,2022.2.4,Win32,59.93407252,5642444817bdbe00062a1129,64d2fd46c836a06233681665,64dc7c512c6c239c09739a7b,,,,,,,sngl,resources/DG.BMP,resources/Empty.png,WildCard_Ex,-0.01973001,0.029595016,1,0,0,0.4205,optionLeft,55,7510,4,1,0,1,0,1,,,,,,,,,,,,,,,,,,,,,,,,,,,,,,,,,,,,,,,
,,,,,,,,2023-08-16_08h36.00.241,HF_wild_card,2022.2.4,Win32,59.93407252,5642444817bdbe00062a1129,64d2fd46c836a06233681665,64dc7c512c6c239c09739a7b,,,,,,,ctch,resources/DB.BMP,resources/DP.BMP,Door3,-0.023883697,0.0192108,1,0,0,0.343,optionLeft,70,7580,4,2,0,2,0,1,,,,,,,,,,,,,,,,,,,,,,,,,,,,,,,,,,,,,,,
,,,,,,,,2023-08-16_08h36.00.241,HF_wild_card,2022.2.4,Win32,59.93407252,5642444817bdbe00062a1129,64d2fd46c836a06233681665,64dc7c512c6c239c09739a7b,,,,,,,sngl,resources/Empty.png,resources/DG.BMP,WildCard_Ex,0.220145379,0.04517134,1,0,0,0.814,optionRight,45,7625,4,3,0,3,0,1,,,,,,,,,,,,,,,,,,,,,,,,,,,,,,,,,,,,,,,
,,,,,,,,2023-08-16_08h36.00.241,HF_wild_card,2022.2.4,Win32,59.93407252,5642444817bdbe00062a1129,64d2fd46c836a06233681665,64dc7c512c6c239c09739a7b,,,,,,,sngl,resources/DB.BMP,resources/Empty.png,Door3,-0.31152648,-0.018172378,1,0,0,0.8199,optionLeft,70,7695,4,4,0,4,0,1,,,,,,,,,,,,,,,,,,,,,,,,,,,,,,,,,,,,,,,
,,,,,,,,2023-08-16_08h36.00.241,HF_wild_card,2022.2.4,Win32,59.93407252,5642444817bdbe00062a1129,64d2fd46c836a06233681665,64dc7c512c6c239c09739a7b,,,,,,,sngl,resources/Empty.png,resources/DY.BMP,Door4,-0.005192108,0.024402908,1,0,0,0.2076,optionRight,80,7775,4,5,0,5,0,1,,,,,,,,,,,,,,,,,,,,,,,,,,,,,,,,,,,,,,,
,,,,,,,,2023-08-16_08h36.00.241,HF_wild_card,2022.2.4,Win32,59.93407252,5642444817bdbe00062a1129,64d2fd46c836a06233681665,64dc7c512c6c239c09739a7b,,,,,,,sngl,resources/DP.BMP,resources/Empty.png,Door2,0.007268951,-0.018172378,1,0,0,0.1999,optionLeft,20,7795,4,6,0,6,0,1,,,,,,,,,,,,,,,,,,,,,,,,,,,,,,,,,,,,,,,
,,,,,,,,2023-08-16_08h36.00.241,HF_wild_card,2022.2.4,Win32,59.93407252,5642444817bdbe00062a1129,64d2fd46c836a06233681665,64dc7c512c6c239c09739a7b,,,,,,,decisionTrl,resources/DB.BMP,resources/DY.BMP,Door3,0,0.025441329,1,0,0,0.3266,optionLeft,70,7865,4,7,0,7,0,1,,,,,,,,,,,,,,,,,,,,,,,,,,,,,,,,,,,,,,,
,,,,,,,,2023-08-16_08h36.00.241,HF_wild_card,2022.2.4,Win32,59.93407252,5642444817bdbe00062a1129,64d2fd46c836a06233681665,64dc7c512c6c239c09739a7b,,,,,,,decisionTrl,resources/DG.BMP,resources/DB.BMP,Door3,0.012461059,0.04517134,1,0,0,0.215,optionRight,70,7935,4,8,0,8,0,1,,,,,,,,,,,,,,,,,,,,,,,,,,,,,,,,,,,,,,,
,,,,,,,,2023-08-16_08h36.00.241,HF_wild_card,2022.2.4,Win32,59.93407252,5642444817bdbe00062a1129,64d2fd46c836a06233681665,64dc7c512c6c239c09739a7b,,,,,,,decisionTrl,resources/DBN.BMP,resources/DP.BMP,Door2,-0.048805815,-0.01298027,1,0,0,0.2233,optionRight,40,7975,4,9,0,9,0,1,,,,,,,,,,,,,,,,,,,,,,,,,,,,,,,,,,,,,,,
,,,,,,,,2023-08-16_08h36.00.241,HF_wild_card,2022.2.4,Win32,59.93407252,5642444817bdbe00062a1129,64d2fd46c836a06233681665,64dc7c512c6c239c09739a7b,,,,,,,sngl,resources/DBN.BMP,resources/Empty.png,Door1,-0.254413292,0.00674974,1,0,0,1.4444,optionLeft,30,8005,4,10,0,10,0,1,,,,,,,,,,,,,,,,,,,,,,,,,,,,,,,,,,,,,,,
,,,,,,,,2023-08-16_08h36.00.241,HF_wild_card,2022.2.4,Win32,59.93407252,5642444817bdbe00062a1129,64d2fd46c836a06233681665,64dc7c512c6c239c09739a7b,,,,,,,decisionTrl,resources/DY.BMP,resources/DB.BMP,Door3,0.00623053,0.01298027,1,0,0,0.2226,optionRight,70,8075,4,11,0,11,0,1,,,,,,,,,,,,,,,,,,,,,,,,,,,,,,,,,,,,,,,
,,,,,,,,2023-08-16_08h36.00.241,HF_wild_card,2022.2.4,Win32,59.93407252,5642444817bdbe00062a1129,64d2fd46c836a06233681665,64dc7c512c6c239c09739a7b,,,,,,,sngl,resources/DG.BMP,resources/Empty.png,WildCard_Ex,-0.004153686,0.036863967,1,0,0,0.1963,optionLeft,45,8120,4,12,0,12,0,1,,,,,,,,,,,,,,,,,,,,,,,,,,,,,,,,,,,,,,,
,,,,,,,,2023-08-16_08h36.00.241,HF_wild_card,2022.2.4,Win32,59.93407252,5642444817bdbe00062a1129,64d2fd46c836a06233681665,64dc7c512c6c239c09739a7b,,,,,,,decisionTrl,resources/DP.BMP,resources/DBN.BMP,Door1,0.015576324,0.005711319,1,0,0,0.2221,optionRight,30,8150,4,13,0,13,0,1,,,,,,,,,,,,,,,,,,,,,,,,,,,,,,,,,,,,,,,
,,,,,,,,2023-08-16_08h36.00.241,HF_wild_card,2022.2.4,Win32,59.93407252,5642444817bdbe00062a1129,64d2fd46c836a06233681665,64dc7c512c6c239c09739a7b,,,,,,,ctch,resources/DBN.BMP,resources/DY.BMP,Door4,-0.010384216,0.00674974,1,0,0,0.3496,optionRight,80,8230,4,14,0,14,0,1,,,,,,,,,,,,,,,,,,,,,,,,,,,,,,,,,,,,,,,
,,,,,,,,2023-08-16_08h36.00.241,HF_wild_card,2022.2.4,Win32,59.93407252,5642444817bdbe00062a1129,64d2fd46c836a06233681665,64dc7c512c6c239c09739a7b,,,,,,,decisionTrl,resources/DY.BMP,resources/DG.BMP,Door4,0.04569055,0.033748702,1,0,0,0.2135,optionLeft,60,8290,4,15,0,15,0,1,,,,,,,,,,,,,,,,,,,,,,,,,,,,,,,,,,,,,,,
,,,,,,,,2023-08-16_08h36.00.241,HF_wild_card,2022.2.4,Win32,59.93407252,5642444817bdbe00062a1129,64d2fd46c836a06233681665,64dc7c512c6c239c09739a7b,,,,,,,decisionTrl,resources/DG.BMP,resources/DY.BMP,Door4,0.030114226,-0.001557632,1,0,0,0.2115,optionRight,80,8370,4,16,0,16,0,1,,,,,,,,,,,,,,,,,,,,,,,,,,,,,,,,,,,,,,,
,,,,,,,,2023-08-16_08h36.00.241,HF_wild_card,2022.2.4,Win32,59.93407252,5642444817bdbe00062a1129,64d2fd46c836a06233681665,64dc7c512c6c239c09739a7b,,,,,,,ctch,resources/DP.BMP,resources/DB.BMP,Door3,-0.069574247,0.004672897,1,0,0,0.3393,optionRight,70,8440,4,17,0,17,0,1,,,,,,,,,,,,,,,,,,,,,,,,,,,,,,,,,,,,,,,
,,,,,,,,2023-08-16_08h36.00.241,HF_wild_card,2022.2.4,Win32,59.93407252,5642444817bdbe00062a1129,64d2fd46c836a06233681665,64dc7c512c6c239c09739a7b,,,,,,,decisionTrl,resources/DP.BMP,resources/DBN.BMP,Door2,-0.010384216,-0.037902388,1,0,0,0.2133,optionLeft,40,8480,4,18,0,18,0,1,,,,,,,,,,,,,,,,,,,,,,,,,,,,,,,,,,,,,,,
,,,,,,,,2023-08-16_08h36.00.241,HF_wild_card,2022.2.4,Win32,59.93407252,5642444817bdbe00062a1129,64d2fd46c836a06233681665,64dc7c512c6c239c09739a7b,,,,,,,decisionTrl,resources/DG.BMP,resources/DBN.BMP,WildCard_Ex,-0.053997923,-0.020249221,1,0,0,0.2188,optionLeft,55,8535,4,19,0,19,0,1,,,,,,,,,,,,,,,,,,,,,,,,,,,,,,,,,,,,,,,
,,,,,,,,2023-08-16_08h36.00.241,HF_wild_card,2022.2.4,Win32,59.93407252,5642444817bdbe00062a1129,64d2fd46c836a06233681665,64dc7c512c6c239c09739a7b,,,,,,,sngl,resources/Empty.png,resources/DB.BMP,Door3,0.304257529,0.080477674,1,0,0,0.8396,optionRight,70,8605,4,20,0,20,0,1,,,,,,,,,,,,,,,,,,,,,,,,,,,,,,,,,,,,,,,
,,,,,,,,2023-08-16_08h36.00.241,HF_wild_card,2022.2.4,Win32,59.93407252,5642444817bdbe00062a1129,64d2fd46c836a06233681665,64dc7c512c6c239c09739a7b,,,,,,,decisionTrl,resources/DBN.BMP,resources/DP.BMP,Door2,0.048805815,-0.055555556,1,0,0,0.2245,optionRight,40,8645,4,21,0,21,0,1,,,,,,,,,,,,,,,,,,,,,,,,,,,,,,,,,,,,,,,
,,,,,,,,2023-08-16_08h36.00.241,HF_wild_card,2022.2.4,Win32,59.93407252,5642444817bdbe00062a1129,64d2fd46c836a06233681665,64dc7c512c6c239c09739a7b,,,,,,,decisionTrl,resources/DP.BMP,resources/DG.BMP,WildCard_Ex,0.016614746,0.022326064,1,0,0,0.222,optionRight,45,8690,4,22,0,22,0,1,,,,,,,,,,,,,,,,,,,,,,,,,,,,,,,,,,,,,,,
,,,,,,,,2023-08-16_08h36.00.241,HF_wild_card,2022.2.4,Win32,59.93407252,5642444817bdbe00062a1129,64d2fd46c836a06233681665,64dc7c512c6c239c09739a7b,,,,,,,sngl,resources/Empty.png,resources/DBN.BMP,Door1,0.02596054,0.00674974,1,0,0,0.2225,optionRight,30,8720,4,23,0,23,0,1,,,,,,,,,,,,,,,,,,,,,,,,,,,,,,,,,,,,,,,
,,,,,,,,2023-08-16_08h36.00.241,HF_wild_card,2022.2.4,Win32,59.93407252,5642444817bdbe00062a1129,64d2fd46c836a06233681665,64dc7c512c6c239c09739a7b,,,,,,,ctch,resources/DBN.BMP,resources/DY.BMP,Door1,-0.17549325,0.026479751,1,0,0,0.2284,optionLeft,30,8750,4,24,0,24,0,1,,,,,,,,,,,,,,,,,,,,,,,,,,,,,,,,,,,,,,,
,,,,,,,,2023-08-16_08h36.00.241,HF_wild_card,2022.2.4,Win32,59.93407252,5642444817bdbe00062a1129,64d2fd46c836a06233681665,64dc7c512c6c239c09739a7b,,,,,,,decisionTrl,resources/DG.BMP,resources/DP.BMP,WildCard_Ex,-0.039460021,0.009865005,1,0,0,0.3405,optionLeft,45,8795,4,25,0,25,0,1,,,,,,,,,,,,,,,,,,,,,,,,,,,,,,,,,,,,,,,
,,,,,,,,2023-08-16_08h36.00.241,HF_wild_card,2022.2.4,Win32,59.93407252,5642444817bdbe00062a1129,64d2fd46c836a06233681665,64dc7c512c6c239c09739a7b,,,,,,,decisionTrl,resources/DY.BMP,resources/DB.BMP,Door3,0.044652129,0.027518172,1,0,0,0.3428,optionRight,70,8865,4,26,0,26,0,1,,,,,,,,,,,,,,,,,,,,,,,,,,,,,,,,,,,,,,,
,,,,,,,,2023-08-16_08h36.00.241,HF_wild_card,2022.2.4,Win32,59.93407252,5642444817bdbe00062a1129,64d2fd46c836a06233681665,64dc7c512c6c239c09739a7b,,,,,,,ctch,resources/DB.BMP,resources/DP.BMP,Door3,0.014537902,0.001557632,1,0,0,0.2242,optionLeft,70,8935,4,27,0,27,0,1,,,,,,,,,,,,,,,,,,,,,,,,,,,,,,,,,,,,,,,
,,,,,,,,2023-08-16_08h36.00.241,HF_wild_card,2022.2.4,Win32,59.93407252,5642444817bdbe00062a1129,64d2fd46c836a06233681665,64dc7c512c6c239c09739a7b,,,,,,,decisionTrl,resources/DB.BMP,resources/DY.BMP,Door3,-0.196261682,-0.03271028,1,0,0,2.1519,optionLeft,70,9005,4,28,0,28,0,1,,,,,,,,,,,,,,,,,,,,,,,,,,,,,,,,,,,,,,,
,,,,,,,,2023-08-16_08h36.00.241,HF_wild_card,2022.2.4,Win32,59.93407252,5642444817bdbe00062a1129,64d2fd46c836a06233681665,64dc7c512c6c239c09739a7b,,,,,,,decisionTrl,resources/DBN.BMP,resources/DG.BMP,WildCard_Ex,0.01973001,0.048286604,1,0,0,0.3299,optionRight,55,9060,4,29,0,29,0,1,,,,,,,,,,,,,,,,,,,,,,,,,,,,,,,,,,,,,,,
,,,,,,,,2023-08-16_08h36.00.241,HF_wild_card,2022.2.4,Win32,59.93407252,5642444817bdbe00062a1129,64d2fd46c836a06233681665,64dc7c512c6c239c09739a7b,,,,,,,ctch,resources/DY.BMP,resources/DBN.BMP,Door4,0.007268951,0.027518172,1,0,0,0.2071,optionLeft,60,9120,4,30,0,30,0,1,,,,,,,,,,,,,,,,,,,,,,,,,,,,,,,,,,,,,,,
,,,,,,,,2023-08-16_08h36.00.241,HF_wild_card,2022.2.4,Win32,59.93407252,5642444817bdbe00062a1129,64d2fd46c836a06233681665,64dc7c512c6c239c09739a7b,,,,,,,ctch,resources/DY.BMP,resources/DBN.BMP,Door4,-0.017653167,-0.002596054,1,0,0,0.2194,optionLeft,80,9200,4,31,0,31,0,1,,,,,,,,,,,,,,,,,,,,,,,,,,,,,,,,,,,,,,,
,,,,,,,,2023-08-16_08h36.00.241,HF_wild_card,2022.2.4,Win32,59.93407252,5642444817bdbe00062a1129,64d2fd46c836a06233681665,64dc7c512c6c239c09739a7b,,,,,,,decisionTrl,resources/DB.BMP,resources/DY.BMP,Door3,0.044652129,0.024402908,1,0,0,0.3348,optionLeft,70,9270,4,32,0,32,0,1,,,,,,,,,,,,,,,,,,,,,,,,,,,,,,,,,,,,,,,
,,,,,,,,2023-08-16_08h36.00.241,HF_wild_card,2022.2.4,Win32,59.93407252,5642444817bdbe00062a1129,64d2fd46c836a06233681665,64dc7c512c6c239c09739a7b,,,,,,,decisionTrl,resources/DBN.BMP,resources/DP.BMP,Door2,-0.016614746,0.005711319,1,0,0,0.2239,optionRight,20,9290,4,33,0,33,0,1,,,,,,,,,,,,,,,,,,,,,,,,,,,,,,,,,,,,,,,
,,,,,,,,2023-08-16_08h36.00.241,HF_wild_card,2022.2.4,Win32,59.93407252,5642444817bdbe00062a1129,64d2fd46c836a06233681665,64dc7c512c6c239c09739a7b,,,,,,,decisionTrl,resources/DY.BMP,resources/DB.BMP,Door3,0.028037383,0.011941848,1,0,0,0.2243,optionRight,70,9360,4,34,0,34,0,1,,,,,,,,,,,,,,,,,,,,,,,,,,,,,,,,,,,,,,,
,,,,,,,,2023-08-16_08h36.00.241,HF_wild_card,2022.2.4,Win32,59.93407252,5642444817bdbe00062a1129,64d2fd46c836a06233681665,64dc7c512c6c239c09739a7b,,,,,,,decisionTrl,resources/DP.BMP,resources/DBN.BMP,Door1,-0.029075805,0.00674974,1,0,0,0.3315,optionRight,30,9390,4,35,0,35,0,1,,,,,,,,,,,,,,,,,,,,,,,,,,,,,,,,,,,,,,,
,,,,,,,,2023-08-16_08h36.00.241,HF_wild_card,2022.2.4,Win32,59.93407252,5642444817bdbe00062a1129,64d2fd46c836a06233681665,64dc7c512c6c239c09739a7b,,,,,,,ctch,resources/DP.BMP,resources/DB.BMP,Door3,0.345794393,0.056593977,1,0,0,1.3587,optionRight,70,9460,4,36,0,36,0,1,,,,,,,,,,,,,,,,,,,,,,,,,,,,,,,,,,,,,,,
,,,,,,,,2023-08-16_08h36.00.241,HF_wild_card,2022.2.4,Win32,59.93407252,5642444817bdbe00062a1129,64d2fd46c836a06233681665,64dc7c512c6c239c09739a7b,,,,,,,decisionTrl,resources/DY.BMP,resources/DB.BMP,Door3,0.012461059,0.042056075,1,0,0,0.3307,optionRight,70,9530,4,37,0,37,0,1,,,,,,,,,,,,,,,,,,,,,,,,,,,,,,,,,,,,,,,
,,,,,,,,2023-08-16_08h36.00.241,HF_wild_card,2022.2.4,Win32,59.93407252,5642444817bdbe00062a1129,64d2fd46c836a06233681665,64dc7c512c6c239c09739a7b,,,,,,,decisionTrl,resources/DB.BMP,resources/DY.BMP,Door3,-0.017653167,-0.007788162,1,0,0,0.3258,optionLeft,70,9600,4,38,0,38,0,1,,,,,,,,,,,,,,,,,,,,,,,,,,,,,,,,,,,,,,,
,,,,,,,,2023-08-16_08h36.00.241,HF_wild_card,2022.2.4,Win32,59.93407252,5642444817bdbe00062a1129,64d2fd46c836a06233681665,64dc7c512c6c239c09739a7b,,,,,,,decisionTrl,resources/DP.BMP,resources/DBN.BMP,Door2,-0.335410177,0.01298027,1,0,0,3.5388,optionLeft,20,9620,4,39,0,39,0,1,,,,,,,,,,,,,,,,,,,,,,,,,,,,,,,,,,,,,,,
,,,,,,,,2023-08-16_08h36.00.241,HF_wild_card,2022.2.4,Win32,59.93407252,5642444817bdbe00062a1129,64d2fd46c836a06233681665,64dc7c512c6c239c09739a7b,,,,,,,decisionTrl,resources/DB.BMP,resources/DG.BMP,Door3,-0.153686397,-0.033748702,1,0,0,1.4432,optionLeft,70,9690,4,40,0,40,0,1,,,,,,,,,,,,,,,,,,,,,,,,,,,,,,,,,,,,,,,
,,,,,,,,2023-08-16_08h36.00.241,HF_wild_card,2022.2.4,Win32,59.93407252,5642444817bdbe00062a1129,64d2fd46c836a06233681665,64dc7c512c6c239c09739a7b,,,,,,,decisionTrl,resources/DBN.BMP,resources/DP.BMP,Door2,0.340602285,0.029595016,1,0,0,3.5455,optionRight,20,9710,4,41,0,41,0,1,,,,,,,,,,,,,,,,,,,,,,,,,,,,,,,,,,,,,,,
,,,,,,,,2023-08-16_08h36.00.241,HF_wild_card,2022.2.4,Win32,59.93407252,5642444817bdbe00062a1129,64d2fd46c836a06233681665,64dc7c512c6c239c09739a7b,,,,,,,sngl,resources/DY.BMP,resources/Empty.png,Door4,-0.355140187,0.001557632,1,0,0,2.9501,optionLeft,60,9770,4,42,0,42,0,1,,,,,,,,,,,,,,,,,,,,,,,,,,,,,,,,,,,,,,,
,,,,,,,,2023-08-16_08h36.00.241,HF_wild_card,2022.2.4,Win32,59.93407252,5642444817bdbe00062a1129,64d2fd46c836a06233681665,64dc7c512c6c239c09739a7b,,,,,,,sngl,resources/Empty.png,resources/DP.BMP,Door2,0.225337487,0.021287643,1,0,0,0.8137,optionRight,40,9810,4,43,0,43,0,1,,,,,,,,,,,,,,,,,,,,,,,,,,,,,,,,,,,,,,,
,,,,,,,,2023-08-16_08h36.00.241,HF_wild_card,2022.2.4,Win32,59.93407252,5642444817bdbe00062a1129,64d2fd46c836a06233681665,64dc7c512c6c239c09739a7b,,,,,,,,,,,,,,,,,,,,,,,,,,3,0,3,0,1,,,,,,,,,,,,,,,,,,,,,,,,,,,,,,,,,,
,,,,,,,,2023-08-16_08h36.00.241,HF_wild_card,2022.2.4,Win32,59.93407252,5642444817bdbe00062a1129,64d2fd46c836a06233681665,64dc7c512c6c239c09739a7b,,,,,,,ctch,resources/DY.BMP,resources/DBN.BMP,Door4,-0.358255452,-0.073208723,1,0,0,1.02,optionLeft,60,9870,5,0,0,0,0,1,,,,,,,,,,,,,,,,,,,,,,,,,,,,,,,,,,,,,,,
,,,,,,,,2023-08-16_08h36.00.241,HF_wild_card,2022.2.4,Win32,59.93407252,5642444817bdbe00062a1129,64d2fd46c836a06233681665,64dc7c512c6c239c09739a7b,,,,,,,sngl,resources/DB.BMP,resources/Empty.png,Door3,-0.303219107,0.005711319,1,0,0,1.458,optionLeft,70,9940,5,1,0,1,0,1,,,,,,,,,,,,,,,,,,,,,,,,,,,,,,,,,,,,,,,
,,,,,,,,2023-08-16_08h36.00.241,HF_wild_card,2022.2.4,Win32,59.93407252,5642444817bdbe00062a1129,64d2fd46c836a06233681665,64dc7c512c6c239c09739a7b,,,,,,,ctch,resources/DB.BMP,resources/DP.BMP,Door3,-0.298026999,-0.003634476,1,0,0,0.9896,optionLeft,70,10010,5,2,0,2,0,1,,,,,,,,,,,,,,,,,,,,,,,,,,,,,,,,,,,,,,,
,,,,,,,,2023-08-16_08h36.00.241,HF_wild_card,2022.2.4,Win32,59.93407252,5642444817bdbe00062a1129,64d2fd46c836a06233681665,64dc7c512c6c239c09739a7b,,,,,,,decisionTrl,resources/DB.BMP,resources/DY.BMP,Door3,-0.030114226,0.034787124,1,0,0,0.2314,optionLeft,70,10080,5,3,0,3,0,1,,,,,,,,,,,,,,,,,,,,,,,,,,,,,,,,,,,,,,,
,,,,,,,,2023-08-16_08h36.00.241,HF_wild_card,2022.2.4,Win32,59.93407252,5642444817bdbe00062a1129,64d2fd46c836a06233681665,64dc7c512c6c239c09739a7b,,,,,,,ctch,resources/DY.BMP,resources/DBN.BMP,Door4,-0.385254413,0.03271028,1,0,0,1.2286,optionLeft,60,10140,5,4,0,4,0,1,,,,,,,,,,,,,,,,,,,,,,,,,,,,,,,,,,,,,,,
,,,,,,,,2023-08-16_08h36.00.241,HF_wild_card,2022.2.4,Win32,59.93407252,5642444817bdbe00062a1129,64d2fd46c836a06233681665,64dc7c512c6c239c09739a7b,,,,,,,sngl,resources/Empty.png,resources/DY.BMP,Door4,0.223260644,0.015057113,1,0,0,0.717,optionRight,60,10200,5,5,0,5,0,1,,,,,,,,,,,,,,,,,,,,,,,,,,,,,,,,,,,,,,,
,,,,,,,,2023-08-16_08h36.00.241,HF_wild_card,2022.2.4,Win32,59.93407252,5642444817bdbe00062a1129,64d2fd46c836a06233681665,64dc7c512c6c239c09739a7b,,,,,,,sngl,resources/Empty.png,resources/DB.BMP,Door3,-0.010384216,-0.000519211,1,0,0,0.2056,optionRight,70,10270,5,6,0,6,0,1,,,,,,,,,,,,,,,,,,,,,,,,,,,,,,,,,,,,,,,
,,,,,,,,2023-08-16_08h36.00.241,HF_wild_card,2022.2.4,Win32,59.93407252,5642444817bdbe00062a1129,64d2fd46c836a06233681665,64dc7c512c6c239c09739a7b,,,,,,,ctch,resources/DP.BMP,resources/DB.BMP,Door3,-0.004153686,0.022326064,1,0,0,0.2161,optionRight,70,10340,5,7,0,7,0,1,,,,,,,,,,,,,,,,,,,,,,,,,,,,,,,,,,,,,,,
,,,,,,,,2023-08-16_08h36.00.241,HF_wild_card,2022.2.4,Win32,59.93407252,5642444817bdbe00062a1129,64d2fd46c836a06233681665,64dc7c512c6c239c09739a7b,,,,,,,decisionTrl,resources/DBN.BMP,resources/DP.BMP,Door1,-0.014537902,0.00674974,1,0,0,0.2237,optionLeft,30,10370,5,8,0,8,0,1,,,,,,,,,,,,,,,,,,,,,,,,,,,,,,,,,,,,,,,
,,,,,,,,2023-08-16_08h36.00.241,HF_wild_card,2022.2.4,Win32,59.93407252,5642444817bdbe00062a1129,64d2fd46c836a06233681665,64dc7c512c6c239c09739a7b,,,,,,,decisionTrl,resources/DG.BMP,resources/DB.BMP,Door3,0.278296989,-0.002596054,1,0,0,1.6644,optionRight,70,10440,5,9,0,9,0,1,,,,,,,,,,,,,,,,,,,,,,,,,,,,,,,,,,,,,,,
,,,,,,,,2023-08-16_08h36.00.241,HF_wild_card,2022.2.4,Win32,59.93407252,5642444817bdbe00062a1129,64d2fd46c836a06233681665,64dc7c512c6c239c09739a7b,,,,,,,decisionTrl,resources/DP.BMP,resources/DBN.BMP,Door2,-0.269989616,-0.049325026,1,0,0,5.6389,optionLeft,20,10460,5,10,0,10,0,1,,,,,,,,,,,,,,,,,,,,,,,,,,,,,,,,,,,,,,,
,,,,,,,,2023-08-16_08h36.00.241,HF_wild_card,2022.2.4,Win32,59.93407252,5642444817bdbe00062a1129,64d2fd46c836a06233681665,64dc7c512c6c239c09739a7b,,,,,,,sngl,resources/Empty.png,resources/DG.BMP,WildCard_Ex,0.464174455,-0.033748702,1,0,0,0.9066,optionRight,55,10515,5,11,0,11,0,1,,,,,,,,,,,,,,,,,,,,,,,,,,,,,,,,,,,,,,,
,,,,,,,,2023-08-16_08h36.00.241,HF_wild_card,2022.2.4,Win32,59.93407252,5642444817bdbe00062a1129,64d2fd46c836a06233681665,64dc7c512c6c239c09739a7b,,,,,,,decisionTrl,resources/DP.BMP,resources/DBN.BMP,Door2,-0.252336449,-0.0192108,1,0,0,1.9754,optionLeft,20,10535,5,12,0,12,0,1,,,,,,,,,,,,,,,,,,,,,,,,,,,,,,,,,,,,,,,
,,,,,,,,2023-08-16_08h36.00.241,HF_wild_card,2022.2.4,Win32,59.93407252,5642444817bdbe00062a1129,64d2fd46c836a06233681665,64dc7c512c6c239c09739a7b,,,,,,,sngl,resources/Empty.png,resources/DG.BMP,WildCard_Ex,0.364485981,0.000519211,1,0,0,0.6984,optionRight,45,10580,5,13,0,13,0,1,,,,,,,,,,,,,,,,,,,,,,,,,,,,,,,,,,,,,,,
,,,,,,,,2023-08-16_08h36.00.241,HF_wild_card,2022.2.4,Win32,59.93407252,5642444817bdbe00062a1129,64d2fd46c836a06233681665,64dc7c512c6c239c09739a7b,,,,,,,decisionTrl,resources/DY.BMP,resources/DB.BMP,Door3,0.241952233,0.024402908,1,0,0,1.573,optionRight,70,10650,5,14,0,14,0,1,,,,,,,,,,,,,,,,,,,,,,,,,,,,,,,,,,,,,,,
,,,,,,,,2023-08-16_08h36.00.241,HF_wild_card,2022.2.4,Win32,59.93407252,5642444817bdbe00062a1129,64d2fd46c836a06233681665,64dc7c512c6c239c09739a7b,,,,,,,sngl,resources/Empty.png,resources/DP.BMP,Door2,-0.004153686,-0.01298027,1,0,0,0.3062,optionRight,20,10670,5,15,0,15,0,1,,,,,,,,,,,,,,,,,,,,,,,,,,,,,,,,,,,,,,,
,,,,,,,,2023-08-16_08h36.00.241,HF_wild_card,2022.2.4,Win32,59.93407252,5642444817bdbe00062a1129,64d2fd46c836a06233681665,64dc7c512c6c239c09739a7b,,,,,,,sngl,resources/DY.BMP,resources/Empty.png,Door4,-0.218068536,-0.015057113,1,0,0,0.708,optionLeft,80,10750,5,16,0,16,0,1,,,,,,,,,,,,,,,,,,,,,,,,,,,,,,,,,,,,,,,
,,,,,,,,2023-08-16_08h36.00.241,HF_wild_card,2022.2.4,Win32,59.93407252,5642444817bdbe00062a1129,64d2fd46c836a06233681665,64dc7c512c6c239c09739a7b,,,,,,,decisionTrl,resources/DBN.BMP,resources/DP.BMP,Door1,-0.169262721,-0.010903427,1,0,0,2.0037,optionLeft,30,10780,5,17,0,17,0,1,,,,,,,,,,,,,,,,,,,,,,,,,,,,,,,,,,,,,,,
,,,,,,,,2023-08-16_08h36.00.241,HF_wild_card,2022.2.4,Win32,59.93407252,5642444817bdbe00062a1129,64d2fd46c836a06233681665,64dc7c512c6c239c09739a7b,,,,,,,decisionTrl,resources/DB.BMP,resources/DY.BMP,Door3,-0.448598131,-0.034787124,1,0,0,2.1261,optionLeft,70,10850,5,18,0,18,0,1,,,,,,,,,,,,,,,,,,,,,,,,,,,,,,,,,,,,,,,
,,,,,,,,2023-08-16_08h36.00.241,HF_wild_card,2022.2.4,Win32,59.93407252,5642444817bdbe00062a1129,64d2fd46c836a06233681665,64dc7c512c6c239c09739a7b,,,,,,,decisionTrl,resources/DB.BMP,resources/DG.BMP,Door3,-0.266874351,0.016095535,1,0,0,2.8236,optionLeft,70,10920,5,19,0,19,0,1,,,,,,,,,,,,,,,,,,,,,,,,,,,,,,,,,,,,,,,
,,,,,,,,2023-08-16_08h36.00.241,HF_wild_card,2022.2.4,Win32,59.93407252,5642444817bdbe00062a1129,64d2fd46c836a06233681665,64dc7c512c6c239c09739a7b,,,,,,,ctch,resources/DP.BMP,resources/DB.BMP,Door3,0.222222222,0.04517134,1,0,0,2.0304,optionRight,70,10990,5,20,0,20,0,1,,,,,,,,,,,,,,,,,,,,,,,,,,,,,,,,,,,,,,,
,,,,,,,,2023-08-16_08h36.00.241,HF_wild_card,2022.2.4,Win32,59.93407252,5642444817bdbe00062a1129,64d2fd46c836a06233681665,64dc7c512c6c239c09739a7b,,,,,,,decisionTrl,resources/DP.BMP,resources/DBN.BMP,Door2,-0.289719626,0.022326064,1,0,0,1.8859,optionLeft,20,11010,5,21,0,21,0,1,,,,,,,,,,,,,,,,,,,,,,,,,,,,,,,,,,,,,,,
,,,,,,,,2023-08-16_08h36.00.241,HF_wild_card,2022.2.4,Win32,59.93407252,5642444817bdbe00062a1129,64d2fd46c836a06233681665,64dc7c512c6c239c09739a7b,,,,,,,decisionTrl,resources/DY.BMP,resources/DG.BMP,Door4,-0.395638629,-0.055555556,1,0,0,2.7098,optionLeft,80,11090,5,22,0,22,0,1,,,,,,,,,,,,,,,,,,,,,,,,,,,,,,,,,,,,,,,
,,,,,,,,2023-08-16_08h36.00.241,HF_wild_card,2022.2.4,Win32,59.93407252,5642444817bdbe00062a1129,64d2fd46c836a06233681665,64dc7c512c6c239c09739a7b,,,,,,,ctch,resources/DB.BMP,resources/DP.BMP,Door3,-0.41536864,-0.037902388,1,0,0,1.8893,optionLeft,70,11160,5,23,0,23,0,1,,,,,,,,,,,,,,,,,,,,,,,,,,,,,,,,,,,,,,,
,,,,,,,,2023-08-16_08h36.00.241,HF_wild_card,2022.2.4,Win32,59.93407252,5642444817bdbe00062a1129,64d2fd46c836a06233681665,64dc7c512c6c239c09739a7b,,,,,,,decisionTrl,resources/DB.BMP,resources/DY.BMP,Door3,-0.417445483,-0.050363448,1,0,0,2.5636,optionLeft,70,11230,5,24,0,24,0,1,,,,,,,,,,,,,,,,,,,,,,,,,,,,,,,,,,,,,,,
,,,,,,,,2023-08-16_08h36.00.241,HF_wild_card,2022.2.4,Win32,59.93407252,5642444817bdbe00062a1129,64d2fd46c836a06233681665,64dc7c512c6c239c09739a7b,,,,,,,sngl,resources/DG.BMP,resources/Empty.png,WildCard_Ex,-0.380062305,-0.001557632,1,0,0,1.5406,optionLeft,55,11285,5,25,0,25,0,1,,,,,,,,,,,,,,,,,,,,,,,,,,,,,,,,,,,,,,,
,,,,,,,,2023-08-16_08h36.00.241,HF_wild_card,2022.2.4,Win32,59.93407252,5642444817bdbe00062a1129,64d2fd46c836a06233681665,64dc7c512c6c239c09739a7b,,,,,,,sngl,resources/DP.BMP,resources/Empty.png,Door2,-0.400830737,-0.011941848,1,0,0,1.1388,optionLeft,40,11325,5,26,0,26,0,1,,,,,,,,,,,,,,,,,,,,,,,,,,,,,,,,,,,,,,,
,,,,,,,,2023-08-16_08h36.00.241,HF_wild_card,2022.2.4,Win32,59.93407252,5642444817bdbe00062a1129,64d2fd46c836a06233681665,64dc7c512c6c239c09739a7b,,,,,,,decisionTrl,resources/DG.BMP,resources/DY.BMP,Door4,0.299065421,0.0192108,1,0,0,0.8892,optionRight,60,11385,5,27,0,27,0,1,,,,,,,,,,,,,,,,,,,,,,,,,,,,,,,,,,,,,,,
,,,,,,,,2023-08-16_08h36.00.241,HF_wild_card,2022.2.4,Win32,59.93407252,5642444817bdbe00062a1129,64d2fd46c836a06233681665,64dc7c512c6c239c09739a7b,,,,,,,ctch,resources/DBN.BMP,resources/DY.BMP,Door4,0.33125649,0.016095535,1,0,0,0.9905,optionRight,60,11445,5,28,0,28,0,1,,,,,,,,,,,,,,,,,,,,,,,,,,,,,,,,,,,,,,,
,,,,,,,,2023-08-16_08h36.00.241,HF_wild_card,2022.2.4,Win32,59.93407252,5642444817bdbe00062a1129,64d2fd46c836a06233681665,64dc7c512c6c239c09739a7b,,,,,,,sngl,resources/DG.BMP,resources/Empty.png,WildCard_Ex,-0.365524403,-0.0192108,1,0,0,1.0544,optionLeft,45,11490,5,29,0,29,0,1,,,,,,,,,,,,,,,,,,,,,,,,,,,,,,,,,,,,,,,
,,,,,,,,2023-08-16_08h36.00.241,HF_wild_card,2022.2.4,Win32,59.93407252,5642444817bdbe00062a1129,64d2fd46c836a06233681665,64dc7c512c6c239c09739a7b,,,,,,,decisionTrl,resources/DBN.BMP,resources/DP.BMP,Door2,0.271028037,-0.011941848,1,0,0,1.4256,optionRight,20,11510,5,30,0,30,0,1,,,,,,,,,,,,,,,,,,,,,,,,,,,,,,,,,,,,,,,
,,,,,,,,2023-08-16_08h36.00.241,HF_wild_card,2022.2.4,Win32,59.93407252,5642444817bdbe00062a1129,64d2fd46c836a06233681665,64dc7c512c6c239c09739a7b,,,,,,,decisionTrl,resources/DY.BMP,resources/DB.BMP,Door3,0.40913811,-0.016095535,1,0,0,1.4331,optionRight,70,11580,5,31,0,31,0,1,,,,,,,,,,,,,,,,,,,,,,,,,,,,,,,,,,,,,,,
,,,,,,,,2023-08-16_08h36.00.241,HF_wild_card,2022.2.4,Win32,59.93407252,5642444817bdbe00062a1129,64d2fd46c836a06233681665,64dc7c512c6c239c09739a7b,,,,,,,sngl,resources/DBN.BMP,resources/Empty.png,Door1,-0.291796469,0.025441329,1,0,0,2.0085,optionLeft,30,11610,5,32,0,32,0,1,,,,,,,,,,,,,,,,,,,,,,,,,,,,,,,,,,,,,,,
,,,,,,,,2023-08-16_08h36.00.241,HF_wild_card,2022.2.4,Win32,59.93407252,5642444817bdbe00062a1129,64d2fd46c836a06233681665,64dc7c512c6c239c09739a7b,,,,,,,decisionTrl,resources/DG.BMP,resources/DBN.BMP,WildCard_Ex,-0.224299065,-0.000519211,1,0,0,1.1115,optionLeft,45,11655,5,33,0,33,0,1,,,,,,,,,,,,,,,,,,,,,,,,,,,,,,,,,,,,,,,
,,,,,,,,2023-08-16_08h36.00.241,HF_wild_card,2022.2.4,Win32,59.93407252,5642444817bdbe00062a1129,64d2fd46c836a06233681665,64dc7c512c6c239c09739a7b,,,,,,,ctch,resources/DBN.BMP,resources/DY.BMP,Door4,0.36344756,0.003634476,1,0,0,1.23,optionRight,60,11715,5,34,0,34,0,1,,,,,,,,,,,,,,,,,,,,,,,,,,,,,,,,,,,,,,,
,,,,,,,,2023-08-16_08h36.00.241,HF_wild_card,2022.2.4,Win32,59.93407252,5642444817bdbe00062a1129,64d2fd46c836a06233681665,64dc7c512c6c239c09739a7b,,,,,,,decisionTrl,resources/DBN.BMP,resources/DP.BMP,Door2,0.417445483,0.005711319,1,0,0,2.1127,optionRight,40,11755,5,35,0,35,0,1,,,,,,,,,,,,,,,,,,,,,,,,,,,,,,,,,,,,,,,
,,,,,,,,2023-08-16_08h36.00.241,HF_wild_card,2022.2.4,Win32,59.93407252,5642444817bdbe00062a1129,64d2fd46c836a06233681665,64dc7c512c6c239c09739a7b,,,,,,,decisionTrl,resources/DB.BMP,resources/DY.BMP,Door3,-0.277258567,-0.00674974,1,0,0,1.8803,optionLeft,70,11825,5,36,0,36,0,1,,,,,,,,,,,,,,,,,,,,,,,,,,,,,,,,,,,,,,,
,,,,,,,,2023-08-16_08h36.00.241,HF_wild_card,2022.2.4,Win32,59.93407252,5642444817bdbe00062a1129,64d2fd46c836a06233681665,64dc7c512c6c239c09739a7b,,,,,,,decisionTrl,resources/DG.BMP,resources/DP.BMP,WildCard_Ex,-0.325025961,0.020249221,1,0,0,3.1345,optionLeft,55,11880,5,37,0,37,0,1,,,,,,,,,,,,,,,,,,,,,,,,,,,,,,,,,,,,,,,
,,,,,,,,2023-08-16_08h36.00.241,HF_wild_card,2022.2.4,Win32,59.93407252,5642444817bdbe00062a1129,64d2fd46c836a06233681665,64dc7c512c6c239c09739a7b,,,,,,,decisionTrl,resources/DP.BMP,resources/DG.BMP,WildCard_Ex,0.280373832,0.007788162,1,0,0,1.1395,optionRight,45,11925,5,38,0,38,0,1,,,,,,,,,,,,,,,,,,,,,,,,,,,,,,,,,,,,,,,
,,,,,,,,2023-08-16_08h36.00.241,HF_wild_card,2022.2.4,Win32,59.93407252,5642444817bdbe00062a1129,64d2fd46c836a06233681665,64dc7c512c6c239c09739a7b,,,,,,,decisionTrl,resources/DP.BMP,resources/DBN.BMP,Door2,-0.390446521,-0.022326064,1,0,0,1.5824,optionLeft,20,11945,5,39,0,39,0,1,,,,,,,,,,,,,,,,,,,,,,,,,,,,,,,,,,,,,,,
,,,,,,,,2023-08-16_08h36.00.241,HF_wild_card,2022.2.4,Win32,59.93407252,5642444817bdbe00062a1129,64d2fd46c836a06233681665,64dc7c512c6c239c09739a7b,,,,,,,decisionTrl,resources/DY.BMP,resources/DB.BMP,Door3,0.340602285,-0.0192108,1,0,0,1.3505,optionRight,70,12015,5,40,0,40,0,1,,,,,,,,,,,,,,,,,,,,,,,,,,,,,,,,,,,,,,,
,,,,,,,,2023-08-16_08h36.00.241,HF_wild_card,2022.2.4,Win32,59.93407252,5642444817bdbe00062a1129,64d2fd46c836a06233681665,64dc7c512c6c239c09739a7b,,,,,,,decisionTrl,resources/DY.BMP,resources/DB.BMP,Door3,0.398753894,-0.030633437,1,0,0,1.6692,optionRight,70,12085,5,41,0,41,0,1,,,,,,,,,,,,,,,,,,,,,,,,,,,,,,,,,,,,,,,
,,,,,,,,2023-08-16_08h36.00.241,HF_wild_card,2022.2.4,Win32,59.93407252,5642444817bdbe00062a1129,64d2fd46c836a06233681665,64dc7c512c6c239c09739a7b,,,,,,,sngl,resources/Empty.png,resources/DBN.BMP,Door1,0.343717549,0.015057113,1,0,0,1.6714,optionRight,30,12115,5,42,0,42,0,1,,,,,,,,,,,,,,,,,,,,,,,,,,,,,,,,,,,,,,,
,,,,,,,,2023-08-16_08h36.00.241,HF_wild_card,2022.2.4,Win32,59.93407252,5642444817bdbe00062a1129,64d2fd46c836a06233681665,64dc7c512c6c239c09739a7b,,,,,,,decisionTrl,resources/DBN.BMP,resources/DG.BMP,WildCard_Ex,0.393561786,-0.007788162,1,0,0,1.1122,optionRight,55,12170,5,43,0,43,0,1,,,,,,,,,,,,,,,,,,,,,,,,,,,,,,,,,,,,,,,
,,,,,,,,2023-08-16_08h36.00.241,HF_wild_card,2022.2.4,Win32,59.93407252,5642444817bdbe00062a1129,64d2fd46c836a06233681665,64dc7c512c6c239c09739a7b,,,,,,,,,,,,,,,,,,,,,,,,,,4,0,4,0,1,,,,,,,,,,,,,,,,,,,,,,,,,,,,,,,,,,
,,,,,,,,2023-08-16_08h36.00.241,HF_wild_card,2022.2.4,Win32,59.93407252,5642444817bdbe00062a1129,64d2fd46c836a06233681665,64dc7c512c6c239c09739a7b,,,,,,,sngl,resources/Empty.png,resources/DG.BMP,WildCard_Ex,0.354101765,-0.01298027,1,0,0,1.1681,optionRight,55,12225,6,0,0,0,0,1,,,,,,,,,,,,,,,,,,,,,,,,,,,,,,,,,,,,,,,
,,,,,,,,2023-08-16_08h36.00.241,HF_wild_card,2022.2.4,Win32,59.93407252,5642444817bdbe00062a1129,64d2fd46c836a06233681665,64dc7c512c6c239c09739a7b,,,,,,,decisionTrl,resources/DP.BMP,resources/DBN.BMP,Door1,0.318795431,0.002596054,1,0,0,1.4317,optionRight,30,12255,6,1,0,1,0,1,,,,,,,,,,,,,,,,,,,,,,,,,,,,,,,,,,,,,,,
,,,,,,,,2023-08-16_08h36.00.241,HF_wild_card,2022.2.4,Win32,59.93407252,5642444817bdbe00062a1129,64d2fd46c836a06233681665,64dc7c512c6c239c09739a7b,,,,,,,decisionTrl,resources/DP.BMP,resources/DBN.BMP,Door1,0.247144341,0.002596054,1,0,0,0.8689,optionRight,30,12285,6,2,0,2,0,1,,,,,,,,,,,,,,,,,,,,,,,,,,,,,,,,,,,,,,,
,,,,,,,,2023-08-16_08h36.00.241,HF_wild_card,2022.2.4,Win32,59.93407252,5642444817bdbe00062a1129,64d2fd46c836a06233681665,64dc7c512c6c239c09739a7b,,,,,,,ctch,resources/DBN.BMP,resources/DY.BMP,Door4,0.328141225,-0.009865005,1,0,0,1.0132,optionRight,80,12365,6,3,0,3,0,1,,,,,,,,,,,,,,,,,,,,,,,,,,,,,,,,,,,,,,,
,,,,,,,,2023-08-16_08h36.00.241,HF_wild_card,2022.2.4,Win32,59.93407252,5642444817bdbe00062a1129,64d2fd46c836a06233681665,64dc7c512c6c239c09739a7b,,,,,,,decisionTrl,resources/DB.BMP,resources/DY.BMP,Door4,0.258566978,-0.00674974,1,0,0,0.8032,optionRight,60,12425,6,4,0,4,0,1,,,,,,,,,,,,,,,,,,,,,,,,,,,,,,,,,,,,,,,
,,,,,,,,2023-08-16_08h36.00.241,HF_wild_card,2022.2.4,Win32,59.93407252,5642444817bdbe00062a1129,64d2fd46c836a06233681665,64dc7c512c6c239c09739a7b,,,,,,,ctch,resources/DY.BMP,resources/DBN.BMP,Door4,-0.359293873,0.002596054,1,0,0,1.4134,optionLeft,60,12485,6,5,0,5,0,1,,,,,,,,,,,,,,,,,,,,,,,,,,,,,,,,,,,,,,,
,,,,,,,,2023-08-16_08h36.00.241,HF_wild_card,2022.2.4,Win32,59.93407252,5642444817bdbe00062a1129,64d2fd46c836a06233681665,64dc7c512c6c239c09739a7b,,,,,,,decisionTrl,resources/DG.BMP,resources/DBN.BMP,WildCard_Ex,-0.309449637,-0.018172378,1,0,0,2.128,optionLeft,45,12530,6,6,0,6,0,1,,,,,,,,,,,,,,,,,,,,,,,,,,,,,,,,,,,,,,,
,,,,,,,,2023-08-16_08h36.00.241,HF_wild_card,2022.2.4,Win32,59.93407252,5642444817bdbe00062a1129,64d2fd46c836a06233681665,64dc7c512c6c239c09739a7b,,,,,,,decisionTrl,resources/DG.BMP,resources/DP.BMP,WildCard_Ex,-0.35721703,-0.028556594,1,0,0,1.2388,optionLeft,45,12575,6,7,0,7,0,1,,,,,,,,,,,,,,,,,,,,,,,,,,,,,,,,,,,,,,,
,,,,,,,,2023-08-16_08h36.00.241,HF_wild_card,2022.2.4,Win32,59.93407252,5642444817bdbe00062a1129,64d2fd46c836a06233681665,64dc7c512c6c239c09739a7b,,,,,,,sngl,resources/DG.BMP,resources/Empty.png,WildCard_Ex,-0.387331256,-0.015057113,1,0,0,1.1636,optionLeft,45,12620,6,8,0,8,0,1,,,,,,,,,,,,,,,,,,,,,,,,,,,,,,,,,,,,,,,
,,,,,,,,2023-08-16_08h36.00.241,HF_wild_card,2022.2.4,Win32,59.93407252,5642444817bdbe00062a1129,64d2fd46c836a06233681665,64dc7c512c6c239c09739a7b,,,,,,,ctch,resources/DP.BMP,resources/DB.BMP,Door3,0.304257529,-0.01298027,1,0,0,2.2544,optionRight,70,12690,6,9,0,9,0,1,,,,,,,,,,,,,,,,,,,,,,,,,,,,,,,,,,,,,,,
,,,,,,,,2023-08-16_08h36.00.241,HF_wild_card,2022.2.4,Win32,59.93407252,5642444817bdbe00062a1129,64d2fd46c836a06233681665,64dc7c512c6c239c09739a7b,,,,,,,sngl,resources/DBN.BMP,resources/Empty.png,Door1,-0.399792316,0.004672897,1,0,0,1.4583,optionLeft,30,12720,6,10,0,10,0,1,,,,,,,,,,,,,,,,,,,,,,,,,,,,,,,,,,,,,,,
,,,,,,,,2023-08-16_08h36.00.241,HF_wild_card,2022.2.4,Win32,59.93407252,5642444817bdbe00062a1129,64d2fd46c836a06233681665,64dc7c512c6c239c09739a7b,,,,,,,decisionTrl,resources/DBN.BMP,resources/DP.BMP,Door2,0.339563863,0.007788162,1,0,0,1.2287,optionRight,20,12740,6,11,0,11,0,1,,,,,,,,,,,,,,,,,,,,,,,,,,,,,,,,,,,,,,,
,,,,,,,,2023-08-16_08h36.00.241,HF_wild_card,2022.2.4,Win32,59.93407252,5642444817bdbe00062a1129,64d2fd46c836a06233681665,64dc7c512c6c239c09739a7b,,,,,,,sngl,resources/DB.BMP,resources/Empty.png,Door3,-0.392523364,-0.037902388,1,0,0,1.3455,optionLeft,70,12810,6,12,0,12,0,1,,,,,,,,,,,,,,,,,,,,,,,,,,,,,,,,,,,,,,,
,,,,,,,,2023-08-16_08h36.00.241,HF_wild_card,2022.2.4,Win32,59.93407252,5642444817bdbe00062a1129,64d2fd46c836a06233681665,64dc7c512c6c239c09739a7b,,,,,,,decisionTrl,resources/DP.BMP,resources/DBN.BMP,Door2,-0.403946002,-0.0192108,1,0,0,1.9151,optionLeft,20,12830,6,13,0,13,0,1,,,,,,,,,,,,,,,,,,,,,,,,,,,,,,,,,,,,,,,
,,,,,,,,2023-08-16_08h36.00.241,HF_wild_card,2022.2.4,Win32,59.93407252,5642444817bdbe00062a1129,64d2fd46c836a06233681665,64dc7c512c6c239c09739a7b,,,,,,,decisionTrl,resources/DP.BMP,resources/DBN.BMP,Door2,-0.391484943,-0.01298027,1,0,0,1.8255,optionLeft,40,12870,6,14,0,14,0,1,,,,,,,,,,,,,,,,,,,,,,,,,,,,,,,,,,,,,,,
,,,,,,,,2023-08-16_08h36.00.241,HF_wild_card,2022.2.4,Win32,59.93407252,5642444817bdbe00062a1129,64d2fd46c836a06233681665,64dc7c512c6c239c09739a7b,,,,,,,sngl,resources/Empty.png,resources/DP.BMP,Door2,0.388369678,-0.03271028,1,0,0,0.9376,optionRight,40,12910,6,15,0,15,0,1,,,,,,,,,,,,,,,,,,,,,,,,,,,,,,,,,,,,,,,
,,,,,,,,2023-08-16_08h36.00.241,HF_wild_card,2022.2.4,Win32,59.93407252,5642444817bdbe00062a1129,64d2fd46c836a06233681665,64dc7c512c6c239c09739a7b,,,,,,,decisionTrl,resources/DBN.BMP,resources/DP.BMP,Door1,-0.395638629,-0.002596054,1,0,0,1.242,optionLeft,30,12940,6,16,0,16,0,1,,,,,,,,,,,,,,,,,,,,,,,,,,,,,,,,,,,,,,,
,,,,,,,,2023-08-16_08h36.00.241,HF_wild_card,2022.2.4,Win32,59.93407252,5642444817bdbe00062a1129,64d2fd46c836a06233681665,64dc7c512c6c239c09739a7b,,,,,,,decisionTrl,resources/DB.BMP,resources/DY.BMP,Door3,-0.370716511,-0.007788162,1,0,0,1.7971,optionLeft,70,13010,6,17,0,17,0,1,,,,,,,,,,,,,,,,,,,,,,,,,,,,,,,,,,,,,,,
,,,,,,,,2023-08-16_08h36.00.241,HF_wild_card,2022.2.4,Win32,59.93407252,5642444817bdbe00062a1129,64d2fd46c836a06233681665,64dc7c512c6c239c09739a7b,,,,,,,decisionTrl,resources/DBN.BMP,resources/DP.BMP,Door2,0.346832814,-0.035825545,1,0,0,1.662,optionRight,40,13050,6,18,0,18,0,1,,,,,,,,,,,,,,,,,,,,,,,,,,,,,,,,,,,,,,,
,,,,,,,,2023-08-16_08h36.00.241,HF_wild_card,2022.2.4,Win32,59.93407252,5642444817bdbe00062a1129,64d2fd46c836a06233681665,64dc7c512c6c239c09739a7b,,,,,,,decisionTrl,resources/DB.BMP,resources/DY.BMP,Door3,-0.382139148,-0.023364486,1,0,0,2.3458,optionLeft,70,13120,6,19,0,19,0,1,,,,,,,,,,,,,,,,,,,,,,,,,,,,,,,,,,,,,,,
,,,,,,,,2023-08-16_08h36.00.241,HF_wild_card,2022.2.4,Win32,59.93407252,5642444817bdbe00062a1129,64d2fd46c836a06233681665,64dc7c512c6c239c09739a7b,,,,,,,decisionTrl,resources/DBN.BMP,resources/DP.BMP,Door1,-0.382139148,-0.01298027,1,0,0,1.6872,optionLeft,30,13150,6,20,0,20,0,1,,,,,,,,,,,,,,,,,,,,,,,,,,,,,,,,,,,,,,,
,,,,,,,,2023-08-16_08h36.00.241,HF_wild_card,2022.2.4,Win32,59.93407252,5642444817bdbe00062a1129,64d2fd46c836a06233681665,64dc7c512c6c239c09739a7b,,,,,,,ctch,resources/DY.BMP,resources/DBN.BMP,Door4,-0.36344756,-0.007788162,1,0,0,0.9966,optionLeft,60,13210,6,21,0,21,0,1,,,,,,,,,,,,,,,,,,,,,,,,,,,,,,,,,,,,,,,
,,,,,,,,2023-08-16_08h36.00.241,HF_wild_card,2022.2.4,Win32,59.93407252,5642444817bdbe00062a1129,64d2fd46c836a06233681665,64dc7c512c6c239c09739a7b,,,,,,,decisionTrl,resources/DY.BMP,resources/DB.BMP,Door3,0.501557632,-0.077362409,1,0,0,1.1348,optionRight,70,13280,6,22,0,22,0,1,,,,,,,,,,,,,,,,,,,,,,,,,,,,,,,,,,,,,,,
,,,,,,,,2023-08-16_08h36.00.241,HF_wild_card,2022.2.4,Win32,59.93407252,5642444817bdbe00062a1129,64d2fd46c836a06233681665,64dc7c512c6c239c09739a7b,,,,,,,decisionTrl,resources/DY.BMP,resources/DB.BMP,Door3,0.335410177,-0.031671859,1,0,0,1.0176,optionRight,70,13350,6,23,0,23,0,1,,,,,,,,,,,,,,,,,,,,,,,,,,,,,,,,,,,,,,,
,,,,,,,,2023-08-16_08h36.00.241,HF_wild_card,2022.2.4,Win32,59.93407252,5642444817bdbe00062a1129,64d2fd46c836a06233681665,64dc7c512c6c239c09739a7b,,,,,,,sngl,resources/Empty.png,resources/DBN.BMP,Door1,0.314641745,-0.015057113,1,0,0,0.9126,optionRight,30,13380,6,24,0,24,0,1,,,,,,,,,,,,,,,,,,,,,,,,,,,,,,,,,,,,,,,
,,,,,,,,2023-08-16_08h36.00.241,HF_wild_card,2022.2.4,Win32,59.93407252,5642444817bdbe00062a1129,64d2fd46c836a06233681665,64dc7c512c6c239c09739a7b,,,,,,,decisionTrl,resources/DY.BMP,resources/DG.BMP,Door4,-0.377985462,-0.008826584,1,0,0,1.3646,optionLeft,60,13440,6,25,0,25,0,1,,,,,,,,,,,,,,,,,,,,,,,,,,,,,,,,,,,,,,,
,,,,,,,,2023-08-16_08h36.00.241,HF_wild_card,2022.2.4,Win32,59.93407252,5642444817bdbe00062a1129,64d2fd46c836a06233681665,64dc7c512c6c239c09739a7b,,,,,,,sngl,resources/Empty.png,resources/DG.BMP,WildCard_Ex,0.37694704,0.008826584,1,0,0,0.759,optionRight,45,13485,6,26,0,26,0,1,,,,,,,,,,,,,,,,,,,,,,,,,,,,,,,,,,,,,,,
,,,,,,,,2023-08-16_08h36.00.241,HF_wild_card,2022.2.4,Win32,59.93407252,5642444817bdbe00062a1129,64d2fd46c836a06233681665,64dc7c512c6c239c09739a7b,,,,,,,decisionTrl,resources/DBN.BMP,resources/DG.BMP,WildCard_Ex,0.399792316,-0.04517134,1,0,0,1.7765,optionRight,45,13530,6,27,0,27,0,1,,,,,,,,,,,,,,,,,,,,,,,,,,,,,,,,,,,,,,,
,,,,,,,,2023-08-16_08h36.00.241,HF_wild_card,2022.2.4,Win32,59.93407252,5642444817bdbe00062a1129,64d2fd46c836a06233681665,64dc7c512c6c239c09739a7b,,,,,,,sngl,resources/DG.BMP,resources/Empty.png,WildCard_Ex,-0.384215992,-0.018172378,1,0,0,0.9613,optionLeft,55,13585,6,28,0,28,0,1,,,,,,,,,,,,,,,,,,,,,,,,,,,,,,,,,,,,,,,
,,,,,,,,2023-08-16_08h36.00.241,HF_wild_card,2022.2.4,Win32,59.93407252,5642444817bdbe00062a1129,64d2fd46c836a06233681665,64dc7c512c6c239c09739a7b,,,,,,,sngl,resources/DY.BMP,resources/Empty.png,Door4,-0.372793354,-0.018172378,1,0,0,1.4758,optionLeft,60,13645,6,29,0,29,0,1,,,,,,,,,,,,,,,,,,,,,,,,,,,,,,,,,,,,,,,
,,,,,,,,2023-08-16_08h36.00.241,HF_wild_card,2022.2.4,Win32,59.93407252,5642444817bdbe00062a1129,64d2fd46c836a06233681665,64dc7c512c6c239c09739a7b,,,,,,,sngl,resources/DP.BMP,resources/Empty.png,Door2,-0.36344756,-0.029595016,1,0,0,0.9688,optionLeft,20,13665,6,30,0,30,0,1,,,,,,,,,,,,,,,,,,,,,,,,,,,,,,,,,,,,,,,
,,,,,,,,2023-08-16_08h36.00.241,HF_wild_card,2022.2.4,Win32,59.93407252,5642444817bdbe00062a1129,64d2fd46c836a06233681665,64dc7c512c6c239c09739a7b,,,,,,,ctch,resources/DP.BMP,resources/DB.BMP,Door3,0.323987539,0.000519211,1,0,0,0.9253,optionRight,70,13735,6,31,0,31,0,1,,,,,,,,,,,,,,,,,,,,,,,,,,,,,,,,,,,,,,,
,,,,,,,,2023-08-16_08h36.00.241,HF_wild_card,2022.2.4,Win32,59.93407252,5642444817bdbe00062a1129,64d2fd46c836a06233681665,64dc7c512c6c239c09739a7b,,,,,,,decisionTrl,resources/DB.BMP,resources/DY.BMP,Door3,-0.401869159,0.00674974,1,0,0,1.4876,optionLeft,70,13805,6,32,0,32,0,1,,,,,,,,,,,,,,,,,,,,,,,,,,,,,,,,,,,,,,,
,,,,,,,,2023-08-16_08h36.00.241,HF_wild_card,2022.2.4,Win32,59.93407252,5642444817bdbe00062a1129,64d2fd46c836a06233681665,64dc7c512c6c239c09739a7b,,,,,,,ctch,resources/DBN.BMP,resources/DY.BMP,Door4,0.41536864,-0.035825545,1,0,0,1.7041,optionRight,60,13865,6,33,0,33,0,1,,,,,,,,,,,,,,,,,,,,,,,,,,,,,,,,,,,,,,,
,,,,,,,,2023-08-16_08h36.00.241,HF_wild_card,2022.2.4,Win32,59.93407252,5642444817bdbe00062a1129,64d2fd46c836a06233681665,64dc7c512c6c239c09739a7b,,,,,,,decisionTrl,resources/DY.BMP,resources/DB.BMP,Door3,0.359293873,-0.034787124,1,0,0,1.6738,optionRight,70,13935,6,34,0,34,0,1,,,,,,,,,,,,,,,,,,,,,,,,,,,,,,,,,,,,,,,
,,,,,,,,2023-08-16_08h36.00.241,HF_wild_card,2022.2.4,Win32,59.93407252,5642444817bdbe00062a1129,64d2fd46c836a06233681665,64dc7c512c6c239c09739a7b,,,,,,,sngl,resources/Empty.png,resources/DY.BMP,Door4,0.406022845,-0.025441329,1,0,0,0.9273,optionRight,80,14015,6,35,0,35,0,1,,,,,,,,,,,,,,,,,,,,,,,,,,,,,,,,,,,,,,,
,,,,,,,,2023-08-16_08h36.00.241,HF_wild_card,2022.2.4,Win32,59.93407252,5642444817bdbe00062a1129,64d2fd46c836a06233681665,64dc7c512c6c239c09739a7b,,,,,,,decisionTrl,resources/DP.BMP,resources/DG.BMP,WildCard_Ex,0.469366563,-0.030633437,1,0,0,2.1584,optionRight,45,14060,6,36,0,36,0,1,,,,,,,,,,,,,,,,,,,,,,,,,,,,,,,,,,,,,,,
,,,,,,,,2023-08-16_08h36.00.241,HF_wild_card,2022.2.4,Win32,59.93407252,5642444817bdbe00062a1129,64d2fd46c836a06233681665,64dc7c512c6c239c09739a7b,,,,,,,decisionTrl,resources/DG.BMP,resources/DY.BMP,Door4,0.286604361,-0.000519211,1,0,0,1.0035,optionRight,60,14120,6,37,0,37,0,1,,,,,,,,,,,,,,,,,,,,,,,,,,,,,,,,,,,,,,,
,,,,,,,,2023-08-16_08h36.00.241,HF_wild_card,2022.2.4,Win32,59.93407252,5642444817bdbe00062a1129,64d2fd46c836a06233681665,64dc7c512c6c239c09739a7b,,,,,,,ctch,resources/DB.BMP,resources/DP.BMP,Door3,-0.355140187,0.007788162,1,0,0,1.6745,optionLeft,70,14190,6,38,0,38,0,1,,,,,,,,,,,,,,,,,,,,,,,,,,,,,,,,,,,,,,,
,,,,,,,,2023-08-16_08h36.00.241,HF_wild_card,2022.2.4,Win32,59.93407252,5642444817bdbe00062a1129,64d2fd46c836a06233681665,64dc7c512c6c239c09739a7b,,,,,,,decisionTrl,resources/DY.BMP,resources/DB.BMP,Door3,0.339563863,-0.069055036,1,0,0,1.8021,optionRight,70,14260,6,39,0,39,0,1,,,,,,,,,,,,,,,,,,,,,,,,,,,,,,,,,,,,,,,
,,,,,,,,2023-08-16_08h36.00.241,HF_wild_card,2022.2.4,Win32,59.93407252,5642444817bdbe00062a1129,64d2fd46c836a06233681665,64dc7c512c6c239c09739a7b,,,,,,,ctch,resources/DB.BMP,resources/DP.BMP,Door3,-0.316718588,-0.010903427,1,0,0,1.1198,optionLeft,70,14330,6,40,0,40,0,1,,,,,,,,,,,,,,,,,,,,,,,,,,,,,,,,,,,,,,,
,,,,,,,,2023-08-16_08h36.00.241,HF_wild_card,2022.2.4,Win32,59.93407252,5642444817bdbe00062a1129,64d2fd46c836a06233681665,64dc7c512c6c239c09739a7b,,,,,,,sngl,resources/Empty.png,resources/DB.BMP,Door3,0.390446521,-0.015057113,1,0,0,1.0445,optionRight,70,14400,6,41,0,41,0,1,,,,,,,,,,,,,,,,,,,,,,,,,,,,,,,,,,,,,,,
,,,,,,,,2023-08-16_08h36.00.241,HF_wild_card,2022.2.4,Win32,59.93407252,5642444817bdbe00062a1129,64d2fd46c836a06233681665,64dc7c512c6c239c09739a7b,,,,,,,decisionTrl,resources/DG.BMP,resources/DB.BMP,Door3,0.397715472,0.021287643,1,0,0,0.8797,optionRight,70,14470,6,42,0,42,0,1,,,,,,,,,,,,,,,,,,,,,,,,,,,,,,,,,,,,,,,
,,,,,,,,2023-08-16_08h36.00.241,HF_wild_card,2022.2.4,Win32,59.93407252,5642444817bdbe00062a1129,64d2fd46c836a06233681665,64dc7c512c6c239c09739a7b,,,,,,,decisionTrl,resources/DB.BMP,resources/DG.BMP,Door3,-0.320872274,-0.010903427,1,0,0,1.0178,optionLeft,70,14540,6,43,0,43,0,1,,,,,,,,,,,,,,,,,,,,,,,,,,,,,,,,,,,,,,,
,,,,,,,,2023-08-16_08h36.00.241,HF_wild_card,2022.2.4,Win32,59.93407252,5642444817bdbe00062a1129,64d2fd46c836a06233681665,64dc7c512c6c239c09739a7b,,,,,,,,,,,,,,,,,,,,,,,,,,5,0,5,0,1,,,,,,,,,,,,,,,,,,,,,,,,,,,,,,,,,,
,,,,,,,,2023-08-16_08h36.00.241,HF_wild_card,2022.2.4,Win32,59.93407252,5642444817bdbe00062a1129,64d2fd46c836a06233681665,64dc7c512c6c239c09739a7b,,,,,,,ctch,resources/DBN.BMP,resources/DY.BMP,Door4,0.385254413,-0.018172378,1,0,0,2.7973,optionRight,80,14620,7,0,0,0,0,1,,,,,,,,,,,,,,,,,,,,,,,,,,,,,,,,,,,,,,,
,,,,,,,,2023-08-16_08h36.00.241,HF_wild_card,2022.2.4,Win32,59.93407252,5642444817bdbe00062a1129,64d2fd46c836a06233681665,64dc7c512c6c239c09739a7b,,,,,,,decisionTrl,resources/DY.BMP,resources/DB.BMP,Door3,0.397715472,-0.00674974,1,0,0,1.3648,optionRight,70,14690,7,1,0,1,0,1,,,,,,,,,,,,,,,,,,,,,,,,,,,,,,,,,,,,,,,
,,,,,,,,2023-08-16_08h36.00.241,HF_wild_card,2022.2.4,Win32,59.93407252,5642444817bdbe00062a1129,64d2fd46c836a06233681665,64dc7c512c6c239c09739a7b,,,,,,,decisionTrl,resources/DB.BMP,resources/DY.BMP,Door3,-0.398753894,-0.030633437,1,0,0,3.4298,optionLeft,70,14760,7,2,0,2,0,1,,,,,,,,,,,,,,,,,,,,,,,,,,,,,,,,,,,,,,,
,,,,,,,,2023-08-16_08h36.00.241,HF_wild_card,2022.2.4,Win32,59.93407252,5642444817bdbe00062a1129,64d2fd46c836a06233681665,64dc7c512c6c239c09739a7b,,,,,,,ctch,resources/DBN.BMP,resources/DY.BMP,Door4,0.439252336,0.002596054,1,0,0,1.5714,optionRight,80,14840,7,3,0,3,0,1,,,,,,,,,,,,,,,,,,,,,,,,,,,,,,,,,,,,,,,
,,,,,,,,2023-08-16_08h36.00.241,HF_wild_card,2022.2.4,Win32,59.93407252,5642444817bdbe00062a1129,64d2fd46c836a06233681665,64dc7c512c6c239c09739a7b,,,,,,,ctch,resources/DY.BMP,resources/DBN.BMP,Door4,-0.377985462,-0.030633437,1,0,0,2.1411,optionLeft,80,14920,7,4,0,4,0,1,,,,,,,,,,,,,,,,,,,,,,,,,,,,,,,,,,,,,,,
,,,,,,,,2023-08-16_08h36.00.241,HF_wild_card,2022.2.4,Win32,59.93407252,5642444817bdbe00062a1129,64d2fd46c836a06233681665,64dc7c512c6c239c09739a7b,,,,,,,decisionTrl,resources/DBN.BMP,resources/DP.BMP,Door1,-0.431983385,0.011941848,1,0,0,2.5762,optionLeft,30,14950,7,5,0,5,0,1,,,,,,,,,,,,,,,,,,,,,,,,,,,,,,,,,,,,,,,
,,,,,,,,2023-08-16_08h36.00.241,HF_wild_card,2022.2.4,Win32,59.93407252,5642444817bdbe00062a1129,64d2fd46c836a06233681665,64dc7c512c6c239c09739a7b,,,,,,,decisionTrl,resources/DP.BMP,resources/DBN.BMP,Door1,0.342679128,0.011941848,1,0,0,1.2344,optionRight,30,14980,7,6,0,6,0,1,,,,,,,,,,,,,,,,,,,,,,,,,,,,,,,,,,,,,,,
,,,,,,,,2023-08-16_08h36.00.241,HF_wild_card,2022.2.4,Win32,59.93407252,5642444817bdbe00062a1129,64d2fd46c836a06233681665,64dc7c512c6c239c09739a7b,,,,,,,decisionTrl,resources/DB.BMP,resources/DY.BMP,Door3,-0.433021807,-0.008826584,1,0,0,1.3409,optionLeft,70,15050,7,7,0,7,0,1,,,,,,,,,,,,,,,,,,,,,,,,,,,,,,,,,,,,,,,
,,,,,,,,2023-08-16_08h36.00.241,HF_wild_card,2022.2.4,Win32,59.93407252,5642444817bdbe00062a1129,64d2fd46c836a06233681665,64dc7c512c6c239c09739a7b,,,,,,,ctch,resources/DY.BMP,resources/DBN.BMP,Door4,-0.395638629,-0.018172378,1,0,0,2.3428,optionLeft,60,15110,7,8,0,8,0,1,,,,,,,,,,,,,,,,,,,,,,,,,,,,,,,,,,,,,,,
,,,,,,,,2023-08-16_08h36.00.241,HF_wild_card,2022.2.4,Win32,59.93407252,5642444817bdbe00062a1129,64d2fd46c836a06233681665,64dc7c512c6c239c09739a7b,,,,,,,ctch,resources/DB.BMP,resources/DP.BMP,Door3,-0.40913811,-0.024402908,1,0,0,2.033,optionLeft,70,15180,7,9,0,9,0,1,,,,,,,,,,,,,,,,,,,,,,,,,,,,,,,,,,,,,,,
,,,,,,,,2023-08-16_08h36.00.241,HF_wild_card,2022.2.4,Win32,59.93407252,5642444817bdbe00062a1129,64d2fd46c836a06233681665,64dc7c512c6c239c09739a7b,,,,,,,decisionTrl,resources/DP.BMP,resources/DBN.BMP,Door1,0.345794393,0.016095535,1,0,0,3.2362,optionRight,30,15210,7,10,0,10,0,1,,,,,,,,,,,,,,,,,,,,,,,,,,,,,,,,,,,,,,,
,,,,,,,,2023-08-16_08h36.00.241,HF_wild_card,2022.2.4,Win32,59.93407252,5642444817bdbe00062a1129,64d2fd46c836a06233681665,64dc7c512c6c239c09739a7b,,,,,,,ctch,resources/DP.BMP,resources/DB.BMP,Door3,0.353063344,-0.005711319,1,0,0,1.2112,optionRight,70,15280,7,11,0,11,0,1,,,,,,,,,,,,,,,,,,,,,,,,,,,,,,,,,,,,,,,
,,,,,,,,2023-08-16_08h36.00.241,HF_wild_card,2022.2.4,Win32,59.93407252,5642444817bdbe00062a1129,64d2fd46c836a06233681665,64dc7c512c6c239c09739a7b,,,,,,,decisionTrl,resources/DY.BMP,resources/DB.BMP,Door3,0.398753894,-0.027518172,1,0,0,1.1239,optionRight,70,15350,7,12,0,12,0,1,,,,,,,,,,,,,,,,,,,,,,,,,,,,,,,,,,,,,,,
,,,,,,,,2023-08-16_08h36.00.241,HF_wild_card,2022.2.4,Win32,59.93407252,5642444817bdbe00062a1129,64d2fd46c836a06233681665,64dc7c512c6c239c09739a7b,,,,,,,ctch,resources/DB.BMP,resources/DP.BMP,Door3,-0.423676012,-0.010903427,1,0,0,1.4263,optionLeft,70,15420,7,13,0,13,0,1,,,,,,,,,,,,,,,,,,,,,,,,,,,,,,,,,,,,,,,
,,,,,,,,2023-08-16_08h36.00.241,HF_wild_card,2022.2.4,Win32,59.93407252,5642444817bdbe00062a1129,64d2fd46c836a06233681665,64dc7c512c6c239c09739a7b,,,,,,,ctch,resources/DBN.BMP,resources/DY.BMP,Door4,0.347871236,-0.010903427,1,0,0,1.8935,optionRight,80,15500,7,14,0,14,0,1,,,,,,,,,,,,,,,,,,,,,,,,,,,,,,,,,,,,,,,
,,,,,,,,2023-08-16_08h36.00.241,HF_wild_card,2022.2.4,Win32,59.93407252,5642444817bdbe00062a1129,64d2fd46c836a06233681665,64dc7c512c6c239c09739a7b,,,,,,,decisionTrl,resources/DY.BMP,resources/DB.BMP,Door3,0.321910696,-0.010903427,1,0,0,1.1432,optionRight,70,15570,7,15,0,15,0,1,,,,,,,,,,,,,,,,,,,,,,,,,,,,,,,,,,,,,,,
,,,,,,,,2023-08-16_08h36.00.241,HF_wild_card,2022.2.4,Win32,59.93407252,5642444817bdbe00062a1129,64d2fd46c836a06233681665,64dc7c512c6c239c09739a7b,,,,,,,decisionTrl,resources/DP.BMP,resources/DBN.BMP,Door1,0.395638629,0.0192108,1,0,0,2.496,optionRight,30,15600,7,16,0,16,0,1,,,,,,,,,,,,,,,,,,,,,,,,,,,,,,,,,,,,,,,
,,,,,,,,2023-08-16_08h36.00.241,HF_wild_card,2022.2.4,Win32,59.93407252,5642444817bdbe00062a1129,64d2fd46c836a06233681665,64dc7c512c6c239c09739a7b,,,,,,,ctch,resources/DY.BMP,resources/DBN.BMP,Door4,-0.387331256,-0.0192108,1,0,0,1.4583,optionLeft,80,15680,7,17,0,17,0,1,,,,,,,,,,,,,,,,,,,,,,,,,,,,,,,,,,,,,,,
,,,,,,,,2023-08-16_08h36.00.241,HF_wild_card,2022.2.4,Win32,59.93407252,5642444817bdbe00062a1129,64d2fd46c836a06233681665,64dc7c512c6c239c09739a7b,,,,,,,decisionTrl,resources/DBN.BMP,resources/DP.BMP,Door1,-0.398753894,0.004672897,1,0,0,2.3635,optionLeft,30,15710,7,18,0,18,0,1,,,,,,,,,,,,,,,,,,,,,,,,,,,,,,,,,,,,,,,
,,,,,,,,2023-08-16_08h36.00.241,HF_wild_card,2022.2.4,Win32,59.93407252,5642444817bdbe00062a1129,64d2fd46c836a06233681665,64dc7c512c6c239c09739a7b,,,,,,,ctch,resources/DP.BMP,resources/DB.BMP,Door3,0.385254413,-0.037902388,1,0,0,2.1318,optionRight,70,15780,7,19,0,19,0,1,,,,,,,,,,,,,,,,,,,,,,,,,,,,,,,,,,,,,,,
,,,,,,,,2023-08-16_08h36.00.241,HF_wild_card,2022.2.4,Win32,59.93407252,5642444817bdbe00062a1129,64d2fd46c836a06233681665,64dc7c512c6c239c09739a7b,,,,,,,decisionTrl,resources/DP.BMP,resources/DBN.BMP,Door1,0.396677051,0.001557632,1,0,0,1.6674,optionRight,30,15810,7,20,0,20,0,1,,,,,,,,,,,,,,,,,,,,,,,,,,,,,,,,,,,,,,,
,,,,,,,,2023-08-16_08h36.00.241,HF_wild_card,2022.2.4,Win32,59.93407252,5642444817bdbe00062a1129,64d2fd46c836a06233681665,64dc7c512c6c239c09739a7b,,,,,,,decisionTrl,resources/DP.BMP,resources/DBN.BMP,Door1,0.396677051,0.008826584,1,0,0,1.3401,optionRight,30,15840,7,21,0,21,0,1,,,,,,,,,,,,,,,,,,,,,,,,,,,,,,,,,,,,,,,
,,,,,,,,2023-08-16_08h36.00.241,HF_wild_card,2022.2.4,Win32,59.93407252,5642444817bdbe00062a1129,64d2fd46c836a06233681665,64dc7c512c6c239c09739a7b,,,,,,,decisionTrl,resources/DBN.BMP,resources/DP.BMP,Door1,-0.40290758,0.005711319,1,0,0,1.6912,optionLeft,30,15870,7,22,0,22,0,1,,,,,,,,,,,,,,,,,,,,,,,,,,,,,,,,,,,,,,,
,,,,,,,,2023-08-16_08h36.00.241,HF_wild_card,2022.2.4,Win32,59.93407252,5642444817bdbe00062a1129,64d2fd46c836a06233681665,64dc7c512c6c239c09739a7b,,,,,,,decisionTrl,resources/DB.BMP,resources/DY.BMP,Door3,-0.434060228,-0.042056075,1,0,0,1.8776,optionLeft,70,15940,7,23,0,23,0,1,,,,,,,,,,,,,,,,,,,,,,,,,,,,,,,,,,,,,,,
,,,,,,,,2023-08-16_08h36.00.241,HF_wild_card,2022.2.4,Win32,59.93407252,5642444817bdbe00062a1129,64d2fd46c836a06233681665,64dc7c512c6c239c09739a7b,,,,,,,ctch,resources/DB.BMP,resources/DP.BMP,Door3,-0.424714434,-0.046209761,1,0,0,2.0205,optionLeft,70,16010,7,24,0,24,0,1,,,,,,,,,,,,,,,,,,,,,,,,,,,,,,,,,,,,,,,
,,,,,,,,2023-08-16_08h36.00.241,HF_wild_card,2022.2.4,Win32,59.93407252,5642444817bdbe00062a1129,64d2fd46c836a06233681665,64dc7c512c6c239c09739a7b,,,,,,,decisionTrl,resources/DBN.BMP,resources/DP.BMP,Door1,-0.384215992,-0.000519211,1,0,0,1.8266,optionLeft,30,16040,7,25,0,25,0,1,,,,,,,,,,,,,,,,,,,,,,,,,,,,,,,,,,,,,,,
,,,,,,,,2023-08-16_08h36.00.241,HF_wild_card,2022.2.4,Win32,59.93407252,5642444817bdbe00062a1129,64d2fd46c836a06233681665,64dc7c512c6c239c09739a7b,,,,,,,decisionTrl,resources/DB.BMP,resources/DY.BMP,Door3,-0.411214953,-0.043094496,1,0,0,1.9291,optionLeft,70,16110,7,26,0,26,0,1,,,,,,,,,,,,,,,,,,,,,,,,,,,,,,,,,,,,,,,
,,,,,,,,2023-08-16_08h36.00.241,HF_wild_card,2022.2.4,Win32,59.93407252,5642444817bdbe00062a1129,64d2fd46c836a06233681665,64dc7c512c6c239c09739a7b,,,,,,,decisionTrl,resources/DBN.BMP,resources/DP.BMP,Door1,-0.398753894,-0.009865005,1,0,0,1.3528,optionLeft,30,16140,7,27,0,27,0,1,,,,,,,,,,,,,,,,,,,,,,,,,,,,,,,,,,,,,,,
,,,,,,,,2023-08-16_08h36.00.241,HF_wild_card,2022.2.4,Win32,59.93407252,5642444817bdbe00062a1129,64d2fd46c836a06233681665,64dc7c512c6c239c09739a7b,,,,,,,decisionTrl,resources/DY.BMP,resources/DB.BMP,Door3,0.38317757,-0.043094496,1,0,0,1.5323,optionRight,70,16210,7,28,0,28,0,1,,,,,,,,,,,,,,,,,,,,,,,,,,,,,,,,,,,,,,,
,,,,,,,,2023-08-16_08h36.00.241,HF_wild_card,2022.2.4,Win32,59.93407252,5642444817bdbe00062a1129,64d2fd46c836a06233681665,64dc7c512c6c239c09739a7b,,,,,,,decisionTrl,resources/DY.BMP,resources/DB.BMP,Door3,0.384215992,-0.03894081,1,0,0,1.8658,optionRight,70,16280,7,29,0,29,0,1,,,,,,,,,,,,,,,,,,,,,,,,,,,,,,,,,,,,,,,
,,,,,,,,2023-08-16_08h36.00.241,HF_wild_card,2022.2.4,Win32,59.93407252,5642444817bdbe00062a1129,64d2fd46c836a06233681665,64dc7c512c6c239c09739a7b,,,,,,,decisionTrl,resources/DB.BMP,resources/DY.BMP,Door3,-0.419522326,-0.03894081,1,0,0,1.239,optionLeft,70,16350,7,30,0,30,0,1,,,,,,,,,,,,,,,,,,,,,,,,,,,,,,,,,,,,,,,
,,,,,,,,2023-08-16_08h36.00.241,HF_wild_card,2022.2.4,Win32,59.93407252,5642444817bdbe00062a1129,64d2fd46c836a06233681665,64dc7c512c6c239c09739a7b,,,,,,,decisionTrl,resources/DP.BMP,resources/DBN.BMP,Door1,0.396677051,0.000519211,1,0,0,1.4411,optionRight,30,16380,7,31,0,31,0,1,,,,,,,,,,,,,,,,,,,,,,,,,,,,,,,,,,,,,,,
,,,,,,,,2023-08-16_08h36.00.241,HF_wild_card,2022.2.4,Win32,59.93407252,5642444817bdbe00062a1129,64d2fd46c836a06233681665,64dc7c512c6c239c09739a7b,,,,,,,decisionTrl,resources/DBN.BMP,resources/DP.BMP,Door1,-0.390446521,-0.00674974,1,0,0,1.6612,optionLeft,30,16410,7,32,0,32,0,1,,,,,,,,,,,,,,,,,,,,,,,,,,,,,,,,,,,,,,,
,,,,,,,,2023-08-16_08h36.00.241,HF_wild_card,2022.2.4,Win32,59.93407252,5642444817bdbe00062a1129,64d2fd46c836a06233681665,64dc7c512c6c239c09739a7b,,,,,,,ctch,resources/DP.BMP,resources/DB.BMP,Door3,0.380062305,-0.037902388,1,0,0,1.3767,optionRight,70,16480,7,33,0,33,0,1,,,,,,,,,,,,,,,,,,,,,,,,,,,,,,,,,,,,,,,
,,,,,,,,2023-08-16_08h36.00.241,HF_wild_card,2022.2.4,Win32,59.93407252,5642444817bdbe00062a1129,64d2fd46c836a06233681665,64dc7c512c6c239c09739a7b,,,,,,,decisionTrl,resources/DB.BMP,resources/DY.BMP,Door3,-0.40913811,-0.039979232,1,0,0,2.0323,optionLeft,70,16550,7,34,0,34,0,1,,,,,,,,,,,,,,,,,,,,,,,,,,,,,,,,,,,,,,,
,,,,,,,,2023-08-16_08h36.00.241,HF_wild_card,2022.2.4,Win32,59.93407252,5642444817bdbe00062a1129,64d2fd46c836a06233681665,64dc7c512c6c239c09739a7b,,,,,,,decisionTrl,resources/DY.BMP,resources/DB.BMP,Door3,0.384215992,-0.034787124,1,0,0,1.4339,optionRight,70,16620,7,35,0,35,0,1,,,,,,,,,,,,,,,,,,,,,,,,,,,,,,,,,,,,,,,
,,,,,,,,2023-08-16_08h36.00.241,HF_wild_card,2022.2.4,Win32,59.93407252,5642444817bdbe00062a1129,64d2fd46c836a06233681665,64dc7c512c6c239c09739a7b,,,,,,,,,,,,,,,,,,,,,,,,,,6,0,6,0,1,,,,,,,,,,,,,,,,,,,,,,,,,,,,,,,,,,
,,,,,,,,2023-08-16_08h36.00.241,HF_wild_card,2022.2.4,Win32,59.93407252,5642444817bdbe00062a1129,64d2fd46c836a06233681665,64dc7c512c6c239c09739a7b,,,,,,,,,,,,,,,,,,,,,,,,,,,,,,,4,,,,,,,,,,,,,,,,,,,,,,,,,,,,,,,,,
,,,,,,,,2023-08-16_08h36.00.241,HF_wild_card,2022.2.4,Win32,59.93407252,5642444817bdbe00062a1129,64d2fd46c836a06233681665,64dc7c512c6c239c09739a7b,,,,,,,,,,,,,,,,,,,,,,,,,,,,,,,,,,,,,,,,,,,,,,,,,,,,,,,,,,,,,,,,
,,,,,,,,2023-08-16_08h36.00.241,HF_wild_card,2022.2.4,Win32,59.93407252,5642444817bdbe00062a1129,64d2fd46c836a06233681665,64dc7c512c6c239c09739a7b,,,,,,,,,,,,,,,,,,,,,,,,,,,,,,,,66,WC_extreme,resources/DG.BMP,0,0,0,0,1,,,,,,,,,,,,,,,,,,,,,,,,,
,,,,,,,,2023-08-16_08h36.00.241,HF_wild_card,2022.2.4,Win32,59.93407252,5642444817bdbe00062a1129,64d2fd46c836a06233681665,64dc7c512c6c239c09739a7b,,,,,,,,,,,,,,,,,,,,,,,,,,,,,,,,40,WC_nonExtreme,resources/DR.BMP,1,0,1,0,1,,,,,,,,,,,,,,,,,,,,,,,,,
,,,,,,,,2023-08-16_08h36.00.241,HF_wild_card,2022.2.4,Win32,59.93407252,5642444817bdbe00062a1129,64d2fd46c836a06233681665,64dc7c512c6c239c09739a7b,,,,,,,,,,,,,,,,,,,,,,,,,,,,,,,,70,Door3,resources/DB.BMP,2,0,2,0,1,,,,,,,,,,,,,,,,,,,,,,,,,
,,,,,,,,2023-08-16_08h36.00.241,HF_wild_card,2022.2.4,Win32,59.93407252,5642444817bdbe00062a1129,64d2fd46c836a06233681665,64dc7c512c6c239c09739a7b,,,,,,,,,,,,,,,,,,,,,,,,,,,,,,,,30,Door1,resources/DBN.BMP,3,0,3,0,1,,,,,,,,,,,,,,,,,,,,,,,,,
,,,,,,,,2023-08-16_08h36.00.241,HF_wild_card,2022.2.4,Win32,59.93407252,5642444817bdbe00062a1129,64d2fd46c836a06233681665,64dc7c512c6c239c09739a7b,,,,,,,,,,,,,,,,,,,,,,,,,,,,,,,,45,Door2,resources/DP.BMP,4,0,4,0,1,,,,,,,,,,,,,,,,,,,,,,,,,
,,,,,,,,2023-08-16_08h36.00.241,HF_wild_card,2022.2.4,Win32,59.93407252,5642444817bdbe00062a1129,64d2fd46c836a06233681665,64dc7c512c6c239c09739a7b,,,,,,,,,,,,,,,,,,,,,,,,,,,,,,,,60,Door4,resources/DY.BMP,5,0,5,0,1,,,,,,,,,,,,,,,,,,,,,,,,,
,,,,,,,,2023-08-16_08h36.00.241,HF_wild_card,2022.2.4,Win32,59.93407252,5642444817bdbe00062a1129,64d2fd46c836a06233681665,64dc7c512c6c239c09739a7b,,,,,,,,,,,,,,,,,,,,,,,,,,,,,,,,,,,,,,,,,,,,,,,,,,,,,,,,,,,,,,,,
