Condition,Low fixed image (Door1),Low risky image (Door2),High fixed image (Door3),High risky image (Door4),Extreme Wild Card,NonExtreme Wild Card,,date,expName,psychopyVersion,OS,frameRate,PROLIFIC_PID,STUDY_ID,SESSION_ID,mouse_2.x,mouse_2.y,mouse_2.leftButton,mouse_2.midButton,mouse_2.rightButton,mouse_2.clicked_name,Trial Type,Left Option Image,Right Option Image,Chosen Door,mouse.x,mouse.y,mouse.leftButton,mouse.midButton,mouse.rightButton,mouse.time,mouse.clicked_name,Feedback,Cumulative Reward,Block,trial.thisRepN,trial.thisTrialN,trial.thisN,trial.thisIndex,trial.ran,blocks.thisRepN,blocks.thisTrialN,blocks.thisN,blocks.thisIndex,blocks.ran,Money conversion,First Outcome Reported,Shown Door (First Outcome),Displayed Image (First Outcome),outcomes.thisRepN,outcomes.thisTrialN,outcomes.thisN,outcomes.thisIndex,outcomes.ran,judgments.thisRepN,judgments.thisTrialN,judgments.thisN,judgments.thisIndex,judgments.ran,freqMouse.x,freqMouse.y,freqMouse.leftButton,freqMouse.midButton,freqMouse.rightButton,freqMouse.clicked_name,FQJ for first outcome,FQJ for second outcome,Shown Door,Displayed Image,trials.thisRepN,trials.thisTrialN,trials.thisN,trials.thisIndex,trials.ran,judgBlock.thisRepN,judgBlock.thisTrialN,judgBlock.thisN,judgBlock.thisIndex,judgBlock.ran
0,resources/DR.BMP,resources/DG.BMP,resources/DBN.BMP,resources/DB.BMP,resources/DP.BMP,resources/DY.BMP,57ea425e5b88f5000106bb9f,2023-08-06_08h31.05.540,HF_wild_card,2022.2.4,MacIntel,59.99880002,57ea425e5b88f5000106bb9f,64ce5acb97489d65b14ecc7a,64cf4bf2f2a56b8fcaf25157,,,,,,,,,,,,,,,,,,,,,,,,,,,,,,,,,,,,,,,,,,,,,,,,,,,,,,,,,,,,,,,,
,,,,,,,57ea425e5b88f5000106bb9f,2023-08-06_08h31.05.540,HF_wild_card,2022.2.4,MacIntel,59.99880002,57ea425e5b88f5000106bb9f,64ce5acb97489d65b14ecc7a,64cf4bf2f2a56b8fcaf25157,-0.01422682,-0.428133681,1,0,0,agree,,,,,,,,,,,,,,,,,,,,,,,,,,,,,,,,,,,,,,,,,,,,,,,,,,,,,,,,,,
,,,,,,,57ea425e5b88f5000106bb9f,2023-08-06_08h31.05.540,HF_wild_card,2022.2.4,MacIntel,59.99880002,57ea425e5b88f5000106bb9f,64ce5acb97489d65b14ecc7a,64cf4bf2f2a56b8fcaf25157,,,,,,,,,,,,,,,,,,,,,,,,,,,,,,,,,,,,,,,,,,,,,,,,,,,,,,,,,,,,,,,,
,,,,,,,57ea425e5b88f5000106bb9f,2023-08-06_08h31.05.540,HF_wild_card,2022.2.4,MacIntel,59.99880002,57ea425e5b88f5000106bb9f,64ce5acb97489d65b14ecc7a,64cf4bf2f2a56b8fcaf25157,,,,,,,decisionTrl,resources/DP.BMP,resources/DG.BMP,WildCard_Ex,-0.395223456,-0.152429064,1,0,0,1.6203,optionLeft,5,5,1,0,0,0,0,1,,,,,,,,,,,,,,,,,,,,,,,,,,,,,,,,,,,,,,,
,,,,,,,57ea425e5b88f5000106bb9f,2023-08-06_08h31.05.540,HF_wild_card,2022.2.4,MacIntel,59.99880002,57ea425e5b88f5000106bb9f,64ce5acb97489d65b14ecc7a,64cf4bf2f2a56b8fcaf25157,,,,,,,decisionTrl,resources/DBN.BMP,resources/DB.BMP,Door4,0.367801107,-0.045423448,1,0,0,1.3943,optionRight,60,65,1,1,0,1,0,1,,,,,,,,,,,,,,,,,,,,,,,,,,,,,,,,,,,,,,,
,,,,,,,57ea425e5b88f5000106bb9f,2023-08-06_08h31.05.540,HF_wild_card,2022.2.4,MacIntel,59.99880002,57ea425e5b88f5000106bb9f,64ce5acb97489d65b14ecc7a,64cf4bf2f2a56b8fcaf25157,,,,,,,decisionTrl,resources/DP.BMP,resources/DB.BMP,Door4,0.370650635,-0.02775628,1,0,0,1.2953,optionRight,80,145,1,2,0,2,0,1,,,,,,,,,,,,,,,,,,,,,,,,,,,,,,,,,,,,,,,
,,,,,,,57ea425e5b88f5000106bb9f,2023-08-06_08h31.05.540,HF_wild_card,2022.2.4,MacIntel,59.99880002,57ea425e5b88f5000106bb9f,64ce5acb97489d65b14ecc7a,64cf4bf2f2a56b8fcaf25157,,,,,,,decisionTrl,resources/DB.BMP,resources/DBN.BMP,Door4,-0.37984019,-0.064935676,1,0,0,0.7433,optionLeft,60,205,1,3,0,3,0,1,,,,,,,,,,,,,,,,,,,,,,,,,,,,,,,,,,,,,,,
,,,,,,,57ea425e5b88f5000106bb9f,2023-08-06_08h31.05.540,HF_wild_card,2022.2.4,MacIntel,59.99880002,57ea425e5b88f5000106bb9f,64ce5acb97489d65b14ecc7a,64cf4bf2f2a56b8fcaf25157,,,,,,,decisionTrl,resources/DBN.BMP,resources/DB.BMP,Door3,-0.51602695,-0.06825253,1,0,0,0.661,optionLeft,70,275,1,4,0,4,0,1,,,,,,,,,,,,,,,,,,,,,,,,,,,,,,,,,,,,,,,
,,,,,,,57ea425e5b88f5000106bb9f,2023-08-06_08h31.05.540,HF_wild_card,2022.2.4,MacIntel,59.99880002,57ea425e5b88f5000106bb9f,64ce5acb97489d65b14ecc7a,64cf4bf2f2a56b8fcaf25157,,,,,,,decisionTrl,resources/DB.BMP,resources/DBN.BMP,Door3,0.489285889,0.041182556,1,0,0,0.5772,optionRight,70,345,1,5,0,5,0,1,,,,,,,,,,,,,,,,,,,,,,,,,,,,,,,,,,,,,,,
,,,,,,,57ea425e5b88f5000106bb9f,2023-08-06_08h31.05.540,HF_wild_card,2022.2.4,MacIntel,59.99880002,57ea425e5b88f5000106bb9f,64ce5acb97489d65b14ecc7a,64cf4bf2f2a56b8fcaf25157,,,,,,,sngl,resources/Empty.png,resources/DR.BMP,Door1,0.507506104,0.030814548,1,0,0,0.695,optionRight,30,375,1,6,0,6,0,1,,,,,,,,,,,,,,,,,,,,,,,,,,,,,,,,,,,,,,,
,,,,,,,57ea425e5b88f5000106bb9f,2023-08-06_08h31.05.540,HF_wild_card,2022.2.4,MacIntel,59.99880002,57ea425e5b88f5000106bb9f,64ce5acb97489d65b14ecc7a,64cf4bf2f2a56b8fcaf25157,,,,,,,decisionTrl,resources/DBN.BMP,resources/DB.BMP,Door3,-0.381126607,-0.035176561,1,0,0,0.5771,optionLeft,70,445,1,7,0,7,0,1,,,,,,,,,,,,,,,,,,,,,,,,,,,,,,,,,,,,,,,
,,,,,,,57ea425e5b88f5000106bb9f,2023-08-06_08h31.05.540,HF_wild_card,2022.2.4,MacIntel,59.99880002,57ea425e5b88f5000106bb9f,64ce5acb97489d65b14ecc7a,64cf4bf2f2a56b8fcaf25157,,,,,,,decisionTrl,resources/DR.BMP,resources/DG.BMP,Door1,-0.315364482,-0.057374505,1,0,0,0.6283,optionLeft,30,475,1,8,0,8,0,1,,,,,,,,,,,,,,,,,,,,,,,,,,,,,,,,,,,,,,,
,,,,,,,57ea425e5b88f5000106bb9f,2023-08-06_08h31.05.540,HF_wild_card,2022.2.4,MacIntel,59.99880002,57ea425e5b88f5000106bb9f,64ce5acb97489d65b14ecc7a,64cf4bf2f2a56b8fcaf25157,,,,,,,ctch,resources/DG.BMP,resources/DBN.BMP,Door2,-0.315906067,-0.044572822,1,0,0,1.164,optionLeft,40,515,1,9,0,9,0,1,,,,,,,,,,,,,,,,,,,,,,,,,,,,,,,,,,,,,,,
,,,,,,,57ea425e5b88f5000106bb9f,2023-08-06_08h31.05.540,HF_wild_card,2022.2.4,MacIntel,59.99880002,57ea425e5b88f5000106bb9f,64ce5acb97489d65b14ecc7a,64cf4bf2f2a56b8fcaf25157,,,,,,,sngl,resources/Empty.png,resources/DP.BMP,WildCard_Ex,0.391929253,-0.043466966,1,0,0,0.7129,optionRight,5,520,1,10,0,10,0,1,,,,,,,,,,,,,,,,,,,,,,,,,,,,,,,,,,,,,,,
,,,,,,,57ea425e5b88f5000106bb9f,2023-08-06_08h31.05.540,HF_wild_card,2022.2.4,MacIntel,59.99880002,57ea425e5b88f5000106bb9f,64ce5acb97489d65b14ecc7a,64cf4bf2f2a56b8fcaf25157,,,,,,,sngl,resources/DR.BMP,resources/Empty.png,Door1,-0.447683953,-0.06721205,1,0,0,0.6619,optionLeft,30,550,1,11,0,11,0,1,,,,,,,,,,,,,,,,,,,,,,,,,,,,,,,,,,,,,,,
,,,,,,,57ea425e5b88f5000106bb9f,2023-08-06_08h31.05.540,HF_wild_card,2022.2.4,MacIntel,59.99880002,57ea425e5b88f5000106bb9f,64ce5acb97489d65b14ecc7a,64cf4bf2f2a56b8fcaf25157,,,,,,,ctch,resources/DG.BMP,resources/DBN.BMP,Door3,0.401346436,0.024120314,1,0,0,1.713,optionRight,70,620,1,12,0,12,0,1,,,,,,,,,,,,,,,,,,,,,,,,,,,,,,,,,,,,,,,
,,,,,,,57ea425e5b88f5000106bb9f,2023-08-06_08h31.05.540,HF_wild_card,2022.2.4,MacIntel,59.99880002,57ea425e5b88f5000106bb9f,64ce5acb97489d65b14ecc7a,64cf4bf2f2a56b8fcaf25157,,,,,,,decisionTrl,resources/DP.BMP,resources/DBN.BMP,Door3,0.453037245,0.031070557,1,0,0,0.6145,optionRight,70,690,1,13,0,13,0,1,,,,,,,,,,,,,,,,,,,,,,,,,,,,,,,,,,,,,,,
,,,,,,,57ea425e5b88f5000106bb9f,2023-08-06_08h31.05.540,HF_wild_card,2022.2.4,MacIntel,59.99880002,57ea425e5b88f5000106bb9f,64ce5acb97489d65b14ecc7a,64cf4bf2f2a56b8fcaf25157,,,,,,,decisionTrl,resources/DR.BMP,resources/DG.BMP,Door2,0.329529215,-0.012192654,1,0,0,1.1455,optionRight,40,730,1,14,0,14,0,1,,,,,,,,,,,,,,,,,,,,,,,,,,,,,,,,,,,,,,,
,,,,,,,57ea425e5b88f5000106bb9f,2023-08-06_08h31.05.540,HF_wild_card,2022.2.4,MacIntel,59.99880002,57ea425e5b88f5000106bb9f,64ce5acb97489d65b14ecc7a,64cf4bf2f2a56b8fcaf25157,,,,,,,ctch,resources/DB.BMP,resources/DR.BMP,Door4,-0.34857449,-0.056327209,1,0,0,1.0609,optionLeft,60,790,1,15,0,15,0,1,,,,,,,,,,,,,,,,,,,,,,,,,,,,,,,,,,,,,,,
,,,,,,,57ea425e5b88f5000106bb9f,2023-08-06_08h31.05.540,HF_wild_card,2022.2.4,MacIntel,59.99880002,57ea425e5b88f5000106bb9f,64ce5acb97489d65b14ecc7a,64cf4bf2f2a56b8fcaf25157,,,,,,,sngl,resources/DB.BMP,resources/Empty.png,Door4,-0.424865451,-0.074299181,1,0,0,0.5136,optionLeft,80,870,1,16,0,16,0,1,,,,,,,,,,,,,,,,,,,,,,,,,,,,,,,,,,,,,,,
,,,,,,,57ea425e5b88f5000106bb9f,2023-08-06_08h31.05.540,HF_wild_card,2022.2.4,MacIntel,59.99880002,57ea425e5b88f5000106bb9f,64ce5acb97489d65b14ecc7a,64cf4bf2f2a56b8fcaf25157,,,,,,,decisionTrl,resources/DB.BMP,resources/DBN.BMP,Door4,-0.335545654,-0.05980445,1,0,0,0.5452,optionLeft,80,950,1,17,0,17,0,1,,,,,,,,,,,,,,,,,,,,,,,,,,,,,,,,,,,,,,,
,,,,,,,57ea425e5b88f5000106bb9f,2023-08-06_08h31.05.540,HF_wild_card,2022.2.4,MacIntel,59.99880002,57ea425e5b88f5000106bb9f,64ce5acb97489d65b14ecc7a,64cf4bf2f2a56b8fcaf25157,,,,,,,decisionTrl,resources/DB.BMP,resources/DP.BMP,Door4,-0.374197456,-0.091143731,1,0,0,0.6619,optionLeft,60,1010,1,18,0,18,0,1,,,,,,,,,,,,,,,,,,,,,,,,,,,,,,,,,,,,,,,
,,,,,,,57ea425e5b88f5000106bb9f,2023-08-06_08h31.05.540,HF_wild_card,2022.2.4,MacIntel,59.99880002,57ea425e5b88f5000106bb9f,64ce5acb97489d65b14ecc7a,64cf4bf2f2a56b8fcaf25157,,,,,,,sngl,resources/Empty.png,resources/DP.BMP,WildCard_Ex,0.420112712,-0.009493544,1,0,0,0.5613,optionRight,95,1105,1,19,0,19,0,1,,,,,,,,,,,,,,,,,,,,,,,,,,,,,,,,,,,,,,,
,,,,,,,57ea425e5b88f5000106bb9f,2023-08-06_08h31.05.540,HF_wild_card,2022.2.4,MacIntel,59.99880002,57ea425e5b88f5000106bb9f,64ce5acb97489d65b14ecc7a,64cf4bf2f2a56b8fcaf25157,,,,,,,decisionTrl,resources/DB.BMP,resources/DBN.BMP,Door4,-0.369538439,-0.056109551,1,0,0,0.8804,optionLeft,80,1185,1,20,0,20,0,1,,,,,,,,,,,,,,,,,,,,,,,,,,,,,,,,,,,,,,,
,,,,,,,57ea425e5b88f5000106bb9f,2023-08-06_08h31.05.540,HF_wild_card,2022.2.4,MacIntel,59.99880002,57ea425e5b88f5000106bb9f,64ce5acb97489d65b14ecc7a,64cf4bf2f2a56b8fcaf25157,,,,,,,decisionTrl,resources/DG.BMP,resources/DR.BMP,Door2,-0.353232863,-0.061296455,1,0,0,1.0126,optionLeft,20,1205,1,21,0,21,0,1,,,,,,,,,,,,,,,,,,,,,,,,,,,,,,,,,,,,,,,
,,,,,,,57ea425e5b88f5000106bb9f,2023-08-06_08h31.05.540,HF_wild_card,2022.2.4,MacIntel,59.99880002,57ea425e5b88f5000106bb9f,64ce5acb97489d65b14ecc7a,64cf4bf2f2a56b8fcaf25157,,,,,,,sngl,resources/DP.BMP,resources/Empty.png,WildCard_Ex,-0.397683072,-0.082368096,1,0,0,0.578,optionLeft,95,1300,1,22,0,22,0,1,,,,,,,,,,,,,,,,,,,,,,,,,,,,,,,,,,,,,,,
,,,,,,,57ea425e5b88f5000106bb9f,2023-08-06_08h31.05.540,HF_wild_card,2022.2.4,MacIntel,59.99880002,57ea425e5b88f5000106bb9f,64ce5acb97489d65b14ecc7a,64cf4bf2f2a56b8fcaf25157,,,,,,,ctch,resources/DBN.BMP,resources/DG.BMP,Door2,0.440482856,-0.019863993,1,0,0,0.6444,optionRight,20,1320,1,23,0,23,0,1,,,,,,,,,,,,,,,,,,,,,,,,,,,,,,,,,,,,,,,
,,,,,,,57ea425e5b88f5000106bb9f,2023-08-06_08h31.05.540,HF_wild_card,2022.2.4,MacIntel,59.99880002,57ea425e5b88f5000106bb9f,64ce5acb97489d65b14ecc7a,64cf4bf2f2a56b8fcaf25157,,,,,,,ctch,resources/DB.BMP,resources/DR.BMP,Door4,-0.373901571,-0.005137261,1,0,0,0.9609,optionLeft,60,1380,1,24,0,24,0,1,,,,,,,,,,,,,,,,,,,,,,,,,,,,,,,,,,,,,,,
,,,,,,,57ea425e5b88f5000106bb9f,2023-08-06_08h31.05.540,HF_wild_card,2022.2.4,MacIntel,59.99880002,57ea425e5b88f5000106bb9f,64ce5acb97489d65b14ecc7a,64cf4bf2f2a56b8fcaf25157,,,,,,,decisionTrl,resources/DP.BMP,resources/DR.BMP,Door1,0.35146715,-0.046131999,1,0,0,0.595,optionRight,30,1410,1,25,0,25,0,1,,,,,,,,,,,,,,,,,,,,,,,,,,,,,,,,,,,,,,,
,,,,,,,57ea425e5b88f5000106bb9f,2023-08-06_08h31.05.540,HF_wild_card,2022.2.4,MacIntel,59.99880002,57ea425e5b88f5000106bb9f,64ce5acb97489d65b14ecc7a,64cf4bf2f2a56b8fcaf25157,,,,,,,decisionTrl,resources/DG.BMP,resources/DP.BMP,WildCard_Ex,0.390877957,-0.038906352,1,0,0,1.4121,optionRight,95,1505,1,26,0,26,0,1,,,,,,,,,,,,,,,,,,,,,,,,,,,,,,,,,,,,,,,
,,,,,,,57ea425e5b88f5000106bb9f,2023-08-06_08h31.05.540,HF_wild_card,2022.2.4,MacIntel,59.99880002,57ea425e5b88f5000106bb9f,64ce5acb97489d65b14ecc7a,64cf4bf2f2a56b8fcaf25157,,,,,,,decisionTrl,resources/DR.BMP,resources/DP.BMP,Door1,-0.319007263,-0.073476562,1,0,0,0.6607,optionLeft,30,1535,1,27,0,27,0,1,,,,,,,,,,,,,,,,,,,,,,,,,,,,,,,,,,,,,,,
,,,,,,,57ea425e5b88f5000106bb9f,2023-08-06_08h31.05.540,HF_wild_card,2022.2.4,MacIntel,59.99880002,57ea425e5b88f5000106bb9f,64ce5acb97489d65b14ecc7a,64cf4bf2f2a56b8fcaf25157,,,,,,,sngl,resources/Empty.png,resources/DG.BMP,Door2,0.382658827,0.022323473,1,0,0,0.5951,optionRight,20,1555,1,28,0,28,0,1,,,,,,,,,,,,,,,,,,,,,,,,,,,,,,,,,,,,,,,
,,,,,,,57ea425e5b88f5000106bb9f,2023-08-06_08h31.05.540,HF_wild_card,2022.2.4,MacIntel,59.99880002,57ea425e5b88f5000106bb9f,64ce5acb97489d65b14ecc7a,64cf4bf2f2a56b8fcaf25157,,,,,,,sngl,resources/Empty.png,resources/DBN.BMP,Door3,0.403360324,0.033472053,1,0,0,0.58,optionRight,70,1625,1,29,0,29,0,1,,,,,,,,,,,,,,,,,,,,,,,,,,,,,,,,,,,,,,,
,,,,,,,57ea425e5b88f5000106bb9f,2023-08-06_08h31.05.540,HF_wild_card,2022.2.4,MacIntel,59.99880002,57ea425e5b88f5000106bb9f,64ce5acb97489d65b14ecc7a,64cf4bf2f2a56b8fcaf25157,,,,,,,decisionTrl,resources/DBN.BMP,resources/DB.BMP,Door4,0.479672309,0.044472182,1,0,0,1.4283,optionRight,60,1685,1,30,0,30,0,1,,,,,,,,,,,,,,,,,,,,,,,,,,,,,,,,,,,,,,,
,,,,,,,57ea425e5b88f5000106bb9f,2023-08-06_08h31.05.540,HF_wild_card,2022.2.4,MacIntel,59.99880002,57ea425e5b88f5000106bb9f,64ce5acb97489d65b14ecc7a,64cf4bf2f2a56b8fcaf25157,,,,,,,sngl,resources/Empty.png,resources/DB.BMP,Door4,0.341872016,-0.010471971,1,0,0,0.5958,optionRight,60,1745,1,31,0,31,0,1,,,,,,,,,,,,,,,,,,,,,,,,,,,,,,,,,,,,,,,
,,,,,,,57ea425e5b88f5000106bb9f,2023-08-06_08h31.05.540,HF_wild_card,2022.2.4,MacIntel,59.99880002,57ea425e5b88f5000106bb9f,64ce5acb97489d65b14ecc7a,64cf4bf2f2a56b8fcaf25157,,,,,,,decisionTrl,resources/DG.BMP,resources/DR.BMP,Door2,-0.328767768,-0.085820312,1,0,0,0.9605,optionLeft,20,1765,1,32,0,32,0,1,,,,,,,,,,,,,,,,,,,,,,,,,,,,,,,,,,,,,,,
,,,,,,,57ea425e5b88f5000106bb9f,2023-08-06_08h31.05.540,HF_wild_card,2022.2.4,MacIntel,59.99880002,57ea425e5b88f5000106bb9f,64ce5acb97489d65b14ecc7a,64cf4bf2f2a56b8fcaf25157,,,,,,,ctch,resources/DR.BMP,resources/DB.BMP,Door4,0.379619548,-0.02155348,1,0,0,1.0142,optionRight,60,1825,1,33,0,33,0,1,,,,,,,,,,,,,,,,,,,,,,,,,,,,,,,,,,,,,,,
,,,,,,,57ea425e5b88f5000106bb9f,2023-08-06_08h31.05.540,HF_wild_card,2022.2.4,MacIntel,59.99880002,57ea425e5b88f5000106bb9f,64ce5acb97489d65b14ecc7a,64cf4bf2f2a56b8fcaf25157,,,,,,,decisionTrl,resources/DBN.BMP,resources/DP.BMP,WildCard_Ex,0.35814955,-0.044947781,1,0,0,1.4292,optionRight,95,1920,1,34,0,34,0,1,,,,,,,,,,,,,,,,,,,,,,,,,,,,,,,,,,,,,,,
,,,,,,,57ea425e5b88f5000106bb9f,2023-08-06_08h31.05.540,HF_wild_card,2022.2.4,MacIntel,59.99880002,57ea425e5b88f5000106bb9f,64ce5acb97489d65b14ecc7a,64cf4bf2f2a56b8fcaf25157,,,,,,,decisionTrl,resources/DR.BMP,resources/DG.BMP,Door2,0.334886814,-0.006906976,1,0,0,0.9304,optionRight,20,1940,1,35,0,35,0,1,,,,,,,,,,,,,,,,,,,,,,,,,,,,,,,,,,,,,,,
,,,,,,,57ea425e5b88f5000106bb9f,2023-08-06_08h31.05.540,HF_wild_card,2022.2.4,MacIntel,59.99880002,57ea425e5b88f5000106bb9f,64ce5acb97489d65b14ecc7a,64cf4bf2f2a56b8fcaf25157,,,,,,,ctch,resources/DBN.BMP,resources/DG.BMP,Door3,-0.344870707,0.065657891,1,0,0,1.6631,optionLeft,70,2010,1,36,0,36,0,1,,,,,,,,,,,,,,,,,,,,,,,,,,,,,,,,,,,,,,,
,,,,,,,57ea425e5b88f5000106bb9f,2023-08-06_08h31.05.540,HF_wild_card,2022.2.4,MacIntel,59.99880002,57ea425e5b88f5000106bb9f,64ce5acb97489d65b14ecc7a,64cf4bf2f2a56b8fcaf25157,,,,,,,sngl,resources/DP.BMP,resources/Empty.png,WildCard_Ex,-0.377679409,-0.080410767,1,0,0,0.7104,optionLeft,5,2015,1,37,0,37,0,1,,,,,,,,,,,,,,,,,,,,,,,,,,,,,,,,,,,,,,,
,,,,,,,57ea425e5b88f5000106bb9f,2023-08-06_08h31.05.540,HF_wild_card,2022.2.4,MacIntel,59.99880002,57ea425e5b88f5000106bb9f,64ce5acb97489d65b14ecc7a,64cf4bf2f2a56b8fcaf25157,,,,,,,sngl,resources/DBN.BMP,resources/Empty.png,Door3,-0.433984545,-0.040557217,1,0,0,0.6285,optionLeft,70,2085,1,38,0,38,0,1,,,,,,,,,,,,,,,,,,,,,,,,,,,,,,,,,,,,,,,
,,,,,,,57ea425e5b88f5000106bb9f,2023-08-06_08h31.05.540,HF_wild_card,2022.2.4,MacIntel,59.99880002,57ea425e5b88f5000106bb9f,64ce5acb97489d65b14ecc7a,64cf4bf2f2a56b8fcaf25157,,,,,,,ctch,resources/DR.BMP,resources/DB.BMP,Door4,0.317588976,-0.014825745,1,0,0,1.4111,optionRight,80,2165,1,39,0,39,0,1,,,,,,,,,,,,,,,,,,,,,,,,,,,,,,,,,,,,,,,
,,,,,,,57ea425e5b88f5000106bb9f,2023-08-06_08h31.05.540,HF_wild_card,2022.2.4,MacIntel,59.99880002,57ea425e5b88f5000106bb9f,64ce5acb97489d65b14ecc7a,64cf4bf2f2a56b8fcaf25157,,,,,,,decisionTrl,resources/DG.BMP,resources/DR.BMP,Door1,0.340212809,-0.047700229,1,0,0,1.9645,optionRight,30,2195,1,40,0,40,0,1,,,,,,,,,,,,,,,,,,,,,,,,,,,,,,,,,,,,,,,
,,,,,,,57ea425e5b88f5000106bb9f,2023-08-06_08h31.05.540,HF_wild_card,2022.2.4,MacIntel,59.99880002,57ea425e5b88f5000106bb9f,64ce5acb97489d65b14ecc7a,64cf4bf2f2a56b8fcaf25157,,,,,,,decisionTrl,resources/DR.BMP,resources/DG.BMP,Door1,-0.425899862,-0.074678548,1,0,0,0.9792,optionLeft,30,2225,1,41,0,41,0,1,,,,,,,,,,,,,,,,,,,,,,,,,,,,,,,,,,,,,,,
,,,,,,,57ea425e5b88f5000106bb9f,2023-08-06_08h31.05.540,HF_wild_card,2022.2.4,MacIntel,59.99880002,57ea425e5b88f5000106bb9f,64ce5acb97489d65b14ecc7a,64cf4bf2f2a56b8fcaf25157,,,,,,,sngl,resources/DG.BMP,resources/Empty.png,Door2,-0.369775662,-0.034039273,1,0,0,0.6953,optionLeft,40,2265,1,42,0,42,0,1,,,,,,,,,,,,,,,,,,,,,,,,,,,,,,,,,,,,,,,
,,,,,,,57ea425e5b88f5000106bb9f,2023-08-06_08h31.05.540,HF_wild_card,2022.2.4,MacIntel,59.99880002,57ea425e5b88f5000106bb9f,64ce5acb97489d65b14ecc7a,64cf4bf2f2a56b8fcaf25157,,,,,,,decisionTrl,resources/DG.BMP,resources/DR.BMP,Door2,-0.327045356,-0.050060323,1,0,0,1.1455,optionLeft,40,2305,1,43,0,43,0,1,,,,,,,,,,,,,,,,,,,,,,,,,,,,,,,,,,,,,,,
,,,,,,,57ea425e5b88f5000106bb9f,2023-08-06_08h31.05.540,HF_wild_card,2022.2.4,MacIntel,59.99880002,57ea425e5b88f5000106bb9f,64ce5acb97489d65b14ecc7a,64cf4bf2f2a56b8fcaf25157,,,,,,,,,,,,,,,,,,,,,,,,,,0,0,0,0,1,,,,,,,,,,,,,,,,,,,,,,,,,,,,,,,,,,
,,,,,,,57ea425e5b88f5000106bb9f,2023-08-06_08h31.05.540,HF_wild_card,2022.2.4,MacIntel,59.99880002,57ea425e5b88f5000106bb9f,64ce5acb97489d65b14ecc7a,64cf4bf2f2a56b8fcaf25157,,,,,,,decisionTrl,resources/DBN.BMP,resources/DB.BMP,Door3,-0.346995544,-0.162435303,1,0,0,1.2872,optionLeft,70,2375,2,0,0,0,0,1,,,,,,,,,,,,,,,,,,,,,,,,,,,,,,,,,,,,,,,
,,,,,,,57ea425e5b88f5000106bb9f,2023-08-06_08h31.05.540,HF_wild_card,2022.2.4,MacIntel,59.99880002,57ea425e5b88f5000106bb9f,64ce5acb97489d65b14ecc7a,64cf4bf2f2a56b8fcaf25157,,,,,,,ctch,resources/DR.BMP,resources/DB.BMP,Door4,0.398036567,-0.001277805,1,0,0,0.7318,optionRight,80,2455,2,1,0,1,0,1,,,,,,,,,,,,,,,,,,,,,,,,,,,,,,,,,,,,,,,
,,,,,,,57ea425e5b88f5000106bb9f,2023-08-06_08h31.05.540,HF_wild_card,2022.2.4,MacIntel,59.99880002,57ea425e5b88f5000106bb9f,64ce5acb97489d65b14ecc7a,64cf4bf2f2a56b8fcaf25157,,,,,,,decisionTrl,resources/DB.BMP,resources/DBN.BMP,Door4,-0.316129862,-0.077166273,1,0,0,0.7979,optionLeft,80,2535,2,2,0,2,0,1,,,,,,,,,,,,,,,,,,,,,,,,,,,,,,,,,,,,,,,
,,,,,,,57ea425e5b88f5000106bb9f,2023-08-06_08h31.05.540,HF_wild_card,2022.2.4,MacIntel,59.99880002,57ea425e5b88f5000106bb9f,64ce5acb97489d65b14ecc7a,64cf4bf2f2a56b8fcaf25157,,,,,,,ctch,resources/DG.BMP,resources/DBN.BMP,Door3,0.462838406,0.031583998,1,0,0,1.1136,optionRight,70,2605,2,3,0,3,0,1,,,,,,,,,,,,,,,,,,,,,,,,,,,,,,,,,,,,,,,
,,,,,,,57ea425e5b88f5000106bb9f,2023-08-06_08h31.05.540,HF_wild_card,2022.2.4,MacIntel,59.99880002,57ea425e5b88f5000106bb9f,64ce5acb97489d65b14ecc7a,64cf4bf2f2a56b8fcaf25157,,,,,,,sngl,resources/DR.BMP,resources/Empty.png,Door1,-0.327642653,-0.046403402,1,0,0,0.8477,optionLeft,30,2635,2,4,0,4,0,1,,,,,,,,,,,,,,,,,,,,,,,,,,,,,,,,,,,,,,,
,,,,,,,57ea425e5b88f5000106bb9f,2023-08-06_08h31.05.540,HF_wild_card,2022.2.4,MacIntel,59.99880002,57ea425e5b88f5000106bb9f,64ce5acb97489d65b14ecc7a,64cf4bf2f2a56b8fcaf25157,,,,,,,sngl,resources/Empty.png,resources/DB.BMP,Door4,0.406086561,-0.007425537,1,0,0,0.5808,optionRight,80,2715,2,5,0,5,0,1,,,,,,,,,,,,,,,,,,,,,,,,,,,,,,,,,,,,,,,
,,,,,,,57ea425e5b88f5000106bb9f,2023-08-06_08h31.05.540,HF_wild_card,2022.2.4,MacIntel,59.99880002,57ea425e5b88f5000106bb9f,64ce5acb97489d65b14ecc7a,64cf4bf2f2a56b8fcaf25157,,,,,,,ctch,resources/DR.BMP,resources/DB.BMP,Door4,0.371504449,-0.031845907,1,0,0,0.6971,optionRight,60,2775,2,6,0,6,0,1,,,,,,,,,,,,,,,,,,,,,,,,,,,,,,,,,,,,,,,
,,,,,,,57ea425e5b88f5000106bb9f,2023-08-06_08h31.05.540,HF_wild_card,2022.2.4,MacIntel,59.99880002,57ea425e5b88f5000106bb9f,64ce5acb97489d65b14ecc7a,64cf4bf2f2a56b8fcaf25157,,,,,,,decisionTrl,resources/DR.BMP,resources/DG.BMP,Door2,0.396765951,-0.015683729,1,0,0,0.7986,optionRight,20,2795,2,7,0,7,0,1,,,,,,,,,,,,,,,,,,,,,,,,,,,,,,,,,,,,,,,
,,,,,,,57ea425e5b88f5000106bb9f,2023-08-06_08h31.05.540,HF_wild_card,2022.2.4,MacIntel,59.99880002,57ea425e5b88f5000106bb9f,64ce5acb97489d65b14ecc7a,64cf4bf2f2a56b8fcaf25157,,,,,,,ctch,resources/DB.BMP,resources/DR.BMP,Door4,-0.400752462,-0.10733785,1,0,0,0.9633,optionLeft,80,2875,2,8,0,8,0,1,,,,,,,,,,,,,,,,,,,,,,,,,,,,,,,,,,,,,,,
,,,,,,,57ea425e5b88f5000106bb9f,2023-08-06_08h31.05.540,HF_wild_card,2022.2.4,MacIntel,59.99880002,57ea425e5b88f5000106bb9f,64ce5acb97489d65b14ecc7a,64cf4bf2f2a56b8fcaf25157,,,,,,,sngl,resources/DP.BMP,resources/Empty.png,WildCard_Ex,-0.35563151,-0.079454617,1,0,0,0.6818,optionLeft,5,2880,2,9,0,9,0,1,,,,,,,,,,,,,,,,,,,,,,,,,,,,,,,,,,,,,,,
,,,,,,,57ea425e5b88f5000106bb9f,2023-08-06_08h31.05.540,HF_wild_card,2022.2.4,MacIntel,59.99880002,57ea425e5b88f5000106bb9f,64ce5acb97489d65b14ecc7a,64cf4bf2f2a56b8fcaf25157,,,,,,,decisionTrl,resources/DR.BMP,resources/DG.BMP,Door1,-0.443122626,-0.008784587,1,0,0,1.3961,optionLeft,30,2910,2,10,0,10,0,1,,,,,,,,,,,,,,,,,,,,,,,,,,,,,,,,,,,,,,,
,,,,,,,57ea425e5b88f5000106bb9f,2023-08-06_08h31.05.540,HF_wild_card,2022.2.4,MacIntel,59.99880002,57ea425e5b88f5000106bb9f,64ce5acb97489d65b14ecc7a,64cf4bf2f2a56b8fcaf25157,,,,,,,decisionTrl,resources/DR.BMP,resources/DP.BMP,WildCard_Ex,0.297401259,-0.046418118,1,0,0,0.6124,optionRight,95,3005,2,11,0,11,0,1,,,,,,,,,,,,,,,,,,,,,,,,,,,,,,,,,,,,,,,
,,,,,,,57ea425e5b88f5000106bb9f,2023-08-06_08h31.05.540,HF_wild_card,2022.2.4,MacIntel,59.99880002,57ea425e5b88f5000106bb9f,64ce5acb97489d65b14ecc7a,64cf4bf2f2a56b8fcaf25157,,,,,,,sngl,resources/Empty.png,resources/DBN.BMP,Door3,0.291302965,0.013273451,1,0,0,0.8466,optionRight,70,3075,2,12,0,12,0,1,,,,,,,,,,,,,,,,,,,,,,,,,,,,,,,,,,,,,,,
,,,,,,,57ea425e5b88f5000106bb9f,2023-08-06_08h31.05.540,HF_wild_card,2022.2.4,MacIntel,59.99880002,57ea425e5b88f5000106bb9f,64ce5acb97489d65b14ecc7a,64cf4bf2f2a56b8fcaf25157,,,,,,,decisionTrl,resources/DP.BMP,resources/DB.BMP,WildCard_Ex,-0.382028164,-0.039698893,1,0,0,0.7958,optionLeft,95,3170,2,13,0,13,0,1,,,,,,,,,,,,,,,,,,,,,,,,,,,,,,,,,,,,,,,
,,,,,,,57ea425e5b88f5000106bb9f,2023-08-06_08h31.05.540,HF_wild_card,2022.2.4,MacIntel,59.99880002,57ea425e5b88f5000106bb9f,64ce5acb97489d65b14ecc7a,64cf4bf2f2a56b8fcaf25157,,,,,,,decisionTrl,resources/DB.BMP,resources/DBN.BMP,Door4,-0.312595893,-0.012695618,1,0,0,1.0617,optionLeft,60,3230,2,14,0,14,0,1,,,,,,,,,,,,,,,,,,,,,,,,,,,,,,,,,,,,,,,
,,,,,,,57ea425e5b88f5000106bb9f,2023-08-06_08h31.05.540,HF_wild_card,2022.2.4,MacIntel,59.99880002,57ea425e5b88f5000106bb9f,64ce5acb97489d65b14ecc7a,64cf4bf2f2a56b8fcaf25157,,,,,,,decisionTrl,resources/DBN.BMP,resources/DB.BMP,Door3,-0.278912591,-0.022665168,1,0,0,0.9452,optionLeft,70,3300,2,15,0,15,0,1,,,,,,,,,,,,,,,,,,,,,,,,,,,,,,,,,,,,,,,
,,,,,,,57ea425e5b88f5000106bb9f,2023-08-06_08h31.05.540,HF_wild_card,2022.2.4,MacIntel,59.99880002,57ea425e5b88f5000106bb9f,64ce5acb97489d65b14ecc7a,64cf4bf2f2a56b8fcaf25157,,,,,,,ctch,resources/DBN.BMP,resources/DG.BMP,Door3,-0.350751275,-0.064965583,1,0,0,0.8289,optionLeft,70,3370,2,16,0,16,0,1,,,,,,,,,,,,,,,,,,,,,,,,,,,,,,,,,,,,,,,
,,,,,,,57ea425e5b88f5000106bb9f,2023-08-06_08h31.05.540,HF_wild_card,2022.2.4,MacIntel,59.99880002,57ea425e5b88f5000106bb9f,64ce5acb97489d65b14ecc7a,64cf4bf2f2a56b8fcaf25157,,,,,,,decisionTrl,resources/DBN.BMP,resources/DP.BMP,WildCard_Ex,0.365576986,-0.003560621,1,0,0,1.1335,optionRight,95,3465,2,17,0,17,0,1,,,,,,,,,,,,,,,,,,,,,,,,,,,,,,,,,,,,,,,
,,,,,,,57ea425e5b88f5000106bb9f,2023-08-06_08h31.05.540,HF_wild_card,2022.2.4,MacIntel,59.99880002,57ea425e5b88f5000106bb9f,64ce5acb97489d65b14ecc7a,64cf4bf2f2a56b8fcaf25157,,,,,,,sngl,resources/DG.BMP,resources/Empty.png,Door2,-0.404638129,-0.041523166,1,0,0,0.5955,optionLeft,20,3485,2,18,0,18,0,1,,,,,,,,,,,,,,,,,,,,,,,,,,,,,,,,,,,,,,,
,,,,,,,57ea425e5b88f5000106bb9f,2023-08-06_08h31.05.540,HF_wild_card,2022.2.4,MacIntel,59.99880002,57ea425e5b88f5000106bb9f,64ce5acb97489d65b14ecc7a,64cf4bf2f2a56b8fcaf25157,,,,,,,sngl,resources/Empty.png,resources/DG.BMP,Door2,0.334325562,-0.006872559,1,0,0,0.5966,optionRight,40,3525,2,19,0,19,0,1,,,,,,,,,,,,,,,,,,,,,,,,,,,,,,,,,,,,,,,
,,,,,,,57ea425e5b88f5000106bb9f,2023-08-06_08h31.05.540,HF_wild_card,2022.2.4,MacIntel,59.99880002,57ea425e5b88f5000106bb9f,64ce5acb97489d65b14ecc7a,64cf4bf2f2a56b8fcaf25157,,,,,,,sngl,resources/DP.BMP,resources/Empty.png,WildCard_Ex,-0.321328193,-0.026516859,1,0,0,0.5777,optionLeft,95,3620,2,20,0,20,0,1,,,,,,,,,,,,,,,,,,,,,,,,,,,,,,,,,,,,,,,
,,,,,,,57ea425e5b88f5000106bb9f,2023-08-06_08h31.05.540,HF_wild_card,2022.2.4,MacIntel,59.99880002,57ea425e5b88f5000106bb9f,64ce5acb97489d65b14ecc7a,64cf4bf2f2a56b8fcaf25157,,,,,,,decisionTrl,resources/DP.BMP,resources/DG.BMP,WildCard_Ex,-0.435179511,-0.162433879,1,0,0,0.8289,optionLeft,5,3625,2,21,0,21,0,1,,,,,,,,,,,,,,,,,,,,,,,,,,,,,,,,,,,,,,,
,,,,,,,57ea425e5b88f5000106bb9f,2023-08-06_08h31.05.540,HF_wild_card,2022.2.4,MacIntel,59.99880002,57ea425e5b88f5000106bb9f,64ce5acb97489d65b14ecc7a,64cf4bf2f2a56b8fcaf25157,,,,,,,sngl,resources/Empty.png,resources/DR.BMP,Door1,0.32971483,-0.045228746,1,0,0,0.4961,optionRight,30,3655,2,22,0,22,0,1,,,,,,,,,,,,,,,,,,,,,,,,,,,,,,,,,,,,,,,
,,,,,,,57ea425e5b88f5000106bb9f,2023-08-06_08h31.05.540,HF_wild_card,2022.2.4,MacIntel,59.99880002,57ea425e5b88f5000106bb9f,64ce5acb97489d65b14ecc7a,64cf4bf2f2a56b8fcaf25157,,,,,,,ctch,resources/DG.BMP,resources/DBN.BMP,Door3,0.294800279,0.020142517,1,0,0,0.9644,optionRight,70,3725,2,23,0,23,0,1,,,,,,,,,,,,,,,,,,,,,,,,,,,,,,,,,,,,,,,
,,,,,,,57ea425e5b88f5000106bb9f,2023-08-06_08h31.05.540,HF_wild_card,2022.2.4,MacIntel,59.99880002,57ea425e5b88f5000106bb9f,64ce5acb97489d65b14ecc7a,64cf4bf2f2a56b8fcaf25157,,,,,,,sngl,resources/DBN.BMP,resources/Empty.png,Door3,-0.405894708,-0.047937046,1,0,0,1.4784,optionLeft,70,3795,2,24,0,24,0,1,,,,,,,,,,,,,,,,,,,,,,,,,,,,,,,,,,,,,,,
,,,,,,,57ea425e5b88f5000106bb9f,2023-08-06_08h31.05.540,HF_wild_card,2022.2.4,MacIntel,59.99880002,57ea425e5b88f5000106bb9f,64ce5acb97489d65b14ecc7a,64cf4bf2f2a56b8fcaf25157,,,,,,,decisionTrl,resources/DG.BMP,resources/DR.BMP,Door2,-0.295544739,-0.005008138,1,0,0,0.8135,optionLeft,20,3815,2,25,0,25,0,1,,,,,,,,,,,,,,,,,,,,,,,,,,,,,,,,,,,,,,,
,,,,,,,57ea425e5b88f5000106bb9f,2023-08-06_08h31.05.540,HF_wild_card,2022.2.4,MacIntel,59.99880002,57ea425e5b88f5000106bb9f,64ce5acb97489d65b14ecc7a,64cf4bf2f2a56b8fcaf25157,,,,,,,ctch,resources/DBN.BMP,resources/DG.BMP,Door3,-0.320126207,-0.037117852,1,0,0,0.9106,optionLeft,70,3885,2,26,0,26,0,1,,,,,,,,,,,,,,,,,,,,,,,,,,,,,,,,,,,,,,,
,,,,,,,57ea425e5b88f5000106bb9f,2023-08-06_08h31.05.540,HF_wild_card,2022.2.4,MacIntel,59.99880002,57ea425e5b88f5000106bb9f,64ce5acb97489d65b14ecc7a,64cf4bf2f2a56b8fcaf25157,,,,,,,ctch,resources/DB.BMP,resources/DR.BMP,Door4,-0.332203878,-0.052197571,1,0,0,1.2616,optionLeft,80,3965,2,27,0,27,0,1,,,,,,,,,,,,,,,,,,,,,,,,,,,,,,,,,,,,,,,
,,,,,,,57ea425e5b88f5000106bb9f,2023-08-06_08h31.05.540,HF_wild_card,2022.2.4,MacIntel,59.99880002,57ea425e5b88f5000106bb9f,64ce5acb97489d65b14ecc7a,64cf4bf2f2a56b8fcaf25157,,,,,,,decisionTrl,resources/DG.BMP,resources/DR.BMP,Door1,0.347125651,0.019153239,1,0,0,1.3142,optionRight,30,3995,2,28,0,28,0,1,,,,,,,,,,,,,,,,,,,,,,,,,,,,,,,,,,,,,,,
,,,,,,,57ea425e5b88f5000106bb9f,2023-08-06_08h31.05.540,HF_wild_card,2022.2.4,MacIntel,59.99880002,57ea425e5b88f5000106bb9f,64ce5acb97489d65b14ecc7a,64cf4bf2f2a56b8fcaf25157,,,,,,,decisionTrl,resources/DB.BMP,resources/DBN.BMP,Door4,-0.354530199,-0.067223409,1,0,0,1.5293,optionLeft,80,4075,2,29,0,29,0,1,,,,,,,,,,,,,,,,,,,,,,,,,,,,,,,,,,,,,,,
,,,,,,,57ea425e5b88f5000106bb9f,2023-08-06_08h31.05.540,HF_wild_card,2022.2.4,MacIntel,59.99880002,57ea425e5b88f5000106bb9f,64ce5acb97489d65b14ecc7a,64cf4bf2f2a56b8fcaf25157,,,,,,,decisionTrl,resources/DG.BMP,resources/DR.BMP,Door1,0.40782525,-0.010028551,1,0,0,1.4962,optionRight,30,4105,2,30,0,30,0,1,,,,,,,,,,,,,,,,,,,,,,,,,,,,,,,,,,,,,,,
,,,,,,,57ea425e5b88f5000106bb9f,2023-08-06_08h31.05.540,HF_wild_card,2022.2.4,MacIntel,59.99880002,57ea425e5b88f5000106bb9f,64ce5acb97489d65b14ecc7a,64cf4bf2f2a56b8fcaf25157,,,,,,,decisionTrl,resources/DBN.BMP,resources/DB.BMP,Door4,0.361337891,0.007998183,1,0,0,1.3455,optionRight,80,4185,2,31,0,31,0,1,,,,,,,,,,,,,,,,,,,,,,,,,,,,,,,,,,,,,,,
,,,,,,,57ea425e5b88f5000106bb9f,2023-08-06_08h31.05.540,HF_wild_card,2022.2.4,MacIntel,59.99880002,57ea425e5b88f5000106bb9f,64ce5acb97489d65b14ecc7a,64cf4bf2f2a56b8fcaf25157,,,,,,,decisionTrl,resources/DB.BMP,resources/DP.BMP,WildCard_Ex,0.386370307,-0.045988532,1,0,0,0.8463,optionRight,95,4280,2,32,0,32,0,1,,,,,,,,,,,,,,,,,,,,,,,,,,,,,,,,,,,,,,,
,,,,,,,57ea425e5b88f5000106bb9f,2023-08-06_08h31.05.540,HF_wild_card,2022.2.4,MacIntel,59.99880002,57ea425e5b88f5000106bb9f,64ce5acb97489d65b14ecc7a,64cf4bf2f2a56b8fcaf25157,,,,,,,decisionTrl,resources/DR.BMP,resources/DG.BMP,Door2,0.414869656,-0.014368252,1,0,0,0.7637,optionRight,20,4300,2,33,0,33,0,1,,,,,,,,,,,,,,,,,,,,,,,,,,,,,,,,,,,,,,,
,,,,,,,57ea425e5b88f5000106bb9f,2023-08-06_08h31.05.540,HF_wild_card,2022.2.4,MacIntel,59.99880002,57ea425e5b88f5000106bb9f,64ce5acb97489d65b14ecc7a,64cf4bf2f2a56b8fcaf25157,,,,,,,sngl,resources/Empty.png,resources/DP.BMP,WildCard_Ex,0.411461589,-0.030415785,1,0,0,0.5945,optionRight,5,4305,2,34,0,34,0,1,,,,,,,,,,,,,,,,,,,,,,,,,,,,,,,,,,,,,,,
,,,,,,,57ea425e5b88f5000106bb9f,2023-08-06_08h31.05.540,HF_wild_card,2022.2.4,MacIntel,59.99880002,57ea425e5b88f5000106bb9f,64ce5acb97489d65b14ecc7a,64cf4bf2f2a56b8fcaf25157,,,,,,,decisionTrl,resources/DR.BMP,resources/DG.BMP,Door1,-0.391493496,-0.052304382,1,0,0,1.1143,optionLeft,30,4335,2,35,0,35,0,1,,,,,,,,,,,,,,,,,,,,,,,,,,,,,,,,,,,,,,,
,,,,,,,57ea425e5b88f5000106bb9f,2023-08-06_08h31.05.540,HF_wild_card,2022.2.4,MacIntel,59.99880002,57ea425e5b88f5000106bb9f,64ce5acb97489d65b14ecc7a,64cf4bf2f2a56b8fcaf25157,,,,,,,decisionTrl,resources/DP.BMP,resources/DR.BMP,WildCard_Ex,-0.355276489,-0.043998311,1,0,0,1.0121,optionLeft,95,4430,2,36,0,36,0,1,,,,,,,,,,,,,,,,,,,,,,,,,,,,,,,,,,,,,,,
,,,,,,,57ea425e5b88f5000106bb9f,2023-08-06_08h31.05.540,HF_wild_card,2022.2.4,MacIntel,59.99880002,57ea425e5b88f5000106bb9f,64ce5acb97489d65b14ecc7a,64cf4bf2f2a56b8fcaf25157,,,,,,,decisionTrl,resources/DG.BMP,resources/DR.BMP,Door1,0.318192885,-0.013973287,1,0,0,1.3952,optionRight,30,4460,2,37,0,37,0,1,,,,,,,,,,,,,,,,,,,,,,,,,,,,,,,,,,,,,,,
,,,,,,,57ea425e5b88f5000106bb9f,2023-08-06_08h31.05.540,HF_wild_card,2022.2.4,MacIntel,59.99880002,57ea425e5b88f5000106bb9f,64ce5acb97489d65b14ecc7a,64cf4bf2f2a56b8fcaf25157,,,,,,,sngl,resources/DB.BMP,resources/Empty.png,Door4,-0.33552263,-0.103408067,1,0,0,0.6113,optionLeft,60,4520,2,38,0,38,0,1,,,,,,,,,,,,,,,,,,,,,,,,,,,,,,,,,,,,,,,
,,,,,,,57ea425e5b88f5000106bb9f,2023-08-06_08h31.05.540,HF_wild_card,2022.2.4,MacIntel,59.99880002,57ea425e5b88f5000106bb9f,64ce5acb97489d65b14ecc7a,64cf4bf2f2a56b8fcaf25157,,,,,,,decisionTrl,resources/DP.BMP,resources/DBN.BMP,WildCard_Ex,-0.398696289,-0.122593248,1,0,0,1.6796,optionLeft,95,4615,2,39,0,39,0,1,,,,,,,,,,,,,,,,,,,,,,,,,,,,,,,,,,,,,,,
,,,,,,,57ea425e5b88f5000106bb9f,2023-08-06_08h31.05.540,HF_wild_card,2022.2.4,MacIntel,59.99880002,57ea425e5b88f5000106bb9f,64ce5acb97489d65b14ecc7a,64cf4bf2f2a56b8fcaf25157,,,,,,,decisionTrl,resources/DB.BMP,resources/DBN.BMP,Door4,-0.313654412,-0.052382914,1,0,0,1.5796,optionLeft,60,4675,2,40,0,40,0,1,,,,,,,,,,,,,,,,,,,,,,,,,,,,,,,,,,,,,,,
,,,,,,,57ea425e5b88f5000106bb9f,2023-08-06_08h31.05.540,HF_wild_card,2022.2.4,MacIntel,59.99880002,57ea425e5b88f5000106bb9f,64ce5acb97489d65b14ecc7a,64cf4bf2f2a56b8fcaf25157,,,,,,,sngl,resources/Empty.png,resources/DP.BMP,WildCard_Ex,0.307566596,-0.011983676,1,0,0,0.7624,optionRight,95,4770,2,41,0,41,0,1,,,,,,,,,,,,,,,,,,,,,,,,,,,,,,,,,,,,,,,
,,,,,,,57ea425e5b88f5000106bb9f,2023-08-06_08h31.05.540,HF_wild_card,2022.2.4,MacIntel,59.99880002,57ea425e5b88f5000106bb9f,64ce5acb97489d65b14ecc7a,64cf4bf2f2a56b8fcaf25157,,,,,,,decisionTrl,resources/DG.BMP,resources/DP.BMP,WildCard_Ex,0.389731717,-0.059236281,1,0,0,0.7127,optionRight,95,4865,2,42,0,42,0,1,,,,,,,,,,,,,,,,,,,,,,,,,,,,,,,,,,,,,,,
,,,,,,,57ea425e5b88f5000106bb9f,2023-08-06_08h31.05.540,HF_wild_card,2022.2.4,MacIntel,59.99880002,57ea425e5b88f5000106bb9f,64ce5acb97489d65b14ecc7a,64cf4bf2f2a56b8fcaf25157,,,,,,,decisionTrl,resources/DBN.BMP,resources/DB.BMP,Door4,0.379628771,-0.004187283,1,0,0,1.2799,optionRight,80,4945,2,43,0,43,0,1,,,,,,,,,,,,,,,,,,,,,,,,,,,,,,,,,,,,,,,
,,,,,,,57ea425e5b88f5000106bb9f,2023-08-06_08h31.05.540,HF_wild_card,2022.2.4,MacIntel,59.99880002,57ea425e5b88f5000106bb9f,64ce5acb97489d65b14ecc7a,64cf4bf2f2a56b8fcaf25157,,,,,,,,,,,,,,,,,,,,,,,,,,1,0,1,0,1,,,,,,,,,,,,,,,,,,,,,,,,,,,,,,,,,,
,,,,,,,57ea425e5b88f5000106bb9f,2023-08-06_08h31.05.540,HF_wild_card,2022.2.4,MacIntel,59.99880002,57ea425e5b88f5000106bb9f,64ce5acb97489d65b14ecc7a,64cf4bf2f2a56b8fcaf25157,,,,,,,decisionTrl,resources/DR.BMP,resources/DG.BMP,Door1,-0.350815531,-0.085399712,1,0,0,1.333,optionLeft,30,4975,3,0,0,0,0,1,,,,,,,,,,,,,,,,,,,,,,,,,,,,,,,,,,,,,,,
,,,,,,,57ea425e5b88f5000106bb9f,2023-08-06_08h31.05.540,HF_wild_card,2022.2.4,MacIntel,59.99880002,57ea425e5b88f5000106bb9f,64ce5acb97489d65b14ecc7a,64cf4bf2f2a56b8fcaf25157,,,,,,,decisionTrl,resources/DP.BMP,resources/DG.BMP,WildCard_Ex,-0.357296278,-0.076734823,1,0,0,0.9635,optionLeft,5,4980,3,1,0,1,0,1,,,,,,,,,,,,,,,,,,,,,,,,,,,,,,,,,,,,,,,
,,,,,,,57ea425e5b88f5000106bb9f,2023-08-06_08h31.05.540,HF_wild_card,2022.2.4,MacIntel,59.99880002,57ea425e5b88f5000106bb9f,64ce5acb97489d65b14ecc7a,64cf4bf2f2a56b8fcaf25157,,,,,,,decisionTrl,resources/DB.BMP,resources/DBN.BMP,Door4,-0.373802965,-0.091908027,1,0,0,0.8799,optionLeft,80,5060,3,2,0,2,0,1,,,,,,,,,,,,,,,,,,,,,,,,,,,,,,,,,,,,,,,
,,,,,,,57ea425e5b88f5000106bb9f,2023-08-06_08h31.05.540,HF_wild_card,2022.2.4,MacIntel,59.99880002,57ea425e5b88f5000106bb9f,64ce5acb97489d65b14ecc7a,64cf4bf2f2a56b8fcaf25157,,,,,,,decisionTrl,resources/DB.BMP,resources/DBN.BMP,Door4,-0.359435289,-0.073624539,1,0,0,1.4287,optionLeft,60,5120,3,3,0,3,0,1,,,,,,,,,,,,,,,,,,,,,,,,,,,,,,,,,,,,,,,
,,,,,,,57ea425e5b88f5000106bb9f,2023-08-06_08h31.05.540,HF_wild_card,2022.2.4,MacIntel,59.99880002,57ea425e5b88f5000106bb9f,64ce5acb97489d65b14ecc7a,64cf4bf2f2a56b8fcaf25157,,,,,,,decisionTrl,resources/DR.BMP,resources/DG.BMP,Door1,-0.431312866,-0.106377428,1,0,0,1.0464,optionLeft,30,5150,3,4,0,4,0,1,,,,,,,,,,,,,,,,,,,,,,,,,,,,,,,,,,,,,,,
,,,,,,,57ea425e5b88f5000106bb9f,2023-08-06_08h31.05.540,HF_wild_card,2022.2.4,MacIntel,59.99880002,57ea425e5b88f5000106bb9f,64ce5acb97489d65b14ecc7a,64cf4bf2f2a56b8fcaf25157,,,,,,,decisionTrl,resources/DG.BMP,resources/DR.BMP,Door1,0.364687907,-0.049632772,1,0,0,1.9447,optionRight,30,5180,3,5,0,5,0,1,,,,,,,,,,,,,,,,,,,,,,,,,,,,,,,,,,,,,,,
,,,,,,,57ea425e5b88f5000106bb9f,2023-08-06_08h31.05.540,HF_wild_card,2022.2.4,MacIntel,59.99880002,57ea425e5b88f5000106bb9f,64ce5acb97489d65b14ecc7a,64cf4bf2f2a56b8fcaf25157,,,,,,,sngl,resources/DBN.BMP,resources/Empty.png,Door3,-0.294447089,-0.083292847,1,0,0,0.7116,optionLeft,70,5250,3,6,0,6,0,1,,,,,,,,,,,,,,,,,,,,,,,,,,,,,,,,,,,,,,,
,,,,,,,57ea425e5b88f5000106bb9f,2023-08-06_08h31.05.540,HF_wild_card,2022.2.4,MacIntel,59.99880002,57ea425e5b88f5000106bb9f,64ce5acb97489d65b14ecc7a,64cf4bf2f2a56b8fcaf25157,,,,,,,sngl,resources/Empty.png,resources/DR.BMP,Door1,0.355099148,-0.012024536,1,0,0,0.7282,optionRight,30,5280,3,7,0,7,0,1,,,,,,,,,,,,,,,,,,,,,,,,,,,,,,,,,,,,,,,
,,,,,,,57ea425e5b88f5000106bb9f,2023-08-06_08h31.05.540,HF_wild_card,2022.2.4,MacIntel,59.99880002,57ea425e5b88f5000106bb9f,64ce5acb97489d65b14ecc7a,64cf4bf2f2a56b8fcaf25157,,,,,,,sngl,resources/Empty.png,resources/DG.BMP,Door2,0.360417345,0.011052382,1,0,0,0.7127,optionRight,20,5300,3,8,0,8,0,1,,,,,,,,,,,,,,,,,,,,,,,,,,,,,,,,,,,,,,,
,,,,,,,57ea425e5b88f5000106bb9f,2023-08-06_08h31.05.540,HF_wild_card,2022.2.4,MacIntel,59.99880002,57ea425e5b88f5000106bb9f,64ce5acb97489d65b14ecc7a,64cf4bf2f2a56b8fcaf25157,,,,,,,sngl,resources/DG.BMP,resources/Empty.png,Door2,-0.329475538,-0.082828912,1,0,0,0.5632,optionLeft,40,5340,3,9,0,9,0,1,,,,,,,,,,,,,,,,,,,,,,,,,,,,,,,,,,,,,,,
,,,,,,,57ea425e5b88f5000106bb9f,2023-08-06_08h31.05.540,HF_wild_card,2022.2.4,MacIntel,59.99880002,57ea425e5b88f5000106bb9f,64ce5acb97489d65b14ecc7a,64cf4bf2f2a56b8fcaf25157,,,,,,,ctch,resources/DG.BMP,resources/DBN.BMP,Door3,0.382515191,0.015654772,1,0,0,1.0298,optionRight,70,5410,3,10,0,10,0,1,,,,,,,,,,,,,,,,,,,,,,,,,,,,,,,,,,,,,,,
,,,,,,,57ea425e5b88f5000106bb9f,2023-08-06_08h31.05.540,HF_wild_card,2022.2.4,MacIntel,59.99880002,57ea425e5b88f5000106bb9f,64ce5acb97489d65b14ecc7a,64cf4bf2f2a56b8fcaf25157,,,,,,,ctch,resources/DR.BMP,resources/DB.BMP,Door4,0.263091905,-0.013173387,1,0,0,1.1969,optionRight,60,5470,3,11,0,11,0,1,,,,,,,,,,,,,,,,,,,,,,,,,,,,,,,,,,,,,,,
,,,,,,,57ea425e5b88f5000106bb9f,2023-08-06_08h31.05.540,HF_wild_card,2022.2.4,MacIntel,59.99880002,57ea425e5b88f5000106bb9f,64ce5acb97489d65b14ecc7a,64cf4bf2f2a56b8fcaf25157,,,,,,,decisionTrl,resources/DG.BMP,resources/DR.BMP,Door1,0.315114339,-0.012728204,1,0,0,1.3478,optionRight,30,5500,3,12,0,12,0,1,,,,,,,,,,,,,,,,,,,,,,,,,,,,,,,,,,,,,,,
,,,,,,,57ea425e5b88f5000106bb9f,2023-08-06_08h31.05.540,HF_wild_card,2022.2.4,MacIntel,59.99880002,57ea425e5b88f5000106bb9f,64ce5acb97489d65b14ecc7a,64cf4bf2f2a56b8fcaf25157,,,,,,,decisionTrl,resources/DR.BMP,resources/DG.BMP,Door1,-0.387874959,-0.114539795,1,0,0,0.9469,optionLeft,30,5530,3,13,0,13,0,1,,,,,,,,,,,,,,,,,,,,,,,,,,,,,,,,,,,,,,,
,,,,,,,57ea425e5b88f5000106bb9f,2023-08-06_08h31.05.540,HF_wild_card,2022.2.4,MacIntel,59.99880002,57ea425e5b88f5000106bb9f,64ce5acb97489d65b14ecc7a,64cf4bf2f2a56b8fcaf25157,,,,,,,decisionTrl,resources/DB.BMP,resources/DBN.BMP,Door4,-0.28004676,-0.101244439,1,0,0,1.4305,optionLeft,60,5590,3,14,0,14,0,1,,,,,,,,,,,,,,,,,,,,,,,,,,,,,,,,,,,,,,,
,,,,,,,57ea425e5b88f5000106bb9f,2023-08-06_08h31.05.540,HF_wild_card,2022.2.4,MacIntel,59.99880002,57ea425e5b88f5000106bb9f,64ce5acb97489d65b14ecc7a,64cf4bf2f2a56b8fcaf25157,,,,,,,ctch,resources/DR.BMP,resources/DB.BMP,Door4,0.396059299,-0.014794718,1,0,0,1.3799,optionRight,60,5650,3,15,0,15,0,1,,,,,,,,,,,,,,,,,,,,,,,,,,,,,,,,,,,,,,,
,,,,,,,57ea425e5b88f5000106bb9f,2023-08-06_08h31.05.540,HF_wild_card,2022.2.4,MacIntel,59.99880002,57ea425e5b88f5000106bb9f,64ce5acb97489d65b14ecc7a,64cf4bf2f2a56b8fcaf25157,,,,,,,decisionTrl,resources/DG.BMP,resources/DP.BMP,WildCard_Ex,0.358369819,-0.028032159,1,0,0,1.1142,optionRight,5,5655,3,16,0,16,0,1,,,,,,,,,,,,,,,,,,,,,,,,,,,,,,,,,,,,,,,
,,,,,,,57ea425e5b88f5000106bb9f,2023-08-06_08h31.05.540,HF_wild_card,2022.2.4,MacIntel,59.99880002,57ea425e5b88f5000106bb9f,64ce5acb97489d65b14ecc7a,64cf4bf2f2a56b8fcaf25157,,,,,,,sngl,resources/DB.BMP,resources/Empty.png,Door4,-0.393507351,-0.067848104,1,0,0,0.6125,optionLeft,80,5735,3,17,0,17,0,1,,,,,,,,,,,,,,,,,,,,,,,,,,,,,,,,,,,,,,,
,,,,,,,57ea425e5b88f5000106bb9f,2023-08-06_08h31.05.540,HF_wild_card,2022.2.4,MacIntel,59.99880002,57ea425e5b88f5000106bb9f,64ce5acb97489d65b14ecc7a,64cf4bf2f2a56b8fcaf25157,,,,,,,sngl,resources/Empty.png,resources/DP.BMP,WildCard_Ex,0.227516412,-0.025735508,1,0,0,1.2795,optionRight,95,5830,3,18,0,18,0,1,,,,,,,,,,,,,,,,,,,,,,,,,,,,,,,,,,,,,,,
,,,,,,,57ea425e5b88f5000106bb9f,2023-08-06_08h31.05.540,HF_wild_card,2022.2.4,MacIntel,59.99880002,57ea425e5b88f5000106bb9f,64ce5acb97489d65b14ecc7a,64cf4bf2f2a56b8fcaf25157,,,,,,,ctch,resources/DB.BMP,resources/DR.BMP,Door4,-0.371635471,-0.082585314,1,0,0,1.3628,optionLeft,60,5890,3,19,0,19,0,1,,,,,,,,,,,,,,,,,,,,,,,,,,,,,,,,,,,,,,,
,,,,,,,57ea425e5b88f5000106bb9f,2023-08-06_08h31.05.540,HF_wild_card,2022.2.4,MacIntel,59.99880002,57ea425e5b88f5000106bb9f,64ce5acb97489d65b14ecc7a,64cf4bf2f2a56b8fcaf25157,,,,,,,decisionTrl,resources/DP.BMP,resources/DB.BMP,WildCard_Ex,-0.44511712,-0.137341241,1,0,0,1.1444,optionLeft,95,5985,3,20,0,20,0,1,,,,,,,,,,,,,,,,,,,,,,,,,,,,,,,,,,,,,,,
,,,,,,,57ea425e5b88f5000106bb9f,2023-08-06_08h31.05.540,HF_wild_card,2022.2.4,MacIntel,59.99880002,57ea425e5b88f5000106bb9f,64ce5acb97489d65b14ecc7a,64cf4bf2f2a56b8fcaf25157,,,,,,,decisionTrl,resources/DBN.BMP,resources/DB.BMP,Door3,-0.361052619,-0.066927016,1,0,0,1.5792,optionLeft,70,6055,3,21,0,21,0,1,,,,,,,,,,,,,,,,,,,,,,,,,,,,,,,,,,,,,,,
,,,,,,,57ea425e5b88f5000106bb9f,2023-08-06_08h31.05.540,HF_wild_card,2022.2.4,MacIntel,59.99880002,57ea425e5b88f5000106bb9f,64ce5acb97489d65b14ecc7a,64cf4bf2f2a56b8fcaf25157,,,,,,,decisionTrl,resources/DB.BMP,resources/DBN.BMP,Door3,0.343564182,0.027112834,1,0,0,1.0623,optionRight,70,6125,3,22,0,22,0,1,,,,,,,,,,,,,,,,,,,,,,,,,,,,,,,,,,,,,,,
,,,,,,,57ea425e5b88f5000106bb9f,2023-08-06_08h31.05.540,HF_wild_card,2022.2.4,MacIntel,59.99880002,57ea425e5b88f5000106bb9f,64ce5acb97489d65b14ecc7a,64cf4bf2f2a56b8fcaf25157,,,,,,,decisionTrl,resources/DR.BMP,resources/DG.BMP,Door1,-0.357008599,-0.010276964,1,0,0,1.2304,optionLeft,30,6155,3,23,0,23,0,1,,,,,,,,,,,,,,,,,,,,,,,,,,,,,,,,,,,,,,,
,,,,,,,57ea425e5b88f5000106bb9f,2023-08-06_08h31.05.540,HF_wild_card,2022.2.4,MacIntel,59.99880002,57ea425e5b88f5000106bb9f,64ce5acb97489d65b14ecc7a,64cf4bf2f2a56b8fcaf25157,,,,,,,sngl,resources/DP.BMP,resources/Empty.png,WildCard_Ex,-0.329754266,-0.019605611,1,0,0,0.6147,optionLeft,5,6160,3,24,0,24,0,1,,,,,,,,,,,,,,,,,,,,,,,,,,,,,,,,,,,,,,,
,,,,,,,57ea425e5b88f5000106bb9f,2023-08-06_08h31.05.540,HF_wild_card,2022.2.4,MacIntel,59.99880002,57ea425e5b88f5000106bb9f,64ce5acb97489d65b14ecc7a,64cf4bf2f2a56b8fcaf25157,,,,,,,ctch,resources/DBN.BMP,resources/DG.BMP,Door3,-0.464326748,-0.090522664,1,0,0,1.3301,optionLeft,70,6230,3,25,0,25,0,1,,,,,,,,,,,,,,,,,,,,,,,,,,,,,,,,,,,,,,,
,,,,,,,57ea425e5b88f5000106bb9f,2023-08-06_08h31.05.540,HF_wild_card,2022.2.4,MacIntel,59.99880002,57ea425e5b88f5000106bb9f,64ce5acb97489d65b14ecc7a,64cf4bf2f2a56b8fcaf25157,,,,,,,ctch,resources/DG.BMP,resources/DBN.BMP,Door3,0.272679308,0.009335192,1,0,0,1.3646,optionRight,70,6300,3,26,0,26,0,1,,,,,,,,,,,,,,,,,,,,,,,,,,,,,,,,,,,,,,,
,,,,,,,57ea425e5b88f5000106bb9f,2023-08-06_08h31.05.540,HF_wild_card,2022.2.4,MacIntel,59.99880002,57ea425e5b88f5000106bb9f,64ce5acb97489d65b14ecc7a,64cf4bf2f2a56b8fcaf25157,,,,,,,decisionTrl,resources/DG.BMP,resources/DR.BMP,Door1,0.331504584,-0.015162218,1,0,0,1.3638,optionRight,30,6330,3,27,0,27,0,1,,,,,,,,,,,,,,,,,,,,,,,,,,,,,,,,,,,,,,,
,,,,,,,57ea425e5b88f5000106bb9f,2023-08-06_08h31.05.540,HF_wild_card,2022.2.4,MacIntel,59.99880002,57ea425e5b88f5000106bb9f,64ce5acb97489d65b14ecc7a,64cf4bf2f2a56b8fcaf25157,,,,,,,decisionTrl,resources/DBN.BMP,resources/DB.BMP,Door3,-0.344894307,-0.059994982,1,0,0,2.6801,optionLeft,70,6400,3,28,0,28,0,1,,,,,,,,,,,,,,,,,,,,,,,,,,,,,,,,,,,,,,,
,,,,,,,57ea425e5b88f5000106bb9f,2023-08-06_08h31.05.540,HF_wild_card,2022.2.4,MacIntel,59.99880002,57ea425e5b88f5000106bb9f,64ce5acb97489d65b14ecc7a,64cf4bf2f2a56b8fcaf25157,,,,,,,ctch,resources/DBN.BMP,resources/DG.BMP,Door3,-0.428957893,-0.043378432,1,0,0,1.1619,optionLeft,70,6470,3,29,0,29,0,1,,,,,,,,,,,,,,,,,,,,,,,,,,,,,,,,,,,,,,,
,,,,,,,57ea425e5b88f5000106bb9f,2023-08-06_08h31.05.540,HF_wild_card,2022.2.4,MacIntel,59.99880002,57ea425e5b88f5000106bb9f,64ce5acb97489d65b14ecc7a,64cf4bf2f2a56b8fcaf25157,,,,,,,ctch,resources/DB.BMP,resources/DR.BMP,Door4,-0.273951382,-0.01334866,1,0,0,1.5943,optionLeft,80,6550,3,30,0,30,0,1,,,,,,,,,,,,,,,,,,,,,,,,,,,,,,,,,,,,,,,
,,,,,,,57ea425e5b88f5000106bb9f,2023-08-06_08h31.05.540,HF_wild_card,2022.2.4,MacIntel,59.99880002,57ea425e5b88f5000106bb9f,64ce5acb97489d65b14ecc7a,64cf4bf2f2a56b8fcaf25157,,,,,,,decisionTrl,resources/DG.BMP,resources/DR.BMP,Door1,0.291443142,-0.041292826,1,0,0,1.7309,optionRight,30,6580,3,31,0,31,0,1,,,,,,,,,,,,,,,,,,,,,,,,,,,,,,,,,,,,,,,
,,,,,,,57ea425e5b88f5000106bb9f,2023-08-06_08h31.05.540,HF_wild_card,2022.2.4,MacIntel,59.99880002,57ea425e5b88f5000106bb9f,64ce5acb97489d65b14ecc7a,64cf4bf2f2a56b8fcaf25157,,,,,,,decisionTrl,resources/DR.BMP,resources/DP.BMP,WildCard_Ex,0.495230442,-0.010352546,1,0,0,1.2118,optionRight,95,6675,3,32,0,32,0,1,,,,,,,,,,,,,,,,,,,,,,,,,,,,,,,,,,,,,,,
,,,,,,,57ea425e5b88f5000106bb9f,2023-08-06_08h31.05.540,HF_wild_card,2022.2.4,MacIntel,59.99880002,57ea425e5b88f5000106bb9f,64ce5acb97489d65b14ecc7a,64cf4bf2f2a56b8fcaf25157,,,,,,,sngl,resources/DP.BMP,resources/Empty.png,WildCard_Ex,-0.311141561,-0.070963677,1,0,0,0.5624,optionLeft,95,6770,3,33,0,33,0,1,,,,,,,,,,,,,,,,,,,,,,,,,,,,,,,,,,,,,,,
,,,,,,,57ea425e5b88f5000106bb9f,2023-08-06_08h31.05.540,HF_wild_card,2022.2.4,MacIntel,59.99880002,57ea425e5b88f5000106bb9f,64ce5acb97489d65b14ecc7a,64cf4bf2f2a56b8fcaf25157,,,,,,,sngl,resources/Empty.png,resources/DB.BMP,Door4,0.434582926,-0.061821289,1,0,0,0.6502,optionRight,60,6830,3,34,0,34,0,1,,,,,,,,,,,,,,,,,,,,,,,,,,,,,,,,,,,,,,,
,,,,,,,57ea425e5b88f5000106bb9f,2023-08-06_08h31.05.540,HF_wild_card,2022.2.4,MacIntel,59.99880002,57ea425e5b88f5000106bb9f,64ce5acb97489d65b14ecc7a,64cf4bf2f2a56b8fcaf25157,,,,,,,decisionTrl,resources/DBN.BMP,resources/DP.BMP,WildCard_Ex,0.388859999,-0.021390652,1,0,0,1.5804,optionRight,5,6835,3,35,0,35,0,1,,,,,,,,,,,,,,,,,,,,,,,,,,,,,,,,,,,,,,,
,,,,,,,57ea425e5b88f5000106bb9f,2023-08-06_08h31.05.540,HF_wild_card,2022.2.4,MacIntel,59.99880002,57ea425e5b88f5000106bb9f,64ce5acb97489d65b14ecc7a,64cf4bf2f2a56b8fcaf25157,,,,,,,sngl,resources/Empty.png,resources/DBN.BMP,Door3,0.234990302,-0.012980855,1,0,0,0.9808,optionRight,70,6905,3,36,0,36,0,1,,,,,,,,,,,,,,,,,,,,,,,,,,,,,,,,,,,,,,,
,,,,,,,57ea425e5b88f5000106bb9f,2023-08-06_08h31.05.540,HF_wild_card,2022.2.4,MacIntel,59.99880002,57ea425e5b88f5000106bb9f,64ce5acb97489d65b14ecc7a,64cf4bf2f2a56b8fcaf25157,,,,,,,decisionTrl,resources/DBN.BMP,resources/DB.BMP,Door3,-0.348817749,-0.013949924,1,0,0,1.9457,optionLeft,70,6975,3,37,0,37,0,1,,,,,,,,,,,,,,,,,,,,,,,,,,,,,,,,,,,,,,,
,,,,,,,57ea425e5b88f5000106bb9f,2023-08-06_08h31.05.540,HF_wild_card,2022.2.4,MacIntel,59.99880002,57ea425e5b88f5000106bb9f,64ce5acb97489d65b14ecc7a,64cf4bf2f2a56b8fcaf25157,,,,,,,decisionTrl,resources/DBN.BMP,resources/DB.BMP,Door3,-0.228203125,-0.063702867,1,0,0,0.8971,optionLeft,70,7045,3,38,0,38,0,1,,,,,,,,,,,,,,,,,,,,,,,,,,,,,,,,,,,,,,,
,,,,,,,57ea425e5b88f5000106bb9f,2023-08-06_08h31.05.540,HF_wild_card,2022.2.4,MacIntel,59.99880002,57ea425e5b88f5000106bb9f,64ce5acb97489d65b14ecc7a,64cf4bf2f2a56b8fcaf25157,,,,,,,sngl,resources/Empty.png,resources/DP.BMP,WildCard_Ex,0.316656291,-0.026057468,1,0,0,0.6133,optionRight,5,7050,3,39,0,39,0,1,,,,,,,,,,,,,,,,,,,,,,,,,,,,,,,,,,,,,,,
,,,,,,,57ea425e5b88f5000106bb9f,2023-08-06_08h31.05.540,HF_wild_card,2022.2.4,MacIntel,59.99880002,57ea425e5b88f5000106bb9f,64ce5acb97489d65b14ecc7a,64cf4bf2f2a56b8fcaf25157,,,,,,,decisionTrl,resources/DB.BMP,resources/DP.BMP,WildCard_Ex,0.299160224,-0.022312419,1,0,0,1.1286,optionRight,95,7145,3,40,0,40,0,1,,,,,,,,,,,,,,,,,,,,,,,,,,,,,,,,,,,,,,,
,,,,,,,57ea425e5b88f5000106bb9f,2023-08-06_08h31.05.540,HF_wild_card,2022.2.4,MacIntel,59.99880002,57ea425e5b88f5000106bb9f,64ce5acb97489d65b14ecc7a,64cf4bf2f2a56b8fcaf25157,,,,,,,sngl,resources/DR.BMP,resources/Empty.png,Door1,-0.357351074,-0.010891385,1,0,0,0.6812,optionLeft,30,7175,3,41,0,41,0,1,,,,,,,,,,,,,,,,,,,,,,,,,,,,,,,,,,,,,,,
,,,,,,,57ea425e5b88f5000106bb9f,2023-08-06_08h31.05.540,HF_wild_card,2022.2.4,MacIntel,59.99880002,57ea425e5b88f5000106bb9f,64ce5acb97489d65b14ecc7a,64cf4bf2f2a56b8fcaf25157,,,,,,,decisionTrl,resources/DP.BMP,resources/DR.BMP,WildCard_Ex,-0.36001102,-0.07235399,1,0,0,1.5128,optionLeft,5,7180,3,42,0,42,0,1,,,,,,,,,,,,,,,,,,,,,,,,,,,,,,,,,,,,,,,
,,,,,,,57ea425e5b88f5000106bb9f,2023-08-06_08h31.05.540,HF_wild_card,2022.2.4,MacIntel,59.99880002,57ea425e5b88f5000106bb9f,64ce5acb97489d65b14ecc7a,64cf4bf2f2a56b8fcaf25157,,,,,,,decisionTrl,resources/DP.BMP,resources/DBN.BMP,Door3,0.295213216,-0.040636631,1,0,0,1.4295,optionRight,70,7250,3,43,0,43,0,1,,,,,,,,,,,,,,,,,,,,,,,,,,,,,,,,,,,,,,,
,,,,,,,57ea425e5b88f5000106bb9f,2023-08-06_08h31.05.540,HF_wild_card,2022.2.4,MacIntel,59.99880002,57ea425e5b88f5000106bb9f,64ce5acb97489d65b14ecc7a,64cf4bf2f2a56b8fcaf25157,,,,,,,,,,,,,,,,,,,,,,,,,,2,0,2,0,1,,,,,,,,,,,,,,,,,,,,,,,,,,,,,,,,,,
,,,,,,,57ea425e5b88f5000106bb9f,2023-08-06_08h31.05.540,HF_wild_card,2022.2.4,MacIntel,59.99880002,57ea425e5b88f5000106bb9f,64ce5acb97489d65b14ecc7a,64cf4bf2f2a56b8fcaf25157,,,,,,,ctch,resources/DB.BMP,resources/DR.BMP,Door4,-0.371317817,-0.004801975,1,0,0,1.5488,optionLeft,60,7310,4,0,0,0,0,1,,,,,,,,,,,,,,,,,,,,,,,,,,,,,,,,,,,,,,,
,,,,,,,57ea425e5b88f5000106bb9f,2023-08-06_08h31.05.540,HF_wild_card,2022.2.4,MacIntel,59.99880002,57ea425e5b88f5000106bb9f,64ce5acb97489d65b14ecc7a,64cf4bf2f2a56b8fcaf25157,,,,,,,decisionTrl,resources/DR.BMP,resources/DG.BMP,Door1,-0.4162382,-0.075570543,1,0,0,1.1965,optionLeft,30,7340,4,1,0,1,0,1,,,,,,,,,,,,,,,,,,,,,,,,,,,,,,,,,,,,,,,
,,,,,,,57ea425e5b88f5000106bb9f,2023-08-06_08h31.05.540,HF_wild_card,2022.2.4,MacIntel,59.99880002,57ea425e5b88f5000106bb9f,64ce5acb97489d65b14ecc7a,64cf4bf2f2a56b8fcaf25157,,,,,,,sngl,resources/Empty.png,resources/DB.BMP,Door4,0.314992676,-0.035311551,1,0,0,0.6627,optionRight,80,7420,4,2,0,2,0,1,,,,,,,,,,,,,,,,,,,,,,,,,,,,,,,,,,,,,,,
,,,,,,,57ea425e5b88f5000106bb9f,2023-08-06_08h31.05.540,HF_wild_card,2022.2.4,MacIntel,59.99880002,57ea425e5b88f5000106bb9f,64ce5acb97489d65b14ecc7a,64cf4bf2f2a56b8fcaf25157,,,,,,,decisionTrl,resources/DR.BMP,resources/DG.BMP,Door1,-0.25969713,-0.024988437,1,0,0,1.0114,optionLeft,30,7450,4,3,0,3,0,1,,,,,,,,,,,,,,,,,,,,,,,,,,,,,,,,,,,,,,,
,,,,,,,57ea425e5b88f5000106bb9f,2023-08-06_08h31.05.540,HF_wild_card,2022.2.4,MacIntel,59.99880002,57ea425e5b88f5000106bb9f,64ce5acb97489d65b14ecc7a,64cf4bf2f2a56b8fcaf25157,,,,,,,decisionTrl,resources/DY.BMP,resources/DR.BMP,WildCard_NonEx,-0.344059211,-0.079931302,1,0,0,1.0296,optionLeft,45,7495,4,4,0,4,0,1,,,,,,,,,,,,,,,,,,,,,,,,,,,,,,,,,,,,,,,
,,,,,,,57ea425e5b88f5000106bb9f,2023-08-06_08h31.05.540,HF_wild_card,2022.2.4,MacIntel,59.99880002,57ea425e5b88f5000106bb9f,64ce5acb97489d65b14ecc7a,64cf4bf2f2a56b8fcaf25157,,,,,,,sngl,resources/Empty.png,resources/DY.BMP,WildCard_NonEx,0.418060574,-0.102473145,1,0,0,0.6137,optionRight,45,7540,4,5,0,5,0,1,,,,,,,,,,,,,,,,,,,,,,,,,,,,,,,,,,,,,,,
,,,,,,,57ea425e5b88f5000106bb9f,2023-08-06_08h31.05.540,HF_wild_card,2022.2.4,MacIntel,59.99880002,57ea425e5b88f5000106bb9f,64ce5acb97489d65b14ecc7a,64cf4bf2f2a56b8fcaf25157,,,,,,,ctch,resources/DBN.BMP,resources/DG.BMP,Door3,-0.360187276,-0.067450867,1,0,0,1.2945,optionLeft,70,7610,4,6,0,6,0,1,,,,,,,,,,,,,,,,,,,,,,,,,,,,,,,,,,,,,,,
,,,,,,,57ea425e5b88f5000106bb9f,2023-08-06_08h31.05.540,HF_wild_card,2022.2.4,MacIntel,59.99880002,57ea425e5b88f5000106bb9f,64ce5acb97489d65b14ecc7a,64cf4bf2f2a56b8fcaf25157,,,,,,,ctch,resources/DG.BMP,resources/DBN.BMP,Door3,0.321002943,-0.028172607,1,0,0,1.3466,optionRight,70,7680,4,7,0,7,0,1,,,,,,,,,,,,,,,,,,,,,,,,,,,,,,,,,,,,,,,
,,,,,,,57ea425e5b88f5000106bb9f,2023-08-06_08h31.05.540,HF_wild_card,2022.2.4,MacIntel,59.99880002,57ea425e5b88f5000106bb9f,64ce5acb97489d65b14ecc7a,64cf4bf2f2a56b8fcaf25157,,,,,,,decisionTrl,resources/DY.BMP,resources/DB.BMP,WildCard_NonEx,-0.286985982,-0.047507087,1,0,0,0.8789,optionLeft,55,7735,4,8,0,8,0,1,,,,,,,,,,,,,,,,,,,,,,,,,,,,,,,,,,,,,,,
,,,,,,,57ea425e5b88f5000106bb9f,2023-08-06_08h31.05.540,HF_wild_card,2022.2.4,MacIntel,59.99880002,57ea425e5b88f5000106bb9f,64ce5acb97489d65b14ecc7a,64cf4bf2f2a56b8fcaf25157,,,,,,,decisionTrl,resources/DG.BMP,resources/DR.BMP,Door1,0.282502509,-0.022600538,1,0,0,1.9624,optionRight,30,7765,4,9,0,9,0,1,,,,,,,,,,,,,,,,,,,,,,,,,,,,,,,,,,,,,,,
,,,,,,,57ea425e5b88f5000106bb9f,2023-08-06_08h31.05.540,HF_wild_card,2022.2.4,MacIntel,59.99880002,57ea425e5b88f5000106bb9f,64ce5acb97489d65b14ecc7a,64cf4bf2f2a56b8fcaf25157,,,,,,,decisionTrl,resources/DBN.BMP,resources/DB.BMP,Door3,-0.287470262,-0.062077738,1,0,0,1.2464,optionLeft,70,7835,4,10,0,10,0,1,,,,,,,,,,,,,,,,,,,,,,,,,,,,,,,,,,,,,,,
,,,,,,,57ea425e5b88f5000106bb9f,2023-08-06_08h31.05.540,HF_wild_card,2022.2.4,MacIntel,59.99880002,57ea425e5b88f5000106bb9f,64ce5acb97489d65b14ecc7a,64cf4bf2f2a56b8fcaf25157,,,,,,,sngl,resources/DY.BMP,resources/Empty.png,WildCard_NonEx,-0.202665405,-0.016795688,1,0,0,0.7968,optionLeft,45,7880,4,11,0,11,0,1,,,,,,,,,,,,,,,,,,,,,,,,,,,,,,,,,,,,,,,
,,,,,,,57ea425e5b88f5000106bb9f,2023-08-06_08h31.05.540,HF_wild_card,2022.2.4,MacIntel,59.99880002,57ea425e5b88f5000106bb9f,64ce5acb97489d65b14ecc7a,64cf4bf2f2a56b8fcaf25157,,,,,,,decisionTrl,resources/DG.BMP,resources/DR.BMP,Door1,0.359779731,-0.013139886,1,0,0,1.231,optionRight,30,7910,4,12,0,12,0,1,,,,,,,,,,,,,,,,,,,,,,,,,,,,,,,,,,,,,,,
,,,,,,,57ea425e5b88f5000106bb9f,2023-08-06_08h31.05.540,HF_wild_card,2022.2.4,MacIntel,59.99880002,57ea425e5b88f5000106bb9f,64ce5acb97489d65b14ecc7a,64cf4bf2f2a56b8fcaf25157,,,,,,,decisionTrl,resources/DG.BMP,resources/DY.BMP,WildCard_NonEx,0.363544922,-0.037565918,1,0,0,1.279,optionRight,45,7955,4,13,0,13,0,1,,,,,,,,,,,,,,,,,,,,,,,,,,,,,,,,,,,,,,,
,,,,,,,57ea425e5b88f5000106bb9f,2023-08-06_08h31.05.540,HF_wild_card,2022.2.4,MacIntel,59.99880002,57ea425e5b88f5000106bb9f,64ce5acb97489d65b14ecc7a,64cf4bf2f2a56b8fcaf25157,,,,,,,decisionTrl,resources/DBN.BMP,resources/DB.BMP,Door4,0.30838718,0.006884325,1,0,0,1.4301,optionRight,60,8015,4,14,0,14,0,1,,,,,,,,,,,,,,,,,,,,,,,,,,,,,,,,,,,,,,,
,,,,,,,57ea425e5b88f5000106bb9f,2023-08-06_08h31.05.540,HF_wild_card,2022.2.4,MacIntel,59.99880002,57ea425e5b88f5000106bb9f,64ce5acb97489d65b14ecc7a,64cf4bf2f2a56b8fcaf25157,,,,,,,ctch,resources/DG.BMP,resources/DBN.BMP,Door3,0.249853312,-0.050896335,1,0,0,1.0633,optionRight,70,8085,4,15,0,15,0,1,,,,,,,,,,,,,,,,,,,,,,,,,,,,,,,,,,,,,,,
,,,,,,,57ea425e5b88f5000106bb9f,2023-08-06_08h31.05.540,HF_wild_card,2022.2.4,MacIntel,59.99880002,57ea425e5b88f5000106bb9f,64ce5acb97489d65b14ecc7a,64cf4bf2f2a56b8fcaf25157,,,,,,,sngl,resources/DG.BMP,resources/Empty.png,Door2,-0.278671231,-0.012093065,1,0,0,0.5789,optionLeft,20,8105,4,16,0,16,0,1,,,,,,,,,,,,,,,,,,,,,,,,,,,,,,,,,,,,,,,
,,,,,,,57ea425e5b88f5000106bb9f,2023-08-06_08h31.05.540,HF_wild_card,2022.2.4,MacIntel,59.99880002,57ea425e5b88f5000106bb9f,64ce5acb97489d65b14ecc7a,64cf4bf2f2a56b8fcaf25157,,,,,,,sngl,resources/DY.BMP,resources/Empty.png,WildCard_NonEx,-0.310472683,-0.023585341,1,0,0,0.6636,optionLeft,55,8160,4,17,0,17,0,1,,,,,,,,,,,,,,,,,,,,,,,,,,,,,,,,,,,,,,,
,,,,,,,57ea425e5b88f5000106bb9f,2023-08-06_08h31.05.540,HF_wild_card,2022.2.4,MacIntel,59.99880002,57ea425e5b88f5000106bb9f,64ce5acb97489d65b14ecc7a,64cf4bf2f2a56b8fcaf25157,,,,,,,decisionTrl,resources/DR.BMP,resources/DG.BMP,Door1,-0.38906857,-0.010997009,1,0,0,1.0134,optionLeft,30,8190,4,18,0,18,0,1,,,,,,,,,,,,,,,,,,,,,,,,,,,,,,,,,,,,,,,
,,,,,,,57ea425e5b88f5000106bb9f,2023-08-06_08h31.05.540,HF_wild_card,2022.2.4,MacIntel,59.99880002,57ea425e5b88f5000106bb9f,64ce5acb97489d65b14ecc7a,64cf4bf2f2a56b8fcaf25157,,,,,,,decisionTrl,resources/DY.BMP,resources/DG.BMP,WildCard_NonEx,-0.349435967,0.004743381,1,0,0,1.3119,optionLeft,45,8235,4,19,0,19,0,1,,,,,,,,,,,,,,,,,,,,,,,,,,,,,,,,,,,,,,,
,,,,,,,57ea425e5b88f5000106bb9f,2023-08-06_08h31.05.540,HF_wild_card,2022.2.4,MacIntel,59.99880002,57ea425e5b88f5000106bb9f,64ce5acb97489d65b14ecc7a,64cf4bf2f2a56b8fcaf25157,,,,,,,decisionTrl,resources/DB.BMP,resources/DBN.BMP,Door3,0.325,-0.047390476,1,0,0,1.4454,optionRight,70,8305,4,20,0,20,0,1,,,,,,,,,,,,,,,,,,,,,,,,,,,,,,,,,,,,,,,
,,,,,,,57ea425e5b88f5000106bb9f,2023-08-06_08h31.05.540,HF_wild_card,2022.2.4,MacIntel,59.99880002,57ea425e5b88f5000106bb9f,64ce5acb97489d65b14ecc7a,64cf4bf2f2a56b8fcaf25157,,,,,,,decisionTrl,resources/DB.BMP,resources/DY.BMP,Door4,-0.328628133,-0.05533844,1,0,0,1.4142,optionLeft,60,8365,4,21,0,21,0,1,,,,,,,,,,,,,,,,,,,,,,,,,,,,,,,,,,,,,,,
,,,,,,,57ea425e5b88f5000106bb9f,2023-08-06_08h31.05.540,HF_wild_card,2022.2.4,MacIntel,59.99880002,57ea425e5b88f5000106bb9f,64ce5acb97489d65b14ecc7a,64cf4bf2f2a56b8fcaf25157,,,,,,,sngl,resources/Empty.png,resources/DR.BMP,Door1,0.320549113,-0.039032796,1,0,0,0.6456,optionRight,30,8395,4,22,0,22,0,1,,,,,,,,,,,,,,,,,,,,,,,,,,,,,,,,,,,,,,,
,,,,,,,57ea425e5b88f5000106bb9f,2023-08-06_08h31.05.540,HF_wild_card,2022.2.4,MacIntel,59.99880002,57ea425e5b88f5000106bb9f,64ce5acb97489d65b14ecc7a,64cf4bf2f2a56b8fcaf25157,,,,,,,ctch,resources/DR.BMP,resources/DB.BMP,Door4,0.215830824,-0.025579461,1,0,0,1.2804,optionRight,80,8475,4,23,0,23,0,1,,,,,,,,,,,,,,,,,,,,,,,,,,,,,,,,,,,,,,,
,,,,,,,57ea425e5b88f5000106bb9f,2023-08-06_08h31.05.540,HF_wild_card,2022.2.4,MacIntel,59.99880002,57ea425e5b88f5000106bb9f,64ce5acb97489d65b14ecc7a,64cf4bf2f2a56b8fcaf25157,,,,,,,decisionTrl,resources/DR.BMP,resources/DG.BMP,Door1,-0.3135515,-0.05035163,1,0,0,1.0292,optionLeft,30,8505,4,24,0,24,0,1,,,,,,,,,,,,,,,,,,,,,,,,,,,,,,,,,,,,,,,
,,,,,,,57ea425e5b88f5000106bb9f,2023-08-06_08h31.05.540,HF_wild_card,2022.2.4,MacIntel,59.99880002,57ea425e5b88f5000106bb9f,64ce5acb97489d65b14ecc7a,64cf4bf2f2a56b8fcaf25157,,,,,,,sngl,resources/DR.BMP,resources/Empty.png,Door1,-0.354363708,-0.026822578,1,0,0,0.5804,optionLeft,30,8535,4,25,0,25,0,1,,,,,,,,,,,,,,,,,,,,,,,,,,,,,,,,,,,,,,,
,,,,,,,57ea425e5b88f5000106bb9f,2023-08-06_08h31.05.540,HF_wild_card,2022.2.4,MacIntel,59.99880002,57ea425e5b88f5000106bb9f,64ce5acb97489d65b14ecc7a,64cf4bf2f2a56b8fcaf25157,,,,,,,decisionTrl,resources/DB.BMP,resources/DBN.BMP,Door3,0.429391005,-0.013633525,1,0,0,1.0303,optionRight,70,8605,4,26,0,26,0,1,,,,,,,,,,,,,,,,,,,,,,,,,,,,,,,,,,,,,,,
,,,,,,,57ea425e5b88f5000106bb9f,2023-08-06_08h31.05.540,HF_wild_card,2022.2.4,MacIntel,59.99880002,57ea425e5b88f5000106bb9f,64ce5acb97489d65b14ecc7a,64cf4bf2f2a56b8fcaf25157,,,,,,,ctch,resources/DR.BMP,resources/DB.BMP,Door4,0.419140625,-0.038003303,1,0,0,1.0137,optionRight,60,8665,4,27,0,27,0,1,,,,,,,,,,,,,,,,,,,,,,,,,,,,,,,,,,,,,,,
,,,,,,,57ea425e5b88f5000106bb9f,2023-08-06_08h31.05.540,HF_wild_card,2022.2.4,MacIntel,59.99880002,57ea425e5b88f5000106bb9f,64ce5acb97489d65b14ecc7a,64cf4bf2f2a56b8fcaf25157,,,,,,,decisionTrl,resources/DR.BMP,resources/DY.BMP,WildCard_NonEx,0.30194024,-0.019501411,1,0,0,1.5498,optionRight,55,8720,4,28,0,28,0,1,,,,,,,,,,,,,,,,,,,,,,,,,,,,,,,,,,,,,,,
,,,,,,,57ea425e5b88f5000106bb9f,2023-08-06_08h31.05.540,HF_wild_card,2022.2.4,MacIntel,59.99880002,57ea425e5b88f5000106bb9f,64ce5acb97489d65b14ecc7a,64cf4bf2f2a56b8fcaf25157,,,,,,,sngl,resources/DBN.BMP,resources/Empty.png,Door3,-0.373795539,-0.00994005,1,0,0,0.6328,optionLeft,70,8790,4,29,0,29,0,1,,,,,,,,,,,,,,,,,,,,,,,,,,,,,,,,,,,,,,,
,,,,,,,57ea425e5b88f5000106bb9f,2023-08-06_08h31.05.540,HF_wild_card,2022.2.4,MacIntel,59.99880002,57ea425e5b88f5000106bb9f,64ce5acb97489d65b14ecc7a,64cf4bf2f2a56b8fcaf25157,,,,,,,decisionTrl,resources/DG.BMP,resources/DR.BMP,Door1,0.317364705,-0.029116482,1,0,0,1.4454,optionRight,30,8820,4,30,0,30,0,1,,,,,,,,,,,,,,,,,,,,,,,,,,,,,,,,,,,,,,,
,,,,,,,57ea425e5b88f5000106bb9f,2023-08-06_08h31.05.540,HF_wild_card,2022.2.4,MacIntel,59.99880002,57ea425e5b88f5000106bb9f,64ce5acb97489d65b14ecc7a,64cf4bf2f2a56b8fcaf25157,,,,,,,decisionTrl,resources/DBN.BMP,resources/DY.BMP,Door3,-0.368711446,-0.042314046,1,0,0,1.1306,optionLeft,70,8890,4,31,0,31,0,1,,,,,,,,,,,,,,,,,,,,,,,,,,,,,,,,,,,,,,,
,,,,,,,57ea425e5b88f5000106bb9f,2023-08-06_08h31.05.540,HF_wild_card,2022.2.4,MacIntel,59.99880002,57ea425e5b88f5000106bb9f,64ce5acb97489d65b14ecc7a,64cf4bf2f2a56b8fcaf25157,,,,,,,decisionTrl,resources/DY.BMP,resources/DBN.BMP,Door3,0.364412435,0.038094042,1,0,0,2.0489,optionRight,70,8960,4,32,0,32,0,1,,,,,,,,,,,,,,,,,,,,,,,,,,,,,,,,,,,,,,,
,,,,,,,57ea425e5b88f5000106bb9f,2023-08-06_08h31.05.540,HF_wild_card,2022.2.4,MacIntel,59.99880002,57ea425e5b88f5000106bb9f,64ce5acb97489d65b14ecc7a,64cf4bf2f2a56b8fcaf25157,,,,,,,ctch,resources/DBN.BMP,resources/DG.BMP,Door3,-0.413370226,-0.003037855,1,0,0,1.5806,optionLeft,70,9030,4,33,0,33,0,1,,,,,,,,,,,,,,,,,,,,,,,,,,,,,,,,,,,,,,,
,,,,,,,57ea425e5b88f5000106bb9f,2023-08-06_08h31.05.540,HF_wild_card,2022.2.4,MacIntel,59.99880002,57ea425e5b88f5000106bb9f,64ce5acb97489d65b14ecc7a,64cf4bf2f2a56b8fcaf25157,,,,,,,ctch,resources/DB.BMP,resources/DR.BMP,Door4,-0.395049337,0.001730618,1,0,0,1.4292,optionLeft,60,9090,4,34,0,34,0,1,,,,,,,,,,,,,,,,,,,,,,,,,,,,,,,,,,,,,,,
,,,,,,,57ea425e5b88f5000106bb9f,2023-08-06_08h31.05.540,HF_wild_card,2022.2.4,MacIntel,59.99880002,57ea425e5b88f5000106bb9f,64ce5acb97489d65b14ecc7a,64cf4bf2f2a56b8fcaf25157,,,,,,,sngl,resources/Empty.png,resources/DG.BMP,Door2,0.386188558,-0.013786553,1,0,0,0.8325,optionRight,40,9130,4,35,0,35,0,1,,,,,,,,,,,,,,,,,,,,,,,,,,,,,,,,,,,,,,,
,,,,,,,57ea425e5b88f5000106bb9f,2023-08-06_08h31.05.540,HF_wild_card,2022.2.4,MacIntel,59.99880002,57ea425e5b88f5000106bb9f,64ce5acb97489d65b14ecc7a,64cf4bf2f2a56b8fcaf25157,,,,,,,decisionTrl,resources/DBN.BMP,resources/DB.BMP,Door3,-0.331003282,-0.040792406,1,0,0,1.6972,optionLeft,70,9200,4,36,0,36,0,1,,,,,,,,,,,,,,,,,,,,,,,,,,,,,,,,,,,,,,,
,,,,,,,57ea425e5b88f5000106bb9f,2023-08-06_08h31.05.540,HF_wild_card,2022.2.4,MacIntel,59.99880002,57ea425e5b88f5000106bb9f,64ce5acb97489d65b14ecc7a,64cf4bf2f2a56b8fcaf25157,,,,,,,decisionTrl,resources/DBN.BMP,resources/DB.BMP,Door3,-0.317781474,-0.021707662,1,0,0,0.8785,optionLeft,70,9270,4,37,0,37,0,1,,,,,,,,,,,,,,,,,,,,,,,,,,,,,,,,,,,,,,,
,,,,,,,57ea425e5b88f5000106bb9f,2023-08-06_08h31.05.540,HF_wild_card,2022.2.4,MacIntel,59.99880002,57ea425e5b88f5000106bb9f,64ce5acb97489d65b14ecc7a,64cf4bf2f2a56b8fcaf25157,,,,,,,sngl,resources/Empty.png,resources/DBN.BMP,Door3,0.324899089,-0.038364699,1,0,0,0.7123,optionRight,70,9340,4,38,0,38,0,1,,,,,,,,,,,,,,,,,,,,,,,,,,,,,,,,,,,,,,,
,,,,,,,57ea425e5b88f5000106bb9f,2023-08-06_08h31.05.540,HF_wild_card,2022.2.4,MacIntel,59.99880002,57ea425e5b88f5000106bb9f,64ce5acb97489d65b14ecc7a,64cf4bf2f2a56b8fcaf25157,,,,,,,sngl,resources/Empty.png,resources/DY.BMP,WildCard_NonEx,0.252669271,-0.052609049,1,0,0,0.7127,optionRight,55,9395,4,39,0,39,0,1,,,,,,,,,,,,,,,,,,,,,,,,,,,,,,,,,,,,,,,
,,,,,,,57ea425e5b88f5000106bb9f,2023-08-06_08h31.05.540,HF_wild_card,2022.2.4,MacIntel,59.99880002,57ea425e5b88f5000106bb9f,64ce5acb97489d65b14ecc7a,64cf4bf2f2a56b8fcaf25157,,,,,,,decisionTrl,resources/DG.BMP,resources/DR.BMP,Door1,0.367321642,-0.067964613,1,0,0,1.1301,optionRight,30,9425,4,40,0,40,0,1,,,,,,,,,,,,,,,,,,,,,,,,,,,,,,,,,,,,,,,
,,,,,,,57ea425e5b88f5000106bb9f,2023-08-06_08h31.05.540,HF_wild_card,2022.2.4,MacIntel,59.99880002,57ea425e5b88f5000106bb9f,64ce5acb97489d65b14ecc7a,64cf4bf2f2a56b8fcaf25157,,,,,,,decisionTrl,resources/DB.BMP,resources/DBN.BMP,Door3,0.354849582,-0.012140537,1,0,0,1.1801,optionRight,70,9495,4,41,0,41,0,1,,,,,,,,,,,,,,,,,,,,,,,,,,,,,,,,,,,,,,,
,,,,,,,57ea425e5b88f5000106bb9f,2023-08-06_08h31.05.540,HF_wild_card,2022.2.4,MacIntel,59.99880002,57ea425e5b88f5000106bb9f,64ce5acb97489d65b14ecc7a,64cf4bf2f2a56b8fcaf25157,,,,,,,decisionTrl,resources/DB.BMP,resources/DBN.BMP,Door3,0.205340237,-0.019263814,1,0,0,0.7972,optionRight,70,9565,4,42,0,42,0,1,,,,,,,,,,,,,,,,,,,,,,,,,,,,,,,,,,,,,,,
,,,,,,,57ea425e5b88f5000106bb9f,2023-08-06_08h31.05.540,HF_wild_card,2022.2.4,MacIntel,59.99880002,57ea425e5b88f5000106bb9f,64ce5acb97489d65b14ecc7a,64cf4bf2f2a56b8fcaf25157,,,,,,,sngl,resources/DB.BMP,resources/Empty.png,Door4,-0.253369581,-0.033188816,1,0,0,0.6632,optionLeft,60,9625,4,43,0,43,0,1,,,,,,,,,,,,,,,,,,,,,,,,,,,,,,,,,,,,,,,
,,,,,,,57ea425e5b88f5000106bb9f,2023-08-06_08h31.05.540,HF_wild_card,2022.2.4,MacIntel,59.99880002,57ea425e5b88f5000106bb9f,64ce5acb97489d65b14ecc7a,64cf4bf2f2a56b8fcaf25157,,,,,,,,,,,,,,,,,,,,,,,,,,3,0,3,0,1,,,,,,,,,,,,,,,,,,,,,,,,,,,,,,,,,,
,,,,,,,57ea425e5b88f5000106bb9f,2023-08-06_08h31.05.540,HF_wild_card,2022.2.4,MacIntel,59.99880002,57ea425e5b88f5000106bb9f,64ce5acb97489d65b14ecc7a,64cf4bf2f2a56b8fcaf25157,,,,,,,ctch,resources/DBN.BMP,resources/DG.BMP,Door3,-0.316331346,-0.137227308,1,0,0,1.0613,optionLeft,70,9695,5,0,0,0,0,1,,,,,,,,,,,,,,,,,,,,,,,,,,,,,,,,,,,,,,,
,,,,,,,57ea425e5b88f5000106bb9f,2023-08-06_08h31.05.540,HF_wild_card,2022.2.4,MacIntel,59.99880002,57ea425e5b88f5000106bb9f,64ce5acb97489d65b14ecc7a,64cf4bf2f2a56b8fcaf25157,,,,,,,sngl,resources/Empty.png,resources/DB.BMP,Door4,0.260491265,-0.027701043,1,0,0,0.5953,optionRight,60,9755,5,1,0,1,0,1,,,,,,,,,,,,,,,,,,,,,,,,,,,,,,,,,,,,,,,
,,,,,,,57ea425e5b88f5000106bb9f,2023-08-06_08h31.05.540,HF_wild_card,2022.2.4,MacIntel,59.99880002,57ea425e5b88f5000106bb9f,64ce5acb97489d65b14ecc7a,64cf4bf2f2a56b8fcaf25157,,,,,,,decisionTrl,resources/DY.BMP,resources/DBN.BMP,Door3,0.352568495,-0.004014621,1,0,0,1.1322,optionRight,70,9825,5,2,0,2,0,1,,,,,,,,,,,,,,,,,,,,,,,,,,,,,,,,,,,,,,,
,,,,,,,57ea425e5b88f5000106bb9f,2023-08-06_08h31.05.540,HF_wild_card,2022.2.4,MacIntel,59.99880002,57ea425e5b88f5000106bb9f,64ce5acb97489d65b14ecc7a,64cf4bf2f2a56b8fcaf25157,,,,,,,decisionTrl,resources/DBN.BMP,resources/DB.BMP,Door3,-0.256650899,-0.042929315,1,0,0,0.9274,optionLeft,70,9895,5,3,0,3,0,1,,,,,,,,,,,,,,,,,,,,,,,,,,,,,,,,,,,,,,,
,,,,,,,57ea425e5b88f5000106bb9f,2023-08-06_08h31.05.540,HF_wild_card,2022.2.4,MacIntel,59.99880002,57ea425e5b88f5000106bb9f,64ce5acb97489d65b14ecc7a,64cf4bf2f2a56b8fcaf25157,,,,,,,ctch,resources/DBN.BMP,resources/DG.BMP,Door3,-0.350837335,-0.073450996,1,0,0,1.0279,optionLeft,70,9965,5,4,0,4,0,1,,,,,,,,,,,,,,,,,,,,,,,,,,,,,,,,,,,,,,,
,,,,,,,57ea425e5b88f5000106bb9f,2023-08-06_08h31.05.540,HF_wild_card,2022.2.4,MacIntel,59.99880002,57ea425e5b88f5000106bb9f,64ce5acb97489d65b14ecc7a,64cf4bf2f2a56b8fcaf25157,,,,,,,sngl,resources/DB.BMP,resources/Empty.png,Door4,-0.261304864,-0.024689772,1,0,0,0.6127,optionLeft,80,10045,5,5,0,5,0,1,,,,,,,,,,,,,,,,,,,,,,,,,,,,,,,,,,,,,,,
,,,,,,,57ea425e5b88f5000106bb9f,2023-08-06_08h31.05.540,HF_wild_card,2022.2.4,MacIntel,59.99880002,57ea425e5b88f5000106bb9f,64ce5acb97489d65b14ecc7a,64cf4bf2f2a56b8fcaf25157,,,,,,,decisionTrl,resources/DG.BMP,resources/DR.BMP,Door1,0.226127116,-0.047563477,1,0,0,1.2302,optionRight,30,10075,5,6,0,6,0,1,,,,,,,,,,,,,,,,,,,,,,,,,,,,,,,,,,,,,,,
,,,,,,,57ea425e5b88f5000106bb9f,2023-08-06_08h31.05.540,HF_wild_card,2022.2.4,MacIntel,59.99880002,57ea425e5b88f5000106bb9f,64ce5acb97489d65b14ecc7a,64cf4bf2f2a56b8fcaf25157,,,,,,,sngl,resources/DY.BMP,resources/Empty.png,WildCard_NonEx,-0.259270969,-0.048423971,1,0,0,0.55,optionLeft,45,10120,5,7,0,7,0,1,,,,,,,,,,,,,,,,,,,,,,,,,,,,,,,,,,,,,,,
,,,,,,,57ea425e5b88f5000106bb9f,2023-08-06_08h31.05.540,HF_wild_card,2022.2.4,MacIntel,59.99880002,57ea425e5b88f5000106bb9f,64ce5acb97489d65b14ecc7a,64cf4bf2f2a56b8fcaf25157,,,,,,,sngl,resources/Empty.png,resources/DBN.BMP,Door3,0.328516778,-0.007252265,1,0,0,0.5816,optionRight,70,10190,5,8,0,8,0,1,,,,,,,,,,,,,,,,,,,,,,,,,,,,,,,,,,,,,,,
,,,,,,,57ea425e5b88f5000106bb9f,2023-08-06_08h31.05.540,HF_wild_card,2022.2.4,MacIntel,59.99880002,57ea425e5b88f5000106bb9f,64ce5acb97489d65b14ecc7a,64cf4bf2f2a56b8fcaf25157,,,,,,,decisionTrl,resources/DR.BMP,resources/DG.BMP,Door2,0.314223158,-0.017886895,1,0,0,0.8958,optionRight,40,10230,5,9,0,9,0,1,,,,,,,,,,,,,,,,,,,,,,,,,,,,,,,,,,,,,,,
,,,,,,,57ea425e5b88f5000106bb9f,2023-08-06_08h31.05.540,HF_wild_card,2022.2.4,MacIntel,59.99880002,57ea425e5b88f5000106bb9f,64ce5acb97489d65b14ecc7a,64cf4bf2f2a56b8fcaf25157,,,,,,,decisionTrl,resources/DBN.BMP,resources/DB.BMP,Door3,-0.185206095,-0.036245321,1,0,0,1.1127,optionLeft,70,10300,5,10,0,10,0,1,,,,,,,,,,,,,,,,,,,,,,,,,,,,,,,,,,,,,,,
,,,,,,,57ea425e5b88f5000106bb9f,2023-08-06_08h31.05.540,HF_wild_card,2022.2.4,MacIntel,59.99880002,57ea425e5b88f5000106bb9f,64ce5acb97489d65b14ecc7a,64cf4bf2f2a56b8fcaf25157,,,,,,,decisionTrl,resources/DR.BMP,resources/DG.BMP,Door1,-0.286151428,-0.045792745,1,0,0,1.5152,optionLeft,30,10330,5,11,0,11,0,1,,,,,,,,,,,,,,,,,,,,,,,,,,,,,,,,,,,,,,,
,,,,,,,57ea425e5b88f5000106bb9f,2023-08-06_08h31.05.540,HF_wild_card,2022.2.4,MacIntel,59.99880002,57ea425e5b88f5000106bb9f,64ce5acb97489d65b14ecc7a,64cf4bf2f2a56b8fcaf25157,,,,,,,decisionTrl,resources/DB.BMP,resources/DBN.BMP,Door3,0.343301731,-0.026729635,1,0,0,0.8971,optionRight,70,10400,5,12,0,12,0,1,,,,,,,,,,,,,,,,,,,,,,,,,,,,,,,,,,,,,,,
,,,,,,,57ea425e5b88f5000106bb9f,2023-08-06_08h31.05.540,HF_wild_card,2022.2.4,MacIntel,59.99880002,57ea425e5b88f5000106bb9f,64ce5acb97489d65b14ecc7a,64cf4bf2f2a56b8fcaf25157,,,,,,,sngl,resources/DBN.BMP,resources/Empty.png,Door3,-0.438639119,-0.052882724,1,0,0,0.6138,optionLeft,70,10470,5,13,0,13,0,1,,,,,,,,,,,,,,,,,,,,,,,,,,,,,,,,,,,,,,,
,,,,,,,57ea425e5b88f5000106bb9f,2023-08-06_08h31.05.540,HF_wild_card,2022.2.4,MacIntel,59.99880002,57ea425e5b88f5000106bb9f,64ce5acb97489d65b14ecc7a,64cf4bf2f2a56b8fcaf25157,,,,,,,ctch,resources/DR.BMP,resources/DB.BMP,Door4,0.301302626,-0.0328636,1,0,0,1.1809,optionRight,60,10530,5,14,0,14,0,1,,,,,,,,,,,,,,,,,,,,,,,,,,,,,,,,,,,,,,,
,,,,,,,57ea425e5b88f5000106bb9f,2023-08-06_08h31.05.540,HF_wild_card,2022.2.4,MacIntel,59.99880002,57ea425e5b88f5000106bb9f,64ce5acb97489d65b14ecc7a,64cf4bf2f2a56b8fcaf25157,,,,,,,ctch,resources/DG.BMP,resources/DBN.BMP,Door3,0.31938741,-0.004169244,1,0,0,0.9126,optionRight,70,10600,5,15,0,15,0,1,,,,,,,,,,,,,,,,,,,,,,,,,,,,,,,,,,,,,,,
,,,,,,,57ea425e5b88f5000106bb9f,2023-08-06_08h31.05.540,HF_wild_card,2022.2.4,MacIntel,59.99880002,57ea425e5b88f5000106bb9f,64ce5acb97489d65b14ecc7a,64cf4bf2f2a56b8fcaf25157,,,,,,,decisionTrl,resources/DG.BMP,resources/DR.BMP,Door2,-0.257721829,-0.027407633,1,0,0,1.4972,optionLeft,20,10620,5,16,0,16,0,1,,,,,,,,,,,,,,,,,,,,,,,,,,,,,,,,,,,,,,,
,,,,,,,57ea425e5b88f5000106bb9f,2023-08-06_08h31.05.540,HF_wild_card,2022.2.4,MacIntel,59.99880002,57ea425e5b88f5000106bb9f,64ce5acb97489d65b14ecc7a,64cf4bf2f2a56b8fcaf25157,,,,,,,ctch,resources/DG.BMP,resources/DBN.BMP,Door3,0.286503499,-0.047574632,1,0,0,0.812,optionRight,70,10690,5,17,0,17,0,1,,,,,,,,,,,,,,,,,,,,,,,,,,,,,,,,,,,,,,,
,,,,,,,57ea425e5b88f5000106bb9f,2023-08-06_08h31.05.540,HF_wild_card,2022.2.4,MacIntel,59.99880002,57ea425e5b88f5000106bb9f,64ce5acb97489d65b14ecc7a,64cf4bf2f2a56b8fcaf25157,,,,,,,decisionTrl,resources/DB.BMP,resources/DBN.BMP,Door3,0.344103326,-0.017557271,1,0,0,1.2639,optionRight,70,10760,5,18,0,18,0,1,,,,,,,,,,,,,,,,,,,,,,,,,,,,,,,,,,,,,,,
,,,,,,,57ea425e5b88f5000106bb9f,2023-08-06_08h31.05.540,HF_wild_card,2022.2.4,MacIntel,59.99880002,57ea425e5b88f5000106bb9f,64ce5acb97489d65b14ecc7a,64cf4bf2f2a56b8fcaf25157,,,,,,,decisionTrl,resources/DBN.BMP,resources/DB.BMP,Door3,-0.232033318,-0.055941705,1,0,0,0.8489,optionLeft,70,10830,5,19,0,19,0,1,,,,,,,,,,,,,,,,,,,,,,,,,,,,,,,,,,,,,,,
,,,,,,,57ea425e5b88f5000106bb9f,2023-08-06_08h31.05.540,HF_wild_card,2022.2.4,MacIntel,59.99880002,57ea425e5b88f5000106bb9f,64ce5acb97489d65b14ecc7a,64cf4bf2f2a56b8fcaf25157,,,,,,,ctch,resources/DR.BMP,resources/DB.BMP,Door4,0.358720296,-0.038511285,1,0,0,0.9314,optionRight,80,10910,5,20,0,20,0,1,,,,,,,,,,,,,,,,,,,,,,,,,,,,,,,,,,,,,,,
,,,,,,,57ea425e5b88f5000106bb9f,2023-08-06_08h31.05.540,HF_wild_card,2022.2.4,MacIntel,59.99880002,57ea425e5b88f5000106bb9f,64ce5acb97489d65b14ecc7a,64cf4bf2f2a56b8fcaf25157,,,,,,,decisionTrl,resources/DB.BMP,resources/DY.BMP,Door4,-0.321878967,-0.078629693,1,0,0,0.9621,optionLeft,60,10970,5,21,0,21,0,1,,,,,,,,,,,,,,,,,,,,,,,,,,,,,,,,,,,,,,,
,,,,,,,57ea425e5b88f5000106bb9f,2023-08-06_08h31.05.540,HF_wild_card,2022.2.4,MacIntel,59.99880002,57ea425e5b88f5000106bb9f,64ce5acb97489d65b14ecc7a,64cf4bf2f2a56b8fcaf25157,,,,,,,sngl,resources/Empty.png,resources/DY.BMP,WildCard_NonEx,0.302787069,-0.059603441,1,0,0,0.5792,optionRight,45,11015,5,22,0,22,0,1,,,,,,,,,,,,,,,,,,,,,,,,,,,,,,,,,,,,,,,
,,,,,,,57ea425e5b88f5000106bb9f,2023-08-06_08h31.05.540,HF_wild_card,2022.2.4,MacIntel,59.99880002,57ea425e5b88f5000106bb9f,64ce5acb97489d65b14ecc7a,64cf4bf2f2a56b8fcaf25157,,,,,,,sngl,resources/Empty.png,resources/DG.BMP,Door2,0.315724352,0.015531175,1,0,0,0.5795,optionRight,20,11035,5,23,0,23,0,1,,,,,,,,,,,,,,,,,,,,,,,,,,,,,,,,,,,,,,,
,,,,,,,57ea425e5b88f5000106bb9f,2023-08-06_08h31.05.540,HF_wild_card,2022.2.4,MacIntel,59.99880002,57ea425e5b88f5000106bb9f,64ce5acb97489d65b14ecc7a,64cf4bf2f2a56b8fcaf25157,,,,,,,sngl,resources/DR.BMP,resources/Empty.png,Door1,-0.252595384,-0.045330912,1,0,0,0.5808,optionLeft,30,11065,5,24,0,24,0,1,,,,,,,,,,,,,,,,,,,,,,,,,,,,,,,,,,,,,,,
,,,,,,,57ea425e5b88f5000106bb9f,2023-08-06_08h31.05.540,HF_wild_card,2022.2.4,MacIntel,59.99880002,57ea425e5b88f5000106bb9f,64ce5acb97489d65b14ecc7a,64cf4bf2f2a56b8fcaf25157,,,,,,,sngl,resources/DG.BMP,resources/Empty.png,Door2,-0.319635349,-0.022374708,1,0,0,0.5795,optionLeft,40,11105,5,25,0,25,0,1,,,,,,,,,,,,,,,,,,,,,,,,,,,,,,,,,,,,,,,
,,,,,,,57ea425e5b88f5000106bb9f,2023-08-06_08h31.05.540,HF_wild_card,2022.2.4,MacIntel,59.99880002,57ea425e5b88f5000106bb9f,64ce5acb97489d65b14ecc7a,64cf4bf2f2a56b8fcaf25157,,,,,,,decisionTrl,resources/DBN.BMP,resources/DY.BMP,Door3,-0.260855509,-0.061506619,1,0,0,1.063,optionLeft,70,11175,5,26,0,26,0,1,,,,,,,,,,,,,,,,,,,,,,,,,,,,,,,,,,,,,,,
,,,,,,,57ea425e5b88f5000106bb9f,2023-08-06_08h31.05.540,HF_wild_card,2022.2.4,MacIntel,59.99880002,57ea425e5b88f5000106bb9f,64ce5acb97489d65b14ecc7a,64cf4bf2f2a56b8fcaf25157,,,,,,,decisionTrl,resources/DBN.BMP,resources/DB.BMP,Door3,-0.292364671,-0.059416097,1,0,0,0.9483,optionLeft,70,11245,5,27,0,27,0,1,,,,,,,,,,,,,,,,,,,,,,,,,,,,,,,,,,,,,,,
,,,,,,,57ea425e5b88f5000106bb9f,2023-08-06_08h31.05.540,HF_wild_card,2022.2.4,MacIntel,59.99880002,57ea425e5b88f5000106bb9f,64ce5acb97489d65b14ecc7a,64cf4bf2f2a56b8fcaf25157,,,,,,,decisionTrl,resources/DG.BMP,resources/DY.BMP,WildCard_NonEx,0.279446547,-0.037585653,1,0,0,1.2464,optionRight,55,11300,5,28,0,28,0,1,,,,,,,,,,,,,,,,,,,,,,,,,,,,,,,,,,,,,,,
,,,,,,,57ea425e5b88f5000106bb9f,2023-08-06_08h31.05.540,HF_wild_card,2022.2.4,MacIntel,59.99880002,57ea425e5b88f5000106bb9f,64ce5acb97489d65b14ecc7a,64cf4bf2f2a56b8fcaf25157,,,,,,,sngl,resources/DY.BMP,resources/Empty.png,WildCard_NonEx,-0.292160407,-0.057039964,1,0,0,0.5298,optionLeft,55,11355,5,29,0,29,0,1,,,,,,,,,,,,,,,,,,,,,,,,,,,,,,,,,,,,,,,
,,,,,,,57ea425e5b88f5000106bb9f,2023-08-06_08h31.05.540,HF_wild_card,2022.2.4,MacIntel,59.99880002,57ea425e5b88f5000106bb9f,64ce5acb97489d65b14ecc7a,64cf4bf2f2a56b8fcaf25157,,,,,,,decisionTrl,resources/DG.BMP,resources/DR.BMP,Door1,0.278005235,-0.02924686,1,0,0,1.3133,optionRight,30,11385,5,30,0,30,0,1,,,,,,,,,,,,,,,,,,,,,,,,,,,,,,,,,,,,,,,
,,,,,,,57ea425e5b88f5000106bb9f,2023-08-06_08h31.05.540,HF_wild_card,2022.2.4,MacIntel,59.99880002,57ea425e5b88f5000106bb9f,64ce5acb97489d65b14ecc7a,64cf4bf2f2a56b8fcaf25157,,,,,,,decisionTrl,resources/DY.BMP,resources/DB.BMP,Door4,0.238998142,-0.023209771,1,0,0,1.581,optionRight,80,11465,5,31,0,31,0,1,,,,,,,,,,,,,,,,,,,,,,,,,,,,,,,,,,,,,,,
,,,,,,,57ea425e5b88f5000106bb9f,2023-08-06_08h31.05.540,HF_wild_card,2022.2.4,MacIntel,59.99880002,57ea425e5b88f5000106bb9f,64ce5acb97489d65b14ecc7a,64cf4bf2f2a56b8fcaf25157,,,,,,,decisionTrl,resources/DB.BMP,resources/DBN.BMP,Door3,0.250968764,-0.01466746,1,0,0,0.9284,optionRight,70,11535,5,32,0,32,0,1,,,,,,,,,,,,,,,,,,,,,,,,,,,,,,,,,,,,,,,
,,,,,,,57ea425e5b88f5000106bb9f,2023-08-06_08h31.05.540,HF_wild_card,2022.2.4,MacIntel,59.99880002,57ea425e5b88f5000106bb9f,64ce5acb97489d65b14ecc7a,64cf4bf2f2a56b8fcaf25157,,,,,,,decisionTrl,resources/DR.BMP,resources/DG.BMP,Door1,-0.293251512,-0.037261353,1,0,0,1.0645,optionLeft,30,11565,5,33,0,33,0,1,,,,,,,,,,,,,,,,,,,,,,,,,,,,,,,,,,,,,,,
,,,,,,,57ea425e5b88f5000106bb9f,2023-08-06_08h31.05.540,HF_wild_card,2022.2.4,MacIntel,59.99880002,57ea425e5b88f5000106bb9f,64ce5acb97489d65b14ecc7a,64cf4bf2f2a56b8fcaf25157,,,,,,,sngl,resources/Empty.png,resources/DY.BMP,WildCard_NonEx,0.36078654,-0.004180433,1,0,0,0.5613,optionRight,55,11620,5,34,0,34,0,1,,,,,,,,,,,,,,,,,,,,,,,,,,,,,,,,,,,,,,,
,,,,,,,57ea425e5b88f5000106bb9f,2023-08-06_08h31.05.540,HF_wild_card,2022.2.4,MacIntel,59.99880002,57ea425e5b88f5000106bb9f,64ce5acb97489d65b14ecc7a,64cf4bf2f2a56b8fcaf25157,,,,,,,sngl,resources/Empty.png,resources/DR.BMP,Door1,0.319304674,-0.022112122,1,0,0,0.5315,optionRight,30,11650,5,35,0,35,0,1,,,,,,,,,,,,,,,,,,,,,,,,,,,,,,,,,,,,,,,
,,,,,,,57ea425e5b88f5000106bb9f,2023-08-06_08h31.05.540,HF_wild_card,2022.2.4,MacIntel,59.99880002,57ea425e5b88f5000106bb9f,64ce5acb97489d65b14ecc7a,64cf4bf2f2a56b8fcaf25157,,,,,,,ctch,resources/DB.BMP,resources/DR.BMP,Door4,-0.301423916,-0.048262126,1,0,0,2.4288,optionLeft,60,11710,5,36,0,36,0,1,,,,,,,,,,,,,,,,,,,,,,,,,,,,,,,,,,,,,,,
,,,,,,,57ea425e5b88f5000106bb9f,2023-08-06_08h31.05.540,HF_wild_card,2022.2.4,MacIntel,59.99880002,57ea425e5b88f5000106bb9f,64ce5acb97489d65b14ecc7a,64cf4bf2f2a56b8fcaf25157,,,,,,,decisionTrl,resources/DY.BMP,resources/DR.BMP,WildCard_NonEx,-0.321411845,-0.073101332,1,0,0,1.5804,optionLeft,45,11755,5,37,0,37,0,1,,,,,,,,,,,,,,,,,,,,,,,,,,,,,,,,,,,,,,,
,,,,,,,57ea425e5b88f5000106bb9f,2023-08-06_08h31.05.540,HF_wild_card,2022.2.4,MacIntel,59.99880002,57ea425e5b88f5000106bb9f,64ce5acb97489d65b14ecc7a,64cf4bf2f2a56b8fcaf25157,,,,,,,decisionTrl,resources/DY.BMP,resources/DG.BMP,WildCard_NonEx,-0.264963175,-0.028296746,1,0,0,1.4125,optionLeft,45,11800,5,38,0,38,0,1,,,,,,,,,,,,,,,,,,,,,,,,,,,,,,,,,,,,,,,
,,,,,,,57ea425e5b88f5000106bb9f,2023-08-06_08h31.05.540,HF_wild_card,2022.2.4,MacIntel,59.99880002,57ea425e5b88f5000106bb9f,64ce5acb97489d65b14ecc7a,64cf4bf2f2a56b8fcaf25157,,,,,,,decisionTrl,resources/DR.BMP,resources/DG.BMP,Door1,-0.280551961,-0.022044779,1,0,0,1.3942,optionLeft,30,11830,5,39,0,39,0,1,,,,,,,,,,,,,,,,,,,,,,,,,,,,,,,,,,,,,,,
,,,,,,,57ea425e5b88f5000106bb9f,2023-08-06_08h31.05.540,HF_wild_card,2022.2.4,MacIntel,59.99880002,57ea425e5b88f5000106bb9f,64ce5acb97489d65b14ecc7a,64cf4bf2f2a56b8fcaf25157,,,,,,,decisionTrl,resources/DB.BMP,resources/DBN.BMP,Door3,0.240373806,-0.016439345,1,0,0,1.2703,optionRight,70,11900,5,40,0,40,0,1,,,,,,,,,,,,,,,,,,,,,,,,,,,,,,,,,,,,,,,
,,,,,,,57ea425e5b88f5000106bb9f,2023-08-06_08h31.05.540,HF_wild_card,2022.2.4,MacIntel,59.99880002,57ea425e5b88f5000106bb9f,64ce5acb97489d65b14ecc7a,64cf4bf2f2a56b8fcaf25157,,,,,,,decisionTrl,resources/DR.BMP,resources/DY.BMP,WildCard_NonEx,0.275912543,0.001854451,1,0,0,1.3788,optionRight,55,11955,5,41,0,41,0,1,,,,,,,,,,,,,,,,,,,,,,,,,,,,,,,,,,,,,,,
,,,,,,,57ea425e5b88f5000106bb9f,2023-08-06_08h31.05.540,HF_wild_card,2022.2.4,MacIntel,59.99880002,57ea425e5b88f5000106bb9f,64ce5acb97489d65b14ecc7a,64cf4bf2f2a56b8fcaf25157,,,,,,,ctch,resources/DB.BMP,resources/DR.BMP,Door4,-0.279460822,-0.048526645,1,0,0,1.2814,optionLeft,60,12015,5,42,0,42,0,1,,,,,,,,,,,,,,,,,,,,,,,,,,,,,,,,,,,,,,,
,,,,,,,57ea425e5b88f5000106bb9f,2023-08-06_08h31.05.540,HF_wild_card,2022.2.4,MacIntel,59.99880002,57ea425e5b88f5000106bb9f,64ce5acb97489d65b14ecc7a,64cf4bf2f2a56b8fcaf25157,,,,,,,decisionTrl,resources/DG.BMP,resources/DR.BMP,Door1,0.298137343,0.005817091,1,0,0,1.0779,optionRight,30,12045,5,43,0,43,0,1,,,,,,,,,,,,,,,,,,,,,,,,,,,,,,,,,,,,,,,
,,,,,,,57ea425e5b88f5000106bb9f,2023-08-06_08h31.05.540,HF_wild_card,2022.2.4,MacIntel,59.99880002,57ea425e5b88f5000106bb9f,64ce5acb97489d65b14ecc7a,64cf4bf2f2a56b8fcaf25157,,,,,,,,,,,,,,,,,,,,,,,,,,4,0,4,0,1,,,,,,,,,,,,,,,,,,,,,,,,,,,,,,,,,,
,,,,,,,57ea425e5b88f5000106bb9f,2023-08-06_08h31.05.540,HF_wild_card,2022.2.4,MacIntel,59.99880002,57ea425e5b88f5000106bb9f,64ce5acb97489d65b14ecc7a,64cf4bf2f2a56b8fcaf25157,,,,,,,decisionTrl,resources/DBN.BMP,resources/DB.BMP,Door3,-0.360423008,-0.105739136,1,0,0,1.2835,optionLeft,70,12115,6,0,0,0,0,1,,,,,,,,,,,,,,,,,,,,,,,,,,,,,,,,,,,,,,,
,,,,,,,57ea425e5b88f5000106bb9f,2023-08-06_08h31.05.540,HF_wild_card,2022.2.4,MacIntel,59.99880002,57ea425e5b88f5000106bb9f,64ce5acb97489d65b14ecc7a,64cf4bf2f2a56b8fcaf25157,,,,,,,sngl,resources/DY.BMP,resources/Empty.png,WildCard_NonEx,-0.225224948,-0.006773241,1,0,0,0.6279,optionLeft,55,12170,6,1,0,1,0,1,,,,,,,,,,,,,,,,,,,,,,,,,,,,,,,,,,,,,,,
,,,,,,,57ea425e5b88f5000106bb9f,2023-08-06_08h31.05.540,HF_wild_card,2022.2.4,MacIntel,59.99880002,57ea425e5b88f5000106bb9f,64ce5acb97489d65b14ecc7a,64cf4bf2f2a56b8fcaf25157,,,,,,,sngl,resources/Empty.png,resources/DY.BMP,WildCard_NonEx,0.261800808,0.007150913,1,0,0,0.5813,optionRight,55,12225,6,2,0,2,0,1,,,,,,,,,,,,,,,,,,,,,,,,,,,,,,,,,,,,,,,
,,,,,,,57ea425e5b88f5000106bb9f,2023-08-06_08h31.05.540,HF_wild_card,2022.2.4,MacIntel,59.99880002,57ea425e5b88f5000106bb9f,64ce5acb97489d65b14ecc7a,64cf4bf2f2a56b8fcaf25157,,,,,,,sngl,resources/DBN.BMP,resources/Empty.png,Door3,-0.211168349,-0.075631036,1,0,0,0.5794,optionLeft,70,12295,6,3,0,3,0,1,,,,,,,,,,,,,,,,,,,,,,,,,,,,,,,,,,,,,,,
,,,,,,,57ea425e5b88f5000106bb9f,2023-08-06_08h31.05.540,HF_wild_card,2022.2.4,MacIntel,59.99880002,57ea425e5b88f5000106bb9f,64ce5acb97489d65b14ecc7a,64cf4bf2f2a56b8fcaf25157,,,,,,,sngl,resources/DB.BMP,resources/Empty.png,Door4,-0.329224141,-0.064522366,1,0,0,0.53,optionLeft,60,12355,6,4,0,4,0,1,,,,,,,,,,,,,,,,,,,,,,,,,,,,,,,,,,,,,,,
,,,,,,,57ea425e5b88f5000106bb9f,2023-08-06_08h31.05.540,HF_wild_card,2022.2.4,MacIntel,59.99880002,57ea425e5b88f5000106bb9f,64ce5acb97489d65b14ecc7a,64cf4bf2f2a56b8fcaf25157,,,,,,,decisionTrl,resources/DG.BMP,resources/DY.BMP,WildCard_NonEx,0.318327637,0.010365533,1,0,0,1.4283,optionRight,55,12410,6,5,0,5,0,1,,,,,,,,,,,,,,,,,,,,,,,,,,,,,,,,,,,,,,,
,,,,,,,57ea425e5b88f5000106bb9f,2023-08-06_08h31.05.540,HF_wild_card,2022.2.4,MacIntel,59.99880002,57ea425e5b88f5000106bb9f,64ce5acb97489d65b14ecc7a,64cf4bf2f2a56b8fcaf25157,,,,,,,decisionTrl,resources/DR.BMP,resources/DG.BMP,Door1,-0.276469964,-0.054486694,1,0,0,1.0293,optionLeft,30,12440,6,6,0,6,0,1,,,,,,,,,,,,,,,,,,,,,,,,,,,,,,,,,,,,,,,
,,,,,,,57ea425e5b88f5000106bb9f,2023-08-06_08h31.05.540,HF_wild_card,2022.2.4,MacIntel,59.99880002,57ea425e5b88f5000106bb9f,64ce5acb97489d65b14ecc7a,64cf4bf2f2a56b8fcaf25157,,,,,,,decisionTrl,resources/DG.BMP,resources/DR.BMP,Door1,0.361946208,0.002972412,1,0,0,1.3146,optionRight,30,12470,6,7,0,7,0,1,,,,,,,,,,,,,,,,,,,,,,,,,,,,,,,,,,,,,,,
,,,,,,,57ea425e5b88f5000106bb9f,2023-08-06_08h31.05.540,HF_wild_card,2022.2.4,MacIntel,59.99880002,57ea425e5b88f5000106bb9f,64ce5acb97489d65b14ecc7a,64cf4bf2f2a56b8fcaf25157,,,,,,,sngl,resources/Empty.png,resources/DBN.BMP,Door3,0.326139594,-0.032978075,1,0,0,0.5942,optionRight,70,12540,6,8,0,8,0,1,,,,,,,,,,,,,,,,,,,,,,,,,,,,,,,,,,,,,,,
,,,,,,,57ea425e5b88f5000106bb9f,2023-08-06_08h31.05.540,HF_wild_card,2022.2.4,MacIntel,59.99880002,57ea425e5b88f5000106bb9f,64ce5acb97489d65b14ecc7a,64cf4bf2f2a56b8fcaf25157,,,,,,,ctch,resources/DB.BMP,resources/DR.BMP,Door4,-0.305830824,-0.086983778,1,0,0,1.3954,optionLeft,60,12600,6,9,0,9,0,1,,,,,,,,,,,,,,,,,,,,,,,,,,,,,,,,,,,,,,,
,,,,,,,57ea425e5b88f5000106bb9f,2023-08-06_08h31.05.540,HF_wild_card,2022.2.4,MacIntel,59.99880002,57ea425e5b88f5000106bb9f,64ce5acb97489d65b14ecc7a,64cf4bf2f2a56b8fcaf25157,,,,,,,decisionTrl,resources/DY.BMP,resources/DBN.BMP,Door3,0.258188273,0.012098897,1,0,0,2.0631,optionRight,70,12670,6,10,0,10,0,1,,,,,,,,,,,,,,,,,,,,,,,,,,,,,,,,,,,,,,,
,,,,,,,57ea425e5b88f5000106bb9f,2023-08-06_08h31.05.540,HF_wild_card,2022.2.4,MacIntel,59.99880002,57ea425e5b88f5000106bb9f,64ce5acb97489d65b14ecc7a,64cf4bf2f2a56b8fcaf25157,,,,,,,sngl,resources/Empty.png,resources/DR.BMP,Door1,0.059508396,-0.022479757,1,0,0,0.6461,optionRight,30,12700,6,11,0,11,0,1,,,,,,,,,,,,,,,,,,,,,,,,,,,,,,,,,,,,,,,
,,,,,,,57ea425e5b88f5000106bb9f,2023-08-06_08h31.05.540,HF_wild_card,2022.2.4,MacIntel,59.99880002,57ea425e5b88f5000106bb9f,64ce5acb97489d65b14ecc7a,64cf4bf2f2a56b8fcaf25157,,,,,,,decisionTrl,resources/DR.BMP,resources/DG.BMP,Door1,-0.295892436,-0.04118554,1,0,0,1.3125,optionLeft,30,12730,6,12,0,12,0,1,,,,,,,,,,,,,,,,,,,,,,,,,,,,,,,,,,,,,,,
,,,,,,,57ea425e5b88f5000106bb9f,2023-08-06_08h31.05.540,HF_wild_card,2022.2.4,MacIntel,59.99880002,57ea425e5b88f5000106bb9f,64ce5acb97489d65b14ecc7a,64cf4bf2f2a56b8fcaf25157,,,,,,,decisionTrl,resources/DBN.BMP,resources/DB.BMP,Door3,-0.341435513,-0.075904405,1,0,0,1.1614,optionLeft,70,12800,6,13,0,13,0,1,,,,,,,,,,,,,,,,,,,,,,,,,,,,,,,,,,,,,,,
,,,,,,,57ea425e5b88f5000106bb9f,2023-08-06_08h31.05.540,HF_wild_card,2022.2.4,MacIntel,59.99880002,57ea425e5b88f5000106bb9f,64ce5acb97489d65b14ecc7a,64cf4bf2f2a56b8fcaf25157,,,,,,,sngl,resources/DY.BMP,resources/Empty.png,WildCard_NonEx,-0.298095873,-0.04581248,1,0,0,0.5312,optionLeft,45,12845,6,14,0,14,0,1,,,,,,,,,,,,,,,,,,,,,,,,,,,,,,,,,,,,,,,
,,,,,,,57ea425e5b88f5000106bb9f,2023-08-06_08h31.05.540,HF_wild_card,2022.2.4,MacIntel,59.99880002,57ea425e5b88f5000106bb9f,64ce5acb97489d65b14ecc7a,64cf4bf2f2a56b8fcaf25157,,,,,,,decisionTrl,resources/DBN.BMP,resources/DB.BMP,Door3,-0.254022827,-0.035671387,1,0,0,1.0299,optionLeft,70,12915,6,15,0,15,0,1,,,,,,,,,,,,,,,,,,,,,,,,,,,,,,,,,,,,,,,
,,,,,,,57ea425e5b88f5000106bb9f,2023-08-06_08h31.05.540,HF_wild_card,2022.2.4,MacIntel,59.99880002,57ea425e5b88f5000106bb9f,64ce5acb97489d65b14ecc7a,64cf4bf2f2a56b8fcaf25157,,,,,,,decisionTrl,resources/DR.BMP,resources/DG.BMP,Door1,-0.304747111,-0.023751255,1,0,0,1.0627,optionLeft,30,12945,6,16,0,16,0,1,,,,,,,,,,,,,,,,,,,,,,,,,,,,,,,,,,,,,,,
,,,,,,,57ea425e5b88f5000106bb9f,2023-08-06_08h31.05.540,HF_wild_card,2022.2.4,MacIntel,59.99880002,57ea425e5b88f5000106bb9f,64ce5acb97489d65b14ecc7a,64cf4bf2f2a56b8fcaf25157,,,,,,,decisionTrl,resources/DY.BMP,resources/DG.BMP,WildCard_NonEx,-0.283306681,-0.043436279,1,0,0,1.1119,optionLeft,55,13000,6,17,0,17,0,1,,,,,,,,,,,,,,,,,,,,,,,,,,,,,,,,,,,,,,,
,,,,,,,57ea425e5b88f5000106bb9f,2023-08-06_08h31.05.540,HF_wild_card,2022.2.4,MacIntel,59.99880002,57ea425e5b88f5000106bb9f,64ce5acb97489d65b14ecc7a,64cf4bf2f2a56b8fcaf25157,,,,,,,decisionTrl,resources/DB.BMP,resources/DBN.BMP,Door3,0.289709201,0.046011183,1,0,0,1.3443,optionRight,70,13070,6,18,0,18,0,1,,,,,,,,,,,,,,,,,,,,,,,,,,,,,,,,,,,,,,,
,,,,,,,57ea425e5b88f5000106bb9f,2023-08-06_08h31.05.540,HF_wild_card,2022.2.4,MacIntel,59.99880002,57ea425e5b88f5000106bb9f,64ce5acb97489d65b14ecc7a,64cf4bf2f2a56b8fcaf25157,,,,,,,ctch,resources/DR.BMP,resources/DB.BMP,Door4,0.333465101,0.02336263,1,0,0,1.2809,optionRight,80,13150,6,19,0,19,0,1,,,,,,,,,,,,,,,,,,,,,,,,,,,,,,,,,,,,,,,
,,,,,,,57ea425e5b88f5000106bb9f,2023-08-06_08h31.05.540,HF_wild_card,2022.2.4,MacIntel,59.99880002,57ea425e5b88f5000106bb9f,64ce5acb97489d65b14ecc7a,64cf4bf2f2a56b8fcaf25157,,,,,,,sngl,resources/DR.BMP,resources/Empty.png,Door1,-0.187031996,-0.01961202,1,0,0,0.5288,optionLeft,30,13180,6,20,0,20,0,1,,,,,,,,,,,,,,,,,,,,,,,,,,,,,,,,,,,,,,,
,,,,,,,57ea425e5b88f5000106bb9f,2023-08-06_08h31.05.540,HF_wild_card,2022.2.4,MacIntel,59.99880002,57ea425e5b88f5000106bb9f,64ce5acb97489d65b14ecc7a,64cf4bf2f2a56b8fcaf25157,,,,,,,sngl,resources/Empty.png,resources/DG.BMP,Door2,0.450207791,0.023583001,1,0,0,0.4948,optionRight,40,13220,6,21,0,21,0,1,,,,,,,,,,,,,,,,,,,,,,,,,,,,,,,,,,,,,,,
,,,,,,,57ea425e5b88f5000106bb9f,2023-08-06_08h31.05.540,HF_wild_card,2022.2.4,MacIntel,59.99880002,57ea425e5b88f5000106bb9f,64ce5acb97489d65b14ecc7a,64cf4bf2f2a56b8fcaf25157,,,,,,,decisionTrl,resources/DB.BMP,resources/DY.BMP,Door4,-0.241710782,-0.041847873,1,0,0,1.6973,optionLeft,60,13280,6,22,0,22,0,1,,,,,,,,,,,,,,,,,,,,,,,,,,,,,,,,,,,,,,,
,,,,,,,57ea425e5b88f5000106bb9f,2023-08-06_08h31.05.540,HF_wild_card,2022.2.4,MacIntel,59.99880002,57ea425e5b88f5000106bb9f,64ce5acb97489d65b14ecc7a,64cf4bf2f2a56b8fcaf25157,,,,,,,ctch,resources/DBN.BMP,resources/DG.BMP,Door3,-0.357810771,-0.064745416,1,0,0,1.1633,optionLeft,70,13350,6,23,0,23,0,1,,,,,,,,,,,,,,,,,,,,,,,,,,,,,,,,,,,,,,,
,,,,,,,57ea425e5b88f5000106bb9f,2023-08-06_08h31.05.540,HF_wild_card,2022.2.4,MacIntel,59.99880002,57ea425e5b88f5000106bb9f,64ce5acb97489d65b14ecc7a,64cf4bf2f2a56b8fcaf25157,,,,,,,decisionTrl,resources/DR.BMP,resources/DY.BMP,WildCard_NonEx,0.236604072,0.009865011,1,0,0,1.5614,optionRight,45,13395,6,24,0,24,0,1,,,,,,,,,,,,,,,,,,,,,,,,,,,,,,,,,,,,,,,
,,,,,,,57ea425e5b88f5000106bb9f,2023-08-06_08h31.05.540,HF_wild_card,2022.2.4,MacIntel,59.99880002,57ea425e5b88f5000106bb9f,64ce5acb97489d65b14ecc7a,64cf4bf2f2a56b8fcaf25157,,,,,,,ctch,resources/DG.BMP,resources/DBN.BMP,Door3,0.30053243,0.052576972,1,0,0,0.8952,optionRight,70,13465,6,25,0,25,0,1,,,,,,,,,,,,,,,,,,,,,,,,,,,,,,,,,,,,,,,
,,,,,,,57ea425e5b88f5000106bb9f,2023-08-06_08h31.05.540,HF_wild_card,2022.2.4,MacIntel,59.99880002,57ea425e5b88f5000106bb9f,64ce5acb97489d65b14ecc7a,64cf4bf2f2a56b8fcaf25157,,,,,,,ctch,resources/DG.BMP,resources/DBN.BMP,Door3,0.268029717,0.009393005,1,0,0,0.8621,optionRight,70,13535,6,26,0,26,0,1,,,,,,,,,,,,,,,,,,,,,,,,,,,,,,,,,,,,,,,
,,,,,,,57ea425e5b88f5000106bb9f,2023-08-06_08h31.05.540,HF_wild_card,2022.2.4,MacIntel,59.99880002,57ea425e5b88f5000106bb9f,64ce5acb97489d65b14ecc7a,64cf4bf2f2a56b8fcaf25157,,,,,,,decisionTrl,resources/DG.BMP,resources/DR.BMP,Door1,0.431122233,-0.005955811,1,0,0,1.1308,optionRight,30,13565,6,27,0,27,0,1,,,,,,,,,,,,,,,,,,,,,,,,,,,,,,,,,,,,,,,
,,,,,,,57ea425e5b88f5000106bb9f,2023-08-06_08h31.05.540,HF_wild_card,2022.2.4,MacIntel,59.99880002,57ea425e5b88f5000106bb9f,64ce5acb97489d65b14ecc7a,64cf4bf2f2a56b8fcaf25157,,,,,,,decisionTrl,resources/DY.BMP,resources/DB.BMP,WildCard_NonEx,-0.429577976,-0.082238498,1,0,0,1.1301,optionLeft,55,13620,6,28,0,28,0,1,,,,,,,,,,,,,,,,,,,,,,,,,,,,,,,,,,,,,,,
,,,,,,,57ea425e5b88f5000106bb9f,2023-08-06_08h31.05.540,HF_wild_card,2022.2.4,MacIntel,59.99880002,57ea425e5b88f5000106bb9f,64ce5acb97489d65b14ecc7a,64cf4bf2f2a56b8fcaf25157,,,,,,,decisionTrl,resources/DB.BMP,resources/DBN.BMP,Door3,0.356426053,0.013719143,1,0,0,1.1967,optionRight,70,13690,6,29,0,29,0,1,,,,,,,,,,,,,,,,,,,,,,,,,,,,,,,,,,,,,,,
,,,,,,,57ea425e5b88f5000106bb9f,2023-08-06_08h31.05.540,HF_wild_card,2022.2.4,MacIntel,59.99880002,57ea425e5b88f5000106bb9f,64ce5acb97489d65b14ecc7a,64cf4bf2f2a56b8fcaf25157,,,,,,,decisionTrl,resources/DB.BMP,resources/DBN.BMP,Door3,0.354949816,0.029564752,1,0,0,1.2971,optionRight,70,13760,6,30,0,30,0,1,,,,,,,,,,,,,,,,,,,,,,,,,,,,,,,,,,,,,,,
,,,,,,,57ea425e5b88f5000106bb9f,2023-08-06_08h31.05.540,HF_wild_card,2022.2.4,MacIntel,59.99880002,57ea425e5b88f5000106bb9f,64ce5acb97489d65b14ecc7a,64cf4bf2f2a56b8fcaf25157,,,,,,,decisionTrl,resources/DB.BMP,resources/DBN.BMP,Door3,0.328190715,0.016550225,1,0,0,0.7476,optionRight,70,13830,6,31,0,31,0,1,,,,,,,,,,,,,,,,,,,,,,,,,,,,,,,,,,,,,,,
,,,,,,,57ea425e5b88f5000106bb9f,2023-08-06_08h31.05.540,HF_wild_card,2022.2.4,MacIntel,59.99880002,57ea425e5b88f5000106bb9f,64ce5acb97489d65b14ecc7a,64cf4bf2f2a56b8fcaf25157,,,,,,,decisionTrl,resources/DG.BMP,resources/DR.BMP,Door1,0.345837402,0.011028035,1,0,0,1.1315,optionRight,30,13860,6,32,0,32,0,1,,,,,,,,,,,,,,,,,,,,,,,,,,,,,,,,,,,,,,,
,,,,,,,57ea425e5b88f5000106bb9f,2023-08-06_08h31.05.540,HF_wild_card,2022.2.4,MacIntel,59.99880002,57ea425e5b88f5000106bb9f,64ce5acb97489d65b14ecc7a,64cf4bf2f2a56b8fcaf25157,,,,,,,decisionTrl,resources/DBN.BMP,resources/DB.BMP,Door3,-0.39117062,-0.077046712,1,0,0,1.2113,optionLeft,70,13930,6,33,0,33,0,1,,,,,,,,,,,,,,,,,,,,,,,,,,,,,,,,,,,,,,,
,,,,,,,57ea425e5b88f5000106bb9f,2023-08-06_08h31.05.540,HF_wild_card,2022.2.4,MacIntel,59.99880002,57ea425e5b88f5000106bb9f,64ce5acb97489d65b14ecc7a,64cf4bf2f2a56b8fcaf25157,,,,,,,sngl,resources/Empty.png,resources/DY.BMP,WildCard_NonEx,0.365855849,0.012331577,1,0,0,0.5137,optionRight,45,13975,6,34,0,34,0,1,,,,,,,,,,,,,,,,,,,,,,,,,,,,,,,,,,,,,,,
,,,,,,,57ea425e5b88f5000106bb9f,2023-08-06_08h31.05.540,HF_wild_card,2022.2.4,MacIntel,59.99880002,57ea425e5b88f5000106bb9f,64ce5acb97489d65b14ecc7a,64cf4bf2f2a56b8fcaf25157,,,,,,,sngl,resources/Empty.png,resources/DB.BMP,Door4,0.440248752,-0.012923008,1,0,0,0.4973,optionRight,80,14055,6,35,0,35,0,1,,,,,,,,,,,,,,,,,,,,,,,,,,,,,,,,,,,,,,,
,,,,,,,57ea425e5b88f5000106bb9f,2023-08-06_08h31.05.540,HF_wild_card,2022.2.4,MacIntel,59.99880002,57ea425e5b88f5000106bb9f,64ce5acb97489d65b14ecc7a,64cf4bf2f2a56b8fcaf25157,,,,,,,sngl,resources/DG.BMP,resources/Empty.png,Door2,-0.293008287,-0.078990275,1,0,0,0.5292,optionLeft,20,14075,6,36,0,36,0,1,,,,,,,,,,,,,,,,,,,,,,,,,,,,,,,,,,,,,,,
,,,,,,,57ea425e5b88f5000106bb9f,2023-08-06_08h31.05.540,HF_wild_card,2022.2.4,MacIntel,59.99880002,57ea425e5b88f5000106bb9f,64ce5acb97489d65b14ecc7a,64cf4bf2f2a56b8fcaf25157,,,,,,,decisionTrl,resources/DY.BMP,resources/DR.BMP,WildCard_NonEx,-0.342369826,-0.086300252,1,0,0,1.4298,optionLeft,45,14120,6,37,0,37,0,1,,,,,,,,,,,,,,,,,,,,,,,,,,,,,,,,,,,,,,,
,,,,,,,57ea425e5b88f5000106bb9f,2023-08-06_08h31.05.540,HF_wild_card,2022.2.4,MacIntel,59.99880002,57ea425e5b88f5000106bb9f,64ce5acb97489d65b14ecc7a,64cf4bf2f2a56b8fcaf25157,,,,,,,ctch,resources/DB.BMP,resources/DR.BMP,Door4,-0.381483459,-0.101267971,1,0,0,0.9462,optionLeft,80,14200,6,38,0,38,0,1,,,,,,,,,,,,,,,,,,,,,,,,,,,,,,,,,,,,,,,
,,,,,,,57ea425e5b88f5000106bb9f,2023-08-06_08h31.05.540,HF_wild_card,2022.2.4,MacIntel,59.99880002,57ea425e5b88f5000106bb9f,64ce5acb97489d65b14ecc7a,64cf4bf2f2a56b8fcaf25157,,,,,,,decisionTrl,resources/DBN.BMP,resources/DY.BMP,Door3,-0.336640862,0.010674303,1,0,0,1.4459,optionLeft,70,14270,6,39,0,39,0,1,,,,,,,,,,,,,,,,,,,,,,,,,,,,,,,,,,,,,,,
,,,,,,,57ea425e5b88f5000106bb9f,2023-08-06_08h31.05.540,HF_wild_card,2022.2.4,MacIntel,59.99880002,57ea425e5b88f5000106bb9f,64ce5acb97489d65b14ecc7a,64cf4bf2f2a56b8fcaf25157,,,,,,,ctch,resources/DBN.BMP,resources/DG.BMP,Door3,-0.259598185,-0.052310893,1,0,0,1.0631,optionLeft,70,14340,6,40,0,40,0,1,,,,,,,,,,,,,,,,,,,,,,,,,,,,,,,,,,,,,,,
,,,,,,,57ea425e5b88f5000106bb9f,2023-08-06_08h31.05.540,HF_wild_card,2022.2.4,MacIntel,59.99880002,57ea425e5b88f5000106bb9f,64ce5acb97489d65b14ecc7a,64cf4bf2f2a56b8fcaf25157,,,,,,,ctch,resources/DR.BMP,resources/DB.BMP,Door4,0.313420885,0.013364393,1,0,0,1.03,optionRight,80,14420,6,41,0,41,0,1,,,,,,,,,,,,,,,,,,,,,,,,,,,,,,,,,,,,,,,
,,,,,,,57ea425e5b88f5000106bb9f,2023-08-06_08h31.05.540,HF_wild_card,2022.2.4,MacIntel,59.99880002,57ea425e5b88f5000106bb9f,64ce5acb97489d65b14ecc7a,64cf4bf2f2a56b8fcaf25157,,,,,,,decisionTrl,resources/DR.BMP,resources/DG.BMP,Door1,-0.345222338,-0.056857605,1,0,0,1.38,optionLeft,30,14450,6,42,0,42,0,1,,,,,,,,,,,,,,,,,,,,,,,,,,,,,,,,,,,,,,,
,,,,,,,57ea425e5b88f5000106bb9f,2023-08-06_08h31.05.540,HF_wild_card,2022.2.4,MacIntel,59.99880002,57ea425e5b88f5000106bb9f,64ce5acb97489d65b14ecc7a,64cf4bf2f2a56b8fcaf25157,,,,,,,decisionTrl,resources/DG.BMP,resources/DR.BMP,Door1,0.301069268,0.014810791,1,0,0,0.8459,optionRight,30,14480,6,43,0,43,0,1,,,,,,,,,,,,,,,,,,,,,,,,,,,,,,,,,,,,,,,
,,,,,,,57ea425e5b88f5000106bb9f,2023-08-06_08h31.05.540,HF_wild_card,2022.2.4,MacIntel,59.99880002,57ea425e5b88f5000106bb9f,64ce5acb97489d65b14ecc7a,64cf4bf2f2a56b8fcaf25157,,,,,,,,,,,,,,,,,,,,,,,,,,5,0,5,0,1,,,,,,,,,,,,,,,,,,,,,,,,,,,,,,,,,,
,,,,,,,57ea425e5b88f5000106bb9f,2023-08-06_08h31.05.540,HF_wild_card,2022.2.4,MacIntel,59.99880002,57ea425e5b88f5000106bb9f,64ce5acb97489d65b14ecc7a,64cf4bf2f2a56b8fcaf25157,,,,,,,ctch,resources/DB.BMP,resources/DR.BMP,Door4,-0.279649794,-0.098978068,1,0,0,1.3825,optionLeft,60,14540,7,0,0,0,0,1,,,,,,,,,,,,,,,,,,,,,,,,,,,,,,,,,,,,,,,
,,,,,,,57ea425e5b88f5000106bb9f,2023-08-06_08h31.05.540,HF_wild_card,2022.2.4,MacIntel,59.99880002,57ea425e5b88f5000106bb9f,64ce5acb97489d65b14ecc7a,64cf4bf2f2a56b8fcaf25157,,,,,,,ctch,resources/DG.BMP,resources/DBN.BMP,Door3,0.304339328,-0.010502285,1,0,0,0.9117,optionRight,70,14610,7,1,0,1,0,1,,,,,,,,,,,,,,,,,,,,,,,,,,,,,,,,,,,,,,,
,,,,,,,57ea425e5b88f5000106bb9f,2023-08-06_08h31.05.540,HF_wild_card,2022.2.4,MacIntel,59.99880002,57ea425e5b88f5000106bb9f,64ce5acb97489d65b14ecc7a,64cf4bf2f2a56b8fcaf25157,,,,,,,decisionTrl,resources/DB.BMP,resources/DBN.BMP,Door3,0.270567695,-0.015199755,1,0,0,0.9649,optionRight,70,14680,7,2,0,2,0,1,,,,,,,,,,,,,,,,,,,,,,,,,,,,,,,,,,,,,,,
,,,,,,,57ea425e5b88f5000106bb9f,2023-08-06_08h31.05.540,HF_wild_card,2022.2.4,MacIntel,59.99880002,57ea425e5b88f5000106bb9f,64ce5acb97489d65b14ecc7a,64cf4bf2f2a56b8fcaf25157,,,,,,,decisionTrl,resources/DB.BMP,resources/DBN.BMP,Door3,0.312046848,-0.009474216,1,0,0,0.8658,optionRight,70,14750,7,3,0,3,0,1,,,,,,,,,,,,,,,,,,,,,,,,,,,,,,,,,,,,,,,
,,,,,,,57ea425e5b88f5000106bb9f,2023-08-06_08h31.05.540,HF_wild_card,2022.2.4,MacIntel,59.99880002,57ea425e5b88f5000106bb9f,64ce5acb97489d65b14ecc7a,64cf4bf2f2a56b8fcaf25157,,,,,,,decisionTrl,resources/DB.BMP,resources/DBN.BMP,Door3,0.332529433,-0.007186415,1,0,0,0.7631,optionRight,70,14820,7,4,0,4,0,1,,,,,,,,,,,,,,,,,,,,,,,,,,,,,,,,,,,,,,,
,,,,,,,57ea425e5b88f5000106bb9f,2023-08-06_08h31.05.540,HF_wild_card,2022.2.4,MacIntel,59.99880002,57ea425e5b88f5000106bb9f,64ce5acb97489d65b14ecc7a,64cf4bf2f2a56b8fcaf25157,,,,,,,decisionTrl,resources/DB.BMP,resources/DBN.BMP,Door3,0.334891154,0.003062676,1,0,0,0.732,optionRight,70,14890,7,5,0,5,0,1,,,,,,,,,,,,,,,,,,,,,,,,,,,,,,,,,,,,,,,
,,,,,,,57ea425e5b88f5000106bb9f,2023-08-06_08h31.05.540,HF_wild_card,2022.2.4,MacIntel,59.99880002,57ea425e5b88f5000106bb9f,64ce5acb97489d65b14ecc7a,64cf4bf2f2a56b8fcaf25157,,,,,,,decisionTrl,resources/DR.BMP,resources/DG.BMP,Door1,-0.3285574,-0.075446777,1,0,0,0.9622,optionLeft,30,14920,7,6,0,6,0,1,,,,,,,,,,,,,,,,,,,,,,,,,,,,,,,,,,,,,,,
,,,,,,,57ea425e5b88f5000106bb9f,2023-08-06_08h31.05.540,HF_wild_card,2022.2.4,MacIntel,59.99880002,57ea425e5b88f5000106bb9f,64ce5acb97489d65b14ecc7a,64cf4bf2f2a56b8fcaf25157,,,,,,,decisionTrl,resources/DBN.BMP,resources/DB.BMP,Door3,-0.345479363,-0.054884915,1,0,0,1.1625,optionLeft,70,14990,7,7,0,7,0,1,,,,,,,,,,,,,,,,,,,,,,,,,,,,,,,,,,,,,,,
,,,,,,,57ea425e5b88f5000106bb9f,2023-08-06_08h31.05.540,HF_wild_card,2022.2.4,MacIntel,59.99880002,57ea425e5b88f5000106bb9f,64ce5acb97489d65b14ecc7a,64cf4bf2f2a56b8fcaf25157,,,,,,,decisionTrl,resources/DG.BMP,resources/DR.BMP,Door1,0.283828939,-0.000750258,1,0,0,1.015,optionRight,30,15020,7,8,0,8,0,1,,,,,,,,,,,,,,,,,,,,,,,,,,,,,,,,,,,,,,,
,,,,,,,57ea425e5b88f5000106bb9f,2023-08-06_08h31.05.540,HF_wild_card,2022.2.4,MacIntel,59.99880002,57ea425e5b88f5000106bb9f,64ce5acb97489d65b14ecc7a,64cf4bf2f2a56b8fcaf25157,,,,,,,decisionTrl,resources/DG.BMP,resources/DR.BMP,Door1,0.267536757,-0.036810099,1,0,0,0.8316,optionRight,30,15050,7,9,0,9,0,1,,,,,,,,,,,,,,,,,,,,,,,,,,,,,,,,,,,,,,,
,,,,,,,57ea425e5b88f5000106bb9f,2023-08-06_08h31.05.540,HF_wild_card,2022.2.4,MacIntel,59.99880002,57ea425e5b88f5000106bb9f,64ce5acb97489d65b14ecc7a,64cf4bf2f2a56b8fcaf25157,,,,,,,ctch,resources/DR.BMP,resources/DB.BMP,Door4,0.349882541,-0.035255161,1,0,0,0.9815,optionRight,60,15110,7,10,0,10,0,1,,,,,,,,,,,,,,,,,,,,,,,,,,,,,,,,,,,,,,,
,,,,,,,57ea425e5b88f5000106bb9f,2023-08-06_08h31.05.540,HF_wild_card,2022.2.4,MacIntel,59.99880002,57ea425e5b88f5000106bb9f,64ce5acb97489d65b14ecc7a,64cf4bf2f2a56b8fcaf25157,,,,,,,decisionTrl,resources/DG.BMP,resources/DR.BMP,Door1,0.299437731,-0.005525377,1,0,0,1.2645,optionRight,30,15140,7,11,0,11,0,1,,,,,,,,,,,,,,,,,,,,,,,,,,,,,,,,,,,,,,,
,,,,,,,57ea425e5b88f5000106bb9f,2023-08-06_08h31.05.540,HF_wild_card,2022.2.4,MacIntel,59.99880002,57ea425e5b88f5000106bb9f,64ce5acb97489d65b14ecc7a,64cf4bf2f2a56b8fcaf25157,,,,,,,decisionTrl,resources/DBN.BMP,resources/DB.BMP,Door3,-0.387439202,-0.091411336,1,0,0,0.9797,optionLeft,70,15210,7,12,0,12,0,1,,,,,,,,,,,,,,,,,,,,,,,,,,,,,,,,,,,,,,,
,,,,,,,57ea425e5b88f5000106bb9f,2023-08-06_08h31.05.540,HF_wild_card,2022.2.4,MacIntel,59.99880002,57ea425e5b88f5000106bb9f,64ce5acb97489d65b14ecc7a,64cf4bf2f2a56b8fcaf25157,,,,,,,ctch,resources/DG.BMP,resources/DBN.BMP,Door3,0.289807197,0.018803406,1,0,0,1.0157,optionRight,70,15280,7,13,0,13,0,1,,,,,,,,,,,,,,,,,,,,,,,,,,,,,,,,,,,,,,,
,,,,,,,57ea425e5b88f5000106bb9f,2023-08-06_08h31.05.540,HF_wild_card,2022.2.4,MacIntel,59.99880002,57ea425e5b88f5000106bb9f,64ce5acb97489d65b14ecc7a,64cf4bf2f2a56b8fcaf25157,,,,,,,ctch,resources/DBN.BMP,resources/DG.BMP,Door3,-0.309039171,-0.056591119,1,0,0,1.031,optionLeft,70,15350,7,14,0,14,0,1,,,,,,,,,,,,,,,,,,,,,,,,,,,,,,,,,,,,,,,
,,,,,,,57ea425e5b88f5000106bb9f,2023-08-06_08h31.05.540,HF_wild_card,2022.2.4,MacIntel,59.99880002,57ea425e5b88f5000106bb9f,64ce5acb97489d65b14ecc7a,64cf4bf2f2a56b8fcaf25157,,,,,,,decisionTrl,resources/DBN.BMP,resources/DB.BMP,Door3,-0.320393372,-0.03986223,1,0,0,1.6156,optionLeft,70,15420,7,15,0,15,0,1,,,,,,,,,,,,,,,,,,,,,,,,,,,,,,,,,,,,,,,
,,,,,,,57ea425e5b88f5000106bb9f,2023-08-06_08h31.05.540,HF_wild_card,2022.2.4,MacIntel,59.99880002,57ea425e5b88f5000106bb9f,64ce5acb97489d65b14ecc7a,64cf4bf2f2a56b8fcaf25157,,,,,,,decisionTrl,resources/DR.BMP,resources/DG.BMP,Door1,-0.347856818,-0.054923706,1,0,0,0.9311,optionLeft,30,15450,7,16,0,16,0,1,,,,,,,,,,,,,,,,,,,,,,,,,,,,,,,,,,,,,,,
,,,,,,,57ea425e5b88f5000106bb9f,2023-08-06_08h31.05.540,HF_wild_card,2022.2.4,MacIntel,59.99880002,57ea425e5b88f5000106bb9f,64ce5acb97489d65b14ecc7a,64cf4bf2f2a56b8fcaf25157,,,,,,,decisionTrl,resources/DR.BMP,resources/DG.BMP,Door1,-0.319961005,-0.074667155,1,0,0,0.8145,optionLeft,30,15480,7,17,0,17,0,1,,,,,,,,,,,,,,,,,,,,,,,,,,,,,,,,,,,,,,,
