Condition,Low fixed image (Door1),Low risky image (Door2),High fixed image (Door3),High risky image (Door4),Extreme Wild Card,NonExtreme Wild Card,,date,expName,psychopyVersion,OS,frameRate,PROLIFIC_PID,STUDY_ID,SESSION_ID,mouse_2.x,mouse_2.y,mouse_2.leftButton,mouse_2.midButton,mouse_2.rightButton,mouse_2.clicked_name,Trial Type,Left Option Image,Right Option Image,Chosen Door,mouse.x,mouse.y,mouse.leftButton,mouse.midButton,mouse.rightButton,mouse.time,mouse.clicked_name,Feedback,Cumulative Reward,Block,trial.thisRepN,trial.thisTrialN,trial.thisN,trial.thisIndex,trial.ran,blocks.thisRepN,blocks.thisTrialN,blocks.thisN,blocks.thisIndex,blocks.ran,Money conversion,First Outcome Reported,Shown Door (First Outcome),Displayed Image (First Outcome),outcomes.thisRepN,outcomes.thisTrialN,outcomes.thisN,outcomes.thisIndex,outcomes.ran,judgments.thisRepN,judgments.thisTrialN,judgments.thisN,judgments.thisIndex,judgments.ran,freqMouse.x,freqMouse.y,freqMouse.leftButton,freqMouse.midButton,freqMouse.rightButton,freqMouse.clicked_name,FQJ for first outcome,FQJ for second outcome,Shown Door,Displayed Image,trials.thisRepN,trials.thisTrialN,trials.thisN,trials.thisIndex,trials.ran,judgBlock.thisRepN,judgBlock.thisTrialN,judgBlock.thisN,judgBlock.thisIndex,judgBlock.ran
0,resources/DB.BMP,resources/DG.BMP,resources/DP.BMP,resources/DR.BMP,resources/DY.BMP,resources/DBN.BMP,,2023-08-16_08h46.24.338,HF_wild_card,2022.2.4,Win32,60.01680471,6346e117e4e283094ff51b84,64d2fd46c836a06233681665,64dc7eb0b4214cff76e6c0ea,,,,,,,,,,,,,,,,,,,,,,,,,,,,,,,,,,,,,,,,,,,,,,,,,,,,,,,,,,,,,,,,
,,,,,,,,2023-08-16_08h46.24.338,HF_wild_card,2022.2.4,Win32,60.01680471,6346e117e4e283094ff51b84,64d2fd46c836a06233681665,64dc7eb0b4214cff76e6c0ea,0.025925954,-0.412037037,1,0,0,agree,,,,,,,,,,,,,,,,,,,,,,,,,,,,,,,,,,,,,,,,,,,,,,,,,,,,,,,,,,
,,,,,,,,2023-08-16_08h46.24.338,HF_wild_card,2022.2.4,Win32,60.01680471,6346e117e4e283094ff51b84,64d2fd46c836a06233681665,64dc7eb0b4214cff76e6c0ea,,,,,,,,,,,,,,,,,,,,,,,,,,,,,,,,,,,,,,,,,,,,,,,,,,,,,,,,,,,,,,,,
,,,,,,,,2023-08-16_08h46.24.338,HF_wild_card,2022.2.4,Win32,60.01680471,6346e117e4e283094ff51b84,64d2fd46c836a06233681665,64dc7eb0b4214cff76e6c0ea,,,,,,,sngl,resources/Empty.png,resources/DG.BMP,Door2,0.42777775,-0.048148155,1,0,0,2.8365,optionRight,20,20,1,0,0,0,0,1,,,,,,,,,,,,,,,,,,,,,,,,,,,,,,,,,,,,,,,
,,,,,,,,2023-08-16_08h46.24.338,HF_wild_card,2022.2.4,Win32,60.01680471,6346e117e4e283094ff51b84,64d2fd46c836a06233681665,64dc7eb0b4214cff76e6c0ea,,,,,,,sngl,resources/Empty.png,resources/DB.BMP,Door1,0.471296381,0.02407406,1,0,0,2.4608,optionRight,30,50,1,1,0,1,0,1,,,,,,,,,,,,,,,,,,,,,,,,,,,,,,,,,,,,,,,
,,,,,,,,2023-08-16_08h46.24.338,HF_wild_card,2022.2.4,Win32,60.01680471,6346e117e4e283094ff51b84,64d2fd46c836a06233681665,64dc7eb0b4214cff76e6c0ea,,,,,,,decisionTrl,resources/DR.BMP,resources/DP.BMP,Door3,0.376851824,-0.010185206,1,0,0,3.8234,optionRight,70,120,1,2,0,2,0,1,,,,,,,,,,,,,,,,,,,,,,,,,,,,,,,,,,,,,,,
,,,,,,,,2023-08-16_08h46.24.338,HF_wild_card,2022.2.4,Win32,60.01680471,6346e117e4e283094ff51b84,64d2fd46c836a06233681665,64dc7eb0b4214cff76e6c0ea,,,,,,,decisionTrl,resources/DG.BMP,resources/DB.BMP,Door2,-0.000925912,-0.01666666,1,0,0,2.9111,optionLeft,20,140,1,3,0,3,0,1,,,,,,,,,,,,,,,,,,,,,,,,,,,,,,,,,,,,,,,
,,,,,,,,2023-08-16_08h46.24.338,HF_wild_card,2022.2.4,Win32,60.01680471,6346e117e4e283094ff51b84,64d2fd46c836a06233681665,64dc7eb0b4214cff76e6c0ea,,,,,,,sngl,resources/DP.BMP,resources/Empty.png,Door3,-0.351851852,-0.121296282,1,0,0,2.2253,optionLeft,70,210,1,4,0,4,0,1,,,,,,,,,,,,,,,,,,,,,,,,,,,,,,,,,,,,,,,
,,,,,,,,2023-08-16_08h46.24.338,HF_wild_card,2022.2.4,Win32,60.01680471,6346e117e4e283094ff51b84,64d2fd46c836a06233681665,64dc7eb0b4214cff76e6c0ea,,,,,,,sngl,resources/DY.BMP,resources/Empty.png,WildCard_Ex,-0.340740734,-0.117592635,1,0,0,1.6109,optionLeft,95,305,1,5,0,5,0,1,,,,,,,,,,,,,,,,,,,,,,,,,,,,,,,,,,,,,,,
,,,,,,,,2023-08-16_08h46.24.338,HF_wild_card,2022.2.4,Win32,60.01680471,6346e117e4e283094ff51b84,64d2fd46c836a06233681665,64dc7eb0b4214cff76e6c0ea,,,,,,,decisionTrl,resources/DP.BMP,resources/DR.BMP,Door3,-0.296296296,-0.101851852,1,0,0,2.8604,optionLeft,70,375,1,6,0,6,0,1,,,,,,,,,,,,,,,,,,,,,,,,,,,,,,,,,,,,,,,
,,,,,,,,2023-08-16_08h46.24.338,HF_wild_card,2022.2.4,Win32,60.01680471,6346e117e4e283094ff51b84,64d2fd46c836a06233681665,64dc7eb0b4214cff76e6c0ea,,,,,,,sngl,resources/Empty.png,resources/DY.BMP,WildCard_Ex,0.383333418,-0.067592586,1,0,0,1.5402,optionRight,5,380,1,7,0,7,0,1,,,,,,,,,,,,,,,,,,,,,,,,,,,,,,,,,,,,,,,
,,,,,,,,2023-08-16_08h46.24.338,HF_wild_card,2022.2.4,Win32,60.01680471,6346e117e4e283094ff51b84,64d2fd46c836a06233681665,64dc7eb0b4214cff76e6c0ea,,,,,,,decisionTrl,resources/DB.BMP,resources/DG.BMP,Door2,0.453703704,0.088888875,1,0,0,3.5408,optionRight,40,420,1,8,0,8,0,1,,,,,,,,,,,,,,,,,,,,,,,,,,,,,,,,,,,,,,,
,,,,,,,,2023-08-16_08h46.24.338,HF_wild_card,2022.2.4,Win32,60.01680471,6346e117e4e283094ff51b84,64d2fd46c836a06233681665,64dc7eb0b4214cff76e6c0ea,,,,,,,ctch,resources/DP.BMP,resources/DG.BMP,Door3,-0.310185185,-0.094444487,1,0,0,3.5069,optionLeft,70,490,1,9,0,9,0,1,,,,,,,,,,,,,,,,,,,,,,,,,,,,,,,,,,,,,,,
,,,,,,,,2023-08-16_08h46.24.338,HF_wild_card,2022.2.4,Win32,60.01680471,6346e117e4e283094ff51b84,64d2fd46c836a06233681665,64dc7eb0b4214cff76e6c0ea,,,,,,,sngl,resources/DB.BMP,resources/Empty.png,Door1,-0.339814822,-0.072222215,1,0,0,1.2761,optionLeft,30,520,1,10,0,10,0,1,,,,,,,,,,,,,,,,,,,,,,,,,,,,,,,,,,,,,,,
,,,,,,,,2023-08-16_08h46.24.338,HF_wild_card,2022.2.4,Win32,60.01680471,6346e117e4e283094ff51b84,64d2fd46c836a06233681665,64dc7eb0b4214cff76e6c0ea,,,,,,,decisionTrl,resources/DR.BMP,resources/DP.BMP,Door3,0.462037122,0.01944443,1,0,0,1.9774,optionRight,70,590,1,11,0,11,0,1,,,,,,,,,,,,,,,,,,,,,,,,,,,,,,,,,,,,,,,
,,,,,,,,2023-08-16_08h46.24.338,HF_wild_card,2022.2.4,Win32,60.01680471,6346e117e4e283094ff51b84,64d2fd46c836a06233681665,64dc7eb0b4214cff76e6c0ea,,,,,,,sngl,resources/DR.BMP,resources/Empty.png,Door4,-0.346296275,-0.12037037,1,0,0,1.8604,optionLeft,80,670,1,12,0,12,0,1,,,,,,,,,,,,,,,,,,,,,,,,,,,,,,,,,,,,,,,
,,,,,,,,2023-08-16_08h46.24.338,HF_wild_card,2022.2.4,Win32,60.01680471,6346e117e4e283094ff51b84,64d2fd46c836a06233681665,64dc7eb0b4214cff76e6c0ea,,,,,,,ctch,resources/DR.BMP,resources/DB.BMP,Door4,-0.304629608,-0.040740755,1,0,0,1.1911,optionLeft,80,750,1,13,0,13,0,1,,,,,,,,,,,,,,,,,,,,,,,,,,,,,,,,,,,,,,,
,,,,,,,,2023-08-16_08h46.24.338,HF_wild_card,2022.2.4,Win32,60.01680471,6346e117e4e283094ff51b84,64d2fd46c836a06233681665,64dc7eb0b4214cff76e6c0ea,,,,,,,decisionTrl,resources/DG.BMP,resources/DB.BMP,Door2,0.008333347,-0.011111118,1,0,0,0.1287,optionLeft,20,770,1,14,0,14,0,1,,,,,,,,,,,,,,,,,,,,,,,,,,,,,,,,,,,,,,,
,,,,,,,,2023-08-16_08h46.24.338,HF_wild_card,2022.2.4,Win32,60.01680471,6346e117e4e283094ff51b84,64d2fd46c836a06233681665,64dc7eb0b4214cff76e6c0ea,,,,,,,decisionTrl,resources/DB.BMP,resources/DY.BMP,Door1,-0.371296282,-0.043518526,1,0,0,2.7674,optionLeft,30,800,1,15,0,15,0,1,,,,,,,,,,,,,,,,,,,,,,,,,,,,,,,,,,,,,,,
,,,,,,,,2023-08-16_08h46.24.338,HF_wild_card,2022.2.4,Win32,60.01680471,6346e117e4e283094ff51b84,64d2fd46c836a06233681665,64dc7eb0b4214cff76e6c0ea,,,,,,,decisionTrl,resources/DP.BMP,resources/DY.BMP,Door3,-0.346296275,-0.095370399,1,0,0,2.1257,optionLeft,70,870,1,16,0,16,0,1,,,,,,,,,,,,,,,,,,,,,,,,,,,,,,,,,,,,,,,
,,,,,,,,2023-08-16_08h46.24.338,HF_wild_card,2022.2.4,Win32,60.01680471,6346e117e4e283094ff51b84,64d2fd46c836a06233681665,64dc7eb0b4214cff76e6c0ea,,,,,,,decisionTrl,resources/DR.BMP,resources/DY.BMP,Door4,-0.296296296,-0.091666681,1,0,0,2.1598,optionLeft,80,950,1,17,0,17,0,1,,,,,,,,,,,,,,,,,,,,,,,,,,,,,,,,,,,,,,,
,,,,,,,,2023-08-16_08h46.24.338,HF_wild_card,2022.2.4,Win32,60.01680471,6346e117e4e283094ff51b84,64d2fd46c836a06233681665,64dc7eb0b4214cff76e6c0ea,,,,,,,decisionTrl,resources/DP.BMP,resources/DR.BMP,Door4,0.369444529,0.049999979,1,0,0,2.9902,optionRight,80,1030,1,18,0,18,0,1,,,,,,,,,,,,,,,,,,,,,,,,,,,,,,,,,,,,,,,
,,,,,,,,2023-08-16_08h46.24.338,HF_wild_card,2022.2.4,Win32,60.01680471,6346e117e4e283094ff51b84,64d2fd46c836a06233681665,64dc7eb0b4214cff76e6c0ea,,,,,,,sngl,resources/Empty.png,resources/DP.BMP,Door3,0.303703732,-0.031481496,1,0,0,1.1427,optionRight,70,1100,1,19,0,19,0,1,,,,,,,,,,,,,,,,,,,,,,,,,,,,,,,,,,,,,,,
,,,,,,,,2023-08-16_08h46.24.338,HF_wild_card,2022.2.4,Win32,60.01680471,6346e117e4e283094ff51b84,64d2fd46c836a06233681665,64dc7eb0b4214cff76e6c0ea,,,,,,,sngl,resources/Empty.png,resources/DY.BMP,WildCard_Ex,0.380555612,-0.051851873,1,0,0,1.0615,optionRight,95,1195,1,20,0,20,0,1,,,,,,,,,,,,,,,,,,,,,,,,,,,,,,,,,,,,,,,
,,,,,,,,2023-08-16_08h46.24.338,HF_wild_card,2022.2.4,Win32,60.01680471,6346e117e4e283094ff51b84,64d2fd46c836a06233681665,64dc7eb0b4214cff76e6c0ea,,,,,,,decisionTrl,resources/DB.BMP,resources/DG.BMP,Door1,-0.437037044,-0.074074074,1,0,0,2.495,optionLeft,30,1225,1,21,0,21,0,1,,,,,,,,,,,,,,,,,,,,,,,,,,,,,,,,,,,,,,,
,,,,,,,,2023-08-16_08h46.24.338,HF_wild_card,2022.2.4,Win32,60.01680471,6346e117e4e283094ff51b84,64d2fd46c836a06233681665,64dc7eb0b4214cff76e6c0ea,,,,,,,decisionTrl,resources/DR.BMP,resources/DP.BMP,Door4,-0.321296303,-0.077777792,1,0,0,2.2056,optionLeft,80,1305,1,22,0,22,0,1,,,,,,,,,,,,,,,,,,,,,,,,,,,,,,,,,,,,,,,
,,,,,,,,2023-08-16_08h46.24.338,HF_wild_card,2022.2.4,Win32,60.01680471,6346e117e4e283094ff51b84,64d2fd46c836a06233681665,64dc7eb0b4214cff76e6c0ea,,,,,,,ctch,resources/DG.BMP,resources/DP.BMP,Door3,0.351851852,-0.022222236,1,0,0,2.4586,optionRight,70,1375,1,23,0,23,0,1,,,,,,,,,,,,,,,,,,,,,,,,,,,,,,,,,,,,,,,
,,,,,,,,2023-08-16_08h46.24.338,HF_wild_card,2022.2.4,Win32,60.01680471,6346e117e4e283094ff51b84,64d2fd46c836a06233681665,64dc7eb0b4214cff76e6c0ea,,,,,,,decisionTrl,resources/DP.BMP,resources/DR.BMP,Door3,-0.324074074,-0.08425928,1,0,0,4.6608,optionLeft,70,1445,1,24,0,24,0,1,,,,,,,,,,,,,,,,,,,,,,,,,,,,,,,,,,,,,,,
,,,,,,,,2023-08-16_08h46.24.338,HF_wild_card,2022.2.4,Win32,60.01680471,6346e117e4e283094ff51b84,64d2fd46c836a06233681665,64dc7eb0b4214cff76e6c0ea,,,,,,,decisionTrl,resources/DP.BMP,resources/DR.BMP,Door4,0.321296268,0.003703683,1,0,0,1.141,optionRight,80,1525,1,25,0,25,0,1,,,,,,,,,,,,,,,,,,,,,,,,,,,,,,,,,,,,,,,
,,,,,,,,2023-08-16_08h46.24.338,HF_wild_card,2022.2.4,Win32,60.01680471,6346e117e4e283094ff51b84,64d2fd46c836a06233681665,64dc7eb0b4214cff76e6c0ea,,,,,,,ctch,resources/DR.BMP,resources/DB.BMP,Door4,-0.311111097,0.008333312,1,0,0,1.6101,optionLeft,60,1585,1,26,0,26,0,1,,,,,,,,,,,,,,,,,,,,,,,,,,,,,,,,,,,,,,,
,,,,,,,,2023-08-16_08h46.24.338,HF_wild_card,2022.2.4,Win32,60.01680471,6346e117e4e283094ff51b84,64d2fd46c836a06233681665,64dc7eb0b4214cff76e6c0ea,,,,,,,decisionTrl,resources/DY.BMP,resources/DP.BMP,Door3,0.327777863,-0.00462963,1,0,0,1.7743,optionRight,70,1655,1,27,0,27,0,1,,,,,,,,,,,,,,,,,,,,,,,,,,,,,,,,,,,,,,,
,,,,,,,,2023-08-16_08h46.24.338,HF_wild_card,2022.2.4,Win32,60.01680471,6346e117e4e283094ff51b84,64d2fd46c836a06233681665,64dc7eb0b4214cff76e6c0ea,,,,,,,decisionTrl,resources/DY.BMP,resources/DB.BMP,WildCard_Ex,-0.387962942,-0.059259273,1,0,0,1.074,optionLeft,5,1660,1,28,0,28,0,1,,,,,,,,,,,,,,,,,,,,,,,,,,,,,,,,,,,,,,,
,,,,,,,,2023-08-16_08h46.24.338,HF_wild_card,2022.2.4,Win32,60.01680471,6346e117e4e283094ff51b84,64d2fd46c836a06233681665,64dc7eb0b4214cff76e6c0ea,,,,,,,ctch,resources/DB.BMP,resources/DR.BMP,Door4,0.448148233,0.063888868,1,0,0,1.5449,optionRight,60,1720,1,29,0,29,0,1,,,,,,,,,,,,,,,,,,,,,,,,,,,,,,,,,,,,,,,
,,,,,,,,2023-08-16_08h46.24.338,HF_wild_card,2022.2.4,Win32,60.01680471,6346e117e4e283094ff51b84,64d2fd46c836a06233681665,64dc7eb0b4214cff76e6c0ea,,,,,,,decisionTrl,resources/DG.BMP,resources/DB.BMP,Door2,-0.349999993,-0.057407414,1,0,0,1.9932,optionLeft,40,1760,1,30,0,30,0,1,,,,,,,,,,,,,,,,,,,,,,,,,,,,,,,,,,,,,,,
,,,,,,,,2023-08-16_08h46.24.338,HF_wild_card,2022.2.4,Win32,60.01680471,6346e117e4e283094ff51b84,64d2fd46c836a06233681665,64dc7eb0b4214cff76e6c0ea,,,,,,,sngl,resources/DY.BMP,resources/Empty.png,WildCard_Ex,-0.381481489,-0.052777785,1,0,0,1.1253,optionLeft,5,1765,1,31,0,31,0,1,,,,,,,,,,,,,,,,,,,,,,,,,,,,,,,,,,,,,,,
,,,,,,,,2023-08-16_08h46.24.338,HF_wild_card,2022.2.4,Win32,60.01680471,6346e117e4e283094ff51b84,64d2fd46c836a06233681665,64dc7eb0b4214cff76e6c0ea,,,,,,,decisionTrl,resources/DG.BMP,resources/DY.BMP,Door2,-0.344444452,-0.036111125,1,0,0,1.3447,optionLeft,40,1805,1,32,0,32,0,1,,,,,,,,,,,,,,,,,,,,,,,,,,,,,,,,,,,,,,,
,,,,,,,,2023-08-16_08h46.24.338,HF_wild_card,2022.2.4,Win32,60.01680471,6346e117e4e283094ff51b84,64d2fd46c836a06233681665,64dc7eb0b4214cff76e6c0ea,,,,,,,decisionTrl,resources/DG.BMP,resources/DB.BMP,Door1,0.012962977,0.005555541,1,0,0,0.1438,optionRight,30,1835,1,33,0,33,0,1,,,,,,,,,,,,,,,,,,,,,,,,,,,,,,,,,,,,,,,
,,,,,,,,2023-08-16_08h46.24.338,HF_wild_card,2022.2.4,Win32,60.01680471,6346e117e4e283094ff51b84,64d2fd46c836a06233681665,64dc7eb0b4214cff76e6c0ea,,,,,,,decisionTrl,resources/DR.BMP,resources/DP.BMP,Door3,0.438888974,0.038888896,1,0,0,2.4728,optionRight,70,1905,1,34,0,34,0,1,,,,,,,,,,,,,,,,,,,,,,,,,,,,,,,,,,,,,,,
,,,,,,,,2023-08-16_08h46.24.338,HF_wild_card,2022.2.4,Win32,60.01680471,6346e117e4e283094ff51b84,64d2fd46c836a06233681665,64dc7eb0b4214cff76e6c0ea,,,,,,,ctch,resources/DP.BMP,resources/DG.BMP,Door3,-0.285185143,-0.066666674,1,0,0,1.4826,optionLeft,70,1975,1,35,0,35,0,1,,,,,,,,,,,,,,,,,,,,,,,,,,,,,,,,,,,,,,,
,,,,,,,,2023-08-16_08h46.24.338,HF_wild_card,2022.2.4,Win32,60.01680471,6346e117e4e283094ff51b84,64d2fd46c836a06233681665,64dc7eb0b4214cff76e6c0ea,,,,,,,decisionTrl,resources/DY.BMP,resources/DR.BMP,Door4,0.434259344,-0.033333355,1,0,0,3.2847,optionRight,80,2055,1,36,0,36,0,1,,,,,,,,,,,,,,,,,,,,,,,,,,,,,,,,,,,,,,,
,,,,,,,,2023-08-16_08h46.24.338,HF_wild_card,2022.2.4,Win32,60.01680471,6346e117e4e283094ff51b84,64d2fd46c836a06233681665,64dc7eb0b4214cff76e6c0ea,,,,,,,sngl,resources/Empty.png,resources/DR.BMP,Door4,0.385185242,-0.014814836,1,0,0,1.8395,optionRight,60,2115,1,37,0,37,0,1,,,,,,,,,,,,,,,,,,,,,,,,,,,,,,,,,,,,,,,
,,,,,,,,2023-08-16_08h46.24.338,HF_wild_card,2022.2.4,Win32,60.01680471,6346e117e4e283094ff51b84,64d2fd46c836a06233681665,64dc7eb0b4214cff76e6c0ea,,,,,,,ctch,resources/DG.BMP,resources/DP.BMP,Door3,0.371296353,-0.003703718,1,0,0,3.2783,optionRight,70,2185,1,38,0,38,0,1,,,,,,,,,,,,,,,,,,,,,,,,,,,,,,,,,,,,,,,
,,,,,,,,2023-08-16_08h46.24.338,HF_wild_card,2022.2.4,Win32,60.01680471,6346e117e4e283094ff51b84,64d2fd46c836a06233681665,64dc7eb0b4214cff76e6c0ea,,,,,,,ctch,resources/DB.BMP,resources/DR.BMP,Door1,-0.317592586,-0.063888903,1,0,0,2.2726,optionLeft,30,2215,1,39,0,39,0,1,,,,,,,,,,,,,,,,,,,,,,,,,,,,,,,,,,,,,,,
,,,,,,,,2023-08-16_08h46.24.338,HF_wild_card,2022.2.4,Win32,60.01680471,6346e117e4e283094ff51b84,64d2fd46c836a06233681665,64dc7eb0b4214cff76e6c0ea,,,,,,,decisionTrl,resources/DY.BMP,resources/DG.BMP,WildCard_Ex,-0.402777778,-0.092592593,1,0,0,2.2259,optionLeft,95,2310,1,40,0,40,0,1,,,,,,,,,,,,,,,,,,,,,,,,,,,,,,,,,,,,,,,
,,,,,,,,2023-08-16_08h46.24.338,HF_wild_card,2022.2.4,Win32,60.01680471,6346e117e4e283094ff51b84,64d2fd46c836a06233681665,64dc7eb0b4214cff76e6c0ea,,,,,,,decisionTrl,resources/DB.BMP,resources/DG.BMP,Door2,0.384259259,0.012962942,1,0,0,3.4927,optionRight,40,2350,1,41,0,41,0,1,,,,,,,,,,,,,,,,,,,,,,,,,,,,,,,,,,,,,,,
,,,,,,,,2023-08-16_08h46.24.338,HF_wild_card,2022.2.4,Win32,60.01680471,6346e117e4e283094ff51b84,64d2fd46c836a06233681665,64dc7eb0b4214cff76e6c0ea,,,,,,,decisionTrl,resources/DB.BMP,resources/DG.BMP,Door1,-0.329629616,-0.071296303,1,0,0,2.419,optionLeft,30,2380,1,42,0,42,0,1,,,,,,,,,,,,,,,,,,,,,,,,,,,,,,,,,,,,,,,
,,,,,,,,2023-08-16_08h46.24.338,HF_wild_card,2022.2.4,Win32,60.01680471,6346e117e4e283094ff51b84,64d2fd46c836a06233681665,64dc7eb0b4214cff76e6c0ea,,,,,,,sngl,resources/DG.BMP,resources/Empty.png,Door2,-0.309259238,-0.065740762,1,0,0,1.4101,optionLeft,40,2420,1,43,0,43,0,1,,,,,,,,,,,,,,,,,,,,,,,,,,,,,,,,,,,,,,,
,,,,,,,,2023-08-16_08h46.24.338,HF_wild_card,2022.2.4,Win32,60.01680471,6346e117e4e283094ff51b84,64d2fd46c836a06233681665,64dc7eb0b4214cff76e6c0ea,,,,,,,,,,,,,,,,,,,,,,,,,,0,0,0,0,1,,,,,,,,,,,,,,,,,,,,,,,,,,,,,,,,,,
,,,,,,,,2023-08-16_08h46.24.338,HF_wild_card,2022.2.4,Win32,60.01680471,6346e117e4e283094ff51b84,64d2fd46c836a06233681665,64dc7eb0b4214cff76e6c0ea,,,,,,,decisionTrl,resources/DB.BMP,resources/DG.BMP,Door2,0.454629686,-0.054629644,1,0,0,2.1722,optionRight,20,2440,2,0,0,0,0,1,,,,,,,,,,,,,,,,,,,,,,,,,,,,,,,,,,,,,,,
,,,,,,,,2023-08-16_08h46.24.338,HF_wild_card,2022.2.4,Win32,60.01680471,6346e117e4e283094ff51b84,64d2fd46c836a06233681665,64dc7eb0b4214cff76e6c0ea,,,,,,,decisionTrl,resources/DP.BMP,resources/DR.BMP,Door4,0.325000057,-0.00462963,1,0,0,1.7264,optionRight,60,2500,2,1,0,1,0,1,,,,,,,,,,,,,,,,,,,,,,,,,,,,,,,,,,,,,,,
,,,,,,,,2023-08-16_08h46.24.338,HF_wild_card,2022.2.4,Win32,60.01680471,6346e117e4e283094ff51b84,64d2fd46c836a06233681665,64dc7eb0b4214cff76e6c0ea,,,,,,,decisionTrl,resources/DG.BMP,resources/DB.BMP,Door2,-0.325925933,-0.061111132,1,0,0,1.3614,optionLeft,40,2540,2,2,0,2,0,1,,,,,,,,,,,,,,,,,,,,,,,,,,,,,,,,,,,,,,,
,,,,,,,,2023-08-16_08h46.24.338,HF_wild_card,2022.2.4,Win32,60.01680471,6346e117e4e283094ff51b84,64d2fd46c836a06233681665,64dc7eb0b4214cff76e6c0ea,,,,,,,sngl,resources/Empty.png,resources/DY.BMP,WildCard_Ex,0.475926011,0.022222201,1,0,0,0.9937,optionRight,95,2635,2,3,0,3,0,1,,,,,,,,,,,,,,,,,,,,,,,,,,,,,,,,,,,,,,,
,,,,,,,,2023-08-16_08h46.24.338,HF_wild_card,2022.2.4,Win32,60.01680471,6346e117e4e283094ff51b84,64d2fd46c836a06233681665,64dc7eb0b4214cff76e6c0ea,,,,,,,decisionTrl,resources/DP.BMP,resources/DR.BMP,Door4,0.295370384,0,1,0,0,3.5168,optionRight,80,2715,2,4,0,4,0,1,,,,,,,,,,,,,,,,,,,,,,,,,,,,,,,,,,,,,,,
,,,,,,,,2023-08-16_08h46.24.338,HF_wild_card,2022.2.4,Win32,60.01680471,6346e117e4e283094ff51b84,64d2fd46c836a06233681665,64dc7eb0b4214cff76e6c0ea,,,,,,,decisionTrl,resources/DR.BMP,resources/DP.BMP,Door3,0.338888945,-0.036111125,1,0,0,1.618,optionRight,70,2785,2,5,0,5,0,1,,,,,,,,,,,,,,,,,,,,,,,,,,,,,,,,,,,,,,,
,,,,,,,,2023-08-16_08h46.24.338,HF_wild_card,2022.2.4,Win32,60.01680471,6346e117e4e283094ff51b84,64d2fd46c836a06233681665,64dc7eb0b4214cff76e6c0ea,,,,,,,ctch,resources/DG.BMP,resources/DP.BMP,Door3,0.450925898,-0.053703697,1,0,0,2.9933,optionRight,70,2855,2,6,0,6,0,1,,,,,,,,,,,,,,,,,,,,,,,,,,,,,,,,,,,,,,,
,,,,,,,,2023-08-16_08h46.24.338,HF_wild_card,2022.2.4,Win32,60.01680471,6346e117e4e283094ff51b84,64d2fd46c836a06233681665,64dc7eb0b4214cff76e6c0ea,,,,,,,sngl,resources/DB.BMP,resources/Empty.png,Door1,-0.327777757,-0.063888903,1,0,0,1.226,optionLeft,30,2885,2,7,0,7,0,1,,,,,,,,,,,,,,,,,,,,,,,,,,,,,,,,,,,,,,,
,,,,,,,,2023-08-16_08h46.24.338,HF_wild_card,2022.2.4,Win32,60.01680471,6346e117e4e283094ff51b84,64d2fd46c836a06233681665,64dc7eb0b4214cff76e6c0ea,,,,,,,decisionTrl,resources/DG.BMP,resources/DB.BMP,Door2,-0.284259231,-0.057407414,1,0,0,1.1594,optionLeft,20,2905,2,8,0,8,0,1,,,,,,,,,,,,,,,,,,,,,,,,,,,,,,,,,,,,,,,
,,,,,,,,2023-08-16_08h46.24.338,HF_wild_card,2022.2.4,Win32,60.01680471,6346e117e4e283094ff51b84,64d2fd46c836a06233681665,64dc7eb0b4214cff76e6c0ea,,,,,,,decisionTrl,resources/DY.BMP,resources/DP.BMP,Door3,0.393518519,-0.015740748,1,0,0,1.2765,optionRight,70,2975,2,9,0,9,0,1,,,,,,,,,,,,,,,,,,,,,,,,,,,,,,,,,,,,,,,
,,,,,,,,2023-08-16_08h46.24.338,HF_wild_card,2022.2.4,Win32,60.01680471,6346e117e4e283094ff51b84,64d2fd46c836a06233681665,64dc7eb0b4214cff76e6c0ea,,,,,,,decisionTrl,resources/DG.BMP,resources/DB.BMP,Door2,-0.326851845,-0.059259273,1,0,0,4.6748,optionLeft,20,2995,2,10,0,10,0,1,,,,,,,,,,,,,,,,,,,,,,,,,,,,,,,,,,,,,,,
,,,,,,,,2023-08-16_08h46.24.338,HF_wild_card,2022.2.4,Win32,60.01680471,6346e117e4e283094ff51b84,64d2fd46c836a06233681665,64dc7eb0b4214cff76e6c0ea,,,,,,,decisionTrl,resources/DG.BMP,resources/DB.BMP,Door1,0.387037065,-0.014814836,1,0,0,1.0844,optionRight,30,3025,2,11,0,11,0,1,,,,,,,,,,,,,,,,,,,,,,,,,,,,,,,,,,,,,,,
,,,,,,,,2023-08-16_08h46.24.338,HF_wild_card,2022.2.4,Win32,60.01680471,6346e117e4e283094ff51b84,64d2fd46c836a06233681665,64dc7eb0b4214cff76e6c0ea,,,,,,,decisionTrl,resources/DB.BMP,resources/DG.BMP,Door1,-0.359259252,-0.034259266,1,0,0,1.5539,optionLeft,30,3055,2,12,0,12,0,1,,,,,,,,,,,,,,,,,,,,,,,,,,,,,,,,,,,,,,,
,,,,,,,,2023-08-16_08h46.24.338,HF_wild_card,2022.2.4,Win32,60.01680471,6346e117e4e283094ff51b84,64d2fd46c836a06233681665,64dc7eb0b4214cff76e6c0ea,,,,,,,sngl,resources/Empty.png,resources/DG.BMP,Door2,0.467592593,-0.025925919,1,0,0,1.6593,optionRight,40,3095,2,13,0,13,0,1,,,,,,,,,,,,,,,,,,,,,,,,,,,,,,,,,,,,,,,
,,,,,,,,2023-08-16_08h46.24.338,HF_wild_card,2022.2.4,Win32,60.01680471,6346e117e4e283094ff51b84,64d2fd46c836a06233681665,64dc7eb0b4214cff76e6c0ea,,,,,,,sngl,resources/DP.BMP,resources/Empty.png,Door3,-0.401851831,-0.050925926,1,0,0,1.7769,optionLeft,70,3165,2,14,0,14,0,1,,,,,,,,,,,,,,,,,,,,,,,,,,,,,,,,,,,,,,,
,,,,,,,,2023-08-16_08h46.24.338,HF_wild_card,2022.2.4,Win32,60.01680471,6346e117e4e283094ff51b84,64d2fd46c836a06233681665,64dc7eb0b4214cff76e6c0ea,,,,,,,ctch,resources/DR.BMP,resources/DB.BMP,Door4,-0.280555513,-0.058333326,1,0,0,2.3937,optionLeft,80,3245,2,15,0,15,0,1,,,,,,,,,,,,,,,,,,,,,,,,,,,,,,,,,,,,,,,
,,,,,,,,2023-08-16_08h46.24.338,HF_wild_card,2022.2.4,Win32,60.01680471,6346e117e4e283094ff51b84,64d2fd46c836a06233681665,64dc7eb0b4214cff76e6c0ea,,,,,,,decisionTrl,resources/DP.BMP,resources/DR.BMP,Door4,0.388888889,0.010185171,1,0,0,2.6004,optionRight,60,3305,2,16,0,16,0,1,,,,,,,,,,,,,,,,,,,,,,,,,,,,,,,,,,,,,,,
,,,,,,,,2023-08-16_08h46.24.338,HF_wild_card,2022.2.4,Win32,60.01680471,6346e117e4e283094ff51b84,64d2fd46c836a06233681665,64dc7eb0b4214cff76e6c0ea,,,,,,,ctch,resources/DB.BMP,resources/DR.BMP,Door4,0.473148205,-0.035185178,1,0,0,1.7883,optionRight,60,3365,2,17,0,17,0,1,,,,,,,,,,,,,,,,,,,,,,,,,,,,,,,,,,,,,,,
,,,,,,,,2023-08-16_08h46.24.338,HF_wild_card,2022.2.4,Win32,60.01680471,6346e117e4e283094ff51b84,64d2fd46c836a06233681665,64dc7eb0b4214cff76e6c0ea,,,,,,,sngl,resources/Empty.png,resources/DY.BMP,WildCard_Ex,0.547222279,-0.002777771,1,0,0,2.0378,optionRight,5,3370,2,18,0,18,0,1,,,,,,,,,,,,,,,,,,,,,,,,,,,,,,,,,,,,,,,
,,,,,,,,2023-08-16_08h46.24.338,HF_wild_card,2022.2.4,Win32,60.01680471,6346e117e4e283094ff51b84,64d2fd46c836a06233681665,64dc7eb0b4214cff76e6c0ea,,,,,,,ctch,resources/DP.BMP,resources/DG.BMP,Door3,-0.448148127,-0.104629658,1,0,0,1.3141,optionLeft,70,3440,2,19,0,19,0,1,,,,,,,,,,,,,,,,,,,,,,,,,,,,,,,,,,,,,,,
,,,,,,,,2023-08-16_08h46.24.338,HF_wild_card,2022.2.4,Win32,60.01680471,6346e117e4e283094ff51b84,64d2fd46c836a06233681665,64dc7eb0b4214cff76e6c0ea,,,,,,,decisionTrl,resources/DB.BMP,resources/DG.BMP,Door1,-0.318518497,-0.060185185,1,0,0,2.173,optionLeft,30,3470,2,20,0,20,0,1,,,,,,,,,,,,,,,,,,,,,,,,,,,,,,,,,,,,,,,
,,,,,,,,2023-08-16_08h46.24.338,HF_wild_card,2022.2.4,Win32,60.01680471,6346e117e4e283094ff51b84,64d2fd46c836a06233681665,64dc7eb0b4214cff76e6c0ea,,,,,,,decisionTrl,resources/DB.BMP,resources/DY.BMP,WildCard_Ex,0.525925954,-0.017592607,1,0,0,1.4988,optionRight,95,3565,2,21,0,21,0,1,,,,,,,,,,,,,,,,,,,,,,,,,,,,,,,,,,,,,,,
,,,,,,,,2023-08-16_08h46.24.338,HF_wild_card,2022.2.4,Win32,60.01680471,6346e117e4e283094ff51b84,64d2fd46c836a06233681665,64dc7eb0b4214cff76e6c0ea,,,,,,,sngl,resources/Empty.png,resources/DB.BMP,Door1,0.279629672,-0.041666667,1,0,0,1.1431,optionRight,30,3595,2,22,0,22,0,1,,,,,,,,,,,,,,,,,,,,,,,,,,,,,,,,,,,,,,,
,,,,,,,,2023-08-16_08h46.24.338,HF_wild_card,2022.2.4,Win32,60.01680471,6346e117e4e283094ff51b84,64d2fd46c836a06233681665,64dc7eb0b4214cff76e6c0ea,,,,,,,sngl,resources/DY.BMP,resources/Empty.png,WildCard_Ex,-0.321296303,-0.041666667,1,0,0,1.0088,optionLeft,5,3600,2,23,0,23,0,1,,,,,,,,,,,,,,,,,,,,,,,,,,,,,,,,,,,,,,,
,,,,,,,,2023-08-16_08h46.24.338,HF_wild_card,2022.2.4,Win32,60.01680471,6346e117e4e283094ff51b84,64d2fd46c836a06233681665,64dc7eb0b4214cff76e6c0ea,,,,,,,decisionTrl,resources/DP.BMP,resources/DR.BMP,Door4,0.011111153,-0.003703718,1,0,0,0.1768,optionRight,60,3660,2,24,0,24,0,1,,,,,,,,,,,,,,,,,,,,,,,,,,,,,,,,,,,,,,,
,,,,,,,,2023-08-16_08h46.24.338,HF_wild_card,2022.2.4,Win32,60.01680471,6346e117e4e283094ff51b84,64d2fd46c836a06233681665,64dc7eb0b4214cff76e6c0ea,,,,,,,decisionTrl,resources/DG.BMP,resources/DY.BMP,Door2,-0.294444402,-0.055555556,1,0,0,2.2755,optionLeft,40,3700,2,25,0,25,0,1,,,,,,,,,,,,,,,,,,,,,,,,,,,,,,,,,,,,,,,
,,,,,,,,2023-08-16_08h46.24.338,HF_wild_card,2022.2.4,Win32,60.01680471,6346e117e4e283094ff51b84,64d2fd46c836a06233681665,64dc7eb0b4214cff76e6c0ea,,,,,,,ctch,resources/DB.BMP,resources/DR.BMP,Door4,0.32222225,-0.002777771,1,0,0,1.5477,optionRight,80,3780,2,26,0,26,0,1,,,,,,,,,,,,,,,,,,,,,,,,,,,,,,,,,,,,,,,
,,,,,,,,2023-08-16_08h46.24.338,HF_wild_card,2022.2.4,Win32,60.01680471,6346e117e4e283094ff51b84,64d2fd46c836a06233681665,64dc7eb0b4214cff76e6c0ea,,,,,,,sngl,resources/Empty.png,resources/DR.BMP,Door4,0.345370399,0.02407406,1,0,0,1.1019,optionRight,80,3860,2,27,0,27,0,1,,,,,,,,,,,,,,,,,,,,,,,,,,,,,,,,,,,,,,,
,,,,,,,,2023-08-16_08h46.24.338,HF_wild_card,2022.2.4,Win32,60.01680471,6346e117e4e283094ff51b84,64d2fd46c836a06233681665,64dc7eb0b4214cff76e6c0ea,,,,,,,decisionTrl,resources/DY.BMP,resources/DR.BMP,WildCard_Ex,-0.337962963,-0.043518526,1,0,0,1.7447,optionLeft,5,3865,2,28,0,28,0,1,,,,,,,,,,,,,,,,,,,,,,,,,,,,,,,,,,,,,,,
,,,,,,,,2023-08-16_08h46.24.338,HF_wild_card,2022.2.4,Win32,60.01680471,6346e117e4e283094ff51b84,64d2fd46c836a06233681665,64dc7eb0b4214cff76e6c0ea,,,,,,,decisionTrl,resources/DR.BMP,resources/DP.BMP,Door4,-0.287962949,-0.137962977,1,0,0,1.672,optionLeft,60,3925,2,29,0,29,0,1,,,,,,,,,,,,,,,,,,,,,,,,,,,,,,,,,,,,,,,
,,,,,,,,2023-08-16_08h46.24.338,HF_wild_card,2022.2.4,Win32,60.01680471,6346e117e4e283094ff51b84,64d2fd46c836a06233681665,64dc7eb0b4214cff76e6c0ea,,,,,,,ctch,resources/DG.BMP,resources/DP.BMP,Door3,0.413888861,-0.08425928,1,0,0,2.5844,optionRight,70,3995,2,30,0,30,0,1,,,,,,,,,,,,,,,,,,,,,,,,,,,,,,,,,,,,,,,
,,,,,,,,2023-08-16_08h46.24.338,HF_wild_card,2022.2.4,Win32,60.01680471,6346e117e4e283094ff51b84,64d2fd46c836a06233681665,64dc7eb0b4214cff76e6c0ea,,,,,,,ctch,resources/DR.BMP,resources/DB.BMP,Door4,-0.360185164,-0.092592593,1,0,0,1.6215,optionLeft,80,4075,2,31,0,31,0,1,,,,,,,,,,,,,,,,,,,,,,,,,,,,,,,,,,,,,,,
,,,,,,,,2023-08-16_08h46.24.338,HF_wild_card,2022.2.4,Win32,60.01680471,6346e117e4e283094ff51b84,64d2fd46c836a06233681665,64dc7eb0b4214cff76e6c0ea,,,,,,,decisionTrl,resources/DR.BMP,resources/DY.BMP,WildCard_Ex,0.393518519,0.037037037,1,0,0,2.3547,optionRight,5,4080,2,32,0,32,0,1,,,,,,,,,,,,,,,,,,,,,,,,,,,,,,,,,,,,,,,
,,,,,,,,2023-08-16_08h46.24.338,HF_wild_card,2022.2.4,Win32,60.01680471,6346e117e4e283094ff51b84,64d2fd46c836a06233681665,64dc7eb0b4214cff76e6c0ea,,,,,,,decisionTrl,resources/DR.BMP,resources/DP.BMP,Door4,-0.262962977,-0.024074095,1,0,0,1.9248,optionLeft,80,4160,2,33,0,33,0,1,,,,,,,,,,,,,,,,,,,,,,,,,,,,,,,,,,,,,,,
,,,,,,,,2023-08-16_08h46.24.338,HF_wild_card,2022.2.4,Win32,60.01680471,6346e117e4e283094ff51b84,64d2fd46c836a06233681665,64dc7eb0b4214cff76e6c0ea,,,,,,,sngl,resources/DY.BMP,resources/Empty.png,WildCard_Ex,-0.266666624,-0.030555548,1,0,0,2.1396,optionLeft,95,4255,2,34,0,34,0,1,,,,,,,,,,,,,,,,,,,,,,,,,,,,,,,,,,,,,,,
,,,,,,,,2023-08-16_08h46.24.338,HF_wild_card,2022.2.4,Win32,60.01680471,6346e117e4e283094ff51b84,64d2fd46c836a06233681665,64dc7eb0b4214cff76e6c0ea,,,,,,,decisionTrl,resources/DP.BMP,resources/DY.BMP,WildCard_Ex,0.393518519,0.03148146,1,0,0,1.6604,optionRight,95,4350,2,35,0,35,0,1,,,,,,,,,,,,,,,,,,,,,,,,,,,,,,,,,,,,,,,
,,,,,,,,2023-08-16_08h46.24.338,HF_wild_card,2022.2.4,Win32,60.01680471,6346e117e4e283094ff51b84,64d2fd46c836a06233681665,64dc7eb0b4214cff76e6c0ea,,,,,,,ctch,resources/DP.BMP,resources/DG.BMP,Door3,-0.316666674,-0.071296303,1,0,0,3.2605,optionLeft,70,4420,2,36,0,36,0,1,,,,,,,,,,,,,,,,,,,,,,,,,,,,,,,,,,,,,,,
,,,,,,,,2023-08-16_08h46.24.338,HF_wild_card,2022.2.4,Win32,60.01680471,6346e117e4e283094ff51b84,64d2fd46c836a06233681665,64dc7eb0b4214cff76e6c0ea,,,,,,,decisionTrl,resources/DB.BMP,resources/DG.BMP,Door2,0.323148233,-0.062962956,1,0,0,2.0454,optionRight,20,4440,2,37,0,37,0,1,,,,,,,,,,,,,,,,,,,,,,,,,,,,,,,,,,,,,,,
,,,,,,,,2023-08-16_08h46.24.338,HF_wild_card,2022.2.4,Win32,60.01680471,6346e117e4e283094ff51b84,64d2fd46c836a06233681665,64dc7eb0b4214cff76e6c0ea,,,,,,,decisionTrl,resources/DY.BMP,resources/DG.BMP,Door2,0.448148233,0.013888889,1,0,0,2.791,optionRight,20,4460,2,38,0,38,0,1,,,,,,,,,,,,,,,,,,,,,,,,,,,,,,,,,,,,,,,
,,,,,,,,2023-08-16_08h46.24.338,HF_wild_card,2022.2.4,Win32,60.01680471,6346e117e4e283094ff51b84,64d2fd46c836a06233681665,64dc7eb0b4214cff76e6c0ea,,,,,,,decisionTrl,resources/DR.BMP,resources/DP.BMP,Door4,-0.431481467,-0.078703704,1,0,0,1.3281,optionLeft,60,4520,2,39,0,39,0,1,,,,,,,,,,,,,,,,,,,,,,,,,,,,,,,,,,,,,,,
,,,,,,,,2023-08-16_08h46.24.338,HF_wild_card,2022.2.4,Win32,60.01680471,6346e117e4e283094ff51b84,64d2fd46c836a06233681665,64dc7eb0b4214cff76e6c0ea,,,,,,,sngl,resources/DG.BMP,resources/Empty.png,Door2,-0.347222222,-0.049074067,1,0,0,1.4612,optionLeft,20,4540,2,40,0,40,0,1,,,,,,,,,,,,,,,,,,,,,,,,,,,,,,,,,,,,,,,
,,,,,,,,2023-08-16_08h46.24.338,HF_wild_card,2022.2.4,Win32,60.01680471,6346e117e4e283094ff51b84,64d2fd46c836a06233681665,64dc7eb0b4214cff76e6c0ea,,,,,,,sngl,resources/Empty.png,resources/DP.BMP,Door3,0.353703675,-0.032407407,1,0,0,0.9938,optionRight,70,4610,2,41,0,41,0,1,,,,,,,,,,,,,,,,,,,,,,,,,,,,,,,,,,,,,,,
,,,,,,,,2023-08-16_08h46.24.338,HF_wild_card,2022.2.4,Win32,60.01680471,6346e117e4e283094ff51b84,64d2fd46c836a06233681665,64dc7eb0b4214cff76e6c0ea,,,,,,,decisionTrl,resources/DY.BMP,resources/DB.BMP,WildCard_Ex,-0.328703704,-0.090740734,1,0,0,1.6761,optionLeft,95,4705,2,42,0,42,0,1,,,,,,,,,,,,,,,,,,,,,,,,,,,,,,,,,,,,,,,
,,,,,,,,2023-08-16_08h46.24.338,HF_wild_card,2022.2.4,Win32,60.01680471,6346e117e4e283094ff51b84,64d2fd46c836a06233681665,64dc7eb0b4214cff76e6c0ea,,,,,,,sngl,resources/DR.BMP,resources/Empty.png,Door4,-0.393518519,-0.066666674,1,0,0,2.0768,optionLeft,60,4765,2,43,0,43,0,1,,,,,,,,,,,,,,,,,,,,,,,,,,,,,,,,,,,,,,,
,,,,,,,,2023-08-16_08h46.24.338,HF_wild_card,2022.2.4,Win32,60.01680471,6346e117e4e283094ff51b84,64d2fd46c836a06233681665,64dc7eb0b4214cff76e6c0ea,,,,,,,,,,,,,,,,,,,,,,,,,,1,0,1,0,1,,,,,,,,,,,,,,,,,,,,,,,,,,,,,,,,,,
,,,,,,,,2023-08-16_08h46.24.338,HF_wild_card,2022.2.4,Win32,60.01680471,6346e117e4e283094ff51b84,64d2fd46c836a06233681665,64dc7eb0b4214cff76e6c0ea,,,,,,,ctch,resources/DR.BMP,resources/DB.BMP,Door1,0.374074159,-0.100000028,1,0,0,1.621,optionRight,30,4795,3,0,0,0,0,1,,,,,,,,,,,,,,,,,,,,,,,,,,,,,,,,,,,,,,,
,,,,,,,,2023-08-16_08h46.24.338,HF_wild_card,2022.2.4,Win32,60.01680471,6346e117e4e283094ff51b84,64d2fd46c836a06233681665,64dc7eb0b4214cff76e6c0ea,,,,,,,decisionTrl,resources/DR.BMP,resources/DP.BMP,Door4,-0.323148127,-0.031481496,1,0,0,0.8597,optionLeft,80,4875,3,1,0,1,0,1,,,,,,,,,,,,,,,,,,,,,,,,,,,,,,,,,,,,,,,
,,,,,,,,2023-08-16_08h46.24.338,HF_wild_card,2022.2.4,Win32,60.01680471,6346e117e4e283094ff51b84,64d2fd46c836a06233681665,64dc7eb0b4214cff76e6c0ea,,,,,,,ctch,resources/DB.BMP,resources/DR.BMP,Door4,0.3648149,-0.01666666,1,0,0,0.91,optionRight,60,4935,3,2,0,2,0,1,,,,,,,,,,,,,,,,,,,,,,,,,,,,,,,,,,,,,,,
,,,,,,,,2023-08-16_08h46.24.338,HF_wild_card,2022.2.4,Win32,60.01680471,6346e117e4e283094ff51b84,64d2fd46c836a06233681665,64dc7eb0b4214cff76e6c0ea,,,,,,,decisionTrl,resources/DR.BMP,resources/DP.BMP,Door4,-0.318518497,-0.038888896,1,0,0,0.927,optionLeft,80,5015,3,3,0,3,0,1,,,,,,,,,,,,,,,,,,,,,,,,,,,,,,,,,,,,,,,
,,,,,,,,2023-08-16_08h46.24.338,HF_wild_card,2022.2.4,Win32,60.01680471,6346e117e4e283094ff51b84,64d2fd46c836a06233681665,64dc7eb0b4214cff76e6c0ea,,,,,,,decisionTrl,resources/DG.BMP,resources/DB.BMP,Door1,0.29814812,-0.008333347,1,0,0,1.6606,optionRight,30,5045,3,4,0,4,0,1,,,,,,,,,,,,,,,,,,,,,,,,,,,,,,,,,,,,,,,
,,,,,,,,2023-08-16_08h46.24.338,HF_wild_card,2022.2.4,Win32,60.01680471,6346e117e4e283094ff51b84,64d2fd46c836a06233681665,64dc7eb0b4214cff76e6c0ea,,,,,,,decisionTrl,resources/DB.BMP,resources/DG.BMP,Door1,-0.262962977,-0.050000014,1,0,0,1.0603,optionLeft,30,5075,3,5,0,5,0,1,,,,,,,,,,,,,,,,,,,,,,,,,,,,,,,,,,,,,,,
,,,,,,,,2023-08-16_08h46.24.338,HF_wild_card,2022.2.4,Win32,60.01680471,6346e117e4e283094ff51b84,64d2fd46c836a06233681665,64dc7eb0b4214cff76e6c0ea,,,,,,,sngl,resources/Empty.png,resources/DB.BMP,Door1,0.3648149,-0.01666666,1,0,0,0.9948,optionRight,30,5105,3,6,0,6,0,1,,,,,,,,,,,,,,,,,,,,,,,,,,,,,,,,,,,,,,,
,,,,,,,,2023-08-16_08h46.24.338,HF_wild_card,2022.2.4,Win32,60.01680471,6346e117e4e283094ff51b84,64d2fd46c836a06233681665,64dc7eb0b4214cff76e6c0ea,,,,,,,ctch,resources/DB.BMP,resources/DR.BMP,Door4,0.267592607,-0.056481503,1,0,0,0.9452,optionRight,80,5185,3,7,0,7,0,1,,,,,,,,,,,,,,,,,,,,,,,,,,,,,,,,,,,,,,,
,,,,,,,,2023-08-16_08h46.24.338,HF_wild_card,2022.2.4,Win32,60.01680471,6346e117e4e283094ff51b84,64d2fd46c836a06233681665,64dc7eb0b4214cff76e6c0ea,,,,,,,decisionTrl,resources/DP.BMP,resources/DR.BMP,Door4,0.373148176,-0.081481474,1,0,0,1.4282,optionRight,80,5265,3,8,0,8,0,1,,,,,,,,,,,,,,,,,,,,,,,,,,,,,,,,,,,,,,,
,,,,,,,,2023-08-16_08h46.24.338,HF_wild_card,2022.2.4,Win32,60.01680471,6346e117e4e283094ff51b84,64d2fd46c836a06233681665,64dc7eb0b4214cff76e6c0ea,,,,,,,decisionTrl,resources/DR.BMP,resources/DP.BMP,Door3,0.367592564,-0.028703725,1,0,0,2.1936,optionRight,70,5335,3,9,0,9,0,1,,,,,,,,,,,,,,,,,,,,,,,,,,,,,,,,,,,,,,,
,,,,,,,,2023-08-16_08h46.24.338,HF_wild_card,2022.2.4,Win32,60.01680471,6346e117e4e283094ff51b84,64d2fd46c836a06233681665,64dc7eb0b4214cff76e6c0ea,,,,,,,decisionTrl,resources/DR.BMP,resources/DY.BMP,WildCard_Ex,0.325925898,-0.075000021,1,0,0,1.8271,optionRight,5,5340,3,10,0,10,0,1,,,,,,,,,,,,,,,,,,,,,,,,,,,,,,,,,,,,,,,
,,,,,,,,2023-08-16_08h46.24.338,HF_wild_card,2022.2.4,Win32,60.01680471,6346e117e4e283094ff51b84,64d2fd46c836a06233681665,64dc7eb0b4214cff76e6c0ea,,,,,,,decisionTrl,resources/DG.BMP,resources/DB.BMP,Door1,0.384259259,-0.011111118,1,0,0,2.4738,optionRight,30,5370,3,11,0,11,0,1,,,,,,,,,,,,,,,,,,,,,,,,,,,,,,,,,,,,,,,
,,,,,,,,2023-08-16_08h46.24.338,HF_wild_card,2022.2.4,Win32,60.01680471,6346e117e4e283094ff51b84,64d2fd46c836a06233681665,64dc7eb0b4214cff76e6c0ea,,,,,,,decisionTrl,resources/DY.BMP,resources/DP.BMP,WildCard_Ex,-0.297222208,-0.055555556,1,0,0,2.177,optionLeft,5,5375,3,12,0,12,0,1,,,,,,,,,,,,,,,,,,,,,,,,,,,,,,,,,,,,,,,
,,,,,,,,2023-08-16_08h46.24.338,HF_wild_card,2022.2.4,Win32,60.01680471,6346e117e4e283094ff51b84,64d2fd46c836a06233681665,64dc7eb0b4214cff76e6c0ea,,,,,,,decisionTrl,resources/DP.BMP,resources/DY.BMP,WildCard_Ex,0.319444444,-0.00462963,1,0,0,2.0094,optionRight,95,5470,3,13,0,13,0,1,,,,,,,,,,,,,,,,,,,,,,,,,,,,,,,,,,,,,,,
,,,,,,,,2023-08-16_08h46.24.338,HF_wild_card,2022.2.4,Win32,60.01680471,6346e117e4e283094ff51b84,64d2fd46c836a06233681665,64dc7eb0b4214cff76e6c0ea,,,,,,,decisionTrl,resources/DB.BMP,resources/DG.BMP,Door2,0.387963048,0.003703683,1,0,0,2.1763,optionRight,20,5490,3,14,0,14,0,1,,,,,,,,,,,,,,,,,,,,,,,,,,,,,,,,,,,,,,,
,,,,,,,,2023-08-16_08h46.24.338,HF_wild_card,2022.2.4,Win32,60.01680471,6346e117e4e283094ff51b84,64d2fd46c836a06233681665,64dc7eb0b4214cff76e6c0ea,,,,,,,sngl,resources/Empty.png,resources/DG.BMP,Door2,0.375925982,0.01203703,1,0,0,0.9776,optionRight,20,5510,3,15,0,15,0,1,,,,,,,,,,,,,,,,,,,,,,,,,,,,,,,,,,,,,,,
,,,,,,,,2023-08-16_08h46.24.338,HF_wild_card,2022.2.4,Win32,60.01680471,6346e117e4e283094ff51b84,64d2fd46c836a06233681665,64dc7eb0b4214cff76e6c0ea,,,,,,,ctch,resources/DP.BMP,resources/DG.BMP,Door2,0.352777834,-0.027777778,1,0,0,0.9113,optionRight,40,5550,3,16,0,16,0,1,,,,,,,,,,,,,,,,,,,,,,,,,,,,,,,,,,,,,,,
,,,,,,,,2023-08-16_08h46.24.338,HF_wild_card,2022.2.4,Win32,60.01680471,6346e117e4e283094ff51b84,64d2fd46c836a06233681665,64dc7eb0b4214cff76e6c0ea,,,,,,,decisionTrl,resources/DG.BMP,resources/DY.BMP,Door2,-0.003703718,-0.002777771,1,0,0,0.1086,optionLeft,20,5570,3,17,0,17,0,1,,,,,,,,,,,,,,,,,,,,,,,,,,,,,,,,,,,,,,,
,,,,,,,,2023-08-16_08h46.24.338,HF_wild_card,2022.2.4,Win32,60.01680471,6346e117e4e283094ff51b84,64d2fd46c836a06233681665,64dc7eb0b4214cff76e6c0ea,,,,,,,sngl,resources/Empty.png,resources/DP.BMP,Door3,0.44722225,-0.015740748,1,0,0,1.0433,optionRight,70,5640,3,18,0,18,0,1,,,,,,,,,,,,,,,,,,,,,,,,,,,,,,,,,,,,,,,
,,,,,,,,2023-08-16_08h46.24.338,HF_wild_card,2022.2.4,Win32,60.01680471,6346e117e4e283094ff51b84,64d2fd46c836a06233681665,64dc7eb0b4214cff76e6c0ea,,,,,,,ctch,resources/DG.BMP,resources/DP.BMP,Door2,-0.303703697,-0.034259266,1,0,0,1.6751,optionLeft,40,5680,3,19,0,19,0,1,,,,,,,,,,,,,,,,,,,,,,,,,,,,,,,,,,,,,,,
,,,,,,,,2023-08-16_08h46.24.338,HF_wild_card,2022.2.4,Win32,60.01680471,6346e117e4e283094ff51b84,64d2fd46c836a06233681665,64dc7eb0b4214cff76e6c0ea,,,,,,,decisionTrl,resources/DB.BMP,resources/DG.BMP,Door2,0.432407379,0.00462963,1,0,0,1.1935,optionRight,20,5700,3,20,0,20,0,1,,,,,,,,,,,,,,,,,,,,,,,,,,,,,,,,,,,,,,,
,,,,,,,,2023-08-16_08h46.24.338,HF_wild_card,2022.2.4,Win32,60.01680471,6346e117e4e283094ff51b84,64d2fd46c836a06233681665,64dc7eb0b4214cff76e6c0ea,,,,,,,decisionTrl,resources/DB.BMP,resources/DG.BMP,Door2,0.392592677,0.02407406,1,0,0,1.5677,optionRight,20,5720,3,21,0,21,0,1,,,,,,,,,,,,,,,,,,,,,,,,,,,,,,,,,,,,,,,
,,,,,,,,2023-08-16_08h46.24.338,HF_wild_card,2022.2.4,Win32,60.01680471,6346e117e4e283094ff51b84,64d2fd46c836a06233681665,64dc7eb0b4214cff76e6c0ea,,,,,,,decisionTrl,resources/DP.BMP,resources/DR.BMP,Door4,0.419444473,-0.002777771,1,0,0,2.3863,optionRight,80,5800,3,22,0,22,0,1,,,,,,,,,,,,,,,,,,,,,,,,,,,,,,,,,,,,,,,
,,,,,,,,2023-08-16_08h46.24.338,HF_wild_card,2022.2.4,Win32,60.01680471,6346e117e4e283094ff51b84,64d2fd46c836a06233681665,64dc7eb0b4214cff76e6c0ea,,,,,,,decisionTrl,resources/DG.BMP,resources/DB.BMP,Door2,-0.39444443,-0.110185199,1,0,0,1.725,optionLeft,20,5820,3,23,0,23,0,1,,,,,,,,,,,,,,,,,,,,,,,,,,,,,,,,,,,,,,,
,,,,,,,,2023-08-16_08h46.24.338,HF_wild_card,2022.2.4,Win32,60.01680471,6346e117e4e283094ff51b84,64d2fd46c836a06233681665,64dc7eb0b4214cff76e6c0ea,,,,,,,sngl,resources/DY.BMP,resources/Empty.png,WildCard_Ex,-0.346296275,-0.049074067,1,0,0,1.0433,optionLeft,5,5825,3,24,0,24,0,1,,,,,,,,,,,,,,,,,,,,,,,,,,,,,,,,,,,,,,,
,,,,,,,,2023-08-16_08h46.24.338,HF_wild_card,2022.2.4,Win32,60.01680471,6346e117e4e283094ff51b84,64d2fd46c836a06233681665,64dc7eb0b4214cff76e6c0ea,,,,,,,ctch,resources/DR.BMP,resources/DB.BMP,Door4,-0.333333333,0,1,0,0,1.9087,optionLeft,60,5885,3,25,0,25,0,1,,,,,,,,,,,,,,,,,,,,,,,,,,,,,,,,,,,,,,,
,,,,,,,,2023-08-16_08h46.24.338,HF_wild_card,2022.2.4,Win32,60.01680471,6346e117e4e283094ff51b84,64d2fd46c836a06233681665,64dc7eb0b4214cff76e6c0ea,,,,,,,decisionTrl,resources/DY.BMP,resources/DG.BMP,WildCard_Ex,-0.256481453,-0.12037037,1,0,0,1.8529,optionLeft,95,5980,3,26,0,26,0,1,,,,,,,,,,,,,,,,,,,,,,,,,,,,,,,,,,,,,,,
,,,,,,,,2023-08-16_08h46.24.338,HF_wild_card,2022.2.4,Win32,60.01680471,6346e117e4e283094ff51b84,64d2fd46c836a06233681665,64dc7eb0b4214cff76e6c0ea,,,,,,,decisionTrl,resources/DY.BMP,resources/DR.BMP,Door4,0.362037094,-0.028703725,1,0,0,2.1513,optionRight,60,6040,3,27,0,27,0,1,,,,,,,,,,,,,,,,,,,,,,,,,,,,,,,,,,,,,,,
,,,,,,,,2023-08-16_08h46.24.338,HF_wild_card,2022.2.4,Win32,60.01680471,6346e117e4e283094ff51b84,64d2fd46c836a06233681665,64dc7eb0b4214cff76e6c0ea,,,,,,,sngl,resources/Empty.png,resources/DY.BMP,WildCard_Ex,0.297222279,-0.034259266,1,0,0,1.4606,optionRight,5,6045,3,28,0,28,0,1,,,,,,,,,,,,,,,,,,,,,,,,,,,,,,,,,,,,,,,
,,,,,,,,2023-08-16_08h46.24.338,HF_wild_card,2022.2.4,Win32,60.01680471,6346e117e4e283094ff51b84,64d2fd46c836a06233681665,64dc7eb0b4214cff76e6c0ea,,,,,,,sngl,resources/DG.BMP,resources/Empty.png,Door2,-0.353703711,0.000925912,1,0,0,0.9931,optionLeft,40,6085,3,29,0,29,0,1,,,,,,,,,,,,,,,,,,,,,,,,,,,,,,,,,,,,,,,
,,,,,,,,2023-08-16_08h46.24.338,HF_wild_card,2022.2.4,Win32,60.01680471,6346e117e4e283094ff51b84,64d2fd46c836a06233681665,64dc7eb0b4214cff76e6c0ea,,,,,,,sngl,resources/DY.BMP,resources/Empty.png,WildCard_Ex,-0.386111118,-0.066666674,1,0,0,1.1601,optionLeft,95,6180,3,30,0,30,0,1,,,,,,,,,,,,,,,,,,,,,,,,,,,,,,,,,,,,,,,
,,,,,,,,2023-08-16_08h46.24.338,HF_wild_card,2022.2.4,Win32,60.01680471,6346e117e4e283094ff51b84,64d2fd46c836a06233681665,64dc7eb0b4214cff76e6c0ea,,,,,,,ctch,resources/DP.BMP,resources/DG.BMP,Door3,-0.351851852,-0.035185178,1,0,0,3.1595,optionLeft,70,6250,3,31,0,31,0,1,,,,,,,,,,,,,,,,,,,,,,,,,,,,,,,,,,,,,,,
,,,,,,,,2023-08-16_08h46.24.338,HF_wild_card,2022.2.4,Win32,60.01680471,6346e117e4e283094ff51b84,64d2fd46c836a06233681665,64dc7eb0b4214cff76e6c0ea,,,,,,,decisionTrl,resources/DB.BMP,resources/DY.BMP,Door1,-0.268518519,-0.019444466,1,0,0,2.0229,optionLeft,30,6280,3,32,0,32,0,1,,,,,,,,,,,,,,,,,,,,,,,,,,,,,,,,,,,,,,,
,,,,,,,,2023-08-16_08h46.24.338,HF_wild_card,2022.2.4,Win32,60.01680471,6346e117e4e283094ff51b84,64d2fd46c836a06233681665,64dc7eb0b4214cff76e6c0ea,,,,,,,decisionTrl,resources/DP.BMP,resources/DR.BMP,Door4,0.387037065,-0.047222243,1,0,0,1.8729,optionRight,60,6340,3,33,0,33,0,1,,,,,,,,,,,,,,,,,,,,,,,,,,,,,,,,,,,,,,,
,,,,,,,,2023-08-16_08h46.24.338,HF_wild_card,2022.2.4,Win32,60.01680471,6346e117e4e283094ff51b84,64d2fd46c836a06233681665,64dc7eb0b4214cff76e6c0ea,,,,,,,decisionTrl,resources/DP.BMP,resources/DR.BMP,Door4,0.389814871,-0.064814815,1,0,0,2.6439,optionRight,80,6420,3,34,0,34,0,1,,,,,,,,,,,,,,,,,,,,,,,,,,,,,,,,,,,,,,,
,,,,,,,,2023-08-16_08h46.24.338,HF_wild_card,2022.2.4,Win32,60.01680471,6346e117e4e283094ff51b84,64d2fd46c836a06233681665,64dc7eb0b4214cff76e6c0ea,,,,,,,sngl,resources/DP.BMP,resources/Empty.png,Door3,-0.294444402,-0.028703725,1,0,0,1.0274,optionLeft,70,6490,3,35,0,35,0,1,,,,,,,,,,,,,,,,,,,,,,,,,,,,,,,,,,,,,,,
,,,,,,,,2023-08-16_08h46.24.338,HF_wild_card,2022.2.4,Win32,60.01680471,6346e117e4e283094ff51b84,64d2fd46c836a06233681665,64dc7eb0b4214cff76e6c0ea,,,,,,,sngl,resources/Empty.png,resources/DY.BMP,WildCard_Ex,0.399074131,-0.085185192,1,0,0,1.01,optionRight,95,6585,3,36,0,36,0,1,,,,,,,,,,,,,,,,,,,,,,,,,,,,,,,,,,,,,,,
,,,,,,,,2023-08-16_08h46.24.338,HF_wild_card,2022.2.4,Win32,60.01680471,6346e117e4e283094ff51b84,64d2fd46c836a06233681665,64dc7eb0b4214cff76e6c0ea,,,,,,,sngl,resources/DB.BMP,resources/Empty.png,Door1,-0.330555563,-0.030555548,1,0,0,1.011,optionLeft,30,6615,3,37,0,37,0,1,,,,,,,,,,,,,,,,,,,,,,,,,,,,,,,,,,,,,,,
,,,,,,,,2023-08-16_08h46.24.338,HF_wild_card,2022.2.4,Win32,60.01680471,6346e117e4e283094ff51b84,64d2fd46c836a06233681665,64dc7eb0b4214cff76e6c0ea,,,,,,,sngl,resources/DR.BMP,resources/Empty.png,Door4,-0.310185185,-0.024074095,1,0,0,1.178,optionLeft,80,6695,3,38,0,38,0,1,,,,,,,,,,,,,,,,,,,,,,,,,,,,,,,,,,,,,,,
,,,,,,,,2023-08-16_08h46.24.338,HF_wild_card,2022.2.4,Win32,60.01680471,6346e117e4e283094ff51b84,64d2fd46c836a06233681665,64dc7eb0b4214cff76e6c0ea,,,,,,,decisionTrl,resources/DG.BMP,resources/DB.BMP,Door1,0.422222279,0.026851831,1,0,0,5.2047,optionRight,30,6725,3,39,0,39,0,1,,,,,,,,,,,,,,,,,,,,,,,,,,,,,,,,,,,,,,,
,,,,,,,,2023-08-16_08h46.24.338,HF_wild_card,2022.2.4,Win32,60.01680471,6346e117e4e283094ff51b84,64d2fd46c836a06233681665,64dc7eb0b4214cff76e6c0ea,,,,,,,ctch,resources/DG.BMP,resources/DP.BMP,Door3,0.286111125,-0.037962984,1,0,0,1.9769,optionRight,70,6795,3,40,0,40,0,1,,,,,,,,,,,,,,,,,,,,,,,,,,,,,,,,,,,,,,,
,,,,,,,,2023-08-16_08h46.24.338,HF_wild_card,2022.2.4,Win32,60.01680471,6346e117e4e283094ff51b84,64d2fd46c836a06233681665,64dc7eb0b4214cff76e6c0ea,,,,,,,sngl,resources/Empty.png,resources/DR.BMP,Door4,0.26944443,-0.024074095,1,0,0,1.1104,optionRight,60,6855,3,41,0,41,0,1,,,,,,,,,,,,,,,,,,,,,,,,,,,,,,,,,,,,,,,
,,,,,,,,2023-08-16_08h46.24.338,HF_wild_card,2022.2.4,Win32,60.01680471,6346e117e4e283094ff51b84,64d2fd46c836a06233681665,64dc7eb0b4214cff76e6c0ea,,,,,,,decisionTrl,resources/DY.BMP,resources/DB.BMP,WildCard_Ex,0.00462963,0.011111118,1,0,0,0.1275,optionLeft,5,6860,3,42,0,42,0,1,,,,,,,,,,,,,,,,,,,,,,,,,,,,,,,,,,,,,,,
,,,,,,,,2023-08-16_08h46.24.338,HF_wild_card,2022.2.4,Win32,60.01680471,6346e117e4e283094ff51b84,64d2fd46c836a06233681665,64dc7eb0b4214cff76e6c0ea,,,,,,,decisionTrl,resources/DR.BMP,resources/DP.BMP,Door4,-0.304629608,0.000925912,1,0,0,1.6438,optionLeft,80,6940,3,43,0,43,0,1,,,,,,,,,,,,,,,,,,,,,,,,,,,,,,,,,,,,,,,
,,,,,,,,2023-08-16_08h46.24.338,HF_wild_card,2022.2.4,Win32,60.01680471,6346e117e4e283094ff51b84,64d2fd46c836a06233681665,64dc7eb0b4214cff76e6c0ea,,,,,,,,,,,,,,,,,,,,,,,,,,2,0,2,0,1,,,,,,,,,,,,,,,,,,,,,,,,,,,,,,,,,,
,,,,,,,,2023-08-16_08h46.24.338,HF_wild_card,2022.2.4,Win32,60.01680471,6346e117e4e283094ff51b84,64d2fd46c836a06233681665,64dc7eb0b4214cff76e6c0ea,,,,,,,sngl,resources/Empty.png,resources/DBN.BMP,WildCard_NonEx,0.279629672,-0.123148176,1,0,0,1.6703,optionRight,45,6985,4,0,0,0,0,1,,,,,,,,,,,,,,,,,,,,,,,,,,,,,,,,,,,,,,,
,,,,,,,,2023-08-16_08h46.24.338,HF_wild_card,2022.2.4,Win32,60.01680471,6346e117e4e283094ff51b84,64d2fd46c836a06233681665,64dc7eb0b4214cff76e6c0ea,,,,,,,decisionTrl,resources/DR.BMP,resources/DP.BMP,Door4,-0.285185143,-0.066666674,1,0,0,3.2732,optionLeft,60,7045,4,1,0,1,0,1,,,,,,,,,,,,,,,,,,,,,,,,,,,,,,,,,,,,,,,
,,,,,,,,2023-08-16_08h46.24.338,HF_wild_card,2022.2.4,Win32,60.01680471,6346e117e4e283094ff51b84,64d2fd46c836a06233681665,64dc7eb0b4214cff76e6c0ea,,,,,,,decisionTrl,resources/DBN.BMP,resources/DP.BMP,WildCard_NonEx,-0.420370349,-0.075000021,1,0,0,1.8103,optionLeft,45,7090,4,2,0,2,0,1,,,,,,,,,,,,,,,,,,,,,,,,,,,,,,,,,,,,,,,
,,,,,,,,2023-08-16_08h46.24.338,HF_wild_card,2022.2.4,Win32,60.01680471,6346e117e4e283094ff51b84,64d2fd46c836a06233681665,64dc7eb0b4214cff76e6c0ea,,,,,,,sngl,resources/DG.BMP,resources/Empty.png,Door2,-0.295370384,-0.026851866,1,0,0,0.9588,optionLeft,20,7110,4,3,0,3,0,1,,,,,,,,,,,,,,,,,,,,,,,,,,,,,,,,,,,,,,,
,,,,,,,,2023-08-16_08h46.24.338,HF_wild_card,2022.2.4,Win32,60.01680471,6346e117e4e283094ff51b84,64d2fd46c836a06233681665,64dc7eb0b4214cff76e6c0ea,,,,,,,decisionTrl,resources/DG.BMP,resources/DB.BMP,Door1,0.382407436,-0.01203703,1,0,0,1.077,optionRight,30,7140,4,4,0,4,0,1,,,,,,,,,,,,,,,,,,,,,,,,,,,,,,,,,,,,,,,
,,,,,,,,2023-08-16_08h46.24.338,HF_wild_card,2022.2.4,Win32,60.01680471,6346e117e4e283094ff51b84,64d2fd46c836a06233681665,64dc7eb0b4214cff76e6c0ea,,,,,,,decisionTrl,resources/DP.BMP,resources/DBN.BMP,Door3,-0.362037023,-0.08425928,1,0,0,1.6951,optionLeft,70,7210,4,5,0,5,0,1,,,,,,,,,,,,,,,,,,,,,,,,,,,,,,,,,,,,,,,
,,,,,,,,2023-08-16_08h46.24.338,HF_wild_card,2022.2.4,Win32,60.01680471,6346e117e4e283094ff51b84,64d2fd46c836a06233681665,64dc7eb0b4214cff76e6c0ea,,,,,,,decisionTrl,resources/DR.BMP,resources/DP.BMP,Door4,-0.287037037,-0.062037044,1,0,0,1.5418,optionLeft,80,7290,4,6,0,6,0,1,,,,,,,,,,,,,,,,,,,,,,,,,,,,,,,,,,,,,,,
,,,,,,,,2023-08-16_08h46.24.338,HF_wild_card,2022.2.4,Win32,60.01680471,6346e117e4e283094ff51b84,64d2fd46c836a06233681665,64dc7eb0b4214cff76e6c0ea,,,,,,,ctch,resources/DB.BMP,resources/DR.BMP,Door4,0.45185188,0.01666666,1,0,0,2.3593,optionRight,80,7370,4,7,0,7,0,1,,,,,,,,,,,,,,,,,,,,,,,,,,,,,,,,,,,,,,,
,,,,,,,,2023-08-16_08h46.24.338,HF_wild_card,2022.2.4,Win32,60.01680471,6346e117e4e283094ff51b84,64d2fd46c836a06233681665,64dc7eb0b4214cff76e6c0ea,,,,,,,sngl,resources/Empty.png,resources/DR.BMP,Door4,0.337037122,-0.037037037,1,0,0,0.8781,optionRight,80,7450,4,8,0,8,0,1,,,,,,,,,,,,,,,,,,,,,,,,,,,,,,,,,,,,,,,
,,,,,,,,2023-08-16_08h46.24.338,HF_wild_card,2022.2.4,Win32,60.01680471,6346e117e4e283094ff51b84,64d2fd46c836a06233681665,64dc7eb0b4214cff76e6c0ea,,,,,,,decisionTrl,resources/DP.BMP,resources/DR.BMP,Door4,0.257407436,-0.005555577,1,0,0,2.6924,optionRight,80,7530,4,9,0,9,0,1,,,,,,,,,,,,,,,,,,,,,,,,,,,,,,,,,,,,,,,
,,,,,,,,2023-08-16_08h46.24.338,HF_wild_card,2022.2.4,Win32,60.01680471,6346e117e4e283094ff51b84,64d2fd46c836a06233681665,64dc7eb0b4214cff76e6c0ea,,,,,,,sngl,resources/DP.BMP,resources/Empty.png,Door3,-0.35833334,-0.064814815,1,0,0,1.0102,optionLeft,70,7600,4,10,0,10,0,1,,,,,,,,,,,,,,,,,,,,,,,,,,,,,,,,,,,,,,,
,,,,,,,,2023-08-16_08h46.24.338,HF_wild_card,2022.2.4,Win32,60.01680471,6346e117e4e283094ff51b84,64d2fd46c836a06233681665,64dc7eb0b4214cff76e6c0ea,,,,,,,sngl,resources/Empty.png,resources/DBN.BMP,WildCard_NonEx,0.490740741,0.014814801,1,0,0,1.0922,optionRight,55,7655,4,11,0,11,0,1,,,,,,,,,,,,,,,,,,,,,,,,,,,,,,,,,,,,,,,
,,,,,,,,2023-08-16_08h46.24.338,HF_wild_card,2022.2.4,Win32,60.01680471,6346e117e4e283094ff51b84,64d2fd46c836a06233681665,64dc7eb0b4214cff76e6c0ea,,,,,,,decisionTrl,resources/DB.BMP,resources/DG.BMP,Door1,-0.312962956,-0.025925919,1,0,0,1.6114,optionLeft,30,7685,4,12,0,12,0,1,,,,,,,,,,,,,,,,,,,,,,,,,,,,,,,,,,,,,,,
,,,,,,,,2023-08-16_08h46.24.338,HF_wild_card,2022.2.4,Win32,60.01680471,6346e117e4e283094ff51b84,64d2fd46c836a06233681665,64dc7eb0b4214cff76e6c0ea,,,,,,,ctch,resources/DB.BMP,resources/DR.BMP,Door4,0.404629601,0.025000007,1,0,0,1.3388,optionRight,80,7765,4,13,0,13,0,1,,,,,,,,,,,,,,,,,,,,,,,,,,,,,,,,,,,,,,,
,,,,,,,,2023-08-16_08h46.24.338,HF_wild_card,2022.2.4,Win32,60.01680471,6346e117e4e283094ff51b84,64d2fd46c836a06233681665,64dc7eb0b4214cff76e6c0ea,,,,,,,sngl,resources/Empty.png,resources/DG.BMP,Door2,0.375925982,0.005555541,1,0,0,1.0772,optionRight,40,7805,4,14,0,14,0,1,,,,,,,,,,,,,,,,,,,,,,,,,,,,,,,,,,,,,,,
,,,,,,,,2023-08-16_08h46.24.338,HF_wild_card,2022.2.4,Win32,60.01680471,6346e117e4e283094ff51b84,64d2fd46c836a06233681665,64dc7eb0b4214cff76e6c0ea,,,,,,,sngl,resources/DR.BMP,resources/Empty.png,Door4,-0.357407393,-0.051851873,1,0,0,1.1949,optionLeft,60,7865,4,15,0,15,0,1,,,,,,,,,,,,,,,,,,,,,,,,,,,,,,,,,,,,,,,
,,,,,,,,2023-08-16_08h46.24.338,HF_wild_card,2022.2.4,Win32,60.01680471,6346e117e4e283094ff51b84,64d2fd46c836a06233681665,64dc7eb0b4214cff76e6c0ea,,,,,,,sngl,resources/DB.BMP,resources/Empty.png,Door1,-0.303703697,-0.036111125,1,0,0,1.1272,optionLeft,30,7895,4,16,0,16,0,1,,,,,,,,,,,,,,,,,,,,,,,,,,,,,,,,,,,,,,,
,,,,,,,,2023-08-16_08h46.24.338,HF_wild_card,2022.2.4,Win32,60.01680471,6346e117e4e283094ff51b84,64d2fd46c836a06233681665,64dc7eb0b4214cff76e6c0ea,,,,,,,ctch,resources/DR.BMP,resources/DB.BMP,Door4,-0.36296297,-0.01203703,1,0,0,2.2768,optionLeft,80,7975,4,17,0,17,0,1,,,,,,,,,,,,,,,,,,,,,,,,,,,,,,,,,,,,,,,
,,,,,,,,2023-08-16_08h46.24.338,HF_wild_card,2022.2.4,Win32,60.01680471,6346e117e4e283094ff51b84,64d2fd46c836a06233681665,64dc7eb0b4214cff76e6c0ea,,,,,,,decisionTrl,resources/DP.BMP,resources/DR.BMP,Door4,0.374074159,-0.010185206,1,0,0,1.6431,optionRight,60,8035,4,18,0,18,0,1,,,,,,,,,,,,,,,,,,,,,,,,,,,,,,,,,,,,,,,
,,,,,,,,2023-08-16_08h46.24.338,HF_wild_card,2022.2.4,Win32,60.01680471,6346e117e4e283094ff51b84,64d2fd46c836a06233681665,64dc7eb0b4214cff76e6c0ea,,,,,,,decisionTrl,resources/DR.BMP,resources/DP.BMP,Door4,-0.389814801,0.008333312,1,0,0,1.8429,optionLeft,80,8115,4,19,0,19,0,1,,,,,,,,,,,,,,,,,,,,,,,,,,,,,,,,,,,,,,,
,,,,,,,,2023-08-16_08h46.24.338,HF_wild_card,2022.2.4,Win32,60.01680471,6346e117e4e283094ff51b84,64d2fd46c836a06233681665,64dc7eb0b4214cff76e6c0ea,,,,,,,sngl,resources/DBN.BMP,resources/Empty.png,WildCard_NonEx,-0.297222208,-0.002777771,1,0,0,1.2581,optionLeft,55,8170,4,20,0,20,0,1,,,,,,,,,,,,,,,,,,,,,,,,,,,,,,,,,,,,,,,
,,,,,,,,2023-08-16_08h46.24.338,HF_wild_card,2022.2.4,Win32,60.01680471,6346e117e4e283094ff51b84,64d2fd46c836a06233681665,64dc7eb0b4214cff76e6c0ea,,,,,,,decisionTrl,resources/DG.BMP,resources/DB.BMP,Door1,0.475000028,0.050925926,1,0,0,1.9768,optionRight,30,8200,4,21,0,21,0,1,,,,,,,,,,,,,,,,,,,,,,,,,,,,,,,,,,,,,,,
,,,,,,,,2023-08-16_08h46.24.338,HF_wild_card,2022.2.4,Win32,60.01680471,6346e117e4e283094ff51b84,64d2fd46c836a06233681665,64dc7eb0b4214cff76e6c0ea,,,,,,,decisionTrl,resources/DR.BMP,resources/DBN.BMP,Door4,-0.405555548,-0.080555563,1,0,0,1.5934,optionLeft,80,8280,4,22,0,22,0,1,,,,,,,,,,,,,,,,,,,,,,,,,,,,,,,,,,,,,,,
,,,,,,,,2023-08-16_08h46.24.338,HF_wild_card,2022.2.4,Win32,60.01680471,6346e117e4e283094ff51b84,64d2fd46c836a06233681665,64dc7eb0b4214cff76e6c0ea,,,,,,,ctch,resources/DG.BMP,resources/DP.BMP,Door3,0.42777775,0.001851859,1,0,0,1.8606,optionRight,70,8350,4,23,0,23,0,1,,,,,,,,,,,,,,,,,,,,,,,,,,,,,,,,,,,,,,,
,,,,,,,,2023-08-16_08h46.24.338,HF_wild_card,2022.2.4,Win32,60.01680471,6346e117e4e283094ff51b84,64d2fd46c836a06233681665,64dc7eb0b4214cff76e6c0ea,,,,,,,sngl,resources/Empty.png,resources/DP.BMP,Door3,0.339814787,-0.037037037,1,0,0,0.9667,optionRight,70,8420,4,24,0,24,0,1,,,,,,,,,,,,,,,,,,,,,,,,,,,,,,,,,,,,,,,
,,,,,,,,2023-08-16_08h46.24.338,HF_wild_card,2022.2.4,Win32,60.01680471,6346e117e4e283094ff51b84,64d2fd46c836a06233681665,64dc7eb0b4214cff76e6c0ea,,,,,,,decisionTrl,resources/DG.BMP,resources/DB.BMP,Door1,0.391666695,-0.074074074,1,0,0,2.0275,optionRight,30,8450,4,25,0,25,0,1,,,,,,,,,,,,,,,,,,,,,,,,,,,,,,,,,,,,,,,
,,,,,,,,2023-08-16_08h46.24.338,HF_wild_card,2022.2.4,Win32,60.01680471,6346e117e4e283094ff51b84,64d2fd46c836a06233681665,64dc7eb0b4214cff76e6c0ea,,,,,,,decisionTrl,resources/DP.BMP,resources/DR.BMP,Door4,0.376851824,-0.041666667,1,0,0,1.4719,optionRight,80,8530,4,26,0,26,0,1,,,,,,,,,,,,,,,,,,,,,,,,,,,,,,,,,,,,,,,
,,,,,,,,2023-08-16_08h46.24.338,HF_wild_card,2022.2.4,Win32,60.01680471,6346e117e4e283094ff51b84,64d2fd46c836a06233681665,64dc7eb0b4214cff76e6c0ea,,,,,,,decisionTrl,resources/DG.BMP,resources/DBN.BMP,WildCard_NonEx,0.263888889,0.02870369,1,0,0,2.3745,optionRight,55,8585,4,27,0,27,0,1,,,,,,,,,,,,,,,,,,,,,,,,,,,,,,,,,,,,,,,
,,,,,,,,2023-08-16_08h46.24.338,HF_wild_card,2022.2.4,Win32,60.01680471,6346e117e4e283094ff51b84,64d2fd46c836a06233681665,64dc7eb0b4214cff76e6c0ea,,,,,,,sngl,resources/Empty.png,resources/DB.BMP,Door1,0.311111168,-0.003703718,1,0,0,1.0275,optionRight,30,8615,4,28,0,28,0,1,,,,,,,,,,,,,,,,,,,,,,,,,,,,,,,,,,,,,,,
,,,,,,,,2023-08-16_08h46.24.338,HF_wild_card,2022.2.4,Win32,60.01680471,6346e117e4e283094ff51b84,64d2fd46c836a06233681665,64dc7eb0b4214cff76e6c0ea,,,,,,,sngl,resources/DBN.BMP,resources/Empty.png,WildCard_NonEx,-0.25,-0.010185206,1,0,0,1.0428,optionLeft,45,8660,4,29,0,29,0,1,,,,,,,,,,,,,,,,,,,,,,,,,,,,,,,,,,,,,,,
,,,,,,,,2023-08-16_08h46.24.338,HF_wild_card,2022.2.4,Win32,60.01680471,6346e117e4e283094ff51b84,64d2fd46c836a06233681665,64dc7eb0b4214cff76e6c0ea,,,,,,,decisionTrl,resources/DBN.BMP,resources/DB.BMP,Door1,0.375,-0.0074074,1,0,0,2.327,optionRight,30,8690,4,30,0,30,0,1,,,,,,,,,,,,,,,,,,,,,,,,,,,,,,,,,,,,,,,
,,,,,,,,2023-08-16_08h46.24.338,HF_wild_card,2022.2.4,Win32,60.01680471,6346e117e4e283094ff51b84,64d2fd46c836a06233681665,64dc7eb0b4214cff76e6c0ea,,,,,,,decisionTrl,resources/DB.BMP,resources/DG.BMP,Door1,-0.420370349,-0.026851866,1,0,0,1.5928,optionLeft,30,8720,4,31,0,31,0,1,,,,,,,,,,,,,,,,,,,,,,,,,,,,,,,,,,,,,,,
,,,,,,,,2023-08-16_08h46.24.338,HF_wild_card,2022.2.4,Win32,60.01680471,6346e117e4e283094ff51b84,64d2fd46c836a06233681665,64dc7eb0b4214cff76e6c0ea,,,,,,,decisionTrl,resources/DG.BMP,resources/DB.BMP,Door1,0.438888974,-0.042592614,1,0,0,2.1096,optionRight,30,8750,4,32,0,32,0,1,,,,,,,,,,,,,,,,,,,,,,,,,,,,,,,,,,,,,,,
,,,,,,,,2023-08-16_08h46.24.338,HF_wild_card,2022.2.4,Win32,60.01680471,6346e117e4e283094ff51b84,64d2fd46c836a06233681665,64dc7eb0b4214cff76e6c0ea,,,,,,,ctch,resources/DP.BMP,resources/DG.BMP,Door3,-0.316666674,-0.074074074,1,0,0,2.3762,optionLeft,70,8820,4,33,0,33,0,1,,,,,,,,,,,,,,,,,,,,,,,,,,,,,,,,,,,,,,,
,,,,,,,,2023-08-16_08h46.24.338,HF_wild_card,2022.2.4,Win32,60.01680471,6346e117e4e283094ff51b84,64d2fd46c836a06233681665,64dc7eb0b4214cff76e6c0ea,,,,,,,decisionTrl,resources/DR.BMP,resources/DP.BMP,Door4,-0.356481481,-0.020370377,1,0,0,3.0256,optionLeft,80,8900,4,34,0,34,0,1,,,,,,,,,,,,,,,,,,,,,,,,,,,,,,,,,,,,,,,
,,,,,,,,2023-08-16_08h46.24.338,HF_wild_card,2022.2.4,Win32,60.01680471,6346e117e4e283094ff51b84,64d2fd46c836a06233681665,64dc7eb0b4214cff76e6c0ea,,,,,,,decisionTrl,resources/DP.BMP,resources/DR.BMP,Door4,0.304629714,0.01944443,1,0,0,2.0104,optionRight,80,8980,4,35,0,35,0,1,,,,,,,,,,,,,,,,,,,,,,,,,,,,,,,,,,,,,,,
,,,,,,,,2023-08-16_08h46.24.338,HF_wild_card,2022.2.4,Win32,60.01680471,6346e117e4e283094ff51b84,64d2fd46c836a06233681665,64dc7eb0b4214cff76e6c0ea,,,,,,,ctch,resources/DP.BMP,resources/DG.BMP,Door3,-0.383333312,-0.018518519,1,0,0,2.5918,optionLeft,70,9050,4,36,0,36,0,1,,,,,,,,,,,,,,,,,,,,,,,,,,,,,,,,,,,,,,,
,,,,,,,,2023-08-16_08h46.24.338,HF_wild_card,2022.2.4,Win32,60.01680471,6346e117e4e283094ff51b84,64d2fd46c836a06233681665,64dc7eb0b4214cff76e6c0ea,,,,,,,decisionTrl,resources/DB.BMP,resources/DG.BMP,Door1,-0.303703697,-0.036111125,1,0,0,1.5937,optionLeft,30,9080,4,37,0,37,0,1,,,,,,,,,,,,,,,,,,,,,,,,,,,,,,,,,,,,,,,
,,,,,,,,2023-08-16_08h46.24.338,HF_wild_card,2022.2.4,Win32,60.01680471,6346e117e4e283094ff51b84,64d2fd46c836a06233681665,64dc7eb0b4214cff76e6c0ea,,,,,,,ctch,resources/DR.BMP,resources/DB.BMP,Door4,-0.522222201,-0.025000007,1,0,0,1.776,optionLeft,80,9160,4,38,0,38,0,1,,,,,,,,,,,,,,,,,,,,,,,,,,,,,,,,,,,,,,,
,,,,,,,,2023-08-16_08h46.24.338,HF_wild_card,2022.2.4,Win32,60.01680471,6346e117e4e283094ff51b84,64d2fd46c836a06233681665,64dc7eb0b4214cff76e6c0ea,,,,,,,decisionTrl,resources/DBN.BMP,resources/DR.BMP,Door4,0.421296296,-0.000925947,1,0,0,1.6427,optionRight,60,9220,4,39,0,39,0,1,,,,,,,,,,,,,,,,,,,,,,,,,,,,,,,,,,,,,,,
,,,,,,,,2023-08-16_08h46.24.338,HF_wild_card,2022.2.4,Win32,60.01680471,6346e117e4e283094ff51b84,64d2fd46c836a06233681665,64dc7eb0b4214cff76e6c0ea,,,,,,,decisionTrl,resources/DB.BMP,resources/DBN.BMP,Door1,-0.372222229,-0.01666666,1,0,0,2.0771,optionLeft,30,9250,4,40,0,40,0,1,,,,,,,,,,,,,,,,,,,,,,,,,,,,,,,,,,,,,,,
,,,,,,,,2023-08-16_08h46.24.338,HF_wild_card,2022.2.4,Win32,60.01680471,6346e117e4e283094ff51b84,64d2fd46c836a06233681665,64dc7eb0b4214cff76e6c0ea,,,,,,,decisionTrl,resources/DBN.BMP,resources/DG.BMP,Door2,0.354629658,0.055555556,1,0,0,2.1279,optionRight,20,9270,4,41,0,41,0,1,,,,,,,,,,,,,,,,,,,,,,,,,,,,,,,,,,,,,,,
,,,,,,,,2023-08-16_08h46.24.338,HF_wild_card,2022.2.4,Win32,60.01680471,6346e117e4e283094ff51b84,64d2fd46c836a06233681665,64dc7eb0b4214cff76e6c0ea,,,,,,,ctch,resources/DG.BMP,resources/DP.BMP,Door3,0.295370384,-0.023148148,1,0,0,1.7898,optionRight,70,9340,4,42,0,42,0,1,,,,,,,,,,,,,,,,,,,,,,,,,,,,,,,,,,,,,,,
,,,,,,,,2023-08-16_08h46.24.338,HF_wild_card,2022.2.4,Win32,60.01680471,6346e117e4e283094ff51b84,64d2fd46c836a06233681665,64dc7eb0b4214cff76e6c0ea,,,,,,,decisionTrl,resources/DB.BMP,resources/DG.BMP,Door1,-0.349999993,-0.013888889,1,0,0,1.1104,optionLeft,30,9370,4,43,0,43,0,1,,,,,,,,,,,,,,,,,,,,,,,,,,,,,,,,,,,,,,,
,,,,,,,,2023-08-16_08h46.24.338,HF_wild_card,2022.2.4,Win32,60.01680471,6346e117e4e283094ff51b84,64d2fd46c836a06233681665,64dc7eb0b4214cff76e6c0ea,,,,,,,,,,,,,,,,,,,,,,,,,,3,0,3,0,1,,,,,,,,,,,,,,,,,,,,,,,,,,,,,,,,,,
,,,,,,,,2023-08-16_08h46.24.338,HF_wild_card,2022.2.4,Win32,60.01680471,6346e117e4e283094ff51b84,64d2fd46c836a06233681665,64dc7eb0b4214cff76e6c0ea,,,,,,,decisionTrl,resources/DP.BMP,resources/DR.BMP,Door4,0.354629658,-0.018518519,1,0,0,1.5559,optionRight,80,9450,5,0,0,0,0,1,,,,,,,,,,,,,,,,,,,,,,,,,,,,,,,,,,,,,,,
,,,,,,,,2023-08-16_08h46.24.338,HF_wild_card,2022.2.4,Win32,60.01680471,6346e117e4e283094ff51b84,64d2fd46c836a06233681665,64dc7eb0b4214cff76e6c0ea,,,,,,,ctch,resources/DB.BMP,resources/DR.BMP,Door4,0.422222279,0.032407407,1,0,0,1.1666,optionRight,60,9510,5,1,0,1,0,1,,,,,,,,,,,,,,,,,,,,,,,,,,,,,,,,,,,,,,,
,,,,,,,,2023-08-16_08h46.24.338,HF_wild_card,2022.2.4,Win32,60.01680471,6346e117e4e283094ff51b84,64d2fd46c836a06233681665,64dc7eb0b4214cff76e6c0ea,,,,,,,decisionTrl,resources/DR.BMP,resources/DP.BMP,Door4,-0.423148155,0.017592571,1,0,0,1.3766,optionLeft,80,9590,5,2,0,2,0,1,,,,,,,,,,,,,,,,,,,,,,,,,,,,,,,,,,,,,,,
,,,,,,,,2023-08-16_08h46.24.338,HF_wild_card,2022.2.4,Win32,60.01680471,6346e117e4e283094ff51b84,64d2fd46c836a06233681665,64dc7eb0b4214cff76e6c0ea,,,,,,,sngl,resources/DG.BMP,resources/Empty.png,Door2,-0.362037023,0.009259259,1,0,0,0.9274,optionLeft,40,9630,5,3,0,3,0,1,,,,,,,,,,,,,,,,,,,,,,,,,,,,,,,,,,,,,,,
,,,,,,,,2023-08-16_08h46.24.338,HF_wild_card,2022.2.4,Win32,60.01680471,6346e117e4e283094ff51b84,64d2fd46c836a06233681665,64dc7eb0b4214cff76e6c0ea,,,,,,,decisionTrl,resources/DB.BMP,resources/DBN.BMP,Door1,-0.354629623,-0.057407414,1,0,0,1.6589,optionLeft,30,9660,5,4,0,4,0,1,,,,,,,,,,,,,,,,,,,,,,,,,,,,,,,,,,,,,,,
,,,,,,,,2023-08-16_08h46.24.338,HF_wild_card,2022.2.4,Win32,60.01680471,6346e117e4e283094ff51b84,64d2fd46c836a06233681665,64dc7eb0b4214cff76e6c0ea,,,,,,,sngl,resources/DR.BMP,resources/Empty.png,Door4,-0.364814794,0.000925912,1,0,0,0.9433,optionLeft,80,9740,5,5,0,5,0,1,,,,,,,,,,,,,,,,,,,,,,,,,,,,,,,,,,,,,,,
,,,,,,,,2023-08-16_08h46.24.338,HF_wild_card,2022.2.4,Win32,60.01680471,6346e117e4e283094ff51b84,64d2fd46c836a06233681665,64dc7eb0b4214cff76e6c0ea,,,,,,,decisionTrl,resources/DG.BMP,resources/DBN.BMP,WildCard_NonEx,0.280555584,0.044444437,1,0,0,2.4271,optionRight,55,9795,5,6,0,6,0,1,,,,,,,,,,,,,,,,,,,,,,,,,,,,,,,,,,,,,,,
,,,,,,,,2023-08-16_08h46.24.338,HF_wild_card,2022.2.4,Win32,60.01680471,6346e117e4e283094ff51b84,64d2fd46c836a06233681665,64dc7eb0b4214cff76e6c0ea,,,,,,,sngl,resources/Empty.png,resources/DG.BMP,Door2,0.357407464,-0.027777778,1,0,0,0.9935,optionRight,20,9815,5,7,0,7,0,1,,,,,,,,,,,,,,,,,,,,,,,,,,,,,,,,,,,,,,,
,,,,,,,,2023-08-16_08h46.24.338,HF_wild_card,2022.2.4,Win32,60.01680471,6346e117e4e283094ff51b84,64d2fd46c836a06233681665,64dc7eb0b4214cff76e6c0ea,,,,,,,decisionTrl,resources/DB.BMP,resources/DG.BMP,Door1,-0.283333319,-0.047222243,1,0,0,5.6085,optionLeft,30,9845,5,8,0,8,0,1,,,,,,,,,,,,,,,,,,,,,,,,,,,,,,,,,,,,,,,
,,,,,,,,2023-08-16_08h46.24.338,HF_wild_card,2022.2.4,Win32,60.01680471,6346e117e4e283094ff51b84,64d2fd46c836a06233681665,64dc7eb0b4214cff76e6c0ea,,,,,,,sngl,resources/DB.BMP,resources/Empty.png,Door1,-0.297222208,0.013888889,1,0,0,1.0265,optionLeft,30,9875,5,9,0,9,0,1,,,,,,,,,,,,,,,,,,,,,,,,,,,,,,,,,,,,,,,
,,,,,,,,2023-08-16_08h46.24.338,HF_wild_card,2022.2.4,Win32,60.01680471,6346e117e4e283094ff51b84,64d2fd46c836a06233681665,64dc7eb0b4214cff76e6c0ea,,,,,,,ctch,resources/DP.BMP,resources/DG.BMP,Door3,-0.308333326,-0.056481503,1,0,0,7.5593,optionLeft,70,9945,5,10,0,10,0,1,,,,,,,,,,,,,,,,,,,,,,,,,,,,,,,,,,,,,,,
,,,,,,,,2023-08-16_08h46.24.338,HF_wild_card,2022.2.4,Win32,60.01680471,6346e117e4e283094ff51b84,64d2fd46c836a06233681665,64dc7eb0b4214cff76e6c0ea,,,,,,,ctch,resources/DR.BMP,resources/DB.BMP,Door4,-0.312962956,0.047222208,1,0,0,2.0443,optionLeft,60,10005,5,11,0,11,0,1,,,,,,,,,,,,,,,,,,,,,,,,,,,,,,,,,,,,,,,
,,,,,,,,2023-08-16_08h46.24.338,HF_wild_card,2022.2.4,Win32,60.01680471,6346e117e4e283094ff51b84,64d2fd46c836a06233681665,64dc7eb0b4214cff76e6c0ea,,,,,,,decisionTrl,resources/DB.BMP,resources/DG.BMP,Door1,-0.353703711,-0.006481489,1,0,0,11.9589,optionLeft,30,10035,5,12,0,12,0,1,,,,,,,,,,,,,,,,,,,,,,,,,,,,,,,,,,,,,,,
,,,,,,,,2023-08-16_08h46.24.338,HF_wild_card,2022.2.4,Win32,60.01680471,6346e117e4e283094ff51b84,64d2fd46c836a06233681665,64dc7eb0b4214cff76e6c0ea,,,,,,,decisionTrl,resources/DP.BMP,resources/DBN.BMP,WildCard_NonEx,0.012037065,-0.010185206,1,0,0,0.2456,optionRight,55,10090,5,13,0,13,0,1,,,,,,,,,,,,,,,,,,,,,,,,,,,,,,,,,,,,,,,
,,,,,,,,2023-08-16_08h46.24.338,HF_wild_card,2022.2.4,Win32,60.01680471,6346e117e4e283094ff51b84,64d2fd46c836a06233681665,64dc7eb0b4214cff76e6c0ea,,,,,,,decisionTrl,resources/DP.BMP,resources/DR.BMP,Door4,0.431481538,-0.048148155,1,0,0,1.5254,optionRight,80,10170,5,14,0,14,0,1,,,,,,,,,,,,,,,,,,,,,,,,,,,,,,,,,,,,,,,
,,,,,,,,2023-08-16_08h46.24.338,HF_wild_card,2022.2.4,Win32,60.01680471,6346e117e4e283094ff51b84,64d2fd46c836a06233681665,64dc7eb0b4214cff76e6c0ea,,,,,,,sngl,resources/Empty.png,resources/DP.BMP,Door3,0.363888917,-0.070370392,1,0,0,1.0427,optionRight,70,10240,5,15,0,15,0,1,,,,,,,,,,,,,,,,,,,,,,,,,,,,,,,,,,,,,,,
,,,,,,,,2023-08-16_08h46.24.338,HF_wild_card,2022.2.4,Win32,60.01680471,6346e117e4e283094ff51b84,64d2fd46c836a06233681665,64dc7eb0b4214cff76e6c0ea,,,,,,,sngl,resources/Empty.png,resources/DBN.BMP,WildCard_NonEx,0.421296296,0.034259266,1,0,0,0.9439,optionRight,45,10285,5,16,0,16,0,1,,,,,,,,,,,,,,,,,,,,,,,,,,,,,,,,,,,,,,,
,,,,,,,,2023-08-16_08h46.24.338,HF_wild_card,2022.2.4,Win32,60.01680471,6346e117e4e283094ff51b84,64d2fd46c836a06233681665,64dc7eb0b4214cff76e6c0ea,,,,,,,decisionTrl,resources/DR.BMP,resources/DP.BMP,Door4,-0.404629637,0.0074074,1,0,0,1.2936,optionLeft,60,10345,5,17,0,17,0,1,,,,,,,,,,,,,,,,,,,,,,,,,,,,,,,,,,,,,,,
,,,,,,,,2023-08-16_08h46.24.338,HF_wild_card,2022.2.4,Win32,60.01680471,6346e117e4e283094ff51b84,64d2fd46c836a06233681665,64dc7eb0b4214cff76e6c0ea,,,,,,,ctch,resources/DP.BMP,resources/DG.BMP,Door3,-0.372222229,-0.030555548,1,0,0,1.009,optionLeft,70,10415,5,18,0,18,0,1,,,,,,,,,,,,,,,,,,,,,,,,,,,,,,,,,,,,,,,
,,,,,,,,2023-08-16_08h46.24.338,HF_wild_card,2022.2.4,Win32,60.01680471,6346e117e4e283094ff51b84,64d2fd46c836a06233681665,64dc7eb0b4214cff76e6c0ea,,,,,,,decisionTrl,resources/DR.BMP,resources/DP.BMP,Door3,0.446296268,-0.037962984,1,0,0,1.0513,optionRight,70,10485,5,19,0,19,0,1,,,,,,,,,,,,,,,,,,,,,,,,,,,,,,,,,,,,,,,
,,,,,,,,2023-08-16_08h46.24.338,HF_wild_card,2022.2.4,Win32,60.01680471,6346e117e4e283094ff51b84,64d2fd46c836a06233681665,64dc7eb0b4214cff76e6c0ea,,,,,,,sngl,resources/DBN.BMP,resources/Empty.png,WildCard_NonEx,-0.345370363,-0.006481489,1,0,0,0.9671,optionLeft,55,10540,5,20,0,20,0,1,,,,,,,,,,,,,,,,,,,,,,,,,,,,,,,,,,,,,,,
,,,,,,,,2023-08-16_08h46.24.338,HF_wild_card,2022.2.4,Win32,60.01680471,6346e117e4e283094ff51b84,64d2fd46c836a06233681665,64dc7eb0b4214cff76e6c0ea,,,,,,,sngl,resources/Empty.png,resources/DR.BMP,Door4,0.382407436,-0.036111125,1,0,0,1.1782,optionRight,60,10600,5,21,0,21,0,1,,,,,,,,,,,,,,,,,,,,,,,,,,,,,,,,,,,,,,,
,,,,,,,,2023-08-16_08h46.24.338,HF_wild_card,2022.2.4,Win32,60.01680471,6346e117e4e283094ff51b84,64d2fd46c836a06233681665,64dc7eb0b4214cff76e6c0ea,,,,,,,decisionTrl,resources/DBN.BMP,resources/DP.BMP,Door3,0.389814871,-0.098148134,1,0,0,4.1773,optionRight,70,10670,5,22,0,22,0,1,,,,,,,,,,,,,,,,,,,,,,,,,,,,,,,,,,,,,,,
,,,,,,,,2023-08-16_08h46.24.338,HF_wild_card,2022.2.4,Win32,60.01680471,6346e117e4e283094ff51b84,64d2fd46c836a06233681665,64dc7eb0b4214cff76e6c0ea,,,,,,,decisionTrl,resources/DR.BMP,resources/DBN.BMP,Door4,-0.330555563,-0.018518519,1,0,0,2.2633,optionLeft,60,10730,5,23,0,23,0,1,,,,,,,,,,,,,,,,,,,,,,,,,,,,,,,,,,,,,,,
,,,,,,,,2023-08-16_08h46.24.338,HF_wild_card,2022.2.4,Win32,60.01680471,6346e117e4e283094ff51b84,64d2fd46c836a06233681665,64dc7eb0b4214cff76e6c0ea,,,,,,,ctch,resources/DG.BMP,resources/DP.BMP,Door3,0.304629714,-0.019444466,1,0,0,1.285,optionRight,70,10800,5,24,0,24,0,1,,,,,,,,,,,,,,,,,,,,,,,,,,,,,,,,,,,,,,,
,,,,,,,,2023-08-16_08h46.24.338,HF_wild_card,2022.2.4,Win32,60.01680471,6346e117e4e283094ff51b84,64d2fd46c836a06233681665,64dc7eb0b4214cff76e6c0ea,,,,,,,decisionTrl,resources/DR.BMP,resources/DP.BMP,Door4,-0.326851845,0.020370377,1,0,0,1.2794,optionLeft,80,10880,5,25,0,25,0,1,,,,,,,,,,,,,,,,,,,,,,,,,,,,,,,,,,,,,,,
,,,,,,,,2023-08-16_08h46.24.338,HF_wild_card,2022.2.4,Win32,60.01680471,6346e117e4e283094ff51b84,64d2fd46c836a06233681665,64dc7eb0b4214cff76e6c0ea,,,,,,,sngl,resources/Empty.png,resources/DBN.BMP,WildCard_NonEx,0.362037094,-0.012962977,1,0,0,1.0615,optionRight,55,10935,5,26,0,26,0,1,,,,,,,,,,,,,,,,,,,,,,,,,,,,,,,,,,,,,,,
,,,,,,,,2023-08-16_08h46.24.338,HF_wild_card,2022.2.4,Win32,60.01680471,6346e117e4e283094ff51b84,64d2fd46c836a06233681665,64dc7eb0b4214cff76e6c0ea,,,,,,,sngl,resources/DP.BMP,resources/Empty.png,Door3,-0.375,-0.032407407,1,0,0,0.9814,optionLeft,70,11005,5,27,0,27,0,1,,,,,,,,,,,,,,,,,,,,,,,,,,,,,,,,,,,,,,,
,,,,,,,,2023-08-16_08h46.24.338,HF_wild_card,2022.2.4,Win32,60.01680471,6346e117e4e283094ff51b84,64d2fd46c836a06233681665,64dc7eb0b4214cff76e6c0ea,,,,,,,ctch,resources/DB.BMP,resources/DR.BMP,Door4,0.35555564,-0.065740762,1,0,0,2.5333,optionRight,80,11085,5,28,0,28,0,1,,,,,,,,,,,,,,,,,,,,,,,,,,,,,,,,,,,,,,,
,,,,,,,,2023-08-16_08h46.24.338,HF_wild_card,2022.2.4,Win32,60.01680471,6346e117e4e283094ff51b84,64d2fd46c836a06233681665,64dc7eb0b4214cff76e6c0ea,,,,,,,decisionTrl,resources/DG.BMP,resources/DB.BMP,Door2,-0.352777764,0.000925912,1,0,0,1.5966,optionLeft,20,11105,5,29,0,29,0,1,,,,,,,,,,,,,,,,,,,,,,,,,,,,,,,,,,,,,,,
,,,,,,,,2023-08-16_08h46.24.338,HF_wild_card,2022.2.4,Win32,60.01680471,6346e117e4e283094ff51b84,64d2fd46c836a06233681665,64dc7eb0b4214cff76e6c0ea,,,,,,,decisionTrl,resources/DBN.BMP,resources/DG.BMP,Door2,0.469444416,-0.020370377,1,0,0,1.6789,optionRight,20,11125,5,30,0,30,0,1,,,,,,,,,,,,,,,,,,,,,,,,,,,,,,,,,,,,,,,
,,,,,,,,2023-08-16_08h46.24.338,HF_wild_card,2022.2.4,Win32,60.01680471,6346e117e4e283094ff51b84,64d2fd46c836a06233681665,64dc7eb0b4214cff76e6c0ea,,,,,,,decisionTrl,resources/DP.BMP,resources/DR.BMP,Door3,-0.318518497,-0.085185192,1,0,0,2.0631,optionLeft,70,11195,5,31,0,31,0,1,,,,,,,,,,,,,,,,,,,,,,,,,,,,,,,,,,,,,,,
,,,,,,,,2023-08-16_08h46.24.338,HF_wild_card,2022.2.4,Win32,60.01680471,6346e117e4e283094ff51b84,64d2fd46c836a06233681665,64dc7eb0b4214cff76e6c0ea,,,,,,,decisionTrl,resources/DBN.BMP,resources/DB.BMP,WildCard_NonEx,-0.25462963,0.006481489,1,0,0,1.5797,optionLeft,45,11240,5,32,0,32,0,1,,,,,,,,,,,,,,,,,,,,,,,,,,,,,,,,,,,,,,,
,,,,,,,,2023-08-16_08h46.24.338,HF_wild_card,2022.2.4,Win32,60.01680471,6346e117e4e283094ff51b84,64d2fd46c836a06233681665,64dc7eb0b4214cff76e6c0ea,,,,,,,decisionTrl,resources/DB.BMP,resources/DG.BMP,Door2,0.375925982,0.008333312,1,0,0,8.2441,optionRight,40,11280,5,33,0,33,0,1,,,,,,,,,,,,,,,,,,,,,,,,,,,,,,,,,,,,,,,
,,,,,,,,2023-08-16_08h46.24.338,HF_wild_card,2022.2.4,Win32,60.01680471,6346e117e4e283094ff51b84,64d2fd46c836a06233681665,64dc7eb0b4214cff76e6c0ea,,,,,,,decisionTrl,resources/DB.BMP,resources/DG.BMP,Door1,-0.299999979,-0.024074095,1,0,0,4.0101,optionLeft,30,11310,5,34,0,34,0,1,,,,,,,,,,,,,,,,,,,,,,,,,,,,,,,,,,,,,,,
,,,,,,,,2023-08-16_08h46.24.338,HF_wild_card,2022.2.4,Win32,60.01680471,6346e117e4e283094ff51b84,64d2fd46c836a06233681665,64dc7eb0b4214cff76e6c0ea,,,,,,,decisionTrl,resources/DP.BMP,resources/DR.BMP,Door3,-0.402777778,-0.061111132,1,0,0,1.4298,optionLeft,70,11380,5,35,0,35,0,1,,,,,,,,,,,,,,,,,,,,,,,,,,,,,,,,,,,,,,,
,,,,,,,,2023-08-16_08h46.24.338,HF_wild_card,2022.2.4,Win32,60.01680471,6346e117e4e283094ff51b84,64d2fd46c836a06233681665,64dc7eb0b4214cff76e6c0ea,,,,,,,sngl,resources/DBN.BMP,resources/Empty.png,WildCard_NonEx,-0.3824074,-0.049074067,1,0,0,1.1684,optionLeft,45,11425,5,36,0,36,0,1,,,,,,,,,,,,,,,,,,,,,,,,,,,,,,,,,,,,,,,
,,,,,,,,2023-08-16_08h46.24.338,HF_wild_card,2022.2.4,Win32,60.01680471,6346e117e4e283094ff51b84,64d2fd46c836a06233681665,64dc7eb0b4214cff76e6c0ea,,,,,,,decisionTrl,resources/DG.BMP,resources/DB.BMP,Door2,-0.310185185,-0.003703718,1,0,0,3.2336,optionLeft,40,11465,5,37,0,37,0,1,,,,,,,,,,,,,,,,,,,,,,,,,,,,,,,,,,,,,,,
,,,,,,,,2023-08-16_08h46.24.338,HF_wild_card,2022.2.4,Win32,60.01680471,6346e117e4e283094ff51b84,64d2fd46c836a06233681665,64dc7eb0b4214cff76e6c0ea,,,,,,,sngl,resources/Empty.png,resources/DB.BMP,Door1,0.395370342,0.0074074,1,0,0,1.2517,optionRight,30,11495,5,38,0,38,0,1,,,,,,,,,,,,,,,,,,,,,,,,,,,,,,,,,,,,,,,
,,,,,,,,2023-08-16_08h46.24.338,HF_wild_card,2022.2.4,Win32,60.01680471,6346e117e4e283094ff51b84,64d2fd46c836a06233681665,64dc7eb0b4214cff76e6c0ea,,,,,,,ctch,resources/DG.BMP,resources/DP.BMP,Door3,0.372222194,-0.089814822,1,0,0,1.377,optionRight,70,11565,5,39,0,39,0,1,,,,,,,,,,,,,,,,,,,,,,,,,,,,,,,,,,,,,,,
,,,,,,,,2023-08-16_08h46.24.338,HF_wild_card,2022.2.4,Win32,60.01680471,6346e117e4e283094ff51b84,64d2fd46c836a06233681665,64dc7eb0b4214cff76e6c0ea,,,,,,,decisionTrl,resources/DBN.BMP,resources/DR.BMP,WildCard_NonEx,-0.357407393,-0.036111125,1,0,0,1.5388,optionLeft,55,11620,5,40,0,40,0,1,,,,,,,,,,,,,,,,,,,,,,,,,,,,,,,,,,,,,,,
,,,,,,,,2023-08-16_08h46.24.338,HF_wild_card,2022.2.4,Win32,60.01680471,6346e117e4e283094ff51b84,64d2fd46c836a06233681665,64dc7eb0b4214cff76e6c0ea,,,,,,,ctch,resources/DR.BMP,resources/DB.BMP,Door1,0.383333418,-0.139814801,1,0,0,1.8603,optionRight,30,11650,5,41,0,41,0,1,,,,,,,,,,,,,,,,,,,,,,,,,,,,,,,,,,,,,,,
,,,,,,,,2023-08-16_08h46.24.338,HF_wild_card,2022.2.4,Win32,60.01680471,6346e117e4e283094ff51b84,64d2fd46c836a06233681665,64dc7eb0b4214cff76e6c0ea,,,,,,,decisionTrl,resources/DG.BMP,resources/DB.BMP,Door2,-0.375925912,-0.042592614,1,0,0,1.5156,optionLeft,20,11670,5,42,0,42,0,1,,,,,,,,,,,,,,,,,,,,,,,,,,,,,,,,,,,,,,,
,,,,,,,,2023-08-16_08h46.24.338,HF_wild_card,2022.2.4,Win32,60.01680471,6346e117e4e283094ff51b84,64d2fd46c836a06233681665,64dc7eb0b4214cff76e6c0ea,,,,,,,decisionTrl,resources/DG.BMP,resources/DB.BMP,Door1,0.442592621,0.02407406,1,0,0,1.7107,optionRight,30,11700,5,43,0,43,0,1,,,,,,,,,,,,,,,,,,,,,,,,,,,,,,,,,,,,,,,
,,,,,,,,2023-08-16_08h46.24.338,HF_wild_card,2022.2.4,Win32,60.01680471,6346e117e4e283094ff51b84,64d2fd46c836a06233681665,64dc7eb0b4214cff76e6c0ea,,,,,,,,,,,,,,,,,,,,,,,,,,4,0,4,0,1,,,,,,,,,,,,,,,,,,,,,,,,,,,,,,,,,,
,,,,,,,,2023-08-16_08h46.24.338,HF_wild_card,2022.2.4,Win32,60.01680471,6346e117e4e283094ff51b84,64d2fd46c836a06233681665,64dc7eb0b4214cff76e6c0ea,,,,,,,decisionTrl,resources/DP.BMP,resources/DR.BMP,Door3,-0.316666674,-0.12962963,1,0,0,1.7904,optionLeft,70,11770,6,0,0,0,0,1,,,,,,,,,,,,,,,,,,,,,,,,,,,,,,,,,,,,,,,
,,,,,,,,2023-08-16_08h46.24.338,HF_wild_card,2022.2.4,Win32,60.01680471,6346e117e4e283094ff51b84,64d2fd46c836a06233681665,64dc7eb0b4214cff76e6c0ea,,,,,,,decisionTrl,resources/DB.BMP,resources/DBN.BMP,Door1,-0.442592586,-0.055555556,1,0,0,1.7702,optionLeft,30,11800,6,1,0,1,0,1,,,,,,,,,,,,,,,,,,,,,,,,,,,,,,,,,,,,,,,
,,,,,,,,2023-08-16_08h46.24.338,HF_wild_card,2022.2.4,Win32,60.01680471,6346e117e4e283094ff51b84,64d2fd46c836a06233681665,64dc7eb0b4214cff76e6c0ea,,,,,,,decisionTrl,resources/DR.BMP,resources/DBN.BMP,Door4,-0.287037037,0.003703683,1,0,0,2.1057,optionLeft,80,11880,6,2,0,2,0,1,,,,,,,,,,,,,,,,,,,,,,,,,,,,,,,,,,,,,,,
,,,,,,,,2023-08-16_08h46.24.338,HF_wild_card,2022.2.4,Win32,60.01680471,6346e117e4e283094ff51b84,64d2fd46c836a06233681665,64dc7eb0b4214cff76e6c0ea,,,,,,,decisionTrl,resources/DG.BMP,resources/DB.BMP,Door2,-0.255555541,0.025925919,1,0,0,1.5105,optionLeft,40,11920,6,3,0,3,0,1,,,,,,,,,,,,,,,,,,,,,,,,,,,,,,,,,,,,,,,
,,,,,,,,2023-08-16_08h46.24.338,HF_wild_card,2022.2.4,Win32,60.01680471,6346e117e4e283094ff51b84,64d2fd46c836a06233681665,64dc7eb0b4214cff76e6c0ea,,,,,,,decisionTrl,resources/DR.BMP,resources/DP.BMP,Door3,0.457407492,-0.094444487,1,0,0,2.21,optionRight,70,11990,6,4,0,4,0,1,,,,,,,,,,,,,,,,,,,,,,,,,,,,,,,,,,,,,,,
,,,,,,,,2023-08-16_08h46.24.338,HF_wild_card,2022.2.4,Win32,60.01680471,6346e117e4e283094ff51b84,64d2fd46c836a06233681665,64dc7eb0b4214cff76e6c0ea,,,,,,,decisionTrl,resources/DR.BMP,resources/DP.BMP,Door4,-0.342592593,-0.051851873,1,0,0,2.6067,optionLeft,60,12050,6,5,0,5,0,1,,,,,,,,,,,,,,,,,,,,,,,,,,,,,,,,,,,,,,,
,,,,,,,,2023-08-16_08h46.24.338,HF_wild_card,2022.2.4,Win32,60.01680471,6346e117e4e283094ff51b84,64d2fd46c836a06233681665,64dc7eb0b4214cff76e6c0ea,,,,,,,decisionTrl,resources/DB.BMP,resources/DG.BMP,Door1,-0.318518497,0.0074074,1,0,0,1.5431,optionLeft,30,12080,6,6,0,6,0,1,,,,,,,,,,,,,,,,,,,,,,,,,,,,,,,,,,,,,,,
,,,,,,,,2023-08-16_08h46.24.338,HF_wild_card,2022.2.4,Win32,60.01680471,6346e117e4e283094ff51b84,64d2fd46c836a06233681665,64dc7eb0b4214cff76e6c0ea,,,,,,,sngl,resources/DB.BMP,resources/Empty.png,Door1,-0.359259252,-0.032407407,1,0,0,0.9436,optionLeft,30,12110,6,7,0,7,0,1,,,,,,,,,,,,,,,,,,,,,,,,,,,,,,,,,,,,,,,
,,,,,,,,2023-08-16_08h46.24.338,HF_wild_card,2022.2.4,Win32,60.01680471,6346e117e4e283094ff51b84,64d2fd46c836a06233681665,64dc7eb0b4214cff76e6c0ea,,,,,,,decisionTrl,resources/DG.BMP,resources/DBN.BMP,WildCard_NonEx,0.335185157,0,1,0,0,1.2937,optionRight,45,12155,6,8,0,8,0,1,,,,,,,,,,,,,,,,,,,,,,,,,,,,,,,,,,,,,,,
,,,,,,,,2023-08-16_08h46.24.338,HF_wild_card,2022.2.4,Win32,60.01680471,6346e117e4e283094ff51b84,64d2fd46c836a06233681665,64dc7eb0b4214cff76e6c0ea,,,,,,,ctch,resources/DG.BMP,resources/DP.BMP,Door2,-0.346296275,0.018518519,1,0,0,1.255,optionLeft,40,12195,6,9,0,9,0,1,,,,,,,,,,,,,,,,,,,,,,,,,,,,,,,,,,,,,,,
,,,,,,,,2023-08-16_08h46.24.338,HF_wild_card,2022.2.4,Win32,60.01680471,6346e117e4e283094ff51b84,64d2fd46c836a06233681665,64dc7eb0b4214cff76e6c0ea,,,,,,,sngl,resources/DBN.BMP,resources/Empty.png,WildCard_NonEx,-0.378703683,-0.017592607,1,0,0,0.9083,optionLeft,45,12240,6,10,0,10,0,1,,,,,,,,,,,,,,,,,,,,,,,,,,,,,,,,,,,,,,,
,,,,,,,,2023-08-16_08h46.24.338,HF_wild_card,2022.2.4,Win32,60.01680471,6346e117e4e283094ff51b84,64d2fd46c836a06233681665,64dc7eb0b4214cff76e6c0ea,,,,,,,sngl,resources/Empty.png,resources/DP.BMP,Door3,0.453703704,-0.09629631,1,0,0,0.9439,optionRight,70,12310,6,11,0,11,0,1,,,,,,,,,,,,,,,,,,,,,,,,,,,,,,,,,,,,,,,
,,,,,,,,2023-08-16_08h46.24.338,HF_wild_card,2022.2.4,Win32,60.01680471,6346e117e4e283094ff51b84,64d2fd46c836a06233681665,64dc7eb0b4214cff76e6c0ea,,,,,,,sngl,resources/Empty.png,resources/DG.BMP,Door2,0.343518575,-0.015740748,1,0,0,0.9439,optionRight,40,12350,6,12,0,12,0,1,,,,,,,,,,,,,,,,,,,,,,,,,,,,,,,,,,,,,,,
,,,,,,,,2023-08-16_08h46.24.338,HF_wild_card,2022.2.4,Win32,60.01680471,6346e117e4e283094ff51b84,64d2fd46c836a06233681665,64dc7eb0b4214cff76e6c0ea,,,,,,,ctch,resources/DB.BMP,resources/DR.BMP,Door1,-0.262962977,-0.042592614,1,0,0,1.5101,optionLeft,30,12380,6,13,0,13,0,1,,,,,,,,,,,,,,,,,,,,,,,,,,,,,,,,,,,,,,,
,,,,,,,,2023-08-16_08h46.24.338,HF_wild_card,2022.2.4,Win32,60.01680471,6346e117e4e283094ff51b84,64d2fd46c836a06233681665,64dc7eb0b4214cff76e6c0ea,,,,,,,decisionTrl,resources/DG.BMP,resources/DB.BMP,Door2,-0.239814829,-0.002777771,1,0,0,1.7436,optionLeft,40,12420,6,14,0,14,0,1,,,,,,,,,,,,,,,,,,,,,,,,,,,,,,,,,,,,,,,
,,,,,,,,2023-08-16_08h46.24.338,HF_wild_card,2022.2.4,Win32,60.01680471,6346e117e4e283094ff51b84,64d2fd46c836a06233681665,64dc7eb0b4214cff76e6c0ea,,,,,,,decisionTrl,resources/DP.BMP,resources/DR.BMP,Door3,-0.299074067,-0.061111132,1,0,0,1.5937,optionLeft,70,12490,6,15,0,15,0,1,,,,,,,,,,,,,,,,,,,,,,,,,,,,,,,,,,,,,,,
,,,,,,,,2023-08-16_08h46.24.338,HF_wild_card,2022.2.4,Win32,60.01680471,6346e117e4e283094ff51b84,64d2fd46c836a06233681665,64dc7eb0b4214cff76e6c0ea,,,,,,,decisionTrl,resources/DB.BMP,resources/DG.BMP,Door2,0.373148176,0.059259238,1,0,0,2.4243,optionRight,20,12510,6,16,0,16,0,1,,,,,,,,,,,,,,,,,,,,,,,,,,,,,,,,,,,,,,,
,,,,,,,,2023-08-16_08h46.24.338,HF_wild_card,2022.2.4,Win32,60.01680471,6346e117e4e283094ff51b84,64d2fd46c836a06233681665,64dc7eb0b4214cff76e6c0ea,,,,,,,decisionTrl,resources/DBN.BMP,resources/DG.BMP,WildCard_NonEx,-0.305555556,0.035185178,1,0,0,1.9633,optionLeft,45,12555,6,17,0,17,0,1,,,,,,,,,,,,,,,,,,,,,,,,,,,,,,,,,,,,,,,
,,,,,,,,2023-08-16_08h46.24.338,HF_wild_card,2022.2.4,Win32,60.01680471,6346e117e4e283094ff51b84,64d2fd46c836a06233681665,64dc7eb0b4214cff76e6c0ea,,,,,,,ctch,resources/DR.BMP,resources/DB.BMP,Door4,-0.470370363,-0.033333355,1,0,0,1.7195,optionLeft,60,12615,6,18,0,18,0,1,,,,,,,,,,,,,,,,,,,,,,,,,,,,,,,,,,,,,,,
,,,,,,,,2023-08-16_08h46.24.338,HF_wild_card,2022.2.4,Win32,60.01680471,6346e117e4e283094ff51b84,64d2fd46c836a06233681665,64dc7eb0b4214cff76e6c0ea,,,,,,,sngl,resources/Empty.png,resources/DB.BMP,Door1,0.464814787,0.045370349,1,0,0,1.0355,optionRight,30,12645,6,19,0,19,0,1,,,,,,,,,,,,,,,,,,,,,,,,,,,,,,,,,,,,,,,
,,,,,,,,2023-08-16_08h46.24.338,HF_wild_card,2022.2.4,Win32,60.01680471,6346e117e4e283094ff51b84,64d2fd46c836a06233681665,64dc7eb0b4214cff76e6c0ea,,,,,,,decisionTrl,resources/DG.BMP,resources/DB.BMP,Door2,-0.237962935,0.014814801,1,0,0,1.6286,optionLeft,20,12665,6,20,0,20,0,1,,,,,,,,,,,,,,,,,,,,,,,,,,,,,,,,,,,,,,,
,,,,,,,,2023-08-16_08h46.24.338,HF_wild_card,2022.2.4,Win32,60.01680471,6346e117e4e283094ff51b84,64d2fd46c836a06233681665,64dc7eb0b4214cff76e6c0ea,,,,,,,sngl,resources/DP.BMP,resources/Empty.png,Door3,-0.375925912,0.087037016,1,0,0,1.2385,optionLeft,70,12735,6,21,0,21,0,1,,,,,,,,,,,,,,,,,,,,,,,,,,,,,,,,,,,,,,,
,,,,,,,,2023-08-16_08h46.24.338,HF_wild_card,2022.2.4,Win32,60.01680471,6346e117e4e283094ff51b84,64d2fd46c836a06233681665,64dc7eb0b4214cff76e6c0ea,,,,,,,sngl,resources/DR.BMP,resources/Empty.png,Door4,-0.347222222,-0.024074095,1,0,0,1.0101,optionLeft,60,12795,6,22,0,22,0,1,,,,,,,,,,,,,,,,,,,,,,,,,,,,,,,,,,,,,,,
,,,,,,,,2023-08-16_08h46.24.338,HF_wild_card,2022.2.4,Win32,60.01680471,6346e117e4e283094ff51b84,64d2fd46c836a06233681665,64dc7eb0b4214cff76e6c0ea,,,,,,,decisionTrl,resources/DB.BMP,resources/DG.BMP,Door1,-0.252777735,-0.026851866,1,0,0,2.2541,optionLeft,30,12825,6,23,0,23,0,1,,,,,,,,,,,,,,,,,,,,,,,,,,,,,,,,,,,,,,,
,,,,,,,,2023-08-16_08h46.24.338,HF_wild_card,2022.2.4,Win32,60.01680471,6346e117e4e283094ff51b84,64d2fd46c836a06233681665,64dc7eb0b4214cff76e6c0ea,,,,,,,decisionTrl,resources/DR.BMP,resources/DP.BMP,Door3,0.420370455,-0.056481503,1,0,0,2.9628,optionRight,70,12895,6,24,0,24,0,1,,,,,,,,,,,,,,,,,,,,,,,,,,,,,,,,,,,,,,,
,,,,,,,,2023-08-16_08h46.24.338,HF_wild_card,2022.2.4,Win32,60.01680471,6346e117e4e283094ff51b84,64d2fd46c836a06233681665,64dc7eb0b4214cff76e6c0ea,,,,,,,decisionTrl,resources/DR.BMP,resources/DP.BMP,Door3,0.357407464,-0.071296303,1,0,0,1.8512,optionRight,70,12965,6,25,0,25,0,1,,,,,,,,,,,,,,,,,,,,,,,,,,,,,,,,,,,,,,,
,,,,,,,,2023-08-16_08h46.24.338,HF_wild_card,2022.2.4,Win32,60.01680471,6346e117e4e283094ff51b84,64d2fd46c836a06233681665,64dc7eb0b4214cff76e6c0ea,,,,,,,sngl,resources/Empty.png,resources/DBN.BMP,WildCard_NonEx,0.42314812,-0.039814808,1,0,0,1.061,optionRight,45,13010,6,26,0,26,0,1,,,,,,,,,,,,,,,,,,,,,,,,,,,,,,,,,,,,,,,
,,,,,,,,2023-08-16_08h46.24.338,HF_wild_card,2022.2.4,Win32,60.01680471,6346e117e4e283094ff51b84,64d2fd46c836a06233681665,64dc7eb0b4214cff76e6c0ea,,,,,,,decisionTrl,resources/DG.BMP,resources/DB.BMP,Door1,0.42314812,-0.027777778,1,0,0,2.7264,optionRight,30,13040,6,27,0,27,0,1,,,,,,,,,,,,,,,,,,,,,,,,,,,,,,,,,,,,,,,
,,,,,,,,2023-08-16_08h46.24.338,HF_wild_card,2022.2.4,Win32,60.01680471,6346e117e4e283094ff51b84,64d2fd46c836a06233681665,64dc7eb0b4214cff76e6c0ea,,,,,,,ctch,resources/DR.BMP,resources/DB.BMP,Door4,-0.297222208,-0.006481489,1,0,0,2.5929,optionLeft,60,13100,6,28,0,28,0,1,,,,,,,,,,,,,,,,,,,,,,,,,,,,,,,,,,,,,,,
,,,,,,,,2023-08-16_08h46.24.338,HF_wild_card,2022.2.4,Win32,60.01680471,6346e117e4e283094ff51b84,64d2fd46c836a06233681665,64dc7eb0b4214cff76e6c0ea,,,,,,,decisionTrl,resources/DP.BMP,resources/DR.BMP,Door3,-0.312037044,-0.020370377,1,0,0,2.0931,optionLeft,70,13170,6,29,0,29,0,1,,,,,,,,,,,,,,,,,,,,,,,,,,,,,,,,,,,,,,,
,,,,,,,,2023-08-16_08h46.24.338,HF_wild_card,2022.2.4,Win32,60.01680471,6346e117e4e283094ff51b84,64d2fd46c836a06233681665,64dc7eb0b4214cff76e6c0ea,,,,,,,decisionTrl,resources/DBN.BMP,resources/DB.BMP,WildCard_NonEx,-0.295370384,0.02407406,1,0,0,1.66,optionLeft,45,13215,6,30,0,30,0,1,,,,,,,,,,,,,,,,,,,,,,,,,,,,,,,,,,,,,,,
,,,,,,,,2023-08-16_08h46.24.338,HF_wild_card,2022.2.4,Win32,60.01680471,6346e117e4e283094ff51b84,64d2fd46c836a06233681665,64dc7eb0b4214cff76e6c0ea,,,,,,,decisionTrl,resources/DBN.BMP,resources/DP.BMP,Door3,0.444444444,0.002777771,1,0,0,1.6251,optionRight,70,13285,6,31,0,31,0,1,,,,,,,,,,,,,,,,,,,,,,,,,,,,,,,,,,,,,,,
,,,,,,,,2023-08-16_08h46.24.338,HF_wild_card,2022.2.4,Win32,60.01680471,6346e117e4e283094ff51b84,64d2fd46c836a06233681665,64dc7eb0b4214cff76e6c0ea,,,,,,,sngl,resources/Empty.png,resources/DR.BMP,Door4,0.291666667,-0.008333347,1,0,0,1.1252,optionRight,80,13365,6,32,0,32,0,1,,,,,,,,,,,,,,,,,,,,,,,,,,,,,,,,,,,,,,,
,,,,,,,,2023-08-16_08h46.24.338,HF_wild_card,2022.2.4,Win32,60.01680471,6346e117e4e283094ff51b84,64d2fd46c836a06233681665,64dc7eb0b4214cff76e6c0ea,,,,,,,decisionTrl,resources/DP.BMP,resources/DBN.BMP,Door3,-0.405555548,-0.040740755,1,0,0,1.5951,optionLeft,70,13435,6,33,0,33,0,1,,,,,,,,,,,,,,,,,,,,,,,,,,,,,,,,,,,,,,,
,,,,,,,,2023-08-16_08h46.24.338,HF_wild_card,2022.2.4,Win32,60.01680471,6346e117e4e283094ff51b84,64d2fd46c836a06233681665,64dc7eb0b4214cff76e6c0ea,,,,,,,sngl,resources/Empty.png,resources/DBN.BMP,WildCard_NonEx,0.333333333,0.02407406,1,0,0,1.2434,optionRight,55,13490,6,34,0,34,0,1,,,,,,,,,,,,,,,,,,,,,,,,,,,,,,,,,,,,,,,
,,,,,,,,2023-08-16_08h46.24.338,HF_wild_card,2022.2.4,Win32,60.01680471,6346e117e4e283094ff51b84,64d2fd46c836a06233681665,64dc7eb0b4214cff76e6c0ea,,,,,,,ctch,resources/DG.BMP,resources/DP.BMP,Door3,0.332407492,-0.017592607,1,0,0,1.7622,optionRight,70,13560,6,35,0,35,0,1,,,,,,,,,,,,,,,,,,,,,,,,,,,,,,,,,,,,,,,
,,,,,,,,2023-08-16_08h46.24.338,HF_wild_card,2022.2.4,Win32,60.01680471,6346e117e4e283094ff51b84,64d2fd46c836a06233681665,64dc7eb0b4214cff76e6c0ea,,,,,,,ctch,resources/DP.BMP,resources/DG.BMP,Door3,-0.274999972,0.005555541,1,0,0,1.6106,optionLeft,70,13630,6,36,0,36,0,1,,,,,,,,,,,,,,,,,,,,,,,,,,,,,,,,,,,,,,,
,,,,,,,,2023-08-16_08h46.24.338,HF_wild_card,2022.2.4,Win32,60.01680471,6346e117e4e283094ff51b84,64d2fd46c836a06233681665,64dc7eb0b4214cff76e6c0ea,,,,,,,sngl,resources/DBN.BMP,resources/Empty.png,WildCard_NonEx,-0.324999986,-0.028703725,1,0,0,1.0272,optionLeft,55,13685,6,37,0,37,0,1,,,,,,,,,,,,,,,,,,,,,,,,,,,,,,,,,,,,,,,
,,,,,,,,2023-08-16_08h46.24.338,HF_wild_card,2022.2.4,Win32,60.01680471,6346e117e4e283094ff51b84,64d2fd46c836a06233681665,64dc7eb0b4214cff76e6c0ea,,,,,,,ctch,resources/DB.BMP,resources/DR.BMP,Door4,0.375925982,-0.0074074,1,0,0,1.6888,optionRight,60,13745,6,38,0,38,0,1,,,,,,,,,,,,,,,,,,,,,,,,,,,,,,,,,,,,,,,
,,,,,,,,2023-08-16_08h46.24.338,HF_wild_card,2022.2.4,Win32,60.01680471,6346e117e4e283094ff51b84,64d2fd46c836a06233681665,64dc7eb0b4214cff76e6c0ea,,,,,,,decisionTrl,resources/DB.BMP,resources/DG.BMP,Door1,-0.300925926,-0.033333355,1,0,0,3.0938,optionLeft,30,13775,6,39,0,39,0,1,,,,,,,,,,,,,,,,,,,,,,,,,,,,,,,,,,,,,,,
,,,,,,,,2023-08-16_08h46.24.338,HF_wild_card,2022.2.4,Win32,60.01680471,6346e117e4e283094ff51b84,64d2fd46c836a06233681665,64dc7eb0b4214cff76e6c0ea,,,,,,,sngl,resources/DG.BMP,resources/Empty.png,Door2,-0.299999979,-0.018518519,1,0,0,1.0093,optionLeft,20,13795,6,40,0,40,0,1,,,,,,,,,,,,,,,,,,,,,,,,,,,,,,,,,,,,,,,
,,,,,,,,2023-08-16_08h46.24.338,HF_wild_card,2022.2.4,Win32,60.01680471,6346e117e4e283094ff51b84,64d2fd46c836a06233681665,64dc7eb0b4214cff76e6c0ea,,,,,,,decisionTrl,resources/DP.BMP,resources/DR.BMP,Door3,-0.362037023,-0.043518526,1,0,0,1.6613,optionLeft,70,13865,6,41,0,41,0,1,,,,,,,,,,,,,,,,,,,,,,,,,,,,,,,,,,,,,,,
,,,,,,,,2023-08-16_08h46.24.338,HF_wild_card,2022.2.4,Win32,60.01680471,6346e117e4e283094ff51b84,64d2fd46c836a06233681665,64dc7eb0b4214cff76e6c0ea,,,,,,,decisionTrl,resources/DBN.BMP,resources/DR.BMP,Door4,0.425000085,0.0074074,1,0,0,1.9105,optionRight,60,13925,6,42,0,42,0,1,,,,,,,,,,,,,,,,,,,,,,,,,,,,,,,,,,,,,,,
,,,,,,,,2023-08-16_08h46.24.338,HF_wild_card,2022.2.4,Win32,60.01680471,6346e117e4e283094ff51b84,64d2fd46c836a06233681665,64dc7eb0b4214cff76e6c0ea,,,,,,,ctch,resources/DP.BMP,resources/DG.BMP,Door3,-0.380555541,-0.044444437,1,0,0,1.5612,optionLeft,70,13995,6,43,0,43,0,1,,,,,,,,,,,,,,,,,,,,,,,,,,,,,,,,,,,,,,,
,,,,,,,,2023-08-16_08h46.24.338,HF_wild_card,2022.2.4,Win32,60.01680471,6346e117e4e283094ff51b84,64d2fd46c836a06233681665,64dc7eb0b4214cff76e6c0ea,,,,,,,,,,,,,,,,,,,,,,,,,,5,0,5,0,1,,,,,,,,,,,,,,,,,,,,,,,,,,,,,,,,,,
,,,,,,,,2023-08-16_08h46.24.338,HF_wild_card,2022.2.4,Win32,60.01680471,6346e117e4e283094ff51b84,64d2fd46c836a06233681665,64dc7eb0b4214cff76e6c0ea,,,,,,,decisionTrl,resources/DP.BMP,resources/DR.BMP,Door3,-0.332407386,-0.074074074,1,0,0,1.4675,optionLeft,70,14065,7,0,0,0,0,1,,,,,,,,,,,,,,,,,,,,,,,,,,,,,,,,,,,,,,,
,,,,,,,,2023-08-16_08h46.24.338,HF_wild_card,2022.2.4,Win32,60.01680471,6346e117e4e283094ff51b84,64d2fd46c836a06233681665,64dc7eb0b4214cff76e6c0ea,,,,,,,decisionTrl,resources/DP.BMP,resources/DR.BMP,Door3,-0.343518504,-0.045370384,1,0,0,1.409,optionLeft,70,14135,7,1,0,1,0,1,,,,,,,,,,,,,,,,,,,,,,,,,,,,,,,,,,,,,,,
,,,,,,,,2023-08-16_08h46.24.338,HF_wild_card,2022.2.4,Win32,60.01680471,6346e117e4e283094ff51b84,64d2fd46c836a06233681665,64dc7eb0b4214cff76e6c0ea,,,,,,,decisionTrl,resources/DG.BMP,resources/DB.BMP,Door1,0.281481496,-0.002777771,1,0,0,2.8694,optionRight,30,14165,7,2,0,2,0,1,,,,,,,,,,,,,,,,,,,,,,,,,,,,,,,,,,,,,,,
,,,,,,,,2023-08-16_08h46.24.338,HF_wild_card,2022.2.4,Win32,60.01680471,6346e117e4e283094ff51b84,64d2fd46c836a06233681665,64dc7eb0b4214cff76e6c0ea,,,,,,,decisionTrl,resources/DB.BMP,resources/DG.BMP,Door1,-0.273148148,-0.037962984,1,0,0,2.2022,optionLeft,30,14195,7,3,0,3,0,1,,,,,,,,,,,,,,,,,,,,,,,,,,,,,,,,,,,,,,,
,,,,,,,,2023-08-16_08h46.24.338,HF_wild_card,2022.2.4,Win32,60.01680471,6346e117e4e283094ff51b84,64d2fd46c836a06233681665,64dc7eb0b4214cff76e6c0ea,,,,,,,decisionTrl,resources/DG.BMP,resources/DB.BMP,Door1,0.323148233,-0.041666667,1,0,0,2.2636,optionRight,30,14225,7,4,0,4,0,1,,,,,,,,,,,,,,,,,,,,,,,,,,,,,,,,,,,,,,,
,,,,,,,,2023-08-16_08h46.24.338,HF_wild_card,2022.2.4,Win32,60.01680471,6346e117e4e283094ff51b84,64d2fd46c836a06233681665,64dc7eb0b4214cff76e6c0ea,,,,,,,ctch,resources/DB.BMP,resources/DR.BMP,Door4,0.300000085,0.008333312,1,0,0,2.1807,optionRight,80,14305,7,5,0,5,0,1,,,,,,,,,,,,,,,,,,,,,,,,,,,,,,,,,,,,,,,
,,,,,,,,2023-08-16_08h46.24.338,HF_wild_card,2022.2.4,Win32,60.01680471,6346e117e4e283094ff51b84,64d2fd46c836a06233681665,64dc7eb0b4214cff76e6c0ea,,,,,,,decisionTrl,resources/DG.BMP,resources/DB.BMP,Door2,-0.313888868,-0.001851859,1,0,0,1.8126,optionLeft,20,14325,7,6,0,6,0,1,,,,,,,,,,,,,,,,,,,,,,,,,,,,,,,,,,,,,,,
,,,,,,,,2023-08-16_08h46.24.338,HF_wild_card,2022.2.4,Win32,60.01680471,6346e117e4e283094ff51b84,64d2fd46c836a06233681665,64dc7eb0b4214cff76e6c0ea,,,,,,,decisionTrl,resources/DR.BMP,resources/DP.BMP,Door3,0.341666751,-0.032407407,1,0,0,1.5301,optionRight,70,14395,7,7,0,7,0,1,,,,,,,,,,,,,,,,,,,,,,,,,,,,,,,,,,,,,,,
,,,,,,,,2023-08-16_08h46.24.338,HF_wild_card,2022.2.4,Win32,60.01680471,6346e117e4e283094ff51b84,64d2fd46c836a06233681665,64dc7eb0b4214cff76e6c0ea,,,,,,,decisionTrl,resources/DR.BMP,resources/DP.BMP,Door3,0.347222222,-0.043518526,1,0,0,1.7476,optionRight,70,14465,7,8,0,8,0,1,,,,,,,,,,,,,,,,,,,,,,,,,,,,,,,,,,,,,,,
,,,,,,,,2023-08-16_08h46.24.338,HF_wild_card,2022.2.4,Win32,60.01680471,6346e117e4e283094ff51b84,64d2fd46c836a06233681665,64dc7eb0b4214cff76e6c0ea,,,,,,,ctch,resources/DP.BMP,resources/DG.BMP,Door3,-0.299074067,0.003703683,1,0,0,1.4624,optionLeft,70,14535,7,9,0,9,0,1,,,,,,,,,,,,,,,,,,,,,,,,,,,,,,,,,,,,,,,
,,,,,,,,2023-08-16_08h46.24.338,HF_wild_card,2022.2.4,Win32,60.01680471,6346e117e4e283094ff51b84,64d2fd46c836a06233681665,64dc7eb0b4214cff76e6c0ea,,,,,,,decisionTrl,resources/DR.BMP,resources/DP.BMP,Door3,0.363888917,-0.08888891,1,0,0,1.7963,optionRight,70,14605,7,10,0,10,0,1,,,,,,,,,,,,,,,,,,,,,,,,,,,,,,,,,,,,,,,
,,,,,,,,2023-08-16_08h46.24.338,HF_wild_card,2022.2.4,Win32,60.01680471,6346e117e4e283094ff51b84,64d2fd46c836a06233681665,64dc7eb0b4214cff76e6c0ea,,,,,,,decisionTrl,resources/DR.BMP,resources/DP.BMP,Door3,0.283333319,-0.053703697,1,0,0,1.597,optionRight,70,14675,7,11,0,11,0,1,,,,,,,,,,,,,,,,,,,,,,,,,,,,,,,,,,,,,,,
,,,,,,,,2023-08-16_08h46.24.338,HF_wild_card,2022.2.4,Win32,60.01680471,6346e117e4e283094ff51b84,64d2fd46c836a06233681665,64dc7eb0b4214cff76e6c0ea,,,,,,,ctch,resources/DG.BMP,resources/DP.BMP,Door3,0.390740712,-0.026851866,1,0,0,1.4624,optionRight,70,14745,7,12,0,12,0,1,,,,,,,,,,,,,,,,,,,,,,,,,,,,,,,,,,,,,,,
,,,,,,,,2023-08-16_08h46.24.338,HF_wild_card,2022.2.4,Win32,60.01680471,6346e117e4e283094ff51b84,64d2fd46c836a06233681665,64dc7eb0b4214cff76e6c0ea,,,,,,,decisionTrl,resources/DR.BMP,resources/DP.BMP,Door3,0.367592564,-0.050925926,1,0,0,1.5797,optionRight,70,14815,7,13,0,13,0,1,,,,,,,,,,,,,,,,,,,,,,,,,,,,,,,,,,,,,,,
,,,,,,,,2023-08-16_08h46.24.338,HF_wild_card,2022.2.4,Win32,60.01680471,6346e117e4e283094ff51b84,64d2fd46c836a06233681665,64dc7eb0b4214cff76e6c0ea,,,,,,,decisionTrl,resources/DR.BMP,resources/DP.BMP,Door3,0.318518603,-0.058333326,1,0,0,1.3891,optionRight,70,14885,7,14,0,14,0,1,,,,,,,,,,,,,,,,,,,,,,,,,,,,,,,,,,,,,,,
,,,,,,,,2023-08-16_08h46.24.338,HF_wild_card,2022.2.4,Win32,60.01680471,6346e117e4e283094ff51b84,64d2fd46c836a06233681665,64dc7eb0b4214cff76e6c0ea,,,,,,,ctch,resources/DR.BMP,resources/DB.BMP,Door4,-0.299074067,-0.015740748,1,0,0,2.1488,optionLeft,60,14945,7,15,0,15,0,1,,,,,,,,,,,,,,,,,,,,,,,,,,,,,,,,,,,,,,,
,,,,,,,,2023-08-16_08h46.24.338,HF_wild_card,2022.2.4,Win32,60.01680471,6346e117e4e283094ff51b84,64d2fd46c836a06233681665,64dc7eb0b4214cff76e6c0ea,,,,,,,decisionTrl,resources/DP.BMP,resources/DR.BMP,Door3,-0.304629608,-0.066666674,1,0,0,1.8114,optionLeft,70,15015,7,16,0,16,0,1,,,,,,,,,,,,,,,,,,,,,,,,,,,,,,,,,,,,,,,
,,,,,,,,2023-08-16_08h46.24.338,HF_wild_card,2022.2.4,Win32,60.01680471,6346e117e4e283094ff51b84,64d2fd46c836a06233681665,64dc7eb0b4214cff76e6c0ea,,,,,,,decisionTrl,resources/DB.BMP,resources/DG.BMP,Door1,-0.276851866,-0.046296296,1,0,0,1.8628,optionLeft,30,15045,7,17,0,17,0,1,,,,,,,,,,,,,,,,,,,,,,,,,,,,,,,,,,,,,,,
,,,,,,,,2023-08-16_08h46.24.338,HF_wild_card,2022.2.4,Win32,60.01680471,6346e117e4e283094ff51b84,64d2fd46c836a06233681665,64dc7eb0b4214cff76e6c0ea,,,,,,,ctch,resources/DB.BMP,resources/DR.BMP,Door4,0.421296296,-0.058333326,1,0,0,1.4608,optionRight,80,15125,7,18,0,18,0,1,,,,,,,,,,,,,,,,,,,,,,,,,,,,,,,,,,,,,,,
,,,,,,,,2023-08-16_08h46.24.338,HF_wild_card,2022.2.4,Win32,60.01680471,6346e117e4e283094ff51b84,64d2fd46c836a06233681665,64dc7eb0b4214cff76e6c0ea,,,,,,,decisionTrl,resources/DP.BMP,resources/DR.BMP,Door3,-0.338888875,-0.083333333,1,0,0,1.761,optionLeft,70,15195,7,19,0,19,0,1,,,,,,,,,,,,,,,,,,,,,,,,,,,,,,,,,,,,,,,
,,,,,,,,2023-08-16_08h46.24.338,HF_wild_card,2022.2.4,Win32,60.01680471,6346e117e4e283094ff51b84,64d2fd46c836a06233681665,64dc7eb0b4214cff76e6c0ea,,,,,,,ctch,resources/DG.BMP,resources/DP.BMP,Door3,0.342592593,-0.073148162,1,0,0,1.5784,optionRight,70,15265,7,20,0,20,0,1,,,,,,,,,,,,,,,,,,,,,,,,,,,,,,,,,,,,,,,
,,,,,,,,2023-08-16_08h46.24.338,HF_wild_card,2022.2.4,Win32,60.01680471,6346e117e4e283094ff51b84,64d2fd46c836a06233681665,64dc7eb0b4214cff76e6c0ea,,,,,,,decisionTrl,resources/DB.BMP,resources/DG.BMP,Door1,-0.319444444,-0.050925926,1,0,0,1.4132,optionLeft,30,15295,7,21,0,21,0,1,,,,,,,,,,,,,,,,,,,,,,,,,,,,,,,,,,,,,,,
,,,,,,,,2023-08-16_08h46.24.338,HF_wild_card,2022.2.4,Win32,60.01680471,6346e117e4e283094ff51b84,64d2fd46c836a06233681665,64dc7eb0b4214cff76e6c0ea,,,,,,,decisionTrl,resources/DB.BMP,resources/DG.BMP,Door1,-0.335185192,-0.030555548,1,0,0,2.1482,optionLeft,30,15325,7,22,0,22,0,1,,,,,,,,,,,,,,,,,,,,,,,,,,,,,,,,,,,,,,,
,,,,,,,,2023-08-16_08h46.24.338,HF_wild_card,2022.2.4,Win32,60.01680471,6346e117e4e283094ff51b84,64d2fd46c836a06233681665,64dc7eb0b4214cff76e6c0ea,,,,,,,ctch,resources/DG.BMP,resources/DP.BMP,Door3,0.42314812,-0.003703718,1,0,0,1.1637,optionRight,70,15395,7,23,0,23,0,1,,,,,,,,,,,,,,,,,,,,,,,,,,,,,,,,,,,,,,,
,,,,,,,,2023-08-16_08h46.24.338,HF_wild_card,2022.2.4,Win32,60.01680471,6346e117e4e283094ff51b84,64d2fd46c836a06233681665,64dc7eb0b4214cff76e6c0ea,,,,,,,ctch,resources/DR.BMP,resources/DB.BMP,Door4,-0.302777785,-0.014814836,1,0,0,1.4115,optionLeft,60,15455,7,24,0,24,0,1,,,,,,,,,,,,,,,,,,,,,,,,,,,,,,,,,,,,,,,
,,,,,,,,2023-08-16_08h46.24.338,HF_wild_card,2022.2.4,Win32,60.01680471,6346e117e4e283094ff51b84,64d2fd46c836a06233681665,64dc7eb0b4214cff76e6c0ea,,,,,,,decisionTrl,resources/DP.BMP,resources/DR.BMP,Door3,-0.354629623,0.014814801,1,0,0,1.6068,optionLeft,70,15525,7,25,0,25,0,1,,,,,,,,,,,,,,,,,,,,,,,,,,,,,,,,,,,,,,,
,,,,,,,,2023-08-16_08h46.24.338,HF_wild_card,2022.2.4,Win32,60.01680471,6346e117e4e283094ff51b84,64d2fd46c836a06233681665,64dc7eb0b4214cff76e6c0ea,,,,,,,decisionTrl,resources/DG.BMP,resources/DB.BMP,Door1,0.372222194,-0.013888889,1,0,0,1.7956,optionRight,30,15555,7,26,0,26,0,1,,,,,,,,,,,,,,,,,,,,,,,,,,,,,,,,,,,,,,,
,,,,,,,,2023-08-16_08h46.24.338,HF_wild_card,2022.2.4,Win32,60.01680471,6346e117e4e283094ff51b84,64d2fd46c836a06233681665,64dc7eb0b4214cff76e6c0ea,,,,,,,decisionTrl,resources/DB.BMP,resources/DG.BMP,Door1,-0.276851866,-0.025000007,1,0,0,1.4306,optionLeft,30,15585,7,27,0,27,0,1,,,,,,,,,,,,,,,,,,,,,,,,,,,,,,,,,,,,,,,
,,,,,,,,2023-08-16_08h46.24.338,HF_wild_card,2022.2.4,Win32,60.01680471,6346e117e4e283094ff51b84,64d2fd46c836a06233681665,64dc7eb0b4214cff76e6c0ea,,,,,,,decisionTrl,resources/DB.BMP,resources/DG.BMP,Door1,-0.337962963,-0.026851866,1,0,0,1.5314,optionLeft,30,15615,7,28,0,28,0,1,,,,,,,,,,,,,,,,,,,,,,,,,,,,,,,,,,,,,,,
,,,,,,,,2023-08-16_08h46.24.338,HF_wild_card,2022.2.4,Win32,60.01680471,6346e117e4e283094ff51b84,64d2fd46c836a06233681665,64dc7eb0b4214cff76e6c0ea,,,,,,,decisionTrl,resources/DG.BMP,resources/DB.BMP,Door1,0.30277775,-0.023148148,1,0,0,1.7021,optionRight,30,15645,7,29,0,29,0,1,,,,,,,,,,,,,,,,,,,,,,,,,,,,,,,,,,,,,,,
,,,,,,,,2023-08-16_08h46.24.338,HF_wild_card,2022.2.4,Win32,60.01680471,6346e117e4e283094ff51b84,64d2fd46c836a06233681665,64dc7eb0b4214cff76e6c0ea,,,,,,,decisionTrl,resources/DP.BMP,resources/DR.BMP,Door3,-0.347222222,-0.075000021,1,0,0,1.6311,optionLeft,70,15715,7,30,0,30,0,1,,,,,,,,,,,,,,,,,,,,,,,,,,,,,,,,,,,,,,,
,,,,,,,,2023-08-16_08h46.24.338,HF_wild_card,2022.2.4,Win32,60.01680471,6346e117e4e283094ff51b84,64d2fd46c836a06233681665,64dc7eb0b4214cff76e6c0ea,,,,,,,ctch,resources/DB.BMP,resources/DR.BMP,Door4,0.476851852,0,1,0,0,1.6734,optionRight,60,15775,7,31,0,31,0,1,,,,,,,,,,,,,,,,,,,,,,,,,,,,,,,,,,,,,,,
,,,,,,,,2023-08-16_08h46.24.338,HF_wild_card,2022.2.4,Win32,60.01680471,6346e117e4e283094ff51b84,64d2fd46c836a06233681665,64dc7eb0b4214cff76e6c0ea,,,,,,,ctch,resources/DP.BMP,resources/DG.BMP,Door3,-0.297222208,-0.066666674,1,0,0,1.4206,optionLeft,70,15845,7,32,0,32,0,1,,,,,,,,,,,,,,,,,,,,,,,,,,,,,,,,,,,,,,,
,,,,,,,,2023-08-16_08h46.24.338,HF_wild_card,2022.2.4,Win32,60.01680471,6346e117e4e283094ff51b84,64d2fd46c836a06233681665,64dc7eb0b4214cff76e6c0ea,,,,,,,ctch,resources/DR.BMP,resources/DB.BMP,Door4,-0.312037044,-0.014814836,1,0,0,1.2317,optionLeft,60,15905,7,33,0,33,0,1,,,,,,,,,,,,,,,,,,,,,,,,,,,,,,,,,,,,,,,
,,,,,,,,2023-08-16_08h46.24.338,HF_wild_card,2022.2.4,Win32,60.01680471,6346e117e4e283094ff51b84,64d2fd46c836a06233681665,64dc7eb0b4214cff76e6c0ea,,,,,,,decisionTrl,resources/DG.BMP,resources/DB.BMP,Door1,0.297222279,-0.034259266,1,0,0,2.5313,optionRight,30,15935,7,34,0,34,0,1,,,,,,,,,,,,,,,,,,,,,,,,,,,,,,,,,,,,,,,
,,,,,,,,2023-08-16_08h46.24.338,HF_wild_card,2022.2.4,Win32,60.01680471,6346e117e4e283094ff51b84,64d2fd46c836a06233681665,64dc7eb0b4214cff76e6c0ea,,,,,,,ctch,resources/DP.BMP,resources/DG.BMP,Door3,-0.325925933,-0.073148162,1,0,0,1.2974,optionLeft,70,16005,7,35,0,35,0,1,,,,,,,,,,,,,,,,,,,,,,,,,,,,,,,,,,,,,,,
,,,,,,,,2023-08-16_08h46.24.338,HF_wild_card,2022.2.4,Win32,60.01680471,6346e117e4e283094ff51b84,64d2fd46c836a06233681665,64dc7eb0b4214cff76e6c0ea,,,,,,,,,,,,,,,,,,,,,,,,,,6,0,6,0,1,,,,,,,,,,,,,,,,,,,,,,,,,,,,,,,,,,
,,,,,,,,2023-08-16_08h46.24.338,HF_wild_card,2022.2.4,Win32,60.01680471,6346e117e4e283094ff51b84,64d2fd46c836a06233681665,64dc7eb0b4214cff76e6c0ea,,,,,,,,,,,,,,,,,,,,,,,,,,,,,,,4,,,,,,,,,,,,,,,,,,,,,,,,,,,,,,,,,
,,,,,,,,2023-08-16_08h46.24.338,HF_wild_card,2022.2.4,Win32,60.01680471,6346e117e4e283094ff51b84,64d2fd46c836a06233681665,64dc7eb0b4214cff76e6c0ea,,,,,,,,,,,,,,,,,,,,,,,,,,,,,,,,,,,,,,,,,,,,,,,,,,,,,,,,,,,,,,,,
,,,,,,,,2023-08-16_08h46.24.338,HF_wild_card,2022.2.4,Win32,60.01680471,6346e117e4e283094ff51b84,64d2fd46c836a06233681665,64dc7eb0b4214cff76e6c0ea,,,,,,,,,,,,,,,,,,,,,,,,,,,,,,,,60,Door4,resources/DR.BMP,0,0,0,0,1,,,,,,,,,,,,,,,,,,,,,,,,,
,,,,,,,,2023-08-16_08h46.24.338,HF_wild_card,2022.2.4,Win32,60.01680471,6346e117e4e283094ff51b84,64d2fd46c836a06233681665,64dc7eb0b4214cff76e6c0ea,,,,,,,,,,,,,,,,,,,,,,,,,,,,,,,,70,Door3,resources/DP.BMP,1,0,1,0,1,,,,,,,,,,,,,,,,,,,,,,,,,
,,,,,,,,2023-08-16_08h46.24.338,HF_wild_card,2022.2.4,Win32,60.01680471,6346e117e4e283094ff51b84,64d2fd46c836a06233681665,64dc7eb0b4214cff76e6c0ea,,,,,,,,,,,,,,,,,,,,,,,,,,,,,,,,20,Door2,resources/DG.BMP,2,0,2,0,1,,,,,,,,,,,,,,,,,,,,,,,,,
,,,,,,,,2023-08-16_08h46.24.338,HF_wild_card,2022.2.4,Win32,60.01680471,6346e117e4e283094ff51b84,64d2fd46c836a06233681665,64dc7eb0b4214cff76e6c0ea,,,,,,,,,,,,,,,,,,,,,,,,,,,,,,,,95,WC_extreme,resources/DY.BMP,3,0,3,0,1,,,,,,,,,,,,,,,,,,,,,,,,,
,,,,,,,,2023-08-16_08h46.24.338,HF_wild_card,2022.2.4,Win32,60.01680471,6346e117e4e283094ff51b84,64d2fd46c836a06233681665,64dc7eb0b4214cff76e6c0ea,,,,,,,,,,,,,,,,,,,,,,,,,,,,,,,,30,Door1,resources/DB.BMP,4,0,4,0,1,,,,,,,,,,,,,,,,,,,,,,,,,
,,,,,,,,2023-08-16_08h46.24.338,HF_wild_card,2022.2.4,Win32,60.01680471,6346e117e4e283094ff51b84,64d2fd46c836a06233681665,64dc7eb0b4214cff76e6c0ea,,,,,,,,,,,,,,,,,,,,,,,,,,,,,,,,45,WC_nonExtreme,resources/DBN.BMP,5,0,5,0,1,,,,,,,,,,,,,,,,,,,,,,,,,
,,,,,,,,2023-08-16_08h46.24.338,HF_wild_card,2022.2.4,Win32,60.01680471,6346e117e4e283094ff51b84,64d2fd46c836a06233681665,64dc7eb0b4214cff76e6c0ea,,,,,,,,,,,,,,,,,,,,,,,,,,,,,,,,,,,,,,,,,,,,,,,,,,,,,,,,,,,,,,,,
