Condition,Low fixed image (Door1),Low risky image (Door2),High fixed image (Door3),High risky image (Door4),Extreme Wild Card,NonExtreme Wild Card,,date,expName,psychopyVersion,OS,frameRate,PROLIFIC_PID,STUDY_ID,SESSION_ID,mouse_2.x,mouse_2.y,mouse_2.leftButton,mouse_2.midButton,mouse_2.rightButton,mouse_2.clicked_name,Trial Type,Left Option Image,Right Option Image,Chosen Door,mouse.x,mouse.y,mouse.leftButton,mouse.midButton,mouse.rightButton,mouse.time,mouse.clicked_name,Feedback,Cumulative Reward,Block,trial.thisRepN,trial.thisTrialN,trial.thisN,trial.thisIndex,trial.ran,blocks.thisRepN,blocks.thisTrialN,blocks.thisN,blocks.thisIndex,blocks.ran,Money conversion,First Outcome Reported,Shown Door (First Outcome),Displayed Image (First Outcome),outcomes.thisRepN,outcomes.thisTrialN,outcomes.thisN,outcomes.thisIndex,outcomes.ran,judgments.thisRepN,judgments.thisTrialN,judgments.thisN,judgments.thisIndex,judgments.ran,freqMouse.x,freqMouse.y,freqMouse.leftButton,freqMouse.midButton,freqMouse.rightButton,freqMouse.clicked_name,FQJ for first outcome,FQJ for second outcome,Shown Door,Displayed Image,trials.thisRepN,trials.thisTrialN,trials.thisN,trials.thisIndex,trials.ran,judgBlock.thisRepN,judgBlock.thisTrialN,judgBlock.thisN,judgBlock.thisIndex,judgBlock.ran
1,resources/DP.BMP,resources/DB.BMP,resources/DY.BMP,resources/DG.BMP,resources/DR.BMP,resources/DBN.BMP,,2023-08-16_08h48.25.640,HF_wild_card,2022.2.4,MacIntel,59.97361161,5ea925adf0ff0739ccf94b45,64d2fd46c836a06233681665,64dc7f3cdaf0b543d8b5d48d,,,,,,,,,,,,,,,,,,,,,,,,,,,,,,,,,,,,,,,,,,,,,,,,,,,,,,,,,,,,,,,,
,,,,,,,,2023-08-16_08h48.25.640,HF_wild_card,2022.2.4,MacIntel,59.97361161,5ea925adf0ff0739ccf94b45,64d2fd46c836a06233681665,64dc7f3cdaf0b543d8b5d48d,0.002487259,-0.426258545,1,0,0,agree,,,,,,,,,,,,,,,,,,,,,,,,,,,,,,,,,,,,,,,,,,,,,,,,,,,,,,,,,,
,,,,,,,,2023-08-16_08h48.25.640,HF_wild_card,2022.2.4,MacIntel,59.97361161,5ea925adf0ff0739ccf94b45,64d2fd46c836a06233681665,64dc7f3cdaf0b543d8b5d48d,,,,,,,,,,,,,,,,,,,,,,,,,,,,,,,,,,,,,,,,,,,,,,,,,,,,,,,,,,,,,,,,
,,,,,,,,2023-08-16_08h48.25.640,HF_wild_card,2022.2.4,MacIntel,59.97361161,5ea925adf0ff0739ccf94b45,64d2fd46c836a06233681665,64dc7f3cdaf0b543d8b5d48d,,,,,,,sngl,resources/Empty.png,resources/DBN.BMP,WildCard_NonEx,0.28788208,-0.091751251,1,0,0,1.2605,optionRight,45,45,1,0,0,0,0,1,,,,,,,,,,,,,,,,,,,,,,,,,,,,,,,,,,,,,,,
,,,,,,,,2023-08-16_08h48.25.640,HF_wild_card,2022.2.4,MacIntel,59.97361161,5ea925adf0ff0739ccf94b45,64d2fd46c836a06233681665,64dc7f3cdaf0b543d8b5d48d,,,,,,,decisionTrl,resources/DP.BMP,resources/DB.BMP,Door2,0.288261337,-0.026481285,1,0,0,2.3662,optionRight,20,65,1,1,0,1,0,1,,,,,,,,,,,,,,,,,,,,,,,,,,,,,,,,,,,,,,,
,,,,,,,,2023-08-16_08h48.25.640,HF_wild_card,2022.2.4,MacIntel,59.97361161,5ea925adf0ff0739ccf94b45,64d2fd46c836a06233681665,64dc7f3cdaf0b543d8b5d48d,,,,,,,decisionTrl,resources/DY.BMP,resources/DG.BMP,Door3,-0.30332653,0.006604614,1,0,0,1.6673,optionLeft,70,135,1,2,0,2,0,1,,,,,,,,,,,,,,,,,,,,,,,,,,,,,,,,,,,,,,,
,,,,,,,,2023-08-16_08h48.25.640,HF_wild_card,2022.2.4,MacIntel,59.97361161,5ea925adf0ff0739ccf94b45,64d2fd46c836a06233681665,64dc7f3cdaf0b543d8b5d48d,,,,,,,sngl,resources/Empty.png,resources/DY.BMP,Door3,0.292822189,-0.029347496,1,0,0,0.8471,optionRight,70,205,1,3,0,3,0,1,,,,,,,,,,,,,,,,,,,,,,,,,,,,,,,,,,,,,,,
,,,,,,,,2023-08-16_08h48.25.640,HF_wild_card,2022.2.4,MacIntel,59.97361161,5ea925adf0ff0739ccf94b45,64d2fd46c836a06233681665,64dc7f3cdaf0b543d8b5d48d,,,,,,,decisionTrl,resources/DY.BMP,resources/DBN.BMP,WildCard_NonEx,0.240925674,-0.013847084,1,0,0,1.4132,optionRight,55,260,1,4,0,4,0,1,,,,,,,,,,,,,,,,,,,,,,,,,,,,,,,,,,,,,,,
,,,,,,,,2023-08-16_08h48.25.640,HF_wild_card,2022.2.4,MacIntel,59.97361161,5ea925adf0ff0739ccf94b45,64d2fd46c836a06233681665,64dc7f3cdaf0b543d8b5d48d,,,,,,,decisionTrl,resources/DP.BMP,resources/DB.BMP,Door1,-0.218547173,0.020650444,1,0,0,1.1963,optionLeft,30,290,1,5,0,5,0,1,,,,,,,,,,,,,,,,,,,,,,,,,,,,,,,,,,,,,,,
,,,,,,,,2023-08-16_08h48.25.640,HF_wild_card,2022.2.4,MacIntel,59.97361161,5ea925adf0ff0739ccf94b45,64d2fd46c836a06233681665,64dc7f3cdaf0b543d8b5d48d,,,,,,,sngl,resources/DY.BMP,resources/Empty.png,Door3,-0.288940964,0.008555527,1,0,0,0.8454,optionLeft,70,360,1,6,0,6,0,1,,,,,,,,,,,,,,,,,,,,,,,,,,,,,,,,,,,,,,,
,,,,,,,,2023-08-16_08h48.25.640,HF_wild_card,2022.2.4,MacIntel,59.97361161,5ea925adf0ff0739ccf94b45,64d2fd46c836a06233681665,64dc7f3cdaf0b543d8b5d48d,,,,,,,ctch,resources/DP.BMP,resources/DG.BMP,Door4,0.230562439,-0.018058548,1,0,0,1.1651,optionRight,60,420,1,7,0,7,0,1,,,,,,,,,,,,,,,,,,,,,,,,,,,,,,,,,,,,,,,
,,,,,,,,2023-08-16_08h48.25.640,HF_wild_card,2022.2.4,MacIntel,59.97361161,5ea925adf0ff0739ccf94b45,64d2fd46c836a06233681665,64dc7f3cdaf0b543d8b5d48d,,,,,,,decisionTrl,resources/DB.BMP,resources/DBN.BMP,WildCard_NonEx,0.201964951,-0.010893517,1,0,0,1.2817,optionRight,55,475,1,8,0,8,0,1,,,,,,,,,,,,,,,,,,,,,,,,,,,,,,,,,,,,,,,
,,,,,,,,2023-08-16_08h48.25.640,HF_wild_card,2022.2.4,MacIntel,59.97361161,5ea925adf0ff0739ccf94b45,64d2fd46c836a06233681665,64dc7f3cdaf0b543d8b5d48d,,,,,,,decisionTrl,resources/DY.BMP,resources/DG.BMP,Door3,-0.214371605,0.022706833,1,0,0,0.6985,optionLeft,70,545,1,9,0,9,0,1,,,,,,,,,,,,,,,,,,,,,,,,,,,,,,,,,,,,,,,
,,,,,,,,2023-08-16_08h48.25.640,HF_wild_card,2022.2.4,MacIntel,59.97361161,5ea925adf0ff0739ccf94b45,64d2fd46c836a06233681665,64dc7f3cdaf0b543d8b5d48d,,,,,,,ctch,resources/DG.BMP,resources/DP.BMP,Door4,-0.218281822,0.012140808,1,0,0,1.7823,optionLeft,80,625,1,10,0,10,0,1,,,,,,,,,,,,,,,,,,,,,,,,,,,,,,,,,,,,,,,
,,,,,,,,2023-08-16_08h48.25.640,HF_wild_card,2022.2.4,MacIntel,59.97361161,5ea925adf0ff0739ccf94b45,64d2fd46c836a06233681665,64dc7f3cdaf0b543d8b5d48d,,,,,,,sngl,resources/DBN.BMP,resources/Empty.png,WildCard_NonEx,-0.26762619,0.043903503,1,0,0,0.865,optionLeft,55,680,1,11,0,11,0,1,,,,,,,,,,,,,,,,,,,,,,,,,,,,,,,,,,,,,,,
,,,,,,,,2023-08-16_08h48.25.640,HF_wild_card,2022.2.4,MacIntel,59.97361161,5ea925adf0ff0739ccf94b45,64d2fd46c836a06233681665,64dc7f3cdaf0b543d8b5d48d,,,,,,,decisionTrl,resources/DG.BMP,resources/DY.BMP,Door3,0.294969101,0.009404678,1,0,0,1.8983,optionRight,70,750,1,12,0,12,0,1,,,,,,,,,,,,,,,,,,,,,,,,,,,,,,,,,,,,,,,
,,,,,,,,2023-08-16_08h48.25.640,HF_wild_card,2022.2.4,MacIntel,59.97361161,5ea925adf0ff0739ccf94b45,64d2fd46c836a06233681665,64dc7f3cdaf0b543d8b5d48d,,,,,,,sngl,resources/Empty.png,resources/DP.BMP,Door1,0.224656677,-0.038725243,1,0,0,0.7299,optionRight,30,780,1,13,0,13,0,1,,,,,,,,,,,,,,,,,,,,,,,,,,,,,,,,,,,,,,,
,,,,,,,,2023-08-16_08h48.25.640,HF_wild_card,2022.2.4,MacIntel,59.97361161,5ea925adf0ff0739ccf94b45,64d2fd46c836a06233681665,64dc7f3cdaf0b543d8b5d48d,,,,,,,sngl,resources/DB.BMP,resources/Empty.png,Door2,-0.235566711,0.014513741,1,0,0,0.6477,optionLeft,40,820,1,14,0,14,0,1,,,,,,,,,,,,,,,,,,,,,,,,,,,,,,,,,,,,,,,
,,,,,,,,2023-08-16_08h48.25.640,HF_wild_card,2022.2.4,MacIntel,59.97361161,5ea925adf0ff0739ccf94b45,64d2fd46c836a06233681665,64dc7f3cdaf0b543d8b5d48d,,,,,,,decisionTrl,resources/DB.BMP,resources/DP.BMP,Door1,0.246494675,-0.043125114,1,0,0,0.9153,optionRight,30,850,1,15,0,15,0,1,,,,,,,,,,,,,,,,,,,,,,,,,,,,,,,,,,,,,,,
,,,,,,,,2023-08-16_08h48.25.640,HF_wild_card,2022.2.4,MacIntel,59.97361161,5ea925adf0ff0739ccf94b45,64d2fd46c836a06233681665,64dc7f3cdaf0b543d8b5d48d,,,,,,,sngl,resources/DP.BMP,resources/Empty.png,Door1,-0.234603539,-0.016668777,1,0,0,0.7803,optionLeft,30,880,1,16,0,16,0,1,,,,,,,,,,,,,,,,,,,,,,,,,,,,,,,,,,,,,,,
,,,,,,,,2023-08-16_08h48.25.640,HF_wild_card,2022.2.4,MacIntel,59.97361161,5ea925adf0ff0739ccf94b45,64d2fd46c836a06233681665,64dc7f3cdaf0b543d8b5d48d,,,,,,,ctch,resources/DB.BMP,resources/DY.BMP,Door3,0.261532822,-0.020292511,1,0,0,0.8975,optionRight,70,950,1,17,0,17,0,1,,,,,,,,,,,,,,,,,,,,,,,,,,,,,,,,,,,,,,,
,,,,,,,,2023-08-16_08h48.25.640,HF_wild_card,2022.2.4,MacIntel,59.97361161,5ea925adf0ff0739ccf94b45,64d2fd46c836a06233681665,64dc7f3cdaf0b543d8b5d48d,,,,,,,decisionTrl,resources/DB.BMP,resources/DP.BMP,Door2,-0.152509003,-0.006316643,1,0,0,1.2967,optionLeft,40,990,1,18,0,18,0,1,,,,,,,,,,,,,,,,,,,,,,,,,,,,,,,,,,,,,,,
,,,,,,,,2023-08-16_08h48.25.640,HF_wild_card,2022.2.4,MacIntel,59.97361161,5ea925adf0ff0739ccf94b45,64d2fd46c836a06233681665,64dc7f3cdaf0b543d8b5d48d,,,,,,,ctch,resources/DG.BMP,resources/DP.BMP,Door4,-0.206550636,0.003962173,1,0,0,1.0163,optionLeft,80,1070,1,19,0,19,0,1,,,,,,,,,,,,,,,,,,,,,,,,,,,,,,,,,,,,,,,
,,,,,,,,2023-08-16_08h48.25.640,HF_wild_card,2022.2.4,MacIntel,59.97361161,5ea925adf0ff0739ccf94b45,64d2fd46c836a06233681665,64dc7f3cdaf0b543d8b5d48d,,,,,,,decisionTrl,resources/DY.BMP,resources/DG.BMP,Door4,0.234501038,-0.004515991,1,0,0,0.7313,optionRight,60,1130,1,20,0,20,0,1,,,,,,,,,,,,,,,,,,,,,,,,,,,,,,,,,,,,,,,
,,,,,,,,2023-08-16_08h48.25.640,HF_wild_card,2022.2.4,MacIntel,59.97361161,5ea925adf0ff0739ccf94b45,64d2fd46c836a06233681665,64dc7f3cdaf0b543d8b5d48d,,,,,,,sngl,resources/Empty.png,resources/DB.BMP,Door2,0.202522507,-0.019798317,1,0,0,0.7816,optionRight,20,1150,1,21,0,21,0,1,,,,,,,,,,,,,,,,,,,,,,,,,,,,,,,,,,,,,,,
,,,,,,,,2023-08-16_08h48.25.640,HF_wild_card,2022.2.4,MacIntel,59.97361161,5ea925adf0ff0739ccf94b45,64d2fd46c836a06233681665,64dc7f3cdaf0b543d8b5d48d,,,,,,,sngl,resources/DG.BMP,resources/Empty.png,Door4,-0.245637779,0.011433334,1,0,0,0.7829,optionLeft,80,1230,1,22,0,22,0,1,,,,,,,,,,,,,,,,,,,,,,,,,,,,,,,,,,,,,,,
,,,,,,,,2023-08-16_08h48.25.640,HF_wild_card,2022.2.4,MacIntel,59.97361161,5ea925adf0ff0739ccf94b45,64d2fd46c836a06233681665,64dc7f3cdaf0b543d8b5d48d,,,,,,,decisionTrl,resources/DG.BMP,resources/DBN.BMP,Door4,-0.241823196,-0.013036957,1,0,0,0.9647,optionLeft,80,1310,1,23,0,23,0,1,,,,,,,,,,,,,,,,,,,,,,,,,,,,,,,,,,,,,,,
,,,,,,,,2023-08-16_08h48.25.640,HF_wild_card,2022.2.4,MacIntel,59.97361161,5ea925adf0ff0739ccf94b45,64d2fd46c836a06233681665,64dc7f3cdaf0b543d8b5d48d,,,,,,,decisionTrl,resources/DB.BMP,resources/DP.BMP,Door2,-0.27736763,0.023431129,1,0,0,1.1827,optionLeft,20,1330,1,24,0,24,0,1,,,,,,,,,,,,,,,,,,,,,,,,,,,,,,,,,,,,,,,
,,,,,,,,2023-08-16_08h48.25.640,HF_wild_card,2022.2.4,MacIntel,59.97361161,5ea925adf0ff0739ccf94b45,64d2fd46c836a06233681665,64dc7f3cdaf0b543d8b5d48d,,,,,,,ctch,resources/DY.BMP,resources/DB.BMP,Door3,-0.278801117,0.016839142,1,0,0,0.8487,optionLeft,70,1400,1,25,0,25,0,1,,,,,,,,,,,,,,,,,,,,,,,,,,,,,,,,,,,,,,,
,,,,,,,,2023-08-16_08h48.25.640,HF_wild_card,2022.2.4,MacIntel,59.97361161,5ea925adf0ff0739ccf94b45,64d2fd46c836a06233681665,64dc7f3cdaf0b543d8b5d48d,,,,,,,decisionTrl,resources/DB.BMP,resources/DP.BMP,Door2,-0.193012238,-0.016657257,1,0,0,1.1161,optionLeft,20,1420,1,26,0,26,0,1,,,,,,,,,,,,,,,,,,,,,,,,,,,,,,,,,,,,,,,
,,,,,,,,2023-08-16_08h48.25.640,HF_wild_card,2022.2.4,MacIntel,59.97361161,5ea925adf0ff0739ccf94b45,64d2fd46c836a06233681665,64dc7f3cdaf0b543d8b5d48d,,,,,,,decisionTrl,resources/DG.BMP,resources/DY.BMP,Door4,-0.233081627,-0.00775032,1,0,0,1.0975,optionLeft,60,1480,1,27,0,27,0,1,,,,,,,,,,,,,,,,,,,,,,,,,,,,,,,,,,,,,,,
,,,,,,,,2023-08-16_08h48.25.640,HF_wild_card,2022.2.4,MacIntel,59.97361161,5ea925adf0ff0739ccf94b45,64d2fd46c836a06233681665,64dc7f3cdaf0b543d8b5d48d,,,,,,,decisionTrl,resources/DBN.BMP,resources/DP.BMP,Door1,0.200393295,-0.024049263,1,0,0,0.8154,optionRight,30,1510,1,28,0,28,0,1,,,,,,,,,,,,,,,,,,,,,,,,,,,,,,,,,,,,,,,
,,,,,,,,2023-08-16_08h48.25.640,HF_wild_card,2022.2.4,MacIntel,59.97361161,5ea925adf0ff0739ccf94b45,64d2fd46c836a06233681665,64dc7f3cdaf0b543d8b5d48d,,,,,,,sngl,resources/DBN.BMP,resources/Empty.png,WildCard_NonEx,-0.243944664,0.016264954,1,0,0,0.7304,optionLeft,45,1555,1,29,0,29,0,1,,,,,,,,,,,,,,,,,,,,,,,,,,,,,,,,,,,,,,,
,,,,,,,,2023-08-16_08h48.25.640,HF_wild_card,2022.2.4,MacIntel,59.97361161,5ea925adf0ff0739ccf94b45,64d2fd46c836a06233681665,64dc7f3cdaf0b543d8b5d48d,,,,,,,decisionTrl,resources/DBN.BMP,resources/DB.BMP,WildCard_NonEx,-0.216033516,0.028870506,1,0,0,1.1147,optionLeft,45,1600,1,30,0,30,0,1,,,,,,,,,,,,,,,,,,,,,,,,,,,,,,,,,,,,,,,
,,,,,,,,2023-08-16_08h48.25.640,HF_wild_card,2022.2.4,MacIntel,59.97361161,5ea925adf0ff0739ccf94b45,64d2fd46c836a06233681665,64dc7f3cdaf0b543d8b5d48d,,,,,,,sngl,resources/Empty.png,resources/DG.BMP,Door4,0.188213806,-0.015231056,1,0,0,0.7297,optionRight,60,1660,1,31,0,31,0,1,,,,,,,,,,,,,,,,,,,,,,,,,,,,,,,,,,,,,,,
,,,,,,,,2023-08-16_08h48.25.640,HF_wild_card,2022.2.4,MacIntel,59.97361161,5ea925adf0ff0739ccf94b45,64d2fd46c836a06233681665,64dc7f3cdaf0b543d8b5d48d,,,,,,,decisionTrl,resources/DP.BMP,resources/DB.BMP,Door2,0.14612381,0.020004883,1,0,0,2.1906,optionRight,20,1680,1,32,0,32,0,1,,,,,,,,,,,,,,,,,,,,,,,,,,,,,,,,,,,,,,,
,,,,,,,,2023-08-16_08h48.25.640,HF_wild_card,2022.2.4,MacIntel,59.97361161,5ea925adf0ff0739ccf94b45,64d2fd46c836a06233681665,64dc7f3cdaf0b543d8b5d48d,,,,,,,decisionTrl,resources/DP.BMP,resources/DB.BMP,Door1,-0.209733276,-0.010257416,1,0,0,0.797,optionLeft,30,1710,1,33,0,33,0,1,,,,,,,,,,,,,,,,,,,,,,,,,,,,,,,,,,,,,,,
,,,,,,,,2023-08-16_08h48.25.640,HF_wild_card,2022.2.4,MacIntel,59.97361161,5ea925adf0ff0739ccf94b45,64d2fd46c836a06233681665,64dc7f3cdaf0b543d8b5d48d,,,,,,,decisionTrl,resources/DG.BMP,resources/DY.BMP,Door3,0.206324463,-0.019754105,1,0,0,1.3655,optionRight,70,1780,1,34,0,34,0,1,,,,,,,,,,,,,,,,,,,,,,,,,,,,,,,,,,,,,,,
,,,,,,,,2023-08-16_08h48.25.640,HF_wild_card,2022.2.4,MacIntel,59.97361161,5ea925adf0ff0739ccf94b45,64d2fd46c836a06233681665,64dc7f3cdaf0b543d8b5d48d,,,,,,,decisionTrl,resources/DP.BMP,resources/DBN.BMP,WildCard_NonEx,0.191735306,-0.004869843,1,0,0,1.0469,optionRight,55,1835,1,35,0,35,0,1,,,,,,,,,,,,,,,,,,,,,,,,,,,,,,,,,,,,,,,
,,,,,,,,2023-08-16_08h48.25.640,HF_wild_card,2022.2.4,MacIntel,59.97361161,5ea925adf0ff0739ccf94b45,64d2fd46c836a06233681665,64dc7f3cdaf0b543d8b5d48d,,,,,,,ctch,resources/DP.BMP,resources/DG.BMP,Door4,0.228329391,-0.016776161,1,0,0,1.4157,optionRight,60,1895,1,36,0,36,0,1,,,,,,,,,,,,,,,,,,,,,,,,,,,,,,,,,,,,,,,
,,,,,,,,2023-08-16_08h48.25.640,HF_wild_card,2022.2.4,MacIntel,59.97361161,5ea925adf0ff0739ccf94b45,64d2fd46c836a06233681665,64dc7f3cdaf0b543d8b5d48d,,,,,,,sngl,resources/Empty.png,resources/DBN.BMP,WildCard_NonEx,0.312394409,0.008764,1,0,0,0.9809,optionRight,55,1950,1,37,0,37,0,1,,,,,,,,,,,,,,,,,,,,,,,,,,,,,,,,,,,,,,,
,,,,,,,,2023-08-16_08h48.25.640,HF_wild_card,2022.2.4,MacIntel,59.97361161,5ea925adf0ff0739ccf94b45,64d2fd46c836a06233681665,64dc7f3cdaf0b543d8b5d48d,,,,,,,decisionTrl,resources/DBN.BMP,resources/DG.BMP,Door4,0.227004318,-0.039151154,1,0,0,0.8995,optionRight,60,2010,1,38,0,38,0,1,,,,,,,,,,,,,,,,,,,,,,,,,,,,,,,,,,,,,,,
,,,,,,,,2023-08-16_08h48.25.640,HF_wild_card,2022.2.4,MacIntel,59.97361161,5ea925adf0ff0739ccf94b45,64d2fd46c836a06233681665,64dc7f3cdaf0b543d8b5d48d,,,,,,,decisionTrl,resources/DY.BMP,resources/DG.BMP,Door3,-0.16606514,0.001481018,1,0,0,1.2662,optionLeft,70,2080,1,39,0,39,0,1,,,,,,,,,,,,,,,,,,,,,,,,,,,,,,,,,,,,,,,
,,,,,,,,2023-08-16_08h48.25.640,HF_wild_card,2022.2.4,MacIntel,59.97361161,5ea925adf0ff0739ccf94b45,64d2fd46c836a06233681665,64dc7f3cdaf0b543d8b5d48d,,,,,,,decisionTrl,resources/DBN.BMP,resources/DY.BMP,Door3,0.194591522,-0.004500313,1,0,0,0.8805,optionRight,70,2150,1,40,0,40,0,1,,,,,,,,,,,,,,,,,,,,,,,,,,,,,,,,,,,,,,,
,,,,,,,,2023-08-16_08h48.25.640,HF_wild_card,2022.2.4,MacIntel,59.97361161,5ea925adf0ff0739ccf94b45,64d2fd46c836a06233681665,64dc7f3cdaf0b543d8b5d48d,,,,,,,decisionTrl,resources/DG.BMP,resources/DY.BMP,Door3,0.167620697,-0.02703434,1,0,0,1.1467,optionRight,70,2220,1,41,0,41,0,1,,,,,,,,,,,,,,,,,,,,,,,,,,,,,,,,,,,,,,,
,,,,,,,,2023-08-16_08h48.25.640,HF_wild_card,2022.2.4,MacIntel,59.97361161,5ea925adf0ff0739ccf94b45,64d2fd46c836a06233681665,64dc7f3cdaf0b543d8b5d48d,,,,,,,ctch,resources/DY.BMP,resources/DB.BMP,Door3,-0.26895649,-0.012531891,1,0,0,0.8139,optionLeft,70,2290,1,42,0,42,0,1,,,,,,,,,,,,,,,,,,,,,,,,,,,,,,,,,,,,,,,
,,,,,,,,2023-08-16_08h48.25.640,HF_wild_card,2022.2.4,MacIntel,59.97361161,5ea925adf0ff0739ccf94b45,64d2fd46c836a06233681665,64dc7f3cdaf0b543d8b5d48d,,,,,,,ctch,resources/DB.BMP,resources/DY.BMP,Door3,0.288808823,-0.016745377,1,0,0,0.8652,optionRight,70,2360,1,43,0,43,0,1,,,,,,,,,,,,,,,,,,,,,,,,,,,,,,,,,,,,,,,
,,,,,,,,2023-08-16_08h48.25.640,HF_wild_card,2022.2.4,MacIntel,59.97361161,5ea925adf0ff0739ccf94b45,64d2fd46c836a06233681665,64dc7f3cdaf0b543d8b5d48d,,,,,,,,,,,,,,,,,,,,,,,,,,0,0,0,0,1,,,,,,,,,,,,,,,,,,,,,,,,,,,,,,,,,,
,,,,,,,,2023-08-16_08h48.25.640,HF_wild_card,2022.2.4,MacIntel,59.97361161,5ea925adf0ff0739ccf94b45,64d2fd46c836a06233681665,64dc7f3cdaf0b543d8b5d48d,,,,,,,decisionTrl,resources/DY.BMP,resources/DG.BMP,Door3,-0.311223831,-0.014341087,1,0,0,0.8508,optionLeft,70,2430,2,0,0,0,0,1,,,,,,,,,,,,,,,,,,,,,,,,,,,,,,,,,,,,,,,
,,,,,,,,2023-08-16_08h48.25.640,HF_wild_card,2022.2.4,MacIntel,59.97361161,5ea925adf0ff0739ccf94b45,64d2fd46c836a06233681665,64dc7f3cdaf0b543d8b5d48d,,,,,,,sngl,resources/DBN.BMP,resources/Empty.png,WildCard_NonEx,-0.19587265,0.001410866,1,0,0,0.8297,optionLeft,55,2485,2,1,0,1,0,1,,,,,,,,,,,,,,,,,,,,,,,,,,,,,,,,,,,,,,,
,,,,,,,,2023-08-16_08h48.25.640,HF_wild_card,2022.2.4,MacIntel,59.97361161,5ea925adf0ff0739ccf94b45,64d2fd46c836a06233681665,64dc7f3cdaf0b543d8b5d48d,,,,,,,decisionTrl,resources/DG.BMP,resources/DY.BMP,Door3,0.176731644,-0.020664101,1,0,0,0.8842,optionRight,70,2555,2,2,0,2,0,1,,,,,,,,,,,,,,,,,,,,,,,,,,,,,,,,,,,,,,,
,,,,,,,,2023-08-16_08h48.25.640,HF_wild_card,2022.2.4,MacIntel,59.97361161,5ea925adf0ff0739ccf94b45,64d2fd46c836a06233681665,64dc7f3cdaf0b543d8b5d48d,,,,,,,decisionTrl,resources/DB.BMP,resources/DBN.BMP,WildCard_NonEx,0.312029877,0.040299606,1,0,0,0.7966,optionRight,45,2600,2,3,0,3,0,1,,,,,,,,,,,,,,,,,,,,,,,,,,,,,,,,,,,,,,,
,,,,,,,,2023-08-16_08h48.25.640,HF_wild_card,2022.2.4,MacIntel,59.97361161,5ea925adf0ff0739ccf94b45,64d2fd46c836a06233681665,64dc7f3cdaf0b543d8b5d48d,,,,,,,decisionTrl,resources/DG.BMP,resources/DY.BMP,Door3,0.254541855,-0.00164463,1,0,0,1.0143,optionRight,70,2670,2,4,0,4,0,1,,,,,,,,,,,,,,,,,,,,,,,,,,,,,,,,,,,,,,,
,,,,,,,,2023-08-16_08h48.25.640,HF_wild_card,2022.2.4,MacIntel,59.97361161,5ea925adf0ff0739ccf94b45,64d2fd46c836a06233681665,64dc7f3cdaf0b543d8b5d48d,,,,,,,ctch,resources/DP.BMP,resources/DG.BMP,Door4,0.267400894,-0.020466843,1,0,0,0.9137,optionRight,60,2730,2,5,0,5,0,1,,,,,,,,,,,,,,,,,,,,,,,,,,,,,,,,,,,,,,,
,,,,,,,,2023-08-16_08h48.25.640,HF_wild_card,2022.2.4,MacIntel,59.97361161,5ea925adf0ff0739ccf94b45,64d2fd46c836a06233681665,64dc7f3cdaf0b543d8b5d48d,,,,,,,decisionTrl,resources/DB.BMP,resources/DP.BMP,Door2,-0.198965492,-0.000121193,1,0,0,1.3823,optionLeft,20,2750,2,6,0,6,0,1,,,,,,,,,,,,,,,,,,,,,,,,,,,,,,,,,,,,,,,
,,,,,,,,2023-08-16_08h48.25.640,HF_wild_card,2022.2.4,MacIntel,59.97361161,5ea925adf0ff0739ccf94b45,64d2fd46c836a06233681665,64dc7f3cdaf0b543d8b5d48d,,,,,,,ctch,resources/DB.BMP,resources/DY.BMP,Door3,0.261773987,-0.01366787,1,0,0,0.9963,optionRight,70,2820,2,7,0,7,0,1,,,,,,,,,,,,,,,,,,,,,,,,,,,,,,,,,,,,,,,
,,,,,,,,2023-08-16_08h48.25.640,HF_wild_card,2022.2.4,MacIntel,59.97361161,5ea925adf0ff0739ccf94b45,64d2fd46c836a06233681665,64dc7f3cdaf0b543d8b5d48d,,,,,,,sngl,resources/DY.BMP,resources/Empty.png,Door3,-0.260102768,-0.002855339,1,0,0,0.6981,optionLeft,70,2890,2,8,0,8,0,1,,,,,,,,,,,,,,,,,,,,,,,,,,,,,,,,,,,,,,,
,,,,,,,,2023-08-16_08h48.25.640,HF_wild_card,2022.2.4,MacIntel,59.97361161,5ea925adf0ff0739ccf94b45,64d2fd46c836a06233681665,64dc7f3cdaf0b543d8b5d48d,,,,,,,decisionTrl,resources/DP.BMP,resources/DB.BMP,Door1,-0.249624443,-0.002944908,1,0,0,1.4492,optionLeft,30,2920,2,9,0,9,0,1,,,,,,,,,,,,,,,,,,,,,,,,,,,,,,,,,,,,,,,
,,,,,,,,2023-08-16_08h48.25.640,HF_wild_card,2022.2.4,MacIntel,59.97361161,5ea925adf0ff0739ccf94b45,64d2fd46c836a06233681665,64dc7f3cdaf0b543d8b5d48d,,,,,,,sngl,resources/DP.BMP,resources/Empty.png,Door1,-0.293420258,-0.012670822,1,0,0,0.7647,optionLeft,30,2950,2,10,0,10,0,1,,,,,,,,,,,,,,,,,,,,,,,,,,,,,,,,,,,,,,,
,,,,,,,,2023-08-16_08h48.25.640,HF_wild_card,2022.2.4,MacIntel,59.97361161,5ea925adf0ff0739ccf94b45,64d2fd46c836a06233681665,64dc7f3cdaf0b543d8b5d48d,,,,,,,sngl,resources/Empty.png,resources/DG.BMP,Door4,0.257817535,-0.024546852,1,0,0,0.7153,optionRight,80,3030,2,11,0,11,0,1,,,,,,,,,,,,,,,,,,,,,,,,,,,,,,,,,,,,,,,
,,,,,,,,2023-08-16_08h48.25.640,HF_wild_card,2022.2.4,MacIntel,59.97361161,5ea925adf0ff0739ccf94b45,64d2fd46c836a06233681665,64dc7f3cdaf0b543d8b5d48d,,,,,,,decisionTrl,resources/DY.BMP,resources/DG.BMP,Door3,-0.301976891,-0.01566021,1,0,0,0.9624,optionLeft,70,3100,2,12,0,12,0,1,,,,,,,,,,,,,,,,,,,,,,,,,,,,,,,,,,,,,,,
,,,,,,,,2023-08-16_08h48.25.640,HF_wild_card,2022.2.4,MacIntel,59.97361161,5ea925adf0ff0739ccf94b45,64d2fd46c836a06233681665,64dc7f3cdaf0b543d8b5d48d,,,,,,,decisionTrl,resources/DG.BMP,resources/DBN.BMP,Door4,-0.356621552,0.003966789,1,0,0,0.7808,optionLeft,60,3160,2,13,0,13,0,1,,,,,,,,,,,,,,,,,,,,,,,,,,,,,,,,,,,,,,,
,,,,,,,,2023-08-16_08h48.25.640,HF_wild_card,2022.2.4,MacIntel,59.97361161,5ea925adf0ff0739ccf94b45,64d2fd46c836a06233681665,64dc7f3cdaf0b543d8b5d48d,,,,,,,decisionTrl,resources/DP.BMP,resources/DB.BMP,Door1,-0.237623367,-0.004863205,1,0,0,0.9703,optionLeft,30,3190,2,14,0,14,0,1,,,,,,,,,,,,,,,,,,,,,,,,,,,,,,,,,,,,,,,
,,,,,,,,2023-08-16_08h48.25.640,HF_wild_card,2022.2.4,MacIntel,59.97361161,5ea925adf0ff0739ccf94b45,64d2fd46c836a06233681665,64dc7f3cdaf0b543d8b5d48d,,,,,,,ctch,resources/DG.BMP,resources/DP.BMP,Door4,-0.285619621,-0.003594818,1,0,0,0.7888,optionLeft,80,3270,2,15,0,15,0,1,,,,,,,,,,,,,,,,,,,,,,,,,,,,,,,,,,,,,,,
,,,,,,,,2023-08-16_08h48.25.640,HF_wild_card,2022.2.4,MacIntel,59.97361161,5ea925adf0ff0739ccf94b45,64d2fd46c836a06233681665,64dc7f3cdaf0b543d8b5d48d,,,,,,,sngl,resources/Empty.png,resources/DY.BMP,Door3,0.220741501,-0.011976547,1,0,0,0.6654,optionRight,70,3340,2,16,0,16,0,1,,,,,,,,,,,,,,,,,,,,,,,,,,,,,,,,,,,,,,,
,,,,,,,,2023-08-16_08h48.25.640,HF_wild_card,2022.2.4,MacIntel,59.97361161,5ea925adf0ff0739ccf94b45,64d2fd46c836a06233681665,64dc7f3cdaf0b543d8b5d48d,,,,,,,sngl,resources/Empty.png,resources/DBN.BMP,WildCard_NonEx,0.214962616,0.011981087,1,0,0,0.7309,optionRight,55,3395,2,17,0,17,0,1,,,,,,,,,,,,,,,,,,,,,,,,,,,,,,,,,,,,,,,
,,,,,,,,2023-08-16_08h48.25.640,HF_wild_card,2022.2.4,MacIntel,59.97361161,5ea925adf0ff0739ccf94b45,64d2fd46c836a06233681665,64dc7f3cdaf0b543d8b5d48d,,,,,,,ctch,resources/DB.BMP,resources/DY.BMP,Door3,0.240523834,0.008900375,1,0,0,0.7825,optionRight,70,3465,2,18,0,18,0,1,,,,,,,,,,,,,,,,,,,,,,,,,,,,,,,,,,,,,,,
,,,,,,,,2023-08-16_08h48.25.640,HF_wild_card,2022.2.4,MacIntel,59.97361161,5ea925adf0ff0739ccf94b45,64d2fd46c836a06233681665,64dc7f3cdaf0b543d8b5d48d,,,,,,,decisionTrl,resources/DB.BMP,resources/DP.BMP,Door1,0.169585342,-0.011740837,1,0,0,0.9328,optionRight,30,3495,2,19,0,19,0,1,,,,,,,,,,,,,,,,,,,,,,,,,,,,,,,,,,,,,,,
,,,,,,,,2023-08-16_08h48.25.640,HF_wild_card,2022.2.4,MacIntel,59.97361161,5ea925adf0ff0739ccf94b45,64d2fd46c836a06233681665,64dc7f3cdaf0b543d8b5d48d,,,,,,,decisionTrl,resources/DBN.BMP,resources/DG.BMP,Door4,0.321584091,-0.023774719,1,0,0,1.1324,optionRight,80,3575,2,20,0,20,0,1,,,,,,,,,,,,,,,,,,,,,,,,,,,,,,,,,,,,,,,
,,,,,,,,2023-08-16_08h48.25.640,HF_wild_card,2022.2.4,MacIntel,59.97361161,5ea925adf0ff0739ccf94b45,64d2fd46c836a06233681665,64dc7f3cdaf0b543d8b5d48d,,,,,,,decisionTrl,resources/DG.BMP,resources/DY.BMP,Door4,-0.29573513,-0.020867233,1,0,0,0.7646,optionLeft,60,3635,2,21,0,21,0,1,,,,,,,,,,,,,,,,,,,,,,,,,,,,,,,,,,,,,,,
,,,,,,,,2023-08-16_08h48.25.640,HF_wild_card,2022.2.4,MacIntel,59.97361161,5ea925adf0ff0739ccf94b45,64d2fd46c836a06233681665,64dc7f3cdaf0b543d8b5d48d,,,,,,,sngl,resources/DB.BMP,resources/Empty.png,Door2,-0.296435814,-0.012363701,1,0,0,0.7323,optionLeft,20,3655,2,22,0,22,0,1,,,,,,,,,,,,,,,,,,,,,,,,,,,,,,,,,,,,,,,
,,,,,,,,2023-08-16_08h48.25.640,HF_wild_card,2022.2.4,MacIntel,59.97361161,5ea925adf0ff0739ccf94b45,64d2fd46c836a06233681665,64dc7f3cdaf0b543d8b5d48d,,,,,,,decisionTrl,resources/DY.BMP,resources/DBN.BMP,Door3,-0.267393799,-0.002217064,1,0,0,0.8294,optionLeft,70,3725,2,23,0,23,0,1,,,,,,,,,,,,,,,,,,,,,,,,,,,,,,,,,,,,,,,
,,,,,,,,2023-08-16_08h48.25.640,HF_wild_card,2022.2.4,MacIntel,59.97361161,5ea925adf0ff0739ccf94b45,64d2fd46c836a06233681665,64dc7f3cdaf0b543d8b5d48d,,,,,,,ctch,resources/DY.BMP,resources/DB.BMP,Door3,-0.279929695,-0.006747246,1,0,0,0.8497,optionLeft,70,3795,2,24,0,24,0,1,,,,,,,,,,,,,,,,,,,,,,,,,,,,,,,,,,,,,,,
,,,,,,,,2023-08-16_08h48.25.640,HF_wild_card,2022.2.4,MacIntel,59.97361161,5ea925adf0ff0739ccf94b45,64d2fd46c836a06233681665,64dc7f3cdaf0b543d8b5d48d,,,,,,,sngl,resources/DG.BMP,resources/Empty.png,Door4,-0.307973595,0.001209335,1,0,0,0.7308,optionLeft,60,3855,2,25,0,25,0,1,,,,,,,,,,,,,,,,,,,,,,,,,,,,,,,,,,,,,,,
,,,,,,,,2023-08-16_08h48.25.640,HF_wild_card,2022.2.4,MacIntel,59.97361161,5ea925adf0ff0739ccf94b45,64d2fd46c836a06233681665,64dc7f3cdaf0b543d8b5d48d,,,,,,,sngl,resources/DBN.BMP,resources/Empty.png,WildCard_NonEx,-0.298298264,7.86972E-05,1,0,0,0.7304,optionLeft,45,3900,2,26,0,26,0,1,,,,,,,,,,,,,,,,,,,,,,,,,,,,,,,,,,,,,,,
,,,,,,,,2023-08-16_08h48.25.640,HF_wild_card,2022.2.4,MacIntel,59.97361161,5ea925adf0ff0739ccf94b45,64d2fd46c836a06233681665,64dc7f3cdaf0b543d8b5d48d,,,,,,,sngl,resources/Empty.png,resources/DB.BMP,Door2,0.165747833,-0.004168243,1,0,0,0.7479,optionRight,40,3940,2,27,0,27,0,1,,,,,,,,,,,,,,,,,,,,,,,,,,,,,,,,,,,,,,,
,,,,,,,,2023-08-16_08h48.25.640,HF_wild_card,2022.2.4,MacIntel,59.97361161,5ea925adf0ff0739ccf94b45,64d2fd46c836a06233681665,64dc7f3cdaf0b543d8b5d48d,,,,,,,decisionTrl,resources/DBN.BMP,resources/DY.BMP,Door3,0.200921631,-0.008563995,1,0,0,0.6298,optionRight,70,4010,2,28,0,28,0,1,,,,,,,,,,,,,,,,,,,,,,,,,,,,,,,,,,,,,,,
,,,,,,,,2023-08-16_08h48.25.640,HF_wild_card,2022.2.4,MacIntel,59.97361161,5ea925adf0ff0739ccf94b45,64d2fd46c836a06233681665,64dc7f3cdaf0b543d8b5d48d,,,,,,,ctch,resources/DP.BMP,resources/DG.BMP,Door4,0.337849197,-0.016558228,1,0,0,1.4814,optionRight,80,4090,2,29,0,29,0,1,,,,,,,,,,,,,,,,,,,,,,,,,,,,,,,,,,,,,,,
,,,,,,,,2023-08-16_08h48.25.640,HF_wild_card,2022.2.4,MacIntel,59.97361161,5ea925adf0ff0739ccf94b45,64d2fd46c836a06233681665,64dc7f3cdaf0b543d8b5d48d,,,,,,,sngl,resources/Empty.png,resources/DBN.BMP,WildCard_NonEx,0.224736481,-0.010067406,1,0,0,0.6154,optionRight,45,4135,2,30,0,30,0,1,,,,,,,,,,,,,,,,,,,,,,,,,,,,,,,,,,,,,,,
,,,,,,,,2023-08-16_08h48.25.640,HF_wild_card,2022.2.4,MacIntel,59.97361161,5ea925adf0ff0739ccf94b45,64d2fd46c836a06233681665,64dc7f3cdaf0b543d8b5d48d,,,,,,,decisionTrl,resources/DBN.BMP,resources/DP.BMP,WildCard_NonEx,-0.264093781,0.018317184,1,0,0,1.08,optionLeft,55,4190,2,31,0,31,0,1,,,,,,,,,,,,,,,,,,,,,,,,,,,,,,,,,,,,,,,
,,,,,,,,2023-08-16_08h48.25.640,HF_wild_card,2022.2.4,MacIntel,59.97361161,5ea925adf0ff0739ccf94b45,64d2fd46c836a06233681665,64dc7f3cdaf0b543d8b5d48d,,,,,,,ctch,resources/DY.BMP,resources/DB.BMP,Door3,-0.249122276,-0.008174362,1,0,0,0.8648,optionLeft,70,4260,2,32,0,32,0,1,,,,,,,,,,,,,,,,,,,,,,,,,,,,,,,,,,,,,,,
,,,,,,,,2023-08-16_08h48.25.640,HF_wild_card,2022.2.4,MacIntel,59.97361161,5ea925adf0ff0739ccf94b45,64d2fd46c836a06233681665,64dc7f3cdaf0b543d8b5d48d,,,,,,,decisionTrl,resources/DB.BMP,resources/DP.BMP,Door1,0.217764359,-0.016992874,1,0,0,1.1641,optionRight,30,4290,2,33,0,33,0,1,,,,,,,,,,,,,,,,,,,,,,,,,,,,,,,,,,,,,,,
,,,,,,,,2023-08-16_08h48.25.640,HF_wild_card,2022.2.4,MacIntel,59.97361161,5ea925adf0ff0739ccf94b45,64d2fd46c836a06233681665,64dc7f3cdaf0b543d8b5d48d,,,,,,,decisionTrl,resources/DP.BMP,resources/DB.BMP,Door1,-0.27074749,-0.020720825,1,0,0,0.9316,optionLeft,30,4320,2,34,0,34,0,1,,,,,,,,,,,,,,,,,,,,,,,,,,,,,,,,,,,,,,,
,,,,,,,,2023-08-16_08h48.25.640,HF_wild_card,2022.2.4,MacIntel,59.97361161,5ea925adf0ff0739ccf94b45,64d2fd46c836a06233681665,64dc7f3cdaf0b543d8b5d48d,,,,,,,decisionTrl,resources/DP.BMP,resources/DB.BMP,Door1,-0.167765846,-0.01834362,1,0,0,0.7309,optionLeft,30,4350,2,35,0,35,0,1,,,,,,,,,,,,,,,,,,,,,,,,,,,,,,,,,,,,,,,
,,,,,,,,2023-08-16_08h48.25.640,HF_wild_card,2022.2.4,MacIntel,59.97361161,5ea925adf0ff0739ccf94b45,64d2fd46c836a06233681665,64dc7f3cdaf0b543d8b5d48d,,,,,,,decisionTrl,resources/DY.BMP,resources/DG.BMP,Door3,-0.150469131,-0.006877289,1,0,0,1.0816,optionLeft,70,4420,2,36,0,36,0,1,,,,,,,,,,,,,,,,,,,,,,,,,,,,,,,,,,,,,,,
,,,,,,,,2023-08-16_08h48.25.640,HF_wild_card,2022.2.4,MacIntel,59.97361161,5ea925adf0ff0739ccf94b45,64d2fd46c836a06233681665,64dc7f3cdaf0b543d8b5d48d,,,,,,,decisionTrl,resources/DG.BMP,resources/DY.BMP,Door3,0.129077454,-0.004217644,1,0,0,0.9144,optionRight,70,4490,2,37,0,37,0,1,,,,,,,,,,,,,,,,,,,,,,,,,,,,,,,,,,,,,,,
,,,,,,,,2023-08-16_08h48.25.640,HF_wild_card,2022.2.4,MacIntel,59.97361161,5ea925adf0ff0739ccf94b45,64d2fd46c836a06233681665,64dc7f3cdaf0b543d8b5d48d,,,,,,,decisionTrl,resources/DP.BMP,resources/DBN.BMP,WildCard_NonEx,0.144600296,-0.00918911,1,0,0,1.0151,optionRight,55,4545,2,38,0,38,0,1,,,,,,,,,,,,,,,,,,,,,,,,,,,,,,,,,,,,,,,
,,,,,,,,2023-08-16_08h48.25.640,HF_wild_card,2022.2.4,MacIntel,59.97361161,5ea925adf0ff0739ccf94b45,64d2fd46c836a06233681665,64dc7f3cdaf0b543d8b5d48d,,,,,,,sngl,resources/Empty.png,resources/DP.BMP,Door1,0.138050156,0.001025734,1,0,0,0.7318,optionRight,30,4575,2,39,0,39,0,1,,,,,,,,,,,,,,,,,,,,,,,,,,,,,,,,,,,,,,,
,,,,,,,,2023-08-16_08h48.25.640,HF_wild_card,2022.2.4,MacIntel,59.97361161,5ea925adf0ff0739ccf94b45,64d2fd46c836a06233681665,64dc7f3cdaf0b543d8b5d48d,,,,,,,decisionTrl,resources/DY.BMP,resources/DG.BMP,Door3,-0.180059128,-0.009636917,1,0,0,0.8801,optionLeft,70,4645,2,40,0,40,0,1,,,,,,,,,,,,,,,,,,,,,,,,,,,,,,,,,,,,,,,
,,,,,,,,2023-08-16_08h48.25.640,HF_wild_card,2022.2.4,MacIntel,59.97361161,5ea925adf0ff0739ccf94b45,64d2fd46c836a06233681665,64dc7f3cdaf0b543d8b5d48d,,,,,,,decisionTrl,resources/DB.BMP,resources/DP.BMP,Door1,0.244132767,-0.007110481,1,0,0,1.2642,optionRight,30,4675,2,41,0,41,0,1,,,,,,,,,,,,,,,,,,,,,,,,,,,,,,,,,,,,,,,
,,,,,,,,2023-08-16_08h48.25.640,HF_wild_card,2022.2.4,MacIntel,59.97361161,5ea925adf0ff0739ccf94b45,64d2fd46c836a06233681665,64dc7f3cdaf0b543d8b5d48d,,,,,,,decisionTrl,resources/DBN.BMP,resources/DB.BMP,WildCard_NonEx,-0.327303391,-0.017554169,1,0,0,0.7159,optionLeft,45,4720,2,42,0,42,0,1,,,,,,,,,,,,,,,,,,,,,,,,,,,,,,,,,,,,,,,
,,,,,,,,2023-08-16_08h48.25.640,HF_wild_card,2022.2.4,MacIntel,59.97361161,5ea925adf0ff0739ccf94b45,64d2fd46c836a06233681665,64dc7f3cdaf0b543d8b5d48d,,,,,,,ctch,resources/DG.BMP,resources/DP.BMP,Door4,-0.239604912,-0.021000977,1,0,0,0.9813,optionLeft,60,4780,2,43,0,43,0,1,,,,,,,,,,,,,,,,,,,,,,,,,,,,,,,,,,,,,,,
,,,,,,,,2023-08-16_08h48.25.640,HF_wild_card,2022.2.4,MacIntel,59.97361161,5ea925adf0ff0739ccf94b45,64d2fd46c836a06233681665,64dc7f3cdaf0b543d8b5d48d,,,,,,,,,,,,,,,,,,,,,,,,,,1,0,1,0,1,,,,,,,,,,,,,,,,,,,,,,,,,,,,,,,,,,
,,,,,,,,2023-08-16_08h48.25.640,HF_wild_card,2022.2.4,MacIntel,59.97361161,5ea925adf0ff0739ccf94b45,64d2fd46c836a06233681665,64dc7f3cdaf0b543d8b5d48d,,,,,,,decisionTrl,resources/DY.BMP,resources/DG.BMP,Door3,-0.176935349,-0.150116882,1,0,0,0.8344,optionLeft,70,4850,3,0,0,0,0,1,,,,,,,,,,,,,,,,,,,,,,,,,,,,,,,,,,,,,,,
,,,,,,,,2023-08-16_08h48.25.640,HF_wild_card,2022.2.4,MacIntel,59.97361161,5ea925adf0ff0739ccf94b45,64d2fd46c836a06233681665,64dc7f3cdaf0b543d8b5d48d,,,,,,,ctch,resources/DG.BMP,resources/DP.BMP,Door4,-0.211841812,-0.015155106,1,0,0,0.8126,optionLeft,80,4930,3,1,0,1,0,1,,,,,,,,,,,,,,,,,,,,,,,,,,,,,,,,,,,,,,,
,,,,,,,,2023-08-16_08h48.25.640,HF_wild_card,2022.2.4,MacIntel,59.97361161,5ea925adf0ff0739ccf94b45,64d2fd46c836a06233681665,64dc7f3cdaf0b543d8b5d48d,,,,,,,decisionTrl,resources/DP.BMP,resources/DB.BMP,Door1,-0.253252487,-0.013988266,1,0,0,1.2141,optionLeft,30,4960,3,2,0,2,0,1,,,,,,,,,,,,,,,,,,,,,,,,,,,,,,,,,,,,,,,
,,,,,,,,2023-08-16_08h48.25.640,HF_wild_card,2022.2.4,MacIntel,59.97361161,5ea925adf0ff0739ccf94b45,64d2fd46c836a06233681665,64dc7f3cdaf0b543d8b5d48d,,,,,,,decisionTrl,resources/DP.BMP,resources/DB.BMP,Door1,-0.212274628,-0.006602745,1,0,0,0.8648,optionLeft,30,4990,3,3,0,3,0,1,,,,,,,,,,,,,,,,,,,,,,,,,,,,,,,,,,,,,,,
,,,,,,,,2023-08-16_08h48.25.640,HF_wild_card,2022.2.4,MacIntel,59.97361161,5ea925adf0ff0739ccf94b45,64d2fd46c836a06233681665,64dc7f3cdaf0b543d8b5d48d,,,,,,,ctch,resources/DB.BMP,resources/DY.BMP,Door3,0.240883179,0.010593452,1,0,0,0.7812,optionRight,70,5060,3,4,0,4,0,1,,,,,,,,,,,,,,,,,,,,,,,,,,,,,,,,,,,,,,,
,,,,,,,,2023-08-16_08h48.25.640,HF_wild_card,2022.2.4,MacIntel,59.97361161,5ea925adf0ff0739ccf94b45,64d2fd46c836a06233681665,64dc7f3cdaf0b543d8b5d48d,,,,,,,decisionTrl,resources/DY.BMP,resources/DG.BMP,Door3,-0.226077232,-0.008035622,1,0,0,0.9969,optionLeft,70,5130,3,5,0,5,0,1,,,,,,,,,,,,,,,,,,,,,,,,,,,,,,,,,,,,,,,
,,,,,,,,2023-08-16_08h48.25.640,HF_wild_card,2022.2.4,MacIntel,59.97361161,5ea925adf0ff0739ccf94b45,64d2fd46c836a06233681665,64dc7f3cdaf0b543d8b5d48d,,,,,,,sngl,resources/DBN.BMP,resources/Empty.png,WildCard_NonEx,-0.321916237,0.00127636,1,0,0,0.7641,optionLeft,55,5185,3,6,0,6,0,1,,,,,,,,,,,,,,,,,,,,,,,,,,,,,,,,,,,,,,,
,,,,,,,,2023-08-16_08h48.25.640,HF_wild_card,2022.2.4,MacIntel,59.97361161,5ea925adf0ff0739ccf94b45,64d2fd46c836a06233681665,64dc7f3cdaf0b543d8b5d48d,,,,,,,sngl,resources/DB.BMP,resources/Empty.png,Door2,-0.234406548,2.97928E-05,1,0,0,0.7659,optionLeft,40,5225,3,7,0,7,0,1,,,,,,,,,,,,,,,,,,,,,,,,,,,,,,,,,,,,,,,
,,,,,,,,2023-08-16_08h48.25.640,HF_wild_card,2022.2.4,MacIntel,59.97361161,5ea925adf0ff0739ccf94b45,64d2fd46c836a06233681665,64dc7f3cdaf0b543d8b5d48d,,,,,,,decisionTrl,resources/DP.BMP,resources/DBN.BMP,WildCard_NonEx,0.216710281,-0.006599388,1,0,0,0.9641,optionRight,55,5280,3,8,0,8,0,1,,,,,,,,,,,,,,,,,,,,,,,,,,,,,,,,,,,,,,,
,,,,,,,,2023-08-16_08h48.25.640,HF_wild_card,2022.2.4,MacIntel,59.97361161,5ea925adf0ff0739ccf94b45,64d2fd46c836a06233681665,64dc7f3cdaf0b543d8b5d48d,,,,,,,decisionTrl,resources/DY.BMP,resources/DBN.BMP,Door3,-0.190929298,-0.001804695,1,0,0,1.2144,optionLeft,70,5350,3,9,0,9,0,1,,,,,,,,,,,,,,,,,,,,,,,,,,,,,,,,,,,,,,,
,,,,,,,,2023-08-16_08h48.25.640,HF_wild_card,2022.2.4,MacIntel,59.97361161,5ea925adf0ff0739ccf94b45,64d2fd46c836a06233681665,64dc7f3cdaf0b543d8b5d48d,,,,,,,sngl,resources/DG.BMP,resources/Empty.png,Door4,-0.321650696,-0.023854141,1,0,0,0.6967,optionLeft,80,5430,3,10,0,10,0,1,,,,,,,,,,,,,,,,,,,,,,,,,,,,,,,,,,,,,,,
,,,,,,,,2023-08-16_08h48.25.640,HF_wild_card,2022.2.4,MacIntel,59.97361161,5ea925adf0ff0739ccf94b45,64d2fd46c836a06233681665,64dc7f3cdaf0b543d8b5d48d,,,,,,,ctch,resources/DY.BMP,resources/DB.BMP,Door3,-0.249686317,-0.010528564,1,0,0,1.1166,optionLeft,70,5500,3,11,0,11,0,1,,,,,,,,,,,,,,,,,,,,,,,,,,,,,,,,,,,,,,,
,,,,,,,,2023-08-16_08h48.25.640,HF_wild_card,2022.2.4,MacIntel,59.97361161,5ea925adf0ff0739ccf94b45,64d2fd46c836a06233681665,64dc7f3cdaf0b543d8b5d48d,,,,,,,decisionTrl,resources/DB.BMP,resources/DP.BMP,Door1,0.161363449,-0.039755707,1,0,0,1.3808,optionRight,30,5530,3,12,0,12,0,1,,,,,,,,,,,,,,,,,,,,,,,,,,,,,,,,,,,,,,,
,,,,,,,,2023-08-16_08h48.25.640,HF_wild_card,2022.2.4,MacIntel,59.97361161,5ea925adf0ff0739ccf94b45,64d2fd46c836a06233681665,64dc7f3cdaf0b543d8b5d48d,,,,,,,decisionTrl,resources/DG.BMP,resources/DY.BMP,Door3,0.313226395,0.009893723,1,0,0,1.5983,optionRight,70,5600,3,13,0,13,0,1,,,,,,,,,,,,,,,,,,,,,,,,,,,,,,,,,,,,,,,
,,,,,,,,2023-08-16_08h48.25.640,HF_wild_card,2022.2.4,MacIntel,59.97361161,5ea925adf0ff0739ccf94b45,64d2fd46c836a06233681665,64dc7f3cdaf0b543d8b5d48d,,,,,,,sngl,resources/Empty.png,resources/DB.BMP,Door2,0.187940521,-0.026131516,1,0,0,0.6718,optionRight,20,5620,3,14,0,14,0,1,,,,,,,,,,,,,,,,,,,,,,,,,,,,,,,,,,,,,,,
,,,,,,,,2023-08-16_08h48.25.640,HF_wild_card,2022.2.4,MacIntel,59.97361161,5ea925adf0ff0739ccf94b45,64d2fd46c836a06233681665,64dc7f3cdaf0b543d8b5d48d,,,,,,,decisionTrl,resources/DG.BMP,resources/DBN.BMP,Door4,-0.215797806,0.011352882,1,0,0,1.2983,optionLeft,60,5680,3,15,0,15,0,1,,,,,,,,,,,,,,,,,,,,,,,,,,,,,,,,,,,,,,,
,,,,,,,,2023-08-16_08h48.25.640,HF_wild_card,2022.2.4,MacIntel,59.97361161,5ea925adf0ff0739ccf94b45,64d2fd46c836a06233681665,64dc7f3cdaf0b543d8b5d48d,,,,,,,decisionTrl,resources/DG.BMP,resources/DY.BMP,Door3,0.266112289,0.003152122,1,0,0,0.9203,optionRight,70,5750,3,16,0,16,0,1,,,,,,,,,,,,,,,,,,,,,,,,,,,,,,,,,,,,,,,
,,,,,,,,2023-08-16_08h48.25.640,HF_wild_card,2022.2.4,MacIntel,59.97361161,5ea925adf0ff0739ccf94b45,64d2fd46c836a06233681665,64dc7f3cdaf0b543d8b5d48d,,,,,,,decisionTrl,resources/DY.BMP,resources/DG.BMP,Door3,-0.194987411,-0.002812614,1,0,0,0.9171,optionLeft,70,5820,3,17,0,17,0,1,,,,,,,,,,,,,,,,,,,,,,,,,,,,,,,,,,,,,,,
,,,,,,,,2023-08-16_08h48.25.640,HF_wild_card,2022.2.4,MacIntel,59.97361161,5ea925adf0ff0739ccf94b45,64d2fd46c836a06233681665,64dc7f3cdaf0b543d8b5d48d,,,,,,,sngl,resources/Empty.png,resources/DY.BMP,Door3,0.219676666,0.001279297,1,0,0,0.6483,optionRight,70,5890,3,18,0,18,0,1,,,,,,,,,,,,,,,,,,,,,,,,,,,,,,,,,,,,,,,
,,,,,,,,2023-08-16_08h48.25.640,HF_wild_card,2022.2.4,MacIntel,59.97361161,5ea925adf0ff0739ccf94b45,64d2fd46c836a06233681665,64dc7f3cdaf0b543d8b5d48d,,,,,,,sngl,resources/DBN.BMP,resources/Empty.png,WildCard_NonEx,-0.298838387,0.008148422,1,0,0,0.7806,optionLeft,45,5935,3,19,0,19,0,1,,,,,,,,,,,,,,,,,,,,,,,,,,,,,,,,,,,,,,,
,,,,,,,,2023-08-16_08h48.25.640,HF_wild_card,2022.2.4,MacIntel,59.97361161,5ea925adf0ff0739ccf94b45,64d2fd46c836a06233681665,64dc7f3cdaf0b543d8b5d48d,,,,,,,sngl,resources/Empty.png,resources/DP.BMP,Door1,0.262410355,-0.005615044,1,0,0,0.6341,optionRight,30,5965,3,20,0,20,0,1,,,,,,,,,,,,,,,,,,,,,,,,,,,,,,,,,,,,,,,
,,,,,,,,2023-08-16_08h48.25.640,HF_wild_card,2022.2.4,MacIntel,59.97361161,5ea925adf0ff0739ccf94b45,64d2fd46c836a06233681665,64dc7f3cdaf0b543d8b5d48d,,,,,,,sngl,resources/DP.BMP,resources/Empty.png,Door1,-0.228113785,-0.016486588,1,0,0,0.7155,optionLeft,30,5995,3,21,0,21,0,1,,,,,,,,,,,,,,,,,,,,,,,,,,,,,,,,,,,,,,,
,,,,,,,,2023-08-16_08h48.25.640,HF_wild_card,2022.2.4,MacIntel,59.97361161,5ea925adf0ff0739ccf94b45,64d2fd46c836a06233681665,64dc7f3cdaf0b543d8b5d48d,,,,,,,ctch,resources/DG.BMP,resources/DP.BMP,Door4,-0.246836624,0.015211792,1,0,0,0.7634,optionLeft,80,6075,3,22,0,22,0,1,,,,,,,,,,,,,,,,,,,,,,,,,,,,,,,,,,,,,,,
,,,,,,,,2023-08-16_08h48.25.640,HF_wild_card,2022.2.4,MacIntel,59.97361161,5ea925adf0ff0739ccf94b45,64d2fd46c836a06233681665,64dc7f3cdaf0b543d8b5d48d,,,,,,,ctch,resources/DB.BMP,resources/DY.BMP,Door3,0.246061554,-0.000452003,1,0,0,0.7952,optionRight,70,6145,3,23,0,23,0,1,,,,,,,,,,,,,,,,,,,,,,,,,,,,,,,,,,,,,,,
,,,,,,,,2023-08-16_08h48.25.640,HF_wild_card,2022.2.4,MacIntel,59.97361161,5ea925adf0ff0739ccf94b45,64d2fd46c836a06233681665,64dc7f3cdaf0b543d8b5d48d,,,,,,,decisionTrl,resources/DB.BMP,resources/DP.BMP,Door1,0.285912552,-0.018154869,1,0,0,0.9959,optionRight,30,6175,3,24,0,24,0,1,,,,,,,,,,,,,,,,,,,,,,,,,,,,,,,,,,,,,,,
,,,,,,,,2023-08-16_08h48.25.640,HF_wild_card,2022.2.4,MacIntel,59.97361161,5ea925adf0ff0739ccf94b45,64d2fd46c836a06233681665,64dc7f3cdaf0b543d8b5d48d,,,,,,,decisionTrl,resources/DP.BMP,resources/DB.BMP,Door1,-0.212418404,-0.039966888,1,0,0,1.2159,optionLeft,30,6205,3,25,0,25,0,1,,,,,,,,,,,,,,,,,,,,,,,,,,,,,,,,,,,,,,,
,,,,,,,,2023-08-16_08h48.25.640,HF_wild_card,2022.2.4,MacIntel,59.97361161,5ea925adf0ff0739ccf94b45,64d2fd46c836a06233681665,64dc7f3cdaf0b543d8b5d48d,,,,,,,decisionTrl,resources/DBN.BMP,resources/DB.BMP,WildCard_NonEx,-0.181530113,-0.007694435,1,0,0,1.0643,optionLeft,45,6250,3,26,0,26,0,1,,,,,,,,,,,,,,,,,,,,,,,,,,,,,,,,,,,,,,,
,,,,,,,,2023-08-16_08h48.25.640,HF_wild_card,2022.2.4,MacIntel,59.97361161,5ea925adf0ff0739ccf94b45,64d2fd46c836a06233681665,64dc7f3cdaf0b543d8b5d48d,,,,,,,ctch,resources/DP.BMP,resources/DG.BMP,Door4,0.23962677,-0.001253853,1,0,0,1.0997,optionRight,80,6330,3,27,0,27,0,1,,,,,,,,,,,,,,,,,,,,,,,,,,,,,,,,,,,,,,,
,,,,,,,,2023-08-16_08h48.25.640,HF_wild_card,2022.2.4,MacIntel,59.97361161,5ea925adf0ff0739ccf94b45,64d2fd46c836a06233681665,64dc7f3cdaf0b543d8b5d48d,,,,,,,decisionTrl,resources/DB.BMP,resources/DBN.BMP,WildCard_NonEx,0.168681488,0.00255249,1,0,0,1.047,optionRight,45,6375,3,28,0,28,0,1,,,,,,,,,,,,,,,,,,,,,,,,,,,,,,,,,,,,,,,
,,,,,,,,2023-08-16_08h48.25.640,HF_wild_card,2022.2.4,MacIntel,59.97361161,5ea925adf0ff0739ccf94b45,64d2fd46c836a06233681665,64dc7f3cdaf0b543d8b5d48d,,,,,,,decisionTrl,resources/DBN.BMP,resources/DP.BMP,WildCard_NonEx,-0.294728928,0.020060463,1,0,0,1.1031,optionLeft,45,6420,3,29,0,29,0,1,,,,,,,,,,,,,,,,,,,,,,,,,,,,,,,,,,,,,,,
,,,,,,,,2023-08-16_08h48.25.640,HF_wild_card,2022.2.4,MacIntel,59.97361161,5ea925adf0ff0739ccf94b45,64d2fd46c836a06233681665,64dc7f3cdaf0b543d8b5d48d,,,,,,,decisionTrl,resources/DG.BMP,resources/DY.BMP,Door3,0.256000443,-0.008602448,1,0,0,1.1368,optionRight,70,6490,3,30,0,30,0,1,,,,,,,,,,,,,,,,,,,,,,,,,,,,,,,,,,,,,,,
,,,,,,,,2023-08-16_08h48.25.640,HF_wild_card,2022.2.4,MacIntel,59.97361161,5ea925adf0ff0739ccf94b45,64d2fd46c836a06233681665,64dc7f3cdaf0b543d8b5d48d,,,,,,,decisionTrl,resources/DG.BMP,resources/DY.BMP,Door3,0.215952759,-0.023199844,1,0,0,0.754,optionRight,70,6560,3,31,0,31,0,1,,,,,,,,,,,,,,,,,,,,,,,,,,,,,,,,,,,,,,,
,,,,,,,,2023-08-16_08h48.25.640,HF_wild_card,2022.2.4,MacIntel,59.97361161,5ea925adf0ff0739ccf94b45,64d2fd46c836a06233681665,64dc7f3cdaf0b543d8b5d48d,,,,,,,decisionTrl,resources/DBN.BMP,resources/DY.BMP,Door3,0.239588547,-0.015121727,1,0,0,0.6316,optionRight,70,6630,3,32,0,32,0,1,,,,,,,,,,,,,,,,,,,,,,,,,,,,,,,,,,,,,,,
,,,,,,,,2023-08-16_08h48.25.640,HF_wild_card,2022.2.4,MacIntel,59.97361161,5ea925adf0ff0739ccf94b45,64d2fd46c836a06233681665,64dc7f3cdaf0b543d8b5d48d,,,,,,,sngl,resources/DY.BMP,resources/Empty.png,Door3,-0.212730522,-0.025337601,1,0,0,0.7153,optionLeft,70,6700,3,33,0,33,0,1,,,,,,,,,,,,,,,,,,,,,,,,,,,,,,,,,,,,,,,
,,,,,,,,2023-08-16_08h48.25.640,HF_wild_card,2022.2.4,MacIntel,59.97361161,5ea925adf0ff0739ccf94b45,64d2fd46c836a06233681665,64dc7f3cdaf0b543d8b5d48d,,,,,,,ctch,resources/DP.BMP,resources/DG.BMP,Door4,0.163384171,-0.006585274,1,0,0,0.9377,optionRight,60,6760,3,34,0,34,0,1,,,,,,,,,,,,,,,,,,,,,,,,,,,,,,,,,,,,,,,
,,,,,,,,2023-08-16_08h48.25.640,HF_wild_card,2022.2.4,MacIntel,59.97361161,5ea925adf0ff0739ccf94b45,64d2fd46c836a06233681665,64dc7f3cdaf0b543d8b5d48d,,,,,,,decisionTrl,resources/DB.BMP,resources/DP.BMP,Door1,0.158771057,-0.00954277,1,0,0,0.9479,optionRight,30,6790,3,35,0,35,0,1,,,,,,,,,,,,,,,,,,,,,,,,,,,,,,,,,,,,,,,
,,,,,,,,2023-08-16_08h48.25.640,HF_wild_card,2022.2.4,MacIntel,59.97361161,5ea925adf0ff0739ccf94b45,64d2fd46c836a06233681665,64dc7f3cdaf0b543d8b5d48d,,,,,,,ctch,resources/DY.BMP,resources/DB.BMP,Door3,-0.299220734,0.003929253,1,0,0,0.6314,optionLeft,70,6860,3,36,0,36,0,1,,,,,,,,,,,,,,,,,,,,,,,,,,,,,,,,,,,,,,,
,,,,,,,,2023-08-16_08h48.25.640,HF_wild_card,2022.2.4,MacIntel,59.97361161,5ea925adf0ff0739ccf94b45,64d2fd46c836a06233681665,64dc7f3cdaf0b543d8b5d48d,,,,,,,sngl,resources/Empty.png,resources/DBN.BMP,WildCard_NonEx,0.244116669,-0.00190239,1,0,0,0.8982,optionRight,55,6915,3,37,0,37,0,1,,,,,,,,,,,,,,,,,,,,,,,,,,,,,,,,,,,,,,,
,,,,,,,,2023-08-16_08h48.25.640,HF_wild_card,2022.2.4,MacIntel,59.97361161,5ea925adf0ff0739ccf94b45,64d2fd46c836a06233681665,64dc7f3cdaf0b543d8b5d48d,,,,,,,sngl,resources/Empty.png,resources/DG.BMP,Door4,0.273803787,0.027446175,1,0,0,0.6167,optionRight,60,6975,3,38,0,38,0,1,,,,,,,,,,,,,,,,,,,,,,,,,,,,,,,,,,,,,,,
,,,,,,,,2023-08-16_08h48.25.640,HF_wild_card,2022.2.4,MacIntel,59.97361161,5ea925adf0ff0739ccf94b45,64d2fd46c836a06233681665,64dc7f3cdaf0b543d8b5d48d,,,,,,,decisionTrl,resources/DY.BMP,resources/DG.BMP,Door3,-0.328522911,0.015404587,1,0,0,0.7317,optionLeft,70,7045,3,39,0,39,0,1,,,,,,,,,,,,,,,,,,,,,,,,,,,,,,,,,,,,,,,
,,,,,,,,2023-08-16_08h48.25.640,HF_wild_card,2022.2.4,MacIntel,59.97361161,5ea925adf0ff0739ccf94b45,64d2fd46c836a06233681665,64dc7f3cdaf0b543d8b5d48d,,,,,,,sngl,resources/Empty.png,resources/DBN.BMP,WildCard_NonEx,0.189601364,0.012101288,1,0,0,0.5991,optionRight,45,7090,3,40,0,40,0,1,,,,,,,,,,,,,,,,,,,,,,,,,,,,,,,,,,,,,,,
,,,,,,,,2023-08-16_08h48.25.640,HF_wild_card,2022.2.4,MacIntel,59.97361161,5ea925adf0ff0739ccf94b45,64d2fd46c836a06233681665,64dc7f3cdaf0b543d8b5d48d,,,,,,,decisionTrl,resources/DB.BMP,resources/DP.BMP,Door1,0.242736435,-0.025523605,1,0,0,0.7966,optionRight,30,7120,3,41,0,41,0,1,,,,,,,,,,,,,,,,,,,,,,,,,,,,,,,,,,,,,,,
,,,,,,,,2023-08-16_08h48.25.640,HF_wild_card,2022.2.4,MacIntel,59.97361161,5ea925adf0ff0739ccf94b45,64d2fd46c836a06233681665,64dc7f3cdaf0b543d8b5d48d,,,,,,,decisionTrl,resources/DP.BMP,resources/DB.BMP,Door1,-0.235283012,-0.02419487,1,0,0,0.7992,optionLeft,30,7150,3,42,0,42,0,1,,,,,,,,,,,,,,,,,,,,,,,,,,,,,,,,,,,,,,,
,,,,,,,,2023-08-16_08h48.25.640,HF_wild_card,2022.2.4,MacIntel,59.97361161,5ea925adf0ff0739ccf94b45,64d2fd46c836a06233681665,64dc7f3cdaf0b543d8b5d48d,,,,,,,decisionTrl,resources/DBN.BMP,resources/DG.BMP,Door4,0.370439529,-0.001808319,1,0,0,1.038,optionRight,60,7210,3,43,0,43,0,1,,,,,,,,,,,,,,,,,,,,,,,,,,,,,,,,,,,,,,,
,,,,,,,,2023-08-16_08h48.25.640,HF_wild_card,2022.2.4,MacIntel,59.97361161,5ea925adf0ff0739ccf94b45,64d2fd46c836a06233681665,64dc7f3cdaf0b543d8b5d48d,,,,,,,,,,,,,,,,,,,,,,,,,,2,0,2,0,1,,,,,,,,,,,,,,,,,,,,,,,,,,,,,,,,,,
,,,,,,,,2023-08-16_08h48.25.640,HF_wild_card,2022.2.4,MacIntel,59.97361161,5ea925adf0ff0739ccf94b45,64d2fd46c836a06233681665,64dc7f3cdaf0b543d8b5d48d,,,,,,,decisionTrl,resources/DG.BMP,resources/DY.BMP,Door3,0.367092285,-0.092177734,1,0,0,1.4006,optionRight,70,7280,4,0,0,0,0,1,,,,,,,,,,,,,,,,,,,,,,,,,,,,,,,,,,,,,,,
,,,,,,,,2023-08-16_08h48.25.640,HF_wild_card,2022.2.4,MacIntel,59.97361161,5ea925adf0ff0739ccf94b45,64d2fd46c836a06233681665,64dc7f3cdaf0b543d8b5d48d,,,,,,,decisionTrl,resources/DB.BMP,resources/DR.BMP,WildCard_Ex,0.183040771,-0.004746895,1,0,0,2.764,optionRight,5,7285,4,1,0,1,0,1,,,,,,,,,,,,,,,,,,,,,,,,,,,,,,,,,,,,,,,
,,,,,,,,2023-08-16_08h48.25.640,HF_wild_card,2022.2.4,MacIntel,59.97361161,5ea925adf0ff0739ccf94b45,64d2fd46c836a06233681665,64dc7f3cdaf0b543d8b5d48d,,,,,,,decisionTrl,resources/DR.BMP,resources/DY.BMP,Door3,0.266689987,0.006850395,1,0,0,0.7117,optionRight,70,7355,4,2,0,2,0,1,,,,,,,,,,,,,,,,,,,,,,,,,,,,,,,,,,,,,,,
,,,,,,,,2023-08-16_08h48.25.640,HF_wild_card,2022.2.4,MacIntel,59.97361161,5ea925adf0ff0739ccf94b45,64d2fd46c836a06233681665,64dc7f3cdaf0b543d8b5d48d,,,,,,,sngl,resources/DR.BMP,resources/Empty.png,WildCard_Ex,-0.298534698,0.001230583,1,0,0,0.8643,optionLeft,95,7450,4,3,0,3,0,1,,,,,,,,,,,,,,,,,,,,,,,,,,,,,,,,,,,,,,,
,,,,,,,,2023-08-16_08h48.25.640,HF_wild_card,2022.2.4,MacIntel,59.97361161,5ea925adf0ff0739ccf94b45,64d2fd46c836a06233681665,64dc7f3cdaf0b543d8b5d48d,,,,,,,ctch,resources/DG.BMP,resources/DP.BMP,Door4,-0.201903687,0.006804047,1,0,0,0.9793,optionLeft,80,7530,4,4,0,4,0,1,,,,,,,,,,,,,,,,,,,,,,,,,,,,,,,,,,,,,,,
,,,,,,,,2023-08-16_08h48.25.640,HF_wild_card,2022.2.4,MacIntel,59.97361161,5ea925adf0ff0739ccf94b45,64d2fd46c836a06233681665,64dc7f3cdaf0b543d8b5d48d,,,,,,,sngl,resources/DB.BMP,resources/Empty.png,Door2,-0.223995705,0.009029045,1,0,0,0.727,optionLeft,20,7550,4,5,0,5,0,1,,,,,,,,,,,,,,,,,,,,,,,,,,,,,,,,,,,,,,,
,,,,,,,,2023-08-16_08h48.25.640,HF_wild_card,2022.2.4,MacIntel,59.97361161,5ea925adf0ff0739ccf94b45,64d2fd46c836a06233681665,64dc7f3cdaf0b543d8b5d48d,,,,,,,sngl,resources/Empty.png,resources/DR.BMP,WildCard_Ex,0.186758118,-0.001923218,1,0,0,0.668,optionRight,5,7555,4,6,0,6,0,1,,,,,,,,,,,,,,,,,,,,,,,,,,,,,,,,,,,,,,,
,,,,,,,,2023-08-16_08h48.25.640,HF_wild_card,2022.2.4,MacIntel,59.97361161,5ea925adf0ff0739ccf94b45,64d2fd46c836a06233681665,64dc7f3cdaf0b543d8b5d48d,,,,,,,decisionTrl,resources/DY.BMP,resources/DG.BMP,Door3,-0.207655563,0.001828613,1,0,0,1.1338,optionLeft,70,7625,4,7,0,7,0,1,,,,,,,,,,,,,,,,,,,,,,,,,,,,,,,,,,,,,,,
,,,,,,,,2023-08-16_08h48.25.640,HF_wild_card,2022.2.4,MacIntel,59.97361161,5ea925adf0ff0739ccf94b45,64d2fd46c836a06233681665,64dc7f3cdaf0b543d8b5d48d,,,,,,,ctch,resources/DP.BMP,resources/DG.BMP,Door4,0.214359055,-0.005402489,1,0,0,1.3618,optionRight,80,7705,4,8,0,8,0,1,,,,,,,,,,,,,,,,,,,,,,,,,,,,,,,,,,,,,,,
,,,,,,,,2023-08-16_08h48.25.640,HF_wild_card,2022.2.4,MacIntel,59.97361161,5ea925adf0ff0739ccf94b45,64d2fd46c836a06233681665,64dc7f3cdaf0b543d8b5d48d,,,,,,,decisionTrl,resources/DB.BMP,resources/DP.BMP,Door1,0.229254913,-0.029380608,1,0,0,0.8508,optionRight,30,7735,4,9,0,9,0,1,,,,,,,,,,,,,,,,,,,,,,,,,,,,,,,,,,,,,,,
,,,,,,,,2023-08-16_08h48.25.640,HF_wild_card,2022.2.4,MacIntel,59.97361161,5ea925adf0ff0739ccf94b45,64d2fd46c836a06233681665,64dc7f3cdaf0b543d8b5d48d,,,,,,,decisionTrl,resources/DY.BMP,resources/DG.BMP,Door3,-0.251626816,0.016387787,1,0,0,0.8138,optionLeft,70,7805,4,10,0,10,0,1,,,,,,,,,,,,,,,,,,,,,,,,,,,,,,,,,,,,,,,
,,,,,,,,2023-08-16_08h48.25.640,HF_wild_card,2022.2.4,MacIntel,59.97361161,5ea925adf0ff0739ccf94b45,64d2fd46c836a06233681665,64dc7f3cdaf0b543d8b5d48d,,,,,,,decisionTrl,resources/DR.BMP,resources/DB.BMP,WildCard_Ex,-0.175336571,-0.002863846,1,0,0,2.5797,optionLeft,95,7900,4,11,0,11,0,1,,,,,,,,,,,,,,,,,,,,,,,,,,,,,,,,,,,,,,,
,,,,,,,,2023-08-16_08h48.25.640,HF_wild_card,2022.2.4,MacIntel,59.97361161,5ea925adf0ff0739ccf94b45,64d2fd46c836a06233681665,64dc7f3cdaf0b543d8b5d48d,,,,,,,ctch,resources/DB.BMP,resources/DY.BMP,Door3,0.230576782,-0.004220657,1,0,0,0.657,optionRight,70,7970,4,12,0,12,0,1,,,,,,,,,,,,,,,,,,,,,,,,,,,,,,,,,,,,,,,
,,,,,,,,2023-08-16_08h48.25.640,HF_wild_card,2022.2.4,MacIntel,59.97361161,5ea925adf0ff0739ccf94b45,64d2fd46c836a06233681665,64dc7f3cdaf0b543d8b5d48d,,,,,,,ctch,resources/DY.BMP,resources/DB.BMP,Door3,-0.224709282,0.004272079,1,0,0,0.6463,optionLeft,70,8040,4,13,0,13,0,1,,,,,,,,,,,,,,,,,,,,,,,,,,,,,,,,,,,,,,,
,,,,,,,,2023-08-16_08h48.25.640,HF_wild_card,2022.2.4,MacIntel,59.97361161,5ea925adf0ff0739ccf94b45,64d2fd46c836a06233681665,64dc7f3cdaf0b543d8b5d48d,,,,,,,decisionTrl,resources/DY.BMP,resources/DR.BMP,Door3,-0.184910469,-0.008202057,1,0,0,0.9984,optionLeft,70,8110,4,14,0,14,0,1,,,,,,,,,,,,,,,,,,,,,,,,,,,,,,,,,,,,,,,
,,,,,,,,2023-08-16_08h48.25.640,HF_wild_card,2022.2.4,MacIntel,59.97361161,5ea925adf0ff0739ccf94b45,64d2fd46c836a06233681665,64dc7f3cdaf0b543d8b5d48d,,,,,,,decisionTrl,resources/DB.BMP,resources/DP.BMP,Door1,0.258620605,-0.048244667,1,0,0,0.7806,optionRight,30,8140,4,15,0,15,0,1,,,,,,,,,,,,,,,,,,,,,,,,,,,,,,,,,,,,,,,
,,,,,,,,2023-08-16_08h48.25.640,HF_wild_card,2022.2.4,MacIntel,59.97361161,5ea925adf0ff0739ccf94b45,64d2fd46c836a06233681665,64dc7f3cdaf0b543d8b5d48d,,,,,,,decisionTrl,resources/DB.BMP,resources/DP.BMP,Door1,0.282131271,-0.039792404,1,0,0,0.7326,optionRight,30,8170,4,16,0,16,0,1,,,,,,,,,,,,,,,,,,,,,,,,,,,,,,,,,,,,,,,
,,,,,,,,2023-08-16_08h48.25.640,HF_wild_card,2022.2.4,MacIntel,59.97361161,5ea925adf0ff0739ccf94b45,64d2fd46c836a06233681665,64dc7f3cdaf0b543d8b5d48d,,,,,,,decisionTrl,resources/DB.BMP,resources/DP.BMP,Door1,0.266860275,-0.040829048,1,0,0,0.7155,optionRight,30,8200,4,17,0,17,0,1,,,,,,,,,,,,,,,,,,,,,,,,,,,,,,,,,,,,,,,
,,,,,,,,2023-08-16_08h48.25.640,HF_wild_card,2022.2.4,MacIntel,59.97361161,5ea925adf0ff0739ccf94b45,64d2fd46c836a06233681665,64dc7f3cdaf0b543d8b5d48d,,,,,,,sngl,resources/DP.BMP,resources/Empty.png,Door1,-0.24369072,0.001764908,1,0,0,0.6305,optionLeft,30,8230,4,18,0,18,0,1,,,,,,,,,,,,,,,,,,,,,,,,,,,,,,,,,,,,,,,
,,,,,,,,2023-08-16_08h48.25.640,HF_wild_card,2022.2.4,MacIntel,59.97361161,5ea925adf0ff0739ccf94b45,64d2fd46c836a06233681665,64dc7f3cdaf0b543d8b5d48d,,,,,,,decisionTrl,resources/DR.BMP,resources/DG.BMP,Door4,0.222368164,0.001927986,1,0,0,1.3319,optionRight,60,8290,4,19,0,19,0,1,,,,,,,,,,,,,,,,,,,,,,,,,,,,,,,,,,,,,,,
,,,,,,,,2023-08-16_08h48.25.640,HF_wild_card,2022.2.4,MacIntel,59.97361161,5ea925adf0ff0739ccf94b45,64d2fd46c836a06233681665,64dc7f3cdaf0b543d8b5d48d,,,,,,,sngl,resources/Empty.png,resources/DB.BMP,Door2,0.191330643,-0.013821907,1,0,0,0.6489,optionRight,40,8330,4,20,0,20,0,1,,,,,,,,,,,,,,,,,,,,,,,,,,,,,,,,,,,,,,,
,,,,,,,,2023-08-16_08h48.25.640,HF_wild_card,2022.2.4,MacIntel,59.97361161,5ea925adf0ff0739ccf94b45,64d2fd46c836a06233681665,64dc7f3cdaf0b543d8b5d48d,,,,,,,decisionTrl,resources/DG.BMP,resources/DY.BMP,Door3,0.176680603,-0.029381752,1,0,0,0.8719,optionRight,70,8400,4,21,0,21,0,1,,,,,,,,,,,,,,,,,,,,,,,,,,,,,,,,,,,,,,,
,,,,,,,,2023-08-16_08h48.25.640,HF_wild_card,2022.2.4,MacIntel,59.97361161,5ea925adf0ff0739ccf94b45,64d2fd46c836a06233681665,64dc7f3cdaf0b543d8b5d48d,,,,,,,decisionTrl,resources/DP.BMP,resources/DB.BMP,Door1,-0.287857742,-0.007720528,1,0,0,1.2885,optionLeft,30,8430,4,22,0,22,0,1,,,,,,,,,,,,,,,,,,,,,,,,,,,,,,,,,,,,,,,
,,,,,,,,2023-08-16_08h48.25.640,HF_wild_card,2022.2.4,MacIntel,59.97361161,5ea925adf0ff0739ccf94b45,64d2fd46c836a06233681665,64dc7f3cdaf0b543d8b5d48d,,,,,,,sngl,resources/DY.BMP,resources/Empty.png,Door3,-0.236389084,-0.002128334,1,0,0,0.7165,optionLeft,70,8500,4,23,0,23,0,1,,,,,,,,,,,,,,,,,,,,,,,,,,,,,,,,,,,,,,,
,,,,,,,,2023-08-16_08h48.25.640,HF_wild_card,2022.2.4,MacIntel,59.97361161,5ea925adf0ff0739ccf94b45,64d2fd46c836a06233681665,64dc7f3cdaf0b543d8b5d48d,,,,,,,decisionTrl,resources/DG.BMP,resources/DY.BMP,Door3,0.267284927,-0.023151741,1,0,0,0.9493,optionRight,70,8570,4,24,0,24,0,1,,,,,,,,,,,,,,,,,,,,,,,,,,,,,,,,,,,,,,,
,,,,,,,,2023-08-16_08h48.25.640,HF_wild_card,2022.2.4,MacIntel,59.97361161,5ea925adf0ff0739ccf94b45,64d2fd46c836a06233681665,64dc7f3cdaf0b543d8b5d48d,,,,,,,decisionTrl,resources/DP.BMP,resources/DB.BMP,Door1,-0.219316177,-0.003956642,1,0,0,0.8823,optionLeft,30,8600,4,25,0,25,0,1,,,,,,,,,,,,,,,,,,,,,,,,,,,,,,,,,,,,,,,
,,,,,,,,2023-08-16_08h48.25.640,HF_wild_card,2022.2.4,MacIntel,59.97361161,5ea925adf0ff0739ccf94b45,64d2fd46c836a06233681665,64dc7f3cdaf0b543d8b5d48d,,,,,,,decisionTrl,resources/DG.BMP,resources/DY.BMP,Door3,0.224374466,-0.005313797,1,0,0,0.8458,optionRight,70,8670,4,26,0,26,0,1,,,,,,,,,,,,,,,,,,,,,,,,,,,,,,,,,,,,,,,
,,,,,,,,2023-08-16_08h48.25.640,HF_wild_card,2022.2.4,MacIntel,59.97361161,5ea925adf0ff0739ccf94b45,64d2fd46c836a06233681665,64dc7f3cdaf0b543d8b5d48d,,,,,,,decisionTrl,resources/DP.BMP,resources/DR.BMP,WildCard_Ex,0.155497589,-0.006173935,1,0,0,1.3969,optionRight,95,8765,4,27,0,27,0,1,,,,,,,,,,,,,,,,,,,,,,,,,,,,,,,,,,,,,,,
,,,,,,,,2023-08-16_08h48.25.640,HF_wild_card,2022.2.4,MacIntel,59.97361161,5ea925adf0ff0739ccf94b45,64d2fd46c836a06233681665,64dc7f3cdaf0b543d8b5d48d,,,,,,,sngl,resources/Empty.png,resources/DG.BMP,Door4,0.244780121,0.039480247,1,0,0,1.5164,optionRight,80,8845,4,28,0,28,0,1,,,,,,,,,,,,,,,,,,,,,,,,,,,,,,,,,,,,,,,
,,,,,,,,2023-08-16_08h48.25.640,HF_wild_card,2022.2.4,MacIntel,59.97361161,5ea925adf0ff0739ccf94b45,64d2fd46c836a06233681665,64dc7f3cdaf0b543d8b5d48d,,,,,,,decisionTrl,resources/DY.BMP,resources/DG.BMP,Door4,0.18397934,0.031182632,1,0,0,0.9478,optionRight,80,8925,4,29,0,29,0,1,,,,,,,,,,,,,,,,,,,,,,,,,,,,,,,,,,,,,,,
,,,,,,,,2023-08-16_08h48.25.640,HF_wild_card,2022.2.4,MacIntel,59.97361161,5ea925adf0ff0739ccf94b45,64d2fd46c836a06233681665,64dc7f3cdaf0b543d8b5d48d,,,,,,,decisionTrl,resources/DP.BMP,resources/DB.BMP,Door1,-0.220957375,-0.007729149,1,0,0,0.8989,optionLeft,30,8955,4,30,0,30,0,1,,,,,,,,,,,,,,,,,,,,,,,,,,,,,,,,,,,,,,,
,,,,,,,,2023-08-16_08h48.25.640,HF_wild_card,2022.2.4,MacIntel,59.97361161,5ea925adf0ff0739ccf94b45,64d2fd46c836a06233681665,64dc7f3cdaf0b543d8b5d48d,,,,,,,sngl,resources/Empty.png,resources/DR.BMP,WildCard_Ex,0.248764648,-0.022208557,1,0,0,0.6155,optionRight,95,9050,4,31,0,31,0,1,,,,,,,,,,,,,,,,,,,,,,,,,,,,,,,,,,,,,,,
,,,,,,,,2023-08-16_08h48.25.640,HF_wild_card,2022.2.4,MacIntel,59.97361161,5ea925adf0ff0739ccf94b45,64d2fd46c836a06233681665,64dc7f3cdaf0b543d8b5d48d,,,,,,,ctch,resources/DB.BMP,resources/DY.BMP,Door3,0.327486191,-0.050188065,1,0,0,0.8306,optionRight,70,9120,4,32,0,32,0,1,,,,,,,,,,,,,,,,,,,,,,,,,,,,,,,,,,,,,,,
,,,,,,,,2023-08-16_08h48.25.640,HF_wild_card,2022.2.4,MacIntel,59.97361161,5ea925adf0ff0739ccf94b45,64d2fd46c836a06233681665,64dc7f3cdaf0b543d8b5d48d,,,,,,,sngl,resources/Empty.png,resources/DY.BMP,Door3,0.221538315,0.005476532,1,0,0,0.783,optionRight,70,9190,4,33,0,33,0,1,,,,,,,,,,,,,,,,,,,,,,,,,,,,,,,,,,,,,,,
,,,,,,,,2023-08-16_08h48.25.640,HF_wild_card,2022.2.4,MacIntel,59.97361161,5ea925adf0ff0739ccf94b45,64d2fd46c836a06233681665,64dc7f3cdaf0b543d8b5d48d,,,,,,,ctch,resources/DG.BMP,resources/DP.BMP,Door4,-0.157549362,0.028806343,1,0,0,0.7999,optionLeft,60,9250,4,34,0,34,0,1,,,,,,,,,,,,,,,,,,,,,,,,,,,,,,,,,,,,,,,
,,,,,,,,2023-08-16_08h48.25.640,HF_wild_card,2022.2.4,MacIntel,59.97361161,5ea925adf0ff0739ccf94b45,64d2fd46c836a06233681665,64dc7f3cdaf0b543d8b5d48d,,,,,,,decisionTrl,resources/DY.BMP,resources/DG.BMP,Door3,-0.189878044,0.006234283,1,0,0,0.7674,optionLeft,70,9320,4,35,0,35,0,1,,,,,,,,,,,,,,,,,,,,,,,,,,,,,,,,,,,,,,,
,,,,,,,,2023-08-16_08h48.25.640,HF_wild_card,2022.2.4,MacIntel,59.97361161,5ea925adf0ff0739ccf94b45,64d2fd46c836a06233681665,64dc7f3cdaf0b543d8b5d48d,,,,,,,ctch,resources/DP.BMP,resources/DG.BMP,Door4,0.308276672,6.66428E-05,1,0,0,1.0483,optionRight,80,9400,4,36,0,36,0,1,,,,,,,,,,,,,,,,,,,,,,,,,,,,,,,,,,,,,,,
,,,,,,,,2023-08-16_08h48.25.640,HF_wild_card,2022.2.4,MacIntel,59.97361161,5ea925adf0ff0739ccf94b45,64d2fd46c836a06233681665,64dc7f3cdaf0b543d8b5d48d,,,,,,,sngl,resources/DG.BMP,resources/Empty.png,Door4,-0.280551605,0.024534683,1,0,0,0.7151,optionLeft,60,9460,4,37,0,37,0,1,,,,,,,,,,,,,,,,,,,,,,,,,,,,,,,,,,,,,,,
,,,,,,,,2023-08-16_08h48.25.640,HF_wild_card,2022.2.4,MacIntel,59.97361161,5ea925adf0ff0739ccf94b45,64d2fd46c836a06233681665,64dc7f3cdaf0b543d8b5d48d,,,,,,,ctch,resources/DY.BMP,resources/DB.BMP,Door3,-0.270313911,0.019931221,1,0,0,1.4624,optionLeft,70,9530,4,38,0,38,0,1,,,,,,,,,,,,,,,,,,,,,,,,,,,,,,,,,,,,,,,
,,,,,,,,2023-08-16_08h48.25.640,HF_wild_card,2022.2.4,MacIntel,59.97361161,5ea925adf0ff0739ccf94b45,64d2fd46c836a06233681665,64dc7f3cdaf0b543d8b5d48d,,,,,,,decisionTrl,resources/DP.BMP,resources/DB.BMP,Door1,-0.222780113,-0.007150345,1,0,0,1.2154,optionLeft,30,9560,4,39,0,39,0,1,,,,,,,,,,,,,,,,,,,,,,,,,,,,,,,,,,,,,,,
,,,,,,,,2023-08-16_08h48.25.640,HF_wild_card,2022.2.4,MacIntel,59.97361161,5ea925adf0ff0739ccf94b45,64d2fd46c836a06233681665,64dc7f3cdaf0b543d8b5d48d,,,,,,,sngl,resources/Empty.png,resources/DP.BMP,Door1,0.211313934,-0.006562996,1,0,0,0.7515,optionRight,30,9590,4,40,0,40,0,1,,,,,,,,,,,,,,,,,,,,,,,,,,,,,,,,,,,,,,,
,,,,,,,,2023-08-16_08h48.25.640,HF_wild_card,2022.2.4,MacIntel,59.97361161,5ea925adf0ff0739ccf94b45,64d2fd46c836a06233681665,64dc7f3cdaf0b543d8b5d48d,,,,,,,sngl,resources/DR.BMP,resources/Empty.png,WildCard_Ex,-0.2334235,0.043398399,1,0,0,0.6657,optionLeft,5,9595,4,41,0,41,0,1,,,,,,,,,,,,,,,,,,,,,,,,,,,,,,,,,,,,,,,
,,,,,,,,2023-08-16_08h48.25.640,HF_wild_card,2022.2.4,MacIntel,59.97361161,5ea925adf0ff0739ccf94b45,64d2fd46c836a06233681665,64dc7f3cdaf0b543d8b5d48d,,,,,,,decisionTrl,resources/DG.BMP,resources/DR.BMP,Door4,-0.224798584,0.00957798,1,0,0,0.9807,optionLeft,80,9675,4,42,0,42,0,1,,,,,,,,,,,,,,,,,,,,,,,,,,,,,,,,,,,,,,,
,,,,,,,,2023-08-16_08h48.25.640,HF_wild_card,2022.2.4,MacIntel,59.97361161,5ea925adf0ff0739ccf94b45,64d2fd46c836a06233681665,64dc7f3cdaf0b543d8b5d48d,,,,,,,decisionTrl,resources/DR.BMP,resources/DP.BMP,WildCard_Ex,-0.225247574,0.019333153,1,0,0,0.7627,optionLeft,5,9680,4,43,0,43,0,1,,,,,,,,,,,,,,,,,,,,,,,,,,,,,,,,,,,,,,,
,,,,,,,,2023-08-16_08h48.25.640,HF_wild_card,2022.2.4,MacIntel,59.97361161,5ea925adf0ff0739ccf94b45,64d2fd46c836a06233681665,64dc7f3cdaf0b543d8b5d48d,,,,,,,,,,,,,,,,,,,,,,,,,,3,0,3,0,1,,,,,,,,,,,,,,,,,,,,,,,,,,,,,,,,,,
,,,,,,,,2023-08-16_08h48.25.640,HF_wild_card,2022.2.4,MacIntel,59.97361161,5ea925adf0ff0739ccf94b45,64d2fd46c836a06233681665,64dc7f3cdaf0b543d8b5d48d,,,,,,,decisionTrl,resources/DY.BMP,resources/DR.BMP,Door3,-0.243972626,-0.096075935,1,0,0,1.204,optionLeft,70,9750,5,0,0,0,0,1,,,,,,,,,,,,,,,,,,,,,,,,,,,,,,,,,,,,,,,
,,,,,,,,2023-08-16_08h48.25.640,HF_wild_card,2022.2.4,MacIntel,59.97361161,5ea925adf0ff0739ccf94b45,64d2fd46c836a06233681665,64dc7f3cdaf0b543d8b5d48d,,,,,,,decisionTrl,resources/DB.BMP,resources/DP.BMP,Door1,0.213359756,-0.031532211,1,0,0,0.949,optionRight,30,9780,5,1,0,1,0,1,,,,,,,,,,,,,,,,,,,,,,,,,,,,,,,,,,,,,,,
,,,,,,,,2023-08-16_08h48.25.640,HF_wild_card,2022.2.4,MacIntel,59.97361161,5ea925adf0ff0739ccf94b45,64d2fd46c836a06233681665,64dc7f3cdaf0b543d8b5d48d,,,,,,,decisionTrl,resources/DP.BMP,resources/DR.BMP,WildCard_Ex,0.265030518,-0.03205574,1,0,0,0.9959,optionRight,95,9875,5,2,0,2,0,1,,,,,,,,,,,,,,,,,,,,,,,,,,,,,,,,,,,,,,,
,,,,,,,,2023-08-16_08h48.25.640,HF_wild_card,2022.2.4,MacIntel,59.97361161,5ea925adf0ff0739ccf94b45,64d2fd46c836a06233681665,64dc7f3cdaf0b543d8b5d48d,,,,,,,sngl,resources/DR.BMP,resources/Empty.png,WildCard_Ex,-0.229181671,-0.009754066,1,0,0,0.6632,optionLeft,5,9880,5,3,0,3,0,1,,,,,,,,,,,,,,,,,,,,,,,,,,,,,,,,,,,,,,,
,,,,,,,,2023-08-16_08h48.25.640,HF_wild_card,2022.2.4,MacIntel,59.97361161,5ea925adf0ff0739ccf94b45,64d2fd46c836a06233681665,64dc7f3cdaf0b543d8b5d48d,,,,,,,decisionTrl,resources/DP.BMP,resources/DB.BMP,Door1,-0.199257698,-0.012675476,1,0,0,0.865,optionLeft,30,9910,5,4,0,4,0,1,,,,,,,,,,,,,,,,,,,,,,,,,,,,,,,,,,,,,,,
,,,,,,,,2023-08-16_08h48.25.640,HF_wild_card,2022.2.4,MacIntel,59.97361161,5ea925adf0ff0739ccf94b45,64d2fd46c836a06233681665,64dc7f3cdaf0b543d8b5d48d,,,,,,,sngl,resources/Empty.png,resources/DY.BMP,Door3,0.202103577,0.024599419,1,0,0,0.6309,optionRight,70,9980,5,5,0,5,0,1,,,,,,,,,,,,,,,,,,,,,,,,,,,,,,,,,,,,,,,
,,,,,,,,2023-08-16_08h48.25.640,HF_wild_card,2022.2.4,MacIntel,59.97361161,5ea925adf0ff0739ccf94b45,64d2fd46c836a06233681665,64dc7f3cdaf0b543d8b5d48d,,,,,,,ctch,resources/DB.BMP,resources/DY.BMP,Door3,0.211767426,-0.017681541,1,0,0,0.7304,optionRight,70,10050,5,6,0,6,0,1,,,,,,,,,,,,,,,,,,,,,,,,,,,,,,,,,,,,,,,
,,,,,,,,2023-08-16_08h48.25.640,HF_wild_card,2022.2.4,MacIntel,59.97361161,5ea925adf0ff0739ccf94b45,64d2fd46c836a06233681665,64dc7f3cdaf0b543d8b5d48d,,,,,,,ctch,resources/DB.BMP,resources/DY.BMP,Door3,0.230624542,-0.006394005,1,0,0,0.6637,optionRight,70,10120,5,7,0,7,0,1,,,,,,,,,,,,,,,,,,,,,,,,,,,,,,,,,,,,,,,
,,,,,,,,2023-08-16_08h48.25.640,HF_wild_card,2022.2.4,MacIntel,59.97361161,5ea925adf0ff0739ccf94b45,64d2fd46c836a06233681665,64dc7f3cdaf0b543d8b5d48d,,,,,,,decisionTrl,resources/DY.BMP,resources/DG.BMP,Door3,-0.29368309,-0.018760452,1,0,0,0.8658,optionLeft,70,10190,5,8,0,8,0,1,,,,,,,,,,,,,,,,,,,,,,,,,,,,,,,,,,,,,,,
,,,,,,,,2023-08-16_08h48.25.640,HF_wild_card,2022.2.4,MacIntel,59.97361161,5ea925adf0ff0739ccf94b45,64d2fd46c836a06233681665,64dc7f3cdaf0b543d8b5d48d,,,,,,,decisionTrl,resources/DB.BMP,resources/DP.BMP,Door1,0.234472427,-0.019553566,1,0,0,0.7817,optionRight,30,10220,5,9,0,9,0,1,,,,,,,,,,,,,,,,,,,,,,,,,,,,,,,,,,,,,,,
,,,,,,,,2023-08-16_08h48.25.640,HF_wild_card,2022.2.4,MacIntel,59.97361161,5ea925adf0ff0739ccf94b45,64d2fd46c836a06233681665,64dc7f3cdaf0b543d8b5d48d,,,,,,,decisionTrl,resources/DG.BMP,resources/DY.BMP,Door3,0.261833267,-0.010465736,1,0,0,0.8315,optionRight,70,10290,5,10,0,10,0,1,,,,,,,,,,,,,,,,,,,,,,,,,,,,,,,,,,,,,,,
,,,,,,,,2023-08-16_08h48.25.640,HF_wild_card,2022.2.4,MacIntel,59.97361161,5ea925adf0ff0739ccf94b45,64d2fd46c836a06233681665,64dc7f3cdaf0b543d8b5d48d,,,,,,,ctch,resources/DG.BMP,resources/DP.BMP,Door4,-0.148365173,0.020508652,1,0,0,1.0978,optionLeft,80,10370,5,11,0,11,0,1,,,,,,,,,,,,,,,,,,,,,,,,,,,,,,,,,,,,,,,
,,,,,,,,2023-08-16_08h48.25.640,HF_wild_card,2022.2.4,MacIntel,59.97361161,5ea925adf0ff0739ccf94b45,64d2fd46c836a06233681665,64dc7f3cdaf0b543d8b5d48d,,,,,,,sngl,resources/DY.BMP,resources/Empty.png,Door3,-0.18843998,-0.008863525,1,0,0,0.6633,optionLeft,70,10440,5,12,0,12,0,1,,,,,,,,,,,,,,,,,,,,,,,,,,,,,,,,,,,,,,,
,,,,,,,,2023-08-16_08h48.25.640,HF_wild_card,2022.2.4,MacIntel,59.97361161,5ea925adf0ff0739ccf94b45,64d2fd46c836a06233681665,64dc7f3cdaf0b543d8b5d48d,,,,,,,decisionTrl,resources/DB.BMP,resources/DR.BMP,WildCard_Ex,0.188074265,-0.014490814,1,0,0,0.7309,optionRight,95,10535,5,13,0,13,0,1,,,,,,,,,,,,,,,,,,,,,,,,,,,,,,,,,,,,,,,
,,,,,,,,2023-08-16_08h48.25.640,HF_wild_card,2022.2.4,MacIntel,59.97361161,5ea925adf0ff0739ccf94b45,64d2fd46c836a06233681665,64dc7f3cdaf0b543d8b5d48d,,,,,,,sngl,resources/Empty.png,resources/DG.BMP,Door4,0.226255035,-0.017763405,1,0,0,0.7966,optionRight,60,10595,5,14,0,14,0,1,,,,,,,,,,,,,,,,,,,,,,,,,,,,,,,,,,,,,,,
,,,,,,,,2023-08-16_08h48.25.640,HF_wild_card,2022.2.4,MacIntel,59.97361161,5ea925adf0ff0739ccf94b45,64d2fd46c836a06233681665,64dc7f3cdaf0b543d8b5d48d,,,,,,,sngl,resources/Empty.png,resources/DB.BMP,Door2,0.198645096,0.020882797,1,0,0,0.6996,optionRight,20,10615,5,15,0,15,0,1,,,,,,,,,,,,,,,,,,,,,,,,,,,,,,,,,,,,,,,
,,,,,,,,2023-08-16_08h48.25.640,HF_wild_card,2022.2.4,MacIntel,59.97361161,5ea925adf0ff0739ccf94b45,64d2fd46c836a06233681665,64dc7f3cdaf0b543d8b5d48d,,,,,,,decisionTrl,resources/DG.BMP,resources/DY.BMP,Door3,0.177069778,-0.000559959,1,0,0,0.9162,optionRight,70,10685,5,16,0,16,0,1,,,,,,,,,,,,,,,,,,,,,,,,,,,,,,,,,,,,,,,
,,,,,,,,2023-08-16_08h48.25.640,HF_wild_card,2022.2.4,MacIntel,59.97361161,5ea925adf0ff0739ccf94b45,64d2fd46c836a06233681665,64dc7f3cdaf0b543d8b5d48d,,,,,,,sngl,resources/DB.BMP,resources/Empty.png,Door2,-0.171043816,0.001899757,1,0,0,0.7151,optionLeft,40,10725,5,17,0,17,0,1,,,,,,,,,,,,,,,,,,,,,,,,,,,,,,,,,,,,,,,
,,,,,,,,2023-08-16_08h48.25.640,HF_wild_card,2022.2.4,MacIntel,59.97361161,5ea925adf0ff0739ccf94b45,64d2fd46c836a06233681665,64dc7f3cdaf0b543d8b5d48d,,,,,,,decisionTrl,resources/DP.BMP,resources/DB.BMP,Door1,-0.167904205,-0.011662064,1,0,0,1.2654,optionLeft,30,10755,5,18,0,18,0,1,,,,,,,,,,,,,,,,,,,,,,,,,,,,,,,,,,,,,,,
,,,,,,,,2023-08-16_08h48.25.640,HF_wild_card,2022.2.4,MacIntel,59.97361161,5ea925adf0ff0739ccf94b45,64d2fd46c836a06233681665,64dc7f3cdaf0b543d8b5d48d,,,,,,,ctch,resources/DY.BMP,resources/DB.BMP,Door3,-0.177215385,-0.006689758,1,0,0,0.7824,optionLeft,70,10825,5,19,0,19,0,1,,,,,,,,,,,,,,,,,,,,,,,,,,,,,,,,,,,,,,,
,,,,,,,,2023-08-16_08h48.25.640,HF_wild_card,2022.2.4,MacIntel,59.97361161,5ea925adf0ff0739ccf94b45,64d2fd46c836a06233681665,64dc7f3cdaf0b543d8b5d48d,,,,,,,decisionTrl,resources/DB.BMP,resources/DP.BMP,Door1,0.281015472,-0.034568901,1,0,0,0.7369,optionRight,30,10855,5,20,0,20,0,1,,,,,,,,,,,,,,,,,,,,,,,,,,,,,,,,,,,,,,,
,,,,,,,,2023-08-16_08h48.25.640,HF_wild_card,2022.2.4,MacIntel,59.97361161,5ea925adf0ff0739ccf94b45,64d2fd46c836a06233681665,64dc7f3cdaf0b543d8b5d48d,,,,,,,sngl,resources/Empty.png,resources/DP.BMP,Door1,0.17767395,0.006586418,1,0,0,0.6312,optionRight,30,10885,5,21,0,21,0,1,,,,,,,,,,,,,,,,,,,,,,,,,,,,,,,,,,,,,,,
,,,,,,,,2023-08-16_08h48.25.640,HF_wild_card,2022.2.4,MacIntel,59.97361161,5ea925adf0ff0739ccf94b45,64d2fd46c836a06233681665,64dc7f3cdaf0b543d8b5d48d,,,,,,,ctch,resources/DP.BMP,resources/DG.BMP,Door1,-0.321937752,0.014483452,1,0,0,1.1966,optionLeft,30,10915,5,22,0,22,0,1,,,,,,,,,,,,,,,,,,,,,,,,,,,,,,,,,,,,,,,
,,,,,,,,2023-08-16_08h48.25.640,HF_wild_card,2022.2.4,MacIntel,59.97361161,5ea925adf0ff0739ccf94b45,64d2fd46c836a06233681665,64dc7f3cdaf0b543d8b5d48d,,,,,,,decisionTrl,resources/DR.BMP,resources/DG.BMP,Door4,0.213643112,5.27573E-05,1,0,0,1.0828,optionRight,60,10975,5,23,0,23,0,1,,,,,,,,,,,,,,,,,,,,,,,,,,,,,,,,,,,,,,,
,,,,,,,,2023-08-16_08h48.25.640,HF_wild_card,2022.2.4,MacIntel,59.97361161,5ea925adf0ff0739ccf94b45,64d2fd46c836a06233681665,64dc7f3cdaf0b543d8b5d48d,,,,,,,decisionTrl,resources/DP.BMP,resources/DB.BMP,Door1,-0.147726669,-0.006686478,1,0,0,1.0825,optionLeft,30,11005,5,24,0,24,0,1,,,,,,,,,,,,,,,,,,,,,,,,,,,,,,,,,,,,,,,
,,,,,,,,2023-08-16_08h48.25.640,HF_wild_card,2022.2.4,MacIntel,59.97361161,5ea925adf0ff0739ccf94b45,64d2fd46c836a06233681665,64dc7f3cdaf0b543d8b5d48d,,,,,,,decisionTrl,resources/DG.BMP,resources/DY.BMP,Door3,0.232346039,0.001155891,1,0,0,1.1161,optionRight,70,11075,5,25,0,25,0,1,,,,,,,,,,,,,,,,,,,,,,,,,,,,,,,,,,,,,,,
,,,,,,,,2023-08-16_08h48.25.640,HF_wild_card,2022.2.4,MacIntel,59.97361161,5ea925adf0ff0739ccf94b45,64d2fd46c836a06233681665,64dc7f3cdaf0b543d8b5d48d,,,,,,,decisionTrl,resources/DP.BMP,resources/DB.BMP,Door1,-0.209795723,0.000393066,1,0,0,0.8981,optionLeft,30,11105,5,26,0,26,0,1,,,,,,,,,,,,,,,,,,,,,,,,,,,,,,,,,,,,,,,
,,,,,,,,2023-08-16_08h48.25.640,HF_wild_card,2022.2.4,MacIntel,59.97361161,5ea925adf0ff0739ccf94b45,64d2fd46c836a06233681665,64dc7f3cdaf0b543d8b5d48d,,,,,,,sngl,resources/DR.BMP,resources/Empty.png,WildCard_Ex,-0.245650177,0.000443764,1,0,0,0.7472,optionLeft,95,11200,5,27,0,27,0,1,,,,,,,,,,,,,,,,,,,,,,,,,,,,,,,,,,,,,,,
,,,,,,,,2023-08-16_08h48.25.640,HF_wild_card,2022.2.4,MacIntel,59.97361161,5ea925adf0ff0739ccf94b45,64d2fd46c836a06233681665,64dc7f3cdaf0b543d8b5d48d,,,,,,,decisionTrl,resources/DG.BMP,resources/DR.BMP,Door4,-0.195137787,-0.004827614,1,0,0,1.2985,optionLeft,60,11260,5,28,0,28,0,1,,,,,,,,,,,,,,,,,,,,,,,,,,,,,,,,,,,,,,,
,,,,,,,,2023-08-16_08h48.25.640,HF_wild_card,2022.2.4,MacIntel,59.97361161,5ea925adf0ff0739ccf94b45,64d2fd46c836a06233681665,64dc7f3cdaf0b543d8b5d48d,,,,,,,sngl,resources/DP.BMP,resources/Empty.png,Door1,-0.275247726,0.021417809,1,0,0,0.9489,optionLeft,30,11290,5,29,0,29,0,1,,,,,,,,,,,,,,,,,,,,,,,,,,,,,,,,,,,,,,,
,,,,,,,,2023-08-16_08h48.25.640,HF_wild_card,2022.2.4,MacIntel,59.97361161,5ea925adf0ff0739ccf94b45,64d2fd46c836a06233681665,64dc7f3cdaf0b543d8b5d48d,,,,,,,decisionTrl,resources/DY.BMP,resources/DG.BMP,Door3,-0.199595184,0.012050438,1,0,0,0.9312,optionLeft,70,11360,5,30,0,30,0,1,,,,,,,,,,,,,,,,,,,,,,,,,,,,,,,,,,,,,,,
,,,,,,,,2023-08-16_08h48.25.640,HF_wild_card,2022.2.4,MacIntel,59.97361161,5ea925adf0ff0739ccf94b45,64d2fd46c836a06233681665,64dc7f3cdaf0b543d8b5d48d,,,,,,,sngl,resources/Empty.png,resources/DR.BMP,WildCard_Ex,0.293814926,0.018531342,1,0,0,0.8297,optionRight,5,11365,5,31,0,31,0,1,,,,,,,,,,,,,,,,,,,,,,,,,,,,,,,,,,,,,,,
,,,,,,,,2023-08-16_08h48.25.640,HF_wild_card,2022.2.4,MacIntel,59.97361161,5ea925adf0ff0739ccf94b45,64d2fd46c836a06233681665,64dc7f3cdaf0b543d8b5d48d,,,,,,,ctch,resources/DG.BMP,resources/DP.BMP,Door4,-0.219956131,0.024828606,1,0,0,1.2161,optionLeft,80,11445,5,32,0,32,0,1,,,,,,,,,,,,,,,,,,,,,,,,,,,,,,,,,,,,,,,
,,,,,,,,2023-08-16_08h48.25.640,HF_wild_card,2022.2.4,MacIntel,59.97361161,5ea925adf0ff0739ccf94b45,64d2fd46c836a06233681665,64dc7f3cdaf0b543d8b5d48d,,,,,,,ctch,resources/DY.BMP,resources/DB.BMP,Door3,-0.222487679,-0.010542564,1,0,0,0.7479,optionLeft,70,11515,5,33,0,33,0,1,,,,,,,,,,,,,,,,,,,,,,,,,,,,,,,,,,,,,,,
,,,,,,,,2023-08-16_08h48.25.640,HF_wild_card,2022.2.4,MacIntel,59.97361161,5ea925adf0ff0739ccf94b45,64d2fd46c836a06233681665,64dc7f3cdaf0b543d8b5d48d,,,,,,,sngl,resources/Empty.png,resources/DR.BMP,WildCard_Ex,0.156446457,0.012567215,1,0,0,0.7648,optionRight,95,11610,5,34,0,34,0,1,,,,,,,,,,,,,,,,,,,,,,,,,,,,,,,,,,,,,,,
,,,,,,,,2023-08-16_08h48.25.640,HF_wild_card,2022.2.4,MacIntel,59.97361161,5ea925adf0ff0739ccf94b45,64d2fd46c836a06233681665,64dc7f3cdaf0b543d8b5d48d,,,,,,,decisionTrl,resources/DR.BMP,resources/DB.BMP,WildCard_Ex,-0.216417122,0.000505104,1,0,0,0.8176,optionLeft,95,11705,5,35,0,35,0,1,,,,,,,,,,,,,,,,,,,,,,,,,,,,,,,,,,,,,,,
,,,,,,,,2023-08-16_08h48.25.640,HF_wild_card,2022.2.4,MacIntel,59.97361161,5ea925adf0ff0739ccf94b45,64d2fd46c836a06233681665,64dc7f3cdaf0b543d8b5d48d,,,,,,,sngl,resources/DG.BMP,resources/Empty.png,Door4,-0.246340256,-0.008888054,1,0,0,0.7989,optionLeft,80,11785,5,36,0,36,0,1,,,,,,,,,,,,,,,,,,,,,,,,,,,,,,,,,,,,,,,
,,,,,,,,2023-08-16_08h48.25.640,HF_wild_card,2022.2.4,MacIntel,59.97361161,5ea925adf0ff0739ccf94b45,64d2fd46c836a06233681665,64dc7f3cdaf0b543d8b5d48d,,,,,,,decisionTrl,resources/DR.BMP,resources/DP.BMP,WildCard_Ex,-0.231334457,0.022380028,1,0,0,0.8486,optionLeft,5,11790,5,37,0,37,0,1,,,,,,,,,,,,,,,,,,,,,,,,,,,,,,,,,,,,,,,
,,,,,,,,2023-08-16_08h48.25.640,HF_wild_card,2022.2.4,MacIntel,59.97361161,5ea925adf0ff0739ccf94b45,64d2fd46c836a06233681665,64dc7f3cdaf0b543d8b5d48d,,,,,,,decisionTrl,resources/DR.BMP,resources/DY.BMP,Door3,0.279708099,-0.031660919,1,0,0,0.9298,optionRight,70,11860,5,38,0,38,0,1,,,,,,,,,,,,,,,,,,,,,,,,,,,,,,,,,,,,,,,
,,,,,,,,2023-08-16_08h48.25.640,HF_wild_card,2022.2.4,MacIntel,59.97361161,5ea925adf0ff0739ccf94b45,64d2fd46c836a06233681665,64dc7f3cdaf0b543d8b5d48d,,,,,,,decisionTrl,resources/DG.BMP,resources/DY.BMP,Door3,0.203201752,-0.028223801,1,0,0,2.2839,optionRight,70,11930,5,39,0,39,0,1,,,,,,,,,,,,,,,,,,,,,,,,,,,,,,,,,,,,,,,
,,,,,,,,2023-08-16_08h48.25.640,HF_wild_card,2022.2.4,MacIntel,59.97361161,5ea925adf0ff0739ccf94b45,64d2fd46c836a06233681665,64dc7f3cdaf0b543d8b5d48d,,,,,,,decisionTrl,resources/DY.BMP,resources/DG.BMP,Door3,-0.23333992,-0.012261963,1,0,0,0.7988,optionLeft,70,12000,5,40,0,40,0,1,,,,,,,,,,,,,,,,,,,,,,,,,,,,,,,,,,,,,,,
,,,,,,,,2023-08-16_08h48.25.640,HF_wild_card,2022.2.4,MacIntel,59.97361161,5ea925adf0ff0739ccf94b45,64d2fd46c836a06233681665,64dc7f3cdaf0b543d8b5d48d,,,,,,,ctch,resources/DP.BMP,resources/DG.BMP,Door4,0.206398315,-0.02094162,1,0,0,1.1824,optionRight,80,12080,5,41,0,41,0,1,,,,,,,,,,,,,,,,,,,,,,,,,,,,,,,,,,,,,,,
,,,,,,,,2023-08-16_08h48.25.640,HF_wild_card,2022.2.4,MacIntel,59.97361161,5ea925adf0ff0739ccf94b45,64d2fd46c836a06233681665,64dc7f3cdaf0b543d8b5d48d,,,,,,,decisionTrl,resources/DB.BMP,resources/DP.BMP,Door1,0.251583786,-0.047316628,1,0,0,1.5327,optionRight,30,12110,5,42,0,42,0,1,,,,,,,,,,,,,,,,,,,,,,,,,,,,,,,,,,,,,,,
,,,,,,,,2023-08-16_08h48.25.640,HF_wild_card,2022.2.4,MacIntel,59.97361161,5ea925adf0ff0739ccf94b45,64d2fd46c836a06233681665,64dc7f3cdaf0b543d8b5d48d,,,,,,,decisionTrl,resources/DY.BMP,resources/DG.BMP,Door3,-0.201866722,-0.042297897,1,0,0,1.2815,optionLeft,70,12180,5,43,0,43,0,1,,,,,,,,,,,,,,,,,,,,,,,,,,,,,,,,,,,,,,,
,,,,,,,,2023-08-16_08h48.25.640,HF_wild_card,2022.2.4,MacIntel,59.97361161,5ea925adf0ff0739ccf94b45,64d2fd46c836a06233681665,64dc7f3cdaf0b543d8b5d48d,,,,,,,,,,,,,,,,,,,,,,,,,,4,0,4,0,1,,,,,,,,,,,,,,,,,,,,,,,,,,,,,,,,,,
,,,,,,,,2023-08-16_08h48.25.640,HF_wild_card,2022.2.4,MacIntel,59.97361161,5ea925adf0ff0739ccf94b45,64d2fd46c836a06233681665,64dc7f3cdaf0b543d8b5d48d,,,,,,,ctch,resources/DY.BMP,resources/DB.BMP,Door3,-0.398492012,-0.06606926,1,0,0,0.7863,optionLeft,70,12250,6,0,0,0,0,1,,,,,,,,,,,,,,,,,,,,,,,,,,,,,,,,,,,,,,,
,,,,,,,,2023-08-16_08h48.25.640,HF_wild_card,2022.2.4,MacIntel,59.97361161,5ea925adf0ff0739ccf94b45,64d2fd46c836a06233681665,64dc7f3cdaf0b543d8b5d48d,,,,,,,ctch,resources/DG.BMP,resources/DP.BMP,Door4,-0.278554726,-0.013246918,1,0,0,0.8114,optionLeft,80,12330,6,1,0,1,0,1,,,,,,,,,,,,,,,,,,,,,,,,,,,,,,,,,,,,,,,
,,,,,,,,2023-08-16_08h48.25.640,HF_wild_card,2022.2.4,MacIntel,59.97361161,5ea925adf0ff0739ccf94b45,64d2fd46c836a06233681665,64dc7f3cdaf0b543d8b5d48d,,,,,,,ctch,resources/DY.BMP,resources/DB.BMP,Door3,-0.305117073,0.00645607,1,0,0,0.6826,optionLeft,70,12400,6,2,0,2,0,1,,,,,,,,,,,,,,,,,,,,,,,,,,,,,,,,,,,,,,,
,,,,,,,,2023-08-16_08h48.25.640,HF_wild_card,2022.2.4,MacIntel,59.97361161,5ea925adf0ff0739ccf94b45,64d2fd46c836a06233681665,64dc7f3cdaf0b543d8b5d48d,,,,,,,decisionTrl,resources/DG.BMP,resources/DR.BMP,Door4,-0.268722458,0.017863388,1,0,0,1.3149,optionLeft,80,12480,6,3,0,3,0,1,,,,,,,,,,,,,,,,,,,,,,,,,,,,,,,,,,,,,,,
,,,,,,,,2023-08-16_08h48.25.640,HF_wild_card,2022.2.4,MacIntel,59.97361161,5ea925adf0ff0739ccf94b45,64d2fd46c836a06233681665,64dc7f3cdaf0b543d8b5d48d,,,,,,,ctch,resources/DB.BMP,resources/DY.BMP,Door3,0.201961288,-0.022809296,1,0,0,0.8154,optionRight,70,12550,6,4,0,4,0,1,,,,,,,,,,,,,,,,,,,,,,,,,,,,,,,,,,,,,,,
,,,,,,,,2023-08-16_08h48.25.640,HF_wild_card,2022.2.4,MacIntel,59.97361161,5ea925adf0ff0739ccf94b45,64d2fd46c836a06233681665,64dc7f3cdaf0b543d8b5d48d,,,,,,,ctch,resources/DB.BMP,resources/DY.BMP,Door3,0.302381973,-0.017824211,1,0,0,0.65,optionRight,70,12620,6,5,0,5,0,1,,,,,,,,,,,,,,,,,,,,,,,,,,,,,,,,,,,,,,,
,,,,,,,,2023-08-16_08h48.25.640,HF_wild_card,2022.2.4,MacIntel,59.97361161,5ea925adf0ff0739ccf94b45,64d2fd46c836a06233681665,64dc7f3cdaf0b543d8b5d48d,,,,,,,decisionTrl,resources/DR.BMP,resources/DP.BMP,WildCard_Ex,-0.164516678,-0.00476738,1,0,0,1.0151,optionLeft,95,12715,6,6,0,6,0,1,,,,,,,,,,,,,,,,,,,,,,,,,,,,,,,,,,,,,,,
,,,,,,,,2023-08-16_08h48.25.640,HF_wild_card,2022.2.4,MacIntel,59.97361161,5ea925adf0ff0739ccf94b45,64d2fd46c836a06233681665,64dc7f3cdaf0b543d8b5d48d,,,,,,,decisionTrl,resources/DB.BMP,resources/DP.BMP,Door1,0.266363297,0.004810295,1,0,0,0.7146,optionRight,30,12745,6,7,0,7,0,1,,,,,,,,,,,,,,,,,,,,,,,,,,,,,,,,,,,,,,,
,,,,,,,,2023-08-16_08h48.25.640,HF_wild_card,2022.2.4,MacIntel,59.97361161,5ea925adf0ff0739ccf94b45,64d2fd46c836a06233681665,64dc7f3cdaf0b543d8b5d48d,,,,,,,decisionTrl,resources/DG.BMP,resources/DY.BMP,Door3,0.191809921,-0.012496109,1,0,0,0.9312,optionRight,70,12815,6,8,0,8,0,1,,,,,,,,,,,,,,,,,,,,,,,,,,,,,,,,,,,,,,,
,,,,,,,,2023-08-16_08h48.25.640,HF_wild_card,2022.2.4,MacIntel,59.97361161,5ea925adf0ff0739ccf94b45,64d2fd46c836a06233681665,64dc7f3cdaf0b543d8b5d48d,,,,,,,sngl,resources/DB.BMP,resources/Empty.png,Door2,-0.24258873,0.008893661,1,0,0,0.7822,optionLeft,20,12835,6,9,0,9,0,1,,,,,,,,,,,,,,,,,,,,,,,,,,,,,,,,,,,,,,,
,,,,,,,,2023-08-16_08h48.25.640,HF_wild_card,2022.2.4,MacIntel,59.97361161,5ea925adf0ff0739ccf94b45,64d2fd46c836a06233681665,64dc7f3cdaf0b543d8b5d48d,,,,,,,decisionTrl,resources/DP.BMP,resources/DB.BMP,Door1,-0.212764244,0.012725067,1,0,0,0.8139,optionLeft,30,12865,6,10,0,10,0,1,,,,,,,,,,,,,,,,,,,,,,,,,,,,,,,,,,,,,,,
,,,,,,,,2023-08-16_08h48.25.640,HF_wild_card,2022.2.4,MacIntel,59.97361161,5ea925adf0ff0739ccf94b45,64d2fd46c836a06233681665,64dc7f3cdaf0b543d8b5d48d,,,,,,,decisionTrl,resources/DG.BMP,resources/DY.BMP,Door3,0.176113281,0.001029587,1,0,0,1.036,optionRight,70,12935,6,11,0,11,0,1,,,,,,,,,,,,,,,,,,,,,,,,,,,,,,,,,,,,,,,
,,,,,,,,2023-08-16_08h48.25.640,HF_wild_card,2022.2.4,MacIntel,59.97361161,5ea925adf0ff0739ccf94b45,64d2fd46c836a06233681665,64dc7f3cdaf0b543d8b5d48d,,,,,,,sngl,resources/Empty.png,resources/DB.BMP,Door2,0.155467148,0.008381081,1,0,0,0.6656,optionRight,40,12975,6,12,0,12,0,1,,,,,,,,,,,,,,,,,,,,,,,,,,,,,,,,,,,,,,,
,,,,,,,,2023-08-16_08h48.25.640,HF_wild_card,2022.2.4,MacIntel,59.97361161,5ea925adf0ff0739ccf94b45,64d2fd46c836a06233681665,64dc7f3cdaf0b543d8b5d48d,,,,,,,decisionTrl,resources/DP.BMP,resources/DB.BMP,Door1,-0.160628014,0.002041626,1,0,0,0.8817,optionLeft,30,13005,6,13,0,13,0,1,,,,,,,,,,,,,,,,,,,,,,,,,,,,,,,,,,,,,,,
,,,,,,,,2023-08-16_08h48.25.640,HF_wild_card,2022.2.4,MacIntel,59.97361161,5ea925adf0ff0739ccf94b45,64d2fd46c836a06233681665,64dc7f3cdaf0b543d8b5d48d,,,,,,,decisionTrl,resources/DY.BMP,resources/DG.BMP,Door3,-0.267058868,-0.002016068,1,0,0,0.832,optionLeft,70,13075,6,14,0,14,0,1,,,,,,,,,,,,,,,,,,,,,,,,,,,,,,,,,,,,,,,
,,,,,,,,2023-08-16_08h48.25.640,HF_wild_card,2022.2.4,MacIntel,59.97361161,5ea925adf0ff0739ccf94b45,64d2fd46c836a06233681665,64dc7f3cdaf0b543d8b5d48d,,,,,,,decisionTrl,resources/DY.BMP,resources/DR.BMP,Door3,-0.285050316,0.028899498,1,0,0,0.7134,optionLeft,70,13145,6,15,0,15,0,1,,,,,,,,,,,,,,,,,,,,,,,,,,,,,,,,,,,,,,,
,,,,,,,,2023-08-16_08h48.25.640,HF_wild_card,2022.2.4,MacIntel,59.97361161,5ea925adf0ff0739ccf94b45,64d2fd46c836a06233681665,64dc7f3cdaf0b543d8b5d48d,,,,,,,ctch,resources/DG.BMP,resources/DP.BMP,Door4,-0.231225128,0.028067398,1,0,0,0.8488,optionLeft,60,13205,6,16,0,16,0,1,,,,,,,,,,,,,,,,,,,,,,,,,,,,,,,,,,,,,,,
,,,,,,,,2023-08-16_08h48.25.640,HF_wild_card,2022.2.4,MacIntel,59.97361161,5ea925adf0ff0739ccf94b45,64d2fd46c836a06233681665,64dc7f3cdaf0b543d8b5d48d,,,,,,,decisionTrl,resources/DB.BMP,resources/DP.BMP,Door1,0.157777405,0.001369781,1,0,0,0.7483,optionRight,30,13235,6,17,0,17,0,1,,,,,,,,,,,,,,,,,,,,,,,,,,,,,,,,,,,,,,,
,,,,,,,,2023-08-16_08h48.25.640,HF_wild_card,2022.2.4,MacIntel,59.97361161,5ea925adf0ff0739ccf94b45,64d2fd46c836a06233681665,64dc7f3cdaf0b543d8b5d48d,,,,,,,sngl,resources/Empty.png,resources/DR.BMP,WildCard_Ex,0.195480652,0.014182396,1,0,0,0.6651,optionRight,95,13330,6,18,0,18,0,1,,,,,,,,,,,,,,,,,,,,,,,,,,,,,,,,,,,,,,,
,,,,,,,,2023-08-16_08h48.25.640,HF_wild_card,2022.2.4,MacIntel,59.97361161,5ea925adf0ff0739ccf94b45,64d2fd46c836a06233681665,64dc7f3cdaf0b543d8b5d48d,,,,,,,decisionTrl,resources/DB.BMP,resources/DR.BMP,WildCard_Ex,0.237294846,-0.009549942,1,0,0,0.6978,optionRight,95,13425,6,19,0,19,0,1,,,,,,,,,,,,,,,,,,,,,,,,,,,,,,,,,,,,,,,
,,,,,,,,2023-08-16_08h48.25.640,HF_wild_card,2022.2.4,MacIntel,59.97361161,5ea925adf0ff0739ccf94b45,64d2fd46c836a06233681665,64dc7f3cdaf0b543d8b5d48d,,,,,,,sngl,resources/DR.BMP,resources/Empty.png,WildCard_Ex,-0.268366432,-0.018019981,1,0,0,0.7317,optionLeft,95,13520,6,20,0,20,0,1,,,,,,,,,,,,,,,,,,,,,,,,,,,,,,,,,,,,,,,
,,,,,,,,2023-08-16_08h48.25.640,HF_wild_card,2022.2.4,MacIntel,59.97361161,5ea925adf0ff0739ccf94b45,64d2fd46c836a06233681665,64dc7f3cdaf0b543d8b5d48d,,,,,,,sngl,resources/DY.BMP,resources/Empty.png,Door3,-0.241169739,0.017373009,1,0,0,0.6315,optionLeft,70,13590,6,21,0,21,0,1,,,,,,,,,,,,,,,,,,,,,,,,,,,,,,,,,,,,,,,
,,,,,,,,2023-08-16_08h48.25.640,HF_wild_card,2022.2.4,MacIntel,59.97361161,5ea925adf0ff0739ccf94b45,64d2fd46c836a06233681665,64dc7f3cdaf0b543d8b5d48d,,,,,,,sngl,resources/DR.BMP,resources/Empty.png,WildCard_Ex,-0.27488575,0.000470848,1,0,0,0.7996,optionLeft,5,13595,6,22,0,22,0,1,,,,,,,,,,,,,,,,,,,,,,,,,,,,,,,,,,,,,,,
,,,,,,,,2023-08-16_08h48.25.640,HF_wild_card,2022.2.4,MacIntel,59.97361161,5ea925adf0ff0739ccf94b45,64d2fd46c836a06233681665,64dc7f3cdaf0b543d8b5d48d,,,,,,,sngl,resources/Empty.png,resources/DR.BMP,WildCard_Ex,0.23355278,0.000364227,1,0,0,0.6471,optionRight,5,13600,6,23,0,23,0,1,,,,,,,,,,,,,,,,,,,,,,,,,,,,,,,,,,,,,,,
,,,,,,,,2023-08-16_08h48.25.640,HF_wild_card,2022.2.4,MacIntel,59.97361161,5ea925adf0ff0739ccf94b45,64d2fd46c836a06233681665,64dc7f3cdaf0b543d8b5d48d,,,,,,,decisionTrl,resources/DY.BMP,resources/DG.BMP,Door3,-0.160552177,0.022684708,1,0,0,0.8119,optionLeft,70,13670,6,24,0,24,0,1,,,,,,,,,,,,,,,,,,,,,,,,,,,,,,,,,,,,,,,
,,,,,,,,2023-08-16_08h48.25.640,HF_wild_card,2022.2.4,MacIntel,59.97361161,5ea925adf0ff0739ccf94b45,64d2fd46c836a06233681665,64dc7f3cdaf0b543d8b5d48d,,,,,,,sngl,resources/DP.BMP,resources/Empty.png,Door1,-0.240821991,-0.009519691,1,0,0,0.6667,optionLeft,30,13700,6,25,0,25,0,1,,,,,,,,,,,,,,,,,,,,,,,,,,,,,,,,,,,,,,,
,,,,,,,,2023-08-16_08h48.25.640,HF_wild_card,2022.2.4,MacIntel,59.97361161,5ea925adf0ff0739ccf94b45,64d2fd46c836a06233681665,64dc7f3cdaf0b543d8b5d48d,,,,,,,sngl,resources/Empty.png,resources/DY.BMP,Door3,0.218013077,-0.012058945,1,0,0,0.6304,optionRight,70,13770,6,26,0,26,0,1,,,,,,,,,,,,,,,,,,,,,,,,,,,,,,,,,,,,,,,
,,,,,,,,2023-08-16_08h48.25.640,HF_wild_card,2022.2.4,MacIntel,59.97361161,5ea925adf0ff0739ccf94b45,64d2fd46c836a06233681665,64dc7f3cdaf0b543d8b5d48d,,,,,,,decisionTrl,resources/DP.BMP,resources/DB.BMP,Door1,-0.196682854,-0.011985855,1,0,0,0.9308,optionLeft,30,13800,6,27,0,27,0,1,,,,,,,,,,,,,,,,,,,,,,,,,,,,,,,,,,,,,,,
,,,,,,,,2023-08-16_08h48.25.640,HF_wild_card,2022.2.4,MacIntel,59.97361161,5ea925adf0ff0739ccf94b45,64d2fd46c836a06233681665,64dc7f3cdaf0b543d8b5d48d,,,,,,,ctch,resources/DP.BMP,resources/DG.BMP,Door4,0.250353622,-0.014599304,1,0,0,0.948,optionRight,80,13880,6,28,0,28,0,1,,,,,,,,,,,,,,,,,,,,,,,,,,,,,,,,,,,,,,,
,,,,,,,,2023-08-16_08h48.25.640,HF_wild_card,2022.2.4,MacIntel,59.97361161,5ea925adf0ff0739ccf94b45,64d2fd46c836a06233681665,64dc7f3cdaf0b543d8b5d48d,,,,,,,decisionTrl,resources/DR.BMP,resources/DY.BMP,Door3,0.187865677,-0.003580437,1,0,0,0.9818,optionRight,70,13950,6,29,0,29,0,1,,,,,,,,,,,,,,,,,,,,,,,,,,,,,,,,,,,,,,,
,,,,,,,,2023-08-16_08h48.25.640,HF_wild_card,2022.2.4,MacIntel,59.97361161,5ea925adf0ff0739ccf94b45,64d2fd46c836a06233681665,64dc7f3cdaf0b543d8b5d48d,,,,,,,decisionTrl,resources/DP.BMP,resources/DR.BMP,WildCard_Ex,0.183668976,-0.008303299,1,0,0,0.9139,optionRight,95,14045,6,30,0,30,0,1,,,,,,,,,,,,,,,,,,,,,,,,,,,,,,,,,,,,,,,
,,,,,,,,2023-08-16_08h48.25.640,HF_wild_card,2022.2.4,MacIntel,59.97361161,5ea925adf0ff0739ccf94b45,64d2fd46c836a06233681665,64dc7f3cdaf0b543d8b5d48d,,,,,,,decisionTrl,resources/DG.BMP,resources/DY.BMP,Door3,0.157533188,-0.012454147,1,0,0,0.8832,optionRight,70,14115,6,31,0,31,0,1,,,,,,,,,,,,,,,,,,,,,,,,,,,,,,,,,,,,,,,
,,,,,,,,2023-08-16_08h48.25.640,HF_wild_card,2022.2.4,MacIntel,59.97361161,5ea925adf0ff0739ccf94b45,64d2fd46c836a06233681665,64dc7f3cdaf0b543d8b5d48d,,,,,,,decisionTrl,resources/DG.BMP,resources/DY.BMP,Door4,-0.203900452,-0.008915329,1,0,0,0.8668,optionLeft,60,14175,6,32,0,32,0,1,,,,,,,,,,,,,,,,,,,,,,,,,,,,,,,,,,,,,,,
,,,,,,,,2023-08-16_08h48.25.640,HF_wild_card,2022.2.4,MacIntel,59.97361161,5ea925adf0ff0739ccf94b45,64d2fd46c836a06233681665,64dc7f3cdaf0b543d8b5d48d,,,,,,,decisionTrl,resources/DP.BMP,resources/DB.BMP,Door1,-0.178559685,-0.019669075,1,0,0,1.3156,optionLeft,30,14205,6,33,0,33,0,1,,,,,,,,,,,,,,,,,,,,,,,,,,,,,,,,,,,,,,,
,,,,,,,,2023-08-16_08h48.25.640,HF_wild_card,2022.2.4,MacIntel,59.97361161,5ea925adf0ff0739ccf94b45,64d2fd46c836a06233681665,64dc7f3cdaf0b543d8b5d48d,,,,,,,ctch,resources/DP.BMP,resources/DG.BMP,Door4,0.184224167,-0.017029305,1,0,0,0.7817,optionRight,60,14265,6,34,0,34,0,1,,,,,,,,,,,,,,,,,,,,,,,,,,,,,,,,,,,,,,,
,,,,,,,,2023-08-16_08h48.25.640,HF_wild_card,2022.2.4,MacIntel,59.97361161,5ea925adf0ff0739ccf94b45,64d2fd46c836a06233681665,64dc7f3cdaf0b543d8b5d48d,,,,,,,decisionTrl,resources/DY.BMP,resources/DG.BMP,Door3,-0.118339005,-0.002282524,1,0,0,0.8011,optionLeft,70,14335,6,35,0,35,0,1,,,,,,,,,,,,,,,,,,,,,,,,,,,,,,,,,,,,,,,
,,,,,,,,2023-08-16_08h48.25.640,HF_wild_card,2022.2.4,MacIntel,59.97361161,5ea925adf0ff0739ccf94b45,64d2fd46c836a06233681665,64dc7f3cdaf0b543d8b5d48d,,,,,,,sngl,resources/Empty.png,resources/DP.BMP,Door1,0.195525284,0.01186657,1,0,0,0.6649,optionRight,30,14365,6,36,0,36,0,1,,,,,,,,,,,,,,,,,,,,,,,,,,,,,,,,,,,,,,,
,,,,,,,,2023-08-16_08h48.25.640,HF_wild_card,2022.2.4,MacIntel,59.97361161,5ea925adf0ff0739ccf94b45,64d2fd46c836a06233681665,64dc7f3cdaf0b543d8b5d48d,,,,,,,decisionTrl,resources/DB.BMP,resources/DP.BMP,Door1,0.246107101,-0.013196564,1,0,0,0.65,optionRight,30,14395,6,37,0,37,0,1,,,,,,,,,,,,,,,,,,,,,,,,,,,,,,,,,,,,,,,
,,,,,,,,2023-08-16_08h48.25.640,HF_wild_card,2022.2.4,MacIntel,59.97361161,5ea925adf0ff0739ccf94b45,64d2fd46c836a06233681665,64dc7f3cdaf0b543d8b5d48d,,,,,,,decisionTrl,resources/DY.BMP,resources/DG.BMP,Door3,-0.198507004,-0.007555695,1,0,0,0.7151,optionLeft,70,14465,6,38,0,38,0,1,,,,,,,,,,,,,,,,,,,,,,,,,,,,,,,,,,,,,,,
,,,,,,,,2023-08-16_08h48.25.640,HF_wild_card,2022.2.4,MacIntel,59.97361161,5ea925adf0ff0739ccf94b45,64d2fd46c836a06233681665,64dc7f3cdaf0b543d8b5d48d,,,,,,,decisionTrl,resources/DR.BMP,resources/DG.BMP,Door4,0.193663559,0.032207184,1,0,0,1.2152,optionRight,60,14525,6,39,0,39,0,1,,,,,,,,,,,,,,,,,,,,,,,,,,,,,,,,,,,,,,,
,,,,,,,,2023-08-16_08h48.25.640,HF_wild_card,2022.2.4,MacIntel,59.97361161,5ea925adf0ff0739ccf94b45,64d2fd46c836a06233681665,64dc7f3cdaf0b543d8b5d48d,,,,,,,decisionTrl,resources/DR.BMP,resources/DB.BMP,WildCard_Ex,-0.214581718,-0.025212059,1,0,0,0.6289,optionLeft,95,14620,6,40,0,40,0,1,,,,,,,,,,,,,,,,,,,,,,,,,,,,,,,,,,,,,,,
,,,,,,,,2023-08-16_08h48.25.640,HF_wild_card,2022.2.4,MacIntel,59.97361161,5ea925adf0ff0739ccf94b45,64d2fd46c836a06233681665,64dc7f3cdaf0b543d8b5d48d,,,,,,,decisionTrl,resources/DB.BMP,resources/DP.BMP,Door1,0.173228302,-0.020711288,1,0,0,0.8137,optionRight,30,14650,6,41,0,41,0,1,,,,,,,,,,,,,,,,,,,,,,,,,,,,,,,,,,,,,,,
,,,,,,,,2023-08-16_08h48.25.640,HF_wild_card,2022.2.4,MacIntel,59.97361161,5ea925adf0ff0739ccf94b45,64d2fd46c836a06233681665,64dc7f3cdaf0b543d8b5d48d,,,,,,,sngl,resources/DG.BMP,resources/Empty.png,Door4,-0.21566391,0.005352325,1,0,0,0.6477,optionLeft,60,14710,6,42,0,42,0,1,,,,,,,,,,,,,,,,,,,,,,,,,,,,,,,,,,,,,,,
,,,,,,,,2023-08-16_08h48.25.640,HF_wild_card,2022.2.4,MacIntel,59.97361161,5ea925adf0ff0739ccf94b45,64d2fd46c836a06233681665,64dc7f3cdaf0b543d8b5d48d,,,,,,,sngl,resources/Empty.png,resources/DG.BMP,Door4,0.198609009,0.011144943,1,0,0,0.6157,optionRight,80,14790,6,43,0,43,0,1,,,,,,,,,,,,,,,,,,,,,,,,,,,,,,,,,,,,,,,
,,,,,,,,2023-08-16_08h48.25.640,HF_wild_card,2022.2.4,MacIntel,59.97361161,5ea925adf0ff0739ccf94b45,64d2fd46c836a06233681665,64dc7f3cdaf0b543d8b5d48d,,,,,,,,,,,,,,,,,,,,,,,,,,5,0,5,0,1,,,,,,,,,,,,,,,,,,,,,,,,,,,,,,,,,,
,,,,,,,,2023-08-16_08h48.25.640,HF_wild_card,2022.2.4,MacIntel,59.97361161,5ea925adf0ff0739ccf94b45,64d2fd46c836a06233681665,64dc7f3cdaf0b543d8b5d48d,,,,,,,ctch,resources/DB.BMP,resources/DY.BMP,Door3,0.275719376,-0.053116302,1,0,0,0.8696,optionRight,70,14860,7,0,0,0,0,1,,,,,,,,,,,,,,,,,,,,,,,,,,,,,,,,,,,,,,,
,,,,,,,,2023-08-16_08h48.25.640,HF_wild_card,2022.2.4,MacIntel,59.97361161,5ea925adf0ff0739ccf94b45,64d2fd46c836a06233681665,64dc7f3cdaf0b543d8b5d48d,,,,,,,ctch,resources/DG.BMP,resources/DP.BMP,Door4,-0.192690735,-0.040503159,1,0,0,0.9991,optionLeft,60,14920,7,1,0,1,0,1,,,,,,,,,,,,,,,,,,,,,,,,,,,,,,,,,,,,,,,
,,,,,,,,2023-08-16_08h48.25.640,HF_wild_card,2022.2.4,MacIntel,59.97361161,5ea925adf0ff0739ccf94b45,64d2fd46c836a06233681665,64dc7f3cdaf0b543d8b5d48d,,,,,,,decisionTrl,resources/DP.BMP,resources/DB.BMP,Door1,-0.234405174,-0.022002106,1,0,0,0.8471,optionLeft,30,14950,7,2,0,2,0,1,,,,,,,,,,,,,,,,,,,,,,,,,,,,,,,,,,,,,,,
,,,,,,,,2023-08-16_08h48.25.640,HF_wild_card,2022.2.4,MacIntel,59.97361161,5ea925adf0ff0739ccf94b45,64d2fd46c836a06233681665,64dc7f3cdaf0b543d8b5d48d,,,,,,,ctch,resources/DY.BMP,resources/DB.BMP,Door3,-0.308717499,-0.031378784,1,0,0,0.7673,optionLeft,70,15020,7,3,0,3,0,1,,,,,,,,,,,,,,,,,,,,,,,,,,,,,,,,,,,,,,,
,,,,,,,,2023-08-16_08h48.25.640,HF_wild_card,2022.2.4,MacIntel,59.97361161,5ea925adf0ff0739ccf94b45,64d2fd46c836a06233681665,64dc7f3cdaf0b543d8b5d48d,,,,,,,decisionTrl,resources/DG.BMP,resources/DY.BMP,Door3,0.219164963,0.011441116,1,0,0,0.9479,optionRight,70,15090,7,4,0,4,0,1,,,,,,,,,,,,,,,,,,,,,,,,,,,,,,,,,,,,,,,
,,,,,,,,2023-08-16_08h48.25.640,HF_wild_card,2022.2.4,MacIntel,59.97361161,5ea925adf0ff0739ccf94b45,64d2fd46c836a06233681665,64dc7f3cdaf0b543d8b5d48d,,,,,,,decisionTrl,resources/DG.BMP,resources/DY.BMP,Door3,0.22749939,0.021384544,1,0,0,0.6656,optionRight,70,15160,7,5,0,5,0,1,,,,,,,,,,,,,,,,,,,,,,,,,,,,,,,,,,,,,,,
,,,,,,,,2023-08-16_08h48.25.640,HF_wild_card,2022.2.4,MacIntel,59.97361161,5ea925adf0ff0739ccf94b45,64d2fd46c836a06233681665,64dc7f3cdaf0b543d8b5d48d,,,,,,,decisionTrl,resources/DP.BMP,resources/DB.BMP,Door1,-0.188680916,-0.022138901,1,0,0,0.9182,optionLeft,30,15190,7,6,0,6,0,1,,,,,,,,,,,,,,,,,,,,,,,,,,,,,,,,,,,,,,,
,,,,,,,,2023-08-16_08h48.25.640,HF_wild_card,2022.2.4,MacIntel,59.97361161,5ea925adf0ff0739ccf94b45,64d2fd46c836a06233681665,64dc7f3cdaf0b543d8b5d48d,,,,,,,decisionTrl,resources/DP.BMP,resources/DB.BMP,Door1,-0.241505241,-0.01209362,1,0,0,0.8015,optionLeft,30,15220,7,7,0,7,0,1,,,,,,,,,,,,,,,,,,,,,,,,,,,,,,,,,,,,,,,
,,,,,,,,2023-08-16_08h48.25.640,HF_wild_card,2022.2.4,MacIntel,59.97361161,5ea925adf0ff0739ccf94b45,64d2fd46c836a06233681665,64dc7f3cdaf0b543d8b5d48d,,,,,,,decisionTrl,resources/DY.BMP,resources/DG.BMP,Door3,-0.275757446,-0.016533813,1,0,0,0.9803,optionLeft,70,15290,7,8,0,8,0,1,,,,,,,,,,,,,,,,,,,,,,,,,,,,,,,,,,,,,,,
,,,,,,,,2023-08-16_08h48.25.640,HF_wild_card,2022.2.4,MacIntel,59.97361161,5ea925adf0ff0739ccf94b45,64d2fd46c836a06233681665,64dc7f3cdaf0b543d8b5d48d,,,,,,,decisionTrl,resources/DY.BMP,resources/DG.BMP,Door3,-0.241762009,0.011394196,1,0,0,0.7828,optionLeft,70,15360,7,9,0,9,0,1,,,,,,,,,,,,,,,,,,,,,,,,,,,,,,,,,,,,,,,
,,,,,,,,2023-08-16_08h48.25.640,HF_wild_card,2022.2.4,MacIntel,59.97361161,5ea925adf0ff0739ccf94b45,64d2fd46c836a06233681665,64dc7f3cdaf0b543d8b5d48d,,,,,,,decisionTrl,resources/DB.BMP,resources/DP.BMP,Door1,0.260621796,0.005792046,1,0,0,0.7835,optionRight,30,15390,7,10,0,10,0,1,,,,,,,,,,,,,,,,,,,,,,,,,,,,,,,,,,,,,,,
,,,,,,,,2023-08-16_08h48.25.640,HF_wild_card,2022.2.4,MacIntel,59.97361161,5ea925adf0ff0739ccf94b45,64d2fd46c836a06233681665,64dc7f3cdaf0b543d8b5d48d,,,,,,,ctch,resources/DP.BMP,resources/DG.BMP,Door4,0.214683456,0.012184334,1,0,0,0.7501,optionRight,80,15470,7,11,0,11,0,1,,,,,,,,,,,,,,,,,,,,,,,,,,,,,,,,,,,,,,,
,,,,,,,,2023-08-16_08h48.25.640,HF_wild_card,2022.2.4,MacIntel,59.97361161,5ea925adf0ff0739ccf94b45,64d2fd46c836a06233681665,64dc7f3cdaf0b543d8b5d48d,,,,,,,ctch,resources/DP.BMP,resources/DG.BMP,Door4,0.268835831,-0.020213051,1,0,0,0.9827,optionRight,80,15550,7,12,0,12,0,1,,,,,,,,,,,,,,,,,,,,,,,,,,,,,,,,,,,,,,,
,,,,,,,,2023-08-16_08h48.25.640,HF_wild_card,2022.2.4,MacIntel,59.97361161,5ea925adf0ff0739ccf94b45,64d2fd46c836a06233681665,64dc7f3cdaf0b543d8b5d48d,,,,,,,decisionTrl,resources/DY.BMP,resources/DG.BMP,Door3,-0.197150955,0.032187309,1,0,0,0.8163,optionLeft,70,15620,7,13,0,13,0,1,,,,,,,,,,,,,,,,,,,,,,,,,,,,,,,,,,,,,,,
,,,,,,,,2023-08-16_08h48.25.640,HF_wild_card,2022.2.4,MacIntel,59.97361161,5ea925adf0ff0739ccf94b45,64d2fd46c836a06233681665,64dc7f3cdaf0b543d8b5d48d,,,,,,,ctch,resources/DG.BMP,resources/DP.BMP,Door4,-0.256317177,0.020211716,1,0,0,1.0327,optionLeft,80,15700,7,14,0,14,0,1,,,,,,,,,,,,,,,,,,,,,,,,,,,,,,,,,,,,,,,
,,,,,,,,2023-08-16_08h48.25.640,HF_wild_card,2022.2.4,MacIntel,59.97361161,5ea925adf0ff0739ccf94b45,64d2fd46c836a06233681665,64dc7f3cdaf0b543d8b5d48d,,,,,,,decisionTrl,resources/DG.BMP,resources/DY.BMP,Door3,0.208635941,0.013804855,1,0,0,0.7836,optionRight,70,15770,7,15,0,15,0,1,,,,,,,,,,,,,,,,,,,,,,,,,,,,,,,,,,,,,,,
,,,,,,,,2023-08-16_08h48.25.640,HF_wild_card,2022.2.4,MacIntel,59.97361161,5ea925adf0ff0739ccf94b45,64d2fd46c836a06233681665,64dc7f3cdaf0b543d8b5d48d,,,,,,,decisionTrl,resources/DB.BMP,resources/DP.BMP,Door1,0.164537735,0.01674984,1,0,0,1.0823,optionRight,30,15800,7,16,0,16,0,1,,,,,,,,,,,,,,,,,,,,,,,,,,,,,,,,,,,,,,,
,,,,,,,,2023-08-16_08h48.25.640,HF_wild_card,2022.2.4,MacIntel,59.97361161,5ea925adf0ff0739ccf94b45,64d2fd46c836a06233681665,64dc7f3cdaf0b543d8b5d48d,,,,,,,ctch,resources/DB.BMP,resources/DY.BMP,Door3,0.22222847,-0.016708336,1,0,0,0.6818,optionRight,70,15870,7,17,0,17,0,1,,,,,,,,,,,,,,,,,,,,,,,,,,,,,,,,,,,,,,,
,,,,,,,,2023-08-16_08h48.25.640,HF_wild_card,2022.2.4,MacIntel,59.97361161,5ea925adf0ff0739ccf94b45,64d2fd46c836a06233681665,64dc7f3cdaf0b543d8b5d48d,,,,,,,ctch,resources/DG.BMP,resources/DP.BMP,Door4,-0.207548218,-0.021061745,1,0,0,0.8835,optionLeft,80,15950,7,18,0,18,0,1,,,,,,,,,,,,,,,,,,,,,,,,,,,,,,,,,,,,,,,
,,,,,,,,2023-08-16_08h48.25.640,HF_wild_card,2022.2.4,MacIntel,59.97361161,5ea925adf0ff0739ccf94b45,64d2fd46c836a06233681665,64dc7f3cdaf0b543d8b5d48d,,,,,,,decisionTrl,resources/DB.BMP,resources/DP.BMP,Door1,0.171701889,-0.015886421,1,0,0,0.8497,optionRight,30,15980,7,19,0,19,0,1,,,,,,,,,,,,,,,,,,,,,,,,,,,,,,,,,,,,,,,
,,,,,,,,2023-08-16_08h48.25.640,HF_wild_card,2022.2.4,MacIntel,59.97361161,5ea925adf0ff0739ccf94b45,64d2fd46c836a06233681665,64dc7f3cdaf0b543d8b5d48d,,,,,,,ctch,resources/DP.BMP,resources/DG.BMP,Door4,0.159402847,-0.007717781,1,0,0,0.7469,optionRight,80,16060,7,20,0,20,0,1,,,,,,,,,,,,,,,,,,,,,,,,,,,,,,,,,,,,,,,
,,,,,,,,2023-08-16_08h48.25.640,HF_wild_card,2022.2.4,MacIntel,59.97361161,5ea925adf0ff0739ccf94b45,64d2fd46c836a06233681665,64dc7f3cdaf0b543d8b5d48d,,,,,,,decisionTrl,resources/DY.BMP,resources/DG.BMP,Door3,-0.196576614,0.012057877,1,0,0,0.8334,optionLeft,70,16130,7,21,0,21,0,1,,,,,,,,,,,,,,,,,,,,,,,,,,,,,,,,,,,,,,,
,,,,,,,,2023-08-16_08h48.25.640,HF_wild_card,2022.2.4,MacIntel,59.97361161,5ea925adf0ff0739ccf94b45,64d2fd46c836a06233681665,64dc7f3cdaf0b543d8b5d48d,,,,,,,decisionTrl,resources/DY.BMP,resources/DG.BMP,Door3,-0.211814461,0.012755394,1,0,0,0.7654,optionLeft,70,16200,7,22,0,22,0,1,,,,,,,,,,,,,,,,,,,,,,,,,,,,,,,,,,,,,,,
,,,,,,,,2023-08-16_08h48.25.640,HF_wild_card,2022.2.4,MacIntel,59.97361161,5ea925adf0ff0739ccf94b45,64d2fd46c836a06233681665,64dc7f3cdaf0b543d8b5d48d,,,,,,,decisionTrl,resources/DB.BMP,resources/DP.BMP,Door1,0.236068192,0.012350883,1,0,0,0.8842,optionRight,30,16230,7,23,0,23,0,1,,,,,,,,,,,,,,,,,,,,,,,,,,,,,,,,,,,,,,,
,,,,,,,,2023-08-16_08h48.25.640,HF_wild_card,2022.2.4,MacIntel,59.97361161,5ea925adf0ff0739ccf94b45,64d2fd46c836a06233681665,64dc7f3cdaf0b543d8b5d48d,,,,,,,decisionTrl,resources/DY.BMP,resources/DG.BMP,Door3,-0.194624405,0.01553009,1,0,0,0.6996,optionLeft,70,16300,7,24,0,24,0,1,,,,,,,,,,,,,,,,,,,,,,,,,,,,,,,,,,,,,,,
,,,,,,,,2023-08-16_08h48.25.640,HF_wild_card,2022.2.4,MacIntel,59.97361161,5ea925adf0ff0739ccf94b45,64d2fd46c836a06233681665,64dc7f3cdaf0b543d8b5d48d,,,,,,,decisionTrl,resources/DG.BMP,resources/DY.BMP,Door3,0.275981674,9.40704E-05,1,0,0,0.7818,optionRight,70,16370,7,25,0,25,0,1,,,,,,,,,,,,,,,,,,,,,,,,,,,,,,,,,,,,,,,
,,,,,,,,2023-08-16_08h48.25.640,HF_wild_card,2022.2.4,MacIntel,59.97361161,5ea925adf0ff0739ccf94b45,64d2fd46c836a06233681665,64dc7f3cdaf0b543d8b5d48d,,,,,,,decisionTrl,resources/DB.BMP,resources/DP.BMP,Door1,0.196046906,-0.048126297,1,0,0,0.8482,optionRight,30,16400,7,26,0,26,0,1,,,,,,,,,,,,,,,,,,,,,,,,,,,,,,,,,,,,,,,
,,,,,,,,2023-08-16_08h48.25.640,HF_wild_card,2022.2.4,MacIntel,59.97361161,5ea925adf0ff0739ccf94b45,64d2fd46c836a06233681665,64dc7f3cdaf0b543d8b5d48d,,,,,,,decisionTrl,resources/DP.BMP,resources/DB.BMP,Door1,-0.214928093,-0.065368462,1,0,0,0.6485,optionLeft,30,16430,7,27,0,27,0,1,,,,,,,,,,,,,,,,,,,,,,,,,,,,,,,,,,,,,,,
,,,,,,,,2023-08-16_08h48.25.640,HF_wild_card,2022.2.4,MacIntel,59.97361161,5ea925adf0ff0739ccf94b45,64d2fd46c836a06233681665,64dc7f3cdaf0b543d8b5d48d,,,,,,,decisionTrl,resources/DB.BMP,resources/DP.BMP,Door1,0.196690903,-0.011873283,1,0,0,0.6501,optionRight,30,16460,7,28,0,28,0,1,,,,,,,,,,,,,,,,,,,,,,,,,,,,,,,,,,,,,,,
,,,,,,,,2023-08-16_08h48.25.640,HF_wild_card,2022.2.4,MacIntel,59.97361161,5ea925adf0ff0739ccf94b45,64d2fd46c836a06233681665,64dc7f3cdaf0b543d8b5d48d,,,,,,,ctch,resources/DB.BMP,resources/DY.BMP,Door3,0.187871017,0.018644447,1,0,0,0.6171,optionRight,70,16530,7,29,0,29,0,1,,,,,,,,,,,,,,,,,,,,,,,,,,,,,,,,,,,,,,,
,,,,,,,,2023-08-16_08h48.25.640,HF_wild_card,2022.2.4,MacIntel,59.97361161,5ea925adf0ff0739ccf94b45,64d2fd46c836a06233681665,64dc7f3cdaf0b543d8b5d48d,,,,,,,decisionTrl,resources/DP.BMP,resources/DB.BMP,Door1,-0.253619766,-0.031613464,1,0,0,0.9739,optionLeft,30,16560,7,30,0,30,0,1,,,,,,,,,,,,,,,,,,,,,,,,,,,,,,,,,,,,,,,
,,,,,,,,2023-08-16_08h48.25.640,HF_wild_card,2022.2.4,MacIntel,59.97361161,5ea925adf0ff0739ccf94b45,64d2fd46c836a06233681665,64dc7f3cdaf0b543d8b5d48d,,,,,,,decisionTrl,resources/DG.BMP,resources/DY.BMP,Door3,0.172538605,0.013900032,1,0,0,0.9606,optionRight,70,16630,7,31,0,31,0,1,,,,,,,,,,,,,,,,,,,,,,,,,,,,,,,,,,,,,,,
,,,,,,,,2023-08-16_08h48.25.640,HF_wild_card,2022.2.4,MacIntel,59.97361161,5ea925adf0ff0739ccf94b45,64d2fd46c836a06233681665,64dc7f3cdaf0b543d8b5d48d,,,,,,,ctch,resources/DY.BMP,resources/DB.BMP,Door3,-0.281366615,-0.01389782,1,0,0,0.8156,optionLeft,70,16700,7,32,0,32,0,1,,,,,,,,,,,,,,,,,,,,,,,,,,,,,,,,,,,,,,,
,,,,,,,,2023-08-16_08h48.25.640,HF_wild_card,2022.2.4,MacIntel,59.97361161,5ea925adf0ff0739ccf94b45,64d2fd46c836a06233681665,64dc7f3cdaf0b543d8b5d48d,,,,,,,decisionTrl,resources/DP.BMP,resources/DB.BMP,Door1,-0.230607147,-0.012700653,1,0,0,1.189,optionLeft,30,16730,7,33,0,33,0,1,,,,,,,,,,,,,,,,,,,,,,,,,,,,,,,,,,,,,,,
,,,,,,,,2023-08-16_08h48.25.640,HF_wild_card,2022.2.4,MacIntel,59.97361161,5ea925adf0ff0739ccf94b45,64d2fd46c836a06233681665,64dc7f3cdaf0b543d8b5d48d,,,,,,,decisionTrl,resources/DG.BMP,resources/DY.BMP,Door3,0.174890671,0.008861122,1,0,0,0.7335,optionRight,70,16800,7,34,0,34,0,1,,,,,,,,,,,,,,,,,,,,,,,,,,,,,,,,,,,,,,,
,,,,,,,,2023-08-16_08h48.25.640,HF_wild_card,2022.2.4,MacIntel,59.97361161,5ea925adf0ff0739ccf94b45,64d2fd46c836a06233681665,64dc7f3cdaf0b543d8b5d48d,,,,,,,ctch,resources/DY.BMP,resources/DB.BMP,Door3,-0.214685516,0.000783997,1,0,0,0.7744,optionLeft,70,16870,7,35,0,35,0,1,,,,,,,,,,,,,,,,,,,,,,,,,,,,,,,,,,,,,,,
,,,,,,,,2023-08-16_08h48.25.640,HF_wild_card,2022.2.4,MacIntel,59.97361161,5ea925adf0ff0739ccf94b45,64d2fd46c836a06233681665,64dc7f3cdaf0b543d8b5d48d,,,,,,,,,,,,,,,,,,,,,,,,,,6,0,6,0,1,,,,,,,,,,,,,,,,,,,,,,,,,,,,,,,,,,
,,,,,,,,2023-08-16_08h48.25.640,HF_wild_card,2022.2.4,MacIntel,59.97361161,5ea925adf0ff0739ccf94b45,64d2fd46c836a06233681665,64dc7f3cdaf0b543d8b5d48d,,,,,,,,,,,,,,,,,,,,,,,,,,,,,,,4,,,,,,,,,,,,,,,,,,,,,,,,,,,,,,,,,
,,,,,,,,2023-08-16_08h48.25.640,HF_wild_card,2022.2.4,MacIntel,59.97361161,5ea925adf0ff0739ccf94b45,64d2fd46c836a06233681665,64dc7f3cdaf0b543d8b5d48d,,,,,,,,,,,,,,,,,,,,,,,,,,,,,,,,,,,,,,,,,,,,,,,,,,,,,,,,,,,,,,,,
,,,,,,,,2023-08-16_08h48.25.640,HF_wild_card,2022.2.4,MacIntel,59.97361161,5ea925adf0ff0739ccf94b45,64d2fd46c836a06233681665,64dc7f3cdaf0b543d8b5d48d,,,,,,,,,,,,,,,,,,,,,,,,,,,,,,,,45,WC_nonExtreme,resources/DBN.BMP,0,0,0,0,1,,,,,,,,,,,,,,,,,,,,,,,,,
,,,,,,,,2023-08-16_08h48.25.640,HF_wild_card,2022.2.4,MacIntel,59.97361161,5ea925adf0ff0739ccf94b45,64d2fd46c836a06233681665,64dc7f3cdaf0b543d8b5d48d,,,,,,,,,,,,,,,,,,,,,,,,,,,,,,,,30,Door1,resources/DP.BMP,1,0,1,0,1,,,,,,,,,,,,,,,,,,,,,,,,,
,,,,,,,,2023-08-16_08h48.25.640,HF_wild_card,2022.2.4,MacIntel,59.97361161,5ea925adf0ff0739ccf94b45,64d2fd46c836a06233681665,64dc7f3cdaf0b543d8b5d48d,,,,,,,,,,,,,,,,,,,,,,,,,,,,,,,,20,Door2,resources/DB.BMP,2,0,2,0,1,,,,,,,,,,,,,,,,,,,,,,,,,
