Condition,Low fixed image (Door1),Low risky image (Door2),High fixed image (Door3),High risky image (Door4),Extreme Wild Card,NonExtreme Wild Card,,date,expName,psychopyVersion,OS,frameRate,PROLIFIC_PID,STUDY_ID,SESSION_ID,mouse_2.x,mouse_2.y,mouse_2.leftButton,mouse_2.midButton,mouse_2.rightButton,mouse_2.clicked_name,Trial Type,Left Option Image,Right Option Image,Chosen Door,mouse.x,mouse.y,mouse.leftButton,mouse.midButton,mouse.rightButton,mouse.time,mouse.clicked_name,Feedback,Cumulative Reward,Block,trial.thisRepN,trial.thisTrialN,trial.thisN,trial.thisIndex,trial.ran,blocks.thisRepN,blocks.thisTrialN,blocks.thisN,blocks.thisIndex,blocks.ran,Money conversion,First Outcome Reported,Shown Door (First Outcome),Displayed Image (First Outcome),outcomes.thisRepN,outcomes.thisTrialN,outcomes.thisN,outcomes.thisIndex,outcomes.ran,judgments.thisRepN,judgments.thisTrialN,judgments.thisN,judgments.thisIndex,judgments.ran,freqMouse.x,freqMouse.y,freqMouse.leftButton,freqMouse.midButton,freqMouse.rightButton,freqMouse.clicked_name,FQJ for first outcome,FQJ for second outcome,Shown Door,Displayed Image,trials.thisRepN,trials.thisTrialN,trials.thisN,trials.thisIndex,trials.ran,judgBlock.thisRepN,judgBlock.thisTrialN,judgBlock.thisN,judgBlock.thisIndex,judgBlock.ran
0,resources/DBN.BMP,resources/DR.BMP,resources/DG.BMP,resources/DY.BMP,resources/DB.BMP,resources/DP.BMP,,2023-08-16_08h42.23.094,HF_wild_card,2022.2.4,MacIntel,60.0024001,5dbcaecb740cc224d8d0985e,64d2fd46c836a06233681665,64dc7dcaed9d66855003346a,,,,,,,,,,,,,,,,,,,,,,,,,,,,,,,,,,,,,,,,,,,,,,,,,,,,,,,,,,,,,,,,
,,,,,,,,2023-08-16_08h42.23.094,HF_wild_card,2022.2.4,MacIntel,60.0024001,5dbcaecb740cc224d8d0985e,64d2fd46c836a06233681665,64dc7dcaed9d66855003346a,-0.025429687,-0.426289062,1,0,0,agree,,,,,,,,,,,,,,,,,,,,,,,,,,,,,,,,,,,,,,,,,,,,,,,,,,,,,,,,,,
,,,,,,,,2023-08-16_08h42.23.094,HF_wild_card,2022.2.4,MacIntel,60.0024001,5dbcaecb740cc224d8d0985e,64d2fd46c836a06233681665,64dc7dcaed9d66855003346a,,,,,,,,,,,,,,,,,,,,,,,,,,,,,,,,,,,,,,,,,,,,,,,,,,,,,,,,,,,,,,,,
,,,,,,,,2023-08-16_08h42.23.094,HF_wild_card,2022.2.4,MacIntel,60.0024001,5dbcaecb740cc224d8d0985e,64d2fd46c836a06233681665,64dc7dcaed9d66855003346a,,,,,,,ctch,resources/DG.BMP,resources/DR.BMP,Door3,-0.316453993,-0.158919271,1,0,0,2.0619,optionLeft,70,70,1,0,0,0,0,1,,,,,,,,,,,,,,,,,,,,,,,,,,,,,,,,,,,,,,,
,,,,,,,,2023-08-16_08h42.23.094,HF_wild_card,2022.2.4,MacIntel,60.0024001,5dbcaecb740cc224d8d0985e,64d2fd46c836a06233681665,64dc7dcaed9d66855003346a,,,,,,,ctch,resources/DBN.BMP,resources/DY.BMP,Door4,0.432864583,-0.009305556,1,0,0,1.1788,optionRight,80,150,1,1,0,1,0,1,,,,,,,,,,,,,,,,,,,,,,,,,,,,,,,,,,,,,,,
,,,,,,,,2023-08-16_08h42.23.094,HF_wild_card,2022.2.4,MacIntel,60.0024001,5dbcaecb740cc224d8d0985e,64d2fd46c836a06233681665,64dc7dcaed9d66855003346a,,,,,,,sngl,resources/Empty.png,resources/DBN.BMP,Door1,0.439726562,0.025078125,1,0,0,1.1486,optionRight,30,180,1,2,0,2,0,1,,,,,,,,,,,,,,,,,,,,,,,,,,,,,,,,,,,,,,,
,,,,,,,,2023-08-16_08h42.23.094,HF_wild_card,2022.2.4,MacIntel,60.0024001,5dbcaecb740cc224d8d0985e,64d2fd46c836a06233681665,64dc7dcaed9d66855003346a,,,,,,,sngl,resources/Empty.png,resources/DG.BMP,Door3,0.351293403,0.003546007,1,0,0,0.8148,optionRight,70,250,1,3,0,3,0,1,,,,,,,,,,,,,,,,,,,,,,,,,,,,,,,,,,,,,,,
,,,,,,,,2023-08-16_08h42.23.094,HF_wild_card,2022.2.4,MacIntel,60.0024001,5dbcaecb740cc224d8d0985e,64d2fd46c836a06233681665,64dc7dcaed9d66855003346a,,,,,,,sngl,resources/DR.BMP,resources/Empty.png,Door2,-0.380568576,-0.070403646,1,0,0,0.764,optionLeft,40,290,1,4,0,4,0,1,,,,,,,,,,,,,,,,,,,,,,,,,,,,,,,,,,,,,,,
,,,,,,,,2023-08-16_08h42.23.094,HF_wild_card,2022.2.4,MacIntel,60.0024001,5dbcaecb740cc224d8d0985e,64d2fd46c836a06233681665,64dc7dcaed9d66855003346a,,,,,,,decisionTrl,resources/DR.BMP,resources/DB.BMP,Door2,-0.451909722,0.008823785,1,0,0,1.0605,optionLeft,40,330,1,5,0,5,0,1,,,,,,,,,,,,,,,,,,,,,,,,,,,,,,,,,,,,,,,
,,,,,,,,2023-08-16_08h42.23.094,HF_wild_card,2022.2.4,MacIntel,60.0024001,5dbcaecb740cc224d8d0985e,64d2fd46c836a06233681665,64dc7dcaed9d66855003346a,,,,,,,decisionTrl,resources/DG.BMP,resources/DB.BMP,Door3,-0.329769965,-0.05547309,1,0,0,1.3132,optionLeft,70,400,1,6,0,6,0,1,,,,,,,,,,,,,,,,,,,,,,,,,,,,,,,,,,,,,,,
,,,,,,,,2023-08-16_08h42.23.094,HF_wild_card,2022.2.4,MacIntel,60.0024001,5dbcaecb740cc224d8d0985e,64d2fd46c836a06233681665,64dc7dcaed9d66855003346a,,,,,,,decisionTrl,resources/DBN.BMP,resources/DR.BMP,Door2,0.368094618,0.014613715,1,0,0,0.8307,optionRight,40,440,1,7,0,7,0,1,,,,,,,,,,,,,,,,,,,,,,,,,,,,,,,,,,,,,,,
,,,,,,,,2023-08-16_08h42.23.094,HF_wild_card,2022.2.4,MacIntel,60.0024001,5dbcaecb740cc224d8d0985e,64d2fd46c836a06233681665,64dc7dcaed9d66855003346a,,,,,,,decisionTrl,resources/DY.BMP,resources/DG.BMP,Door4,-0.320230035,-0.01124566,1,0,0,0.8636,optionLeft,60,500,1,8,0,8,0,1,,,,,,,,,,,,,,,,,,,,,,,,,,,,,,,,,,,,,,,
,,,,,,,,2023-08-16_08h42.23.094,HF_wild_card,2022.2.4,MacIntel,60.0024001,5dbcaecb740cc224d8d0985e,64d2fd46c836a06233681665,64dc7dcaed9d66855003346a,,,,,,,decisionTrl,resources/DG.BMP,resources/DY.BMP,Door3,-0.321310764,-0.01046441,1,0,0,1.0134,optionLeft,70,570,1,9,0,9,0,1,,,,,,,,,,,,,,,,,,,,,,,,,,,,,,,,,,,,,,,
,,,,,,,,2023-08-16_08h42.23.094,HF_wild_card,2022.2.4,MacIntel,60.0024001,5dbcaecb740cc224d8d0985e,64d2fd46c836a06233681665,64dc7dcaed9d66855003346a,,,,,,,decisionTrl,resources/DBN.BMP,resources/DR.BMP,Door1,-0.401753472,0.014522569,1,0,0,1.0016,optionLeft,30,600,1,10,0,10,0,1,,,,,,,,,,,,,,,,,,,,,,,,,,,,,,,,,,,,,,,
,,,,,,,,2023-08-16_08h42.23.094,HF_wild_card,2022.2.4,MacIntel,60.0024001,5dbcaecb740cc224d8d0985e,64d2fd46c836a06233681665,64dc7dcaed9d66855003346a,,,,,,,decisionTrl,resources/DR.BMP,resources/DBN.BMP,Door2,-0.357252604,0.003671875,1,0,0,1.3638,optionLeft,20,620,1,11,0,11,0,1,,,,,,,,,,,,,,,,,,,,,,,,,,,,,,,,,,,,,,,
,,,,,,,,2023-08-16_08h42.23.094,HF_wild_card,2022.2.4,MacIntel,60.0024001,5dbcaecb740cc224d8d0985e,64d2fd46c836a06233681665,64dc7dcaed9d66855003346a,,,,,,,sngl,resources/DG.BMP,resources/Empty.png,Door3,-0.304105903,-0.020425347,1,0,0,0.7664,optionLeft,70,690,1,12,0,12,0,1,,,,,,,,,,,,,,,,,,,,,,,,,,,,,,,,,,,,,,,
,,,,,,,,2023-08-16_08h42.23.094,HF_wild_card,2022.2.4,MacIntel,60.0024001,5dbcaecb740cc224d8d0985e,64d2fd46c836a06233681665,64dc7dcaed9d66855003346a,,,,,,,decisionTrl,resources/DR.BMP,resources/DBN.BMP,Door2,-0.449861111,-0.047087674,1,0,0,1.181,optionLeft,40,730,1,13,0,13,0,1,,,,,,,,,,,,,,,,,,,,,,,,,,,,,,,,,,,,,,,
,,,,,,,,2023-08-16_08h42.23.094,HF_wild_card,2022.2.4,MacIntel,60.0024001,5dbcaecb740cc224d8d0985e,64d2fd46c836a06233681665,64dc7dcaed9d66855003346a,,,,,,,decisionTrl,resources/DR.BMP,resources/DBN.BMP,Door2,-0.462369792,-0.075915799,1,0,0,0.9656,optionLeft,20,750,1,14,0,14,0,1,,,,,,,,,,,,,,,,,,,,,,,,,,,,,,,,,,,,,,,
,,,,,,,,2023-08-16_08h42.23.094,HF_wild_card,2022.2.4,MacIntel,60.0024001,5dbcaecb740cc224d8d0985e,64d2fd46c836a06233681665,64dc7dcaed9d66855003346a,,,,,,,decisionTrl,resources/DB.BMP,resources/DY.BMP,Door4,0.289492187,-0.020199653,1,0,0,1.1777,optionRight,80,830,1,15,0,15,0,1,,,,,,,,,,,,,,,,,,,,,,,,,,,,,,,,,,,,,,,
,,,,,,,,2023-08-16_08h42.23.094,HF_wild_card,2022.2.4,MacIntel,60.0024001,5dbcaecb740cc224d8d0985e,64d2fd46c836a06233681665,64dc7dcaed9d66855003346a,,,,,,,decisionTrl,resources/DBN.BMP,resources/DR.BMP,Door2,0.427322049,-0.048841146,1,0,0,0.9962,optionRight,20,850,1,16,0,16,0,1,,,,,,,,,,,,,,,,,,,,,,,,,,,,,,,,,,,,,,,
,,,,,,,,2023-08-16_08h42.23.094,HF_wild_card,2022.2.4,MacIntel,60.0024001,5dbcaecb740cc224d8d0985e,64d2fd46c836a06233681665,64dc7dcaed9d66855003346a,,,,,,,sngl,resources/DY.BMP,resources/Empty.png,Door4,-0.333880208,0.003203125,1,0,0,0.7453,optionLeft,80,930,1,17,0,17,0,1,,,,,,,,,,,,,,,,,,,,,,,,,,,,,,,,,,,,,,,
,,,,,,,,2023-08-16_08h42.23.094,HF_wild_card,2022.2.4,MacIntel,60.0024001,5dbcaecb740cc224d8d0985e,64d2fd46c836a06233681665,64dc7dcaed9d66855003346a,,,,,,,ctch,resources/DR.BMP,resources/DG.BMP,Door3,0.480807292,0.029366319,1,0,0,1.3304,optionRight,70,1000,1,18,0,18,0,1,,,,,,,,,,,,,,,,,,,,,,,,,,,,,,,,,,,,,,,
,,,,,,,,2023-08-16_08h42.23.094,HF_wild_card,2022.2.4,MacIntel,60.0024001,5dbcaecb740cc224d8d0985e,64d2fd46c836a06233681665,64dc7dcaed9d66855003346a,,,,,,,decisionTrl,resources/DBN.BMP,resources/DB.BMP,Door1,-0.359444444,-0.0003125,1,0,0,1.2473,optionLeft,30,1030,1,19,0,19,0,1,,,,,,,,,,,,,,,,,,,,,,,,,,,,,,,,,,,,,,,
,,,,,,,,2023-08-16_08h42.23.094,HF_wild_card,2022.2.4,MacIntel,60.0024001,5dbcaecb740cc224d8d0985e,64d2fd46c836a06233681665,64dc7dcaed9d66855003346a,,,,,,,sngl,resources/Empty.png,resources/DY.BMP,Door4,0.402938368,-0.00641059,1,0,0,0.7137,optionRight,60,1090,1,20,0,20,0,1,,,,,,,,,,,,,,,,,,,,,,,,,,,,,,,,,,,,,,,
,,,,,,,,2023-08-16_08h42.23.094,HF_wild_card,2022.2.4,MacIntel,60.0024001,5dbcaecb740cc224d8d0985e,64d2fd46c836a06233681665,64dc7dcaed9d66855003346a,,,,,,,decisionTrl,resources/DG.BMP,resources/DY.BMP,Door4,0.321792535,0.024713542,1,0,0,1.4628,optionRight,80,1170,1,21,0,21,0,1,,,,,,,,,,,,,,,,,,,,,,,,,,,,,,,,,,,,,,,
,,,,,,,,2023-08-16_08h42.23.094,HF_wild_card,2022.2.4,MacIntel,60.0024001,5dbcaecb740cc224d8d0985e,64d2fd46c836a06233681665,64dc7dcaed9d66855003346a,,,,,,,decisionTrl,resources/DB.BMP,resources/DBN.BMP,WildCard_Ex,-0.410208333,-0.059040799,1,0,0,1.1799,optionLeft,5,1175,1,22,0,22,0,1,,,,,,,,,,,,,,,,,,,,,,,,,,,,,,,,,,,,,,,
,,,,,,,,2023-08-16_08h42.23.094,HF_wild_card,2022.2.4,MacIntel,60.0024001,5dbcaecb740cc224d8d0985e,64d2fd46c836a06233681665,64dc7dcaed9d66855003346a,,,,,,,decisionTrl,resources/DY.BMP,resources/DG.BMP,Door4,-0.314045139,-0.017165799,1,0,0,1.0962,optionLeft,80,1255,1,23,0,23,0,1,,,,,,,,,,,,,,,,,,,,,,,,,,,,,,,,,,,,,,,
,,,,,,,,2023-08-16_08h42.23.094,HF_wild_card,2022.2.4,MacIntel,60.0024001,5dbcaecb740cc224d8d0985e,64d2fd46c836a06233681665,64dc7dcaed9d66855003346a,,,,,,,ctch,resources/DY.BMP,resources/DBN.BMP,Door4,-0.346388889,-0.014852431,1,0,0,1.1296,optionLeft,80,1335,1,24,0,24,0,1,,,,,,,,,,,,,,,,,,,,,,,,,,,,,,,,,,,,,,,
,,,,,,,,2023-08-16_08h42.23.094,HF_wild_card,2022.2.4,MacIntel,60.0024001,5dbcaecb740cc224d8d0985e,64d2fd46c836a06233681665,64dc7dcaed9d66855003346a,,,,,,,decisionTrl,resources/DR.BMP,resources/DBN.BMP,Door2,-0.362387153,-0.026167535,1,0,0,1.3345,optionLeft,20,1355,1,25,0,25,0,1,,,,,,,,,,,,,,,,,,,,,,,,,,,,,,,,,,,,,,,
,,,,,,,,2023-08-16_08h42.23.094,HF_wild_card,2022.2.4,MacIntel,60.0024001,5dbcaecb740cc224d8d0985e,64d2fd46c836a06233681665,64dc7dcaed9d66855003346a,,,,,,,ctch,resources/DY.BMP,resources/DBN.BMP,Door4,-0.268550347,-0.008967014,1,0,0,12.1141,optionLeft,80,1435,1,26,0,26,0,1,,,,,,,,,,,,,,,,,,,,,,,,,,,,,,,,,,,,,,,
,,,,,,,,2023-08-16_08h42.23.094,HF_wild_card,2022.2.4,MacIntel,60.0024001,5dbcaecb740cc224d8d0985e,64d2fd46c836a06233681665,64dc7dcaed9d66855003346a,,,,,,,decisionTrl,resources/DY.BMP,resources/DG.BMP,Door4,-0.341957465,-0.006132813,1,0,0,1.1674,optionLeft,80,1515,1,27,0,27,0,1,,,,,,,,,,,,,,,,,,,,,,,,,,,,,,,,,,,,,,,
,,,,,,,,2023-08-16_08h42.23.094,HF_wild_card,2022.2.4,MacIntel,60.0024001,5dbcaecb740cc224d8d0985e,64d2fd46c836a06233681665,64dc7dcaed9d66855003346a,,,,,,,sngl,resources/Empty.png,resources/DB.BMP,WildCard_Ex,0.375082465,-0.024921875,1,0,0,0.915,optionRight,95,1610,1,28,0,28,0,1,,,,,,,,,,,,,,,,,,,,,,,,,,,,,,,,,,,,,,,
,,,,,,,,2023-08-16_08h42.23.094,HF_wild_card,2022.2.4,MacIntel,60.0024001,5dbcaecb740cc224d8d0985e,64d2fd46c836a06233681665,64dc7dcaed9d66855003346a,,,,,,,decisionTrl,resources/DY.BMP,resources/DB.BMP,WildCard_Ex,0.478780382,0.026111111,1,0,0,1.8796,optionRight,5,1615,1,29,0,29,0,1,,,,,,,,,,,,,,,,,,,,,,,,,,,,,,,,,,,,,,,
,,,,,,,,2023-08-16_08h42.23.094,HF_wild_card,2022.2.4,MacIntel,60.0024001,5dbcaecb740cc224d8d0985e,64d2fd46c836a06233681665,64dc7dcaed9d66855003346a,,,,,,,decisionTrl,resources/DBN.BMP,resources/DR.BMP,Door2,0.281844618,-0.054418403,1,0,0,0.9305,optionRight,40,1655,1,30,0,30,0,1,,,,,,,,,,,,,,,,,,,,,,,,,,,,,,,,,,,,,,,
,,,,,,,,2023-08-16_08h42.23.094,HF_wild_card,2022.2.4,MacIntel,60.0024001,5dbcaecb740cc224d8d0985e,64d2fd46c836a06233681665,64dc7dcaed9d66855003346a,,,,,,,sngl,resources/DB.BMP,resources/Empty.png,WildCard_Ex,-0.438485243,-0.011150174,1,0,0,0.765,optionLeft,5,1660,1,31,0,31,0,1,,,,,,,,,,,,,,,,,,,,,,,,,,,,,,,,,,,,,,,
,,,,,,,,2023-08-16_08h42.23.094,HF_wild_card,2022.2.4,MacIntel,60.0024001,5dbcaecb740cc224d8d0985e,64d2fd46c836a06233681665,64dc7dcaed9d66855003346a,,,,,,,decisionTrl,resources/DG.BMP,resources/DY.BMP,Door4,0.320377604,-0.136579861,1,0,0,2.5801,optionRight,60,1720,1,32,0,32,0,1,,,,,,,,,,,,,,,,,,,,,,,,,,,,,,,,,,,,,,,
,,,,,,,,2023-08-16_08h42.23.094,HF_wild_card,2022.2.4,MacIntel,60.0024001,5dbcaecb740cc224d8d0985e,64d2fd46c836a06233681665,64dc7dcaed9d66855003346a,,,,,,,sngl,resources/Empty.png,resources/DB.BMP,WildCard_Ex,0.410863715,-0.082309028,1,0,0,0.8126,optionRight,5,1725,1,33,0,33,0,1,,,,,,,,,,,,,,,,,,,,,,,,,,,,,,,,,,,,,,,
,,,,,,,,2023-08-16_08h42.23.094,HF_wild_card,2022.2.4,MacIntel,60.0024001,5dbcaecb740cc224d8d0985e,64d2fd46c836a06233681665,64dc7dcaed9d66855003346a,,,,,,,sngl,resources/DBN.BMP,resources/Empty.png,Door1,-0.373359375,0.074969618,1,0,0,0.7789,optionLeft,30,1755,1,34,0,34,0,1,,,,,,,,,,,,,,,,,,,,,,,,,,,,,,,,,,,,,,,
,,,,,,,,2023-08-16_08h42.23.094,HF_wild_card,2022.2.4,MacIntel,60.0024001,5dbcaecb740cc224d8d0985e,64d2fd46c836a06233681665,64dc7dcaed9d66855003346a,,,,,,,sngl,resources/DB.BMP,resources/Empty.png,WildCard_Ex,-0.436753472,0.015208333,1,0,0,0.8306,optionLeft,95,1850,1,35,0,35,0,1,,,,,,,,,,,,,,,,,,,,,,,,,,,,,,,,,,,,,,,
,,,,,,,,2023-08-16_08h42.23.094,HF_wild_card,2022.2.4,MacIntel,60.0024001,5dbcaecb740cc224d8d0985e,64d2fd46c836a06233681665,64dc7dcaed9d66855003346a,,,,,,,decisionTrl,resources/DB.BMP,resources/DG.BMP,Door3,0.2940625,-0.025837674,1,0,0,0.949,optionRight,70,1920,1,36,0,36,0,1,,,,,,,,,,,,,,,,,,,,,,,,,,,,,,,,,,,,,,,
,,,,,,,,2023-08-16_08h42.23.094,HF_wild_card,2022.2.4,MacIntel,60.0024001,5dbcaecb740cc224d8d0985e,64d2fd46c836a06233681665,64dc7dcaed9d66855003346a,,,,,,,decisionTrl,resources/DB.BMP,resources/DR.BMP,Door2,0.35343316,-0.077222222,1,0,0,1.0647,optionRight,20,1940,1,37,0,37,0,1,,,,,,,,,,,,,,,,,,,,,,,,,,,,,,,,,,,,,,,
,,,,,,,,2023-08-16_08h42.23.094,HF_wild_card,2022.2.4,MacIntel,60.0024001,5dbcaecb740cc224d8d0985e,64d2fd46c836a06233681665,64dc7dcaed9d66855003346a,,,,,,,sngl,resources/Empty.png,resources/DR.BMP,Door2,0.404874132,-0.009444444,1,0,0,0.7501,optionRight,20,1960,1,38,0,38,0,1,,,,,,,,,,,,,,,,,,,,,,,,,,,,,,,,,,,,,,,
,,,,,,,,2023-08-16_08h42.23.094,HF_wild_card,2022.2.4,MacIntel,60.0024001,5dbcaecb740cc224d8d0985e,64d2fd46c836a06233681665,64dc7dcaed9d66855003346a,,,,,,,decisionTrl,resources/DY.BMP,resources/DG.BMP,Door4,-0.3590625,-0.010716146,1,0,0,0.9968,optionLeft,60,2020,1,39,0,39,0,1,,,,,,,,,,,,,,,,,,,,,,,,,,,,,,,,,,,,,,,
,,,,,,,,2023-08-16_08h42.23.094,HF_wild_card,2022.2.4,MacIntel,60.0024001,5dbcaecb740cc224d8d0985e,64d2fd46c836a06233681665,64dc7dcaed9d66855003346a,,,,,,,ctch,resources/DG.BMP,resources/DR.BMP,Door2,0.308472222,-0.021944444,1,0,0,1.0655,optionRight,40,2060,1,40,0,40,0,1,,,,,,,,,,,,,,,,,,,,,,,,,,,,,,,,,,,,,,,
,,,,,,,,2023-08-16_08h42.23.094,HF_wild_card,2022.2.4,MacIntel,60.0024001,5dbcaecb740cc224d8d0985e,64d2fd46c836a06233681665,64dc7dcaed9d66855003346a,,,,,,,ctch,resources/DBN.BMP,resources/DY.BMP,Door4,0.362239583,-0.049557292,1,0,0,1.0473,optionRight,80,2140,1,41,0,41,0,1,,,,,,,,,,,,,,,,,,,,,,,,,,,,,,,,,,,,,,,
,,,,,,,,2023-08-16_08h42.23.094,HF_wild_card,2022.2.4,MacIntel,60.0024001,5dbcaecb740cc224d8d0985e,64d2fd46c836a06233681665,64dc7dcaed9d66855003346a,,,,,,,decisionTrl,resources/DG.BMP,resources/DY.BMP,Door4,0.299596354,-0.085273437,1,0,0,1.5822,optionRight,60,2200,1,42,0,42,0,1,,,,,,,,,,,,,,,,,,,,,,,,,,,,,,,,,,,,,,,
,,,,,,,,2023-08-16_08h42.23.094,HF_wild_card,2022.2.4,MacIntel,60.0024001,5dbcaecb740cc224d8d0985e,64d2fd46c836a06233681665,64dc7dcaed9d66855003346a,,,,,,,ctch,resources/DR.BMP,resources/DG.BMP,Door2,-0.354435764,-0.040273438,1,0,0,0.8312,optionLeft,40,2240,1,43,0,43,0,1,,,,,,,,,,,,,,,,,,,,,,,,,,,,,,,,,,,,,,,
,,,,,,,,2023-08-16_08h42.23.094,HF_wild_card,2022.2.4,MacIntel,60.0024001,5dbcaecb740cc224d8d0985e,64d2fd46c836a06233681665,64dc7dcaed9d66855003346a,,,,,,,,,,,,,,,,,,,,,,,,,,0,0,0,0,1,,,,,,,,,,,,,,,,,,,,,,,,,,,,,,,,,,
,,,,,,,,2023-08-16_08h42.23.094,HF_wild_card,2022.2.4,MacIntel,60.0024001,5dbcaecb740cc224d8d0985e,64d2fd46c836a06233681665,64dc7dcaed9d66855003346a,,,,,,,decisionTrl,resources/DBN.BMP,resources/DR.BMP,Door2,0.320868056,-0.105034722,1,0,0,0.986,optionRight,20,2260,2,0,0,0,0,1,,,,,,,,,,,,,,,,,,,,,,,,,,,,,,,,,,,,,,,
,,,,,,,,2023-08-16_08h42.23.094,HF_wild_card,2022.2.4,MacIntel,60.0024001,5dbcaecb740cc224d8d0985e,64d2fd46c836a06233681665,64dc7dcaed9d66855003346a,,,,,,,sngl,resources/Empty.png,resources/DB.BMP,WildCard_Ex,0.371857639,-0.021193576,1,0,0,0.7321,optionRight,95,2355,2,1,0,1,0,1,,,,,,,,,,,,,,,,,,,,,,,,,,,,,,,,,,,,,,,
,,,,,,,,2023-08-16_08h42.23.094,HF_wild_card,2022.2.4,MacIntel,60.0024001,5dbcaecb740cc224d8d0985e,64d2fd46c836a06233681665,64dc7dcaed9d66855003346a,,,,,,,decisionTrl,resources/DR.BMP,resources/DBN.BMP,Door2,-0.372070313,-0.007764757,1,0,0,0.7976,optionLeft,40,2395,2,2,0,2,0,1,,,,,,,,,,,,,,,,,,,,,,,,,,,,,,,,,,,,,,,
,,,,,,,,2023-08-16_08h42.23.094,HF_wild_card,2022.2.4,MacIntel,60.0024001,5dbcaecb740cc224d8d0985e,64d2fd46c836a06233681665,64dc7dcaed9d66855003346a,,,,,,,ctch,resources/DR.BMP,resources/DG.BMP,Door3,0.433216146,-0.039739583,1,0,0,0.8472,optionRight,70,2465,2,3,0,3,0,1,,,,,,,,,,,,,,,,,,,,,,,,,,,,,,,,,,,,,,,
,,,,,,,,2023-08-16_08h42.23.094,HF_wild_card,2022.2.4,MacIntel,60.0024001,5dbcaecb740cc224d8d0985e,64d2fd46c836a06233681665,64dc7dcaed9d66855003346a,,,,,,,decisionTrl,resources/DB.BMP,resources/DY.BMP,WildCard_Ex,-0.317738715,-0.020733507,1,0,0,0.9982,optionLeft,95,2560,2,4,0,4,0,1,,,,,,,,,,,,,,,,,,,,,,,,,,,,,,,,,,,,,,,
,,,,,,,,2023-08-16_08h42.23.094,HF_wild_card,2022.2.4,MacIntel,60.0024001,5dbcaecb740cc224d8d0985e,64d2fd46c836a06233681665,64dc7dcaed9d66855003346a,,,,,,,sngl,resources/Empty.png,resources/DBN.BMP,Door1,0.403506944,-0.012990451,1,0,0,1.0452,optionRight,30,2590,2,5,0,5,0,1,,,,,,,,,,,,,,,,,,,,,,,,,,,,,,,,,,,,,,,
,,,,,,,,2023-08-16_08h42.23.094,HF_wild_card,2022.2.4,MacIntel,60.0024001,5dbcaecb740cc224d8d0985e,64d2fd46c836a06233681665,64dc7dcaed9d66855003346a,,,,,,,ctch,resources/DG.BMP,resources/DR.BMP,Door3,-0.298177083,-0.012669271,1,0,0,1.1796,optionLeft,70,2660,2,6,0,6,0,1,,,,,,,,,,,,,,,,,,,,,,,,,,,,,,,,,,,,,,,
,,,,,,,,2023-08-16_08h42.23.094,HF_wild_card,2022.2.4,MacIntel,60.0024001,5dbcaecb740cc224d8d0985e,64d2fd46c836a06233681665,64dc7dcaed9d66855003346a,,,,,,,decisionTrl,resources/DY.BMP,resources/DG.BMP,Door4,-0.31766059,-0.037213542,1,0,0,1.3985,optionLeft,60,2720,2,7,0,7,0,1,,,,,,,,,,,,,,,,,,,,,,,,,,,,,,,,,,,,,,,
,,,,,,,,2023-08-16_08h42.23.094,HF_wild_card,2022.2.4,MacIntel,60.0024001,5dbcaecb740cc224d8d0985e,64d2fd46c836a06233681665,64dc7dcaed9d66855003346a,,,,,,,decisionTrl,resources/DG.BMP,resources/DY.BMP,Door4,0.340425347,-0.033680556,1,0,0,0.9322,optionRight,80,2800,2,8,0,8,0,1,,,,,,,,,,,,,,,,,,,,,,,,,,,,,,,,,,,,,,,
,,,,,,,,2023-08-16_08h42.23.094,HF_wild_card,2022.2.4,MacIntel,60.0024001,5dbcaecb740cc224d8d0985e,64d2fd46c836a06233681665,64dc7dcaed9d66855003346a,,,,,,,decisionTrl,resources/DY.BMP,resources/DG.BMP,Door3,0.276158854,-0.017322049,1,0,0,1.3638,optionRight,70,2870,2,9,0,9,0,1,,,,,,,,,,,,,,,,,,,,,,,,,,,,,,,,,,,,,,,
,,,,,,,,2023-08-16_08h42.23.094,HF_wild_card,2022.2.4,MacIntel,60.0024001,5dbcaecb740cc224d8d0985e,64d2fd46c836a06233681665,64dc7dcaed9d66855003346a,,,,,,,decisionTrl,resources/DG.BMP,resources/DY.BMP,Door4,0.292413194,-0.053289931,1,0,0,0.8821,optionRight,60,2930,2,10,0,10,0,1,,,,,,,,,,,,,,,,,,,,,,,,,,,,,,,,,,,,,,,
,,,,,,,,2023-08-16_08h42.23.094,HF_wild_card,2022.2.4,MacIntel,60.0024001,5dbcaecb740cc224d8d0985e,64d2fd46c836a06233681665,64dc7dcaed9d66855003346a,,,,,,,ctch,resources/DR.BMP,resources/DG.BMP,Door3,0.379101562,-0.00483941,1,0,0,1.5475,optionRight,70,3000,2,11,0,11,0,1,,,,,,,,,,,,,,,,,,,,,,,,,,,,,,,,,,,,,,,
,,,,,,,,2023-08-16_08h42.23.094,HF_wild_card,2022.2.4,MacIntel,60.0024001,5dbcaecb740cc224d8d0985e,64d2fd46c836a06233681665,64dc7dcaed9d66855003346a,,,,,,,decisionTrl,resources/DB.BMP,resources/DG.BMP,WildCard_Ex,-0.335407986,-0.035850694,1,0,0,1.129,optionLeft,95,3095,2,12,0,12,0,1,,,,,,,,,,,,,,,,,,,,,,,,,,,,,,,,,,,,,,,
,,,,,,,,2023-08-16_08h42.23.094,HF_wild_card,2022.2.4,MacIntel,60.0024001,5dbcaecb740cc224d8d0985e,64d2fd46c836a06233681665,64dc7dcaed9d66855003346a,,,,,,,decisionTrl,resources/DBN.BMP,resources/DB.BMP,Door1,-0.301371528,-0.050794271,1,0,0,1.8958,optionLeft,30,3125,2,13,0,13,0,1,,,,,,,,,,,,,,,,,,,,,,,,,,,,,,,,,,,,,,,
,,,,,,,,2023-08-16_08h42.23.094,HF_wild_card,2022.2.4,MacIntel,60.0024001,5dbcaecb740cc224d8d0985e,64d2fd46c836a06233681665,64dc7dcaed9d66855003346a,,,,,,,ctch,resources/DBN.BMP,resources/DY.BMP,Door4,0.364040799,-0.029644097,1,0,0,0.9152,optionRight,60,3185,2,14,0,14,0,1,,,,,,,,,,,,,,,,,,,,,,,,,,,,,,,,,,,,,,,
,,,,,,,,2023-08-16_08h42.23.094,HF_wild_card,2022.2.4,MacIntel,60.0024001,5dbcaecb740cc224d8d0985e,64d2fd46c836a06233681665,64dc7dcaed9d66855003346a,,,,,,,decisionTrl,resources/DBN.BMP,resources/DR.BMP,Door2,0.341219618,-0.052074653,1,0,0,1.2453,optionRight,20,3205,2,15,0,15,0,1,,,,,,,,,,,,,,,,,,,,,,,,,,,,,,,,,,,,,,,
,,,,,,,,2023-08-16_08h42.23.094,HF_wild_card,2022.2.4,MacIntel,60.0024001,5dbcaecb740cc224d8d0985e,64d2fd46c836a06233681665,64dc7dcaed9d66855003346a,,,,,,,decisionTrl,resources/DG.BMP,resources/DB.BMP,Door3,-0.328567708,-0.013541667,1,0,0,0.7128,optionLeft,70,3275,2,16,0,16,0,1,,,,,,,,,,,,,,,,,,,,,,,,,,,,,,,,,,,,,,,
,,,,,,,,2023-08-16_08h42.23.094,HF_wild_card,2022.2.4,MacIntel,60.0024001,5dbcaecb740cc224d8d0985e,64d2fd46c836a06233681665,64dc7dcaed9d66855003346a,,,,,,,decisionTrl,resources/DY.BMP,resources/DG.BMP,Door4,-0.345073785,-0.028020833,1,0,0,1.6304,optionLeft,60,3335,2,17,0,17,0,1,,,,,,,,,,,,,,,,,,,,,,,,,,,,,,,,,,,,,,,
,,,,,,,,2023-08-16_08h42.23.094,HF_wild_card,2022.2.4,MacIntel,60.0024001,5dbcaecb740cc224d8d0985e,64d2fd46c836a06233681665,64dc7dcaed9d66855003346a,,,,,,,decisionTrl,resources/DY.BMP,resources/DG.BMP,Door3,0.384483507,-0.043302951,1,0,0,0.9823,optionRight,70,3405,2,18,0,18,0,1,,,,,,,,,,,,,,,,,,,,,,,,,,,,,,,,,,,,,,,
,,,,,,,,2023-08-16_08h42.23.094,HF_wild_card,2022.2.4,MacIntel,60.0024001,5dbcaecb740cc224d8d0985e,64d2fd46c836a06233681665,64dc7dcaed9d66855003346a,,,,,,,decisionTrl,resources/DR.BMP,resources/DB.BMP,Door2,-0.29234809,-0.02327691,1,0,0,1.2288,optionLeft,20,3425,2,19,0,19,0,1,,,,,,,,,,,,,,,,,,,,,,,,,,,,,,,,,,,,,,,
,,,,,,,,2023-08-16_08h42.23.094,HF_wild_card,2022.2.4,MacIntel,60.0024001,5dbcaecb740cc224d8d0985e,64d2fd46c836a06233681665,64dc7dcaed9d66855003346a,,,,,,,decisionTrl,resources/DB.BMP,resources/DBN.BMP,WildCard_Ex,-0.383858507,-0.01312066,1,0,0,1.0802,optionLeft,95,3520,2,20,0,20,0,1,,,,,,,,,,,,,,,,,,,,,,,,,,,,,,,,,,,,,,,
,,,,,,,,2023-08-16_08h42.23.094,HF_wild_card,2022.2.4,MacIntel,60.0024001,5dbcaecb740cc224d8d0985e,64d2fd46c836a06233681665,64dc7dcaed9d66855003346a,,,,,,,decisionTrl,resources/DG.BMP,resources/DY.BMP,Door4,0.325789931,-0.016575521,1,0,0,0.8298,optionRight,80,3600,2,21,0,21,0,1,,,,,,,,,,,,,,,,,,,,,,,,,,,,,,,,,,,,,,,
,,,,,,,,2023-08-16_08h42.23.094,HF_wild_card,2022.2.4,MacIntel,60.0024001,5dbcaecb740cc224d8d0985e,64d2fd46c836a06233681665,64dc7dcaed9d66855003346a,,,,,,,ctch,resources/DG.BMP,resources/DR.BMP,Door3,-0.271801215,0.004171007,1,0,0,1.031,optionLeft,70,3670,2,22,0,22,0,1,,,,,,,,,,,,,,,,,,,,,,,,,,,,,,,,,,,,,,,
,,,,,,,,2023-08-16_08h42.23.094,HF_wild_card,2022.2.4,MacIntel,60.0024001,5dbcaecb740cc224d8d0985e,64d2fd46c836a06233681665,64dc7dcaed9d66855003346a,,,,,,,ctch,resources/DY.BMP,resources/DBN.BMP,Door4,-0.369466146,-0.055928819,1,0,0,1.317,optionLeft,60,3730,2,23,0,23,0,1,,,,,,,,,,,,,,,,,,,,,,,,,,,,,,,,,,,,,,,
,,,,,,,,2023-08-16_08h42.23.094,HF_wild_card,2022.2.4,MacIntel,60.0024001,5dbcaecb740cc224d8d0985e,64d2fd46c836a06233681665,64dc7dcaed9d66855003346a,,,,,,,ctch,resources/DY.BMP,resources/DBN.BMP,Door1,0.335338542,0.003255208,1,0,0,0.7971,optionRight,30,3760,2,24,0,24,0,1,,,,,,,,,,,,,,,,,,,,,,,,,,,,,,,,,,,,,,,
,,,,,,,,2023-08-16_08h42.23.094,HF_wild_card,2022.2.4,MacIntel,60.0024001,5dbcaecb740cc224d8d0985e,64d2fd46c836a06233681665,64dc7dcaed9d66855003346a,,,,,,,sngl,resources/DBN.BMP,resources/Empty.png,Door1,-0.40344184,-0.037569444,1,0,0,0.7951,optionLeft,30,3790,2,25,0,25,0,1,,,,,,,,,,,,,,,,,,,,,,,,,,,,,,,,,,,,,,,
,,,,,,,,2023-08-16_08h42.23.094,HF_wild_card,2022.2.4,MacIntel,60.0024001,5dbcaecb740cc224d8d0985e,64d2fd46c836a06233681665,64dc7dcaed9d66855003346a,,,,,,,ctch,resources/DBN.BMP,resources/DY.BMP,Door4,0.395368924,-0.012756076,1,0,0,0.7964,optionRight,60,3850,2,26,0,26,0,1,,,,,,,,,,,,,,,,,,,,,,,,,,,,,,,,,,,,,,,
,,,,,,,,2023-08-16_08h42.23.094,HF_wild_card,2022.2.4,MacIntel,60.0024001,5dbcaecb740cc224d8d0985e,64d2fd46c836a06233681665,64dc7dcaed9d66855003346a,,,,,,,decisionTrl,resources/DB.BMP,resources/DR.BMP,WildCard_Ex,-0.407790799,-0.054787326,1,0,0,1.5301,optionLeft,95,3945,2,27,0,27,0,1,,,,,,,,,,,,,,,,,,,,,,,,,,,,,,,,,,,,,,,
,,,,,,,,2023-08-16_08h42.23.094,HF_wild_card,2022.2.4,MacIntel,60.0024001,5dbcaecb740cc224d8d0985e,64d2fd46c836a06233681665,64dc7dcaed9d66855003346a,,,,,,,decisionTrl,resources/DR.BMP,resources/DBN.BMP,Door2,-0.398789063,-0.033980035,1,0,0,1.1798,optionLeft,20,3965,2,28,0,28,0,1,,,,,,,,,,,,,,,,,,,,,,,,,,,,,,,,,,,,,,,
,,,,,,,,2023-08-16_08h42.23.094,HF_wild_card,2022.2.4,MacIntel,60.0024001,5dbcaecb740cc224d8d0985e,64d2fd46c836a06233681665,64dc7dcaed9d66855003346a,,,,,,,decisionTrl,resources/DBN.BMP,resources/DR.BMP,Door2,0.297795139,-0.008519965,1,0,0,0.9289,optionRight,40,4005,2,29,0,29,0,1,,,,,,,,,,,,,,,,,,,,,,,,,,,,,,,,,,,,,,,
,,,,,,,,2023-08-16_08h42.23.094,HF_wild_card,2022.2.4,MacIntel,60.0024001,5dbcaecb740cc224d8d0985e,64d2fd46c836a06233681665,64dc7dcaed9d66855003346a,,,,,,,sngl,resources/Empty.png,resources/DB.BMP,WildCard_Ex,0.39625434,-0.023064236,1,0,0,1.0132,optionRight,5,4010,2,30,0,30,0,1,,,,,,,,,,,,,,,,,,,,,,,,,,,,,,,,,,,,,,,
,,,,,,,,2023-08-16_08h42.23.094,HF_wild_card,2022.2.4,MacIntel,60.0024001,5dbcaecb740cc224d8d0985e,64d2fd46c836a06233681665,64dc7dcaed9d66855003346a,,,,,,,decisionTrl,resources/DR.BMP,resources/DBN.BMP,Door2,-0.358871528,0.012703993,1,0,0,1.1143,optionLeft,20,4030,2,31,0,31,0,1,,,,,,,,,,,,,,,,,,,,,,,,,,,,,,,,,,,,,,,
,,,,,,,,2023-08-16_08h42.23.094,HF_wild_card,2022.2.4,MacIntel,60.0024001,5dbcaecb740cc224d8d0985e,64d2fd46c836a06233681665,64dc7dcaed9d66855003346a,,,,,,,sngl,resources/DY.BMP,resources/Empty.png,Door4,-0.371358507,-0.011675347,1,0,0,0.8794,optionLeft,60,4090,2,32,0,32,0,1,,,,,,,,,,,,,,,,,,,,,,,,,,,,,,,,,,,,,,,
,,,,,,,,2023-08-16_08h42.23.094,HF_wild_card,2022.2.4,MacIntel,60.0024001,5dbcaecb740cc224d8d0985e,64d2fd46c836a06233681665,64dc7dcaed9d66855003346a,,,,,,,sngl,resources/DR.BMP,resources/Empty.png,Door2,-0.432730035,-0.033502604,1,0,0,1.4387,optionLeft,20,4110,2,33,0,33,0,1,,,,,,,,,,,,,,,,,,,,,,,,,,,,,,,,,,,,,,,
,,,,,,,,2023-08-16_08h42.23.094,HF_wild_card,2022.2.4,MacIntel,60.0024001,5dbcaecb740cc224d8d0985e,64d2fd46c836a06233681665,64dc7dcaed9d66855003346a,,,,,,,decisionTrl,resources/DR.BMP,resources/DBN.BMP,Door1,0.403454861,-0.027005208,1,0,0,0.8464,optionRight,30,4140,2,34,0,34,0,1,,,,,,,,,,,,,,,,,,,,,,,,,,,,,,,,,,,,,,,
,,,,,,,,2023-08-16_08h42.23.094,HF_wild_card,2022.2.4,MacIntel,60.0024001,5dbcaecb740cc224d8d0985e,64d2fd46c836a06233681665,64dc7dcaed9d66855003346a,,,,,,,decisionTrl,resources/DY.BMP,resources/DB.BMP,Door4,-0.344861111,-0.025507813,1,0,0,0.8504,optionLeft,80,4220,2,35,0,35,0,1,,,,,,,,,,,,,,,,,,,,,,,,,,,,,,,,,,,,,,,
,,,,,,,,2023-08-16_08h42.23.094,HF_wild_card,2022.2.4,MacIntel,60.0024001,5dbcaecb740cc224d8d0985e,64d2fd46c836a06233681665,64dc7dcaed9d66855003346a,,,,,,,sngl,resources/Empty.png,resources/DG.BMP,Door3,0.418541667,0.010607639,1,0,0,0.7276,optionRight,70,4290,2,36,0,36,0,1,,,,,,,,,,,,,,,,,,,,,,,,,,,,,,,,,,,,,,,
,,,,,,,,2023-08-16_08h42.23.094,HF_wild_card,2022.2.4,MacIntel,60.0024001,5dbcaecb740cc224d8d0985e,64d2fd46c836a06233681665,64dc7dcaed9d66855003346a,,,,,,,sngl,resources/DG.BMP,resources/Empty.png,Door3,-0.368194444,-0.005907118,1,0,0,0.6806,optionLeft,70,4360,2,37,0,37,0,1,,,,,,,,,,,,,,,,,,,,,,,,,,,,,,,,,,,,,,,
,,,,,,,,2023-08-16_08h42.23.094,HF_wild_card,2022.2.4,MacIntel,60.0024001,5dbcaecb740cc224d8d0985e,64d2fd46c836a06233681665,64dc7dcaed9d66855003346a,,,,,,,decisionTrl,resources/DG.BMP,resources/DY.BMP,Door4,0.305095486,-0.019913194,1,0,0,1.1316,optionRight,60,4420,2,38,0,38,0,1,,,,,,,,,,,,,,,,,,,,,,,,,,,,,,,,,,,,,,,
,,,,,,,,2023-08-16_08h42.23.094,HF_wild_card,2022.2.4,MacIntel,60.0024001,5dbcaecb740cc224d8d0985e,64d2fd46c836a06233681665,64dc7dcaed9d66855003346a,,,,,,,sngl,resources/DB.BMP,resources/Empty.png,WildCard_Ex,-0.341692708,-0.026623264,1,0,0,0.7793,optionLeft,5,4425,2,39,0,39,0,1,,,,,,,,,,,,,,,,,,,,,,,,,,,,,,,,,,,,,,,
,,,,,,,,2023-08-16_08h42.23.094,HF_wild_card,2022.2.4,MacIntel,60.0024001,5dbcaecb740cc224d8d0985e,64d2fd46c836a06233681665,64dc7dcaed9d66855003346a,,,,,,,sngl,resources/Empty.png,resources/DR.BMP,Door2,0.435707465,2.60417E-05,1,0,0,0.7307,optionRight,40,4465,2,40,0,40,0,1,,,,,,,,,,,,,,,,,,,,,,,,,,,,,,,,,,,,,,,
,,,,,,,,2023-08-16_08h42.23.094,HF_wild_card,2022.2.4,MacIntel,60.0024001,5dbcaecb740cc224d8d0985e,64d2fd46c836a06233681665,64dc7dcaed9d66855003346a,,,,,,,decisionTrl,resources/DBN.BMP,resources/DR.BMP,Door1,-0.30719184,0.011293403,1,0,0,0.8101,optionLeft,30,4495,2,41,0,41,0,1,,,,,,,,,,,,,,,,,,,,,,,,,,,,,,,,,,,,,,,
,,,,,,,,2023-08-16_08h42.23.094,HF_wild_card,2022.2.4,MacIntel,60.0024001,5dbcaecb740cc224d8d0985e,64d2fd46c836a06233681665,64dc7dcaed9d66855003346a,,,,,,,sngl,resources/DB.BMP,resources/Empty.png,WildCard_Ex,-0.345069444,-0.033702257,1,0,0,0.8297,optionLeft,95,4590,2,42,0,42,0,1,,,,,,,,,,,,,,,,,,,,,,,,,,,,,,,,,,,,,,,
,,,,,,,,2023-08-16_08h42.23.094,HF_wild_card,2022.2.4,MacIntel,60.0024001,5dbcaecb740cc224d8d0985e,64d2fd46c836a06233681665,64dc7dcaed9d66855003346a,,,,,,,sngl,resources/Empty.png,resources/DY.BMP,Door4,0.350147569,-0.008971354,1,0,0,0.6446,optionRight,80,4670,2,43,0,43,0,1,,,,,,,,,,,,,,,,,,,,,,,,,,,,,,,,,,,,,,,
,,,,,,,,2023-08-16_08h42.23.094,HF_wild_card,2022.2.4,MacIntel,60.0024001,5dbcaecb740cc224d8d0985e,64d2fd46c836a06233681665,64dc7dcaed9d66855003346a,,,,,,,,,,,,,,,,,,,,,,,,,,1,0,1,0,1,,,,,,,,,,,,,,,,,,,,,,,,,,,,,,,,,,
,,,,,,,,2023-08-16_08h42.23.094,HF_wild_card,2022.2.4,MacIntel,60.0024001,5dbcaecb740cc224d8d0985e,64d2fd46c836a06233681665,64dc7dcaed9d66855003346a,,,,,,,decisionTrl,resources/DY.BMP,resources/DG.BMP,Door4,-0.487204861,-0.079618056,1,0,0,8.6787,optionLeft,80,4750,3,0,0,0,0,1,,,,,,,,,,,,,,,,,,,,,,,,,,,,,,,,,,,,,,,
,,,,,,,,2023-08-16_08h42.23.094,HF_wild_card,2022.2.4,MacIntel,60.0024001,5dbcaecb740cc224d8d0985e,64d2fd46c836a06233681665,64dc7dcaed9d66855003346a,,,,,,,ctch,resources/DR.BMP,resources/DG.BMP,Door3,0.385976563,-0.028723958,1,0,0,0.8004,optionRight,70,4820,3,1,0,1,0,1,,,,,,,,,,,,,,,,,,,,,,,,,,,,,,,,,,,,,,,
,,,,,,,,2023-08-16_08h42.23.094,HF_wild_card,2022.2.4,MacIntel,60.0024001,5dbcaecb740cc224d8d0985e,64d2fd46c836a06233681665,64dc7dcaed9d66855003346a,,,,,,,decisionTrl,resources/DBN.BMP,resources/DR.BMP,Door2,0.381484375,-0.029309896,1,0,0,0.9628,optionRight,20,4840,3,2,0,2,0,1,,,,,,,,,,,,,,,,,,,,,,,,,,,,,,,,,,,,,,,
,,,,,,,,2023-08-16_08h42.23.094,HF_wild_card,2022.2.4,MacIntel,60.0024001,5dbcaecb740cc224d8d0985e,64d2fd46c836a06233681665,64dc7dcaed9d66855003346a,,,,,,,decisionTrl,resources/DR.BMP,resources/DBN.BMP,Door1,0.3928125,-0.059105903,1,0,0,1.2655,optionRight,30,4870,3,3,0,3,0,1,,,,,,,,,,,,,,,,,,,,,,,,,,,,,,,,,,,,,,,
,,,,,,,,2023-08-16_08h42.23.094,HF_wild_card,2022.2.4,MacIntel,60.0024001,5dbcaecb740cc224d8d0985e,64d2fd46c836a06233681665,64dc7dcaed9d66855003346a,,,,,,,decisionTrl,resources/DBN.BMP,resources/DR.BMP,Door2,0.403446181,-0.061827257,1,0,0,1.0161,optionRight,20,4890,3,4,0,4,0,1,,,,,,,,,,,,,,,,,,,,,,,,,,,,,,,,,,,,,,,
,,,,,,,,2023-08-16_08h42.23.094,HF_wild_card,2022.2.4,MacIntel,60.0024001,5dbcaecb740cc224d8d0985e,64d2fd46c836a06233681665,64dc7dcaed9d66855003346a,,,,,,,decisionTrl,resources/DR.BMP,resources/DBN.BMP,Door1,0.281909722,-0.008654514,1,0,0,1.0459,optionRight,30,4920,3,5,0,5,0,1,,,,,,,,,,,,,,,,,,,,,,,,,,,,,,,,,,,,,,,
,,,,,,,,2023-08-16_08h42.23.094,HF_wild_card,2022.2.4,MacIntel,60.0024001,5dbcaecb740cc224d8d0985e,64d2fd46c836a06233681665,64dc7dcaed9d66855003346a,,,,,,,decisionTrl,resources/DB.BMP,resources/DG.BMP,WildCard_Ex,-0.347204861,-0.050221354,1,0,0,0.9831,optionLeft,5,4925,3,6,0,6,0,1,,,,,,,,,,,,,,,,,,,,,,,,,,,,,,,,,,,,,,,
,,,,,,,,2023-08-16_08h42.23.094,HF_wild_card,2022.2.4,MacIntel,60.0024001,5dbcaecb740cc224d8d0985e,64d2fd46c836a06233681665,64dc7dcaed9d66855003346a,,,,,,,decisionTrl,resources/DY.BMP,resources/DB.BMP,WildCard_Ex,0.325173611,-0.035798611,1,0,0,1.881,optionRight,5,4930,3,7,0,7,0,1,,,,,,,,,,,,,,,,,,,,,,,,,,,,,,,,,,,,,,,
,,,,,,,,2023-08-16_08h42.23.094,HF_wild_card,2022.2.4,MacIntel,60.0024001,5dbcaecb740cc224d8d0985e,64d2fd46c836a06233681665,64dc7dcaed9d66855003346a,,,,,,,decisionTrl,resources/DBN.BMP,resources/DR.BMP,Door2,0.36234375,-0.025750868,1,0,0,1.4151,optionRight,20,4950,3,8,0,8,0,1,,,,,,,,,,,,,,,,,,,,,,,,,,,,,,,,,,,,,,,
,,,,,,,,2023-08-16_08h42.23.094,HF_wild_card,2022.2.4,MacIntel,60.0024001,5dbcaecb740cc224d8d0985e,64d2fd46c836a06233681665,64dc7dcaed9d66855003346a,,,,,,,ctch,resources/DG.BMP,resources/DR.BMP,Door3,-0.309292535,-0.049188368,1,0,0,0.7486,optionLeft,70,5020,3,9,0,9,0,1,,,,,,,,,,,,,,,,,,,,,,,,,,,,,,,,,,,,,,,
,,,,,,,,2023-08-16_08h42.23.094,HF_wild_card,2022.2.4,MacIntel,60.0024001,5dbcaecb740cc224d8d0985e,64d2fd46c836a06233681665,64dc7dcaed9d66855003346a,,,,,,,sngl,resources/Empty.png,resources/DG.BMP,Door3,0.421063368,-0.004804687,1,0,0,4.7138,optionRight,70,5090,3,10,0,10,0,1,,,,,,,,,,,,,,,,,,,,,,,,,,,,,,,,,,,,,,,
,,,,,,,,2023-08-16_08h42.23.094,HF_wild_card,2022.2.4,MacIntel,60.0024001,5dbcaecb740cc224d8d0985e,64d2fd46c836a06233681665,64dc7dcaed9d66855003346a,,,,,,,decisionTrl,resources/DR.BMP,resources/DB.BMP,Door2,-0.363324653,-0.021475694,1,0,0,1.5121,optionLeft,40,5130,3,11,0,11,0,1,,,,,,,,,,,,,,,,,,,,,,,,,,,,,,,,,,,,,,,
,,,,,,,,2023-08-16_08h42.23.094,HF_wild_card,2022.2.4,MacIntel,60.0024001,5dbcaecb740cc224d8d0985e,64d2fd46c836a06233681665,64dc7dcaed9d66855003346a,,,,,,,decisionTrl,resources/DR.BMP,resources/DBN.BMP,Door1,0.326684028,-0.012070312,1,0,0,2.0635,optionRight,30,5160,3,12,0,12,0,1,,,,,,,,,,,,,,,,,,,,,,,,,,,,,,,,,,,,,,,
,,,,,,,,2023-08-16_08h42.23.094,HF_wild_card,2022.2.4,MacIntel,60.0024001,5dbcaecb740cc224d8d0985e,64d2fd46c836a06233681665,64dc7dcaed9d66855003346a,,,,,,,sngl,resources/DG.BMP,resources/Empty.png,Door3,-0.352617187,-0.01312934,1,0,0,0.7155,optionLeft,70,5230,3,13,0,13,0,1,,,,,,,,,,,,,,,,,,,,,,,,,,,,,,,,,,,,,,,
,,,,,,,,2023-08-16_08h42.23.094,HF_wild_card,2022.2.4,MacIntel,60.0024001,5dbcaecb740cc224d8d0985e,64d2fd46c836a06233681665,64dc7dcaed9d66855003346a,,,,,,,decisionTrl,resources/DBN.BMP,resources/DR.BMP,Door2,0.376497396,-0.059991319,1,0,0,0.9475,optionRight,20,5250,3,14,0,14,0,1,,,,,,,,,,,,,,,,,,,,,,,,,,,,,,,,,,,,,,,
,,,,,,,,2023-08-16_08h42.23.094,HF_wild_card,2022.2.4,MacIntel,60.0024001,5dbcaecb740cc224d8d0985e,64d2fd46c836a06233681665,64dc7dcaed9d66855003346a,,,,,,,ctch,resources/DY.BMP,resources/DBN.BMP,Door4,-0.336627604,-0.000833333,1,0,0,0.7141,optionLeft,60,5310,3,15,0,15,0,1,,,,,,,,,,,,,,,,,,,,,,,,,,,,,,,,,,,,,,,
,,,,,,,,2023-08-16_08h42.23.094,HF_wild_card,2022.2.4,MacIntel,60.0024001,5dbcaecb740cc224d8d0985e,64d2fd46c836a06233681665,64dc7dcaed9d66855003346a,,,,,,,sngl,resources/DBN.BMP,resources/Empty.png,Door1,-0.336358507,-0.004930556,1,0,0,0.8441,optionLeft,30,5340,3,16,0,16,0,1,,,,,,,,,,,,,,,,,,,,,,,,,,,,,,,,,,,,,,,
,,,,,,,,2023-08-16_08h42.23.094,HF_wild_card,2022.2.4,MacIntel,60.0024001,5dbcaecb740cc224d8d0985e,64d2fd46c836a06233681665,64dc7dcaed9d66855003346a,,,,,,,ctch,resources/DY.BMP,resources/DBN.BMP,Door4,-0.304600694,-0.051679688,1,0,0,0.9636,optionLeft,80,5420,3,17,0,17,0,1,,,,,,,,,,,,,,,,,,,,,,,,,,,,,,,,,,,,,,,
,,,,,,,,2023-08-16_08h42.23.094,HF_wild_card,2022.2.4,MacIntel,60.0024001,5dbcaecb740cc224d8d0985e,64d2fd46c836a06233681665,64dc7dcaed9d66855003346a,,,,,,,sngl,resources/DR.BMP,resources/Empty.png,Door2,-0.398784722,-0.055190972,1,0,0,0.8768,optionLeft,40,5460,3,18,0,18,0,1,,,,,,,,,,,,,,,,,,,,,,,,,,,,,,,,,,,,,,,
,,,,,,,,2023-08-16_08h42.23.094,HF_wild_card,2022.2.4,MacIntel,60.0024001,5dbcaecb740cc224d8d0985e,64d2fd46c836a06233681665,64dc7dcaed9d66855003346a,,,,,,,decisionTrl,resources/DB.BMP,resources/DBN.BMP,WildCard_Ex,-0.388333333,-0.025177951,1,0,0,0.8627,optionLeft,95,5555,3,19,0,19,0,1,,,,,,,,,,,,,,,,,,,,,,,,,,,,,,,,,,,,,,,
,,,,,,,,2023-08-16_08h42.23.094,HF_wild_card,2022.2.4,MacIntel,60.0024001,5dbcaecb740cc224d8d0985e,64d2fd46c836a06233681665,64dc7dcaed9d66855003346a,,,,,,,sngl,resources/Empty.png,resources/DR.BMP,Door2,0.418949653,-0.036905382,1,0,0,0.7985,optionRight,20,5575,3,20,0,20,0,1,,,,,,,,,,,,,,,,,,,,,,,,,,,,,,,,,,,,,,,
,,,,,,,,2023-08-16_08h42.23.094,HF_wild_card,2022.2.4,MacIntel,60.0024001,5dbcaecb740cc224d8d0985e,64d2fd46c836a06233681665,64dc7dcaed9d66855003346a,,,,,,,sngl,resources/DB.BMP,resources/Empty.png,WildCard_Ex,-0.321749132,-0.040837674,1,0,0,1.2489,optionLeft,95,5670,3,21,0,21,0,1,,,,,,,,,,,,,,,,,,,,,,,,,,,,,,,,,,,,,,,
,,,,,,,,2023-08-16_08h42.23.094,HF_wild_card,2022.2.4,MacIntel,60.0024001,5dbcaecb740cc224d8d0985e,64d2fd46c836a06233681665,64dc7dcaed9d66855003346a,,,,,,,decisionTrl,resources/DG.BMP,resources/DY.BMP,Door4,0.323689236,-0.01953125,1,0,0,0.8973,optionRight,80,5750,3,22,0,22,0,1,,,,,,,,,,,,,,,,,,,,,,,,,,,,,,,,,,,,,,,
,,,,,,,,2023-08-16_08h42.23.094,HF_wild_card,2022.2.4,MacIntel,60.0024001,5dbcaecb740cc224d8d0985e,64d2fd46c836a06233681665,64dc7dcaed9d66855003346a,,,,,,,decisionTrl,resources/DG.BMP,resources/DY.BMP,Door4,0.386592882,-0.026002604,1,0,0,2.1464,optionRight,60,5810,3,23,0,23,0,1,,,,,,,,,,,,,,,,,,,,,,,,,,,,,,,,,,,,,,,
,,,,,,,,2023-08-16_08h42.23.094,HF_wild_card,2022.2.4,MacIntel,60.0024001,5dbcaecb740cc224d8d0985e,64d2fd46c836a06233681665,64dc7dcaed9d66855003346a,,,,,,,decisionTrl,resources/DB.BMP,resources/DR.BMP,Door2,0.349075521,-0.079509549,1,0,0,0.97,optionRight,20,5830,3,24,0,24,0,1,,,,,,,,,,,,,,,,,,,,,,,,,,,,,,,,,,,,,,,
,,,,,,,,2023-08-16_08h42.23.094,HF_wild_card,2022.2.4,MacIntel,60.0024001,5dbcaecb740cc224d8d0985e,64d2fd46c836a06233681665,64dc7dcaed9d66855003346a,,,,,,,decisionTrl,resources/DY.BMP,resources/DG.BMP,Door4,-0.367612847,-0.033411458,1,0,0,0.6801,optionLeft,60,5890,3,25,0,25,0,1,,,,,,,,,,,,,,,,,,,,,,,,,,,,,,,,,,,,,,,
,,,,,,,,2023-08-16_08h42.23.094,HF_wild_card,2022.2.4,MacIntel,60.0024001,5dbcaecb740cc224d8d0985e,64d2fd46c836a06233681665,64dc7dcaed9d66855003346a,,,,,,,sngl,resources/DB.BMP,resources/Empty.png,WildCard_Ex,-0.31343316,-0.055551215,1,0,0,0.7993,optionLeft,5,5895,3,26,0,26,0,1,,,,,,,,,,,,,,,,,,,,,,,,,,,,,,,,,,,,,,,
,,,,,,,,2023-08-16_08h42.23.094,HF_wild_card,2022.2.4,MacIntel,60.0024001,5dbcaecb740cc224d8d0985e,64d2fd46c836a06233681665,64dc7dcaed9d66855003346a,,,,,,,decisionTrl,resources/DB.BMP,resources/DY.BMP,Door4,0.330842014,-0.03953125,1,0,0,0.9123,optionRight,60,5955,3,27,0,27,0,1,,,,,,,,,,,,,,,,,,,,,,,,,,,,,,,,,,,,,,,
,,,,,,,,2023-08-16_08h42.23.094,HF_wild_card,2022.2.4,MacIntel,60.0024001,5dbcaecb740cc224d8d0985e,64d2fd46c836a06233681665,64dc7dcaed9d66855003346a,,,,,,,decisionTrl,resources/DG.BMP,resources/DB.BMP,Door3,-0.341375868,-0.045230035,1,0,0,1.0992,optionLeft,70,6025,3,28,0,28,0,1,,,,,,,,,,,,,,,,,,,,,,,,,,,,,,,,,,,,,,,
,,,,,,,,2023-08-16_08h42.23.094,HF_wild_card,2022.2.4,MacIntel,60.0024001,5dbcaecb740cc224d8d0985e,64d2fd46c836a06233681665,64dc7dcaed9d66855003346a,,,,,,,decisionTrl,resources/DBN.BMP,resources/DB.BMP,WildCard_Ex,0.294309896,-0.011202257,1,0,0,0.7451,optionRight,95,6120,3,29,0,29,0,1,,,,,,,,,,,,,,,,,,,,,,,,,,,,,,,,,,,,,,,
,,,,,,,,2023-08-16_08h42.23.094,HF_wild_card,2022.2.4,MacIntel,60.0024001,5dbcaecb740cc224d8d0985e,64d2fd46c836a06233681665,64dc7dcaed9d66855003346a,,,,,,,decisionTrl,resources/DR.BMP,resources/DBN.BMP,Door2,-0.372243924,-0.010164931,1,0,0,1.3449,optionLeft,40,6160,3,30,0,30,0,1,,,,,,,,,,,,,,,,,,,,,,,,,,,,,,,,,,,,,,,
,,,,,,,,2023-08-16_08h42.23.094,HF_wild_card,2022.2.4,MacIntel,60.0024001,5dbcaecb740cc224d8d0985e,64d2fd46c836a06233681665,64dc7dcaed9d66855003346a,,,,,,,sngl,resources/Empty.png,resources/DBN.BMP,Door1,0.373489583,0.003315972,1,0,0,0.7998,optionRight,30,6190,3,31,0,31,0,1,,,,,,,,,,,,,,,,,,,,,,,,,,,,,,,,,,,,,,,
,,,,,,,,2023-08-16_08h42.23.094,HF_wild_card,2022.2.4,MacIntel,60.0024001,5dbcaecb740cc224d8d0985e,64d2fd46c836a06233681665,64dc7dcaed9d66855003346a,,,,,,,ctch,resources/DR.BMP,resources/DG.BMP,Door3,0.324717882,-0.001892361,1,0,0,0.9451,optionRight,70,6260,3,32,0,32,0,1,,,,,,,,,,,,,,,,,,,,,,,,,,,,,,,,,,,,,,,
,,,,,,,,2023-08-16_08h42.23.094,HF_wild_card,2022.2.4,MacIntel,60.0024001,5dbcaecb740cc224d8d0985e,64d2fd46c836a06233681665,64dc7dcaed9d66855003346a,,,,,,,decisionTrl,resources/DG.BMP,resources/DY.BMP,Door4,0.370407986,-0.008055556,1,0,0,0.816,optionRight,80,6340,3,33,0,33,0,1,,,,,,,,,,,,,,,,,,,,,,,,,,,,,,,,,,,,,,,
,,,,,,,,2023-08-16_08h42.23.094,HF_wild_card,2022.2.4,MacIntel,60.0024001,5dbcaecb740cc224d8d0985e,64d2fd46c836a06233681665,64dc7dcaed9d66855003346a,,,,,,,decisionTrl,resources/DY.BMP,resources/DG.BMP,Door4,-0.417530382,-0.004149306,1,0,0,1.3984,optionLeft,60,6400,3,34,0,34,0,1,,,,,,,,,,,,,,,,,,,,,,,,,,,,,,,,,,,,,,,
,,,,,,,,2023-08-16_08h42.23.094,HF_wild_card,2022.2.4,MacIntel,60.0024001,5dbcaecb740cc224d8d0985e,64d2fd46c836a06233681665,64dc7dcaed9d66855003346a,,,,,,,decisionTrl,resources/DG.BMP,resources/DY.BMP,Door4,0.344587674,-0.015095486,1,0,0,0.7776,optionRight,80,6480,3,35,0,35,0,1,,,,,,,,,,,,,,,,,,,,,,,,,,,,,,,,,,,,,,,
,,,,,,,,2023-08-16_08h42.23.094,HF_wild_card,2022.2.4,MacIntel,60.0024001,5dbcaecb740cc224d8d0985e,64d2fd46c836a06233681665,64dc7dcaed9d66855003346a,,,,,,,ctch,resources/DG.BMP,resources/DR.BMP,Door3,-0.387382813,-0.038641493,1,0,0,0.9953,optionLeft,70,6550,3,36,0,36,0,1,,,,,,,,,,,,,,,,,,,,,,,,,,,,,,,,,,,,,,,
,,,,,,,,2023-08-16_08h42.23.094,HF_wild_card,2022.2.4,MacIntel,60.0024001,5dbcaecb740cc224d8d0985e,64d2fd46c836a06233681665,64dc7dcaed9d66855003346a,,,,,,,sngl,resources/Empty.png,resources/DB.BMP,WildCard_Ex,0.291679688,-0.017100694,1,0,0,0.7658,optionRight,5,6555,3,37,0,37,0,1,,,,,,,,,,,,,,,,,,,,,,,,,,,,,,,,,,,,,,,
,,,,,,,,2023-08-16_08h42.23.094,HF_wild_card,2022.2.4,MacIntel,60.0024001,5dbcaecb740cc224d8d0985e,64d2fd46c836a06233681665,64dc7dcaed9d66855003346a,,,,,,,ctch,resources/DBN.BMP,resources/DY.BMP,Door4,0.293554688,-0.034318576,1,0,0,1.195,optionRight,80,6635,3,38,0,38,0,1,,,,,,,,,,,,,,,,,,,,,,,,,,,,,,,,,,,,,,,
,,,,,,,,2023-08-16_08h42.23.094,HF_wild_card,2022.2.4,MacIntel,60.0024001,5dbcaecb740cc224d8d0985e,64d2fd46c836a06233681665,64dc7dcaed9d66855003346a,,,,,,,sngl,resources/DY.BMP,resources/Empty.png,Door4,-0.411362847,0.049583333,1,0,0,1.1303,optionLeft,80,6715,3,39,0,39,0,1,,,,,,,,,,,,,,,,,,,,,,,,,,,,,,,,,,,,,,,
,,,,,,,,2023-08-16_08h42.23.094,HF_wild_card,2022.2.4,MacIntel,60.0024001,5dbcaecb740cc224d8d0985e,64d2fd46c836a06233681665,64dc7dcaed9d66855003346a,,,,,,,sngl,resources/Empty.png,resources/DY.BMP,Door4,0.379136285,-0.080538194,1,0,0,1.0309,optionRight,60,6775,3,40,0,40,0,1,,,,,,,,,,,,,,,,,,,,,,,,,,,,,,,,,,,,,,,
,,,,,,,,2023-08-16_08h42.23.094,HF_wild_card,2022.2.4,MacIntel,60.0024001,5dbcaecb740cc224d8d0985e,64d2fd46c836a06233681665,64dc7dcaed9d66855003346a,,,,,,,ctch,resources/DBN.BMP,resources/DY.BMP,Door4,0.376666667,-0.037473958,1,0,0,0.7963,optionRight,80,6855,3,41,0,41,0,1,,,,,,,,,,,,,,,,,,,,,,,,,,,,,,,,,,,,,,,
,,,,,,,,2023-08-16_08h42.23.094,HF_wild_card,2022.2.4,MacIntel,60.0024001,5dbcaecb740cc224d8d0985e,64d2fd46c836a06233681665,64dc7dcaed9d66855003346a,,,,,,,decisionTrl,resources/DY.BMP,resources/DG.BMP,Door4,-0.421006944,-0.027092014,1,0,0,0.9631,optionLeft,80,6935,3,42,0,42,0,1,,,,,,,,,,,,,,,,,,,,,,,,,,,,,,,,,,,,,,,
,,,,,,,,2023-08-16_08h42.23.094,HF_wild_card,2022.2.4,MacIntel,60.0024001,5dbcaecb740cc224d8d0985e,64d2fd46c836a06233681665,64dc7dcaed9d66855003346a,,,,,,,sngl,resources/Empty.png,resources/DB.BMP,WildCard_Ex,0.282092014,0.007929687,1,0,0,4.5011,optionRight,95,7030,3,43,0,43,0,1,,,,,,,,,,,,,,,,,,,,,,,,,,,,,,,,,,,,,,,
,,,,,,,,2023-08-16_08h42.23.094,HF_wild_card,2022.2.4,MacIntel,60.0024001,5dbcaecb740cc224d8d0985e,64d2fd46c836a06233681665,64dc7dcaed9d66855003346a,,,,,,,,,,,,,,,,,,,,,,,,,,2,0,2,0,1,,,,,,,,,,,,,,,,,,,,,,,,,,,,,,,,,,
,,,,,,,,2023-08-16_08h42.23.094,HF_wild_card,2022.2.4,MacIntel,60.0024001,5dbcaecb740cc224d8d0985e,64d2fd46c836a06233681665,64dc7dcaed9d66855003346a,,,,,,,ctch,resources/DY.BMP,resources/DBN.BMP,Door4,-0.491671007,-0.126132812,1,0,0,1.4149,optionLeft,60,7090,4,0,0,0,0,1,,,,,,,,,,,,,,,,,,,,,,,,,,,,,,,,,,,,,,,
,,,,,,,,2023-08-16_08h42.23.094,HF_wild_card,2022.2.4,MacIntel,60.0024001,5dbcaecb740cc224d8d0985e,64d2fd46c836a06233681665,64dc7dcaed9d66855003346a,,,,,,,decisionTrl,resources/DP.BMP,resources/DBN.BMP,WildCard_NonEx,-0.396111111,-0.025772569,1,0,0,1.4816,optionLeft,45,7135,4,1,0,1,0,1,,,,,,,,,,,,,,,,,,,,,,,,,,,,,,,,,,,,,,,
,,,,,,,,2023-08-16_08h42.23.094,HF_wild_card,2022.2.4,MacIntel,60.0024001,5dbcaecb740cc224d8d0985e,64d2fd46c836a06233681665,64dc7dcaed9d66855003346a,,,,,,,decisionTrl,resources/DBN.BMP,resources/DP.BMP,WildCard_NonEx,0.370095486,-0.040507812,1,0,0,0.7271,optionRight,55,7190,4,2,0,2,0,1,,,,,,,,,,,,,,,,,,,,,,,,,,,,,,,,,,,,,,,
,,,,,,,,2023-08-16_08h42.23.094,HF_wild_card,2022.2.4,MacIntel,60.0024001,5dbcaecb740cc224d8d0985e,64d2fd46c836a06233681665,64dc7dcaed9d66855003346a,,,,,,,decisionTrl,resources/DR.BMP,resources/DBN.BMP,Door2,-0.378585069,-0.039231771,1,0,0,0.9001,optionLeft,20,7210,4,3,0,3,0,1,,,,,,,,,,,,,,,,,,,,,,,,,,,,,,,,,,,,,,,
,,,,,,,,2023-08-16_08h42.23.094,HF_wild_card,2022.2.4,MacIntel,60.0024001,5dbcaecb740cc224d8d0985e,64d2fd46c836a06233681665,64dc7dcaed9d66855003346a,,,,,,,sngl,resources/DG.BMP,resources/Empty.png,Door3,-0.339079861,-0.006536458,1,0,0,0.7973,optionLeft,70,7280,4,4,0,4,0,1,,,,,,,,,,,,,,,,,,,,,,,,,,,,,,,,,,,,,,,
,,,,,,,,2023-08-16_08h42.23.094,HF_wild_card,2022.2.4,MacIntel,60.0024001,5dbcaecb740cc224d8d0985e,64d2fd46c836a06233681665,64dc7dcaed9d66855003346a,,,,,,,decisionTrl,resources/DR.BMP,resources/DBN.BMP,Door1,0.340885417,-0.055021701,1,0,0,0.8477,optionRight,30,7310,4,5,0,5,0,1,,,,,,,,,,,,,,,,,,,,,,,,,,,,,,,,,,,,,,,
,,,,,,,,2023-08-16_08h42.23.094,HF_wild_card,2022.2.4,MacIntel,60.0024001,5dbcaecb740cc224d8d0985e,64d2fd46c836a06233681665,64dc7dcaed9d66855003346a,,,,,,,decisionTrl,resources/DBN.BMP,resources/DR.BMP,Door2,0.452148438,-0.031792535,1,0,0,1.5991,optionRight,40,7350,4,6,0,6,0,1,,,,,,,,,,,,,,,,,,,,,,,,,,,,,,,,,,,,,,,
,,,,,,,,2023-08-16_08h42.23.094,HF_wild_card,2022.2.4,MacIntel,60.0024001,5dbcaecb740cc224d8d0985e,64d2fd46c836a06233681665,64dc7dcaed9d66855003346a,,,,,,,decisionTrl,resources/DBN.BMP,resources/DR.BMP,Door1,-0.349748264,-0.020065104,1,0,0,0.7787,optionLeft,30,7380,4,7,0,7,0,1,,,,,,,,,,,,,,,,,,,,,,,,,,,,,,,,,,,,,,,
,,,,,,,,2023-08-16_08h42.23.094,HF_wild_card,2022.2.4,MacIntel,60.0024001,5dbcaecb740cc224d8d0985e,64d2fd46c836a06233681665,64dc7dcaed9d66855003346a,,,,,,,sngl,resources/Empty.png,resources/DR.BMP,Door2,0.367912326,-0.057595486,1,0,0,0.6462,optionRight,40,7420,4,8,0,8,0,1,,,,,,,,,,,,,,,,,,,,,,,,,,,,,,,,,,,,,,,
,,,,,,,,2023-08-16_08h42.23.094,HF_wild_card,2022.2.4,MacIntel,60.0024001,5dbcaecb740cc224d8d0985e,64d2fd46c836a06233681665,64dc7dcaed9d66855003346a,,,,,,,sngl,resources/Empty.png,resources/DP.BMP,WildCard_NonEx,0.341458333,-0.070967882,1,0,0,0.8288,optionRight,55,7475,4,9,0,9,0,1,,,,,,,,,,,,,,,,,,,,,,,,,,,,,,,,,,,,,,,
,,,,,,,,2023-08-16_08h42.23.094,HF_wild_card,2022.2.4,MacIntel,60.0024001,5dbcaecb740cc224d8d0985e,64d2fd46c836a06233681665,64dc7dcaed9d66855003346a,,,,,,,decisionTrl,resources/DR.BMP,resources/DP.BMP,WildCard_NonEx,0.315946181,-0.028185764,1,0,0,0.8635,optionRight,45,7520,4,10,0,10,0,1,,,,,,,,,,,,,,,,,,,,,,,,,,,,,,,,,,,,,,,
,,,,,,,,2023-08-16_08h42.23.094,HF_wild_card,2022.2.4,MacIntel,60.0024001,5dbcaecb740cc224d8d0985e,64d2fd46c836a06233681665,64dc7dcaed9d66855003346a,,,,,,,decisionTrl,resources/DG.BMP,resources/DP.BMP,WildCard_NonEx,0.330177951,-0.065564236,1,0,0,1.0157,optionRight,55,7575,4,11,0,11,0,1,,,,,,,,,,,,,,,,,,,,,,,,,,,,,,,,,,,,,,,
,,,,,,,,2023-08-16_08h42.23.094,HF_wild_card,2022.2.4,MacIntel,60.0024001,5dbcaecb740cc224d8d0985e,64d2fd46c836a06233681665,64dc7dcaed9d66855003346a,,,,,,,decisionTrl,resources/DG.BMP,resources/DY.BMP,Door4,0.364813368,-0.069991319,1,0,0,0.9496,optionRight,80,7655,4,12,0,12,0,1,,,,,,,,,,,,,,,,,,,,,,,,,,,,,,,,,,,,,,,
,,,,,,,,2023-08-16_08h42.23.094,HF_wild_card,2022.2.4,MacIntel,60.0024001,5dbcaecb740cc224d8d0985e,64d2fd46c836a06233681665,64dc7dcaed9d66855003346a,,,,,,,decisionTrl,resources/DR.BMP,resources/DBN.BMP,Door2,-0.357734375,-0.048710938,1,0,0,0.8779,optionLeft,20,7675,4,13,0,13,0,1,,,,,,,,,,,,,,,,,,,,,,,,,,,,,,,,,,,,,,,
,,,,,,,,2023-08-16_08h42.23.094,HF_wild_card,2022.2.4,MacIntel,60.0024001,5dbcaecb740cc224d8d0985e,64d2fd46c836a06233681665,64dc7dcaed9d66855003346a,,,,,,,sngl,resources/Empty.png,resources/DY.BMP,Door4,0.314435764,-0.028211806,1,0,0,1.1314,optionRight,80,7755,4,14,0,14,0,1,,,,,,,,,,,,,,,,,,,,,,,,,,,,,,,,,,,,,,,
,,,,,,,,2023-08-16_08h42.23.094,HF_wild_card,2022.2.4,MacIntel,60.0024001,5dbcaecb740cc224d8d0985e,64d2fd46c836a06233681665,64dc7dcaed9d66855003346a,,,,,,,decisionTrl,resources/DBN.BMP,resources/DR.BMP,Door2,0.31172309,-0.049292535,1,0,0,0.8987,optionRight,40,7795,4,15,0,15,0,1,,,,,,,,,,,,,,,,,,,,,,,,,,,,,,,,,,,,,,,
,,,,,,,,2023-08-16_08h42.23.094,HF_wild_card,2022.2.4,MacIntel,60.0024001,5dbcaecb740cc224d8d0985e,64d2fd46c836a06233681665,64dc7dcaed9d66855003346a,,,,,,,decisionTrl,resources/DY.BMP,resources/DP.BMP,WildCard_NonEx,0.390238715,-0.073689236,1,0,0,0.9134,optionRight,45,7840,4,16,0,16,0,1,,,,,,,,,,,,,,,,,,,,,,,,,,,,,,,,,,,,,,,
,,,,,,,,2023-08-16_08h42.23.094,HF_wild_card,2022.2.4,MacIntel,60.0024001,5dbcaecb740cc224d8d0985e,64d2fd46c836a06233681665,64dc7dcaed9d66855003346a,,,,,,,decisionTrl,resources/DY.BMP,resources/DG.BMP,Door4,-0.345555556,-0.019075521,1,0,0,0.6348,optionLeft,80,7920,4,17,0,17,0,1,,,,,,,,,,,,,,,,,,,,,,,,,,,,,,,,,,,,,,,
,,,,,,,,2023-08-16_08h42.23.094,HF_wild_card,2022.2.4,MacIntel,60.0024001,5dbcaecb740cc224d8d0985e,64d2fd46c836a06233681665,64dc7dcaed9d66855003346a,,,,,,,decisionTrl,resources/DP.BMP,resources/DY.BMP,WildCard_NonEx,-0.494327257,-0.08515191,1,0,0,0.8413,optionLeft,45,7965,4,18,0,18,0,1,,,,,,,,,,,,,,,,,,,,,,,,,,,,,,,,,,,,,,,
,,,,,,,,2023-08-16_08h42.23.094,HF_wild_card,2022.2.4,MacIntel,60.0024001,5dbcaecb740cc224d8d0985e,64d2fd46c836a06233681665,64dc7dcaed9d66855003346a,,,,,,,decisionTrl,resources/DY.BMP,resources/DG.BMP,Door3,0.378789062,-0.041640625,1,0,0,0.7309,optionRight,70,8035,4,19,0,19,0,1,,,,,,,,,,,,,,,,,,,,,,,,,,,,,,,,,,,,,,,
,,,,,,,,2023-08-16_08h42.23.094,HF_wild_card,2022.2.4,MacIntel,60.0024001,5dbcaecb740cc224d8d0985e,64d2fd46c836a06233681665,64dc7dcaed9d66855003346a,,,,,,,ctch,resources/DY.BMP,resources/DBN.BMP,Door4,-0.321644965,-0.010755208,1,0,0,0.6958,optionLeft,60,8095,4,20,0,20,0,1,,,,,,,,,,,,,,,,,,,,,,,,,,,,,,,,,,,,,,,
,,,,,,,,2023-08-16_08h42.23.094,HF_wild_card,2022.2.4,MacIntel,60.0024001,5dbcaecb740cc224d8d0985e,64d2fd46c836a06233681665,64dc7dcaed9d66855003346a,,,,,,,sngl,resources/Empty.png,resources/DBN.BMP,Door1,0.335039062,-0.014774306,1,0,0,0.7636,optionRight,30,8125,4,21,0,21,0,1,,,,,,,,,,,,,,,,,,,,,,,,,,,,,,,,,,,,,,,
,,,,,,,,2023-08-16_08h42.23.094,HF_wild_card,2022.2.4,MacIntel,60.0024001,5dbcaecb740cc224d8d0985e,64d2fd46c836a06233681665,64dc7dcaed9d66855003346a,,,,,,,sngl,resources/Empty.png,resources/DP.BMP,WildCard_NonEx,0.326067708,-0.018914931,1,0,0,0.7655,optionRight,45,8170,4,22,0,22,0,1,,,,,,,,,,,,,,,,,,,,,,,,,,,,,,,,,,,,,,,
,,,,,,,,2023-08-16_08h42.23.094,HF_wild_card,2022.2.4,MacIntel,60.0024001,5dbcaecb740cc224d8d0985e,64d2fd46c836a06233681665,64dc7dcaed9d66855003346a,,,,,,,decisionTrl,resources/DG.BMP,resources/DY.BMP,Door4,0.338320312,-0.052078993,1,0,0,1.0631,optionRight,60,8230,4,23,0,23,0,1,,,,,,,,,,,,,,,,,,,,,,,,,,,,,,,,,,,,,,,
,,,,,,,,2023-08-16_08h42.23.094,HF_wild_card,2022.2.4,MacIntel,60.0024001,5dbcaecb740cc224d8d0985e,64d2fd46c836a06233681665,64dc7dcaed9d66855003346a,,,,,,,ctch,resources/DG.BMP,resources/DR.BMP,Door3,-0.326788194,-0.030130208,1,0,0,0.8505,optionLeft,70,8300,4,24,0,24,0,1,,,,,,,,,,,,,,,,,,,,,,,,,,,,,,,,,,,,,,,
,,,,,,,,2023-08-16_08h42.23.094,HF_wild_card,2022.2.4,MacIntel,60.0024001,5dbcaecb740cc224d8d0985e,64d2fd46c836a06233681665,64dc7dcaed9d66855003346a,,,,,,,decisionTrl,resources/DY.BMP,resources/DG.BMP,Door3,0.31171441,0.000911458,1,0,0,0.7455,optionRight,70,8370,4,25,0,25,0,1,,,,,,,,,,,,,,,,,,,,,,,,,,,,,,,,,,,,,,,
,,,,,,,,2023-08-16_08h42.23.094,HF_wild_card,2022.2.4,MacIntel,60.0024001,5dbcaecb740cc224d8d0985e,64d2fd46c836a06233681665,64dc7dcaed9d66855003346a,,,,,,,decisionTrl,resources/DG.BMP,resources/DY.BMP,Door3,-0.326779514,-0.028741319,1,0,0,0.7653,optionLeft,70,8440,4,26,0,26,0,1,,,,,,,,,,,,,,,,,,,,,,,,,,,,,,,,,,,,,,,
,,,,,,,,2023-08-16_08h42.23.094,HF_wild_card,2022.2.4,MacIntel,60.0024001,5dbcaecb740cc224d8d0985e,64d2fd46c836a06233681665,64dc7dcaed9d66855003346a,,,,,,,sngl,resources/DR.BMP,resources/Empty.png,Door2,-0.328012153,-0.005677083,1,0,0,0.8307,optionLeft,20,8460,4,27,0,27,0,1,,,,,,,,,,,,,,,,,,,,,,,,,,,,,,,,,,,,,,,
,,,,,,,,2023-08-16_08h42.23.094,HF_wild_card,2022.2.4,MacIntel,60.0024001,5dbcaecb740cc224d8d0985e,64d2fd46c836a06233681665,64dc7dcaed9d66855003346a,,,,,,,decisionTrl,resources/DR.BMP,resources/DBN.BMP,Door1,0.373424479,-0.036480035,1,0,0,0.8136,optionRight,30,8490,4,28,0,28,0,1,,,,,,,,,,,,,,,,,,,,,,,,,,,,,,,,,,,,,,,
,,,,,,,,2023-08-16_08h42.23.094,HF_wild_card,2022.2.4,MacIntel,60.0024001,5dbcaecb740cc224d8d0985e,64d2fd46c836a06233681665,64dc7dcaed9d66855003346a,,,,,,,decisionTrl,resources/DP.BMP,resources/DG.BMP,WildCard_NonEx,-0.399861111,-0.045664062,1,0,0,0.7961,optionLeft,45,8535,4,29,0,29,0,1,,,,,,,,,,,,,,,,,,,,,,,,,,,,,,,,,,,,,,,
,,,,,,,,2023-08-16_08h42.23.094,HF_wild_card,2022.2.4,MacIntel,60.0024001,5dbcaecb740cc224d8d0985e,64d2fd46c836a06233681665,64dc7dcaed9d66855003346a,,,,,,,ctch,resources/DR.BMP,resources/DG.BMP,Door3,0.366835937,0.010407986,1,0,0,0.7296,optionRight,70,8605,4,30,0,30,0,1,,,,,,,,,,,,,,,,,,,,,,,,,,,,,,,,,,,,,,,
,,,,,,,,2023-08-16_08h42.23.094,HF_wild_card,2022.2.4,MacIntel,60.0024001,5dbcaecb740cc224d8d0985e,64d2fd46c836a06233681665,64dc7dcaed9d66855003346a,,,,,,,ctch,resources/DR.BMP,resources/DG.BMP,Door2,-0.346814236,0.000104167,1,0,0,0.7312,optionLeft,20,8625,4,31,0,31,0,1,,,,,,,,,,,,,,,,,,,,,,,,,,,,,,,,,,,,,,,
,,,,,,,,2023-08-16_08h42.23.094,HF_wild_card,2022.2.4,MacIntel,60.0024001,5dbcaecb740cc224d8d0985e,64d2fd46c836a06233681665,64dc7dcaed9d66855003346a,,,,,,,decisionTrl,resources/DG.BMP,resources/DY.BMP,Door4,0.378828125,-0.027439236,1,0,0,0.73,optionRight,80,8705,4,32,0,32,0,1,,,,,,,,,,,,,,,,,,,,,,,,,,,,,,,,,,,,,,,
,,,,,,,,2023-08-16_08h42.23.094,HF_wild_card,2022.2.4,MacIntel,60.0024001,5dbcaecb740cc224d8d0985e,64d2fd46c836a06233681665,64dc7dcaed9d66855003346a,,,,,,,ctch,resources/DBN.BMP,resources/DY.BMP,Door4,0.395525174,-0.073233507,1,0,0,0.7996,optionRight,80,8785,4,33,0,33,0,1,,,,,,,,,,,,,,,,,,,,,,,,,,,,,,,,,,,,,,,
,,,,,,,,2023-08-16_08h42.23.094,HF_wild_card,2022.2.4,MacIntel,60.0024001,5dbcaecb740cc224d8d0985e,64d2fd46c836a06233681665,64dc7dcaed9d66855003346a,,,,,,,ctch,resources/DG.BMP,resources/DR.BMP,Door2,0.38921875,0.000238715,1,0,0,21.1296,optionRight,20,8805,4,34,0,34,0,1,,,,,,,,,,,,,,,,,,,,,,,,,,,,,,,,,,,,,,,
,,,,,,,,2023-08-16_08h42.23.094,HF_wild_card,2022.2.4,MacIntel,60.0024001,5dbcaecb740cc224d8d0985e,64d2fd46c836a06233681665,64dc7dcaed9d66855003346a,,,,,,,sngl,resources/DP.BMP,resources/Empty.png,WildCard_NonEx,-0.338515625,-0.047847222,1,0,0,0.6793,optionLeft,55,8860,4,35,0,35,0,1,,,,,,,,,,,,,,,,,,,,,,,,,,,,,,,,,,,,,,,
,,,,,,,,2023-08-16_08h42.23.094,HF_wild_card,2022.2.4,MacIntel,60.0024001,5dbcaecb740cc224d8d0985e,64d2fd46c836a06233681665,64dc7dcaed9d66855003346a,,,,,,,sngl,resources/Empty.png,resources/DG.BMP,Door3,0.381627604,-0.03609809,1,0,0,0.7964,optionRight,70,8930,4,36,0,36,0,1,,,,,,,,,,,,,,,,,,,,,,,,,,,,,,,,,,,,,,,
,,,,,,,,2023-08-16_08h42.23.094,HF_wild_card,2022.2.4,MacIntel,60.0024001,5dbcaecb740cc224d8d0985e,64d2fd46c836a06233681665,64dc7dcaed9d66855003346a,,,,,,,decisionTrl,resources/DP.BMP,resources/DR.BMP,WildCard_NonEx,-0.361467014,-0.025707465,1,0,0,0.7667,optionLeft,45,8975,4,37,0,37,0,1,,,,,,,,,,,,,,,,,,,,,,,,,,,,,,,,,,,,,,,
,,,,,,,,2023-08-16_08h42.23.094,HF_wild_card,2022.2.4,MacIntel,60.0024001,5dbcaecb740cc224d8d0985e,64d2fd46c836a06233681665,64dc7dcaed9d66855003346a,,,,,,,decisionTrl,resources/DBN.BMP,resources/DR.BMP,Door2,0.334075521,-0.039605035,1,0,0,0.7291,optionRight,20,8995,4,38,0,38,0,1,,,,,,,,,,,,,,,,,,,,,,,,,,,,,,,,,,,,,,,
,,,,,,,,2023-08-16_08h42.23.094,HF_wild_card,2022.2.4,MacIntel,60.0024001,5dbcaecb740cc224d8d0985e,64d2fd46c836a06233681665,64dc7dcaed9d66855003346a,,,,,,,sngl,resources/DY.BMP,resources/Empty.png,Door4,-0.437999132,0.011588542,1,0,0,0.8634,optionLeft,60,9055,4,39,0,39,0,1,,,,,,,,,,,,,,,,,,,,,,,,,,,,,,,,,,,,,,,
,,,,,,,,2023-08-16_08h42.23.094,HF_wild_card,2022.2.4,MacIntel,60.0024001,5dbcaecb740cc224d8d0985e,64d2fd46c836a06233681665,64dc7dcaed9d66855003346a,,,,,,,sngl,resources/DBN.BMP,resources/Empty.png,Door1,-0.358780382,0.002508681,1,0,0,0.6631,optionLeft,30,9085,4,40,0,40,0,1,,,,,,,,,,,,,,,,,,,,,,,,,,,,,,,,,,,,,,,
,,,,,,,,2023-08-16_08h42.23.094,HF_wild_card,2022.2.4,MacIntel,60.0024001,5dbcaecb740cc224d8d0985e,64d2fd46c836a06233681665,64dc7dcaed9d66855003346a,,,,,,,sngl,resources/DP.BMP,resources/Empty.png,WildCard_NonEx,-0.356046007,-0.031731771,1,0,0,0.6628,optionLeft,45,9130,4,41,0,41,0,1,,,,,,,,,,,,,,,,,,,,,,,,,,,,,,,,,,,,,,,
,,,,,,,,2023-08-16_08h42.23.094,HF_wild_card,2022.2.4,MacIntel,60.0024001,5dbcaecb740cc224d8d0985e,64d2fd46c836a06233681665,64dc7dcaed9d66855003346a,,,,,,,decisionTrl,resources/DY.BMP,resources/DG.BMP,Door4,-0.429383681,-0.017491319,1,0,0,0.8142,optionLeft,60,9190,4,42,0,42,0,1,,,,,,,,,,,,,,,,,,,,,,,,,,,,,,,,,,,,,,,
,,,,,,,,2023-08-16_08h42.23.094,HF_wild_card,2022.2.4,MacIntel,60.0024001,5dbcaecb740cc224d8d0985e,64d2fd46c836a06233681665,64dc7dcaed9d66855003346a,,,,,,,ctch,resources/DBN.BMP,resources/DY.BMP,Door4,0.345390625,0.004175347,1,0,0,1.1117,optionRight,60,9250,4,43,0,43,0,1,,,,,,,,,,,,,,,,,,,,,,,,,,,,,,,,,,,,,,,
,,,,,,,,2023-08-16_08h42.23.094,HF_wild_card,2022.2.4,MacIntel,60.0024001,5dbcaecb740cc224d8d0985e,64d2fd46c836a06233681665,64dc7dcaed9d66855003346a,,,,,,,,,,,,,,,,,,,,,,,,,,3,0,3,0,1,,,,,,,,,,,,,,,,,,,,,,,,,,,,,,,,,,
,,,,,,,,2023-08-16_08h42.23.094,HF_wild_card,2022.2.4,MacIntel,60.0024001,5dbcaecb740cc224d8d0985e,64d2fd46c836a06233681665,64dc7dcaed9d66855003346a,,,,,,,decisionTrl,resources/DR.BMP,resources/DBN.BMP,Door2,-0.334019097,-0.084192708,1,0,0,0.9506,optionLeft,40,9290,5,0,0,0,0,1,,,,,,,,,,,,,,,,,,,,,,,,,,,,,,,,,,,,,,,
,,,,,,,,2023-08-16_08h42.23.094,HF_wild_card,2022.2.4,MacIntel,60.0024001,5dbcaecb740cc224d8d0985e,64d2fd46c836a06233681665,64dc7dcaed9d66855003346a,,,,,,,decisionTrl,resources/DR.BMP,resources/DP.BMP,WildCard_NonEx,0.374908854,-0.02031684,1,0,0,0.6333,optionRight,55,9345,5,1,0,1,0,1,,,,,,,,,,,,,,,,,,,,,,,,,,,,,,,,,,,,,,,
,,,,,,,,2023-08-16_08h42.23.094,HF_wild_card,2022.2.4,MacIntel,60.0024001,5dbcaecb740cc224d8d0985e,64d2fd46c836a06233681665,64dc7dcaed9d66855003346a,,,,,,,ctch,resources/DBN.BMP,resources/DY.BMP,Door4,0.302274306,-0.03719184,1,0,0,0.9478,optionRight,80,9425,5,2,0,2,0,1,,,,,,,,,,,,,,,,,,,,,,,,,,,,,,,,,,,,,,,
,,,,,,,,2023-08-16_08h42.23.094,HF_wild_card,2022.2.4,MacIntel,60.0024001,5dbcaecb740cc224d8d0985e,64d2fd46c836a06233681665,64dc7dcaed9d66855003346a,,,,,,,decisionTrl,resources/DG.BMP,resources/DY.BMP,Door4,0.346527778,-0.051059028,1,0,0,0.8162,optionRight,80,9505,5,3,0,3,0,1,,,,,,,,,,,,,,,,,,,,,,,,,,,,,,,,,,,,,,,
,,,,,,,,2023-08-16_08h42.23.094,HF_wild_card,2022.2.4,MacIntel,60.0024001,5dbcaecb740cc224d8d0985e,64d2fd46c836a06233681665,64dc7dcaed9d66855003346a,,,,,,,decisionTrl,resources/DG.BMP,resources/DY.BMP,Door4,0.337934028,-0.023849826,1,0,0,0.7296,optionRight,60,9565,5,4,0,4,0,1,,,,,,,,,,,,,,,,,,,,,,,,,,,,,,,,,,,,,,,
,,,,,,,,2023-08-16_08h42.23.094,HF_wild_card,2022.2.4,MacIntel,60.0024001,5dbcaecb740cc224d8d0985e,64d2fd46c836a06233681665,64dc7dcaed9d66855003346a,,,,,,,ctch,resources/DY.BMP,resources/DBN.BMP,Door4,-0.362291667,-0.013936632,1,0,0,0.8168,optionLeft,80,9645,5,5,0,5,0,1,,,,,,,,,,,,,,,,,,,,,,,,,,,,,,,,,,,,,,,
,,,,,,,,2023-08-16_08h42.23.094,HF_wild_card,2022.2.4,MacIntel,60.0024001,5dbcaecb740cc224d8d0985e,64d2fd46c836a06233681665,64dc7dcaed9d66855003346a,,,,,,,ctch,resources/DR.BMP,resources/DG.BMP,Door3,0.346202257,-0.051150174,1,0,0,1.7112,optionRight,70,9715,5,6,0,6,0,1,,,,,,,,,,,,,,,,,,,,,,,,,,,,,,,,,,,,,,,
,,,,,,,,2023-08-16_08h42.23.094,HF_wild_card,2022.2.4,MacIntel,60.0024001,5dbcaecb740cc224d8d0985e,64d2fd46c836a06233681665,64dc7dcaed9d66855003346a,,,,,,,decisionTrl,resources/DY.BMP,resources/DG.BMP,Door4,-0.382013889,-0.013485243,1,0,0,0.9989,optionLeft,60,9775,5,7,0,7,0,1,,,,,,,,,,,,,,,,,,,,,,,,,,,,,,,,,,,,,,,
,,,,,,,,2023-08-16_08h42.23.094,HF_wild_card,2022.2.4,MacIntel,60.0024001,5dbcaecb740cc224d8d0985e,64d2fd46c836a06233681665,64dc7dcaed9d66855003346a,,,,,,,decisionTrl,resources/DY.BMP,resources/DG.BMP,Door3,0.264487847,-0.016536458,1,0,0,0.7969,optionRight,70,9845,5,8,0,8,0,1,,,,,,,,,,,,,,,,,,,,,,,,,,,,,,,,,,,,,,,
,,,,,,,,2023-08-16_08h42.23.094,HF_wild_card,2022.2.4,MacIntel,60.0024001,5dbcaecb740cc224d8d0985e,64d2fd46c836a06233681665,64dc7dcaed9d66855003346a,,,,,,,ctch,resources/DR.BMP,resources/DG.BMP,Door3,0.349904514,-0.023988715,1,0,0,0.915,optionRight,70,9915,5,9,0,9,0,1,,,,,,,,,,,,,,,,,,,,,,,,,,,,,,,,,,,,,,,
,,,,,,,,2023-08-16_08h42.23.094,HF_wild_card,2022.2.4,MacIntel,60.0024001,5dbcaecb740cc224d8d0985e,64d2fd46c836a06233681665,64dc7dcaed9d66855003346a,,,,,,,decisionTrl,resources/DG.BMP,resources/DY.BMP,Door3,-0.385976563,-0.024826389,1,0,0,1.0461,optionLeft,70,9985,5,10,0,10,0,1,,,,,,,,,,,,,,,,,,,,,,,,,,,,,,,,,,,,,,,
,,,,,,,,2023-08-16_08h42.23.094,HF_wild_card,2022.2.4,MacIntel,60.0024001,5dbcaecb740cc224d8d0985e,64d2fd46c836a06233681665,64dc7dcaed9d66855003346a,,,,,,,ctch,resources/DG.BMP,resources/DR.BMP,Door3,-0.279301215,0.026896701,1,0,0,0.9126,optionLeft,70,10055,5,11,0,11,0,1,,,,,,,,,,,,,,,,,,,,,,,,,,,,,,,,,,,,,,,
,,,,,,,,2023-08-16_08h42.23.094,HF_wild_card,2022.2.4,MacIntel,60.0024001,5dbcaecb740cc224d8d0985e,64d2fd46c836a06233681665,64dc7dcaed9d66855003346a,,,,,,,decisionTrl,resources/DY.BMP,resources/DP.BMP,Door4,-0.399474826,-0.006124132,1,0,0,1.2962,optionLeft,80,10135,5,12,0,12,0,1,,,,,,,,,,,,,,,,,,,,,,,,,,,,,,,,,,,,,,,
,,,,,,,,2023-08-16_08h42.23.094,HF_wild_card,2022.2.4,MacIntel,60.0024001,5dbcaecb740cc224d8d0985e,64d2fd46c836a06233681665,64dc7dcaed9d66855003346a,,,,,,,sngl,resources/DP.BMP,resources/Empty.png,WildCard_NonEx,-0.381024306,-0.040681424,1,0,0,0.7941,optionLeft,55,10190,5,13,0,13,0,1,,,,,,,,,,,,,,,,,,,,,,,,,,,,,,,,,,,,,,,
,,,,,,,,2023-08-16_08h42.23.094,HF_wild_card,2022.2.4,MacIntel,60.0024001,5dbcaecb740cc224d8d0985e,64d2fd46c836a06233681665,64dc7dcaed9d66855003346a,,,,,,,sngl,resources/Empty.png,resources/DP.BMP,WildCard_NonEx,0.365737847,-0.001545139,1,0,0,0.7939,optionRight,45,10235,5,14,0,14,0,1,,,,,,,,,,,,,,,,,,,,,,,,,,,,,,,,,,,,,,,
,,,,,,,,2023-08-16_08h42.23.094,HF_wild_card,2022.2.4,MacIntel,60.0024001,5dbcaecb740cc224d8d0985e,64d2fd46c836a06233681665,64dc7dcaed9d66855003346a,,,,,,,sngl,resources/Empty.png,resources/DY.BMP,Door4,0.310394965,-0.033103299,1,0,0,0.9506,optionRight,60,10295,5,15,0,15,0,1,,,,,,,,,,,,,,,,,,,,,,,,,,,,,,,,,,,,,,,
,,,,,,,,2023-08-16_08h42.23.094,HF_wild_card,2022.2.4,MacIntel,60.0024001,5dbcaecb740cc224d8d0985e,64d2fd46c836a06233681665,64dc7dcaed9d66855003346a,,,,,,,decisionTrl,resources/DBN.BMP,resources/DR.BMP,Door2,0.340269097,-0.061657986,1,0,0,1.0665,optionRight,40,10335,5,16,0,16,0,1,,,,,,,,,,,,,,,,,,,,,,,,,,,,,,,,,,,,,,,
,,,,,,,,2023-08-16_08h42.23.094,HF_wild_card,2022.2.4,MacIntel,60.0024001,5dbcaecb740cc224d8d0985e,64d2fd46c836a06233681665,64dc7dcaed9d66855003346a,,,,,,,sngl,resources/Empty.png,resources/DP.BMP,WildCard_NonEx,0.312048611,-0.046345486,1,0,0,0.8472,optionRight,55,10390,5,17,0,17,0,1,,,,,,,,,,,,,,,,,,,,,,,,,,,,,,,,,,,,,,,
,,,,,,,,2023-08-16_08h42.23.094,HF_wild_card,2022.2.4,MacIntel,60.0024001,5dbcaecb740cc224d8d0985e,64d2fd46c836a06233681665,64dc7dcaed9d66855003346a,,,,,,,decisionTrl,resources/DBN.BMP,resources/DR.BMP,Door2,0.390585937,-0.062730035,1,0,0,0.9948,optionRight,40,10430,5,18,0,18,0,1,,,,,,,,,,,,,,,,,,,,,,,,,,,,,,,,,,,,,,,
,,,,,,,,2023-08-16_08h42.23.094,HF_wild_card,2022.2.4,MacIntel,60.0024001,5dbcaecb740cc224d8d0985e,64d2fd46c836a06233681665,64dc7dcaed9d66855003346a,,,,,,,decisionTrl,resources/DR.BMP,resources/DBN.BMP,Door2,-0.308867187,-0.052829861,1,0,0,0.9122,optionLeft,20,10450,5,19,0,19,0,1,,,,,,,,,,,,,,,,,,,,,,,,,,,,,,,,,,,,,,,
,,,,,,,,2023-08-16_08h42.23.094,HF_wild_card,2022.2.4,MacIntel,60.0024001,5dbcaecb740cc224d8d0985e,64d2fd46c836a06233681665,64dc7dcaed9d66855003346a,,,,,,,decisionTrl,resources/DG.BMP,resources/DP.BMP,WildCard_NonEx,0.32453559,-0.054830729,1,0,0,0.8634,optionRight,45,10495,5,20,0,20,0,1,,,,,,,,,,,,,,,,,,,,,,,,,,,,,,,,,,,,,,,
,,,,,,,,2023-08-16_08h42.23.094,HF_wild_card,2022.2.4,MacIntel,60.0024001,5dbcaecb740cc224d8d0985e,64d2fd46c836a06233681665,64dc7dcaed9d66855003346a,,,,,,,sngl,resources/DR.BMP,resources/Empty.png,Door2,-0.326649306,-0.025434028,1,0,0,0.8126,optionLeft,40,10535,5,21,0,21,0,1,,,,,,,,,,,,,,,,,,,,,,,,,,,,,,,,,,,,,,,
,,,,,,,,2023-08-16_08h42.23.094,HF_wild_card,2022.2.4,MacIntel,60.0024001,5dbcaecb740cc224d8d0985e,64d2fd46c836a06233681665,64dc7dcaed9d66855003346a,,,,,,,sngl,resources/DP.BMP,resources/Empty.png,WildCard_NonEx,-0.292057292,-0.069596354,1,0,0,1.2467,optionLeft,45,10580,5,22,0,22,0,1,,,,,,,,,,,,,,,,,,,,,,,,,,,,,,,,,,,,,,,
,,,,,,,,2023-08-16_08h42.23.094,HF_wild_card,2022.2.4,MacIntel,60.0024001,5dbcaecb740cc224d8d0985e,64d2fd46c836a06233681665,64dc7dcaed9d66855003346a,,,,,,,decisionTrl,resources/DG.BMP,resources/DY.BMP,Door4,0.320342882,-0.033927951,1,0,0,0.8508,optionRight,80,10660,5,23,0,23,0,1,,,,,,,,,,,,,,,,,,,,,,,,,,,,,,,,,,,,,,,
,,,,,,,,2023-08-16_08h42.23.094,HF_wild_card,2022.2.4,MacIntel,60.0024001,5dbcaecb740cc224d8d0985e,64d2fd46c836a06233681665,64dc7dcaed9d66855003346a,,,,,,,sngl,resources/Empty.png,resources/DR.BMP,Door2,0.35702691,-0.047430556,1,0,0,0.7806,optionRight,20,10680,5,24,0,24,0,1,,,,,,,,,,,,,,,,,,,,,,,,,,,,,,,,,,,,,,,
,,,,,,,,2023-08-16_08h42.23.094,HF_wild_card,2022.2.4,MacIntel,60.0024001,5dbcaecb740cc224d8d0985e,64d2fd46c836a06233681665,64dc7dcaed9d66855003346a,,,,,,,decisionTrl,resources/DR.BMP,resources/DBN.BMP,Door1,0.241202257,-0.022834201,1,0,0,1.3132,optionRight,30,10710,5,25,0,25,0,1,,,,,,,,,,,,,,,,,,,,,,,,,,,,,,,,,,,,,,,
,,,,,,,,2023-08-16_08h42.23.094,HF_wild_card,2022.2.4,MacIntel,60.0024001,5dbcaecb740cc224d8d0985e,64d2fd46c836a06233681665,64dc7dcaed9d66855003346a,,,,,,,decisionTrl,resources/DBN.BMP,resources/DR.BMP,Door1,-0.370091146,-0.017430556,1,0,0,0.9124,optionLeft,30,10740,5,26,0,26,0,1,,,,,,,,,,,,,,,,,,,,,,,,,,,,,,,,,,,,,,,
,,,,,,,,2023-08-16_08h42.23.094,HF_wild_card,2022.2.4,MacIntel,60.0024001,5dbcaecb740cc224d8d0985e,64d2fd46c836a06233681665,64dc7dcaed9d66855003346a,,,,,,,ctch,resources/DG.BMP,resources/DR.BMP,Door3,-0.36593316,-0.026783854,1,0,0,1.5809,optionLeft,70,10810,5,27,0,27,0,1,,,,,,,,,,,,,,,,,,,,,,,,,,,,,,,,,,,,,,,
,,,,,,,,2023-08-16_08h42.23.094,HF_wild_card,2022.2.4,MacIntel,60.0024001,5dbcaecb740cc224d8d0985e,64d2fd46c836a06233681665,64dc7dcaed9d66855003346a,,,,,,,decisionTrl,resources/DR.BMP,resources/DBN.BMP,Door2,-0.406219618,-0.042907986,1,0,0,1.4263,optionLeft,40,10850,5,28,0,28,0,1,,,,,,,,,,,,,,,,,,,,,,,,,,,,,,,,,,,,,,,
,,,,,,,,2023-08-16_08h42.23.094,HF_wild_card,2022.2.4,MacIntel,60.0024001,5dbcaecb740cc224d8d0985e,64d2fd46c836a06233681665,64dc7dcaed9d66855003346a,,,,,,,decisionTrl,resources/DP.BMP,resources/DY.BMP,Door4,0.290846354,-0.036193576,1,0,0,1.7793,optionRight,80,10930,5,29,0,29,0,1,,,,,,,,,,,,,,,,,,,,,,,,,,,,,,,,,,,,,,,
,,,,,,,,2023-08-16_08h42.23.094,HF_wild_card,2022.2.4,MacIntel,60.0024001,5dbcaecb740cc224d8d0985e,64d2fd46c836a06233681665,64dc7dcaed9d66855003346a,,,,,,,decisionTrl,resources/DBN.BMP,resources/DP.BMP,WildCard_NonEx,0.352851562,-0.018789062,1,0,0,1.0444,optionRight,55,10985,5,30,0,30,0,1,,,,,,,,,,,,,,,,,,,,,,,,,,,,,,,,,,,,,,,
,,,,,,,,2023-08-16_08h42.23.094,HF_wild_card,2022.2.4,MacIntel,60.0024001,5dbcaecb740cc224d8d0985e,64d2fd46c836a06233681665,64dc7dcaed9d66855003346a,,,,,,,decisionTrl,resources/DY.BMP,resources/DG.BMP,Door4,-0.283663194,-0.029500868,1,0,0,1.3984,optionLeft,80,11065,5,31,0,31,0,1,,,,,,,,,,,,,,,,,,,,,,,,,,,,,,,,,,,,,,,
,,,,,,,,2023-08-16_08h42.23.094,HF_wild_card,2022.2.4,MacIntel,60.0024001,5dbcaecb740cc224d8d0985e,64d2fd46c836a06233681665,64dc7dcaed9d66855003346a,,,,,,,decisionTrl,resources/DP.BMP,resources/DR.BMP,WildCard_NonEx,-0.28015191,-0.044440104,1,0,0,1.4291,optionLeft,45,11110,5,32,0,32,0,1,,,,,,,,,,,,,,,,,,,,,,,,,,,,,,,,,,,,,,,
,,,,,,,,2023-08-16_08h42.23.094,HF_wild_card,2022.2.4,MacIntel,60.0024001,5dbcaecb740cc224d8d0985e,64d2fd46c836a06233681665,64dc7dcaed9d66855003346a,,,,,,,sngl,resources/Empty.png,resources/DBN.BMP,Door1,0.313172743,0.005590278,1,0,0,0.8969,optionRight,30,11140,5,33,0,33,0,1,,,,,,,,,,,,,,,,,,,,,,,,,,,,,,,,,,,,,,,
,,,,,,,,2023-08-16_08h42.23.094,HF_wild_card,2022.2.4,MacIntel,60.0024001,5dbcaecb740cc224d8d0985e,64d2fd46c836a06233681665,64dc7dcaed9d66855003346a,,,,,,,sngl,resources/DG.BMP,resources/Empty.png,Door3,-0.314127604,-0.019709201,1,0,0,0.7287,optionLeft,70,11210,5,34,0,34,0,1,,,,,,,,,,,,,,,,,,,,,,,,,,,,,,,,,,,,,,,
,,,,,,,,2023-08-16_08h42.23.094,HF_wild_card,2022.2.4,MacIntel,60.0024001,5dbcaecb740cc224d8d0985e,64d2fd46c836a06233681665,64dc7dcaed9d66855003346a,,,,,,,sngl,resources/DY.BMP,resources/Empty.png,Door4,-0.313372396,-0.006119792,1,0,0,0.8605,optionLeft,80,11290,5,35,0,35,0,1,,,,,,,,,,,,,,,,,,,,,,,,,,,,,,,,,,,,,,,
,,,,,,,,2023-08-16_08h42.23.094,HF_wild_card,2022.2.4,MacIntel,60.0024001,5dbcaecb740cc224d8d0985e,64d2fd46c836a06233681665,64dc7dcaed9d66855003346a,,,,,,,sngl,resources/Empty.png,resources/DG.BMP,Door3,0.369322917,0.041675347,1,0,0,0.8309,optionRight,70,11360,5,36,0,36,0,1,,,,,,,,,,,,,,,,,,,,,,,,,,,,,,,,,,,,,,,
,,,,,,,,2023-08-16_08h42.23.094,HF_wild_card,2022.2.4,MacIntel,60.0024001,5dbcaecb740cc224d8d0985e,64d2fd46c836a06233681665,64dc7dcaed9d66855003346a,,,,,,,decisionTrl,resources/DP.BMP,resources/DBN.BMP,WildCard_NonEx,-0.399461806,0.013155382,1,0,0,1.0453,optionLeft,45,11405,5,37,0,37,0,1,,,,,,,,,,,,,,,,,,,,,,,,,,,,,,,,,,,,,,,
,,,,,,,,2023-08-16_08h42.23.094,HF_wild_card,2022.2.4,MacIntel,60.0024001,5dbcaecb740cc224d8d0985e,64d2fd46c836a06233681665,64dc7dcaed9d66855003346a,,,,,,,decisionTrl,resources/DBN.BMP,resources/DR.BMP,Door2,0.319405382,-0.017439236,1,0,0,1.6778,optionRight,40,11445,5,38,0,38,0,1,,,,,,,,,,,,,,,,,,,,,,,,,,,,,,,,,,,,,,,
,,,,,,,,2023-08-16_08h42.23.094,HF_wild_card,2022.2.4,MacIntel,60.0024001,5dbcaecb740cc224d8d0985e,64d2fd46c836a06233681665,64dc7dcaed9d66855003346a,,,,,,,decisionTrl,resources/DP.BMP,resources/DG.BMP,Door3,0.282604167,-0.007547743,1,0,0,1.027,optionRight,70,11515,5,39,0,39,0,1,,,,,,,,,,,,,,,,,,,,,,,,,,,,,,,,,,,,,,,
,,,,,,,,2023-08-16_08h42.23.094,HF_wild_card,2022.2.4,MacIntel,60.0024001,5dbcaecb740cc224d8d0985e,64d2fd46c836a06233681665,64dc7dcaed9d66855003346a,,,,,,,ctch,resources/DBN.BMP,resources/DY.BMP,Door4,0.339726562,-0.003576389,1,0,0,0.9844,optionRight,60,11575,5,40,0,40,0,1,,,,,,,,,,,,,,,,,,,,,,,,,,,,,,,,,,,,,,,
,,,,,,,,2023-08-16_08h42.23.094,HF_wild_card,2022.2.4,MacIntel,60.0024001,5dbcaecb740cc224d8d0985e,64d2fd46c836a06233681665,64dc7dcaed9d66855003346a,,,,,,,sngl,resources/DBN.BMP,resources/Empty.png,Door1,-0.319570313,-0.009809028,1,0,0,0.728,optionLeft,30,11605,5,41,0,41,0,1,,,,,,,,,,,,,,,,,,,,,,,,,,,,,,,,,,,,,,,
,,,,,,,,2023-08-16_08h42.23.094,HF_wild_card,2022.2.4,MacIntel,60.0024001,5dbcaecb740cc224d8d0985e,64d2fd46c836a06233681665,64dc7dcaed9d66855003346a,,,,,,,ctch,resources/DY.BMP,resources/DBN.BMP,Door4,-0.289496528,0.00171875,1,0,0,1.1296,optionLeft,80,11685,5,42,0,42,0,1,,,,,,,,,,,,,,,,,,,,,,,,,,,,,,,,,,,,,,,
,,,,,,,,2023-08-16_08h42.23.094,HF_wild_card,2022.2.4,MacIntel,60.0024001,5dbcaecb740cc224d8d0985e,64d2fd46c836a06233681665,64dc7dcaed9d66855003346a,,,,,,,decisionTrl,resources/DY.BMP,resources/DG.BMP,Door4,-0.415894097,-0.05109375,1,0,0,2.5995,optionLeft,80,11765,5,43,0,43,0,1,,,,,,,,,,,,,,,,,,,,,,,,,,,,,,,,,,,,,,,
,,,,,,,,2023-08-16_08h42.23.094,HF_wild_card,2022.2.4,MacIntel,60.0024001,5dbcaecb740cc224d8d0985e,64d2fd46c836a06233681665,64dc7dcaed9d66855003346a,,,,,,,,,,,,,,,,,,,,,,,,,,4,0,4,0,1,,,,,,,,,,,,,,,,,,,,,,,,,,,,,,,,,,
,,,,,,,,2023-08-16_08h42.23.094,HF_wild_card,2022.2.4,MacIntel,60.0024001,5dbcaecb740cc224d8d0985e,64d2fd46c836a06233681665,64dc7dcaed9d66855003346a,,,,,,,sngl,resources/Empty.png,resources/DG.BMP,Door3,0.409127604,-0.072204861,1,0,0,1.5795,optionRight,70,11835,6,0,0,0,0,1,,,,,,,,,,,,,,,,,,,,,,,,,,,,,,,,,,,,,,,
,,,,,,,,2023-08-16_08h42.23.094,HF_wild_card,2022.2.4,MacIntel,60.0024001,5dbcaecb740cc224d8d0985e,64d2fd46c836a06233681665,64dc7dcaed9d66855003346a,,,,,,,sngl,resources/DBN.BMP,resources/Empty.png,Door1,-0.272907986,0.004952257,1,0,0,0.7963,optionLeft,30,11865,6,1,0,1,0,1,,,,,,,,,,,,,,,,,,,,,,,,,,,,,,,,,,,,,,,
,,,,,,,,2023-08-16_08h42.23.094,HF_wild_card,2022.2.4,MacIntel,60.0024001,5dbcaecb740cc224d8d0985e,64d2fd46c836a06233681665,64dc7dcaed9d66855003346a,,,,,,,sngl,resources/DP.BMP,resources/Empty.png,WildCard_NonEx,-0.3440625,-0.032083333,1,0,0,0.7441,optionLeft,55,11920,6,2,0,2,0,1,,,,,,,,,,,,,,,,,,,,,,,,,,,,,,,,,,,,,,,
,,,,,,,,2023-08-16_08h42.23.094,HF_wild_card,2022.2.4,MacIntel,60.0024001,5dbcaecb740cc224d8d0985e,64d2fd46c836a06233681665,64dc7dcaed9d66855003346a,,,,,,,decisionTrl,resources/DBN.BMP,resources/DR.BMP,Door2,0.364483507,-0.042873264,1,0,0,0.7288,optionRight,40,11960,6,3,0,3,0,1,,,,,,,,,,,,,,,,,,,,,,,,,,,,,,,,,,,,,,,
,,,,,,,,2023-08-16_08h42.23.094,HF_wild_card,2022.2.4,MacIntel,60.0024001,5dbcaecb740cc224d8d0985e,64d2fd46c836a06233681665,64dc7dcaed9d66855003346a,,,,,,,decisionTrl,resources/DR.BMP,resources/DBN.BMP,Door2,-0.324960937,0.008515625,1,0,0,0.6497,optionLeft,20,11980,6,4,0,4,0,1,,,,,,,,,,,,,,,,,,,,,,,,,,,,,,,,,,,,,,,
,,,,,,,,2023-08-16_08h42.23.094,HF_wild_card,2022.2.4,MacIntel,60.0024001,5dbcaecb740cc224d8d0985e,64d2fd46c836a06233681665,64dc7dcaed9d66855003346a,,,,,,,decisionTrl,resources/DBN.BMP,resources/DP.BMP,WildCard_NonEx,0.366241319,-0.051193576,1,0,0,0.7156,optionRight,55,12035,6,5,0,5,0,1,,,,,,,,,,,,,,,,,,,,,,,,,,,,,,,,,,,,,,,
,,,,,,,,2023-08-16_08h42.23.094,HF_wild_card,2022.2.4,MacIntel,60.0024001,5dbcaecb740cc224d8d0985e,64d2fd46c836a06233681665,64dc7dcaed9d66855003346a,,,,,,,sngl,resources/Empty.png,resources/DBN.BMP,Door1,0.425720486,-0.037947049,1,0,0,0.8632,optionRight,30,12065,6,6,0,6,0,1,,,,,,,,,,,,,,,,,,,,,,,,,,,,,,,,,,,,,,,
,,,,,,,,2023-08-16_08h42.23.094,HF_wild_card,2022.2.4,MacIntel,60.0024001,5dbcaecb740cc224d8d0985e,64d2fd46c836a06233681665,64dc7dcaed9d66855003346a,,,,,,,decisionTrl,resources/DG.BMP,resources/DP.BMP,Door3,-0.322682292,-0.020846354,1,0,0,2.2799,optionLeft,70,12135,6,7,0,7,0,1,,,,,,,,,,,,,,,,,,,,,,,,,,,,,,,,,,,,,,,
,,,,,,,,2023-08-16_08h42.23.094,HF_wild_card,2022.2.4,MacIntel,60.0024001,5dbcaecb740cc224d8d0985e,64d2fd46c836a06233681665,64dc7dcaed9d66855003346a,,,,,,,decisionTrl,resources/DP.BMP,resources/DG.BMP,Door3,0.273893229,-0.012508681,1,0,0,1.0962,optionRight,70,12205,6,8,0,8,0,1,,,,,,,,,,,,,,,,,,,,,,,,,,,,,,,,,,,,,,,
,,,,,,,,2023-08-16_08h42.23.094,HF_wild_card,2022.2.4,MacIntel,60.0024001,5dbcaecb740cc224d8d0985e,64d2fd46c836a06233681665,64dc7dcaed9d66855003346a,,,,,,,ctch,resources/DY.BMP,resources/DBN.BMP,Door4,-0.383068576,-0.027890625,1,0,0,0.8307,optionLeft,60,12265,6,9,0,9,0,1,,,,,,,,,,,,,,,,,,,,,,,,,,,,,,,,,,,,,,,
,,,,,,,,2023-08-16_08h42.23.094,HF_wild_card,2022.2.4,MacIntel,60.0024001,5dbcaecb740cc224d8d0985e,64d2fd46c836a06233681665,64dc7dcaed9d66855003346a,,,,,,,sngl,resources/DG.BMP,resources/Empty.png,Door3,-0.37562066,-0.009644097,1,0,0,0.8308,optionLeft,70,12335,6,10,0,10,0,1,,,,,,,,,,,,,,,,,,,,,,,,,,,,,,,,,,,,,,,
,,,,,,,,2023-08-16_08h42.23.094,HF_wild_card,2022.2.4,MacIntel,60.0024001,5dbcaecb740cc224d8d0985e,64d2fd46c836a06233681665,64dc7dcaed9d66855003346a,,,,,,,ctch,resources/DR.BMP,resources/DG.BMP,Door3,0.349427083,-0.015329861,1,0,0,1.2472,optionRight,70,12405,6,11,0,11,0,1,,,,,,,,,,,,,,,,,,,,,,,,,,,,,,,,,,,,,,,
,,,,,,,,2023-08-16_08h42.23.094,HF_wild_card,2022.2.4,MacIntel,60.0024001,5dbcaecb740cc224d8d0985e,64d2fd46c836a06233681665,64dc7dcaed9d66855003346a,,,,,,,sngl,resources/Empty.png,resources/DY.BMP,Door4,0.331024306,0.005412326,1,0,0,0.9128,optionRight,80,12485,6,12,0,12,0,1,,,,,,,,,,,,,,,,,,,,,,,,,,,,,,,,,,,,,,,
,,,,,,,,2023-08-16_08h42.23.094,HF_wild_card,2022.2.4,MacIntel,60.0024001,5dbcaecb740cc224d8d0985e,64d2fd46c836a06233681665,64dc7dcaed9d66855003346a,,,,,,,ctch,resources/DBN.BMP,resources/DY.BMP,Door4,0.295251736,-5.20833E-05,1,0,0,1.1152,optionRight,60,12545,6,13,0,13,0,1,,,,,,,,,,,,,,,,,,,,,,,,,,,,,,,,,,,,,,,
,,,,,,,,2023-08-16_08h42.23.094,HF_wild_card,2022.2.4,MacIntel,60.0024001,5dbcaecb740cc224d8d0985e,64d2fd46c836a06233681665,64dc7dcaed9d66855003346a,,,,,,,decisionTrl,resources/DG.BMP,resources/DY.BMP,Door3,-0.319552951,-0.003771701,1,0,0,1.2636,optionLeft,70,12615,6,14,0,14,0,1,,,,,,,,,,,,,,,,,,,,,,,,,,,,,,,,,,,,,,,
,,,,,,,,2023-08-16_08h42.23.094,HF_wild_card,2022.2.4,MacIntel,60.0024001,5dbcaecb740cc224d8d0985e,64d2fd46c836a06233681665,64dc7dcaed9d66855003346a,,,,,,,sngl,resources/DP.BMP,resources/Empty.png,WildCard_NonEx,-0.343289931,-0.036202257,1,0,0,0.8966,optionLeft,45,12660,6,15,0,15,0,1,,,,,,,,,,,,,,,,,,,,,,,,,,,,,,,,,,,,,,,
,,,,,,,,2023-08-16_08h42.23.094,HF_wild_card,2022.2.4,MacIntel,60.0024001,5dbcaecb740cc224d8d0985e,64d2fd46c836a06233681665,64dc7dcaed9d66855003346a,,,,,,,decisionTrl,resources/DR.BMP,resources/DBN.BMP,Door2,-0.323324653,-0.016458333,1,0,0,1.496,optionLeft,20,12680,6,16,0,16,0,1,,,,,,,,,,,,,,,,,,,,,,,,,,,,,,,,,,,,,,,
,,,,,,,,2023-08-16_08h42.23.094,HF_wild_card,2022.2.4,MacIntel,60.0024001,5dbcaecb740cc224d8d0985e,64d2fd46c836a06233681665,64dc7dcaed9d66855003346a,,,,,,,decisionTrl,resources/DG.BMP,resources/DY.BMP,Door4,0.326215278,-0.027478299,1,0,0,1.4957,optionRight,60,12740,6,17,0,17,0,1,,,,,,,,,,,,,,,,,,,,,,,,,,,,,,,,,,,,,,,
,,,,,,,,2023-08-16_08h42.23.094,HF_wild_card,2022.2.4,MacIntel,60.0024001,5dbcaecb740cc224d8d0985e,64d2fd46c836a06233681665,64dc7dcaed9d66855003346a,,,,,,,sngl,resources/DY.BMP,resources/Empty.png,Door4,-0.299583333,0.009743924,1,0,0,0.696,optionLeft,60,12800,6,18,0,18,0,1,,,,,,,,,,,,,,,,,,,,,,,,,,,,,,,,,,,,,,,
,,,,,,,,2023-08-16_08h42.23.094,HF_wild_card,2022.2.4,MacIntel,60.0024001,5dbcaecb740cc224d8d0985e,64d2fd46c836a06233681665,64dc7dcaed9d66855003346a,,,,,,,decisionTrl,resources/DY.BMP,resources/DP.BMP,Door4,-0.346701389,-0.007434896,1,0,0,1.2811,optionLeft,60,12860,6,19,0,19,0,1,,,,,,,,,,,,,,,,,,,,,,,,,,,,,,,,,,,,,,,
,,,,,,,,2023-08-16_08h42.23.094,HF_wild_card,2022.2.4,MacIntel,60.0024001,5dbcaecb740cc224d8d0985e,64d2fd46c836a06233681665,64dc7dcaed9d66855003346a,,,,,,,decisionTrl,resources/DBN.BMP,resources/DR.BMP,Door1,-0.280677083,0.052005208,1,0,0,1.5801,optionLeft,30,12890,6,20,0,20,0,1,,,,,,,,,,,,,,,,,,,,,,,,,,,,,,,,,,,,,,,
,,,,,,,,2023-08-16_08h42.23.094,HF_wild_card,2022.2.4,MacIntel,60.0024001,5dbcaecb740cc224d8d0985e,64d2fd46c836a06233681665,64dc7dcaed9d66855003346a,,,,,,,decisionTrl,resources/DP.BMP,resources/DR.BMP,WildCard_NonEx,-0.404639757,-0.0075,1,0,0,0.9636,optionLeft,45,12935,6,21,0,21,0,1,,,,,,,,,,,,,,,,,,,,,,,,,,,,,,,,,,,,,,,
,,,,,,,,2023-08-16_08h42.23.094,HF_wild_card,2022.2.4,MacIntel,60.0024001,5dbcaecb740cc224d8d0985e,64d2fd46c836a06233681665,64dc7dcaed9d66855003346a,,,,,,,sngl,resources/Empty.png,resources/DR.BMP,Door2,0.362265625,-0.025134549,1,0,0,0.8468,optionRight,40,12975,6,22,0,22,0,1,,,,,,,,,,,,,,,,,,,,,,,,,,,,,,,,,,,,,,,
,,,,,,,,2023-08-16_08h42.23.094,HF_wild_card,2022.2.4,MacIntel,60.0024001,5dbcaecb740cc224d8d0985e,64d2fd46c836a06233681665,64dc7dcaed9d66855003346a,,,,,,,ctch,resources/DG.BMP,resources/DR.BMP,Door3,-0.322721354,0.018146701,1,0,0,0.8332,optionLeft,70,13045,6,23,0,23,0,1,,,,,,,,,,,,,,,,,,,,,,,,,,,,,,,,,,,,,,,
,,,,,,,,2023-08-16_08h42.23.094,HF_wild_card,2022.2.4,MacIntel,60.0024001,5dbcaecb740cc224d8d0985e,64d2fd46c836a06233681665,64dc7dcaed9d66855003346a,,,,,,,ctch,resources/DBN.BMP,resources/DY.BMP,Door4,0.30015191,0.005998264,1,0,0,0.9286,optionRight,80,13125,6,24,0,24,0,1,,,,,,,,,,,,,,,,,,,,,,,,,,,,,,,,,,,,,,,
,,,,,,,,2023-08-16_08h42.23.094,HF_wild_card,2022.2.4,MacIntel,60.0024001,5dbcaecb740cc224d8d0985e,64d2fd46c836a06233681665,64dc7dcaed9d66855003346a,,,,,,,decisionTrl,resources/DR.BMP,resources/DBN.BMP,Door1,0.333059896,0.00343316,1,0,0,1.6316,optionRight,30,13155,6,25,0,25,0,1,,,,,,,,,,,,,,,,,,,,,,,,,,,,,,,,,,,,,,,
,,,,,,,,2023-08-16_08h42.23.094,HF_wild_card,2022.2.4,MacIntel,60.0024001,5dbcaecb740cc224d8d0985e,64d2fd46c836a06233681665,64dc7dcaed9d66855003346a,,,,,,,decisionTrl,resources/DY.BMP,resources/DG.BMP,Door4,-0.346210937,0.011927083,1,0,0,1.2994,optionLeft,80,13235,6,26,0,26,0,1,,,,,,,,,,,,,,,,,,,,,,,,,,,,,,,,,,,,,,,
,,,,,,,,2023-08-16_08h42.23.094,HF_wild_card,2022.2.4,MacIntel,60.0024001,5dbcaecb740cc224d8d0985e,64d2fd46c836a06233681665,64dc7dcaed9d66855003346a,,,,,,,ctch,resources/DR.BMP,resources/DG.BMP,Door3,0.321861979,0.024275174,1,0,0,1.015,optionRight,70,13305,6,27,0,27,0,1,,,,,,,,,,,,,,,,,,,,,,,,,,,,,,,,,,,,,,,
,,,,,,,,2023-08-16_08h42.23.094,HF_wild_card,2022.2.4,MacIntel,60.0024001,5dbcaecb740cc224d8d0985e,64d2fd46c836a06233681665,64dc7dcaed9d66855003346a,,,,,,,decisionTrl,resources/DY.BMP,resources/DG.BMP,Door4,-0.30500434,0.030980903,1,0,0,1.1958,optionLeft,60,13365,6,28,0,28,0,1,,,,,,,,,,,,,,,,,,,,,,,,,,,,,,,,,,,,,,,
,,,,,,,,2023-08-16_08h42.23.094,HF_wild_card,2022.2.4,MacIntel,60.0024001,5dbcaecb740cc224d8d0985e,64d2fd46c836a06233681665,64dc7dcaed9d66855003346a,,,,,,,sngl,resources/Empty.png,resources/DP.BMP,WildCard_NonEx,0.401128472,-0.035047743,1,0,0,0.8296,optionRight,45,13410,6,29,0,29,0,1,,,,,,,,,,,,,,,,,,,,,,,,,,,,,,,,,,,,,,,
,,,,,,,,2023-08-16_08h42.23.094,HF_wild_card,2022.2.4,MacIntel,60.0024001,5dbcaecb740cc224d8d0985e,64d2fd46c836a06233681665,64dc7dcaed9d66855003346a,,,,,,,decisionTrl,resources/DG.BMP,resources/DY.BMP,Door3,-0.343980035,0.01125434,1,0,0,1.5658,optionLeft,70,13480,6,30,0,30,0,1,,,,,,,,,,,,,,,,,,,,,,,,,,,,,,,,,,,,,,,
,,,,,,,,2023-08-16_08h42.23.094,HF_wild_card,2022.2.4,MacIntel,60.0024001,5dbcaecb740cc224d8d0985e,64d2fd46c836a06233681665,64dc7dcaed9d66855003346a,,,,,,,sngl,resources/Empty.png,resources/DP.BMP,WildCard_NonEx,0.332369792,-0.008641493,1,0,0,0.8627,optionRight,55,13535,6,31,0,31,0,1,,,,,,,,,,,,,,,,,,,,,,,,,,,,,,,,,,,,,,,
,,,,,,,,2023-08-16_08h42.23.094,HF_wild_card,2022.2.4,MacIntel,60.0024001,5dbcaecb740cc224d8d0985e,64d2fd46c836a06233681665,64dc7dcaed9d66855003346a,,,,,,,decisionTrl,resources/DG.BMP,resources/DY.BMP,Door3,-0.297044271,-0.002786458,1,0,0,0.9447,optionLeft,70,13605,6,32,0,32,0,1,,,,,,,,,,,,,,,,,,,,,,,,,,,,,,,,,,,,,,,
,,,,,,,,2023-08-16_08h42.23.094,HF_wild_card,2022.2.4,MacIntel,60.0024001,5dbcaecb740cc224d8d0985e,64d2fd46c836a06233681665,64dc7dcaed9d66855003346a,,,,,,,decisionTrl,resources/DR.BMP,resources/DP.BMP,WildCard_NonEx,0.316653646,-0.004136285,1,0,0,1.7814,optionRight,45,13650,6,33,0,33,0,1,,,,,,,,,,,,,,,,,,,,,,,,,,,,,,,,,,,,,,,
,,,,,,,,2023-08-16_08h42.23.094,HF_wild_card,2022.2.4,MacIntel,60.0024001,5dbcaecb740cc224d8d0985e,64d2fd46c836a06233681665,64dc7dcaed9d66855003346a,,,,,,,decisionTrl,resources/DY.BMP,resources/DG.BMP,Door3,0.257239583,-0.02140191,1,0,0,1.6442,optionRight,70,13720,6,34,0,34,0,1,,,,,,,,,,,,,,,,,,,,,,,,,,,,,,,,,,,,,,,
,,,,,,,,2023-08-16_08h42.23.094,HF_wild_card,2022.2.4,MacIntel,60.0024001,5dbcaecb740cc224d8d0985e,64d2fd46c836a06233681665,64dc7dcaed9d66855003346a,,,,,,,decisionTrl,resources/DP.BMP,resources/DBN.BMP,WildCard_NonEx,-0.318250868,-0.020008681,1,0,0,1.047,optionLeft,45,13765,6,35,0,35,0,1,,,,,,,,,,,,,,,,,,,,,,,,,,,,,,,,,,,,,,,
,,,,,,,,2023-08-16_08h42.23.094,HF_wild_card,2022.2.4,MacIntel,60.0024001,5dbcaecb740cc224d8d0985e,64d2fd46c836a06233681665,64dc7dcaed9d66855003346a,,,,,,,decisionTrl,resources/DY.BMP,resources/DG.BMP,Door3,0.376111111,-0.017148437,1,0,0,0.911,optionRight,70,13835,6,36,0,36,0,1,,,,,,,,,,,,,,,,,,,,,,,,,,,,,,,,,,,,,,,
,,,,,,,,2023-08-16_08h42.23.094,HF_wild_card,2022.2.4,MacIntel,60.0024001,5dbcaecb740cc224d8d0985e,64d2fd46c836a06233681665,64dc7dcaed9d66855003346a,,,,,,,sngl,resources/DR.BMP,resources/Empty.png,Door2,-0.381892361,0.006293403,1,0,0,0.7961,optionLeft,20,13855,6,37,0,37,0,1,,,,,,,,,,,,,,,,,,,,,,,,,,,,,,,,,,,,,,,
,,,,,,,,2023-08-16_08h42.23.094,HF_wild_card,2022.2.4,MacIntel,60.0024001,5dbcaecb740cc224d8d0985e,64d2fd46c836a06233681665,64dc7dcaed9d66855003346a,,,,,,,ctch,resources/DY.BMP,resources/DBN.BMP,Door4,-0.343020833,-0.033758681,1,0,0,0.9678,optionLeft,80,13935,6,38,0,38,0,1,,,,,,,,,,,,,,,,,,,,,,,,,,,,,,,,,,,,,,,
,,,,,,,,2023-08-16_08h42.23.094,HF_wild_card,2022.2.4,MacIntel,60.0024001,5dbcaecb740cc224d8d0985e,64d2fd46c836a06233681665,64dc7dcaed9d66855003346a,,,,,,,decisionTrl,resources/DP.BMP,resources/DY.BMP,Door4,0.310885417,-0.019144965,1,0,0,0.9445,optionRight,60,13995,6,39,0,39,0,1,,,,,,,,,,,,,,,,,,,,,,,,,,,,,,,,,,,,,,,
,,,,,,,,2023-08-16_08h42.23.094,HF_wild_card,2022.2.4,MacIntel,60.0024001,5dbcaecb740cc224d8d0985e,64d2fd46c836a06233681665,64dc7dcaed9d66855003346a,,,,,,,decisionTrl,resources/DBN.BMP,resources/DR.BMP,Door2,0.280794271,-0.036241319,1,0,0,1.1455,optionRight,20,14015,6,40,0,40,0,1,,,,,,,,,,,,,,,,,,,,,,,,,,,,,,,,,,,,,,,
,,,,,,,,2023-08-16_08h42.23.094,HF_wild_card,2022.2.4,MacIntel,60.0024001,5dbcaecb740cc224d8d0985e,64d2fd46c836a06233681665,64dc7dcaed9d66855003346a,,,,,,,decisionTrl,resources/DBN.BMP,resources/DR.BMP,Door1,-0.321002604,0.004431424,1,0,0,0.9326,optionLeft,30,14045,6,41,0,41,0,1,,,,,,,,,,,,,,,,,,,,,,,,,,,,,,,,,,,,,,,
,,,,,,,,2023-08-16_08h42.23.094,HF_wild_card,2022.2.4,MacIntel,60.0024001,5dbcaecb740cc224d8d0985e,64d2fd46c836a06233681665,64dc7dcaed9d66855003346a,,,,,,,ctch,resources/DG.BMP,resources/DR.BMP,Door3,-0.401675347,-0.021835937,1,0,0,1.0778,optionLeft,70,14115,6,42,0,42,0,1,,,,,,,,,,,,,,,,,,,,,,,,,,,,,,,,,,,,,,,
,,,,,,,,2023-08-16_08h42.23.094,HF_wild_card,2022.2.4,MacIntel,60.0024001,5dbcaecb740cc224d8d0985e,64d2fd46c836a06233681665,64dc7dcaed9d66855003346a,,,,,,,decisionTrl,resources/DR.BMP,resources/DBN.BMP,Door2,-0.340703125,-0.029991319,1,0,0,1.4948,optionLeft,20,14135,6,43,0,43,0,1,,,,,,,,,,,,,,,,,,,,,,,,,,,,,,,,,,,,,,,
,,,,,,,,2023-08-16_08h42.23.094,HF_wild_card,2022.2.4,MacIntel,60.0024001,5dbcaecb740cc224d8d0985e,64d2fd46c836a06233681665,64dc7dcaed9d66855003346a,,,,,,,,,,,,,,,,,,,,,,,,,,5,0,5,0,1,,,,,,,,,,,,,,,,,,,,,,,,,,,,,,,,,,
,,,,,,,,2023-08-16_08h42.23.094,HF_wild_card,2022.2.4,MacIntel,60.0024001,5dbcaecb740cc224d8d0985e,64d2fd46c836a06233681665,64dc7dcaed9d66855003346a,,,,,,,decisionTrl,resources/DBN.BMP,resources/DR.BMP,Door2,0.31125,-0.112235243,1,0,0,1.4464,optionRight,40,14175,7,0,0,0,0,1,,,,,,,,,,,,,,,,,,,,,,,,,,,,,,,,,,,,,,,
,,,,,,,,2023-08-16_08h42.23.094,HF_wild_card,2022.2.4,MacIntel,60.0024001,5dbcaecb740cc224d8d0985e,64d2fd46c836a06233681665,64dc7dcaed9d66855003346a,,,,,,,decisionTrl,resources/DBN.BMP,resources/DR.BMP,Door1,-0.377465278,-0.02483941,1,0,0,1.5801,optionLeft,30,14205,7,1,0,1,0,1,,,,,,,,,,,,,,,,,,,,,,,,,,,,,,,,,,,,,,,
,,,,,,,,2023-08-16_08h42.23.094,HF_wild_card,2022.2.4,MacIntel,60.0024001,5dbcaecb740cc224d8d0985e,64d2fd46c836a06233681665,64dc7dcaed9d66855003346a,,,,,,,decisionTrl,resources/DR.BMP,resources/DBN.BMP,Door2,-0.475351562,-0.062834201,1,0,0,1.0164,optionLeft,20,14225,7,2,0,2,0,1,,,,,,,,,,,,,,,,,,,,,,,,,,,,,,,,,,,,,,,
,,,,,,,,2023-08-16_08h42.23.094,HF_wild_card,2022.2.4,MacIntel,60.0024001,5dbcaecb740cc224d8d0985e,64d2fd46c836a06233681665,64dc7dcaed9d66855003346a,,,,,,,decisionTrl,resources/DR.BMP,resources/DBN.BMP,Door1,0.341853299,-0.007842882,1,0,0,0.8652,optionRight,30,14255,7,3,0,3,0,1,,,,,,,,,,,,,,,,,,,,,,,,,,,,,,,,,,,,,,,
,,,,,,,,2023-08-16_08h42.23.094,HF_wild_card,2022.2.4,MacIntel,60.0024001,5dbcaecb740cc224d8d0985e,64d2fd46c836a06233681665,64dc7dcaed9d66855003346a,,,,,,,decisionTrl,resources/DY.BMP,resources/DG.BMP,Door4,-0.303003472,-0.030442708,1,0,0,1.2985,optionLeft,80,14335,7,4,0,4,0,1,,,,,,,,,,,,,,,,,,,,,,,,,,,,,,,,,,,,,,,
,,,,,,,,2023-08-16_08h42.23.094,HF_wild_card,2022.2.4,MacIntel,60.0024001,5dbcaecb740cc224d8d0985e,64d2fd46c836a06233681665,64dc7dcaed9d66855003346a,,,,,,,ctch,resources/DR.BMP,resources/DG.BMP,Door3,0.353446181,-0.02671875,1,0,0,1.3146,optionRight,70,14405,7,5,0,5,0,1,,,,,,,,,,,,,,,,,,,,,,,,,,,,,,,,,,,,,,,
,,,,,,,,2023-08-16_08h42.23.094,HF_wild_card,2022.2.4,MacIntel,60.0024001,5dbcaecb740cc224d8d0985e,64d2fd46c836a06233681665,64dc7dcaed9d66855003346a,,,,,,,ctch,resources/DY.BMP,resources/DBN.BMP,Door4,-0.374301215,-0.03437934,1,0,0,0.9314,optionLeft,60,14465,7,6,0,6,0,1,,,,,,,,,,,,,,,,,,,,,,,,,,,,,,,,,,,,,,,
,,,,,,,,2023-08-16_08h42.23.094,HF_wild_card,2022.2.4,MacIntel,60.0024001,5dbcaecb740cc224d8d0985e,64d2fd46c836a06233681665,64dc7dcaed9d66855003346a,,,,,,,decisionTrl,resources/DG.BMP,resources/DY.BMP,Door4,0.308237847,-0.073411458,1,0,0,1.799,optionRight,60,14525,7,7,0,7,0,1,,,,,,,,,,,,,,,,,,,,,,,,,,,,,,,,,,,,,,,
,,,,,,,,2023-08-16_08h42.23.094,HF_wild_card,2022.2.4,MacIntel,60.0024001,5dbcaecb740cc224d8d0985e,64d2fd46c836a06233681665,64dc7dcaed9d66855003346a,,,,,,,decisionTrl,resources/DY.BMP,resources/DG.BMP,Door4,-0.349461806,0.002139757,1,0,0,0.9966,optionLeft,80,14605,7,8,0,8,0,1,,,,,,,,,,,,,,,,,,,,,,,,,,,,,,,,,,,,,,,
,,,,,,,,2023-08-16_08h42.23.094,HF_wild_card,2022.2.4,MacIntel,60.0024001,5dbcaecb740cc224d8d0985e,64d2fd46c836a06233681665,64dc7dcaed9d66855003346a,,,,,,,decisionTrl,resources/DBN.BMP,resources/DR.BMP,Door2,0.322769097,-0.036072049,1,0,0,1.3327,optionRight,20,14625,7,9,0,9,0,1,,,,,,,,,,,,,,,,,,,,,,,,,,,,,,,,,,,,,,,
,,,,,,,,2023-08-16_08h42.23.094,HF_wild_card,2022.2.4,MacIntel,60.0024001,5dbcaecb740cc224d8d0985e,64d2fd46c836a06233681665,64dc7dcaed9d66855003346a,,,,,,,ctch,resources/DG.BMP,resources/DR.BMP,Door3,-0.323836806,0.017513021,1,0,0,1.0297,optionLeft,70,14695,7,10,0,10,0,1,,,,,,,,,,,,,,,,,,,,,,,,,,,,,,,,,,,,,,,
,,,,,,,,2023-08-16_08h42.23.094,HF_wild_card,2022.2.4,MacIntel,60.0024001,5dbcaecb740cc224d8d0985e,64d2fd46c836a06233681665,64dc7dcaed9d66855003346a,,,,,,,decisionTrl,resources/DY.BMP,resources/DG.BMP,Door4,-0.347139757,-0.008836806,1,0,0,0.9128,optionLeft,80,14775,7,11,0,11,0,1,,,,,,,,,,,,,,,,,,,,,,,,,,,,,,,,,,,,,,,
,,,,,,,,2023-08-16_08h42.23.094,HF_wild_card,2022.2.4,MacIntel,60.0024001,5dbcaecb740cc224d8d0985e,64d2fd46c836a06233681665,64dc7dcaed9d66855003346a,,,,,,,decisionTrl,resources/DG.BMP,resources/DY.BMP,Door4,0.315047743,0.023220486,1,0,0,1.5805,optionRight,60,14835,7,12,0,12,0,1,,,,,,,,,,,,,,,,,,,,,,,,,,,,,,,,,,,,,,,
,,,,,,,,2023-08-16_08h42.23.094,HF_wild_card,2022.2.4,MacIntel,60.0024001,5dbcaecb740cc224d8d0985e,64d2fd46c836a06233681665,64dc7dcaed9d66855003346a,,,,,,,decisionTrl,resources/DG.BMP,resources/DY.BMP,Door4,0.318810764,0.028298611,1,0,0,1.1349,optionRight,80,14915,7,13,0,13,0,1,,,,,,,,,,,,,,,,,,,,,,,,,,,,,,,,,,,,,,,
,,,,,,,,2023-08-16_08h42.23.094,HF_wild_card,2022.2.4,MacIntel,60.0024001,5dbcaecb740cc224d8d0985e,64d2fd46c836a06233681665,64dc7dcaed9d66855003346a,,,,,,,decisionTrl,resources/DG.BMP,resources/DY.BMP,Door3,-0.386610243,0.019136285,1,0,0,0.7325,optionLeft,70,14985,7,14,0,14,0,1,,,,,,,,,,,,,,,,,,,,,,,,,,,,,,,,,,,,,,,
,,,,,,,,2023-08-16_08h42.23.094,HF_wild_card,2022.2.4,MacIntel,60.0024001,5dbcaecb740cc224d8d0985e,64d2fd46c836a06233681665,64dc7dcaed9d66855003346a,,,,,,,decisionTrl,resources/DY.BMP,resources/DG.BMP,Door4,-0.290065104,0.037890625,1,0,0,0.931,optionLeft,60,15045,7,15,0,15,0,1,,,,,,,,,,,,,,,,,,,,,,,,,,,,,,,,,,,,,,,
,,,,,,,,2023-08-16_08h42.23.094,HF_wild_card,2022.2.4,MacIntel,60.0024001,5dbcaecb740cc224d8d0985e,64d2fd46c836a06233681665,64dc7dcaed9d66855003346a,,,,,,,decisionTrl,resources/DR.BMP,resources/DBN.BMP,Door2,-0.323567708,0.028138021,1,0,0,1.4655,optionLeft,20,15065,7,16,0,16,0,1,,,,,,,,,,,,,,,,,,,,,,,,,,,,,,,,,,,,,,,
,,,,,,,,2023-08-16_08h42.23.094,HF_wild_card,2022.2.4,MacIntel,60.0024001,5dbcaecb740cc224d8d0985e,64d2fd46c836a06233681665,64dc7dcaed9d66855003346a,,,,,,,decisionTrl,resources/DBN.BMP,resources/DR.BMP,Door1,-0.273736979,0.01702691,1,0,0,0.9163,optionLeft,30,15095,7,17,0,17,0,1,,,,,,,,,,,,,,,,,,,,,,,,,,,,,,,,,,,,,,,
,,,,,,,,2023-08-16_08h42.23.094,HF_wild_card,2022.2.4,MacIntel,60.0024001,5dbcaecb740cc224d8d0985e,64d2fd46c836a06233681665,64dc7dcaed9d66855003346a,,,,,,,decisionTrl,resources/DR.BMP,resources/DBN.BMP,Door2,-0.355460069,0.035073785,1,0,0,1.8638,optionLeft,20,15115,7,18,0,18,0,1,,,,,,,,,,,,,,,,,,,,,,,,,,,,,,,,,,,,,,,
,,,,,,,,2023-08-16_08h42.23.094,HF_wild_card,2022.2.4,MacIntel,60.0024001,5dbcaecb740cc224d8d0985e,64d2fd46c836a06233681665,64dc7dcaed9d66855003346a,,,,,,,ctch,resources/DBN.BMP,resources/DY.BMP,Door4,0.419796007,0.015520833,1,0,0,0.9133,optionRight,60,15175,7,19,0,19,0,1,,,,,,,,,,,,,,,,,,,,,,,,,,,,,,,,,,,,,,,
,,,,,,,,2023-08-16_08h42.23.094,HF_wild_card,2022.2.4,MacIntel,60.0024001,5dbcaecb740cc224d8d0985e,64d2fd46c836a06233681665,64dc7dcaed9d66855003346a,,,,,,,decisionTrl,resources/DG.BMP,resources/DY.BMP,Door3,-0.301866319,0.010559896,1,0,0,1.064,optionLeft,70,15245,7,20,0,20,0,1,,,,,,,,,,,,,,,,,,,,,,,,,,,,,,,,,,,,,,,
,,,,,,,,2023-08-16_08h42.23.094,HF_wild_card,2022.2.4,MacIntel,60.0024001,5dbcaecb740cc224d8d0985e,64d2fd46c836a06233681665,64dc7dcaed9d66855003346a,,,,,,,decisionTrl,resources/DBN.BMP,resources/DR.BMP,Door2,0.285542535,-0.016041667,1,0,0,0.9995,optionRight,40,15285,7,21,0,21,0,1,,,,,,,,,,,,,,,,,,,,,,,,,,,,,,,,,,,,,,,
,,,,,,,,2023-08-16_08h42.23.094,HF_wild_card,2022.2.4,MacIntel,60.0024001,5dbcaecb740cc224d8d0985e,64d2fd46c836a06233681665,64dc7dcaed9d66855003346a,,,,,,,ctch,resources/DY.BMP,resources/DBN.BMP,Door4,-0.331875,0.038702257,1,0,0,0.715,optionLeft,60,15345,7,22,0,22,0,1,,,,,,,,,,,,,,,,,,,,,,,,,,,,,,,,,,,,,,,
,,,,,,,,2023-08-16_08h42.23.094,HF_wild_card,2022.2.4,MacIntel,60.0024001,5dbcaecb740cc224d8d0985e,64d2fd46c836a06233681665,64dc7dcaed9d66855003346a,,,,,,,decisionTrl,resources/DR.BMP,resources/DBN.BMP,Door1,0.243029514,0.043606771,1,0,0,1.2156,optionRight,30,15375,7,23,0,23,0,1,,,,,,,,,,,,,,,,,,,,,,,,,,,,,,,,,,,,,,,
,,,,,,,,2023-08-16_08h42.23.094,HF_wild_card,2022.2.4,MacIntel,60.0024001,5dbcaecb740cc224d8d0985e,64d2fd46c836a06233681665,64dc7dcaed9d66855003346a,,,,,,,decisionTrl,resources/DY.BMP,resources/DG.BMP,Door4,-0.34187934,0.017877604,1,0,0,0.7801,optionLeft,80,15455,7,24,0,24,0,1,,,,,,,,,,,,,,,,,,,,,,,,,,,,,,,,,,,,,,,
,,,,,,,,2023-08-16_08h42.23.094,HF_wild_card,2022.2.4,MacIntel,60.0024001,5dbcaecb740cc224d8d0985e,64d2fd46c836a06233681665,64dc7dcaed9d66855003346a,,,,,,,ctch,resources/DBN.BMP,resources/DY.BMP,Door4,0.327196181,-0.010494792,1,0,0,0.8318,optionRight,60,15515,7,25,0,25,0,1,,,,,,,,,,,,,,,,,,,,,,,,,,,,,,,,,,,,,,,
,,,,,,,,2023-08-16_08h42.23.094,HF_wild_card,2022.2.4,MacIntel,60.0024001,5dbcaecb740cc224d8d0985e,64d2fd46c836a06233681665,64dc7dcaed9d66855003346a,,,,,,,ctch,resources/DG.BMP,resources/DR.BMP,Door3,-0.322552083,-0.003732639,1,0,0,1.0992,optionLeft,70,15585,7,26,0,26,0,1,,,,,,,,,,,,,,,,,,,,,,,,,,,,,,,,,,,,,,,
,,,,,,,,2023-08-16_08h42.23.094,HF_wild_card,2022.2.4,MacIntel,60.0024001,5dbcaecb740cc224d8d0985e,64d2fd46c836a06233681665,64dc7dcaed9d66855003346a,,,,,,,decisionTrl,resources/DR.BMP,resources/DBN.BMP,Door2,-0.433302951,0.011540799,1,0,0,1.2344,optionLeft,20,15605,7,27,0,27,0,1,,,,,,,,,,,,,,,,,,,,,,,,,,,,,,,,,,,,,,,
,,,,,,,,2023-08-16_08h42.23.094,HF_wild_card,2022.2.4,MacIntel,60.0024001,5dbcaecb740cc224d8d0985e,64d2fd46c836a06233681665,64dc7dcaed9d66855003346a,,,,,,,decisionTrl,resources/DG.BMP,resources/DY.BMP,Door4,0.294652778,0.001662326,1,0,0,1.1655,optionRight,80,15685,7,28,0,28,0,1,,,,,,,,,,,,,,,,,,,,,,,,,,,,,,,,,,,,,,,
,,,,,,,,2023-08-16_08h42.23.094,HF_wild_card,2022.2.4,MacIntel,60.0024001,5dbcaecb740cc224d8d0985e,64d2fd46c836a06233681665,64dc7dcaed9d66855003346a,,,,,,,ctch,resources/DG.BMP,resources/DR.BMP,Door3,-0.327526042,0.002217882,1,0,0,0.7647,optionLeft,70,15755,7,29,0,29,0,1,,,,,,,,,,,,,,,,,,,,,,,,,,,,,,,,,,,,,,,
,,,,,,,,2023-08-16_08h42.23.094,HF_wild_card,2022.2.4,MacIntel,60.0024001,5dbcaecb740cc224d8d0985e,64d2fd46c836a06233681665,64dc7dcaed9d66855003346a,,,,,,,decisionTrl,resources/DBN.BMP,resources/DR.BMP,Door2,0.374084201,-0.010572917,1,0,0,0.8155,optionRight,40,15795,7,30,0,30,0,1,,,,,,,,,,,,,,,,,,,,,,,,,,,,,,,,,,,,,,,
,,,,,,,,2023-08-16_08h42.23.094,HF_wild_card,2022.2.4,MacIntel,60.0024001,5dbcaecb740cc224d8d0985e,64d2fd46c836a06233681665,64dc7dcaed9d66855003346a,,,,,,,ctch,resources/DY.BMP,resources/DBN.BMP,Door4,-0.252873264,-0.004761285,1,0,0,0.7687,optionLeft,80,15875,7,31,0,31,0,1,,,,,,,,,,,,,,,,,,,,,,,,,,,,,,,,,,,,,,,
,,,,,,,,2023-08-16_08h42.23.094,HF_wild_card,2022.2.4,MacIntel,60.0024001,5dbcaecb740cc224d8d0985e,64d2fd46c836a06233681665,64dc7dcaed9d66855003346a,,,,,,,decisionTrl,resources/DY.BMP,resources/DG.BMP,Door4,-0.270607639,-0.004136285,1,0,0,0.8145,optionLeft,80,15955,7,32,0,32,0,1,,,,,,,,,,,,,,,,,,,,,,,,,,,,,,,,,,,,,,,
,,,,,,,,2023-08-16_08h42.23.094,HF_wild_card,2022.2.4,MacIntel,60.0024001,5dbcaecb740cc224d8d0985e,64d2fd46c836a06233681665,64dc7dcaed9d66855003346a,,,,,,,ctch,resources/DR.BMP,resources/DG.BMP,Door3,0.341150174,-0.026145833,1,0,0,0.8811,optionRight,70,16025,7,33,0,33,0,1,,,,,,,,,,,,,,,,,,,,,,,,,,,,,,,,,,,,,,,
,,,,,,,,2023-08-16_08h42.23.094,HF_wild_card,2022.2.4,MacIntel,60.0024001,5dbcaecb740cc224d8d0985e,64d2fd46c836a06233681665,64dc7dcaed9d66855003346a,,,,,,,ctch,resources/DR.BMP,resources/DG.BMP,Door3,0.300256076,-0.011050347,1,0,0,1.0309,optionRight,70,16095,7,34,0,34,0,1,,,,,,,,,,,,,,,,,,,,,,,,,,,,,,,,,,,,,,,
,,,,,,,,2023-08-16_08h42.23.094,HF_wild_card,2022.2.4,MacIntel,60.0024001,5dbcaecb740cc224d8d0985e,64d2fd46c836a06233681665,64dc7dcaed9d66855003346a,,,,,,,ctch,resources/DBN.BMP,resources/DY.BMP,Door4,0.294375,-0.006263021,1,0,0,0.9297,optionRight,60,16155,7,35,0,35,0,1,,,,,,,,,,,,,,,,,,,,,,,,,,,,,,,,,,,,,,,
,,,,,,,,2023-08-16_08h42.23.094,HF_wild_card,2022.2.4,MacIntel,60.0024001,5dbcaecb740cc224d8d0985e,64d2fd46c836a06233681665,64dc7dcaed9d66855003346a,,,,,,,,,,,,,,,,,,,,,,,,,,6,0,6,0,1,,,,,,,,,,,,,,,,,,,,,,,,,,,,,,,,,,
,,,,,,,,2023-08-16_08h42.23.094,HF_wild_card,2022.2.4,MacIntel,60.0024001,5dbcaecb740cc224d8d0985e,64d2fd46c836a06233681665,64dc7dcaed9d66855003346a,,,,,,,,,,,,,,,,,,,,,,,,,,,,,,,4,,,,,,,,,,,,,,,,,,,,,,,,,,,,,,,,,
,,,,,,,,2023-08-16_08h42.23.094,HF_wild_card,2022.2.4,MacIntel,60.0024001,5dbcaecb740cc224d8d0985e,64d2fd46c836a06233681665,64dc7dcaed9d66855003346a,,,,,,,,,,,,,,,,,,,,,,,,,,,,,,,,,,,,,,,,,,,,,,,,,,,,,,,,,,,,,,,,
,,,,,,,,2023-08-16_08h42.23.094,HF_wild_card,2022.2.4,MacIntel,60.0024001,5dbcaecb740cc224d8d0985e,64d2fd46c836a06233681665,64dc7dcaed9d66855003346a,,,,,,,,,,,,,,,,,,,,,,,,,,,,,,,,70,Door4,resources/DY.BMP,0,0,0,0,1,,,,,,,,,,,,,,,,,,,,,,,,,
,,,,,,,,2023-08-16_08h42.23.094,HF_wild_card,2022.2.4,MacIntel,60.0024001,5dbcaecb740cc224d8d0985e,64d2fd46c836a06233681665,64dc7dcaed9d66855003346a,,,,,,,,,,,,,,,,,,,,,,,,,,,,,,,,30,Door2,resources/DR.BMP,1,0,1,0,1,,,,,,,,,,,,,,,,,,,,,,,,,
,,,,,,,,2023-08-16_08h42.23.094,HF_wild_card,2022.2.4,MacIntel,60.0024001,5dbcaecb740cc224d8d0985e,64d2fd46c836a06233681665,64dc7dcaed9d66855003346a,,,,,,,,,,,,,,,,,,,,,,,,,,,,,,,,95,WC_extreme,resources/DB.BMP,2,0,2,0,1,,,,,,,,,,,,,,,,,,,,,,,,,
,,,,,,,,2023-08-16_08h42.23.094,HF_wild_card,2022.2.4,MacIntel,60.0024001,5dbcaecb740cc224d8d0985e,64d2fd46c836a06233681665,64dc7dcaed9d66855003346a,,,,,,,,,,,,,,,,,,,,,,,,,,,,,,,,20,Door1,resources/DBN.BMP,3,0,3,0,1,,,,,,,,,,,,,,,,,,,,,,,,,
