Condition,Low fixed image (Door1),Low risky image (Door2),High fixed image (Door3),High risky image (Door4),Extreme Wild Card,NonExtreme Wild Card,,date,expName,psychopyVersion,OS,frameRate,PROLIFIC_PID,STUDY_ID,SESSION_ID,mouse_2.x,mouse_2.y,mouse_2.leftButton,mouse_2.midButton,mouse_2.rightButton,mouse_2.clicked_name,Trial Type,Left Option Image,Right Option Image,Chosen Door,mouse.x,mouse.y,mouse.leftButton,mouse.midButton,mouse.rightButton,mouse.time,mouse.clicked_name,Feedback,Cumulative Reward,Block,trial.thisRepN,trial.thisTrialN,trial.thisN,trial.thisIndex,trial.ran,blocks.thisRepN,blocks.thisTrialN,blocks.thisN,blocks.thisIndex,blocks.ran,Money conversion,First Outcome Reported,Shown Door (First Outcome),Displayed Image (First Outcome),outcomes.thisRepN,outcomes.thisTrialN,outcomes.thisN,outcomes.thisIndex,outcomes.ran,judgments.thisRepN,judgments.thisTrialN,judgments.thisN,judgments.thisIndex,judgments.ran,freqMouse.x,freqMouse.y,freqMouse.leftButton,freqMouse.midButton,freqMouse.rightButton,freqMouse.clicked_name,trials.thisRepN,trials.thisTrialN,trials.thisN,trials.thisIndex,trials.ran,FQJ for first outcome,FQJ for second outcome,Shown Door,Displayed Image,judgBlock.thisRepN,judgBlock.thisTrialN,judgBlock.thisN,judgBlock.thisIndex,judgBlock.ran
0,resources/DR.BMP,resources/DG.BMP,resources/DP.BMP,resources/DB.BMP,resources/DBN.BMP,resources/DY.BMP,,2023-08-16_08h45.25.090,HF_wild_card,2022.2.4,Win32,144.0299582,62b722b5892044fe80d8bdcb,64d2fd46c836a06233681665,64dc7e82e8f6a3b22cc4935f,,,,,,,,,,,,,,,,,,,,,,,,,,,,,,,,,,,,,,,,,,,,,,,,,,,,,,,,,,,,,,,,
,,,,,,,,2023-08-16_08h45.25.090,HF_wild_card,2022.2.4,Win32,144.0299582,62b722b5892044fe80d8bdcb,64d2fd46c836a06233681665,64dc7e82e8f6a3b22cc4935f,0.010185185,-0.419444444,1,0,0,agree,,,,,,,,,,,,,,,,,,,,,,,,,,,,,,,,,,,,,,,,,,,,,,,,,,,,,,,,,,
,,,,,,,,2023-08-16_08h45.25.090,HF_wild_card,2022.2.4,Win32,144.0299582,62b722b5892044fe80d8bdcb,64d2fd46c836a06233681665,64dc7e82e8f6a3b22cc4935f,,,,,,,,,,,,,,,,,,,,,,,,,,,,,,,,,,,,,,,,,,,,,,,,,,,,,,,,,,,,,,,,
,,,,,,,,2023-08-16_08h45.25.090,HF_wild_card,2022.2.4,Win32,144.0299582,62b722b5892044fe80d8bdcb,64d2fd46c836a06233681665,64dc7e82e8f6a3b22cc4935f,,,,,,,sngl,resources/Empty.png,resources/DP.BMP,Door3,0.446296296,-0.062962963,1,0,0,10.0291,optionRight,70,70,1,0,0,0,0,1,,,,,,,,,,,,,,,,,,,,,,,,,,,,,,,,,,,,,,,
,,,,,,,,2023-08-16_08h45.25.090,HF_wild_card,2022.2.4,Win32,144.0299582,62b722b5892044fe80d8bdcb,64d2fd46c836a06233681665,64dc7e82e8f6a3b22cc4935f,,,,,,,decisionTrl,resources/DR.BMP,resources/DG.BMP,Door2,0.343518519,-0.025,1,0,0,4.6725,optionRight,20,90,1,1,0,1,0,1,,,,,,,,,,,,,,,,,,,,,,,,,,,,,,,,,,,,,,,
,,,,,,,,2023-08-16_08h45.25.090,HF_wild_card,2022.2.4,Win32,144.0299582,62b722b5892044fe80d8bdcb,64d2fd46c836a06233681665,64dc7e82e8f6a3b22cc4935f,,,,,,,decisionTrl,resources/DR.BMP,resources/DBN.BMP,Door1,-0.425,-0.014814815,1,0,0,2.0267,optionLeft,30,120,1,2,0,2,0,1,,,,,,,,,,,,,,,,,,,,,,,,,,,,,,,,,,,,,,,
,,,,,,,,2023-08-16_08h45.25.090,HF_wild_card,2022.2.4,Win32,144.0299582,62b722b5892044fe80d8bdcb,64d2fd46c836a06233681665,64dc7e82e8f6a3b22cc4935f,,,,,,,decisionTrl,resources/DR.BMP,resources/DG.BMP,Door1,-0.351851852,-0.028703704,1,0,0,1.6167,optionLeft,30,150,1,3,0,3,0,1,,,,,,,,,,,,,,,,,,,,,,,,,,,,,,,,,,,,,,,
,,,,,,,,2023-08-16_08h45.25.090,HF_wild_card,2022.2.4,Win32,144.0299582,62b722b5892044fe80d8bdcb,64d2fd46c836a06233681665,64dc7e82e8f6a3b22cc4935f,,,,,,,ctch,resources/DG.BMP,resources/DP.BMP,Door3,0.359259259,-0.051851852,1,0,0,1.7073,optionRight,70,220,1,4,0,4,0,1,,,,,,,,,,,,,,,,,,,,,,,,,,,,,,,,,,,,,,,
,,,,,,,,2023-08-16_08h45.25.090,HF_wild_card,2022.2.4,Win32,144.0299582,62b722b5892044fe80d8bdcb,64d2fd46c836a06233681665,64dc7e82e8f6a3b22cc4935f,,,,,,,decisionTrl,resources/DG.BMP,resources/DR.BMP,Door2,-0.348148148,-0.013888889,1,0,0,1.8881,optionLeft,20,240,1,5,0,5,0,1,,,,,,,,,,,,,,,,,,,,,,,,,,,,,,,,,,,,,,,
,,,,,,,,2023-08-16_08h45.25.090,HF_wild_card,2022.2.4,Win32,144.0299582,62b722b5892044fe80d8bdcb,64d2fd46c836a06233681665,64dc7e82e8f6a3b22cc4935f,,,,,,,decisionTrl,resources/DR.BMP,resources/DG.BMP,Door1,-0.357407407,-0.066666667,1,0,0,1.0959,optionLeft,30,270,1,6,0,6,0,1,,,,,,,,,,,,,,,,,,,,,,,,,,,,,,,,,,,,,,,
,,,,,,,,2023-08-16_08h45.25.090,HF_wild_card,2022.2.4,Win32,144.0299582,62b722b5892044fe80d8bdcb,64d2fd46c836a06233681665,64dc7e82e8f6a3b22cc4935f,,,,,,,ctch,resources/DP.BMP,resources/DG.BMP,Door2,0.380555556,-0.051851852,1,0,0,1.4298,optionRight,40,310,1,7,0,7,0,1,,,,,,,,,,,,,,,,,,,,,,,,,,,,,,,,,,,,,,,
,,,,,,,,2023-08-16_08h45.25.090,HF_wild_card,2022.2.4,Win32,144.0299582,62b722b5892044fe80d8bdcb,64d2fd46c836a06233681665,64dc7e82e8f6a3b22cc4935f,,,,,,,decisionTrl,resources/DP.BMP,resources/DB.BMP,Door4,0.391666667,-0.060185185,1,0,0,2.6934,optionRight,60,370,1,8,0,8,0,1,,,,,,,,,,,,,,,,,,,,,,,,,,,,,,,,,,,,,,,
,,,,,,,,2023-08-16_08h45.25.090,HF_wild_card,2022.2.4,Win32,144.0299582,62b722b5892044fe80d8bdcb,64d2fd46c836a06233681665,64dc7e82e8f6a3b22cc4935f,,,,,,,sngl,resources/DR.BMP,resources/Empty.png,Door1,-0.406481481,-0.049074074,1,0,0,4.615,optionLeft,30,400,1,9,0,9,0,1,,,,,,,,,,,,,,,,,,,,,,,,,,,,,,,,,,,,,,,
,,,,,,,,2023-08-16_08h45.25.090,HF_wild_card,2022.2.4,Win32,144.0299582,62b722b5892044fe80d8bdcb,64d2fd46c836a06233681665,64dc7e82e8f6a3b22cc4935f,,,,,,,decisionTrl,resources/DP.BMP,resources/DB.BMP,Door4,0.402777778,-0.011111111,1,0,0,0.9228,optionRight,60,460,1,10,0,10,0,1,,,,,,,,,,,,,,,,,,,,,,,,,,,,,,,,,,,,,,,
,,,,,,,,2023-08-16_08h45.25.090,HF_wild_card,2022.2.4,Win32,144.0299582,62b722b5892044fe80d8bdcb,64d2fd46c836a06233681665,64dc7e82e8f6a3b22cc4935f,,,,,,,ctch,resources/DG.BMP,resources/DP.BMP,Door3,0.376851852,-0.041666667,1,0,0,1.3949,optionRight,70,530,1,11,0,11,0,1,,,,,,,,,,,,,,,,,,,,,,,,,,,,,,,,,,,,,,,
,,,,,,,,2023-08-16_08h45.25.090,HF_wild_card,2022.2.4,Win32,144.0299582,62b722b5892044fe80d8bdcb,64d2fd46c836a06233681665,64dc7e82e8f6a3b22cc4935f,,,,,,,decisionTrl,resources/DB.BMP,resources/DP.BMP,Door3,0.360185185,-0.052777778,1,0,0,0.8742,optionRight,70,600,1,12,0,12,0,1,,,,,,,,,,,,,,,,,,,,,,,,,,,,,,,,,,,,,,,
,,,,,,,,2023-08-16_08h45.25.090,HF_wild_card,2022.2.4,Win32,144.0299582,62b722b5892044fe80d8bdcb,64d2fd46c836a06233681665,64dc7e82e8f6a3b22cc4935f,,,,,,,sngl,resources/DBN.BMP,resources/Empty.png,WildCard_Ex,-0.371296296,-0.003703704,1,0,0,1.0963,optionLeft,95,695,1,13,0,13,0,1,,,,,,,,,,,,,,,,,,,,,,,,,,,,,,,,,,,,,,,
,,,,,,,,2023-08-16_08h45.25.090,HF_wild_card,2022.2.4,Win32,144.0299582,62b722b5892044fe80d8bdcb,64d2fd46c836a06233681665,64dc7e82e8f6a3b22cc4935f,,,,,,,decisionTrl,resources/DB.BMP,resources/DP.BMP,Door3,0.393518519,-0.026851852,1,0,0,1.631,optionRight,70,765,1,14,0,14,0,1,,,,,,,,,,,,,,,,,,,,,,,,,,,,,,,,,,,,,,,
,,,,,,,,2023-08-16_08h45.25.090,HF_wild_card,2022.2.4,Win32,144.0299582,62b722b5892044fe80d8bdcb,64d2fd46c836a06233681665,64dc7e82e8f6a3b22cc4935f,,,,,,,ctch,resources/DR.BMP,resources/DB.BMP,Door4,0.363888889,-0.025,1,0,0,1.3183,optionRight,60,825,1,15,0,15,0,1,,,,,,,,,,,,,,,,,,,,,,,,,,,,,,,,,,,,,,,
,,,,,,,,2023-08-16_08h45.25.090,HF_wild_card,2022.2.4,Win32,144.0299582,62b722b5892044fe80d8bdcb,64d2fd46c836a06233681665,64dc7e82e8f6a3b22cc4935f,,,,,,,decisionTrl,resources/DB.BMP,resources/DP.BMP,Door3,0.384259259,-0.016666667,1,0,0,1.6672,optionRight,70,895,1,16,0,16,0,1,,,,,,,,,,,,,,,,,,,,,,,,,,,,,,,,,,,,,,,
,,,,,,,,2023-08-16_08h45.25.090,HF_wild_card,2022.2.4,Win32,144.0299582,62b722b5892044fe80d8bdcb,64d2fd46c836a06233681665,64dc7e82e8f6a3b22cc4935f,,,,,,,decisionTrl,resources/DB.BMP,resources/DBN.BMP,WildCard_Ex,0.390740741,0,1,0,0,0.9851,optionRight,5,900,1,17,0,17,0,1,,,,,,,,,,,,,,,,,,,,,,,,,,,,,,,,,,,,,,,
,,,,,,,,2023-08-16_08h45.25.090,HF_wild_card,2022.2.4,Win32,144.0299582,62b722b5892044fe80d8bdcb,64d2fd46c836a06233681665,64dc7e82e8f6a3b22cc4935f,,,,,,,decisionTrl,resources/DP.BMP,resources/DBN.BMP,WildCard_Ex,0.482407407,-0.001851852,1,0,0,1.5431,optionRight,5,905,1,18,0,18,0,1,,,,,,,,,,,,,,,,,,,,,,,,,,,,,,,,,,,,,,,
,,,,,,,,2023-08-16_08h45.25.090,HF_wild_card,2022.2.4,Win32,144.0299582,62b722b5892044fe80d8bdcb,64d2fd46c836a06233681665,64dc7e82e8f6a3b22cc4935f,,,,,,,ctch,resources/DB.BMP,resources/DR.BMP,Door4,-0.393518519,-0.009259259,1,0,0,0.8046,optionLeft,60,965,1,19,0,19,0,1,,,,,,,,,,,,,,,,,,,,,,,,,,,,,,,,,,,,,,,
,,,,,,,,2023-08-16_08h45.25.090,HF_wild_card,2022.2.4,Win32,144.0299582,62b722b5892044fe80d8bdcb,64d2fd46c836a06233681665,64dc7e82e8f6a3b22cc4935f,,,,,,,ctch,resources/DP.BMP,resources/DG.BMP,Door3,-0.37037037,-0.012962963,1,0,0,1.2654,optionLeft,70,1035,1,20,0,20,0,1,,,,,,,,,,,,,,,,,,,,,,,,,,,,,,,,,,,,,,,
,,,,,,,,2023-08-16_08h45.25.090,HF_wild_card,2022.2.4,Win32,144.0299582,62b722b5892044fe80d8bdcb,64d2fd46c836a06233681665,64dc7e82e8f6a3b22cc4935f,,,,,,,sngl,resources/Empty.png,resources/DBN.BMP,WildCard_Ex,0.344444444,-0.024074074,1,0,0,2.4346,optionRight,5,1040,1,21,0,21,0,1,,,,,,,,,,,,,,,,,,,,,,,,,,,,,,,,,,,,,,,
,,,,,,,,2023-08-16_08h45.25.090,HF_wild_card,2022.2.4,Win32,144.0299582,62b722b5892044fe80d8bdcb,64d2fd46c836a06233681665,64dc7e82e8f6a3b22cc4935f,,,,,,,decisionTrl,resources/DB.BMP,resources/DP.BMP,Door3,0.387962963,-0.069444444,1,0,0,1.652,optionRight,70,1110,1,22,0,22,0,1,,,,,,,,,,,,,,,,,,,,,,,,,,,,,,,,,,,,,,,
,,,,,,,,2023-08-16_08h45.25.090,HF_wild_card,2022.2.4,Win32,144.0299582,62b722b5892044fe80d8bdcb,64d2fd46c836a06233681665,64dc7e82e8f6a3b22cc4935f,,,,,,,ctch,resources/DR.BMP,resources/DB.BMP,Door4,0.369444444,-0.009259259,1,0,0,0.867,optionRight,60,1170,1,23,0,23,0,1,,,,,,,,,,,,,,,,,,,,,,,,,,,,,,,,,,,,,,,
,,,,,,,,2023-08-16_08h45.25.090,HF_wild_card,2022.2.4,Win32,144.0299582,62b722b5892044fe80d8bdcb,64d2fd46c836a06233681665,64dc7e82e8f6a3b22cc4935f,,,,,,,decisionTrl,resources/DBN.BMP,resources/DB.BMP,Door4,0.363888889,-0.02962963,1,0,0,1.986,optionRight,80,1250,1,24,0,24,0,1,,,,,,,,,,,,,,,,,,,,,,,,,,,,,,,,,,,,,,,
,,,,,,,,2023-08-16_08h45.25.090,HF_wild_card,2022.2.4,Win32,144.0299582,62b722b5892044fe80d8bdcb,64d2fd46c836a06233681665,64dc7e82e8f6a3b22cc4935f,,,,,,,sngl,resources/Empty.png,resources/DB.BMP,Door4,0.311111111,-0.025,1,0,0,1.263,optionRight,60,1310,1,25,0,25,0,1,,,,,,,,,,,,,,,,,,,,,,,,,,,,,,,,,,,,,,,
,,,,,,,,2023-08-16_08h45.25.090,HF_wild_card,2022.2.4,Win32,144.0299582,62b722b5892044fe80d8bdcb,64d2fd46c836a06233681665,64dc7e82e8f6a3b22cc4935f,,,,,,,sngl,resources/DBN.BMP,resources/Empty.png,WildCard_Ex,-0.39537037,-0.002777778,1,0,0,1.8672,optionLeft,5,1315,1,26,0,26,0,1,,,,,,,,,,,,,,,,,,,,,,,,,,,,,,,,,,,,,,,
,,,,,,,,2023-08-16_08h45.25.090,HF_wild_card,2022.2.4,Win32,144.0299582,62b722b5892044fe80d8bdcb,64d2fd46c836a06233681665,64dc7e82e8f6a3b22cc4935f,,,,,,,decisionTrl,resources/DBN.BMP,resources/DP.BMP,Door3,0.378703704,-0.038888889,1,0,0,1.4504,optionRight,70,1385,1,27,0,27,0,1,,,,,,,,,,,,,,,,,,,,,,,,,,,,,,,,,,,,,,,
,,,,,,,,2023-08-16_08h45.25.090,HF_wild_card,2022.2.4,Win32,144.0299582,62b722b5892044fe80d8bdcb,64d2fd46c836a06233681665,64dc7e82e8f6a3b22cc4935f,,,,,,,decisionTrl,resources/DR.BMP,resources/DG.BMP,Door1,-0.35462963,-0.012037037,1,0,0,1.7924,optionLeft,30,1415,1,28,0,28,0,1,,,,,,,,,,,,,,,,,,,,,,,,,,,,,,,,,,,,,,,
,,,,,,,,2023-08-16_08h45.25.090,HF_wild_card,2022.2.4,Win32,144.0299582,62b722b5892044fe80d8bdcb,64d2fd46c836a06233681665,64dc7e82e8f6a3b22cc4935f,,,,,,,sngl,resources/DG.BMP,resources/Empty.png,Door2,-0.311111111,0.005555556,1,0,0,1.0113,optionLeft,40,1455,1,29,0,29,0,1,,,,,,,,,,,,,,,,,,,,,,,,,,,,,,,,,,,,,,,
,,,,,,,,2023-08-16_08h45.25.090,HF_wild_card,2022.2.4,Win32,144.0299582,62b722b5892044fe80d8bdcb,64d2fd46c836a06233681665,64dc7e82e8f6a3b22cc4935f,,,,,,,sngl,resources/DB.BMP,resources/Empty.png,Door4,-0.289814815,-0.008333333,1,0,0,1.2509,optionLeft,80,1535,1,30,0,30,0,1,,,,,,,,,,,,,,,,,,,,,,,,,,,,,,,,,,,,,,,
,,,,,,,,2023-08-16_08h45.25.090,HF_wild_card,2022.2.4,Win32,144.0299582,62b722b5892044fe80d8bdcb,64d2fd46c836a06233681665,64dc7e82e8f6a3b22cc4935f,,,,,,,sngl,resources/DP.BMP,resources/Empty.png,Door3,-0.360185185,-0.014814815,1,0,0,1.0685,optionLeft,70,1605,1,31,0,31,0,1,,,,,,,,,,,,,,,,,,,,,,,,,,,,,,,,,,,,,,,
,,,,,,,,2023-08-16_08h45.25.090,HF_wild_card,2022.2.4,Win32,144.0299582,62b722b5892044fe80d8bdcb,64d2fd46c836a06233681665,64dc7e82e8f6a3b22cc4935f,,,,,,,decisionTrl,resources/DG.BMP,resources/DBN.BMP,Door2,-0.360185185,-0.023148148,1,0,0,1.346,optionLeft,40,1645,1,32,0,32,0,1,,,,,,,,,,,,,,,,,,,,,,,,,,,,,,,,,,,,,,,
,,,,,,,,2023-08-16_08h45.25.090,HF_wild_card,2022.2.4,Win32,144.0299582,62b722b5892044fe80d8bdcb,64d2fd46c836a06233681665,64dc7e82e8f6a3b22cc4935f,,,,,,,decisionTrl,resources/DBN.BMP,resources/DR.BMP,Door1,0.411111111,-0.062962963,1,0,0,1.3695,optionRight,30,1675,1,33,0,33,0,1,,,,,,,,,,,,,,,,,,,,,,,,,,,,,,,,,,,,,,,
,,,,,,,,2023-08-16_08h45.25.090,HF_wild_card,2022.2.4,Win32,144.0299582,62b722b5892044fe80d8bdcb,64d2fd46c836a06233681665,64dc7e82e8f6a3b22cc4935f,,,,,,,ctch,resources/DB.BMP,resources/DR.BMP,Door1,0.374074074,-0.040740741,1,0,0,1.7422,optionRight,30,1705,1,34,0,34,0,1,,,,,,,,,,,,,,,,,,,,,,,,,,,,,,,,,,,,,,,
,,,,,,,,2023-08-16_08h45.25.090,HF_wild_card,2022.2.4,Win32,144.0299582,62b722b5892044fe80d8bdcb,64d2fd46c836a06233681665,64dc7e82e8f6a3b22cc4935f,,,,,,,decisionTrl,resources/DG.BMP,resources/DR.BMP,Door2,-0.334259259,-0.021296296,1,0,0,0.7073,optionLeft,20,1725,1,35,0,35,0,1,,,,,,,,,,,,,,,,,,,,,,,,,,,,,,,,,,,,,,,
,,,,,,,,2023-08-16_08h45.25.090,HF_wild_card,2022.2.4,Win32,144.0299582,62b722b5892044fe80d8bdcb,64d2fd46c836a06233681665,64dc7e82e8f6a3b22cc4935f,,,,,,,decisionTrl,resources/DG.BMP,resources/DR.BMP,Door1,0.305555556,-0.044444444,1,0,0,1.0479,optionRight,30,1755,1,36,0,36,0,1,,,,,,,,,,,,,,,,,,,,,,,,,,,,,,,,,,,,,,,
,,,,,,,,2023-08-16_08h45.25.090,HF_wild_card,2022.2.4,Win32,144.0299582,62b722b5892044fe80d8bdcb,64d2fd46c836a06233681665,64dc7e82e8f6a3b22cc4935f,,,,,,,decisionTrl,resources/DP.BMP,resources/DB.BMP,Door3,-0.361111111,-0.051851852,1,0,0,1.4504,optionLeft,70,1825,1,37,0,37,0,1,,,,,,,,,,,,,,,,,,,,,,,,,,,,,,,,,,,,,,,
,,,,,,,,2023-08-16_08h45.25.090,HF_wild_card,2022.2.4,Win32,144.0299582,62b722b5892044fe80d8bdcb,64d2fd46c836a06233681665,64dc7e82e8f6a3b22cc4935f,,,,,,,decisionTrl,resources/DBN.BMP,resources/DG.BMP,Door2,0.353703704,-0.043518519,1,0,0,1.5615,optionRight,20,1845,1,38,0,38,0,1,,,,,,,,,,,,,,,,,,,,,,,,,,,,,,,,,,,,,,,
,,,,,,,,2023-08-16_08h45.25.090,HF_wild_card,2022.2.4,Win32,144.0299582,62b722b5892044fe80d8bdcb,64d2fd46c836a06233681665,64dc7e82e8f6a3b22cc4935f,,,,,,,sngl,resources/Empty.png,resources/DR.BMP,Door1,0.261111111,-0.031481481,1,0,0,1.1864,optionRight,30,1875,1,39,0,39,0,1,,,,,,,,,,,,,,,,,,,,,,,,,,,,,,,,,,,,,,,
,,,,,,,,2023-08-16_08h45.25.090,HF_wild_card,2022.2.4,Win32,144.0299582,62b722b5892044fe80d8bdcb,64d2fd46c836a06233681665,64dc7e82e8f6a3b22cc4935f,,,,,,,sngl,resources/Empty.png,resources/DBN.BMP,WildCard_Ex,0.337037037,-0.008333333,1,0,0,1.3416,optionRight,95,1970,1,40,0,40,0,1,,,,,,,,,,,,,,,,,,,,,,,,,,,,,,,,,,,,,,,
,,,,,,,,2023-08-16_08h45.25.090,HF_wild_card,2022.2.4,Win32,144.0299582,62b722b5892044fe80d8bdcb,64d2fd46c836a06233681665,64dc7e82e8f6a3b22cc4935f,,,,,,,decisionTrl,resources/DG.BMP,resources/DR.BMP,Door1,0.365740741,-0.044444444,1,0,0,1.7349,optionRight,30,2000,1,41,0,41,0,1,,,,,,,,,,,,,,,,,,,,,,,,,,,,,,,,,,,,,,,
,,,,,,,,2023-08-16_08h45.25.090,HF_wild_card,2022.2.4,Win32,144.0299582,62b722b5892044fe80d8bdcb,64d2fd46c836a06233681665,64dc7e82e8f6a3b22cc4935f,,,,,,,sngl,resources/Empty.png,resources/DG.BMP,Door2,0.37037037,-0.002777778,1,0,0,0.9828,optionRight,20,2020,1,42,0,42,0,1,,,,,,,,,,,,,,,,,,,,,,,,,,,,,,,,,,,,,,,
,,,,,,,,2023-08-16_08h45.25.090,HF_wild_card,2022.2.4,Win32,144.0299582,62b722b5892044fe80d8bdcb,64d2fd46c836a06233681665,64dc7e82e8f6a3b22cc4935f,,,,,,,decisionTrl,resources/DP.BMP,resources/DB.BMP,Door3,-0.391666667,-0.02962963,1,0,0,1.3192,optionLeft,70,2090,1,43,0,43,0,1,,,,,,,,,,,,,,,,,,,,,,,,,,,,,,,,,,,,,,,
,,,,,,,,2023-08-16_08h45.25.090,HF_wild_card,2022.2.4,Win32,144.0299582,62b722b5892044fe80d8bdcb,64d2fd46c836a06233681665,64dc7e82e8f6a3b22cc4935f,,,,,,,,,,,,,,,,,,,,,,,,,,0,0,0,0,1,,,,,,,,,,,,,,,,,,,,,,,,,,,,,,,,,,
,,,,,,,,2023-08-16_08h45.25.090,HF_wild_card,2022.2.4,Win32,144.0299582,62b722b5892044fe80d8bdcb,64d2fd46c836a06233681665,64dc7e82e8f6a3b22cc4935f,,,,,,,decisionTrl,resources/DR.BMP,resources/DBN.BMP,Door1,-0.369444444,-0.043518519,1,0,0,1.1312,optionLeft,30,2120,2,0,0,0,0,1,,,,,,,,,,,,,,,,,,,,,,,,,,,,,,,,,,,,,,,
,,,,,,,,2023-08-16_08h45.25.090,HF_wild_card,2022.2.4,Win32,144.0299582,62b722b5892044fe80d8bdcb,64d2fd46c836a06233681665,64dc7e82e8f6a3b22cc4935f,,,,,,,sngl,resources/DP.BMP,resources/Empty.png,Door3,-0.317592593,-0.07037037,1,0,0,1.0083,optionLeft,70,2190,2,1,0,1,0,1,,,,,,,,,,,,,,,,,,,,,,,,,,,,,,,,,,,,,,,
,,,,,,,,2023-08-16_08h45.25.090,HF_wild_card,2022.2.4,Win32,144.0299582,62b722b5892044fe80d8bdcb,64d2fd46c836a06233681665,64dc7e82e8f6a3b22cc4935f,,,,,,,ctch,resources/DP.BMP,resources/DG.BMP,Door3,-0.308333333,-0.052777778,1,0,0,1.9875,optionLeft,70,2260,2,2,0,2,0,1,,,,,,,,,,,,,,,,,,,,,,,,,,,,,,,,,,,,,,,
,,,,,,,,2023-08-16_08h45.25.090,HF_wild_card,2022.2.4,Win32,144.0299582,62b722b5892044fe80d8bdcb,64d2fd46c836a06233681665,64dc7e82e8f6a3b22cc4935f,,,,,,,ctch,resources/DB.BMP,resources/DR.BMP,Door4,-0.32962963,-0.064814815,1,0,0,2.1544,optionLeft,80,2340,2,3,0,3,0,1,,,,,,,,,,,,,,,,,,,,,,,,,,,,,,,,,,,,,,,
,,,,,,,,2023-08-16_08h45.25.090,HF_wild_card,2022.2.4,Win32,144.0299582,62b722b5892044fe80d8bdcb,64d2fd46c836a06233681665,64dc7e82e8f6a3b22cc4935f,,,,,,,sngl,resources/Empty.png,resources/DB.BMP,Door4,0.280555556,-0.033333333,1,0,0,0.9312,optionRight,80,2420,2,4,0,4,0,1,,,,,,,,,,,,,,,,,,,,,,,,,,,,,,,,,,,,,,,
,,,,,,,,2023-08-16_08h45.25.090,HF_wild_card,2022.2.4,Win32,144.0299582,62b722b5892044fe80d8bdcb,64d2fd46c836a06233681665,64dc7e82e8f6a3b22cc4935f,,,,,,,decisionTrl,resources/DBN.BMP,resources/DB.BMP,Door4,0.325925926,-0.053703704,1,0,0,1.1641,optionRight,60,2480,2,5,0,5,0,1,,,,,,,,,,,,,,,,,,,,,,,,,,,,,,,,,,,,,,,
,,,,,,,,2023-08-16_08h45.25.090,HF_wild_card,2022.2.4,Win32,144.0299582,62b722b5892044fe80d8bdcb,64d2fd46c836a06233681665,64dc7e82e8f6a3b22cc4935f,,,,,,,decisionTrl,resources/DP.BMP,resources/DB.BMP,Door4,0.35462963,-0.040740741,1,0,0,1.3255,optionRight,80,2560,2,6,0,6,0,1,,,,,,,,,,,,,,,,,,,,,,,,,,,,,,,,,,,,,,,
,,,,,,,,2023-08-16_08h45.25.090,HF_wild_card,2022.2.4,Win32,144.0299582,62b722b5892044fe80d8bdcb,64d2fd46c836a06233681665,64dc7e82e8f6a3b22cc4935f,,,,,,,decisionTrl,resources/DR.BMP,resources/DG.BMP,Door2,0.368518519,-0.014814815,1,0,0,2.0062,optionRight,20,2580,2,7,0,7,0,1,,,,,,,,,,,,,,,,,,,,,,,,,,,,,,,,,,,,,,,
,,,,,,,,2023-08-16_08h45.25.090,HF_wild_card,2022.2.4,Win32,144.0299582,62b722b5892044fe80d8bdcb,64d2fd46c836a06233681665,64dc7e82e8f6a3b22cc4935f,,,,,,,ctch,resources/DR.BMP,resources/DB.BMP,Door4,0.397222222,-0.032407407,1,0,0,1.2489,optionRight,80,2660,2,8,0,8,0,1,,,,,,,,,,,,,,,,,,,,,,,,,,,,,,,,,,,,,,,
,,,,,,,,2023-08-16_08h45.25.090,HF_wild_card,2022.2.4,Win32,144.0299582,62b722b5892044fe80d8bdcb,64d2fd46c836a06233681665,64dc7e82e8f6a3b22cc4935f,,,,,,,ctch,resources/DB.BMP,resources/DR.BMP,Door4,-0.387962963,-0.04537037,1,0,0,0.8764,optionLeft,60,2720,2,9,0,9,0,1,,,,,,,,,,,,,,,,,,,,,,,,,,,,,,,,,,,,,,,
,,,,,,,,2023-08-16_08h45.25.090,HF_wild_card,2022.2.4,Win32,144.0299582,62b722b5892044fe80d8bdcb,64d2fd46c836a06233681665,64dc7e82e8f6a3b22cc4935f,,,,,,,decisionTrl,resources/DR.BMP,resources/DG.BMP,Door2,0.347222222,-0.027777778,1,0,0,1.2561,optionRight,20,2740,2,10,0,10,0,1,,,,,,,,,,,,,,,,,,,,,,,,,,,,,,,,,,,,,,,
,,,,,,,,2023-08-16_08h45.25.090,HF_wild_card,2022.2.4,Win32,144.0299582,62b722b5892044fe80d8bdcb,64d2fd46c836a06233681665,64dc7e82e8f6a3b22cc4935f,,,,,,,sngl,resources/DBN.BMP,resources/Empty.png,WildCard_Ex,-0.299074074,-0.025925926,1,0,0,1.1864,optionLeft,5,2745,2,11,0,11,0,1,,,,,,,,,,,,,,,,,,,,,,,,,,,,,,,,,,,,,,,
,,,,,,,,2023-08-16_08h45.25.090,HF_wild_card,2022.2.4,Win32,144.0299582,62b722b5892044fe80d8bdcb,64d2fd46c836a06233681665,64dc7e82e8f6a3b22cc4935f,,,,,,,sngl,resources/Empty.png,resources/DG.BMP,Door2,0.342592593,-0.025,1,0,0,0.8392,optionRight,40,2785,2,12,0,12,0,1,,,,,,,,,,,,,,,,,,,,,,,,,,,,,,,,,,,,,,,
,,,,,,,,2023-08-16_08h45.25.090,HF_wild_card,2022.2.4,Win32,144.0299582,62b722b5892044fe80d8bdcb,64d2fd46c836a06233681665,64dc7e82e8f6a3b22cc4935f,,,,,,,decisionTrl,resources/DP.BMP,resources/DB.BMP,Door4,0.336111111,-0.033333333,1,0,0,1.8511,optionRight,60,2845,2,13,0,13,0,1,,,,,,,,,,,,,,,,,,,,,,,,,,,,,,,,,,,,,,,
,,,,,,,,2023-08-16_08h45.25.090,HF_wild_card,2022.2.4,Win32,144.0299582,62b722b5892044fe80d8bdcb,64d2fd46c836a06233681665,64dc7e82e8f6a3b22cc4935f,,,,,,,decisionTrl,resources/DB.BMP,resources/DP.BMP,Door4,-0.337037037,-0.011111111,1,0,0,1.2839,optionLeft,60,2905,2,14,0,14,0,1,,,,,,,,,,,,,,,,,,,,,,,,,,,,,,,,,,,,,,,
,,,,,,,,2023-08-16_08h45.25.090,HF_wild_card,2022.2.4,Win32,144.0299582,62b722b5892044fe80d8bdcb,64d2fd46c836a06233681665,64dc7e82e8f6a3b22cc4935f,,,,,,,decisionTrl,resources/DG.BMP,resources/DR.BMP,Door2,-0.290740741,-0.043518519,1,0,0,2.3396,optionLeft,40,2945,2,15,0,15,0,1,,,,,,,,,,,,,,,,,,,,,,,,,,,,,,,,,,,,,,,
,,,,,,,,2023-08-16_08h45.25.090,HF_wild_card,2022.2.4,Win32,144.0299582,62b722b5892044fe80d8bdcb,64d2fd46c836a06233681665,64dc7e82e8f6a3b22cc4935f,,,,,,,sngl,resources/DR.BMP,resources/Empty.png,Door1,-0.348148148,-0.060185185,1,0,0,1.2442,optionLeft,30,2975,2,16,0,16,0,1,,,,,,,,,,,,,,,,,,,,,,,,,,,,,,,,,,,,,,,
,,,,,,,,2023-08-16_08h45.25.090,HF_wild_card,2022.2.4,Win32,144.0299582,62b722b5892044fe80d8bdcb,64d2fd46c836a06233681665,64dc7e82e8f6a3b22cc4935f,,,,,,,sngl,resources/Empty.png,resources/DR.BMP,Door1,0.305555556,-0.019444444,1,0,0,1.0546,optionRight,30,3005,2,17,0,17,0,1,,,,,,,,,,,,,,,,,,,,,,,,,,,,,,,,,,,,,,,
,,,,,,,,2023-08-16_08h45.25.090,HF_wild_card,2022.2.4,Win32,144.0299582,62b722b5892044fe80d8bdcb,64d2fd46c836a06233681665,64dc7e82e8f6a3b22cc4935f,,,,,,,ctch,resources/DG.BMP,resources/DP.BMP,Door3,0.34537037,-0.05462963,1,0,0,1.9782,optionRight,70,3075,2,18,0,18,0,1,,,,,,,,,,,,,,,,,,,,,,,,,,,,,,,,,,,,,,,
,,,,,,,,2023-08-16_08h45.25.090,HF_wild_card,2022.2.4,Win32,144.0299582,62b722b5892044fe80d8bdcb,64d2fd46c836a06233681665,64dc7e82e8f6a3b22cc4935f,,,,,,,decisionTrl,resources/DB.BMP,resources/DP.BMP,Door3,0.347222222,-0.037962963,1,0,0,1.0354,optionRight,70,3145,2,19,0,19,0,1,,,,,,,,,,,,,,,,,,,,,,,,,,,,,,,,,,,,,,,
,,,,,,,,2023-08-16_08h45.25.090,HF_wild_card,2022.2.4,Win32,144.0299582,62b722b5892044fe80d8bdcb,64d2fd46c836a06233681665,64dc7e82e8f6a3b22cc4935f,,,,,,,decisionTrl,resources/DG.BMP,resources/DR.BMP,Door2,-0.322222222,-0.034259259,1,0,0,1.4297,optionLeft,40,3185,2,20,0,20,0,1,,,,,,,,,,,,,,,,,,,,,,,,,,,,,,,,,,,,,,,
,,,,,,,,2023-08-16_08h45.25.090,HF_wild_card,2022.2.4,Win32,144.0299582,62b722b5892044fe80d8bdcb,64d2fd46c836a06233681665,64dc7e82e8f6a3b22cc4935f,,,,,,,sngl,resources/Empty.png,resources/DP.BMP,Door3,0.364814815,-0.024074074,1,0,0,1.4922,optionRight,70,3255,2,21,0,21,0,1,,,,,,,,,,,,,,,,,,,,,,,,,,,,,,,,,,,,,,,
,,,,,,,,2023-08-16_08h45.25.090,HF_wild_card,2022.2.4,Win32,144.0299582,62b722b5892044fe80d8bdcb,64d2fd46c836a06233681665,64dc7e82e8f6a3b22cc4935f,,,,,,,decisionTrl,resources/DB.BMP,resources/DP.BMP,Door4,-0.277777778,-0.010185185,1,0,0,1.6172,optionLeft,80,3335,2,22,0,22,0,1,,,,,,,,,,,,,,,,,,,,,,,,,,,,,,,,,,,,,,,
,,,,,,,,2023-08-16_08h45.25.090,HF_wild_card,2022.2.4,Win32,144.0299582,62b722b5892044fe80d8bdcb,64d2fd46c836a06233681665,64dc7e82e8f6a3b22cc4935f,,,,,,,sngl,resources/DBN.BMP,resources/Empty.png,WildCard_Ex,-0.32037037,-0.014814815,1,0,0,1.4414,optionLeft,95,3430,2,23,0,23,0,1,,,,,,,,,,,,,,,,,,,,,,,,,,,,,,,,,,,,,,,
,,,,,,,,2023-08-16_08h45.25.090,HF_wild_card,2022.2.4,Win32,144.0299582,62b722b5892044fe80d8bdcb,64d2fd46c836a06233681665,64dc7e82e8f6a3b22cc4935f,,,,,,,sngl,resources/DB.BMP,resources/Empty.png,Door4,-0.407407407,-0.016666667,1,0,0,0.9365,optionLeft,60,3490,2,24,0,24,0,1,,,,,,,,,,,,,,,,,,,,,,,,,,,,,,,,,,,,,,,
,,,,,,,,2023-08-16_08h45.25.090,HF_wild_card,2022.2.4,Win32,144.0299582,62b722b5892044fe80d8bdcb,64d2fd46c836a06233681665,64dc7e82e8f6a3b22cc4935f,,,,,,,sngl,resources/Empty.png,resources/DBN.BMP,WildCard_Ex,0.286111111,-0.010185185,1,0,0,0.9574,optionRight,5,3495,2,25,0,25,0,1,,,,,,,,,,,,,,,,,,,,,,,,,,,,,,,,,,,,,,,
,,,,,,,,2023-08-16_08h45.25.090,HF_wild_card,2022.2.4,Win32,144.0299582,62b722b5892044fe80d8bdcb,64d2fd46c836a06233681665,64dc7e82e8f6a3b22cc4935f,,,,,,,decisionTrl,resources/DG.BMP,resources/DR.BMP,Door2,-0.331481481,-0.023148148,1,0,0,1.221,optionLeft,40,3535,2,26,0,26,0,1,,,,,,,,,,,,,,,,,,,,,,,,,,,,,,,,,,,,,,,
,,,,,,,,2023-08-16_08h45.25.090,HF_wild_card,2022.2.4,Win32,144.0299582,62b722b5892044fe80d8bdcb,64d2fd46c836a06233681665,64dc7e82e8f6a3b22cc4935f,,,,,,,decisionTrl,resources/DR.BMP,resources/DG.BMP,Door2,0.37962963,-0.019444444,1,0,0,1.1516,optionRight,20,3555,2,27,0,27,0,1,,,,,,,,,,,,,,,,,,,,,,,,,,,,,,,,,,,,,,,
,,,,,,,,2023-08-16_08h45.25.090,HF_wild_card,2022.2.4,Win32,144.0299582,62b722b5892044fe80d8bdcb,64d2fd46c836a06233681665,64dc7e82e8f6a3b22cc4935f,,,,,,,decisionTrl,resources/DB.BMP,resources/DP.BMP,Door4,-0.328703704,-0.025,1,0,0,1.4181,optionLeft,80,3635,2,28,0,28,0,1,,,,,,,,,,,,,,,,,,,,,,,,,,,,,,,,,,,,,,,
,,,,,,,,2023-08-16_08h45.25.090,HF_wild_card,2022.2.4,Win32,144.0299582,62b722b5892044fe80d8bdcb,64d2fd46c836a06233681665,64dc7e82e8f6a3b22cc4935f,,,,,,,decisionTrl,resources/DG.BMP,resources/DBN.BMP,Door2,-0.325,-0.026851852,1,0,0,1.1727,optionLeft,40,3675,2,29,0,29,0,1,,,,,,,,,,,,,,,,,,,,,,,,,,,,,,,,,,,,,,,
,,,,,,,,2023-08-16_08h45.25.090,HF_wild_card,2022.2.4,Win32,144.0299582,62b722b5892044fe80d8bdcb,64d2fd46c836a06233681665,64dc7e82e8f6a3b22cc4935f,,,,,,,sngl,resources/Empty.png,resources/DBN.BMP,WildCard_Ex,0.27962963,-0.014814815,1,0,0,1.1241,optionRight,95,3770,2,30,0,30,0,1,,,,,,,,,,,,,,,,,,,,,,,,,,,,,,,,,,,,,,,
,,,,,,,,2023-08-16_08h45.25.090,HF_wild_card,2022.2.4,Win32,144.0299582,62b722b5892044fe80d8bdcb,64d2fd46c836a06233681665,64dc7e82e8f6a3b22cc4935f,,,,,,,decisionTrl,resources/DP.BMP,resources/DB.BMP,Door4,0.391666667,-0.02037037,1,0,0,1.0616,optionRight,60,3830,2,31,0,31,0,1,,,,,,,,,,,,,,,,,,,,,,,,,,,,,,,,,,,,,,,
,,,,,,,,2023-08-16_08h45.25.090,HF_wild_card,2022.2.4,Win32,144.0299582,62b722b5892044fe80d8bdcb,64d2fd46c836a06233681665,64dc7e82e8f6a3b22cc4935f,,,,,,,sngl,resources/DG.BMP,resources/Empty.png,Door2,-0.313888889,0.001851852,1,0,0,1.7474,optionLeft,20,3850,2,32,0,32,0,1,,,,,,,,,,,,,,,,,,,,,,,,,,,,,,,,,,,,,,,
,,,,,,,,2023-08-16_08h45.25.090,HF_wild_card,2022.2.4,Win32,144.0299582,62b722b5892044fe80d8bdcb,64d2fd46c836a06233681665,64dc7e82e8f6a3b22cc4935f,,,,,,,decisionTrl,resources/DBN.BMP,resources/DR.BMP,WildCard_Ex,-0.269444444,0.005555556,1,0,0,1.7006,optionLeft,5,3855,2,33,0,33,0,1,,,,,,,,,,,,,,,,,,,,,,,,,,,,,,,,,,,,,,,
,,,,,,,,2023-08-16_08h45.25.090,HF_wild_card,2022.2.4,Win32,144.0299582,62b722b5892044fe80d8bdcb,64d2fd46c836a06233681665,64dc7e82e8f6a3b22cc4935f,,,,,,,decisionTrl,resources/DP.BMP,resources/DB.BMP,Door4,0.337962963,-0.02962963,1,0,0,1.5198,optionRight,80,3935,2,34,0,34,0,1,,,,,,,,,,,,,,,,,,,,,,,,,,,,,,,,,,,,,,,
,,,,,,,,2023-08-16_08h45.25.090,HF_wild_card,2022.2.4,Win32,144.0299582,62b722b5892044fe80d8bdcb,64d2fd46c836a06233681665,64dc7e82e8f6a3b22cc4935f,,,,,,,decisionTrl,resources/DR.BMP,resources/DG.BMP,Door2,0.325925926,-0.025925926,1,0,0,1.374,optionRight,20,3955,2,35,0,35,0,1,,,,,,,,,,,,,,,,,,,,,,,,,,,,,,,,,,,,,,,
,,,,,,,,2023-08-16_08h45.25.090,HF_wild_card,2022.2.4,Win32,144.0299582,62b722b5892044fe80d8bdcb,64d2fd46c836a06233681665,64dc7e82e8f6a3b22cc4935f,,,,,,,ctch,resources/DP.BMP,resources/DG.BMP,Door3,-0.315740741,-0.003703704,1,0,0,1.4483,optionLeft,70,4025,2,36,0,36,0,1,,,,,,,,,,,,,,,,,,,,,,,,,,,,,,,,,,,,,,,
,,,,,,,,2023-08-16_08h45.25.090,HF_wild_card,2022.2.4,Win32,144.0299582,62b722b5892044fe80d8bdcb,64d2fd46c836a06233681665,64dc7e82e8f6a3b22cc4935f,,,,,,,decisionTrl,resources/DB.BMP,resources/DBN.BMP,Door4,-0.385185185,-0.027777778,1,0,0,1.4505,optionLeft,60,4085,2,37,0,37,0,1,,,,,,,,,,,,,,,,,,,,,,,,,,,,,,,,,,,,,,,
,,,,,,,,2023-08-16_08h45.25.090,HF_wild_card,2022.2.4,Win32,144.0299582,62b722b5892044fe80d8bdcb,64d2fd46c836a06233681665,64dc7e82e8f6a3b22cc4935f,,,,,,,decisionTrl,resources/DBN.BMP,resources/DG.BMP,Door2,0.408333333,-0.003703704,1,0,0,1.2903,optionRight,40,4125,2,38,0,38,0,1,,,,,,,,,,,,,,,,,,,,,,,,,,,,,,,,,,,,,,,
,,,,,,,,2023-08-16_08h45.25.090,HF_wild_card,2022.2.4,Win32,144.0299582,62b722b5892044fe80d8bdcb,64d2fd46c836a06233681665,64dc7e82e8f6a3b22cc4935f,,,,,,,ctch,resources/DG.BMP,resources/DP.BMP,Door3,0.398148148,-0.04537037,1,0,0,1.6936,optionRight,70,4195,2,39,0,39,0,1,,,,,,,,,,,,,,,,,,,,,,,,,,,,,,,,,,,,,,,
,,,,,,,,2023-08-16_08h45.25.090,HF_wild_card,2022.2.4,Win32,144.0299582,62b722b5892044fe80d8bdcb,64d2fd46c836a06233681665,64dc7e82e8f6a3b22cc4935f,,,,,,,decisionTrl,resources/DBN.BMP,resources/DP.BMP,Door3,0.369444444,-0.050925926,1,0,0,1.2128,optionRight,70,4265,2,40,0,40,0,1,,,,,,,,,,,,,,,,,,,,,,,,,,,,,,,,,,,,,,,
,,,,,,,,2023-08-16_08h45.25.090,HF_wild_card,2022.2.4,Win32,144.0299582,62b722b5892044fe80d8bdcb,64d2fd46c836a06233681665,64dc7e82e8f6a3b22cc4935f,,,,,,,ctch,resources/DR.BMP,resources/DB.BMP,Door4,0.362962963,-0.030555556,1,0,0,1.4901,optionRight,80,4345,2,41,0,41,0,1,,,,,,,,,,,,,,,,,,,,,,,,,,,,,,,,,,,,,,,
,,,,,,,,2023-08-16_08h45.25.090,HF_wild_card,2022.2.4,Win32,144.0299582,62b722b5892044fe80d8bdcb,64d2fd46c836a06233681665,64dc7e82e8f6a3b22cc4935f,,,,,,,decisionTrl,resources/DG.BMP,resources/DR.BMP,Door2,-0.365740741,-0.017592593,1,0,0,1.0042,optionLeft,40,4385,2,42,0,42,0,1,,,,,,,,,,,,,,,,,,,,,,,,,,,,,,,,,,,,,,,
,,,,,,,,2023-08-16_08h45.25.090,HF_wild_card,2022.2.4,Win32,144.0299582,62b722b5892044fe80d8bdcb,64d2fd46c836a06233681665,64dc7e82e8f6a3b22cc4935f,,,,,,,decisionTrl,resources/DP.BMP,resources/DBN.BMP,Door3,-0.32037037,-0.052777778,1,0,0,1.1241,optionLeft,70,4455,2,43,0,43,0,1,,,,,,,,,,,,,,,,,,,,,,,,,,,,,,,,,,,,,,,
,,,,,,,,2023-08-16_08h45.25.090,HF_wild_card,2022.2.4,Win32,144.0299582,62b722b5892044fe80d8bdcb,64d2fd46c836a06233681665,64dc7e82e8f6a3b22cc4935f,,,,,,,,,,,,,,,,,,,,,,,,,,1,0,1,0,1,,,,,,,,,,,,,,,,,,,,,,,,,,,,,,,,,,
,,,,,,,,2023-08-16_08h45.25.090,HF_wild_card,2022.2.4,Win32,144.0299582,62b722b5892044fe80d8bdcb,64d2fd46c836a06233681665,64dc7e82e8f6a3b22cc4935f,,,,,,,decisionTrl,resources/DP.BMP,resources/DB.BMP,Door4,0.369444444,-0.067592593,1,0,0,1.1813,optionRight,80,4535,3,0,0,0,0,1,,,,,,,,,,,,,,,,,,,,,,,,,,,,,,,,,,,,,,,
,,,,,,,,2023-08-16_08h45.25.090,HF_wild_card,2022.2.4,Win32,144.0299582,62b722b5892044fe80d8bdcb,64d2fd46c836a06233681665,64dc7e82e8f6a3b22cc4935f,,,,,,,ctch,resources/DR.BMP,resources/DB.BMP,Door4,0.360185185,-0.028703704,1,0,0,1.131,optionRight,80,4615,3,1,0,1,0,1,,,,,,,,,,,,,,,,,,,,,,,,,,,,,,,,,,,,,,,
,,,,,,,,2023-08-16_08h45.25.090,HF_wild_card,2022.2.4,Win32,144.0299582,62b722b5892044fe80d8bdcb,64d2fd46c836a06233681665,64dc7e82e8f6a3b22cc4935f,,,,,,,decisionTrl,resources/DBN.BMP,resources/DG.BMP,Door2,0.375,0.003703704,1,0,0,1.5685,optionRight,40,4655,3,2,0,2,0,1,,,,,,,,,,,,,,,,,,,,,,,,,,,,,,,,,,,,,,,
,,,,,,,,2023-08-16_08h45.25.090,HF_wild_card,2022.2.4,Win32,144.0299582,62b722b5892044fe80d8bdcb,64d2fd46c836a06233681665,64dc7e82e8f6a3b22cc4935f,,,,,,,decisionTrl,resources/DP.BMP,resources/DB.BMP,Door4,0.376851852,-0.011111111,1,0,0,0.9782,optionRight,80,4735,3,3,0,3,0,1,,,,,,,,,,,,,,,,,,,,,,,,,,,,,,,,,,,,,,,
,,,,,,,,2023-08-16_08h45.25.090,HF_wild_card,2022.2.4,Win32,144.0299582,62b722b5892044fe80d8bdcb,64d2fd46c836a06233681665,64dc7e82e8f6a3b22cc4935f,,,,,,,decisionTrl,resources/DBN.BMP,resources/DP.BMP,Door3,0.378703704,-0.025,1,0,0,1.2492,optionRight,70,4805,3,4,0,4,0,1,,,,,,,,,,,,,,,,,,,,,,,,,,,,,,,,,,,,,,,
,,,,,,,,2023-08-16_08h45.25.090,HF_wild_card,2022.2.4,Win32,144.0299582,62b722b5892044fe80d8bdcb,64d2fd46c836a06233681665,64dc7e82e8f6a3b22cc4935f,,,,,,,ctch,resources/DP.BMP,resources/DG.BMP,Door3,-0.387962963,-0.010185185,1,0,0,0.8672,optionLeft,70,4875,3,5,0,5,0,1,,,,,,,,,,,,,,,,,,,,,,,,,,,,,,,,,,,,,,,
,,,,,,,,2023-08-16_08h45.25.090,HF_wild_card,2022.2.4,Win32,144.0299582,62b722b5892044fe80d8bdcb,64d2fd46c836a06233681665,64dc7e82e8f6a3b22cc4935f,,,,,,,decisionTrl,resources/DP.BMP,resources/DB.BMP,Door4,0.392592593,-0.005555556,1,0,0,1.7562,optionRight,80,4955,3,6,0,6,0,1,,,,,,,,,,,,,,,,,,,,,,,,,,,,,,,,,,,,,,,
,,,,,,,,2023-08-16_08h45.25.090,HF_wild_card,2022.2.4,Win32,144.0299582,62b722b5892044fe80d8bdcb,64d2fd46c836a06233681665,64dc7e82e8f6a3b22cc4935f,,,,,,,decisionTrl,resources/DG.BMP,resources/DR.BMP,Door2,-0.314814815,-0.012962963,1,0,0,1.8604,optionLeft,40,4995,3,7,0,7,0,1,,,,,,,,,,,,,,,,,,,,,,,,,,,,,,,,,,,,,,,
,,,,,,,,2023-08-16_08h45.25.090,HF_wild_card,2022.2.4,Win32,144.0299582,62b722b5892044fe80d8bdcb,64d2fd46c836a06233681665,64dc7e82e8f6a3b22cc4935f,,,,,,,decisionTrl,resources/DP.BMP,resources/DBN.BMP,Door3,-0.356481481,-0.033333333,1,0,0,1.4012,optionLeft,70,5065,3,8,0,8,0,1,,,,,,,,,,,,,,,,,,,,,,,,,,,,,,,,,,,,,,,
,,,,,,,,2023-08-16_08h45.25.090,HF_wild_card,2022.2.4,Win32,144.0299582,62b722b5892044fe80d8bdcb,64d2fd46c836a06233681665,64dc7e82e8f6a3b22cc4935f,,,,,,,sngl,resources/Empty.png,resources/DBN.BMP,WildCard_Ex,0.362037037,0.003703704,1,0,0,1.4621,optionRight,95,5160,3,9,0,9,0,1,,,,,,,,,,,,,,,,,,,,,,,,,,,,,,,,,,,,,,,
,,,,,,,,2023-08-16_08h45.25.090,HF_wild_card,2022.2.4,Win32,144.0299582,62b722b5892044fe80d8bdcb,64d2fd46c836a06233681665,64dc7e82e8f6a3b22cc4935f,,,,,,,decisionTrl,resources/DB.BMP,resources/DP.BMP,Door3,0.422222222,-0.009259259,1,0,0,2.0061,optionRight,70,5230,3,10,0,10,0,1,,,,,,,,,,,,,,,,,,,,,,,,,,,,,,,,,,,,,,,
,,,,,,,,2023-08-16_08h45.25.090,HF_wild_card,2022.2.4,Win32,144.0299582,62b722b5892044fe80d8bdcb,64d2fd46c836a06233681665,64dc7e82e8f6a3b22cc4935f,,,,,,,decisionTrl,resources/DB.BMP,resources/DBN.BMP,Door4,-0.285185185,-0.025925926,1,0,0,1.9992,optionLeft,60,5290,3,11,0,11,0,1,,,,,,,,,,,,,,,,,,,,,,,,,,,,,,,,,,,,,,,
,,,,,,,,2023-08-16_08h45.25.090,HF_wild_card,2022.2.4,Win32,144.0299582,62b722b5892044fe80d8bdcb,64d2fd46c836a06233681665,64dc7e82e8f6a3b22cc4935f,,,,,,,sngl,resources/DB.BMP,resources/Empty.png,Door4,-0.281481481,-0.017592593,1,0,0,1.0198,optionLeft,80,5370,3,12,0,12,0,1,,,,,,,,,,,,,,,,,,,,,,,,,,,,,,,,,,,,,,,
,,,,,,,,2023-08-16_08h45.25.090,HF_wild_card,2022.2.4,Win32,144.0299582,62b722b5892044fe80d8bdcb,64d2fd46c836a06233681665,64dc7e82e8f6a3b22cc4935f,,,,,,,decisionTrl,resources/DR.BMP,resources/DG.BMP,Door2,0.341666667,-0.017592593,1,0,0,1.2769,optionRight,20,5390,3,13,0,13,0,1,,,,,,,,,,,,,,,,,,,,,,,,,,,,,,,,,,,,,,,
,,,,,,,,2023-08-16_08h45.25.090,HF_wild_card,2022.2.4,Win32,144.0299582,62b722b5892044fe80d8bdcb,64d2fd46c836a06233681665,64dc7e82e8f6a3b22cc4935f,,,,,,,ctch,resources/DG.BMP,resources/DP.BMP,Door3,0.323148148,-0.026851852,1,0,0,1.7353,optionRight,70,5460,3,14,0,14,0,1,,,,,,,,,,,,,,,,,,,,,,,,,,,,,,,,,,,,,,,
,,,,,,,,2023-08-16_08h45.25.090,HF_wild_card,2022.2.4,Win32,144.0299582,62b722b5892044fe80d8bdcb,64d2fd46c836a06233681665,64dc7e82e8f6a3b22cc4935f,,,,,,,decisionTrl,resources/DG.BMP,resources/DR.BMP,Door2,-0.352777778,-0.033333333,1,0,0,1.2279,optionLeft,40,5500,3,15,0,15,0,1,,,,,,,,,,,,,,,,,,,,,,,,,,,,,,,,,,,,,,,
,,,,,,,,2023-08-16_08h45.25.090,HF_wild_card,2022.2.4,Win32,144.0299582,62b722b5892044fe80d8bdcb,64d2fd46c836a06233681665,64dc7e82e8f6a3b22cc4935f,,,,,,,ctch,resources/DP.BMP,resources/DG.BMP,Door3,-0.316666667,-0.044444444,1,0,0,0.8927,optionLeft,70,5570,3,16,0,16,0,1,,,,,,,,,,,,,,,,,,,,,,,,,,,,,,,,,,,,,,,
,,,,,,,,2023-08-16_08h45.25.090,HF_wild_card,2022.2.4,Win32,144.0299582,62b722b5892044fe80d8bdcb,64d2fd46c836a06233681665,64dc7e82e8f6a3b22cc4935f,,,,,,,ctch,resources/DB.BMP,resources/DR.BMP,Door4,-0.312962963,-0.031481481,1,0,0,1.3604,optionLeft,80,5650,3,17,0,17,0,1,,,,,,,,,,,,,,,,,,,,,,,,,,,,,,,,,,,,,,,
,,,,,,,,2023-08-16_08h45.25.090,HF_wild_card,2022.2.4,Win32,144.0299582,62b722b5892044fe80d8bdcb,64d2fd46c836a06233681665,64dc7e82e8f6a3b22cc4935f,,,,,,,ctch,resources/DG.BMP,resources/DP.BMP,Door3,0.375,-0.031481481,1,0,0,1.2004,optionRight,70,5720,3,18,0,18,0,1,,,,,,,,,,,,,,,,,,,,,,,,,,,,,,,,,,,,,,,
,,,,,,,,2023-08-16_08h45.25.090,HF_wild_card,2022.2.4,Win32,144.0299582,62b722b5892044fe80d8bdcb,64d2fd46c836a06233681665,64dc7e82e8f6a3b22cc4935f,,,,,,,sngl,resources/Empty.png,resources/DG.BMP,Door2,0.346296296,-0.012037037,1,0,0,1.1379,optionRight,20,5740,3,19,0,19,0,1,,,,,,,,,,,,,,,,,,,,,,,,,,,,,,,,,,,,,,,
,,,,,,,,2023-08-16_08h45.25.090,HF_wild_card,2022.2.4,Win32,144.0299582,62b722b5892044fe80d8bdcb,64d2fd46c836a06233681665,64dc7e82e8f6a3b22cc4935f,,,,,,,decisionTrl,resources/DR.BMP,resources/DG.BMP,Door2,0.381481481,-0.018518519,1,0,0,1.254,optionRight,20,5760,3,20,0,20,0,1,,,,,,,,,,,,,,,,,,,,,,,,,,,,,,,,,,,,,,,
,,,,,,,,2023-08-16_08h45.25.090,HF_wild_card,2022.2.4,Win32,144.0299582,62b722b5892044fe80d8bdcb,64d2fd46c836a06233681665,64dc7e82e8f6a3b22cc4935f,,,,,,,ctch,resources/DR.BMP,resources/DB.BMP,Door4,0.368518519,-0.015740741,1,0,0,1.1938,optionRight,80,5840,3,21,0,21,0,1,,,,,,,,,,,,,,,,,,,,,,,,,,,,,,,,,,,,,,,
,,,,,,,,2023-08-16_08h45.25.090,HF_wild_card,2022.2.4,Win32,144.0299582,62b722b5892044fe80d8bdcb,64d2fd46c836a06233681665,64dc7e82e8f6a3b22cc4935f,,,,,,,decisionTrl,resources/DR.BMP,resources/DG.BMP,Door2,0.321296296,-0.017592593,1,0,0,1.3395,optionRight,20,5860,3,22,0,22,0,1,,,,,,,,,,,,,,,,,,,,,,,,,,,,,,,,,,,,,,,
,,,,,,,,2023-08-16_08h45.25.090,HF_wild_card,2022.2.4,Win32,144.0299582,62b722b5892044fe80d8bdcb,64d2fd46c836a06233681665,64dc7e82e8f6a3b22cc4935f,,,,,,,sngl,resources/DR.BMP,resources/Empty.png,Door1,-0.32037037,-0.012037037,1,0,0,1.5754,optionLeft,30,5890,3,23,0,23,0,1,,,,,,,,,,,,,,,,,,,,,,,,,,,,,,,,,,,,,,,
,,,,,,,,2023-08-16_08h45.25.090,HF_wild_card,2022.2.4,Win32,144.0299582,62b722b5892044fe80d8bdcb,64d2fd46c836a06233681665,64dc7e82e8f6a3b22cc4935f,,,,,,,decisionTrl,resources/DP.BMP,resources/DB.BMP,Door4,0.312962963,-0.012037037,1,0,0,0.8948,optionRight,60,5950,3,24,0,24,0,1,,,,,,,,,,,,,,,,,,,,,,,,,,,,,,,,,,,,,,,
,,,,,,,,2023-08-16_08h45.25.090,HF_wild_card,2022.2.4,Win32,144.0299582,62b722b5892044fe80d8bdcb,64d2fd46c836a06233681665,64dc7e82e8f6a3b22cc4935f,,,,,,,decisionTrl,resources/DG.BMP,resources/DR.BMP,Door2,-0.294444444,-0.030555556,1,0,0,1.369,optionLeft,40,5990,3,25,0,25,0,1,,,,,,,,,,,,,,,,,,,,,,,,,,,,,,,,,,,,,,,
,,,,,,,,2023-08-16_08h45.25.090,HF_wild_card,2022.2.4,Win32,144.0299582,62b722b5892044fe80d8bdcb,64d2fd46c836a06233681665,64dc7e82e8f6a3b22cc4935f,,,,,,,decisionTrl,resources/DB.BMP,resources/DP.BMP,Door4,-0.338888889,-0.022222222,1,0,0,1.7909,optionLeft,80,6070,3,26,0,26,0,1,,,,,,,,,,,,,,,,,,,,,,,,,,,,,,,,,,,,,,,
,,,,,,,,2023-08-16_08h45.25.090,HF_wild_card,2022.2.4,Win32,144.0299582,62b722b5892044fe80d8bdcb,64d2fd46c836a06233681665,64dc7e82e8f6a3b22cc4935f,,,,,,,sngl,resources/DP.BMP,resources/Empty.png,Door3,-0.275925926,-0.02037037,1,0,0,0.9434,optionLeft,70,6140,3,27,0,27,0,1,,,,,,,,,,,,,,,,,,,,,,,,,,,,,,,,,,,,,,,
,,,,,,,,2023-08-16_08h45.25.090,HF_wild_card,2022.2.4,Win32,144.0299582,62b722b5892044fe80d8bdcb,64d2fd46c836a06233681665,64dc7e82e8f6a3b22cc4935f,,,,,,,decisionTrl,resources/DG.BMP,resources/DBN.BMP,Door2,-0.339814815,-0.022222222,1,0,0,1.3413,optionLeft,40,6180,3,28,0,28,0,1,,,,,,,,,,,,,,,,,,,,,,,,,,,,,,,,,,,,,,,
,,,,,,,,2023-08-16_08h45.25.090,HF_wild_card,2022.2.4,Win32,144.0299582,62b722b5892044fe80d8bdcb,64d2fd46c836a06233681665,64dc7e82e8f6a3b22cc4935f,,,,,,,decisionTrl,resources/DBN.BMP,resources/DR.BMP,WildCard_Ex,-0.29537037,-0.014814815,1,0,0,1.6867,optionLeft,5,6185,3,29,0,29,0,1,,,,,,,,,,,,,,,,,,,,,,,,,,,,,,,,,,,,,,,
,,,,,,,,2023-08-16_08h45.25.090,HF_wild_card,2022.2.4,Win32,144.0299582,62b722b5892044fe80d8bdcb,64d2fd46c836a06233681665,64dc7e82e8f6a3b22cc4935f,,,,,,,decisionTrl,resources/DR.BMP,resources/DG.BMP,Door2,0.382407407,-0.024074074,1,0,0,1.3602,optionRight,40,6225,3,30,0,30,0,1,,,,,,,,,,,,,,,,,,,,,,,,,,,,,,,,,,,,,,,
,,,,,,,,2023-08-16_08h45.25.090,HF_wild_card,2022.2.4,Win32,144.0299582,62b722b5892044fe80d8bdcb,64d2fd46c836a06233681665,64dc7e82e8f6a3b22cc4935f,,,,,,,sngl,resources/Empty.png,resources/DR.BMP,Door1,0.305555556,-0.014814815,1,0,0,1.8115,optionRight,30,6255,3,31,0,31,0,1,,,,,,,,,,,,,,,,,,,,,,,,,,,,,,,,,,,,,,,
,,,,,,,,2023-08-16_08h45.25.090,HF_wild_card,2022.2.4,Win32,144.0299582,62b722b5892044fe80d8bdcb,64d2fd46c836a06233681665,64dc7e82e8f6a3b22cc4935f,,,,,,,decisionTrl,resources/DR.BMP,resources/DBN.BMP,Door1,-0.323148148,-0.051851852,1,0,0,2.1935,optionLeft,30,6285,3,32,0,32,0,1,,,,,,,,,,,,,,,,,,,,,,,,,,,,,,,,,,,,,,,
,,,,,,,,2023-08-16_08h45.25.090,HF_wild_card,2022.2.4,Win32,144.0299582,62b722b5892044fe80d8bdcb,64d2fd46c836a06233681665,64dc7e82e8f6a3b22cc4935f,,,,,,,sngl,resources/Empty.png,resources/DP.BMP,Door3,0.425,-0.041666667,1,0,0,0.9296,optionRight,70,6355,3,33,0,33,0,1,,,,,,,,,,,,,,,,,,,,,,,,,,,,,,,,,,,,,,,
,,,,,,,,2023-08-16_08h45.25.090,HF_wild_card,2022.2.4,Win32,144.0299582,62b722b5892044fe80d8bdcb,64d2fd46c836a06233681665,64dc7e82e8f6a3b22cc4935f,,,,,,,decisionTrl,resources/DBN.BMP,resources/DB.BMP,Door4,0.368518519,-0.024074074,1,0,0,1.388,optionRight,60,6415,3,34,0,34,0,1,,,,,,,,,,,,,,,,,,,,,,,,,,,,,,,,,,,,,,,
,,,,,,,,2023-08-16_08h45.25.090,HF_wild_card,2022.2.4,Win32,144.0299582,62b722b5892044fe80d8bdcb,64d2fd46c836a06233681665,64dc7e82e8f6a3b22cc4935f,,,,,,,decisionTrl,resources/DB.BMP,resources/DP.BMP,Door4,-0.397222222,-0.037962963,1,0,0,1.2215,optionLeft,60,6475,3,35,0,35,0,1,,,,,,,,,,,,,,,,,,,,,,,,,,,,,,,,,,,,,,,
,,,,,,,,2023-08-16_08h45.25.090,HF_wild_card,2022.2.4,Win32,144.0299582,62b722b5892044fe80d8bdcb,64d2fd46c836a06233681665,64dc7e82e8f6a3b22cc4935f,,,,,,,sngl,resources/DBN.BMP,resources/Empty.png,WildCard_Ex,-0.300925926,-0.005555556,1,0,0,0.9712,optionLeft,5,6480,3,36,0,36,0,1,,,,,,,,,,,,,,,,,,,,,,,,,,,,,,,,,,,,,,,
,,,,,,,,2023-08-16_08h45.25.090,HF_wild_card,2022.2.4,Win32,144.0299582,62b722b5892044fe80d8bdcb,64d2fd46c836a06233681665,64dc7e82e8f6a3b22cc4935f,,,,,,,decisionTrl,resources/DG.BMP,resources/DR.BMP,Door2,-0.358333333,-0.009259259,1,0,0,1.4714,optionLeft,20,6500,3,37,0,37,0,1,,,,,,,,,,,,,,,,,,,,,,,,,,,,,,,,,,,,,,,
,,,,,,,,2023-08-16_08h45.25.090,HF_wild_card,2022.2.4,Win32,144.0299582,62b722b5892044fe80d8bdcb,64d2fd46c836a06233681665,64dc7e82e8f6a3b22cc4935f,,,,,,,sngl,resources/Empty.png,resources/DB.BMP,Door4,0.382407407,-0.032407407,1,0,0,0.8531,optionRight,60,6560,3,38,0,38,0,1,,,,,,,,,,,,,,,,,,,,,,,,,,,,,,,,,,,,,,,
,,,,,,,,2023-08-16_08h45.25.090,HF_wild_card,2022.2.4,Win32,144.0299582,62b722b5892044fe80d8bdcb,64d2fd46c836a06233681665,64dc7e82e8f6a3b22cc4935f,,,,,,,sngl,resources/DBN.BMP,resources/Empty.png,WildCard_Ex,-0.302777778,-0.008333333,1,0,0,0.8881,optionLeft,95,6655,3,39,0,39,0,1,,,,,,,,,,,,,,,,,,,,,,,,,,,,,,,,,,,,,,,
,,,,,,,,2023-08-16_08h45.25.090,HF_wild_card,2022.2.4,Win32,144.0299582,62b722b5892044fe80d8bdcb,64d2fd46c836a06233681665,64dc7e82e8f6a3b22cc4935f,,,,,,,sngl,resources/Empty.png,resources/DBN.BMP,WildCard_Ex,0.375925926,0.002777778,1,0,0,0.7629,optionRight,5,6660,3,40,0,40,0,1,,,,,,,,,,,,,,,,,,,,,,,,,,,,,,,,,,,,,,,
,,,,,,,,2023-08-16_08h45.25.090,HF_wild_card,2022.2.4,Win32,144.0299582,62b722b5892044fe80d8bdcb,64d2fd46c836a06233681665,64dc7e82e8f6a3b22cc4935f,,,,,,,decisionTrl,resources/DB.BMP,resources/DP.BMP,Door4,-0.37037037,-0.005555556,1,0,0,1.7007,optionLeft,60,6720,3,41,0,41,0,1,,,,,,,,,,,,,,,,,,,,,,,,,,,,,,,,,,,,,,,
,,,,,,,,2023-08-16_08h45.25.090,HF_wild_card,2022.2.4,Win32,144.0299582,62b722b5892044fe80d8bdcb,64d2fd46c836a06233681665,64dc7e82e8f6a3b22cc4935f,,,,,,,sngl,resources/DG.BMP,resources/Empty.png,Door2,-0.301851852,-0.007407407,1,0,0,1.0406,optionLeft,40,6760,3,42,0,42,0,1,,,,,,,,,,,,,,,,,,,,,,,,,,,,,,,,,,,,,,,
,,,,,,,,2023-08-16_08h45.25.090,HF_wild_card,2022.2.4,Win32,144.0299582,62b722b5892044fe80d8bdcb,64d2fd46c836a06233681665,64dc7e82e8f6a3b22cc4935f,,,,,,,ctch,resources/DB.BMP,resources/DR.BMP,Door4,-0.355555556,-0.017592593,1,0,0,1.4712,optionLeft,80,6840,3,43,0,43,0,1,,,,,,,,,,,,,,,,,,,,,,,,,,,,,,,,,,,,,,,
,,,,,,,,2023-08-16_08h45.25.090,HF_wild_card,2022.2.4,Win32,144.0299582,62b722b5892044fe80d8bdcb,64d2fd46c836a06233681665,64dc7e82e8f6a3b22cc4935f,,,,,,,,,,,,,,,,,,,,,,,,,,2,0,2,0,1,,,,,,,,,,,,,,,,,,,,,,,,,,,,,,,,,,
,,,,,,,,2023-08-16_08h45.25.090,HF_wild_card,2022.2.4,Win32,144.0299582,62b722b5892044fe80d8bdcb,64d2fd46c836a06233681665,64dc7e82e8f6a3b22cc4935f,,,,,,,sngl,resources/Empty.png,resources/DB.BMP,Door4,0.392592593,-0.011111111,1,0,0,3.0959,optionRight,80,6920,4,0,0,0,0,1,,,,,,,,,,,,,,,,,,,,,,,,,,,,,,,,,,,,,,,
,,,,,,,,2023-08-16_08h45.25.090,HF_wild_card,2022.2.4,Win32,144.0299582,62b722b5892044fe80d8bdcb,64d2fd46c836a06233681665,64dc7e82e8f6a3b22cc4935f,,,,,,,decisionTrl,resources/DR.BMP,resources/DG.BMP,Door2,0.362962963,-0.001851852,1,0,0,1.7214,optionRight,20,6940,4,1,0,1,0,1,,,,,,,,,,,,,,,,,,,,,,,,,,,,,,,,,,,,,,,
,,,,,,,,2023-08-16_08h45.25.090,HF_wild_card,2022.2.4,Win32,144.0299582,62b722b5892044fe80d8bdcb,64d2fd46c836a06233681665,64dc7e82e8f6a3b22cc4935f,,,,,,,decisionTrl,resources/DG.BMP,resources/DR.BMP,Door2,-0.35462963,-0.00462963,1,0,0,1.7975,optionLeft,40,6980,4,2,0,2,0,1,,,,,,,,,,,,,,,,,,,,,,,,,,,,,,,,,,,,,,,
,,,,,,,,2023-08-16_08h45.25.090,HF_wild_card,2022.2.4,Win32,144.0299582,62b722b5892044fe80d8bdcb,64d2fd46c836a06233681665,64dc7e82e8f6a3b22cc4935f,,,,,,,sngl,resources/Empty.png,resources/DG.BMP,Door2,0.412037037,-0.011111111,1,0,0,0.8465,optionRight,40,7020,4,3,0,3,0,1,,,,,,,,,,,,,,,,,,,,,,,,,,,,,,,,,,,,,,,
,,,,,,,,2023-08-16_08h45.25.090,HF_wild_card,2022.2.4,Win32,144.0299582,62b722b5892044fe80d8bdcb,64d2fd46c836a06233681665,64dc7e82e8f6a3b22cc4935f,,,,,,,decisionTrl,resources/DY.BMP,resources/DP.BMP,WildCard_NonEx,-0.288888889,-0.02037037,1,0,0,2.5685,optionLeft,55,7075,4,4,0,4,0,1,,,,,,,,,,,,,,,,,,,,,,,,,,,,,,,,,,,,,,,
,,,,,,,,2023-08-16_08h45.25.090,HF_wild_card,2022.2.4,Win32,144.0299582,62b722b5892044fe80d8bdcb,64d2fd46c836a06233681665,64dc7e82e8f6a3b22cc4935f,,,,,,,sngl,resources/DG.BMP,resources/Empty.png,Door2,-0.275925926,-0.008333333,1,0,0,0.9434,optionLeft,20,7095,4,5,0,5,0,1,,,,,,,,,,,,,,,,,,,,,,,,,,,,,,,,,,,,,,,
,,,,,,,,2023-08-16_08h45.25.090,HF_wild_card,2022.2.4,Win32,144.0299582,62b722b5892044fe80d8bdcb,64d2fd46c836a06233681665,64dc7e82e8f6a3b22cc4935f,,,,,,,decisionTrl,resources/DG.BMP,resources/DR.BMP,Door2,-0.330555556,-0.002777778,1,0,0,1.5616,optionLeft,20,7115,4,6,0,6,0,1,,,,,,,,,,,,,,,,,,,,,,,,,,,,,,,,,,,,,,,
,,,,,,,,2023-08-16_08h45.25.090,HF_wild_card,2022.2.4,Win32,144.0299582,62b722b5892044fe80d8bdcb,64d2fd46c836a06233681665,64dc7e82e8f6a3b22cc4935f,,,,,,,decisionTrl,resources/DP.BMP,resources/DY.BMP,Door3,-0.337962963,-0.010185185,1,0,0,1.7145,optionLeft,70,7185,4,7,0,7,0,1,,,,,,,,,,,,,,,,,,,,,,,,,,,,,,,,,,,,,,,
,,,,,,,,2023-08-16_08h45.25.090,HF_wild_card,2022.2.4,Win32,144.0299582,62b722b5892044fe80d8bdcb,64d2fd46c836a06233681665,64dc7e82e8f6a3b22cc4935f,,,,,,,decisionTrl,resources/DR.BMP,resources/DY.BMP,WildCard_NonEx,0.363888889,-0.031481481,1,0,0,1.4572,optionRight,55,7240,4,8,0,8,0,1,,,,,,,,,,,,,,,,,,,,,,,,,,,,,,,,,,,,,,,
,,,,,,,,2023-08-16_08h45.25.090,HF_wild_card,2022.2.4,Win32,144.0299582,62b722b5892044fe80d8bdcb,64d2fd46c836a06233681665,64dc7e82e8f6a3b22cc4935f,,,,,,,decisionTrl,resources/DB.BMP,resources/DP.BMP,Door4,-0.348148148,-0.016666667,1,0,0,1.3257,optionLeft,80,7320,4,9,0,9,0,1,,,,,,,,,,,,,,,,,,,,,,,,,,,,,,,,,,,,,,,
,,,,,,,,2023-08-16_08h45.25.090,HF_wild_card,2022.2.4,Win32,144.0299582,62b722b5892044fe80d8bdcb,64d2fd46c836a06233681665,64dc7e82e8f6a3b22cc4935f,,,,,,,decisionTrl,resources/DB.BMP,resources/DP.BMP,Door4,-0.359259259,-0.015740741,1,0,0,0.9853,optionLeft,60,7380,4,10,0,10,0,1,,,,,,,,,,,,,,,,,,,,,,,,,,,,,,,,,,,,,,,
,,,,,,,,2023-08-16_08h45.25.090,HF_wild_card,2022.2.4,Win32,144.0299582,62b722b5892044fe80d8bdcb,64d2fd46c836a06233681665,64dc7e82e8f6a3b22cc4935f,,,,,,,decisionTrl,resources/DR.BMP,resources/DG.BMP,Door2,0.378703704,-0.026851852,1,0,0,1.777,optionRight,40,7420,4,11,0,11,0,1,,,,,,,,,,,,,,,,,,,,,,,,,,,,,,,,,,,,,,,
,,,,,,,,2023-08-16_08h45.25.090,HF_wild_card,2022.2.4,Win32,144.0299582,62b722b5892044fe80d8bdcb,64d2fd46c836a06233681665,64dc7e82e8f6a3b22cc4935f,,,,,,,decisionTrl,resources/DG.BMP,resources/DR.BMP,Door2,-0.310185185,-0.016666667,1,0,0,1.1031,optionLeft,20,7440,4,12,0,12,0,1,,,,,,,,,,,,,,,,,,,,,,,,,,,,,,,,,,,,,,,
,,,,,,,,2023-08-16_08h45.25.090,HF_wild_card,2022.2.4,Win32,144.0299582,62b722b5892044fe80d8bdcb,64d2fd46c836a06233681665,64dc7e82e8f6a3b22cc4935f,,,,,,,sngl,resources/DY.BMP,resources/Empty.png,WildCard_NonEx,-0.311111111,-0.005555556,1,0,0,0.9297,optionLeft,55,7495,4,13,0,13,0,1,,,,,,,,,,,,,,,,,,,,,,,,,,,,,,,,,,,,,,,
,,,,,,,,2023-08-16_08h45.25.090,HF_wild_card,2022.2.4,Win32,144.0299582,62b722b5892044fe80d8bdcb,64d2fd46c836a06233681665,64dc7e82e8f6a3b22cc4935f,,,,,,,sngl,resources/Empty.png,resources/DY.BMP,WildCard_NonEx,0.312037037,-0.025,1,0,0,1.0062,optionRight,55,7550,4,14,0,14,0,1,,,,,,,,,,,,,,,,,,,,,,,,,,,,,,,,,,,,,,,
,,,,,,,,2023-08-16_08h45.25.090,HF_wild_card,2022.2.4,Win32,144.0299582,62b722b5892044fe80d8bdcb,64d2fd46c836a06233681665,64dc7e82e8f6a3b22cc4935f,,,,,,,ctch,resources/DP.BMP,resources/DG.BMP,Door3,-0.322222222,-0.00462963,1,0,0,1.4712,optionLeft,70,7620,4,15,0,15,0,1,,,,,,,,,,,,,,,,,,,,,,,,,,,,,,,,,,,,,,,
,,,,,,,,2023-08-16_08h45.25.090,HF_wild_card,2022.2.4,Win32,144.0299582,62b722b5892044fe80d8bdcb,64d2fd46c836a06233681665,64dc7e82e8f6a3b22cc4935f,,,,,,,decisionTrl,resources/DP.BMP,resources/DB.BMP,Door4,0.398148148,-0.035185185,1,0,0,1.4157,optionRight,60,7680,4,16,0,16,0,1,,,,,,,,,,,,,,,,,,,,,,,,,,,,,,,,,,,,,,,
,,,,,,,,2023-08-16_08h45.25.090,HF_wild_card,2022.2.4,Win32,144.0299582,62b722b5892044fe80d8bdcb,64d2fd46c836a06233681665,64dc7e82e8f6a3b22cc4935f,,,,,,,decisionTrl,resources/DP.BMP,resources/DB.BMP,Door4,0.375,-0.040740741,1,0,0,0.9089,optionRight,80,7760,4,17,0,17,0,1,,,,,,,,,,,,,,,,,,,,,,,,,,,,,,,,,,,,,,,
,,,,,,,,2023-08-16_08h45.25.090,HF_wild_card,2022.2.4,Win32,144.0299582,62b722b5892044fe80d8bdcb,64d2fd46c836a06233681665,64dc7e82e8f6a3b22cc4935f,,,,,,,ctch,resources/DG.BMP,resources/DP.BMP,Door3,0.407407407,-0.014814815,1,0,0,1.4506,optionRight,70,7830,4,18,0,18,0,1,,,,,,,,,,,,,,,,,,,,,,,,,,,,,,,,,,,,,,,
,,,,,,,,2023-08-16_08h45.25.090,HF_wild_card,2022.2.4,Win32,144.0299582,62b722b5892044fe80d8bdcb,64d2fd46c836a06233681665,64dc7e82e8f6a3b22cc4935f,,,,,,,ctch,resources/DG.BMP,resources/DP.BMP,Door3,0.396296296,-0.028703704,1,0,0,0.7838,optionRight,70,7900,4,19,0,19,0,1,,,,,,,,,,,,,,,,,,,,,,,,,,,,,,,,,,,,,,,
,,,,,,,,2023-08-16_08h45.25.090,HF_wild_card,2022.2.4,Win32,144.0299582,62b722b5892044fe80d8bdcb,64d2fd46c836a06233681665,64dc7e82e8f6a3b22cc4935f,,,,,,,sngl,resources/Empty.png,resources/DR.BMP,Door1,0.348148148,-0.009259259,1,0,0,1.1934,optionRight,30,7930,4,20,0,20,0,1,,,,,,,,,,,,,,,,,,,,,,,,,,,,,,,,,,,,,,,
,,,,,,,,2023-08-16_08h45.25.090,HF_wild_card,2022.2.4,Win32,144.0299582,62b722b5892044fe80d8bdcb,64d2fd46c836a06233681665,64dc7e82e8f6a3b22cc4935f,,,,,,,decisionTrl,resources/DG.BMP,resources/DY.BMP,WildCard_NonEx,0.394444444,-0.010185185,1,0,0,1.0547,optionRight,55,7985,4,21,0,21,0,1,,,,,,,,,,,,,,,,,,,,,,,,,,,,,,,,,,,,,,,
,,,,,,,,2023-08-16_08h45.25.090,HF_wild_card,2022.2.4,Win32,144.0299582,62b722b5892044fe80d8bdcb,64d2fd46c836a06233681665,64dc7e82e8f6a3b22cc4935f,,,,,,,ctch,resources/DR.BMP,resources/DB.BMP,Door4,0.384259259,-0.010185185,1,0,0,1.1171,optionRight,60,8045,4,22,0,22,0,1,,,,,,,,,,,,,,,,,,,,,,,,,,,,,,,,,,,,,,,
,,,,,,,,2023-08-16_08h45.25.090,HF_wild_card,2022.2.4,Win32,144.0299582,62b722b5892044fe80d8bdcb,64d2fd46c836a06233681665,64dc7e82e8f6a3b22cc4935f,,,,,,,ctch,resources/DR.BMP,resources/DB.BMP,Door4,0.448148148,-0.003703704,1,0,0,0.7976,optionRight,80,8125,4,23,0,23,0,1,,,,,,,,,,,,,,,,,,,,,,,,,,,,,,,,,,,,,,,
,,,,,,,,2023-08-16_08h45.25.090,HF_wild_card,2022.2.4,Win32,144.0299582,62b722b5892044fe80d8bdcb,64d2fd46c836a06233681665,64dc7e82e8f6a3b22cc4935f,,,,,,,decisionTrl,resources/DP.BMP,resources/DB.BMP,Door4,0.335185185,-0.002777778,1,0,0,1.5199,optionRight,80,8205,4,24,0,24,0,1,,,,,,,,,,,,,,,,,,,,,,,,,,,,,,,,,,,,,,,
,,,,,,,,2023-08-16_08h45.25.090,HF_wild_card,2022.2.4,Win32,144.0299582,62b722b5892044fe80d8bdcb,64d2fd46c836a06233681665,64dc7e82e8f6a3b22cc4935f,,,,,,,decisionTrl,resources/DY.BMP,resources/DR.BMP,WildCard_NonEx,-0.365740741,0.003703704,1,0,0,1.3602,optionLeft,45,8250,4,25,0,25,0,1,,,,,,,,,,,,,,,,,,,,,,,,,,,,,,,,,,,,,,,
,,,,,,,,2023-08-16_08h45.25.090,HF_wild_card,2022.2.4,Win32,144.0299582,62b722b5892044fe80d8bdcb,64d2fd46c836a06233681665,64dc7e82e8f6a3b22cc4935f,,,,,,,decisionTrl,resources/DR.BMP,resources/DG.BMP,Door2,0.366666667,-0.009259259,1,0,0,1.4089,optionRight,40,8290,4,26,0,26,0,1,,,,,,,,,,,,,,,,,,,,,,,,,,,,,,,,,,,,,,,
,,,,,,,,2023-08-16_08h45.25.090,HF_wild_card,2022.2.4,Win32,144.0299582,62b722b5892044fe80d8bdcb,64d2fd46c836a06233681665,64dc7e82e8f6a3b22cc4935f,,,,,,,ctch,resources/DB.BMP,resources/DR.BMP,Door4,-0.314814815,0.003703704,1,0,0,1.0964,optionLeft,60,8350,4,27,0,27,0,1,,,,,,,,,,,,,,,,,,,,,,,,,,,,,,,,,,,,,,,
,,,,,,,,2023-08-16_08h45.25.090,HF_wild_card,2022.2.4,Win32,144.0299582,62b722b5892044fe80d8bdcb,64d2fd46c836a06233681665,64dc7e82e8f6a3b22cc4935f,,,,,,,sngl,resources/Empty.png,resources/DY.BMP,WildCard_NonEx,0.323148148,-0.026851852,1,0,0,0.853,optionRight,45,8395,4,28,0,28,0,1,,,,,,,,,,,,,,,,,,,,,,,,,,,,,,,,,,,,,,,
,,,,,,,,2023-08-16_08h45.25.090,HF_wild_card,2022.2.4,Win32,144.0299582,62b722b5892044fe80d8bdcb,64d2fd46c836a06233681665,64dc7e82e8f6a3b22cc4935f,,,,,,,sngl,resources/DP.BMP,resources/Empty.png,Door3,-0.319444444,-0.006481481,1,0,0,0.9158,optionLeft,70,8465,4,29,0,29,0,1,,,,,,,,,,,,,,,,,,,,,,,,,,,,,,,,,,,,,,,
,,,,,,,,2023-08-16_08h45.25.090,HF_wild_card,2022.2.4,Win32,144.0299582,62b722b5892044fe80d8bdcb,64d2fd46c836a06233681665,64dc7e82e8f6a3b22cc4935f,,,,,,,sngl,resources/DR.BMP,resources/Empty.png,Door1,-0.323148148,-0.002777778,1,0,0,1.5338,optionLeft,30,8495,4,30,0,30,0,1,,,,,,,,,,,,,,,,,,,,,,,,,,,,,,,,,,,,,,,
,,,,,,,,2023-08-16_08h45.25.090,HF_wild_card,2022.2.4,Win32,144.0299582,62b722b5892044fe80d8bdcb,64d2fd46c836a06233681665,64dc7e82e8f6a3b22cc4935f,,,,,,,sngl,resources/DY.BMP,resources/Empty.png,WildCard_NonEx,-0.284259259,0.021296296,1,0,0,0.8047,optionLeft,45,8540,4,31,0,31,0,1,,,,,,,,,,,,,,,,,,,,,,,,,,,,,,,,,,,,,,,
,,,,,,,,2023-08-16_08h45.25.090,HF_wild_card,2022.2.4,Win32,144.0299582,62b722b5892044fe80d8bdcb,64d2fd46c836a06233681665,64dc7e82e8f6a3b22cc4935f,,,,,,,decisionTrl,resources/DY.BMP,resources/DB.BMP,Door4,0.342592593,-0.017592593,1,0,0,1.1032,optionRight,60,8600,4,32,0,32,0,1,,,,,,,,,,,,,,,,,,,,,,,,,,,,,,,,,,,,,,,
,,,,,,,,2023-08-16_08h45.25.090,HF_wild_card,2022.2.4,Win32,144.0299582,62b722b5892044fe80d8bdcb,64d2fd46c836a06233681665,64dc7e82e8f6a3b22cc4935f,,,,,,,decisionTrl,resources/DR.BMP,resources/DG.BMP,Door2,0.360185185,-0.022222222,1,0,0,1.3463,optionRight,40,8640,4,33,0,33,0,1,,,,,,,,,,,,,,,,,,,,,,,,,,,,,,,,,,,,,,,
,,,,,,,,2023-08-16_08h45.25.090,HF_wild_card,2022.2.4,Win32,144.0299582,62b722b5892044fe80d8bdcb,64d2fd46c836a06233681665,64dc7e82e8f6a3b22cc4935f,,,,,,,decisionTrl,resources/DY.BMP,resources/DG.BMP,WildCard_NonEx,-0.281481481,-0.006481481,1,0,0,1.9852,optionLeft,55,8695,4,34,0,34,0,1,,,,,,,,,,,,,,,,,,,,,,,,,,,,,,,,,,,,,,,
,,,,,,,,2023-08-16_08h45.25.090,HF_wild_card,2022.2.4,Win32,144.0299582,62b722b5892044fe80d8bdcb,64d2fd46c836a06233681665,64dc7e82e8f6a3b22cc4935f,,,,,,,sngl,resources/Empty.png,resources/DP.BMP,Door3,0.300925926,-0.034259259,1,0,0,0.8811,optionRight,70,8765,4,35,0,35,0,1,,,,,,,,,,,,,,,,,,,,,,,,,,,,,,,,,,,,,,,
,,,,,,,,2023-08-16_08h45.25.090,HF_wild_card,2022.2.4,Win32,144.0299582,62b722b5892044fe80d8bdcb,64d2fd46c836a06233681665,64dc7e82e8f6a3b22cc4935f,,,,,,,decisionTrl,resources/DP.BMP,resources/DB.BMP,Door4,0.347222222,-0.016666667,1,0,0,1.4992,optionRight,60,8825,4,36,0,36,0,1,,,,,,,,,,,,,,,,,,,,,,,,,,,,,,,,,,,,,,,
,,,,,,,,2023-08-16_08h45.25.090,HF_wild_card,2022.2.4,Win32,144.0299582,62b722b5892044fe80d8bdcb,64d2fd46c836a06233681665,64dc7e82e8f6a3b22cc4935f,,,,,,,ctch,resources/DB.BMP,resources/DR.BMP,Door4,-0.334259259,-0.002777778,1,0,0,0.9781,optionLeft,60,8885,4,37,0,37,0,1,,,,,,,,,,,,,,,,,,,,,,,,,,,,,,,,,,,,,,,
,,,,,,,,2023-08-16_08h45.25.090,HF_wild_card,2022.2.4,Win32,144.0299582,62b722b5892044fe80d8bdcb,64d2fd46c836a06233681665,64dc7e82e8f6a3b22cc4935f,,,,,,,decisionTrl,resources/DB.BMP,resources/DP.BMP,Door4,-0.313888889,-0.00462963,1,0,0,1.02,optionLeft,60,8945,4,38,0,38,0,1,,,,,,,,,,,,,,,,,,,,,,,,,,,,,,,,,,,,,,,
,,,,,,,,2023-08-16_08h45.25.090,HF_wild_card,2022.2.4,Win32,144.0299582,62b722b5892044fe80d8bdcb,64d2fd46c836a06233681665,64dc7e82e8f6a3b22cc4935f,,,,,,,decisionTrl,resources/DB.BMP,resources/DP.BMP,Door4,-0.301851852,-0.001851852,1,0,0,1.3048,optionLeft,60,9005,4,39,0,39,0,1,,,,,,,,,,,,,,,,,,,,,,,,,,,,,,,,,,,,,,,
,,,,,,,,2023-08-16_08h45.25.090,HF_wild_card,2022.2.4,Win32,144.0299582,62b722b5892044fe80d8bdcb,64d2fd46c836a06233681665,64dc7e82e8f6a3b22cc4935f,,,,,,,decisionTrl,resources/DG.BMP,resources/DR.BMP,Door2,-0.272222222,0.000925926,1,0,0,1.2563,optionLeft,20,9025,4,40,0,40,0,1,,,,,,,,,,,,,,,,,,,,,,,,,,,,,,,,,,,,,,,
,,,,,,,,2023-08-16_08h45.25.090,HF_wild_card,2022.2.4,Win32,144.0299582,62b722b5892044fe80d8bdcb,64d2fd46c836a06233681665,64dc7e82e8f6a3b22cc4935f,,,,,,,decisionTrl,resources/DB.BMP,resources/DY.BMP,Door4,-0.371296296,-0.011111111,1,0,0,0.9921,optionLeft,60,9085,4,41,0,41,0,1,,,,,,,,,,,,,,,,,,,,,,,,,,,,,,,,,,,,,,,
,,,,,,,,2023-08-16_08h45.25.090,HF_wild_card,2022.2.4,Win32,144.0299582,62b722b5892044fe80d8bdcb,64d2fd46c836a06233681665,64dc7e82e8f6a3b22cc4935f,,,,,,,ctch,resources/DP.BMP,resources/DG.BMP,Door3,-0.359259259,-0.021296296,1,0,0,1.27,optionLeft,70,9155,4,42,0,42,0,1,,,,,,,,,,,,,,,,,,,,,,,,,,,,,,,,,,,,,,,
,,,,,,,,2023-08-16_08h45.25.090,HF_wild_card,2022.2.4,Win32,144.0299582,62b722b5892044fe80d8bdcb,64d2fd46c836a06233681665,64dc7e82e8f6a3b22cc4935f,,,,,,,sngl,resources/DB.BMP,resources/Empty.png,Door4,-0.277777778,-0.012962963,1,0,0,0.8811,optionLeft,60,9215,4,43,0,43,0,1,,,,,,,,,,,,,,,,,,,,,,,,,,,,,,,,,,,,,,,
,,,,,,,,2023-08-16_08h45.25.090,HF_wild_card,2022.2.4,Win32,144.0299582,62b722b5892044fe80d8bdcb,64d2fd46c836a06233681665,64dc7e82e8f6a3b22cc4935f,,,,,,,,,,,,,,,,,,,,,,,,,,3,0,3,0,1,,,,,,,,,,,,,,,,,,,,,,,,,,,,,,,,,,
,,,,,,,,2023-08-16_08h45.25.090,HF_wild_card,2022.2.4,Win32,144.0299582,62b722b5892044fe80d8bdcb,64d2fd46c836a06233681665,64dc7e82e8f6a3b22cc4935f,,,,,,,sngl,resources/DY.BMP,resources/Empty.png,WildCard_NonEx,-0.325,-0.057407407,1,0,0,4.2692,optionLeft,55,9270,5,0,0,0,0,1,,,,,,,,,,,,,,,,,,,,,,,,,,,,,,,,,,,,,,,
,,,,,,,,2023-08-16_08h45.25.090,HF_wild_card,2022.2.4,Win32,144.0299582,62b722b5892044fe80d8bdcb,64d2fd46c836a06233681665,64dc7e82e8f6a3b22cc4935f,,,,,,,ctch,resources/DR.BMP,resources/DB.BMP,Door4,0.318518519,-0.025,1,0,0,1.0964,optionRight,60,9330,5,1,0,1,0,1,,,,,,,,,,,,,,,,,,,,,,,,,,,,,,,,,,,,,,,
,,,,,,,,2023-08-16_08h45.25.090,HF_wild_card,2022.2.4,Win32,144.0299582,62b722b5892044fe80d8bdcb,64d2fd46c836a06233681665,64dc7e82e8f6a3b22cc4935f,,,,,,,decisionTrl,resources/DR.BMP,resources/DG.BMP,Door2,0.352777778,-0.030555556,1,0,0,1.3255,optionRight,20,9350,5,2,0,2,0,1,,,,,,,,,,,,,,,,,,,,,,,,,,,,,,,,,,,,,,,
,,,,,,,,2023-08-16_08h45.25.090,HF_wild_card,2022.2.4,Win32,144.0299582,62b722b5892044fe80d8bdcb,64d2fd46c836a06233681665,64dc7e82e8f6a3b22cc4935f,,,,,,,sngl,resources/DG.BMP,resources/Empty.png,Door2,-0.384259259,-0.012037037,1,0,0,0.7838,optionLeft,40,9390,5,3,0,3,0,1,,,,,,,,,,,,,,,,,,,,,,,,,,,,,,,,,,,,,,,
,,,,,,,,2023-08-16_08h45.25.090,HF_wild_card,2022.2.4,Win32,144.0299582,62b722b5892044fe80d8bdcb,64d2fd46c836a06233681665,64dc7e82e8f6a3b22cc4935f,,,,,,,sngl,resources/DR.BMP,resources/Empty.png,Door1,-0.3,-0.012962963,1,0,0,1.1239,optionLeft,30,9420,5,4,0,4,0,1,,,,,,,,,,,,,,,,,,,,,,,,,,,,,,,,,,,,,,,
,,,,,,,,2023-08-16_08h45.25.090,HF_wild_card,2022.2.4,Win32,144.0299582,62b722b5892044fe80d8bdcb,64d2fd46c836a06233681665,64dc7e82e8f6a3b22cc4935f,,,,,,,decisionTrl,resources/DP.BMP,resources/DB.BMP,Door4,0.351851852,-0.015740741,1,0,0,0.6378,optionRight,80,9500,5,5,0,5,0,1,,,,,,,,,,,,,,,,,,,,,,,,,,,,,,,,,,,,,,,
,,,,,,,,2023-08-16_08h45.25.090,HF_wild_card,2022.2.4,Win32,144.0299582,62b722b5892044fe80d8bdcb,64d2fd46c836a06233681665,64dc7e82e8f6a3b22cc4935f,,,,,,,sngl,resources/Empty.png,resources/DY.BMP,WildCard_NonEx,0.380555556,-0.024074074,1,0,0,0.7,optionRight,55,9555,5,6,0,6,0,1,,,,,,,,,,,,,,,,,,,,,,,,,,,,,,,,,,,,,,,
,,,,,,,,2023-08-16_08h45.25.090,HF_wild_card,2022.2.4,Win32,144.0299582,62b722b5892044fe80d8bdcb,64d2fd46c836a06233681665,64dc7e82e8f6a3b22cc4935f,,,,,,,ctch,resources/DB.BMP,resources/DR.BMP,Door4,-0.349074074,-0.019444444,1,0,0,0.6796,optionLeft,80,9635,5,7,0,7,0,1,,,,,,,,,,,,,,,,,,,,,,,,,,,,,,,,,,,,,,,
,,,,,,,,2023-08-16_08h45.25.090,HF_wild_card,2022.2.4,Win32,144.0299582,62b722b5892044fe80d8bdcb,64d2fd46c836a06233681665,64dc7e82e8f6a3b22cc4935f,,,,,,,decisionTrl,resources/DP.BMP,resources/DB.BMP,Door4,0.393518519,-0.025,1,0,0,0.6032,optionRight,80,9715,5,8,0,8,0,1,,,,,,,,,,,,,,,,,,,,,,,,,,,,,,,,,,,,,,,
,,,,,,,,2023-08-16_08h45.25.090,HF_wild_card,2022.2.4,Win32,144.0299582,62b722b5892044fe80d8bdcb,64d2fd46c836a06233681665,64dc7e82e8f6a3b22cc4935f,,,,,,,decisionTrl,resources/DR.BMP,resources/DY.BMP,WildCard_NonEx,0.34537037,-0.025,1,0,0,1.6796,optionRight,55,9770,5,9,0,9,0,1,,,,,,,,,,,,,,,,,,,,,,,,,,,,,,,,,,,,,,,
,,,,,,,,2023-08-16_08h45.25.090,HF_wild_card,2022.2.4,Win32,144.0299582,62b722b5892044fe80d8bdcb,64d2fd46c836a06233681665,64dc7e82e8f6a3b22cc4935f,,,,,,,decisionTrl,resources/DG.BMP,resources/DR.BMP,Door2,-0.340740741,-0.012962963,1,0,0,0.7837,optionLeft,40,9810,5,10,0,10,0,1,,,,,,,,,,,,,,,,,,,,,,,,,,,,,,,,,,,,,,,
,,,,,,,,2023-08-16_08h45.25.090,HF_wild_card,2022.2.4,Win32,144.0299582,62b722b5892044fe80d8bdcb,64d2fd46c836a06233681665,64dc7e82e8f6a3b22cc4935f,,,,,,,sngl,resources/DY.BMP,resources/Empty.png,WildCard_NonEx,-0.335185185,-0.008333333,1,0,0,0.6588,optionLeft,45,9855,5,11,0,11,0,1,,,,,,,,,,,,,,,,,,,,,,,,,,,,,,,,,,,,,,,
,,,,,,,,2023-08-16_08h45.25.090,HF_wild_card,2022.2.4,Win32,144.0299582,62b722b5892044fe80d8bdcb,64d2fd46c836a06233681665,64dc7e82e8f6a3b22cc4935f,,,,,,,sngl,resources/Empty.png,resources/DR.BMP,Door1,0.271296296,-0.005555556,1,0,0,0.8534,optionRight,30,9885,5,12,0,12,0,1,,,,,,,,,,,,,,,,,,,,,,,,,,,,,,,,,,,,,,,
,,,,,,,,2023-08-16_08h45.25.090,HF_wild_card,2022.2.4,Win32,144.0299582,62b722b5892044fe80d8bdcb,64d2fd46c836a06233681665,64dc7e82e8f6a3b22cc4935f,,,,,,,ctch,resources/DP.BMP,resources/DG.BMP,Door3,-0.351851852,-0.013888889,1,0,0,1.263,optionLeft,70,9955,5,13,0,13,0,1,,,,,,,,,,,,,,,,,,,,,,,,,,,,,,,,,,,,,,,
,,,,,,,,2023-08-16_08h45.25.090,HF_wild_card,2022.2.4,Win32,144.0299582,62b722b5892044fe80d8bdcb,64d2fd46c836a06233681665,64dc7e82e8f6a3b22cc4935f,,,,,,,sngl,resources/Empty.png,resources/DY.BMP,WildCard_NonEx,0.312037037,-0.024074074,1,0,0,0.7351,optionRight,45,10000,5,14,0,14,0,1,,,,,,,,,,,,,,,,,,,,,,,,,,,,,,,,,,,,,,,
,,,,,,,,2023-08-16_08h45.25.090,HF_wild_card,2022.2.4,Win32,144.0299582,62b722b5892044fe80d8bdcb,64d2fd46c836a06233681665,64dc7e82e8f6a3b22cc4935f,,,,,,,decisionTrl,resources/DG.BMP,resources/DR.BMP,Door2,-0.326851852,-0.021296296,1,0,0,1.3668,optionLeft,40,10040,5,15,0,15,0,1,,,,,,,,,,,,,,,,,,,,,,,,,,,,,,,,,,,,,,,
,,,,,,,,2023-08-16_08h45.25.090,HF_wild_card,2022.2.4,Win32,144.0299582,62b722b5892044fe80d8bdcb,64d2fd46c836a06233681665,64dc7e82e8f6a3b22cc4935f,,,,,,,ctch,resources/DP.BMP,resources/DG.BMP,Door3,-0.259259259,-0.037962963,1,0,0,1.1727,optionLeft,70,10110,5,16,0,16,0,1,,,,,,,,,,,,,,,,,,,,,,,,,,,,,,,,,,,,,,,
,,,,,,,,2023-08-16_08h45.25.090,HF_wild_card,2022.2.4,Win32,144.0299582,62b722b5892044fe80d8bdcb,64d2fd46c836a06233681665,64dc7e82e8f6a3b22cc4935f,,,,,,,decisionTrl,resources/DG.BMP,resources/DR.BMP,Door2,-0.261111111,-0.028703704,1,0,0,1.1657,optionLeft,20,10130,5,17,0,17,0,1,,,,,,,,,,,,,,,,,,,,,,,,,,,,,,,,,,,,,,,
,,,,,,,,2023-08-16_08h45.25.090,HF_wild_card,2022.2.4,Win32,144.0299582,62b722b5892044fe80d8bdcb,64d2fd46c836a06233681665,64dc7e82e8f6a3b22cc4935f,,,,,,,decisionTrl,resources/DY.BMP,resources/DP.BMP,Door3,0.328703704,-0.050925926,1,0,0,0.9294,optionRight,70,10200,5,18,0,18,0,1,,,,,,,,,,,,,,,,,,,,,,,,,,,,,,,,,,,,,,,
,,,,,,,,2023-08-16_08h45.25.090,HF_wild_card,2022.2.4,Win32,144.0299582,62b722b5892044fe80d8bdcb,64d2fd46c836a06233681665,64dc7e82e8f6a3b22cc4935f,,,,,,,decisionTrl,resources/DP.BMP,resources/DY.BMP,Door3,-0.313888889,-0.030555556,1,0,0,0.7908,optionLeft,70,10270,5,19,0,19,0,1,,,,,,,,,,,,,,,,,,,,,,,,,,,,,,,,,,,,,,,
,,,,,,,,2023-08-16_08h45.25.090,HF_wild_card,2022.2.4,Win32,144.0299582,62b722b5892044fe80d8bdcb,64d2fd46c836a06233681665,64dc7e82e8f6a3b22cc4935f,,,,,,,decisionTrl,resources/DB.BMP,resources/DP.BMP,Door4,-0.325925926,-0.025,1,0,0,1.3047,optionLeft,80,10350,5,20,0,20,0,1,,,,,,,,,,,,,,,,,,,,,,,,,,,,,,,,,,,,,,,
,,,,,,,,2023-08-16_08h45.25.090,HF_wild_card,2022.2.4,Win32,144.0299582,62b722b5892044fe80d8bdcb,64d2fd46c836a06233681665,64dc7e82e8f6a3b22cc4935f,,,,,,,decisionTrl,resources/DR.BMP,resources/DG.BMP,Door2,0.339814815,-0.021296296,1,0,0,0.881,optionRight,40,10390,5,21,0,21,0,1,,,,,,,,,,,,,,,,,,,,,,,,,,,,,,,,,,,,,,,
,,,,,,,,2023-08-16_08h45.25.090,HF_wild_card,2022.2.4,Win32,144.0299582,62b722b5892044fe80d8bdcb,64d2fd46c836a06233681665,64dc7e82e8f6a3b22cc4935f,,,,,,,decisionTrl,resources/DB.BMP,resources/DP.BMP,Door4,-0.352777778,-0.016666667,1,0,0,1.0891,optionLeft,80,10470,5,22,0,22,0,1,,,,,,,,,,,,,,,,,,,,,,,,,,,,,,,,,,,,,,,
,,,,,,,,2023-08-16_08h45.25.090,HF_wild_card,2022.2.4,Win32,144.0299582,62b722b5892044fe80d8bdcb,64d2fd46c836a06233681665,64dc7e82e8f6a3b22cc4935f,,,,,,,decisionTrl,resources/DY.BMP,resources/DR.BMP,WildCard_NonEx,-0.317592593,-0.031481481,1,0,0,1.2978,optionLeft,45,10515,5,23,0,23,0,1,,,,,,,,,,,,,,,,,,,,,,,,,,,,,,,,,,,,,,,
,,,,,,,,2023-08-16_08h45.25.090,HF_wild_card,2022.2.4,Win32,144.0299582,62b722b5892044fe80d8bdcb,64d2fd46c836a06233681665,64dc7e82e8f6a3b22cc4935f,,,,,,,decisionTrl,resources/DG.BMP,resources/DR.BMP,Door2,-0.32037037,-0.024074074,1,0,0,1.4645,optionLeft,20,10535,5,24,0,24,0,1,,,,,,,,,,,,,,,,,,,,,,,,,,,,,,,,,,,,,,,
,,,,,,,,2023-08-16_08h45.25.090,HF_wild_card,2022.2.4,Win32,144.0299582,62b722b5892044fe80d8bdcb,64d2fd46c836a06233681665,64dc7e82e8f6a3b22cc4935f,,,,,,,decisionTrl,resources/DY.BMP,resources/DG.BMP,WildCard_NonEx,-0.289814815,-0.039814815,1,0,0,1.0129,optionLeft,45,10580,5,25,0,25,0,1,,,,,,,,,,,,,,,,,,,,,,,,,,,,,,,,,,,,,,,
,,,,,,,,2023-08-16_08h45.25.090,HF_wild_card,2022.2.4,Win32,144.0299582,62b722b5892044fe80d8bdcb,64d2fd46c836a06233681665,64dc7e82e8f6a3b22cc4935f,,,,,,,sngl,resources/Empty.png,resources/DG.BMP,Door2,0.330555556,-0.023148148,1,0,0,0.8392,optionRight,20,10600,5,26,0,26,0,1,,,,,,,,,,,,,,,,,,,,,,,,,,,,,,,,,,,,,,,
,,,,,,,,2023-08-16_08h45.25.090,HF_wild_card,2022.2.4,Win32,144.0299582,62b722b5892044fe80d8bdcb,64d2fd46c836a06233681665,64dc7e82e8f6a3b22cc4935f,,,,,,,decisionTrl,resources/DP.BMP,resources/DB.BMP,Door4,0.316666667,-0.027777778,1,0,0,0.881,optionRight,80,10680,5,27,0,27,0,1,,,,,,,,,,,,,,,,,,,,,,,,,,,,,,,,,,,,,,,
,,,,,,,,2023-08-16_08h45.25.090,HF_wild_card,2022.2.4,Win32,144.0299582,62b722b5892044fe80d8bdcb,64d2fd46c836a06233681665,64dc7e82e8f6a3b22cc4935f,,,,,,,ctch,resources/DR.BMP,resources/DB.BMP,Door4,0.362037037,-0.022222222,1,0,0,0.7976,optionRight,80,10760,5,28,0,28,0,1,,,,,,,,,,,,,,,,,,,,,,,,,,,,,,,,,,,,,,,
,,,,,,,,2023-08-16_08h45.25.090,HF_wild_card,2022.2.4,Win32,144.0299582,62b722b5892044fe80d8bdcb,64d2fd46c836a06233681665,64dc7e82e8f6a3b22cc4935f,,,,,,,decisionTrl,resources/DG.BMP,resources/DY.BMP,Door2,-0.349074074,0,1,0,0,2.1382,optionLeft,20,10780,5,29,0,29,0,1,,,,,,,,,,,,,,,,,,,,,,,,,,,,,,,,,,,,,,,
,,,,,,,,2023-08-16_08h45.25.090,HF_wild_card,2022.2.4,Win32,144.0299582,62b722b5892044fe80d8bdcb,64d2fd46c836a06233681665,64dc7e82e8f6a3b22cc4935f,,,,,,,decisionTrl,resources/DY.BMP,resources/DB.BMP,Door4,0.412962963,-0.035185185,1,0,0,0.7419,optionRight,60,10840,5,30,0,30,0,1,,,,,,,,,,,,,,,,,,,,,,,,,,,,,,,,,,,,,,,
,,,,,,,,2023-08-16_08h45.25.090,HF_wild_card,2022.2.4,Win32,144.0299582,62b722b5892044fe80d8bdcb,64d2fd46c836a06233681665,64dc7e82e8f6a3b22cc4935f,,,,,,,sngl,resources/DP.BMP,resources/Empty.png,Door3,-0.352777778,-0.015740741,1,0,0,0.6728,optionLeft,70,10910,5,31,0,31,0,1,,,,,,,,,,,,,,,,,,,,,,,,,,,,,,,,,,,,,,,
,,,,,,,,2023-08-16_08h45.25.090,HF_wild_card,2022.2.4,Win32,144.0299582,62b722b5892044fe80d8bdcb,64d2fd46c836a06233681665,64dc7e82e8f6a3b22cc4935f,,,,,,,decisionTrl,resources/DR.BMP,resources/DG.BMP,Door2,0.360185185,-0.018518519,1,0,0,0.9575,optionRight,40,10950,5,32,0,32,0,1,,,,,,,,,,,,,,,,,,,,,,,,,,,,,,,,,,,,,,,
,,,,,,,,2023-08-16_08h45.25.090,HF_wild_card,2022.2.4,Win32,144.0299582,62b722b5892044fe80d8bdcb,64d2fd46c836a06233681665,64dc7e82e8f6a3b22cc4935f,,,,,,,decisionTrl,resources/DB.BMP,resources/DY.BMP,Door4,-0.290740741,-0.018518519,1,0,0,1.263,optionLeft,60,11010,5,33,0,33,0,1,,,,,,,,,,,,,,,,,,,,,,,,,,,,,,,,,,,,,,,
,,,,,,,,2023-08-16_08h45.25.090,HF_wild_card,2022.2.4,Win32,144.0299582,62b722b5892044fe80d8bdcb,64d2fd46c836a06233681665,64dc7e82e8f6a3b22cc4935f,,,,,,,sngl,resources/Empty.png,resources/DB.BMP,Door4,0.327777778,-0.011111111,1,0,0,0.6101,optionRight,60,11070,5,34,0,34,0,1,,,,,,,,,,,,,,,,,,,,,,,,,,,,,,,,,,,,,,,
,,,,,,,,2023-08-16_08h45.25.090,HF_wild_card,2022.2.4,Win32,144.0299582,62b722b5892044fe80d8bdcb,64d2fd46c836a06233681665,64dc7e82e8f6a3b22cc4935f,,,,,,,decisionTrl,resources/DP.BMP,resources/DB.BMP,Door4,0.426851852,-0.026851852,1,0,0,0.6172,optionRight,80,11150,5,35,0,35,0,1,,,,,,,,,,,,,,,,,,,,,,,,,,,,,,,,,,,,,,,
,,,,,,,,2023-08-16_08h45.25.090,HF_wild_card,2022.2.4,Win32,144.0299582,62b722b5892044fe80d8bdcb,64d2fd46c836a06233681665,64dc7e82e8f6a3b22cc4935f,,,,,,,ctch,resources/DG.BMP,resources/DP.BMP,Door3,0.356481481,-0.026851852,1,0,0,1.534,optionRight,70,11220,5,36,0,36,0,1,,,,,,,,,,,,,,,,,,,,,,,,,,,,,,,,,,,,,,,
,,,,,,,,2023-08-16_08h45.25.090,HF_wild_card,2022.2.4,Win32,144.0299582,62b722b5892044fe80d8bdcb,64d2fd46c836a06233681665,64dc7e82e8f6a3b22cc4935f,,,,,,,ctch,resources/DG.BMP,resources/DP.BMP,Door3,0.333333333,-0.018518519,1,0,0,0.7074,optionRight,70,11290,5,37,0,37,0,1,,,,,,,,,,,,,,,,,,,,,,,,,,,,,,,,,,,,,,,
,,,,,,,,2023-08-16_08h45.25.090,HF_wild_card,2022.2.4,Win32,144.0299582,62b722b5892044fe80d8bdcb,64d2fd46c836a06233681665,64dc7e82e8f6a3b22cc4935f,,,,,,,ctch,resources/DB.BMP,resources/DR.BMP,Door4,-0.289814815,-0.012037037,1,0,0,0.8463,optionLeft,80,11370,5,38,0,38,0,1,,,,,,,,,,,,,,,,,,,,,,,,,,,,,,,,,,,,,,,
,,,,,,,,2023-08-16_08h45.25.090,HF_wild_card,2022.2.4,Win32,144.0299582,62b722b5892044fe80d8bdcb,64d2fd46c836a06233681665,64dc7e82e8f6a3b22cc4935f,,,,,,,decisionTrl,resources/DR.BMP,resources/DG.BMP,Door2,0.325925926,-0.019444444,1,0,0,1.2978,optionRight,40,11410,5,39,0,39,0,1,,,,,,,,,,,,,,,,,,,,,,,,,,,,,,,,,,,,,,,
,,,,,,,,2023-08-16_08h45.25.090,HF_wild_card,2022.2.4,Win32,144.0299582,62b722b5892044fe80d8bdcb,64d2fd46c836a06233681665,64dc7e82e8f6a3b22cc4935f,,,,,,,decisionTrl,resources/DB.BMP,resources/DP.BMP,Door4,-0.335185185,-0.014814815,1,0,0,0.9781,optionLeft,80,11490,5,40,0,40,0,1,,,,,,,,,,,,,,,,,,,,,,,,,,,,,,,,,,,,,,,
,,,,,,,,2023-08-16_08h45.25.090,HF_wild_card,2022.2.4,Win32,144.0299582,62b722b5892044fe80d8bdcb,64d2fd46c836a06233681665,64dc7e82e8f6a3b22cc4935f,,,,,,,decisionTrl,resources/DB.BMP,resources/DP.BMP,Door4,-0.363888889,-0.009259259,1,0,0,0.7979,optionLeft,60,11550,5,41,0,41,0,1,,,,,,,,,,,,,,,,,,,,,,,,,,,,,,,,,,,,,,,
,,,,,,,,2023-08-16_08h45.25.090,HF_wild_card,2022.2.4,Win32,144.0299582,62b722b5892044fe80d8bdcb,64d2fd46c836a06233681665,64dc7e82e8f6a3b22cc4935f,,,,,,,sngl,resources/Empty.png,resources/DP.BMP,Door3,0.342592593,-0.026851852,1,0,0,0.6034,optionRight,70,11620,5,42,0,42,0,1,,,,,,,,,,,,,,,,,,,,,,,,,,,,,,,,,,,,,,,
,,,,,,,,2023-08-16_08h45.25.090,HF_wild_card,2022.2.4,Win32,144.0299582,62b722b5892044fe80d8bdcb,64d2fd46c836a06233681665,64dc7e82e8f6a3b22cc4935f,,,,,,,sngl,resources/DB.BMP,resources/Empty.png,Door4,-0.278703704,-0.014814815,1,0,0,0.6172,optionLeft,80,11700,5,43,0,43,0,1,,,,,,,,,,,,,,,,,,,,,,,,,,,,,,,,,,,,,,,
,,,,,,,,2023-08-16_08h45.25.090,HF_wild_card,2022.2.4,Win32,144.0299582,62b722b5892044fe80d8bdcb,64d2fd46c836a06233681665,64dc7e82e8f6a3b22cc4935f,,,,,,,,,,,,,,,,,,,,,,,,,,4,0,4,0,1,,,,,,,,,,,,,,,,,,,,,,,,,,,,,,,,,,
,,,,,,,,2023-08-16_08h45.25.090,HF_wild_card,2022.2.4,Win32,144.0299582,62b722b5892044fe80d8bdcb,64d2fd46c836a06233681665,64dc7e82e8f6a3b22cc4935f,,,,,,,decisionTrl,resources/DB.BMP,resources/DP.BMP,Door4,-0.338888889,-0.05462963,1,0,0,3.1607,optionLeft,80,11780,6,0,0,0,0,1,,,,,,,,,,,,,,,,,,,,,,,,,,,,,,,,,,,,,,,
,,,,,,,,2023-08-16_08h45.25.090,HF_wild_card,2022.2.4,Win32,144.0299582,62b722b5892044fe80d8bdcb,64d2fd46c836a06233681665,64dc7e82e8f6a3b22cc4935f,,,,,,,decisionTrl,resources/DP.BMP,resources/DB.BMP,Door4,0.325925926,-0.02037037,1,0,0,0.6031,optionRight,60,11840,6,1,0,1,0,1,,,,,,,,,,,,,,,,,,,,,,,,,,,,,,,,,,,,,,,
,,,,,,,,2023-08-16_08h45.25.090,HF_wild_card,2022.2.4,Win32,144.0299582,62b722b5892044fe80d8bdcb,64d2fd46c836a06233681665,64dc7e82e8f6a3b22cc4935f,,,,,,,ctch,resources/DP.BMP,resources/DG.BMP,Door3,-0.337962963,-0.008333333,1,0,0,0.7699,optionLeft,70,11910,6,2,0,2,0,1,,,,,,,,,,,,,,,,,,,,,,,,,,,,,,,,,,,,,,,
,,,,,,,,2023-08-16_08h45.25.090,HF_wild_card,2022.2.4,Win32,144.0299582,62b722b5892044fe80d8bdcb,64d2fd46c836a06233681665,64dc7e82e8f6a3b22cc4935f,,,,,,,sngl,resources/Empty.png,resources/DP.BMP,Door3,0.34537037,-0.017592593,1,0,0,0.6449,optionRight,70,11980,6,3,0,3,0,1,,,,,,,,,,,,,,,,,,,,,,,,,,,,,,,,,,,,,,,
,,,,,,,,2023-08-16_08h45.25.090,HF_wild_card,2022.2.4,Win32,144.0299582,62b722b5892044fe80d8bdcb,64d2fd46c836a06233681665,64dc7e82e8f6a3b22cc4935f,,,,,,,decisionTrl,resources/DG.BMP,resources/DR.BMP,Door2,-0.30462963,-0.005555556,1,0,0,0.763,optionLeft,20,12000,6,4,0,4,0,1,,,,,,,,,,,,,,,,,,,,,,,,,,,,,,,,,,,,,,,
,,,,,,,,2023-08-16_08h45.25.090,HF_wild_card,2022.2.4,Win32,144.0299582,62b722b5892044fe80d8bdcb,64d2fd46c836a06233681665,64dc7e82e8f6a3b22cc4935f,,,,,,,decisionTrl,resources/DR.BMP,resources/DG.BMP,Door2,0.34537037,0.005555556,1,0,0,1.1242,optionRight,40,12040,6,5,0,5,0,1,,,,,,,,,,,,,,,,,,,,,,,,,,,,,,,,,,,,,,,
,,,,,,,,2023-08-16_08h45.25.090,HF_wild_card,2022.2.4,Win32,144.0299582,62b722b5892044fe80d8bdcb,64d2fd46c836a06233681665,64dc7e82e8f6a3b22cc4935f,,,,,,,ctch,resources/DG.BMP,resources/DP.BMP,Door3,0.367592593,-0.011111111,1,0,0,0.6867,optionRight,70,12110,6,6,0,6,0,1,,,,,,,,,,,,,,,,,,,,,,,,,,,,,,,,,,,,,,,
,,,,,,,,2023-08-16_08h45.25.090,HF_wild_card,2022.2.4,Win32,144.0299582,62b722b5892044fe80d8bdcb,64d2fd46c836a06233681665,64dc7e82e8f6a3b22cc4935f,,,,,,,ctch,resources/DG.BMP,resources/DP.BMP,Door3,0.375925926,-0.005555556,1,0,0,0.6519,optionRight,70,12180,6,7,0,7,0,1,,,,,,,,,,,,,,,,,,,,,,,,,,,,,,,,,,,,,,,
,,,,,,,,2023-08-16_08h45.25.090,HF_wild_card,2022.2.4,Win32,144.0299582,62b722b5892044fe80d8bdcb,64d2fd46c836a06233681665,64dc7e82e8f6a3b22cc4935f,,,,,,,decisionTrl,resources/DB.BMP,resources/DP.BMP,Door4,-0.306481481,-0.008333333,1,0,0,1.0823,optionLeft,60,12240,6,8,0,8,0,1,,,,,,,,,,,,,,,,,,,,,,,,,,,,,,,,,,,,,,,
,,,,,,,,2023-08-16_08h45.25.090,HF_wild_card,2022.2.4,Win32,144.0299582,62b722b5892044fe80d8bdcb,64d2fd46c836a06233681665,64dc7e82e8f6a3b22cc4935f,,,,,,,decisionTrl,resources/DP.BMP,resources/DB.BMP,Door4,0.302777778,-0.011111111,1,0,0,0.7489,optionRight,60,12300,6,9,0,9,0,1,,,,,,,,,,,,,,,,,,,,,,,,,,,,,,,,,,,,,,,
,,,,,,,,2023-08-16_08h45.25.090,HF_wild_card,2022.2.4,Win32,144.0299582,62b722b5892044fe80d8bdcb,64d2fd46c836a06233681665,64dc7e82e8f6a3b22cc4935f,,,,,,,sngl,resources/DG.BMP,resources/Empty.png,Door2,-0.309259259,0.005555556,1,0,0,0.7283,optionLeft,20,12320,6,10,0,10,0,1,,,,,,,,,,,,,,,,,,,,,,,,,,,,,,,,,,,,,,,
,,,,,,,,2023-08-16_08h45.25.090,HF_wild_card,2022.2.4,Win32,144.0299582,62b722b5892044fe80d8bdcb,64d2fd46c836a06233681665,64dc7e82e8f6a3b22cc4935f,,,,,,,decisionTrl,resources/DP.BMP,resources/DB.BMP,Door4,0.337962963,-0.005555556,1,0,0,0.638,optionRight,60,12380,6,11,0,11,0,1,,,,,,,,,,,,,,,,,,,,,,,,,,,,,,,,,,,,,,,
,,,,,,,,2023-08-16_08h45.25.090,HF_wild_card,2022.2.4,Win32,144.0299582,62b722b5892044fe80d8bdcb,64d2fd46c836a06233681665,64dc7e82e8f6a3b22cc4935f,,,,,,,sngl,resources/Empty.png,resources/DY.BMP,WildCard_NonEx,0.296296296,0.000925926,1,0,0,0.6658,optionRight,55,12435,6,12,0,12,0,1,,,,,,,,,,,,,,,,,,,,,,,,,,,,,,,,,,,,,,,
,,,,,,,,2023-08-16_08h45.25.090,HF_wild_card,2022.2.4,Win32,144.0299582,62b722b5892044fe80d8bdcb,64d2fd46c836a06233681665,64dc7e82e8f6a3b22cc4935f,,,,,,,decisionTrl,resources/DG.BMP,resources/DY.BMP,Door2,-0.294444444,0.001851852,1,0,0,1.2074,optionLeft,40,12475,6,13,0,13,0,1,,,,,,,,,,,,,,,,,,,,,,,,,,,,,,,,,,,,,,,
,,,,,,,,2023-08-16_08h45.25.090,HF_wild_card,2022.2.4,Win32,144.0299582,62b722b5892044fe80d8bdcb,64d2fd46c836a06233681665,64dc7e82e8f6a3b22cc4935f,,,,,,,sngl,resources/Empty.png,resources/DR.BMP,Door1,0.301851852,-0.007407407,1,0,0,0.7768,optionRight,30,12505,6,14,0,14,0,1,,,,,,,,,,,,,,,,,,,,,,,,,,,,,,,,,,,,,,,
,,,,,,,,2023-08-16_08h45.25.090,HF_wild_card,2022.2.4,Win32,144.0299582,62b722b5892044fe80d8bdcb,64d2fd46c836a06233681665,64dc7e82e8f6a3b22cc4935f,,,,,,,ctch,resources/DB.BMP,resources/DR.BMP,Door4,-0.350925926,-0.001851852,1,0,0,0.7422,optionLeft,80,12585,6,15,0,15,0,1,,,,,,,,,,,,,,,,,,,,,,,,,,,,,,,,,,,,,,,
,,,,,,,,2023-08-16_08h45.25.090,HF_wild_card,2022.2.4,Win32,144.0299582,62b722b5892044fe80d8bdcb,64d2fd46c836a06233681665,64dc7e82e8f6a3b22cc4935f,,,,,,,decisionTrl,resources/DY.BMP,resources/DR.BMP,WildCard_NonEx,-0.22962963,0,1,0,0,0.9992,optionLeft,55,12640,6,16,0,16,0,1,,,,,,,,,,,,,,,,,,,,,,,,,,,,,,,,,,,,,,,
,,,,,,,,2023-08-16_08h45.25.090,HF_wild_card,2022.2.4,Win32,144.0299582,62b722b5892044fe80d8bdcb,64d2fd46c836a06233681665,64dc7e82e8f6a3b22cc4935f,,,,,,,sngl,resources/Empty.png,resources/DG.BMP,Door2,0.275925926,0,1,0,0,0.7213,optionRight,40,12680,6,17,0,17,0,1,,,,,,,,,,,,,,,,,,,,,,,,,,,,,,,,,,,,,,,
,,,,,,,,2023-08-16_08h45.25.090,HF_wild_card,2022.2.4,Win32,144.0299582,62b722b5892044fe80d8bdcb,64d2fd46c836a06233681665,64dc7e82e8f6a3b22cc4935f,,,,,,,decisionTrl,resources/DR.BMP,resources/DG.BMP,Door2,0.32962963,-0.010185185,1,0,0,1.2699,optionRight,20,12700,6,18,0,18,0,1,,,,,,,,,,,,,,,,,,,,,,,,,,,,,,,,,,,,,,,
,,,,,,,,2023-08-16_08h45.25.090,HF_wild_card,2022.2.4,Win32,144.0299582,62b722b5892044fe80d8bdcb,64d2fd46c836a06233681665,64dc7e82e8f6a3b22cc4935f,,,,,,,decisionTrl,resources/DY.BMP,resources/DP.BMP,Door3,0.315740741,-0.015740741,1,0,0,1.277,optionRight,70,12770,6,19,0,19,0,1,,,,,,,,,,,,,,,,,,,,,,,,,,,,,,,,,,,,,,,
,,,,,,,,2023-08-16_08h45.25.090,HF_wild_card,2022.2.4,Win32,144.0299582,62b722b5892044fe80d8bdcb,64d2fd46c836a06233681665,64dc7e82e8f6a3b22cc4935f,,,,,,,decisionTrl,resources/DY.BMP,resources/DB.BMP,Door4,0.283333333,-0.014814815,1,0,0,0.7075,optionRight,80,12850,6,20,0,20,0,1,,,,,,,,,,,,,,,,,,,,,,,,,,,,,,,,,,,,,,,
,,,,,,,,2023-08-16_08h45.25.090,HF_wild_card,2022.2.4,Win32,144.0299582,62b722b5892044fe80d8bdcb,64d2fd46c836a06233681665,64dc7e82e8f6a3b22cc4935f,,,,,,,decisionTrl,resources/DG.BMP,resources/DR.BMP,Door2,-0.285185185,0.008333333,1,0,0,0.9019,optionLeft,20,12870,6,21,0,21,0,1,,,,,,,,,,,,,,,,,,,,,,,,,,,,,,,,,,,,,,,
,,,,,,,,2023-08-16_08h45.25.090,HF_wild_card,2022.2.4,Win32,144.0299582,62b722b5892044fe80d8bdcb,64d2fd46c836a06233681665,64dc7e82e8f6a3b22cc4935f,,,,,,,decisionTrl,resources/DB.BMP,resources/DY.BMP,Door4,-0.312962963,-0.00462963,1,0,0,0.8324,optionLeft,60,12930,6,22,0,22,0,1,,,,,,,,,,,,,,,,,,,,,,,,,,,,,,,,,,,,,,,
,,,,,,,,2023-08-16_08h45.25.090,HF_wild_card,2022.2.4,Win32,144.0299582,62b722b5892044fe80d8bdcb,64d2fd46c836a06233681665,64dc7e82e8f6a3b22cc4935f,,,,,,,decisionTrl,resources/DR.BMP,resources/DY.BMP,WildCard_NonEx,0.397222222,-0.010185185,1,0,0,0.9847,optionRight,55,12985,6,23,0,23,0,1,,,,,,,,,,,,,,,,,,,,,,,,,,,,,,,,,,,,,,,
,,,,,,,,2023-08-16_08h45.25.090,HF_wild_card,2022.2.4,Win32,144.0299582,62b722b5892044fe80d8bdcb,64d2fd46c836a06233681665,64dc7e82e8f6a3b22cc4935f,,,,,,,ctch,resources/DB.BMP,resources/DR.BMP,Door4,-0.30462963,-0.002777778,1,0,0,0.7213,optionLeft,80,13065,6,24,0,24,0,1,,,,,,,,,,,,,,,,,,,,,,,,,,,,,,,,,,,,,,,
,,,,,,,,2023-08-16_08h45.25.090,HF_wild_card,2022.2.4,Win32,144.0299582,62b722b5892044fe80d8bdcb,64d2fd46c836a06233681665,64dc7e82e8f6a3b22cc4935f,,,,,,,ctch,resources/DP.BMP,resources/DG.BMP,Door3,-0.310185185,0,1,0,0,0.7976,optionLeft,70,13135,6,25,0,25,0,1,,,,,,,,,,,,,,,,,,,,,,,,,,,,,,,,,,,,,,,
,,,,,,,,2023-08-16_08h45.25.090,HF_wild_card,2022.2.4,Win32,144.0299582,62b722b5892044fe80d8bdcb,64d2fd46c836a06233681665,64dc7e82e8f6a3b22cc4935f,,,,,,,sngl,resources/DR.BMP,resources/Empty.png,Door1,-0.473148148,0.00462963,1,0,0,0.7837,optionLeft,30,13165,6,26,0,26,0,1,,,,,,,,,,,,,,,,,,,,,,,,,,,,,,,,,,,,,,,
,,,,,,,,2023-08-16_08h45.25.090,HF_wild_card,2022.2.4,Win32,144.0299582,62b722b5892044fe80d8bdcb,64d2fd46c836a06233681665,64dc7e82e8f6a3b22cc4935f,,,,,,,decisionTrl,resources/DY.BMP,resources/DG.BMP,WildCard_NonEx,-0.296296296,-0.003703704,1,0,0,1.034,optionLeft,45,13210,6,27,0,27,0,1,,,,,,,,,,,,,,,,,,,,,,,,,,,,,,,,,,,,,,,
,,,,,,,,2023-08-16_08h45.25.090,HF_wild_card,2022.2.4,Win32,144.0299582,62b722b5892044fe80d8bdcb,64d2fd46c836a06233681665,64dc7e82e8f6a3b22cc4935f,,,,,,,decisionTrl,resources/DB.BMP,resources/DP.BMP,Door4,-0.333333333,-0.010185185,1,0,0,0.9087,optionLeft,80,13290,6,28,0,28,0,1,,,,,,,,,,,,,,,,,,,,,,,,,,,,,,,,,,,,,,,
,,,,,,,,2023-08-16_08h45.25.090,HF_wild_card,2022.2.4,Win32,144.0299582,62b722b5892044fe80d8bdcb,64d2fd46c836a06233681665,64dc7e82e8f6a3b22cc4935f,,,,,,,sngl,resources/DY.BMP,resources/Empty.png,WildCard_NonEx,-0.280555556,-0.002777778,1,0,0,0.7145,optionLeft,55,13345,6,29,0,29,0,1,,,,,,,,,,,,,,,,,,,,,,,,,,,,,,,,,,,,,,,
,,,,,,,,2023-08-16_08h45.25.090,HF_wild_card,2022.2.4,Win32,144.0299582,62b722b5892044fe80d8bdcb,64d2fd46c836a06233681665,64dc7e82e8f6a3b22cc4935f,,,,,,,ctch,resources/DR.BMP,resources/DB.BMP,Door4,0.373148148,-0.025925926,1,0,0,0.6724,optionRight,80,13425,6,30,0,30,0,1,,,,,,,,,,,,,,,,,,,,,,,,,,,,,,,,,,,,,,,
,,,,,,,,2023-08-16_08h45.25.090,HF_wild_card,2022.2.4,Win32,144.0299582,62b722b5892044fe80d8bdcb,64d2fd46c836a06233681665,64dc7e82e8f6a3b22cc4935f,,,,,,,decisionTrl,resources/DG.BMP,resources/DR.BMP,Door2,-0.302777778,-0.006481481,1,0,0,0.9019,optionLeft,40,13465,6,31,0,31,0,1,,,,,,,,,,,,,,,,,,,,,,,,,,,,,,,,,,,,,,,
,,,,,,,,2023-08-16_08h45.25.090,HF_wild_card,2022.2.4,Win32,144.0299582,62b722b5892044fe80d8bdcb,64d2fd46c836a06233681665,64dc7e82e8f6a3b22cc4935f,,,,,,,sngl,resources/Empty.png,resources/DB.BMP,Door4,0.299074074,-0.012037037,1,0,0,0.6102,optionRight,80,13545,6,32,0,32,0,1,,,,,,,,,,,,,,,,,,,,,,,,,,,,,,,,,,,,,,,
,,,,,,,,2023-08-16_08h45.25.090,HF_wild_card,2022.2.4,Win32,144.0299582,62b722b5892044fe80d8bdcb,64d2fd46c836a06233681665,64dc7e82e8f6a3b22cc4935f,,,,,,,decisionTrl,resources/DP.BMP,resources/DY.BMP,Door3,-0.297222222,-0.008333333,1,0,0,0.9573,optionLeft,70,13615,6,33,0,33,0,1,,,,,,,,,,,,,,,,,,,,,,,,,,,,,,,,,,,,,,,
,,,,,,,,2023-08-16_08h45.25.090,HF_wild_card,2022.2.4,Win32,144.0299582,62b722b5892044fe80d8bdcb,64d2fd46c836a06233681665,64dc7e82e8f6a3b22cc4935f,,,,,,,decisionTrl,resources/DB.BMP,resources/DP.BMP,Door4,-0.281481481,-0.011111111,1,0,0,0.8256,optionLeft,60,13675,6,34,0,34,0,1,,,,,,,,,,,,,,,,,,,,,,,,,,,,,,,,,,,,,,,
,,,,,,,,2023-08-16_08h45.25.090,HF_wild_card,2022.2.4,Win32,144.0299582,62b722b5892044fe80d8bdcb,64d2fd46c836a06233681665,64dc7e82e8f6a3b22cc4935f,,,,,,,sngl,resources/Empty.png,resources/DY.BMP,WildCard_NonEx,0.323148148,-0.010185185,1,0,0,0.7491,optionRight,45,13720,6,35,0,35,0,1,,,,,,,,,,,,,,,,,,,,,,,,,,,,,,,,,,,,,,,
,,,,,,,,2023-08-16_08h45.25.090,HF_wild_card,2022.2.4,Win32,144.0299582,62b722b5892044fe80d8bdcb,64d2fd46c836a06233681665,64dc7e82e8f6a3b22cc4935f,,,,,,,ctch,resources/DR.BMP,resources/DB.BMP,Door4,0.344444444,-0.019444444,1,0,0,0.7144,optionRight,80,13800,6,36,0,36,0,1,,,,,,,,,,,,,,,,,,,,,,,,,,,,,,,,,,,,,,,
,,,,,,,,2023-08-16_08h45.25.090,HF_wild_card,2022.2.4,Win32,144.0299582,62b722b5892044fe80d8bdcb,64d2fd46c836a06233681665,64dc7e82e8f6a3b22cc4935f,,,,,,,sngl,resources/DP.BMP,resources/Empty.png,Door3,-0.284259259,-0.008333333,1,0,0,0.5895,optionLeft,70,13870,6,37,0,37,0,1,,,,,,,,,,,,,,,,,,,,,,,,,,,,,,,,,,,,,,,
,,,,,,,,2023-08-16_08h45.25.090,HF_wild_card,2022.2.4,Win32,144.0299582,62b722b5892044fe80d8bdcb,64d2fd46c836a06233681665,64dc7e82e8f6a3b22cc4935f,,,,,,,sngl,resources/DB.BMP,resources/Empty.png,Door4,-0.293518519,-0.000925926,1,0,0,0.6658,optionLeft,60,13930,6,38,0,38,0,1,,,,,,,,,,,,,,,,,,,,,,,,,,,,,,,,,,,,,,,
,,,,,,,,2023-08-16_08h45.25.090,HF_wild_card,2022.2.4,Win32,144.0299582,62b722b5892044fe80d8bdcb,64d2fd46c836a06233681665,64dc7e82e8f6a3b22cc4935f,,,,,,,decisionTrl,resources/DR.BMP,resources/DG.BMP,Door2,0.352777778,-0.018518519,1,0,0,0.7282,optionRight,20,13950,6,39,0,39,0,1,,,,,,,,,,,,,,,,,,,,,,,,,,,,,,,,,,,,,,,
,,,,,,,,2023-08-16_08h45.25.090,HF_wild_card,2022.2.4,Win32,144.0299582,62b722b5892044fe80d8bdcb,64d2fd46c836a06233681665,64dc7e82e8f6a3b22cc4935f,,,,,,,sngl,resources/DY.BMP,resources/Empty.png,WildCard_NonEx,-0.253703704,-0.002777778,1,0,0,0.6796,optionLeft,45,13995,6,40,0,40,0,1,,,,,,,,,,,,,,,,,,,,,,,,,,,,,,,,,,,,,,,
,,,,,,,,2023-08-16_08h45.25.090,HF_wild_card,2022.2.4,Win32,144.0299582,62b722b5892044fe80d8bdcb,64d2fd46c836a06233681665,64dc7e82e8f6a3b22cc4935f,,,,,,,decisionTrl,resources/DR.BMP,resources/DG.BMP,Door2,0.4,-0.010185185,1,0,0,1.2699,optionRight,40,14035,6,41,0,41,0,1,,,,,,,,,,,,,,,,,,,,,,,,,,,,,,,,,,,,,,,
,,,,,,,,2023-08-16_08h45.25.090,HF_wild_card,2022.2.4,Win32,144.0299582,62b722b5892044fe80d8bdcb,64d2fd46c836a06233681665,64dc7e82e8f6a3b22cc4935f,,,,,,,decisionTrl,resources/DP.BMP,resources/DB.BMP,Door4,0.317592593,-0.022222222,1,0,0,0.7283,optionRight,80,14115,6,42,0,42,0,1,,,,,,,,,,,,,,,,,,,,,,,,,,,,,,,,,,,,,,,
,,,,,,,,2023-08-16_08h45.25.090,HF_wild_card,2022.2.4,Win32,144.0299582,62b722b5892044fe80d8bdcb,64d2fd46c836a06233681665,64dc7e82e8f6a3b22cc4935f,,,,,,,decisionTrl,resources/DG.BMP,resources/DR.BMP,Door2,-0.318518519,-0.022222222,1,0,0,1.4854,optionLeft,20,14135,6,43,0,43,0,1,,,,,,,,,,,,,,,,,,,,,,,,,,,,,,,,,,,,,,,
,,,,,,,,2023-08-16_08h45.25.090,HF_wild_card,2022.2.4,Win32,144.0299582,62b722b5892044fe80d8bdcb,64d2fd46c836a06233681665,64dc7e82e8f6a3b22cc4935f,,,,,,,,,,,,,,,,,,,,,,,,,,5,0,5,0,1,,,,,,,,,,,,,,,,,,,,,,,,,,,,,,,,,,
,,,,,,,,2023-08-16_08h45.25.090,HF_wild_card,2022.2.4,Win32,144.0299582,62b722b5892044fe80d8bdcb,64d2fd46c836a06233681665,64dc7e82e8f6a3b22cc4935f,,,,,,,decisionTrl,resources/DG.BMP,resources/DR.BMP,Door2,-0.313888889,-0.035185185,1,0,0,1.1043,optionLeft,20,14155,7,0,0,0,0,1,,,,,,,,,,,,,,,,,,,,,,,,,,,,,,,,,,,,,,,
,,,,,,,,2023-08-16_08h45.25.090,HF_wild_card,2022.2.4,Win32,144.0299582,62b722b5892044fe80d8bdcb,64d2fd46c836a06233681665,64dc7e82e8f6a3b22cc4935f,,,,,,,decisionTrl,resources/DP.BMP,resources/DB.BMP,Door4,0.369444444,-0.024074074,1,0,0,0.8259,optionRight,60,14215,7,1,0,1,0,1,,,,,,,,,,,,,,,,,,,,,,,,,,,,,,,,,,,,,,,
,,,,,,,,2023-08-16_08h45.25.090,HF_wild_card,2022.2.4,Win32,144.0299582,62b722b5892044fe80d8bdcb,64d2fd46c836a06233681665,64dc7e82e8f6a3b22cc4935f,,,,,,,ctch,resources/DB.BMP,resources/DR.BMP,Door4,-0.324074074,-0.024074074,1,0,0,0.6245,optionLeft,80,14295,7,2,0,2,0,1,,,,,,,,,,,,,,,,,,,,,,,,,,,,,,,,,,,,,,,
,,,,,,,,2023-08-16_08h45.25.090,HF_wild_card,2022.2.4,Win32,144.0299582,62b722b5892044fe80d8bdcb,64d2fd46c836a06233681665,64dc7e82e8f6a3b22cc4935f,,,,,,,ctch,resources/DR.BMP,resources/DB.BMP,Door4,0.435185185,-0.003703704,1,0,0,0.6106,optionRight,80,14375,7,3,0,3,0,1,,,,,,,,,,,,,,,,,,,,,,,,,,,,,,,,,,,,,,,
,,,,,,,,2023-08-16_08h45.25.090,HF_wild_card,2022.2.4,Win32,144.0299582,62b722b5892044fe80d8bdcb,64d2fd46c836a06233681665,64dc7e82e8f6a3b22cc4935f,,,,,,,decisionTrl,resources/DP.BMP,resources/DB.BMP,Door4,0.325,-0.011111111,1,0,0,1.3816,optionRight,80,14455,7,4,0,4,0,1,,,,,,,,,,,,,,,,,,,,,,,,,,,,,,,,,,,,,,,
,,,,,,,,2023-08-16_08h45.25.090,HF_wild_card,2022.2.4,Win32,144.0299582,62b722b5892044fe80d8bdcb,64d2fd46c836a06233681665,64dc7e82e8f6a3b22cc4935f,,,,,,,decisionTrl,resources/DP.BMP,resources/DB.BMP,Door4,0.315740741,-0.014814815,1,0,0,0.7288,optionRight,60,14515,7,5,0,5,0,1,,,,,,,,,,,,,,,,,,,,,,,,,,,,,,,,,,,,,,,
,,,,,,,,2023-08-16_08h45.25.090,HF_wild_card,2022.2.4,Win32,144.0299582,62b722b5892044fe80d8bdcb,64d2fd46c836a06233681665,64dc7e82e8f6a3b22cc4935f,,,,,,,ctch,resources/DP.BMP,resources/DG.BMP,Door3,-0.309259259,-0.006481481,1,0,0,0.8955,optionLeft,70,14585,7,6,0,6,0,1,,,,,,,,,,,,,,,,,,,,,,,,,,,,,,,,,,,,,,,
,,,,,,,,2023-08-16_08h45.25.090,HF_wild_card,2022.2.4,Win32,144.0299582,62b722b5892044fe80d8bdcb,64d2fd46c836a06233681665,64dc7e82e8f6a3b22cc4935f,,,,,,,ctch,resources/DR.BMP,resources/DB.BMP,Door4,0.288888889,-0.006481481,1,0,0,0.5619,optionRight,60,14645,7,7,0,7,0,1,,,,,,,,,,,,,,,,,,,,,,,,,,,,,,,,,,,,,,,
,,,,,,,,2023-08-16_08h45.25.090,HF_wild_card,2022.2.4,Win32,144.0299582,62b722b5892044fe80d8bdcb,64d2fd46c836a06233681665,64dc7e82e8f6a3b22cc4935f,,,,,,,ctch,resources/DG.BMP,resources/DP.BMP,Door3,0.383333333,-0.012037037,1,0,0,1.2495,optionRight,70,14715,7,8,0,8,0,1,,,,,,,,,,,,,,,,,,,,,,,,,,,,,,,,,,,,,,,
,,,,,,,,2023-08-16_08h45.25.090,HF_wild_card,2022.2.4,Win32,144.0299582,62b722b5892044fe80d8bdcb,64d2fd46c836a06233681665,64dc7e82e8f6a3b22cc4935f,,,,,,,decisionTrl,resources/DB.BMP,resources/DP.BMP,Door4,-0.326851852,-0.022222222,1,0,0,1.2148,optionLeft,80,14795,7,9,0,9,0,1,,,,,,,,,,,,,,,,,,,,,,,,,,,,,,,,,,,,,,,
,,,,,,,,2023-08-16_08h45.25.090,HF_wild_card,2022.2.4,Win32,144.0299582,62b722b5892044fe80d8bdcb,64d2fd46c836a06233681665,64dc7e82e8f6a3b22cc4935f,,,,,,,decisionTrl,resources/DG.BMP,resources/DR.BMP,Door2,-0.353703704,-0.016666667,1,0,0,0.8954,optionLeft,40,14835,7,10,0,10,0,1,,,,,,,,,,,,,,,,,,,,,,,,,,,,,,,,,,,,,,,
,,,,,,,,2023-08-16_08h45.25.090,HF_wild_card,2022.2.4,Win32,144.0299582,62b722b5892044fe80d8bdcb,64d2fd46c836a06233681665,64dc7e82e8f6a3b22cc4935f,,,,,,,decisionTrl,resources/DG.BMP,resources/DR.BMP,Door2,-0.299074074,-0.015740741,1,0,0,0.9718,optionLeft,40,14875,7,11,0,11,0,1,,,,,,,,,,,,,,,,,,,,,,,,,,,,,,,,,,,,,,,
,,,,,,,,2023-08-16_08h45.25.090,HF_wild_card,2022.2.4,Win32,144.0299582,62b722b5892044fe80d8bdcb,64d2fd46c836a06233681665,64dc7e82e8f6a3b22cc4935f,,,,,,,decisionTrl,resources/DG.BMP,resources/DR.BMP,Door2,-0.287037037,-0.016666667,1,0,0,0.6734,optionLeft,20,14895,7,12,0,12,0,1,,,,,,,,,,,,,,,,,,,,,,,,,,,,,,,,,,,,,,,
,,,,,,,,2023-08-16_08h45.25.090,HF_wild_card,2022.2.4,Win32,144.0299582,62b722b5892044fe80d8bdcb,64d2fd46c836a06233681665,64dc7e82e8f6a3b22cc4935f,,,,,,,decisionTrl,resources/DB.BMP,resources/DP.BMP,Door4,-0.30462963,-0.019444444,1,0,0,0.9441,optionLeft,80,14975,7,13,0,13,0,1,,,,,,,,,,,,,,,,,,,,,,,,,,,,,,,,,,,,,,,
,,,,,,,,2023-08-16_08h45.25.090,HF_wild_card,2022.2.4,Win32,144.0299582,62b722b5892044fe80d8bdcb,64d2fd46c836a06233681665,64dc7e82e8f6a3b22cc4935f,,,,,,,decisionTrl,resources/DR.BMP,resources/DG.BMP,Door2,0.366666667,-0.017592593,1,0,0,1.1455,optionRight,20,14995,7,14,0,14,0,1,,,,,,,,,,,,,,,,,,,,,,,,,,,,,,,,,,,,,,,
,,,,,,,,2023-08-16_08h45.25.090,HF_wild_card,2022.2.4,Win32,144.0299582,62b722b5892044fe80d8bdcb,64d2fd46c836a06233681665,64dc7e82e8f6a3b22cc4935f,,,,,,,ctch,resources/DP.BMP,resources/DG.BMP,Door3,-0.301851852,-0.019444444,1,0,0,0.944,optionLeft,70,15065,7,15,0,15,0,1,,,,,,,,,,,,,,,,,,,,,,,,,,,,,,,,,,,,,,,
,,,,,,,,2023-08-16_08h45.25.090,HF_wild_card,2022.2.4,Win32,144.0299582,62b722b5892044fe80d8bdcb,64d2fd46c836a06233681665,64dc7e82e8f6a3b22cc4935f,,,,,,,ctch,resources/DB.BMP,resources/DR.BMP,Door4,-0.284259259,-0.014814815,1,0,0,0.7495,optionLeft,80,15145,7,16,0,16,0,1,,,,,,,,,,,,,,,,,,,,,,,,,,,,,,,,,,,,,,,
,,,,,,,,2023-08-16_08h45.25.090,HF_wild_card,2022.2.4,Win32,144.0299582,62b722b5892044fe80d8bdcb,64d2fd46c836a06233681665,64dc7e82e8f6a3b22cc4935f,,,,,,,decisionTrl,resources/DP.BMP,resources/DB.BMP,Door4,0.348148148,-0.015740741,1,0,0,0.708,optionRight,60,15205,7,17,0,17,0,1,,,,,,,,,,,,,,,,,,,,,,,,,,,,,,,,,,,,,,,
,,,,,,,,2023-08-16_08h45.25.090,HF_wild_card,2022.2.4,Win32,144.0299582,62b722b5892044fe80d8bdcb,64d2fd46c836a06233681665,64dc7e82e8f6a3b22cc4935f,,,,,,,ctch,resources/DR.BMP,resources/DB.BMP,Door4,0.311111111,-0.009259259,1,0,0,0.7775,optionRight,80,15285,7,18,0,18,0,1,,,,,,,,,,,,,,,,,,,,,,,,,,,,,,,,,,,,,,,
,,,,,,,,2023-08-16_08h45.25.090,HF_wild_card,2022.2.4,Win32,144.0299582,62b722b5892044fe80d8bdcb,64d2fd46c836a06233681665,64dc7e82e8f6a3b22cc4935f,,,,,,,decisionTrl,resources/DR.BMP,resources/DG.BMP,Door2,0.375,-0.00462963,1,0,0,1.3676,optionRight,20,15305,7,19,0,19,0,1,,,,,,,,,,,,,,,,,,,,,,,,,,,,,,,,,,,,,,,
,,,,,,,,2023-08-16_08h45.25.090,HF_wild_card,2022.2.4,Win32,144.0299582,62b722b5892044fe80d8bdcb,64d2fd46c836a06233681665,64dc7e82e8f6a3b22cc4935f,,,,,,,decisionTrl,resources/DR.BMP,resources/DG.BMP,Door2,0.391666667,-0.009259259,1,0,0,0.9718,optionRight,40,15345,7,20,0,20,0,1,,,,,,,,,,,,,,,,,,,,,,,,,,,,,,,,,,,,,,,
,,,,,,,,2023-08-16_08h45.25.090,HF_wild_card,2022.2.4,Win32,144.0299582,62b722b5892044fe80d8bdcb,64d2fd46c836a06233681665,64dc7e82e8f6a3b22cc4935f,,,,,,,decisionTrl,resources/DB.BMP,resources/DP.BMP,Door4,-0.29537037,-0.011111111,1,0,0,0.7148,optionLeft,60,15405,7,21,0,21,0,1,,,,,,,,,,,,,,,,,,,,,,,,,,,,,,,,,,,,,,,
,,,,,,,,2023-08-16_08h45.25.090,HF_wild_card,2022.2.4,Win32,144.0299582,62b722b5892044fe80d8bdcb,64d2fd46c836a06233681665,64dc7e82e8f6a3b22cc4935f,,,,,,,decisionTrl,resources/DG.BMP,resources/DR.BMP,Door2,-0.283333333,-0.009259259,1,0,0,0.7704,optionLeft,40,15445,7,22,0,22,0,1,,,,,,,,,,,,,,,,,,,,,,,,,,,,,,,,,,,,,,,
,,,,,,,,2023-08-16_08h45.25.090,HF_wild_card,2022.2.4,Win32,144.0299582,62b722b5892044fe80d8bdcb,64d2fd46c836a06233681665,64dc7e82e8f6a3b22cc4935f,,,,,,,decisionTrl,resources/DP.BMP,resources/DB.BMP,Door4,0.359259259,-0.010185185,1,0,0,0.6038,optionRight,80,15525,7,23,0,23,0,1,,,,,,,,,,,,,,,,,,,,,,,,,,,,,,,,,,,,,,,
,,,,,,,,2023-08-16_08h45.25.090,HF_wild_card,2022.2.4,Win32,144.0299582,62b722b5892044fe80d8bdcb,64d2fd46c836a06233681665,64dc7e82e8f6a3b22cc4935f,,,,,,,decisionTrl,resources/DR.BMP,resources/DG.BMP,Door2,0.392592593,-0.001851852,1,0,0,1.2636,optionRight,40,15565,7,24,0,24,0,1,,,,,,,,,,,,,,,,,,,,,,,,,,,,,,,,,,,,,,,
,,,,,,,,2023-08-16_08h45.25.090,HF_wild_card,2022.2.4,Win32,144.0299582,62b722b5892044fe80d8bdcb,64d2fd46c836a06233681665,64dc7e82e8f6a3b22cc4935f,,,,,,,decisionTrl,resources/DB.BMP,resources/DP.BMP,Door4,-0.34537037,-0.014814815,1,0,0,1.0273,optionLeft,80,15645,7,25,0,25,0,1,,,,,,,,,,,,,,,,,,,,,,,,,,,,,,,,,,,,,,,
,,,,,,,,2023-08-16_08h45.25.090,HF_wild_card,2022.2.4,Win32,144.0299582,62b722b5892044fe80d8bdcb,64d2fd46c836a06233681665,64dc7e82e8f6a3b22cc4935f,,,,,,,decisionTrl,resources/DR.BMP,resources/DG.BMP,Door2,0.299074074,-0.021296296,1,0,0,0.7148,optionRight,40,15685,7,26,0,26,0,1,,,,,,,,,,,,,,,,,,,,,,,,,,,,,,,,,,,,,,,
,,,,,,,,2023-08-16_08h45.25.090,HF_wild_card,2022.2.4,Win32,144.0299582,62b722b5892044fe80d8bdcb,64d2fd46c836a06233681665,64dc7e82e8f6a3b22cc4935f,,,,,,,ctch,resources/DG.BMP,resources/DP.BMP,Door3,0.330555556,-0.018518519,1,0,0,0.708,optionRight,70,15755,7,27,0,27,0,1,,,,,,,,,,,,,,,,,,,,,,,,,,,,,,,,,,,,,,,
,,,,,,,,2023-08-16_08h45.25.090,HF_wild_card,2022.2.4,Win32,144.0299582,62b722b5892044fe80d8bdcb,64d2fd46c836a06233681665,64dc7e82e8f6a3b22cc4935f,,,,,,,ctch,resources/DB.BMP,resources/DR.BMP,Door4,-0.359259259,0.000925926,1,0,0,0.8536,optionLeft,60,15815,7,28,0,28,0,1,,,,,,,,,,,,,,,,,,,,,,,,,,,,,,,,,,,,,,,
,,,,,,,,2023-08-16_08h45.25.090,HF_wild_card,2022.2.4,Win32,144.0299582,62b722b5892044fe80d8bdcb,64d2fd46c836a06233681665,64dc7e82e8f6a3b22cc4935f,,,,,,,decisionTrl,resources/DG.BMP,resources/DR.BMP,Door2,-0.252777778,-0.006481481,1,0,0,0.9092,optionLeft,20,15835,7,29,0,29,0,1,,,,,,,,,,,,,,,,,,,,,,,,,,,,,,,,,,,,,,,
,,,,,,,,2023-08-16_08h45.25.090,HF_wild_card,2022.2.4,Win32,144.0299582,62b722b5892044fe80d8bdcb,64d2fd46c836a06233681665,64dc7e82e8f6a3b22cc4935f,,,,,,,decisionTrl,resources/DB.BMP,resources/DP.BMP,Door4,-0.27962963,-0.017592593,1,0,0,0.9788,optionLeft,80,15915,7,30,0,30,0,1,,,,,,,,,,,,,,,,,,,,,,,,,,,,,,,,,,,,,,,
,,,,,,,,2023-08-16_08h45.25.090,HF_wild_card,2022.2.4,Win32,144.0299582,62b722b5892044fe80d8bdcb,64d2fd46c836a06233681665,64dc7e82e8f6a3b22cc4935f,,,,,,,ctch,resources/DP.BMP,resources/DG.BMP,Door3,-0.325,-0.010185185,1,0,0,0.7703,optionLeft,70,15985,7,31,0,31,0,1,,,,,,,,,,,,,,,,,,,,,,,,,,,,,,,,,,,,,,,
,,,,,,,,2023-08-16_08h45.25.090,HF_wild_card,2022.2.4,Win32,144.0299582,62b722b5892044fe80d8bdcb,64d2fd46c836a06233681665,64dc7e82e8f6a3b22cc4935f,,,,,,,decisionTrl,resources/DP.BMP,resources/DB.BMP,Door4,0.314814815,-0.014814815,1,0,0,0.9511,optionRight,80,16065,7,32,0,32,0,1,,,,,,,,,,,,,,,,,,,,,,,,,,,,,,,,,,,,,,,
,,,,,,,,2023-08-16_08h45.25.090,HF_wild_card,2022.2.4,Win32,144.0299582,62b722b5892044fe80d8bdcb,64d2fd46c836a06233681665,64dc7e82e8f6a3b22cc4935f,,,,,,,decisionTrl,resources/DR.BMP,resources/DG.BMP,Door2,0.300925926,-0.011111111,1,0,0,1.0411,optionRight,40,16105,7,33,0,33,0,1,,,,,,,,,,,,,,,,,,,,,,,,,,,,,,,,,,,,,,,
,,,,,,,,2023-08-16_08h45.25.090,HF_wild_card,2022.2.4,Win32,144.0299582,62b722b5892044fe80d8bdcb,64d2fd46c836a06233681665,64dc7e82e8f6a3b22cc4935f,,,,,,,ctch,resources/DG.BMP,resources/DP.BMP,Door3,0.322222222,-0.031481481,1,0,0,0.7704,optionRight,70,16175,7,34,0,34,0,1,,,,,,,,,,,,,,,,,,,,,,,,,,,,,,,,,,,,,,,
,,,,,,,,2023-08-16_08h45.25.090,HF_wild_card,2022.2.4,Win32,144.0299582,62b722b5892044fe80d8bdcb,64d2fd46c836a06233681665,64dc7e82e8f6a3b22cc4935f,,,,,,,decisionTrl,resources/DB.BMP,resources/DP.BMP,Door4,-0.318518519,-0.026851852,1,0,0,1.2148,optionLeft,80,16255,7,35,0,35,0,1,,,,,,,,,,,,,,,,,,,,,,,,,,,,,,,,,,,,,,,
,,,,,,,,2023-08-16_08h45.25.090,HF_wild_card,2022.2.4,Win32,144.0299582,62b722b5892044fe80d8bdcb,64d2fd46c836a06233681665,64dc7e82e8f6a3b22cc4935f,,,,,,,,,,,,,,,,,,,,,,,,,,6,0,6,0,1,,,,,,,,,,,,,,,,,,,,,,,,,,,,,,,,,,
,,,,,,,,2023-08-16_08h45.25.090,HF_wild_card,2022.2.4,Win32,144.0299582,62b722b5892044fe80d8bdcb,64d2fd46c836a06233681665,64dc7e82e8f6a3b22cc4935f,,,,,,,,,,,,,,,,,,,,,,,,,,,,,,,4,,,,,,,,,,,,,,,,,,,,,,,,,,,,,,,,,
,,,,,,,,2023-08-16_08h45.25.090,HF_wild_card,2022.2.4,Win32,144.0299582,62b722b5892044fe80d8bdcb,64d2fd46c836a06233681665,64dc7e82e8f6a3b22cc4935f,,,,,,,,,,,,,,,,,,,,,,,,,,,,,,,,,,,,,,,,,,,,,,,,,,,,,,,,,,,,,,,,
,,,,,,,,2023-08-16_08h45.25.090,HF_wild_card,2022.2.4,Win32,144.0299582,62b722b5892044fe80d8bdcb,64d2fd46c836a06233681665,64dc7e82e8f6a3b22cc4935f,,,,,,,,,,,,,,,,,,,,,,,,,,,,,,,,60,Door4,resources/DB.BMP,0,0,0,0,1,,,,,,,,,,,,,,,,,,,,,,,,,
,,,,,,,,2023-08-16_08h45.25.090,HF_wild_card,2022.2.4,Win32,144.0299582,62b722b5892044fe80d8bdcb,64d2fd46c836a06233681665,64dc7e82e8f6a3b22cc4935f,,,,,,,,,,,,,,,,,,,,,,,,,,,,,,,,60,WC_nonExtreme,resources/DY.BMP,1,0,1,0,1,,,,,,,,,,,,,,,,,,,,,,,,,
,,,,,,,,2023-08-16_08h45.25.090,HF_wild_card,2022.2.4,Win32,144.0299582,62b722b5892044fe80d8bdcb,64d2fd46c836a06233681665,64dc7e82e8f6a3b22cc4935f,,,,,,,,,,,,,,,,,,,,,,,,,,,,,,,,30,Door1,resources/DR.BMP,2,0,2,0,1,,,,,,,,,,,,,,,,,,,,,,,,,
,,,,,,,,2023-08-16_08h45.25.090,HF_wild_card,2022.2.4,Win32,144.0299582,62b722b5892044fe80d8bdcb,64d2fd46c836a06233681665,64dc7e82e8f6a3b22cc4935f,,,,,,,,,,,,,,,,,,,,,,,,,,,,,,,,70,Door3,resources/DP.BMP,3,0,3,0,1,,,,,,,,,,,,,,,,,,,,,,,,,
,,,,,,,,2023-08-16_08h45.25.090,HF_wild_card,2022.2.4,Win32,144.0299582,62b722b5892044fe80d8bdcb,64d2fd46c836a06233681665,64dc7e82e8f6a3b22cc4935f,,,,,,,,,,,,,,,,,,,,,,,,,,,,,,,,5,WC_extreme,resources/DBN.BMP,4,0,4,0,1,,,,,,,,,,,,,,,,,,,,,,,,,
,,,,,,,,2023-08-16_08h45.25.090,HF_wild_card,2022.2.4,Win32,144.0299582,62b722b5892044fe80d8bdcb,64d2fd46c836a06233681665,64dc7e82e8f6a3b22cc4935f,,,,,,,,,,,,,,,,,,,,,,,,,,,,,,,,20,Door2,resources/DG.BMP,5,0,5,0,1,,,,,,,,,,,,,,,,,,,,,,,,,
,,,,,,,,2023-08-16_08h45.25.090,HF_wild_card,2022.2.4,Win32,144.0299582,62b722b5892044fe80d8bdcb,64d2fd46c836a06233681665,64dc7e82e8f6a3b22cc4935f,,,,,,,,,,,,,,,,,,,,,,,,,,,,,,,,,,,,,,,,,,,,,,,,,,,,,,,,,,,,,,,,
,,,,,,,,2023-08-16_08h45.25.090,HF_wild_card,2022.2.4,Win32,144.0299582,62b722b5892044fe80d8bdcb,64d2fd46c836a06233681665,64dc7e82e8f6a3b22cc4935f,,,,,,,,,,,,,,,,,,,,,,,,,,,,,,,,,,,,,,,,0,0,0,0,1,,,,,,,,,,,,,,,,,,,,
