Condition,Low fixed image (Door1),Low risky image (Door2),High fixed image (Door3),High risky image (Door4),NonExtreme Wild Card 1,NonExtreme Wild Card 2,,date,expName,psychopyVersion,OS,frameRate,PROLIFIC_PID,STUDY_ID,SESSION_ID,mouse_2.x,mouse_2.y,mouse_2.leftButton,mouse_2.midButton,mouse_2.rightButton,mouse_2.clicked_name,Trial Type,Left Option Image,Right Option Image,Chosen Door,mouse.x,mouse.y,mouse.leftButton,mouse.midButton,mouse.rightButton,mouse.time,mouse.clicked_name,Feedback,Cumulative Reward,Block,trial.thisRepN,trial.thisTrialN,trial.thisN,trial.thisIndex,trial.ran,blocks.thisRepN,blocks.thisTrialN,blocks.thisN,blocks.thisIndex,blocks.ran,Money conversion,First Outcome Reported,Shown Door (First Outcome),Displayed Image (First Outcome),outcomes.thisRepN,outcomes.thisTrialN,outcomes.thisN,outcomes.thisIndex,outcomes.ran,judgments.thisRepN,judgments.thisTrialN,judgments.thisN,judgments.thisIndex,judgments.ran,freqMouse.x,freqMouse.y,freqMouse.leftButton,freqMouse.midButton,freqMouse.rightButton,freqMouse.clicked_name,FQJ for first outcome,FQJ for second outcome,Shown Door,Displayed Image,trials.thisRepN,trials.thisTrialN,trials.thisN,trials.thisIndex,trials.ran,judgBlock.thisRepN,judgBlock.thisTrialN,judgBlock.thisN,judgBlock.thisIndex,judgBlock.ran
2,resources/DB.BMP,resources/DG.BMP,resources/DBN.BMP,resources/DY.BMP,resources/DR.BMP,resources/DP.BMP,,2023-08-16_08h23.13.618,HF_wild_card,2022.2.4,MacIntel,120.0048002,603797db171365017caa15e5,64d2fd46c836a06233681665,64dc79572fd88853c1696268,,,,,,,,,,,,,,,,,,,,,,,,,,,,,,,,,,,,,,,,,,,,,,,,,,,,,,,,,,,,,,,,
,,,,,,,,2023-08-16_08h23.13.618,HF_wild_card,2022.2.4,MacIntel,120.0048002,603797db171365017caa15e5,64d2fd46c836a06233681665,64dc79572fd88853c1696268,-0.015693721,-0.420052083,1,0,0,agree,,,,,,,,,,,,,,,,,,,,,,,,,,,,,,,,,,,,,,,,,,,,,,,,,,,,,,,,,,
,,,,,,,,2023-08-16_08h23.13.618,HF_wild_card,2022.2.4,MacIntel,120.0048002,603797db171365017caa15e5,64d2fd46c836a06233681665,64dc79572fd88853c1696268,,,,,,,,,,,,,,,,,,,,,,,,,,,,,,,,,,,,,,,,,,,,,,,,,,,,,,,,,,,,,,,,
,,,,,,,,2023-08-16_08h23.13.618,HF_wild_card,2022.2.4,MacIntel,120.0048002,603797db171365017caa15e5,64d2fd46c836a06233681665,64dc79572fd88853c1696268,,,,,,,sngl,resources/DP.BMP,resources/Empty.png,WildCard_NonEx,-0.391948785,-0.100976563,1,0,0,6.6257,optionLeft,55,55,1,0,0,0,0,1,,,,,,,,,,,,,,,,,,,,,,,,,,,,,,,,,,,,,,,
,,,,,,,,2023-08-16_08h23.13.618,HF_wild_card,2022.2.4,MacIntel,120.0048002,603797db171365017caa15e5,64d2fd46c836a06233681665,64dc79572fd88853c1696268,,,,,,,decisionTrl,resources/DB.BMP,resources/DG.BMP,Door2,0.378815828,0.003942419,1,0,0,2.2145,optionRight,20,75,1,1,0,1,0,1,,,,,,,,,,,,,,,,,,,,,,,,,,,,,,,,,,,,,,,
,,,,,,,,2023-08-16_08h23.13.618,HF_wild_card,2022.2.4,MacIntel,120.0048002,603797db171365017caa15e5,64d2fd46c836a06233681665,64dc79572fd88853c1696268,,,,,,,decisionTrl,resources/DY.BMP,resources/DBN.BMP,Door3,0.348723235,-0.003164786,1,0,0,1.5136,optionRight,70,145,1,2,0,2,0,1,,,,,,,,,,,,,,,,,,,,,,,,,,,,,,,,,,,,,,,
,,,,,,,,2023-08-16_08h23.13.618,HF_wild_card,2022.2.4,MacIntel,120.0048002,603797db171365017caa15e5,64d2fd46c836a06233681665,64dc79572fd88853c1696268,,,,,,,ctch,resources/DG.BMP,resources/DBN.BMP,Door3,0.406535735,-0.003682002,1,0,0,2.1295,optionRight,70,215,1,3,0,3,0,1,,,,,,,,,,,,,,,,,,,,,,,,,,,,,,,,,,,,,,,
,,,,,,,,2023-08-16_08h23.13.618,HF_wild_card,2022.2.4,MacIntel,120.0048002,603797db171365017caa15e5,64d2fd46c836a06233681665,64dc79572fd88853c1696268,,,,,,,decisionTrl,resources/DG.BMP,resources/DP.BMP,WildCard_NonEx,0.325101273,-0.040332031,1,0,0,1.2997,optionRight,45,260,1,4,0,4,0,1,,,,,,,,,,,,,,,,,,,,,,,,,,,,,,,,,,,,,,,
,,,,,,,,2023-08-16_08h23.13.618,HF_wild_card,2022.2.4,MacIntel,120.0048002,603797db171365017caa15e5,64d2fd46c836a06233681665,64dc79572fd88853c1696268,,,,,,,decisionTrl,resources/DG.BMP,resources/DB.BMP,Door2,-0.221697772,-0.035930266,1,0,0,1.6723,optionLeft,20,280,1,5,0,5,0,1,,,,,,,,,,,,,,,,,,,,,,,,,,,,,,,,,,,,,,,
,,,,,,,,2023-08-16_08h23.13.618,HF_wild_card,2022.2.4,MacIntel,120.0048002,603797db171365017caa15e5,64d2fd46c836a06233681665,64dc79572fd88853c1696268,,,,,,,decisionTrl,resources/DP.BMP,resources/DBN.BMP,Door3,0.334447338,-0.040744358,1,0,0,1.4392,optionRight,70,350,1,6,0,6,0,1,,,,,,,,,,,,,,,,,,,,,,,,,,,,,,,,,,,,,,,
,,,,,,,,2023-08-16_08h23.13.618,HF_wild_card,2022.2.4,MacIntel,120.0048002,603797db171365017caa15e5,64d2fd46c836a06233681665,64dc79572fd88853c1696268,,,,,,,decisionTrl,resources/DBN.BMP,resources/DY.BMP,Door4,0.329448785,0.018659578,1,0,0,1.3225,optionRight,60,410,1,7,0,7,0,1,,,,,,,,,,,,,,,,,,,,,,,,,,,,,,,,,,,,,,,
,,,,,,,,2023-08-16_08h23.13.618,HF_wild_card,2022.2.4,MacIntel,120.0048002,603797db171365017caa15e5,64d2fd46c836a06233681665,64dc79572fd88853c1696268,,,,,,,decisionTrl,resources/DBN.BMP,resources/DY.BMP,Door3,-0.306770833,-0.022934751,1,0,0,0.7623,optionLeft,70,480,1,8,0,8,0,1,,,,,,,,,,,,,,,,,,,,,,,,,,,,,,,,,,,,,,,
,,,,,,,,2023-08-16_08h23.13.618,HF_wild_card,2022.2.4,MacIntel,120.0048002,603797db171365017caa15e5,64d2fd46c836a06233681665,64dc79572fd88853c1696268,,,,,,,ctch,resources/DBN.BMP,resources/DG.BMP,Door3,-0.275864439,-0.032371238,1,0,0,0.9998,optionLeft,70,550,1,9,0,9,0,1,,,,,,,,,,,,,,,,,,,,,,,,,,,,,,,,,,,,,,,
,,,,,,,,2023-08-16_08h23.13.618,HF_wild_card,2022.2.4,MacIntel,120.0048002,603797db171365017caa15e5,64d2fd46c836a06233681665,64dc79572fd88853c1696268,,,,,,,decisionTrl,resources/DP.BMP,resources/DB.BMP,Door1,0.318558304,-0.026298466,1,0,0,1.4207,optionRight,30,580,1,10,0,10,0,1,,,,,,,,,,,,,,,,,,,,,,,,,,,,,,,,,,,,,,,
,,,,,,,,2023-08-16_08h23.13.618,HF_wild_card,2022.2.4,MacIntel,120.0048002,603797db171365017caa15e5,64d2fd46c836a06233681665,64dc79572fd88853c1696268,,,,,,,decisionTrl,resources/DB.BMP,resources/DP.BMP,Door1,-0.368268953,-0.053414352,1,0,0,1.1808,optionLeft,30,610,1,11,0,11,0,1,,,,,,,,,,,,,,,,,,,,,,,,,,,,,,,,,,,,,,,
,,,,,,,,2023-08-16_08h23.13.618,HF_wild_card,2022.2.4,MacIntel,120.0048002,603797db171365017caa15e5,64d2fd46c836a06233681665,64dc79572fd88853c1696268,,,,,,,decisionTrl,resources/DBN.BMP,resources/DY.BMP,Door3,-0.36963614,-0.038592303,1,0,0,1.4668,optionLeft,70,680,1,12,0,12,0,1,,,,,,,,,,,,,,,,,,,,,,,,,,,,,,,,,,,,,,,
,,,,,,,,2023-08-16_08h23.13.618,HF_wild_card,2022.2.4,MacIntel,120.0048002,603797db171365017caa15e5,64d2fd46c836a06233681665,64dc79572fd88853c1696268,,,,,,,decisionTrl,resources/DBN.BMP,resources/DP.BMP,Door3,-0.301443142,-0.045880353,1,0,0,1.3974,optionLeft,70,750,1,13,0,13,0,1,,,,,,,,,,,,,,,,,,,,,,,,,,,,,,,,,,,,,,,
,,,,,,,,2023-08-16_08h23.13.618,HF_wild_card,2022.2.4,MacIntel,120.0048002,603797db171365017caa15e5,64d2fd46c836a06233681665,64dc79572fd88853c1696268,,,,,,,ctch,resources/DG.BMP,resources/DBN.BMP,Door3,0.316887297,-0.015303096,1,0,0,1.132,optionRight,70,820,1,14,0,14,0,1,,,,,,,,,,,,,,,,,,,,,,,,,,,,,,,,,,,,,,,
,,,,,,,,2023-08-16_08h23.13.618,HF_wild_card,2022.2.4,MacIntel,120.0048002,603797db171365017caa15e5,64d2fd46c836a06233681665,64dc79572fd88853c1696268,,,,,,,sngl,resources/Empty.png,resources/DG.BMP,Door2,0.400086806,0.019176794,1,0,0,1.5142,optionRight,20,840,1,15,0,15,0,1,,,,,,,,,,,,,,,,,,,,,,,,,,,,,,,,,,,,,,,
,,,,,,,,2023-08-16_08h23.13.618,HF_wild_card,2022.2.4,MacIntel,120.0048002,603797db171365017caa15e5,64d2fd46c836a06233681665,64dc79572fd88853c1696268,,,,,,,sngl,resources/DY.BMP,resources/Empty.png,Door4,-0.230197483,-0.017516638,1,0,0,0.7895,optionLeft,80,920,1,16,0,16,0,1,,,,,,,,,,,,,,,,,,,,,,,,,,,,,,,,,,,,,,,
,,,,,,,,2023-08-16_08h23.13.618,HF_wild_card,2022.2.4,MacIntel,120.0048002,603797db171365017caa15e5,64d2fd46c836a06233681665,64dc79572fd88853c1696268,,,,,,,sngl,resources/DB.BMP,resources/Empty.png,Door1,-0.187196181,-0.023719618,1,0,0,0.9972,optionLeft,30,950,1,17,0,17,0,1,,,,,,,,,,,,,,,,,,,,,,,,,,,,,,,,,,,,,,,
,,,,,,,,2023-08-16_08h23.13.618,HF_wild_card,2022.2.4,MacIntel,120.0048002,603797db171365017caa15e5,64d2fd46c836a06233681665,64dc79572fd88853c1696268,,,,,,,decisionTrl,resources/DG.BMP,resources/DB.BMP,Door1,0.358510561,0.021111834,1,0,0,1.2647,optionRight,30,980,1,18,0,18,0,1,,,,,,,,,,,,,,,,,,,,,,,,,,,,,,,,,,,,,,,
,,,,,,,,2023-08-16_08h23.13.618,HF_wild_card,2022.2.4,MacIntel,120.0048002,603797db171365017caa15e5,64d2fd46c836a06233681665,64dc79572fd88853c1696268,,,,,,,sngl,resources/Empty.png,resources/DY.BMP,Door4,0.333883102,0.044046586,1,0,0,0.7314,optionRight,60,1040,1,19,0,19,0,1,,,,,,,,,,,,,,,,,,,,,,,,,,,,,,,,,,,,,,,
,,,,,,,,2023-08-16_08h23.13.618,HF_wild_card,2022.2.4,MacIntel,120.0048002,603797db171365017caa15e5,64d2fd46c836a06233681665,64dc79572fd88853c1696268,,,,,,,ctch,resources/DY.BMP,resources/DB.BMP,Door4,-0.248336227,-0.00614511,1,0,0,0.6665,optionLeft,80,1120,1,20,0,20,0,1,,,,,,,,,,,,,,,,,,,,,,,,,,,,,,,,,,,,,,,
,,,,,,,,2023-08-16_08h23.13.618,HF_wild_card,2022.2.4,MacIntel,120.0048002,603797db171365017caa15e5,64d2fd46c836a06233681665,64dc79572fd88853c1696268,,,,,,,decisionTrl,resources/DBN.BMP,resources/DY.BMP,Door4,0.335322627,0.072319878,1,0,0,1.5548,optionRight,60,1180,1,21,0,21,0,1,,,,,,,,,,,,,,,,,,,,,,,,,,,,,,,,,,,,,,,
,,,,,,,,2023-08-16_08h23.13.618,HF_wild_card,2022.2.4,MacIntel,120.0048002,603797db171365017caa15e5,64d2fd46c836a06233681665,64dc79572fd88853c1696268,,,,,,,decisionTrl,resources/DG.BMP,resources/DB.BMP,Door1,0.303790509,0.023263889,1,0,0,1.0159,optionRight,30,1210,1,22,0,22,0,1,,,,,,,,,,,,,,,,,,,,,,,,,,,,,,,,,,,,,,,
,,,,,,,,2023-08-16_08h23.13.618,HF_wild_card,2022.2.4,MacIntel,120.0048002,603797db171365017caa15e5,64d2fd46c836a06233681665,64dc79572fd88853c1696268,,,,,,,ctch,resources/DY.BMP,resources/DB.BMP,Door4,-0.207855903,-0.0260489,1,0,0,1.1409,optionLeft,80,1290,1,23,0,23,0,1,,,,,,,,,,,,,,,,,,,,,,,,,,,,,,,,,,,,,,,
,,,,,,,,2023-08-16_08h23.13.618,HF_wild_card,2022.2.4,MacIntel,120.0048002,603797db171365017caa15e5,64d2fd46c836a06233681665,64dc79572fd88853c1696268,,,,,,,ctch,resources/DBN.BMP,resources/DG.BMP,Door3,-0.266384549,0.004061777,1,0,0,0.9482,optionLeft,70,1360,1,24,0,24,0,1,,,,,,,,,,,,,,,,,,,,,,,,,,,,,,,,,,,,,,,
,,,,,,,,2023-08-16_08h23.13.618,HF_wild_card,2022.2.4,MacIntel,120.0048002,603797db171365017caa15e5,64d2fd46c836a06233681665,64dc79572fd88853c1696268,,,,,,,decisionTrl,resources/DB.BMP,resources/DG.BMP,Door1,-0.210615596,-0.012311921,1,0,0,1.9453,optionLeft,30,1390,1,25,0,25,0,1,,,,,,,,,,,,,,,,,,,,,,,,,,,,,,,,,,,,,,,
,,,,,,,,2023-08-16_08h23.13.618,HF_wild_card,2022.2.4,MacIntel,120.0048002,603797db171365017caa15e5,64d2fd46c836a06233681665,64dc79572fd88853c1696268,,,,,,,decisionTrl,resources/DP.BMP,resources/DY.BMP,Door4,0.251888021,-0.029918981,1,0,0,1.9242,optionRight,80,1470,1,26,0,26,0,1,,,,,,,,,,,,,,,,,,,,,,,,,,,,,,,,,,,,,,,
,,,,,,,,2023-08-16_08h23.13.618,HF_wild_card,2022.2.4,MacIntel,120.0048002,603797db171365017caa15e5,64d2fd46c836a06233681665,64dc79572fd88853c1696268,,,,,,,decisionTrl,resources/DB.BMP,resources/DG.BMP,Door2,0.217039207,0.020681424,1,0,0,1.5799,optionRight,20,1490,1,27,0,27,0,1,,,,,,,,,,,,,,,,,,,,,,,,,,,,,,,,,,,,,,,
,,,,,,,,2023-08-16_08h23.13.618,HF_wild_card,2022.2.4,MacIntel,120.0048002,603797db171365017caa15e5,64d2fd46c836a06233681665,64dc79572fd88853c1696268,,,,,,,sngl,resources/Empty.png,resources/DP.BMP,WildCard_NonEx,0.252571615,0.042368345,1,0,0,0.7251,optionRight,55,1545,1,28,0,28,0,1,,,,,,,,,,,,,,,,,,,,,,,,,,,,,,,,,,,,,,,
,,,,,,,,2023-08-16_08h23.13.618,HF_wild_card,2022.2.4,MacIntel,120.0048002,603797db171365017caa15e5,64d2fd46c836a06233681665,64dc79572fd88853c1696268,,,,,,,decisionTrl,resources/DY.BMP,resources/DP.BMP,Door4,-0.193359375,-0.017621528,1,0,0,1.0845,optionLeft,80,1625,1,29,0,29,0,1,,,,,,,,,,,,,,,,,,,,,,,,,,,,,,,,,,,,,,,
,,,,,,,,2023-08-16_08h23.13.618,HF_wild_card,2022.2.4,MacIntel,120.0048002,603797db171365017caa15e5,64d2fd46c836a06233681665,64dc79572fd88853c1696268,,,,,,,sngl,resources/DG.BMP,resources/Empty.png,Door2,-0.113516348,-0.024634693,1,0,0,1.1228,optionLeft,40,1665,1,30,0,30,0,1,,,,,,,,,,,,,,,,,,,,,,,,,,,,,,,,,,,,,,,
,,,,,,,,2023-08-16_08h23.13.618,HF_wild_card,2022.2.4,MacIntel,120.0048002,603797db171365017caa15e5,64d2fd46c836a06233681665,64dc79572fd88853c1696268,,,,,,,sngl,resources/Empty.png,resources/DP.BMP,WildCard_NonEx,0.331622541,0.006568287,1,0,0,0.6899,optionRight,45,1710,1,31,0,31,0,1,,,,,,,,,,,,,,,,,,,,,,,,,,,,,,,,,,,,,,,
,,,,,,,,2023-08-16_08h23.13.618,HF_wild_card,2022.2.4,MacIntel,120.0048002,603797db171365017caa15e5,64d2fd46c836a06233681665,64dc79572fd88853c1696268,,,,,,,sngl,resources/Empty.png,resources/DBN.BMP,Door3,0.271969039,0.036747685,1,0,0,0.698,optionRight,70,1780,1,32,0,32,0,1,,,,,,,,,,,,,,,,,,,,,,,,,,,,,,,,,,,,,,,
,,,,,,,,2023-08-16_08h23.13.618,HF_wild_card,2022.2.4,MacIntel,120.0048002,603797db171365017caa15e5,64d2fd46c836a06233681665,64dc79572fd88853c1696268,,,,,,,decisionTrl,resources/DP.BMP,resources/DG.BMP,WildCard_NonEx,-0.181637008,0.000325521,1,0,0,2.1474,optionLeft,45,1825,1,33,0,33,0,1,,,,,,,,,,,,,,,,,,,,,,,,,,,,,,,,,,,,,,,
,,,,,,,,2023-08-16_08h23.13.618,HF_wild_card,2022.2.4,MacIntel,120.0048002,603797db171365017caa15e5,64d2fd46c836a06233681665,64dc79572fd88853c1696268,,,,,,,decisionTrl,resources/DY.BMP,resources/DBN.BMP,Door3,0.184939236,0.051030816,1,0,0,1.2235,optionRight,70,1895,1,34,0,34,0,1,,,,,,,,,,,,,,,,,,,,,,,,,,,,,,,,,,,,,,,
,,,,,,,,2023-08-16_08h23.13.618,HF_wild_card,2022.2.4,MacIntel,120.0048002,603797db171365017caa15e5,64d2fd46c836a06233681665,64dc79572fd88853c1696268,,,,,,,decisionTrl,resources/DB.BMP,resources/DG.BMP,Door1,-0.18733724,0.007656973,1,0,0,1.3151,optionLeft,30,1925,1,35,0,35,0,1,,,,,,,,,,,,,,,,,,,,,,,,,,,,,,,,,,,,,,,
,,,,,,,,2023-08-16_08h23.13.618,HF_wild_card,2022.2.4,MacIntel,120.0048002,603797db171365017caa15e5,64d2fd46c836a06233681665,64dc79572fd88853c1696268,,,,,,,sngl,resources/DP.BMP,resources/Empty.png,WildCard_NonEx,-0.132743779,-0.016659433,1,0,0,0.6969,optionLeft,45,1970,1,36,0,36,0,1,,,,,,,,,,,,,,,,,,,,,,,,,,,,,,,,,,,,,,,
,,,,,,,,2023-08-16_08h23.13.618,HF_wild_card,2022.2.4,MacIntel,120.0048002,603797db171365017caa15e5,64d2fd46c836a06233681665,64dc79572fd88853c1696268,,,,,,,decisionTrl,resources/DY.BMP,resources/DBN.BMP,Door3,0.24681713,0.012315538,1,0,0,0.8314,optionRight,70,2040,1,37,0,37,0,1,,,,,,,,,,,,,,,,,,,,,,,,,,,,,,,,,,,,,,,
,,,,,,,,2023-08-16_08h23.13.618,HF_wild_card,2022.2.4,MacIntel,120.0048002,603797db171365017caa15e5,64d2fd46c836a06233681665,64dc79572fd88853c1696268,,,,,,,sngl,resources/Empty.png,resources/DB.BMP,Door1,0.177922454,-0.004246238,1,0,0,0.9635,optionRight,30,2070,1,38,0,38,0,1,,,,,,,,,,,,,,,,,,,,,,,,,,,,,,,,,,,,,,,
,,,,,,,,2023-08-16_08h23.13.618,HF_wild_card,2022.2.4,MacIntel,120.0048002,603797db171365017caa15e5,64d2fd46c836a06233681665,64dc79572fd88853c1696268,,,,,,,sngl,resources/DBN.BMP,resources/Empty.png,Door3,-0.184516059,-0.011118345,1,0,0,0.6989,optionLeft,70,2140,1,39,0,39,0,1,,,,,,,,,,,,,,,,,,,,,,,,,,,,,,,,,,,,,,,
,,,,,,,,2023-08-16_08h23.13.618,HF_wild_card,2022.2.4,MacIntel,120.0048002,603797db171365017caa15e5,64d2fd46c836a06233681665,64dc79572fd88853c1696268,,,,,,,ctch,resources/DB.BMP,resources/DY.BMP,Door4,0.242473235,0.003153935,1,0,0,0.8559,optionRight,80,2220,1,40,0,40,0,1,,,,,,,,,,,,,,,,,,,,,,,,,,,,,,,,,,,,,,,
,,,,,,,,2023-08-16_08h23.13.618,HF_wild_card,2022.2.4,MacIntel,120.0048002,603797db171365017caa15e5,64d2fd46c836a06233681665,64dc79572fd88853c1696268,,,,,,,decisionTrl,resources/DY.BMP,resources/DBN.BMP,Door4,-0.17620081,0.007703993,1,0,0,0.8244,optionLeft,80,2300,1,41,0,41,0,1,,,,,,,,,,,,,,,,,,,,,,,,,,,,,,,,,,,,,,,
,,,,,,,,2023-08-16_08h23.13.618,HF_wild_card,2022.2.4,MacIntel,120.0048002,603797db171365017caa15e5,64d2fd46c836a06233681665,64dc79572fd88853c1696268,,,,,,,ctch,resources/DB.BMP,resources/DY.BMP,Door4,0.227014612,0.014518229,1,0,0,0.6595,optionRight,60,2360,1,42,0,42,0,1,,,,,,,,,,,,,,,,,,,,,,,,,,,,,,,,,,,,,,,
,,,,,,,,2023-08-16_08h23.13.618,HF_wild_card,2022.2.4,MacIntel,120.0048002,603797db171365017caa15e5,64d2fd46c836a06233681665,64dc79572fd88853c1696268,,,,,,,decisionTrl,resources/DG.BMP,resources/DB.BMP,Door1,0.154361979,0.024280237,1,0,0,1.5375,optionRight,30,2390,1,43,0,43,0,1,,,,,,,,,,,,,,,,,,,,,,,,,,,,,,,,,,,,,,,
,,,,,,,,2023-08-16_08h23.13.618,HF_wild_card,2022.2.4,MacIntel,120.0048002,603797db171365017caa15e5,64d2fd46c836a06233681665,64dc79572fd88853c1696268,,,,,,,,,,,,,,,,,,,,,,,,,,0,0,0,0,1,,,,,,,,,,,,,,,,,,,,,,,,,,,,,,,,,,
,,,,,,,,2023-08-16_08h23.13.618,HF_wild_card,2022.2.4,MacIntel,120.0048002,603797db171365017caa15e5,64d2fd46c836a06233681665,64dc79572fd88853c1696268,,,,,,,sngl,resources/DY.BMP,resources/Empty.png,Door4,-0.304018374,-0.217697483,1,0,0,0.7478,optionLeft,60,2450,2,0,0,0,0,1,,,,,,,,,,,,,,,,,,,,,,,,,,,,,,,,,,,,,,,
,,,,,,,,2023-08-16_08h23.13.618,HF_wild_card,2022.2.4,MacIntel,120.0048002,603797db171365017caa15e5,64d2fd46c836a06233681665,64dc79572fd88853c1696268,,,,,,,decisionTrl,resources/DP.BMP,resources/DBN.BMP,Door3,0.239706308,0.009856047,1,0,0,0.8167,optionRight,70,2520,2,1,0,1,0,1,,,,,,,,,,,,,,,,,,,,,,,,,,,,,,,,,,,,,,,
,,,,,,,,2023-08-16_08h23.13.618,HF_wild_card,2022.2.4,MacIntel,120.0048002,603797db171365017caa15e5,64d2fd46c836a06233681665,64dc79572fd88853c1696268,,,,,,,decisionTrl,resources/DP.BMP,resources/DY.BMP,Door4,0.213780382,0.019820602,1,0,0,1.115,optionRight,80,2600,2,2,0,2,0,1,,,,,,,,,,,,,,,,,,,,,,,,,,,,,,,,,,,,,,,
,,,,,,,,2023-08-16_08h23.13.618,HF_wild_card,2022.2.4,MacIntel,120.0048002,603797db171365017caa15e5,64d2fd46c836a06233681665,64dc79572fd88853c1696268,,,,,,,decisionTrl,resources/DG.BMP,resources/DB.BMP,Door1,0.21364294,-0.020525897,1,0,0,1.5504,optionRight,30,2630,2,3,0,3,0,1,,,,,,,,,,,,,,,,,,,,,,,,,,,,,,,,,,,,,,,
,,,,,,,,2023-08-16_08h23.13.618,HF_wild_card,2022.2.4,MacIntel,120.0048002,603797db171365017caa15e5,64d2fd46c836a06233681665,64dc79572fd88853c1696268,,,,,,,decisionTrl,resources/DB.BMP,resources/DG.BMP,Door1,-0.16598669,-0.017451534,1,0,0,6.8084,optionLeft,30,2660,2,4,0,4,0,1,,,,,,,,,,,,,,,,,,,,,,,,,,,,,,,,,,,,,,,
,,,,,,,,2023-08-16_08h23.13.618,HF_wild_card,2022.2.4,MacIntel,120.0048002,603797db171365017caa15e5,64d2fd46c836a06233681665,64dc79572fd88853c1696268,,,,,,,decisionTrl,resources/DY.BMP,resources/DP.BMP,Door4,-0.169451678,-0.042954282,1,0,0,1.864,optionLeft,60,2720,2,5,0,5,0,1,,,,,,,,,,,,,,,,,,,,,,,,,,,,,,,,,,,,,,,
,,,,,,,,2023-08-16_08h23.13.618,HF_wild_card,2022.2.4,MacIntel,120.0048002,603797db171365017caa15e5,64d2fd46c836a06233681665,64dc79572fd88853c1696268,,,,,,,decisionTrl,resources/DBN.BMP,resources/DY.BMP,Door3,-0.197782841,-0.009132668,1,0,0,0.9243,optionLeft,70,2790,2,6,0,6,0,1,,,,,,,,,,,,,,,,,,,,,,,,,,,,,,,,,,,,,,,
,,,,,,,,2023-08-16_08h23.13.618,HF_wild_card,2022.2.4,MacIntel,120.0048002,603797db171365017caa15e5,64d2fd46c836a06233681665,64dc79572fd88853c1696268,,,,,,,ctch,resources/DY.BMP,resources/DB.BMP,Door4,-0.185572193,-0.008499711,1,0,0,0.7001,optionLeft,60,2850,2,7,0,7,0,1,,,,,,,,,,,,,,,,,,,,,,,,,,,,,,,,,,,,,,,
,,,,,,,,2023-08-16_08h23.13.618,HF_wild_card,2022.2.4,MacIntel,120.0048002,603797db171365017caa15e5,64d2fd46c836a06233681665,64dc79572fd88853c1696268,,,,,,,decisionTrl,resources/DBN.BMP,resources/DY.BMP,Door3,-0.232779948,0.001627604,1,0,0,1.006,optionLeft,70,2920,2,8,0,8,0,1,,,,,,,,,,,,,,,,,,,,,,,,,,,,,,,,,,,,,,,
,,,,,,,,2023-08-16_08h23.13.618,HF_wild_card,2022.2.4,MacIntel,120.0048002,603797db171365017caa15e5,64d2fd46c836a06233681665,64dc79572fd88853c1696268,,,,,,,ctch,resources/DBN.BMP,resources/DG.BMP,Door3,-0.192849392,-0.007783565,1,0,0,0.7467,optionLeft,70,2990,2,9,0,9,0,1,,,,,,,,,,,,,,,,,,,,,,,,,,,,,,,,,,,,,,,
,,,,,,,,2023-08-16_08h23.13.618,HF_wild_card,2022.2.4,MacIntel,120.0048002,603797db171365017caa15e5,64d2fd46c836a06233681665,64dc79572fd88853c1696268,,,,,,,decisionTrl,resources/DB.BMP,resources/DG.BMP,Door1,-0.227455874,-0.051446759,1,0,0,4.1299,optionLeft,30,3020,2,10,0,10,0,1,,,,,,,,,,,,,,,,,,,,,,,,,,,,,,,,,,,,,,,
,,,,,,,,2023-08-16_08h23.13.618,HF_wild_card,2022.2.4,MacIntel,120.0048002,603797db171365017caa15e5,64d2fd46c836a06233681665,64dc79572fd88853c1696268,,,,,,,decisionTrl,resources/DY.BMP,resources/DBN.BMP,Door4,-0.186085793,-0.020504196,1,0,0,0.88,optionLeft,80,3100,2,11,0,11,0,1,,,,,,,,,,,,,,,,,,,,,,,,,,,,,,,,,,,,,,,
,,,,,,,,2023-08-16_08h23.13.618,HF_wild_card,2022.2.4,MacIntel,120.0048002,603797db171365017caa15e5,64d2fd46c836a06233681665,64dc79572fd88853c1696268,,,,,,,sngl,resources/DB.BMP,resources/Empty.png,Door1,-0.199012587,-0.004459635,1,0,0,0.9891,optionLeft,30,3130,2,12,0,12,0,1,,,,,,,,,,,,,,,,,,,,,,,,,,,,,,,,,,,,,,,
,,,,,,,,2023-08-16_08h23.13.618,HF_wild_card,2022.2.4,MacIntel,120.0048002,603797db171365017caa15e5,64d2fd46c836a06233681665,64dc79572fd88853c1696268,,,,,,,decisionTrl,resources/DY.BMP,resources/DBN.BMP,Door3,0.223687066,0.036371528,1,0,0,1.1086,optionRight,70,3200,2,13,0,13,0,1,,,,,,,,,,,,,,,,,,,,,,,,,,,,,,,,,,,,,,,
,,,,,,,,2023-08-16_08h23.13.618,HF_wild_card,2022.2.4,MacIntel,120.0048002,603797db171365017caa15e5,64d2fd46c836a06233681665,64dc79572fd88853c1696268,,,,,,,decisionTrl,resources/DP.BMP,resources/DG.BMP,WildCard_NonEx,-0.143174913,0.039941406,1,0,0,3.7983,optionLeft,45,3245,2,14,0,14,0,1,,,,,,,,,,,,,,,,,,,,,,,,,,,,,,,,,,,,,,,
,,,,,,,,2023-08-16_08h23.13.618,HF_wild_card,2022.2.4,MacIntel,120.0048002,603797db171365017caa15e5,64d2fd46c836a06233681665,64dc79572fd88853c1696268,,,,,,,ctch,resources/DBN.BMP,resources/DG.BMP,Door3,-0.155808738,-0.012116609,1,0,0,0.7507,optionLeft,70,3315,2,15,0,15,0,1,,,,,,,,,,,,,,,,,,,,,,,,,,,,,,,,,,,,,,,
,,,,,,,,2023-08-16_08h23.13.618,HF_wild_card,2022.2.4,MacIntel,120.0048002,603797db171365017caa15e5,64d2fd46c836a06233681665,64dc79572fd88853c1696268,,,,,,,sngl,resources/Empty.png,resources/DBN.BMP,Door3,0.2104239,-0.005548322,1,0,0,0.5967,optionRight,70,3385,2,16,0,16,0,1,,,,,,,,,,,,,,,,,,,,,,,,,,,,,,,,,,,,,,,
,,,,,,,,2023-08-16_08h23.13.618,HF_wild_card,2022.2.4,MacIntel,120.0048002,603797db171365017caa15e5,64d2fd46c836a06233681665,64dc79572fd88853c1696268,,,,,,,decisionTrl,resources/DY.BMP,resources/DBN.BMP,Door4,-0.240039063,-0.016796875,1,0,0,0.7723,optionLeft,80,3465,2,17,0,17,0,1,,,,,,,,,,,,,,,,,,,,,,,,,,,,,,,,,,,,,,,
,,,,,,,,2023-08-16_08h23.13.618,HF_wild_card,2022.2.4,MacIntel,120.0048002,603797db171365017caa15e5,64d2fd46c836a06233681665,64dc79572fd88853c1696268,,,,,,,decisionTrl,resources/DP.BMP,resources/DB.BMP,WildCard_NonEx,-0.192777054,-0.033213976,1,0,0,1.2551,optionLeft,55,3520,2,18,0,18,0,1,,,,,,,,,,,,,,,,,,,,,,,,,,,,,,,,,,,,,,,
,,,,,,,,2023-08-16_08h23.13.618,HF_wild_card,2022.2.4,MacIntel,120.0048002,603797db171365017caa15e5,64d2fd46c836a06233681665,64dc79572fd88853c1696268,,,,,,,decisionTrl,resources/DY.BMP,resources/DBN.BMP,Door4,-0.161657263,-0.017151331,1,0,0,1.5084,optionLeft,60,3580,2,19,0,19,0,1,,,,,,,,,,,,,,,,,,,,,,,,,,,,,,,,,,,,,,,
,,,,,,,,2023-08-16_08h23.13.618,HF_wild_card,2022.2.4,MacIntel,120.0048002,603797db171365017caa15e5,64d2fd46c836a06233681665,64dc79572fd88853c1696268,,,,,,,sngl,resources/Empty.png,resources/DG.BMP,Door2,0.200904225,0.019401042,1,0,0,0.8576,optionRight,40,3620,2,20,0,20,0,1,,,,,,,,,,,,,,,,,,,,,,,,,,,,,,,,,,,,,,,
,,,,,,,,2023-08-16_08h23.13.618,HF_wild_card,2022.2.4,MacIntel,120.0048002,603797db171365017caa15e5,64d2fd46c836a06233681665,64dc79572fd88853c1696268,,,,,,,decisionTrl,resources/DG.BMP,resources/DP.BMP,WildCard_NonEx,0.214055266,-0.029474103,1,0,0,3.8467,optionRight,45,3665,2,21,0,21,0,1,,,,,,,,,,,,,,,,,,,,,,,,,,,,,,,,,,,,,,,
,,,,,,,,2023-08-16_08h23.13.618,HF_wild_card,2022.2.4,MacIntel,120.0048002,603797db171365017caa15e5,64d2fd46c836a06233681665,64dc79572fd88853c1696268,,,,,,,sngl,resources/Empty.png,resources/DP.BMP,WildCard_NonEx,0.190563513,0.018352141,1,0,0,0.7634,optionRight,55,3720,2,22,0,22,0,1,,,,,,,,,,,,,,,,,,,,,,,,,,,,,,,,,,,,,,,
,,,,,,,,2023-08-16_08h23.13.618,HF_wild_card,2022.2.4,MacIntel,120.0048002,603797db171365017caa15e5,64d2fd46c836a06233681665,64dc79572fd88853c1696268,,,,,,,decisionTrl,resources/DB.BMP,resources/DG.BMP,Door1,-0.192371962,0.019549334,1,0,0,1.4227,optionLeft,30,3750,2,23,0,23,0,1,,,,,,,,,,,,,,,,,,,,,,,,,,,,,,,,,,,,,,,
,,,,,,,,2023-08-16_08h23.13.618,HF_wild_card,2022.2.4,MacIntel,120.0048002,603797db171365017caa15e5,64d2fd46c836a06233681665,64dc79572fd88853c1696268,,,,,,,ctch,resources/DG.BMP,resources/DBN.BMP,Door2,-0.1872432,-0.008716725,1,0,0,1.4478,optionLeft,40,3790,2,24,0,24,0,1,,,,,,,,,,,,,,,,,,,,,,,,,,,,,,,,,,,,,,,
,,,,,,,,2023-08-16_08h23.13.618,HF_wild_card,2022.2.4,MacIntel,120.0048002,603797db171365017caa15e5,64d2fd46c836a06233681665,64dc79572fd88853c1696268,,,,,,,ctch,resources/DB.BMP,resources/DY.BMP,Door4,0.217650463,0.000169994,1,0,0,0.8283,optionRight,80,3870,2,25,0,25,0,1,,,,,,,,,,,,,,,,,,,,,,,,,,,,,,,,,,,,,,,
,,,,,,,,2023-08-16_08h23.13.618,HF_wild_card,2022.2.4,MacIntel,120.0048002,603797db171365017caa15e5,64d2fd46c836a06233681665,64dc79572fd88853c1696268,,,,,,,sngl,resources/DBN.BMP,resources/Empty.png,Door3,-0.176406973,0.013501881,1,0,0,0.6797,optionLeft,70,3940,2,26,0,26,0,1,,,,,,,,,,,,,,,,,,,,,,,,,,,,,,,,,,,,,,,
,,,,,,,,2023-08-16_08h23.13.618,HF_wild_card,2022.2.4,MacIntel,120.0048002,603797db171365017caa15e5,64d2fd46c836a06233681665,64dc79572fd88853c1696268,,,,,,,decisionTrl,resources/DB.BMP,resources/DP.BMP,WildCard_NonEx,0.204231771,0.00103805,1,0,0,0.7644,optionRight,45,3985,2,27,0,27,0,1,,,,,,,,,,,,,,,,,,,,,,,,,,,,,,,,,,,,,,,
,,,,,,,,2023-08-16_08h23.13.618,HF_wild_card,2022.2.4,MacIntel,120.0048002,603797db171365017caa15e5,64d2fd46c836a06233681665,64dc79572fd88853c1696268,,,,,,,sngl,resources/Empty.png,resources/DP.BMP,WildCard_NonEx,0.160583044,0.018312355,1,0,0,0.7327,optionRight,45,4030,2,28,0,28,0,1,,,,,,,,,,,,,,,,,,,,,,,,,,,,,,,,,,,,,,,
,,,,,,,,2023-08-16_08h23.13.618,HF_wild_card,2022.2.4,MacIntel,120.0048002,603797db171365017caa15e5,64d2fd46c836a06233681665,64dc79572fd88853c1696268,,,,,,,decisionTrl,resources/DBN.BMP,resources/DY.BMP,Door4,0.173618345,-0.009186921,1,0,0,1.3149,optionRight,80,4110,2,29,0,29,0,1,,,,,,,,,,,,,,,,,,,,,,,,,,,,,,,,,,,,,,,
,,,,,,,,2023-08-16_08h23.13.618,HF_wild_card,2022.2.4,MacIntel,120.0048002,603797db171365017caa15e5,64d2fd46c836a06233681665,64dc79572fd88853c1696268,,,,,,,decisionTrl,resources/DG.BMP,resources/DB.BMP,Door2,-0.109020544,-0.000546152,1,0,0,0.8814,optionLeft,40,4150,2,30,0,30,0,1,,,,,,,,,,,,,,,,,,,,,,,,,,,,,,,,,,,,,,,
,,,,,,,,2023-08-16_08h23.13.618,HF_wild_card,2022.2.4,MacIntel,120.0048002,603797db171365017caa15e5,64d2fd46c836a06233681665,64dc79572fd88853c1696268,,,,,,,sngl,resources/DP.BMP,resources/Empty.png,WildCard_NonEx,-0.140657552,-0.01177662,1,0,0,0.6734,optionLeft,55,4205,2,31,0,31,0,1,,,,,,,,,,,,,,,,,,,,,,,,,,,,,,,,,,,,,,,
,,,,,,,,2023-08-16_08h23.13.618,HF_wild_card,2022.2.4,MacIntel,120.0048002,603797db171365017caa15e5,64d2fd46c836a06233681665,64dc79572fd88853c1696268,,,,,,,decisionTrl,resources/DG.BMP,resources/DB.BMP,Door1,0.197941985,0.031011285,1,0,0,1.075,optionRight,30,4235,2,32,0,32,0,1,,,,,,,,,,,,,,,,,,,,,,,,,,,,,,,,,,,,,,,
,,,,,,,,2023-08-16_08h23.13.618,HF_wild_card,2022.2.4,MacIntel,120.0048002,603797db171365017caa15e5,64d2fd46c836a06233681665,64dc79572fd88853c1696268,,,,,,,decisionTrl,resources/DBN.BMP,resources/DP.BMP,Door3,-0.192534722,-0.045106337,1,0,0,0.7493,optionLeft,70,4305,2,33,0,33,0,1,,,,,,,,,,,,,,,,,,,,,,,,,,,,,,,,,,,,,,,
,,,,,,,,2023-08-16_08h23.13.618,HF_wild_card,2022.2.4,MacIntel,120.0048002,603797db171365017caa15e5,64d2fd46c836a06233681665,64dc79572fd88853c1696268,,,,,,,ctch,resources/DB.BMP,resources/DY.BMP,Door4,0.218402778,0.005052807,1,0,0,0.724,optionRight,60,4365,2,34,0,34,0,1,,,,,,,,,,,,,,,,,,,,,,,,,,,,,,,,,,,,,,,
,,,,,,,,2023-08-16_08h23.13.618,HF_wild_card,2022.2.4,MacIntel,120.0048002,603797db171365017caa15e5,64d2fd46c836a06233681665,64dc79572fd88853c1696268,,,,,,,decisionTrl,resources/DG.BMP,resources/DB.BMP,Door2,-0.170587384,-0.01047092,1,0,0,0.6818,optionLeft,40,4405,2,35,0,35,0,1,,,,,,,,,,,,,,,,,,,,,,,,,,,,,,,,,,,,,,,
,,,,,,,,2023-08-16_08h23.13.618,HF_wild_card,2022.2.4,MacIntel,120.0048002,603797db171365017caa15e5,64d2fd46c836a06233681665,64dc79572fd88853c1696268,,,,,,,sngl,resources/Empty.png,resources/DY.BMP,Door4,0.17941985,-0.002557147,1,0,0,0.6061,optionRight,80,4485,2,36,0,36,0,1,,,,,,,,,,,,,,,,,,,,,,,,,,,,,,,,,,,,,,,
,,,,,,,,2023-08-16_08h23.13.618,HF_wild_card,2022.2.4,MacIntel,120.0048002,603797db171365017caa15e5,64d2fd46c836a06233681665,64dc79572fd88853c1696268,,,,,,,sngl,resources/Empty.png,resources/DB.BMP,Door1,0.174435764,0.001092303,1,0,0,1.0081,optionRight,30,4515,2,37,0,37,0,1,,,,,,,,,,,,,,,,,,,,,,,,,,,,,,,,,,,,,,,
,,,,,,,,2023-08-16_08h23.13.618,HF_wild_card,2022.2.4,MacIntel,120.0048002,603797db171365017caa15e5,64d2fd46c836a06233681665,64dc79572fd88853c1696268,,,,,,,sngl,resources/DG.BMP,resources/Empty.png,Door2,-0.117918113,-0.0109375,1,0,0,1.001,optionLeft,20,4535,2,38,0,38,0,1,,,,,,,,,,,,,,,,,,,,,,,,,,,,,,,,,,,,,,,
,,,,,,,,2023-08-16_08h23.13.618,HF_wild_card,2022.2.4,MacIntel,120.0048002,603797db171365017caa15e5,64d2fd46c836a06233681665,64dc79572fd88853c1696268,,,,,,,decisionTrl,resources/DB.BMP,resources/DG.BMP,Door1,-0.160608362,-0.031976997,1,0,0,0.9071,optionLeft,30,4565,2,39,0,39,0,1,,,,,,,,,,,,,,,,,,,,,,,,,,,,,,,,,,,,,,,
,,,,,,,,2023-08-16_08h23.13.618,HF_wild_card,2022.2.4,MacIntel,120.0048002,603797db171365017caa15e5,64d2fd46c836a06233681665,64dc79572fd88853c1696268,,,,,,,sngl,resources/DP.BMP,resources/Empty.png,WildCard_NonEx,-0.146158854,-0.049764902,1,0,0,0.7156,optionLeft,45,4610,2,40,0,40,0,1,,,,,,,,,,,,,,,,,,,,,,,,,,,,,,,,,,,,,,,
,,,,,,,,2023-08-16_08h23.13.618,HF_wild_card,2022.2.4,MacIntel,120.0048002,603797db171365017caa15e5,64d2fd46c836a06233681665,64dc79572fd88853c1696268,,,,,,,ctch,resources/DY.BMP,resources/DB.BMP,Door4,-0.205273437,-0.010713252,1,0,0,0.8638,optionLeft,80,4690,2,41,0,41,0,1,,,,,,,,,,,,,,,,,,,,,,,,,,,,,,,,,,,,,,,
,,,,,,,,2023-08-16_08h23.13.618,HF_wild_card,2022.2.4,MacIntel,120.0048002,603797db171365017caa15e5,64d2fd46c836a06233681665,64dc79572fd88853c1696268,,,,,,,decisionTrl,resources/DBN.BMP,resources/DY.BMP,Door4,0.203204572,-0.014630353,1,0,0,0.9163,optionRight,80,4770,2,42,0,42,0,1,,,,,,,,,,,,,,,,,,,,,,,,,,,,,,,,,,,,,,,
,,,,,,,,2023-08-16_08h23.13.618,HF_wild_card,2022.2.4,MacIntel,120.0048002,603797db171365017caa15e5,64d2fd46c836a06233681665,64dc79572fd88853c1696268,,,,,,,ctch,resources/DG.BMP,resources/DBN.BMP,Door3,0.194867622,0.005034722,1,0,0,1.1793,optionRight,70,4840,2,43,0,43,0,1,,,,,,,,,,,,,,,,,,,,,,,,,,,,,,,,,,,,,,,
,,,,,,,,2023-08-16_08h23.13.618,HF_wild_card,2022.2.4,MacIntel,120.0048002,603797db171365017caa15e5,64d2fd46c836a06233681665,64dc79572fd88853c1696268,,,,,,,,,,,,,,,,,,,,,,,,,,1,0,1,0,1,,,,,,,,,,,,,,,,,,,,,,,,,,,,,,,,,,
,,,,,,,,2023-08-16_08h23.13.618,HF_wild_card,2022.2.4,MacIntel,120.0048002,603797db171365017caa15e5,64d2fd46c836a06233681665,64dc79572fd88853c1696268,,,,,,,sngl,resources/DG.BMP,resources/Empty.png,Door2,-0.258018663,-0.105092593,1,0,0,0.7165,optionLeft,40,4880,3,0,0,0,0,1,,,,,,,,,,,,,,,,,,,,,,,,,,,,,,,,,,,,,,,
,,,,,,,,2023-08-16_08h23.13.618,HF_wild_card,2022.2.4,MacIntel,120.0048002,603797db171365017caa15e5,64d2fd46c836a06233681665,64dc79572fd88853c1696268,,,,,,,decisionTrl,resources/DP.BMP,resources/DG.BMP,WildCard_NonEx,-0.252904369,-0.014514612,1,0,0,0.7161,optionLeft,45,4925,3,1,0,1,0,1,,,,,,,,,,,,,,,,,,,,,,,,,,,,,,,,,,,,,,,
,,,,,,,,2023-08-16_08h23.13.618,HF_wild_card,2022.2.4,MacIntel,120.0048002,603797db171365017caa15e5,64d2fd46c836a06233681665,64dc79572fd88853c1696268,,,,,,,decisionTrl,resources/DG.BMP,resources/DB.BMP,Door2,-0.187387876,0.010854311,1,0,0,1.0413,optionLeft,20,4945,3,2,0,2,0,1,,,,,,,,,,,,,,,,,,,,,,,,,,,,,,,,,,,,,,,
,,,,,,,,2023-08-16_08h23.13.618,HF_wild_card,2022.2.4,MacIntel,120.0048002,603797db171365017caa15e5,64d2fd46c836a06233681665,64dc79572fd88853c1696268,,,,,,,decisionTrl,resources/DG.BMP,resources/DB.BMP,Door1,0.258720341,0.011917679,1,0,0,0.6556,optionRight,30,4975,3,3,0,3,0,1,,,,,,,,,,,,,,,,,,,,,,,,,,,,,,,,,,,,,,,
,,,,,,,,2023-08-16_08h23.13.618,HF_wild_card,2022.2.4,MacIntel,120.0048002,603797db171365017caa15e5,64d2fd46c836a06233681665,64dc79572fd88853c1696268,,,,,,,decisionTrl,resources/DBN.BMP,resources/DY.BMP,Door3,-0.197685185,0.035188802,1,0,0,0.7079,optionLeft,70,5045,3,4,0,4,0,1,,,,,,,,,,,,,,,,,,,,,,,,,,,,,,,,,,,,,,,
,,,,,,,,2023-08-16_08h23.13.618,HF_wild_card,2022.2.4,MacIntel,120.0048002,603797db171365017caa15e5,64d2fd46c836a06233681665,64dc79572fd88853c1696268,,,,,,,ctch,resources/DG.BMP,resources/DBN.BMP,Door3,0.255957031,0.042451534,1,0,0,0.7632,optionRight,70,5115,3,5,0,5,0,1,,,,,,,,,,,,,,,,,,,,,,,,,,,,,,,,,,,,,,,
,,,,,,,,2023-08-16_08h23.13.618,HF_wild_card,2022.2.4,MacIntel,120.0048002,603797db171365017caa15e5,64d2fd46c836a06233681665,64dc79572fd88853c1696268,,,,,,,sngl,resources/DB.BMP,resources/Empty.png,Door1,-0.200795718,0.021647135,1,0,0,0.6835,optionLeft,30,5145,3,6,0,6,0,1,,,,,,,,,,,,,,,,,,,,,,,,,,,,,,,,,,,,,,,
,,,,,,,,2023-08-16_08h23.13.618,HF_wild_card,2022.2.4,MacIntel,120.0048002,603797db171365017caa15e5,64d2fd46c836a06233681665,64dc79572fd88853c1696268,,,,,,,ctch,resources/DY.BMP,resources/DB.BMP,Door4,-0.149048756,0.01927445,1,0,0,1.2921,optionLeft,60,5205,3,7,0,7,0,1,,,,,,,,,,,,,,,,,,,,,,,,,,,,,,,,,,,,,,,
,,,,,,,,2023-08-16_08h23.13.618,HF_wild_card,2022.2.4,MacIntel,120.0048002,603797db171365017caa15e5,64d2fd46c836a06233681665,64dc79572fd88853c1696268,,,,,,,sngl,resources/Empty.png,resources/DBN.BMP,Door3,0.220724826,0.022837095,1,0,0,0.6367,optionRight,70,5275,3,8,0,8,0,1,,,,,,,,,,,,,,,,,,,,,,,,,,,,,,,,,,,,,,,
,,,,,,,,2023-08-16_08h23.13.618,HF_wild_card,2022.2.4,MacIntel,120.0048002,603797db171365017caa15e5,64d2fd46c836a06233681665,64dc79572fd88853c1696268,,,,,,,decisionTrl,resources/DBN.BMP,resources/DP.BMP,Door3,-0.195923756,-0.079785156,1,0,0,1.0984,optionLeft,70,5345,3,9,0,9,0,1,,,,,,,,,,,,,,,,,,,,,,,,,,,,,,,,,,,,,,,
,,,,,,,,2023-08-16_08h23.13.618,HF_wild_card,2022.2.4,MacIntel,120.0048002,603797db171365017caa15e5,64d2fd46c836a06233681665,64dc79572fd88853c1696268,,,,,,,sngl,resources/DP.BMP,resources/Empty.png,WildCard_NonEx,-0.150206163,0.009884983,1,0,0,0.8485,optionLeft,45,5390,3,10,0,10,0,1,,,,,,,,,,,,,,,,,,,,,,,,,,,,,,,,,,,,,,,
,,,,,,,,2023-08-16_08h23.13.618,HF_wild_card,2022.2.4,MacIntel,120.0048002,603797db171365017caa15e5,64d2fd46c836a06233681665,64dc79572fd88853c1696268,,,,,,,decisionTrl,resources/DY.BMP,resources/DBN.BMP,Door3,0.235876013,0.013480179,1,0,0,1.064,optionRight,70,5460,3,11,0,11,0,1,,,,,,,,,,,,,,,,,,,,,,,,,,,,,,,,,,,,,,,
,,,,,,,,2023-08-16_08h23.13.618,HF_wild_card,2022.2.4,MacIntel,120.0048002,603797db171365017caa15e5,64d2fd46c836a06233681665,64dc79572fd88853c1696268,,,,,,,sngl,resources/Empty.png,resources/DP.BMP,WildCard_NonEx,0.173538773,0.002520978,1,0,0,0.8061,optionRight,55,5515,3,12,0,12,0,1,,,,,,,,,,,,,,,,,,,,,,,,,,,,,,,,,,,,,,,
,,,,,,,,2023-08-16_08h23.13.618,HF_wild_card,2022.2.4,MacIntel,120.0048002,603797db171365017caa15e5,64d2fd46c836a06233681665,64dc79572fd88853c1696268,,,,,,,decisionTrl,resources/DG.BMP,resources/DB.BMP,Door1,0.141818576,-0.012579572,1,0,0,2.7158,optionRight,30,5545,3,13,0,13,0,1,,,,,,,,,,,,,,,,,,,,,,,,,,,,,,,,,,,,,,,
,,,,,,,,2023-08-16_08h23.13.618,HF_wild_card,2022.2.4,MacIntel,120.0048002,603797db171365017caa15e5,64d2fd46c836a06233681665,64dc79572fd88853c1696268,,,,,,,decisionTrl,resources/DG.BMP,resources/DP.BMP,WildCard_NonEx,0.129803241,0.014992043,1,0,0,1.1477,optionRight,45,5590,3,14,0,14,0,1,,,,,,,,,,,,,,,,,,,,,,,,,,,,,,,,,,,,,,,
,,,,,,,,2023-08-16_08h23.13.618,HF_wild_card,2022.2.4,MacIntel,120.0048002,603797db171365017caa15e5,64d2fd46c836a06233681665,64dc79572fd88853c1696268,,,,,,,decisionTrl,resources/DP.BMP,resources/DY.BMP,Door4,0.170012297,0.004318576,1,0,0,1.5907,optionRight,60,5650,3,15,0,15,0,1,,,,,,,,,,,,,,,,,,,,,,,,,,,,,,,,,,,,,,,
,,,,,,,,2023-08-16_08h23.13.618,HF_wild_card,2022.2.4,MacIntel,120.0048002,603797db171365017caa15e5,64d2fd46c836a06233681665,64dc79572fd88853c1696268,,,,,,,sngl,resources/Empty.png,resources/DY.BMP,Door4,0.252781395,0.016192853,1,0,0,0.7403,optionRight,60,5710,3,16,0,16,0,1,,,,,,,,,,,,,,,,,,,,,,,,,,,,,,,,,,,,,,,
,,,,,,,,2023-08-16_08h23.13.618,HF_wild_card,2022.2.4,MacIntel,120.0048002,603797db171365017caa15e5,64d2fd46c836a06233681665,64dc79572fd88853c1696268,,,,,,,ctch,resources/DB.BMP,resources/DY.BMP,Door4,0.230233652,0.045811632,1,0,0,1.0644,optionRight,80,5790,3,17,0,17,0,1,,,,,,,,,,,,,,,,,,,,,,,,,,,,,,,,,,,,,,,
,,,,,,,,2023-08-16_08h23.13.618,HF_wild_card,2022.2.4,MacIntel,120.0048002,603797db171365017caa15e5,64d2fd46c836a06233681665,64dc79572fd88853c1696268,,,,,,,decisionTrl,resources/DP.BMP,resources/DB.BMP,WildCard_NonEx,-0.150712529,0.002228009,1,0,0,1.1898,optionLeft,45,5835,3,18,0,18,0,1,,,,,,,,,,,,,,,,,,,,,,,,,,,,,,,,,,,,,,,
,,,,,,,,2023-08-16_08h23.13.618,HF_wild_card,2022.2.4,MacIntel,120.0048002,603797db171365017caa15e5,64d2fd46c836a06233681665,64dc79572fd88853c1696268,,,,,,,ctch,resources/DBN.BMP,resources/DG.BMP,Door3,-0.147088397,0.003573495,1,0,0,0.7471,optionLeft,70,5905,3,19,0,19,0,1,,,,,,,,,,,,,,,,,,,,,,,,,,,,,,,,,,,,,,,
,,,,,,,,2023-08-16_08h23.13.618,HF_wild_card,2022.2.4,MacIntel,120.0048002,603797db171365017caa15e5,64d2fd46c836a06233681665,64dc79572fd88853c1696268,,,,,,,decisionTrl,resources/DBN.BMP,resources/DY.BMP,Door4,0.260998987,-0.008402054,1,0,0,0.8982,optionRight,80,5985,3,20,0,20,0,1,,,,,,,,,,,,,,,,,,,,,,,,,,,,,,,,,,,,,,,
,,,,,,,,2023-08-16_08h23.13.618,HF_wild_card,2022.2.4,MacIntel,120.0048002,603797db171365017caa15e5,64d2fd46c836a06233681665,64dc79572fd88853c1696268,,,,,,,ctch,resources/DG.BMP,resources/DBN.BMP,Door3,0.231419994,0.090360966,1,0,0,0.8241,optionRight,70,6055,3,21,0,21,0,1,,,,,,,,,,,,,,,,,,,,,,,,,,,,,,,,,,,,,,,
,,,,,,,,2023-08-16_08h23.13.618,HF_wild_card,2022.2.4,MacIntel,120.0048002,603797db171365017caa15e5,64d2fd46c836a06233681665,64dc79572fd88853c1696268,,,,,,,decisionTrl,resources/DB.BMP,resources/DP.BMP,WildCard_NonEx,0.22297092,0.021346933,1,0,0,0.6797,optionRight,55,6110,3,22,0,22,0,1,,,,,,,,,,,,,,,,,,,,,,,,,,,,,,,,,,,,,,,
,,,,,,,,2023-08-16_08h23.13.618,HF_wild_card,2022.2.4,MacIntel,120.0048002,603797db171365017caa15e5,64d2fd46c836a06233681665,64dc79572fd88853c1696268,,,,,,,decisionTrl,resources/DY.BMP,resources/DBN.BMP,Door4,-0.215563513,0.021694155,1,0,0,0.6318,optionLeft,60,6170,3,23,0,23,0,1,,,,,,,,,,,,,,,,,,,,,,,,,,,,,,,,,,,,,,,
,,,,,,,,2023-08-16_08h23.13.618,HF_wild_card,2022.2.4,MacIntel,120.0048002,603797db171365017caa15e5,64d2fd46c836a06233681665,64dc79572fd88853c1696268,,,,,,,sngl,resources/DY.BMP,resources/Empty.png,Door4,-0.158980758,0.019382957,1,0,0,0.6402,optionLeft,80,6250,3,24,0,24,0,1,,,,,,,,,,,,,,,,,,,,,,,,,,,,,,,,,,,,,,,
,,,,,,,,2023-08-16_08h23.13.618,HF_wild_card,2022.2.4,MacIntel,120.0048002,603797db171365017caa15e5,64d2fd46c836a06233681665,64dc79572fd88853c1696268,,,,,,,decisionTrl,resources/DY.BMP,resources/DBN.BMP,Door4,-0.193923611,0.028631366,1,0,0,0.7714,optionLeft,60,6310,3,25,0,25,0,1,,,,,,,,,,,,,,,,,,,,,,,,,,,,,,,,,,,,,,,
,,,,,,,,2023-08-16_08h23.13.618,HF_wild_card,2022.2.4,MacIntel,120.0048002,603797db171365017caa15e5,64d2fd46c836a06233681665,64dc79572fd88853c1696268,,,,,,,decisionTrl,resources/DBN.BMP,resources/DY.BMP,Door3,-0.191937934,0.008297164,1,0,0,0.69,optionLeft,70,6380,3,26,0,26,0,1,,,,,,,,,,,,,,,,,,,,,,,,,,,,,,,,,,,,,,,
,,,,,,,,2023-08-16_08h23.13.618,HF_wild_card,2022.2.4,MacIntel,120.0048002,603797db171365017caa15e5,64d2fd46c836a06233681665,64dc79572fd88853c1696268,,,,,,,decisionTrl,resources/DY.BMP,resources/DBN.BMP,Door3,0.256311487,0.036725984,1,0,0,0.6825,optionRight,70,6450,3,27,0,27,0,1,,,,,,,,,,,,,,,,,,,,,,,,,,,,,,,,,,,,,,,
,,,,,,,,2023-08-16_08h23.13.618,HF_wild_card,2022.2.4,MacIntel,120.0048002,603797db171365017caa15e5,64d2fd46c836a06233681665,64dc79572fd88853c1696268,,,,,,,sngl,resources/DBN.BMP,resources/Empty.png,Door3,-0.144241898,0.005689381,1,0,0,0.6592,optionLeft,70,6520,3,28,0,28,0,1,,,,,,,,,,,,,,,,,,,,,,,,,,,,,,,,,,,,,,,
,,,,,,,,2023-08-16_08h23.13.618,HF_wild_card,2022.2.4,MacIntel,120.0048002,603797db171365017caa15e5,64d2fd46c836a06233681665,64dc79572fd88853c1696268,,,,,,,ctch,resources/DB.BMP,resources/DY.BMP,Door4,0.1869864,-0.027922454,1,0,0,0.7273,optionRight,60,6580,3,29,0,29,0,1,,,,,,,,,,,,,,,,,,,,,,,,,,,,,,,,,,,,,,,
,,,,,,,,2023-08-16_08h23.13.618,HF_wild_card,2022.2.4,MacIntel,120.0048002,603797db171365017caa15e5,64d2fd46c836a06233681665,64dc79572fd88853c1696268,,,,,,,sngl,resources/Empty.png,resources/DP.BMP,WildCard_NonEx,0.169733796,-0.000206163,1,0,0,0.6719,optionRight,45,6625,3,30,0,30,0,1,,,,,,,,,,,,,,,,,,,,,,,,,,,,,,,,,,,,,,,
,,,,,,,,2023-08-16_08h23.13.618,HF_wild_card,2022.2.4,MacIntel,120.0048002,603797db171365017caa15e5,64d2fd46c836a06233681665,64dc79572fd88853c1696268,,,,,,,ctch,resources/DBN.BMP,resources/DG.BMP,Door3,-0.178342014,0.035069444,1,0,0,0.6053,optionLeft,70,6695,3,31,0,31,0,1,,,,,,,,,,,,,,,,,,,,,,,,,,,,,,,,,,,,,,,
,,,,,,,,2023-08-16_08h23.13.618,HF_wild_card,2022.2.4,MacIntel,120.0048002,603797db171365017caa15e5,64d2fd46c836a06233681665,64dc79572fd88853c1696268,,,,,,,sngl,resources/Empty.png,resources/DB.BMP,Door1,0.189778646,0.016113281,1,0,0,0.6208,optionRight,30,6725,3,32,0,32,0,1,,,,,,,,,,,,,,,,,,,,,,,,,,,,,,,,,,,,,,,
,,,,,,,,2023-08-16_08h23.13.618,HF_wild_card,2022.2.4,MacIntel,120.0048002,603797db171365017caa15e5,64d2fd46c836a06233681665,64dc79572fd88853c1696268,,,,,,,decisionTrl,resources/DP.BMP,resources/DBN.BMP,Door3,0.241330295,0.020084635,1,0,0,0.8479,optionRight,70,6795,3,33,0,33,0,1,,,,,,,,,,,,,,,,,,,,,,,,,,,,,,,,,,,,,,,
,,,,,,,,2023-08-16_08h23.13.618,HF_wild_card,2022.2.4,MacIntel,120.0048002,603797db171365017caa15e5,64d2fd46c836a06233681665,64dc79572fd88853c1696268,,,,,,,sngl,resources/Empty.png,resources/DG.BMP,Door2,0.250647425,0.0135489,1,0,0,0.6474,optionRight,20,6815,3,34,0,34,0,1,,,,,,,,,,,,,,,,,,,,,,,,,,,,,,,,,,,,,,,
,,,,,,,,2023-08-16_08h23.13.618,HF_wild_card,2022.2.4,MacIntel,120.0048002,603797db171365017caa15e5,64d2fd46c836a06233681665,64dc79572fd88853c1696268,,,,,,,decisionTrl,resources/DB.BMP,resources/DG.BMP,Door1,-0.140013744,0.00598235,1,0,0,0.6488,optionLeft,30,6845,3,35,0,35,0,1,,,,,,,,,,,,,,,,,,,,,,,,,,,,,,,,,,,,,,,
,,,,,,,,2023-08-16_08h23.13.618,HF_wild_card,2022.2.4,MacIntel,120.0048002,603797db171365017caa15e5,64d2fd46c836a06233681665,64dc79572fd88853c1696268,,,,,,,decisionTrl,resources/DBN.BMP,resources/DY.BMP,Door3,-0.176533565,0.006477865,1,0,0,0.7655,optionLeft,70,6915,3,36,0,36,0,1,,,,,,,,,,,,,,,,,,,,,,,,,,,,,,,,,,,,,,,
,,,,,,,,2023-08-16_08h23.13.618,HF_wild_card,2022.2.4,MacIntel,120.0048002,603797db171365017caa15e5,64d2fd46c836a06233681665,64dc79572fd88853c1696268,,,,,,,sngl,resources/DP.BMP,resources/Empty.png,WildCard_NonEx,-0.128360098,0.001526331,1,0,0,0.8733,optionLeft,55,6970,3,37,0,37,0,1,,,,,,,,,,,,,,,,,,,,,,,,,,,,,,,,,,,,,,,
,,,,,,,,2023-08-16_08h23.13.618,HF_wild_card,2022.2.4,MacIntel,120.0048002,603797db171365017caa15e5,64d2fd46c836a06233681665,64dc79572fd88853c1696268,,,,,,,ctch,resources/DY.BMP,resources/DB.BMP,Door4,-0.152640336,0.019212963,1,0,0,0.6726,optionLeft,60,7030,3,38,0,38,0,1,,,,,,,,,,,,,,,,,,,,,,,,,,,,,,,,,,,,,,,
,,,,,,,,2023-08-16_08h23.13.618,HF_wild_card,2022.2.4,MacIntel,120.0048002,603797db171365017caa15e5,64d2fd46c836a06233681665,64dc79572fd88853c1696268,,,,,,,decisionTrl,resources/DB.BMP,resources/DG.BMP,Door2,0.248336227,0.038925058,1,0,0,2.0971,optionRight,20,7050,3,39,0,39,0,1,,,,,,,,,,,,,,,,,,,,,,,,,,,,,,,,,,,,,,,
,,,,,,,,2023-08-16_08h23.13.618,HF_wild_card,2022.2.4,MacIntel,120.0048002,603797db171365017caa15e5,64d2fd46c836a06233681665,64dc79572fd88853c1696268,,,,,,,decisionTrl,resources/DY.BMP,resources/DP.BMP,Door4,-0.165010127,-0.005848524,1,0,0,1.4081,optionLeft,60,7110,3,40,0,40,0,1,,,,,,,,,,,,,,,,,,,,,,,,,,,,,,,,,,,,,,,
,,,,,,,,2023-08-16_08h23.13.618,HF_wild_card,2022.2.4,MacIntel,120.0048002,603797db171365017caa15e5,64d2fd46c836a06233681665,64dc79572fd88853c1696268,,,,,,,decisionTrl,resources/DB.BMP,resources/DG.BMP,Door1,-0.180801505,0.008362269,1,0,0,16.331,optionLeft,30,7140,3,41,0,41,0,1,,,,,,,,,,,,,,,,,,,,,,,,,,,,,,,,,,,,,,,
,,,,,,,,2023-08-16_08h23.13.618,HF_wild_card,2022.2.4,MacIntel,120.0048002,603797db171365017caa15e5,64d2fd46c836a06233681665,64dc79572fd88853c1696268,,,,,,,decisionTrl,resources/DB.BMP,resources/DG.BMP,Door1,-0.156778067,-0.015335648,1,0,0,0.649,optionLeft,30,7170,3,42,0,42,0,1,,,,,,,,,,,,,,,,,,,,,,,,,,,,,,,,,,,,,,,
,,,,,,,,2023-08-16_08h23.13.618,HF_wild_card,2022.2.4,MacIntel,120.0048002,603797db171365017caa15e5,64d2fd46c836a06233681665,64dc79572fd88853c1696268,,,,,,,decisionTrl,resources/DG.BMP,resources/DB.BMP,Door2,-0.133286314,0.011469184,1,0,0,4.3879,optionLeft,40,7210,3,43,0,43,0,1,,,,,,,,,,,,,,,,,,,,,,,,,,,,,,,,,,,,,,,
,,,,,,,,2023-08-16_08h23.13.618,HF_wild_card,2022.2.4,MacIntel,120.0048002,603797db171365017caa15e5,64d2fd46c836a06233681665,64dc79572fd88853c1696268,,,,,,,,,,,,,,,,,,,,,,,,,,2,0,2,0,1,,,,,,,,,,,,,,,,,,,,,,,,,,,,,,,,,,
,,,,,,,,2023-08-16_08h23.13.618,HF_wild_card,2022.2.4,MacIntel,120.0048002,603797db171365017caa15e5,64d2fd46c836a06233681665,64dc79572fd88853c1696268,,,,,,,decisionTrl,resources/DY.BMP,resources/DBN.BMP,Door3,0.370193142,-0.113183594,1,0,0,1.0161,optionRight,70,7280,4,0,0,0,0,1,,,,,,,,,,,,,,,,,,,,,,,,,,,,,,,,,,,,,,,
,,,,,,,,2023-08-16_08h23.13.618,HF_wild_card,2022.2.4,MacIntel,120.0048002,603797db171365017caa15e5,64d2fd46c836a06233681665,64dc79572fd88853c1696268,,,,,,,decisionTrl,resources/DY.BMP,resources/DR.BMP,WildCard_Ex,0.291236256,-0.02734375,1,0,0,1.132,optionRight,55,7335,4,1,0,1,0,1,,,,,,,,,,,,,,,,,,,,,,,,,,,,,,,,,,,,,,,
,,,,,,,,2023-08-16_08h23.13.618,HF_wild_card,2022.2.4,MacIntel,120.0048002,603797db171365017caa15e5,64d2fd46c836a06233681665,64dc79572fd88853c1696268,,,,,,,decisionTrl,resources/DB.BMP,resources/DG.BMP,Door1,-0.17744864,-0.041887297,1,0,0,1.4323,optionLeft,30,7365,4,2,0,2,0,1,,,,,,,,,,,,,,,,,,,,,,,,,,,,,,,,,,,,,,,
,,,,,,,,2023-08-16_08h23.13.618,HF_wild_card,2022.2.4,MacIntel,120.0048002,603797db171365017caa15e5,64d2fd46c836a06233681665,64dc79572fd88853c1696268,,,,,,,decisionTrl,resources/DY.BMP,resources/DBN.BMP,Door3,0.266337529,0.007204861,1,0,0,0.7663,optionRight,70,7435,4,3,0,3,0,1,,,,,,,,,,,,,,,,,,,,,,,,,,,,,,,,,,,,,,,
,,,,,,,,2023-08-16_08h23.13.618,HF_wild_card,2022.2.4,MacIntel,120.0048002,603797db171365017caa15e5,64d2fd46c836a06233681665,64dc79572fd88853c1696268,,,,,,,ctch,resources/DG.BMP,resources/DBN.BMP,Door3,0.210489005,0.000296586,1,0,0,0.7216,optionRight,70,7505,4,4,0,4,0,1,,,,,,,,,,,,,,,,,,,,,,,,,,,,,,,,,,,,,,,
,,,,,,,,2023-08-16_08h23.13.618,HF_wild_card,2022.2.4,MacIntel,120.0048002,603797db171365017caa15e5,64d2fd46c836a06233681665,64dc79572fd88853c1696268,,,,,,,sngl,resources/DR.BMP,resources/Empty.png,WildCard_Ex,-0.204973235,0.016970486,1,0,0,0.7063,optionLeft,45,7550,4,5,0,5,0,1,,,,,,,,,,,,,,,,,,,,,,,,,,,,,,,,,,,,,,,
,,,,,,,,2023-08-16_08h23.13.618,HF_wild_card,2022.2.4,MacIntel,120.0048002,603797db171365017caa15e5,64d2fd46c836a06233681665,64dc79572fd88853c1696268,,,,,,,sngl,resources/Empty.png,resources/DB.BMP,Door1,0.193442564,-0.036183449,1,0,0,0.6775,optionRight,30,7580,4,6,0,6,0,1,,,,,,,,,,,,,,,,,,,,,,,,,,,,,,,,,,,,,,,
,,,,,,,,2023-08-16_08h23.13.618,HF_wild_card,2022.2.4,MacIntel,120.0048002,603797db171365017caa15e5,64d2fd46c836a06233681665,64dc79572fd88853c1696268,,,,,,,sngl,resources/DBN.BMP,resources/Empty.png,Door3,-0.188104022,0.003164786,1,0,0,0.6408,optionLeft,70,7650,4,7,0,7,0,1,,,,,,,,,,,,,,,,,,,,,,,,,,,,,,,,,,,,,,,
,,,,,,,,2023-08-16_08h23.13.618,HF_wild_card,2022.2.4,MacIntel,120.0048002,603797db171365017caa15e5,64d2fd46c836a06233681665,64dc79572fd88853c1696268,,,,,,,decisionTrl,resources/DBN.BMP,resources/DY.BMP,Door4,0.156521267,-0.004329427,1,0,0,0.9542,optionRight,80,7730,4,8,0,8,0,1,,,,,,,,,,,,,,,,,,,,,,,,,,,,,,,,,,,,,,,
,,,,,,,,2023-08-16_08h23.13.618,HF_wild_card,2022.2.4,MacIntel,120.0048002,603797db171365017caa15e5,64d2fd46c836a06233681665,64dc79572fd88853c1696268,,,,,,,decisionTrl,resources/DB.BMP,resources/DR.BMP,WildCard_Ex,0.135478154,-0.01291956,1,0,0,1.1647,optionRight,55,7785,4,9,0,9,0,1,,,,,,,,,,,,,,,,,,,,,,,,,,,,,,,,,,,,,,,
,,,,,,,,2023-08-16_08h23.13.618,HF_wild_card,2022.2.4,MacIntel,120.0048002,603797db171365017caa15e5,64d2fd46c836a06233681665,64dc79572fd88853c1696268,,,,,,,ctch,resources/DY.BMP,resources/DB.BMP,Door4,-0.16625434,0.012554253,1,0,0,0.6902,optionLeft,80,7865,4,10,0,10,0,1,,,,,,,,,,,,,,,,,,,,,,,,,,,,,,,,,,,,,,,
,,,,,,,,2023-08-16_08h23.13.618,HF_wild_card,2022.2.4,MacIntel,120.0048002,603797db171365017caa15e5,64d2fd46c836a06233681665,64dc79572fd88853c1696268,,,,,,,decisionTrl,resources/DY.BMP,resources/DBN.BMP,Door3,0.21087963,-0.011266638,1,0,0,0.9747,optionRight,70,7935,4,11,0,11,0,1,,,,,,,,,,,,,,,,,,,,,,,,,,,,,,,,,,,,,,,
,,,,,,,,2023-08-16_08h23.13.618,HF_wild_card,2022.2.4,MacIntel,120.0048002,603797db171365017caa15e5,64d2fd46c836a06233681665,64dc79572fd88853c1696268,,,,,,,ctch,resources/DBN.BMP,resources/DG.BMP,Door3,-0.237246817,-0.002737992,1,0,0,0.8161,optionLeft,70,8005,4,12,0,12,0,1,,,,,,,,,,,,,,,,,,,,,,,,,,,,,,,,,,,,,,,
,,,,,,,,2023-08-16_08h23.13.618,HF_wild_card,2022.2.4,MacIntel,120.0048002,603797db171365017caa15e5,64d2fd46c836a06233681665,64dc79572fd88853c1696268,,,,,,,decisionTrl,resources/DBN.BMP,resources/DR.BMP,Door3,-0.215993924,0.021184172,1,0,0,1.7281,optionLeft,70,8075,4,13,0,13,0,1,,,,,,,,,,,,,,,,,,,,,,,,,,,,,,,,,,,,,,,
,,,,,,,,2023-08-16_08h23.13.618,HF_wild_card,2022.2.4,MacIntel,120.0048002,603797db171365017caa15e5,64d2fd46c836a06233681665,64dc79572fd88853c1696268,,,,,,,ctch,resources/DB.BMP,resources/DY.BMP,Door4,0.177387153,-0.008203125,1,0,0,0.8488,optionRight,80,8155,4,14,0,14,0,1,,,,,,,,,,,,,,,,,,,,,,,,,,,,,,,,,,,,,,,
,,,,,,,,2023-08-16_08h23.13.618,HF_wild_card,2022.2.4,MacIntel,120.0048002,603797db171365017caa15e5,64d2fd46c836a06233681665,64dc79572fd88853c1696268,,,,,,,sngl,resources/DR.BMP,resources/Empty.png,WildCard_Ex,-0.183445457,0.005031105,1,0,0,0.6392,optionLeft,55,8210,4,15,0,15,0,1,,,,,,,,,,,,,,,,,,,,,,,,,,,,,,,,,,,,,,,
,,,,,,,,2023-08-16_08h23.13.618,HF_wild_card,2022.2.4,MacIntel,120.0048002,603797db171365017caa15e5,64d2fd46c836a06233681665,64dc79572fd88853c1696268,,,,,,,ctch,resources/DG.BMP,resources/DBN.BMP,Door3,0.230555556,0.02620081,1,0,0,1.6838,optionRight,70,8280,4,16,0,16,0,1,,,,,,,,,,,,,,,,,,,,,,,,,,,,,,,,,,,,,,,
,,,,,,,,2023-08-16_08h23.13.618,HF_wild_card,2022.2.4,MacIntel,120.0048002,603797db171365017caa15e5,64d2fd46c836a06233681665,64dc79572fd88853c1696268,,,,,,,decisionTrl,resources/DG.BMP,resources/DB.BMP,Door2,-0.134523293,0.022692419,1,0,0,0.764,optionLeft,40,8320,4,17,0,17,0,1,,,,,,,,,,,,,,,,,,,,,,,,,,,,,,,,,,,,,,,
,,,,,,,,2023-08-16_08h23.13.618,HF_wild_card,2022.2.4,MacIntel,120.0048002,603797db171365017caa15e5,64d2fd46c836a06233681665,64dc79572fd88853c1696268,,,,,,,decisionTrl,resources/DBN.BMP,resources/DY.BMP,Door4,0.197999855,0.007016782,1,0,0,0.9068,optionRight,80,8400,4,18,0,18,0,1,,,,,,,,,,,,,,,,,,,,,,,,,,,,,,,,,,,,,,,
,,,,,,,,2023-08-16_08h23.13.618,HF_wild_card,2022.2.4,MacIntel,120.0048002,603797db171365017caa15e5,64d2fd46c836a06233681665,64dc79572fd88853c1696268,,,,,,,decisionTrl,resources/DR.BMP,resources/DBN.BMP,Door3,0.24703776,0.012131076,1,0,0,1.0801,optionRight,70,8470,4,19,0,19,0,1,,,,,,,,,,,,,,,,,,,,,,,,,,,,,,,,,,,,,,,
,,,,,,,,2023-08-16_08h23.13.618,HF_wild_card,2022.2.4,MacIntel,120.0048002,603797db171365017caa15e5,64d2fd46c836a06233681665,64dc79572fd88853c1696268,,,,,,,ctch,resources/DBN.BMP,resources/DG.BMP,Door3,-0.216489439,0.032060185,1,0,0,0.7581,optionLeft,70,8540,4,20,0,20,0,1,,,,,,,,,,,,,,,,,,,,,,,,,,,,,,,,,,,,,,,
,,,,,,,,2023-08-16_08h23.13.618,HF_wild_card,2022.2.4,MacIntel,120.0048002,603797db171365017caa15e5,64d2fd46c836a06233681665,64dc79572fd88853c1696268,,,,,,,decisionTrl,resources/DR.BMP,resources/DB.BMP,WildCard_Ex,-0.200018084,0.008449074,1,0,0,1.2162,optionLeft,45,8585,4,21,0,21,0,1,,,,,,,,,,,,,,,,,,,,,,,,,,,,,,,,,,,,,,,
,,,,,,,,2023-08-16_08h23.13.618,HF_wild_card,2022.2.4,MacIntel,120.0048002,603797db171365017caa15e5,64d2fd46c836a06233681665,64dc79572fd88853c1696268,,,,,,,decisionTrl,resources/DG.BMP,resources/DB.BMP,Door2,-0.196784578,0.019350405,1,0,0,1.5622,optionLeft,40,8625,4,22,0,22,0,1,,,,,,,,,,,,,,,,,,,,,,,,,,,,,,,,,,,,,,,
,,,,,,,,2023-08-16_08h23.13.618,HF_wild_card,2022.2.4,MacIntel,120.0048002,603797db171365017caa15e5,64d2fd46c836a06233681665,64dc79572fd88853c1696268,,,,,,,decisionTrl,resources/DG.BMP,resources/DB.BMP,Door2,-0.13739511,0.042842159,1,0,0,0.7832,optionLeft,20,8645,4,23,0,23,0,1,,,,,,,,,,,,,,,,,,,,,,,,,,,,,,,,,,,,,,,
,,,,,,,,2023-08-16_08h23.13.618,HF_wild_card,2022.2.4,MacIntel,120.0048002,603797db171365017caa15e5,64d2fd46c836a06233681665,64dc79572fd88853c1696268,,,,,,,sngl,resources/Empty.png,resources/DG.BMP,Door2,0.231561053,0.029094329,1,0,0,0.6729,optionRight,40,8685,4,24,0,24,0,1,,,,,,,,,,,,,,,,,,,,,,,,,,,,,,,,,,,,,,,
,,,,,,,,2023-08-16_08h23.13.618,HF_wild_card,2022.2.4,MacIntel,120.0048002,603797db171365017caa15e5,64d2fd46c836a06233681665,64dc79572fd88853c1696268,,,,,,,sngl,resources/Empty.png,resources/DR.BMP,WildCard_Ex,0.197157118,-0.012666377,1,0,0,0.7157,optionRight,55,8740,4,25,0,25,0,1,,,,,,,,,,,,,,,,,,,,,,,,,,,,,,,,,,,,,,,
,,,,,,,,2023-08-16_08h23.13.618,HF_wild_card,2022.2.4,MacIntel,120.0048002,603797db171365017caa15e5,64d2fd46c836a06233681665,64dc79572fd88853c1696268,,,,,,,decisionTrl,resources/DBN.BMP,resources/DY.BMP,Door3,-0.148933015,-0.000777633,1,0,0,0.8904,optionLeft,70,8810,4,26,0,26,0,1,,,,,,,,,,,,,,,,,,,,,,,,,,,,,,,,,,,,,,,
,,,,,,,,2023-08-16_08h23.13.618,HF_wild_card,2022.2.4,MacIntel,120.0048002,603797db171365017caa15e5,64d2fd46c836a06233681665,64dc79572fd88853c1696268,,,,,,,sngl,resources/Empty.png,resources/DR.BMP,WildCard_Ex,0.213903356,-0.01858724,1,0,0,0.8975,optionRight,45,8855,4,27,0,27,0,1,,,,,,,,,,,,,,,,,,,,,,,,,,,,,,,,,,,,,,,
,,,,,,,,2023-08-16_08h23.13.618,HF_wild_card,2022.2.4,MacIntel,120.0048002,603797db171365017caa15e5,64d2fd46c836a06233681665,64dc79572fd88853c1696268,,,,,,,decisionTrl,resources/DG.BMP,resources/DR.BMP,WildCard_Ex,0.175853588,-0.044983362,1,0,0,3.9311,optionRight,55,8910,4,28,0,28,0,1,,,,,,,,,,,,,,,,,,,,,,,,,,,,,,,,,,,,,,,
,,,,,,,,2023-08-16_08h23.13.618,HF_wild_card,2022.2.4,MacIntel,120.0048002,603797db171365017caa15e5,64d2fd46c836a06233681665,64dc79572fd88853c1696268,,,,,,,sngl,resources/DG.BMP,resources/Empty.png,Door2,-0.12583912,0.003877315,1,0,0,0.7165,optionLeft,20,8930,4,29,0,29,0,1,,,,,,,,,,,,,,,,,,,,,,,,,,,,,,,,,,,,,,,
,,,,,,,,2023-08-16_08h23.13.618,HF_wild_card,2022.2.4,MacIntel,120.0048002,603797db171365017caa15e5,64d2fd46c836a06233681665,64dc79572fd88853c1696268,,,,,,,decisionTrl,resources/DR.BMP,resources/DG.BMP,WildCard_Ex,-0.107899306,0.005899161,1,0,0,0.7804,optionLeft,45,8975,4,30,0,30,0,1,,,,,,,,,,,,,,,,,,,,,,,,,,,,,,,,,,,,,,,
,,,,,,,,2023-08-16_08h23.13.618,HF_wild_card,2022.2.4,MacIntel,120.0048002,603797db171365017caa15e5,64d2fd46c836a06233681665,64dc79572fd88853c1696268,,,,,,,decisionTrl,resources/DR.BMP,resources/DY.BMP,Door4,0.203106916,0.005562789,1,0,0,0.7238,optionRight,80,9055,4,31,0,31,0,1,,,,,,,,,,,,,,,,,,,,,,,,,,,,,,,,,,,,,,,
,,,,,,,,2023-08-16_08h23.13.618,HF_wild_card,2022.2.4,MacIntel,120.0048002,603797db171365017caa15e5,64d2fd46c836a06233681665,64dc79572fd88853c1696268,,,,,,,decisionTrl,resources/DB.BMP,resources/DG.BMP,Door2,0.152629485,0.049609375,1,0,0,1.0893,optionRight,40,9095,4,32,0,32,0,1,,,,,,,,,,,,,,,,,,,,,,,,,,,,,,,,,,,,,,,
,,,,,,,,2023-08-16_08h23.13.618,HF_wild_card,2022.2.4,MacIntel,120.0048002,603797db171365017caa15e5,64d2fd46c836a06233681665,64dc79572fd88853c1696268,,,,,,,decisionTrl,resources/DB.BMP,resources/DG.BMP,Door1,-0.156633391,-0.002886285,1,0,0,0.799,optionLeft,30,9125,4,33,0,33,0,1,,,,,,,,,,,,,,,,,,,,,,,,,,,,,,,,,,,,,,,
,,,,,,,,2023-08-16_08h23.13.618,HF_wild_card,2022.2.4,MacIntel,120.0048002,603797db171365017caa15e5,64d2fd46c836a06233681665,64dc79572fd88853c1696268,,,,,,,sngl,resources/DY.BMP,resources/Empty.png,Door4,-0.182092737,-0.010159867,1,0,0,0.6659,optionLeft,60,9185,4,34,0,34,0,1,,,,,,,,,,,,,,,,,,,,,,,,,,,,,,,,,,,,,,,
,,,,,,,,2023-08-16_08h23.13.618,HF_wild_card,2022.2.4,MacIntel,120.0048002,603797db171365017caa15e5,64d2fd46c836a06233681665,64dc79572fd88853c1696268,,,,,,,decisionTrl,resources/DB.BMP,resources/DG.BMP,Door2,0.176576968,0.005353009,1,0,0,0.7982,optionRight,20,9205,4,35,0,35,0,1,,,,,,,,,,,,,,,,,,,,,,,,,,,,,,,,,,,,,,,
,,,,,,,,2023-08-16_08h23.13.618,HF_wild_card,2022.2.4,MacIntel,120.0048002,603797db171365017caa15e5,64d2fd46c836a06233681665,64dc79572fd88853c1696268,,,,,,,decisionTrl,resources/DBN.BMP,resources/DY.BMP,Door3,-0.139145689,0.01223235,1,0,0,0.8821,optionLeft,70,9275,4,36,0,36,0,1,,,,,,,,,,,,,,,,,,,,,,,,,,,,,,,,,,,,,,,
,,,,,,,,2023-08-16_08h23.13.618,HF_wild_card,2022.2.4,MacIntel,120.0048002,603797db171365017caa15e5,64d2fd46c836a06233681665,64dc79572fd88853c1696268,,,,,,,decisionTrl,resources/DY.BMP,resources/DBN.BMP,Door4,-0.12286603,-0.013143808,1,0,0,1.471,optionLeft,60,9335,4,37,0,37,0,1,,,,,,,,,,,,,,,,,,,,,,,,,,,,,,,,,,,,,,,
,,,,,,,,2023-08-16_08h23.13.618,HF_wild_card,2022.2.4,MacIntel,120.0048002,603797db171365017caa15e5,64d2fd46c836a06233681665,64dc79572fd88853c1696268,,,,,,,sngl,resources/Empty.png,resources/DY.BMP,Door4,0.200915075,-0.00718316,1,0,0,0.6664,optionRight,80,9415,4,38,0,38,0,1,,,,,,,,,,,,,,,,,,,,,,,,,,,,,,,,,,,,,,,
,,,,,,,,2023-08-16_08h23.13.618,HF_wild_card,2022.2.4,MacIntel,120.0048002,603797db171365017caa15e5,64d2fd46c836a06233681665,64dc79572fd88853c1696268,,,,,,,ctch,resources/DY.BMP,resources/DB.BMP,Door4,-0.162315538,0.003161169,1,0,0,0.6332,optionLeft,60,9475,4,39,0,39,0,1,,,,,,,,,,,,,,,,,,,,,,,,,,,,,,,,,,,,,,,
,,,,,,,,2023-08-16_08h23.13.618,HF_wild_card,2022.2.4,MacIntel,120.0048002,603797db171365017caa15e5,64d2fd46c836a06233681665,64dc79572fd88853c1696268,,,,,,,decisionTrl,resources/DG.BMP,resources/DB.BMP,Door1,0.105219184,0.002213542,1,0,0,1.5872,optionRight,30,9505,4,40,0,40,0,1,,,,,,,,,,,,,,,,,,,,,,,,,,,,,,,,,,,,,,,
,,,,,,,,2023-08-16_08h23.13.618,HF_wild_card,2022.2.4,MacIntel,120.0048002,603797db171365017caa15e5,64d2fd46c836a06233681665,64dc79572fd88853c1696268,,,,,,,sngl,resources/Empty.png,resources/DBN.BMP,Door3,0.119813368,0.005975116,1,0,0,0.7078,optionRight,70,9575,4,41,0,41,0,1,,,,,,,,,,,,,,,,,,,,,,,,,,,,,,,,,,,,,,,
,,,,,,,,2023-08-16_08h23.13.618,HF_wild_card,2022.2.4,MacIntel,120.0048002,603797db171365017caa15e5,64d2fd46c836a06233681665,64dc79572fd88853c1696268,,,,,,,ctch,resources/DB.BMP,resources/DY.BMP,Door4,0.123433883,0.029137731,1,0,0,0.8552,optionRight,80,9655,4,42,0,42,0,1,,,,,,,,,,,,,,,,,,,,,,,,,,,,,,,,,,,,,,,
,,,,,,,,2023-08-16_08h23.13.618,HF_wild_card,2022.2.4,MacIntel,120.0048002,603797db171365017caa15e5,64d2fd46c836a06233681665,64dc79572fd88853c1696268,,,,,,,sngl,resources/DB.BMP,resources/Empty.png,Door1,-0.175774016,0.016380932,1,0,0,0.6008,optionLeft,30,9685,4,43,0,43,0,1,,,,,,,,,,,,,,,,,,,,,,,,,,,,,,,,,,,,,,,
,,,,,,,,2023-08-16_08h23.13.618,HF_wild_card,2022.2.4,MacIntel,120.0048002,603797db171365017caa15e5,64d2fd46c836a06233681665,64dc79572fd88853c1696268,,,,,,,,,,,,,,,,,,,,,,,,,,3,0,3,0,1,,,,,,,,,,,,,,,,,,,,,,,,,,,,,,,,,,
,,,,,,,,2023-08-16_08h23.13.618,HF_wild_card,2022.2.4,MacIntel,120.0048002,603797db171365017caa15e5,64d2fd46c836a06233681665,64dc79572fd88853c1696268,,,,,,,decisionTrl,resources/DBN.BMP,resources/DR.BMP,Door3,-0.202199074,-0.101099537,1,0,0,1.0629,optionLeft,70,9755,5,0,0,0,0,1,,,,,,,,,,,,,,,,,,,,,,,,,,,,,,,,,,,,,,,
,,,,,,,,2023-08-16_08h23.13.618,HF_wild_card,2022.2.4,MacIntel,120.0048002,603797db171365017caa15e5,64d2fd46c836a06233681665,64dc79572fd88853c1696268,,,,,,,decisionTrl,resources/DG.BMP,resources/DB.BMP,Door2,-0.129148582,0.015465856,1,0,0,1.0545,optionLeft,20,9775,5,1,0,1,0,1,,,,,,,,,,,,,,,,,,,,,,,,,,,,,,,,,,,,,,,
,,,,,,,,2023-08-16_08h23.13.618,HF_wild_card,2022.2.4,MacIntel,120.0048002,603797db171365017caa15e5,64d2fd46c836a06233681665,64dc79572fd88853c1696268,,,,,,,ctch,resources/DBN.BMP,resources/DG.BMP,Door3,-0.14708478,0.026276765,1,0,0,0.6817,optionLeft,70,9845,5,2,0,2,0,1,,,,,,,,,,,,,,,,,,,,,,,,,,,,,,,,,,,,,,,
,,,,,,,,2023-08-16_08h23.13.618,HF_wild_card,2022.2.4,MacIntel,120.0048002,603797db171365017caa15e5,64d2fd46c836a06233681665,64dc79572fd88853c1696268,,,,,,,sngl,resources/Empty.png,resources/DBN.BMP,Door3,0.183604601,0.001710793,1,0,0,0.5988,optionRight,70,9915,5,3,0,3,0,1,,,,,,,,,,,,,,,,,,,,,,,,,,,,,,,,,,,,,,,
,,,,,,,,2023-08-16_08h23.13.618,HF_wild_card,2022.2.4,MacIntel,120.0048002,603797db171365017caa15e5,64d2fd46c836a06233681665,64dc79572fd88853c1696268,,,,,,,sngl,resources/Empty.png,resources/DG.BMP,Door2,0.210876013,0.012445747,1,0,0,0.6772,optionRight,20,9935,5,4,0,4,0,1,,,,,,,,,,,,,,,,,,,,,,,,,,,,,,,,,,,,,,,
,,,,,,,,2023-08-16_08h23.13.618,HF_wild_card,2022.2.4,MacIntel,120.0048002,603797db171365017caa15e5,64d2fd46c836a06233681665,64dc79572fd88853c1696268,,,,,,,ctch,resources/DB.BMP,resources/DY.BMP,Door4,0.173582176,0.023072193,1,0,0,0.8712,optionRight,60,9995,5,5,0,5,0,1,,,,,,,,,,,,,,,,,,,,,,,,,,,,,,,,,,,,,,,
,,,,,,,,2023-08-16_08h23.13.618,HF_wild_card,2022.2.4,MacIntel,120.0048002,603797db171365017caa15e5,64d2fd46c836a06233681665,64dc79572fd88853c1696268,,,,,,,decisionTrl,resources/DBN.BMP,resources/DY.BMP,Door4,0.183043981,0.041503906,1,0,0,1.3721,optionRight,80,10075,5,6,0,6,0,1,,,,,,,,,,,,,,,,,,,,,,,,,,,,,,,,,,,,,,,
,,,,,,,,2023-08-16_08h23.13.618,HF_wild_card,2022.2.4,MacIntel,120.0048002,603797db171365017caa15e5,64d2fd46c836a06233681665,64dc79572fd88853c1696268,,,,,,,sngl,resources/DB.BMP,resources/Empty.png,Door1,-0.183253762,0.023690683,1,0,0,0.5893,optionLeft,30,10105,5,7,0,7,0,1,,,,,,,,,,,,,,,,,,,,,,,,,,,,,,,,,,,,,,,
,,,,,,,,2023-08-16_08h23.13.618,HF_wild_card,2022.2.4,MacIntel,120.0048002,603797db171365017caa15e5,64d2fd46c836a06233681665,64dc79572fd88853c1696268,,,,,,,ctch,resources/DG.BMP,resources/DBN.BMP,Door3,0.209136285,-0.011440249,1,0,0,0.564,optionRight,70,10175,5,8,0,8,0,1,,,,,,,,,,,,,,,,,,,,,,,,,,,,,,,,,,,,,,,
,,,,,,,,2023-08-16_08h23.13.618,HF_wild_card,2022.2.4,MacIntel,120.0048002,603797db171365017caa15e5,64d2fd46c836a06233681665,64dc79572fd88853c1696268,,,,,,,sngl,resources/Empty.png,resources/DY.BMP,Door4,0.17327474,-0.009447338,1,0,0,0.6218,optionRight,60,10235,5,9,0,9,0,1,,,,,,,,,,,,,,,,,,,,,,,,,,,,,,,,,,,,,,,
,,,,,,,,2023-08-16_08h23.13.618,HF_wild_card,2022.2.4,MacIntel,120.0048002,603797db171365017caa15e5,64d2fd46c836a06233681665,64dc79572fd88853c1696268,,,,,,,ctch,resources/DBN.BMP,resources/DG.BMP,Door3,-0.204097946,0.018135127,1,0,0,0.5977,optionLeft,70,10305,5,10,0,10,0,1,,,,,,,,,,,,,,,,,,,,,,,,,,,,,,,,,,,,,,,
,,,,,,,,2023-08-16_08h23.13.618,HF_wild_card,2022.2.4,MacIntel,120.0048002,603797db171365017caa15e5,64d2fd46c836a06233681665,64dc79572fd88853c1696268,,,,,,,ctch,resources/DG.BMP,resources/DBN.BMP,Door3,0.220945457,-0.004416233,1,0,0,0.604,optionRight,70,10375,5,11,0,11,0,1,,,,,,,,,,,,,,,,,,,,,,,,,,,,,,,,,,,,,,,
,,,,,,,,2023-08-16_08h23.13.618,HF_wild_card,2022.2.4,MacIntel,120.0048002,603797db171365017caa15e5,64d2fd46c836a06233681665,64dc79572fd88853c1696268,,,,,,,decisionTrl,resources/DB.BMP,resources/DG.BMP,Door1,-0.18010706,0.012445747,1,0,0,0.5481,optionLeft,30,10405,5,12,0,12,0,1,,,,,,,,,,,,,,,,,,,,,,,,,,,,,,,,,,,,,,,
,,,,,,,,2023-08-16_08h23.13.618,HF_wild_card,2022.2.4,MacIntel,120.0048002,603797db171365017caa15e5,64d2fd46c836a06233681665,64dc79572fd88853c1696268,,,,,,,ctch,resources/DY.BMP,resources/DB.BMP,Door4,-0.155928096,0.015274161,1,0,0,0.7065,optionLeft,60,10465,5,13,0,13,0,1,,,,,,,,,,,,,,,,,,,,,,,,,,,,,,,,,,,,,,,
,,,,,,,,2023-08-16_08h23.13.618,HF_wild_card,2022.2.4,MacIntel,120.0048002,603797db171365017caa15e5,64d2fd46c836a06233681665,64dc79572fd88853c1696268,,,,,,,decisionTrl,resources/DBN.BMP,resources/DY.BMP,Door3,-0.183485243,0.04567419,1,0,0,0.7156,optionLeft,70,10535,5,14,0,14,0,1,,,,,,,,,,,,,,,,,,,,,,,,,,,,,,,,,,,,,,,
,,,,,,,,2023-08-16_08h23.13.618,HF_wild_card,2022.2.4,MacIntel,120.0048002,603797db171365017caa15e5,64d2fd46c836a06233681665,64dc79572fd88853c1696268,,,,,,,decisionTrl,resources/DB.BMP,resources/DR.BMP,WildCard_Ex,0.174739583,-0.001754196,1,0,0,0.7744,optionRight,45,10580,5,15,0,15,0,1,,,,,,,,,,,,,,,,,,,,,,,,,,,,,,,,,,,,,,,
,,,,,,,,2023-08-16_08h23.13.618,HF_wild_card,2022.2.4,MacIntel,120.0048002,603797db171365017caa15e5,64d2fd46c836a06233681665,64dc79572fd88853c1696268,,,,,,,decisionTrl,resources/DY.BMP,resources/DBN.BMP,Door4,-0.143192998,0.022088397,1,0,0,0.8092,optionLeft,80,10660,5,16,0,16,0,1,,,,,,,,,,,,,,,,,,,,,,,,,,,,,,,,,,,,,,,
,,,,,,,,2023-08-16_08h23.13.618,HF_wild_card,2022.2.4,MacIntel,120.0048002,603797db171365017caa15e5,64d2fd46c836a06233681665,64dc79572fd88853c1696268,,,,,,,decisionTrl,resources/DR.BMP,resources/DBN.BMP,Door3,0.23697555,0.028219039,1,0,0,0.7494,optionRight,70,10730,5,17,0,17,0,1,,,,,,,,,,,,,,,,,,,,,,,,,,,,,,,,,,,,,,,
,,,,,,,,2023-08-16_08h23.13.618,HF_wild_card,2022.2.4,MacIntel,120.0048002,603797db171365017caa15e5,64d2fd46c836a06233681665,64dc79572fd88853c1696268,,,,,,,ctch,resources/DY.BMP,resources/DB.BMP,Door4,-0.140813079,0.036284722,1,0,0,0.5732,optionLeft,60,10790,5,18,0,18,0,1,,,,,,,,,,,,,,,,,,,,,,,,,,,,,,,,,,,,,,,
,,,,,,,,2023-08-16_08h23.13.618,HF_wild_card,2022.2.4,MacIntel,120.0048002,603797db171365017caa15e5,64d2fd46c836a06233681665,64dc79572fd88853c1696268,,,,,,,decisionTrl,resources/DB.BMP,resources/DG.BMP,Door1,-0.124761285,0.021668837,1,0,0,0.8541,optionLeft,30,10820,5,19,0,19,0,1,,,,,,,,,,,,,,,,,,,,,,,,,,,,,,,,,,,,,,,
,,,,,,,,2023-08-16_08h23.13.618,HF_wild_card,2022.2.4,MacIntel,120.0048002,603797db171365017caa15e5,64d2fd46c836a06233681665,64dc79572fd88853c1696268,,,,,,,decisionTrl,resources/DG.BMP,resources/DB.BMP,Door2,-0.092078993,0.002662037,1,0,0,0.6571,optionLeft,40,10860,5,20,0,20,0,1,,,,,,,,,,,,,,,,,,,,,,,,,,,,,,,,,,,,,,,
,,,,,,,,2023-08-16_08h23.13.618,HF_wild_card,2022.2.4,MacIntel,120.0048002,603797db171365017caa15e5,64d2fd46c836a06233681665,64dc79572fd88853c1696268,,,,,,,decisionTrl,resources/DY.BMP,resources/DBN.BMP,Door4,-0.131622541,0.006260851,1,0,0,0.6887,optionLeft,60,10920,5,21,0,21,0,1,,,,,,,,,,,,,,,,,,,,,,,,,,,,,,,,,,,,,,,
,,,,,,,,2023-08-16_08h23.13.618,HF_wild_card,2022.2.4,MacIntel,120.0048002,603797db171365017caa15e5,64d2fd46c836a06233681665,64dc79572fd88853c1696268,,,,,,,sngl,resources/DR.BMP,resources/Empty.png,WildCard_Ex,-0.173744936,0.01332827,1,0,0,0.6063,optionLeft,55,10975,5,22,0,22,0,1,,,,,,,,,,,,,,,,,,,,,,,,,,,,,,,,,,,,,,,
,,,,,,,,2023-08-16_08h23.13.618,HF_wild_card,2022.2.4,MacIntel,120.0048002,603797db171365017caa15e5,64d2fd46c836a06233681665,64dc79572fd88853c1696268,,,,,,,sngl,resources/Empty.png,resources/DR.BMP,WildCard_Ex,0.168113426,-0.036997251,1,0,0,0.6664,optionRight,45,11020,5,23,0,23,0,1,,,,,,,,,,,,,,,,,,,,,,,,,,,,,,,,,,,,,,,
,,,,,,,,2023-08-16_08h23.13.618,HF_wild_card,2022.2.4,MacIntel,120.0048002,603797db171365017caa15e5,64d2fd46c836a06233681665,64dc79572fd88853c1696268,,,,,,,decisionTrl,resources/DG.BMP,resources/DB.BMP,Door2,-0.131224682,0.014138455,1,0,0,0.7409,optionLeft,40,11060,5,24,0,24,0,1,,,,,,,,,,,,,,,,,,,,,,,,,,,,,,,,,,,,,,,
,,,,,,,,2023-08-16_08h23.13.618,HF_wild_card,2022.2.4,MacIntel,120.0048002,603797db171365017caa15e5,64d2fd46c836a06233681665,64dc79572fd88853c1696268,,,,,,,sngl,resources/DY.BMP,resources/Empty.png,Door4,-0.167476852,0.00088614,1,0,0,0.698,optionLeft,80,11140,5,25,0,25,0,1,,,,,,,,,,,,,,,,,,,,,,,,,,,,,,,,,,,,,,,
,,,,,,,,2023-08-16_08h23.13.618,HF_wild_card,2022.2.4,MacIntel,120.0048002,603797db171365017caa15e5,64d2fd46c836a06233681665,64dc79572fd88853c1696268,,,,,,,decisionTrl,resources/DR.BMP,resources/DY.BMP,Door4,0.307396557,0.002575231,1,0,0,0.6083,optionRight,80,11220,5,26,0,26,0,1,,,,,,,,,,,,,,,,,,,,,,,,,,,,,,,,,,,,,,,
,,,,,,,,2023-08-16_08h23.13.618,HF_wild_card,2022.2.4,MacIntel,120.0048002,603797db171365017caa15e5,64d2fd46c836a06233681665,64dc79572fd88853c1696268,,,,,,,decisionTrl,resources/DY.BMP,resources/DBN.BMP,Door3,0.181166811,0.01442419,1,0,0,22.2821,optionRight,70,11290,5,27,0,27,0,1,,,,,,,,,,,,,,,,,,,,,,,,,,,,,,,,,,,,,,,
,,,,,,,,2023-08-16_08h23.13.618,HF_wild_card,2022.2.4,MacIntel,120.0048002,603797db171365017caa15e5,64d2fd46c836a06233681665,64dc79572fd88853c1696268,,,,,,,sngl,resources/DBN.BMP,resources/Empty.png,Door3,-0.250535301,-0.00551577,1,0,0,0.5143,optionLeft,70,11360,5,28,0,28,0,1,,,,,,,,,,,,,,,,,,,,,,,,,,,,,,,,,,,,,,,
,,,,,,,,2023-08-16_08h23.13.618,HF_wild_card,2022.2.4,MacIntel,120.0048002,603797db171365017caa15e5,64d2fd46c836a06233681665,64dc79572fd88853c1696268,,,,,,,decisionTrl,resources/DY.BMP,resources/DBN.BMP,Door4,-0.206134259,0.00808015,1,0,0,0.6559,optionLeft,60,11420,5,29,0,29,0,1,,,,,,,,,,,,,,,,,,,,,,,,,,,,,,,,,,,,,,,
,,,,,,,,2023-08-16_08h23.13.618,HF_wild_card,2022.2.4,MacIntel,120.0048002,603797db171365017caa15e5,64d2fd46c836a06233681665,64dc79572fd88853c1696268,,,,,,,decisionTrl,resources/DB.BMP,resources/DG.BMP,Door2,0.259020544,0.026584201,1,0,0,0.8302,optionRight,20,11440,5,30,0,30,0,1,,,,,,,,,,,,,,,,,,,,,,,,,,,,,,,,,,,,,,,
,,,,,,,,2023-08-16_08h23.13.618,HF_wild_card,2022.2.4,MacIntel,120.0048002,603797db171365017caa15e5,64d2fd46c836a06233681665,64dc79572fd88853c1696268,,,,,,,decisionTrl,resources/DB.BMP,resources/DG.BMP,Door1,-0.112832755,0.018786169,1,0,0,0.5494,optionLeft,30,11470,5,31,0,31,0,1,,,,,,,,,,,,,,,,,,,,,,,,,,,,,,,,,,,,,,,
,,,,,,,,2023-08-16_08h23.13.618,HF_wild_card,2022.2.4,MacIntel,120.0048002,603797db171365017caa15e5,64d2fd46c836a06233681665,64dc79572fd88853c1696268,,,,,,,decisionTrl,resources/DBN.BMP,resources/DY.BMP,Door3,-0.201175492,0.019538484,1,0,0,0.672,optionLeft,70,11540,5,32,0,32,0,1,,,,,,,,,,,,,,,,,,,,,,,,,,,,,,,,,,,,,,,
,,,,,,,,2023-08-16_08h23.13.618,HF_wild_card,2022.2.4,MacIntel,120.0048002,603797db171365017caa15e5,64d2fd46c836a06233681665,64dc79572fd88853c1696268,,,,,,,sngl,resources/Empty.png,resources/DB.BMP,Door1,0.190805845,0.028779659,1,0,0,0.591,optionRight,30,11570,5,33,0,33,0,1,,,,,,,,,,,,,,,,,,,,,,,,,,,,,,,,,,,,,,,
,,,,,,,,2023-08-16_08h23.13.618,HF_wild_card,2022.2.4,MacIntel,120.0048002,603797db171365017caa15e5,64d2fd46c836a06233681665,64dc79572fd88853c1696268,,,,,,,sngl,resources/Empty.png,resources/DR.BMP,WildCard_Ex,0.218399161,0.042220052,1,0,0,0.5461,optionRight,55,11625,5,34,0,34,0,1,,,,,,,,,,,,,,,,,,,,,,,,,,,,,,,,,,,,,,,
,,,,,,,,2023-08-16_08h23.13.618,HF_wild_card,2022.2.4,MacIntel,120.0048002,603797db171365017caa15e5,64d2fd46c836a06233681665,64dc79572fd88853c1696268,,,,,,,decisionTrl,resources/DR.BMP,resources/DG.BMP,WildCard_Ex,-0.150643808,0.015979456,1,0,0,0.6314,optionLeft,45,11670,5,35,0,35,0,1,,,,,,,,,,,,,,,,,,,,,,,,,,,,,,,,,,,,,,,
,,,,,,,,2023-08-16_08h23.13.618,HF_wild_card,2022.2.4,MacIntel,120.0048002,603797db171365017caa15e5,64d2fd46c836a06233681665,64dc79572fd88853c1696268,,,,,,,decisionTrl,resources/DG.BMP,resources/DR.BMP,WildCard_Ex,0.191572627,0.007172309,1,0,0,0.9998,optionRight,45,11715,5,36,0,36,0,1,,,,,,,,,,,,,,,,,,,,,,,,,,,,,,,,,,,,,,,
,,,,,,,,2023-08-16_08h23.13.618,HF_wild_card,2022.2.4,MacIntel,120.0048002,603797db171365017caa15e5,64d2fd46c836a06233681665,64dc79572fd88853c1696268,,,,,,,sngl,resources/DG.BMP,resources/Empty.png,Door2,-0.125122975,0.015480324,1,0,0,0.6323,optionLeft,40,11755,5,37,0,37,0,1,,,,,,,,,,,,,,,,,,,,,,,,,,,,,,,,,,,,,,,
,,,,,,,,2023-08-16_08h23.13.618,HF_wild_card,2022.2.4,MacIntel,120.0048002,603797db171365017caa15e5,64d2fd46c836a06233681665,64dc79572fd88853c1696268,,,,,,,ctch,resources/DB.BMP,resources/DY.BMP,Door4,0.191037326,0.030776186,1,0,0,0.9581,optionRight,80,11835,5,38,0,38,0,1,,,,,,,,,,,,,,,,,,,,,,,,,,,,,,,,,,,,,,,
,,,,,,,,2023-08-16_08h23.13.618,HF_wild_card,2022.2.4,MacIntel,120.0048002,603797db171365017caa15e5,64d2fd46c836a06233681665,64dc79572fd88853c1696268,,,,,,,decisionTrl,resources/DR.BMP,resources/DB.BMP,WildCard_Ex,-0.138480179,0.013812934,1,0,0,0.8564,optionLeft,55,11890,5,39,0,39,0,1,,,,,,,,,,,,,,,,,,,,,,,,,,,,,,,,,,,,,,,
,,,,,,,,2023-08-16_08h23.13.618,HF_wild_card,2022.2.4,MacIntel,120.0048002,603797db171365017caa15e5,64d2fd46c836a06233681665,64dc79572fd88853c1696268,,,,,,,decisionTrl,resources/DY.BMP,resources/DR.BMP,Door4,-0.259917535,0.021213108,1,0,0,0.6565,optionLeft,60,11950,5,40,0,40,0,1,,,,,,,,,,,,,,,,,,,,,,,,,,,,,,,,,,,,,,,
,,,,,,,,2023-08-16_08h23.13.618,HF_wild_card,2022.2.4,MacIntel,120.0048002,603797db171365017caa15e5,64d2fd46c836a06233681665,64dc79572fd88853c1696268,,,,,,,decisionTrl,resources/DBN.BMP,resources/DY.BMP,Door4,0.254676649,0.010930266,1,0,0,0.5628,optionRight,80,12030,5,41,0,41,0,1,,,,,,,,,,,,,,,,,,,,,,,,,,,,,,,,,,,,,,,
,,,,,,,,2023-08-16_08h23.13.618,HF_wild_card,2022.2.4,MacIntel,120.0048002,603797db171365017caa15e5,64d2fd46c836a06233681665,64dc79572fd88853c1696268,,,,,,,decisionTrl,resources/DG.BMP,resources/DB.BMP,Door2,-0.186060475,0.026920573,1,0,0,0.9564,optionLeft,40,12070,5,42,0,42,0,1,,,,,,,,,,,,,,,,,,,,,,,,,,,,,,,,,,,,,,,
,,,,,,,,2023-08-16_08h23.13.618,HF_wild_card,2022.2.4,MacIntel,120.0048002,603797db171365017caa15e5,64d2fd46c836a06233681665,64dc79572fd88853c1696268,,,,,,,sngl,resources/DR.BMP,resources/Empty.png,WildCard_Ex,-0.183156105,0.025358073,1,0,0,0.5395,optionLeft,45,12115,5,43,0,43,0,1,,,,,,,,,,,,,,,,,,,,,,,,,,,,,,,,,,,,,,,
,,,,,,,,2023-08-16_08h23.13.618,HF_wild_card,2022.2.4,MacIntel,120.0048002,603797db171365017caa15e5,64d2fd46c836a06233681665,64dc79572fd88853c1696268,,,,,,,,,,,,,,,,,,,,,,,,,,4,0,4,0,1,,,,,,,,,,,,,,,,,,,,,,,,,,,,,,,,,,
,,,,,,,,2023-08-16_08h23.13.618,HF_wild_card,2022.2.4,MacIntel,120.0048002,603797db171365017caa15e5,64d2fd46c836a06233681665,64dc79572fd88853c1696268,,,,,,,decisionTrl,resources/DB.BMP,resources/DG.BMP,Door1,-0.201945891,-0.030765336,1,0,0,1.4949,optionLeft,30,12145,6,0,0,0,0,1,,,,,,,,,,,,,,,,,,,,,,,,,,,,,,,,,,,,,,,
,,,,,,,,2023-08-16_08h23.13.618,HF_wild_card,2022.2.4,MacIntel,120.0048002,603797db171365017caa15e5,64d2fd46c836a06233681665,64dc79572fd88853c1696268,,,,,,,ctch,resources/DBN.BMP,resources/DG.BMP,Door3,-0.169976128,0.014644821,1,0,0,0.7149,optionLeft,70,12215,6,1,0,1,0,1,,,,,,,,,,,,,,,,,,,,,,,,,,,,,,,,,,,,,,,
,,,,,,,,2023-08-16_08h23.13.618,HF_wild_card,2022.2.4,MacIntel,120.0048002,603797db171365017caa15e5,64d2fd46c836a06233681665,64dc79572fd88853c1696268,,,,,,,ctch,resources/DBN.BMP,resources/DG.BMP,Door3,-0.168149595,0.004969618,1,0,0,0.6188,optionLeft,70,12285,6,2,0,2,0,1,,,,,,,,,,,,,,,,,,,,,,,,,,,,,,,,,,,,,,,
,,,,,,,,2023-08-16_08h23.13.618,HF_wild_card,2022.2.4,MacIntel,120.0048002,603797db171365017caa15e5,64d2fd46c836a06233681665,64dc79572fd88853c1696268,,,,,,,decisionTrl,resources/DB.BMP,resources/DG.BMP,Door2,0.279029225,0.051240596,1,0,0,0.6485,optionRight,20,12305,6,3,0,3,0,1,,,,,,,,,,,,,,,,,,,,,,,,,,,,,,,,,,,,,,,
,,,,,,,,2023-08-16_08h23.13.618,HF_wild_card,2022.2.4,MacIntel,120.0048002,603797db171365017caa15e5,64d2fd46c836a06233681665,64dc79572fd88853c1696268,,,,,,,sngl,resources/Empty.png,resources/DB.BMP,Door1,0.238574219,0.022960069,1,0,0,0.5731,optionRight,30,12335,6,4,0,4,0,1,,,,,,,,,,,,,,,,,,,,,,,,,,,,,,,,,,,,,,,
,,,,,,,,2023-08-16_08h23.13.618,HF_wild_card,2022.2.4,MacIntel,120.0048002,603797db171365017caa15e5,64d2fd46c836a06233681665,64dc79572fd88853c1696268,,,,,,,decisionTrl,resources/DB.BMP,resources/DG.BMP,Door1,-0.152748843,0.02536169,1,0,0,0.7479,optionLeft,30,12365,6,5,0,5,0,1,,,,,,,,,,,,,,,,,,,,,,,,,,,,,,,,,,,,,,,
,,,,,,,,2023-08-16_08h23.13.618,HF_wild_card,2022.2.4,MacIntel,120.0048002,603797db171365017caa15e5,64d2fd46c836a06233681665,64dc79572fd88853c1696268,,,,,,,sngl,resources/DR.BMP,resources/Empty.png,WildCard_Ex,-0.190133102,0.039431424,1,0,0,0.5414,optionLeft,55,12420,6,6,0,6,0,1,,,,,,,,,,,,,,,,,,,,,,,,,,,,,,,,,,,,,,,
,,,,,,,,2023-08-16_08h23.13.618,HF_wild_card,2022.2.4,MacIntel,120.0048002,603797db171365017caa15e5,64d2fd46c836a06233681665,64dc79572fd88853c1696268,,,,,,,sngl,resources/Empty.png,resources/DBN.BMP,Door3,0.206597222,0.016963252,1,0,0,0.5833,optionRight,70,12490,6,7,0,7,0,1,,,,,,,,,,,,,,,,,,,,,,,,,,,,,,,,,,,,,,,
,,,,,,,,2023-08-16_08h23.13.618,HF_wild_card,2022.2.4,MacIntel,120.0048002,603797db171365017caa15e5,64d2fd46c836a06233681665,64dc79572fd88853c1696268,,,,,,,sngl,resources/DBN.BMP,resources/Empty.png,Door3,-0.233373119,0.036219618,1,0,0,0.5216,optionLeft,70,12560,6,8,0,8,0,1,,,,,,,,,,,,,,,,,,,,,,,,,,,,,,,,,,,,,,,
,,,,,,,,2023-08-16_08h23.13.618,HF_wild_card,2022.2.4,MacIntel,120.0048002,603797db171365017caa15e5,64d2fd46c836a06233681665,64dc79572fd88853c1696268,,,,,,,decisionTrl,resources/DY.BMP,resources/DBN.BMP,Door4,-0.125806568,-0.007443576,1,0,0,1.0879,optionLeft,60,12620,6,9,0,9,0,1,,,,,,,,,,,,,,,,,,,,,,,,,,,,,,,,,,,,,,,
,,,,,,,,2023-08-16_08h23.13.618,HF_wild_card,2022.2.4,MacIntel,120.0048002,603797db171365017caa15e5,64d2fd46c836a06233681665,64dc79572fd88853c1696268,,,,,,,decisionTrl,resources/DG.BMP,resources/DB.BMP,Door1,0.188248698,-0.023050492,1,0,0,1.2304,optionRight,30,12650,6,10,0,10,0,1,,,,,,,,,,,,,,,,,,,,,,,,,,,,,,,,,,,,,,,
,,,,,,,,2023-08-16_08h23.13.618,HF_wild_card,2022.2.4,MacIntel,120.0048002,603797db171365017caa15e5,64d2fd46c836a06233681665,64dc79572fd88853c1696268,,,,,,,decisionTrl,resources/DBN.BMP,resources/DY.BMP,Door3,-0.213679109,0.028703704,1,0,0,0.7728,optionLeft,70,12720,6,11,0,11,0,1,,,,,,,,,,,,,,,,,,,,,,,,,,,,,,,,,,,,,,,
,,,,,,,,2023-08-16_08h23.13.618,HF_wild_card,2022.2.4,MacIntel,120.0048002,603797db171365017caa15e5,64d2fd46c836a06233681665,64dc79572fd88853c1696268,,,,,,,decisionTrl,resources/DY.BMP,resources/DBN.BMP,Door4,-0.170019531,0.031991464,1,0,0,0.6807,optionLeft,80,12800,6,12,0,12,0,1,,,,,,,,,,,,,,,,,,,,,,,,,,,,,,,,,,,,,,,
,,,,,,,,2023-08-16_08h23.13.618,HF_wild_card,2022.2.4,MacIntel,120.0048002,603797db171365017caa15e5,64d2fd46c836a06233681665,64dc79572fd88853c1696268,,,,,,,decisionTrl,resources/DBN.BMP,resources/DY.BMP,Door4,0.196585648,-0.016207321,1,0,0,0.8004,optionRight,80,12880,6,13,0,13,0,1,,,,,,,,,,,,,,,,,,,,,,,,,,,,,,,,,,,,,,,
,,,,,,,,2023-08-16_08h23.13.618,HF_wild_card,2022.2.4,MacIntel,120.0048002,603797db171365017caa15e5,64d2fd46c836a06233681665,64dc79572fd88853c1696268,,,,,,,sngl,resources/DB.BMP,resources/Empty.png,Door1,-0.152054398,0.013248698,1,0,0,0.5468,optionLeft,30,12910,6,14,0,14,0,1,,,,,,,,,,,,,,,,,,,,,,,,,,,,,,,,,,,,,,,
,,,,,,,,2023-08-16_08h23.13.618,HF_wild_card,2022.2.4,MacIntel,120.0048002,603797db171365017caa15e5,64d2fd46c836a06233681665,64dc79572fd88853c1696268,,,,,,,decisionTrl,resources/DG.BMP,resources/DR.BMP,Door2,-0.242697483,0.045656105,1,0,0,0.7426,optionLeft,20,12930,6,15,0,15,0,1,,,,,,,,,,,,,,,,,,,,,,,,,,,,,,,,,,,,,,,
,,,,,,,,2023-08-16_08h23.13.618,HF_wild_card,2022.2.4,MacIntel,120.0048002,603797db171365017caa15e5,64d2fd46c836a06233681665,64dc79572fd88853c1696268,,,,,,,sngl,resources/DR.BMP,resources/Empty.png,WildCard_Ex,-0.168507668,0.020030382,1,0,0,0.4973,optionLeft,45,12975,6,16,0,16,0,1,,,,,,,,,,,,,,,,,,,,,,,,,,,,,,,,,,,,,,,
,,,,,,,,2023-08-16_08h23.13.618,HF_wild_card,2022.2.4,MacIntel,120.0048002,603797db171365017caa15e5,64d2fd46c836a06233681665,64dc79572fd88853c1696268,,,,,,,decisionTrl,resources/DBN.BMP,resources/DR.BMP,WildCard_Ex,0.260951968,0.024786603,1,0,0,0.5694,optionRight,45,13020,6,17,0,17,0,1,,,,,,,,,,,,,,,,,,,,,,,,,,,,,,,,,,,,,,,
,,,,,,,,2023-08-16_08h23.13.618,HF_wild_card,2022.2.4,MacIntel,120.0048002,603797db171365017caa15e5,64d2fd46c836a06233681665,64dc79572fd88853c1696268,,,,,,,decisionTrl,resources/DG.BMP,resources/DB.BMP,Door2,-0.162272135,0.028540943,1,0,0,1.1057,optionLeft,20,13040,6,18,0,18,0,1,,,,,,,,,,,,,,,,,,,,,,,,,,,,,,,,,,,,,,,
,,,,,,,,2023-08-16_08h23.13.618,HF_wild_card,2022.2.4,MacIntel,120.0048002,603797db171365017caa15e5,64d2fd46c836a06233681665,64dc79572fd88853c1696268,,,,,,,sngl,resources/DG.BMP,resources/Empty.png,Door2,-0.146368634,0.034881366,1,0,0,0.574,optionLeft,20,13060,6,19,0,19,0,1,,,,,,,,,,,,,,,,,,,,,,,,,,,,,,,,,,,,,,,
,,,,,,,,2023-08-16_08h23.13.618,HF_wild_card,2022.2.4,MacIntel,120.0048002,603797db171365017caa15e5,64d2fd46c836a06233681665,64dc79572fd88853c1696268,,,,,,,sngl,resources/Empty.png,resources/DG.BMP,Door2,0.167220052,-0.034237558,1,0,0,0.6963,optionRight,40,13100,6,20,0,20,0,1,,,,,,,,,,,,,,,,,,,,,,,,,,,,,,,,,,,,,,,
,,,,,,,,2023-08-16_08h23.13.618,HF_wild_card,2022.2.4,MacIntel,120.0048002,603797db171365017caa15e5,64d2fd46c836a06233681665,64dc79572fd88853c1696268,,,,,,,decisionTrl,resources/DBN.BMP,resources/DY.BMP,Door3,-0.163570602,0.025860822,1,0,0,0.6223,optionLeft,70,13170,6,21,0,21,0,1,,,,,,,,,,,,,,,,,,,,,,,,,,,,,,,,,,,,,,,
,,,,,,,,2023-08-16_08h23.13.618,HF_wild_card,2022.2.4,MacIntel,120.0048002,603797db171365017caa15e5,64d2fd46c836a06233681665,64dc79572fd88853c1696268,,,,,,,ctch,resources/DB.BMP,resources/DY.BMP,Door4,0.243023003,0.018106192,1,0,0,0.7393,optionRight,60,13230,6,22,0,22,0,1,,,,,,,,,,,,,,,,,,,,,,,,,,,,,,,,,,,,,,,
,,,,,,,,2023-08-16_08h23.13.618,HF_wild_card,2022.2.4,MacIntel,120.0048002,603797db171365017caa15e5,64d2fd46c836a06233681665,64dc79572fd88853c1696268,,,,,,,decisionTrl,resources/DB.BMP,resources/DR.BMP,WildCard_Ex,0.143757234,-0.001689091,1,0,0,0.9074,optionRight,55,13285,6,23,0,23,0,1,,,,,,,,,,,,,,,,,,,,,,,,,,,,,,,,,,,,,,,
,,,,,,,,2023-08-16_08h23.13.618,HF_wild_card,2022.2.4,MacIntel,120.0048002,603797db171365017caa15e5,64d2fd46c836a06233681665,64dc79572fd88853c1696268,,,,,,,decisionTrl,resources/DY.BMP,resources/DR.BMP,Door4,-0.224511719,0.02020761,1,0,0,0.666,optionLeft,60,13345,6,24,0,24,0,1,,,,,,,,,,,,,,,,,,,,,,,,,,,,,,,,,,,,,,,
,,,,,,,,2023-08-16_08h23.13.618,HF_wild_card,2022.2.4,MacIntel,120.0048002,603797db171365017caa15e5,64d2fd46c836a06233681665,64dc79572fd88853c1696268,,,,,,,ctch,resources/DY.BMP,resources/DB.BMP,Door4,-0.197743056,0.017813223,1,0,0,0.6255,optionLeft,80,13425,6,25,0,25,0,1,,,,,,,,,,,,,,,,,,,,,,,,,,,,,,,,,,,,,,,
,,,,,,,,2023-08-16_08h23.13.618,HF_wild_card,2022.2.4,MacIntel,120.0048002,603797db171365017caa15e5,64d2fd46c836a06233681665,64dc79572fd88853c1696268,,,,,,,decisionTrl,resources/DR.BMP,resources/DG.BMP,WildCard_Ex,-0.139218027,0.004383681,1,0,0,1.0555,optionLeft,55,13480,6,26,0,26,0,1,,,,,,,,,,,,,,,,,,,,,,,,,,,,,,,,,,,,,,,
,,,,,,,,2023-08-16_08h23.13.618,HF_wild_card,2022.2.4,MacIntel,120.0048002,603797db171365017caa15e5,64d2fd46c836a06233681665,64dc79572fd88853c1696268,,,,,,,decisionTrl,resources/DR.BMP,resources/DB.BMP,WildCard_Ex,-0.186946615,0.029018374,1,0,0,0.6579,optionLeft,45,13525,6,27,0,27,0,1,,,,,,,,,,,,,,,,,,,,,,,,,,,,,,,,,,,,,,,
,,,,,,,,2023-08-16_08h23.13.618,HF_wild_card,2022.2.4,MacIntel,120.0048002,603797db171365017caa15e5,64d2fd46c836a06233681665,64dc79572fd88853c1696268,,,,,,,decisionTrl,resources/DBN.BMP,resources/DY.BMP,Door3,-0.194191262,-0.000415943,1,0,0,0.8916,optionLeft,70,13595,6,28,0,28,0,1,,,,,,,,,,,,,,,,,,,,,,,,,,,,,,,,,,,,,,,
,,,,,,,,2023-08-16_08h23.13.618,HF_wild_card,2022.2.4,MacIntel,120.0048002,603797db171365017caa15e5,64d2fd46c836a06233681665,64dc79572fd88853c1696268,,,,,,,decisionTrl,resources/DB.BMP,resources/DG.BMP,Door1,-0.215744358,0.009964554,1,0,0,0.9984,optionLeft,30,13625,6,29,0,29,0,1,,,,,,,,,,,,,,,,,,,,,,,,,,,,,,,,,,,,,,,
,,,,,,,,2023-08-16_08h23.13.618,HF_wild_card,2022.2.4,MacIntel,120.0048002,603797db171365017caa15e5,64d2fd46c836a06233681665,64dc79572fd88853c1696268,,,,,,,decisionTrl,resources/DR.BMP,resources/DY.BMP,Door4,0.233130787,0.084997106,1,0,0,0.7815,optionRight,80,13705,6,30,0,30,0,1,,,,,,,,,,,,,,,,,,,,,,,,,,,,,,,,,,,,,,,
,,,,,,,,2023-08-16_08h23.13.618,HF_wild_card,2022.2.4,MacIntel,120.0048002,603797db171365017caa15e5,64d2fd46c836a06233681665,64dc79572fd88853c1696268,,,,,,,sngl,resources/DY.BMP,resources/Empty.png,Door4,-0.208333333,0.018655961,1,0,0,0.5194,optionLeft,60,13765,6,31,0,31,0,1,,,,,,,,,,,,,,,,,,,,,,,,,,,,,,,,,,,,,,,
,,,,,,,,2023-08-16_08h23.13.618,HF_wild_card,2022.2.4,MacIntel,120.0048002,603797db171365017caa15e5,64d2fd46c836a06233681665,64dc79572fd88853c1696268,,,,,,,ctch,resources/DG.BMP,resources/DBN.BMP,Door3,0.304282407,0.076927807,1,0,0,0.8229,optionRight,70,13835,6,32,0,32,0,1,,,,,,,,,,,,,,,,,,,,,,,,,,,,,,,,,,,,,,,
,,,,,,,,2023-08-16_08h23.13.618,HF_wild_card,2022.2.4,MacIntel,120.0048002,603797db171365017caa15e5,64d2fd46c836a06233681665,64dc79572fd88853c1696268,,,,,,,decisionTrl,resources/DY.BMP,resources/DBN.BMP,Door4,-0.214764178,-0.00500217,1,0,0,1.5419,optionLeft,60,13895,6,33,0,33,0,1,,,,,,,,,,,,,,,,,,,,,,,,,,,,,,,,,,,,,,,
,,,,,,,,2023-08-16_08h23.13.618,HF_wild_card,2022.2.4,MacIntel,120.0048002,603797db171365017caa15e5,64d2fd46c836a06233681665,64dc79572fd88853c1696268,,,,,,,ctch,resources/DY.BMP,resources/DB.BMP,Door4,-0.193840422,0.018203848,1,0,0,0.7,optionLeft,80,13975,6,34,0,34,0,1,,,,,,,,,,,,,,,,,,,,,,,,,,,,,,,,,,,,,,,
,,,,,,,,2023-08-16_08h23.13.618,HF_wild_card,2022.2.4,MacIntel,120.0048002,603797db171365017caa15e5,64d2fd46c836a06233681665,64dc79572fd88853c1696268,,,,,,,ctch,resources/DB.BMP,resources/DY.BMP,Door4,0.184136285,0.017907263,1,0,0,0.6839,optionRight,80,14055,6,35,0,35,0,1,,,,,,,,,,,,,,,,,,,,,,,,,,,,,,,,,,,,,,,
,,,,,,,,2023-08-16_08h23.13.618,HF_wild_card,2022.2.4,MacIntel,120.0048002,603797db171365017caa15e5,64d2fd46c836a06233681665,64dc79572fd88853c1696268,,,,,,,decisionTrl,resources/DR.BMP,resources/DBN.BMP,Door3,0.188534433,0.024207899,1,0,0,0.7188,optionRight,70,14125,6,36,0,36,0,1,,,,,,,,,,,,,,,,,,,,,,,,,,,,,,,,,,,,,,,
,,,,,,,,2023-08-16_08h23.13.618,HF_wild_card,2022.2.4,MacIntel,120.0048002,603797db171365017caa15e5,64d2fd46c836a06233681665,64dc79572fd88853c1696268,,,,,,,decisionTrl,resources/DY.BMP,resources/DBN.BMP,Door3,0.198560475,0.037272135,1,0,0,0.6708,optionRight,70,14195,6,37,0,37,0,1,,,,,,,,,,,,,,,,,,,,,,,,,,,,,,,,,,,,,,,
,,,,,,,,2023-08-16_08h23.13.618,HF_wild_card,2022.2.4,MacIntel,120.0048002,603797db171365017caa15e5,64d2fd46c836a06233681665,64dc79572fd88853c1696268,,,,,,,decisionTrl,resources/DG.BMP,resources/DB.BMP,Door1,0.14890408,0.057902922,1,0,0,1.899,optionRight,30,14225,6,38,0,38,0,1,,,,,,,,,,,,,,,,,,,,,,,,,,,,,,,,,,,,,,,
,,,,,,,,2023-08-16_08h23.13.618,HF_wild_card,2022.2.4,MacIntel,120.0048002,603797db171365017caa15e5,64d2fd46c836a06233681665,64dc79572fd88853c1696268,,,,,,,sngl,resources/Empty.png,resources/DR.BMP,WildCard_Ex,0.156561053,0.008991609,1,0,0,0.7556,optionRight,45,14270,6,39,0,39,0,1,,,,,,,,,,,,,,,,,,,,,,,,,,,,,,,,,,,,,,,
,,,,,,,,2023-08-16_08h23.13.618,HF_wild_card,2022.2.4,MacIntel,120.0048002,603797db171365017caa15e5,64d2fd46c836a06233681665,64dc79572fd88853c1696268,,,,,,,sngl,resources/Empty.png,resources/DR.BMP,WildCard_Ex,0.197312645,-0.013396991,1,0,0,0.5984,optionRight,55,14325,6,40,0,40,0,1,,,,,,,,,,,,,,,,,,,,,,,,,,,,,,,,,,,,,,,
,,,,,,,,2023-08-16_08h23.13.618,HF_wild_card,2022.2.4,MacIntel,120.0048002,603797db171365017caa15e5,64d2fd46c836a06233681665,64dc79572fd88853c1696268,,,,,,,decisionTrl,resources/DG.BMP,resources/DB.BMP,Door1,0.090049913,0.021676071,1,0,0,1.5054,optionRight,30,14355,6,41,0,41,0,1,,,,,,,,,,,,,,,,,,,,,,,,,,,,,,,,,,,,,,,
,,,,,,,,2023-08-16_08h23.13.618,HF_wild_card,2022.2.4,MacIntel,120.0048002,603797db171365017caa15e5,64d2fd46c836a06233681665,64dc79572fd88853c1696268,,,,,,,sngl,resources/Empty.png,resources/DY.BMP,Door4,0.220717593,0.006843171,1,0,0,0.7074,optionRight,80,14435,6,42,0,42,0,1,,,,,,,,,,,,,,,,,,,,,,,,,,,,,,,,,,,,,,,
,,,,,,,,2023-08-16_08h23.13.618,HF_wild_card,2022.2.4,MacIntel,120.0048002,603797db171365017caa15e5,64d2fd46c836a06233681665,64dc79572fd88853c1696268,,,,,,,ctch,resources/DG.BMP,resources/DBN.BMP,Door3,0.179195602,0.049352575,1,0,0,0.7887,optionRight,70,14505,6,43,0,43,0,1,,,,,,,,,,,,,,,,,,,,,,,,,,,,,,,,,,,,,,,
,,,,,,,,2023-08-16_08h23.13.618,HF_wild_card,2022.2.4,MacIntel,120.0048002,603797db171365017caa15e5,64d2fd46c836a06233681665,64dc79572fd88853c1696268,,,,,,,,,,,,,,,,,,,,,,,,,,5,0,5,0,1,,,,,,,,,,,,,,,,,,,,,,,,,,,,,,,,,,
,,,,,,,,2023-08-16_08h23.13.618,HF_wild_card,2022.2.4,MacIntel,120.0048002,603797db171365017caa15e5,64d2fd46c836a06233681665,64dc79572fd88853c1696268,,,,,,,decisionTrl,resources/DB.BMP,resources/DG.BMP,Door1,-0.147779225,-0.143138744,1,0,0,2.2703,optionLeft,30,14535,7,0,0,0,0,1,,,,,,,,,,,,,,,,,,,,,,,,,,,,,,,,,,,,,,,
,,,,,,,,2023-08-16_08h23.13.618,HF_wild_card,2022.2.4,MacIntel,120.0048002,603797db171365017caa15e5,64d2fd46c836a06233681665,64dc79572fd88853c1696268,,,,,,,decisionTrl,resources/DG.BMP,resources/DB.BMP,Door1,0.179665799,0.036324508,1,0,0,2.0197,optionRight,30,14565,7,1,0,1,0,1,,,,,,,,,,,,,,,,,,,,,,,,,,,,,,,,,,,,,,,
,,,,,,,,2023-08-16_08h23.13.618,HF_wild_card,2022.2.4,MacIntel,120.0048002,603797db171365017caa15e5,64d2fd46c836a06233681665,64dc79572fd88853c1696268,,,,,,,decisionTrl,resources/DBN.BMP,resources/DY.BMP,Door3,-0.148104745,0.011291956,1,0,0,0.808,optionLeft,70,14635,7,2,0,2,0,1,,,,,,,,,,,,,,,,,,,,,,,,,,,,,,,,,,,,,,,
,,,,,,,,2023-08-16_08h23.13.618,HF_wild_card,2022.2.4,MacIntel,120.0048002,603797db171365017caa15e5,64d2fd46c836a06233681665,64dc79572fd88853c1696268,,,,,,,ctch,resources/DG.BMP,resources/DBN.BMP,Door3,0.188943142,0.025068721,1,0,0,0.6163,optionRight,70,14705,7,3,0,3,0,1,,,,,,,,,,,,,,,,,,,,,,,,,,,,,,,,,,,,,,,
,,,,,,,,2023-08-16_08h23.13.618,HF_wild_card,2022.2.4,MacIntel,120.0048002,603797db171365017caa15e5,64d2fd46c836a06233681665,64dc79572fd88853c1696268,,,,,,,ctch,resources/DY.BMP,resources/DB.BMP,Door4,-0.183004196,0.013498264,1,0,0,0.601,optionLeft,80,14785,7,4,0,4,0,1,,,,,,,,,,,,,,,,,,,,,,,,,,,,,,,,,,,,,,,
,,,,,,,,2023-08-16_08h23.13.618,HF_wild_card,2022.2.4,MacIntel,120.0048002,603797db171365017caa15e5,64d2fd46c836a06233681665,64dc79572fd88853c1696268,,,,,,,decisionTrl,resources/DBN.BMP,resources/DY.BMP,Door3,-0.18822338,0.011310041,1,0,0,0.6556,optionLeft,70,14855,7,5,0,5,0,1,,,,,,,,,,,,,,,,,,,,,,,,,,,,,,,,,,,,,,,
,,,,,,,,2023-08-16_08h23.13.618,HF_wild_card,2022.2.4,MacIntel,120.0048002,603797db171365017caa15e5,64d2fd46c836a06233681665,64dc79572fd88853c1696268,,,,,,,decisionTrl,resources/DB.BMP,resources/DG.BMP,Door2,0.177123119,0.019719329,1,0,0,0.746,optionRight,20,14875,7,6,0,6,0,1,,,,,,,,,,,,,,,,,,,,,,,,,,,,,,,,,,,,,,,
,,,,,,,,2023-08-16_08h23.13.618,HF_wild_card,2022.2.4,MacIntel,120.0048002,603797db171365017caa15e5,64d2fd46c836a06233681665,64dc79572fd88853c1696268,,,,,,,ctch,resources/DBN.BMP,resources/DG.BMP,Door3,-0.19235026,0.026349103,1,0,0,0.7017,optionLeft,70,14945,7,7,0,7,0,1,,,,,,,,,,,,,,,,,,,,,,,,,,,,,,,,,,,,,,,
,,,,,,,,2023-08-16_08h23.13.618,HF_wild_card,2022.2.4,MacIntel,120.0048002,603797db171365017caa15e5,64d2fd46c836a06233681665,64dc79572fd88853c1696268,,,,,,,ctch,resources/DG.BMP,resources/DBN.BMP,Door3,0.200339988,0.027412471,1,0,0,0.8667,optionRight,70,15015,7,8,0,8,0,1,,,,,,,,,,,,,,,,,,,,,,,,,,,,,,,,,,,,,,,
,,,,,,,,2023-08-16_08h23.13.618,HF_wild_card,2022.2.4,MacIntel,120.0048002,603797db171365017caa15e5,64d2fd46c836a06233681665,64dc79572fd88853c1696268,,,,,,,decisionTrl,resources/DG.BMP,resources/DB.BMP,Door1,0.139087818,0.021806279,1,0,0,2.2647,optionRight,30,15045,7,9,0,9,0,1,,,,,,,,,,,,,,,,,,,,,,,,,,,,,,,,,,,,,,,
,,,,,,,,2023-08-16_08h23.13.618,HF_wild_card,2022.2.4,MacIntel,120.0048002,603797db171365017caa15e5,64d2fd46c836a06233681665,64dc79572fd88853c1696268,,,,,,,ctch,resources/DB.BMP,resources/DY.BMP,Door4,0.245504196,0.065628617,1,0,0,0.6886,optionRight,80,15125,7,10,0,10,0,1,,,,,,,,,,,,,,,,,,,,,,,,,,,,,,,,,,,,,,,
,,,,,,,,2023-08-16_08h23.13.618,HF_wild_card,2022.2.4,MacIntel,120.0048002,603797db171365017caa15e5,64d2fd46c836a06233681665,64dc79572fd88853c1696268,,,,,,,decisionTrl,resources/DY.BMP,resources/DBN.BMP,Door3,0.182801649,0.026396123,1,0,0,0.8578,optionRight,70,15195,7,11,0,11,0,1,,,,,,,,,,,,,,,,,,,,,,,,,,,,,,,,,,,,,,,
,,,,,,,,2023-08-16_08h23.13.618,HF_wild_card,2022.2.4,MacIntel,120.0048002,603797db171365017caa15e5,64d2fd46c836a06233681665,64dc79572fd88853c1696268,,,,,,,ctch,resources/DB.BMP,resources/DY.BMP,Door4,0.208322483,0.00339265,1,0,0,0.724,optionRight,80,15275,7,12,0,12,0,1,,,,,,,,,,,,,,,,,,,,,,,,,,,,,,,,,,,,,,,
,,,,,,,,2023-08-16_08h23.13.618,HF_wild_card,2022.2.4,MacIntel,120.0048002,603797db171365017caa15e5,64d2fd46c836a06233681665,64dc79572fd88853c1696268,,,,,,,decisionTrl,resources/DY.BMP,resources/DBN.BMP,Door3,0.172753906,0.040187355,1,0,0,1.4056,optionRight,70,15345,7,13,0,13,0,1,,,,,,,,,,,,,,,,,,,,,,,,,,,,,,,,,,,,,,,
,,,,,,,,2023-08-16_08h23.13.618,HF_wild_card,2022.2.4,MacIntel,120.0048002,603797db171365017caa15e5,64d2fd46c836a06233681665,64dc79572fd88853c1696268,,,,,,,ctch,resources/DBN.BMP,resources/DG.BMP,Door3,-0.142310475,0.022688802,1,0,0,0.7071,optionLeft,70,15415,7,14,0,14,0,1,,,,,,,,,,,,,,,,,,,,,,,,,,,,,,,,,,,,,,,
,,,,,,,,2023-08-16_08h23.13.618,HF_wild_card,2022.2.4,MacIntel,120.0048002,603797db171365017caa15e5,64d2fd46c836a06233681665,64dc79572fd88853c1696268,,,,,,,decisionTrl,resources/DBN.BMP,resources/DY.BMP,Door4,0.159675203,0.030765336,1,0,0,0.8661,optionRight,60,15475,7,15,0,15,0,1,,,,,,,,,,,,,,,,,,,,,,,,,,,,,,,,,,,,,,,
,,,,,,,,2023-08-16_08h23.13.618,HF_wild_card,2022.2.4,MacIntel,120.0048002,603797db171365017caa15e5,64d2fd46c836a06233681665,64dc79572fd88853c1696268,,,,,,,decisionTrl,resources/DB.BMP,resources/DG.BMP,Door1,-0.150589554,0.03104022,1,0,0,1.2636,optionLeft,30,15505,7,16,0,16,0,1,,,,,,,,,,,,,,,,,,,,,,,,,,,,,,,,,,,,,,,
,,,,,,,,2023-08-16_08h23.13.618,HF_wild_card,2022.2.4,MacIntel,120.0048002,603797db171365017caa15e5,64d2fd46c836a06233681665,64dc79572fd88853c1696268,,,,,,,decisionTrl,resources/DY.BMP,resources/DBN.BMP,Door3,0.181832321,0.003566262,1,0,0,1.64,optionRight,70,15575,7,17,0,17,0,1,,,,,,,,,,,,,,,,,,,,,,,,,,,,,,,,,,,,,,,
,,,,,,,,2023-08-16_08h23.13.618,HF_wild_card,2022.2.4,MacIntel,120.0048002,603797db171365017caa15e5,64d2fd46c836a06233681665,64dc79572fd88853c1696268,,,,,,,decisionTrl,resources/DY.BMP,resources/DBN.BMP,Door3,0.162141927,0.006770833,1,0,0,1.3314,optionRight,70,15645,7,18,0,18,0,1,,,,,,,,,,,,,,,,,,,,,,,,,,,,,,,,,,,,,,,
,,,,,,,,2023-08-16_08h23.13.618,HF_wild_card,2022.2.4,MacIntel,120.0048002,603797db171365017caa15e5,64d2fd46c836a06233681665,64dc79572fd88853c1696268,,,,,,,decisionTrl,resources/DBN.BMP,resources/DY.BMP,Door3,-0.165125868,0.037264902,1,0,0,0.7238,optionLeft,70,15715,7,19,0,19,0,1,,,,,,,,,,,,,,,,,,,,,,,,,,,,,,,,,,,,,,,
,,,,,,,,2023-08-16_08h23.13.618,HF_wild_card,2022.2.4,MacIntel,120.0048002,603797db171365017caa15e5,64d2fd46c836a06233681665,64dc79572fd88853c1696268,,,,,,,ctch,resources/DG.BMP,resources/DBN.BMP,Door3,0.200347222,0.010373264,1,0,0,0.6592,optionRight,70,15785,7,20,0,20,0,1,,,,,,,,,,,,,,,,,,,,,,,,,,,,,,,,,,,,,,,
,,,,,,,,2023-08-16_08h23.13.618,HF_wild_card,2022.2.4,MacIntel,120.0048002,603797db171365017caa15e5,64d2fd46c836a06233681665,64dc79572fd88853c1696268,,,,,,,decisionTrl,resources/DG.BMP,resources/DB.BMP,Door1,0.167230903,0.036552373,1,0,0,11.2749,optionRight,30,15815,7,21,0,21,0,1,,,,,,,,,,,,,,,,,,,,,,,,,,,,,,,,,,,,,,,
,,,,,,,,2023-08-16_08h23.13.618,HF_wild_card,2022.2.4,MacIntel,120.0048002,603797db171365017caa15e5,64d2fd46c836a06233681665,64dc79572fd88853c1696268,,,,,,,ctch,resources/DB.BMP,resources/DY.BMP,Door4,0.22952474,0.013697193,1,0,0,0.7891,optionRight,60,15875,7,22,0,22,0,1,,,,,,,,,,,,,,,,,,,,,,,,,,,,,,,,,,,,,,,
,,,,,,,,2023-08-16_08h23.13.618,HF_wild_card,2022.2.4,MacIntel,120.0048002,603797db171365017caa15e5,64d2fd46c836a06233681665,64dc79572fd88853c1696268,,,,,,,decisionTrl,resources/DB.BMP,resources/DG.BMP,Door2,0.182049334,-0.000752315,1,0,0,2.0658,optionRight,40,15915,7,23,0,23,0,1,,,,,,,,,,,,,,,,,,,,,,,,,,,,,,,,,,,,,,,
,,,,,,,,2023-08-16_08h23.13.618,HF_wild_card,2022.2.4,MacIntel,120.0048002,603797db171365017caa15e5,64d2fd46c836a06233681665,64dc79572fd88853c1696268,,,,,,,ctch,resources/DY.BMP,resources/DB.BMP,Door4,-0.156861256,0.017664931,1,0,0,0.7893,optionLeft,60,15975,7,24,0,24,0,1,,,,,,,,,,,,,,,,,,,,,,,,,,,,,,,,,,,,,,,
,,,,,,,,2023-08-16_08h23.13.618,HF_wild_card,2022.2.4,MacIntel,120.0048002,603797db171365017caa15e5,64d2fd46c836a06233681665,64dc79572fd88853c1696268,,,,,,,decisionTrl,resources/DY.BMP,resources/DBN.BMP,Door3,0.185239439,0.0127568,1,0,0,0.8402,optionRight,70,16045,7,25,0,25,0,1,,,,,,,,,,,,,,,,,,,,,,,,,,,,,,,,,,,,,,,
,,,,,,,,2023-08-16_08h23.13.618,HF_wild_card,2022.2.4,MacIntel,120.0048002,603797db171365017caa15e5,64d2fd46c836a06233681665,64dc79572fd88853c1696268,,,,,,,decisionTrl,resources/DBN.BMP,resources/DY.BMP,Door3,-0.237188947,0.002813947,1,0,0,0.77,optionLeft,70,16115,7,26,0,26,0,1,,,,,,,,,,,,,,,,,,,,,,,,,,,,,,,,,,,,,,,
,,,,,,,,2023-08-16_08h23.13.618,HF_wild_card,2022.2.4,MacIntel,120.0048002,603797db171365017caa15e5,64d2fd46c836a06233681665,64dc79572fd88853c1696268,,,,,,,decisionTrl,resources/DB.BMP,resources/DG.BMP,Door1,-0.200307436,-0.00432581,1,0,0,1.1225,optionLeft,30,16145,7,27,0,27,0,1,,,,,,,,,,,,,,,,,,,,,,,,,,,,,,,,,,,,,,,
,,,,,,,,2023-08-16_08h23.13.618,HF_wild_card,2022.2.4,MacIntel,120.0048002,603797db171365017caa15e5,64d2fd46c836a06233681665,64dc79572fd88853c1696268,,,,,,,decisionTrl,resources/DG.BMP,resources/DB.BMP,Door1,0.198668981,-0.024468316,1,0,0,1.0086,optionRight,30,16175,7,28,0,28,0,1,,,,,,,,,,,,,,,,,,,,,,,,,,,,,,,,,,,,,,,
,,,,,,,,2023-08-16_08h23.13.618,HF_wild_card,2022.2.4,MacIntel,120.0048002,603797db171365017caa15e5,64d2fd46c836a06233681665,64dc79572fd88853c1696268,,,,,,,decisionTrl,resources/DY.BMP,resources/DBN.BMP,Door3,0.221958189,0.021057581,1,0,0,0.9406,optionRight,70,16245,7,29,0,29,0,1,,,,,,,,,,,,,,,,,,,,,,,,,,,,,,,,,,,,,,,
,,,,,,,,2023-08-16_08h23.13.618,HF_wild_card,2022.2.4,MacIntel,120.0048002,603797db171365017caa15e5,64d2fd46c836a06233681665,64dc79572fd88853c1696268,,,,,,,ctch,resources/DY.BMP,resources/DB.BMP,Door4,-0.165335648,0.001837384,1,0,0,0.7817,optionLeft,80,16325,7,30,0,30,0,1,,,,,,,,,,,,,,,,,,,,,,,,,,,,,,,,,,,,,,,
,,,,,,,,2023-08-16_08h23.13.618,HF_wild_card,2022.2.4,MacIntel,120.0048002,603797db171365017caa15e5,64d2fd46c836a06233681665,64dc79572fd88853c1696268,,,,,,,decisionTrl,resources/DG.BMP,resources/DB.BMP,Door1,0.157866753,0.02004485,1,0,0,2.291,optionRight,30,16355,7,31,0,31,0,1,,,,,,,,,,,,,,,,,,,,,,,,,,,,,,,,,,,,,,,
,,,,,,,,2023-08-16_08h23.13.618,HF_wild_card,2022.2.4,MacIntel,120.0048002,603797db171365017caa15e5,64d2fd46c836a06233681665,64dc79572fd88853c1696268,,,,,,,decisionTrl,resources/DB.BMP,resources/DG.BMP,Door1,-0.185897714,-0.022685185,1,0,0,1.9806,optionLeft,30,16385,7,32,0,32,0,1,,,,,,,,,,,,,,,,,,,,,,,,,,,,,,,,,,,,,,,
,,,,,,,,2023-08-16_08h23.13.618,HF_wild_card,2022.2.4,MacIntel,120.0048002,603797db171365017caa15e5,64d2fd46c836a06233681665,64dc79572fd88853c1696268,,,,,,,decisionTrl,resources/DG.BMP,resources/DB.BMP,Door1,0.204126881,-0.037026186,1,0,0,2.2501,optionRight,30,16415,7,33,0,33,0,1,,,,,,,,,,,,,,,,,,,,,,,,,,,,,,,,,,,,,,,
,,,,,,,,2023-08-16_08h23.13.618,HF_wild_card,2022.2.4,MacIntel,120.0048002,603797db171365017caa15e5,64d2fd46c836a06233681665,64dc79572fd88853c1696268,,,,,,,decisionTrl,resources/DBN.BMP,resources/DY.BMP,Door3,-0.148509838,0.006369358,1,0,0,0.8895,optionLeft,70,16485,7,34,0,34,0,1,,,,,,,,,,,,,,,,,,,,,,,,,,,,,,,,,,,,,,,
,,,,,,,,2023-08-16_08h23.13.618,HF_wild_card,2022.2.4,MacIntel,120.0048002,603797db171365017caa15e5,64d2fd46c836a06233681665,64dc79572fd88853c1696268,,,,,,,ctch,resources/DBN.BMP,resources/DG.BMP,Door3,-0.182316985,-0.003168403,1,0,0,0.7504,optionLeft,70,16555,7,35,0,35,0,1,,,,,,,,,,,,,,,,,,,,,,,,,,,,,,,,,,,,,,,
,,,,,,,,2023-08-16_08h23.13.618,HF_wild_card,2022.2.4,MacIntel,120.0048002,603797db171365017caa15e5,64d2fd46c836a06233681665,64dc79572fd88853c1696268,,,,,,,,,,,,,,,,,,,,,,,,,,6,0,6,0,1,,,,,,,,,,,,,,,,,,,,,,,,,,,,,,,,,,
,,,,,,,,2023-08-16_08h23.13.618,HF_wild_card,2022.2.4,MacIntel,120.0048002,603797db171365017caa15e5,64d2fd46c836a06233681665,64dc79572fd88853c1696268,,,,,,,,,,,,,,,,,,,,,,,,,,,,,,,4,,,,,,,,,,,,,,,,,,,,,,,,,,,,,,,,,
,,,,,,,,2023-08-16_08h23.13.618,HF_wild_card,2022.2.4,MacIntel,120.0048002,603797db171365017caa15e5,64d2fd46c836a06233681665,64dc79572fd88853c1696268,,,,,,,,,,,,,,,,,,,,,,,,,,,,,,,,,,,,,,,,,,,,,,,,,,,,,,,,,,,,,,,,
,,,,,,,,2023-08-16_08h23.13.618,HF_wild_card,2022.2.4,MacIntel,120.0048002,603797db171365017caa15e5,64d2fd46c836a06233681665,64dc79572fd88853c1696268,,,,,,,,,,,,,,,,,,,,,,,,,,,,,,,,70,Door3,resources/DBN.BMP,0,0,0,0,1,,,,,,,,,,,,,,,,,,,,,,,,,
,,,,,,,,2023-08-16_08h23.13.618,HF_wild_card,2022.2.4,MacIntel,120.0048002,603797db171365017caa15e5,64d2fd46c836a06233681665,64dc79572fd88853c1696268,,,,,,,,,,,,,,,,,,,,,,,,,,,,,,,,55,WC_extreme,resources/DR.BMP,1,0,1,0,1,,,,,,,,,,,,,,,,,,,,,,,,,
,,,,,,,,2023-08-16_08h23.13.618,HF_wild_card,2022.2.4,MacIntel,120.0048002,603797db171365017caa15e5,64d2fd46c836a06233681665,64dc79572fd88853c1696268,,,,,,,,,,,,,,,,,,,,,,,,,,,,,,,,30,Door2,resources/DG.BMP,2,0,2,0,1,,,,,,,,,,,,,,,,,,,,,,,,,
