Condition,Low fixed image (Door1),Low risky image (Door2),High fixed image (Door3),High risky image (Door4),Extreme Wild Card,NonExtreme Wild Card,,date,expName,psychopyVersion,OS,frameRate,PROLIFIC_PID,STUDY_ID,SESSION_ID,mouse_2.x,mouse_2.y,mouse_2.leftButton,mouse_2.midButton,mouse_2.rightButton,mouse_2.clicked_name,Trial Type,Left Option Image,Right Option Image,Chosen Door,mouse.x,mouse.y,mouse.leftButton,mouse.midButton,mouse.rightButton,mouse.time,mouse.clicked_name,Feedback,Cumulative Reward,Block,trial.thisRepN,trial.thisTrialN,trial.thisN,trial.thisIndex,trial.ran,blocks.thisRepN,blocks.thisTrialN,blocks.thisN,blocks.thisIndex,blocks.ran,Money conversion,First Outcome Reported,Shown Door (First Outcome),Displayed Image (First Outcome),outcomes.thisRepN,outcomes.thisTrialN,outcomes.thisN,outcomes.thisIndex,outcomes.ran,judgments.thisRepN,judgments.thisTrialN,judgments.thisN,judgments.thisIndex,judgments.ran,freqMouse.x,freqMouse.y,freqMouse.leftButton,freqMouse.midButton,freqMouse.rightButton,freqMouse.clicked_name,FQJ for first outcome,FQJ for second outcome,Shown Door,Displayed Image,trials.thisRepN,trials.thisTrialN,trials.thisN,trials.thisIndex,trials.ran,judgBlock.thisRepN,judgBlock.thisTrialN,judgBlock.thisN,judgBlock.thisIndex,judgBlock.ran
1,resources/DB.BMP,resources/DBN.BMP,resources/DP.BMP,resources/DG.BMP,resources/DR.BMP,resources/DY.BMP,,2023-08-16_08h48.49.804,HF_wild_card,2022.2.4,Win32,18.00115207,5baa5c962eb8020001f1ed3a,64d2fd46c836a06233681665,64dc7f4b274cd767a586479c,,,,,,,,,,,,,,,,,,,,,,,,,,,,,,,,,,,,,,,,,,,,,,,,,,,,,,,,,,,,,,,,
,,,,,,,,2023-08-16_08h48.49.804,HF_wild_card,2022.2.4,Win32,18.00115207,5baa5c962eb8020001f1ed3a,64d2fd46c836a06233681665,64dc7f4b274cd767a586479c,0.007268951,-0.409657321,1,0,0,agree,,,,,,,,,,,,,,,,,,,,,,,,,,,,,,,,,,,,,,,,,,,,,,,,,,,,,,,,,,
,,,,,,,,2023-08-16_08h48.49.804,HF_wild_card,2022.2.4,Win32,18.00115207,5baa5c962eb8020001f1ed3a,64d2fd46c836a06233681665,64dc7f4b274cd767a586479c,,,,,,,,,,,,,,,,,,,,,,,,,,,,,,,,,,,,,,,,,,,,,,,,,,,,,,,,,,,,,,,,
,,,,,,,,2023-08-16_08h48.49.804,HF_wild_card,2022.2.4,Win32,18.00115207,5baa5c962eb8020001f1ed3a,64d2fd46c836a06233681665,64dc7f4b274cd767a586479c,,,,,,,decisionTrl,resources/DBN.BMP,resources/DB.BMP,Door2,-0.369678089,-0.075285566,1,0,0,4.2685,optionLeft,20,20,1,0,0,0,0,1,,,,,,,,,,,,,,,,,,,,,,,,,,,,,,,,,,,,,,,
,,,,,,,,2023-08-16_08h48.49.804,HF_wild_card,2022.2.4,Win32,18.00115207,5baa5c962eb8020001f1ed3a,64d2fd46c836a06233681665,64dc7f4b274cd767a586479c,,,,,,,sngl,resources/Empty.png,resources/DB.BMP,Door1,0.320872274,-0.079439252,1,0,0,1.8618,optionRight,30,50,1,1,0,1,0,1,,,,,,,,,,,,,,,,,,,,,,,,,,,,,,,,,,,,,,,
,,,,,,,,2023-08-16_08h48.49.804,HF_wild_card,2022.2.4,Win32,18.00115207,5baa5c962eb8020001f1ed3a,64d2fd46c836a06233681665,64dc7f4b274cd767a586479c,,,,,,,sngl,resources/DBN.BMP,resources/Empty.png,Door2,0.011422638,-0.011941848,1,0,0,0.237,optionLeft,40,90,1,2,0,2,0,1,,,,,,,,,,,,,,,,,,,,,,,,,,,,,,,,,,,,,,,
,,,,,,,,2023-08-16_08h48.49.804,HF_wild_card,2022.2.4,Win32,18.00115207,5baa5c962eb8020001f1ed3a,64d2fd46c836a06233681665,64dc7f4b274cd767a586479c,,,,,,,sngl,resources/DB.BMP,resources/Empty.png,Door1,-0.016614746,-0.000519211,1,0,0,0.1223,optionLeft,30,120,1,3,0,3,0,1,,,,,,,,,,,,,,,,,,,,,,,,,,,,,,,,,,,,,,,
,,,,,,,,2023-08-16_08h48.49.804,HF_wild_card,2022.2.4,Win32,18.00115207,5baa5c962eb8020001f1ed3a,64d2fd46c836a06233681665,64dc7f4b274cd767a586479c,,,,,,,decisionTrl,resources/DP.BMP,resources/DY.BMP,Door3,-0.01973001,0.008826584,1,0,0,0.2046,optionLeft,70,190,1,4,0,4,0,1,,,,,,,,,,,,,,,,,,,,,,,,,,,,,,,,,,,,,,,
,,,,,,,,2023-08-16_08h48.49.804,HF_wild_card,2022.2.4,Win32,18.00115207,5baa5c962eb8020001f1ed3a,64d2fd46c836a06233681665,64dc7f4b274cd767a586479c,,,,,,,sngl,resources/DP.BMP,resources/Empty.png,Door3,0.002076843,-0.011941848,1,0,0,0.118,optionLeft,70,260,1,5,0,5,0,1,,,,,,,,,,,,,,,,,,,,,,,,,,,,,,,,,,,,,,,
,,,,,,,,2023-08-16_08h48.49.804,HF_wild_card,2022.2.4,Win32,18.00115207,5baa5c962eb8020001f1ed3a,64d2fd46c836a06233681665,64dc7f4b274cd767a586479c,,,,,,,decisionTrl,resources/DG.BMP,resources/DY.BMP,WildCard_NonEx,0.248182762,-0.035825545,1,0,0,0.6902,optionRight,55,315,1,6,0,6,0,1,,,,,,,,,,,,,,,,,,,,,,,,,,,,,,,,,,,,,,,
,,,,,,,,2023-08-16_08h48.49.804,HF_wild_card,2022.2.4,Win32,18.00115207,5baa5c962eb8020001f1ed3a,64d2fd46c836a06233681665,64dc7f4b274cd767a586479c,,,,,,,decisionTrl,resources/DB.BMP,resources/DBN.BMP,Door1,0.023883697,-0.005711319,1,0,0,0.1278,optionLeft,30,345,1,7,0,7,0,1,,,,,,,,,,,,,,,,,,,,,,,,,,,,,,,,,,,,,,,
,,,,,,,,2023-08-16_08h48.49.804,HF_wild_card,2022.2.4,Win32,18.00115207,5baa5c962eb8020001f1ed3a,64d2fd46c836a06233681665,64dc7f4b274cd767a586479c,,,,,,,decisionTrl,resources/DBN.BMP,resources/DB.BMP,Door1,-0.00623053,-0.017133956,1,0,0,0.1661,optionRight,30,375,1,8,0,8,0,1,,,,,,,,,,,,,,,,,,,,,,,,,,,,,,,,,,,,,,,
,,,,,,,,2023-08-16_08h48.49.804,HF_wild_card,2022.2.4,Win32,18.00115207,5baa5c962eb8020001f1ed3a,64d2fd46c836a06233681665,64dc7f4b274cd767a586479c,,,,,,,ctch,resources/DBN.BMP,resources/DP.BMP,Door3,0.013499481,-0.007788162,1,0,0,0.1324,optionRight,70,445,1,9,0,9,0,1,,,,,,,,,,,,,,,,,,,,,,,,,,,,,,,,,,,,,,,
,,,,,,,,2023-08-16_08h48.49.804,HF_wild_card,2022.2.4,Win32,18.00115207,5baa5c962eb8020001f1ed3a,64d2fd46c836a06233681665,64dc7f4b274cd767a586479c,,,,,,,decisionTrl,resources/DB.BMP,resources/DY.BMP,WildCard_NonEx,0.005192108,-0.016095535,1,0,0,0.1408,optionRight,55,500,1,10,0,10,0,1,,,,,,,,,,,,,,,,,,,,,,,,,,,,,,,,,,,,,,,
,,,,,,,,2023-08-16_08h48.49.804,HF_wild_card,2022.2.4,Win32,18.00115207,5baa5c962eb8020001f1ed3a,64d2fd46c836a06233681665,64dc7f4b274cd767a586479c,,,,,,,sngl,resources/DY.BMP,resources/Empty.png,WildCard_NonEx,-0.004153686,-0.023364486,1,0,0,0.1807,optionLeft,45,545,1,11,0,11,0,1,,,,,,,,,,,,,,,,,,,,,,,,,,,,,,,,,,,,,,,
,,,,,,,,2023-08-16_08h48.49.804,HF_wild_card,2022.2.4,Win32,18.00115207,5baa5c962eb8020001f1ed3a,64d2fd46c836a06233681665,64dc7f4b274cd767a586479c,,,,,,,sngl,resources/Empty.png,resources/DG.BMP,Door4,0.014537902,-0.000519211,1,0,0,0.1222,optionRight,60,605,1,12,0,12,0,1,,,,,,,,,,,,,,,,,,,,,,,,,,,,,,,,,,,,,,,
,,,,,,,,2023-08-16_08h48.49.804,HF_wild_card,2022.2.4,Win32,18.00115207,5baa5c962eb8020001f1ed3a,64d2fd46c836a06233681665,64dc7f4b274cd767a586479c,,,,,,,decisionTrl,resources/DB.BMP,resources/DBN.BMP,Door2,0.005192108,-0.007788162,1,0,0,0.1286,optionRight,20,625,1,13,0,13,0,1,,,,,,,,,,,,,,,,,,,,,,,,,,,,,,,,,,,,,,,
,,,,,,,,2023-08-16_08h48.49.804,HF_wild_card,2022.2.4,Win32,18.00115207,5baa5c962eb8020001f1ed3a,64d2fd46c836a06233681665,64dc7f4b274cd767a586479c,,,,,,,decisionTrl,resources/DP.BMP,resources/DG.BMP,Door3,-0.333333333,0.007788162,1,0,0,0.391,optionLeft,70,695,1,14,0,14,0,1,,,,,,,,,,,,,,,,,,,,,,,,,,,,,,,,,,,,,,,
,,,,,,,,2023-08-16_08h48.49.804,HF_wild_card,2022.2.4,Win32,18.00115207,5baa5c962eb8020001f1ed3a,64d2fd46c836a06233681665,64dc7f4b274cd767a586479c,,,,,,,decisionTrl,resources/DP.BMP,resources/DG.BMP,Door3,-0.225337487,-0.03271028,1,0,0,0.6254,optionLeft,70,765,1,15,0,15,0,1,,,,,,,,,,,,,,,,,,,,,,,,,,,,,,,,,,,,,,,
,,,,,,,,2023-08-16_08h48.49.804,HF_wild_card,2022.2.4,Win32,18.00115207,5baa5c962eb8020001f1ed3a,64d2fd46c836a06233681665,64dc7f4b274cd767a586479c,,,,,,,ctch,resources/DG.BMP,resources/DB.BMP,Door4,-0.345794393,-0.036863967,1,0,0,0.3363,optionLeft,80,845,1,16,0,16,0,1,,,,,,,,,,,,,,,,,,,,,,,,,,,,,,,,,,,,,,,
,,,,,,,,2023-08-16_08h48.49.804,HF_wild_card,2022.2.4,Win32,18.00115207,5baa5c962eb8020001f1ed3a,64d2fd46c836a06233681665,64dc7f4b274cd767a586479c,,,,,,,decisionTrl,resources/DY.BMP,resources/DBN.BMP,Door2,0.014537902,0.000519211,1,0,0,0.1532,optionRight,20,865,1,17,0,17,0,1,,,,,,,,,,,,,,,,,,,,,,,,,,,,,,,,,,,,,,,
,,,,,,,,2023-08-16_08h48.49.804,HF_wild_card,2022.2.4,Win32,18.00115207,5baa5c962eb8020001f1ed3a,64d2fd46c836a06233681665,64dc7f4b274cd767a586479c,,,,,,,ctch,resources/DP.BMP,resources/DBN.BMP,Door3,0.007268951,-0.000519211,1,0,0,0.1481,optionLeft,70,935,1,18,0,18,0,1,,,,,,,,,,,,,,,,,,,,,,,,,,,,,,,,,,,,,,,
,,,,,,,,2023-08-16_08h48.49.804,HF_wild_card,2022.2.4,Win32,18.00115207,5baa5c962eb8020001f1ed3a,64d2fd46c836a06233681665,64dc7f4b274cd767a586479c,,,,,,,decisionTrl,resources/DB.BMP,resources/DBN.BMP,Door1,-0.295950156,-0.021287643,1,0,0,1.1644,optionLeft,30,965,1,19,0,19,0,1,,,,,,,,,,,,,,,,,,,,,,,,,,,,,,,,,,,,,,,
,,,,,,,,2023-08-16_08h48.49.804,HF_wild_card,2022.2.4,Win32,18.00115207,5baa5c962eb8020001f1ed3a,64d2fd46c836a06233681665,64dc7f4b274cd767a586479c,,,,,,,decisionTrl,resources/DY.BMP,resources/DP.BMP,WildCard_NonEx,0.002076843,0.022326064,1,0,0,0.1315,optionLeft,45,1010,1,20,0,20,0,1,,,,,,,,,,,,,,,,,,,,,,,,,,,,,,,,,,,,,,,
,,,,,,,,2023-08-16_08h48.49.804,HF_wild_card,2022.2.4,Win32,18.00115207,5baa5c962eb8020001f1ed3a,64d2fd46c836a06233681665,64dc7f4b274cd767a586479c,,,,,,,ctch,resources/DP.BMP,resources/DBN.BMP,Door3,-0.391484943,-0.026479751,1,0,0,1.3361,optionLeft,70,1080,1,21,0,21,0,1,,,,,,,,,,,,,,,,,,,,,,,,,,,,,,,,,,,,,,,
,,,,,,,,2023-08-16_08h48.49.804,HF_wild_card,2022.2.4,Win32,18.00115207,5baa5c962eb8020001f1ed3a,64d2fd46c836a06233681665,64dc7f4b274cd767a586479c,,,,,,,sngl,resources/DG.BMP,resources/Empty.png,Door4,-0.005192108,-0.01298027,1,0,0,0.1436,optionLeft,80,1160,1,22,0,22,0,1,,,,,,,,,,,,,,,,,,,,,,,,,,,,,,,,,,,,,,,
,,,,,,,,2023-08-16_08h48.49.804,HF_wild_card,2022.2.4,Win32,18.00115207,5baa5c962eb8020001f1ed3a,64d2fd46c836a06233681665,64dc7f4b274cd767a586479c,,,,,,,decisionTrl,resources/DP.BMP,resources/DG.BMP,Door3,-0.010384216,0.014018692,1,0,0,0.1367,optionLeft,70,1230,1,23,0,23,0,1,,,,,,,,,,,,,,,,,,,,,,,,,,,,,,,,,,,,,,,
,,,,,,,,2023-08-16_08h48.49.804,HF_wild_card,2022.2.4,Win32,18.00115207,5baa5c962eb8020001f1ed3a,64d2fd46c836a06233681665,64dc7f4b274cd767a586479c,,,,,,,decisionTrl,resources/DY.BMP,resources/DB.BMP,Door1,0.020768432,-0.002596054,1,0,0,0.1447,optionRight,30,1260,1,24,0,24,0,1,,,,,,,,,,,,,,,,,,,,,,,,,,,,,,,,,,,,,,,
,,,,,,,,2023-08-16_08h48.49.804,HF_wild_card,2022.2.4,Win32,18.00115207,5baa5c962eb8020001f1ed3a,64d2fd46c836a06233681665,64dc7f4b274cd767a586479c,,,,,,,decisionTrl,resources/DP.BMP,resources/DG.BMP,Door3,-0.295950156,-0.023364486,1,0,0,0.556,optionLeft,70,1330,1,25,0,25,0,1,,,,,,,,,,,,,,,,,,,,,,,,,,,,,,,,,,,,,,,
,,,,,,,,2023-08-16_08h48.49.804,HF_wild_card,2022.2.4,Win32,18.00115207,5baa5c962eb8020001f1ed3a,64d2fd46c836a06233681665,64dc7f4b274cd767a586479c,,,,,,,ctch,resources/DB.BMP,resources/DG.BMP,Door1,-0.010384216,-0.0192108,1,0,0,0.3562,optionLeft,30,1360,1,26,0,26,0,1,,,,,,,,,,,,,,,,,,,,,,,,,,,,,,,,,,,,,,,
,,,,,,,,2023-08-16_08h48.49.804,HF_wild_card,2022.2.4,Win32,18.00115207,5baa5c962eb8020001f1ed3a,64d2fd46c836a06233681665,64dc7f4b274cd767a586479c,,,,,,,sngl,resources/Empty.png,resources/DY.BMP,WildCard_NonEx,-0.010384216,0.004672897,1,0,0,0.1212,optionRight,45,1405,1,27,0,27,0,1,,,,,,,,,,,,,,,,,,,,,,,,,,,,,,,,,,,,,,,
,,,,,,,,2023-08-16_08h48.49.804,HF_wild_card,2022.2.4,Win32,18.00115207,5baa5c962eb8020001f1ed3a,64d2fd46c836a06233681665,64dc7f4b274cd767a586479c,,,,,,,decisionTrl,resources/DG.BMP,resources/DP.BMP,Door3,0.232606438,-0.005711319,1,0,0,0.5532,optionRight,70,1475,1,28,0,28,0,1,,,,,,,,,,,,,,,,,,,,,,,,,,,,,,,,,,,,,,,
,,,,,,,,2023-08-16_08h48.49.804,HF_wild_card,2022.2.4,Win32,18.00115207,5baa5c962eb8020001f1ed3a,64d2fd46c836a06233681665,64dc7f4b274cd767a586479c,,,,,,,decisionTrl,resources/DBN.BMP,resources/DY.BMP,Door2,-0.013499481,-0.014018692,1,0,0,0.1319,optionLeft,40,1515,1,29,0,29,0,1,,,,,,,,,,,,,,,,,,,,,,,,,,,,,,,,,,,,,,,
,,,,,,,,2023-08-16_08h48.49.804,HF_wild_card,2022.2.4,Win32,18.00115207,5baa5c962eb8020001f1ed3a,64d2fd46c836a06233681665,64dc7f4b274cd767a586479c,,,,,,,decisionTrl,resources/DBN.BMP,resources/DB.BMP,Door1,0.008307373,0.014018692,1,0,0,0.1324,optionRight,30,1545,1,30,0,30,0,1,,,,,,,,,,,,,,,,,,,,,,,,,,,,,,,,,,,,,,,
,,,,,,,,2023-08-16_08h48.49.804,HF_wild_card,2022.2.4,Win32,18.00115207,5baa5c962eb8020001f1ed3a,64d2fd46c836a06233681665,64dc7f4b274cd767a586479c,,,,,,,ctch,resources/DB.BMP,resources/DG.BMP,Door1,0.004153686,-0.014018692,1,0,0,0.1404,optionLeft,30,1575,1,31,0,31,0,1,,,,,,,,,,,,,,,,,,,,,,,,,,,,,,,,,,,,,,,
,,,,,,,,2023-08-16_08h48.49.804,HF_wild_card,2022.2.4,Win32,18.00115207,5baa5c962eb8020001f1ed3a,64d2fd46c836a06233681665,64dc7f4b274cd767a586479c,,,,,,,sngl,resources/DY.BMP,resources/Empty.png,WildCard_NonEx,0.014537902,0.015057113,1,0,0,0.1746,optionLeft,55,1630,1,32,0,32,0,1,,,,,,,,,,,,,,,,,,,,,,,,,,,,,,,,,,,,,,,
,,,,,,,,2023-08-16_08h48.49.804,HF_wild_card,2022.2.4,Win32,18.00115207,5baa5c962eb8020001f1ed3a,64d2fd46c836a06233681665,64dc7f4b274cd767a586479c,,,,,,,sngl,resources/Empty.png,resources/DBN.BMP,Door2,-0.002076843,0.011941848,1,0,0,0.1883,optionRight,20,1650,1,33,0,33,0,1,,,,,,,,,,,,,,,,,,,,,,,,,,,,,,,,,,,,,,,
,,,,,,,,2023-08-16_08h48.49.804,HF_wild_card,2022.2.4,Win32,18.00115207,5baa5c962eb8020001f1ed3a,64d2fd46c836a06233681665,64dc7f4b274cd767a586479c,,,,,,,decisionTrl,resources/DBN.BMP,resources/DB.BMP,Door1,0.193146417,-0.01298027,1,0,0,0.5711,optionRight,30,1680,1,34,0,34,0,1,,,,,,,,,,,,,,,,,,,,,,,,,,,,,,,,,,,,,,,
,,,,,,,,2023-08-16_08h48.49.804,HF_wild_card,2022.2.4,Win32,18.00115207,5baa5c962eb8020001f1ed3a,64d2fd46c836a06233681665,64dc7f4b274cd767a586479c,,,,,,,sngl,resources/Empty.png,resources/DP.BMP,Door3,0.320872274,0.014018692,1,0,0,0.6322,optionRight,70,1750,1,35,0,35,0,1,,,,,,,,,,,,,,,,,,,,,,,,,,,,,,,,,,,,,,,
,,,,,,,,2023-08-16_08h48.49.804,HF_wild_card,2022.2.4,Win32,18.00115207,5baa5c962eb8020001f1ed3a,64d2fd46c836a06233681665,64dc7f4b274cd767a586479c,,,,,,,ctch,resources/DBN.BMP,resources/DP.BMP,Door3,-0.007268951,-0.009865005,1,0,0,0.1309,optionRight,70,1820,1,36,0,36,0,1,,,,,,,,,,,,,,,,,,,,,,,,,,,,,,,,,,,,,,,
,,,,,,,,2023-08-16_08h48.49.804,HF_wild_card,2022.2.4,Win32,18.00115207,5baa5c962eb8020001f1ed3a,64d2fd46c836a06233681665,64dc7f4b274cd767a586479c,,,,,,,decisionTrl,resources/DB.BMP,resources/DBN.BMP,Door1,0.010384216,0.002596054,1,0,0,0.1311,optionLeft,30,1850,1,37,0,37,0,1,,,,,,,,,,,,,,,,,,,,,,,,,,,,,,,,,,,,,,,
,,,,,,,,2023-08-16_08h48.49.804,HF_wild_card,2022.2.4,Win32,18.00115207,5baa5c962eb8020001f1ed3a,64d2fd46c836a06233681665,64dc7f4b274cd767a586479c,,,,,,,decisionTrl,resources/DG.BMP,resources/DP.BMP,Door3,-0.008307373,-0.000519211,1,0,0,0.1279,optionRight,70,1920,1,38,0,38,0,1,,,,,,,,,,,,,,,,,,,,,,,,,,,,,,,,,,,,,,,
,,,,,,,,2023-08-16_08h48.49.804,HF_wild_card,2022.2.4,Win32,18.00115207,5baa5c962eb8020001f1ed3a,64d2fd46c836a06233681665,64dc7f4b274cd767a586479c,,,,,,,decisionTrl,resources/DG.BMP,resources/DP.BMP,Door3,-0.00623053,0.002596054,1,0,0,0.141,optionRight,70,1990,1,39,0,39,0,1,,,,,,,,,,,,,,,,,,,,,,,,,,,,,,,,,,,,,,,
,,,,,,,,2023-08-16_08h48.49.804,HF_wild_card,2022.2.4,Win32,18.00115207,5baa5c962eb8020001f1ed3a,64d2fd46c836a06233681665,64dc7f4b274cd767a586479c,,,,,,,sngl,resources/Empty.png,resources/DY.BMP,WildCard_NonEx,0.31152648,0.003634476,1,0,0,0.4924,optionRight,55,2045,1,40,0,40,0,1,,,,,,,,,,,,,,,,,,,,,,,,,,,,,,,,,,,,,,,
,,,,,,,,2023-08-16_08h48.49.804,HF_wild_card,2022.2.4,Win32,18.00115207,5baa5c962eb8020001f1ed3a,64d2fd46c836a06233681665,64dc7f4b274cd767a586479c,,,,,,,ctch,resources/DG.BMP,resources/DB.BMP,Door1,-0.00623053,-0.00674974,1,0,0,0.1292,optionRight,30,2075,1,41,0,41,0,1,,,,,,,,,,,,,,,,,,,,,,,,,,,,,,,,,,,,,,,
,,,,,,,,2023-08-16_08h48.49.804,HF_wild_card,2022.2.4,Win32,18.00115207,5baa5c962eb8020001f1ed3a,64d2fd46c836a06233681665,64dc7f4b274cd767a586479c,,,,,,,decisionTrl,resources/DY.BMP,resources/DG.BMP,Door4,0.002076843,0.015057113,1,0,0,0.1364,optionRight,60,2135,1,42,0,42,0,1,,,,,,,,,,,,,,,,,,,,,,,,,,,,,,,,,,,,,,,
,,,,,,,,2023-08-16_08h48.49.804,HF_wild_card,2022.2.4,Win32,18.00115207,5baa5c962eb8020001f1ed3a,64d2fd46c836a06233681665,64dc7f4b274cd767a586479c,,,,,,,decisionTrl,resources/DG.BMP,resources/DP.BMP,Door3,0.272066459,0.007788162,1,0,0,0.5522,optionRight,70,2205,1,43,0,43,0,1,,,,,,,,,,,,,,,,,,,,,,,,,,,,,,,,,,,,,,,
,,,,,,,,2023-08-16_08h48.49.804,HF_wild_card,2022.2.4,Win32,18.00115207,5baa5c962eb8020001f1ed3a,64d2fd46c836a06233681665,64dc7f4b274cd767a586479c,,,,,,,,,,,,,,,,,,,,,,,,,,0,0,0,0,1,,,,,,,,,,,,,,,,,,,,,,,,,,,,,,,,,,
,,,,,,,,2023-08-16_08h48.49.804,HF_wild_card,2022.2.4,Win32,18.00115207,5baa5c962eb8020001f1ed3a,64d2fd46c836a06233681665,64dc7f4b274cd767a586479c,,,,,,,sngl,resources/Empty.png,resources/DBN.BMP,Door2,0.352024922,-0.029595016,1,0,0,0.8267,optionRight,40,2245,2,0,0,0,0,1,,,,,,,,,,,,,,,,,,,,,,,,,,,,,,,,,,,,,,,
,,,,,,,,2023-08-16_08h48.49.804,HF_wild_card,2022.2.4,Win32,18.00115207,5baa5c962eb8020001f1ed3a,64d2fd46c836a06233681665,64dc7f4b274cd767a586479c,,,,,,,decisionTrl,resources/DB.BMP,resources/DBN.BMP,Door1,-0.010384216,-0.015057113,1,0,0,0.1314,optionLeft,30,2275,2,1,0,1,0,1,,,,,,,,,,,,,,,,,,,,,,,,,,,,,,,,,,,,,,,
,,,,,,,,2023-08-16_08h48.49.804,HF_wild_card,2022.2.4,Win32,18.00115207,5baa5c962eb8020001f1ed3a,64d2fd46c836a06233681665,64dc7f4b274cd767a586479c,,,,,,,decisionTrl,resources/DY.BMP,resources/DG.BMP,Door4,0.326064382,-0.018172378,1,0,0,0.4993,optionRight,60,2335,2,2,0,2,0,1,,,,,,,,,,,,,,,,,,,,,,,,,,,,,,,,,,,,,,,
,,,,,,,,2023-08-16_08h48.49.804,HF_wild_card,2022.2.4,Win32,18.00115207,5baa5c962eb8020001f1ed3a,64d2fd46c836a06233681665,64dc7f4b274cd767a586479c,,,,,,,sngl,resources/Empty.png,resources/DY.BMP,WildCard_NonEx,0.362409138,0.007788162,1,0,0,0.5577,optionRight,45,2380,2,3,0,3,0,1,,,,,,,,,,,,,,,,,,,,,,,,,,,,,,,,,,,,,,,
,,,,,,,,2023-08-16_08h48.49.804,HF_wild_card,2022.2.4,Win32,18.00115207,5baa5c962eb8020001f1ed3a,64d2fd46c836a06233681665,64dc7f4b274cd767a586479c,,,,,,,decisionTrl,resources/DBN.BMP,resources/DB.BMP,Door2,-0.310488058,-0.028556594,1,0,0,0.4787,optionLeft,20,2400,2,4,0,4,0,1,,,,,,,,,,,,,,,,,,,,,,,,,,,,,,,,,,,,,,,
,,,,,,,,2023-08-16_08h48.49.804,HF_wild_card,2022.2.4,Win32,18.00115207,5baa5c962eb8020001f1ed3a,64d2fd46c836a06233681665,64dc7f4b274cd767a586479c,,,,,,,decisionTrl,resources/DG.BMP,resources/DP.BMP,Door3,0.005192108,-0.01298027,1,0,0,0.127,optionRight,70,2470,2,5,0,5,0,1,,,,,,,,,,,,,,,,,,,,,,,,,,,,,,,,,,,,,,,
,,,,,,,,2023-08-16_08h48.49.804,HF_wild_card,2022.2.4,Win32,18.00115207,5baa5c962eb8020001f1ed3a,64d2fd46c836a06233681665,64dc7f4b274cd767a586479c,,,,,,,decisionTrl,resources/DY.BMP,resources/DBN.BMP,Door2,0.341640706,-0.022326064,1,0,0,0.4182,optionRight,40,2510,2,6,0,6,0,1,,,,,,,,,,,,,,,,,,,,,,,,,,,,,,,,,,,,,,,
,,,,,,,,2023-08-16_08h48.49.804,HF_wild_card,2022.2.4,Win32,18.00115207,5baa5c962eb8020001f1ed3a,64d2fd46c836a06233681665,64dc7f4b274cd767a586479c,,,,,,,decisionTrl,resources/DY.BMP,resources/DB.BMP,WildCard_NonEx,-0.231568017,-0.014018692,1,0,0,0.9356,optionLeft,55,2565,2,7,0,7,0,1,,,,,,,,,,,,,,,,,,,,,,,,,,,,,,,,,,,,,,,
,,,,,,,,2023-08-16_08h48.49.804,HF_wild_card,2022.2.4,Win32,18.00115207,5baa5c962eb8020001f1ed3a,64d2fd46c836a06233681665,64dc7f4b274cd767a586479c,,,,,,,decisionTrl,resources/DP.BMP,resources/DG.BMP,Door4,0.391484943,0.000519211,1,0,0,0.3568,optionRight,60,2625,2,8,0,8,0,1,,,,,,,,,,,,,,,,,,,,,,,,,,,,,,,,,,,,,,,
,,,,,,,,2023-08-16_08h48.49.804,HF_wild_card,2022.2.4,Win32,18.00115207,5baa5c962eb8020001f1ed3a,64d2fd46c836a06233681665,64dc7f4b274cd767a586479c,,,,,,,decisionTrl,resources/DG.BMP,resources/DP.BMP,Door4,-0.293873313,-0.024402908,1,0,0,0.3997,optionLeft,60,2685,2,9,0,9,0,1,,,,,,,,,,,,,,,,,,,,,,,,,,,,,,,,,,,,,,,
,,,,,,,,2023-08-16_08h48.49.804,HF_wild_card,2022.2.4,Win32,18.00115207,5baa5c962eb8020001f1ed3a,64d2fd46c836a06233681665,64dc7f4b274cd767a586479c,,,,,,,decisionTrl,resources/DY.BMP,resources/DP.BMP,Door3,0.224299065,-0.003634476,1,0,0,0.571,optionRight,70,2755,2,10,0,10,0,1,,,,,,,,,,,,,,,,,,,,,,,,,,,,,,,,,,,,,,,
,,,,,,,,2023-08-16_08h48.49.804,HF_wild_card,2022.2.4,Win32,18.00115207,5baa5c962eb8020001f1ed3a,64d2fd46c836a06233681665,64dc7f4b274cd767a586479c,,,,,,,sngl,resources/DY.BMP,resources/Empty.png,WildCard_NonEx,-0.289719626,0.001557632,1,0,0,0.5546,optionLeft,45,2800,2,11,0,11,0,1,,,,,,,,,,,,,,,,,,,,,,,,,,,,,,,,,,,,,,,
,,,,,,,,2023-08-16_08h48.49.804,HF_wild_card,2022.2.4,Win32,18.00115207,5baa5c962eb8020001f1ed3a,64d2fd46c836a06233681665,64dc7f4b274cd767a586479c,,,,,,,decisionTrl,resources/DBN.BMP,resources/DY.BMP,WildCard_NonEx,0.286604361,-0.000519211,1,0,0,0.5508,optionRight,45,2845,2,12,0,12,0,1,,,,,,,,,,,,,,,,,,,,,,,,,,,,,,,,,,,,,,,
,,,,,,,,2023-08-16_08h48.49.804,HF_wild_card,2022.2.4,Win32,18.00115207,5baa5c962eb8020001f1ed3a,64d2fd46c836a06233681665,64dc7f4b274cd767a586479c,,,,,,,sngl,resources/DBN.BMP,resources/Empty.png,Door2,-0.321910696,-0.00674974,1,0,0,0.4987,optionLeft,20,2865,2,13,0,13,0,1,,,,,,,,,,,,,,,,,,,,,,,,,,,,,,,,,,,,,,,
,,,,,,,,2023-08-16_08h48.49.804,HF_wild_card,2022.2.4,Win32,18.00115207,5baa5c962eb8020001f1ed3a,64d2fd46c836a06233681665,64dc7f4b274cd767a586479c,,,,,,,sngl,resources/DB.BMP,resources/Empty.png,Door1,-0.33748702,-0.014018692,1,0,0,0.6334,optionLeft,30,2895,2,14,0,14,0,1,,,,,,,,,,,,,,,,,,,,,,,,,,,,,,,,,,,,,,,
,,,,,,,,2023-08-16_08h48.49.804,HF_wild_card,2022.2.4,Win32,18.00115207,5baa5c962eb8020001f1ed3a,64d2fd46c836a06233681665,64dc7f4b274cd767a586479c,,,,,,,decisionTrl,resources/DB.BMP,resources/DY.BMP,WildCard_NonEx,0.367601246,-0.029595016,1,0,0,1.4144,optionRight,55,2950,2,15,0,15,0,1,,,,,,,,,,,,,,,,,,,,,,,,,,,,,,,,,,,,,,,
,,,,,,,,2023-08-16_08h48.49.804,HF_wild_card,2022.2.4,Win32,18.00115207,5baa5c962eb8020001f1ed3a,64d2fd46c836a06233681665,64dc7f4b274cd767a586479c,,,,,,,sngl,resources/Empty.png,resources/DP.BMP,Door3,0.385254413,-0.0192108,1,0,0,0.631,optionRight,70,3020,2,16,0,16,0,1,,,,,,,,,,,,,,,,,,,,,,,,,,,,,,,,,,,,,,,
,,,,,,,,2023-08-16_08h48.49.804,HF_wild_card,2022.2.4,Win32,18.00115207,5baa5c962eb8020001f1ed3a,64d2fd46c836a06233681665,64dc7f4b274cd767a586479c,,,,,,,ctch,resources/DG.BMP,resources/DB.BMP,Door4,-0.292834891,-0.068016615,1,0,0,0.9676,optionLeft,60,3080,2,17,0,17,0,1,,,,,,,,,,,,,,,,,,,,,,,,,,,,,,,,,,,,,,,
,,,,,,,,2023-08-16_08h48.49.804,HF_wild_card,2022.2.4,Win32,18.00115207,5baa5c962eb8020001f1ed3a,64d2fd46c836a06233681665,64dc7f4b274cd767a586479c,,,,,,,ctch,resources/DB.BMP,resources/DG.BMP,Door4,0.326064382,-0.036863967,1,0,0,0.5438,optionRight,80,3160,2,18,0,18,0,1,,,,,,,,,,,,,,,,,,,,,,,,,,,,,,,,,,,,,,,
,,,,,,,,2023-08-16_08h48.49.804,HF_wild_card,2022.2.4,Win32,18.00115207,5baa5c962eb8020001f1ed3a,64d2fd46c836a06233681665,64dc7f4b274cd767a586479c,,,,,,,ctch,resources/DP.BMP,resources/DBN.BMP,Door3,-0.256490135,-0.062824507,1,0,0,0.4906,optionLeft,70,3230,2,19,0,19,0,1,,,,,,,,,,,,,,,,,,,,,,,,,,,,,,,,,,,,,,,
,,,,,,,,2023-08-16_08h48.49.804,HF_wild_card,2022.2.4,Win32,18.00115207,5baa5c962eb8020001f1ed3a,64d2fd46c836a06233681665,64dc7f4b274cd767a586479c,,,,,,,sngl,resources/DY.BMP,resources/Empty.png,WildCard_NonEx,-0.255451713,-0.028556594,1,0,0,0.5565,optionLeft,55,3285,2,20,0,20,0,1,,,,,,,,,,,,,,,,,,,,,,,,,,,,,,,,,,,,,,,
,,,,,,,,2023-08-16_08h48.49.804,HF_wild_card,2022.2.4,Win32,18.00115207,5baa5c962eb8020001f1ed3a,64d2fd46c836a06233681665,64dc7f4b274cd767a586479c,,,,,,,decisionTrl,resources/DP.BMP,resources/DG.BMP,Door3,-0.353063344,-0.060747664,1,0,0,0.6891,optionLeft,70,3355,2,21,0,21,0,1,,,,,,,,,,,,,,,,,,,,,,,,,,,,,,,,,,,,,,,
,,,,,,,,2023-08-16_08h48.49.804,HF_wild_card,2022.2.4,Win32,18.00115207,5baa5c962eb8020001f1ed3a,64d2fd46c836a06233681665,64dc7f4b274cd767a586479c,,,,,,,decisionTrl,resources/DB.BMP,resources/DBN.BMP,Door1,-0.301142264,-0.04517134,1,0,0,0.8979,optionLeft,30,3385,2,22,0,22,0,1,,,,,,,,,,,,,,,,,,,,,,,,,,,,,,,,,,,,,,,
,,,,,,,,2023-08-16_08h48.49.804,HF_wild_card,2022.2.4,Win32,18.00115207,5baa5c962eb8020001f1ed3a,64d2fd46c836a06233681665,64dc7f4b274cd767a586479c,,,,,,,decisionTrl,resources/DBN.BMP,resources/DB.BMP,Door1,0.320872274,-0.009865005,1,0,0,0.6857,optionRight,30,3415,2,23,0,23,0,1,,,,,,,,,,,,,,,,,,,,,,,,,,,,,,,,,,,,,,,
,,,,,,,,2023-08-16_08h48.49.804,HF_wild_card,2022.2.4,Win32,18.00115207,5baa5c962eb8020001f1ed3a,64d2fd46c836a06233681665,64dc7f4b274cd767a586479c,,,,,,,decisionTrl,resources/DBN.BMP,resources/DB.BMP,Door1,0.229491173,-0.009865005,1,0,0,0.9274,optionRight,30,3445,2,24,0,24,0,1,,,,,,,,,,,,,,,,,,,,,,,,,,,,,,,,,,,,,,,
,,,,,,,,2023-08-16_08h48.49.804,HF_wild_card,2022.2.4,Win32,18.00115207,5baa5c962eb8020001f1ed3a,64d2fd46c836a06233681665,64dc7f4b274cd767a586479c,,,,,,,ctch,resources/DBN.BMP,resources/DP.BMP,Door3,0.35721703,-0.04517134,1,0,0,4.651,optionRight,70,3515,2,25,0,25,0,1,,,,,,,,,,,,,,,,,,,,,,,,,,,,,,,,,,,,,,,
,,,,,,,,2023-08-16_08h48.49.804,HF_wild_card,2022.2.4,Win32,18.00115207,5baa5c962eb8020001f1ed3a,64d2fd46c836a06233681665,64dc7f4b274cd767a586479c,,,,,,,decisionTrl,resources/DG.BMP,resources/DP.BMP,Door3,0.2596054,-0.025441329,1,0,0,0.6142,optionRight,70,3585,2,26,0,26,0,1,,,,,,,,,,,,,,,,,,,,,,,,,,,,,,,,,,,,,,,
,,,,,,,,2023-08-16_08h48.49.804,HF_wild_card,2022.2.4,Win32,18.00115207,5baa5c962eb8020001f1ed3a,64d2fd46c836a06233681665,64dc7f4b274cd767a586479c,,,,,,,ctch,resources/DP.BMP,resources/DBN.BMP,Door3,-0.374870197,-0.037902388,1,0,0,0.6812,optionLeft,70,3655,2,27,0,27,0,1,,,,,,,,,,,,,,,,,,,,,,,,,,,,,,,,,,,,,,,
,,,,,,,,2023-08-16_08h48.49.804,HF_wild_card,2022.2.4,Win32,18.00115207,5baa5c962eb8020001f1ed3a,64d2fd46c836a06233681665,64dc7f4b274cd767a586479c,,,,,,,sngl,resources/Empty.png,resources/DB.BMP,Door1,0.240913811,-0.042056075,1,0,0,0.6825,optionRight,30,3685,2,28,0,28,0,1,,,,,,,,,,,,,,,,,,,,,,,,,,,,,,,,,,,,,,,
,,,,,,,,2023-08-16_08h48.49.804,HF_wild_card,2022.2.4,Win32,18.00115207,5baa5c962eb8020001f1ed3a,64d2fd46c836a06233681665,64dc7f4b274cd767a586479c,,,,,,,ctch,resources/DBN.BMP,resources/DP.BMP,Door3,0.258566978,-0.022326064,1,0,0,0.6747,optionRight,70,3755,2,29,0,29,0,1,,,,,,,,,,,,,,,,,,,,,,,,,,,,,,,,,,,,,,,
,,,,,,,,2023-08-16_08h48.49.804,HF_wild_card,2022.2.4,Win32,18.00115207,5baa5c962eb8020001f1ed3a,64d2fd46c836a06233681665,64dc7f4b274cd767a586479c,,,,,,,decisionTrl,resources/DG.BMP,resources/DY.BMP,WildCard_NonEx,0.354101765,-0.046209761,1,0,0,1.2395,optionRight,45,3800,2,30,0,30,0,1,,,,,,,,,,,,,,,,,,,,,,,,,,,,,,,,,,,,,,,
,,,,,,,,2023-08-16_08h48.49.804,HF_wild_card,2022.2.4,Win32,18.00115207,5baa5c962eb8020001f1ed3a,64d2fd46c836a06233681665,64dc7f4b274cd767a586479c,,,,,,,decisionTrl,resources/DG.BMP,resources/DP.BMP,Door3,0.28556594,-0.034787124,1,0,0,0.6661,optionRight,70,3870,2,31,0,31,0,1,,,,,,,,,,,,,,,,,,,,,,,,,,,,,,,,,,,,,,,
,,,,,,,,2023-08-16_08h48.49.804,HF_wild_card,2022.2.4,Win32,18.00115207,5baa5c962eb8020001f1ed3a,64d2fd46c836a06233681665,64dc7f4b274cd767a586479c,,,,,,,decisionTrl,resources/DP.BMP,resources/DG.BMP,Door3,-0.353063344,0.014018692,1,0,0,0.6797,optionLeft,70,3940,2,32,0,32,0,1,,,,,,,,,,,,,,,,,,,,,,,,,,,,,,,,,,,,,,,
,,,,,,,,2023-08-16_08h48.49.804,HF_wild_card,2022.2.4,Win32,18.00115207,5baa5c962eb8020001f1ed3a,64d2fd46c836a06233681665,64dc7f4b274cd767a586479c,,,,,,,ctch,resources/DG.BMP,resources/DB.BMP,Door1,0.282450675,-0.052440291,1,0,0,0.7937,optionRight,30,3970,2,33,0,33,0,1,,,,,,,,,,,,,,,,,,,,,,,,,,,,,,,,,,,,,,,
,,,,,,,,2023-08-16_08h48.49.804,HF_wild_card,2022.2.4,Win32,18.00115207,5baa5c962eb8020001f1ed3a,64d2fd46c836a06233681665,64dc7f4b274cd767a586479c,,,,,,,sngl,resources/DP.BMP,resources/Empty.png,Door3,-0.339563863,-0.020249221,1,0,0,0.5644,optionLeft,70,4040,2,34,0,34,0,1,,,,,,,,,,,,,,,,,,,,,,,,,,,,,,,,,,,,,,,
,,,,,,,,2023-08-16_08h48.49.804,HF_wild_card,2022.2.4,Win32,18.00115207,5baa5c962eb8020001f1ed3a,64d2fd46c836a06233681665,64dc7f4b274cd767a586479c,,,,,,,sngl,resources/DG.BMP,resources/Empty.png,Door4,-0.320872274,-0.031671859,1,0,0,0.6813,optionLeft,60,4100,2,35,0,35,0,1,,,,,,,,,,,,,,,,,,,,,,,,,,,,,,,,,,,,,,,
,,,,,,,,2023-08-16_08h48.49.804,HF_wild_card,2022.2.4,Win32,18.00115207,5baa5c962eb8020001f1ed3a,64d2fd46c836a06233681665,64dc7f4b274cd767a586479c,,,,,,,sngl,resources/Empty.png,resources/DY.BMP,WildCard_NonEx,0.296988577,-0.022326064,1,0,0,0.5534,optionRight,55,4155,2,36,0,36,0,1,,,,,,,,,,,,,,,,,,,,,,,,,,,,,,,,,,,,,,,
,,,,,,,,2023-08-16_08h48.49.804,HF_wild_card,2022.2.4,Win32,18.00115207,5baa5c962eb8020001f1ed3a,64d2fd46c836a06233681665,64dc7f4b274cd767a586479c,,,,,,,ctch,resources/DB.BMP,resources/DG.BMP,Door1,-0.403946002,-0.026479751,1,0,0,0.6038,optionLeft,30,4185,2,37,0,37,0,1,,,,,,,,,,,,,,,,,,,,,,,,,,,,,,,,,,,,,,,
,,,,,,,,2023-08-16_08h48.49.804,HF_wild_card,2022.2.4,Win32,18.00115207,5baa5c962eb8020001f1ed3a,64d2fd46c836a06233681665,64dc7f4b274cd767a586479c,,,,,,,decisionTrl,resources/DP.BMP,resources/DY.BMP,Door3,-0.27933541,-0.029595016,1,0,0,0.7017,optionLeft,70,4255,2,38,0,38,0,1,,,,,,,,,,,,,,,,,,,,,,,,,,,,,,,,,,,,,,,
,,,,,,,,2023-08-16_08h48.49.804,HF_wild_card,2022.2.4,Win32,18.00115207,5baa5c962eb8020001f1ed3a,64d2fd46c836a06233681665,64dc7f4b274cd767a586479c,,,,,,,sngl,resources/Empty.png,resources/DG.BMP,Door4,0.31152648,0.017133956,1,0,0,0.5051,optionRight,80,4335,2,39,0,39,0,1,,,,,,,,,,,,,,,,,,,,,,,,,,,,,,,,,,,,,,,
,,,,,,,,2023-08-16_08h48.49.804,HF_wild_card,2022.2.4,Win32,18.00115207,5baa5c962eb8020001f1ed3a,64d2fd46c836a06233681665,64dc7f4b274cd767a586479c,,,,,,,decisionTrl,resources/DB.BMP,resources/DBN.BMP,Door1,-0.421599169,-0.051401869,1,0,0,1.1199,optionLeft,30,4365,2,40,0,40,0,1,,,,,,,,,,,,,,,,,,,,,,,,,,,,,,,,,,,,,,,
,,,,,,,,2023-08-16_08h48.49.804,HF_wild_card,2022.2.4,Win32,18.00115207,5baa5c962eb8020001f1ed3a,64d2fd46c836a06233681665,64dc7f4b274cd767a586479c,,,,,,,decisionTrl,resources/DBN.BMP,resources/DB.BMP,Door1,0.400830737,-0.00674974,1,0,0,0.7248,optionRight,30,4395,2,41,0,41,0,1,,,,,,,,,,,,,,,,,,,,,,,,,,,,,,,,,,,,,,,
,,,,,,,,2023-08-16_08h48.49.804,HF_wild_card,2022.2.4,Win32,18.00115207,5baa5c962eb8020001f1ed3a,64d2fd46c836a06233681665,64dc7f4b274cd767a586479c,,,,,,,decisionTrl,resources/DP.BMP,resources/DG.BMP,Door3,-0.392523364,-0.08463136,1,0,0,0.7119,optionLeft,70,4465,2,42,0,42,0,1,,,,,,,,,,,,,,,,,,,,,,,,,,,,,,,,,,,,,,,
,,,,,,,,2023-08-16_08h48.49.804,HF_wild_card,2022.2.4,Win32,18.00115207,5baa5c962eb8020001f1ed3a,64d2fd46c836a06233681665,64dc7f4b274cd767a586479c,,,,,,,decisionTrl,resources/DB.BMP,resources/DBN.BMP,Door1,-0.30529595,-0.056593977,1,0,0,1.1452,optionLeft,30,4495,2,43,0,43,0,1,,,,,,,,,,,,,,,,,,,,,,,,,,,,,,,,,,,,,,,
,,,,,,,,2023-08-16_08h48.49.804,HF_wild_card,2022.2.4,Win32,18.00115207,5baa5c962eb8020001f1ed3a,64d2fd46c836a06233681665,64dc7f4b274cd767a586479c,,,,,,,,,,,,,,,,,,,,,,,,,,1,0,1,0,1,,,,,,,,,,,,,,,,,,,,,,,,,,,,,,,,,,
,,,,,,,,2023-08-16_08h48.49.804,HF_wild_card,2022.2.4,Win32,18.00115207,5baa5c962eb8020001f1ed3a,64d2fd46c836a06233681665,64dc7f4b274cd767a586479c,,,,,,,sngl,resources/DP.BMP,resources/Empty.png,Door3,-0.327102804,-0.04517134,1,0,0,0.734,optionLeft,70,4565,3,0,0,0,0,1,,,,,,,,,,,,,,,,,,,,,,,,,,,,,,,,,,,,,,,
,,,,,,,,2023-08-16_08h48.49.804,HF_wild_card,2022.2.4,Win32,18.00115207,5baa5c962eb8020001f1ed3a,64d2fd46c836a06233681665,64dc7f4b274cd767a586479c,,,,,,,sngl,resources/DY.BMP,resources/Empty.png,WildCard_NonEx,0.434060228,0.0192108,1,0,0,0.9032,optionLeft,45,4610,3,1,0,1,0,1,,,,,,,,,,,,,,,,,,,,,,,,,,,,,,,,,,,,,,,
,,,,,,,,2023-08-16_08h48.49.804,HF_wild_card,2022.2.4,Win32,18.00115207,5baa5c962eb8020001f1ed3a,64d2fd46c836a06233681665,64dc7f4b274cd767a586479c,,,,,,,decisionTrl,resources/DBN.BMP,resources/DB.BMP,Door1,0.264797508,0.023364486,1,0,0,1.2355,optionRight,30,4640,3,2,0,2,0,1,,,,,,,,,,,,,,,,,,,,,,,,,,,,,,,,,,,,,,,
,,,,,,,,2023-08-16_08h48.49.804,HF_wild_card,2022.2.4,Win32,18.00115207,5baa5c962eb8020001f1ed3a,64d2fd46c836a06233681665,64dc7f4b274cd767a586479c,,,,,,,sngl,resources/DG.BMP,resources/Empty.png,Door4,-0.30529595,0.014018692,1,0,0,0.5689,optionLeft,80,4720,3,3,0,3,0,1,,,,,,,,,,,,,,,,,,,,,,,,,,,,,,,,,,,,,,,
,,,,,,,,2023-08-16_08h48.49.804,HF_wild_card,2022.2.4,Win32,18.00115207,5baa5c962eb8020001f1ed3a,64d2fd46c836a06233681665,64dc7f4b274cd767a586479c,,,,,,,sngl,resources/Empty.png,resources/DY.BMP,WildCard_NonEx,0.248182762,0.002596054,1,0,0,0.4918,optionRight,45,4765,3,4,0,4,0,1,,,,,,,,,,,,,,,,,,,,,,,,,,,,,,,,,,,,,,,
,,,,,,,,2023-08-16_08h48.49.804,HF_wild_card,2022.2.4,Win32,18.00115207,5baa5c962eb8020001f1ed3a,64d2fd46c836a06233681665,64dc7f4b274cd767a586479c,,,,,,,decisionTrl,resources/DG.BMP,resources/DP.BMP,Door4,-0.312564901,-0.03271028,1,0,0,1.2911,optionLeft,80,4845,3,5,0,5,0,1,,,,,,,,,,,,,,,,,,,,,,,,,,,,,,,,,,,,,,,
,,,,,,,,2023-08-16_08h48.49.804,HF_wild_card,2022.2.4,Win32,18.00115207,5baa5c962eb8020001f1ed3a,64d2fd46c836a06233681665,64dc7f4b274cd767a586479c,,,,,,,sngl,resources/Empty.png,resources/DBN.BMP,Door2,-0.309449637,-0.015057113,1,0,0,1.0277,optionRight,20,4865,3,6,0,6,0,1,,,,,,,,,,,,,,,,,,,,,,,,,,,,,,,,,,,,,,,
,,,,,,,,2023-08-16_08h48.49.804,HF_wild_card,2022.2.4,Win32,18.00115207,5baa5c962eb8020001f1ed3a,64d2fd46c836a06233681665,64dc7f4b274cd767a586479c,,,,,,,decisionTrl,resources/DG.BMP,resources/DY.BMP,Door4,-0.381100727,-0.074247144,1,0,0,0.9271,optionLeft,60,4925,3,7,0,7,0,1,,,,,,,,,,,,,,,,,,,,,,,,,,,,,,,,,,,,,,,
,,,,,,,,2023-08-16_08h48.49.804,HF_wild_card,2022.2.4,Win32,18.00115207,5baa5c962eb8020001f1ed3a,64d2fd46c836a06233681665,64dc7f4b274cd767a586479c,,,,,,,ctch,resources/DP.BMP,resources/DBN.BMP,Door3,-0.356178609,-0.078400831,1,0,0,0.829,optionLeft,70,4995,3,8,0,8,0,1,,,,,,,,,,,,,,,,,,,,,,,,,,,,,,,,,,,,,,,
,,,,,,,,2023-08-16_08h48.49.804,HF_wild_card,2022.2.4,Win32,18.00115207,5baa5c962eb8020001f1ed3a,64d2fd46c836a06233681665,64dc7f4b274cd767a586479c,,,,,,,decisionTrl,resources/DB.BMP,resources/DY.BMP,Door1,-0.374870197,-0.09709242,1,0,0,2.1775,optionLeft,30,5025,3,9,0,9,0,1,,,,,,,,,,,,,,,,,,,,,,,,,,,,,,,,,,,,,,,
,,,,,,,,2023-08-16_08h48.49.804,HF_wild_card,2022.2.4,Win32,18.00115207,5baa5c962eb8020001f1ed3a,64d2fd46c836a06233681665,64dc7f4b274cd767a586479c,,,,,,,sngl,resources/Empty.png,resources/DP.BMP,Door3,0.238836968,-0.015057113,1,0,0,0.6032,optionRight,70,5095,3,10,0,10,0,1,,,,,,,,,,,,,,,,,,,,,,,,,,,,,,,,,,,,,,,
,,,,,,,,2023-08-16_08h48.49.804,HF_wild_card,2022.2.4,Win32,18.00115207,5baa5c962eb8020001f1ed3a,64d2fd46c836a06233681665,64dc7f4b274cd767a586479c,,,,,,,decisionTrl,resources/DY.BMP,resources/DG.BMP,Door4,0.369678089,-0.0192108,1,0,0,1.8094,optionRight,60,5155,3,11,0,11,0,1,,,,,,,,,,,,,,,,,,,,,,,,,,,,,,,,,,,,,,,
,,,,,,,,2023-08-16_08h48.49.804,HF_wild_card,2022.2.4,Win32,18.00115207,5baa5c962eb8020001f1ed3a,64d2fd46c836a06233681665,64dc7f4b274cd767a586479c,,,,,,,sngl,resources/Empty.png,resources/DG.BMP,Door4,0.300103842,-0.009865005,1,0,0,0.6821,optionRight,60,5215,3,12,0,12,0,1,,,,,,,,,,,,,,,,,,,,,,,,,,,,,,,,,,,,,,,
,,,,,,,,2023-08-16_08h48.49.804,HF_wild_card,2022.2.4,Win32,18.00115207,5baa5c962eb8020001f1ed3a,64d2fd46c836a06233681665,64dc7f4b274cd767a586479c,,,,,,,decisionTrl,resources/DBN.BMP,resources/DB.BMP,Door1,0.348909657,-0.04517134,1,0,0,1.0808,optionRight,30,5245,3,13,0,13,0,1,,,,,,,,,,,,,,,,,,,,,,,,,,,,,,,,,,,,,,,
,,,,,,,,2023-08-16_08h48.49.804,HF_wild_card,2022.2.4,Win32,18.00115207,5baa5c962eb8020001f1ed3a,64d2fd46c836a06233681665,64dc7f4b274cd767a586479c,,,,,,,decisionTrl,resources/DP.BMP,resources/DG.BMP,Door3,-0.272066459,-0.081516096,1,0,0,0.8704,optionLeft,70,5315,3,14,0,14,0,1,,,,,,,,,,,,,,,,,,,,,,,,,,,,,,,,,,,,,,,
,,,,,,,,2023-08-16_08h48.49.804,HF_wild_card,2022.2.4,Win32,18.00115207,5baa5c962eb8020001f1ed3a,64d2fd46c836a06233681665,64dc7f4b274cd767a586479c,,,,,,,sngl,resources/DBN.BMP,resources/Empty.png,Door2,-0.33125649,-0.025441329,1,0,0,0.561,optionLeft,40,5355,3,15,0,15,0,1,,,,,,,,,,,,,,,,,,,,,,,,,,,,,,,,,,,,,,,
,,,,,,,,2023-08-16_08h48.49.804,HF_wild_card,2022.2.4,Win32,18.00115207,5baa5c962eb8020001f1ed3a,64d2fd46c836a06233681665,64dc7f4b274cd767a586479c,,,,,,,decisionTrl,resources/DB.BMP,resources/DBN.BMP,Door1,-0.263759086,-0.011941848,1,0,0,0.5997,optionLeft,30,5385,3,16,0,16,0,1,,,,,,,,,,,,,,,,,,,,,,,,,,,,,,,,,,,,,,,
,,,,,,,,2023-08-16_08h48.49.804,HF_wild_card,2022.2.4,Win32,18.00115207,5baa5c962eb8020001f1ed3a,64d2fd46c836a06233681665,64dc7f4b274cd767a586479c,,,,,,,decisionTrl,resources/DB.BMP,resources/DBN.BMP,Door1,-0.347871236,-0.056593977,1,0,0,1.5956,optionLeft,30,5415,3,17,0,17,0,1,,,,,,,,,,,,,,,,,,,,,,,,,,,,,,,,,,,,,,,
,,,,,,,,2023-08-16_08h48.49.804,HF_wild_card,2022.2.4,Win32,18.00115207,5baa5c962eb8020001f1ed3a,64d2fd46c836a06233681665,64dc7f4b274cd767a586479c,,,,,,,ctch,resources/DB.BMP,resources/DG.BMP,Door4,0.325025961,-0.031671859,1,0,0,1.0327,optionRight,80,5495,3,18,0,18,0,1,,,,,,,,,,,,,,,,,,,,,,,,,,,,,,,,,,,,,,,
,,,,,,,,2023-08-16_08h48.49.804,HF_wild_card,2022.2.4,Win32,18.00115207,5baa5c962eb8020001f1ed3a,64d2fd46c836a06233681665,64dc7f4b274cd767a586479c,,,,,,,ctch,resources/DB.BMP,resources/DG.BMP,Door4,0.334371755,-0.011941848,1,0,0,0.8045,optionRight,80,5575,3,19,0,19,0,1,,,,,,,,,,,,,,,,,,,,,,,,,,,,,,,,,,,,,,,
,,,,,,,,2023-08-16_08h48.49.804,HF_wild_card,2022.2.4,Win32,18.00115207,5baa5c962eb8020001f1ed3a,64d2fd46c836a06233681665,64dc7f4b274cd767a586479c,,,,,,,decisionTrl,resources/DBN.BMP,resources/DB.BMP,Door1,0.284527518,-0.017133956,1,0,0,1.2732,optionRight,30,5605,3,20,0,20,0,1,,,,,,,,,,,,,,,,,,,,,,,,,,,,,,,,,,,,,,,
,,,,,,,,2023-08-16_08h48.49.804,HF_wild_card,2022.2.4,Win32,18.00115207,5baa5c962eb8020001f1ed3a,64d2fd46c836a06233681665,64dc7f4b274cd767a586479c,,,,,,,ctch,resources/DP.BMP,resources/DBN.BMP,Door3,-0.308411215,-0.049325026,1,0,0,0.7656,optionLeft,70,5675,3,21,0,21,0,1,,,,,,,,,,,,,,,,,,,,,,,,,,,,,,,,,,,,,,,
,,,,,,,,2023-08-16_08h48.49.804,HF_wild_card,2022.2.4,Win32,18.00115207,5baa5c962eb8020001f1ed3a,64d2fd46c836a06233681665,64dc7f4b274cd767a586479c,,,,,,,decisionTrl,resources/DB.BMP,resources/DBN.BMP,Door1,-0.329179647,-0.056593977,1,0,0,0.7014,optionLeft,30,5705,3,22,0,22,0,1,,,,,,,,,,,,,,,,,,,,,,,,,,,,,,,,,,,,,,,
,,,,,,,,2023-08-16_08h48.49.804,HF_wild_card,2022.2.4,Win32,18.00115207,5baa5c962eb8020001f1ed3a,64d2fd46c836a06233681665,64dc7f4b274cd767a586479c,,,,,,,decisionTrl,resources/DY.BMP,resources/DBN.BMP,WildCard_NonEx,-0.309449637,-0.056593977,1,0,0,0.5822,optionLeft,55,5760,3,23,0,23,0,1,,,,,,,,,,,,,,,,,,,,,,,,,,,,,,,,,,,,,,,
,,,,,,,,2023-08-16_08h48.49.804,HF_wild_card,2022.2.4,Win32,18.00115207,5baa5c962eb8020001f1ed3a,64d2fd46c836a06233681665,64dc7f4b274cd767a586479c,,,,,,,decisionTrl,resources/DBN.BMP,resources/DY.BMP,WildCard_NonEx,0.310488058,-0.031671859,1,0,0,0.636,optionRight,55,5815,3,24,0,24,0,1,,,,,,,,,,,,,,,,,,,,,,,,,,,,,,,,,,,,,,,
,,,,,,,,2023-08-16_08h48.49.804,HF_wild_card,2022.2.4,Win32,18.00115207,5baa5c962eb8020001f1ed3a,64d2fd46c836a06233681665,64dc7f4b274cd767a586479c,,,,,,,sngl,resources/DB.BMP,resources/Empty.png,Door1,-0.335410177,-0.061786085,1,0,0,0.5948,optionLeft,30,5845,3,25,0,25,0,1,,,,,,,,,,,,,,,,,,,,,,,,,,,,,,,,,,,,,,,
,,,,,,,,2023-08-16_08h48.49.804,HF_wild_card,2022.2.4,Win32,18.00115207,5baa5c962eb8020001f1ed3a,64d2fd46c836a06233681665,64dc7f4b274cd767a586479c,,,,,,,decisionTrl,resources/DBN.BMP,resources/DB.BMP,Door1,0.42886812,-0.069055036,1,0,0,16.0316,optionRight,30,5875,3,26,0,26,0,1,,,,,,,,,,,,,,,,,,,,,,,,,,,,,,,,,,,,,,,
,,,,,,,,2023-08-16_08h48.49.804,HF_wild_card,2022.2.4,Win32,18.00115207,5baa5c962eb8020001f1ed3a,64d2fd46c836a06233681665,64dc7f4b274cd767a586479c,,,,,,,sngl,resources/Empty.png,resources/DY.BMP,WildCard_NonEx,0.314641745,-0.025441329,1,0,0,0.5462,optionRight,55,5930,3,27,0,27,0,1,,,,,,,,,,,,,,,,,,,,,,,,,,,,,,,,,,,,,,,
,,,,,,,,2023-08-16_08h48.49.804,HF_wild_card,2022.2.4,Win32,18.00115207,5baa5c962eb8020001f1ed3a,64d2fd46c836a06233681665,64dc7f4b274cd767a586479c,,,,,,,decisionTrl,resources/DG.BMP,resources/DP.BMP,Door3,0.309449637,-0.03271028,1,0,0,0.6419,optionRight,70,6000,3,28,0,28,0,1,,,,,,,,,,,,,,,,,,,,,,,,,,,,,,,,,,,,,,,
,,,,,,,,2023-08-16_08h48.49.804,HF_wild_card,2022.2.4,Win32,18.00115207,5baa5c962eb8020001f1ed3a,64d2fd46c836a06233681665,64dc7f4b274cd767a586479c,,,,,,,ctch,resources/DBN.BMP,resources/DP.BMP,Door3,0.307372793,0.001557632,1,0,0,0.539,optionRight,70,6070,3,29,0,29,0,1,,,,,,,,,,,,,,,,,,,,,,,,,,,,,,,,,,,,,,,
,,,,,,,,2023-08-16_08h48.49.804,HF_wild_card,2022.2.4,Win32,18.00115207,5baa5c962eb8020001f1ed3a,64d2fd46c836a06233681665,64dc7f4b274cd767a586479c,,,,,,,decisionTrl,resources/DP.BMP,resources/DY.BMP,Door3,-0.282450675,-0.085669782,1,0,0,0.637,optionLeft,70,6140,3,30,0,30,0,1,,,,,,,,,,,,,,,,,,,,,,,,,,,,,,,,,,,,,,,
,,,,,,,,2023-08-16_08h48.49.804,HF_wild_card,2022.2.4,Win32,18.00115207,5baa5c962eb8020001f1ed3a,64d2fd46c836a06233681665,64dc7f4b274cd767a586479c,,,,,,,ctch,resources/DG.BMP,resources/DB.BMP,Door1,0.300103842,-0.0192108,1,0,0,0.7785,optionRight,30,6170,3,31,0,31,0,1,,,,,,,,,,,,,,,,,,,,,,,,,,,,,,,,,,,,,,,
,,,,,,,,2023-08-16_08h48.49.804,HF_wild_card,2022.2.4,Win32,18.00115207,5baa5c962eb8020001f1ed3a,64d2fd46c836a06233681665,64dc7f4b274cd767a586479c,,,,,,,decisionTrl,resources/DP.BMP,resources/DG.BMP,Door4,0.278296989,-0.01298027,1,0,0,0.6715,optionRight,60,6230,3,32,0,32,0,1,,,,,,,,,,,,,,,,,,,,,,,,,,,,,,,,,,,,,,,
,,,,,,,,2023-08-16_08h48.49.804,HF_wild_card,2022.2.4,Win32,18.00115207,5baa5c962eb8020001f1ed3a,64d2fd46c836a06233681665,64dc7f4b274cd767a586479c,,,,,,,decisionTrl,resources/DB.BMP,resources/DBN.BMP,Door1,-0.380062305,-0.053478712,1,0,0,0.7649,optionLeft,30,6260,3,33,0,33,0,1,,,,,,,,,,,,,,,,,,,,,,,,,,,,,,,,,,,,,,,
,,,,,,,,2023-08-16_08h48.49.804,HF_wild_card,2022.2.4,Win32,18.00115207,5baa5c962eb8020001f1ed3a,64d2fd46c836a06233681665,64dc7f4b274cd767a586479c,,,,,,,sngl,resources/DY.BMP,resources/Empty.png,WildCard_NonEx,-0.358255452,-0.005711319,1,0,0,0.6408,optionLeft,55,6315,3,34,0,34,0,1,,,,,,,,,,,,,,,,,,,,,,,,,,,,,,,,,,,,,,,
,,,,,,,,2023-08-16_08h48.49.804,HF_wild_card,2022.2.4,Win32,18.00115207,5baa5c962eb8020001f1ed3a,64d2fd46c836a06233681665,64dc7f4b274cd767a586479c,,,,,,,decisionTrl,resources/DP.BMP,resources/DG.BMP,Door3,-0.272066459,-0.052440291,1,0,0,0.8349,optionLeft,70,6385,3,35,0,35,0,1,,,,,,,,,,,,,,,,,,,,,,,,,,,,,,,,,,,,,,,
,,,,,,,,2023-08-16_08h48.49.804,HF_wild_card,2022.2.4,Win32,18.00115207,5baa5c962eb8020001f1ed3a,64d2fd46c836a06233681665,64dc7f4b274cd767a586479c,,,,,,,sngl,resources/Empty.png,resources/DB.BMP,Door1,0.250259605,-0.016095535,1,0,0,0.574,optionRight,30,6415,3,36,0,36,0,1,,,,,,,,,,,,,,,,,,,,,,,,,,,,,,,,,,,,,,,
,,,,,,,,2023-08-16_08h48.49.804,HF_wild_card,2022.2.4,Win32,18.00115207,5baa5c962eb8020001f1ed3a,64d2fd46c836a06233681665,64dc7f4b274cd767a586479c,,,,,,,decisionTrl,resources/DY.BMP,resources/DP.BMP,Door3,0.308411215,-0.034787124,1,0,0,1.0189,optionRight,70,6485,3,37,0,37,0,1,,,,,,,,,,,,,,,,,,,,,,,,,,,,,,,,,,,,,,,
,,,,,,,,2023-08-16_08h48.49.804,HF_wild_card,2022.2.4,Win32,18.00115207,5baa5c962eb8020001f1ed3a,64d2fd46c836a06233681665,64dc7f4b274cd767a586479c,,,,,,,decisionTrl,resources/DG.BMP,resources/DP.BMP,Door3,0.502596054,0.00674974,1,0,0,0.7381,optionRight,70,6555,3,38,0,38,0,1,,,,,,,,,,,,,,,,,,,,,,,,,,,,,,,,,,,,,,,
,,,,,,,,2023-08-16_08h48.49.804,HF_wild_card,2022.2.4,Win32,18.00115207,5baa5c962eb8020001f1ed3a,64d2fd46c836a06233681665,64dc7f4b274cd767a586479c,,,,,,,decisionTrl,resources/DG.BMP,resources/DP.BMP,Door4,-0.316718588,0.030633437,1,0,0,0.5824,optionLeft,80,6635,3,39,0,39,0,1,,,,,,,,,,,,,,,,,,,,,,,,,,,,,,,,,,,,,,,
,,,,,,,,2023-08-16_08h48.49.804,HF_wild_card,2022.2.4,Win32,18.00115207,5baa5c962eb8020001f1ed3a,64d2fd46c836a06233681665,64dc7f4b274cd767a586479c,,,,,,,decisionTrl,resources/DY.BMP,resources/DB.BMP,Door1,0.287642783,-0.015057113,1,0,0,0.8871,optionRight,30,6665,3,40,0,40,0,1,,,,,,,,,,,,,,,,,,,,,,,,,,,,,,,,,,,,,,,
,,,,,,,,2023-08-16_08h48.49.804,HF_wild_card,2022.2.4,Win32,18.00115207,5baa5c962eb8020001f1ed3a,64d2fd46c836a06233681665,64dc7f4b274cd767a586479c,,,,,,,ctch,resources/DBN.BMP,resources/DP.BMP,Door3,0,-0.00674974,1,0,0,0.1455,optionRight,70,6735,3,41,0,41,0,1,,,,,,,,,,,,,,,,,,,,,,,,,,,,,,,,,,,,,,,
,,,,,,,,2023-08-16_08h48.49.804,HF_wild_card,2022.2.4,Win32,18.00115207,5baa5c962eb8020001f1ed3a,64d2fd46c836a06233681665,64dc7f4b274cd767a586479c,,,,,,,ctch,resources/DG.BMP,resources/DB.BMP,Door1,0.303219107,-0.035825545,1,0,0,0.619,optionRight,30,6765,3,42,0,42,0,1,,,,,,,,,,,,,,,,,,,,,,,,,,,,,,,,,,,,,,,
,,,,,,,,2023-08-16_08h48.49.804,HF_wild_card,2022.2.4,Win32,18.00115207,5baa5c962eb8020001f1ed3a,64d2fd46c836a06233681665,64dc7f4b274cd767a586479c,,,,,,,decisionTrl,resources/DP.BMP,resources/DG.BMP,Door3,-0.20768432,-0.03894081,1,0,0,0.6855,optionLeft,70,6835,3,43,0,43,0,1,,,,,,,,,,,,,,,,,,,,,,,,,,,,,,,,,,,,,,,
,,,,,,,,2023-08-16_08h48.49.804,HF_wild_card,2022.2.4,Win32,18.00115207,5baa5c962eb8020001f1ed3a,64d2fd46c836a06233681665,64dc7f4b274cd767a586479c,,,,,,,,,,,,,,,,,,,,,,,,,,2,0,2,0,1,,,,,,,,,,,,,,,,,,,,,,,,,,,,,,,,,,
,,,,,,,,2023-08-16_08h48.49.804,HF_wild_card,2022.2.4,Win32,18.00115207,5baa5c962eb8020001f1ed3a,64d2fd46c836a06233681665,64dc7f4b274cd767a586479c,,,,,,,sngl,resources/Empty.png,resources/DG.BMP,Door4,0.269989616,-0.075285566,1,0,0,0.6728,optionRight,80,6915,4,0,0,0,0,1,,,,,,,,,,,,,,,,,,,,,,,,,,,,,,,,,,,,,,,
,,,,,,,,2023-08-16_08h48.49.804,HF_wild_card,2022.2.4,Win32,18.00115207,5baa5c962eb8020001f1ed3a,64d2fd46c836a06233681665,64dc7f4b274cd767a586479c,,,,,,,ctch,resources/DB.BMP,resources/DG.BMP,Door4,0.247144341,-0.09086189,1,0,0,0.6252,optionRight,80,6995,4,1,0,1,0,1,,,,,,,,,,,,,,,,,,,,,,,,,,,,,,,,,,,,,,,
,,,,,,,,2023-08-16_08h48.49.804,HF_wild_card,2022.2.4,Win32,18.00115207,5baa5c962eb8020001f1ed3a,64d2fd46c836a06233681665,64dc7f4b274cd767a586479c,,,,,,,decisionTrl,resources/DP.BMP,resources/DG.BMP,Door4,0.315680166,-0.022326064,1,0,0,0.5561,optionRight,60,7055,4,2,0,2,0,1,,,,,,,,,,,,,,,,,,,,,,,,,,,,,,,,,,,,,,,
,,,,,,,,2023-08-16_08h48.49.804,HF_wild_card,2022.2.4,Win32,18.00115207,5baa5c962eb8020001f1ed3a,64d2fd46c836a06233681665,64dc7f4b274cd767a586479c,,,,,,,decisionTrl,resources/DP.BMP,resources/DR.BMP,Door3,-0.269989616,-0.083592939,1,0,0,0.6847,optionLeft,70,7125,4,3,0,3,0,1,,,,,,,,,,,,,,,,,,,,,,,,,,,,,,,,,,,,,,,
,,,,,,,,2023-08-16_08h48.49.804,HF_wild_card,2022.2.4,Win32,18.00115207,5baa5c962eb8020001f1ed3a,64d2fd46c836a06233681665,64dc7f4b274cd767a586479c,,,,,,,decisionTrl,resources/DBN.BMP,resources/DB.BMP,Door1,0.365524403,-0.003634476,1,0,0,0.8626,optionRight,30,7155,4,4,0,4,0,1,,,,,,,,,,,,,,,,,,,,,,,,,,,,,,,,,,,,,,,
,,,,,,,,2023-08-16_08h48.49.804,HF_wild_card,2022.2.4,Win32,18.00115207,5baa5c962eb8020001f1ed3a,64d2fd46c836a06233681665,64dc7f4b274cd767a586479c,,,,,,,ctch,resources/DG.BMP,resources/DB.BMP,Door1,0.315680166,-0.025441329,1,0,0,0.5095,optionRight,30,7185,4,5,0,5,0,1,,,,,,,,,,,,,,,,,,,,,,,,,,,,,,,,,,,,,,,
,,,,,,,,2023-08-16_08h48.49.804,HF_wild_card,2022.2.4,Win32,18.00115207,5baa5c962eb8020001f1ed3a,64d2fd46c836a06233681665,64dc7f4b274cd767a586479c,,,,,,,sngl,resources/DR.BMP,resources/Empty.png,WildCard_Ex,-0.301142264,-0.050363448,1,0,0,0.4312,optionLeft,95,7280,4,6,0,6,0,1,,,,,,,,,,,,,,,,,,,,,,,,,,,,,,,,,,,,,,,
,,,,,,,,2023-08-16_08h48.49.804,HF_wild_card,2022.2.4,Win32,18.00115207,5baa5c962eb8020001f1ed3a,64d2fd46c836a06233681665,64dc7f4b274cd767a586479c,,,,,,,sngl,resources/Empty.png,resources/DR.BMP,WildCard_Ex,0.265835929,0.018172378,1,0,0,0.5212,optionRight,5,7285,4,7,0,7,0,1,,,,,,,,,,,,,,,,,,,,,,,,,,,,,,,,,,,,,,,
,,,,,,,,2023-08-16_08h48.49.804,HF_wild_card,2022.2.4,Win32,18.00115207,5baa5c962eb8020001f1ed3a,64d2fd46c836a06233681665,64dc7f4b274cd767a586479c,,,,,,,sngl,resources/DB.BMP,resources/Empty.png,Door1,-0.304257529,-0.025441329,1,0,0,0.5841,optionLeft,30,7315,4,8,0,8,0,1,,,,,,,,,,,,,,,,,,,,,,,,,,,,,,,,,,,,,,,
,,,,,,,,2023-08-16_08h48.49.804,HF_wild_card,2022.2.4,Win32,18.00115207,5baa5c962eb8020001f1ed3a,64d2fd46c836a06233681665,64dc7f4b274cd767a586479c,,,,,,,decisionTrl,resources/DG.BMP,resources/DP.BMP,Door3,0.356178609,-0.003634476,1,0,0,0.6644,optionRight,70,7385,4,9,0,9,0,1,,,,,,,,,,,,,,,,,,,,,,,,,,,,,,,,,,,,,,,
,,,,,,,,2023-08-16_08h48.49.804,HF_wild_card,2022.2.4,Win32,18.00115207,5baa5c962eb8020001f1ed3a,64d2fd46c836a06233681665,64dc7f4b274cd767a586479c,,,,,,,decisionTrl,resources/DR.BMP,resources/DBN.BMP,WildCard_Ex,-0.302180685,-0.047248183,1,0,0,0.532,optionLeft,5,7390,4,10,0,10,0,1,,,,,,,,,,,,,,,,,,,,,,,,,,,,,,,,,,,,,,,
,,,,,,,,2023-08-16_08h48.49.804,HF_wild_card,2022.2.4,Win32,18.00115207,5baa5c962eb8020001f1ed3a,64d2fd46c836a06233681665,64dc7f4b274cd767a586479c,,,,,,,decisionTrl,resources/DG.BMP,resources/DR.BMP,WildCard_Ex,0.31152648,0.000519211,1,0,0,0.4898,optionRight,5,7395,4,11,0,11,0,1,,,,,,,,,,,,,,,,,,,,,,,,,,,,,,,,,,,,,,,
,,,,,,,,2023-08-16_08h48.49.804,HF_wild_card,2022.2.4,Win32,18.00115207,5baa5c962eb8020001f1ed3a,64d2fd46c836a06233681665,64dc7f4b274cd767a586479c,,,,,,,ctch,resources/DP.BMP,resources/DBN.BMP,Door3,-0.310488058,-0.057632399,1,0,0,0.62,optionLeft,70,7465,4,12,0,12,0,1,,,,,,,,,,,,,,,,,,,,,,,,,,,,,,,,,,,,,,,
,,,,,,,,2023-08-16_08h48.49.804,HF_wild_card,2022.2.4,Win32,18.00115207,5baa5c962eb8020001f1ed3a,64d2fd46c836a06233681665,64dc7f4b274cd767a586479c,,,,,,,decisionTrl,resources/DP.BMP,resources/DG.BMP,Door3,-0.349948079,-0.093977155,1,0,0,0.6203,optionLeft,70,7535,4,13,0,13,0,1,,,,,,,,,,,,,,,,,,,,,,,,,,,,,,,,,,,,,,,
,,,,,,,,2023-08-16_08h48.49.804,HF_wild_card,2022.2.4,Win32,18.00115207,5baa5c962eb8020001f1ed3a,64d2fd46c836a06233681665,64dc7f4b274cd767a586479c,,,,,,,decisionTrl,resources/DB.BMP,resources/DBN.BMP,Door1,-0.41536864,0.000519211,1,0,0,1.165,optionLeft,30,7565,4,14,0,14,0,1,,,,,,,,,,,,,,,,,,,,,,,,,,,,,,,,,,,,,,,
,,,,,,,,2023-08-16_08h48.49.804,HF_wild_card,2022.2.4,Win32,18.00115207,5baa5c962eb8020001f1ed3a,64d2fd46c836a06233681665,64dc7f4b274cd767a586479c,,,,,,,decisionTrl,resources/DG.BMP,resources/DP.BMP,Door3,0.314641745,0.017133956,1,0,0,0.8304,optionRight,70,7635,4,15,0,15,0,1,,,,,,,,,,,,,,,,,,,,,,,,,,,,,,,,,,,,,,,
,,,,,,,,2023-08-16_08h48.49.804,HF_wild_card,2022.2.4,Win32,18.00115207,5baa5c962eb8020001f1ed3a,64d2fd46c836a06233681665,64dc7f4b274cd767a586479c,,,,,,,ctch,resources/DBN.BMP,resources/DP.BMP,Door3,0.290758048,-0.017133956,1,0,0,0.8182,optionRight,70,7705,4,16,0,16,0,1,,,,,,,,,,,,,,,,,,,,,,,,,,,,,,,,,,,,,,,
,,,,,,,,2023-08-16_08h48.49.804,HF_wild_card,2022.2.4,Win32,18.00115207,5baa5c962eb8020001f1ed3a,64d2fd46c836a06233681665,64dc7f4b274cd767a586479c,,,,,,,sngl,resources/DP.BMP,resources/Empty.png,Door3,-0.374870197,-0.05867082,1,0,0,0.5812,optionLeft,70,7775,4,17,0,17,0,1,,,,,,,,,,,,,,,,,,,,,,,,,,,,,,,,,,,,,,,
,,,,,,,,2023-08-16_08h48.49.804,HF_wild_card,2022.2.4,Win32,18.00115207,5baa5c962eb8020001f1ed3a,64d2fd46c836a06233681665,64dc7f4b274cd767a586479c,,,,,,,ctch,resources/DB.BMP,resources/DG.BMP,Door4,0.268951194,-0.003634476,1,0,0,0.6882,optionRight,60,7835,4,18,0,18,0,1,,,,,,,,,,,,,,,,,,,,,,,,,,,,,,,,,,,,,,,
,,,,,,,,2023-08-16_08h48.49.804,HF_wild_card,2022.2.4,Win32,18.00115207,5baa5c962eb8020001f1ed3a,64d2fd46c836a06233681665,64dc7f4b274cd767a586479c,,,,,,,sngl,resources/DR.BMP,resources/Empty.png,WildCard_Ex,0.365524403,0.005711319,1,0,0,0.9831,optionLeft,5,7840,4,19,0,19,0,1,,,,,,,,,,,,,,,,,,,,,,,,,,,,,,,,,,,,,,,
,,,,,,,,2023-08-16_08h48.49.804,HF_wild_card,2022.2.4,Win32,18.00115207,5baa5c962eb8020001f1ed3a,64d2fd46c836a06233681665,64dc7f4b274cd767a586479c,,,,,,,ctch,resources/DBN.BMP,resources/DP.BMP,Door3,0.268951194,-0.034787124,1,0,0,0.6566,optionRight,70,7910,4,20,0,20,0,1,,,,,,,,,,,,,,,,,,,,,,,,,,,,,,,,,,,,,,,
,,,,,,,,2023-08-16_08h48.49.804,HF_wild_card,2022.2.4,Win32,18.00115207,5baa5c962eb8020001f1ed3a,64d2fd46c836a06233681665,64dc7f4b274cd767a586479c,,,,,,,sngl,resources/Empty.png,resources/DBN.BMP,Door2,0.25337487,-0.007788162,1,0,0,1.1652,optionRight,40,7950,4,21,0,21,0,1,,,,,,,,,,,,,,,,,,,,,,,,,,,,,,,,,,,,,,,
,,,,,,,,2023-08-16_08h48.49.804,HF_wild_card,2022.2.4,Win32,18.00115207,5baa5c962eb8020001f1ed3a,64d2fd46c836a06233681665,64dc7f4b274cd767a586479c,,,,,,,decisionTrl,resources/DBN.BMP,resources/DB.BMP,Door2,-0.257528557,-0.051401869,1,0,0,1.1408,optionLeft,40,7990,4,22,0,22,0,1,,,,,,,,,,,,,,,,,,,,,,,,,,,,,,,,,,,,,,,
,,,,,,,,2023-08-16_08h48.49.804,HF_wild_card,2022.2.4,Win32,18.00115207,5baa5c962eb8020001f1ed3a,64d2fd46c836a06233681665,64dc7f4b274cd767a586479c,,,,,,,decisionTrl,resources/DG.BMP,resources/DP.BMP,Door3,0.31152648,-0.03271028,1,0,0,1.3419,optionRight,70,8060,4,23,0,23,0,1,,,,,,,,,,,,,,,,,,,,,,,,,,,,,,,,,,,,,,,
,,,,,,,,2023-08-16_08h48.49.804,HF_wild_card,2022.2.4,Win32,18.00115207,5baa5c962eb8020001f1ed3a,64d2fd46c836a06233681665,64dc7f4b274cd767a586479c,,,,,,,ctch,resources/DP.BMP,resources/DBN.BMP,Door3,-0.282450675,-0.031671859,1,0,0,0.8824,optionLeft,70,8130,4,24,0,24,0,1,,,,,,,,,,,,,,,,,,,,,,,,,,,,,,,,,,,,,,,
,,,,,,,,2023-08-16_08h48.49.804,HF_wild_card,2022.2.4,Win32,18.00115207,5baa5c962eb8020001f1ed3a,64d2fd46c836a06233681665,64dc7f4b274cd767a586479c,,,,,,,decisionTrl,resources/DR.BMP,resources/DB.BMP,Door1,0.252336449,-0.031671859,1,0,0,0.8933,optionRight,30,8160,4,25,0,25,0,1,,,,,,,,,,,,,,,,,,,,,,,,,,,,,,,,,,,,,,,
,,,,,,,,2023-08-16_08h48.49.804,HF_wild_card,2022.2.4,Win32,18.00115207,5baa5c962eb8020001f1ed3a,64d2fd46c836a06233681665,64dc7f4b274cd767a586479c,,,,,,,decisionTrl,resources/DB.BMP,resources/DBN.BMP,Door1,-0.2596054,-0.08463136,1,0,0,0.8225,optionLeft,30,8190,4,26,0,26,0,1,,,,,,,,,,,,,,,,,,,,,,,,,,,,,,,,,,,,,,,
,,,,,,,,2023-08-16_08h48.49.804,HF_wild_card,2022.2.4,Win32,18.00115207,5baa5c962eb8020001f1ed3a,64d2fd46c836a06233681665,64dc7f4b274cd767a586479c,,,,,,,decisionTrl,resources/DB.BMP,resources/DBN.BMP,Door1,-0.312564901,-0.028556594,1,0,0,0.5902,optionLeft,30,8220,4,27,0,27,0,1,,,,,,,,,,,,,,,,,,,,,,,,,,,,,,,,,,,,,,,
,,,,,,,,2023-08-16_08h48.49.804,HF_wild_card,2022.2.4,Win32,18.00115207,5baa5c962eb8020001f1ed3a,64d2fd46c836a06233681665,64dc7f4b274cd767a586479c,,,,,,,decisionTrl,resources/DG.BMP,resources/DP.BMP,Door3,0.257528557,-0.09086189,1,0,0,0.774,optionRight,70,8290,4,28,0,28,0,1,,,,,,,,,,,,,,,,,,,,,,,,,,,,,,,,,,,,,,,
,,,,,,,,2023-08-16_08h48.49.804,HF_wild_card,2022.2.4,Win32,18.00115207,5baa5c962eb8020001f1ed3a,64d2fd46c836a06233681665,64dc7f4b274cd767a586479c,,,,,,,decisionTrl,resources/DB.BMP,resources/DBN.BMP,Door1,-0.319833853,-0.041017653,1,0,0,0.6158,optionLeft,30,8320,4,29,0,29,0,1,,,,,,,,,,,,,,,,,,,,,,,,,,,,,,,,,,,,,,,
,,,,,,,,2023-08-16_08h48.49.804,HF_wild_card,2022.2.4,Win32,18.00115207,5baa5c962eb8020001f1ed3a,64d2fd46c836a06233681665,64dc7f4b274cd767a586479c,,,,,,,sngl,resources/Empty.png,resources/DB.BMP,Door1,0.172377985,-0.050363448,1,0,0,1.2464,optionRight,30,8350,4,30,0,30,0,1,,,,,,,,,,,,,,,,,,,,,,,,,,,,,,,,,,,,,,,
,,,,,,,,2023-08-16_08h48.49.804,HF_wild_card,2022.2.4,Win32,18.00115207,5baa5c962eb8020001f1ed3a,64d2fd46c836a06233681665,64dc7f4b274cd767a586479c,,,,,,,decisionTrl,resources/DR.BMP,resources/DG.BMP,Door4,0.312564901,-0.03271028,1,0,0,0.9578,optionRight,80,8430,4,31,0,31,0,1,,,,,,,,,,,,,,,,,,,,,,,,,,,,,,,,,,,,,,,
,,,,,,,,2023-08-16_08h48.49.804,HF_wild_card,2022.2.4,Win32,18.00115207,5baa5c962eb8020001f1ed3a,64d2fd46c836a06233681665,64dc7f4b274cd767a586479c,,,,,,,sngl,resources/Empty.png,resources/DP.BMP,Door3,0.309449637,-0.031671859,1,0,0,0.7799,optionRight,70,8500,4,32,0,32,0,1,,,,,,,,,,,,,,,,,,,,,,,,,,,,,,,,,,,,,,,
,,,,,,,,2023-08-16_08h48.49.804,HF_wild_card,2022.2.4,Win32,18.00115207,5baa5c962eb8020001f1ed3a,64d2fd46c836a06233681665,64dc7f4b274cd767a586479c,,,,,,,decisionTrl,resources/DBN.BMP,resources/DR.BMP,Door2,-0.303219107,-0.026479751,1,0,0,0.8549,optionLeft,20,8520,4,33,0,33,0,1,,,,,,,,,,,,,,,,,,,,,,,,,,,,,,,,,,,,,,,
,,,,,,,,2023-08-16_08h48.49.804,HF_wild_card,2022.2.4,Win32,18.00115207,5baa5c962eb8020001f1ed3a,64d2fd46c836a06233681665,64dc7f4b274cd767a586479c,,,,,,,sngl,resources/Empty.png,resources/DR.BMP,WildCard_Ex,0.257528557,-0.021287643,1,0,0,0.5502,optionRight,95,8615,4,34,0,34,0,1,,,,,,,,,,,,,,,,,,,,,,,,,,,,,,,,,,,,,,,
,,,,,,,,2023-08-16_08h48.49.804,HF_wild_card,2022.2.4,Win32,18.00115207,5baa5c962eb8020001f1ed3a,64d2fd46c836a06233681665,64dc7f4b274cd767a586479c,,,,,,,decisionTrl,resources/DR.BMP,resources/DP.BMP,Door3,0.332294912,-0.020249221,1,0,0,1.091,optionRight,70,8685,4,35,0,35,0,1,,,,,,,,,,,,,,,,,,,,,,,,,,,,,,,,,,,,,,,
,,,,,,,,2023-08-16_08h48.49.804,HF_wild_card,2022.2.4,Win32,18.00115207,5baa5c962eb8020001f1ed3a,64d2fd46c836a06233681665,64dc7f4b274cd767a586479c,,,,,,,sngl,resources/DBN.BMP,resources/Empty.png,Door2,-0.23364486,-0.041017653,1,0,0,0.5591,optionLeft,20,8705,4,36,0,36,0,1,,,,,,,,,,,,,,,,,,,,,,,,,,,,,,,,,,,,,,,
,,,,,,,,2023-08-16_08h48.49.804,HF_wild_card,2022.2.4,Win32,18.00115207,5baa5c962eb8020001f1ed3a,64d2fd46c836a06233681665,64dc7f4b274cd767a586479c,,,,,,,decisionTrl,resources/DP.BMP,resources/DG.BMP,Door3,-0.245067497,-0.066978193,1,0,0,0.9629,optionLeft,70,8775,4,37,0,37,0,1,,,,,,,,,,,,,,,,,,,,,,,,,,,,,,,,,,,,,,,
,,,,,,,,2023-08-16_08h48.49.804,HF_wild_card,2022.2.4,Win32,18.00115207,5baa5c962eb8020001f1ed3a,64d2fd46c836a06233681665,64dc7f4b274cd767a586479c,,,,,,,ctch,resources/DG.BMP,resources/DB.BMP,Door1,0.225337487,-0.044132918,1,0,0,0.801,optionRight,30,8805,4,38,0,38,0,1,,,,,,,,,,,,,,,,,,,,,,,,,,,,,,,,,,,,,,,
,,,,,,,,2023-08-16_08h48.49.804,HF_wild_card,2022.2.4,Win32,18.00115207,5baa5c962eb8020001f1ed3a,64d2fd46c836a06233681665,64dc7f4b274cd767a586479c,,,,,,,decisionTrl,resources/DBN.BMP,resources/DB.BMP,Door2,-0.195223261,-0.00674974,1,0,0,0.729,optionLeft,40,8845,4,39,0,39,0,1,,,,,,,,,,,,,,,,,,,,,,,,,,,,,,,,,,,,,,,
,,,,,,,,2023-08-16_08h48.49.804,HF_wild_card,2022.2.4,Win32,18.00115207,5baa5c962eb8020001f1ed3a,64d2fd46c836a06233681665,64dc7f4b274cd767a586479c,,,,,,,decisionTrl,resources/DP.BMP,resources/DG.BMP,Door3,-0.20145379,-0.029595016,1,0,0,0.6427,optionLeft,70,8915,4,40,0,40,0,1,,,,,,,,,,,,,,,,,,,,,,,,,,,,,,,,,,,,,,,
,,,,,,,,2023-08-16_08h48.49.804,HF_wild_card,2022.2.4,Win32,18.00115207,5baa5c962eb8020001f1ed3a,64d2fd46c836a06233681665,64dc7f4b274cd767a586479c,,,,,,,decisionTrl,resources/DB.BMP,resources/DR.BMP,WildCard_Ex,0.237798546,-0.01298027,1,0,0,1.034,optionRight,5,8920,4,41,0,41,0,1,,,,,,,,,,,,,,,,,,,,,,,,,,,,,,,,,,,,,,,
,,,,,,,,2023-08-16_08h48.49.804,HF_wild_card,2022.2.4,Win32,18.00115207,5baa5c962eb8020001f1ed3a,64d2fd46c836a06233681665,64dc7f4b274cd767a586479c,,,,,,,sngl,resources/DG.BMP,resources/Empty.png,Door4,-0.264797508,-0.037902388,1,0,0,0.505,optionLeft,60,8980,4,42,0,42,0,1,,,,,,,,,,,,,,,,,,,,,,,,,,,,,,,,,,,,,,,
,,,,,,,,2023-08-16_08h48.49.804,HF_wild_card,2022.2.4,Win32,18.00115207,5baa5c962eb8020001f1ed3a,64d2fd46c836a06233681665,64dc7f4b274cd767a586479c,,,,,,,decisionTrl,resources/DBN.BMP,resources/DB.BMP,Door2,-0.262720665,-0.050363448,1,0,0,0.6204,optionLeft,20,9000,4,43,0,43,0,1,,,,,,,,,,,,,,,,,,,,,,,,,,,,,,,,,,,,,,,
,,,,,,,,2023-08-16_08h48.49.804,HF_wild_card,2022.2.4,Win32,18.00115207,5baa5c962eb8020001f1ed3a,64d2fd46c836a06233681665,64dc7f4b274cd767a586479c,,,,,,,,,,,,,,,,,,,,,,,,,,3,0,3,0,1,,,,,,,,,,,,,,,,,,,,,,,,,,,,,,,,,,
,,,,,,,,2023-08-16_08h48.49.804,HF_wild_card,2022.2.4,Win32,18.00115207,5baa5c962eb8020001f1ed3a,64d2fd46c836a06233681665,64dc7f4b274cd767a586479c,,,,,,,ctch,resources/DBN.BMP,resources/DP.BMP,Door3,0.230529595,-0.0192108,1,0,0,1.1675,optionRight,70,9070,5,0,0,0,0,1,,,,,,,,,,,,,,,,,,,,,,,,,,,,,,,,,,,,,,,
,,,,,,,,2023-08-16_08h48.49.804,HF_wild_card,2022.2.4,Win32,18.00115207,5baa5c962eb8020001f1ed3a,64d2fd46c836a06233681665,64dc7f4b274cd767a586479c,,,,,,,sngl,resources/Empty.png,resources/DG.BMP,Door4,0.260643821,-0.023364486,1,0,0,0.551,optionRight,60,9130,5,1,0,1,0,1,,,,,,,,,,,,,,,,,,,,,,,,,,,,,,,,,,,,,,,
,,,,,,,,2023-08-16_08h48.49.804,HF_wild_card,2022.2.4,Win32,18.00115207,5baa5c962eb8020001f1ed3a,64d2fd46c836a06233681665,64dc7f4b274cd767a586479c,,,,,,,decisionTrl,resources/DG.BMP,resources/DP.BMP,Door3,0.326064382,-0.030633437,1,0,0,0.4973,optionRight,70,9200,5,2,0,2,0,1,,,,,,,,,,,,,,,,,,,,,,,,,,,,,,,,,,,,,,,
,,,,,,,,2023-08-16_08h48.49.804,HF_wild_card,2022.2.4,Win32,18.00115207,5baa5c962eb8020001f1ed3a,64d2fd46c836a06233681665,64dc7f4b274cd767a586479c,,,,,,,ctch,resources/DBN.BMP,resources/DP.BMP,Door3,0.229491173,-0.050363448,1,0,0,0.4664,optionRight,70,9270,5,3,0,3,0,1,,,,,,,,,,,,,,,,,,,,,,,,,,,,,,,,,,,,,,,
,,,,,,,,2023-08-16_08h48.49.804,HF_wild_card,2022.2.4,Win32,18.00115207,5baa5c962eb8020001f1ed3a,64d2fd46c836a06233681665,64dc7f4b274cd767a586479c,,,,,,,decisionTrl,resources/DR.BMP,resources/DG.BMP,Door4,0.28556594,-0.028556594,1,0,0,0.4,optionRight,60,9330,5,4,0,4,0,1,,,,,,,,,,,,,,,,,,,,,,,,,,,,,,,,,,,,,,,
,,,,,,,,2023-08-16_08h48.49.804,HF_wild_card,2022.2.4,Win32,18.00115207,5baa5c962eb8020001f1ed3a,64d2fd46c836a06233681665,64dc7f4b274cd767a586479c,,,,,,,sngl,resources/Empty.png,resources/DR.BMP,WildCard_Ex,0.190031153,0.005711319,1,0,0,0.5088,optionRight,95,9425,5,5,0,5,0,1,,,,,,,,,,,,,,,,,,,,,,,,,,,,,,,,,,,,,,,
,,,,,,,,2023-08-16_08h48.49.804,HF_wild_card,2022.2.4,Win32,18.00115207,5baa5c962eb8020001f1ed3a,64d2fd46c836a06233681665,64dc7f4b274cd767a586479c,,,,,,,decisionTrl,resources/DP.BMP,resources/DR.BMP,Door3,-0.186915888,-0.03271028,1,0,0,1.2659,optionLeft,70,9495,5,6,0,6,0,1,,,,,,,,,,,,,,,,,,,,,,,,,,,,,,,,,,,,,,,
,,,,,,,,2023-08-16_08h48.49.804,HF_wild_card,2022.2.4,Win32,18.00115207,5baa5c962eb8020001f1ed3a,64d2fd46c836a06233681665,64dc7f4b274cd767a586479c,,,,,,,sngl,resources/Empty.png,resources/DBN.BMP,Door2,0.255451713,-0.007788162,1,0,0,0.5413,optionRight,20,9515,5,7,0,7,0,1,,,,,,,,,,,,,,,,,,,,,,,,,,,,,,,,,,,,,,,
,,,,,,,,2023-08-16_08h48.49.804,HF_wild_card,2022.2.4,Win32,18.00115207,5baa5c962eb8020001f1ed3a,64d2fd46c836a06233681665,64dc7f4b274cd767a586479c,,,,,,,ctch,resources/DB.BMP,resources/DG.BMP,Door1,-0.200415369,-0.017133956,1,0,0,0.3966,optionLeft,30,9545,5,8,0,8,0,1,,,,,,,,,,,,,,,,,,,,,,,,,,,,,,,,,,,,,,,
,,,,,,,,2023-08-16_08h48.49.804,HF_wild_card,2022.2.4,Win32,18.00115207,5baa5c962eb8020001f1ed3a,64d2fd46c836a06233681665,64dc7f4b274cd767a586479c,,,,,,,sngl,resources/DR.BMP,resources/Empty.png,WildCard_Ex,-0.204569055,-0.035825545,1,0,0,0.7025,optionLeft,5,9550,5,9,0,9,0,1,,,,,,,,,,,,,,,,,,,,,,,,,,,,,,,,,,,,,,,
,,,,,,,,2023-08-16_08h48.49.804,HF_wild_card,2022.2.4,Win32,18.00115207,5baa5c962eb8020001f1ed3a,64d2fd46c836a06233681665,64dc7f4b274cd767a586479c,,,,,,,ctch,resources/DP.BMP,resources/DBN.BMP,Door2,0.219106957,-0.044132918,1,0,0,0.6977,optionRight,40,9590,5,10,0,10,0,1,,,,,,,,,,,,,,,,,,,,,,,,,,,,,,,,,,,,,,,
,,,,,,,,2023-08-16_08h48.49.804,HF_wild_card,2022.2.4,Win32,18.00115207,5baa5c962eb8020001f1ed3a,64d2fd46c836a06233681665,64dc7f4b274cd767a586479c,,,,,,,sngl,resources/DP.BMP,resources/Empty.png,Door3,-0.252336449,-0.062824507,1,0,0,0.5495,optionLeft,70,9660,5,11,0,11,0,1,,,,,,,,,,,,,,,,,,,,,,,,,,,,,,,,,,,,,,,
,,,,,,,,2023-08-16_08h48.49.804,HF_wild_card,2022.2.4,Win32,18.00115207,5baa5c962eb8020001f1ed3a,64d2fd46c836a06233681665,64dc7f4b274cd767a586479c,,,,,,,decisionTrl,resources/DP.BMP,resources/DG.BMP,Door3,-0.263759086,-0.04517134,1,0,0,0.622,optionLeft,70,9730,5,12,0,12,0,1,,,,,,,,,,,,,,,,,,,,,,,,,,,,,,,,,,,,,,,
,,,,,,,,2023-08-16_08h48.49.804,HF_wild_card,2022.2.4,Win32,18.00115207,5baa5c962eb8020001f1ed3a,64d2fd46c836a06233681665,64dc7f4b274cd767a586479c,,,,,,,decisionTrl,resources/DR.BMP,resources/DP.BMP,Door3,0.180685358,-0.031671859,1,0,0,0.7644,optionRight,70,9800,5,13,0,13,0,1,,,,,,,,,,,,,,,,,,,,,,,,,,,,,,,,,,,,,,,
,,,,,,,,2023-08-16_08h48.49.804,HF_wild_card,2022.2.4,Win32,18.00115207,5baa5c962eb8020001f1ed3a,64d2fd46c836a06233681665,64dc7f4b274cd767a586479c,,,,,,,decisionTrl,resources/DB.BMP,resources/DBN.BMP,Door1,-0.237798546,-0.022326064,1,0,0,1.0538,optionLeft,30,9830,5,14,0,14,0,1,,,,,,,,,,,,,,,,,,,,,,,,,,,,,,,,,,,,,,,
,,,,,,,,2023-08-16_08h48.49.804,HF_wild_card,2022.2.4,Win32,18.00115207,5baa5c962eb8020001f1ed3a,64d2fd46c836a06233681665,64dc7f4b274cd767a586479c,,,,,,,sngl,resources/DG.BMP,resources/Empty.png,Door4,-0.317757009,-0.173935618,1,0,0,1.3542,optionLeft,80,9910,5,15,0,15,0,1,,,,,,,,,,,,,,,,,,,,,,,,,,,,,,,,,,,,,,,
,,,,,,,,2023-08-16_08h48.49.804,HF_wild_card,2022.2.4,Win32,18.00115207,5baa5c962eb8020001f1ed3a,64d2fd46c836a06233681665,64dc7f4b274cd767a586479c,,,,,,,decisionTrl,resources/DG.BMP,resources/DP.BMP,Door3,0.20768432,0.007788162,1,0,0,0.4947,optionRight,70,9980,5,16,0,16,0,1,,,,,,,,,,,,,,,,,,,,,,,,,,,,,,,,,,,,,,,
,,,,,,,,2023-08-16_08h48.49.804,HF_wild_card,2022.2.4,Win32,18.00115207,5baa5c962eb8020001f1ed3a,64d2fd46c836a06233681665,64dc7f4b274cd767a586479c,,,,,,,decisionTrl,resources/DG.BMP,resources/DP.BMP,Door3,0.247144341,-0.023364486,1,0,0,0.6378,optionRight,70,10050,5,17,0,17,0,1,,,,,,,,,,,,,,,,,,,,,,,,,,,,,,,,,,,,,,,
,,,,,,,,2023-08-16_08h48.49.804,HF_wild_card,2022.2.4,Win32,18.00115207,5baa5c962eb8020001f1ed3a,64d2fd46c836a06233681665,64dc7f4b274cd767a586479c,,,,,,,ctch,resources/DP.BMP,resources/DBN.BMP,Door3,-0.206645898,-0.014018692,1,0,0,0.6851,optionLeft,70,10120,5,18,0,18,0,1,,,,,,,,,,,,,,,,,,,,,,,,,,,,,,,,,,,,,,,
,,,,,,,,2023-08-16_08h48.49.804,HF_wild_card,2022.2.4,Win32,18.00115207,5baa5c962eb8020001f1ed3a,64d2fd46c836a06233681665,64dc7f4b274cd767a586479c,,,,,,,decisionTrl,resources/DB.BMP,resources/DBN.BMP,Door2,0.188992731,-0.014018692,1,0,0,1.0294,optionRight,40,10160,5,19,0,19,0,1,,,,,,,,,,,,,,,,,,,,,,,,,,,,,,,,,,,,,,,
,,,,,,,,2023-08-16_08h48.49.804,HF_wild_card,2022.2.4,Win32,18.00115207,5baa5c962eb8020001f1ed3a,64d2fd46c836a06233681665,64dc7f4b274cd767a586479c,,,,,,,decisionTrl,resources/DP.BMP,resources/DG.BMP,Door3,-0.160955348,-0.025441329,1,0,0,0.4831,optionLeft,70,10230,5,20,0,20,0,1,,,,,,,,,,,,,,,,,,,,,,,,,,,,,,,,,,,,,,,
,,,,,,,,2023-08-16_08h48.49.804,HF_wild_card,2022.2.4,Win32,18.00115207,5baa5c962eb8020001f1ed3a,64d2fd46c836a06233681665,64dc7f4b274cd767a586479c,,,,,,,decisionTrl,resources/DBN.BMP,resources/DR.BMP,WildCard_Ex,0.180685358,-0.020249221,1,0,0,0.5027,optionRight,95,10325,5,21,0,21,0,1,,,,,,,,,,,,,,,,,,,,,,,,,,,,,,,,,,,,,,,
,,,,,,,,2023-08-16_08h48.49.804,HF_wild_card,2022.2.4,Win32,18.00115207,5baa5c962eb8020001f1ed3a,64d2fd46c836a06233681665,64dc7f4b274cd767a586479c,,,,,,,decisionTrl,resources/DG.BMP,resources/DR.BMP,WildCard_Ex,0.194184839,-0.025441329,1,0,0,0.5097,optionRight,5,10330,5,22,0,22,0,1,,,,,,,,,,,,,,,,,,,,,,,,,,,,,,,,,,,,,,,
,,,,,,,,2023-08-16_08h48.49.804,HF_wild_card,2022.2.4,Win32,18.00115207,5baa5c962eb8020001f1ed3a,64d2fd46c836a06233681665,64dc7f4b274cd767a586479c,,,,,,,sngl,resources/DBN.BMP,resources/Empty.png,Door2,-0.158878505,-0.042056075,1,0,0,0.5098,optionLeft,40,10370,5,23,0,23,0,1,,,,,,,,,,,,,,,,,,,,,,,,,,,,,,,,,,,,,,,
,,,,,,,,2023-08-16_08h48.49.804,HF_wild_card,2022.2.4,Win32,18.00115207,5baa5c962eb8020001f1ed3a,64d2fd46c836a06233681665,64dc7f4b274cd767a586479c,,,,,,,decisionTrl,resources/DBN.BMP,resources/DB.BMP,Door1,0.17549325,-0.072170301,1,0,0,0.6407,optionRight,30,10400,5,24,0,24,0,1,,,,,,,,,,,,,,,,,,,,,,,,,,,,,,,,,,,,,,,
,,,,,,,,2023-08-16_08h48.49.804,HF_wild_card,2022.2.4,Win32,18.00115207,5baa5c962eb8020001f1ed3a,64d2fd46c836a06233681665,64dc7f4b274cd767a586479c,,,,,,,decisionTrl,resources/DR.BMP,resources/DBN.BMP,WildCard_Ex,-0.157840083,-0.035825545,1,0,0,0.6014,optionLeft,95,10495,5,25,0,25,0,1,,,,,,,,,,,,,,,,,,,,,,,,,,,,,,,,,,,,,,,
,,,,,,,,2023-08-16_08h48.49.804,HF_wild_card,2022.2.4,Win32,18.00115207,5baa5c962eb8020001f1ed3a,64d2fd46c836a06233681665,64dc7f4b274cd767a586479c,,,,,,,sngl,resources/Empty.png,resources/DB.BMP,Door1,0.229491173,-0.014018692,1,0,0,0.4865,optionRight,30,10525,5,26,0,26,0,1,,,,,,,,,,,,,,,,,,,,,,,,,,,,,,,,,,,,,,,
,,,,,,,,2023-08-16_08h48.49.804,HF_wild_card,2022.2.4,Win32,18.00115207,5baa5c962eb8020001f1ed3a,64d2fd46c836a06233681665,64dc7f4b274cd767a586479c,,,,,,,decisionTrl,resources/DBN.BMP,resources/DB.BMP,Door1,0.217030114,-0.01298027,1,0,0,0.5556,optionRight,30,10555,5,27,0,27,0,1,,,,,,,,,,,,,,,,,,,,,,,,,,,,,,,,,,,,,,,
,,,,,,,,2023-08-16_08h48.49.804,HF_wild_card,2022.2.4,Win32,18.00115207,5baa5c962eb8020001f1ed3a,64d2fd46c836a06233681665,64dc7f4b274cd767a586479c,,,,,,,decisionTrl,resources/DB.BMP,resources/DBN.BMP,Door2,0.157840083,-0.005711319,1,0,0,0.4354,optionRight,20,10575,5,28,0,28,0,1,,,,,,,,,,,,,,,,,,,,,,,,,,,,,,,,,,,,,,,
,,,,,,,,2023-08-16_08h48.49.804,HF_wild_card,2022.2.4,Win32,18.00115207,5baa5c962eb8020001f1ed3a,64d2fd46c836a06233681665,64dc7f4b274cd767a586479c,,,,,,,decisionTrl,resources/DB.BMP,resources/DR.BMP,Door1,-0.314641745,0.03271028,1,0,0,0.4609,optionLeft,30,10605,5,29,0,29,0,1,,,,,,,,,,,,,,,,,,,,,,,,,,,,,,,,,,,,,,,
,,,,,,,,2023-08-16_08h48.49.804,HF_wild_card,2022.2.4,Win32,18.00115207,5baa5c962eb8020001f1ed3a,64d2fd46c836a06233681665,64dc7f4b274cd767a586479c,,,,,,,sngl,resources/DB.BMP,resources/Empty.png,Door1,-0.138110073,0.009865005,1,0,0,0.4795,optionLeft,30,10635,5,30,0,30,0,1,,,,,,,,,,,,,,,,,,,,,,,,,,,,,,,,,,,,,,,
,,,,,,,,2023-08-16_08h48.49.804,HF_wild_card,2022.2.4,Win32,18.00115207,5baa5c962eb8020001f1ed3a,64d2fd46c836a06233681665,64dc7f4b274cd767a586479c,,,,,,,decisionTrl,resources/DP.BMP,resources/DG.BMP,Door4,0.284527518,0.000519211,1,0,0,0.3471,optionRight,60,10695,5,31,0,31,0,1,,,,,,,,,,,,,,,,,,,,,,,,,,,,,,,,,,,,,,,
,,,,,,,,2023-08-16_08h48.49.804,HF_wild_card,2022.2.4,Win32,18.00115207,5baa5c962eb8020001f1ed3a,64d2fd46c836a06233681665,64dc7f4b274cd767a586479c,,,,,,,decisionTrl,resources/DP.BMP,resources/DG.BMP,Door4,0.229491173,-0.015057113,1,0,0,0.5468,optionRight,60,10755,5,32,0,32,0,1,,,,,,,,,,,,,,,,,,,,,,,,,,,,,,,,,,,,,,,
,,,,,,,,2023-08-16_08h48.49.804,HF_wild_card,2022.2.4,Win32,18.00115207,5baa5c962eb8020001f1ed3a,64d2fd46c836a06233681665,64dc7f4b274cd767a586479c,,,,,,,ctch,resources/DB.BMP,resources/DG.BMP,Door4,0.222222222,0.0192108,1,0,0,0.4537,optionRight,60,10815,5,33,0,33,0,1,,,,,,,,,,,,,,,,,,,,,,,,,,,,,,,,,,,,,,,
,,,,,,,,2023-08-16_08h48.49.804,HF_wild_card,2022.2.4,Win32,18.00115207,5baa5c962eb8020001f1ed3a,64d2fd46c836a06233681665,64dc7f4b274cd767a586479c,,,,,,,decisionTrl,resources/DR.BMP,resources/DB.BMP,WildCard_Ex,-0.208722741,0.025441329,1,0,0,1.344,optionLeft,95,10910,5,34,0,34,0,1,,,,,,,,,,,,,,,,,,,,,,,,,,,,,,,,,,,,,,,
,,,,,,,,2023-08-16_08h48.49.804,HF_wild_card,2022.2.4,Win32,18.00115207,5baa5c962eb8020001f1ed3a,64d2fd46c836a06233681665,64dc7f4b274cd767a586479c,,,,,,,sngl,resources/Empty.png,resources/DP.BMP,Door3,0.127725857,0.001557632,1,0,0,0.5314,optionRight,70,10980,5,35,0,35,0,1,,,,,,,,,,,,,,,,,,,,,,,,,,,,,,,,,,,,,,,
,,,,,,,,2023-08-16_08h48.49.804,HF_wild_card,2022.2.4,Win32,18.00115207,5baa5c962eb8020001f1ed3a,64d2fd46c836a06233681665,64dc7f4b274cd767a586479c,,,,,,,sngl,resources/DR.BMP,resources/Empty.png,WildCard_Ex,-0.173416407,-0.007788162,1,0,0,0.4759,optionLeft,95,11075,5,36,0,36,0,1,,,,,,,,,,,,,,,,,,,,,,,,,,,,,,,,,,,,,,,
,,,,,,,,2023-08-16_08h48.49.804,HF_wild_card,2022.2.4,Win32,18.00115207,5baa5c962eb8020001f1ed3a,64d2fd46c836a06233681665,64dc7f4b274cd767a586479c,,,,,,,decisionTrl,resources/DG.BMP,resources/DP.BMP,Door3,0.18172378,0.003634476,1,0,0,0.5215,optionRight,70,11145,5,37,0,37,0,1,,,,,,,,,,,,,,,,,,,,,,,,,,,,,,,,,,,,,,,
,,,,,,,,2023-08-16_08h48.49.804,HF_wild_card,2022.2.4,Win32,18.00115207,5baa5c962eb8020001f1ed3a,64d2fd46c836a06233681665,64dc7f4b274cd767a586479c,,,,,,,ctch,resources/DG.BMP,resources/DB.BMP,Door1,0.131879543,-0.01298027,1,0,0,0.4671,optionRight,30,11175,5,38,0,38,0,1,,,,,,,,,,,,,,,,,,,,,,,,,,,,,,,,,,,,,,,
,,,,,,,,2023-08-16_08h48.49.804,HF_wild_card,2022.2.4,Win32,18.00115207,5baa5c962eb8020001f1ed3a,64d2fd46c836a06233681665,64dc7f4b274cd767a586479c,,,,,,,sngl,resources/Empty.png,resources/DR.BMP,WildCard_Ex,0.20145379,0.022326064,1,0,0,0.5327,optionRight,5,11180,5,39,0,39,0,1,,,,,,,,,,,,,,,,,,,,,,,,,,,,,,,,,,,,,,,
,,,,,,,,2023-08-16_08h48.49.804,HF_wild_card,2022.2.4,Win32,18.00115207,5baa5c962eb8020001f1ed3a,64d2fd46c836a06233681665,64dc7f4b274cd767a586479c,,,,,,,decisionTrl,resources/DBN.BMP,resources/DB.BMP,Door2,-0.260643821,-0.048286604,1,0,0,0.4582,optionLeft,20,11200,5,40,0,40,0,1,,,,,,,,,,,,,,,,,,,,,,,,,,,,,,,,,,,,,,,
,,,,,,,,2023-08-16_08h48.49.804,HF_wild_card,2022.2.4,Win32,18.00115207,5baa5c962eb8020001f1ed3a,64d2fd46c836a06233681665,64dc7f4b274cd767a586479c,,,,,,,ctch,resources/DG.BMP,resources/DB.BMP,Door1,0.244029076,-0.051401869,1,0,0,0.3236,optionRight,30,11230,5,41,0,41,0,1,,,,,,,,,,,,,,,,,,,,,,,,,,,,,,,,,,,,,,,
,,,,,,,,2023-08-16_08h48.49.804,HF_wild_card,2022.2.4,Win32,18.00115207,5baa5c962eb8020001f1ed3a,64d2fd46c836a06233681665,64dc7f4b274cd767a586479c,,,,,,,decisionTrl,resources/DBN.BMP,resources/DB.BMP,Door1,0.186915888,-0.021287643,1,0,0,0.4005,optionRight,30,11260,5,42,0,42,0,1,,,,,,,,,,,,,,,,,,,,,,,,,,,,,,,,,,,,,,,
,,,,,,,,2023-08-16_08h48.49.804,HF_wild_card,2022.2.4,Win32,18.00115207,5baa5c962eb8020001f1ed3a,64d2fd46c836a06233681665,64dc7f4b274cd767a586479c,,,,,,,decisionTrl,resources/DB.BMP,resources/DBN.BMP,Door1,-0.204569055,-0.051401869,1,0,0,0.383,optionLeft,30,11290,5,43,0,43,0,1,,,,,,,,,,,,,,,,,,,,,,,,,,,,,,,,,,,,,,,
,,,,,,,,2023-08-16_08h48.49.804,HF_wild_card,2022.2.4,Win32,18.00115207,5baa5c962eb8020001f1ed3a,64d2fd46c836a06233681665,64dc7f4b274cd767a586479c,,,,,,,,,,,,,,,,,,,,,,,,,,4,0,4,0,1,,,,,,,,,,,,,,,,,,,,,,,,,,,,,,,,,,
,,,,,,,,2023-08-16_08h48.49.804,HF_wild_card,2022.2.4,Win32,18.00115207,5baa5c962eb8020001f1ed3a,64d2fd46c836a06233681665,64dc7f4b274cd767a586479c,,,,,,,ctch,resources/DB.BMP,resources/DG.BMP,Door4,0.176531672,-0.018172378,1,0,0,0.664,optionRight,60,11350,6,0,0,0,0,1,,,,,,,,,,,,,,,,,,,,,,,,,,,,,,,,,,,,,,,
,,,,,,,,2023-08-16_08h48.49.804,HF_wild_card,2022.2.4,Win32,18.00115207,5baa5c962eb8020001f1ed3a,64d2fd46c836a06233681665,64dc7f4b274cd767a586479c,,,,,,,decisionTrl,resources/DP.BMP,resources/DR.BMP,Door3,-0.170301142,-0.027518172,1,0,0,0.3176,optionLeft,70,11420,6,1,0,1,0,1,,,,,,,,,,,,,,,,,,,,,,,,,,,,,,,,,,,,,,,
,,,,,,,,2023-08-16_08h48.49.804,HF_wild_card,2022.2.4,Win32,18.00115207,5baa5c962eb8020001f1ed3a,64d2fd46c836a06233681665,64dc7f4b274cd767a586479c,,,,,,,ctch,resources/DP.BMP,resources/DBN.BMP,Door2,0.289719626,-0.054517134,1,0,0,0.3333,optionRight,20,11440,6,2,0,2,0,1,,,,,,,,,,,,,,,,,,,,,,,,,,,,,,,,,,,,,,,
,,,,,,,,2023-08-16_08h48.49.804,HF_wild_card,2022.2.4,Win32,18.00115207,5baa5c962eb8020001f1ed3a,64d2fd46c836a06233681665,64dc7f4b274cd767a586479c,,,,,,,ctch,resources/DG.BMP,resources/DB.BMP,Door4,-0.20145379,-0.016095535,1,0,0,0.3903,optionLeft,80,11520,6,3,0,3,0,1,,,,,,,,,,,,,,,,,,,,,,,,,,,,,,,,,,,,,,,
,,,,,,,,2023-08-16_08h48.49.804,HF_wild_card,2022.2.4,Win32,18.00115207,5baa5c962eb8020001f1ed3a,64d2fd46c836a06233681665,64dc7f4b274cd767a586479c,,,,,,,sngl,resources/Empty.png,resources/DR.BMP,WildCard_Ex,0.14953271,-0.049325026,1,0,0,0.4734,optionRight,95,11615,6,4,0,4,0,1,,,,,,,,,,,,,,,,,,,,,,,,,,,,,,,,,,,,,,,
,,,,,,,,2023-08-16_08h48.49.804,HF_wild_card,2022.2.4,Win32,18.00115207,5baa5c962eb8020001f1ed3a,64d2fd46c836a06233681665,64dc7f4b274cd767a586479c,,,,,,,decisionTrl,resources/DR.BMP,resources/DG.BMP,WildCard_Ex,-0.291796469,-0.082554517,1,0,0,1.1447,optionLeft,5,11620,6,5,0,5,0,1,,,,,,,,,,,,,,,,,,,,,,,,,,,,,,,,,,,,,,,
,,,,,,,,2023-08-16_08h48.49.804,HF_wild_card,2022.2.4,Win32,18.00115207,5baa5c962eb8020001f1ed3a,64d2fd46c836a06233681665,64dc7f4b274cd767a586479c,,,,,,,sngl,resources/Empty.png,resources/DR.BMP,WildCard_Ex,0.164070613,-0.031671859,1,0,0,0.4863,optionRight,5,11625,6,6,0,6,0,1,,,,,,,,,,,,,,,,,,,,,,,,,,,,,,,,,,,,,,,
,,,,,,,,2023-08-16_08h48.49.804,HF_wild_card,2022.2.4,Win32,18.00115207,5baa5c962eb8020001f1ed3a,64d2fd46c836a06233681665,64dc7f4b274cd767a586479c,,,,,,,sngl,resources/Empty.png,resources/DBN.BMP,Door2,0.266874351,-0.108515057,1,0,0,0.4979,optionRight,40,11665,6,7,0,7,0,1,,,,,,,,,,,,,,,,,,,,,,,,,,,,,,,,,,,,,,,
,,,,,,,,2023-08-16_08h48.49.804,HF_wild_card,2022.2.4,Win32,18.00115207,5baa5c962eb8020001f1ed3a,64d2fd46c836a06233681665,64dc7f4b274cd767a586479c,,,,,,,sngl,resources/DB.BMP,resources/Empty.png,Door1,-0.170301142,0.007788162,1,0,0,0.5484,optionLeft,30,11695,6,8,0,8,0,1,,,,,,,,,,,,,,,,,,,,,,,,,,,,,,,,,,,,,,,
,,,,,,,,2023-08-16_08h48.49.804,HF_wild_card,2022.2.4,Win32,18.00115207,5baa5c962eb8020001f1ed3a,64d2fd46c836a06233681665,64dc7f4b274cd767a586479c,,,,,,,decisionTrl,resources/DBN.BMP,resources/DR.BMP,WildCard_Ex,0.202492212,-0.011941848,1,0,0,0.4964,optionRight,95,11790,6,9,0,9,0,1,,,,,,,,,,,,,,,,,,,,,,,,,,,,,,,,,,,,,,,
,,,,,,,,2023-08-16_08h48.49.804,HF_wild_card,2022.2.4,Win32,18.00115207,5baa5c962eb8020001f1ed3a,64d2fd46c836a06233681665,64dc7f4b274cd767a586479c,,,,,,,sngl,resources/Empty.png,resources/DB.BMP,Door1,0.18172378,-0.008826584,1,0,0,0.5073,optionRight,30,11820,6,10,0,10,0,1,,,,,,,,,,,,,,,,,,,,,,,,,,,,,,,,,,,,,,,
,,,,,,,,2023-08-16_08h48.49.804,HF_wild_card,2022.2.4,Win32,18.00115207,5baa5c962eb8020001f1ed3a,64d2fd46c836a06233681665,64dc7f4b274cd767a586479c,,,,,,,decisionTrl,resources/DBN.BMP,resources/DB.BMP,Door2,-0.208722741,0.000519211,1,0,0,0.6342,optionLeft,40,11860,6,11,0,11,0,1,,,,,,,,,,,,,,,,,,,,,,,,,,,,,,,,,,,,,,,
,,,,,,,,2023-08-16_08h48.49.804,HF_wild_card,2022.2.4,Win32,18.00115207,5baa5c962eb8020001f1ed3a,64d2fd46c836a06233681665,64dc7f4b274cd767a586479c,,,,,,,decisionTrl,resources/DBN.BMP,resources/DB.BMP,Door1,0.226375909,0.004672897,1,0,0,0.2882,optionRight,30,11890,6,12,0,12,0,1,,,,,,,,,,,,,,,,,,,,,,,,,,,,,,,,,,,,,,,
,,,,,,,,2023-08-16_08h48.49.804,HF_wild_card,2022.2.4,Win32,18.00115207,5baa5c962eb8020001f1ed3a,64d2fd46c836a06233681665,64dc7f4b274cd767a586479c,,,,,,,decisionTrl,resources/DBN.BMP,resources/DB.BMP,Door2,-0.122533749,-0.015057113,1,0,0,0.4996,optionLeft,20,11910,6,13,0,13,0,1,,,,,,,,,,,,,,,,,,,,,,,,,,,,,,,,,,,,,,,
,,,,,,,,2023-08-16_08h48.49.804,HF_wild_card,2022.2.4,Win32,18.00115207,5baa5c962eb8020001f1ed3a,64d2fd46c836a06233681665,64dc7f4b274cd767a586479c,,,,,,,ctch,resources/DBN.BMP,resources/DP.BMP,Door3,0.157840083,-0.03271028,1,0,0,1.0684,optionRight,70,11980,6,14,0,14,0,1,,,,,,,,,,,,,,,,,,,,,,,,,,,,,,,,,,,,,,,
,,,,,,,,2023-08-16_08h48.49.804,HF_wild_card,2022.2.4,Win32,18.00115207,5baa5c962eb8020001f1ed3a,64d2fd46c836a06233681665,64dc7f4b274cd767a586479c,,,,,,,decisionTrl,resources/DP.BMP,resources/DG.BMP,Door3,-0.195223261,-0.023364486,1,0,0,1.1689,optionLeft,70,12050,6,15,0,15,0,1,,,,,,,,,,,,,,,,,,,,,,,,,,,,,,,,,,,,,,,
,,,,,,,,2023-08-16_08h48.49.804,HF_wild_card,2022.2.4,Win32,18.00115207,5baa5c962eb8020001f1ed3a,64d2fd46c836a06233681665,64dc7f4b274cd767a586479c,,,,,,,decisionTrl,resources/DG.BMP,resources/DP.BMP,Door3,0.260643821,-0.005711319,1,0,0,0.4758,optionRight,70,12120,6,16,0,16,0,1,,,,,,,,,,,,,,,,,,,,,,,,,,,,,,,,,,,,,,,
,,,,,,,,2023-08-16_08h48.49.804,HF_wild_card,2022.2.4,Win32,18.00115207,5baa5c962eb8020001f1ed3a,64d2fd46c836a06233681665,64dc7f4b274cd767a586479c,,,,,,,decisionTrl,resources/DR.BMP,resources/DBN.BMP,Door2,0.195223261,-0.023364486,1,0,0,0.4918,optionRight,20,12140,6,17,0,17,0,1,,,,,,,,,,,,,,,,,,,,,,,,,,,,,,,,,,,,,,,
,,,,,,,,2023-08-16_08h48.49.804,HF_wild_card,2022.2.4,Win32,18.00115207,5baa5c962eb8020001f1ed3a,64d2fd46c836a06233681665,64dc7f4b274cd767a586479c,,,,,,,decisionTrl,resources/DG.BMP,resources/DR.BMP,Door4,-0.00623053,0.092938733,1,0,0,1.058,optionLeft,80,12220,6,18,0,18,0,1,,,,,,,,,,,,,,,,,,,,,,,,,,,,,,,,,,,,,,,
,,,,,,,,2023-08-16_08h48.49.804,HF_wild_card,2022.2.4,Win32,18.00115207,5baa5c962eb8020001f1ed3a,64d2fd46c836a06233681665,64dc7f4b274cd767a586479c,,,,,,,sngl,resources/Empty.png,resources/DP.BMP,Door3,0.150571132,-0.017133956,1,0,0,0.4393,optionRight,70,12290,6,19,0,19,0,1,,,,,,,,,,,,,,,,,,,,,,,,,,,,,,,,,,,,,,,
,,,,,,,,2023-08-16_08h48.49.804,HF_wild_card,2022.2.4,Win32,18.00115207,5baa5c962eb8020001f1ed3a,64d2fd46c836a06233681665,64dc7f4b274cd767a586479c,,,,,,,decisionTrl,resources/DP.BMP,resources/DG.BMP,Door3,-0.217030114,-0.036863967,1,0,0,0.6292,optionLeft,70,12360,6,20,0,20,0,1,,,,,,,,,,,,,,,,,,,,,,,,,,,,,,,,,,,,,,,
,,,,,,,,2023-08-16_08h48.49.804,HF_wild_card,2022.2.4,Win32,18.00115207,5baa5c962eb8020001f1ed3a,64d2fd46c836a06233681665,64dc7f4b274cd767a586479c,,,,,,,decisionTrl,resources/DG.BMP,resources/DP.BMP,Door3,-0.013499481,0.008826584,1,0,0,0.1596,optionRight,70,12430,6,21,0,21,0,1,,,,,,,,,,,,,,,,,,,,,,,,,,,,,,,,,,,,,,,
,,,,,,,,2023-08-16_08h48.49.804,HF_wild_card,2022.2.4,Win32,18.00115207,5baa5c962eb8020001f1ed3a,64d2fd46c836a06233681665,64dc7f4b274cd767a586479c,,,,,,,decisionTrl,resources/DG.BMP,resources/DP.BMP,Door3,0.194184839,-0.021287643,1,0,0,0.4888,optionRight,70,12500,6,22,0,22,0,1,,,,,,,,,,,,,,,,,,,,,,,,,,,,,,,,,,,,,,,
,,,,,,,,2023-08-16_08h48.49.804,HF_wild_card,2022.2.4,Win32,18.00115207,5baa5c962eb8020001f1ed3a,64d2fd46c836a06233681665,64dc7f4b274cd767a586479c,,,,,,,decisionTrl,resources/DP.BMP,resources/DG.BMP,Door4,0.193146417,-0.03271028,1,0,0,0.5436,optionRight,60,12560,6,23,0,23,0,1,,,,,,,,,,,,,,,,,,,,,,,,,,,,,,,,,,,,,,,
,,,,,,,,2023-08-16_08h48.49.804,HF_wild_card,2022.2.4,Win32,18.00115207,5baa5c962eb8020001f1ed3a,64d2fd46c836a06233681665,64dc7f4b274cd767a586479c,,,,,,,decisionTrl,resources/DB.BMP,resources/DBN.BMP,Door1,-0.254413292,-0.024402908,1,0,0,0.6005,optionLeft,30,12590,6,24,0,24,0,1,,,,,,,,,,,,,,,,,,,,,,,,,,,,,,,,,,,,,,,
,,,,,,,,2023-08-16_08h48.49.804,HF_wild_card,2022.2.4,Win32,18.00115207,5baa5c962eb8020001f1ed3a,64d2fd46c836a06233681665,64dc7f4b274cd767a586479c,,,,,,,sngl,resources/DBN.BMP,resources/Empty.png,Door2,-0.165109034,-0.008826584,1,0,0,0.5011,optionLeft,20,12610,6,25,0,25,0,1,,,,,,,,,,,,,,,,,,,,,,,,,,,,,,,,,,,,,,,
,,,,,,,,2023-08-16_08h48.49.804,HF_wild_card,2022.2.4,Win32,18.00115207,5baa5c962eb8020001f1ed3a,64d2fd46c836a06233681665,64dc7f4b274cd767a586479c,,,,,,,sngl,resources/Empty.png,resources/DG.BMP,Door4,0.17549325,-0.017133956,1,0,0,0.4259,optionRight,80,12690,6,26,0,26,0,1,,,,,,,,,,,,,,,,,,,,,,,,,,,,,,,,,,,,,,,
,,,,,,,,2023-08-16_08h48.49.804,HF_wild_card,2022.2.4,Win32,18.00115207,5baa5c962eb8020001f1ed3a,64d2fd46c836a06233681665,64dc7f4b274cd767a586479c,,,,,,,decisionTrl,resources/DP.BMP,resources/DG.BMP,Door4,0.178608515,-0.023364486,1,0,0,0.4192,optionRight,80,12770,6,27,0,27,0,1,,,,,,,,,,,,,,,,,,,,,,,,,,,,,,,,,,,,,,,
,,,,,,,,2023-08-16_08h48.49.804,HF_wild_card,2022.2.4,Win32,18.00115207,5baa5c962eb8020001f1ed3a,64d2fd46c836a06233681665,64dc7f4b274cd767a586479c,,,,,,,sngl,resources/DG.BMP,resources/Empty.png,Door4,-0.142263759,-0.050363448,1,0,0,0.5133,optionLeft,60,12830,6,28,0,28,0,1,,,,,,,,,,,,,,,,,,,,,,,,,,,,,,,,,,,,,,,
,,,,,,,,2023-08-16_08h48.49.804,HF_wild_card,2022.2.4,Win32,18.00115207,5baa5c962eb8020001f1ed3a,64d2fd46c836a06233681665,64dc7f4b274cd767a586479c,,,,,,,decisionTrl,resources/DG.BMP,resources/DP.BMP,Door4,-0.247144341,-0.054517134,1,0,0,0.6253,optionLeft,80,12910,6,29,0,29,0,1,,,,,,,,,,,,,,,,,,,,,,,,,,,,,,,,,,,,,,,
,,,,,,,,2023-08-16_08h48.49.804,HF_wild_card,2022.2.4,Win32,18.00115207,5baa5c962eb8020001f1ed3a,64d2fd46c836a06233681665,64dc7f4b274cd767a586479c,,,,,,,decisionTrl,resources/DB.BMP,resources/DBN.BMP,Door2,0.234683281,-0.008826584,1,0,0,0.6331,optionRight,40,12950,6,30,0,30,0,1,,,,,,,,,,,,,,,,,,,,,,,,,,,,,,,,,,,,,,,
,,,,,,,,2023-08-16_08h48.49.804,HF_wild_card,2022.2.4,Win32,18.00115207,5baa5c962eb8020001f1ed3a,64d2fd46c836a06233681665,64dc7f4b274cd767a586479c,,,,,,,decisionTrl,resources/DR.BMP,resources/DB.BMP,WildCard_Ex,-0.238836968,-0.028556594,1,0,0,0.4763,optionLeft,5,12955,6,31,0,31,0,1,,,,,,,,,,,,,,,,,,,,,,,,,,,,,,,,,,,,,,,
,,,,,,,,2023-08-16_08h48.49.804,HF_wild_card,2022.2.4,Win32,18.00115207,5baa5c962eb8020001f1ed3a,64d2fd46c836a06233681665,64dc7f4b274cd767a586479c,,,,,,,decisionTrl,resources/DB.BMP,resources/DR.BMP,WildCard_Ex,0.194184839,-0.011941848,1,0,0,0.3376,optionRight,95,13050,6,32,0,32,0,1,,,,,,,,,,,,,,,,,,,,,,,,,,,,,,,,,,,,,,,
,,,,,,,,2023-08-16_08h48.49.804,HF_wild_card,2022.2.4,Win32,18.00115207,5baa5c962eb8020001f1ed3a,64d2fd46c836a06233681665,64dc7f4b274cd767a586479c,,,,,,,sngl,resources/DR.BMP,resources/Empty.png,WildCard_Ex,-0.179646937,-0.049325026,1,0,0,0.4732,optionLeft,95,13145,6,33,0,33,0,1,,,,,,,,,,,,,,,,,,,,,,,,,,,,,,,,,,,,,,,
,,,,,,,,2023-08-16_08h48.49.804,HF_wild_card,2022.2.4,Win32,18.00115207,5baa5c962eb8020001f1ed3a,64d2fd46c836a06233681665,64dc7f4b274cd767a586479c,,,,,,,ctch,resources/DP.BMP,resources/DBN.BMP,Door2,0.301142264,0.007788162,1,0,0,0.5796,optionRight,40,13185,6,34,0,34,0,1,,,,,,,,,,,,,,,,,,,,,,,,,,,,,,,,,,,,,,,
,,,,,,,,2023-08-16_08h48.49.804,HF_wild_card,2022.2.4,Win32,18.00115207,5baa5c962eb8020001f1ed3a,64d2fd46c836a06233681665,64dc7f4b274cd767a586479c,,,,,,,decisionTrl,resources/DB.BMP,resources/DBN.BMP,Door2,0.146417445,-0.029595016,1,0,0,0.5447,optionRight,40,13225,6,35,0,35,0,1,,,,,,,,,,,,,,,,,,,,,,,,,,,,,,,,,,,,,,,
,,,,,,,,2023-08-16_08h48.49.804,HF_wild_card,2022.2.4,Win32,18.00115207,5baa5c962eb8020001f1ed3a,64d2fd46c836a06233681665,64dc7f4b274cd767a586479c,,,,,,,ctch,resources/DB.BMP,resources/DG.BMP,Door1,-0.263759086,-0.049325026,1,0,0,0.7348,optionLeft,30,13255,6,36,0,36,0,1,,,,,,,,,,,,,,,,,,,,,,,,,,,,,,,,,,,,,,,
,,,,,,,,2023-08-16_08h48.49.804,HF_wild_card,2022.2.4,Win32,18.00115207,5baa5c962eb8020001f1ed3a,64d2fd46c836a06233681665,64dc7f4b274cd767a586479c,,,,,,,sngl,resources/DR.BMP,resources/Empty.png,WildCard_Ex,-0.160955348,-0.057632399,1,0,0,0.5248,optionLeft,5,13260,6,37,0,37,0,1,,,,,,,,,,,,,,,,,,,,,,,,,,,,,,,,,,,,,,,
,,,,,,,,2023-08-16_08h48.49.804,HF_wild_card,2022.2.4,Win32,18.00115207,5baa5c962eb8020001f1ed3a,64d2fd46c836a06233681665,64dc7f4b274cd767a586479c,,,,,,,decisionTrl,resources/DR.BMP,resources/DP.BMP,Door3,0.296988577,0.011941848,1,0,0,0.601,optionRight,70,13330,6,38,0,38,0,1,,,,,,,,,,,,,,,,,,,,,,,,,,,,,,,,,,,,,,,
,,,,,,,,2023-08-16_08h48.49.804,HF_wild_card,2022.2.4,Win32,18.00115207,5baa5c962eb8020001f1ed3a,64d2fd46c836a06233681665,64dc7f4b274cd767a586479c,,,,,,,ctch,resources/DG.BMP,resources/DB.BMP,Door1,0.182762201,0.005711319,1,0,0,0.4746,optionRight,30,13360,6,39,0,39,0,1,,,,,,,,,,,,,,,,,,,,,,,,,,,,,,,,,,,,,,,
,,,,,,,,2023-08-16_08h48.49.804,HF_wild_card,2022.2.4,Win32,18.00115207,5baa5c962eb8020001f1ed3a,64d2fd46c836a06233681665,64dc7f4b274cd767a586479c,,,,,,,decisionTrl,resources/DBN.BMP,resources/DB.BMP,Door2,-0.210799585,-0.041017653,1,0,0,0.474,optionLeft,40,13400,6,40,0,40,0,1,,,,,,,,,,,,,,,,,,,,,,,,,,,,,,,,,,,,,,,
,,,,,,,,2023-08-16_08h48.49.804,HF_wild_card,2022.2.4,Win32,18.00115207,5baa5c962eb8020001f1ed3a,64d2fd46c836a06233681665,64dc7f4b274cd767a586479c,,,,,,,ctch,resources/DBN.BMP,resources/DP.BMP,Door3,0.209761163,-0.004672897,1,0,0,0.4003,optionRight,70,13470,6,41,0,41,0,1,,,,,,,,,,,,,,,,,,,,,,,,,,,,,,,,,,,,,,,
,,,,,,,,2023-08-16_08h48.49.804,HF_wild_card,2022.2.4,Win32,18.00115207,5baa5c962eb8020001f1ed3a,64d2fd46c836a06233681665,64dc7f4b274cd767a586479c,,,,,,,decisionTrl,resources/DB.BMP,resources/DBN.BMP,Door1,-0.200415369,-0.09086189,1,0,0,0.6021,optionLeft,30,13500,6,42,0,42,0,1,,,,,,,,,,,,,,,,,,,,,,,,,,,,,,,,,,,,,,,
,,,,,,,,2023-08-16_08h48.49.804,HF_wild_card,2022.2.4,Win32,18.00115207,5baa5c962eb8020001f1ed3a,64d2fd46c836a06233681665,64dc7f4b274cd767a586479c,,,,,,,sngl,resources/DP.BMP,resources/Empty.png,Door3,-0.17549325,-0.072170301,1,0,0,0.5903,optionLeft,70,13570,6,43,0,43,0,1,,,,,,,,,,,,,,,,,,,,,,,,,,,,,,,,,,,,,,,
,,,,,,,,2023-08-16_08h48.49.804,HF_wild_card,2022.2.4,Win32,18.00115207,5baa5c962eb8020001f1ed3a,64d2fd46c836a06233681665,64dc7f4b274cd767a586479c,,,,,,,,,,,,,,,,,,,,,,,,,,5,0,5,0,1,,,,,,,,,,,,,,,,,,,,,,,,,,,,,,,,,,
,,,,,,,,2023-08-16_08h48.49.804,HF_wild_card,2022.2.4,Win32,18.00115207,5baa5c962eb8020001f1ed3a,64d2fd46c836a06233681665,64dc7f4b274cd767a586479c,,,,,,,decisionTrl,resources/DB.BMP,resources/DBN.BMP,Door2,0.226375909,-0.046209761,1,0,0,1.2726,optionRight,40,13610,7,0,0,0,0,1,,,,,,,,,,,,,,,,,,,,,,,,,,,,,,,,,,,,,,,
,,,,,,,,2023-08-16_08h48.49.804,HF_wild_card,2022.2.4,Win32,18.00115207,5baa5c962eb8020001f1ed3a,64d2fd46c836a06233681665,64dc7f4b274cd767a586479c,,,,,,,decisionTrl,resources/DP.BMP,resources/DG.BMP,Door3,-0.235721703,0.026479751,1,0,0,0.6899,optionLeft,70,13680,7,1,0,1,0,1,,,,,,,,,,,,,,,,,,,,,,,,,,,,,,,,,,,,,,,
,,,,,,,,2023-08-16_08h48.49.804,HF_wild_card,2022.2.4,Win32,18.00115207,5baa5c962eb8020001f1ed3a,64d2fd46c836a06233681665,64dc7f4b274cd767a586479c,,,,,,,ctch,resources/DB.BMP,resources/DG.BMP,Door1,-0.213914849,-0.003634476,1,0,0,0.7898,optionLeft,30,13710,7,2,0,2,0,1,,,,,,,,,,,,,,,,,,,,,,,,,,,,,,,,,,,,,,,
,,,,,,,,2023-08-16_08h48.49.804,HF_wild_card,2022.2.4,Win32,18.00115207,5baa5c962eb8020001f1ed3a,64d2fd46c836a06233681665,64dc7f4b274cd767a586479c,,,,,,,ctch,resources/DP.BMP,resources/DBN.BMP,Door3,-0.241952233,-0.008826584,1,0,0,0.5867,optionLeft,70,13780,7,3,0,3,0,1,,,,,,,,,,,,,,,,,,,,,,,,,,,,,,,,,,,,,,,
,,,,,,,,2023-08-16_08h48.49.804,HF_wild_card,2022.2.4,Win32,18.00115207,5baa5c962eb8020001f1ed3a,64d2fd46c836a06233681665,64dc7f4b274cd767a586479c,,,,,,,ctch,resources/DP.BMP,resources/DBN.BMP,Door3,-0.232606438,0.00674974,1,0,0,0.5259,optionLeft,70,13850,7,4,0,4,0,1,,,,,,,,,,,,,,,,,,,,,,,,,,,,,,,,,,,,,,,
,,,,,,,,2023-08-16_08h48.49.804,HF_wild_card,2022.2.4,Win32,18.00115207,5baa5c962eb8020001f1ed3a,64d2fd46c836a06233681665,64dc7f4b274cd767a586479c,,,,,,,decisionTrl,resources/DB.BMP,resources/DBN.BMP,Door2,0.273104881,0.000519211,1,0,0,0.7983,optionRight,20,13870,7,5,0,5,0,1,,,,,,,,,,,,,,,,,,,,,,,,,,,,,,,,,,,,,,,
,,,,,,,,2023-08-16_08h48.49.804,HF_wild_card,2022.2.4,Win32,18.00115207,5baa5c962eb8020001f1ed3a,64d2fd46c836a06233681665,64dc7f4b274cd767a586479c,,,,,,,ctch,resources/DBN.BMP,resources/DP.BMP,Door2,-0.272066459,-0.003634476,1,0,0,0.9918,optionLeft,20,13890,7,6,0,6,0,1,,,,,,,,,,,,,,,,,,,,,,,,,,,,,,,,,,,,,,,
,,,,,,,,2023-08-16_08h48.49.804,HF_wild_card,2022.2.4,Win32,18.00115207,5baa5c962eb8020001f1ed3a,64d2fd46c836a06233681665,64dc7f4b274cd767a586479c,,,,,,,decisionTrl,resources/DP.BMP,resources/DG.BMP,Door3,-0.254413292,-0.024402908,1,0,0,0.7124,optionLeft,70,13960,7,7,0,7,0,1,,,,,,,,,,,,,,,,,,,,,,,,,,,,,,,,,,,,,,,
,,,,,,,,2023-08-16_08h48.49.804,HF_wild_card,2022.2.4,Win32,18.00115207,5baa5c962eb8020001f1ed3a,64d2fd46c836a06233681665,64dc7f4b274cd767a586479c,,,,,,,decisionTrl,resources/DG.BMP,resources/DP.BMP,Door3,0.118380062,-0.016095535,1,0,0,1.2678,optionRight,70,14030,7,8,0,8,0,1,,,,,,,,,,,,,,,,,,,,,,,,,,,,,,,,,,,,,,,
,,,,,,,,2023-08-16_08h48.49.804,HF_wild_card,2022.2.4,Win32,18.00115207,5baa5c962eb8020001f1ed3a,64d2fd46c836a06233681665,64dc7f4b274cd767a586479c,,,,,,,ctch,resources/DB.BMP,resources/DG.BMP,Door4,0.282450675,-0.00674974,1,0,0,0.927,optionRight,60,14090,7,9,0,9,0,1,,,,,,,,,,,,,,,,,,,,,,,,,,,,,,,,,,,,,,,
,,,,,,,,2023-08-16_08h48.49.804,HF_wild_card,2022.2.4,Win32,18.00115207,5baa5c962eb8020001f1ed3a,64d2fd46c836a06233681665,64dc7f4b274cd767a586479c,,,,,,,ctch,resources/DB.BMP,resources/DG.BMP,Door4,0.228452752,-0.024402908,1,0,0,0.5798,optionRight,80,14170,7,10,0,10,0,1,,,,,,,,,,,,,,,,,,,,,,,,,,,,,,,,,,,,,,,
,,,,,,,,2023-08-16_08h48.49.804,HF_wild_card,2022.2.4,Win32,18.00115207,5baa5c962eb8020001f1ed3a,64d2fd46c836a06233681665,64dc7f4b274cd767a586479c,,,,,,,decisionTrl,resources/DP.BMP,resources/DG.BMP,Door3,-0.28556594,-0.043094496,1,0,0,1.0082,optionLeft,70,14240,7,11,0,11,0,1,,,,,,,,,,,,,,,,,,,,,,,,,,,,,,,,,,,,,,,
,,,,,,,,2023-08-16_08h48.49.804,HF_wild_card,2022.2.4,Win32,18.00115207,5baa5c962eb8020001f1ed3a,64d2fd46c836a06233681665,64dc7f4b274cd767a586479c,,,,,,,decisionTrl,resources/DBN.BMP,resources/DB.BMP,Door1,0.271028037,0.00674974,1,0,0,1.0159,optionRight,30,14270,7,12,0,12,0,1,,,,,,,,,,,,,,,,,,,,,,,,,,,,,,,,,,,,,,,
,,,,,,,,2023-08-16_08h48.49.804,HF_wild_card,2022.2.4,Win32,18.00115207,5baa5c962eb8020001f1ed3a,64d2fd46c836a06233681665,64dc7f4b274cd767a586479c,,,,,,,ctch,resources/DBN.BMP,resources/DP.BMP,Door2,-0.257528557,-0.043094496,1,0,0,1.0208,optionLeft,20,14290,7,13,0,13,0,1,,,,,,,,,,,,,,,,,,,,,,,,,,,,,,,,,,,,,,,
,,,,,,,,2023-08-16_08h48.49.804,HF_wild_card,2022.2.4,Win32,18.00115207,5baa5c962eb8020001f1ed3a,64d2fd46c836a06233681665,64dc7f4b274cd767a586479c,,,,,,,decisionTrl,resources/DBN.BMP,resources/DB.BMP,Door2,-0.217030114,-0.029595016,1,0,0,0.7958,optionLeft,40,14330,7,14,0,14,0,1,,,,,,,,,,,,,,,,,,,,,,,,,,,,,,,,,,,,,,,
,,,,,,,,2023-08-16_08h48.49.804,HF_wild_card,2022.2.4,Win32,18.00115207,5baa5c962eb8020001f1ed3a,64d2fd46c836a06233681665,64dc7f4b274cd767a586479c,,,,,,,decisionTrl,resources/DBN.BMP,resources/DB.BMP,Door2,-0.192107996,-0.024402908,1,0,0,0.4458,optionLeft,40,14370,7,15,0,15,0,1,,,,,,,,,,,,,,,,,,,,,,,,,,,,,,,,,,,,,,,
,,,,,,,,2023-08-16_08h48.49.804,HF_wild_card,2022.2.4,Win32,18.00115207,5baa5c962eb8020001f1ed3a,64d2fd46c836a06233681665,64dc7f4b274cd767a586479c,,,,,,,decisionTrl,resources/DBN.BMP,resources/DB.BMP,Door2,-0.183800623,-0.022326064,1,0,0,0.4702,optionLeft,40,14410,7,16,0,16,0,1,,,,,,,,,,,,,,,,,,,,,,,,,,,,,,,,,,,,,,,
,,,,,,,,2023-08-16_08h48.49.804,HF_wild_card,2022.2.4,Win32,18.00115207,5baa5c962eb8020001f1ed3a,64d2fd46c836a06233681665,64dc7f4b274cd767a586479c,,,,,,,decisionTrl,resources/DG.BMP,resources/DP.BMP,Door4,-0.192107996,-0.033748702,1,0,0,1.1946,optionLeft,80,14490,7,17,0,17,0,1,,,,,,,,,,,,,,,,,,,,,,,,,,,,,,,,,,,,,,,
,,,,,,,,2023-08-16_08h48.49.804,HF_wild_card,2022.2.4,Win32,18.00115207,5baa5c962eb8020001f1ed3a,64d2fd46c836a06233681665,64dc7f4b274cd767a586479c,,,,,,,decisionTrl,resources/DBN.BMP,resources/DB.BMP,Door1,0.362409138,-0.080477674,1,0,0,1.1616,optionRight,30,14520,7,18,0,18,0,1,,,,,,,,,,,,,,,,,,,,,,,,,,,,,,,,,,,,,,,
,,,,,,,,2023-08-16_08h48.49.804,HF_wild_card,2022.2.4,Win32,18.00115207,5baa5c962eb8020001f1ed3a,64d2fd46c836a06233681665,64dc7f4b274cd767a586479c,,,,,,,decisionTrl,resources/DG.BMP,resources/DP.BMP,Door4,-0.185877466,-0.056593977,1,0,0,1.1371,optionLeft,80,14600,7,19,0,19,0,1,,,,,,,,,,,,,,,,,,,,,,,,,,,,,,,,,,,,,,,
,,,,,,,,2023-08-16_08h48.49.804,HF_wild_card,2022.2.4,Win32,18.00115207,5baa5c962eb8020001f1ed3a,64d2fd46c836a06233681665,64dc7f4b274cd767a586479c,,,,,,,decisionTrl,resources/DG.BMP,resources/DP.BMP,Door4,-0.179646937,-0.029595016,1,0,0,0.679,optionLeft,80,14680,7,20,0,20,0,1,,,,,,,,,,,,,,,,,,,,,,,,,,,,,,,,,,,,,,,
,,,,,,,,2023-08-16_08h48.49.804,HF_wild_card,2022.2.4,Win32,18.00115207,5baa5c962eb8020001f1ed3a,64d2fd46c836a06233681665,64dc7f4b274cd767a586479c,,,,,,,decisionTrl,resources/DB.BMP,resources/DBN.BMP,Door2,0.166147456,0.022326064,1,0,0,1.1248,optionRight,40,14720,7,21,0,21,0,1,,,,,,,,,,,,,,,,,,,,,,,,,,,,,,,,,,,,,,,
,,,,,,,,2023-08-16_08h48.49.804,HF_wild_card,2022.2.4,Win32,18.00115207,5baa5c962eb8020001f1ed3a,64d2fd46c836a06233681665,64dc7f4b274cd767a586479c,,,,,,,decisionTrl,resources/DP.BMP,resources/DG.BMP,Door3,-0.254413292,0.000519211,1,0,0,0.9647,optionLeft,70,14790,7,22,0,22,0,1,,,,,,,,,,,,,,,,,,,,,,,,,,,,,,,,,,,,,,,
,,,,,,,,2023-08-16_08h48.49.804,HF_wild_card,2022.2.4,Win32,18.00115207,5baa5c962eb8020001f1ed3a,64d2fd46c836a06233681665,64dc7f4b274cd767a586479c,,,,,,,decisionTrl,resources/DG.BMP,resources/DP.BMP,Door3,0.188992731,0.010903427,1,0,0,0.604,optionRight,70,14860,7,23,0,23,0,1,,,,,,,,,,,,,,,,,,,,,,,,,,,,,,,,,,,,,,,
,,,,,,,,2023-08-16_08h48.49.804,HF_wild_card,2022.2.4,Win32,18.00115207,5baa5c962eb8020001f1ed3a,64d2fd46c836a06233681665,64dc7f4b274cd767a586479c,,,,,,,ctch,resources/DG.BMP,resources/DB.BMP,Door1,0.160955348,-0.005711319,1,0,0,0.5488,optionRight,30,14890,7,24,0,24,0,1,,,,,,,,,,,,,,,,,,,,,,,,,,,,,,,,,,,,,,,
,,,,,,,,2023-08-16_08h48.49.804,HF_wild_card,2022.2.4,Win32,18.00115207,5baa5c962eb8020001f1ed3a,64d2fd46c836a06233681665,64dc7f4b274cd767a586479c,,,,,,,decisionTrl,resources/DP.BMP,resources/DG.BMP,Door3,-0.190031153,-0.055555556,1,0,0,0.5677,optionLeft,70,14960,7,25,0,25,0,1,,,,,,,,,,,,,,,,,,,,,,,,,,,,,,,,,,,,,,,
,,,,,,,,2023-08-16_08h48.49.804,HF_wild_card,2022.2.4,Win32,18.00115207,5baa5c962eb8020001f1ed3a,64d2fd46c836a06233681665,64dc7f4b274cd767a586479c,,,,,,,decisionTrl,resources/DB.BMP,resources/DBN.BMP,Door2,0.237798546,0.010903427,1,0,0,0.7448,optionRight,20,14980,7,26,0,26,0,1,,,,,,,,,,,,,,,,,,,,,,,,,,,,,,,,,,,,,,,
,,,,,,,,2023-08-16_08h48.49.804,HF_wild_card,2022.2.4,Win32,18.00115207,5baa5c962eb8020001f1ed3a,64d2fd46c836a06233681665,64dc7f4b274cd767a586479c,,,,,,,decisionTrl,resources/DG.BMP,resources/DP.BMP,Door3,0.11007269,-0.050363448,1,0,0,0.6867,optionRight,70,15050,7,27,0,27,0,1,,,,,,,,,,,,,,,,,,,,,,,,,,,,,,,,,,,,,,,
,,,,,,,,2023-08-16_08h48.49.804,HF_wild_card,2022.2.4,Win32,18.00115207,5baa5c962eb8020001f1ed3a,64d2fd46c836a06233681665,64dc7f4b274cd767a586479c,,,,,,,ctch,resources/DG.BMP,resources/DB.BMP,Door1,0.222222222,-0.03271028,1,0,0,0.5964,optionRight,30,15080,7,28,0,28,0,1,,,,,,,,,,,,,,,,,,,,,,,,,,,,,,,,,,,,,,,
,,,,,,,,2023-08-16_08h48.49.804,HF_wild_card,2022.2.4,Win32,18.00115207,5baa5c962eb8020001f1ed3a,64d2fd46c836a06233681665,64dc7f4b274cd767a586479c,,,,,,,ctch,resources/DP.BMP,resources/DBN.BMP,Door2,-0.00623053,-0.003634476,1,0,0,0.2061,optionRight,20,15100,7,29,0,29,0,1,,,,,,,,,,,,,,,,,,,,,,,,,,,,,,,,,,,,,,,
,,,,,,,,2023-08-16_08h48.49.804,HF_wild_card,2022.2.4,Win32,18.00115207,5baa5c962eb8020001f1ed3a,64d2fd46c836a06233681665,64dc7f4b274cd767a586479c,,,,,,,ctch,resources/DG.BMP,resources/DB.BMP,Door1,0.223260644,-0.008826584,1,0,0,0.7054,optionRight,30,15130,7,30,0,30,0,1,,,,,,,,,,,,,,,,,,,,,,,,,,,,,,,,,,,,,,,
,,,,,,,,2023-08-16_08h48.49.804,HF_wild_card,2022.2.4,Win32,18.00115207,5baa5c962eb8020001f1ed3a,64d2fd46c836a06233681665,64dc7f4b274cd767a586479c,,,,,,,decisionTrl,resources/DBN.BMP,resources/DB.BMP,Door1,0.236760125,-0.010903427,1,0,0,0.591,optionRight,30,15160,7,31,0,31,0,1,,,,,,,,,,,,,,,,,,,,,,,,,,,,,,,,,,,,,,,
,,,,,,,,2023-08-16_08h48.49.804,HF_wild_card,2022.2.4,Win32,18.00115207,5baa5c962eb8020001f1ed3a,64d2fd46c836a06233681665,64dc7f4b274cd767a586479c,,,,,,,decisionTrl,resources/DB.BMP,resources/DBN.BMP,Door2,0.187954309,-0.004672897,1,0,0,0.5619,optionRight,40,15200,7,32,0,32,0,1,,,,,,,,,,,,,,,,,,,,,,,,,,,,,,,,,,,,,,,
,,,,,,,,2023-08-16_08h48.49.804,HF_wild_card,2022.2.4,Win32,18.00115207,5baa5c962eb8020001f1ed3a,64d2fd46c836a06233681665,64dc7f4b274cd767a586479c,,,,,,,ctch,resources/DBN.BMP,resources/DP.BMP,Door2,-0.179646937,-0.018172378,1,0,0,0.5605,optionLeft,20,15220,7,33,0,33,0,1,,,,,,,,,,,,,,,,,,,,,,,,,,,,,,,,,,,,,,,
,,,,,,,,2023-08-16_08h48.49.804,HF_wild_card,2022.2.4,Win32,18.00115207,5baa5c962eb8020001f1ed3a,64d2fd46c836a06233681665,64dc7f4b274cd767a586479c,,,,,,,decisionTrl,resources/DP.BMP,resources/DG.BMP,Door4,0.283489097,-0.018172378,1,0,0,0.7273,optionRight,80,15300,7,34,0,34,0,1,,,,,,,,,,,,,,,,,,,,,,,,,,,,,,,,,,,,,,,
,,,,,,,,2023-08-16_08h48.49.804,HF_wild_card,2022.2.4,Win32,18.00115207,5baa5c962eb8020001f1ed3a,64d2fd46c836a06233681665,64dc7f4b274cd767a586479c,,,,,,,decisionTrl,resources/DB.BMP,resources/DBN.BMP,Door2,0.231568017,0.00674974,1,0,0,0.5262,optionRight,20,15320,7,35,0,35,0,1,,,,,,,,,,,,,,,,,,,,,,,,,,,,,,,,,,,,,,,
,,,,,,,,2023-08-16_08h48.49.804,HF_wild_card,2022.2.4,Win32,18.00115207,5baa5c962eb8020001f1ed3a,64d2fd46c836a06233681665,64dc7f4b274cd767a586479c,,,,,,,,,,,,,,,,,,,,,,,,,,6,0,6,0,1,,,,,,,,,,,,,,,,,,,,,,,,,,,,,,,,,,
,,,,,,,,2023-08-16_08h48.49.804,HF_wild_card,2022.2.4,Win32,18.00115207,5baa5c962eb8020001f1ed3a,64d2fd46c836a06233681665,64dc7f4b274cd767a586479c,,,,,,,,,,,,,,,,,,,,,,,,,,,,,,,3,,,,,,,,,,,,,,,,,,,,,,,,,,,,,,,,,
,,,,,,,,2023-08-16_08h48.49.804,HF_wild_card,2022.2.4,Win32,18.00115207,5baa5c962eb8020001f1ed3a,64d2fd46c836a06233681665,64dc7f4b274cd767a586479c,,,,,,,,,,,,,,,,,,,,,,,,,,,,,,,,,,,,,,,,,,,,,,,,,,,,,,,,,,,,,,,,
,,,,,,,,2023-08-16_08h48.49.804,HF_wild_card,2022.2.4,Win32,18.00115207,5baa5c962eb8020001f1ed3a,64d2fd46c836a06233681665,64dc7f4b274cd767a586479c,,,,,,,,,,,,,,,,,,,,,,,,,,,,,,,,40,Door2,resources/DBN.BMP,0,0,0,0,1,,,,,,,,,,,,,,,,,,,,,,,,,
,,,,,,,,2023-08-16_08h48.49.804,HF_wild_card,2022.2.4,Win32,18.00115207,5baa5c962eb8020001f1ed3a,64d2fd46c836a06233681665,64dc7f4b274cd767a586479c,,,,,,,,,,,,,,,,,,,,,,,,,,,,,,,,35,WC_extreme,resources/DR.BMP,1,0,1,0,1,,,,,,,,,,,,,,,,,,,,,,,,,
,,,,,,,,2023-08-16_08h48.49.804,HF_wild_card,2022.2.4,Win32,18.00115207,5baa5c962eb8020001f1ed3a,64d2fd46c836a06233681665,64dc7f4b274cd767a586479c,,,,,,,,,,,,,,,,,,,,,,,,,,,,,,,,25,Door1,resources/DB.BMP,2,0,2,0,1,,,,,,,,,,,,,,,,,,,,,,,,,
,,,,,,,,2023-08-16_08h48.49.804,HF_wild_card,2022.2.4,Win32,18.00115207,5baa5c962eb8020001f1ed3a,64d2fd46c836a06233681665,64dc7f4b274cd767a586479c,,,,,,,,,,,,,,,,,,,,,,,,,,,,,,,,35,Door4,resources/DG.BMP,3,0,3,0,1,,,,,,,,,,,,,,,,,,,,,,,,,
,,,,,,,,2023-08-16_08h48.49.804,HF_wild_card,2022.2.4,Win32,18.00115207,5baa5c962eb8020001f1ed3a,64d2fd46c836a06233681665,64dc7f4b274cd767a586479c,,,,,,,,,,,,,,,,,,,,,,,,,,,,,,,,40,Door3,resources/DP.BMP,4,0,4,0,1,,,,,,,,,,,,,,,,,,,,,,,,,
,,,,,,,,2023-08-16_08h48.49.804,HF_wild_card,2022.2.4,Win32,18.00115207,5baa5c962eb8020001f1ed3a,64d2fd46c836a06233681665,64dc7f4b274cd767a586479c,,,,,,,,,,,,,,,,,,,,,,,,,,,,,,,,60,WC_nonExtreme,resources/DY.BMP,5,0,5,0,1,,,,,,,,,,,,,,,,,,,,,,,,,
,,,,,,,,2023-08-16_08h48.49.804,HF_wild_card,2022.2.4,Win32,18.00115207,5baa5c962eb8020001f1ed3a,64d2fd46c836a06233681665,64dc7f4b274cd767a586479c,,,,,,,,,,,,,,,,,,,,,,,,,,,,,,,,,,,,,,,,,,,,,,,,,,,,,,,,,,,,,,,,
