Condition,Low fixed image (Door1),Low risky image (Door2),High fixed image (Door3),High risky image (Door4),Extreme Wild Card,NonExtreme Wild Card,,date,expName,psychopyVersion,OS,frameRate,PROLIFIC_PID,STUDY_ID,SESSION_ID,mouse_2.x,mouse_2.y,mouse_2.leftButton,mouse_2.midButton,mouse_2.rightButton,mouse_2.clicked_name,Trial Type,Left Option Image,Right Option Image,Chosen Door,mouse.x,mouse.y,mouse.leftButton,mouse.midButton,mouse.rightButton,mouse.time,mouse.clicked_name,Feedback,Cumulative Reward,Block,trial.thisRepN,trial.thisTrialN,trial.thisN,trial.thisIndex,trial.ran,blocks.thisRepN,blocks.thisTrialN,blocks.thisN,blocks.thisIndex,blocks.ran,Money conversion,First Outcome Reported,Shown Door (First Outcome),Displayed Image (First Outcome),outcomes.thisRepN,outcomes.thisTrialN,outcomes.thisN,outcomes.thisIndex,outcomes.ran,judgments.thisRepN,judgments.thisTrialN,judgments.thisN,judgments.thisIndex,judgments.ran,freqMouse.x,freqMouse.y,freqMouse.leftButton,freqMouse.midButton,freqMouse.rightButton,freqMouse.clicked_name,FQJ for first outcome,FQJ for second outcome,Shown Door,Displayed Image,trials.thisRepN,trials.thisTrialN,trials.thisN,trials.thisIndex,trials.ran,judgBlock.thisRepN,judgBlock.thisTrialN,judgBlock.thisN,judgBlock.thisIndex,judgBlock.ran
1,resources/DB.BMP,resources/DR.BMP,resources/DBN.BMP,resources/DG.BMP,resources/DY.BMP,resources/DP.BMP,,2023-08-06_08h20.24.098,HF_wild_card,2022.2.4,Win32,60.02040694,5c6b23a6076e4e0001292f53,64ce5acb97489d65b14ecc7a,64cf49a9e48222106d15bdba,,,,,,,,,,,,,,,,,,,,,,,,,,,,,,,,,,,,,,,,,,,,,,,,,,,,,,,,,,,,,,,,
,,,,,,,,2023-08-06_08h20.24.098,HF_wild_card,2022.2.4,Win32,60.02040694,5c6b23a6076e4e0001292f53,64ce5acb97489d65b14ecc7a,64cf49a9e48222106d15bdba,-0.003703704,-0.419444444,1,0,0,agree,,,,,,,,,,,,,,,,,,,,,,,,,,,,,,,,,,,,,,,,,,,,,,,,,,,,,,,,,,
,,,,,,,,2023-08-06_08h20.24.098,HF_wild_card,2022.2.4,Win32,60.02040694,5c6b23a6076e4e0001292f53,64ce5acb97489d65b14ecc7a,64cf49a9e48222106d15bdba,,,,,,,,,,,,,,,,,,,,,,,,,,,,,,,,,,,,,,,,,,,,,,,,,,,,,,,,,,,,,,,,
,,,,,,,,2023-08-06_08h20.24.098,HF_wild_card,2022.2.4,Win32,60.02040694,5c6b23a6076e4e0001292f53,64ce5acb97489d65b14ecc7a,64cf49a9e48222106d15bdba,,,,,,,decisionTrl,resources/DB.BMP,resources/DR.BMP,Door1,-0.216666667,-0.141666667,1,0,0,3.9851,optionLeft,30,30,1,0,0,0,0,1,,,,,,,,,,,,,,,,,,,,,,,,,,,,,,,,,,,,,,,
,,,,,,,,2023-08-06_08h20.24.098,HF_wild_card,2022.2.4,Win32,60.02040694,5c6b23a6076e4e0001292f53,64ce5acb97489d65b14ecc7a,64cf49a9e48222106d15bdba,,,,,,,decisionTrl,resources/DB.BMP,resources/DR.BMP,Door1,-0.185185185,-0.062037037,1,0,0,3.657,optionLeft,30,60,1,1,0,1,0,1,,,,,,,,,,,,,,,,,,,,,,,,,,,,,,,,,,,,,,,
,,,,,,,,2023-08-06_08h20.24.098,HF_wild_card,2022.2.4,Win32,60.02040694,5c6b23a6076e4e0001292f53,64ce5acb97489d65b14ecc7a,64cf49a9e48222106d15bdba,,,,,,,sngl,resources/Empty.png,resources/DP.BMP,WildCard_NonEx,0.387962963,-0.036111111,1,0,0,1.2272,optionRight,55,115,1,2,0,2,0,1,,,,,,,,,,,,,,,,,,,,,,,,,,,,,,,,,,,,,,,
,,,,,,,,2023-08-06_08h20.24.098,HF_wild_card,2022.2.4,Win32,60.02040694,5c6b23a6076e4e0001292f53,64ce5acb97489d65b14ecc7a,64cf49a9e48222106d15bdba,,,,,,,decisionTrl,resources/DP.BMP,resources/DB.BMP,WildCard_NonEx,-0.309259259,-0.042592593,1,0,0,1.6467,optionLeft,55,170,1,3,0,3,0,1,,,,,,,,,,,,,,,,,,,,,,,,,,,,,,,,,,,,,,,
,,,,,,,,2023-08-06_08h20.24.098,HF_wild_card,2022.2.4,Win32,60.02040694,5c6b23a6076e4e0001292f53,64ce5acb97489d65b14ecc7a,64cf49a9e48222106d15bdba,,,,,,,decisionTrl,resources/DB.BMP,resources/DR.BMP,Door1,-0.35,-0.052777778,1,0,0,1.0246,optionLeft,30,200,1,4,0,4,0,1,,,,,,,,,,,,,,,,,,,,,,,,,,,,,,,,,,,,,,,
,,,,,,,,2023-08-06_08h20.24.098,HF_wild_card,2022.2.4,Win32,60.02040694,5c6b23a6076e4e0001292f53,64ce5acb97489d65b14ecc7a,64cf49a9e48222106d15bdba,,,,,,,decisionTrl,resources/DBN.BMP,resources/DP.BMP,WildCard_NonEx,0.356481481,-0.003703704,1,0,0,1.1776,optionRight,45,245,1,5,0,5,0,1,,,,,,,,,,,,,,,,,,,,,,,,,,,,,,,,,,,,,,,
,,,,,,,,2023-08-06_08h20.24.098,HF_wild_card,2022.2.4,Win32,60.02040694,5c6b23a6076e4e0001292f53,64ce5acb97489d65b14ecc7a,64cf49a9e48222106d15bdba,,,,,,,ctch,resources/DR.BMP,resources/DBN.BMP,Door3,0.338888889,-0.024074074,1,0,0,0.9464,optionRight,70,315,1,6,0,6,0,1,,,,,,,,,,,,,,,,,,,,,,,,,,,,,,,,,,,,,,,
,,,,,,,,2023-08-06_08h20.24.098,HF_wild_card,2022.2.4,Win32,60.02040694,5c6b23a6076e4e0001292f53,64ce5acb97489d65b14ecc7a,64cf49a9e48222106d15bdba,,,,,,,sngl,resources/DP.BMP,resources/Empty.png,WildCard_NonEx,-0.390740741,0.014814815,1,0,0,0.8951,optionLeft,55,370,1,7,0,7,0,1,,,,,,,,,,,,,,,,,,,,,,,,,,,,,,,,,,,,,,,
,,,,,,,,2023-08-06_08h20.24.098,HF_wild_card,2022.2.4,Win32,60.02040694,5c6b23a6076e4e0001292f53,64ce5acb97489d65b14ecc7a,64cf49a9e48222106d15bdba,,,,,,,sngl,resources/DP.BMP,resources/Empty.png,WildCard_NonEx,-0.350925926,-0.02037037,1,0,0,0.8769,optionLeft,45,415,1,8,0,8,0,1,,,,,,,,,,,,,,,,,,,,,,,,,,,,,,,,,,,,,,,
,,,,,,,,2023-08-06_08h20.24.098,HF_wild_card,2022.2.4,Win32,60.02040694,5c6b23a6076e4e0001292f53,64ce5acb97489d65b14ecc7a,64cf49a9e48222106d15bdba,,,,,,,decisionTrl,resources/DP.BMP,resources/DR.BMP,Door2,0.27037037,0.00462963,1,0,0,1.1467,optionRight,20,435,1,9,0,9,0,1,,,,,,,,,,,,,,,,,,,,,,,,,,,,,,,,,,,,,,,
,,,,,,,,2023-08-06_08h20.24.098,HF_wild_card,2022.2.4,Win32,60.02040694,5c6b23a6076e4e0001292f53,64ce5acb97489d65b14ecc7a,64cf49a9e48222106d15bdba,,,,,,,decisionTrl,resources/DBN.BMP,resources/DG.BMP,Door4,0.273148148,0.013888889,1,0,0,1.1925,optionRight,60,495,1,10,0,10,0,1,,,,,,,,,,,,,,,,,,,,,,,,,,,,,,,,,,,,,,,
,,,,,,,,2023-08-06_08h20.24.098,HF_wild_card,2022.2.4,Win32,60.02040694,5c6b23a6076e4e0001292f53,64ce5acb97489d65b14ecc7a,64cf49a9e48222106d15bdba,,,,,,,ctch,resources/DG.BMP,resources/DB.BMP,Door4,-0.346296296,0.018518519,1,0,0,1.1238,optionLeft,60,555,1,11,0,11,0,1,,,,,,,,,,,,,,,,,,,,,,,,,,,,,,,,,,,,,,,
,,,,,,,,2023-08-06_08h20.24.098,HF_wild_card,2022.2.4,Win32,60.02040694,5c6b23a6076e4e0001292f53,64ce5acb97489d65b14ecc7a,64cf49a9e48222106d15bdba,,,,,,,ctch,resources/DB.BMP,resources/DG.BMP,Door4,0.360185185,-0.051851852,1,0,0,1.39,optionRight,60,615,1,12,0,12,0,1,,,,,,,,,,,,,,,,,,,,,,,,,,,,,,,,,,,,,,,
,,,,,,,,2023-08-06_08h20.24.098,HF_wild_card,2022.2.4,Win32,60.02040694,5c6b23a6076e4e0001292f53,64ce5acb97489d65b14ecc7a,64cf49a9e48222106d15bdba,,,,,,,decisionTrl,resources/DBN.BMP,resources/DG.BMP,Door3,-0.298148148,-0.02037037,1,0,0,1.0463,optionLeft,70,685,1,13,0,13,0,1,,,,,,,,,,,,,,,,,,,,,,,,,,,,,,,,,,,,,,,
,,,,,,,,2023-08-06_08h20.24.098,HF_wild_card,2022.2.4,Win32,60.02040694,5c6b23a6076e4e0001292f53,64ce5acb97489d65b14ecc7a,64cf49a9e48222106d15bdba,,,,,,,decisionTrl,resources/DR.BMP,resources/DB.BMP,Door2,-0.349074074,-0.015740741,1,0,0,0.7186,optionLeft,40,725,1,14,0,14,0,1,,,,,,,,,,,,,,,,,,,,,,,,,,,,,,,,,,,,,,,
,,,,,,,,2023-08-06_08h20.24.098,HF_wild_card,2022.2.4,Win32,60.02040694,5c6b23a6076e4e0001292f53,64ce5acb97489d65b14ecc7a,64cf49a9e48222106d15bdba,,,,,,,ctch,resources/DG.BMP,resources/DB.BMP,Door1,0.362037037,-0.000925926,1,0,0,0.7441,optionRight,30,755,1,15,0,15,0,1,,,,,,,,,,,,,,,,,,,,,,,,,,,,,,,,,,,,,,,
,,,,,,,,2023-08-06_08h20.24.098,HF_wild_card,2022.2.4,Win32,60.02040694,5c6b23a6076e4e0001292f53,64ce5acb97489d65b14ecc7a,64cf49a9e48222106d15bdba,,,,,,,decisionTrl,resources/DBN.BMP,resources/DG.BMP,Door4,0.338888889,-0.024074074,1,0,0,0.9258,optionRight,60,815,1,16,0,16,0,1,,,,,,,,,,,,,,,,,,,,,,,,,,,,,,,,,,,,,,,
,,,,,,,,2023-08-06_08h20.24.098,HF_wild_card,2022.2.4,Win32,60.02040694,5c6b23a6076e4e0001292f53,64ce5acb97489d65b14ecc7a,64cf49a9e48222106d15bdba,,,,,,,decisionTrl,resources/DR.BMP,resources/DB.BMP,Door1,0.301851852,0.015740741,1,0,0,0.9713,optionRight,30,845,1,17,0,17,0,1,,,,,,,,,,,,,,,,,,,,,,,,,,,,,,,,,,,,,,,
,,,,,,,,2023-08-06_08h20.24.098,HF_wild_card,2022.2.4,Win32,60.02040694,5c6b23a6076e4e0001292f53,64ce5acb97489d65b14ecc7a,64cf49a9e48222106d15bdba,,,,,,,sngl,resources/DB.BMP,resources/Empty.png,Door1,-0.331481481,-0.025925926,1,0,0,0.6965,optionLeft,30,875,1,18,0,18,0,1,,,,,,,,,,,,,,,,,,,,,,,,,,,,,,,,,,,,,,,
,,,,,,,,2023-08-06_08h20.24.098,HF_wild_card,2022.2.4,Win32,60.02040694,5c6b23a6076e4e0001292f53,64ce5acb97489d65b14ecc7a,64cf49a9e48222106d15bdba,,,,,,,sngl,resources/Empty.png,resources/DP.BMP,WildCard_NonEx,0.343518519,0.006481481,1,0,0,0.8293,optionRight,45,920,1,19,0,19,0,1,,,,,,,,,,,,,,,,,,,,,,,,,,,,,,,,,,,,,,,
,,,,,,,,2023-08-06_08h20.24.098,HF_wild_card,2022.2.4,Win32,60.02040694,5c6b23a6076e4e0001292f53,64ce5acb97489d65b14ecc7a,64cf49a9e48222106d15bdba,,,,,,,decisionTrl,resources/DG.BMP,resources/DBN.BMP,Door4,-0.29537037,0.013888889,1,0,0,1.0811,optionLeft,60,980,1,20,0,20,0,1,,,,,,,,,,,,,,,,,,,,,,,,,,,,,,,,,,,,,,,
,,,,,,,,2023-08-06_08h20.24.098,HF_wild_card,2022.2.4,Win32,60.02040694,5c6b23a6076e4e0001292f53,64ce5acb97489d65b14ecc7a,64cf49a9e48222106d15bdba,,,,,,,decisionTrl,resources/DR.BMP,resources/DB.BMP,Door2,-0.275925926,0.007407407,1,0,0,0.6966,optionLeft,20,1000,1,21,0,21,0,1,,,,,,,,,,,,,,,,,,,,,,,,,,,,,,,,,,,,,,,
,,,,,,,,2023-08-06_08h20.24.098,HF_wild_card,2022.2.4,Win32,60.02040694,5c6b23a6076e4e0001292f53,64ce5acb97489d65b14ecc7a,64cf49a9e48222106d15bdba,,,,,,,decisionTrl,resources/DP.BMP,resources/DG.BMP,Door4,0.409259259,-0.001851852,1,0,0,0.9924,optionRight,80,1080,1,22,0,22,0,1,,,,,,,,,,,,,,,,,,,,,,,,,,,,,,,,,,,,,,,
,,,,,,,,2023-08-06_08h20.24.098,HF_wild_card,2022.2.4,Win32,60.02040694,5c6b23a6076e4e0001292f53,64ce5acb97489d65b14ecc7a,64cf49a9e48222106d15bdba,,,,,,,decisionTrl,resources/DG.BMP,resources/DBN.BMP,Door4,-0.324074074,-0.00462963,1,0,0,0.956,optionLeft,60,1140,1,23,0,23,0,1,,,,,,,,,,,,,,,,,,,,,,,,,,,,,,,,,,,,,,,
,,,,,,,,2023-08-06_08h20.24.098,HF_wild_card,2022.2.4,Win32,60.02040694,5c6b23a6076e4e0001292f53,64ce5acb97489d65b14ecc7a,64cf49a9e48222106d15bdba,,,,,,,sngl,resources/DG.BMP,resources/Empty.png,Door4,-0.333333333,-0.007407407,1,0,0,0.7399,optionLeft,80,1220,1,24,0,24,0,1,,,,,,,,,,,,,,,,,,,,,,,,,,,,,,,,,,,,,,,
,,,,,,,,2023-08-06_08h20.24.098,HF_wild_card,2022.2.4,Win32,60.02040694,5c6b23a6076e4e0001292f53,64ce5acb97489d65b14ecc7a,64cf49a9e48222106d15bdba,,,,,,,decisionTrl,resources/DR.BMP,resources/DB.BMP,Door1,0.487962963,0.014814815,1,0,0,0.8138,optionRight,30,1250,1,25,0,25,0,1,,,,,,,,,,,,,,,,,,,,,,,,,,,,,,,,,,,,,,,
,,,,,,,,2023-08-06_08h20.24.098,HF_wild_card,2022.2.4,Win32,60.02040694,5c6b23a6076e4e0001292f53,64ce5acb97489d65b14ecc7a,64cf49a9e48222106d15bdba,,,,,,,sngl,resources/Empty.png,resources/DB.BMP,Door1,0.293518519,0.00462963,1,0,0,0.6634,optionRight,30,1280,1,26,0,26,0,1,,,,,,,,,,,,,,,,,,,,,,,,,,,,,,,,,,,,,,,
,,,,,,,,2023-08-06_08h20.24.098,HF_wild_card,2022.2.4,Win32,60.02040694,5c6b23a6076e4e0001292f53,64ce5acb97489d65b14ecc7a,64cf49a9e48222106d15bdba,,,,,,,sngl,resources/Empty.png,resources/DR.BMP,Door2,0.353703704,0.005555556,1,0,0,0.7788,optionRight,20,1300,1,27,0,27,0,1,,,,,,,,,,,,,,,,,,,,,,,,,,,,,,,,,,,,,,,
,,,,,,,,2023-08-06_08h20.24.098,HF_wild_card,2022.2.4,Win32,60.02040694,5c6b23a6076e4e0001292f53,64ce5acb97489d65b14ecc7a,64cf49a9e48222106d15bdba,,,,,,,sngl,resources/Empty.png,resources/DG.BMP,Door4,0.406481481,-0.008333333,1,0,0,0.7073,optionRight,60,1360,1,28,0,28,0,1,,,,,,,,,,,,,,,,,,,,,,,,,,,,,,,,,,,,,,,
,,,,,,,,2023-08-06_08h20.24.098,HF_wild_card,2022.2.4,Win32,60.02040694,5c6b23a6076e4e0001292f53,64ce5acb97489d65b14ecc7a,64cf49a9e48222106d15bdba,,,,,,,ctch,resources/DR.BMP,resources/DBN.BMP,Door2,-0.249074074,-0.013888889,1,0,0,1.1235,optionLeft,20,1380,1,29,0,29,0,1,,,,,,,,,,,,,,,,,,,,,,,,,,,,,,,,,,,,,,,
,,,,,,,,2023-08-06_08h20.24.098,HF_wild_card,2022.2.4,Win32,60.02040694,5c6b23a6076e4e0001292f53,64ce5acb97489d65b14ecc7a,64cf49a9e48222106d15bdba,,,,,,,decisionTrl,resources/DG.BMP,resources/DBN.BMP,Door3,0.412962963,-0.016666667,1,0,0,0.9453,optionRight,70,1450,1,30,0,30,0,1,,,,,,,,,,,,,,,,,,,,,,,,,,,,,,,,,,,,,,,
,,,,,,,,2023-08-06_08h20.24.098,HF_wild_card,2022.2.4,Win32,60.02040694,5c6b23a6076e4e0001292f53,64ce5acb97489d65b14ecc7a,64cf49a9e48222106d15bdba,,,,,,,decisionTrl,resources/DB.BMP,resources/DR.BMP,Door1,-0.20462963,0.013888889,1,0,0,1.4135,optionLeft,30,1480,1,31,0,31,0,1,,,,,,,,,,,,,,,,,,,,,,,,,,,,,,,,,,,,,,,
,,,,,,,,2023-08-06_08h20.24.098,HF_wild_card,2022.2.4,Win32,60.02040694,5c6b23a6076e4e0001292f53,64ce5acb97489d65b14ecc7a,64cf49a9e48222106d15bdba,,,,,,,ctch,resources/DBN.BMP,resources/DR.BMP,Door2,0.362037037,-0.001851852,1,0,0,0.5803,optionRight,20,1500,1,32,0,32,0,1,,,,,,,,,,,,,,,,,,,,,,,,,,,,,,,,,,,,,,,
,,,,,,,,2023-08-06_08h20.24.098,HF_wild_card,2022.2.4,Win32,60.02040694,5c6b23a6076e4e0001292f53,64ce5acb97489d65b14ecc7a,64cf49a9e48222106d15bdba,,,,,,,decisionTrl,resources/DBN.BMP,resources/DG.BMP,Door3,-0.332407407,-0.02037037,1,0,0,1.0418,optionLeft,70,1570,1,33,0,33,0,1,,,,,,,,,,,,,,,,,,,,,,,,,,,,,,,,,,,,,,,
,,,,,,,,2023-08-06_08h20.24.098,HF_wild_card,2022.2.4,Win32,60.02040694,5c6b23a6076e4e0001292f53,64ce5acb97489d65b14ecc7a,64cf49a9e48222106d15bdba,,,,,,,decisionTrl,resources/DG.BMP,resources/DP.BMP,Door4,-0.268518519,-0.001851852,1,0,0,0.6027,optionLeft,80,1650,1,34,0,34,0,1,,,,,,,,,,,,,,,,,,,,,,,,,,,,,,,,,,,,,,,
,,,,,,,,2023-08-06_08h20.24.098,HF_wild_card,2022.2.4,Win32,60.02040694,5c6b23a6076e4e0001292f53,64ce5acb97489d65b14ecc7a,64cf49a9e48222106d15bdba,,,,,,,sngl,resources/DR.BMP,resources/Empty.png,Door2,-0.223148148,-0.009259259,1,0,0,0.6717,optionLeft,40,1690,1,35,0,35,0,1,,,,,,,,,,,,,,,,,,,,,,,,,,,,,,,,,,,,,,,
,,,,,,,,2023-08-06_08h20.24.098,HF_wild_card,2022.2.4,Win32,60.02040694,5c6b23a6076e4e0001292f53,64ce5acb97489d65b14ecc7a,64cf49a9e48222106d15bdba,,,,,,,decisionTrl,resources/DG.BMP,resources/DBN.BMP,Door4,-0.35,0.001851852,1,0,0,0.7431,optionLeft,80,1770,1,36,0,36,0,1,,,,,,,,,,,,,,,,,,,,,,,,,,,,,,,,,,,,,,,
,,,,,,,,2023-08-06_08h20.24.098,HF_wild_card,2022.2.4,Win32,60.02040694,5c6b23a6076e4e0001292f53,64ce5acb97489d65b14ecc7a,64cf49a9e48222106d15bdba,,,,,,,decisionTrl,resources/DR.BMP,resources/DP.BMP,Door2,-0.287962963,-0.012962963,1,0,0,0.5942,optionLeft,40,1810,1,37,0,37,0,1,,,,,,,,,,,,,,,,,,,,,,,,,,,,,,,,,,,,,,,
,,,,,,,,2023-08-06_08h20.24.098,HF_wild_card,2022.2.4,Win32,60.02040694,5c6b23a6076e4e0001292f53,64ce5acb97489d65b14ecc7a,64cf49a9e48222106d15bdba,,,,,,,ctch,resources/DB.BMP,resources/DG.BMP,Door1,-0.341666667,0.006481481,1,0,0,1.114,optionLeft,30,1840,1,38,0,38,0,1,,,,,,,,,,,,,,,,,,,,,,,,,,,,,,,,,,,,,,,
,,,,,,,,2023-08-06_08h20.24.098,HF_wild_card,2022.2.4,Win32,60.02040694,5c6b23a6076e4e0001292f53,64ce5acb97489d65b14ecc7a,64cf49a9e48222106d15bdba,,,,,,,decisionTrl,resources/DB.BMP,resources/DP.BMP,Door1,-0.388888889,-0.00462963,1,0,0,0.7468,optionLeft,30,1870,1,39,0,39,0,1,,,,,,,,,,,,,,,,,,,,,,,,,,,,,,,,,,,,,,,
,,,,,,,,2023-08-06_08h20.24.098,HF_wild_card,2022.2.4,Win32,60.02040694,5c6b23a6076e4e0001292f53,64ce5acb97489d65b14ecc7a,64cf49a9e48222106d15bdba,,,,,,,decisionTrl,resources/DP.BMP,resources/DBN.BMP,Door3,0.468518519,0.047222222,1,0,0,1.4975,optionRight,70,1940,1,40,0,40,0,1,,,,,,,,,,,,,,,,,,,,,,,,,,,,,,,,,,,,,,,
,,,,,,,,2023-08-06_08h20.24.098,HF_wild_card,2022.2.4,Win32,60.02040694,5c6b23a6076e4e0001292f53,64ce5acb97489d65b14ecc7a,64cf49a9e48222106d15bdba,,,,,,,sngl,resources/DBN.BMP,resources/Empty.png,Door3,-0.386111111,0.025,1,0,0,0.5799,optionLeft,70,2010,1,41,0,41,0,1,,,,,,,,,,,,,,,,,,,,,,,,,,,,,,,,,,,,,,,
,,,,,,,,2023-08-06_08h20.24.098,HF_wild_card,2022.2.4,Win32,60.02040694,5c6b23a6076e4e0001292f53,64ce5acb97489d65b14ecc7a,64cf49a9e48222106d15bdba,,,,,,,ctch,resources/DBN.BMP,resources/DR.BMP,Door3,-0.315740741,-0.00462963,1,0,0,0.6243,optionLeft,70,2080,1,42,0,42,0,1,,,,,,,,,,,,,,,,,,,,,,,,,,,,,,,,,,,,,,,
,,,,,,,,2023-08-06_08h20.24.098,HF_wild_card,2022.2.4,Win32,60.02040694,5c6b23a6076e4e0001292f53,64ce5acb97489d65b14ecc7a,64cf49a9e48222106d15bdba,,,,,,,sngl,resources/Empty.png,resources/DBN.BMP,Door3,0.308333333,0.001851852,1,0,0,0.6303,optionRight,70,2150,1,43,0,43,0,1,,,,,,,,,,,,,,,,,,,,,,,,,,,,,,,,,,,,,,,
,,,,,,,,2023-08-06_08h20.24.098,HF_wild_card,2022.2.4,Win32,60.02040694,5c6b23a6076e4e0001292f53,64ce5acb97489d65b14ecc7a,64cf49a9e48222106d15bdba,,,,,,,,,,,,,,,,,,,,,,,,,,0,0,0,0,1,,,,,,,,,,,,,,,,,,,,,,,,,,,,,,,,,,
,,,,,,,,2023-08-06_08h20.24.098,HF_wild_card,2022.2.4,Win32,60.02040694,5c6b23a6076e4e0001292f53,64ce5acb97489d65b14ecc7a,64cf49a9e48222106d15bdba,,,,,,,decisionTrl,resources/DG.BMP,resources/DP.BMP,Door4,-0.25462963,0.011111111,1,0,0,2.0562,optionLeft,80,2230,2,0,0,0,0,1,,,,,,,,,,,,,,,,,,,,,,,,,,,,,,,,,,,,,,,
,,,,,,,,2023-08-06_08h20.24.098,HF_wild_card,2022.2.4,Win32,60.02040694,5c6b23a6076e4e0001292f53,64ce5acb97489d65b14ecc7a,64cf49a9e48222106d15bdba,,,,,,,decisionTrl,resources/DB.BMP,resources/DR.BMP,Door1,-0.291666667,0.02037037,1,0,0,0.7608,optionLeft,30,2260,2,1,0,1,0,1,,,,,,,,,,,,,,,,,,,,,,,,,,,,,,,,,,,,,,,
,,,,,,,,2023-08-06_08h20.24.098,HF_wild_card,2022.2.4,Win32,60.02040694,5c6b23a6076e4e0001292f53,64ce5acb97489d65b14ecc7a,64cf49a9e48222106d15bdba,,,,,,,sngl,resources/Empty.png,resources/DR.BMP,Door2,0.273148148,0.012037037,1,0,0,0.5834,optionRight,40,2300,2,2,0,2,0,1,,,,,,,,,,,,,,,,,,,,,,,,,,,,,,,,,,,,,,,
,,,,,,,,2023-08-06_08h20.24.098,HF_wild_card,2022.2.4,Win32,60.02040694,5c6b23a6076e4e0001292f53,64ce5acb97489d65b14ecc7a,64cf49a9e48222106d15bdba,,,,,,,decisionTrl,resources/DBN.BMP,resources/DG.BMP,Door3,-0.165740741,0.007407407,1,0,0,0.8771,optionLeft,70,2370,2,3,0,3,0,1,,,,,,,,,,,,,,,,,,,,,,,,,,,,,,,,,,,,,,,
,,,,,,,,2023-08-06_08h20.24.098,HF_wild_card,2022.2.4,Win32,60.02040694,5c6b23a6076e4e0001292f53,64ce5acb97489d65b14ecc7a,64cf49a9e48222106d15bdba,,,,,,,sngl,resources/Empty.png,resources/DP.BMP,WildCard_NonEx,0.282407407,-0.025,1,0,0,0.7134,optionRight,55,2425,2,4,0,4,0,1,,,,,,,,,,,,,,,,,,,,,,,,,,,,,,,,,,,,,,,
,,,,,,,,2023-08-06_08h20.24.098,HF_wild_card,2022.2.4,Win32,60.02040694,5c6b23a6076e4e0001292f53,64ce5acb97489d65b14ecc7a,64cf49a9e48222106d15bdba,,,,,,,decisionTrl,resources/DR.BMP,resources/DB.BMP,Door1,0.265740741,-0.012962963,1,0,0,1.0216,optionRight,30,2455,2,5,0,5,0,1,,,,,,,,,,,,,,,,,,,,,,,,,,,,,,,,,,,,,,,
,,,,,,,,2023-08-06_08h20.24.098,HF_wild_card,2022.2.4,Win32,60.02040694,5c6b23a6076e4e0001292f53,64ce5acb97489d65b14ecc7a,64cf49a9e48222106d15bdba,,,,,,,decisionTrl,resources/DR.BMP,resources/DB.BMP,Door2,-0.34537037,0.015740741,1,0,0,0.5679,optionLeft,20,2475,2,6,0,6,0,1,,,,,,,,,,,,,,,,,,,,,,,,,,,,,,,,,,,,,,,
,,,,,,,,2023-08-06_08h20.24.098,HF_wild_card,2022.2.4,Win32,60.02040694,5c6b23a6076e4e0001292f53,64ce5acb97489d65b14ecc7a,64cf49a9e48222106d15bdba,,,,,,,decisionTrl,resources/DBN.BMP,resources/DP.BMP,Door3,-0.351851852,-0.012962963,1,0,0,0.6539,optionLeft,70,2545,2,7,0,7,0,1,,,,,,,,,,,,,,,,,,,,,,,,,,,,,,,,,,,,,,,
,,,,,,,,2023-08-06_08h20.24.098,HF_wild_card,2022.2.4,Win32,60.02040694,5c6b23a6076e4e0001292f53,64ce5acb97489d65b14ecc7a,64cf49a9e48222106d15bdba,,,,,,,sngl,resources/DBN.BMP,resources/Empty.png,Door3,-0.282407407,0.018518519,1,0,0,0.7401,optionLeft,70,2615,2,8,0,8,0,1,,,,,,,,,,,,,,,,,,,,,,,,,,,,,,,,,,,,,,,
,,,,,,,,2023-08-06_08h20.24.098,HF_wild_card,2022.2.4,Win32,60.02040694,5c6b23a6076e4e0001292f53,64ce5acb97489d65b14ecc7a,64cf49a9e48222106d15bdba,,,,,,,decisionTrl,resources/DP.BMP,resources/DR.BMP,WildCard_NonEx,-0.273148148,-0.001851852,1,0,0,1.3953,optionLeft,45,2660,2,9,0,9,0,1,,,,,,,,,,,,,,,,,,,,,,,,,,,,,,,,,,,,,,,
,,,,,,,,2023-08-06_08h20.24.098,HF_wild_card,2022.2.4,Win32,60.02040694,5c6b23a6076e4e0001292f53,64ce5acb97489d65b14ecc7a,64cf49a9e48222106d15bdba,,,,,,,decisionTrl,resources/DP.BMP,resources/DB.BMP,WildCard_NonEx,-0.205555556,0.011111111,1,0,0,2.1777,optionLeft,45,2705,2,10,0,10,0,1,,,,,,,,,,,,,,,,,,,,,,,,,,,,,,,,,,,,,,,
,,,,,,,,2023-08-06_08h20.24.098,HF_wild_card,2022.2.4,Win32,60.02040694,5c6b23a6076e4e0001292f53,64ce5acb97489d65b14ecc7a,64cf49a9e48222106d15bdba,,,,,,,decisionTrl,resources/DB.BMP,resources/DR.BMP,Door2,0.275,-0.006481481,1,0,0,1.8487,optionRight,20,2725,2,11,0,11,0,1,,,,,,,,,,,,,,,,,,,,,,,,,,,,,,,,,,,,,,,
,,,,,,,,2023-08-06_08h20.24.098,HF_wild_card,2022.2.4,Win32,60.02040694,5c6b23a6076e4e0001292f53,64ce5acb97489d65b14ecc7a,64cf49a9e48222106d15bdba,,,,,,,ctch,resources/DBN.BMP,resources/DR.BMP,Door3,-0.316666667,0.00462963,1,0,0,0.69,optionLeft,70,2795,2,12,0,12,0,1,,,,,,,,,,,,,,,,,,,,,,,,,,,,,,,,,,,,,,,
,,,,,,,,2023-08-06_08h20.24.098,HF_wild_card,2022.2.4,Win32,60.02040694,5c6b23a6076e4e0001292f53,64ce5acb97489d65b14ecc7a,64cf49a9e48222106d15bdba,,,,,,,ctch,resources/DB.BMP,resources/DG.BMP,Door1,-0.27962963,0.005555556,1,0,0,0.7933,optionLeft,30,2825,2,13,0,13,0,1,,,,,,,,,,,,,,,,,,,,,,,,,,,,,,,,,,,,,,,
,,,,,,,,2023-08-06_08h20.24.098,HF_wild_card,2022.2.4,Win32,60.02040694,5c6b23a6076e4e0001292f53,64ce5acb97489d65b14ecc7a,64cf49a9e48222106d15bdba,,,,,,,sngl,resources/Empty.png,resources/DG.BMP,Door4,0.217592593,0.009259259,1,0,0,1.2378,optionRight,80,2905,2,14,0,14,0,1,,,,,,,,,,,,,,,,,,,,,,,,,,,,,,,,,,,,,,,
,,,,,,,,2023-08-06_08h20.24.098,HF_wild_card,2022.2.4,Win32,60.02040694,5c6b23a6076e4e0001292f53,64ce5acb97489d65b14ecc7a,64cf49a9e48222106d15bdba,,,,,,,sngl,resources/DR.BMP,resources/Empty.png,Door2,-0.253703704,0.003703704,1,0,0,1.1974,optionLeft,20,2925,2,15,0,15,0,1,,,,,,,,,,,,,,,,,,,,,,,,,,,,,,,,,,,,,,,
,,,,,,,,2023-08-06_08h20.24.098,HF_wild_card,2022.2.4,Win32,60.02040694,5c6b23a6076e4e0001292f53,64ce5acb97489d65b14ecc7a,64cf49a9e48222106d15bdba,,,,,,,ctch,resources/DG.BMP,resources/DB.BMP,Door4,-0.200925926,-0.003703704,1,0,0,1.4704,optionLeft,60,2985,2,16,0,16,0,1,,,,,,,,,,,,,,,,,,,,,,,,,,,,,,,,,,,,,,,
,,,,,,,,2023-08-06_08h20.24.098,HF_wild_card,2022.2.4,Win32,60.02040694,5c6b23a6076e4e0001292f53,64ce5acb97489d65b14ecc7a,64cf49a9e48222106d15bdba,,,,,,,decisionTrl,resources/DP.BMP,resources/DG.BMP,Door4,0.155555556,0.016666667,1,0,0,3.042,optionRight,80,3065,2,17,0,17,0,1,,,,,,,,,,,,,,,,,,,,,,,,,,,,,,,,,,,,,,,
,,,,,,,,2023-08-06_08h20.24.098,HF_wild_card,2022.2.4,Win32,60.02040694,5c6b23a6076e4e0001292f53,64ce5acb97489d65b14ecc7a,64cf49a9e48222106d15bdba,,,,,,,ctch,resources/DG.BMP,resources/DB.BMP,Door4,-0.359259259,0.032407407,1,0,0,0.824,optionLeft,80,3145,2,18,0,18,0,1,,,,,,,,,,,,,,,,,,,,,,,,,,,,,,,,,,,,,,,
,,,,,,,,2023-08-06_08h20.24.098,HF_wild_card,2022.2.4,Win32,60.02040694,5c6b23a6076e4e0001292f53,64ce5acb97489d65b14ecc7a,64cf49a9e48222106d15bdba,,,,,,,decisionTrl,resources/DG.BMP,resources/DBN.BMP,Door4,-0.206481481,0.025,1,0,0,2.082,optionLeft,60,3205,2,19,0,19,0,1,,,,,,,,,,,,,,,,,,,,,,,,,,,,,,,,,,,,,,,
,,,,,,,,2023-08-06_08h20.24.098,HF_wild_card,2022.2.4,Win32,60.02040694,5c6b23a6076e4e0001292f53,64ce5acb97489d65b14ecc7a,64cf49a9e48222106d15bdba,,,,,,,decisionTrl,resources/DB.BMP,resources/DP.BMP,WildCard_NonEx,0.262962963,0.002777778,1,0,0,6.8993,optionRight,45,3250,2,20,0,20,0,1,,,,,,,,,,,,,,,,,,,,,,,,,,,,,,,,,,,,,,,
,,,,,,,,2023-08-06_08h20.24.098,HF_wild_card,2022.2.4,Win32,60.02040694,5c6b23a6076e4e0001292f53,64ce5acb97489d65b14ecc7a,64cf49a9e48222106d15bdba,,,,,,,decisionTrl,resources/DB.BMP,resources/DR.BMP,Door1,-0.357407407,0.025925926,1,0,0,1.8115,optionLeft,30,3280,2,21,0,21,0,1,,,,,,,,,,,,,,,,,,,,,,,,,,,,,,,,,,,,,,,
,,,,,,,,2023-08-06_08h20.24.098,HF_wild_card,2022.2.4,Win32,60.02040694,5c6b23a6076e4e0001292f53,64ce5acb97489d65b14ecc7a,64cf49a9e48222106d15bdba,,,,,,,decisionTrl,resources/DR.BMP,resources/DB.BMP,Door1,0.376851852,-0.009259259,1,0,0,0.9262,optionRight,30,3310,2,22,0,22,0,1,,,,,,,,,,,,,,,,,,,,,,,,,,,,,,,,,,,,,,,
,,,,,,,,2023-08-06_08h20.24.098,HF_wild_card,2022.2.4,Win32,60.02040694,5c6b23a6076e4e0001292f53,64ce5acb97489d65b14ecc7a,64cf49a9e48222106d15bdba,,,,,,,sngl,resources/DG.BMP,resources/Empty.png,Door4,-0.307407407,-0.033333333,1,0,0,0.8949,optionLeft,60,3370,2,23,0,23,0,1,,,,,,,,,,,,,,,,,,,,,,,,,,,,,,,,,,,,,,,
,,,,,,,,2023-08-06_08h20.24.098,HF_wild_card,2022.2.4,Win32,60.02040694,5c6b23a6076e4e0001292f53,64ce5acb97489d65b14ecc7a,64cf49a9e48222106d15bdba,,,,,,,ctch,resources/DBN.BMP,resources/DR.BMP,Door3,-0.387037037,0.048148148,1,0,0,0.7069,optionLeft,70,3440,2,24,0,24,0,1,,,,,,,,,,,,,,,,,,,,,,,,,,,,,,,,,,,,,,,
,,,,,,,,2023-08-06_08h20.24.098,HF_wild_card,2022.2.4,Win32,60.02040694,5c6b23a6076e4e0001292f53,64ce5acb97489d65b14ecc7a,64cf49a9e48222106d15bdba,,,,,,,decisionTrl,resources/DBN.BMP,resources/DG.BMP,Door3,-0.348148148,0.038888889,1,0,0,0.8043,optionLeft,70,3510,2,25,0,25,0,1,,,,,,,,,,,,,,,,,,,,,,,,,,,,,,,,,,,,,,,
,,,,,,,,2023-08-06_08h20.24.098,HF_wild_card,2022.2.4,Win32,60.02040694,5c6b23a6076e4e0001292f53,64ce5acb97489d65b14ecc7a,64cf49a9e48222106d15bdba,,,,,,,decisionTrl,resources/DG.BMP,resources/DBN.BMP,Door3,0.323148148,0.013888889,1,0,0,0.7468,optionRight,70,3580,2,26,0,26,0,1,,,,,,,,,,,,,,,,,,,,,,,,,,,,,,,,,,,,,,,
,,,,,,,,2023-08-06_08h20.24.098,HF_wild_card,2022.2.4,Win32,60.02040694,5c6b23a6076e4e0001292f53,64ce5acb97489d65b14ecc7a,64cf49a9e48222106d15bdba,,,,,,,decisionTrl,resources/DBN.BMP,resources/DG.BMP,Door3,-0.233333333,0.046296296,1,0,0,8.3282,optionLeft,70,3650,2,27,0,27,0,1,,,,,,,,,,,,,,,,,,,,,,,,,,,,,,,,,,,,,,,
,,,,,,,,2023-08-06_08h20.24.098,HF_wild_card,2022.2.4,Win32,60.02040694,5c6b23a6076e4e0001292f53,64ce5acb97489d65b14ecc7a,64cf49a9e48222106d15bdba,,,,,,,decisionTrl,resources/DP.BMP,resources/DBN.BMP,Door3,0.530555556,-0.072222222,1,0,0,1.2079,optionRight,70,3720,2,28,0,28,0,1,,,,,,,,,,,,,,,,,,,,,,,,,,,,,,,,,,,,,,,
,,,,,,,,2023-08-06_08h20.24.098,HF_wild_card,2022.2.4,Win32,60.02040694,5c6b23a6076e4e0001292f53,64ce5acb97489d65b14ecc7a,64cf49a9e48222106d15bdba,,,,,,,ctch,resources/DR.BMP,resources/DBN.BMP,Door3,0.275,0.013888889,1,0,0,0.6714,optionRight,70,3790,2,29,0,29,0,1,,,,,,,,,,,,,,,,,,,,,,,,,,,,,,,,,,,,,,,
,,,,,,,,2023-08-06_08h20.24.098,HF_wild_card,2022.2.4,Win32,60.02040694,5c6b23a6076e4e0001292f53,64ce5acb97489d65b14ecc7a,64cf49a9e48222106d15bdba,,,,,,,ctch,resources/DR.BMP,resources/DBN.BMP,Door3,0.289814815,0.005555556,1,0,0,0.6501,optionRight,70,3860,2,30,0,30,0,1,,,,,,,,,,,,,,,,,,,,,,,,,,,,,,,,,,,,,,,
,,,,,,,,2023-08-06_08h20.24.098,HF_wild_card,2022.2.4,Win32,60.02040694,5c6b23a6076e4e0001292f53,64ce5acb97489d65b14ecc7a,64cf49a9e48222106d15bdba,,,,,,,ctch,resources/DB.BMP,resources/DG.BMP,Door4,0.293518519,-0.000925926,1,0,0,1.7484,optionRight,80,3940,2,31,0,31,0,1,,,,,,,,,,,,,,,,,,,,,,,,,,,,,,,,,,,,,,,
,,,,,,,,2023-08-06_08h20.24.098,HF_wild_card,2022.2.4,Win32,60.02040694,5c6b23a6076e4e0001292f53,64ce5acb97489d65b14ecc7a,64cf49a9e48222106d15bdba,,,,,,,decisionTrl,resources/DR.BMP,resources/DP.BMP,Door2,-0.263888889,-0.05,1,0,0,1.0468,optionLeft,40,3980,2,32,0,32,0,1,,,,,,,,,,,,,,,,,,,,,,,,,,,,,,,,,,,,,,,
,,,,,,,,2023-08-06_08h20.24.098,HF_wild_card,2022.2.4,Win32,60.02040694,5c6b23a6076e4e0001292f53,64ce5acb97489d65b14ecc7a,64cf49a9e48222106d15bdba,,,,,,,decisionTrl,resources/DBN.BMP,resources/DG.BMP,Door3,-0.287037037,-0.05,1,0,0,0.7055,optionLeft,70,4050,2,33,0,33,0,1,,,,,,,,,,,,,,,,,,,,,,,,,,,,,,,,,,,,,,,
,,,,,,,,2023-08-06_08h20.24.098,HF_wild_card,2022.2.4,Win32,60.02040694,5c6b23a6076e4e0001292f53,64ce5acb97489d65b14ecc7a,64cf49a9e48222106d15bdba,,,,,,,decisionTrl,resources/DG.BMP,resources/DBN.BMP,Door3,0.333333333,-0.037037037,1,0,0,1.4151,optionRight,70,4120,2,34,0,34,0,1,,,,,,,,,,,,,,,,,,,,,,,,,,,,,,,,,,,,,,,
,,,,,,,,2023-08-06_08h20.24.098,HF_wild_card,2022.2.4,Win32,60.02040694,5c6b23a6076e4e0001292f53,64ce5acb97489d65b14ecc7a,64cf49a9e48222106d15bdba,,,,,,,decisionTrl,resources/DB.BMP,resources/DR.BMP,Door1,-0.27037037,-0.073148148,1,0,0,2.0405,optionLeft,30,4150,2,35,0,35,0,1,,,,,,,,,,,,,,,,,,,,,,,,,,,,,,,,,,,,,,,
,,,,,,,,2023-08-06_08h20.24.098,HF_wild_card,2022.2.4,Win32,60.02040694,5c6b23a6076e4e0001292f53,64ce5acb97489d65b14ecc7a,64cf49a9e48222106d15bdba,,,,,,,sngl,resources/Empty.png,resources/DB.BMP,Door1,0.50462963,-0.035185185,1,0,0,1.1498,optionRight,30,4180,2,36,0,36,0,1,,,,,,,,,,,,,,,,,,,,,,,,,,,,,,,,,,,,,,,
,,,,,,,,2023-08-06_08h20.24.098,HF_wild_card,2022.2.4,Win32,60.02040694,5c6b23a6076e4e0001292f53,64ce5acb97489d65b14ecc7a,64cf49a9e48222106d15bdba,,,,,,,decisionTrl,resources/DG.BMP,resources/DBN.BMP,Door4,-0.250925926,-0.053703704,1,0,0,5.1704,optionLeft,80,4260,2,37,0,37,0,1,,,,,,,,,,,,,,,,,,,,,,,,,,,,,,,,,,,,,,,
,,,,,,,,2023-08-06_08h20.24.098,HF_wild_card,2022.2.4,Win32,60.02040694,5c6b23a6076e4e0001292f53,64ce5acb97489d65b14ecc7a,64cf49a9e48222106d15bdba,,,,,,,sngl,resources/DP.BMP,resources/Empty.png,WildCard_NonEx,-0.325,-0.025925926,1,0,0,1.2715,optionLeft,45,4305,2,38,0,38,0,1,,,,,,,,,,,,,,,,,,,,,,,,,,,,,,,,,,,,,,,
,,,,,,,,2023-08-06_08h20.24.098,HF_wild_card,2022.2.4,Win32,60.02040694,5c6b23a6076e4e0001292f53,64ce5acb97489d65b14ecc7a,64cf49a9e48222106d15bdba,,,,,,,sngl,resources/Empty.png,resources/DBN.BMP,Door3,0.326851852,-0.024074074,1,0,0,0.7205,optionRight,70,4375,2,39,0,39,0,1,,,,,,,,,,,,,,,,,,,,,,,,,,,,,,,,,,,,,,,
,,,,,,,,2023-08-06_08h20.24.098,HF_wild_card,2022.2.4,Win32,60.02040694,5c6b23a6076e4e0001292f53,64ce5acb97489d65b14ecc7a,64cf49a9e48222106d15bdba,,,,,,,decisionTrl,resources/DR.BMP,resources/DB.BMP,Door2,-0.210185185,-0.009259259,1,0,0,3.3589,optionLeft,20,4395,2,40,0,40,0,1,,,,,,,,,,,,,,,,,,,,,,,,,,,,,,,,,,,,,,,
,,,,,,,,2023-08-06_08h20.24.098,HF_wild_card,2022.2.4,Win32,60.02040694,5c6b23a6076e4e0001292f53,64ce5acb97489d65b14ecc7a,64cf49a9e48222106d15bdba,,,,,,,sngl,resources/DB.BMP,resources/Empty.png,Door1,-0.259259259,0.00462963,1,0,0,1.8769,optionLeft,30,4425,2,41,0,41,0,1,,,,,,,,,,,,,,,,,,,,,,,,,,,,,,,,,,,,,,,
,,,,,,,,2023-08-06_08h20.24.098,HF_wild_card,2022.2.4,Win32,60.02040694,5c6b23a6076e4e0001292f53,64ce5acb97489d65b14ecc7a,64cf49a9e48222106d15bdba,,,,,,,sngl,resources/Empty.png,resources/DP.BMP,WildCard_NonEx,0.350925926,0.014814815,1,0,0,1.5803,optionRight,45,4470,2,42,0,42,0,1,,,,,,,,,,,,,,,,,,,,,,,,,,,,,,,,,,,,,,,
,,,,,,,,2023-08-06_08h20.24.098,HF_wild_card,2022.2.4,Win32,60.02040694,5c6b23a6076e4e0001292f53,64ce5acb97489d65b14ecc7a,64cf49a9e48222106d15bdba,,,,,,,sngl,resources/DP.BMP,resources/Empty.png,WildCard_NonEx,-0.333333333,-0.026851852,1,0,0,0.9872,optionLeft,55,4525,2,43,0,43,0,1,,,,,,,,,,,,,,,,,,,,,,,,,,,,,,,,,,,,,,,
,,,,,,,,2023-08-06_08h20.24.098,HF_wild_card,2022.2.4,Win32,60.02040694,5c6b23a6076e4e0001292f53,64ce5acb97489d65b14ecc7a,64cf49a9e48222106d15bdba,,,,,,,,,,,,,,,,,,,,,,,,,,1,0,1,0,1,,,,,,,,,,,,,,,,,,,,,,,,,,,,,,,,,,
,,,,,,,,2023-08-06_08h20.24.098,HF_wild_card,2022.2.4,Win32,60.02040694,5c6b23a6076e4e0001292f53,64ce5acb97489d65b14ecc7a,64cf49a9e48222106d15bdba,,,,,,,decisionTrl,resources/DBN.BMP,resources/DG.BMP,Door3,-0.386111111,-0.061111111,1,0,0,0.9939,optionLeft,70,4595,3,0,0,0,0,1,,,,,,,,,,,,,,,,,,,,,,,,,,,,,,,,,,,,,,,
,,,,,,,,2023-08-06_08h20.24.098,HF_wild_card,2022.2.4,Win32,60.02040694,5c6b23a6076e4e0001292f53,64ce5acb97489d65b14ecc7a,64cf49a9e48222106d15bdba,,,,,,,decisionTrl,resources/DB.BMP,resources/DR.BMP,Door2,0.359259259,-0.055555556,1,0,0,3.1281,optionRight,20,4615,3,1,0,1,0,1,,,,,,,,,,,,,,,,,,,,,,,,,,,,,,,,,,,,,,,
,,,,,,,,2023-08-06_08h20.24.098,HF_wild_card,2022.2.4,Win32,60.02040694,5c6b23a6076e4e0001292f53,64ce5acb97489d65b14ecc7a,64cf49a9e48222106d15bdba,,,,,,,sngl,resources/DR.BMP,resources/Empty.png,Door2,-0.272222222,-0.053703704,1,0,0,0.8473,optionLeft,40,4655,3,2,0,2,0,1,,,,,,,,,,,,,,,,,,,,,,,,,,,,,,,,,,,,,,,
,,,,,,,,2023-08-06_08h20.24.098,HF_wild_card,2022.2.4,Win32,60.02040694,5c6b23a6076e4e0001292f53,64ce5acb97489d65b14ecc7a,64cf49a9e48222106d15bdba,,,,,,,sngl,resources/Empty.png,resources/DG.BMP,Door4,0.45462963,-0.032407407,1,0,0,1.4935,optionRight,60,4715,3,3,0,3,0,1,,,,,,,,,,,,,,,,,,,,,,,,,,,,,,,,,,,,,,,
,,,,,,,,2023-08-06_08h20.24.098,HF_wild_card,2022.2.4,Win32,60.02040694,5c6b23a6076e4e0001292f53,64ce5acb97489d65b14ecc7a,64cf49a9e48222106d15bdba,,,,,,,decisionTrl,resources/DBN.BMP,resources/DP.BMP,Door3,-0.382407407,0.002777778,1,0,0,0.6939,optionLeft,70,4785,3,4,0,4,0,1,,,,,,,,,,,,,,,,,,,,,,,,,,,,,,,,,,,,,,,
,,,,,,,,2023-08-06_08h20.24.098,HF_wild_card,2022.2.4,Win32,60.02040694,5c6b23a6076e4e0001292f53,64ce5acb97489d65b14ecc7a,64cf49a9e48222106d15bdba,,,,,,,decisionTrl,resources/DG.BMP,resources/DP.BMP,Door4,-0.406481481,-0.014814815,1,0,0,2.2449,optionLeft,80,4865,3,5,0,5,0,1,,,,,,,,,,,,,,,,,,,,,,,,,,,,,,,,,,,,,,,
,,,,,,,,2023-08-06_08h20.24.098,HF_wild_card,2022.2.4,Win32,60.02040694,5c6b23a6076e4e0001292f53,64ce5acb97489d65b14ecc7a,64cf49a9e48222106d15bdba,,,,,,,decisionTrl,resources/DR.BMP,resources/DB.BMP,Door2,-0.238888889,-0.066666667,1,0,0,5.8133,optionLeft,40,4905,3,6,0,6,0,1,,,,,,,,,,,,,,,,,,,,,,,,,,,,,,,,,,,,,,,
,,,,,,,,2023-08-06_08h20.24.098,HF_wild_card,2022.2.4,Win32,60.02040694,5c6b23a6076e4e0001292f53,64ce5acb97489d65b14ecc7a,64cf49a9e48222106d15bdba,,,,,,,ctch,resources/DR.BMP,resources/DBN.BMP,Door3,0.42962963,-0.02037037,1,0,0,0.9452,optionRight,70,4975,3,7,0,7,0,1,,,,,,,,,,,,,,,,,,,,,,,,,,,,,,,,,,,,,,,
,,,,,,,,2023-08-06_08h20.24.098,HF_wild_card,2022.2.4,Win32,60.02040694,5c6b23a6076e4e0001292f53,64ce5acb97489d65b14ecc7a,64cf49a9e48222106d15bdba,,,,,,,decisionTrl,resources/DBN.BMP,resources/DG.BMP,Door3,-0.215740741,-0.012962963,1,0,0,2.8497,optionLeft,70,5045,3,8,0,8,0,1,,,,,,,,,,,,,,,,,,,,,,,,,,,,,,,,,,,,,,,
,,,,,,,,2023-08-06_08h20.24.098,HF_wild_card,2022.2.4,Win32,60.02040694,5c6b23a6076e4e0001292f53,64ce5acb97489d65b14ecc7a,64cf49a9e48222106d15bdba,,,,,,,decisionTrl,resources/DR.BMP,resources/DP.BMP,WildCard_NonEx,0.212037037,-0.015740741,1,0,0,3.7915,optionRight,45,5090,3,9,0,9,0,1,,,,,,,,,,,,,,,,,,,,,,,,,,,,,,,,,,,,,,,
,,,,,,,,2023-08-06_08h20.24.098,HF_wild_card,2022.2.4,Win32,60.02040694,5c6b23a6076e4e0001292f53,64ce5acb97489d65b14ecc7a,64cf49a9e48222106d15bdba,,,,,,,sngl,resources/Empty.png,resources/DBN.BMP,Door3,0.322222222,-0.009259259,1,0,0,0.6289,optionRight,70,5160,3,10,0,10,0,1,,,,,,,,,,,,,,,,,,,,,,,,,,,,,,,,,,,,,,,
,,,,,,,,2023-08-06_08h20.24.098,HF_wild_card,2022.2.4,Win32,60.02040694,5c6b23a6076e4e0001292f53,64ce5acb97489d65b14ecc7a,64cf49a9e48222106d15bdba,,,,,,,decisionTrl,resources/DP.BMP,resources/DG.BMP,Door4,0.362037037,-0.015740741,1,0,0,4.801,optionRight,80,5240,3,11,0,11,0,1,,,,,,,,,,,,,,,,,,,,,,,,,,,,,,,,,,,,,,,
,,,,,,,,2023-08-06_08h20.24.098,HF_wild_card,2022.2.4,Win32,60.02040694,5c6b23a6076e4e0001292f53,64ce5acb97489d65b14ecc7a,64cf49a9e48222106d15bdba,,,,,,,sngl,resources/Empty.png,resources/DB.BMP,Door1,0.324074074,-0.00462963,1,0,0,1.3144,optionRight,30,5270,3,12,0,12,0,1,,,,,,,,,,,,,,,,,,,,,,,,,,,,,,,,,,,,,,,
,,,,,,,,2023-08-06_08h20.24.098,HF_wild_card,2022.2.4,Win32,60.02040694,5c6b23a6076e4e0001292f53,64ce5acb97489d65b14ecc7a,64cf49a9e48222106d15bdba,,,,,,,ctch,resources/DR.BMP,resources/DBN.BMP,Door3,0.478703704,-0.039814815,1,0,0,1.3558,optionRight,70,5340,3,13,0,13,0,1,,,,,,,,,,,,,,,,,,,,,,,,,,,,,,,,,,,,,,,
,,,,,,,,2023-08-06_08h20.24.098,HF_wild_card,2022.2.4,Win32,60.02040694,5c6b23a6076e4e0001292f53,64ce5acb97489d65b14ecc7a,64cf49a9e48222106d15bdba,,,,,,,sngl,resources/DB.BMP,resources/Empty.png,Door1,-0.228703704,-0.012962963,1,0,0,0.6736,optionLeft,30,5370,3,14,0,14,0,1,,,,,,,,,,,,,,,,,,,,,,,,,,,,,,,,,,,,,,,
,,,,,,,,2023-08-06_08h20.24.098,HF_wild_card,2022.2.4,Win32,60.02040694,5c6b23a6076e4e0001292f53,64ce5acb97489d65b14ecc7a,64cf49a9e48222106d15bdba,,,,,,,decisionTrl,resources/DG.BMP,resources/DBN.BMP,Door3,0.325925926,0.001851852,1,0,0,0.815,optionRight,70,5440,3,15,0,15,0,1,,,,,,,,,,,,,,,,,,,,,,,,,,,,,,,,,,,,,,,
,,,,,,,,2023-08-06_08h20.24.098,HF_wild_card,2022.2.4,Win32,60.02040694,5c6b23a6076e4e0001292f53,64ce5acb97489d65b14ecc7a,64cf49a9e48222106d15bdba,,,,,,,decisionTrl,resources/DB.BMP,resources/DR.BMP,Door2,0.323148148,-0.036111111,1,0,0,3.1148,optionRight,20,5460,3,16,0,16,0,1,,,,,,,,,,,,,,,,,,,,,,,,,,,,,,,,,,,,,,,
,,,,,,,,2023-08-06_08h20.24.098,HF_wild_card,2022.2.4,Win32,60.02040694,5c6b23a6076e4e0001292f53,64ce5acb97489d65b14ecc7a,64cf49a9e48222106d15bdba,,,,,,,decisionTrl,resources/DB.BMP,resources/DP.BMP,WildCard_NonEx,0.237037037,-0.052777778,1,0,0,3.0839,optionRight,55,5515,3,17,0,17,0,1,,,,,,,,,,,,,,,,,,,,,,,,,,,,,,,,,,,,,,,
,,,,,,,,2023-08-06_08h20.24.098,HF_wild_card,2022.2.4,Win32,60.02040694,5c6b23a6076e4e0001292f53,64ce5acb97489d65b14ecc7a,64cf49a9e48222106d15bdba,,,,,,,ctch,resources/DB.BMP,resources/DG.BMP,Door4,0.350925926,-0.026851852,1,0,0,3.9582,optionRight,80,5595,3,18,0,18,0,1,,,,,,,,,,,,,,,,,,,,,,,,,,,,,,,,,,,,,,,
,,,,,,,,2023-08-06_08h20.24.098,HF_wild_card,2022.2.4,Win32,60.02040694,5c6b23a6076e4e0001292f53,64ce5acb97489d65b14ecc7a,64cf49a9e48222106d15bdba,,,,,,,ctch,resources/DB.BMP,resources/DG.BMP,Door4,0.509259259,-0.016666667,1,0,0,0.7143,optionRight,80,5675,3,19,0,19,0,1,,,,,,,,,,,,,,,,,,,,,,,,,,,,,,,,,,,,,,,
,,,,,,,,2023-08-06_08h20.24.098,HF_wild_card,2022.2.4,Win32,60.02040694,5c6b23a6076e4e0001292f53,64ce5acb97489d65b14ecc7a,64cf49a9e48222106d15bdba,,,,,,,decisionTrl,resources/DP.BMP,resources/DB.BMP,WildCard_NonEx,-0.321296296,-0.072222222,1,0,0,2.3918,optionLeft,45,5720,3,20,0,20,0,1,,,,,,,,,,,,,,,,,,,,,,,,,,,,,,,,,,,,,,,
,,,,,,,,2023-08-06_08h20.24.098,HF_wild_card,2022.2.4,Win32,60.02040694,5c6b23a6076e4e0001292f53,64ce5acb97489d65b14ecc7a,64cf49a9e48222106d15bdba,,,,,,,decisionTrl,resources/DP.BMP,resources/DR.BMP,WildCard_NonEx,-0.263888889,0.001851852,1,0,0,2.0728,optionLeft,55,5775,3,21,0,21,0,1,,,,,,,,,,,,,,,,,,,,,,,,,,,,,,,,,,,,,,,
,,,,,,,,2023-08-06_08h20.24.098,HF_wild_card,2022.2.4,Win32,60.02040694,5c6b23a6076e4e0001292f53,64ce5acb97489d65b14ecc7a,64cf49a9e48222106d15bdba,,,,,,,sngl,resources/DP.BMP,resources/Empty.png,WildCard_NonEx,-0.236111111,0.005555556,1,0,0,0.8754,optionLeft,55,5830,3,22,0,22,0,1,,,,,,,,,,,,,,,,,,,,,,,,,,,,,,,,,,,,,,,
,,,,,,,,2023-08-06_08h20.24.098,HF_wild_card,2022.2.4,Win32,60.02040694,5c6b23a6076e4e0001292f53,64ce5acb97489d65b14ecc7a,64cf49a9e48222106d15bdba,,,,,,,ctch,resources/DG.BMP,resources/DB.BMP,Door4,-0.242592593,0.006481481,1,0,0,2.0664,optionLeft,80,5910,3,23,0,23,0,1,,,,,,,,,,,,,,,,,,,,,,,,,,,,,,,,,,,,,,,
,,,,,,,,2023-08-06_08h20.24.098,HF_wild_card,2022.2.4,Win32,60.02040694,5c6b23a6076e4e0001292f53,64ce5acb97489d65b14ecc7a,64cf49a9e48222106d15bdba,,,,,,,ctch,resources/DBN.BMP,resources/DR.BMP,Door3,-0.284259259,0.010185185,1,0,0,0.7394,optionLeft,70,5980,3,24,0,24,0,1,,,,,,,,,,,,,,,,,,,,,,,,,,,,,,,,,,,,,,,
,,,,,,,,2023-08-06_08h20.24.098,HF_wild_card,2022.2.4,Win32,60.02040694,5c6b23a6076e4e0001292f53,64ce5acb97489d65b14ecc7a,64cf49a9e48222106d15bdba,,,,,,,ctch,resources/DBN.BMP,resources/DR.BMP,Door3,-0.281481481,0.021296296,1,0,0,0.6834,optionLeft,70,6050,3,25,0,25,0,1,,,,,,,,,,,,,,,,,,,,,,,,,,,,,,,,,,,,,,,
,,,,,,,,2023-08-06_08h20.24.098,HF_wild_card,2022.2.4,Win32,60.02040694,5c6b23a6076e4e0001292f53,64ce5acb97489d65b14ecc7a,64cf49a9e48222106d15bdba,,,,,,,decisionTrl,resources/DBN.BMP,resources/DG.BMP,Door3,-0.298148148,-0.005555556,1,0,0,0.7246,optionLeft,70,6120,3,26,0,26,0,1,,,,,,,,,,,,,,,,,,,,,,,,,,,,,,,,,,,,,,,
,,,,,,,,2023-08-06_08h20.24.098,HF_wild_card,2022.2.4,Win32,60.02040694,5c6b23a6076e4e0001292f53,64ce5acb97489d65b14ecc7a,64cf49a9e48222106d15bdba,,,,,,,sngl,resources/DBN.BMP,resources/Empty.png,Door3,-0.212962963,0.011111111,1,0,0,0.632,optionLeft,70,6190,3,27,0,27,0,1,,,,,,,,,,,,,,,,,,,,,,,,,,,,,,,,,,,,,,,
,,,,,,,,2023-08-06_08h20.24.098,HF_wild_card,2022.2.4,Win32,60.02040694,5c6b23a6076e4e0001292f53,64ce5acb97489d65b14ecc7a,64cf49a9e48222106d15bdba,,,,,,,decisionTrl,resources/DR.BMP,resources/DB.BMP,Door1,0.314814815,0.007407407,1,0,0,2.2217,optionRight,30,6220,3,28,0,28,0,1,,,,,,,,,,,,,,,,,,,,,,,,,,,,,,,,,,,,,,,
,,,,,,,,2023-08-06_08h20.24.098,HF_wild_card,2022.2.4,Win32,60.02040694,5c6b23a6076e4e0001292f53,64ce5acb97489d65b14ecc7a,64cf49a9e48222106d15bdba,,,,,,,decisionTrl,resources/DG.BMP,resources/DBN.BMP,Door3,0.439814815,0.037037037,1,0,0,0.8555,optionRight,70,6290,3,29,0,29,0,1,,,,,,,,,,,,,,,,,,,,,,,,,,,,,,,,,,,,,,,
,,,,,,,,2023-08-06_08h20.24.098,HF_wild_card,2022.2.4,Win32,60.02040694,5c6b23a6076e4e0001292f53,64ce5acb97489d65b14ecc7a,64cf49a9e48222106d15bdba,,,,,,,decisionTrl,resources/DG.BMP,resources/DBN.BMP,Door4,-0.222222222,-0.015740741,1,0,0,0.8262,optionLeft,80,6370,3,30,0,30,0,1,,,,,,,,,,,,,,,,,,,,,,,,,,,,,,,,,,,,,,,
,,,,,,,,2023-08-06_08h20.24.098,HF_wild_card,2022.2.4,Win32,60.02040694,5c6b23a6076e4e0001292f53,64ce5acb97489d65b14ecc7a,64cf49a9e48222106d15bdba,,,,,,,decisionTrl,resources/DBN.BMP,resources/DG.BMP,Door4,0.462962963,-0.037962963,1,0,0,1.4205,optionRight,80,6450,3,31,0,31,0,1,,,,,,,,,,,,,,,,,,,,,,,,,,,,,,,,,,,,,,,
,,,,,,,,2023-08-06_08h20.24.098,HF_wild_card,2022.2.4,Win32,60.02040694,5c6b23a6076e4e0001292f53,64ce5acb97489d65b14ecc7a,64cf49a9e48222106d15bdba,,,,,,,sngl,resources/DP.BMP,resources/Empty.png,WildCard_NonEx,-0.230555556,-0.049074074,1,0,0,1.0545,optionLeft,45,6495,3,32,0,32,0,1,,,,,,,,,,,,,,,,,,,,,,,,,,,,,,,,,,,,,,,
,,,,,,,,2023-08-06_08h20.24.098,HF_wild_card,2022.2.4,Win32,60.02040694,5c6b23a6076e4e0001292f53,64ce5acb97489d65b14ecc7a,64cf49a9e48222106d15bdba,,,,,,,decisionTrl,resources/DR.BMP,resources/DB.BMP,Door2,-0.334259259,-0.039814815,1,0,0,1.5238,optionLeft,40,6535,3,33,0,33,0,1,,,,,,,,,,,,,,,,,,,,,,,,,,,,,,,,,,,,,,,
,,,,,,,,2023-08-06_08h20.24.098,HF_wild_card,2022.2.4,Win32,60.02040694,5c6b23a6076e4e0001292f53,64ce5acb97489d65b14ecc7a,64cf49a9e48222106d15bdba,,,,,,,decisionTrl,resources/DR.BMP,resources/DB.BMP,Door1,0.399074074,-0.010185185,1,0,0,1.265,optionRight,30,6565,3,34,0,34,0,1,,,,,,,,,,,,,,,,,,,,,,,,,,,,,,,,,,,,,,,
,,,,,,,,2023-08-06_08h20.24.098,HF_wild_card,2022.2.4,Win32,60.02040694,5c6b23a6076e4e0001292f53,64ce5acb97489d65b14ecc7a,64cf49a9e48222106d15bdba,,,,,,,sngl,resources/Empty.png,resources/DP.BMP,WildCard_NonEx,0.397222222,-0.032407407,1,0,0,0.7462,optionRight,45,6610,3,35,0,35,0,1,,,,,,,,,,,,,,,,,,,,,,,,,,,,,,,,,,,,,,,
,,,,,,,,2023-08-06_08h20.24.098,HF_wild_card,2022.2.4,Win32,60.02040694,5c6b23a6076e4e0001292f53,64ce5acb97489d65b14ecc7a,64cf49a9e48222106d15bdba,,,,,,,ctch,resources/DG.BMP,resources/DB.BMP,Door4,-0.248148148,-0.015740741,1,0,0,2.5816,optionLeft,60,6670,3,36,0,36,0,1,,,,,,,,,,,,,,,,,,,,,,,,,,,,,,,,,,,,,,,
,,,,,,,,2023-08-06_08h20.24.098,HF_wild_card,2022.2.4,Win32,60.02040694,5c6b23a6076e4e0001292f53,64ce5acb97489d65b14ecc7a,64cf49a9e48222106d15bdba,,,,,,,decisionTrl,resources/DB.BMP,resources/DR.BMP,Door1,-0.273148148,-0.014814815,1,0,0,1.7324,optionLeft,30,6700,3,37,0,37,0,1,,,,,,,,,,,,,,,,,,,,,,,,,,,,,,,,,,,,,,,
,,,,,,,,2023-08-06_08h20.24.098,HF_wild_card,2022.2.4,Win32,60.02040694,5c6b23a6076e4e0001292f53,64ce5acb97489d65b14ecc7a,64cf49a9e48222106d15bdba,,,,,,,sngl,resources/Empty.png,resources/DR.BMP,Door2,0.362037037,-0.006481481,1,0,0,0.6166,optionRight,20,6720,3,38,0,38,0,1,,,,,,,,,,,,,,,,,,,,,,,,,,,,,,,,,,,,,,,
,,,,,,,,2023-08-06_08h20.24.098,HF_wild_card,2022.2.4,Win32,60.02040694,5c6b23a6076e4e0001292f53,64ce5acb97489d65b14ecc7a,64cf49a9e48222106d15bdba,,,,,,,sngl,resources/DG.BMP,resources/Empty.png,Door4,-0.215740741,-0.024074074,1,0,0,0.9325,optionLeft,80,6800,3,39,0,39,0,1,,,,,,,,,,,,,,,,,,,,,,,,,,,,,,,,,,,,,,,
,,,,,,,,2023-08-06_08h20.24.098,HF_wild_card,2022.2.4,Win32,60.02040694,5c6b23a6076e4e0001292f53,64ce5acb97489d65b14ecc7a,64cf49a9e48222106d15bdba,,,,,,,sngl,resources/Empty.png,resources/DP.BMP,WildCard_NonEx,0.292592593,-0.00462963,1,0,0,0.716,optionRight,55,6855,3,40,0,40,0,1,,,,,,,,,,,,,,,,,,,,,,,,,,,,,,,,,,,,,,,
,,,,,,,,2023-08-06_08h20.24.098,HF_wild_card,2022.2.4,Win32,60.02040694,5c6b23a6076e4e0001292f53,64ce5acb97489d65b14ecc7a,64cf49a9e48222106d15bdba,,,,,,,decisionTrl,resources/DP.BMP,resources/DBN.BMP,Door3,0.371296296,0.019444444,1,0,0,1.3204,optionRight,70,6925,3,41,0,41,0,1,,,,,,,,,,,,,,,,,,,,,,,,,,,,,,,,,,,,,,,
,,,,,,,,2023-08-06_08h20.24.098,HF_wild_card,2022.2.4,Win32,60.02040694,5c6b23a6076e4e0001292f53,64ce5acb97489d65b14ecc7a,64cf49a9e48222106d15bdba,,,,,,,decisionTrl,resources/DB.BMP,resources/DR.BMP,Door2,0.333333333,-0.083333333,1,0,0,1.3957,optionRight,40,6965,3,42,0,42,0,1,,,,,,,,,,,,,,,,,,,,,,,,,,,,,,,,,,,,,,,
,,,,,,,,2023-08-06_08h20.24.098,HF_wild_card,2022.2.4,Win32,60.02040694,5c6b23a6076e4e0001292f53,64ce5acb97489d65b14ecc7a,64cf49a9e48222106d15bdba,,,,,,,decisionTrl,resources/DG.BMP,resources/DBN.BMP,Door4,-0.294444444,-0.106481481,1,0,0,3.1091,optionLeft,60,7025,3,43,0,43,0,1,,,,,,,,,,,,,,,,,,,,,,,,,,,,,,,,,,,,,,,
,,,,,,,,2023-08-06_08h20.24.098,HF_wild_card,2022.2.4,Win32,60.02040694,5c6b23a6076e4e0001292f53,64ce5acb97489d65b14ecc7a,64cf49a9e48222106d15bdba,,,,,,,,,,,,,,,,,,,,,,,,,,2,0,2,0,1,,,,,,,,,,,,,,,,,,,,,,,,,,,,,,,,,,
,,,,,,,,2023-08-06_08h20.24.098,HF_wild_card,2022.2.4,Win32,60.02040694,5c6b23a6076e4e0001292f53,64ce5acb97489d65b14ecc7a,64cf49a9e48222106d15bdba,,,,,,,decisionTrl,resources/DR.BMP,resources/DB.BMP,Door2,-0.182407407,-0.037962963,1,0,0,3.8196,optionLeft,40,7065,4,0,0,0,0,1,,,,,,,,,,,,,,,,,,,,,,,,,,,,,,,,,,,,,,,
,,,,,,,,2023-08-06_08h20.24.098,HF_wild_card,2022.2.4,Win32,60.02040694,5c6b23a6076e4e0001292f53,64ce5acb97489d65b14ecc7a,64cf49a9e48222106d15bdba,,,,,,,decisionTrl,resources/DB.BMP,resources/DR.BMP,Door1,-0.27037037,-0.001851852,1,0,0,0.8067,optionLeft,30,7095,4,1,0,1,0,1,,,,,,,,,,,,,,,,,,,,,,,,,,,,,,,,,,,,,,,
,,,,,,,,2023-08-06_08h20.24.098,HF_wild_card,2022.2.4,Win32,60.02040694,5c6b23a6076e4e0001292f53,64ce5acb97489d65b14ecc7a,64cf49a9e48222106d15bdba,,,,,,,sngl,resources/DG.BMP,resources/Empty.png,Door4,-0.252777778,0.008333333,1,0,0,0.7506,optionLeft,60,7155,4,2,0,2,0,1,,,,,,,,,,,,,,,,,,,,,,,,,,,,,,,,,,,,,,,
,,,,,,,,2023-08-06_08h20.24.098,HF_wild_card,2022.2.4,Win32,60.02040694,5c6b23a6076e4e0001292f53,64ce5acb97489d65b14ecc7a,64cf49a9e48222106d15bdba,,,,,,,decisionTrl,resources/DBN.BMP,resources/DG.BMP,Door3,-0.238888889,0.016666667,1,0,0,1.9053,optionLeft,70,7225,4,3,0,3,0,1,,,,,,,,,,,,,,,,,,,,,,,,,,,,,,,,,,,,,,,
,,,,,,,,2023-08-06_08h20.24.098,HF_wild_card,2022.2.4,Win32,60.02040694,5c6b23a6076e4e0001292f53,64ce5acb97489d65b14ecc7a,64cf49a9e48222106d15bdba,,,,,,,sngl,resources/DY.BMP,resources/Empty.png,WildCard_Ex,-0.242592593,0.014814815,1,0,0,1.548,optionLeft,95,7320,4,4,0,4,0,1,,,,,,,,,,,,,,,,,,,,,,,,,,,,,,,,,,,,,,,
,,,,,,,,2023-08-06_08h20.24.098,HF_wild_card,2022.2.4,Win32,60.02040694,5c6b23a6076e4e0001292f53,64ce5acb97489d65b14ecc7a,64cf49a9e48222106d15bdba,,,,,,,decisionTrl,resources/DR.BMP,resources/DB.BMP,Door2,-0.25462963,-0.011111111,1,0,0,1.5464,optionLeft,40,7360,4,5,0,5,0,1,,,,,,,,,,,,,,,,,,,,,,,,,,,,,,,,,,,,,,,
,,,,,,,,2023-08-06_08h20.24.098,HF_wild_card,2022.2.4,Win32,60.02040694,5c6b23a6076e4e0001292f53,64ce5acb97489d65b14ecc7a,64cf49a9e48222106d15bdba,,,,,,,decisionTrl,resources/DB.BMP,resources/DY.BMP,WildCard_Ex,0.415740741,-0.006481481,1,0,0,1.0567,optionRight,5,7365,4,6,0,6,0,1,,,,,,,,,,,,,,,,,,,,,,,,,,,,,,,,,,,,,,,
,,,,,,,,2023-08-06_08h20.24.098,HF_wild_card,2022.2.4,Win32,60.02040694,5c6b23a6076e4e0001292f53,64ce5acb97489d65b14ecc7a,64cf49a9e48222106d15bdba,,,,,,,sngl,resources/Empty.png,resources/DG.BMP,Door4,0.318518519,-0.017592593,1,0,0,0.8471,optionRight,80,7445,4,7,0,7,0,1,,,,,,,,,,,,,,,,,,,,,,,,,,,,,,,,,,,,,,,
,,,,,,,,2023-08-06_08h20.24.098,HF_wild_card,2022.2.4,Win32,60.02040694,5c6b23a6076e4e0001292f53,64ce5acb97489d65b14ecc7a,64cf49a9e48222106d15bdba,,,,,,,ctch,resources/DG.BMP,resources/DB.BMP,Door4,-0.336111111,-0.02037037,1,0,0,3.0671,optionLeft,60,7505,4,8,0,8,0,1,,,,,,,,,,,,,,,,,,,,,,,,,,,,,,,,,,,,,,,
,,,,,,,,2023-08-06_08h20.24.098,HF_wild_card,2022.2.4,Win32,60.02040694,5c6b23a6076e4e0001292f53,64ce5acb97489d65b14ecc7a,64cf49a9e48222106d15bdba,,,,,,,decisionTrl,resources/DR.BMP,resources/DB.BMP,Door2,-0.275,-0.016666667,1,0,0,0.8972,optionLeft,40,7545,4,9,0,9,0,1,,,,,,,,,,,,,,,,,,,,,,,,,,,,,,,,,,,,,,,
,,,,,,,,2023-08-06_08h20.24.098,HF_wild_card,2022.2.4,Win32,60.02040694,5c6b23a6076e4e0001292f53,64ce5acb97489d65b14ecc7a,64cf49a9e48222106d15bdba,,,,,,,decisionTrl,resources/DR.BMP,resources/DB.BMP,Door2,-0.271296296,-0.022222222,1,0,0,0.713,optionLeft,40,7585,4,10,0,10,0,1,,,,,,,,,,,,,,,,,,,,,,,,,,,,,,,,,,,,,,,
,,,,,,,,2023-08-06_08h20.24.098,HF_wild_card,2022.2.4,Win32,60.02040694,5c6b23a6076e4e0001292f53,64ce5acb97489d65b14ecc7a,64cf49a9e48222106d15bdba,,,,,,,sngl,resources/DR.BMP,resources/Empty.png,Door2,-0.243518519,-0.015740741,1,0,0,0.6606,optionLeft,20,7605,4,11,0,11,0,1,,,,,,,,,,,,,,,,,,,,,,,,,,,,,,,,,,,,,,,
,,,,,,,,2023-08-06_08h20.24.098,HF_wild_card,2022.2.4,Win32,60.02040694,5c6b23a6076e4e0001292f53,64ce5acb97489d65b14ecc7a,64cf49a9e48222106d15bdba,,,,,,,ctch,resources/DB.BMP,resources/DG.BMP,Door4,0.251851852,-0.010185185,1,0,0,1.294,optionRight,80,7685,4,12,0,12,0,1,,,,,,,,,,,,,,,,,,,,,,,,,,,,,,,,,,,,,,,
,,,,,,,,2023-08-06_08h20.24.098,HF_wild_card,2022.2.4,Win32,60.02040694,5c6b23a6076e4e0001292f53,64ce5acb97489d65b14ecc7a,64cf49a9e48222106d15bdba,,,,,,,ctch,resources/DR.BMP,resources/DBN.BMP,Door3,0.277777778,0.003703704,1,0,0,1.3507,optionRight,70,7755,4,13,0,13,0,1,,,,,,,,,,,,,,,,,,,,,,,,,,,,,,,,,,,,,,,
,,,,,,,,2023-08-06_08h20.24.098,HF_wild_card,2022.2.4,Win32,60.02040694,5c6b23a6076e4e0001292f53,64ce5acb97489d65b14ecc7a,64cf49a9e48222106d15bdba,,,,,,,sngl,resources/DY.BMP,resources/Empty.png,WildCard_Ex,-0.261111111,-0.017592593,1,0,0,1.0039,optionLeft,5,7760,4,14,0,14,0,1,,,,,,,,,,,,,,,,,,,,,,,,,,,,,,,,,,,,,,,
,,,,,,,,2023-08-06_08h20.24.098,HF_wild_card,2022.2.4,Win32,60.02040694,5c6b23a6076e4e0001292f53,64ce5acb97489d65b14ecc7a,64cf49a9e48222106d15bdba,,,,,,,sngl,resources/Empty.png,resources/DB.BMP,Door1,0.358333333,-0.02037037,1,0,0,0.7501,optionRight,30,7790,4,15,0,15,0,1,,,,,,,,,,,,,,,,,,,,,,,,,,,,,,,,,,,,,,,
,,,,,,,,2023-08-06_08h20.24.098,HF_wild_card,2022.2.4,Win32,60.02040694,5c6b23a6076e4e0001292f53,64ce5acb97489d65b14ecc7a,64cf49a9e48222106d15bdba,,,,,,,sngl,resources/Empty.png,resources/DY.BMP,WildCard_Ex,0.312037037,0.026851852,1,0,0,0.5976,optionRight,5,7795,4,16,0,16,0,1,,,,,,,,,,,,,,,,,,,,,,,,,,,,,,,,,,,,,,,
,,,,,,,,2023-08-06_08h20.24.098,HF_wild_card,2022.2.4,Win32,60.02040694,5c6b23a6076e4e0001292f53,64ce5acb97489d65b14ecc7a,64cf49a9e48222106d15bdba,,,,,,,ctch,resources/DBN.BMP,resources/DR.BMP,Door3,-0.428703704,-0.047222222,1,0,0,1.4233,optionLeft,70,7865,4,17,0,17,0,1,,,,,,,,,,,,,,,,,,,,,,,,,,,,,,,,,,,,,,,
,,,,,,,,2023-08-06_08h20.24.098,HF_wild_card,2022.2.4,Win32,60.02040694,5c6b23a6076e4e0001292f53,64ce5acb97489d65b14ecc7a,64cf49a9e48222106d15bdba,,,,,,,sngl,resources/DB.BMP,resources/Empty.png,Door1,-0.290740741,-0.006481481,1,0,0,1.7549,optionLeft,30,7895,4,18,0,18,0,1,,,,,,,,,,,,,,,,,,,,,,,,,,,,,,,,,,,,,,,
,,,,,,,,2023-08-06_08h20.24.098,HF_wild_card,2022.2.4,Win32,60.02040694,5c6b23a6076e4e0001292f53,64ce5acb97489d65b14ecc7a,64cf49a9e48222106d15bdba,,,,,,,ctch,resources/DB.BMP,resources/DG.BMP,Door4,0.282407407,0.012037037,1,0,0,0.8503,optionRight,80,7975,4,19,0,19,0,1,,,,,,,,,,,,,,,,,,,,,,,,,,,,,,,,,,,,,,,
,,,,,,,,2023-08-06_08h20.24.098,HF_wild_card,2022.2.4,Win32,60.02040694,5c6b23a6076e4e0001292f53,64ce5acb97489d65b14ecc7a,64cf49a9e48222106d15bdba,,,,,,,ctch,resources/DR.BMP,resources/DBN.BMP,Door3,0.261111111,-0.008333333,1,0,0,1.1045,optionRight,70,8045,4,20,0,20,0,1,,,,,,,,,,,,,,,,,,,,,,,,,,,,,,,,,,,,,,,
,,,,,,,,2023-08-06_08h20.24.098,HF_wild_card,2022.2.4,Win32,60.02040694,5c6b23a6076e4e0001292f53,64ce5acb97489d65b14ecc7a,64cf49a9e48222106d15bdba,,,,,,,decisionTrl,resources/DB.BMP,resources/DR.BMP,Door2,0.306481481,-0.011111111,1,0,0,1.437,optionRight,40,8085,4,21,0,21,0,1,,,,,,,,,,,,,,,,,,,,,,,,,,,,,,,,,,,,,,,
,,,,,,,,2023-08-06_08h20.24.098,HF_wild_card,2022.2.4,Win32,60.02040694,5c6b23a6076e4e0001292f53,64ce5acb97489d65b14ecc7a,64cf49a9e48222106d15bdba,,,,,,,decisionTrl,resources/DR.BMP,resources/DY.BMP,WildCard_Ex,0.324074074,-0.001851852,1,0,0,0.8707,optionRight,5,8090,4,22,0,22,0,1,,,,,,,,,,,,,,,,,,,,,,,,,,,,,,,,,,,,,,,
,,,,,,,,2023-08-06_08h20.24.098,HF_wild_card,2022.2.4,Win32,60.02040694,5c6b23a6076e4e0001292f53,64ce5acb97489d65b14ecc7a,64cf49a9e48222106d15bdba,,,,,,,sngl,resources/DBN.BMP,resources/Empty.png,Door3,-0.214814815,-0.027777778,1,0,0,0.8222,optionLeft,70,8160,4,23,0,23,0,1,,,,,,,,,,,,,,,,,,,,,,,,,,,,,,,,,,,,,,,
,,,,,,,,2023-08-06_08h20.24.098,HF_wild_card,2022.2.4,Win32,60.02040694,5c6b23a6076e4e0001292f53,64ce5acb97489d65b14ecc7a,64cf49a9e48222106d15bdba,,,,,,,ctch,resources/DBN.BMP,resources/DR.BMP,Door3,-0.194444444,-0.028703704,1,0,0,0.6752,optionLeft,70,8230,4,24,0,24,0,1,,,,,,,,,,,,,,,,,,,,,,,,,,,,,,,,,,,,,,,
,,,,,,,,2023-08-06_08h20.24.098,HF_wild_card,2022.2.4,Win32,60.02040694,5c6b23a6076e4e0001292f53,64ce5acb97489d65b14ecc7a,64cf49a9e48222106d15bdba,,,,,,,decisionTrl,resources/DBN.BMP,resources/DG.BMP,Door3,-0.260185185,-0.02962963,1,0,0,0.7006,optionLeft,70,8300,4,25,0,25,0,1,,,,,,,,,,,,,,,,,,,,,,,,,,,,,,,,,,,,,,,
,,,,,,,,2023-08-06_08h20.24.098,HF_wild_card,2022.2.4,Win32,60.02040694,5c6b23a6076e4e0001292f53,64ce5acb97489d65b14ecc7a,64cf49a9e48222106d15bdba,,,,,,,decisionTrl,resources/DB.BMP,resources/DR.BMP,Door2,0.228703704,-0.013888889,1,0,0,1.0532,optionRight,40,8340,4,26,0,26,0,1,,,,,,,,,,,,,,,,,,,,,,,,,,,,,,,,,,,,,,,
,,,,,,,,2023-08-06_08h20.24.098,HF_wild_card,2022.2.4,Win32,60.02040694,5c6b23a6076e4e0001292f53,64ce5acb97489d65b14ecc7a,64cf49a9e48222106d15bdba,,,,,,,decisionTrl,resources/DY.BMP,resources/DG.BMP,Door4,0.223148148,0.002777778,1,0,0,1.5212,optionRight,60,8400,4,27,0,27,0,1,,,,,,,,,,,,,,,,,,,,,,,,,,,,,,,,,,,,,,,
,,,,,,,,2023-08-06_08h20.24.098,HF_wild_card,2022.2.4,Win32,60.02040694,5c6b23a6076e4e0001292f53,64ce5acb97489d65b14ecc7a,64cf49a9e48222106d15bdba,,,,,,,decisionTrl,resources/DBN.BMP,resources/DG.BMP,Door3,-0.263888889,-0.006481481,1,0,0,0.6738,optionLeft,70,8470,4,28,0,28,0,1,,,,,,,,,,,,,,,,,,,,,,,,,,,,,,,,,,,,,,,
,,,,,,,,2023-08-06_08h20.24.098,HF_wild_card,2022.2.4,Win32,60.02040694,5c6b23a6076e4e0001292f53,64ce5acb97489d65b14ecc7a,64cf49a9e48222106d15bdba,,,,,,,decisionTrl,resources/DBN.BMP,resources/DG.BMP,Door3,-0.272222222,0,1,0,0,0.6404,optionLeft,70,8540,4,29,0,29,0,1,,,,,,,,,,,,,,,,,,,,,,,,,,,,,,,,,,,,,,,
,,,,,,,,2023-08-06_08h20.24.098,HF_wild_card,2022.2.4,Win32,60.02040694,5c6b23a6076e4e0001292f53,64ce5acb97489d65b14ecc7a,64cf49a9e48222106d15bdba,,,,,,,decisionTrl,resources/DG.BMP,resources/DBN.BMP,Door4,-0.194444444,-0.036111111,1,0,0,1.8645,optionLeft,60,8600,4,30,0,30,0,1,,,,,,,,,,,,,,,,,,,,,,,,,,,,,,,,,,,,,,,
,,,,,,,,2023-08-06_08h20.24.098,HF_wild_card,2022.2.4,Win32,60.02040694,5c6b23a6076e4e0001292f53,64ce5acb97489d65b14ecc7a,64cf49a9e48222106d15bdba,,,,,,,decisionTrl,resources/DG.BMP,resources/DBN.BMP,Door3,0.291666667,0.005555556,1,0,0,0.7125,optionRight,70,8670,4,31,0,31,0,1,,,,,,,,,,,,,,,,,,,,,,,,,,,,,,,,,,,,,,,
,,,,,,,,2023-08-06_08h20.24.098,HF_wild_card,2022.2.4,Win32,60.02040694,5c6b23a6076e4e0001292f53,64ce5acb97489d65b14ecc7a,64cf49a9e48222106d15bdba,,,,,,,decisionTrl,resources/DG.BMP,resources/DBN.BMP,Door3,0.325,-0.000925926,1,0,0,0.5773,optionRight,70,8740,4,32,0,32,0,1,,,,,,,,,,,,,,,,,,,,,,,,,,,,,,,,,,,,,,,
,,,,,,,,2023-08-06_08h20.24.098,HF_wild_card,2022.2.4,Win32,60.02040694,5c6b23a6076e4e0001292f53,64ce5acb97489d65b14ecc7a,64cf49a9e48222106d15bdba,,,,,,,decisionTrl,resources/DB.BMP,resources/DR.BMP,Door2,0.307407407,-0.022222222,1,0,0,1.0276,optionRight,20,8760,4,33,0,33,0,1,,,,,,,,,,,,,,,,,,,,,,,,,,,,,,,,,,,,,,,
,,,,,,,,2023-08-06_08h20.24.098,HF_wild_card,2022.2.4,Win32,60.02040694,5c6b23a6076e4e0001292f53,64ce5acb97489d65b14ecc7a,64cf49a9e48222106d15bdba,,,,,,,decisionTrl,resources/DG.BMP,resources/DBN.BMP,Door3,0.282407407,-0.013888889,1,0,0,0.9214,optionRight,70,8830,4,34,0,34,0,1,,,,,,,,,,,,,,,,,,,,,,,,,,,,,,,,,,,,,,,
,,,,,,,,2023-08-06_08h20.24.098,HF_wild_card,2022.2.4,Win32,60.02040694,5c6b23a6076e4e0001292f53,64ce5acb97489d65b14ecc7a,64cf49a9e48222106d15bdba,,,,,,,decisionTrl,resources/DY.BMP,resources/DR.BMP,Door2,0.275925926,-0.064814815,1,0,0,1.5301,optionRight,40,8870,4,35,0,35,0,1,,,,,,,,,,,,,,,,,,,,,,,,,,,,,,,,,,,,,,,
,,,,,,,,2023-08-06_08h20.24.098,HF_wild_card,2022.2.4,Win32,60.02040694,5c6b23a6076e4e0001292f53,64ce5acb97489d65b14ecc7a,64cf49a9e48222106d15bdba,,,,,,,ctch,resources/DG.BMP,resources/DB.BMP,Door4,-0.206481481,-0.030555556,1,0,0,0.9722,optionLeft,80,8950,4,36,0,36,0,1,,,,,,,,,,,,,,,,,,,,,,,,,,,,,,,,,,,,,,,
,,,,,,,,2023-08-06_08h20.24.098,HF_wild_card,2022.2.4,Win32,60.02040694,5c6b23a6076e4e0001292f53,64ce5acb97489d65b14ecc7a,64cf49a9e48222106d15bdba,,,,,,,decisionTrl,resources/DY.BMP,resources/DBN.BMP,WildCard_Ex,-0.164814815,-0.025925926,1,0,0,0.9564,optionLeft,95,9045,4,37,0,37,0,1,,,,,,,,,,,,,,,,,,,,,,,,,,,,,,,,,,,,,,,
,,,,,,,,2023-08-06_08h20.24.098,HF_wild_card,2022.2.4,Win32,60.02040694,5c6b23a6076e4e0001292f53,64ce5acb97489d65b14ecc7a,64cf49a9e48222106d15bdba,,,,,,,sngl,resources/Empty.png,resources/DR.BMP,Door2,0.27962963,-0.078703704,1,0,0,1.8977,optionRight,40,9085,4,38,0,38,0,1,,,,,,,,,,,,,,,,,,,,,,,,,,,,,,,,,,,,,,,
,,,,,,,,2023-08-06_08h20.24.098,HF_wild_card,2022.2.4,Win32,60.02040694,5c6b23a6076e4e0001292f53,64ce5acb97489d65b14ecc7a,64cf49a9e48222106d15bdba,,,,,,,sngl,resources/Empty.png,resources/DBN.BMP,Door3,0.331481481,-0.015740741,1,0,0,0.564,optionRight,70,9155,4,39,0,39,0,1,,,,,,,,,,,,,,,,,,,,,,,,,,,,,,,,,,,,,,,
,,,,,,,,2023-08-06_08h20.24.098,HF_wild_card,2022.2.4,Win32,60.02040694,5c6b23a6076e4e0001292f53,64ce5acb97489d65b14ecc7a,64cf49a9e48222106d15bdba,,,,,,,decisionTrl,resources/DBN.BMP,resources/DY.BMP,WildCard_Ex,0.314814815,-0.034259259,1,0,0,1.7371,optionRight,95,9250,4,40,0,40,0,1,,,,,,,,,,,,,,,,,,,,,,,,,,,,,,,,,,,,,,,
,,,,,,,,2023-08-06_08h20.24.098,HF_wild_card,2022.2.4,Win32,60.02040694,5c6b23a6076e4e0001292f53,64ce5acb97489d65b14ecc7a,64cf49a9e48222106d15bdba,,,,,,,decisionTrl,resources/DY.BMP,resources/DB.BMP,WildCard_Ex,-0.211111111,-0.098148148,1,0,0,1.4606,optionLeft,5,9255,4,41,0,41,0,1,,,,,,,,,,,,,,,,,,,,,,,,,,,,,,,,,,,,,,,
,,,,,,,,2023-08-06_08h20.24.098,HF_wild_card,2022.2.4,Win32,60.02040694,5c6b23a6076e4e0001292f53,64ce5acb97489d65b14ecc7a,64cf49a9e48222106d15bdba,,,,,,,decisionTrl,resources/DG.BMP,resources/DY.BMP,WildCard_Ex,0.347222222,-0.048148148,1,0,0,0.9658,optionRight,5,9260,4,42,0,42,0,1,,,,,,,,,,,,,,,,,,,,,,,,,,,,,,,,,,,,,,,
,,,,,,,,2023-08-06_08h20.24.098,HF_wild_card,2022.2.4,Win32,60.02040694,5c6b23a6076e4e0001292f53,64ce5acb97489d65b14ecc7a,64cf49a9e48222106d15bdba,,,,,,,sngl,resources/Empty.png,resources/DY.BMP,WildCard_Ex,0.426851852,0.007407407,1,0,0,0.6543,optionRight,95,9355,4,43,0,43,0,1,,,,,,,,,,,,,,,,,,,,,,,,,,,,,,,,,,,,,,,
,,,,,,,,2023-08-06_08h20.24.098,HF_wild_card,2022.2.4,Win32,60.02040694,5c6b23a6076e4e0001292f53,64ce5acb97489d65b14ecc7a,64cf49a9e48222106d15bdba,,,,,,,,,,,,,,,,,,,,,,,,,,3,0,3,0,1,,,,,,,,,,,,,,,,,,,,,,,,,,,,,,,,,,
,,,,,,,,2023-08-06_08h20.24.098,HF_wild_card,2022.2.4,Win32,60.02040694,5c6b23a6076e4e0001292f53,64ce5acb97489d65b14ecc7a,64cf49a9e48222106d15bdba,,,,,,,decisionTrl,resources/DG.BMP,resources/DY.BMP,WildCard_Ex,0.346296296,-0.091666667,1,0,0,0.8792,optionRight,5,9360,5,0,0,0,0,1,,,,,,,,,,,,,,,,,,,,,,,,,,,,,,,,,,,,,,,
,,,,,,,,2023-08-06_08h20.24.098,HF_wild_card,2022.2.4,Win32,60.02040694,5c6b23a6076e4e0001292f53,64ce5acb97489d65b14ecc7a,64cf49a9e48222106d15bdba,,,,,,,sngl,resources/Empty.png,resources/DY.BMP,WildCard_Ex,0.287037037,0.00462963,1,0,0,0.7772,optionRight,95,9455,5,1,0,1,0,1,,,,,,,,,,,,,,,,,,,,,,,,,,,,,,,,,,,,,,,
,,,,,,,,2023-08-06_08h20.24.098,HF_wild_card,2022.2.4,Win32,60.02040694,5c6b23a6076e4e0001292f53,64ce5acb97489d65b14ecc7a,64cf49a9e48222106d15bdba,,,,,,,decisionTrl,resources/DY.BMP,resources/DBN.BMP,Door3,0.249074074,-0.027777778,1,0,0,0.9404,optionRight,70,9525,5,2,0,2,0,1,,,,,,,,,,,,,,,,,,,,,,,,,,,,,,,,,,,,,,,
,,,,,,,,2023-08-06_08h20.24.098,HF_wild_card,2022.2.4,Win32,60.02040694,5c6b23a6076e4e0001292f53,64ce5acb97489d65b14ecc7a,64cf49a9e48222106d15bdba,,,,,,,decisionTrl,resources/DR.BMP,resources/DB.BMP,Door2,-0.209259259,-0.032407407,1,0,0,1.2209,optionLeft,20,9545,5,3,0,3,0,1,,,,,,,,,,,,,,,,,,,,,,,,,,,,,,,,,,,,,,,
,,,,,,,,2023-08-06_08h20.24.098,HF_wild_card,2022.2.4,Win32,60.02040694,5c6b23a6076e4e0001292f53,64ce5acb97489d65b14ecc7a,64cf49a9e48222106d15bdba,,,,,,,ctch,resources/DB.BMP,resources/DG.BMP,Door4,0.214814815,-0.001851852,1,0,0,0.9476,optionRight,80,9625,5,4,0,4,0,1,,,,,,,,,,,,,,,,,,,,,,,,,,,,,,,,,,,,,,,
,,,,,,,,2023-08-06_08h20.24.098,HF_wild_card,2022.2.4,Win32,60.02040694,5c6b23a6076e4e0001292f53,64ce5acb97489d65b14ecc7a,64cf49a9e48222106d15bdba,,,,,,,decisionTrl,resources/DB.BMP,resources/DR.BMP,Door2,0.315740741,-0.019444444,1,0,0,0.9898,optionRight,20,9645,5,5,0,5,0,1,,,,,,,,,,,,,,,,,,,,,,,,,,,,,,,,,,,,,,,
,,,,,,,,2023-08-06_08h20.24.098,HF_wild_card,2022.2.4,Win32,60.02040694,5c6b23a6076e4e0001292f53,64ce5acb97489d65b14ecc7a,64cf49a9e48222106d15bdba,,,,,,,decisionTrl,resources/DBN.BMP,resources/DG.BMP,Door3,-0.175925926,-0.048148148,1,0,0,0.9204,optionLeft,70,9715,5,6,0,6,0,1,,,,,,,,,,,,,,,,,,,,,,,,,,,,,,,,,,,,,,,
,,,,,,,,2023-08-06_08h20.24.098,HF_wild_card,2022.2.4,Win32,60.02040694,5c6b23a6076e4e0001292f53,64ce5acb97489d65b14ecc7a,64cf49a9e48222106d15bdba,,,,,,,sngl,resources/DY.BMP,resources/Empty.png,WildCard_Ex,-0.189814815,-0.099074074,1,0,0,1.3449,optionLeft,95,9810,5,7,0,7,0,1,,,,,,,,,,,,,,,,,,,,,,,,,,,,,,,,,,,,,,,
,,,,,,,,2023-08-06_08h20.24.098,HF_wild_card,2022.2.4,Win32,60.02040694,5c6b23a6076e4e0001292f53,64ce5acb97489d65b14ecc7a,64cf49a9e48222106d15bdba,,,,,,,sngl,resources/DB.BMP,resources/Empty.png,Door1,-0.360185185,-0.086111111,1,0,0,0.8354,optionLeft,30,9840,5,8,0,8,0,1,,,,,,,,,,,,,,,,,,,,,,,,,,,,,,,,,,,,,,,
,,,,,,,,2023-08-06_08h20.24.098,HF_wild_card,2022.2.4,Win32,60.02040694,5c6b23a6076e4e0001292f53,64ce5acb97489d65b14ecc7a,64cf49a9e48222106d15bdba,,,,,,,decisionTrl,resources/DY.BMP,resources/DB.BMP,WildCard_Ex,-0.306481481,-0.065740741,1,0,0,1.0998,optionLeft,95,9935,5,9,0,9,0,1,,,,,,,,,,,,,,,,,,,,,,,,,,,,,,,,,,,,,,,
,,,,,,,,2023-08-06_08h20.24.098,HF_wild_card,2022.2.4,Win32,60.02040694,5c6b23a6076e4e0001292f53,64ce5acb97489d65b14ecc7a,64cf49a9e48222106d15bdba,,,,,,,decisionTrl,resources/DB.BMP,resources/DR.BMP,Door2,0.328703704,-0.024074074,1,0,0,0.9645,optionRight,40,9975,5,10,0,10,0,1,,,,,,,,,,,,,,,,,,,,,,,,,,,,,,,,,,,,,,,
,,,,,,,,2023-08-06_08h20.24.098,HF_wild_card,2022.2.4,Win32,60.02040694,5c6b23a6076e4e0001292f53,64ce5acb97489d65b14ecc7a,64cf49a9e48222106d15bdba,,,,,,,decisionTrl,resources/DBN.BMP,resources/DG.BMP,Door3,-0.42037037,-0.071296296,1,0,0,0.8593,optionLeft,70,10045,5,11,0,11,0,1,,,,,,,,,,,,,,,,,,,,,,,,,,,,,,,,,,,,,,,
,,,,,,,,2023-08-06_08h20.24.098,HF_wild_card,2022.2.4,Win32,60.02040694,5c6b23a6076e4e0001292f53,64ce5acb97489d65b14ecc7a,64cf49a9e48222106d15bdba,,,,,,,decisionTrl,resources/DB.BMP,resources/DR.BMP,Door2,0.372222222,-0.033333333,1,0,0,0.7828,optionRight,20,10065,5,12,0,12,0,1,,,,,,,,,,,,,,,,,,,,,,,,,,,,,,,,,,,,,,,
,,,,,,,,2023-08-06_08h20.24.098,HF_wild_card,2022.2.4,Win32,60.02040694,5c6b23a6076e4e0001292f53,64ce5acb97489d65b14ecc7a,64cf49a9e48222106d15bdba,,,,,,,decisionTrl,resources/DG.BMP,resources/DBN.BMP,Door4,-0.269444444,-0.044444444,1,0,0,1.2368,optionLeft,60,10125,5,13,0,13,0,1,,,,,,,,,,,,,,,,,,,,,,,,,,,,,,,,,,,,,,,
,,,,,,,,2023-08-06_08h20.24.098,HF_wild_card,2022.2.4,Win32,60.02040694,5c6b23a6076e4e0001292f53,64ce5acb97489d65b14ecc7a,64cf49a9e48222106d15bdba,,,,,,,ctch,resources/DBN.BMP,resources/DR.BMP,Door3,-0.287962963,-0.016666667,1,0,0,0.6925,optionLeft,70,10195,5,14,0,14,0,1,,,,,,,,,,,,,,,,,,,,,,,,,,,,,,,,,,,,,,,
,,,,,,,,2023-08-06_08h20.24.098,HF_wild_card,2022.2.4,Win32,60.02040694,5c6b23a6076e4e0001292f53,64ce5acb97489d65b14ecc7a,64cf49a9e48222106d15bdba,,,,,,,ctch,resources/DR.BMP,resources/DBN.BMP,Door3,0.32962963,-0.02962963,1,0,0,0.5983,optionRight,70,10265,5,15,0,15,0,1,,,,,,,,,,,,,,,,,,,,,,,,,,,,,,,,,,,,,,,
,,,,,,,,2023-08-06_08h20.24.098,HF_wild_card,2022.2.4,Win32,60.02040694,5c6b23a6076e4e0001292f53,64ce5acb97489d65b14ecc7a,64cf49a9e48222106d15bdba,,,,,,,ctch,resources/DBN.BMP,resources/DR.BMP,Door3,-0.269444444,-0.026851852,1,0,0,0.6572,optionLeft,70,10335,5,16,0,16,0,1,,,,,,,,,,,,,,,,,,,,,,,,,,,,,,,,,,,,,,,
,,,,,,,,2023-08-06_08h20.24.098,HF_wild_card,2022.2.4,Win32,60.02040694,5c6b23a6076e4e0001292f53,64ce5acb97489d65b14ecc7a,64cf49a9e48222106d15bdba,,,,,,,ctch,resources/DG.BMP,resources/DB.BMP,Door4,-0.165740741,-0.005555556,1,0,0,1.6231,optionLeft,60,10395,5,17,0,17,0,1,,,,,,,,,,,,,,,,,,,,,,,,,,,,,,,,,,,,,,,
,,,,,,,,2023-08-06_08h20.24.098,HF_wild_card,2022.2.4,Win32,60.02040694,5c6b23a6076e4e0001292f53,64ce5acb97489d65b14ecc7a,64cf49a9e48222106d15bdba,,,,,,,ctch,resources/DR.BMP,resources/DBN.BMP,Door3,0.301851852,0.000925926,1,0,0,0.7067,optionRight,70,10465,5,18,0,18,0,1,,,,,,,,,,,,,,,,,,,,,,,,,,,,,,,,,,,,,,,
,,,,,,,,2023-08-06_08h20.24.098,HF_wild_card,2022.2.4,Win32,60.02040694,5c6b23a6076e4e0001292f53,64ce5acb97489d65b14ecc7a,64cf49a9e48222106d15bdba,,,,,,,sngl,resources/Empty.png,resources/DY.BMP,WildCard_Ex,0.337962963,-0.012962963,1,0,0,0.6266,optionRight,5,10470,5,19,0,19,0,1,,,,,,,,,,,,,,,,,,,,,,,,,,,,,,,,,,,,,,,
,,,,,,,,2023-08-06_08h20.24.098,HF_wild_card,2022.2.4,Win32,60.02040694,5c6b23a6076e4e0001292f53,64ce5acb97489d65b14ecc7a,64cf49a9e48222106d15bdba,,,,,,,ctch,resources/DG.BMP,resources/DB.BMP,Door4,-0.224074074,-0.006481481,1,0,0,1.6528,optionLeft,80,10550,5,20,0,20,0,1,,,,,,,,,,,,,,,,,,,,,,,,,,,,,,,,,,,,,,,
,,,,,,,,2023-08-06_08h20.24.098,HF_wild_card,2022.2.4,Win32,60.02040694,5c6b23a6076e4e0001292f53,64ce5acb97489d65b14ecc7a,64cf49a9e48222106d15bdba,,,,,,,sngl,resources/DR.BMP,resources/Empty.png,Door2,-0.284259259,-0.057407407,1,0,0,0.8076,optionLeft,40,10590,5,21,0,21,0,1,,,,,,,,,,,,,,,,,,,,,,,,,,,,,,,,,,,,,,,
,,,,,,,,2023-08-06_08h20.24.098,HF_wild_card,2022.2.4,Win32,60.02040694,5c6b23a6076e4e0001292f53,64ce5acb97489d65b14ecc7a,64cf49a9e48222106d15bdba,,,,,,,sngl,resources/Empty.png,resources/DG.BMP,Door4,0.261111111,0.008333333,1,0,0,0.592,optionRight,60,10650,5,22,0,22,0,1,,,,,,,,,,,,,,,,,,,,,,,,,,,,,,,,,,,,,,,
,,,,,,,,2023-08-06_08h20.24.098,HF_wild_card,2022.2.4,Win32,60.02040694,5c6b23a6076e4e0001292f53,64ce5acb97489d65b14ecc7a,64cf49a9e48222106d15bdba,,,,,,,sngl,resources/DY.BMP,resources/Empty.png,WildCard_Ex,-0.173148148,0.012037037,1,0,0,0.6068,optionLeft,5,10655,5,23,0,23,0,1,,,,,,,,,,,,,,,,,,,,,,,,,,,,,,,,,,,,,,,
,,,,,,,,2023-08-06_08h20.24.098,HF_wild_card,2022.2.4,Win32,60.02040694,5c6b23a6076e4e0001292f53,64ce5acb97489d65b14ecc7a,64cf49a9e48222106d15bdba,,,,,,,sngl,resources/DG.BMP,resources/Empty.png,Door4,-0.213888889,-0.041666667,1,0,0,0.6303,optionLeft,80,10735,5,24,0,24,0,1,,,,,,,,,,,,,,,,,,,,,,,,,,,,,,,,,,,,,,,
,,,,,,,,2023-08-06_08h20.24.098,HF_wild_card,2022.2.4,Win32,60.02040694,5c6b23a6076e4e0001292f53,64ce5acb97489d65b14ecc7a,64cf49a9e48222106d15bdba,,,,,,,sngl,resources/Empty.png,resources/DBN.BMP,Door3,0.27037037,-0.025925926,1,0,0,0.5961,optionRight,70,10805,5,25,0,25,0,1,,,,,,,,,,,,,,,,,,,,,,,,,,,,,,,,,,,,,,,
,,,,,,,,2023-08-06_08h20.24.098,HF_wild_card,2022.2.4,Win32,60.02040694,5c6b23a6076e4e0001292f53,64ce5acb97489d65b14ecc7a,64cf49a9e48222106d15bdba,,,,,,,decisionTrl,resources/DB.BMP,resources/DR.BMP,Door2,0.330555556,-0.016666667,1,0,0,1.3973,optionRight,20,10825,5,26,0,26,0,1,,,,,,,,,,,,,,,,,,,,,,,,,,,,,,,,,,,,,,,
,,,,,,,,2023-08-06_08h20.24.098,HF_wild_card,2022.2.4,Win32,60.02040694,5c6b23a6076e4e0001292f53,64ce5acb97489d65b14ecc7a,64cf49a9e48222106d15bdba,,,,,,,decisionTrl,resources/DB.BMP,resources/DY.BMP,WildCard_Ex,0.247222222,-0.030555556,1,0,0,0.9548,optionRight,5,10830,5,27,0,27,0,1,,,,,,,,,,,,,,,,,,,,,,,,,,,,,,,,,,,,,,,
,,,,,,,,2023-08-06_08h20.24.098,HF_wild_card,2022.2.4,Win32,60.02040694,5c6b23a6076e4e0001292f53,64ce5acb97489d65b14ecc7a,64cf49a9e48222106d15bdba,,,,,,,decisionTrl,resources/DR.BMP,resources/DB.BMP,Door2,-0.282407407,-0.014814815,1,0,0,1.2281,optionLeft,40,10870,5,28,0,28,0,1,,,,,,,,,,,,,,,,,,,,,,,,,,,,,,,,,,,,,,,
,,,,,,,,2023-08-06_08h20.24.098,HF_wild_card,2022.2.4,Win32,60.02040694,5c6b23a6076e4e0001292f53,64ce5acb97489d65b14ecc7a,64cf49a9e48222106d15bdba,,,,,,,sngl,resources/DBN.BMP,resources/Empty.png,Door3,-0.213888889,-0.006481481,1,0,0,0.615,optionLeft,70,10940,5,29,0,29,0,1,,,,,,,,,,,,,,,,,,,,,,,,,,,,,,,,,,,,,,,
,,,,,,,,2023-08-06_08h20.24.098,HF_wild_card,2022.2.4,Win32,60.02040694,5c6b23a6076e4e0001292f53,64ce5acb97489d65b14ecc7a,64cf49a9e48222106d15bdba,,,,,,,decisionTrl,resources/DBN.BMP,resources/DG.BMP,Door3,-0.232407407,-0.005555556,1,0,0,0.8674,optionLeft,70,11010,5,30,0,30,0,1,,,,,,,,,,,,,,,,,,,,,,,,,,,,,,,,,,,,,,,
,,,,,,,,2023-08-06_08h20.24.098,HF_wild_card,2022.2.4,Win32,60.02040694,5c6b23a6076e4e0001292f53,64ce5acb97489d65b14ecc7a,64cf49a9e48222106d15bdba,,,,,,,decisionTrl,resources/DBN.BMP,resources/DY.BMP,WildCard_Ex,0.405555556,-0.005555556,1,0,0,1.7635,optionRight,5,11015,5,31,0,31,0,1,,,,,,,,,,,,,,,,,,,,,,,,,,,,,,,,,,,,,,,
,,,,,,,,2023-08-06_08h20.24.098,HF_wild_card,2022.2.4,Win32,60.02040694,5c6b23a6076e4e0001292f53,64ce5acb97489d65b14ecc7a,64cf49a9e48222106d15bdba,,,,,,,decisionTrl,resources/DR.BMP,resources/DY.BMP,Door2,-0.360185185,-0.046296296,1,0,0,1.0399,optionLeft,40,11055,5,32,0,32,0,1,,,,,,,,,,,,,,,,,,,,,,,,,,,,,,,,,,,,,,,
,,,,,,,,2023-08-06_08h20.24.098,HF_wild_card,2022.2.4,Win32,60.02040694,5c6b23a6076e4e0001292f53,64ce5acb97489d65b14ecc7a,64cf49a9e48222106d15bdba,,,,,,,decisionTrl,resources/DR.BMP,resources/DB.BMP,Door2,-0.264814815,0.005555556,1,0,0,0.7203,optionLeft,20,11075,5,33,0,33,0,1,,,,,,,,,,,,,,,,,,,,,,,,,,,,,,,,,,,,,,,
,,,,,,,,2023-08-06_08h20.24.098,HF_wild_card,2022.2.4,Win32,60.02040694,5c6b23a6076e4e0001292f53,64ce5acb97489d65b14ecc7a,64cf49a9e48222106d15bdba,,,,,,,decisionTrl,resources/DG.BMP,resources/DBN.BMP,Door4,-0.266666667,-0.005555556,1,0,0,3.4625,optionLeft,60,11135,5,34,0,34,0,1,,,,,,,,,,,,,,,,,,,,,,,,,,,,,,,,,,,,,,,
,,,,,,,,2023-08-06_08h20.24.098,HF_wild_card,2022.2.4,Win32,60.02040694,5c6b23a6076e4e0001292f53,64ce5acb97489d65b14ecc7a,64cf49a9e48222106d15bdba,,,,,,,decisionTrl,resources/DR.BMP,resources/DB.BMP,Door2,-0.212037037,-0.011111111,1,0,0,0.8901,optionLeft,20,11155,5,35,0,35,0,1,,,,,,,,,,,,,,,,,,,,,,,,,,,,,,,,,,,,,,,
,,,,,,,,2023-08-06_08h20.24.098,HF_wild_card,2022.2.4,Win32,60.02040694,5c6b23a6076e4e0001292f53,64ce5acb97489d65b14ecc7a,64cf49a9e48222106d15bdba,,,,,,,ctch,resources/DB.BMP,resources/DG.BMP,Door4,0.301851852,-0.000925926,1,0,0,1.523,optionRight,80,11235,5,36,0,36,0,1,,,,,,,,,,,,,,,,,,,,,,,,,,,,,,,,,,,,,,,
,,,,,,,,2023-08-06_08h20.24.098,HF_wild_card,2022.2.4,Win32,60.02040694,5c6b23a6076e4e0001292f53,64ce5acb97489d65b14ecc7a,64cf49a9e48222106d15bdba,,,,,,,sngl,resources/Empty.png,resources/DB.BMP,Door1,0.313888889,-0.003703704,1,0,0,0.6829,optionRight,30,11265,5,37,0,37,0,1,,,,,,,,,,,,,,,,,,,,,,,,,,,,,,,,,,,,,,,
,,,,,,,,2023-08-06_08h20.24.098,HF_wild_card,2022.2.4,Win32,60.02040694,5c6b23a6076e4e0001292f53,64ce5acb97489d65b14ecc7a,64cf49a9e48222106d15bdba,,,,,,,decisionTrl,resources/DBN.BMP,resources/DG.BMP,Door4,0.202777778,0.015740741,1,0,0,1.8901,optionRight,60,11325,5,38,0,38,0,1,,,,,,,,,,,,,,,,,,,,,,,,,,,,,,,,,,,,,,,
,,,,,,,,2023-08-06_08h20.24.098,HF_wild_card,2022.2.4,Win32,60.02040694,5c6b23a6076e4e0001292f53,64ce5acb97489d65b14ecc7a,64cf49a9e48222106d15bdba,,,,,,,sngl,resources/Empty.png,resources/DR.BMP,Door2,0.319444444,0.002777778,1,0,0,0.651,optionRight,20,11345,5,39,0,39,0,1,,,,,,,,,,,,,,,,,,,,,,,,,,,,,,,,,,,,,,,
,,,,,,,,2023-08-06_08h20.24.098,HF_wild_card,2022.2.4,Win32,60.02040694,5c6b23a6076e4e0001292f53,64ce5acb97489d65b14ecc7a,64cf49a9e48222106d15bdba,,,,,,,decisionTrl,resources/DY.BMP,resources/DG.BMP,WildCard_Ex,-0.246296296,0.00462963,1,0,0,1.5062,optionLeft,5,11350,5,40,0,40,0,1,,,,,,,,,,,,,,,,,,,,,,,,,,,,,,,,,,,,,,,
,,,,,,,,2023-08-06_08h20.24.098,HF_wild_card,2022.2.4,Win32,60.02040694,5c6b23a6076e4e0001292f53,64ce5acb97489d65b14ecc7a,64cf49a9e48222106d15bdba,,,,,,,decisionTrl,resources/DG.BMP,resources/DBN.BMP,Door3,0.29537037,0.008333333,1,0,0,0.8514,optionRight,70,11420,5,41,0,41,0,1,,,,,,,,,,,,,,,,,,,,,,,,,,,,,,,,,,,,,,,
,,,,,,,,2023-08-06_08h20.24.098,HF_wild_card,2022.2.4,Win32,60.02040694,5c6b23a6076e4e0001292f53,64ce5acb97489d65b14ecc7a,64cf49a9e48222106d15bdba,,,,,,,decisionTrl,resources/DY.BMP,resources/DR.BMP,WildCard_Ex,-0.234259259,0.000925926,1,0,0,0.6065,optionLeft,95,11515,5,42,0,42,0,1,,,,,,,,,,,,,,,,,,,,,,,,,,,,,,,,,,,,,,,
,,,,,,,,2023-08-06_08h20.24.098,HF_wild_card,2022.2.4,Win32,60.02040694,5c6b23a6076e4e0001292f53,64ce5acb97489d65b14ecc7a,64cf49a9e48222106d15bdba,,,,,,,decisionTrl,resources/DG.BMP,resources/DBN.BMP,Door3,0.310185185,-0.015740741,1,0,0,1.923,optionRight,70,11585,5,43,0,43,0,1,,,,,,,,,,,,,,,,,,,,,,,,,,,,,,,,,,,,,,,
,,,,,,,,2023-08-06_08h20.24.098,HF_wild_card,2022.2.4,Win32,60.02040694,5c6b23a6076e4e0001292f53,64ce5acb97489d65b14ecc7a,64cf49a9e48222106d15bdba,,,,,,,,,,,,,,,,,,,,,,,,,,4,0,4,0,1,,,,,,,,,,,,,,,,,,,,,,,,,,,,,,,,,,
,,,,,,,,2023-08-06_08h20.24.098,HF_wild_card,2022.2.4,Win32,60.02040694,5c6b23a6076e4e0001292f53,64ce5acb97489d65b14ecc7a,64cf49a9e48222106d15bdba,,,,,,,sngl,resources/Empty.png,resources/DBN.BMP,Door3,0.109259259,-0.176851852,1,0,0,5.5382,optionRight,70,11655,6,0,0,0,0,1,,,,,,,,,,,,,,,,,,,,,,,,,,,,,,,,,,,,,,,
,,,,,,,,2023-08-06_08h20.24.098,HF_wild_card,2022.2.4,Win32,60.02040694,5c6b23a6076e4e0001292f53,64ce5acb97489d65b14ecc7a,64cf49a9e48222106d15bdba,,,,,,,ctch,resources/DB.BMP,resources/DG.BMP,Door4,0.253703704,-0.042592593,1,0,0,1.6302,optionRight,80,11735,6,1,0,1,0,1,,,,,,,,,,,,,,,,,,,,,,,,,,,,,,,,,,,,,,,
,,,,,,,,2023-08-06_08h20.24.098,HF_wild_card,2022.2.4,Win32,60.02040694,5c6b23a6076e4e0001292f53,64ce5acb97489d65b14ecc7a,64cf49a9e48222106d15bdba,,,,,,,decisionTrl,resources/DB.BMP,resources/DR.BMP,Door2,0.347222222,0.010185185,1,0,0,1.0272,optionRight,40,11775,6,2,0,2,0,1,,,,,,,,,,,,,,,,,,,,,,,,,,,,,,,,,,,,,,,
,,,,,,,,2023-08-06_08h20.24.098,HF_wild_card,2022.2.4,Win32,60.02040694,5c6b23a6076e4e0001292f53,64ce5acb97489d65b14ecc7a,64cf49a9e48222106d15bdba,,,,,,,decisionTrl,resources/DG.BMP,resources/DBN.BMP,Door3,0.34537037,-0.005555556,1,0,0,1.9625,optionRight,70,11845,6,3,0,3,0,1,,,,,,,,,,,,,,,,,,,,,,,,,,,,,,,,,,,,,,,
,,,,,,,,2023-08-06_08h20.24.098,HF_wild_card,2022.2.4,Win32,60.02040694,5c6b23a6076e4e0001292f53,64ce5acb97489d65b14ecc7a,64cf49a9e48222106d15bdba,,,,,,,ctch,resources/DBN.BMP,resources/DR.BMP,Door3,-0.225925926,-0.003703704,1,0,0,0.6087,optionLeft,70,11915,6,4,0,4,0,1,,,,,,,,,,,,,,,,,,,,,,,,,,,,,,,,,,,,,,,
,,,,,,,,2023-08-06_08h20.24.098,HF_wild_card,2022.2.4,Win32,60.02040694,5c6b23a6076e4e0001292f53,64ce5acb97489d65b14ecc7a,64cf49a9e48222106d15bdba,,,,,,,decisionTrl,resources/DBN.BMP,resources/DG.BMP,Door3,-0.223148148,0.009259259,1,0,0,0.8246,optionLeft,70,11985,6,5,0,5,0,1,,,,,,,,,,,,,,,,,,,,,,,,,,,,,,,,,,,,,,,
,,,,,,,,2023-08-06_08h20.24.098,HF_wild_card,2022.2.4,Win32,60.02040694,5c6b23a6076e4e0001292f53,64ce5acb97489d65b14ecc7a,64cf49a9e48222106d15bdba,,,,,,,decisionTrl,resources/DG.BMP,resources/DBN.BMP,Door4,-0.249074074,-0.002777778,1,0,0,0.8408,optionLeft,80,12065,6,6,0,6,0,1,,,,,,,,,,,,,,,,,,,,,,,,,,,,,,,,,,,,,,,
,,,,,,,,2023-08-06_08h20.24.098,HF_wild_card,2022.2.4,Win32,60.02040694,5c6b23a6076e4e0001292f53,64ce5acb97489d65b14ecc7a,64cf49a9e48222106d15bdba,,,,,,,sngl,resources/DB.BMP,resources/Empty.png,Door1,-0.176851852,-0.040740741,1,0,0,0.6922,optionLeft,30,12095,6,7,0,7,0,1,,,,,,,,,,,,,,,,,,,,,,,,,,,,,,,,,,,,,,,
,,,,,,,,2023-08-06_08h20.24.098,HF_wild_card,2022.2.4,Win32,60.02040694,5c6b23a6076e4e0001292f53,64ce5acb97489d65b14ecc7a,64cf49a9e48222106d15bdba,,,,,,,sngl,resources/Empty.png,resources/DR.BMP,Door2,0.259259259,0.001851852,1,0,0,0.6779,optionRight,40,12135,6,8,0,8,0,1,,,,,,,,,,,,,,,,,,,,,,,,,,,,,,,,,,,,,,,
,,,,,,,,2023-08-06_08h20.24.098,HF_wild_card,2022.2.4,Win32,60.02040694,5c6b23a6076e4e0001292f53,64ce5acb97489d65b14ecc7a,64cf49a9e48222106d15bdba,,,,,,,decisionTrl,resources/DY.BMP,resources/DG.BMP,WildCard_Ex,-0.189814815,-0.022222222,1,0,0,1.0561,optionLeft,5,12140,6,9,0,9,0,1,,,,,,,,,,,,,,,,,,,,,,,,,,,,,,,,,,,,,,,
,,,,,,,,2023-08-06_08h20.24.098,HF_wild_card,2022.2.4,Win32,60.02040694,5c6b23a6076e4e0001292f53,64ce5acb97489d65b14ecc7a,64cf49a9e48222106d15bdba,,,,,,,decisionTrl,resources/DBN.BMP,resources/DY.BMP,Door3,-0.238888889,-0.017592593,1,0,0,1.0632,optionLeft,70,12210,6,10,0,10,0,1,,,,,,,,,,,,,,,,,,,,,,,,,,,,,,,,,,,,,,,
,,,,,,,,2023-08-06_08h20.24.098,HF_wild_card,2022.2.4,Win32,60.02040694,5c6b23a6076e4e0001292f53,64ce5acb97489d65b14ecc7a,64cf49a9e48222106d15bdba,,,,,,,decisionTrl,resources/DG.BMP,resources/DBN.BMP,Door4,-0.222222222,-0.043518519,1,0,0,1.158,optionLeft,60,12270,6,11,0,11,0,1,,,,,,,,,,,,,,,,,,,,,,,,,,,,,,,,,,,,,,,
,,,,,,,,2023-08-06_08h20.24.098,HF_wild_card,2022.2.4,Win32,60.02040694,5c6b23a6076e4e0001292f53,64ce5acb97489d65b14ecc7a,64cf49a9e48222106d15bdba,,,,,,,sngl,resources/DR.BMP,resources/Empty.png,Door2,-0.257407407,-0.009259259,1,0,0,0.693,optionLeft,20,12290,6,12,0,12,0,1,,,,,,,,,,,,,,,,,,,,,,,,,,,,,,,,,,,,,,,
,,,,,,,,2023-08-06_08h20.24.098,HF_wild_card,2022.2.4,Win32,60.02040694,5c6b23a6076e4e0001292f53,64ce5acb97489d65b14ecc7a,64cf49a9e48222106d15bdba,,,,,,,sngl,resources/Empty.png,resources/DG.BMP,Door4,0.232407407,-0.001851852,1,0,0,0.6442,optionRight,80,12370,6,13,0,13,0,1,,,,,,,,,,,,,,,,,,,,,,,,,,,,,,,,,,,,,,,
,,,,,,,,2023-08-06_08h20.24.098,HF_wild_card,2022.2.4,Win32,60.02040694,5c6b23a6076e4e0001292f53,64ce5acb97489d65b14ecc7a,64cf49a9e48222106d15bdba,,,,,,,decisionTrl,resources/DB.BMP,resources/DR.BMP,Door2,0.175925926,0.009259259,1,0,0,0.9107,optionRight,20,12390,6,14,0,14,0,1,,,,,,,,,,,,,,,,,,,,,,,,,,,,,,,,,,,,,,,
,,,,,,,,2023-08-06_08h20.24.098,HF_wild_card,2022.2.4,Win32,60.02040694,5c6b23a6076e4e0001292f53,64ce5acb97489d65b14ecc7a,64cf49a9e48222106d15bdba,,,,,,,decisionTrl,resources/DB.BMP,resources/DR.BMP,Door1,-0.335185185,-0.018518519,1,0,0,0.6979,optionLeft,30,12420,6,15,0,15,0,1,,,,,,,,,,,,,,,,,,,,,,,,,,,,,,,,,,,,,,,
,,,,,,,,2023-08-06_08h20.24.098,HF_wild_card,2022.2.4,Win32,60.02040694,5c6b23a6076e4e0001292f53,64ce5acb97489d65b14ecc7a,64cf49a9e48222106d15bdba,,,,,,,ctch,resources/DBN.BMP,resources/DR.BMP,Door3,-0.225925926,-0.031481481,1,0,0,0.6408,optionLeft,70,12490,6,16,0,16,0,1,,,,,,,,,,,,,,,,,,,,,,,,,,,,,,,,,,,,,,,
,,,,,,,,2023-08-06_08h20.24.098,HF_wild_card,2022.2.4,Win32,60.02040694,5c6b23a6076e4e0001292f53,64ce5acb97489d65b14ecc7a,64cf49a9e48222106d15bdba,,,,,,,sngl,resources/Empty.png,resources/DY.BMP,WildCard_Ex,0.299074074,-0.00462963,1,0,0,0.8022,optionRight,95,12585,6,17,0,17,0,1,,,,,,,,,,,,,,,,,,,,,,,,,,,,,,,,,,,,,,,
,,,,,,,,2023-08-06_08h20.24.098,HF_wild_card,2022.2.4,Win32,60.02040694,5c6b23a6076e4e0001292f53,64ce5acb97489d65b14ecc7a,64cf49a9e48222106d15bdba,,,,,,,sngl,resources/DG.BMP,resources/Empty.png,Door4,-0.240740741,0.00462963,1,0,0,0.6341,optionLeft,60,12645,6,18,0,18,0,1,,,,,,,,,,,,,,,,,,,,,,,,,,,,,,,,,,,,,,,
,,,,,,,,2023-08-06_08h20.24.098,HF_wild_card,2022.2.4,Win32,60.02040694,5c6b23a6076e4e0001292f53,64ce5acb97489d65b14ecc7a,64cf49a9e48222106d15bdba,,,,,,,decisionTrl,resources/DR.BMP,resources/DB.BMP,Door2,-0.221296296,-0.012962963,1,0,0,2.2026,optionLeft,40,12685,6,19,0,19,0,1,,,,,,,,,,,,,,,,,,,,,,,,,,,,,,,,,,,,,,,
,,,,,,,,2023-08-06_08h20.24.098,HF_wild_card,2022.2.4,Win32,60.02040694,5c6b23a6076e4e0001292f53,64ce5acb97489d65b14ecc7a,64cf49a9e48222106d15bdba,,,,,,,decisionTrl,resources/DB.BMP,resources/DR.BMP,Door2,0.243518519,-0.013888889,1,0,0,1.1535,optionRight,20,12705,6,20,0,20,0,1,,,,,,,,,,,,,,,,,,,,,,,,,,,,,,,,,,,,,,,
,,,,,,,,2023-08-06_08h20.24.098,HF_wild_card,2022.2.4,Win32,60.02040694,5c6b23a6076e4e0001292f53,64ce5acb97489d65b14ecc7a,64cf49a9e48222106d15bdba,,,,,,,decisionTrl,resources/DY.BMP,resources/DR.BMP,WildCard_Ex,-0.171296296,-0.033333333,1,0,0,1.1098,optionLeft,5,12710,6,21,0,21,0,1,,,,,,,,,,,,,,,,,,,,,,,,,,,,,,,,,,,,,,,
,,,,,,,,2023-08-06_08h20.24.098,HF_wild_card,2022.2.4,Win32,60.02040694,5c6b23a6076e4e0001292f53,64ce5acb97489d65b14ecc7a,64cf49a9e48222106d15bdba,,,,,,,ctch,resources/DB.BMP,resources/DG.BMP,Door4,0.186111111,-0.002777778,1,0,0,0.9434,optionRight,80,12790,6,22,0,22,0,1,,,,,,,,,,,,,,,,,,,,,,,,,,,,,,,,,,,,,,,
,,,,,,,,2023-08-06_08h20.24.098,HF_wild_card,2022.2.4,Win32,60.02040694,5c6b23a6076e4e0001292f53,64ce5acb97489d65b14ecc7a,64cf49a9e48222106d15bdba,,,,,,,decisionTrl,resources/DBN.BMP,resources/DG.BMP,Door4,0.14537037,-0.012037037,1,0,0,2.116,optionRight,80,12870,6,23,0,23,0,1,,,,,,,,,,,,,,,,,,,,,,,,,,,,,,,,,,,,,,,
,,,,,,,,2023-08-06_08h20.24.098,HF_wild_card,2022.2.4,Win32,60.02040694,5c6b23a6076e4e0001292f53,64ce5acb97489d65b14ecc7a,64cf49a9e48222106d15bdba,,,,,,,decisionTrl,resources/DY.BMP,resources/DBN.BMP,WildCard_Ex,-0.217592593,-0.022222222,1,0,0,3.275,optionLeft,95,12965,6,24,0,24,0,1,,,,,,,,,,,,,,,,,,,,,,,,,,,,,,,,,,,,,,,
,,,,,,,,2023-08-06_08h20.24.098,HF_wild_card,2022.2.4,Win32,60.02040694,5c6b23a6076e4e0001292f53,64ce5acb97489d65b14ecc7a,64cf49a9e48222106d15bdba,,,,,,,decisionTrl,resources/DBN.BMP,resources/DG.BMP,Door3,-0.289814815,-0.013888889,1,0,0,2.0172,optionLeft,70,13035,6,25,0,25,0,1,,,,,,,,,,,,,,,,,,,,,,,,,,,,,,,,,,,,,,,
,,,,,,,,2023-08-06_08h20.24.098,HF_wild_card,2022.2.4,Win32,60.02040694,5c6b23a6076e4e0001292f53,64ce5acb97489d65b14ecc7a,64cf49a9e48222106d15bdba,,,,,,,decisionTrl,resources/DBN.BMP,resources/DG.BMP,Door3,-0.282407407,-0.00462963,1,0,0,0.6822,optionLeft,70,13105,6,26,0,26,0,1,,,,,,,,,,,,,,,,,,,,,,,,,,,,,,,,,,,,,,,
,,,,,,,,2023-08-06_08h20.24.098,HF_wild_card,2022.2.4,Win32,60.02040694,5c6b23a6076e4e0001292f53,64ce5acb97489d65b14ecc7a,64cf49a9e48222106d15bdba,,,,,,,decisionTrl,resources/DG.BMP,resources/DY.BMP,Door4,-0.182407407,-0.011111111,1,0,0,5.5069,optionLeft,60,13165,6,27,0,27,0,1,,,,,,,,,,,,,,,,,,,,,,,,,,,,,,,,,,,,,,,
,,,,,,,,2023-08-06_08h20.24.098,HF_wild_card,2022.2.4,Win32,60.02040694,5c6b23a6076e4e0001292f53,64ce5acb97489d65b14ecc7a,64cf49a9e48222106d15bdba,,,,,,,ctch,resources/DG.BMP,resources/DB.BMP,Door4,-0.283333333,-0.005555556,1,0,0,0.7408,optionLeft,80,13245,6,28,0,28,0,1,,,,,,,,,,,,,,,,,,,,,,,,,,,,,,,,,,,,,,,
,,,,,,,,2023-08-06_08h20.24.098,HF_wild_card,2022.2.4,Win32,60.02040694,5c6b23a6076e4e0001292f53,64ce5acb97489d65b14ecc7a,64cf49a9e48222106d15bdba,,,,,,,ctch,resources/DG.BMP,resources/DB.BMP,Door4,-0.297222222,-0.041666667,1,0,0,0.5904,optionLeft,80,13325,6,29,0,29,0,1,,,,,,,,,,,,,,,,,,,,,,,,,,,,,,,,,,,,,,,
,,,,,,,,2023-08-06_08h20.24.098,HF_wild_card,2022.2.4,Win32,60.02040694,5c6b23a6076e4e0001292f53,64ce5acb97489d65b14ecc7a,64cf49a9e48222106d15bdba,,,,,,,decisionTrl,resources/DR.BMP,resources/DY.BMP,WildCard_Ex,0.2,-0.016666667,1,0,0,1.468,optionRight,5,13330,6,30,0,30,0,1,,,,,,,,,,,,,,,,,,,,,,,,,,,,,,,,,,,,,,,
,,,,,,,,2023-08-06_08h20.24.098,HF_wild_card,2022.2.4,Win32,60.02040694,5c6b23a6076e4e0001292f53,64ce5acb97489d65b14ecc7a,64cf49a9e48222106d15bdba,,,,,,,sngl,resources/Empty.png,resources/DY.BMP,WildCard_Ex,0.200925926,-0.017592593,1,0,0,0.6758,optionRight,5,13335,6,31,0,31,0,1,,,,,,,,,,,,,,,,,,,,,,,,,,,,,,,,,,,,,,,
,,,,,,,,2023-08-06_08h20.24.098,HF_wild_card,2022.2.4,Win32,60.02040694,5c6b23a6076e4e0001292f53,64ce5acb97489d65b14ecc7a,64cf49a9e48222106d15bdba,,,,,,,sngl,resources/DY.BMP,resources/Empty.png,WildCard_Ex,-0.171296296,-0.00462963,1,0,0,0.6591,optionLeft,95,13430,6,32,0,32,0,1,,,,,,,,,,,,,,,,,,,,,,,,,,,,,,,,,,,,,,,
,,,,,,,,2023-08-06_08h20.24.098,HF_wild_card,2022.2.4,Win32,60.02040694,5c6b23a6076e4e0001292f53,64ce5acb97489d65b14ecc7a,64cf49a9e48222106d15bdba,,,,,,,decisionTrl,resources/DR.BMP,resources/DB.BMP,Door2,-0.233333333,-0.046296296,1,0,0,1.2979,optionLeft,40,13470,6,33,0,33,0,1,,,,,,,,,,,,,,,,,,,,,,,,,,,,,,,,,,,,,,,
,,,,,,,,2023-08-06_08h20.24.098,HF_wild_card,2022.2.4,Win32,60.02040694,5c6b23a6076e4e0001292f53,64ce5acb97489d65b14ecc7a,64cf49a9e48222106d15bdba,,,,,,,decisionTrl,resources/DR.BMP,resources/DB.BMP,Door2,-0.251851852,-0.013888889,1,0,0,0.6244,optionLeft,20,13490,6,34,0,34,0,1,,,,,,,,,,,,,,,,,,,,,,,,,,,,,,,,,,,,,,,
,,,,,,,,2023-08-06_08h20.24.098,HF_wild_card,2022.2.4,Win32,60.02040694,5c6b23a6076e4e0001292f53,64ce5acb97489d65b14ecc7a,64cf49a9e48222106d15bdba,,,,,,,decisionTrl,resources/DG.BMP,resources/DBN.BMP,Door4,-0.272222222,-0.033333333,1,0,0,1.9666,optionLeft,80,13570,6,35,0,35,0,1,,,,,,,,,,,,,,,,,,,,,,,,,,,,,,,,,,,,,,,
,,,,,,,,2023-08-06_08h20.24.098,HF_wild_card,2022.2.4,Win32,60.02040694,5c6b23a6076e4e0001292f53,64ce5acb97489d65b14ecc7a,64cf49a9e48222106d15bdba,,,,,,,decisionTrl,resources/DY.BMP,resources/DB.BMP,WildCard_Ex,-0.265740741,-0.026851852,1,0,0,1.0444,optionLeft,95,13665,6,36,0,36,0,1,,,,,,,,,,,,,,,,,,,,,,,,,,,,,,,,,,,,,,,
,,,,,,,,2023-08-06_08h20.24.098,HF_wild_card,2022.2.4,Win32,60.02040694,5c6b23a6076e4e0001292f53,64ce5acb97489d65b14ecc7a,64cf49a9e48222106d15bdba,,,,,,,ctch,resources/DR.BMP,resources/DBN.BMP,Door3,0.40462963,0.022222222,1,0,0,1.2472,optionRight,70,13735,6,37,0,37,0,1,,,,,,,,,,,,,,,,,,,,,,,,,,,,,,,,,,,,,,,
,,,,,,,,2023-08-06_08h20.24.098,HF_wild_card,2022.2.4,Win32,60.02040694,5c6b23a6076e4e0001292f53,64ce5acb97489d65b14ecc7a,64cf49a9e48222106d15bdba,,,,,,,sngl,resources/Empty.png,resources/DB.BMP,Door1,0.252777778,0.016666667,1,0,0,0.6884,optionRight,30,13765,6,38,0,38,0,1,,,,,,,,,,,,,,,,,,,,,,,,,,,,,,,,,,,,,,,
,,,,,,,,2023-08-06_08h20.24.098,HF_wild_card,2022.2.4,Win32,60.02040694,5c6b23a6076e4e0001292f53,64ce5acb97489d65b14ecc7a,64cf49a9e48222106d15bdba,,,,,,,sngl,resources/DBN.BMP,resources/Empty.png,Door3,-0.247222222,0.037962963,1,0,0,0.5917,optionLeft,70,13835,6,39,0,39,0,1,,,,,,,,,,,,,,,,,,,,,,,,,,,,,,,,,,,,,,,
,,,,,,,,2023-08-06_08h20.24.098,HF_wild_card,2022.2.4,Win32,60.02040694,5c6b23a6076e4e0001292f53,64ce5acb97489d65b14ecc7a,64cf49a9e48222106d15bdba,,,,,,,decisionTrl,resources/DB.BMP,resources/DY.BMP,Door1,-0.122222222,-0.02962963,1,0,0,2.3616,optionLeft,30,13865,6,40,0,40,0,1,,,,,,,,,,,,,,,,,,,,,,,,,,,,,,,,,,,,,,,
,,,,,,,,2023-08-06_08h20.24.098,HF_wild_card,2022.2.4,Win32,60.02040694,5c6b23a6076e4e0001292f53,64ce5acb97489d65b14ecc7a,64cf49a9e48222106d15bdba,,,,,,,sngl,resources/DY.BMP,resources/Empty.png,WildCard_Ex,-0.256481481,-0.013888889,1,0,0,0.5561,optionLeft,5,13870,6,41,0,41,0,1,,,,,,,,,,,,,,,,,,,,,,,,,,,,,,,,,,,,,,,
,,,,,,,,2023-08-06_08h20.24.098,HF_wild_card,2022.2.4,Win32,60.02040694,5c6b23a6076e4e0001292f53,64ce5acb97489d65b14ecc7a,64cf49a9e48222106d15bdba,,,,,,,ctch,resources/DR.BMP,resources/DBN.BMP,Door3,0.242592593,0.016666667,1,0,0,0.778,optionRight,70,13940,6,42,0,42,0,1,,,,,,,,,,,,,,,,,,,,,,,,,,,,,,,,,,,,,,,
,,,,,,,,2023-08-06_08h20.24.098,HF_wild_card,2022.2.4,Win32,60.02040694,5c6b23a6076e4e0001292f53,64ce5acb97489d65b14ecc7a,64cf49a9e48222106d15bdba,,,,,,,decisionTrl,resources/DR.BMP,resources/DB.BMP,Door2,-0.268518519,-0.022222222,1,0,0,0.9826,optionLeft,40,13980,6,43,0,43,0,1,,,,,,,,,,,,,,,,,,,,,,,,,,,,,,,,,,,,,,,
,,,,,,,,2023-08-06_08h20.24.098,HF_wild_card,2022.2.4,Win32,60.02040694,5c6b23a6076e4e0001292f53,64ce5acb97489d65b14ecc7a,64cf49a9e48222106d15bdba,,,,,,,,,,,,,,,,,,,,,,,,,,5,0,5,0,1,,,,,,,,,,,,,,,,,,,,,,,,,,,,,,,,,,
,,,,,,,,2023-08-06_08h20.24.098,HF_wild_card,2022.2.4,Win32,60.02040694,5c6b23a6076e4e0001292f53,64ce5acb97489d65b14ecc7a,64cf49a9e48222106d15bdba,,,,,,,ctch,resources/DG.BMP,resources/DB.BMP,Door4,-0.222222222,-0.077777778,1,0,0,1.1732,optionLeft,60,14040,7,0,0,0,0,1,,,,,,,,,,,,,,,,,,,,,,,,,,,,,,,,,,,,,,,
,,,,,,,,2023-08-06_08h20.24.098,HF_wild_card,2022.2.4,Win32,60.02040694,5c6b23a6076e4e0001292f53,64ce5acb97489d65b14ecc7a,64cf49a9e48222106d15bdba,,,,,,,decisionTrl,resources/DG.BMP,resources/DBN.BMP,Door3,0.448148148,-0.037962963,1,0,0,0.7656,optionRight,70,14110,7,1,0,1,0,1,,,,,,,,,,,,,,,,,,,,,,,,,,,,,,,,,,,,,,,
,,,,,,,,2023-08-06_08h20.24.098,HF_wild_card,2022.2.4,Win32,60.02040694,5c6b23a6076e4e0001292f53,64ce5acb97489d65b14ecc7a,64cf49a9e48222106d15bdba,,,,,,,decisionTrl,resources/DR.BMP,resources/DB.BMP,Door2,-0.349074074,-0.085185185,1,0,0,1.2641,optionLeft,20,14130,7,2,0,2,0,1,,,,,,,,,,,,,,,,,,,,,,,,,,,,,,,,,,,,,,,
,,,,,,,,2023-08-06_08h20.24.098,HF_wild_card,2022.2.4,Win32,60.02040694,5c6b23a6076e4e0001292f53,64ce5acb97489d65b14ecc7a,64cf49a9e48222106d15bdba,,,,,,,decisionTrl,resources/DBN.BMP,resources/DG.BMP,Door3,-0.312962963,-0.046296296,1,0,0,1.3155,optionLeft,70,14200,7,3,0,3,0,1,,,,,,,,,,,,,,,,,,,,,,,,,,,,,,,,,,,,,,,
,,,,,,,,2023-08-06_08h20.24.098,HF_wild_card,2022.2.4,Win32,60.02040694,5c6b23a6076e4e0001292f53,64ce5acb97489d65b14ecc7a,64cf49a9e48222106d15bdba,,,,,,,decisionTrl,resources/DB.BMP,resources/DR.BMP,Door2,0.241666667,-0.009259259,1,0,0,1.6292,optionRight,20,14220,7,4,0,4,0,1,,,,,,,,,,,,,,,,,,,,,,,,,,,,,,,,,,,,,,,
,,,,,,,,2023-08-06_08h20.24.098,HF_wild_card,2022.2.4,Win32,60.02040694,5c6b23a6076e4e0001292f53,64ce5acb97489d65b14ecc7a,64cf49a9e48222106d15bdba,,,,,,,ctch,resources/DBN.BMP,resources/DR.BMP,Door3,-0.277777778,0.003703704,1,0,0,0.6293,optionLeft,70,14290,7,5,0,5,0,1,,,,,,,,,,,,,,,,,,,,,,,,,,,,,,,,,,,,,,,
,,,,,,,,2023-08-06_08h20.24.098,HF_wild_card,2022.2.4,Win32,60.02040694,5c6b23a6076e4e0001292f53,64ce5acb97489d65b14ecc7a,64cf49a9e48222106d15bdba,,,,,,,decisionTrl,resources/DBN.BMP,resources/DG.BMP,Door3,-0.297222222,0.012037037,1,0,0,0.5621,optionLeft,70,14360,7,6,0,6,0,1,,,,,,,,,,,,,,,,,,,,,,,,,,,,,,,,,,,,,,,
,,,,,,,,2023-08-06_08h20.24.098,HF_wild_card,2022.2.4,Win32,60.02040694,5c6b23a6076e4e0001292f53,64ce5acb97489d65b14ecc7a,64cf49a9e48222106d15bdba,,,,,,,decisionTrl,resources/DBN.BMP,resources/DG.BMP,Door3,-0.315740741,-0.010185185,1,0,0,0.5966,optionLeft,70,14430,7,7,0,7,0,1,,,,,,,,,,,,,,,,,,,,,,,,,,,,,,,,,,,,,,,
,,,,,,,,2023-08-06_08h20.24.098,HF_wild_card,2022.2.4,Win32,60.02040694,5c6b23a6076e4e0001292f53,64ce5acb97489d65b14ecc7a,64cf49a9e48222106d15bdba,,,,,,,decisionTrl,resources/DB.BMP,resources/DR.BMP,Door2,0.314814815,-0.009259259,1,0,0,1.0982,optionRight,20,14450,7,8,0,8,0,1,,,,,,,,,,,,,,,,,,,,,,,,,,,,,,,,,,,,,,,
,,,,,,,,2023-08-06_08h20.24.098,HF_wild_card,2022.2.4,Win32,60.02040694,5c6b23a6076e4e0001292f53,64ce5acb97489d65b14ecc7a,64cf49a9e48222106d15bdba,,,,,,,ctch,resources/DBN.BMP,resources/DR.BMP,Door3,-0.186111111,-0.018518519,1,0,0,0.6948,optionLeft,70,14520,7,9,0,9,0,1,,,,,,,,,,,,,,,,,,,,,,,,,,,,,,,,,,,,,,,
,,,,,,,,2023-08-06_08h20.24.098,HF_wild_card,2022.2.4,Win32,60.02040694,5c6b23a6076e4e0001292f53,64ce5acb97489d65b14ecc7a,64cf49a9e48222106d15bdba,,,,,,,decisionTrl,resources/DG.BMP,resources/DBN.BMP,Door3,0.330555556,-0.005555556,1,0,0,0.8268,optionRight,70,14590,7,10,0,10,0,1,,,,,,,,,,,,,,,,,,,,,,,,,,,,,,,,,,,,,,,
,,,,,,,,2023-08-06_08h20.24.098,HF_wild_card,2022.2.4,Win32,60.02040694,5c6b23a6076e4e0001292f53,64ce5acb97489d65b14ecc7a,64cf49a9e48222106d15bdba,,,,,,,ctch,resources/DB.BMP,resources/DG.BMP,Door4,0.283333333,-0.002777778,1,0,0,1.0625,optionRight,80,14670,7,11,0,11,0,1,,,,,,,,,,,,,,,,,,,,,,,,,,,,,,,,,,,,,,,
,,,,,,,,2023-08-06_08h20.24.098,HF_wild_card,2022.2.4,Win32,60.02040694,5c6b23a6076e4e0001292f53,64ce5acb97489d65b14ecc7a,64cf49a9e48222106d15bdba,,,,,,,ctch,resources/DG.BMP,resources/DB.BMP,Door4,-0.233333333,-0.012037037,1,0,0,0.8034,optionLeft,60,14730,7,12,0,12,0,1,,,,,,,,,,,,,,,,,,,,,,,,,,,,,,,,,,,,,,,
,,,,,,,,2023-08-06_08h20.24.098,HF_wild_card,2022.2.4,Win32,60.02040694,5c6b23a6076e4e0001292f53,64ce5acb97489d65b14ecc7a,64cf49a9e48222106d15bdba,,,,,,,decisionTrl,resources/DBN.BMP,resources/DG.BMP,Door3,-0.202777778,-0.003703704,1,0,0,0.6705,optionLeft,70,14800,7,13,0,13,0,1,,,,,,,,,,,,,,,,,,,,,,,,,,,,,,,,,,,,,,,
,,,,,,,,2023-08-06_08h20.24.098,HF_wild_card,2022.2.4,Win32,60.02040694,5c6b23a6076e4e0001292f53,64ce5acb97489d65b14ecc7a,64cf49a9e48222106d15bdba,,,,,,,ctch,resources/DR.BMP,resources/DBN.BMP,Door3,0.244444444,0.02037037,1,0,0,1.0574,optionRight,70,14870,7,14,0,14,0,1,,,,,,,,,,,,,,,,,,,,,,,,,,,,,,,,,,,,,,,
,,,,,,,,2023-08-06_08h20.24.098,HF_wild_card,2022.2.4,Win32,60.02040694,5c6b23a6076e4e0001292f53,64ce5acb97489d65b14ecc7a,64cf49a9e48222106d15bdba,,,,,,,decisionTrl,resources/DG.BMP,resources/DBN.BMP,Door3,0.252777778,0.003703704,1,0,0,0.7993,optionRight,70,14940,7,15,0,15,0,1,,,,,,,,,,,,,,,,,,,,,,,,,,,,,,,,,,,,,,,
,,,,,,,,2023-08-06_08h20.24.098,HF_wild_card,2022.2.4,Win32,60.02040694,5c6b23a6076e4e0001292f53,64ce5acb97489d65b14ecc7a,64cf49a9e48222106d15bdba,,,,,,,ctch,resources/DR.BMP,resources/DBN.BMP,Door3,0.240740741,0.013888889,1,0,0,0.807,optionRight,70,15010,7,16,0,16,0,1,,,,,,,,,,,,,,,,,,,,,,,,,,,,,,,,,,,,,,,
,,,,,,,,2023-08-06_08h20.24.098,HF_wild_card,2022.2.4,Win32,60.02040694,5c6b23a6076e4e0001292f53,64ce5acb97489d65b14ecc7a,64cf49a9e48222106d15bdba,,,,,,,decisionTrl,resources/DG.BMP,resources/DBN.BMP,Door4,-0.221296296,-0.015740741,1,0,0,1.0553,optionLeft,60,15070,7,17,0,17,0,1,,,,,,,,,,,,,,,,,,,,,,,,,,,,,,,,,,,,,,,
,,,,,,,,2023-08-06_08h20.24.098,HF_wild_card,2022.2.4,Win32,60.02040694,5c6b23a6076e4e0001292f53,64ce5acb97489d65b14ecc7a,64cf49a9e48222106d15bdba,,,,,,,ctch,resources/DG.BMP,resources/DB.BMP,Door4,-0.25462963,-0.002777778,1,0,0,0.9139,optionLeft,60,15130,7,18,0,18,0,1,,,,,,,,,,,,,,,,,,,,,,,,,,,,,,,,,,,,,,,
,,,,,,,,2023-08-06_08h20.24.098,HF_wild_card,2022.2.4,Win32,60.02040694,5c6b23a6076e4e0001292f53,64ce5acb97489d65b14ecc7a,64cf49a9e48222106d15bdba,,,,,,,ctch,resources/DB.BMP,resources/DG.BMP,Door4,0.311111111,0.027777778,1,0,0,0.8326,optionRight,80,15210,7,19,0,19,0,1,,,,,,,,,,,,,,,,,,,,,,,,,,,,,,,,,,,,,,,
,,,,,,,,2023-08-06_08h20.24.098,HF_wild_card,2022.2.4,Win32,60.02040694,5c6b23a6076e4e0001292f53,64ce5acb97489d65b14ecc7a,64cf49a9e48222106d15bdba,,,,,,,decisionTrl,resources/DB.BMP,resources/DR.BMP,Door2,0.187037037,-0.014814815,1,0,0,1.1319,optionRight,40,15250,7,20,0,20,0,1,,,,,,,,,,,,,,,,,,,,,,,,,,,,,,,,,,,,,,,
,,,,,,,,2023-08-06_08h20.24.098,HF_wild_card,2022.2.4,Win32,60.02040694,5c6b23a6076e4e0001292f53,64ce5acb97489d65b14ecc7a,64cf49a9e48222106d15bdba,,,,,,,decisionTrl,resources/DB.BMP,resources/DR.BMP,Door2,0.243518519,-0.015740741,1,0,0,0.8976,optionRight,20,15270,7,21,0,21,0,1,,,,,,,,,,,,,,,,,,,,,,,,,,,,,,,,,,,,,,,
,,,,,,,,2023-08-06_08h20.24.098,HF_wild_card,2022.2.4,Win32,60.02040694,5c6b23a6076e4e0001292f53,64ce5acb97489d65b14ecc7a,64cf49a9e48222106d15bdba,,,,,,,decisionTrl,resources/DR.BMP,resources/DB.BMP,Door2,-0.217592593,-0.033333333,1,0,0,1.1852,optionLeft,20,15290,7,22,0,22,0,1,,,,,,,,,,,,,,,,,,,,,,,,,,,,,,,,,,,,,,,
,,,,,,,,2023-08-06_08h20.24.098,HF_wild_card,2022.2.4,Win32,60.02040694,5c6b23a6076e4e0001292f53,64ce5acb97489d65b14ecc7a,64cf49a9e48222106d15bdba,,,,,,,decisionTrl,resources/DR.BMP,resources/DB.BMP,Door2,-0.297222222,-0.018518519,1,0,0,0.6154,optionLeft,40,15330,7,23,0,23,0,1,,,,,,,,,,,,,,,,,,,,,,,,,,,,,,,,,,,,,,,
,,,,,,,,2023-08-06_08h20.24.098,HF_wild_card,2022.2.4,Win32,60.02040694,5c6b23a6076e4e0001292f53,64ce5acb97489d65b14ecc7a,64cf49a9e48222106d15bdba,,,,,,,decisionTrl,resources/DG.BMP,resources/DBN.BMP,Door3,0.266666667,-0.02037037,1,0,0,0.7753,optionRight,70,15400,7,24,0,24,0,1,,,,,,,,,,,,,,,,,,,,,,,,,,,,,,,,,,,,,,,
,,,,,,,,2023-08-06_08h20.24.098,HF_wild_card,2022.2.4,Win32,60.02040694,5c6b23a6076e4e0001292f53,64ce5acb97489d65b14ecc7a,64cf49a9e48222106d15bdba,,,,,,,decisionTrl,resources/DB.BMP,resources/DR.BMP,Door2,0.300925926,-0.021296296,1,0,0,1.7222,optionRight,20,15420,7,25,0,25,0,1,,,,,,,,,,,,,,,,,,,,,,,,,,,,,,,,,,,,,,,
,,,,,,,,2023-08-06_08h20.24.098,HF_wild_card,2022.2.4,Win32,60.02040694,5c6b23a6076e4e0001292f53,64ce5acb97489d65b14ecc7a,64cf49a9e48222106d15bdba,,,,,,,decisionTrl,resources/DG.BMP,resources/DBN.BMP,Door3,0.340740741,-0.037962963,1,0,0,0.7667,optionRight,70,15490,7,26,0,26,0,1,,,,,,,,,,,,,,,,,,,,,,,,,,,,,,,,,,,,,,,
,,,,,,,,2023-08-06_08h20.24.098,HF_wild_card,2022.2.4,Win32,60.02040694,5c6b23a6076e4e0001292f53,64ce5acb97489d65b14ecc7a,64cf49a9e48222106d15bdba,,,,,,,decisionTrl,resources/DR.BMP,resources/DB.BMP,Door2,-0.287037037,-0.034259259,1,0,0,0.7902,optionLeft,20,15510,7,27,0,27,0,1,,,,,,,,,,,,,,,,,,,,,,,,,,,,,,,,,,,,,,,
,,,,,,,,2023-08-06_08h20.24.098,HF_wild_card,2022.2.4,Win32,60.02040694,5c6b23a6076e4e0001292f53,64ce5acb97489d65b14ecc7a,64cf49a9e48222106d15bdba,,,,,,,decisionTrl,resources/DR.BMP,resources/DB.BMP,Door2,-0.262037037,-0.018518519,1,0,0,0.5822,optionLeft,40,15550,7,28,0,28,0,1,,,,,,,,,,,,,,,,,,,,,,,,,,,,,,,,,,,,,,,
,,,,,,,,2023-08-06_08h20.24.098,HF_wild_card,2022.2.4,Win32,60.02040694,5c6b23a6076e4e0001292f53,64ce5acb97489d65b14ecc7a,64cf49a9e48222106d15bdba,,,,,,,decisionTrl,resources/DBN.BMP,resources/DG.BMP,Door4,0.247222222,0.011111111,1,0,0,1.1184,optionRight,60,15610,7,29,0,29,0,1,,,,,,,,,,,,,,,,,,,,,,,,,,,,,,,,,,,,,,,
,,,,,,,,2023-08-06_08h20.24.098,HF_wild_card,2022.2.4,Win32,60.02040694,5c6b23a6076e4e0001292f53,64ce5acb97489d65b14ecc7a,64cf49a9e48222106d15bdba,,,,,,,ctch,resources/DB.BMP,resources/DG.BMP,Door4,0.212037037,-0.010185185,1,0,0,2.125,optionRight,60,15670,7,30,0,30,0,1,,,,,,,,,,,,,,,,,,,,,,,,,,,,,,,,,,,,,,,
,,,,,,,,2023-08-06_08h20.24.098,HF_wild_card,2022.2.4,Win32,60.02040694,5c6b23a6076e4e0001292f53,64ce5acb97489d65b14ecc7a,64cf49a9e48222106d15bdba,,,,,,,decisionTrl,resources/DB.BMP,resources/DR.BMP,Door2,0.276851852,-0.024074074,1,0,0,0.8737,optionRight,40,15710,7,31,0,31,0,1,,,,,,,,,,,,,,,,,,,,,,,,,,,,,,,,,,,,,,,
,,,,,,,,2023-08-06_08h20.24.098,HF_wild_card,2022.2.4,Win32,60.02040694,5c6b23a6076e4e0001292f53,64ce5acb97489d65b14ecc7a,64cf49a9e48222106d15bdba,,,,,,,decisionTrl,resources/DBN.BMP,resources/DG.BMP,Door3,-0.237037037,0.000925926,1,0,0,0.7675,optionLeft,70,15780,7,32,0,32,0,1,,,,,,,,,,,,,,,,,,,,,,,,,,,,,,,,,,,,,,,
,,,,,,,,2023-08-06_08h20.24.098,HF_wild_card,2022.2.4,Win32,60.02040694,5c6b23a6076e4e0001292f53,64ce5acb97489d65b14ecc7a,64cf49a9e48222106d15bdba,,,,,,,ctch,resources/DBN.BMP,resources/DR.BMP,Door3,-0.208333333,-0.012037037,1,0,0,0.6827,optionLeft,70,15850,7,33,0,33,0,1,,,,,,,,,,,,,,,,,,,,,,,,,,,,,,,,,,,,,,,
,,,,,,,,2023-08-06_08h20.24.098,HF_wild_card,2022.2.4,Win32,60.02040694,5c6b23a6076e4e0001292f53,64ce5acb97489d65b14ecc7a,64cf49a9e48222106d15bdba,,,,,,,decisionTrl,resources/DR.BMP,resources/DB.BMP,Door2,-0.300925926,-0.015740741,1,0,0,1.2058,optionLeft,20,15870,7,34,0,34,0,1,,,,,,,,,,,,,,,,,,,,,,,,,,,,,,,,,,,,,,,
,,,,,,,,2023-08-06_08h20.24.098,HF_wild_card,2022.2.4,Win32,60.02040694,5c6b23a6076e4e0001292f53,64ce5acb97489d65b14ecc7a,64cf49a9e48222106d15bdba,,,,,,,ctch,resources/DR.BMP,resources/DBN.BMP,Door3,0.176851852,-0.032407407,1,0,0,1.0341,optionRight,70,15940,7,35,0,35,0,1,,,,,,,,,,,,,,,,,,,,,,,,,,,,,,,,,,,,,,,
,,,,,,,,2023-08-06_08h20.24.098,HF_wild_card,2022.2.4,Win32,60.02040694,5c6b23a6076e4e0001292f53,64ce5acb97489d65b14ecc7a,64cf49a9e48222106d15bdba,,,,,,,,,,,,,,,,,,,,,,,,,,6,0,6,0,1,,,,,,,,,,,,,,,,,,,,,,,,,,,,,,,,,,
,,,,,,,,2023-08-06_08h20.24.098,HF_wild_card,2022.2.4,Win32,60.02040694,5c6b23a6076e4e0001292f53,64ce5acb97489d65b14ecc7a,64cf49a9e48222106d15bdba,,,,,,,,,,,,,,,,,,,,,,,,,,,,,,,3,,,,,,,,,,,,,,,,,,,,,,,,,,,,,,,,,
,,,,,,,,2023-08-06_08h20.24.098,HF_wild_card,2022.2.4,Win32,60.02040694,5c6b23a6076e4e0001292f53,64ce5acb97489d65b14ecc7a,64cf49a9e48222106d15bdba,,,,,,,,,,,,,,,,,,,,,,,,,,,,,,,,,,,,,,,,,,,,,,,,,,,,,,,,,,,,,,,,
,,,,,,,,2023-08-06_08h20.24.098,HF_wild_card,2022.2.4,Win32,60.02040694,5c6b23a6076e4e0001292f53,64ce5acb97489d65b14ecc7a,64cf49a9e48222106d15bdba,,,,,,,,,,,,,,,,,,,,,,,,,,,,,,,,45,WC_nonExtreme,resources/DP.BMP,0,0,0,0,1,,,,,,,,,,,,,,,,,,,,,,,,,
,,,,,,,,2023-08-06_08h20.24.098,HF_wild_card,2022.2.4,Win32,60.02040694,5c6b23a6076e4e0001292f53,64ce5acb97489d65b14ecc7a,64cf49a9e48222106d15bdba,,,,,,,,,,,,,,,,,,,,,,,,,,,,,,,,70,Door3,resources/DBN.BMP,1,0,1,0,1,,,,,,,,,,,,,,,,,,,,,,,,,
,,,,,,,,2023-08-06_08h20.24.098,HF_wild_card,2022.2.4,Win32,60.02040694,5c6b23a6076e4e0001292f53,64ce5acb97489d65b14ecc7a,64cf49a9e48222106d15bdba,,,,,,,,,,,,,,,,,,,,,,,,,,,,,,,,40,Door2,resources/DR.BMP,2,0,2,0,1,,,,,,,,,,,,,,,,,,,,,,,,,
,,,,,,,,2023-08-06_08h20.24.098,HF_wild_card,2022.2.4,Win32,60.02040694,5c6b23a6076e4e0001292f53,64ce5acb97489d65b14ecc7a,64cf49a9e48222106d15bdba,,,,,,,,,,,,,,,,,,,,,,,,,,,,,,,,30,Door1,resources/DB.BMP,3,0,3,0,1,,,,,,,,,,,,,,,,,,,,,,,,,
,,,,,,,,2023-08-06_08h20.24.098,HF_wild_card,2022.2.4,Win32,60.02040694,5c6b23a6076e4e0001292f53,64ce5acb97489d65b14ecc7a,64cf49a9e48222106d15bdba,,,,,,,,,,,,,,,,,,,,,,,,,,,,,,,,95,WC_extreme,resources/DY.BMP,4,0,4,0,1,,,,,,,,,,,,,,,,,,,,,,,,,
,,,,,,,,2023-08-06_08h20.24.098,HF_wild_card,2022.2.4,Win32,60.02040694,5c6b23a6076e4e0001292f53,64ce5acb97489d65b14ecc7a,64cf49a9e48222106d15bdba,,,,,,,,,,,,,,,,,,,,,,,,,,,,,,,,80,Door4,resources/DG.BMP,5,0,5,0,1,,,,,,,,,,,,,,,,,,,,,,,,,
,,,,,,,,2023-08-06_08h20.24.098,HF_wild_card,2022.2.4,Win32,60.02040694,5c6b23a6076e4e0001292f53,64ce5acb97489d65b14ecc7a,64cf49a9e48222106d15bdba,,,,,,,,,,,,,,,,,,,,,,,,,,,,,,,,,,,,,,,,,,,,,,,,,,,,,,,,,,,,,,,,
