Condition,Low fixed image (Door1),Low risky image (Door2),High fixed image (Door3),High risky image (Door4),Extreme Wild Card,NonExtreme Wild Card,,date,expName,psychopyVersion,OS,frameRate,PROLIFIC_PID,STUDY_ID,SESSION_ID,mouse_2.x,mouse_2.y,mouse_2.leftButton,mouse_2.midButton,mouse_2.rightButton,mouse_2.clicked_name,Trial Type,Left Option Image,Right Option Image,Chosen Door,mouse.x,mouse.y,mouse.leftButton,mouse.midButton,mouse.rightButton,mouse.time,mouse.clicked_name,Feedback,Cumulative Reward,Block,trial.thisRepN,trial.thisTrialN,trial.thisN,trial.thisIndex,trial.ran,blocks.thisRepN,blocks.thisTrialN,blocks.thisN,blocks.thisIndex,blocks.ran,Money conversion,First Outcome Reported,Shown Door (First Outcome),Displayed Image (First Outcome),outcomes.thisRepN,outcomes.thisTrialN,outcomes.thisN,outcomes.thisIndex,outcomes.ran,judgments.thisRepN,judgments.thisTrialN,judgments.thisN,judgments.thisIndex,judgments.ran,freqMouse.x,freqMouse.y,freqMouse.leftButton,freqMouse.midButton,freqMouse.rightButton,freqMouse.clicked_name,FQJ for first outcome,FQJ for second outcome,Shown Door,Displayed Image,trials.thisRepN,trials.thisTrialN,trials.thisN,trials.thisIndex,trials.ran,judgBlock.thisRepN,judgBlock.thisTrialN,judgBlock.thisN,judgBlock.thisIndex,judgBlock.ran
0,resources/DB.BMP,resources/DR.BMP,resources/DP.BMP,resources/DY.BMP,resources/DBN.BMP,resources/DG.BMP,,2023-08-10_18h43.04.074,HF_wild_card,2022.2.4,Win32,59.96282305,5d0e9a2edd7f8e001acc6b5a,64ce5acb97489d65b14ecc7a,64d521566638542f09679c06,,,,,,,,,,,,,,,,,,,,,,,,,,,,,,,,,,,,,,,,,,,,,,,,,,,,,,,,,,,,,,,,
,,,,,,,,2023-08-10_18h43.04.074,HF_wild_card,2022.2.4,Win32,59.96282305,5d0e9a2edd7f8e001acc6b5a,64ce5acb97489d65b14ecc7a,64d521566638542f09679c06,-0.020370342,-0.418518561,1,0,0,agree,,,,,,,,,,,,,,,,,,,,,,,,,,,,,,,,,,,,,,,,,,,,,,,,,,,,,,,,,,
,,,,,,,,2023-08-10_18h43.04.074,HF_wild_card,2022.2.4,Win32,59.96282305,5d0e9a2edd7f8e001acc6b5a,64ce5acb97489d65b14ecc7a,64d521566638542f09679c06,,,,,,,,,,,,,,,,,,,,,,,,,,,,,,,,,,,,,,,,,,,,,,,,,,,,,,,,,,,,,,,,
,,,,,,,,2023-08-10_18h43.04.074,HF_wild_card,2022.2.4,Win32,59.96282305,5d0e9a2edd7f8e001acc6b5a,64ce5acb97489d65b14ecc7a,64d521566638542f09679c06,,,,,,,decisionTrl,resources/DR.BMP,resources/DB.BMP,Door2,-0.380555541,-0.032407407,1,0,0,3.9226,optionLeft,40,40,1,0,0,0,0,1,,,,,,,,,,,,,,,,,,,,,,,,,,,,,,,,,,,,,,,
,,,,,,,,2023-08-10_18h43.04.074,HF_wild_card,2022.2.4,Win32,59.96282305,5d0e9a2edd7f8e001acc6b5a,64ce5acb97489d65b14ecc7a,64d521566638542f09679c06,,,,,,,decisionTrl,resources/DY.BMP,resources/DP.BMP,Door3,0.3648149,-0.074074074,1,0,0,1.4774,optionRight,70,110,1,1,0,1,0,1,,,,,,,,,,,,,,,,,,,,,,,,,,,,,,,,,,,,,,,
,,,,,,,,2023-08-10_18h43.04.074,HF_wild_card,2022.2.4,Win32,59.96282305,5d0e9a2edd7f8e001acc6b5a,64ce5acb97489d65b14ecc7a,64d521566638542f09679c06,,,,,,,ctch,resources/DB.BMP,resources/DY.BMP,Door4,0.389814871,-0.067592586,1,0,0,1.6282,optionRight,80,190,1,2,0,2,0,1,,,,,,,,,,,,,,,,,,,,,,,,,,,,,,,,,,,,,,,
,,,,,,,,2023-08-10_18h43.04.074,HF_wild_card,2022.2.4,Win32,59.96282305,5d0e9a2edd7f8e001acc6b5a,64ce5acb97489d65b14ecc7a,64d521566638542f09679c06,,,,,,,ctch,resources/DR.BMP,resources/DP.BMP,Door3,0.321296268,-0.014814836,1,0,0,1.3624,optionRight,70,260,1,3,0,3,0,1,,,,,,,,,,,,,,,,,,,,,,,,,,,,,,,,,,,,,,,
,,,,,,,,2023-08-10_18h43.04.074,HF_wild_card,2022.2.4,Win32,59.96282305,5d0e9a2edd7f8e001acc6b5a,64ce5acb97489d65b14ecc7a,64d521566638542f09679c06,,,,,,,decisionTrl,resources/DY.BMP,resources/DP.BMP,Door3,0.399999972,-0.060185185,1,0,0,1.2289,optionRight,70,330,1,4,0,4,0,1,,,,,,,,,,,,,,,,,,,,,,,,,,,,,,,,,,,,,,,
,,,,,,,,2023-08-10_18h43.04.074,HF_wild_card,2022.2.4,Win32,59.96282305,5d0e9a2edd7f8e001acc6b5a,64ce5acb97489d65b14ecc7a,64d521566638542f09679c06,,,,,,,ctch,resources/DP.BMP,resources/DR.BMP,Door3,-0.360185164,-0.031481496,1,0,0,1.1457,optionLeft,70,400,1,5,0,5,0,1,,,,,,,,,,,,,,,,,,,,,,,,,,,,,,,,,,,,,,,
,,,,,,,,2023-08-10_18h43.04.074,HF_wild_card,2022.2.4,Win32,59.96282305,5d0e9a2edd7f8e001acc6b5a,64ce5acb97489d65b14ecc7a,64d521566638542f09679c06,,,,,,,decisionTrl,resources/DB.BMP,resources/DR.BMP,Door2,0.384259259,0.01944443,1,0,0,1.8628,optionRight,20,420,1,6,0,6,0,1,,,,,,,,,,,,,,,,,,,,,,,,,,,,,,,,,,,,,,,
,,,,,,,,2023-08-10_18h43.04.074,HF_wild_card,2022.2.4,Win32,59.96282305,5d0e9a2edd7f8e001acc6b5a,64ce5acb97489d65b14ecc7a,64d521566638542f09679c06,,,,,,,ctch,resources/DP.BMP,resources/DR.BMP,Door3,-0.39166666,-0.035185178,1,0,0,1.0449,optionLeft,70,490,1,7,0,7,0,1,,,,,,,,,,,,,,,,,,,,,,,,,,,,,,,,,,,,,,,
,,,,,,,,2023-08-10_18h43.04.074,HF_wild_card,2022.2.4,Win32,59.96282305,5d0e9a2edd7f8e001acc6b5a,64ce5acb97489d65b14ecc7a,64d521566638542f09679c06,,,,,,,decisionTrl,resources/DP.BMP,resources/DBN.BMP,Door3,-0.389814801,-0.019444466,1,0,0,0.946,optionLeft,70,560,1,8,0,8,0,1,,,,,,,,,,,,,,,,,,,,,,,,,,,,,,,,,,,,,,,
,,,,,,,,2023-08-10_18h43.04.074,HF_wild_card,2022.2.4,Win32,59.96282305,5d0e9a2edd7f8e001acc6b5a,64ce5acb97489d65b14ecc7a,64d521566638542f09679c06,,,,,,,sngl,resources/DB.BMP,resources/Empty.png,Door1,-0.360185164,-0.012962977,1,0,0,1.8434,optionLeft,30,590,1,9,0,9,0,1,,,,,,,,,,,,,,,,,,,,,,,,,,,,,,,,,,,,,,,
,,,,,,,,2023-08-10_18h43.04.074,HF_wild_card,2022.2.4,Win32,59.96282305,5d0e9a2edd7f8e001acc6b5a,64ce5acb97489d65b14ecc7a,64d521566638542f09679c06,,,,,,,sngl,resources/DP.BMP,resources/Empty.png,Door3,-0.360185164,-0.00462963,1,0,0,0.9957,optionLeft,70,660,1,10,0,10,0,1,,,,,,,,,,,,,,,,,,,,,,,,,,,,,,,,,,,,,,,
,,,,,,,,2023-08-10_18h43.04.074,HF_wild_card,2022.2.4,Win32,59.96282305,5d0e9a2edd7f8e001acc6b5a,64ce5acb97489d65b14ecc7a,64d521566638542f09679c06,,,,,,,ctch,resources/DR.BMP,resources/DP.BMP,Door3,0.457407492,-0.071296303,1,0,0,1.1301,optionRight,70,730,1,11,0,11,0,1,,,,,,,,,,,,,,,,,,,,,,,,,,,,,,,,,,,,,,,
,,,,,,,,2023-08-10_18h43.04.074,HF_wild_card,2022.2.4,Win32,59.96282305,5d0e9a2edd7f8e001acc6b5a,64ce5acb97489d65b14ecc7a,64d521566638542f09679c06,,,,,,,decisionTrl,resources/DBN.BMP,resources/DP.BMP,WildCard_Ex,-0.290740755,-0.01666666,1,0,0,2.0826,optionLeft,95,825,1,12,0,12,0,1,,,,,,,,,,,,,,,,,,,,,,,,,,,,,,,,,,,,,,,
,,,,,,,,2023-08-10_18h43.04.074,HF_wild_card,2022.2.4,Win32,59.96282305,5d0e9a2edd7f8e001acc6b5a,64ce5acb97489d65b14ecc7a,64d521566638542f09679c06,,,,,,,sngl,resources/Empty.png,resources/DY.BMP,Door4,0.431481538,-0.024074095,1,0,0,1.1782,optionRight,60,885,1,13,0,13,0,1,,,,,,,,,,,,,,,,,,,,,,,,,,,,,,,,,,,,,,,
,,,,,,,,2023-08-10_18h43.04.074,HF_wild_card,2022.2.4,Win32,59.96282305,5d0e9a2edd7f8e001acc6b5a,64ce5acb97489d65b14ecc7a,64d521566638542f09679c06,,,,,,,sngl,resources/DY.BMP,resources/Empty.png,Door4,-0.270370342,-0.039814808,1,0,0,1.4576,optionLeft,80,965,1,14,0,14,0,1,,,,,,,,,,,,,,,,,,,,,,,,,,,,,,,,,,,,,,,
,,,,,,,,2023-08-10_18h43.04.074,HF_wild_card,2022.2.4,Win32,59.96282305,5d0e9a2edd7f8e001acc6b5a,64ce5acb97489d65b14ecc7a,64d521566638542f09679c06,,,,,,,ctch,resources/DY.BMP,resources/DB.BMP,Door4,-0.286111125,0.008333312,1,0,0,1.3789,optionLeft,60,1025,1,15,0,15,0,1,,,,,,,,,,,,,,,,,,,,,,,,,,,,,,,,,,,,,,,
,,,,,,,,2023-08-10_18h43.04.074,HF_wild_card,2022.2.4,Win32,59.96282305,5d0e9a2edd7f8e001acc6b5a,64ce5acb97489d65b14ecc7a,64d521566638542f09679c06,,,,,,,decisionTrl,resources/DY.BMP,resources/DP.BMP,Door3,0.376851824,-0.028703725,1,0,0,1.299,optionRight,70,1095,1,16,0,16,0,1,,,,,,,,,,,,,,,,,,,,,,,,,,,,,,,,,,,,,,,
,,,,,,,,2023-08-10_18h43.04.074,HF_wild_card,2022.2.4,Win32,59.96282305,5d0e9a2edd7f8e001acc6b5a,64ce5acb97489d65b14ecc7a,64d521566638542f09679c06,,,,,,,decisionTrl,resources/DBN.BMP,resources/DR.BMP,WildCard_Ex,-0.408333319,0.017592571,1,0,0,1.1456,optionLeft,95,1190,1,17,0,17,0,1,,,,,,,,,,,,,,,,,,,,,,,,,,,,,,,,,,,,,,,
,,,,,,,,2023-08-10_18h43.04.074,HF_wild_card,2022.2.4,Win32,59.96282305,5d0e9a2edd7f8e001acc6b5a,64ce5acb97489d65b14ecc7a,64d521566638542f09679c06,,,,,,,sngl,resources/Empty.png,resources/DBN.BMP,WildCard_Ex,0.368518547,0.023148148,1,0,0,0.8964,optionRight,5,1195,1,18,0,18,0,1,,,,,,,,,,,,,,,,,,,,,,,,,,,,,,,,,,,,,,,
,,,,,,,,2023-08-10_18h43.04.074,HF_wild_card,2022.2.4,Win32,59.96282305,5d0e9a2edd7f8e001acc6b5a,64ce5acb97489d65b14ecc7a,64d521566638542f09679c06,,,,,,,decisionTrl,resources/DP.BMP,resources/DY.BMP,Door3,-0.402777778,-0.070370392,1,0,0,1.1019,optionLeft,70,1265,1,19,0,19,0,1,,,,,,,,,,,,,,,,,,,,,,,,,,,,,,,,,,,,,,,
,,,,,,,,2023-08-10_18h43.04.074,HF_wild_card,2022.2.4,Win32,59.96282305,5d0e9a2edd7f8e001acc6b5a,64ce5acb97489d65b14ecc7a,64d521566638542f09679c06,,,,,,,sngl,resources/Empty.png,resources/DP.BMP,Door3,0.30277775,-0.00462963,1,0,0,0.9078,optionRight,70,1335,1,20,0,20,0,1,,,,,,,,,,,,,,,,,,,,,,,,,,,,,,,,,,,,,,,
,,,,,,,,2023-08-10_18h43.04.074,HF_wild_card,2022.2.4,Win32,59.96282305,5d0e9a2edd7f8e001acc6b5a,64ce5acb97489d65b14ecc7a,64d521566638542f09679c06,,,,,,,decisionTrl,resources/DB.BMP,resources/DR.BMP,Door2,0.352777834,-0.01203703,1,0,0,1.4273,optionRight,40,1375,1,21,0,21,0,1,,,,,,,,,,,,,,,,,,,,,,,,,,,,,,,,,,,,,,,
,,,,,,,,2023-08-10_18h43.04.074,HF_wild_card,2022.2.4,Win32,59.96282305,5d0e9a2edd7f8e001acc6b5a,64ce5acb97489d65b14ecc7a,64d521566638542f09679c06,,,,,,,decisionTrl,resources/DY.BMP,resources/DP.BMP,Door3,0.266666695,-0.018518519,1,0,0,1.3461,optionRight,70,1445,1,22,0,22,0,1,,,,,,,,,,,,,,,,,,,,,,,,,,,,,,,,,,,,,,,
,,,,,,,,2023-08-10_18h43.04.074,HF_wild_card,2022.2.4,Win32,59.96282305,5d0e9a2edd7f8e001acc6b5a,64ce5acb97489d65b14ecc7a,64d521566638542f09679c06,,,,,,,sngl,resources/Empty.png,resources/DB.BMP,Door1,0.242592635,0.015740748,1,0,0,1.0955,optionRight,30,1475,1,23,0,23,0,1,,,,,,,,,,,,,,,,,,,,,,,,,,,,,,,,,,,,,,,
,,,,,,,,2023-08-10_18h43.04.074,HF_wild_card,2022.2.4,Win32,59.96282305,5d0e9a2edd7f8e001acc6b5a,64ce5acb97489d65b14ecc7a,64d521566638542f09679c06,,,,,,,ctch,resources/DB.BMP,resources/DY.BMP,Door4,0.283333319,-0.021296289,1,0,0,2.0283,optionRight,80,1555,1,24,0,24,0,1,,,,,,,,,,,,,,,,,,,,,,,,,,,,,,,,,,,,,,,
,,,,,,,,2023-08-10_18h43.04.074,HF_wild_card,2022.2.4,Win32,59.96282305,5d0e9a2edd7f8e001acc6b5a,64ce5acb97489d65b14ecc7a,64d521566638542f09679c06,,,,,,,decisionTrl,resources/DP.BMP,resources/DY.BMP,Door4,0.421296296,0.043518526,1,0,0,3.4787,optionRight,60,1615,1,25,0,25,0,1,,,,,,,,,,,,,,,,,,,,,,,,,,,,,,,,,,,,,,,
,,,,,,,,2023-08-10_18h43.04.074,HF_wild_card,2022.2.4,Win32,59.96282305,5d0e9a2edd7f8e001acc6b5a,64ce5acb97489d65b14ecc7a,64d521566638542f09679c06,,,,,,,decisionTrl,resources/DBN.BMP,resources/DY.BMP,WildCard_Ex,-0.322222215,0.01203703,1,0,0,1.1295,optionLeft,95,1710,1,26,0,26,0,1,,,,,,,,,,,,,,,,,,,,,,,,,,,,,,,,,,,,,,,
,,,,,,,,2023-08-10_18h43.04.074,HF_wild_card,2022.2.4,Win32,59.96282305,5d0e9a2edd7f8e001acc6b5a,64ce5acb97489d65b14ecc7a,64d521566638542f09679c06,,,,,,,decisionTrl,resources/DP.BMP,resources/DY.BMP,Door3,-0.418518526,-0.037037037,1,0,0,1.9253,optionLeft,70,1780,1,27,0,27,0,1,,,,,,,,,,,,,,,,,,,,,,,,,,,,,,,,,,,,,,,
,,,,,,,,2023-08-10_18h43.04.074,HF_wild_card,2022.2.4,Win32,59.96282305,5d0e9a2edd7f8e001acc6b5a,64ce5acb97489d65b14ecc7a,64d521566638542f09679c06,,,,,,,decisionTrl,resources/DR.BMP,resources/DB.BMP,Door2,-0.329629616,-0.049074067,1,0,0,4.794,optionLeft,40,1820,1,28,0,28,0,1,,,,,,,,,,,,,,,,,,,,,,,,,,,,,,,,,,,,,,,
,,,,,,,,2023-08-10_18h43.04.074,HF_wild_card,2022.2.4,Win32,59.96282305,5d0e9a2edd7f8e001acc6b5a,64ce5acb97489d65b14ecc7a,64d521566638542f09679c06,,,,,,,sngl,resources/DBN.BMP,resources/Empty.png,WildCard_Ex,-0.377777771,0.01944443,1,0,0,1.0123,optionLeft,5,1825,1,29,0,29,0,1,,,,,,,,,,,,,,,,,,,,,,,,,,,,,,,,,,,,,,,
,,,,,,,,2023-08-10_18h43.04.074,HF_wild_card,2022.2.4,Win32,59.96282305,5d0e9a2edd7f8e001acc6b5a,64ce5acb97489d65b14ecc7a,64d521566638542f09679c06,,,,,,,decisionTrl,resources/DR.BMP,resources/DB.BMP,Door2,-0.346296275,-0.002777771,1,0,0,1.3407,optionLeft,20,1845,1,30,0,30,0,1,,,,,,,,,,,,,,,,,,,,,,,,,,,,,,,,,,,,,,,
,,,,,,,,2023-08-10_18h43.04.074,HF_wild_card,2022.2.4,Win32,59.96282305,5d0e9a2edd7f8e001acc6b5a,64ce5acb97489d65b14ecc7a,64d521566638542f09679c06,,,,,,,decisionTrl,resources/DY.BMP,resources/DBN.BMP,WildCard_Ex,0.382407436,0.01203703,1,0,0,0.9694,optionRight,95,1940,1,31,0,31,0,1,,,,,,,,,,,,,,,,,,,,,,,,,,,,,,,,,,,,,,,
,,,,,,,,2023-08-10_18h43.04.074,HF_wild_card,2022.2.4,Win32,59.96282305,5d0e9a2edd7f8e001acc6b5a,64ce5acb97489d65b14ecc7a,64d521566638542f09679c06,,,,,,,decisionTrl,resources/DB.BMP,resources/DR.BMP,Door2,0.349074046,0.000925912,1,0,0,1.809,optionRight,40,1980,1,32,0,32,0,1,,,,,,,,,,,,,,,,,,,,,,,,,,,,,,,,,,,,,,,
,,,,,,,,2023-08-10_18h43.04.074,HF_wild_card,2022.2.4,Win32,59.96282305,5d0e9a2edd7f8e001acc6b5a,64ce5acb97489d65b14ecc7a,64d521566638542f09679c06,,,,,,,decisionTrl,resources/DR.BMP,resources/DBN.BMP,WildCard_Ex,0.316666638,0.010185171,1,0,0,0.9251,optionRight,95,2075,1,33,0,33,0,1,,,,,,,,,,,,,,,,,,,,,,,,,,,,,,,,,,,,,,,
,,,,,,,,2023-08-10_18h43.04.074,HF_wild_card,2022.2.4,Win32,59.96282305,5d0e9a2edd7f8e001acc6b5a,64ce5acb97489d65b14ecc7a,64d521566638542f09679c06,,,,,,,sngl,resources/DR.BMP,resources/Empty.png,Door2,-0.345370363,0.001851859,1,0,0,1.1294,optionLeft,40,2115,1,34,0,34,0,1,,,,,,,,,,,,,,,,,,,,,,,,,,,,,,,,,,,,,,,
,,,,,,,,2023-08-10_18h43.04.074,HF_wild_card,2022.2.4,Win32,59.96282305,5d0e9a2edd7f8e001acc6b5a,64ce5acb97489d65b14ecc7a,64d521566638542f09679c06,,,,,,,sngl,resources/Empty.png,resources/DR.BMP,Door2,0.333333333,0.00462963,1,0,0,0.8475,optionRight,20,2135,1,35,0,35,0,1,,,,,,,,,,,,,,,,,,,,,,,,,,,,,,,,,,,,,,,
,,,,,,,,2023-08-10_18h43.04.074,HF_wild_card,2022.2.4,Win32,59.96282305,5d0e9a2edd7f8e001acc6b5a,64ce5acb97489d65b14ecc7a,64d521566638542f09679c06,,,,,,,ctch,resources/DY.BMP,resources/DB.BMP,Door4,-0.341666645,0.005555541,1,0,0,1.1456,optionLeft,80,2215,1,36,0,36,0,1,,,,,,,,,,,,,,,,,,,,,,,,,,,,,,,,,,,,,,,
,,,,,,,,2023-08-10_18h43.04.074,HF_wild_card,2022.2.4,Win32,59.96282305,5d0e9a2edd7f8e001acc6b5a,64ce5acb97489d65b14ecc7a,64d521566638542f09679c06,,,,,,,sngl,resources/DBN.BMP,resources/Empty.png,WildCard_Ex,-0.286111125,0.005555541,1,0,0,0.9179,optionLeft,95,2310,1,37,0,37,0,1,,,,,,,,,,,,,,,,,,,,,,,,,,,,,,,,,,,,,,,
,,,,,,,,2023-08-10_18h43.04.074,HF_wild_card,2022.2.4,Win32,59.96282305,5d0e9a2edd7f8e001acc6b5a,64ce5acb97489d65b14ecc7a,64d521566638542f09679c06,,,,,,,decisionTrl,resources/DB.BMP,resources/DBN.BMP,WildCard_Ex,0.42777775,0.00462963,1,0,0,0.9462,optionRight,95,2405,1,38,0,38,0,1,,,,,,,,,,,,,,,,,,,,,,,,,,,,,,,,,,,,,,,
,,,,,,,,2023-08-10_18h43.04.074,HF_wild_card,2022.2.4,Win32,59.96282305,5d0e9a2edd7f8e001acc6b5a,64ce5acb97489d65b14ecc7a,64d521566638542f09679c06,,,,,,,decisionTrl,resources/DP.BMP,resources/DY.BMP,Door3,-0.294444402,-0.003703718,1,0,0,1.1958,optionLeft,70,2475,1,39,0,39,0,1,,,,,,,,,,,,,,,,,,,,,,,,,,,,,,,,,,,,,,,
,,,,,,,,2023-08-10_18h43.04.074,HF_wild_card,2022.2.4,Win32,59.96282305,5d0e9a2edd7f8e001acc6b5a,64ce5acb97489d65b14ecc7a,64d521566638542f09679c06,,,,,,,decisionTrl,resources/DBN.BMP,resources/DB.BMP,WildCard_Ex,-0.301851838,0.020370377,1,0,0,1.1294,optionLeft,5,2480,1,40,0,40,0,1,,,,,,,,,,,,,,,,,,,,,,,,,,,,,,,,,,,,,,,
,,,,,,,,2023-08-10_18h43.04.074,HF_wild_card,2022.2.4,Win32,59.96282305,5d0e9a2edd7f8e001acc6b5a,64ce5acb97489d65b14ecc7a,64d521566638542f09679c06,,,,,,,sngl,resources/Empty.png,resources/DBN.BMP,WildCard_Ex,0.388888889,0.01203703,1,0,0,0.8123,optionRight,95,2575,1,41,0,41,0,1,,,,,,,,,,,,,,,,,,,,,,,,,,,,,,,,,,,,,,,
,,,,,,,,2023-08-10_18h43.04.074,HF_wild_card,2022.2.4,Win32,59.96282305,5d0e9a2edd7f8e001acc6b5a,64ce5acb97489d65b14ecc7a,64d521566638542f09679c06,,,,,,,decisionTrl,resources/DB.BMP,resources/DR.BMP,Door2,0.387963048,0.017592571,1,0,0,1.4273,optionRight,20,2595,1,42,0,42,0,1,,,,,,,,,,,,,,,,,,,,,,,,,,,,,,,,,,,,,,,
,,,,,,,,2023-08-10_18h43.04.074,HF_wild_card,2022.2.4,Win32,59.96282305,5d0e9a2edd7f8e001acc6b5a,64ce5acb97489d65b14ecc7a,64d521566638542f09679c06,,,,,,,decisionTrl,resources/DR.BMP,resources/DB.BMP,Door2,-0.356481481,-0.026851866,1,0,0,0.9125,optionLeft,20,2615,1,43,0,43,0,1,,,,,,,,,,,,,,,,,,,,,,,,,,,,,,,,,,,,,,,
,,,,,,,,2023-08-10_18h43.04.074,HF_wild_card,2022.2.4,Win32,59.96282305,5d0e9a2edd7f8e001acc6b5a,64ce5acb97489d65b14ecc7a,64d521566638542f09679c06,,,,,,,,,,,,,,,,,,,,,,,,,,0,0,0,0,1,,,,,,,,,,,,,,,,,,,,,,,,,,,,,,,,,,
,,,,,,,,2023-08-10_18h43.04.074,HF_wild_card,2022.2.4,Win32,59.96282305,5d0e9a2edd7f8e001acc6b5a,64ce5acb97489d65b14ecc7a,64d521566638542f09679c06,,,,,,,decisionTrl,resources/DY.BMP,resources/DP.BMP,Door3,0.282407407,-0.037037037,1,0,0,1.2682,optionRight,70,2685,2,0,0,0,0,1,,,,,,,,,,,,,,,,,,,,,,,,,,,,,,,,,,,,,,,
,,,,,,,,2023-08-10_18h43.04.074,HF_wild_card,2022.2.4,Win32,59.96282305,5d0e9a2edd7f8e001acc6b5a,64ce5acb97489d65b14ecc7a,64d521566638542f09679c06,,,,,,,sngl,resources/Empty.png,resources/DBN.BMP,WildCard_Ex,0.426851908,0.025925919,1,0,0,0.8964,optionRight,95,2780,2,1,0,1,0,1,,,,,,,,,,,,,,,,,,,,,,,,,,,,,,,,,,,,,,,
,,,,,,,,2023-08-10_18h43.04.074,HF_wild_card,2022.2.4,Win32,59.96282305,5d0e9a2edd7f8e001acc6b5a,64ce5acb97489d65b14ecc7a,64d521566638542f09679c06,,,,,,,decisionTrl,resources/DB.BMP,resources/DR.BMP,Door1,-0.321296303,-0.027777778,1,0,0,2.4959,optionLeft,30,2810,2,2,0,2,0,1,,,,,,,,,,,,,,,,,,,,,,,,,,,,,,,,,,,,,,,
,,,,,,,,2023-08-10_18h43.04.074,HF_wild_card,2022.2.4,Win32,59.96282305,5d0e9a2edd7f8e001acc6b5a,64ce5acb97489d65b14ecc7a,64d521566638542f09679c06,,,,,,,sngl,resources/DP.BMP,resources/Empty.png,Door3,-0.354629623,0.015740748,1,0,0,0.8965,optionLeft,70,2880,2,3,0,3,0,1,,,,,,,,,,,,,,,,,,,,,,,,,,,,,,,,,,,,,,,
,,,,,,,,2023-08-10_18h43.04.074,HF_wild_card,2022.2.4,Win32,59.96282305,5d0e9a2edd7f8e001acc6b5a,64ce5acb97489d65b14ecc7a,64d521566638542f09679c06,,,,,,,decisionTrl,resources/DBN.BMP,resources/DR.BMP,WildCard_Ex,-0.3824074,0.047222208,1,0,0,1.1618,optionLeft,5,2885,2,4,0,4,0,1,,,,,,,,,,,,,,,,,,,,,,,,,,,,,,,,,,,,,,,
,,,,,,,,2023-08-10_18h43.04.074,HF_wild_card,2022.2.4,Win32,59.96282305,5d0e9a2edd7f8e001acc6b5a,64ce5acb97489d65b14ecc7a,64d521566638542f09679c06,,,,,,,sngl,resources/DY.BMP,resources/Empty.png,Door4,-0.339814822,0.037962949,1,0,0,0.9626,optionLeft,60,2945,2,5,0,5,0,1,,,,,,,,,,,,,,,,,,,,,,,,,,,,,,,,,,,,,,,
,,,,,,,,2023-08-10_18h43.04.074,HF_wild_card,2022.2.4,Win32,59.96282305,5d0e9a2edd7f8e001acc6b5a,64ce5acb97489d65b14ecc7a,64d521566638542f09679c06,,,,,,,decisionTrl,resources/DR.BMP,resources/DB.BMP,Door2,-0.375925912,0.011111118,1,0,0,2.178,optionLeft,20,2965,2,6,0,6,0,1,,,,,,,,,,,,,,,,,,,,,,,,,,,,,,,,,,,,,,,
,,,,,,,,2023-08-10_18h43.04.074,HF_wild_card,2022.2.4,Win32,59.96282305,5d0e9a2edd7f8e001acc6b5a,64ce5acb97489d65b14ecc7a,64d521566638542f09679c06,,,,,,,decisionTrl,resources/DP.BMP,resources/DY.BMP,Door3,-0.372222229,-0.022222236,1,0,0,1.0134,optionLeft,70,3035,2,7,0,7,0,1,,,,,,,,,,,,,,,,,,,,,,,,,,,,,,,,,,,,,,,
,,,,,,,,2023-08-10_18h43.04.074,HF_wild_card,2022.2.4,Win32,59.96282305,5d0e9a2edd7f8e001acc6b5a,64ce5acb97489d65b14ecc7a,64d521566638542f09679c06,,,,,,,decisionTrl,resources/DR.BMP,resources/DB.BMP,Door1,0.432407379,0.029629637,1,0,0,2.4454,optionRight,30,3065,2,8,0,8,0,1,,,,,,,,,,,,,,,,,,,,,,,,,,,,,,,,,,,,,,,
,,,,,,,,2023-08-10_18h43.04.074,HF_wild_card,2022.2.4,Win32,59.96282305,5d0e9a2edd7f8e001acc6b5a,64ce5acb97489d65b14ecc7a,64d521566638542f09679c06,,,,,,,ctch,resources/DR.BMP,resources/DP.BMP,Door3,0.375,0.023148148,1,0,0,0.964,optionRight,70,3135,2,9,0,9,0,1,,,,,,,,,,,,,,,,,,,,,,,,,,,,,,,,,,,,,,,
,,,,,,,,2023-08-10_18h43.04.074,HF_wild_card,2022.2.4,Win32,59.96282305,5d0e9a2edd7f8e001acc6b5a,64ce5acb97489d65b14ecc7a,64d521566638542f09679c06,,,,,,,decisionTrl,resources/DB.BMP,resources/DR.BMP,Door1,-0.272222236,0.035185178,1,0,0,2.8293,optionLeft,30,3165,2,10,0,10,0,1,,,,,,,,,,,,,,,,,,,,,,,,,,,,,,,,,,,,,,,
,,,,,,,,2023-08-10_18h43.04.074,HF_wild_card,2022.2.4,Win32,59.96282305,5d0e9a2edd7f8e001acc6b5a,64ce5acb97489d65b14ecc7a,64d521566638542f09679c06,,,,,,,decisionTrl,resources/DP.BMP,resources/DY.BMP,Door4,0.410185213,0.0074074,1,0,0,1.1299,optionRight,60,3225,2,11,0,11,0,1,,,,,,,,,,,,,,,,,,,,,,,,,,,,,,,,,,,,,,,
,,,,,,,,2023-08-10_18h43.04.074,HF_wild_card,2022.2.4,Win32,59.96282305,5d0e9a2edd7f8e001acc6b5a,64ce5acb97489d65b14ecc7a,64d521566638542f09679c06,,,,,,,decisionTrl,resources/DBN.BMP,resources/DB.BMP,WildCard_Ex,-0.319444444,0.065740727,1,0,0,0.963,optionLeft,95,3320,2,12,0,12,0,1,,,,,,,,,,,,,,,,,,,,,,,,,,,,,,,,,,,,,,,
,,,,,,,,2023-08-10_18h43.04.074,HF_wild_card,2022.2.4,Win32,59.96282305,5d0e9a2edd7f8e001acc6b5a,64ce5acb97489d65b14ecc7a,64d521566638542f09679c06,,,,,,,sngl,resources/Empty.png,resources/DB.BMP,Door1,0.323148233,0.015740748,1,0,0,0.9629,optionRight,30,3350,2,13,0,13,0,1,,,,,,,,,,,,,,,,,,,,,,,,,,,,,,,,,,,,,,,
,,,,,,,,2023-08-10_18h43.04.074,HF_wild_card,2022.2.4,Win32,59.96282305,5d0e9a2edd7f8e001acc6b5a,64ce5acb97489d65b14ecc7a,64d521566638542f09679c06,,,,,,,decisionTrl,resources/DB.BMP,resources/DBN.BMP,WildCard_Ex,0.399999972,0.043518526,1,0,0,0.9462,optionRight,95,3445,2,14,0,14,0,1,,,,,,,,,,,,,,,,,,,,,,,,,,,,,,,,,,,,,,,
,,,,,,,,2023-08-10_18h43.04.074,HF_wild_card,2022.2.4,Win32,59.96282305,5d0e9a2edd7f8e001acc6b5a,64ce5acb97489d65b14ecc7a,64d521566638542f09679c06,,,,,,,sngl,resources/DBN.BMP,resources/Empty.png,WildCard_Ex,-0.337037016,0.053703697,1,0,0,0.8459,optionLeft,5,3450,2,15,0,15,0,1,,,,,,,,,,,,,,,,,,,,,,,,,,,,,,,,,,,,,,,
,,,,,,,,2023-08-10_18h43.04.074,HF_wild_card,2022.2.4,Win32,59.96282305,5d0e9a2edd7f8e001acc6b5a,64ce5acb97489d65b14ecc7a,64d521566638542f09679c06,,,,,,,decisionTrl,resources/DBN.BMP,resources/DP.BMP,WildCard_Ex,-0.348148134,0.049074067,1,0,0,0.9621,optionLeft,95,3545,2,16,0,16,0,1,,,,,,,,,,,,,,,,,,,,,,,,,,,,,,,,,,,,,,,
,,,,,,,,2023-08-10_18h43.04.074,HF_wild_card,2022.2.4,Win32,59.96282305,5d0e9a2edd7f8e001acc6b5a,64ce5acb97489d65b14ecc7a,64d521566638542f09679c06,,,,,,,decisionTrl,resources/DR.BMP,resources/DB.BMP,Door1,0.288888931,0.011111118,1,0,0,1.8301,optionRight,30,3575,2,17,0,17,0,1,,,,,,,,,,,,,,,,,,,,,,,,,,,,,,,,,,,,,,,
,,,,,,,,2023-08-10_18h43.04.074,HF_wild_card,2022.2.4,Win32,59.96282305,5d0e9a2edd7f8e001acc6b5a,64ce5acb97489d65b14ecc7a,64d521566638542f09679c06,,,,,,,decisionTrl,resources/DY.BMP,resources/DP.BMP,Door3,0.240740741,-0.025000007,1,0,0,1.1121,optionRight,70,3645,2,18,0,18,0,1,,,,,,,,,,,,,,,,,,,,,,,,,,,,,,,,,,,,,,,
,,,,,,,,2023-08-10_18h43.04.074,HF_wild_card,2022.2.4,Win32,59.96282305,5d0e9a2edd7f8e001acc6b5a,64ce5acb97489d65b14ecc7a,64d521566638542f09679c06,,,,,,,decisionTrl,resources/DY.BMP,resources/DBN.BMP,WildCard_Ex,0.311111168,0.012962942,1,0,0,1.0129,optionRight,95,3740,2,19,0,19,0,1,,,,,,,,,,,,,,,,,,,,,,,,,,,,,,,,,,,,,,,
,,,,,,,,2023-08-10_18h43.04.074,HF_wild_card,2022.2.4,Win32,59.96282305,5d0e9a2edd7f8e001acc6b5a,64ce5acb97489d65b14ecc7a,64d521566638542f09679c06,,,,,,,decisionTrl,resources/DP.BMP,resources/DBN.BMP,WildCard_Ex,0.362037094,0.053703697,1,0,0,1.0127,optionRight,95,3835,2,20,0,20,0,1,,,,,,,,,,,,,,,,,,,,,,,,,,,,,,,,,,,,,,,
,,,,,,,,2023-08-10_18h43.04.074,HF_wild_card,2022.2.4,Win32,59.96282305,5d0e9a2edd7f8e001acc6b5a,64ce5acb97489d65b14ecc7a,64d521566638542f09679c06,,,,,,,sngl,resources/DBN.BMP,resources/Empty.png,WildCard_Ex,-0.290740755,0.013888889,1,0,0,0.8795,optionLeft,95,3930,2,21,0,21,0,1,,,,,,,,,,,,,,,,,,,,,,,,,,,,,,,,,,,,,,,
,,,,,,,,2023-08-10_18h43.04.074,HF_wild_card,2022.2.4,Win32,59.96282305,5d0e9a2edd7f8e001acc6b5a,64ce5acb97489d65b14ecc7a,64d521566638542f09679c06,,,,,,,decisionTrl,resources/DR.BMP,resources/DB.BMP,Door1,0.373148176,0.037962949,1,0,0,1.1959,optionRight,30,3960,2,22,0,22,0,1,,,,,,,,,,,,,,,,,,,,,,,,,,,,,,,,,,,,,,,
,,,,,,,,2023-08-10_18h43.04.074,HF_wild_card,2022.2.4,Win32,59.96282305,5d0e9a2edd7f8e001acc6b5a,64ce5acb97489d65b14ecc7a,64d521566638542f09679c06,,,,,,,decisionTrl,resources/DBN.BMP,resources/DY.BMP,WildCard_Ex,-0.361111111,0.012962942,1,0,0,1.1787,optionLeft,5,3965,2,23,0,23,0,1,,,,,,,,,,,,,,,,,,,,,,,,,,,,,,,,,,,,,,,
,,,,,,,,2023-08-10_18h43.04.074,HF_wild_card,2022.2.4,Win32,59.96282305,5d0e9a2edd7f8e001acc6b5a,64ce5acb97489d65b14ecc7a,64d521566638542f09679c06,,,,,,,sngl,resources/Empty.png,resources/DR.BMP,Door2,0.337037122,0.003703683,1,0,0,0.8627,optionRight,40,4005,2,24,0,24,0,1,,,,,,,,,,,,,,,,,,,,,,,,,,,,,,,,,,,,,,,
,,,,,,,,2023-08-10_18h43.04.074,HF_wild_card,2022.2.4,Win32,59.96282305,5d0e9a2edd7f8e001acc6b5a,64ce5acb97489d65b14ecc7a,64d521566638542f09679c06,,,,,,,sngl,resources/DR.BMP,resources/Empty.png,Door2,-0.287037037,-0.000925947,1,0,0,1.079,optionLeft,20,4025,2,25,0,25,0,1,,,,,,,,,,,,,,,,,,,,,,,,,,,,,,,,,,,,,,,
,,,,,,,,2023-08-10_18h43.04.074,HF_wild_card,2022.2.4,Win32,59.96282305,5d0e9a2edd7f8e001acc6b5a,64ce5acb97489d65b14ecc7a,64d521566638542f09679c06,,,,,,,decisionTrl,resources/DB.BMP,resources/DR.BMP,Door1,-0.27407406,-0.005555577,1,0,0,1.5964,optionLeft,30,4055,2,26,0,26,0,1,,,,,,,,,,,,,,,,,,,,,,,,,,,,,,,,,,,,,,,
,,,,,,,,2023-08-10_18h43.04.074,HF_wild_card,2022.2.4,Win32,59.96282305,5d0e9a2edd7f8e001acc6b5a,64ce5acb97489d65b14ecc7a,64d521566638542f09679c06,,,,,,,ctch,resources/DB.BMP,resources/DY.BMP,Door4,0.365740741,-0.002777771,1,0,0,1.713,optionRight,80,4135,2,27,0,27,0,1,,,,,,,,,,,,,,,,,,,,,,,,,,,,,,,,,,,,,,,
,,,,,,,,2023-08-10_18h43.04.074,HF_wild_card,2022.2.4,Win32,59.96282305,5d0e9a2edd7f8e001acc6b5a,64ce5acb97489d65b14ecc7a,64d521566638542f09679c06,,,,,,,ctch,resources/DY.BMP,resources/DB.BMP,Door4,-0.294444402,0.006481489,1,0,0,1.5623,optionLeft,80,4215,2,28,0,28,0,1,,,,,,,,,,,,,,,,,,,,,,,,,,,,,,,,,,,,,,,
,,,,,,,,2023-08-10_18h43.04.074,HF_wild_card,2022.2.4,Win32,59.96282305,5d0e9a2edd7f8e001acc6b5a,64ce5acb97489d65b14ecc7a,64d521566638542f09679c06,,,,,,,decisionTrl,resources/DY.BMP,resources/DP.BMP,Door3,0.30277775,0.02407406,1,0,0,3.7569,optionRight,70,4285,2,29,0,29,0,1,,,,,,,,,,,,,,,,,,,,,,,,,,,,,,,,,,,,,,,
,,,,,,,,2023-08-10_18h43.04.074,HF_wild_card,2022.2.4,Win32,59.96282305,5d0e9a2edd7f8e001acc6b5a,64ce5acb97489d65b14ecc7a,64d521566638542f09679c06,,,,,,,sngl,resources/Empty.png,resources/DBN.BMP,WildCard_Ex,0.337962963,0.000925912,1,0,0,0.9958,optionRight,5,4290,2,30,0,30,0,1,,,,,,,,,,,,,,,,,,,,,,,,,,,,,,,,,,,,,,,
,,,,,,,,2023-08-10_18h43.04.074,HF_wild_card,2022.2.4,Win32,59.96282305,5d0e9a2edd7f8e001acc6b5a,64ce5acb97489d65b14ecc7a,64d521566638542f09679c06,,,,,,,sngl,resources/DB.BMP,resources/Empty.png,Door1,-0.3675926,-0.031481496,1,0,0,0.9798,optionLeft,30,4320,2,31,0,31,0,1,,,,,,,,,,,,,,,,,,,,,,,,,,,,,,,,,,,,,,,
,,,,,,,,2023-08-10_18h43.04.074,HF_wild_card,2022.2.4,Win32,59.96282305,5d0e9a2edd7f8e001acc6b5a,64ce5acb97489d65b14ecc7a,64d521566638542f09679c06,,,,,,,decisionTrl,resources/DP.BMP,resources/DY.BMP,Door3,-0.210185157,-0.01203703,1,0,0,3.0446,optionLeft,70,4390,2,32,0,32,0,1,,,,,,,,,,,,,,,,,,,,,,,,,,,,,,,,,,,,,,,
,,,,,,,,2023-08-10_18h43.04.074,HF_wild_card,2022.2.4,Win32,59.96282305,5d0e9a2edd7f8e001acc6b5a,64ce5acb97489d65b14ecc7a,64d521566638542f09679c06,,,,,,,decisionTrl,resources/DY.BMP,resources/DP.BMP,Door4,-0.241666653,0.003703683,1,0,0,1.4787,optionLeft,80,4470,2,33,0,33,0,1,,,,,,,,,,,,,,,,,,,,,,,,,,,,,,,,,,,,,,,
,,,,,,,,2023-08-10_18h43.04.074,HF_wild_card,2022.2.4,Win32,59.96282305,5d0e9a2edd7f8e001acc6b5a,64ce5acb97489d65b14ecc7a,64d521566638542f09679c06,,,,,,,ctch,resources/DP.BMP,resources/DR.BMP,Door3,-0.228703675,-0.015740748,1,0,0,1.591,optionLeft,70,4540,2,34,0,34,0,1,,,,,,,,,,,,,,,,,,,,,,,,,,,,,,,,,,,,,,,
,,,,,,,,2023-08-10_18h43.04.074,HF_wild_card,2022.2.4,Win32,59.96282305,5d0e9a2edd7f8e001acc6b5a,64ce5acb97489d65b14ecc7a,64d521566638542f09679c06,,,,,,,ctch,resources/DR.BMP,resources/DP.BMP,Door3,0.336111139,-0.01203703,1,0,0,1.3961,optionRight,70,4610,2,35,0,35,0,1,,,,,,,,,,,,,,,,,,,,,,,,,,,,,,,,,,,,,,,
,,,,,,,,2023-08-10_18h43.04.074,HF_wild_card,2022.2.4,Win32,59.96282305,5d0e9a2edd7f8e001acc6b5a,64ce5acb97489d65b14ecc7a,64d521566638542f09679c06,,,,,,,ctch,resources/DB.BMP,resources/DY.BMP,Door4,0.337037122,0.043518526,1,0,0,2.5284,optionRight,60,4670,2,36,0,36,0,1,,,,,,,,,,,,,,,,,,,,,,,,,,,,,,,,,,,,,,,
,,,,,,,,2023-08-10_18h43.04.074,HF_wild_card,2022.2.4,Win32,59.96282305,5d0e9a2edd7f8e001acc6b5a,64ce5acb97489d65b14ecc7a,64d521566638542f09679c06,,,,,,,ctch,resources/DP.BMP,resources/DR.BMP,Door3,-0.408333319,-0.032407407,1,0,0,1.812,optionLeft,70,4740,2,37,0,37,0,1,,,,,,,,,,,,,,,,,,,,,,,,,,,,,,,,,,,,,,,
,,,,,,,,2023-08-10_18h43.04.074,HF_wild_card,2022.2.4,Win32,59.96282305,5d0e9a2edd7f8e001acc6b5a,64ce5acb97489d65b14ecc7a,64d521566638542f09679c06,,,,,,,decisionTrl,resources/DB.BMP,resources/DR.BMP,Door1,-0.328703704,0.01666666,1,0,0,1.9782,optionLeft,30,4770,2,38,0,38,0,1,,,,,,,,,,,,,,,,,,,,,,,,,,,,,,,,,,,,,,,
,,,,,,,,2023-08-10_18h43.04.074,HF_wild_card,2022.2.4,Win32,59.96282305,5d0e9a2edd7f8e001acc6b5a,64ce5acb97489d65b14ecc7a,64d521566638542f09679c06,,,,,,,ctch,resources/DY.BMP,resources/DB.BMP,Door4,-0.244444459,0.021296289,1,0,0,1.7123,optionLeft,60,4830,2,39,0,39,0,1,,,,,,,,,,,,,,,,,,,,,,,,,,,,,,,,,,,,,,,
,,,,,,,,2023-08-10_18h43.04.074,HF_wild_card,2022.2.4,Win32,59.96282305,5d0e9a2edd7f8e001acc6b5a,64ce5acb97489d65b14ecc7a,64d521566638542f09679c06,,,,,,,sngl,resources/Empty.png,resources/DP.BMP,Door3,0.352777834,0.0074074,1,0,0,0.8618,optionRight,70,4900,2,40,0,40,0,1,,,,,,,,,,,,,,,,,,,,,,,,,,,,,,,,,,,,,,,
,,,,,,,,2023-08-10_18h43.04.074,HF_wild_card,2022.2.4,Win32,59.96282305,5d0e9a2edd7f8e001acc6b5a,64ce5acb97489d65b14ecc7a,64d521566638542f09679c06,,,,,,,decisionTrl,resources/DR.BMP,resources/DBN.BMP,WildCard_Ex,0.337962963,0.065740727,1,0,0,3.5455,optionRight,95,4995,2,41,0,41,0,1,,,,,,,,,,,,,,,,,,,,,,,,,,,,,,,,,,,,,,,
,,,,,,,,2023-08-10_18h43.04.074,HF_wild_card,2022.2.4,Win32,59.96282305,5d0e9a2edd7f8e001acc6b5a,64ce5acb97489d65b14ecc7a,64d521566638542f09679c06,,,,,,,sngl,resources/Empty.png,resources/DY.BMP,Door4,0.321296268,0.014814801,1,0,0,0.93,optionRight,80,5075,2,42,0,42,0,1,,,,,,,,,,,,,,,,,,,,,,,,,,,,,,,,,,,,,,,
,,,,,,,,2023-08-10_18h43.04.074,HF_wild_card,2022.2.4,Win32,59.96282305,5d0e9a2edd7f8e001acc6b5a,64ce5acb97489d65b14ecc7a,64d521566638542f09679c06,,,,,,,decisionTrl,resources/DP.BMP,resources/DY.BMP,Door4,0.436111168,0.0074074,1,0,0,2.3786,optionRight,60,5135,2,43,0,43,0,1,,,,,,,,,,,,,,,,,,,,,,,,,,,,,,,,,,,,,,,
,,,,,,,,2023-08-10_18h43.04.074,HF_wild_card,2022.2.4,Win32,59.96282305,5d0e9a2edd7f8e001acc6b5a,64ce5acb97489d65b14ecc7a,64d521566638542f09679c06,,,,,,,,,,,,,,,,,,,,,,,,,,1,0,1,0,1,,,,,,,,,,,,,,,,,,,,,,,,,,,,,,,,,,
,,,,,,,,2023-08-10_18h43.04.074,HF_wild_card,2022.2.4,Win32,59.96282305,5d0e9a2edd7f8e001acc6b5a,64ce5acb97489d65b14ecc7a,64d521566638542f09679c06,,,,,,,ctch,resources/DR.BMP,resources/DP.BMP,Door3,0.327777863,0.011111118,1,0,0,3.2507,optionRight,70,5205,3,0,0,0,0,1,,,,,,,,,,,,,,,,,,,,,,,,,,,,,,,,,,,,,,,
,,,,,,,,2023-08-10_18h43.04.074,HF_wild_card,2022.2.4,Win32,59.96282305,5d0e9a2edd7f8e001acc6b5a,64ce5acb97489d65b14ecc7a,64d521566638542f09679c06,,,,,,,decisionTrl,resources/DP.BMP,resources/DY.BMP,Door4,0.416666667,0.026851831,1,0,0,1.8773,optionRight,60,5265,3,1,0,1,0,1,,,,,,,,,,,,,,,,,,,,,,,,,,,,,,,,,,,,,,,
,,,,,,,,2023-08-10_18h43.04.074,HF_wild_card,2022.2.4,Win32,59.96282305,5d0e9a2edd7f8e001acc6b5a,64ce5acb97489d65b14ecc7a,64d521566638542f09679c06,,,,,,,ctch,resources/DB.BMP,resources/DY.BMP,Door1,-0.327777757,0.025000007,1,0,0,2.3114,optionLeft,30,5295,3,2,0,2,0,1,,,,,,,,,,,,,,,,,,,,,,,,,,,,,,,,,,,,,,,
,,,,,,,,2023-08-10_18h43.04.074,HF_wild_card,2022.2.4,Win32,59.96282305,5d0e9a2edd7f8e001acc6b5a,64ce5acb97489d65b14ecc7a,64d521566638542f09679c06,,,,,,,sngl,resources/Empty.png,resources/DBN.BMP,WildCard_Ex,0.299074102,0.038888896,1,0,0,0.8469,optionRight,95,5390,3,3,0,3,0,1,,,,,,,,,,,,,,,,,,,,,,,,,,,,,,,,,,,,,,,
,,,,,,,,2023-08-10_18h43.04.074,HF_wild_card,2022.2.4,Win32,59.96282305,5d0e9a2edd7f8e001acc6b5a,64ce5acb97489d65b14ecc7a,64d521566638542f09679c06,,,,,,,decisionTrl,resources/DR.BMP,resources/DB.BMP,Door1,0.338888945,0.017592571,1,0,0,3.195,optionRight,30,5420,3,4,0,4,0,1,,,,,,,,,,,,,,,,,,,,,,,,,,,,,,,,,,,,,,,
,,,,,,,,2023-08-10_18h43.04.074,HF_wild_card,2022.2.4,Win32,59.96282305,5d0e9a2edd7f8e001acc6b5a,64ce5acb97489d65b14ecc7a,64d521566638542f09679c06,,,,,,,decisionTrl,resources/DB.BMP,resources/DR.BMP,Door2,0.319444444,0.00462963,1,0,0,2.3282,optionRight,40,5460,3,5,0,5,0,1,,,,,,,,,,,,,,,,,,,,,,,,,,,,,,,,,,,,,,,
,,,,,,,,2023-08-10_18h43.04.074,HF_wild_card,2022.2.4,Win32,59.96282305,5d0e9a2edd7f8e001acc6b5a,64ce5acb97489d65b14ecc7a,64d521566638542f09679c06,,,,,,,sngl,resources/Empty.png,resources/DR.BMP,Door2,0.293518561,-0.035185178,1,0,0,0.9132,optionRight,20,5480,3,6,0,6,0,1,,,,,,,,,,,,,,,,,,,,,,,,,,,,,,,,,,,,,,,
,,,,,,,,2023-08-10_18h43.04.074,HF_wild_card,2022.2.4,Win32,59.96282305,5d0e9a2edd7f8e001acc6b5a,64ce5acb97489d65b14ecc7a,64d521566638542f09679c06,,,,,,,decisionTrl,resources/DY.BMP,resources/DBN.BMP,WildCard_Ex,0.262962977,0.027777778,1,0,0,1.1131,optionRight,95,5575,3,7,0,7,0,1,,,,,,,,,,,,,,,,,,,,,,,,,,,,,,,,,,,,,,,
,,,,,,,,2023-08-10_18h43.04.074,HF_wild_card,2022.2.4,Win32,59.96282305,5d0e9a2edd7f8e001acc6b5a,64ce5acb97489d65b14ecc7a,64d521566638542f09679c06,,,,,,,ctch,resources/DP.BMP,resources/DR.BMP,Door2,0.434259344,-0.052777785,1,0,0,2.1622,optionRight,20,5595,3,8,0,8,0,1,,,,,,,,,,,,,,,,,,,,,,,,,,,,,,,,,,,,,,,
,,,,,,,,2023-08-10_18h43.04.074,HF_wild_card,2022.2.4,Win32,59.96282305,5d0e9a2edd7f8e001acc6b5a,64ce5acb97489d65b14ecc7a,64d521566638542f09679c06,,,,,,,decisionTrl,resources/DR.BMP,resources/DB.BMP,Door2,-0.283333319,-0.000925947,1,0,0,1.0619,optionLeft,20,5615,3,9,0,9,0,1,,,,,,,,,,,,,,,,,,,,,,,,,,,,,,,,,,,,,,,
,,,,,,,,2023-08-10_18h43.04.074,HF_wild_card,2022.2.4,Win32,59.96282305,5d0e9a2edd7f8e001acc6b5a,64ce5acb97489d65b14ecc7a,64d521566638542f09679c06,,,,,,,decisionTrl,resources/DB.BMP,resources/DR.BMP,Door1,-0.287962949,0.01666666,1,0,0,1.0807,optionLeft,30,5645,3,10,0,10,0,1,,,,,,,,,,,,,,,,,,,,,,,,,,,,,,,,,,,,,,,
,,,,,,,,2023-08-10_18h43.04.074,HF_wild_card,2022.2.4,Win32,59.96282305,5d0e9a2edd7f8e001acc6b5a,64ce5acb97489d65b14ecc7a,64d521566638542f09679c06,,,,,,,decisionTrl,resources/DB.BMP,resources/DR.BMP,Door2,0.27870369,-0.002777771,1,0,0,1.9458,optionRight,40,5685,3,11,0,11,0,1,,,,,,,,,,,,,,,,,,,,,,,,,,,,,,,,,,,,,,,
,,,,,,,,2023-08-10_18h43.04.074,HF_wild_card,2022.2.4,Win32,59.96282305,5d0e9a2edd7f8e001acc6b5a,64ce5acb97489d65b14ecc7a,64d521566638542f09679c06,,,,,,,decisionTrl,resources/DBN.BMP,resources/DR.BMP,WildCard_Ex,-0.342592593,0.000925912,1,0,0,1.0962,optionLeft,95,5780,3,12,0,12,0,1,,,,,,,,,,,,,,,,,,,,,,,,,,,,,,,,,,,,,,,
,,,,,,,,2023-08-10_18h43.04.074,HF_wild_card,2022.2.4,Win32,59.96282305,5d0e9a2edd7f8e001acc6b5a,64ce5acb97489d65b14ecc7a,64d521566638542f09679c06,,,,,,,decisionTrl,resources/DP.BMP,resources/DY.BMP,Door3,-0.328703704,-0.003703718,1,0,0,2.1454,optionLeft,70,5850,3,13,0,13,0,1,,,,,,,,,,,,,,,,,,,,,,,,,,,,,,,,,,,,,,,
,,,,,,,,2023-08-10_18h43.04.074,HF_wild_card,2022.2.4,Win32,59.96282305,5d0e9a2edd7f8e001acc6b5a,64ce5acb97489d65b14ecc7a,64d521566638542f09679c06,,,,,,,ctch,resources/DY.BMP,resources/DB.BMP,Door4,-0.185185185,0.013888889,1,0,0,1.745,optionLeft,80,5930,3,14,0,14,0,1,,,,,,,,,,,,,,,,,,,,,,,,,,,,,,,,,,,,,,,
,,,,,,,,2023-08-10_18h43.04.074,HF_wild_card,2022.2.4,Win32,59.96282305,5d0e9a2edd7f8e001acc6b5a,64ce5acb97489d65b14ecc7a,64d521566638542f09679c06,,,,,,,decisionTrl,resources/DBN.BMP,resources/DY.BMP,WildCard_Ex,-0.265740712,0.039814808,1,0,0,1.0464,optionLeft,95,6025,3,15,0,15,0,1,,,,,,,,,,,,,,,,,,,,,,,,,,,,,,,,,,,,,,,
,,,,,,,,2023-08-10_18h43.04.074,HF_wild_card,2022.2.4,Win32,59.96282305,5d0e9a2edd7f8e001acc6b5a,64ce5acb97489d65b14ecc7a,64d521566638542f09679c06,,,,,,,sngl,resources/Empty.png,resources/DBN.BMP,WildCard_Ex,0.305555556,0.029629637,1,0,0,0.9957,optionRight,5,6030,3,16,0,16,0,1,,,,,,,,,,,,,,,,,,,,,,,,,,,,,,,,,,,,,,,
,,,,,,,,2023-08-10_18h43.04.074,HF_wild_card,2022.2.4,Win32,59.96282305,5d0e9a2edd7f8e001acc6b5a,64ce5acb97489d65b14ecc7a,64d521566638542f09679c06,,,,,,,decisionTrl,resources/DR.BMP,resources/DBN.BMP,WildCard_Ex,0.440740797,0.01666666,1,0,0,1.829,optionRight,95,6125,3,17,0,17,0,1,,,,,,,,,,,,,,,,,,,,,,,,,,,,,,,,,,,,,,,
,,,,,,,,2023-08-10_18h43.04.074,HF_wild_card,2022.2.4,Win32,59.96282305,5d0e9a2edd7f8e001acc6b5a,64ce5acb97489d65b14ecc7a,64d521566638542f09679c06,,,,,,,decisionTrl,resources/DR.BMP,resources/DB.BMP,Door1,0.371296353,-0.015740748,1,0,0,2.3125,optionRight,30,6155,3,18,0,18,0,1,,,,,,,,,,,,,,,,,,,,,,,,,,,,,,,,,,,,,,,
,,,,,,,,2023-08-10_18h43.04.074,HF_wild_card,2022.2.4,Win32,59.96282305,5d0e9a2edd7f8e001acc6b5a,64ce5acb97489d65b14ecc7a,64d521566638542f09679c06,,,,,,,decisionTrl,resources/DBN.BMP,resources/DP.BMP,Door3,0.327777863,0.035185178,1,0,0,1.0458,optionRight,70,6225,3,19,0,19,0,1,,,,,,,,,,,,,,,,,,,,,,,,,,,,,,,,,,,,,,,
,,,,,,,,2023-08-10_18h43.04.074,HF_wild_card,2022.2.4,Win32,59.96282305,5d0e9a2edd7f8e001acc6b5a,64ce5acb97489d65b14ecc7a,64d521566638542f09679c06,,,,,,,sngl,resources/DY.BMP,resources/Empty.png,Door4,-0.348148134,0.010185171,1,0,0,0.8965,optionLeft,80,6305,3,20,0,20,0,1,,,,,,,,,,,,,,,,,,,,,,,,,,,,,,,,,,,,,,,
,,,,,,,,2023-08-10_18h43.04.074,HF_wild_card,2022.2.4,Win32,59.96282305,5d0e9a2edd7f8e001acc6b5a,64ce5acb97489d65b14ecc7a,64d521566638542f09679c06,,,,,,,decisionTrl,resources/DB.BMP,resources/DR.BMP,Door2,0.323148233,-0.009259259,1,0,0,1.5117,optionRight,40,6345,3,21,0,21,0,1,,,,,,,,,,,,,,,,,,,,,,,,,,,,,,,,,,,,,,,
,,,,,,,,2023-08-10_18h43.04.074,HF_wild_card,2022.2.4,Win32,59.96282305,5d0e9a2edd7f8e001acc6b5a,64ce5acb97489d65b14ecc7a,64d521566638542f09679c06,,,,,,,sngl,resources/DB.BMP,resources/Empty.png,Door1,-0.317592586,0.01203703,1,0,0,0.881,optionLeft,30,6375,3,22,0,22,0,1,,,,,,,,,,,,,,,,,,,,,,,,,,,,,,,,,,,,,,,
,,,,,,,,2023-08-10_18h43.04.074,HF_wild_card,2022.2.4,Win32,59.96282305,5d0e9a2edd7f8e001acc6b5a,64ce5acb97489d65b14ecc7a,64d521566638542f09679c06,,,,,,,decisionTrl,resources/DP.BMP,resources/DY.BMP,Door4,0.314814815,-0.010185206,1,0,0,1.4294,optionRight,60,6435,3,23,0,23,0,1,,,,,,,,,,,,,,,,,,,,,,,,,,,,,,,,,,,,,,,
,,,,,,,,2023-08-10_18h43.04.074,HF_wild_card,2022.2.4,Win32,59.96282305,5d0e9a2edd7f8e001acc6b5a,64ce5acb97489d65b14ecc7a,64d521566638542f09679c06,,,,,,,decisionTrl,resources/DP.BMP,resources/DBN.BMP,WildCard_Ex,0.263888889,0.049999979,1,0,0,0.9453,optionRight,5,6440,3,24,0,24,0,1,,,,,,,,,,,,,,,,,,,,,,,,,,,,,,,,,,,,,,,
,,,,,,,,2023-08-10_18h43.04.074,HF_wild_card,2022.2.4,Win32,59.96282305,5d0e9a2edd7f8e001acc6b5a,64ce5acb97489d65b14ecc7a,64d521566638542f09679c06,,,,,,,decisionTrl,resources/DY.BMP,resources/DP.BMP,Door4,-0.282407407,0.0074074,1,0,0,1.0968,optionLeft,80,6520,3,25,0,25,0,1,,,,,,,,,,,,,,,,,,,,,,,,,,,,,,,,,,,,,,,
,,,,,,,,2023-08-10_18h43.04.074,HF_wild_card,2022.2.4,Win32,59.96282305,5d0e9a2edd7f8e001acc6b5a,64ce5acb97489d65b14ecc7a,64d521566638542f09679c06,,,,,,,ctch,resources/DR.BMP,resources/DP.BMP,Door3,0.341666751,0.03148146,1,0,0,1.3956,optionRight,70,6590,3,26,0,26,0,1,,,,,,,,,,,,,,,,,,,,,,,,,,,,,,,,,,,,,,,
,,,,,,,,2023-08-10_18h43.04.074,HF_wild_card,2022.2.4,Win32,59.96282305,5d0e9a2edd7f8e001acc6b5a,64ce5acb97489d65b14ecc7a,64d521566638542f09679c06,,,,,,,decisionTrl,resources/DBN.BMP,resources/DB.BMP,WildCard_Ex,-0.461111104,0.022222201,1,0,0,1.0628,optionLeft,5,6595,3,27,0,27,0,1,,,,,,,,,,,,,,,,,,,,,,,,,,,,,,,,,,,,,,,
,,,,,,,,2023-08-10_18h43.04.074,HF_wild_card,2022.2.4,Win32,59.96282305,5d0e9a2edd7f8e001acc6b5a,64ce5acb97489d65b14ecc7a,64d521566638542f09679c06,,,,,,,decisionTrl,resources/DP.BMP,resources/DY.BMP,Door4,0.260185171,0.029629637,1,0,0,1.4385,optionRight,80,6675,3,28,0,28,0,1,,,,,,,,,,,,,,,,,,,,,,,,,,,,,,,,,,,,,,,
,,,,,,,,2023-08-10_18h43.04.074,HF_wild_card,2022.2.4,Win32,59.96282305,5d0e9a2edd7f8e001acc6b5a,64ce5acb97489d65b14ecc7a,64d521566638542f09679c06,,,,,,,sngl,resources/DBN.BMP,resources/Empty.png,WildCard_Ex,-0.319444444,0.03148146,1,0,0,0.8963,optionLeft,95,6770,3,29,0,29,0,1,,,,,,,,,,,,,,,,,,,,,,,,,,,,,,,,,,,,,,,
,,,,,,,,2023-08-10_18h43.04.074,HF_wild_card,2022.2.4,Win32,59.96282305,5d0e9a2edd7f8e001acc6b5a,64ce5acb97489d65b14ecc7a,64d521566638542f09679c06,,,,,,,sngl,resources/DP.BMP,resources/Empty.png,Door3,-0.337962963,0.013888889,1,0,0,0.8961,optionLeft,70,6840,3,30,0,30,0,1,,,,,,,,,,,,,,,,,,,,,,,,,,,,,,,,,,,,,,,
,,,,,,,,2023-08-10_18h43.04.074,HF_wild_card,2022.2.4,Win32,59.96282305,5d0e9a2edd7f8e001acc6b5a,64ce5acb97489d65b14ecc7a,64d521566638542f09679c06,,,,,,,sngl,resources/Empty.png,resources/DY.BMP,Door4,0.368518547,0.0074074,1,0,0,0.8298,optionRight,60,6900,3,31,0,31,0,1,,,,,,,,,,,,,,,,,,,,,,,,,,,,,,,,,,,,,,,
,,,,,,,,2023-08-10_18h43.04.074,HF_wild_card,2022.2.4,Win32,59.96282305,5d0e9a2edd7f8e001acc6b5a,64ce5acb97489d65b14ecc7a,64d521566638542f09679c06,,,,,,,decisionTrl,resources/DB.BMP,resources/DBN.BMP,Door1,-0.339814822,0.027777778,1,0,0,1.8133,optionLeft,30,6930,3,32,0,32,0,1,,,,,,,,,,,,,,,,,,,,,,,,,,,,,,,,,,,,,,,
,,,,,,,,2023-08-10_18h43.04.074,HF_wild_card,2022.2.4,Win32,59.96282305,5d0e9a2edd7f8e001acc6b5a,64ce5acb97489d65b14ecc7a,64d521566638542f09679c06,,,,,,,ctch,resources/DY.BMP,resources/DB.BMP,Door4,-0.284259231,0.02407406,1,0,0,1.597,optionLeft,60,6990,3,33,0,33,0,1,,,,,,,,,,,,,,,,,,,,,,,,,,,,,,,,,,,,,,,
,,,,,,,,2023-08-10_18h43.04.074,HF_wild_card,2022.2.4,Win32,59.96282305,5d0e9a2edd7f8e001acc6b5a,64ce5acb97489d65b14ecc7a,64d521566638542f09679c06,,,,,,,sngl,resources/DBN.BMP,resources/Empty.png,WildCard_Ex,-0.292592578,0.003703683,1,0,0,0.947,optionLeft,5,6995,3,34,0,34,0,1,,,,,,,,,,,,,,,,,,,,,,,,,,,,,,,,,,,,,,,
,,,,,,,,2023-08-10_18h43.04.074,HF_wild_card,2022.2.4,Win32,59.96282305,5d0e9a2edd7f8e001acc6b5a,64ce5acb97489d65b14ecc7a,64d521566638542f09679c06,,,,,,,decisionTrl,resources/DY.BMP,resources/DP.BMP,Door4,-0.211111069,-0.040740755,1,0,0,1.646,optionLeft,60,7055,3,35,0,35,0,1,,,,,,,,,,,,,,,,,,,,,,,,,,,,,,,,,,,,,,,
,,,,,,,,2023-08-10_18h43.04.074,HF_wild_card,2022.2.4,Win32,59.96282305,5d0e9a2edd7f8e001acc6b5a,64ce5acb97489d65b14ecc7a,64d521566638542f09679c06,,,,,,,sngl,resources/DR.BMP,resources/Empty.png,Door2,-0.362037023,-0.012962977,1,0,0,0.9135,optionLeft,40,7095,3,36,0,36,0,1,,,,,,,,,,,,,,,,,,,,,,,,,,,,,,,,,,,,,,,
,,,,,,,,2023-08-10_18h43.04.074,HF_wild_card,2022.2.4,Win32,59.96282305,5d0e9a2edd7f8e001acc6b5a,64ce5acb97489d65b14ecc7a,64d521566638542f09679c06,,,,,,,decisionTrl,resources/DR.BMP,resources/DB.BMP,Door2,-0.27407406,-0.008333347,1,0,0,1.629,optionLeft,20,7115,3,37,0,37,0,1,,,,,,,,,,,,,,,,,,,,,,,,,,,,,,,,,,,,,,,
,,,,,,,,2023-08-10_18h43.04.074,HF_wild_card,2022.2.4,Win32,59.96282305,5d0e9a2edd7f8e001acc6b5a,64ce5acb97489d65b14ecc7a,64d521566638542f09679c06,,,,,,,ctch,resources/DB.BMP,resources/DY.BMP,Door4,0.327777863,0.012962942,1,0,0,1.3122,optionRight,80,7195,3,38,0,38,0,1,,,,,,,,,,,,,,,,,,,,,,,,,,,,,,,,,,,,,,,
,,,,,,,,2023-08-10_18h43.04.074,HF_wild_card,2022.2.4,Win32,59.96282305,5d0e9a2edd7f8e001acc6b5a,64ce5acb97489d65b14ecc7a,64d521566638542f09679c06,,,,,,,sngl,resources/Empty.png,resources/DP.BMP,Door3,0.320370427,-0.012962977,1,0,0,0.8799,optionRight,70,7265,3,39,0,39,0,1,,,,,,,,,,,,,,,,,,,,,,,,,,,,,,,,,,,,,,,
,,,,,,,,2023-08-10_18h43.04.074,HF_wild_card,2022.2.4,Win32,59.96282305,5d0e9a2edd7f8e001acc6b5a,64ce5acb97489d65b14ecc7a,64d521566638542f09679c06,,,,,,,decisionTrl,resources/DY.BMP,resources/DP.BMP,Door3,0.475926011,-0.001851859,1,0,0,5.3098,optionRight,70,7335,3,40,0,40,0,1,,,,,,,,,,,,,,,,,,,,,,,,,,,,,,,,,,,,,,,
,,,,,,,,2023-08-10_18h43.04.074,HF_wild_card,2022.2.4,Win32,59.96282305,5d0e9a2edd7f8e001acc6b5a,64ce5acb97489d65b14ecc7a,64d521566638542f09679c06,,,,,,,decisionTrl,resources/DY.BMP,resources/DP.BMP,Door3,0.307407379,0.013888889,1,0,0,0.9801,optionRight,70,7405,3,41,0,41,0,1,,,,,,,,,,,,,,,,,,,,,,,,,,,,,,,,,,,,,,,
,,,,,,,,2023-08-10_18h43.04.074,HF_wild_card,2022.2.4,Win32,59.96282305,5d0e9a2edd7f8e001acc6b5a,64ce5acb97489d65b14ecc7a,64d521566638542f09679c06,,,,,,,ctch,resources/DP.BMP,resources/DR.BMP,Door3,-0.377777771,0.010185171,1,0,0,1.4789,optionLeft,70,7475,3,42,0,42,0,1,,,,,,,,,,,,,,,,,,,,,,,,,,,,,,,,,,,,,,,
,,,,,,,,2023-08-10_18h43.04.074,HF_wild_card,2022.2.4,Win32,59.96282305,5d0e9a2edd7f8e001acc6b5a,64ce5acb97489d65b14ecc7a,64d521566638542f09679c06,,,,,,,sngl,resources/Empty.png,resources/DB.BMP,Door1,0.37962963,0.010185171,1,0,0,0.8968,optionRight,30,7505,3,43,0,43,0,1,,,,,,,,,,,,,,,,,,,,,,,,,,,,,,,,,,,,,,,
,,,,,,,,2023-08-10_18h43.04.074,HF_wild_card,2022.2.4,Win32,59.96282305,5d0e9a2edd7f8e001acc6b5a,64ce5acb97489d65b14ecc7a,64d521566638542f09679c06,,,,,,,,,,,,,,,,,,,,,,,,,,2,0,2,0,1,,,,,,,,,,,,,,,,,,,,,,,,,,,,,,,,,,
,,,,,,,,2023-08-10_18h43.04.074,HF_wild_card,2022.2.4,Win32,59.96282305,5d0e9a2edd7f8e001acc6b5a,64ce5acb97489d65b14ecc7a,64d521566638542f09679c06,,,,,,,ctch,resources/DB.BMP,resources/DY.BMP,Door4,0.362962935,0.12962963,1,0,0,1.7194,optionRight,80,7585,4,0,0,0,0,1,,,,,,,,,,,,,,,,,,,,,,,,,,,,,,,,,,,,,,,
,,,,,,,,2023-08-10_18h43.04.074,HF_wild_card,2022.2.4,Win32,59.96282305,5d0e9a2edd7f8e001acc6b5a,64ce5acb97489d65b14ecc7a,64d521566638542f09679c06,,,,,,,sngl,resources/Empty.png,resources/DG.BMP,WildCard_NonEx,0.371296353,0.027777778,1,0,0,1.0304,optionRight,45,7630,4,1,0,1,0,1,,,,,,,,,,,,,,,,,,,,,,,,,,,,,,,,,,,,,,,
,,,,,,,,2023-08-10_18h43.04.074,HF_wild_card,2022.2.4,Win32,59.96282305,5d0e9a2edd7f8e001acc6b5a,64ce5acb97489d65b14ecc7a,64d521566638542f09679c06,,,,,,,decisionTrl,resources/DP.BMP,resources/DY.BMP,Door4,0.448148233,-0.01203703,1,0,0,2.4953,optionRight,60,7690,4,2,0,2,0,1,,,,,,,,,,,,,,,,,,,,,,,,,,,,,,,,,,,,,,,
,,,,,,,,2023-08-10_18h43.04.074,HF_wild_card,2022.2.4,Win32,59.96282305,5d0e9a2edd7f8e001acc6b5a,64ce5acb97489d65b14ecc7a,64d521566638542f09679c06,,,,,,,ctch,resources/DY.BMP,resources/DB.BMP,Door4,-0.343518504,0.044444437,1,0,0,1.3123,optionLeft,60,7750,4,3,0,3,0,1,,,,,,,,,,,,,,,,,,,,,,,,,,,,,,,,,,,,,,,
,,,,,,,,2023-08-10_18h43.04.074,HF_wild_card,2022.2.4,Win32,59.96282305,5d0e9a2edd7f8e001acc6b5a,64ce5acb97489d65b14ecc7a,64d521566638542f09679c06,,,,,,,decisionTrl,resources/DR.BMP,resources/DB.BMP,Door2,-0.220370328,0.03611109,1,0,0,2.3125,optionLeft,40,7790,4,4,0,4,0,1,,,,,,,,,,,,,,,,,,,,,,,,,,,,,,,,,,,,,,,
,,,,,,,,2023-08-10_18h43.04.074,HF_wild_card,2022.2.4,Win32,59.96282305,5d0e9a2edd7f8e001acc6b5a,64ce5acb97489d65b14ecc7a,64d521566638542f09679c06,,,,,,,decisionTrl,resources/DB.BMP,resources/DR.BMP,Door2,0.377777806,0.053703697,1,0,0,1.0629,optionRight,20,7810,4,5,0,5,0,1,,,,,,,,,,,,,,,,,,,,,,,,,,,,,,,,,,,,,,,
,,,,,,,,2023-08-10_18h43.04.074,HF_wild_card,2022.2.4,Win32,59.96282305,5d0e9a2edd7f8e001acc6b5a,64ce5acb97489d65b14ecc7a,64d521566638542f09679c06,,,,,,,decisionTrl,resources/DB.BMP,resources/DR.BMP,Door2,0.209259245,0.052777785,1,0,0,1.0973,optionRight,20,7830,4,6,0,6,0,1,,,,,,,,,,,,,,,,,,,,,,,,,,,,,,,,,,,,,,,
,,,,,,,,2023-08-10_18h43.04.074,HF_wild_card,2022.2.4,Win32,59.96282305,5d0e9a2edd7f8e001acc6b5a,64ce5acb97489d65b14ecc7a,64d521566638542f09679c06,,,,,,,decisionTrl,resources/DG.BMP,resources/DR.BMP,WildCard_NonEx,-0.317592586,0.020370377,1,0,0,1.0131,optionLeft,45,7875,4,7,0,7,0,1,,,,,,,,,,,,,,,,,,,,,,,,,,,,,,,,,,,,,,,
,,,,,,,,2023-08-10_18h43.04.074,HF_wild_card,2022.2.4,Win32,59.96282305,5d0e9a2edd7f8e001acc6b5a,64ce5acb97489d65b14ecc7a,64d521566638542f09679c06,,,,,,,ctch,resources/DY.BMP,resources/DB.BMP,Door4,-0.142592607,-0.013888889,1,0,0,1.3626,optionLeft,60,7935,4,8,0,8,0,1,,,,,,,,,,,,,,,,,,,,,,,,,,,,,,,,,,,,,,,
,,,,,,,,2023-08-10_18h43.04.074,HF_wild_card,2022.2.4,Win32,59.96282305,5d0e9a2edd7f8e001acc6b5a,64ce5acb97489d65b14ecc7a,64d521566638542f09679c06,,,,,,,sngl,resources/Empty.png,resources/DG.BMP,WildCard_NonEx,0.37962963,0.025925919,1,0,0,0.814,optionRight,55,7990,4,9,0,9,0,1,,,,,,,,,,,,,,,,,,,,,,,,,,,,,,,,,,,,,,,
,,,,,,,,2023-08-10_18h43.04.074,HF_wild_card,2022.2.4,Win32,59.96282305,5d0e9a2edd7f8e001acc6b5a,64ce5acb97489d65b14ecc7a,64d521566638542f09679c06,,,,,,,decisionTrl,resources/DY.BMP,resources/DG.BMP,WildCard_NonEx,0.286111125,0.014814801,1,0,0,1.0291,optionRight,45,8035,4,10,0,10,0,1,,,,,,,,,,,,,,,,,,,,,,,,,,,,,,,,,,,,,,,
,,,,,,,,2023-08-10_18h43.04.074,HF_wild_card,2022.2.4,Win32,59.96282305,5d0e9a2edd7f8e001acc6b5a,64ce5acb97489d65b14ecc7a,64d521566638542f09679c06,,,,,,,sngl,resources/DG.BMP,resources/Empty.png,WildCard_NonEx,-0.312037044,0.01944443,1,0,0,0.8792,optionLeft,55,8090,4,11,0,11,0,1,,,,,,,,,,,,,,,,,,,,,,,,,,,,,,,,,,,,,,,
,,,,,,,,2023-08-10_18h43.04.074,HF_wild_card,2022.2.4,Win32,59.96282305,5d0e9a2edd7f8e001acc6b5a,64ce5acb97489d65b14ecc7a,64d521566638542f09679c06,,,,,,,decisionTrl,resources/DB.BMP,resources/DG.BMP,WildCard_NonEx,0.401851937,0.069444444,1,0,0,2.7458,optionRight,55,8145,4,12,0,12,0,1,,,,,,,,,,,,,,,,,,,,,,,,,,,,,,,,,,,,,,,
,,,,,,,,2023-08-10_18h43.04.074,HF_wild_card,2022.2.4,Win32,59.96282305,5d0e9a2edd7f8e001acc6b5a,64ce5acb97489d65b14ecc7a,64d521566638542f09679c06,,,,,,,sngl,resources/DY.BMP,resources/Empty.png,Door4,-0.290740755,0.015740748,1,0,0,0.8779,optionLeft,60,8205,4,13,0,13,0,1,,,,,,,,,,,,,,,,,,,,,,,,,,,,,,,,,,,,,,,
,,,,,,,,2023-08-10_18h43.04.074,HF_wild_card,2022.2.4,Win32,59.96282305,5d0e9a2edd7f8e001acc6b5a,64ce5acb97489d65b14ecc7a,64d521566638542f09679c06,,,,,,,decisionTrl,resources/DP.BMP,resources/DY.BMP,Door4,0.395370342,0.022222201,1,0,0,1.429,optionRight,60,8265,4,14,0,14,0,1,,,,,,,,,,,,,,,,,,,,,,,,,,,,,,,,,,,,,,,
,,,,,,,,2023-08-10_18h43.04.074,HF_wild_card,2022.2.4,Win32,59.96282305,5d0e9a2edd7f8e001acc6b5a,64ce5acb97489d65b14ecc7a,64d521566638542f09679c06,,,,,,,ctch,resources/DB.BMP,resources/DY.BMP,Door4,0.240740741,0.043518526,1,0,0,1.0861,optionRight,80,8345,4,15,0,15,0,1,,,,,,,,,,,,,,,,,,,,,,,,,,,,,,,,,,,,,,,
,,,,,,,,2023-08-10_18h43.04.074,HF_wild_card,2022.2.4,Win32,59.96282305,5d0e9a2edd7f8e001acc6b5a,64ce5acb97489d65b14ecc7a,64d521566638542f09679c06,,,,,,,decisionTrl,resources/DP.BMP,resources/DY.BMP,Door3,-0.310185185,0.030555548,1,0,0,1.8646,optionLeft,70,8415,4,16,0,16,0,1,,,,,,,,,,,,,,,,,,,,,,,,,,,,,,,,,,,,,,,
,,,,,,,,2023-08-10_18h43.04.074,HF_wild_card,2022.2.4,Win32,59.96282305,5d0e9a2edd7f8e001acc6b5a,64ce5acb97489d65b14ecc7a,64d521566638542f09679c06,,,,,,,ctch,resources/DR.BMP,resources/DP.BMP,Door3,0.243518547,0.029629637,1,0,0,1.1292,optionRight,70,8485,4,17,0,17,0,1,,,,,,,,,,,,,,,,,,,,,,,,,,,,,,,,,,,,,,,
,,,,,,,,2023-08-10_18h43.04.074,HF_wild_card,2022.2.4,Win32,59.96282305,5d0e9a2edd7f8e001acc6b5a,64ce5acb97489d65b14ecc7a,64d521566638542f09679c06,,,,,,,decisionTrl,resources/DB.BMP,resources/DR.BMP,Door2,0.337037122,0.021296289,1,0,0,1.1122,optionRight,40,8525,4,18,0,18,0,1,,,,,,,,,,,,,,,,,,,,,,,,,,,,,,,,,,,,,,,
,,,,,,,,2023-08-10_18h43.04.074,HF_wild_card,2022.2.4,Win32,59.96282305,5d0e9a2edd7f8e001acc6b5a,64ce5acb97489d65b14ecc7a,64d521566638542f09679c06,,,,,,,decisionTrl,resources/DG.BMP,resources/DY.BMP,Door4,0.272222236,0.027777778,1,0,0,1.7624,optionRight,80,8605,4,19,0,19,0,1,,,,,,,,,,,,,,,,,,,,,,,,,,,,,,,,,,,,,,,
,,,,,,,,2023-08-10_18h43.04.074,HF_wild_card,2022.2.4,Win32,59.96282305,5d0e9a2edd7f8e001acc6b5a,64ce5acb97489d65b14ecc7a,64d521566638542f09679c06,,,,,,,decisionTrl,resources/DR.BMP,resources/DB.BMP,Door2,-0.368518511,0.01944443,1,0,0,1.3326,optionLeft,20,8625,4,20,0,20,0,1,,,,,,,,,,,,,,,,,,,,,,,,,,,,,,,,,,,,,,,
,,,,,,,,2023-08-10_18h43.04.074,HF_wild_card,2022.2.4,Win32,59.96282305,5d0e9a2edd7f8e001acc6b5a,64ce5acb97489d65b14ecc7a,64d521566638542f09679c06,,,,,,,sngl,resources/Empty.png,resources/DR.BMP,Door2,0.358333305,0.033333319,1,0,0,0.8296,optionRight,40,8665,4,21,0,21,0,1,,,,,,,,,,,,,,,,,,,,,,,,,,,,,,,,,,,,,,,
,,,,,,,,2023-08-10_18h43.04.074,HF_wild_card,2022.2.4,Win32,59.96282305,5d0e9a2edd7f8e001acc6b5a,64ce5acb97489d65b14ecc7a,64d521566638542f09679c06,,,,,,,decisionTrl,resources/DY.BMP,resources/DP.BMP,Door3,0.33148151,0.041666667,1,0,0,0.9946,optionRight,70,8735,4,22,0,22,0,1,,,,,,,,,,,,,,,,,,,,,,,,,,,,,,,,,,,,,,,
,,,,,,,,2023-08-10_18h43.04.074,HF_wild_card,2022.2.4,Win32,59.96282305,5d0e9a2edd7f8e001acc6b5a,64ce5acb97489d65b14ecc7a,64d521566638542f09679c06,,,,,,,decisionTrl,resources/DP.BMP,resources/DG.BMP,Door3,-0.335185192,0.008333312,1,0,0,1.1124,optionLeft,70,8805,4,23,0,23,0,1,,,,,,,,,,,,,,,,,,,,,,,,,,,,,,,,,,,,,,,
,,,,,,,,2023-08-10_18h43.04.074,HF_wild_card,2022.2.4,Win32,59.96282305,5d0e9a2edd7f8e001acc6b5a,64ce5acb97489d65b14ecc7a,64d521566638542f09679c06,,,,,,,sngl,resources/Empty.png,resources/DP.BMP,Door3,0.338888945,0.01203703,1,0,0,0.8624,optionRight,70,8875,4,24,0,24,0,1,,,,,,,,,,,,,,,,,,,,,,,,,,,,,,,,,,,,,,,
,,,,,,,,2023-08-10_18h43.04.074,HF_wild_card,2022.2.4,Win32,59.96282305,5d0e9a2edd7f8e001acc6b5a,64ce5acb97489d65b14ecc7a,64d521566638542f09679c06,,,,,,,ctch,resources/DR.BMP,resources/DP.BMP,Door3,0.333333333,0.006481489,1,0,0,1.3627,optionRight,70,8945,4,25,0,25,0,1,,,,,,,,,,,,,,,,,,,,,,,,,,,,,,,,,,,,,,,
,,,,,,,,2023-08-10_18h43.04.074,HF_wild_card,2022.2.4,Win32,59.96282305,5d0e9a2edd7f8e001acc6b5a,64ce5acb97489d65b14ecc7a,64d521566638542f09679c06,,,,,,,sngl,resources/Empty.png,resources/DB.BMP,Door1,0.220370399,0.000925912,1,0,0,0.9622,optionRight,30,8975,4,26,0,26,0,1,,,,,,,,,,,,,,,,,,,,,,,,,,,,,,,,,,,,,,,
,,,,,,,,2023-08-10_18h43.04.074,HF_wild_card,2022.2.4,Win32,59.96282305,5d0e9a2edd7f8e001acc6b5a,64ce5acb97489d65b14ecc7a,64d521566638542f09679c06,,,,,,,sngl,resources/Empty.png,resources/DY.BMP,Door4,0.349074046,0.012962942,1,0,0,1.013,optionRight,80,9055,4,27,0,27,0,1,,,,,,,,,,,,,,,,,,,,,,,,,,,,,,,,,,,,,,,
,,,,,,,,2023-08-10_18h43.04.074,HF_wild_card,2022.2.4,Win32,59.96282305,5d0e9a2edd7f8e001acc6b5a,64ce5acb97489d65b14ecc7a,64d521566638542f09679c06,,,,,,,ctch,resources/DP.BMP,resources/DR.BMP,Door3,-0.359259252,-0.003703718,1,0,0,1.2455,optionLeft,70,9125,4,28,0,28,0,1,,,,,,,,,,,,,,,,,,,,,,,,,,,,,,,,,,,,,,,
,,,,,,,,2023-08-10_18h43.04.074,HF_wild_card,2022.2.4,Win32,59.96282305,5d0e9a2edd7f8e001acc6b5a,64ce5acb97489d65b14ecc7a,64d521566638542f09679c06,,,,,,,sngl,resources/DG.BMP,resources/Empty.png,WildCard_NonEx,-0.380555541,0.03611109,1,0,0,0.8945,optionLeft,45,9170,4,29,0,29,0,1,,,,,,,,,,,,,,,,,,,,,,,,,,,,,,,,,,,,,,,
,,,,,,,,2023-08-10_18h43.04.074,HF_wild_card,2022.2.4,Win32,59.96282305,5d0e9a2edd7f8e001acc6b5a,64ce5acb97489d65b14ecc7a,64d521566638542f09679c06,,,,,,,decisionTrl,resources/DG.BMP,resources/DP.BMP,Door3,0.264814801,0.029629637,1,0,0,1.6624,optionRight,70,9240,4,30,0,30,0,1,,,,,,,,,,,,,,,,,,,,,,,,,,,,,,,,,,,,,,,
,,,,,,,,2023-08-10_18h43.04.074,HF_wild_card,2022.2.4,Win32,59.96282305,5d0e9a2edd7f8e001acc6b5a,64ce5acb97489d65b14ecc7a,64d521566638542f09679c06,,,,,,,decisionTrl,resources/DR.BMP,resources/DB.BMP,Door2,-0.375,0.01203703,1,0,0,1.7224,optionLeft,20,9260,4,31,0,31,0,1,,,,,,,,,,,,,,,,,,,,,,,,,,,,,,,,,,,,,,,
,,,,,,,,2023-08-10_18h43.04.074,HF_wild_card,2022.2.4,Win32,59.96282305,5d0e9a2edd7f8e001acc6b5a,64ce5acb97489d65b14ecc7a,64d521566638542f09679c06,,,,,,,decisionTrl,resources/DY.BMP,resources/DP.BMP,Door3,0.342592593,0.023148148,1,0,0,2.2454,optionRight,70,9330,4,32,0,32,0,1,,,,,,,,,,,,,,,,,,,,,,,,,,,,,,,,,,,,,,,
,,,,,,,,2023-08-10_18h43.04.074,HF_wild_card,2022.2.4,Win32,59.96282305,5d0e9a2edd7f8e001acc6b5a,64ce5acb97489d65b14ecc7a,64d521566638542f09679c06,,,,,,,sngl,resources/DR.BMP,resources/Empty.png,Door2,-0.421296296,0.01666666,1,0,0,0.8794,optionLeft,20,9350,4,33,0,33,0,1,,,,,,,,,,,,,,,,,,,,,,,,,,,,,,,,,,,,,,,
,,,,,,,,2023-08-10_18h43.04.074,HF_wild_card,2022.2.4,Win32,59.96282305,5d0e9a2edd7f8e001acc6b5a,64ce5acb97489d65b14ecc7a,64d521566638542f09679c06,,,,,,,sngl,resources/DP.BMP,resources/Empty.png,Door3,-0.262036995,-0.00462963,1,0,0,1.0427,optionLeft,70,9420,4,34,0,34,0,1,,,,,,,,,,,,,,,,,,,,,,,,,,,,,,,,,,,,,,,
,,,,,,,,2023-08-10_18h43.04.074,HF_wild_card,2022.2.4,Win32,59.96282305,5d0e9a2edd7f8e001acc6b5a,64ce5acb97489d65b14ecc7a,64d521566638542f09679c06,,,,,,,decisionTrl,resources/DP.BMP,resources/DY.BMP,Door3,-0.375925912,0.001851859,1,0,0,1.28,optionLeft,70,9490,4,35,0,35,0,1,,,,,,,,,,,,,,,,,,,,,,,,,,,,,,,,,,,,,,,
,,,,,,,,2023-08-10_18h43.04.074,HF_wild_card,2022.2.4,Win32,59.96282305,5d0e9a2edd7f8e001acc6b5a,64ce5acb97489d65b14ecc7a,64d521566638542f09679c06,,,,,,,decisionTrl,resources/DG.BMP,resources/DB.BMP,Door1,0.454629686,0.020370377,1,0,0,1.0048,optionRight,30,9520,4,36,0,36,0,1,,,,,,,,,,,,,,,,,,,,,,,,,,,,,,,,,,,,,,,
,,,,,,,,2023-08-10_18h43.04.074,HF_wild_card,2022.2.4,Win32,59.96282305,5d0e9a2edd7f8e001acc6b5a,64ce5acb97489d65b14ecc7a,64d521566638542f09679c06,,,,,,,decisionTrl,resources/DY.BMP,resources/DP.BMP,Door3,0.3648149,0.020370377,1,0,0,1.2961,optionRight,70,9590,4,37,0,37,0,1,,,,,,,,,,,,,,,,,,,,,,,,,,,,,,,,,,,,,,,
,,,,,,,,2023-08-10_18h43.04.074,HF_wild_card,2022.2.4,Win32,59.96282305,5d0e9a2edd7f8e001acc6b5a,64ce5acb97489d65b14ecc7a,64d521566638542f09679c06,,,,,,,decisionTrl,resources/DB.BMP,resources/DR.BMP,Door1,-0.27870369,-0.010185206,1,0,0,2.1287,optionLeft,30,9620,4,38,0,38,0,1,,,,,,,,,,,,,,,,,,,,,,,,,,,,,,,,,,,,,,,
,,,,,,,,2023-08-10_18h43.04.074,HF_wild_card,2022.2.4,Win32,59.96282305,5d0e9a2edd7f8e001acc6b5a,64ce5acb97489d65b14ecc7a,64d521566638542f09679c06,,,,,,,decisionTrl,resources/DR.BMP,resources/DG.BMP,Door2,-0.273148148,0.01666666,1,0,0,1.0971,optionLeft,20,9640,4,39,0,39,0,1,,,,,,,,,,,,,,,,,,,,,,,,,,,,,,,,,,,,,,,
,,,,,,,,2023-08-10_18h43.04.074,HF_wild_card,2022.2.4,Win32,59.96282305,5d0e9a2edd7f8e001acc6b5a,64ce5acb97489d65b14ecc7a,64d521566638542f09679c06,,,,,,,ctch,resources/DP.BMP,resources/DR.BMP,Door3,-0.329629616,-0.00462963,1,0,0,1.9452,optionLeft,70,9710,4,40,0,40,0,1,,,,,,,,,,,,,,,,,,,,,,,,,,,,,,,,,,,,,,,
,,,,,,,,2023-08-10_18h43.04.074,HF_wild_card,2022.2.4,Win32,59.96282305,5d0e9a2edd7f8e001acc6b5a,64ce5acb97489d65b14ecc7a,64d521566638542f09679c06,,,,,,,decisionTrl,resources/DR.BMP,resources/DB.BMP,Door2,-0.284259231,0.022222201,1,0,0,1.9385,optionLeft,40,9750,4,41,0,41,0,1,,,,,,,,,,,,,,,,,,,,,,,,,,,,,,,,,,,,,,,
,,,,,,,,2023-08-10_18h43.04.074,HF_wild_card,2022.2.4,Win32,59.96282305,5d0e9a2edd7f8e001acc6b5a,64ce5acb97489d65b14ecc7a,64d521566638542f09679c06,,,,,,,sngl,resources/DB.BMP,resources/Empty.png,Door1,-0.288888861,0.032407407,1,0,0,0.9139,optionLeft,30,9780,4,42,0,42,0,1,,,,,,,,,,,,,,,,,,,,,,,,,,,,,,,,,,,,,,,
,,,,,,,,2023-08-10_18h43.04.074,HF_wild_card,2022.2.4,Win32,59.96282305,5d0e9a2edd7f8e001acc6b5a,64ce5acb97489d65b14ecc7a,64d521566638542f09679c06,,,,,,,decisionTrl,resources/DY.BMP,resources/DP.BMP,Door3,0.374074159,0.009259259,1,0,0,1.1455,optionRight,70,9850,4,43,0,43,0,1,,,,,,,,,,,,,,,,,,,,,,,,,,,,,,,,,,,,,,,
,,,,,,,,2023-08-10_18h43.04.074,HF_wild_card,2022.2.4,Win32,59.96282305,5d0e9a2edd7f8e001acc6b5a,64ce5acb97489d65b14ecc7a,64d521566638542f09679c06,,,,,,,,,,,,,,,,,,,,,,,,,,3,0,3,0,1,,,,,,,,,,,,,,,,,,,,,,,,,,,,,,,,,,
,,,,,,,,2023-08-10_18h43.04.074,HF_wild_card,2022.2.4,Win32,59.96282305,5d0e9a2edd7f8e001acc6b5a,64ce5acb97489d65b14ecc7a,64d521566638542f09679c06,,,,,,,decisionTrl,resources/DP.BMP,resources/DG.BMP,Door3,-0.242592564,-0.024074095,1,0,0,2.1179,optionLeft,70,9920,5,0,0,0,0,1,,,,,,,,,,,,,,,,,,,,,,,,,,,,,,,,,,,,,,,
,,,,,,,,2023-08-10_18h43.04.074,HF_wild_card,2022.2.4,Win32,59.96282305,5d0e9a2edd7f8e001acc6b5a,64ce5acb97489d65b14ecc7a,64d521566638542f09679c06,,,,,,,decisionTrl,resources/DP.BMP,resources/DY.BMP,Door4,0.475926011,0.014814801,1,0,0,1.8542,optionRight,80,10000,5,1,0,1,0,1,,,,,,,,,,,,,,,,,,,,,,,,,,,,,,,,,,,,,,,
,,,,,,,,2023-08-10_18h43.04.074,HF_wild_card,2022.2.4,Win32,59.96282305,5d0e9a2edd7f8e001acc6b5a,64ce5acb97489d65b14ecc7a,64d521566638542f09679c06,,,,,,,sngl,resources/Empty.png,resources/DG.BMP,WildCard_NonEx,0.37037037,0.018518519,1,0,0,1.6467,optionRight,55,10055,5,2,0,2,0,1,,,,,,,,,,,,,,,,,,,,,,,,,,,,,,,,,,,,,,,
,,,,,,,,2023-08-10_18h43.04.074,HF_wild_card,2022.2.4,Win32,59.96282305,5d0e9a2edd7f8e001acc6b5a,64ce5acb97489d65b14ecc7a,64d521566638542f09679c06,,,,,,,sngl,resources/DP.BMP,resources/Empty.png,Door3,-0.365740741,0.01944443,1,0,0,0.8474,optionLeft,70,10125,5,3,0,3,0,1,,,,,,,,,,,,,,,,,,,,,,,,,,,,,,,,,,,,,,,
,,,,,,,,2023-08-10_18h43.04.074,HF_wild_card,2022.2.4,Win32,59.96282305,5d0e9a2edd7f8e001acc6b5a,64ce5acb97489d65b14ecc7a,64d521566638542f09679c06,,,,,,,decisionTrl,resources/DY.BMP,resources/DP.BMP,Door3,0.425000085,0.039814808,1,0,0,1.9634,optionRight,70,10195,5,4,0,4,0,1,,,,,,,,,,,,,,,,,,,,,,,,,,,,,,,,,,,,,,,
,,,,,,,,2023-08-10_18h43.04.074,HF_wild_card,2022.2.4,Win32,59.96282305,5d0e9a2edd7f8e001acc6b5a,64ce5acb97489d65b14ecc7a,64d521566638542f09679c06,,,,,,,decisionTrl,resources/DG.BMP,resources/DB.BMP,Door1,0.440740797,-0.01666666,1,0,0,1.237,optionRight,30,10225,5,5,0,5,0,1,,,,,,,,,,,,,,,,,,,,,,,,,,,,,,,,,,,,,,,
,,,,,,,,2023-08-10_18h43.04.074,HF_wild_card,2022.2.4,Win32,59.96282305,5d0e9a2edd7f8e001acc6b5a,64ce5acb97489d65b14ecc7a,64d521566638542f09679c06,,,,,,,decisionTrl,resources/DP.BMP,resources/DY.BMP,Door3,-0.25462963,-0.01203703,1,0,0,1.5964,optionLeft,70,10295,5,6,0,6,0,1,,,,,,,,,,,,,,,,,,,,,,,,,,,,,,,,,,,,,,,
,,,,,,,,2023-08-10_18h43.04.074,HF_wild_card,2022.2.4,Win32,59.96282305,5d0e9a2edd7f8e001acc6b5a,64ce5acb97489d65b14ecc7a,64d521566638542f09679c06,,,,,,,decisionTrl,resources/DY.BMP,resources/DP.BMP,Door3,0.375925982,0.032407407,1,0,0,2.1128,optionRight,70,10365,5,7,0,7,0,1,,,,,,,,,,,,,,,,,,,,,,,,,,,,,,,,,,,,,,,
,,,,,,,,2023-08-10_18h43.04.074,HF_wild_card,2022.2.4,Win32,59.96282305,5d0e9a2edd7f8e001acc6b5a,64ce5acb97489d65b14ecc7a,64d521566638542f09679c06,,,,,,,decisionTrl,resources/DB.BMP,resources/DR.BMP,Door2,0.297222279,0.008333312,1,0,0,2.2946,optionRight,20,10385,5,8,0,8,0,1,,,,,,,,,,,,,,,,,,,,,,,,,,,,,,,,,,,,,,,
,,,,,,,,2023-08-10_18h43.04.074,HF_wild_card,2022.2.4,Win32,59.96282305,5d0e9a2edd7f8e001acc6b5a,64ce5acb97489d65b14ecc7a,64d521566638542f09679c06,,,,,,,decisionTrl,resources/DP.BMP,resources/DY.BMP,Door3,-0.400925919,0.003703683,1,0,0,2.2964,optionLeft,70,10455,5,9,0,9,0,1,,,,,,,,,,,,,,,,,,,,,,,,,,,,,,,,,,,,,,,
,,,,,,,,2023-08-10_18h43.04.074,HF_wild_card,2022.2.4,Win32,59.96282305,5d0e9a2edd7f8e001acc6b5a,64ce5acb97489d65b14ecc7a,64d521566638542f09679c06,,,,,,,sngl,resources/Empty.png,resources/DG.BMP,WildCard_NonEx,0.358333305,0.017592571,1,0,0,0.9207,optionRight,45,10500,5,10,0,10,0,1,,,,,,,,,,,,,,,,,,,,,,,,,,,,,,,,,,,,,,,
,,,,,,,,2023-08-10_18h43.04.074,HF_wild_card,2022.2.4,Win32,59.96282305,5d0e9a2edd7f8e001acc6b5a,64ce5acb97489d65b14ecc7a,64d521566638542f09679c06,,,,,,,ctch,resources/DB.BMP,resources/DY.BMP,Door4,0.392592677,0.023148148,1,0,0,1.5628,optionRight,60,10560,5,11,0,11,0,1,,,,,,,,,,,,,,,,,,,,,,,,,,,,,,,,,,,,,,,
,,,,,,,,2023-08-10_18h43.04.074,HF_wild_card,2022.2.4,Win32,59.96282305,5d0e9a2edd7f8e001acc6b5a,64ce5acb97489d65b14ecc7a,64d521566638542f09679c06,,,,,,,sngl,resources/Empty.png,resources/DB.BMP,Door1,0.308333362,-0.006481489,1,0,0,0.8467,optionRight,30,10590,5,12,0,12,0,1,,,,,,,,,,,,,,,,,,,,,,,,,,,,,,,,,,,,,,,
,,,,,,,,2023-08-10_18h43.04.074,HF_wild_card,2022.2.4,Win32,59.96282305,5d0e9a2edd7f8e001acc6b5a,64ce5acb97489d65b14ecc7a,64d521566638542f09679c06,,,,,,,decisionTrl,resources/DY.BMP,resources/DG.BMP,Door4,-0.316666674,0.065740727,1,0,0,1.3619,optionLeft,80,10670,5,13,0,13,0,1,,,,,,,,,,,,,,,,,,,,,,,,,,,,,,,,,,,,,,,
,,,,,,,,2023-08-10_18h43.04.074,HF_wild_card,2022.2.4,Win32,59.96282305,5d0e9a2edd7f8e001acc6b5a,64ce5acb97489d65b14ecc7a,64d521566638542f09679c06,,,,,,,decisionTrl,resources/DY.BMP,resources/DP.BMP,Door4,-0.272222236,0.025000007,1,0,0,1.7463,optionLeft,80,10750,5,14,0,14,0,1,,,,,,,,,,,,,,,,,,,,,,,,,,,,,,,,,,,,,,,
,,,,,,,,2023-08-10_18h43.04.074,HF_wild_card,2022.2.4,Win32,59.96282305,5d0e9a2edd7f8e001acc6b5a,64ce5acb97489d65b14ecc7a,64d521566638542f09679c06,,,,,,,decisionTrl,resources/DG.BMP,resources/DY.BMP,Door4,0.40370376,0.053703697,1,0,0,1.2966,optionRight,60,10810,5,15,0,15,0,1,,,,,,,,,,,,,,,,,,,,,,,,,,,,,,,,,,,,,,,
,,,,,,,,2023-08-10_18h43.04.074,HF_wild_card,2022.2.4,Win32,59.96282305,5d0e9a2edd7f8e001acc6b5a,64ce5acb97489d65b14ecc7a,64d521566638542f09679c06,,,,,,,decisionTrl,resources/DR.BMP,resources/DG.BMP,Door2,-0.374074053,0.02870369,1,0,0,1.2299,optionLeft,40,10850,5,16,0,16,0,1,,,,,,,,,,,,,,,,,,,,,,,,,,,,,,,,,,,,,,,
,,,,,,,,2023-08-10_18h43.04.074,HF_wild_card,2022.2.4,Win32,59.96282305,5d0e9a2edd7f8e001acc6b5a,64ce5acb97489d65b14ecc7a,64d521566638542f09679c06,,,,,,,sngl,resources/DY.BMP,resources/Empty.png,Door4,-0.316666674,0.018518519,1,0,0,0.8953,optionLeft,80,10930,5,17,0,17,0,1,,,,,,,,,,,,,,,,,,,,,,,,,,,,,,,,,,,,,,,
,,,,,,,,2023-08-10_18h43.04.074,HF_wild_card,2022.2.4,Win32,59.96282305,5d0e9a2edd7f8e001acc6b5a,64ce5acb97489d65b14ecc7a,64d521566638542f09679c06,,,,,,,ctch,resources/DP.BMP,resources/DR.BMP,Door3,-0.375,-0.00462963,1,0,0,1.6289,optionLeft,70,11000,5,18,0,18,0,1,,,,,,,,,,,,,,,,,,,,,,,,,,,,,,,,,,,,,,,
,,,,,,,,2023-08-10_18h43.04.074,HF_wild_card,2022.2.4,Win32,59.96282305,5d0e9a2edd7f8e001acc6b5a,64ce5acb97489d65b14ecc7a,64d521566638542f09679c06,,,,,,,decisionTrl,resources/DB.BMP,resources/DG.BMP,Door1,-0.337037016,0.015740748,1,0,0,1.7121,optionLeft,30,11030,5,19,0,19,0,1,,,,,,,,,,,,,,,,,,,,,,,,,,,,,,,,,,,,,,,
,,,,,,,,2023-08-10_18h43.04.074,HF_wild_card,2022.2.4,Win32,59.96282305,5d0e9a2edd7f8e001acc6b5a,64ce5acb97489d65b14ecc7a,64d521566638542f09679c06,,,,,,,sngl,resources/DR.BMP,resources/Empty.png,Door2,-0.327777757,0.027777778,1,0,0,1.1134,optionLeft,40,11070,5,20,0,20,0,1,,,,,,,,,,,,,,,,,,,,,,,,,,,,,,,,,,,,,,,
,,,,,,,,2023-08-10_18h43.04.074,HF_wild_card,2022.2.4,Win32,59.96282305,5d0e9a2edd7f8e001acc6b5a,64ce5acb97489d65b14ecc7a,64d521566638542f09679c06,,,,,,,decisionTrl,resources/DR.BMP,resources/DB.BMP,Door2,-0.299074067,0.020370377,1,0,0,1.4793,optionLeft,40,11110,5,21,0,21,0,1,,,,,,,,,,,,,,,,,,,,,,,,,,,,,,,,,,,,,,,
,,,,,,,,2023-08-10_18h43.04.074,HF_wild_card,2022.2.4,Win32,59.96282305,5d0e9a2edd7f8e001acc6b5a,64ce5acb97489d65b14ecc7a,64d521566638542f09679c06,,,,,,,decisionTrl,resources/DB.BMP,resources/DR.BMP,Door2,0.333333333,0.04074072,1,0,0,1.6634,optionRight,20,11130,5,22,0,22,0,1,,,,,,,,,,,,,,,,,,,,,,,,,,,,,,,,,,,,,,,
,,,,,,,,2023-08-10_18h43.04.074,HF_wild_card,2022.2.4,Win32,59.96282305,5d0e9a2edd7f8e001acc6b5a,64ce5acb97489d65b14ecc7a,64d521566638542f09679c06,,,,,,,ctch,resources/DR.BMP,resources/DP.BMP,Door3,0.389814871,0.009259259,1,0,0,1.2626,optionRight,70,11200,5,23,0,23,0,1,,,,,,,,,,,,,,,,,,,,,,,,,,,,,,,,,,,,,,,
,,,,,,,,2023-08-10_18h43.04.074,HF_wild_card,2022.2.4,Win32,59.96282305,5d0e9a2edd7f8e001acc6b5a,64ce5acb97489d65b14ecc7a,64d521566638542f09679c06,,,,,,,decisionTrl,resources/DB.BMP,resources/DR.BMP,Door2,0.321296268,0.025925919,1,0,0,2.6964,optionRight,40,11240,5,24,0,24,0,1,,,,,,,,,,,,,,,,,,,,,,,,,,,,,,,,,,,,,,,
,,,,,,,,2023-08-10_18h43.04.074,HF_wild_card,2022.2.4,Win32,59.96282305,5d0e9a2edd7f8e001acc6b5a,64ce5acb97489d65b14ecc7a,64d521566638542f09679c06,,,,,,,decisionTrl,resources/DB.BMP,resources/DR.BMP,Door2,0.388888889,0.009259259,1,0,0,0.897,optionRight,40,11280,5,25,0,25,0,1,,,,,,,,,,,,,,,,,,,,,,,,,,,,,,,,,,,,,,,
,,,,,,,,2023-08-10_18h43.04.074,HF_wild_card,2022.2.4,Win32,59.96282305,5d0e9a2edd7f8e001acc6b5a,64ce5acb97489d65b14ecc7a,64d521566638542f09679c06,,,,,,,decisionTrl,resources/DR.BMP,resources/DB.BMP,Door1,0.375925982,0.014814801,1,0,0,0.9136,optionRight,30,11310,5,26,0,26,0,1,,,,,,,,,,,,,,,,,,,,,,,,,,,,,,,,,,,,,,,
,,,,,,,,2023-08-10_18h43.04.074,HF_wild_card,2022.2.4,Win32,59.96282305,5d0e9a2edd7f8e001acc6b5a,64ce5acb97489d65b14ecc7a,64d521566638542f09679c06,,,,,,,sngl,resources/DG.BMP,resources/Empty.png,WildCard_NonEx,-0.389814801,0.049999979,1,0,0,1.0134,optionLeft,45,11355,5,27,0,27,0,1,,,,,,,,,,,,,,,,,,,,,,,,,,,,,,,,,,,,,,,
,,,,,,,,2023-08-10_18h43.04.074,HF_wild_card,2022.2.4,Win32,59.96282305,5d0e9a2edd7f8e001acc6b5a,64ce5acb97489d65b14ecc7a,64d521566638542f09679c06,,,,,,,decisionTrl,resources/DY.BMP,resources/DP.BMP,Door4,-0.347222222,0.050925926,1,0,0,2.1458,optionLeft,80,11435,5,28,0,28,0,1,,,,,,,,,,,,,,,,,,,,,,,,,,,,,,,,,,,,,,,
,,,,,,,,2023-08-10_18h43.04.074,HF_wild_card,2022.2.4,Win32,59.96282305,5d0e9a2edd7f8e001acc6b5a,64ce5acb97489d65b14ecc7a,64d521566638542f09679c06,,,,,,,ctch,resources/DR.BMP,resources/DP.BMP,Door3,0.406481566,0.02407406,1,0,0,1.7465,optionRight,70,11505,5,29,0,29,0,1,,,,,,,,,,,,,,,,,,,,,,,,,,,,,,,,,,,,,,,
,,,,,,,,2023-08-10_18h43.04.074,HF_wild_card,2022.2.4,Win32,59.96282305,5d0e9a2edd7f8e001acc6b5a,64ce5acb97489d65b14ecc7a,64d521566638542f09679c06,,,,,,,decisionTrl,resources/DP.BMP,resources/DY.BMP,Door4,0.256481524,0.037962949,1,0,0,1.547,optionRight,60,11565,5,30,0,30,0,1,,,,,,,,,,,,,,,,,,,,,,,,,,,,,,,,,,,,,,,
,,,,,,,,2023-08-10_18h43.04.074,HF_wild_card,2022.2.4,Win32,59.96282305,5d0e9a2edd7f8e001acc6b5a,64ce5acb97489d65b14ecc7a,64d521566638542f09679c06,,,,,,,sngl,resources/DB.BMP,resources/Empty.png,Door1,-0.304629608,0.02407406,1,0,0,0.8511,optionLeft,30,11595,5,31,0,31,0,1,,,,,,,,,,,,,,,,,,,,,,,,,,,,,,,,,,,,,,,
,,,,,,,,2023-08-10_18h43.04.074,HF_wild_card,2022.2.4,Win32,59.96282305,5d0e9a2edd7f8e001acc6b5a,64ce5acb97489d65b14ecc7a,64d521566638542f09679c06,,,,,,,ctch,resources/DP.BMP,resources/DR.BMP,Door3,-0.360185164,0.02870369,1,0,0,1.1797,optionLeft,70,11665,5,32,0,32,0,1,,,,,,,,,,,,,,,,,,,,,,,,,,,,,,,,,,,,,,,
,,,,,,,,2023-08-10_18h43.04.074,HF_wild_card,2022.2.4,Win32,59.96282305,5d0e9a2edd7f8e001acc6b5a,64ce5acb97489d65b14ecc7a,64d521566638542f09679c06,,,,,,,ctch,resources/DB.BMP,resources/DY.BMP,Door4,0.321296268,0.011111118,1,0,0,1.1964,optionRight,60,11725,5,33,0,33,0,1,,,,,,,,,,,,,,,,,,,,,,,,,,,,,,,,,,,,,,,
,,,,,,,,2023-08-10_18h43.04.074,HF_wild_card,2022.2.4,Win32,59.96282305,5d0e9a2edd7f8e001acc6b5a,64ce5acb97489d65b14ecc7a,64d521566638542f09679c06,,,,,,,ctch,resources/DY.BMP,resources/DB.BMP,Door4,-0.307407414,0.029629637,1,0,0,1.3296,optionLeft,80,11805,5,34,0,34,0,1,,,,,,,,,,,,,,,,,,,,,,,,,,,,,,,,,,,,,,,
,,,,,,,,2023-08-10_18h43.04.074,HF_wild_card,2022.2.4,Win32,59.96282305,5d0e9a2edd7f8e001acc6b5a,64ce5acb97489d65b14ecc7a,64d521566638542f09679c06,,,,,,,decisionTrl,resources/DR.BMP,resources/DB.BMP,Door2,-0.26944443,0.023148148,1,0,0,1.6466,optionLeft,40,11845,5,35,0,35,0,1,,,,,,,,,,,,,,,,,,,,,,,,,,,,,,,,,,,,,,,
,,,,,,,,2023-08-10_18h43.04.074,HF_wild_card,2022.2.4,Win32,59.96282305,5d0e9a2edd7f8e001acc6b5a,64ce5acb97489d65b14ecc7a,64d521566638542f09679c06,,,,,,,decisionTrl,resources/DG.BMP,resources/DP.BMP,WildCard_NonEx,-0.334259245,0.043518526,1,0,0,1.196,optionLeft,55,11900,5,36,0,36,0,1,,,,,,,,,,,,,,,,,,,,,,,,,,,,,,,,,,,,,,,
,,,,,,,,2023-08-10_18h43.04.074,HF_wild_card,2022.2.4,Win32,59.96282305,5d0e9a2edd7f8e001acc6b5a,64ce5acb97489d65b14ecc7a,64d521566638542f09679c06,,,,,,,decisionTrl,resources/DG.BMP,resources/DR.BMP,WildCard_NonEx,-0.275925884,0.030555548,1,0,0,1.1641,optionLeft,45,11945,5,37,0,37,0,1,,,,,,,,,,,,,,,,,,,,,,,,,,,,,,,,,,,,,,,
,,,,,,,,2023-08-10_18h43.04.074,HF_wild_card,2022.2.4,Win32,59.96282305,5d0e9a2edd7f8e001acc6b5a,64ce5acb97489d65b14ecc7a,64d521566638542f09679c06,,,,,,,ctch,resources/DY.BMP,resources/DB.BMP,Door4,-0.341666645,0.032407407,1,0,0,1.0632,optionLeft,60,12005,5,38,0,38,0,1,,,,,,,,,,,,,,,,,,,,,,,,,,,,,,,,,,,,,,,
,,,,,,,,2023-08-10_18h43.04.074,HF_wild_card,2022.2.4,Win32,59.96282305,5d0e9a2edd7f8e001acc6b5a,64ce5acb97489d65b14ecc7a,64d521566638542f09679c06,,,,,,,decisionTrl,resources/DR.BMP,resources/DB.BMP,Door2,-0.351851852,0.037962949,1,0,0,1.7959,optionLeft,40,12045,5,39,0,39,0,1,,,,,,,,,,,,,,,,,,,,,,,,,,,,,,,,,,,,,,,
,,,,,,,,2023-08-10_18h43.04.074,HF_wild_card,2022.2.4,Win32,59.96282305,5d0e9a2edd7f8e001acc6b5a,64ce5acb97489d65b14ecc7a,64d521566638542f09679c06,,,,,,,sngl,resources/Empty.png,resources/DR.BMP,Door2,0.294444473,-0.010185206,1,0,0,0.8635,optionRight,20,12065,5,40,0,40,0,1,,,,,,,,,,,,,,,,,,,,,,,,,,,,,,,,,,,,,,,
,,,,,,,,2023-08-10_18h43.04.074,HF_wild_card,2022.2.4,Win32,59.96282305,5d0e9a2edd7f8e001acc6b5a,64ce5acb97489d65b14ecc7a,64d521566638542f09679c06,,,,,,,sngl,resources/Empty.png,resources/DY.BMP,Door4,0.323148233,0.025925919,1,0,0,0.8796,optionRight,60,12125,5,41,0,41,0,1,,,,,,,,,,,,,,,,,,,,,,,,,,,,,,,,,,,,,,,
,,,,,,,,2023-08-10_18h43.04.074,HF_wild_card,2022.2.4,Win32,59.96282305,5d0e9a2edd7f8e001acc6b5a,64ce5acb97489d65b14ecc7a,64d521566638542f09679c06,,,,,,,sngl,resources/Empty.png,resources/DP.BMP,Door3,0.468518575,-0.012962977,1,0,0,0.8639,optionRight,70,12195,5,42,0,42,0,1,,,,,,,,,,,,,,,,,,,,,,,,,,,,,,,,,,,,,,,
,,,,,,,,2023-08-10_18h43.04.074,HF_wild_card,2022.2.4,Win32,59.96282305,5d0e9a2edd7f8e001acc6b5a,64ce5acb97489d65b14ecc7a,64d521566638542f09679c06,,,,,,,sngl,resources/DG.BMP,resources/Empty.png,WildCard_NonEx,-0.320370356,0.042592578,1,0,0,0.8722,optionLeft,55,12250,5,43,0,43,0,1,,,,,,,,,,,,,,,,,,,,,,,,,,,,,,,,,,,,,,,
,,,,,,,,2023-08-10_18h43.04.074,HF_wild_card,2022.2.4,Win32,59.96282305,5d0e9a2edd7f8e001acc6b5a,64ce5acb97489d65b14ecc7a,64d521566638542f09679c06,,,,,,,,,,,,,,,,,,,,,,,,,,4,0,4,0,1,,,,,,,,,,,,,,,,,,,,,,,,,,,,,,,,,,
,,,,,,,,2023-08-10_18h43.04.074,HF_wild_card,2022.2.4,Win32,59.96282305,5d0e9a2edd7f8e001acc6b5a,64ce5acb97489d65b14ecc7a,64d521566638542f09679c06,,,,,,,sngl,resources/DG.BMP,resources/Empty.png,WildCard_NonEx,-0.310185185,-0.075000021,1,0,0,0.9362,optionLeft,45,12295,6,0,0,0,0,1,,,,,,,,,,,,,,,,,,,,,,,,,,,,,,,,,,,,,,,
,,,,,,,,2023-08-10_18h43.04.074,HF_wild_card,2022.2.4,Win32,59.96282305,5d0e9a2edd7f8e001acc6b5a,64ce5acb97489d65b14ecc7a,64d521566638542f09679c06,,,,,,,sngl,resources/DR.BMP,resources/Empty.png,Door2,-0.26944443,0.009259259,1,0,0,0.8444,optionLeft,20,12315,6,1,0,1,0,1,,,,,,,,,,,,,,,,,,,,,,,,,,,,,,,,,,,,,,,
,,,,,,,,2023-08-10_18h43.04.074,HF_wild_card,2022.2.4,Win32,59.96282305,5d0e9a2edd7f8e001acc6b5a,64ce5acb97489d65b14ecc7a,64d521566638542f09679c06,,,,,,,ctch,resources/DR.BMP,resources/DP.BMP,Door3,0.405555584,-0.005555577,1,0,0,1.0299,optionRight,70,12385,6,2,0,2,0,1,,,,,,,,,,,,,,,,,,,,,,,,,,,,,,,,,,,,,,,
,,,,,,,,2023-08-10_18h43.04.074,HF_wild_card,2022.2.4,Win32,59.96282305,5d0e9a2edd7f8e001acc6b5a,64ce5acb97489d65b14ecc7a,64d521566638542f09679c06,,,,,,,decisionTrl,resources/DB.BMP,resources/DR.BMP,Door2,0.334259316,0.01203703,1,0,0,1.6289,optionRight,20,12405,6,3,0,3,0,1,,,,,,,,,,,,,,,,,,,,,,,,,,,,,,,,,,,,,,,
,,,,,,,,2023-08-10_18h43.04.074,HF_wild_card,2022.2.4,Win32,59.96282305,5d0e9a2edd7f8e001acc6b5a,64ce5acb97489d65b14ecc7a,64d521566638542f09679c06,,,,,,,decisionTrl,resources/DR.BMP,resources/DB.BMP,Door1,0.416666667,0.039814808,1,0,0,1.8121,optionRight,30,12435,6,4,0,4,0,1,,,,,,,,,,,,,,,,,,,,,,,,,,,,,,,,,,,,,,,
,,,,,,,,2023-08-10_18h43.04.074,HF_wild_card,2022.2.4,Win32,59.96282305,5d0e9a2edd7f8e001acc6b5a,64ce5acb97489d65b14ecc7a,64d521566638542f09679c06,,,,,,,ctch,resources/DY.BMP,resources/DB.BMP,Door4,-0.373148141,-0.031481496,1,0,0,1.0469,optionLeft,60,12495,6,5,0,5,0,1,,,,,,,,,,,,,,,,,,,,,,,,,,,,,,,,,,,,,,,
,,,,,,,,2023-08-10_18h43.04.074,HF_wild_card,2022.2.4,Win32,59.96282305,5d0e9a2edd7f8e001acc6b5a,64ce5acb97489d65b14ecc7a,64d521566638542f09679c06,,,,,,,decisionTrl,resources/DY.BMP,resources/DP.BMP,Door3,0.380555612,-0.011111118,1,0,0,1.1126,optionRight,70,12565,6,6,0,6,0,1,,,,,,,,,,,,,,,,,,,,,,,,,,,,,,,,,,,,,,,
,,,,,,,,2023-08-10_18h43.04.074,HF_wild_card,2022.2.4,Win32,59.96282305,5d0e9a2edd7f8e001acc6b5a,64ce5acb97489d65b14ecc7a,64d521566638542f09679c06,,,,,,,decisionTrl,resources/DP.BMP,resources/DY.BMP,Door4,0.412963019,0.012962942,1,0,0,1.6625,optionRight,80,12645,6,7,0,7,0,1,,,,,,,,,,,,,,,,,,,,,,,,,,,,,,,,,,,,,,,
,,,,,,,,2023-08-10_18h43.04.074,HF_wild_card,2022.2.4,Win32,59.96282305,5d0e9a2edd7f8e001acc6b5a,64ce5acb97489d65b14ecc7a,64d521566638542f09679c06,,,,,,,ctch,resources/DR.BMP,resources/DP.BMP,Door3,0.277777778,-0.010185206,1,0,0,1.3297,optionRight,70,12715,6,8,0,8,0,1,,,,,,,,,,,,,,,,,,,,,,,,,,,,,,,,,,,,,,,
,,,,,,,,2023-08-10_18h43.04.074,HF_wild_card,2022.2.4,Win32,59.96282305,5d0e9a2edd7f8e001acc6b5a,64ce5acb97489d65b14ecc7a,64d521566638542f09679c06,,,,,,,decisionTrl,resources/DP.BMP,resources/DG.BMP,Door3,-0.272222236,-0.018518519,1,0,0,1.0955,optionLeft,70,12785,6,9,0,9,0,1,,,,,,,,,,,,,,,,,,,,,,,,,,,,,,,,,,,,,,,
,,,,,,,,2023-08-10_18h43.04.074,HF_wild_card,2022.2.4,Win32,59.96282305,5d0e9a2edd7f8e001acc6b5a,64ce5acb97489d65b14ecc7a,64d521566638542f09679c06,,,,,,,decisionTrl,resources/DG.BMP,resources/DY.BMP,Door4,0.393518519,0.015740748,1,0,0,2.1122,optionRight,80,12865,6,10,0,10,0,1,,,,,,,,,,,,,,,,,,,,,,,,,,,,,,,,,,,,,,,
,,,,,,,,2023-08-10_18h43.04.074,HF_wild_card,2022.2.4,Win32,59.96282305,5d0e9a2edd7f8e001acc6b5a,64ce5acb97489d65b14ecc7a,64d521566638542f09679c06,,,,,,,decisionTrl,resources/DB.BMP,resources/DR.BMP,Door1,-0.310185185,-0.010185206,1,0,0,1.5796,optionLeft,30,12895,6,11,0,11,0,1,,,,,,,,,,,,,,,,,,,,,,,,,,,,,,,,,,,,,,,
,,,,,,,,2023-08-10_18h43.04.074,HF_wild_card,2022.2.4,Win32,59.96282305,5d0e9a2edd7f8e001acc6b5a,64ce5acb97489d65b14ecc7a,64d521566638542f09679c06,,,,,,,decisionTrl,resources/DR.BMP,resources/DB.BMP,Door1,0.333333333,0.026851831,1,0,0,3.561,optionRight,30,12925,6,12,0,12,0,1,,,,,,,,,,,,,,,,,,,,,,,,,,,,,,,,,,,,,,,
,,,,,,,,2023-08-10_18h43.04.074,HF_wild_card,2022.2.4,Win32,59.96282305,5d0e9a2edd7f8e001acc6b5a,64ce5acb97489d65b14ecc7a,64d521566638542f09679c06,,,,,,,sngl,resources/DY.BMP,resources/Empty.png,Door4,-0.322222215,-0.002777771,1,0,0,0.896,optionLeft,60,12985,6,13,0,13,0,1,,,,,,,,,,,,,,,,,,,,,,,,,,,,,,,,,,,,,,,
,,,,,,,,2023-08-10_18h43.04.074,HF_wild_card,2022.2.4,Win32,59.96282305,5d0e9a2edd7f8e001acc6b5a,64ce5acb97489d65b14ecc7a,64d521566638542f09679c06,,,,,,,decisionTrl,resources/DY.BMP,resources/DP.BMP,Door4,-0.232407393,-0.026851866,1,0,0,1.4956,optionLeft,80,13065,6,14,0,14,0,1,,,,,,,,,,,,,,,,,,,,,,,,,,,,,,,,,,,,,,,
,,,,,,,,2023-08-10_18h43.04.074,HF_wild_card,2022.2.4,Win32,59.96282305,5d0e9a2edd7f8e001acc6b5a,64ce5acb97489d65b14ecc7a,64d521566638542f09679c06,,,,,,,ctch,resources/DP.BMP,resources/DR.BMP,Door3,-0.307407414,0,1,0,0,1.2131,optionLeft,70,13135,6,15,0,15,0,1,,,,,,,,,,,,,,,,,,,,,,,,,,,,,,,,,,,,,,,
,,,,,,,,2023-08-10_18h43.04.074,HF_wild_card,2022.2.4,Win32,59.96282305,5d0e9a2edd7f8e001acc6b5a,64ce5acb97489d65b14ecc7a,64d521566638542f09679c06,,,,,,,decisionTrl,resources/DG.BMP,resources/DP.BMP,Door3,0.310185185,-0.013888889,1,0,0,1.6956,optionRight,70,13205,6,16,0,16,0,1,,,,,,,,,,,,,,,,,,,,,,,,,,,,,,,,,,,,,,,
,,,,,,,,2023-08-10_18h43.04.074,HF_wild_card,2022.2.4,Win32,59.96282305,5d0e9a2edd7f8e001acc6b5a,64ce5acb97489d65b14ecc7a,64d521566638542f09679c06,,,,,,,sngl,resources/Empty.png,resources/DP.BMP,Door3,0.376851824,0.00462963,1,0,0,0.8455,optionRight,70,13275,6,17,0,17,0,1,,,,,,,,,,,,,,,,,,,,,,,,,,,,,,,,,,,,,,,
,,,,,,,,2023-08-10_18h43.04.074,HF_wild_card,2022.2.4,Win32,59.96282305,5d0e9a2edd7f8e001acc6b5a,64ce5acb97489d65b14ecc7a,64d521566638542f09679c06,,,,,,,decisionTrl,resources/DR.BMP,resources/DB.BMP,Door1,0.381481453,-0.001851859,1,0,0,2.2793,optionRight,30,13305,6,18,0,18,0,1,,,,,,,,,,,,,,,,,,,,,,,,,,,,,,,,,,,,,,,
,,,,,,,,2023-08-10_18h43.04.074,HF_wild_card,2022.2.4,Win32,59.96282305,5d0e9a2edd7f8e001acc6b5a,64ce5acb97489d65b14ecc7a,64d521566638542f09679c06,,,,,,,decisionTrl,resources/DP.BMP,resources/DY.BMP,Door4,0.284259302,0.01666666,1,0,0,1.3422,optionRight,80,13385,6,19,0,19,0,1,,,,,,,,,,,,,,,,,,,,,,,,,,,,,,,,,,,,,,,
,,,,,,,,2023-08-10_18h43.04.074,HF_wild_card,2022.2.4,Win32,59.96282305,5d0e9a2edd7f8e001acc6b5a,64ce5acb97489d65b14ecc7a,64d521566638542f09679c06,,,,,,,sngl,resources/DP.BMP,resources/Empty.png,Door3,-0.340740734,0.012962942,1,0,0,0.8101,optionLeft,70,13455,6,20,0,20,0,1,,,,,,,,,,,,,,,,,,,,,,,,,,,,,,,,,,,,,,,
,,,,,,,,2023-08-10_18h43.04.074,HF_wild_card,2022.2.4,Win32,59.96282305,5d0e9a2edd7f8e001acc6b5a,64ce5acb97489d65b14ecc7a,64d521566638542f09679c06,,,,,,,decisionTrl,resources/DP.BMP,resources/DY.BMP,Door3,-0.259259259,0.015740748,1,0,0,1.1798,optionLeft,70,13525,6,21,0,21,0,1,,,,,,,,,,,,,,,,,,,,,,,,,,,,,,,,,,,,,,,
,,,,,,,,2023-08-10_18h43.04.074,HF_wild_card,2022.2.4,Win32,59.96282305,5d0e9a2edd7f8e001acc6b5a,64ce5acb97489d65b14ecc7a,64d521566638542f09679c06,,,,,,,ctch,resources/DB.BMP,resources/DY.BMP,Door4,0.238888917,0.008333312,1,0,0,1.3465,optionRight,80,13605,6,22,0,22,0,1,,,,,,,,,,,,,,,,,,,,,,,,,,,,,,,,,,,,,,,
,,,,,,,,2023-08-10_18h43.04.074,HF_wild_card,2022.2.4,Win32,59.96282305,5d0e9a2edd7f8e001acc6b5a,64ce5acb97489d65b14ecc7a,64d521566638542f09679c06,,,,,,,sngl,resources/DG.BMP,resources/Empty.png,WildCard_NonEx,-0.312962956,0.020370377,1,0,0,0.9755,optionLeft,55,13660,6,23,0,23,0,1,,,,,,,,,,,,,,,,,,,,,,,,,,,,,,,,,,,,,,,
,,,,,,,,2023-08-10_18h43.04.074,HF_wild_card,2022.2.4,Win32,59.96282305,5d0e9a2edd7f8e001acc6b5a,64ce5acb97489d65b14ecc7a,64d521566638542f09679c06,,,,,,,ctch,resources/DY.BMP,resources/DB.BMP,Door4,-0.15370369,0.067592586,1,0,0,3.1946,optionLeft,80,13740,6,24,0,24,0,1,,,,,,,,,,,,,,,,,,,,,,,,,,,,,,,,,,,,,,,
,,,,,,,,2023-08-10_18h43.04.074,HF_wild_card,2022.2.4,Win32,59.96282305,5d0e9a2edd7f8e001acc6b5a,64ce5acb97489d65b14ecc7a,64d521566638542f09679c06,,,,,,,ctch,resources/DP.BMP,resources/DR.BMP,Door3,-0.35833334,-0.003703718,1,0,0,1.1569,optionLeft,70,13810,6,25,0,25,0,1,,,,,,,,,,,,,,,,,,,,,,,,,,,,,,,,,,,,,,,
,,,,,,,,2023-08-10_18h43.04.074,HF_wild_card,2022.2.4,Win32,59.96282305,5d0e9a2edd7f8e001acc6b5a,64ce5acb97489d65b14ecc7a,64d521566638542f09679c06,,,,,,,sngl,resources/Empty.png,resources/DY.BMP,Door4,0.366666723,-0.022222236,1,0,0,0.8965,optionRight,80,13890,6,26,0,26,0,1,,,,,,,,,,,,,,,,,,,,,,,,,,,,,,,,,,,,,,,
,,,,,,,,2023-08-10_18h43.04.074,HF_wild_card,2022.2.4,Win32,59.96282305,5d0e9a2edd7f8e001acc6b5a,64ce5acb97489d65b14ecc7a,64d521566638542f09679c06,,,,,,,decisionTrl,resources/DY.BMP,resources/DP.BMP,Door4,-0.365740741,0.038888896,1,0,0,0.9952,optionLeft,80,13970,6,27,0,27,0,1,,,,,,,,,,,,,,,,,,,,,,,,,,,,,,,,,,,,,,,
,,,,,,,,2023-08-10_18h43.04.074,HF_wild_card,2022.2.4,Win32,59.96282305,5d0e9a2edd7f8e001acc6b5a,64ce5acb97489d65b14ecc7a,64d521566638542f09679c06,,,,,,,decisionTrl,resources/DR.BMP,resources/DB.BMP,Door2,-0.351851852,0.023148148,1,0,0,3.0194,optionLeft,40,14010,6,28,0,28,0,1,,,,,,,,,,,,,,,,,,,,,,,,,,,,,,,,,,,,,,,
,,,,,,,,2023-08-10_18h43.04.074,HF_wild_card,2022.2.4,Win32,59.96282305,5d0e9a2edd7f8e001acc6b5a,64ce5acb97489d65b14ecc7a,64d521566638542f09679c06,,,,,,,decisionTrl,resources/DY.BMP,resources/DG.BMP,Door4,-0.338888875,0.03148146,1,0,0,1.5884,optionLeft,80,14090,6,29,0,29,0,1,,,,,,,,,,,,,,,,,,,,,,,,,,,,,,,,,,,,,,,
,,,,,,,,2023-08-10_18h43.04.074,HF_wild_card,2022.2.4,Win32,59.96282305,5d0e9a2edd7f8e001acc6b5a,64ce5acb97489d65b14ecc7a,64d521566638542f09679c06,,,,,,,sngl,resources/Empty.png,resources/DG.BMP,WildCard_NonEx,0.330555527,0.000925912,1,0,0,0.9057,optionRight,55,14145,6,30,0,30,0,1,,,,,,,,,,,,,,,,,,,,,,,,,,,,,,,,,,,,,,,
,,,,,,,,2023-08-10_18h43.04.074,HF_wild_card,2022.2.4,Win32,59.96282305,5d0e9a2edd7f8e001acc6b5a,64ce5acb97489d65b14ecc7a,64d521566638542f09679c06,,,,,,,decisionTrl,resources/DY.BMP,resources/DP.BMP,Door4,-0.187962921,-0.010185206,1,0,0,1.1795,optionLeft,80,14225,6,31,0,31,0,1,,,,,,,,,,,,,,,,,,,,,,,,,,,,,,,,,,,,,,,
,,,,,,,,2023-08-10_18h43.04.074,HF_wild_card,2022.2.4,Win32,59.96282305,5d0e9a2edd7f8e001acc6b5a,64ce5acb97489d65b14ecc7a,64d521566638542f09679c06,,,,,,,decisionTrl,resources/DB.BMP,resources/DR.BMP,Door1,-0.318518497,0.01944443,1,0,0,2.4287,optionLeft,30,14255,6,32,0,32,0,1,,,,,,,,,,,,,,,,,,,,,,,,,,,,,,,,,,,,,,,
,,,,,,,,2023-08-10_18h43.04.074,HF_wild_card,2022.2.4,Win32,59.96282305,5d0e9a2edd7f8e001acc6b5a,64ce5acb97489d65b14ecc7a,64d521566638542f09679c06,,,,,,,decisionTrl,resources/DG.BMP,resources/DR.BMP,Door2,0.409259231,0.008333312,1,0,0,1.129,optionRight,40,14295,6,33,0,33,0,1,,,,,,,,,,,,,,,,,,,,,,,,,,,,,,,,,,,,,,,
,,,,,,,,2023-08-10_18h43.04.074,HF_wild_card,2022.2.4,Win32,59.96282305,5d0e9a2edd7f8e001acc6b5a,64ce5acb97489d65b14ecc7a,64d521566638542f09679c06,,,,,,,decisionTrl,resources/DP.BMP,resources/DY.BMP,Door4,0.289814843,-0.011111118,1,0,0,1.6307,optionRight,60,14355,6,34,0,34,0,1,,,,,,,,,,,,,,,,,,,,,,,,,,,,,,,,,,,,,,,
,,,,,,,,2023-08-10_18h43.04.074,HF_wild_card,2022.2.4,Win32,59.96282305,5d0e9a2edd7f8e001acc6b5a,64ce5acb97489d65b14ecc7a,64d521566638542f09679c06,,,,,,,decisionTrl,resources/DR.BMP,resources/DG.BMP,WildCard_NonEx,0.362962935,0.006481489,1,0,0,3.8615,optionRight,55,14410,6,35,0,35,0,1,,,,,,,,,,,,,,,,,,,,,,,,,,,,,,,,,,,,,,,
,,,,,,,,2023-08-10_18h43.04.074,HF_wild_card,2022.2.4,Win32,59.96282305,5d0e9a2edd7f8e001acc6b5a,64ce5acb97489d65b14ecc7a,64d521566638542f09679c06,,,,,,,decisionTrl,resources/DB.BMP,resources/DR.BMP,Door1,-0.287037037,0.015740748,1,0,0,1.7013,optionLeft,30,14440,6,36,0,36,0,1,,,,,,,,,,,,,,,,,,,,,,,,,,,,,,,,,,,,,,,
,,,,,,,,2023-08-10_18h43.04.074,HF_wild_card,2022.2.4,Win32,59.96282305,5d0e9a2edd7f8e001acc6b5a,64ce5acb97489d65b14ecc7a,64d521566638542f09679c06,,,,,,,sngl,resources/Empty.png,resources/DR.BMP,Door2,0.300925926,0.023148148,1,0,0,1.8714,optionRight,40,14480,6,37,0,37,0,1,,,,,,,,,,,,,,,,,,,,,,,,,,,,,,,,,,,,,,,
,,,,,,,,2023-08-10_18h43.04.074,HF_wild_card,2022.2.4,Win32,59.96282305,5d0e9a2edd7f8e001acc6b5a,64ce5acb97489d65b14ecc7a,64d521566638542f09679c06,,,,,,,ctch,resources/DB.BMP,resources/DY.BMP,Door4,0.356481481,0.039814808,1,0,0,1.3123,optionRight,80,14560,6,38,0,38,0,1,,,,,,,,,,,,,,,,,,,,,,,,,,,,,,,,,,,,,,,
,,,,,,,,2023-08-10_18h43.04.074,HF_wild_card,2022.2.4,Win32,59.96282305,5d0e9a2edd7f8e001acc6b5a,64ce5acb97489d65b14ecc7a,64d521566638542f09679c06,,,,,,,sngl,resources/DB.BMP,resources/Empty.png,Door1,-0.341666645,-0.039814808,1,0,0,0.8137,optionLeft,30,14590,6,39,0,39,0,1,,,,,,,,,,,,,,,,,,,,,,,,,,,,,,,,,,,,,,,
,,,,,,,,2023-08-10_18h43.04.074,HF_wild_card,2022.2.4,Win32,59.96282305,5d0e9a2edd7f8e001acc6b5a,64ce5acb97489d65b14ecc7a,64d521566638542f09679c06,,,,,,,decisionTrl,resources/DG.BMP,resources/DB.BMP,WildCard_NonEx,-0.304629608,-0.033333355,1,0,0,2.3125,optionLeft,55,14645,6,40,0,40,0,1,,,,,,,,,,,,,,,,,,,,,,,,,,,,,,,,,,,,,,,
,,,,,,,,2023-08-10_18h43.04.074,HF_wild_card,2022.2.4,Win32,59.96282305,5d0e9a2edd7f8e001acc6b5a,64ce5acb97489d65b14ecc7a,64d521566638542f09679c06,,,,,,,decisionTrl,resources/DB.BMP,resources/DG.BMP,WildCard_NonEx,0.283333319,0.057407414,1,0,0,3.3116,optionRight,55,14700,6,41,0,41,0,1,,,,,,,,,,,,,,,,,,,,,,,,,,,,,,,,,,,,,,,
,,,,,,,,2023-08-10_18h43.04.074,HF_wild_card,2022.2.4,Win32,59.96282305,5d0e9a2edd7f8e001acc6b5a,64ce5acb97489d65b14ecc7a,64d521566638542f09679c06,,,,,,,sngl,resources/Empty.png,resources/DB.BMP,Door1,0.312037009,0.014814801,1,0,0,0.83,optionRight,30,14730,6,42,0,42,0,1,,,,,,,,,,,,,,,,,,,,,,,,,,,,,,,,,,,,,,,
,,,,,,,,2023-08-10_18h43.04.074,HF_wild_card,2022.2.4,Win32,59.96282305,5d0e9a2edd7f8e001acc6b5a,64ce5acb97489d65b14ecc7a,64d521566638542f09679c06,,,,,,,sngl,resources/Empty.png,resources/DG.BMP,WildCard_NonEx,0.300925926,-0.01203703,1,0,0,0.8285,optionRight,45,14775,6,43,0,43,0,1,,,,,,,,,,,,,,,,,,,,,,,,,,,,,,,,,,,,,,,
,,,,,,,,2023-08-10_18h43.04.074,HF_wild_card,2022.2.4,Win32,59.96282305,5d0e9a2edd7f8e001acc6b5a,64ce5acb97489d65b14ecc7a,64d521566638542f09679c06,,,,,,,,,,,,,,,,,,,,,,,,,,5,0,5,0,1,,,,,,,,,,,,,,,,,,,,,,,,,,,,,,,,,,
,,,,,,,,2023-08-10_18h43.04.074,HF_wild_card,2022.2.4,Win32,59.96282305,5d0e9a2edd7f8e001acc6b5a,64ce5acb97489d65b14ecc7a,64d521566638542f09679c06,,,,,,,decisionTrl,resources/DP.BMP,resources/DY.BMP,Door4,0.41851849,-0.005555577,1,0,0,1.5044,optionRight,60,14835,7,0,0,0,0,1,,,,,,,,,,,,,,,,,,,,,,,,,,,,,,,,,,,,,,,
,,,,,,,,2023-08-10_18h43.04.074,HF_wild_card,2022.2.4,Win32,59.96282305,5d0e9a2edd7f8e001acc6b5a,64ce5acb97489d65b14ecc7a,64d521566638542f09679c06,,,,,,,decisionTrl,resources/DP.BMP,resources/DY.BMP,Door4,0.287962949,0.009259259,1,0,0,1.2464,optionRight,60,14895,7,1,0,1,0,1,,,,,,,,,,,,,,,,,,,,,,,,,,,,,,,,,,,,,,,
,,,,,,,,2023-08-10_18h43.04.074,HF_wild_card,2022.2.4,Win32,59.96282305,5d0e9a2edd7f8e001acc6b5a,64ce5acb97489d65b14ecc7a,64d521566638542f09679c06,,,,,,,decisionTrl,resources/DR.BMP,resources/DB.BMP,Door2,-0.37962963,0.026851831,1,0,0,1.5471,optionLeft,20,14915,7,2,0,2,0,1,,,,,,,,,,,,,,,,,,,,,,,,,,,,,,,,,,,,,,,
,,,,,,,,2023-08-10_18h43.04.074,HF_wild_card,2022.2.4,Win32,59.96282305,5d0e9a2edd7f8e001acc6b5a,64ce5acb97489d65b14ecc7a,64d521566638542f09679c06,,,,,,,decisionTrl,resources/DB.BMP,resources/DR.BMP,Door2,0.357407464,-0.041666667,1,0,0,1.7801,optionRight,20,14935,7,3,0,3,0,1,,,,,,,,,,,,,,,,,,,,,,,,,,,,,,,,,,,,,,,
,,,,,,,,2023-08-10_18h43.04.074,HF_wild_card,2022.2.4,Win32,59.96282305,5d0e9a2edd7f8e001acc6b5a,64ce5acb97489d65b14ecc7a,64d521566638542f09679c06,,,,,,,decisionTrl,resources/DY.BMP,resources/DP.BMP,Door4,-0.349999993,0.01666666,1,0,0,1.0135,optionLeft,60,14995,7,4,0,4,0,1,,,,,,,,,,,,,,,,,,,,,,,,,,,,,,,,,,,,,,,
,,,,,,,,2023-08-10_18h43.04.074,HF_wild_card,2022.2.4,Win32,59.96282305,5d0e9a2edd7f8e001acc6b5a,64ce5acb97489d65b14ecc7a,64d521566638542f09679c06,,,,,,,ctch,resources/DY.BMP,resources/DB.BMP,Door4,-0.233333305,0.001851859,1,0,0,1.2975,optionLeft,80,15075,7,5,0,5,0,1,,,,,,,,,,,,,,,,,,,,,,,,,,,,,,,,,,,,,,,
,,,,,,,,2023-08-10_18h43.04.074,HF_wild_card,2022.2.4,Win32,59.96282305,5d0e9a2edd7f8e001acc6b5a,64ce5acb97489d65b14ecc7a,64d521566638542f09679c06,,,,,,,ctch,resources/DY.BMP,resources/DB.BMP,Door4,-0.284259231,0.018518519,1,0,0,0.932,optionLeft,60,15135,7,6,0,6,0,1,,,,,,,,,,,,,,,,,,,,,,,,,,,,,,,,,,,,,,,
,,,,,,,,2023-08-10_18h43.04.074,HF_wild_card,2022.2.4,Win32,59.96282305,5d0e9a2edd7f8e001acc6b5a,64ce5acb97489d65b14ecc7a,64d521566638542f09679c06,,,,,,,decisionTrl,resources/DY.BMP,resources/DP.BMP,Door4,-0.327777757,0.015740748,1,0,0,1.3979,optionLeft,60,15195,7,7,0,7,0,1,,,,,,,,,,,,,,,,,,,,,,,,,,,,,,,,,,,,,,,
,,,,,,,,2023-08-10_18h43.04.074,HF_wild_card,2022.2.4,Win32,59.96282305,5d0e9a2edd7f8e001acc6b5a,64ce5acb97489d65b14ecc7a,64d521566638542f09679c06,,,,,,,decisionTrl,resources/DR.BMP,resources/DB.BMP,Door2,-0.354629623,0.046296296,1,0,0,1.2127,optionLeft,20,15215,7,8,0,8,0,1,,,,,,,,,,,,,,,,,,,,,,,,,,,,,,,,,,,,,,,
,,,,,,,,2023-08-10_18h43.04.074,HF_wild_card,2022.2.4,Win32,59.96282305,5d0e9a2edd7f8e001acc6b5a,64ce5acb97489d65b14ecc7a,64d521566638542f09679c06,,,,,,,decisionTrl,resources/DY.BMP,resources/DP.BMP,Door4,-0.22592594,0.027777778,1,0,0,1.1982,optionLeft,80,15295,7,9,0,9,0,1,,,,,,,,,,,,,,,,,,,,,,,,,,,,,,,,,,,,,,,
,,,,,,,,2023-08-10_18h43.04.074,HF_wild_card,2022.2.4,Win32,59.96282305,5d0e9a2edd7f8e001acc6b5a,64ce5acb97489d65b14ecc7a,64d521566638542f09679c06,,,,,,,ctch,resources/DR.BMP,resources/DP.BMP,Door3,0.413888861,0.025925919,1,0,0,1.3814,optionRight,70,15365,7,10,0,10,0,1,,,,,,,,,,,,,,,,,,,,,,,,,,,,,,,,,,,,,,,
,,,,,,,,2023-08-10_18h43.04.074,HF_wild_card,2022.2.4,Win32,59.96282305,5d0e9a2edd7f8e001acc6b5a,64ce5acb97489d65b14ecc7a,64d521566638542f09679c06,,,,,,,decisionTrl,resources/DY.BMP,resources/DP.BMP,Door4,-0.378703683,0.01203703,1,0,0,1.5316,optionLeft,80,15445,7,11,0,11,0,1,,,,,,,,,,,,,,,,,,,,,,,,,,,,,,,,,,,,,,,
,,,,,,,,2023-08-10_18h43.04.074,HF_wild_card,2022.2.4,Win32,59.96282305,5d0e9a2edd7f8e001acc6b5a,64ce5acb97489d65b14ecc7a,64d521566638542f09679c06,,,,,,,decisionTrl,resources/DP.BMP,resources/DY.BMP,Door4,0.417592649,-0.034259266,1,0,0,1.8206,optionRight,60,15505,7,12,0,12,0,1,,,,,,,,,,,,,,,,,,,,,,,,,,,,,,,,,,,,,,,
,,,,,,,,2023-08-10_18h43.04.074,HF_wild_card,2022.2.4,Win32,59.96282305,5d0e9a2edd7f8e001acc6b5a,64ce5acb97489d65b14ecc7a,64d521566638542f09679c06,,,,,,,decisionTrl,resources/DR.BMP,resources/DB.BMP,Door1,0.401851937,0.048148155,1,0,0,2.2972,optionRight,30,15535,7,13,0,13,0,1,,,,,,,,,,,,,,,,,,,,,,,,,,,,,,,,,,,,,,,
,,,,,,,,2023-08-10_18h43.04.074,HF_wild_card,2022.2.4,Win32,59.96282305,5d0e9a2edd7f8e001acc6b5a,64ce5acb97489d65b14ecc7a,64d521566638542f09679c06,,,,,,,ctch,resources/DR.BMP,resources/DP.BMP,Door3,0.275000042,0.008333312,1,0,0,1.8152,optionRight,70,15605,7,14,0,14,0,1,,,,,,,,,,,,,,,,,,,,,,,,,,,,,,,,,,,,,,,
,,,,,,,,2023-08-10_18h43.04.074,HF_wild_card,2022.2.4,Win32,59.96282305,5d0e9a2edd7f8e001acc6b5a,64ce5acb97489d65b14ecc7a,64d521566638542f09679c06,,,,,,,decisionTrl,resources/DP.BMP,resources/DY.BMP,Door4,0.319444444,0.01203703,1,0,0,1.2153,optionRight,80,15685,7,15,0,15,0,1,,,,,,,,,,,,,,,,,,,,,,,,,,,,,,,,,,,,,,,
,,,,,,,,2023-08-10_18h43.04.074,HF_wild_card,2022.2.4,Win32,59.96282305,5d0e9a2edd7f8e001acc6b5a,64ce5acb97489d65b14ecc7a,64d521566638542f09679c06,,,,,,,ctch,resources/DP.BMP,resources/DR.BMP,Door3,-0.375925912,0.014814801,1,0,0,1.1647,optionLeft,70,15755,7,16,0,16,0,1,,,,,,,,,,,,,,,,,,,,,,,,,,,,,,,,,,,,,,,
,,,,,,,,2023-08-10_18h43.04.074,HF_wild_card,2022.2.4,Win32,59.96282305,5d0e9a2edd7f8e001acc6b5a,64ce5acb97489d65b14ecc7a,64d521566638542f09679c06,,,,,,,ctch,resources/DR.BMP,resources/DP.BMP,Door3,0.310185185,0.012962942,1,0,0,0.9833,optionRight,70,15825,7,17,0,17,0,1,,,,,,,,,,,,,,,,,,,,,,,,,,,,,,,,,,,,,,,
,,,,,,,,2023-08-10_18h43.04.074,HF_wild_card,2022.2.4,Win32,59.96282305,5d0e9a2edd7f8e001acc6b5a,64ce5acb97489d65b14ecc7a,64d521566638542f09679c06,,,,,,,decisionTrl,resources/DP.BMP,resources/DY.BMP,Door4,0.275000042,-0.013888889,1,0,0,1.5487,optionRight,60,15885,7,18,0,18,0,1,,,,,,,,,,,,,,,,,,,,,,,,,,,,,,,,,,,,,,,
,,,,,,,,2023-08-10_18h43.04.074,HF_wild_card,2022.2.4,Win32,59.96282305,5d0e9a2edd7f8e001acc6b5a,64ce5acb97489d65b14ecc7a,64d521566638542f09679c06,,,,,,,decisionTrl,resources/DB.BMP,resources/DR.BMP,Door1,-0.210185157,0.011111118,1,0,0,2.0641,optionLeft,30,15915,7,19,0,19,0,1,,,,,,,,,,,,,,,,,,,,,,,,,,,,,,,,,,,,,,,
,,,,,,,,2023-08-10_18h43.04.074,HF_wild_card,2022.2.4,Win32,59.96282305,5d0e9a2edd7f8e001acc6b5a,64ce5acb97489d65b14ecc7a,64d521566638542f09679c06,,,,,,,ctch,resources/DP.BMP,resources/DR.BMP,Door3,-0.227777764,0.015740748,1,0,0,1.647,optionLeft,70,15985,7,20,0,20,0,1,,,,,,,,,,,,,,,,,,,,,,,,,,,,,,,,,,,,,,,
,,,,,,,,2023-08-10_18h43.04.074,HF_wild_card,2022.2.4,Win32,59.96282305,5d0e9a2edd7f8e001acc6b5a,64ce5acb97489d65b14ecc7a,64d521566638542f09679c06,,,,,,,decisionTrl,resources/DR.BMP,resources/DB.BMP,Door2,-0.187962921,0.032407407,1,0,0,1.2653,optionLeft,40,16025,7,21,0,21,0,1,,,,,,,,,,,,,,,,,,,,,,,,,,,,,,,,,,,,,,,
,,,,,,,,2023-08-10_18h43.04.074,HF_wild_card,2022.2.4,Win32,59.96282305,5d0e9a2edd7f8e001acc6b5a,64ce5acb97489d65b14ecc7a,64d521566638542f09679c06,,,,,,,ctch,resources/DP.BMP,resources/DR.BMP,Door3,-0.311111097,0.020370377,1,0,0,1.1969,optionLeft,70,16095,7,22,0,22,0,1,,,,,,,,,,,,,,,,,,,,,,,,,,,,,,,,,,,,,,,
,,,,,,,,2023-08-10_18h43.04.074,HF_wild_card,2022.2.4,Win32,59.96282305,5d0e9a2edd7f8e001acc6b5a,64ce5acb97489d65b14ecc7a,64d521566638542f09679c06,,,,,,,decisionTrl,resources/DB.BMP,resources/DR.BMP,Door2,0.253703718,0.003703683,1,0,0,1.1983,optionRight,20,16115,7,23,0,23,0,1,,,,,,,,,,,,,,,,,,,,,,,,,,,,,,,,,,,,,,,
,,,,,,,,2023-08-10_18h43.04.074,HF_wild_card,2022.2.4,Win32,59.96282305,5d0e9a2edd7f8e001acc6b5a,64ce5acb97489d65b14ecc7a,64d521566638542f09679c06,,,,,,,ctch,resources/DB.BMP,resources/DY.BMP,Door4,0.37037037,0.039814808,1,0,0,1.1657,optionRight,60,16175,7,24,0,24,0,1,,,,,,,,,,,,,,,,,,,,,,,,,,,,,,,,,,,,,,,
,,,,,,,,2023-08-10_18h43.04.074,HF_wild_card,2022.2.4,Win32,59.96282305,5d0e9a2edd7f8e001acc6b5a,64ce5acb97489d65b14ecc7a,64d521566638542f09679c06,,,,,,,ctch,resources/DB.BMP,resources/DY.BMP,Door4,0.344444416,0.057407414,1,0,0,0.8177,optionRight,80,16255,7,25,0,25,0,1,,,,,,,,,,,,,,,,,,,,,,,,,,,,,,,,,,,,,,,
,,,,,,,,2023-08-10_18h43.04.074,HF_wild_card,2022.2.4,Win32,59.96282305,5d0e9a2edd7f8e001acc6b5a,64ce5acb97489d65b14ecc7a,64d521566638542f09679c06,,,,,,,decisionTrl,resources/DR.BMP,resources/DB.BMP,Door2,-0.198148162,-0.005555577,1,0,0,1.2167,optionLeft,40,16295,7,26,0,26,0,1,,,,,,,,,,,,,,,,,,,,,,,,,,,,,,,,,,,,,,,
,,,,,,,,2023-08-10_18h43.04.074,HF_wild_card,2022.2.4,Win32,59.96282305,5d0e9a2edd7f8e001acc6b5a,64ce5acb97489d65b14ecc7a,64d521566638542f09679c06,,,,,,,decisionTrl,resources/DB.BMP,resources/DR.BMP,Door2,0.330555527,0.041666667,1,0,0,1.0162,optionRight,40,16335,7,27,0,27,0,1,,,,,,,,,,,,,,,,,,,,,,,,,,,,,,,,,,,,,,,
,,,,,,,,2023-08-10_18h43.04.074,HF_wild_card,2022.2.4,Win32,59.96282305,5d0e9a2edd7f8e001acc6b5a,64ce5acb97489d65b14ecc7a,64d521566638542f09679c06,,,,,,,ctch,resources/DB.BMP,resources/DY.BMP,Door4,0.349074046,-0.015740748,1,0,0,0.9321,optionRight,80,16415,7,28,0,28,0,1,,,,,,,,,,,,,,,,,,,,,,,,,,,,,,,,,,,,,,,
,,,,,,,,2023-08-10_18h43.04.074,HF_wild_card,2022.2.4,Win32,59.96282305,5d0e9a2edd7f8e001acc6b5a,64ce5acb97489d65b14ecc7a,64d521566638542f09679c06,,,,,,,ctch,resources/DY.BMP,resources/DB.BMP,Door4,-0.341666645,0.027777778,1,0,0,0.9148,optionLeft,80,16495,7,29,0,29,0,1,,,,,,,,,,,,,,,,,,,,,,,,,,,,,,,,,,,,,,,
,,,,,,,,2023-08-10_18h43.04.074,HF_wild_card,2022.2.4,Win32,59.96282305,5d0e9a2edd7f8e001acc6b5a,64ce5acb97489d65b14ecc7a,64d521566638542f09679c06,,,,,,,decisionTrl,resources/DB.BMP,resources/DR.BMP,Door1,-0.282407407,0.018518519,1,0,0,1.7313,optionLeft,30,16525,7,30,0,30,0,1,,,,,,,,,,,,,,,,,,,,,,,,,,,,,,,,,,,,,,,
,,,,,,,,2023-08-10_18h43.04.074,HF_wild_card,2022.2.4,Win32,59.96282305,5d0e9a2edd7f8e001acc6b5a,64ce5acb97489d65b14ecc7a,64d521566638542f09679c06,,,,,,,decisionTrl,resources/DY.BMP,resources/DP.BMP,Door4,-0.242592564,0.008333312,1,0,0,2.6966,optionLeft,80,16605,7,31,0,31,0,1,,,,,,,,,,,,,,,,,,,,,,,,,,,,,,,,,,,,,,,
,,,,,,,,2023-08-10_18h43.04.074,HF_wild_card,2022.2.4,Win32,59.96282305,5d0e9a2edd7f8e001acc6b5a,64ce5acb97489d65b14ecc7a,64d521566638542f09679c06,,,,,,,decisionTrl,resources/DY.BMP,resources/DP.BMP,Door3,0.401851937,0.035185178,1,0,0,1.1494,optionRight,70,16675,7,32,0,32,0,1,,,,,,,,,,,,,,,,,,,,,,,,,,,,,,,,,,,,,,,
,,,,,,,,2023-08-10_18h43.04.074,HF_wild_card,2022.2.4,Win32,59.96282305,5d0e9a2edd7f8e001acc6b5a,64ce5acb97489d65b14ecc7a,64d521566638542f09679c06,,,,,,,decisionTrl,resources/DP.BMP,resources/DY.BMP,Door3,-0.355555534,0.011111118,1,0,0,0.866,optionLeft,70,16745,7,33,0,33,0,1,,,,,,,,,,,,,,,,,,,,,,,,,,,,,,,,,,,,,,,
,,,,,,,,2023-08-10_18h43.04.074,HF_wild_card,2022.2.4,Win32,59.96282305,5d0e9a2edd7f8e001acc6b5a,64ce5acb97489d65b14ecc7a,64d521566638542f09679c06,,,,,,,decisionTrl,resources/DR.BMP,resources/DB.BMP,Door1,0.195370356,0.02870369,1,0,0,1.5155,optionRight,30,16775,7,34,0,34,0,1,,,,,,,,,,,,,,,,,,,,,,,,,,,,,,,,,,,,,,,
,,,,,,,,2023-08-10_18h43.04.074,HF_wild_card,2022.2.4,Win32,59.96282305,5d0e9a2edd7f8e001acc6b5a,64ce5acb97489d65b14ecc7a,64d521566638542f09679c06,,,,,,,decisionTrl,resources/DB.BMP,resources/DR.BMP,Door1,-0.333333333,-0.000925947,1,0,0,0.9984,optionLeft,30,16805,7,35,0,35,0,1,,,,,,,,,,,,,,,,,,,,,,,,,,,,,,,,,,,,,,,
,,,,,,,,2023-08-10_18h43.04.074,HF_wild_card,2022.2.4,Win32,59.96282305,5d0e9a2edd7f8e001acc6b5a,64ce5acb97489d65b14ecc7a,64d521566638542f09679c06,,,,,,,,,,,,,,,,,,,,,,,,,,6,0,6,0,1,,,,,,,,,,,,,,,,,,,,,,,,,,,,,,,,,,
,,,,,,,,2023-08-10_18h43.04.074,HF_wild_card,2022.2.4,Win32,59.96282305,5d0e9a2edd7f8e001acc6b5a,64ce5acb97489d65b14ecc7a,64d521566638542f09679c06,,,,,,,,,,,,,,,,,,,,,,,,,,,,,,,4,,,,,,,,,,,,,,,,,,,,,,,,,,,,,,,,,
,,,,,,,,2023-08-10_18h43.04.074,HF_wild_card,2022.2.4,Win32,59.96282305,5d0e9a2edd7f8e001acc6b5a,64ce5acb97489d65b14ecc7a,64d521566638542f09679c06,,,,,,,,,,,,,,,,,,,,,,,,,,,,,,,,,,,,,,,,,,,,,,,,,,,,,,,,,,,,,,,,
,,,,,,,,2023-08-10_18h43.04.074,HF_wild_card,2022.2.4,Win32,59.96282305,5d0e9a2edd7f8e001acc6b5a,64ce5acb97489d65b14ecc7a,64d521566638542f09679c06,,,,,,,,,,,,,,,,,,,,,,,,,,,,,,,,60,Door3,resources/DP.BMP,0,0,0,0,1,,,,,,,,,,,,,,,,,,,,,,,,,
,,,,,,,,2023-08-10_18h43.04.074,HF_wild_card,2022.2.4,Win32,59.96282305,5d0e9a2edd7f8e001acc6b5a,64ce5acb97489d65b14ecc7a,64d521566638542f09679c06,,,,,,,,,,,,,,,,,,,,,,,,,,,,,,,,80,Door4,resources/DY.BMP,1,0,1,0,1,,,,,,,,,,,,,,,,,,,,,,,,,
,,,,,,,,2023-08-10_18h43.04.074,HF_wild_card,2022.2.4,Win32,59.96282305,5d0e9a2edd7f8e001acc6b5a,64ce5acb97489d65b14ecc7a,64d521566638542f09679c06,,,,,,,,,,,,,,,,,,,,,,,,,,,,,,,,20,Door2,resources/DR.BMP,2,0,2,0,1,,,,,,,,,,,,,,,,,,,,,,,,,
,,,,,,,,2023-08-10_18h43.04.074,HF_wild_card,2022.2.4,Win32,59.96282305,5d0e9a2edd7f8e001acc6b5a,64ce5acb97489d65b14ecc7a,64d521566638542f09679c06,,,,,,,,,,,,,,,,,,,,,,,,,,,,,,,,30,Door1,resources/DB.BMP,3,0,3,0,1,,,,,,,,,,,,,,,,,,,,,,,,,
,,,,,,,,2023-08-10_18h43.04.074,HF_wild_card,2022.2.4,Win32,59.96282305,5d0e9a2edd7f8e001acc6b5a,64ce5acb97489d65b14ecc7a,64d521566638542f09679c06,,,,,,,,,,,,,,,,,,,,,,,,,,,,,,,,95,WC_extreme,resources/DBN.BMP,4,0,4,0,1,,,,,,,,,,,,,,,,,,,,,,,,,
,,,,,,,,2023-08-10_18h43.04.074,HF_wild_card,2022.2.4,Win32,59.96282305,5d0e9a2edd7f8e001acc6b5a,64ce5acb97489d65b14ecc7a,64d521566638542f09679c06,,,,,,,,,,,,,,,,,,,,,,,,,,,,,,,,45,WC_nonExtreme,resources/DG.BMP,5,0,5,0,1,,,,,,,,,,,,,,,,,,,,,,,,,
,,,,,,,,2023-08-10_18h43.04.074,HF_wild_card,2022.2.4,Win32,59.96282305,5d0e9a2edd7f8e001acc6b5a,64ce5acb97489d65b14ecc7a,64d521566638542f09679c06,,,,,,,,,,,,,,,,,,,,,,,,,,,,,,,,,,,,,,,,,,,,,,,,,,,,,,,,,,,,,,,,
,,,,,,,,2023-08-10_18h43.04.074,HF_wild_card,2022.2.4,Win32,59.96282305,5d0e9a2edd7f8e001acc6b5a,64ce5acb97489d65b14ecc7a,64d521566638542f09679c06,,,,,,,,,,,,,,,,,,,,,,,,,,,,,,,,,,,,,,,,0,0,0,0,1,,,,,,,,,,,,,,,,,,,,
