Condition,Low fixed image (Door1),Low risky image (Door2),High fixed image (Door3),High risky image (Door4),Extreme Wild Card,NonExtreme Wild Card,,date,expName,psychopyVersion,OS,frameRate,PROLIFIC_PID,STUDY_ID,SESSION_ID,mouse_2.x,mouse_2.y,mouse_2.leftButton,mouse_2.midButton,mouse_2.rightButton,mouse_2.clicked_name,Trial Type,Left Option Image,Right Option Image,Chosen Door,mouse.x,mouse.y,mouse.leftButton,mouse.midButton,mouse.rightButton,mouse.time,mouse.clicked_name,Feedback,Cumulative Reward,Block,trial.thisRepN,trial.thisTrialN,trial.thisN,trial.thisIndex,trial.ran,blocks.thisRepN,blocks.thisTrialN,blocks.thisN,blocks.thisIndex,blocks.ran,Money conversion,First Outcome Reported,Shown Door (First Outcome),Displayed Image (First Outcome),outcomes.thisRepN,outcomes.thisTrialN,outcomes.thisN,outcomes.thisIndex,outcomes.ran,judgments.thisRepN,judgments.thisTrialN,judgments.thisN,judgments.thisIndex,judgments.ran,freqMouse.x,freqMouse.y,freqMouse.leftButton,freqMouse.midButton,freqMouse.rightButton,freqMouse.clicked_name,trials.thisRepN,trials.thisTrialN,trials.thisN,trials.thisIndex,trials.ran,FQJ for first outcome,FQJ for second outcome,Shown Door,Displayed Image,judgBlock.thisRepN,judgBlock.thisTrialN,judgBlock.thisN,judgBlock.thisIndex,judgBlock.ran
0,resources/DBN.BMP,resources/DR.BMP,resources/DG.BMP,resources/DB.BMP,resources/DP.BMP,resources/DY.BMP,,2023-08-16_08h49.45.555,HF_wild_card,2022.2.4,Win32,145.4757056,574c17587fd0ec0006b655cc,64d2fd46c836a06233681665,64dc7e957b02033fd7e2ecf9,,,,,,,,,,,,,,,,,,,,,,,,,,,,,,,,,,,,,,,,,,,,,,,,,,,,,,,,,,,,,,,,
,,,,,,,,2023-08-16_08h49.45.555,HF_wild_card,2022.2.4,Win32,145.4757056,574c17587fd0ec0006b655cc,64d2fd46c836a06233681665,64dc7e957b02033fd7e2ecf9,0.002708559,-0.427952329,1,0,0,agree,,,,,,,,,,,,,,,,,,,,,,,,,,,,,,,,,,,,,,,,,,,,,,,,,,,,,,,,,,
,,,,,,,,2023-08-16_08h49.45.555,HF_wild_card,2022.2.4,Win32,145.4757056,574c17587fd0ec0006b655cc,64d2fd46c836a06233681665,64dc7e957b02033fd7e2ecf9,,,,,,,,,,,,,,,,,,,,,,,,,,,,,,,,,,,,,,,,,,,,,,,,,,,,,,,,,,,,,,,,
,,,,,,,,2023-08-16_08h49.45.555,HF_wild_card,2022.2.4,Win32,145.4757056,574c17587fd0ec0006b655cc,64d2fd46c836a06233681665,64dc7e957b02033fd7e2ecf9,,,,,,,decisionTrl,resources/DR.BMP,resources/DBN.BMP,Door2,-0.547670639,-0.006500542,1,0,0,3.1705,optionLeft,40,40,1,0,0,0,0,1,,,,,,,,,,,,,,,,,,,,,,,,,,,,,,,,,,,,,,,
,,,,,,,,2023-08-16_08h49.45.555,HF_wild_card,2022.2.4,Win32,145.4757056,574c17587fd0ec0006b655cc,64d2fd46c836a06233681665,64dc7e957b02033fd7e2ecf9,,,,,,,decisionTrl,resources/DG.BMP,resources/DB.BMP,Door3,-0.325027086,0.00595883,1,0,0,2.2354,optionLeft,70,110,1,1,0,1,0,1,,,,,,,,,,,,,,,,,,,,,,,,,,,,,,,,,,,,,,,
,,,,,,,,2023-08-16_08h49.45.555,HF_wild_card,2022.2.4,Win32,145.4757056,574c17587fd0ec0006b655cc,64d2fd46c836a06233681665,64dc7e957b02033fd7e2ecf9,,,,,,,sngl,resources/DBN.BMP,resources/Empty.png,Door1,0.341820152,0.032502709,1,0,0,1.5612,optionLeft,30,140,1,2,0,2,0,1,,,,,,,,,,,,,,,,,,,,,,,,,,,,,,,,,,,,,,,
,,,,,,,,2023-08-16_08h49.45.555,HF_wild_card,2022.2.4,Win32,145.4757056,574c17587fd0ec0006b655cc,64d2fd46c836a06233681665,64dc7e957b02033fd7e2ecf9,,,,,,,ctch,resources/DR.BMP,resources/DG.BMP,Door3,0.262188516,-0.00595883,1,0,0,1.2989,optionRight,70,210,1,3,0,3,0,1,,,,,,,,,,,,,,,,,,,,,,,,,,,,,,,,,,,,,,,
,,,,,,,,2023-08-16_08h49.45.555,HF_wild_card,2022.2.4,Win32,145.4757056,574c17587fd0ec0006b655cc,64d2fd46c836a06233681665,64dc7e957b02033fd7e2ecf9,,,,,,,decisionTrl,resources/DP.BMP,resources/DR.BMP,WildCard_Ex,-0.283315276,0.014084507,1,0,0,1.2192,optionLeft,95,305,1,4,0,4,0,1,,,,,,,,,,,,,,,,,,,,,,,,,,,,,,,,,,,,,,,
,,,,,,,,2023-08-16_08h49.45.555,HF_wild_card,2022.2.4,Win32,145.4757056,574c17587fd0ec0006b655cc,64d2fd46c836a06233681665,64dc7e957b02033fd7e2ecf9,,,,,,,sngl,resources/Empty.png,resources/DG.BMP,Door3,-0.359696641,-0.013001083,1,0,0,1.2781,optionRight,70,375,1,5,0,5,0,1,,,,,,,,,,,,,,,,,,,,,,,,,,,,,,,,,,,,,,,
,,,,,,,,2023-08-16_08h49.45.555,HF_wild_card,2022.2.4,Win32,145.4757056,574c17587fd0ec0006b655cc,64d2fd46c836a06233681665,64dc7e957b02033fd7e2ecf9,,,,,,,ctch,resources/DG.BMP,resources/DR.BMP,Door2,0.231310943,-0.002708559,1,0,0,1.3814,optionRight,40,415,1,6,0,6,0,1,,,,,,,,,,,,,,,,,,,,,,,,,,,,,,,,,,,,,,,
,,,,,,,,2023-08-16_08h49.45.555,HF_wild_card,2022.2.4,Win32,145.4757056,574c17587fd0ec0006b655cc,64d2fd46c836a06233681665,64dc7e957b02033fd7e2ecf9,,,,,,,sngl,resources/Empty.png,resources/DB.BMP,Door4,0.468039003,-0.02979415,1,0,0,0.8593,optionRight,60,475,1,7,0,7,0,1,,,,,,,,,,,,,,,,,,,,,,,,,,,,,,,,,,,,,,,
,,,,,,,,2023-08-16_08h49.45.555,HF_wild_card,2022.2.4,Win32,145.4757056,574c17587fd0ec0006b655cc,64d2fd46c836a06233681665,64dc7e957b02033fd7e2ecf9,,,,,,,decisionTrl,resources/DR.BMP,resources/DBN.BMP,Door1,0.412784399,0.004875406,1,0,0,1.1853,optionRight,30,505,1,8,0,8,0,1,,,,,,,,,,,,,,,,,,,,,,,,,,,,,,,,,,,,,,,
,,,,,,,,2023-08-16_08h49.45.555,HF_wild_card,2022.2.4,Win32,145.4757056,574c17587fd0ec0006b655cc,64d2fd46c836a06233681665,64dc7e957b02033fd7e2ecf9,,,,,,,sngl,resources/Empty.png,resources/DP.BMP,WildCard_Ex,0.420368364,-0.05092091,1,0,0,0.6791,optionRight,95,600,1,9,0,9,0,1,,,,,,,,,,,,,,,,,,,,,,,,,,,,,,,,,,,,,,,
,,,,,,,,2023-08-16_08h49.45.555,HF_wild_card,2022.2.4,Win32,145.4757056,574c17587fd0ec0006b655cc,64d2fd46c836a06233681665,64dc7e957b02033fd7e2ecf9,,,,,,,decisionTrl,resources/DB.BMP,resources/DG.BMP,Door3,0.483206934,-0.010292524,1,0,0,1.457,optionRight,70,670,1,10,0,10,0,1,,,,,,,,,,,,,,,,,,,,,,,,,,,,,,,,,,,,,,,
,,,,,,,,2023-08-16_08h49.45.555,HF_wild_card,2022.2.4,Win32,145.4757056,574c17587fd0ec0006b655cc,64d2fd46c836a06233681665,64dc7e957b02033fd7e2ecf9,,,,,,,decisionTrl,resources/DR.BMP,resources/DP.BMP,WildCard_Ex,0.241061755,0.011375948,1,0,0,1.029,optionRight,5,675,1,11,0,11,0,1,,,,,,,,,,,,,,,,,,,,,,,,,,,,,,,,,,,,,,,
,,,,,,,,2023-08-16_08h49.45.555,HF_wild_card,2022.2.4,Win32,145.4757056,574c17587fd0ec0006b655cc,64d2fd46c836a06233681665,64dc7e957b02033fd7e2ecf9,,,,,,,decisionTrl,resources/DBN.BMP,resources/DR.BMP,Door2,0.448537378,0,1,0,0,1.0124,optionRight,40,715,1,12,0,12,0,1,,,,,,,,,,,,,,,,,,,,,,,,,,,,,,,,,,,,,,,
,,,,,,,,2023-08-16_08h49.45.555,HF_wild_card,2022.2.4,Win32,145.4757056,574c17587fd0ec0006b655cc,64d2fd46c836a06233681665,64dc7e957b02033fd7e2ecf9,,,,,,,sngl,resources/DR.BMP,resources/Empty.png,Door2,-0.282773564,0.013001083,1,0,0,0.6224,optionLeft,40,755,1,13,0,13,0,1,,,,,,,,,,,,,,,,,,,,,,,,,,,,,,,,,,,,,,,
,,,,,,,,2023-08-16_08h49.45.555,HF_wild_card,2022.2.4,Win32,145.4757056,574c17587fd0ec0006b655cc,64d2fd46c836a06233681665,64dc7e957b02033fd7e2ecf9,,,,,,,ctch,resources/DBN.BMP,resources/DB.BMP,Door4,0.436078007,-0.015709642,1,0,0,1.1363,optionRight,80,835,1,14,0,14,0,1,,,,,,,,,,,,,,,,,,,,,,,,,,,,,,,,,,,,,,,
,,,,,,,,2023-08-16_08h49.45.555,HF_wild_card,2022.2.4,Win32,145.4757056,574c17587fd0ec0006b655cc,64d2fd46c836a06233681665,64dc7e957b02033fd7e2ecf9,,,,,,,ctch,resources/DB.BMP,resources/DBN.BMP,Door4,-0.299024919,0.009750813,1,0,0,1.4565,optionLeft,60,895,1,15,0,15,0,1,,,,,,,,,,,,,,,,,,,,,,,,,,,,,,,,,,,,,,,
,,,,,,,,2023-08-16_08h49.45.555,HF_wild_card,2022.2.4,Win32,145.4757056,574c17587fd0ec0006b655cc,64d2fd46c836a06233681665,64dc7e957b02033fd7e2ecf9,,,,,,,decisionTrl,resources/DG.BMP,resources/DP.BMP,WildCard_Ex,0.446370531,-0.082340195,1,0,0,0.8735,optionRight,95,990,1,16,0,16,0,1,,,,,,,,,,,,,,,,,,,,,,,,,,,,,,,,,,,,,,,
,,,,,,,,2023-08-16_08h49.45.555,HF_wild_card,2022.2.4,Win32,145.4757056,574c17587fd0ec0006b655cc,64d2fd46c836a06233681665,64dc7e957b02033fd7e2ecf9,,,,,,,sngl,resources/DP.BMP,resources/Empty.png,WildCard_Ex,-0.258396533,-0.062296858,1,0,0,0.5407,optionLeft,5,995,1,17,0,17,0,1,,,,,,,,,,,,,,,,,,,,,,,,,,,,,,,,,,,,,,,
,,,,,,,,2023-08-16_08h49.45.555,HF_wild_card,2022.2.4,Win32,145.4757056,574c17587fd0ec0006b655cc,64d2fd46c836a06233681665,64dc7e957b02033fd7e2ecf9,,,,,,,decisionTrl,resources/DR.BMP,resources/DBN.BMP,Door2,-0.173889491,-0.071505959,1,0,0,2.4027,optionLeft,20,1015,1,18,0,18,0,1,,,,,,,,,,,,,,,,,,,,,,,,,,,,,,,,,,,,,,,
,,,,,,,,2023-08-16_08h49.45.555,HF_wild_card,2022.2.4,Win32,145.4757056,574c17587fd0ec0006b655cc,64d2fd46c836a06233681665,64dc7e957b02033fd7e2ecf9,,,,,,,decisionTrl,resources/DR.BMP,resources/DBN.BMP,Door1,0.310400867,-0.042795233,1,0,0,0.9638,optionRight,30,1045,1,19,0,19,0,1,,,,,,,,,,,,,,,,,,,,,,,,,,,,,,,,,,,,,,,
,,,,,,,,2023-08-16_08h49.45.555,HF_wild_card,2022.2.4,Win32,145.4757056,574c17587fd0ec0006b655cc,64d2fd46c836a06233681665,64dc7e957b02033fd7e2ecf9,,,,,,,ctch,resources/DG.BMP,resources/DR.BMP,Door3,-0.429577465,-0.046587216,1,0,0,3.8976,optionLeft,70,1115,1,20,0,20,0,1,,,,,,,,,,,,,,,,,,,,,,,,,,,,,,,,,,,,,,,
,,,,,,,,2023-08-16_08h49.45.555,HF_wild_card,2022.2.4,Win32,145.4757056,574c17587fd0ec0006b655cc,64d2fd46c836a06233681665,64dc7e957b02033fd7e2ecf9,,,,,,,decisionTrl,resources/DB.BMP,resources/DG.BMP,Door3,0.281690141,-0.057421452,1,0,0,0.8738,optionRight,70,1185,1,21,0,21,0,1,,,,,,,,,,,,,,,,,,,,,,,,,,,,,,,,,,,,,,,
,,,,,,,,2023-08-16_08h49.45.555,HF_wild_card,2022.2.4,Win32,145.4757056,574c17587fd0ec0006b655cc,64d2fd46c836a06233681665,64dc7e957b02033fd7e2ecf9,,,,,,,decisionTrl,resources/DBN.BMP,resources/DR.BMP,Door2,0.453412784,-0.024918743,1,0,0,1.1309,optionRight,20,1205,1,22,0,22,0,1,,,,,,,,,,,,,,,,,,,,,,,,,,,,,,,,,,,,,,,
,,,,,,,,2023-08-16_08h49.45.555,HF_wild_card,2022.2.4,Win32,145.4757056,574c17587fd0ec0006b655cc,64d2fd46c836a06233681665,64dc7e957b02033fd7e2ecf9,,,,,,,decisionTrl,resources/DBN.BMP,resources/DP.BMP,WildCard_Ex,0.520043337,-0.061755146,1,0,0,1.0389,optionRight,95,1300,1,23,0,23,0,1,,,,,,,,,,,,,,,,,,,,,,,,,,,,,,,,,,,,,,,
,,,,,,,,2023-08-16_08h49.45.555,HF_wild_card,2022.2.4,Win32,145.4757056,574c17587fd0ec0006b655cc,64d2fd46c836a06233681665,64dc7e957b02033fd7e2ecf9,,,,,,,decisionTrl,resources/DP.BMP,resources/DG.BMP,WildCard_Ex,-0.406283857,-0.012459372,1,0,0,0.6713,optionLeft,95,1395,1,24,0,24,0,1,,,,,,,,,,,,,,,,,,,,,,,,,,,,,,,,,,,,,,,
,,,,,,,,2023-08-16_08h49.45.555,HF_wild_card,2022.2.4,Win32,145.4757056,574c17587fd0ec0006b655cc,64d2fd46c836a06233681665,64dc7e957b02033fd7e2ecf9,,,,,,,decisionTrl,resources/DB.BMP,resources/DG.BMP,Door3,0.481581798,-0.022210184,1,0,0,1.6173,optionRight,70,1465,1,25,0,25,0,1,,,,,,,,,,,,,,,,,,,,,,,,,,,,,,,,,,,,,,,
,,,,,,,,2023-08-16_08h49.45.555,HF_wild_card,2022.2.4,Win32,145.4757056,574c17587fd0ec0006b655cc,64d2fd46c836a06233681665,64dc7e957b02033fd7e2ecf9,,,,,,,decisionTrl,resources/DB.BMP,resources/DG.BMP,Door3,0.278981582,-0.010834236,1,0,0,0.6095,optionRight,70,1535,1,26,0,26,0,1,,,,,,,,,,,,,,,,,,,,,,,,,,,,,,,,,,,,,,,
,,,,,,,,2023-08-16_08h49.45.555,HF_wild_card,2022.2.4,Win32,145.4757056,574c17587fd0ec0006b655cc,64d2fd46c836a06233681665,64dc7e957b02033fd7e2ecf9,,,,,,,decisionTrl,resources/DBN.BMP,resources/DR.BMP,Door2,0.369989166,-0.024918743,1,0,0,1.9436,optionRight,20,1555,1,27,0,27,0,1,,,,,,,,,,,,,,,,,,,,,,,,,,,,,,,,,,,,,,,
,,,,,,,,2023-08-16_08h49.45.555,HF_wild_card,2022.2.4,Win32,145.4757056,574c17587fd0ec0006b655cc,64d2fd46c836a06233681665,64dc7e957b02033fd7e2ecf9,,,,,,,sngl,resources/Empty.png,resources/DR.BMP,Door2,0.306067172,-0.034669556,1,0,0,0.776,optionRight,20,1575,1,28,0,28,0,1,,,,,,,,,,,,,,,,,,,,,,,,,,,,,,,,,,,,,,,
,,,,,,,,2023-08-16_08h49.45.555,HF_wild_card,2022.2.4,Win32,145.4757056,574c17587fd0ec0006b655cc,64d2fd46c836a06233681665,64dc7e957b02033fd7e2ecf9,,,,,,,decisionTrl,resources/DG.BMP,resources/DB.BMP,Door3,-0.17659805,-0.035211268,1,0,0,1.4662,optionLeft,70,1645,1,29,0,29,0,1,,,,,,,,,,,,,,,,,,,,,,,,,,,,,,,,,,,,,,,
,,,,,,,,2023-08-16_08h49.45.555,HF_wild_card,2022.2.4,Win32,145.4757056,574c17587fd0ec0006b655cc,64d2fd46c836a06233681665,64dc7e957b02033fd7e2ecf9,,,,,,,decisionTrl,resources/DBN.BMP,resources/DR.BMP,Door1,-0.222101842,-0.017334778,1,0,0,0.909,optionLeft,30,1675,1,30,0,30,0,1,,,,,,,,,,,,,,,,,,,,,,,,,,,,,,,,,,,,,,,
,,,,,,,,2023-08-16_08h49.45.555,HF_wild_card,2022.2.4,Win32,145.4757056,574c17587fd0ec0006b655cc,64d2fd46c836a06233681665,64dc7e957b02033fd7e2ecf9,,,,,,,sngl,resources/Empty.png,resources/DP.BMP,WildCard_Ex,0.296858072,-0.056338028,1,0,0,0.7079,optionRight,5,1680,1,31,0,31,0,1,,,,,,,,,,,,,,,,,,,,,,,,,,,,,,,,,,,,,,,
,,,,,,,,2023-08-16_08h49.45.555,HF_wild_card,2022.2.4,Win32,145.4757056,574c17587fd0ec0006b655cc,64d2fd46c836a06233681665,64dc7e957b02033fd7e2ecf9,,,,,,,decisionTrl,resources/DG.BMP,resources/DB.BMP,Door3,-0.237269772,-0.068255688,1,0,0,2.3768,optionLeft,70,1750,1,32,0,32,0,1,,,,,,,,,,,,,,,,,,,,,,,,,,,,,,,,,,,,,,,
,,,,,,,,2023-08-16_08h49.45.555,HF_wild_card,2022.2.4,Win32,145.4757056,574c17587fd0ec0006b655cc,64d2fd46c836a06233681665,64dc7e957b02033fd7e2ecf9,,,,,,,decisionTrl,resources/DB.BMP,resources/DP.BMP,WildCard_Ex,0.294691224,-0.048212351,1,0,0,0.7361,optionRight,5,1755,1,33,0,33,0,1,,,,,,,,,,,,,,,,,,,,,,,,,,,,,,,,,,,,,,,
,,,,,,,,2023-08-16_08h49.45.555,HF_wild_card,2022.2.4,Win32,145.4757056,574c17587fd0ec0006b655cc,64d2fd46c836a06233681665,64dc7e957b02033fd7e2ecf9,,,,,,,sngl,resources/DP.BMP,resources/Empty.png,WildCard_Ex,-0.19176598,-0.052546046,1,0,0,0.5132,optionLeft,95,1850,1,34,0,34,0,1,,,,,,,,,,,,,,,,,,,,,,,,,,,,,,,,,,,,,,,
,,,,,,,,2023-08-16_08h49.45.555,HF_wild_card,2022.2.4,Win32,145.4757056,574c17587fd0ec0006b655cc,64d2fd46c836a06233681665,64dc7e957b02033fd7e2ecf9,,,,,,,sngl,resources/DB.BMP,resources/Empty.png,Door4,-0.206933911,-0.05092091,1,0,0,0.7416,optionLeft,80,1930,1,35,0,35,0,1,,,,,,,,,,,,,,,,,,,,,,,,,,,,,,,,,,,,,,,
,,,,,,,,2023-08-16_08h49.45.555,HF_wild_card,2022.2.4,Win32,145.4757056,574c17587fd0ec0006b655cc,64d2fd46c836a06233681665,64dc7e957b02033fd7e2ecf9,,,,,,,decisionTrl,resources/DP.BMP,resources/DB.BMP,WildCard_Ex,-0.198266522,-0.055254605,1,0,0,0.8259,optionLeft,95,2025,1,36,0,36,0,1,,,,,,,,,,,,,,,,,,,,,,,,,,,,,,,,,,,,,,,
,,,,,,,,2023-08-16_08h49.45.555,HF_wild_card,2022.2.4,Win32,145.4757056,574c17587fd0ec0006b655cc,64d2fd46c836a06233681665,64dc7e957b02033fd7e2ecf9,,,,,,,ctch,resources/DR.BMP,resources/DG.BMP,Door3,0.312567714,-0.063921993,1,0,0,1.2784,optionRight,70,2095,1,37,0,37,0,1,,,,,,,,,,,,,,,,,,,,,,,,,,,,,,,,,,,,,,,
,,,,,,,,2023-08-16_08h49.45.555,HF_wild_card,2022.2.4,Win32,145.4757056,574c17587fd0ec0006b655cc,64d2fd46c836a06233681665,64dc7e957b02033fd7e2ecf9,,,,,,,decisionTrl,resources/DP.BMP,resources/DBN.BMP,WildCard_Ex,-0.265438787,-0.033586132,1,0,0,0.8744,optionLeft,5,2100,1,38,0,38,0,1,,,,,,,,,,,,,,,,,,,,,,,,,,,,,,,,,,,,,,,
,,,,,,,,2023-08-16_08h49.45.555,HF_wild_card,2022.2.4,Win32,145.4757056,574c17587fd0ec0006b655cc,64d2fd46c836a06233681665,64dc7e957b02033fd7e2ecf9,,,,,,,sngl,resources/Empty.png,resources/DBN.BMP,Door1,0.334777898,-0.019501625,1,0,0,0.7222,optionRight,30,2130,1,39,0,39,0,1,,,,,,,,,,,,,,,,,,,,,,,,,,,,,,,,,,,,,,,
,,,,,,,,2023-08-16_08h49.45.555,HF_wild_card,2022.2.4,Win32,145.4757056,574c17587fd0ec0006b655cc,64d2fd46c836a06233681665,64dc7e957b02033fd7e2ecf9,,,,,,,sngl,resources/DG.BMP,resources/Empty.png,Door3,-0.257854821,-0.049837486,1,0,0,0.6094,optionLeft,70,2200,1,40,0,40,0,1,,,,,,,,,,,,,,,,,,,,,,,,,,,,,,,,,,,,,,,
,,,,,,,,2023-08-16_08h49.45.555,HF_wild_card,2022.2.4,Win32,145.4757056,574c17587fd0ec0006b655cc,64d2fd46c836a06233681665,64dc7e957b02033fd7e2ecf9,,,,,,,ctch,resources/DB.BMP,resources/DBN.BMP,Door4,-0.22751896,-0.035211268,1,0,0,1.5564,optionLeft,80,2280,1,41,0,41,0,1,,,,,,,,,,,,,,,,,,,,,,,,,,,,,,,,,,,,,,,
,,,,,,,,2023-08-16_08h49.45.555,HF_wild_card,2022.2.4,Win32,145.4757056,574c17587fd0ec0006b655cc,64d2fd46c836a06233681665,64dc7e957b02033fd7e2ecf9,,,,,,,ctch,resources/DBN.BMP,resources/DB.BMP,Door4,0.312026002,-0.034669556,1,0,0,0.9157,optionRight,80,2360,1,42,0,42,0,1,,,,,,,,,,,,,,,,,,,,,,,,,,,,,,,,,,,,,,,
,,,,,,,,2023-08-16_08h49.45.555,HF_wild_card,2022.2.4,Win32,145.4757056,574c17587fd0ec0006b655cc,64d2fd46c836a06233681665,64dc7e957b02033fd7e2ecf9,,,,,,,decisionTrl,resources/DG.BMP,resources/DB.BMP,Door3,-0.287648971,-0.064463705,1,0,0,1.2298,optionLeft,70,2430,1,43,0,43,0,1,,,,,,,,,,,,,,,,,,,,,,,,,,,,,,,,,,,,,,,
,,,,,,,,2023-08-16_08h49.45.555,HF_wild_card,2022.2.4,Win32,145.4757056,574c17587fd0ec0006b655cc,64d2fd46c836a06233681665,64dc7e957b02033fd7e2ecf9,,,,,,,,,,,,,,,,,,,,,,,,,,0,0,0,0,1,,,,,,,,,,,,,,,,,,,,,,,,,,,,,,,,,,
,,,,,,,,2023-08-16_08h49.45.555,HF_wild_card,2022.2.4,Win32,145.4757056,574c17587fd0ec0006b655cc,64d2fd46c836a06233681665,64dc7e957b02033fd7e2ecf9,,,,,,,decisionTrl,resources/DB.BMP,resources/DP.BMP,WildCard_Ex,0.276273023,0.08071506,1,0,0,0.9177,optionRight,5,2435,2,0,0,0,0,1,,,,,,,,,,,,,,,,,,,,,,,,,,,,,,,,,,,,,,,
,,,,,,,,2023-08-16_08h49.45.555,HF_wild_card,2022.2.4,Win32,145.4757056,574c17587fd0ec0006b655cc,64d2fd46c836a06233681665,64dc7e957b02033fd7e2ecf9,,,,,,,sngl,resources/Empty.png,resources/DR.BMP,Door2,0.431744312,-0.085048754,1,0,0,0.7068,optionRight,40,2475,2,1,0,1,0,1,,,,,,,,,,,,,,,,,,,,,,,,,,,,,,,,,,,,,,,
,,,,,,,,2023-08-16_08h49.45.555,HF_wild_card,2022.2.4,Win32,145.4757056,574c17587fd0ec0006b655cc,64d2fd46c836a06233681665,64dc7e957b02033fd7e2ecf9,,,,,,,decisionTrl,resources/DR.BMP,resources/DBN.BMP,Door1,0.22156013,0.026543879,1,0,0,1.5263,optionRight,30,2505,2,2,0,2,0,1,,,,,,,,,,,,,,,,,,,,,,,,,,,,,,,,,,,,,,,
,,,,,,,,2023-08-16_08h49.45.555,HF_wild_card,2022.2.4,Win32,145.4757056,574c17587fd0ec0006b655cc,64d2fd46c836a06233681665,64dc7e957b02033fd7e2ecf9,,,,,,,decisionTrl,resources/DG.BMP,resources/DB.BMP,Door3,-0.307150596,-0.053087757,1,0,0,0.8246,optionLeft,70,2575,2,3,0,3,0,1,,,,,,,,,,,,,,,,,,,,,,,,,,,,,,,,,,,,,,,
,,,,,,,,2023-08-16_08h49.45.555,HF_wild_card,2022.2.4,Win32,145.4757056,574c17587fd0ec0006b655cc,64d2fd46c836a06233681665,64dc7e957b02033fd7e2ecf9,,,,,,,decisionTrl,resources/DBN.BMP,resources/DP.BMP,WildCard_Ex,0.265438787,0.011375948,1,0,0,0.9218,optionRight,95,2670,2,4,0,4,0,1,,,,,,,,,,,,,,,,,,,,,,,,,,,,,,,,,,,,,,,
,,,,,,,,2023-08-16_08h49.45.555,HF_wild_card,2022.2.4,Win32,145.4757056,574c17587fd0ec0006b655cc,64d2fd46c836a06233681665,64dc7e957b02033fd7e2ecf9,,,,,,,sngl,resources/Empty.png,resources/DP.BMP,WildCard_Ex,0.241061755,-0.009209101,1,0,0,0.6714,optionRight,5,2675,2,5,0,5,0,1,,,,,,,,,,,,,,,,,,,,,,,,,,,,,,,,,,,,,,,
,,,,,,,,2023-08-16_08h49.45.555,HF_wild_card,2022.2.4,Win32,145.4757056,574c17587fd0ec0006b655cc,64d2fd46c836a06233681665,64dc7e957b02033fd7e2ecf9,,,,,,,decisionTrl,resources/DR.BMP,resources/DBN.BMP,Door1,0.157638137,0.013542795,1,0,0,1.4712,optionRight,30,2705,2,6,0,6,0,1,,,,,,,,,,,,,,,,,,,,,,,,,,,,,,,,,,,,,,,
,,,,,,,,2023-08-16_08h49.45.555,HF_wild_card,2022.2.4,Win32,145.4757056,574c17587fd0ec0006b655cc,64d2fd46c836a06233681665,64dc7e957b02033fd7e2ecf9,,,,,,,sngl,resources/DP.BMP,resources/Empty.png,WildCard_Ex,-0.1468039,-0.028710726,1,0,0,0.7277,optionLeft,5,2710,2,7,0,7,0,1,,,,,,,,,,,,,,,,,,,,,,,,,,,,,,,,,,,,,,,
,,,,,,,,2023-08-16_08h49.45.555,HF_wild_card,2022.2.4,Win32,145.4757056,574c17587fd0ec0006b655cc,64d2fd46c836a06233681665,64dc7e957b02033fd7e2ecf9,,,,,,,decisionTrl,resources/DB.BMP,resources/DG.BMP,Door4,-0.171180932,-0.011375948,1,0,0,0.985,optionLeft,80,2790,2,8,0,8,0,1,,,,,,,,,,,,,,,,,,,,,,,,,,,,,,,,,,,,,,,
,,,,,,,,2023-08-16_08h49.45.555,HF_wild_card,2022.2.4,Win32,145.4757056,574c17587fd0ec0006b655cc,64d2fd46c836a06233681665,64dc7e957b02033fd7e2ecf9,,,,,,,decisionTrl,resources/DP.BMP,resources/DBN.BMP,WildCard_Ex,-0.218309859,-0.037378115,1,0,0,0.9702,optionLeft,5,2795,2,9,0,9,0,1,,,,,,,,,,,,,,,,,,,,,,,,,,,,,,,,,,,,,,,
,,,,,,,,2023-08-16_08h49.45.555,HF_wild_card,2022.2.4,Win32,145.4757056,574c17587fd0ec0006b655cc,64d2fd46c836a06233681665,64dc7e957b02033fd7e2ecf9,,,,,,,decisionTrl,resources/DB.BMP,resources/DG.BMP,Door3,0.374864572,-0.030877573,1,0,0,4.9059,optionRight,70,2865,2,10,0,10,0,1,,,,,,,,,,,,,,,,,,,,,,,,,,,,,,,,,,,,,,,
,,,,,,,,2023-08-16_08h49.45.555,HF_wild_card,2022.2.4,Win32,145.4757056,574c17587fd0ec0006b655cc,64d2fd46c836a06233681665,64dc7e957b02033fd7e2ecf9,,,,,,,decisionTrl,resources/DR.BMP,resources/DBN.BMP,Door1,0.405742145,-0.013001083,1,0,0,1.6045,optionRight,30,2895,2,11,0,11,0,1,,,,,,,,,,,,,,,,,,,,,,,,,,,,,,,,,,,,,,,
,,,,,,,,2023-08-16_08h49.45.555,HF_wild_card,2022.2.4,Win32,145.4757056,574c17587fd0ec0006b655cc,64d2fd46c836a06233681665,64dc7e957b02033fd7e2ecf9,,,,,,,sngl,resources/DBN.BMP,resources/Empty.png,Door1,-0.199349946,-0.013542795,1,0,0,0.7838,optionLeft,30,2925,2,12,0,12,0,1,,,,,,,,,,,,,,,,,,,,,,,,,,,,,,,,,,,,,,,
,,,,,,,,2023-08-16_08h49.45.555,HF_wild_card,2022.2.4,Win32,145.4757056,574c17587fd0ec0006b655cc,64d2fd46c836a06233681665,64dc7e957b02033fd7e2ecf9,,,,,,,sngl,resources/Empty.png,resources/DP.BMP,WildCard_Ex,0.249187432,-0.024377031,1,0,0,0.6642,optionRight,95,3020,2,13,0,13,0,1,,,,,,,,,,,,,,,,,,,,,,,,,,,,,,,,,,,,,,,
,,,,,,,,2023-08-16_08h49.45.555,HF_wild_card,2022.2.4,Win32,145.4757056,574c17587fd0ec0006b655cc,64d2fd46c836a06233681665,64dc7e957b02033fd7e2ecf9,,,,,,,ctch,resources/DR.BMP,resources/DG.BMP,Door3,0.270314193,-0.039544962,1,0,0,1.6445,optionRight,70,3090,2,14,0,14,0,1,,,,,,,,,,,,,,,,,,,,,,,,,,,,,,,,,,,,,,,
,,,,,,,,2023-08-16_08h49.45.555,HF_wild_card,2022.2.4,Win32,145.4757056,574c17587fd0ec0006b655cc,64d2fd46c836a06233681665,64dc7e957b02033fd7e2ecf9,,,,,,,sngl,resources/DR.BMP,resources/Empty.png,Door2,-0.261646804,-0.063380282,1,0,0,0.562,optionLeft,20,3110,2,15,0,15,0,1,,,,,,,,,,,,,,,,,,,,,,,,,,,,,,,,,,,,,,,
,,,,,,,,2023-08-16_08h49.45.555,HF_wild_card,2022.2.4,Win32,145.4757056,574c17587fd0ec0006b655cc,64d2fd46c836a06233681665,64dc7e957b02033fd7e2ecf9,,,,,,,decisionTrl,resources/DP.BMP,resources/DR.BMP,WildCard_Ex,-0.257313109,-0.026002167,1,0,0,0.7694,optionLeft,5,3115,2,16,0,16,0,1,,,,,,,,,,,,,,,,,,,,,,,,,,,,,,,,,,,,,,,
,,,,,,,,2023-08-16_08h49.45.555,HF_wild_card,2022.2.4,Win32,145.4757056,574c17587fd0ec0006b655cc,64d2fd46c836a06233681665,64dc7e957b02033fd7e2ecf9,,,,,,,sngl,resources/Empty.png,resources/DB.BMP,Door4,0.207475623,-0.013001083,1,0,0,1.8965,optionRight,80,3195,2,17,0,17,0,1,,,,,,,,,,,,,,,,,,,,,,,,,,,,,,,,,,,,,,,
,,,,,,,,2023-08-16_08h49.45.555,HF_wild_card,2022.2.4,Win32,145.4757056,574c17587fd0ec0006b655cc,64d2fd46c836a06233681665,64dc7e957b02033fd7e2ecf9,,,,,,,decisionTrl,resources/DG.BMP,resources/DB.BMP,Door3,-0.129469122,-0.057963164,1,0,0,1.9091,optionLeft,70,3265,2,18,0,18,0,1,,,,,,,,,,,,,,,,,,,,,,,,,,,,,,,,,,,,,,,
,,,,,,,,2023-08-16_08h49.45.555,HF_wild_card,2022.2.4,Win32,145.4757056,574c17587fd0ec0006b655cc,64d2fd46c836a06233681665,64dc7e957b02033fd7e2ecf9,,,,,,,sngl,resources/Empty.png,resources/DG.BMP,Door3,0.178764897,-0.036836403,1,0,0,0.6523,optionRight,70,3335,2,19,0,19,0,1,,,,,,,,,,,,,,,,,,,,,,,,,,,,,,,,,,,,,,,
,,,,,,,,2023-08-16_08h49.45.555,HF_wild_card,2022.2.4,Win32,145.4757056,574c17587fd0ec0006b655cc,64d2fd46c836a06233681665,64dc7e957b02033fd7e2ecf9,,,,,,,decisionTrl,resources/DB.BMP,resources/DG.BMP,Door4,-0.294691224,-0.036294691,1,0,0,2.571,optionLeft,60,3395,2,20,0,20,0,1,,,,,,,,,,,,,,,,,,,,,,,,,,,,,,,,,,,,,,,
,,,,,,,,2023-08-16_08h49.45.555,HF_wild_card,2022.2.4,Win32,145.4757056,574c17587fd0ec0006b655cc,64d2fd46c836a06233681665,64dc7e957b02033fd7e2ecf9,,,,,,,decisionTrl,resources/DR.BMP,resources/DP.BMP,Door2,-0.221018418,-0.022210184,1,0,0,1.1793,optionLeft,40,3435,2,21,0,21,0,1,,,,,,,,,,,,,,,,,,,,,,,,,,,,,,,,,,,,,,,
,,,,,,,,2023-08-16_08h49.45.555,HF_wild_card,2022.2.4,Win32,145.4757056,574c17587fd0ec0006b655cc,64d2fd46c836a06233681665,64dc7e957b02033fd7e2ecf9,,,,,,,decisionTrl,resources/DR.BMP,resources/DBN.BMP,Door2,-0.211809317,-0.056338028,1,0,0,1.2146,optionLeft,40,3475,2,22,0,22,0,1,,,,,,,,,,,,,,,,,,,,,,,,,,,,,,,,,,,,,,,
,,,,,,,,2023-08-16_08h49.45.555,HF_wild_card,2022.2.4,Win32,145.4757056,574c17587fd0ec0006b655cc,64d2fd46c836a06233681665,64dc7e957b02033fd7e2ecf9,,,,,,,ctch,resources/DR.BMP,resources/DG.BMP,Door3,0.238353196,-0.059588299,1,0,0,1.0264,optionRight,70,3545,2,23,0,23,0,1,,,,,,,,,,,,,,,,,,,,,,,,,,,,,,,,,,,,,,,
,,,,,,,,2023-08-16_08h49.45.555,HF_wild_card,2022.2.4,Win32,145.4757056,574c17587fd0ec0006b655cc,64d2fd46c836a06233681665,64dc7e957b02033fd7e2ecf9,,,,,,,decisionTrl,resources/DBN.BMP,resources/DR.BMP,Door2,0.258938245,-0.028710726,1,0,0,1.2298,optionRight,20,3565,2,24,0,24,0,1,,,,,,,,,,,,,,,,,,,,,,,,,,,,,,,,,,,,,,,
,,,,,,,,2023-08-16_08h49.45.555,HF_wild_card,2022.2.4,Win32,145.4757056,574c17587fd0ec0006b655cc,64d2fd46c836a06233681665,64dc7e957b02033fd7e2ecf9,,,,,,,ctch,resources/DG.BMP,resources/DR.BMP,Door3,-0.304442037,-0.040628386,1,0,0,1.9438,optionLeft,70,3635,2,25,0,25,0,1,,,,,,,,,,,,,,,,,,,,,,,,,,,,,,,,,,,,,,,
,,,,,,,,2023-08-16_08h49.45.555,HF_wild_card,2022.2.4,Win32,145.4757056,574c17587fd0ec0006b655cc,64d2fd46c836a06233681665,64dc7e957b02033fd7e2ecf9,,,,,,,decisionTrl,resources/DG.BMP,resources/DB.BMP,Door3,-0.228602384,-0.036836403,1,0,0,0.6656,optionLeft,70,3705,2,26,0,26,0,1,,,,,,,,,,,,,,,,,,,,,,,,,,,,,,,,,,,,,,,
,,,,,,,,2023-08-16_08h49.45.555,HF_wild_card,2022.2.4,Win32,145.4757056,574c17587fd0ec0006b655cc,64d2fd46c836a06233681665,64dc7e957b02033fd7e2ecf9,,,,,,,ctch,resources/DBN.BMP,resources/DB.BMP,Door1,-0.333694475,-0.008125677,1,0,0,1.2849,optionLeft,30,3735,2,27,0,27,0,1,,,,,,,,,,,,,,,,,,,,,,,,,,,,,,,,,,,,,,,
,,,,,,,,2023-08-16_08h49.45.555,HF_wild_card,2022.2.4,Win32,145.4757056,574c17587fd0ec0006b655cc,64d2fd46c836a06233681665,64dc7e957b02033fd7e2ecf9,,,,,,,decisionTrl,resources/DBN.BMP,resources/DR.BMP,Door2,0.294149512,-0.018418202,1,0,0,1.0343,optionRight,20,3755,2,28,0,28,0,1,,,,,,,,,,,,,,,,,,,,,,,,,,,,,,,,,,,,,,,
,,,,,,,,2023-08-16_08h49.45.555,HF_wild_card,2022.2.4,Win32,145.4757056,574c17587fd0ec0006b655cc,64d2fd46c836a06233681665,64dc7e957b02033fd7e2ecf9,,,,,,,decisionTrl,resources/DP.BMP,resources/DG.BMP,WildCard_Ex,-0.183098592,-0.027627302,1,0,0,0.7613,optionLeft,95,3850,2,29,0,29,0,1,,,,,,,,,,,,,,,,,,,,,,,,,,,,,,,,,,,,,,,
,,,,,,,,2023-08-16_08h49.45.555,HF_wild_card,2022.2.4,Win32,145.4757056,574c17587fd0ec0006b655cc,64d2fd46c836a06233681665,64dc7e957b02033fd7e2ecf9,,,,,,,decisionTrl,resources/DP.BMP,resources/DB.BMP,WildCard_Ex,-0.290899242,-0.026002167,1,0,0,0.6663,optionLeft,95,3945,2,30,0,30,0,1,,,,,,,,,,,,,,,,,,,,,,,,,,,,,,,,,,,,,,,
,,,,,,,,2023-08-16_08h49.45.555,HF_wild_card,2022.2.4,Win32,145.4757056,574c17587fd0ec0006b655cc,64d2fd46c836a06233681665,64dc7e957b02033fd7e2ecf9,,,,,,,ctch,resources/DBN.BMP,resources/DB.BMP,Door4,0.391115926,-0.046587216,1,0,0,0.9025,optionRight,80,4025,2,31,0,31,0,1,,,,,,,,,,,,,,,,,,,,,,,,,,,,,,,,,,,,,,,
,,,,,,,,2023-08-16_08h49.45.555,HF_wild_card,2022.2.4,Win32,145.4757056,574c17587fd0ec0006b655cc,64d2fd46c836a06233681665,64dc7e957b02033fd7e2ecf9,,,,,,,sngl,resources/DP.BMP,resources/Empty.png,WildCard_Ex,-0.170097508,-0.03304442,1,0,0,0.7556,optionLeft,95,4120,2,32,0,32,0,1,,,,,,,,,,,,,,,,,,,,,,,,,,,,,,,,,,,,,,,
,,,,,,,,2023-08-16_08h49.45.555,HF_wild_card,2022.2.4,Win32,145.4757056,574c17587fd0ec0006b655cc,64d2fd46c836a06233681665,64dc7e957b02033fd7e2ecf9,,,,,,,decisionTrl,resources/DBN.BMP,resources/DR.BMP,Door1,-0.093716143,-0.006500542,1,0,0,1.3338,optionLeft,30,4150,2,33,0,33,0,1,,,,,,,,,,,,,,,,,,,,,,,,,,,,,,,,,,,,,,,
,,,,,,,,2023-08-16_08h49.45.555,HF_wild_card,2022.2.4,Win32,145.4757056,574c17587fd0ec0006b655cc,64d2fd46c836a06233681665,64dc7e957b02033fd7e2ecf9,,,,,,,decisionTrl,resources/DB.BMP,resources/DG.BMP,Door3,0.263813651,-0.022751896,1,0,0,1.152,optionRight,70,4220,2,34,0,34,0,1,,,,,,,,,,,,,,,,,,,,,,,,,,,,,,,,,,,,,,,
,,,,,,,,2023-08-16_08h49.45.555,HF_wild_card,2022.2.4,Win32,145.4757056,574c17587fd0ec0006b655cc,64d2fd46c836a06233681665,64dc7e957b02033fd7e2ecf9,,,,,,,ctch,resources/DG.BMP,resources/DR.BMP,Door3,-0.288732394,-0.066088841,1,0,0,0.9426,optionLeft,70,4290,2,35,0,35,0,1,,,,,,,,,,,,,,,,,,,,,,,,,,,,,,,,,,,,,,,
,,,,,,,,2023-08-16_08h49.45.555,HF_wild_card,2022.2.4,Win32,145.4757056,574c17587fd0ec0006b655cc,64d2fd46c836a06233681665,64dc7e957b02033fd7e2ecf9,,,,,,,decisionTrl,resources/DG.BMP,resources/DB.BMP,Door3,-0.238353196,-0.010834236,1,0,0,0.7197,optionLeft,70,4360,2,36,0,36,0,1,,,,,,,,,,,,,,,,,,,,,,,,,,,,,,,,,,,,,,,
,,,,,,,,2023-08-16_08h49.45.555,HF_wild_card,2022.2.4,Win32,145.4757056,574c17587fd0ec0006b655cc,64d2fd46c836a06233681665,64dc7e957b02033fd7e2ecf9,,,,,,,sngl,resources/Empty.png,resources/DBN.BMP,Door1,0.26652221,-0.009209101,1,0,0,0.7851,optionRight,30,4390,2,37,0,37,0,1,,,,,,,,,,,,,,,,,,,,,,,,,,,,,,,,,,,,,,,
,,,,,,,,2023-08-16_08h49.45.555,HF_wild_card,2022.2.4,Win32,145.4757056,574c17587fd0ec0006b655cc,64d2fd46c836a06233681665,64dc7e957b02033fd7e2ecf9,,,,,,,decisionTrl,resources/DG.BMP,resources/DP.BMP,WildCard_Ex,0.19772481,0.005417118,1,0,0,1.1302,optionRight,5,4395,2,38,0,38,0,1,,,,,,,,,,,,,,,,,,,,,,,,,,,,,,,,,,,,,,,
,,,,,,,,2023-08-16_08h49.45.555,HF_wild_card,2022.2.4,Win32,145.4757056,574c17587fd0ec0006b655cc,64d2fd46c836a06233681665,64dc7e957b02033fd7e2ecf9,,,,,,,decisionTrl,resources/DBN.BMP,resources/DR.BMP,Door1,-0.32340195,-0.042253521,1,0,0,4.0865,optionLeft,30,4425,2,39,0,39,0,1,,,,,,,,,,,,,,,,,,,,,,,,,,,,,,,,,,,,,,,
,,,,,,,,2023-08-16_08h49.45.555,HF_wild_card,2022.2.4,Win32,145.4757056,574c17587fd0ec0006b655cc,64d2fd46c836a06233681665,64dc7e957b02033fd7e2ecf9,,,,,,,sngl,resources/DB.BMP,resources/Empty.png,Door4,-0.212892741,-0.035211268,1,0,0,0.6368,optionLeft,60,4485,2,40,0,40,0,1,,,,,,,,,,,,,,,,,,,,,,,,,,,,,,,,,,,,,,,
,,,,,,,,2023-08-16_08h49.45.555,HF_wild_card,2022.2.4,Win32,145.4757056,574c17587fd0ec0006b655cc,64d2fd46c836a06233681665,64dc7e957b02033fd7e2ecf9,,,,,,,ctch,resources/DB.BMP,resources/DBN.BMP,Door1,0.270855905,-0.013001083,1,0,0,1.4381,optionRight,30,4515,2,41,0,41,0,1,,,,,,,,,,,,,,,,,,,,,,,,,,,,,,,,,,,,,,,
,,,,,,,,2023-08-16_08h49.45.555,HF_wild_card,2022.2.4,Win32,145.4757056,574c17587fd0ec0006b655cc,64d2fd46c836a06233681665,64dc7e957b02033fd7e2ecf9,,,,,,,ctch,resources/DB.BMP,resources/DBN.BMP,Door4,-0.199349946,-0.019501625,1,0,0,1.5077,optionLeft,60,4575,2,42,0,42,0,1,,,,,,,,,,,,,,,,,,,,,,,,,,,,,,,,,,,,,,,
,,,,,,,,2023-08-16_08h49.45.555,HF_wild_card,2022.2.4,Win32,145.4757056,574c17587fd0ec0006b655cc,64d2fd46c836a06233681665,64dc7e957b02033fd7e2ecf9,,,,,,,sngl,resources/DG.BMP,resources/Empty.png,Door3,-0.213434453,-0.043878657,1,0,0,0.6868,optionLeft,70,4645,2,43,0,43,0,1,,,,,,,,,,,,,,,,,,,,,,,,,,,,,,,,,,,,,,,
,,,,,,,,2023-08-16_08h49.45.555,HF_wild_card,2022.2.4,Win32,145.4757056,574c17587fd0ec0006b655cc,64d2fd46c836a06233681665,64dc7e957b02033fd7e2ecf9,,,,,,,,,,,,,,,,,,,,,,,,,,1,0,1,0,1,,,,,,,,,,,,,,,,,,,,,,,,,,,,,,,,,,
,,,,,,,,2023-08-16_08h49.45.555,HF_wild_card,2022.2.4,Win32,145.4757056,574c17587fd0ec0006b655cc,64d2fd46c836a06233681665,64dc7e957b02033fd7e2ecf9,,,,,,,sngl,resources/DG.BMP,resources/Empty.png,Door3,-0.172264355,-0.052004334,1,0,0,0.7486,optionLeft,70,4715,3,0,0,0,0,1,,,,,,,,,,,,,,,,,,,,,,,,,,,,,,,,,,,,,,,
,,,,,,,,2023-08-16_08h49.45.555,HF_wild_card,2022.2.4,Win32,145.4757056,574c17587fd0ec0006b655cc,64d2fd46c836a06233681665,64dc7e957b02033fd7e2ecf9,,,,,,,ctch,resources/DG.BMP,resources/DR.BMP,Door3,-0.175514626,-0.025460455,1,0,0,0.9304,optionLeft,70,4785,3,1,0,1,0,1,,,,,,,,,,,,,,,,,,,,,,,,,,,,,,,,,,,,,,,
,,,,,,,,2023-08-16_08h49.45.555,HF_wild_card,2022.2.4,Win32,145.4757056,574c17587fd0ec0006b655cc,64d2fd46c836a06233681665,64dc7e957b02033fd7e2ecf9,,,,,,,decisionTrl,resources/DB.BMP,resources/DG.BMP,Door3,0.330444204,-0.057421452,1,0,0,0.763,optionRight,70,4855,3,2,0,2,0,1,,,,,,,,,,,,,,,,,,,,,,,,,,,,,,,,,,,,,,,
,,,,,,,,2023-08-16_08h49.45.555,HF_wild_card,2022.2.4,Win32,145.4757056,574c17587fd0ec0006b655cc,64d2fd46c836a06233681665,64dc7e957b02033fd7e2ecf9,,,,,,,sngl,resources/Empty.png,resources/DP.BMP,WildCard_Ex,0.264355363,-0.021126761,1,0,0,0.7704,optionRight,5,4860,3,3,0,3,0,1,,,,,,,,,,,,,,,,,,,,,,,,,,,,,,,,,,,,,,,
,,,,,,,,2023-08-16_08h49.45.555,HF_wild_card,2022.2.4,Win32,145.4757056,574c17587fd0ec0006b655cc,64d2fd46c836a06233681665,64dc7e957b02033fd7e2ecf9,,,,,,,sngl,resources/Empty.png,resources/DB.BMP,Door4,0.353737811,-0.02979415,1,0,0,0.5474,optionRight,60,4920,3,4,0,4,0,1,,,,,,,,,,,,,,,,,,,,,,,,,,,,,,,,,,,,,,,
,,,,,,,,2023-08-16_08h49.45.555,HF_wild_card,2022.2.4,Win32,145.4757056,574c17587fd0ec0006b655cc,64d2fd46c836a06233681665,64dc7e957b02033fd7e2ecf9,,,,,,,sngl,resources/DR.BMP,resources/Empty.png,Door2,-0.230769231,-0.055796316,1,0,0,0.548,optionLeft,40,4960,3,5,0,5,0,1,,,,,,,,,,,,,,,,,,,,,,,,,,,,,,,,,,,,,,,
,,,,,,,,2023-08-16_08h49.45.555,HF_wild_card,2022.2.4,Win32,145.4757056,574c17587fd0ec0006b655cc,64d2fd46c836a06233681665,64dc7e957b02033fd7e2ecf9,,,,,,,decisionTrl,resources/DP.BMP,resources/DB.BMP,WildCard_Ex,-0.193932828,-0.019501625,1,0,0,0.8599,optionLeft,95,5055,3,6,0,6,0,1,,,,,,,,,,,,,,,,,,,,,,,,,,,,,,,,,,,,,,,
,,,,,,,,2023-08-16_08h49.45.555,HF_wild_card,2022.2.4,Win32,145.4757056,574c17587fd0ec0006b655cc,64d2fd46c836a06233681665,64dc7e957b02033fd7e2ecf9,,,,,,,decisionTrl,resources/DP.BMP,resources/DBN.BMP,WildCard_Ex,-0.184182015,-0.042795233,1,0,0,0.7082,optionLeft,95,5150,3,7,0,7,0,1,,,,,,,,,,,,,,,,,,,,,,,,,,,,,,,,,,,,,,,
,,,,,,,,2023-08-16_08h49.45.555,HF_wild_card,2022.2.4,Win32,145.4757056,574c17587fd0ec0006b655cc,64d2fd46c836a06233681665,64dc7e957b02033fd7e2ecf9,,,,,,,ctch,resources/DG.BMP,resources/DR.BMP,Door3,-0.406825569,-0.031419285,1,0,0,1.0904,optionLeft,70,5220,3,8,0,8,0,1,,,,,,,,,,,,,,,,,,,,,,,,,,,,,,,,,,,,,,,
,,,,,,,,2023-08-16_08h49.45.555,HF_wild_card,2022.2.4,Win32,145.4757056,574c17587fd0ec0006b655cc,64d2fd46c836a06233681665,64dc7e957b02033fd7e2ecf9,,,,,,,decisionTrl,resources/DBN.BMP,resources/DP.BMP,WildCard_Ex,0.285482124,0.015167931,1,0,0,1.8121,optionRight,5,5225,3,9,0,9,0,1,,,,,,,,,,,,,,,,,,,,,,,,,,,,,,,,,,,,,,,
,,,,,,,,2023-08-16_08h49.45.555,HF_wild_card,2022.2.4,Win32,145.4757056,574c17587fd0ec0006b655cc,64d2fd46c836a06233681665,64dc7e957b02033fd7e2ecf9,,,,,,,sngl,resources/DP.BMP,resources/Empty.png,WildCard_Ex,-0.165763814,-0.02383532,1,0,0,0.5757,optionLeft,5,5230,3,10,0,10,0,1,,,,,,,,,,,,,,,,,,,,,,,,,,,,,,,,,,,,,,,
,,,,,,,,2023-08-16_08h49.45.555,HF_wild_card,2022.2.4,Win32,145.4757056,574c17587fd0ec0006b655cc,64d2fd46c836a06233681665,64dc7e957b02033fd7e2ecf9,,,,,,,decisionTrl,resources/DB.BMP,resources/DP.BMP,WildCard_Ex,0.425785482,-0.016793066,1,0,0,0.833,optionRight,95,5325,3,11,0,11,0,1,,,,,,,,,,,,,,,,,,,,,,,,,,,,,,,,,,,,,,,
,,,,,,,,2023-08-16_08h49.45.555,HF_wild_card,2022.2.4,Win32,145.4757056,574c17587fd0ec0006b655cc,64d2fd46c836a06233681665,64dc7e957b02033fd7e2ecf9,,,,,,,ctch,resources/DR.BMP,resources/DG.BMP,Door3,0.224268689,0.000541712,1,0,0,1.3453,optionRight,70,5395,3,12,0,12,0,1,,,,,,,,,,,,,,,,,,,,,,,,,,,,,,,,,,,,,,,
,,,,,,,,2023-08-16_08h49.45.555,HF_wild_card,2022.2.4,Win32,145.4757056,574c17587fd0ec0006b655cc,64d2fd46c836a06233681665,64dc7e957b02033fd7e2ecf9,,,,,,,sngl,resources/Empty.png,resources/DG.BMP,Door3,0.361321777,-0.043336945,1,0,0,0.6168,optionRight,70,5465,3,13,0,13,0,1,,,,,,,,,,,,,,,,,,,,,,,,,,,,,,,,,,,,,,,
,,,,,,,,2023-08-16_08h49.45.555,HF_wild_card,2022.2.4,Win32,145.4757056,574c17587fd0ec0006b655cc,64d2fd46c836a06233681665,64dc7e957b02033fd7e2ecf9,,,,,,,ctch,resources/DR.BMP,resources/DG.BMP,Door3,0.159263272,-0.002166847,1,0,0,0.9437,optionRight,70,5535,3,14,0,14,0,1,,,,,,,,,,,,,,,,,,,,,,,,,,,,,,,,,,,,,,,
,,,,,,,,2023-08-16_08h49.45.555,HF_wild_card,2022.2.4,Win32,145.4757056,574c17587fd0ec0006b655cc,64d2fd46c836a06233681665,64dc7e957b02033fd7e2ecf9,,,,,,,sngl,resources/DBN.BMP,resources/Empty.png,Door1,-0.151137595,-0.020585049,1,0,0,0.7789,optionLeft,30,5565,3,15,0,15,0,1,,,,,,,,,,,,,,,,,,,,,,,,,,,,,,,,,,,,,,,
,,,,,,,,2023-08-16_08h49.45.555,HF_wild_card,2022.2.4,Win32,145.4757056,574c17587fd0ec0006b655cc,64d2fd46c836a06233681665,64dc7e957b02033fd7e2ecf9,,,,,,,decisionTrl,resources/DBN.BMP,resources/DR.BMP,Door1,-0.19772481,-0.013001083,1,0,0,3.9801,optionLeft,30,5595,3,16,0,16,0,1,,,,,,,,,,,,,,,,,,,,,,,,,,,,,,,,,,,,,,,
,,,,,,,,2023-08-16_08h49.45.555,HF_wild_card,2022.2.4,Win32,145.4757056,574c17587fd0ec0006b655cc,64d2fd46c836a06233681665,64dc7e957b02033fd7e2ecf9,,,,,,,sngl,resources/DP.BMP,resources/Empty.png,WildCard_Ex,-0.157638137,-0.007583965,1,0,0,0.7494,optionLeft,95,5690,3,17,0,17,0,1,,,,,,,,,,,,,,,,,,,,,,,,,,,,,,,,,,,,,,,
,,,,,,,,2023-08-16_08h49.45.555,HF_wild_card,2022.2.4,Win32,145.4757056,574c17587fd0ec0006b655cc,64d2fd46c836a06233681665,64dc7e957b02033fd7e2ecf9,,,,,,,ctch,resources/DB.BMP,resources/DBN.BMP,Door4,-0.256229686,-0.007042254,1,0,0,1.1316,optionLeft,80,5770,3,18,0,18,0,1,,,,,,,,,,,,,,,,,,,,,,,,,,,,,,,,,,,,,,,
,,,,,,,,2023-08-16_08h49.45.555,HF_wild_card,2022.2.4,Win32,145.4757056,574c17587fd0ec0006b655cc,64d2fd46c836a06233681665,64dc7e957b02033fd7e2ecf9,,,,,,,decisionTrl,resources/DR.BMP,resources/DBN.BMP,Door2,-0.179306609,-0.010292524,1,0,0,1.027,optionLeft,20,5790,3,19,0,19,0,1,,,,,,,,,,,,,,,,,,,,,,,,,,,,,,,,,,,,,,,
,,,,,,,,2023-08-16_08h49.45.555,HF_wild_card,2022.2.4,Win32,145.4757056,574c17587fd0ec0006b655cc,64d2fd46c836a06233681665,64dc7e957b02033fd7e2ecf9,,,,,,,decisionTrl,resources/DR.BMP,resources/DP.BMP,WildCard_Ex,0.361321777,-0.019501625,1,0,0,1.027,optionRight,5,5795,3,20,0,20,0,1,,,,,,,,,,,,,,,,,,,,,,,,,,,,,,,,,,,,,,,
,,,,,,,,2023-08-16_08h49.45.555,HF_wild_card,2022.2.4,Win32,145.4757056,574c17587fd0ec0006b655cc,64d2fd46c836a06233681665,64dc7e957b02033fd7e2ecf9,,,,,,,decisionTrl,resources/DR.BMP,resources/DBN.BMP,Door2,-0.236728061,-0.019501625,1,0,0,1.3179,optionLeft,20,5815,3,21,0,21,0,1,,,,,,,,,,,,,,,,,,,,,,,,,,,,,,,,,,,,,,,
,,,,,,,,2023-08-16_08h49.45.555,HF_wild_card,2022.2.4,Win32,145.4757056,574c17587fd0ec0006b655cc,64d2fd46c836a06233681665,64dc7e957b02033fd7e2ecf9,,,,,,,decisionTrl,resources/DR.BMP,resources/DBN.BMP,Door2,-0.191224269,-0.030877573,1,0,0,0.6655,optionLeft,20,5835,3,22,0,22,0,1,,,,,,,,,,,,,,,,,,,,,,,,,,,,,,,,,,,,,,,
,,,,,,,,2023-08-16_08h49.45.555,HF_wild_card,2022.2.4,Win32,145.4757056,574c17587fd0ec0006b655cc,64d2fd46c836a06233681665,64dc7e957b02033fd7e2ecf9,,,,,,,decisionTrl,resources/DB.BMP,resources/DG.BMP,Door3,0.429577465,-0.018418202,1,0,0,1.2984,optionRight,70,5905,3,23,0,23,0,1,,,,,,,,,,,,,,,,,,,,,,,,,,,,,,,,,,,,,,,
,,,,,,,,2023-08-16_08h49.45.555,HF_wild_card,2022.2.4,Win32,145.4757056,574c17587fd0ec0006b655cc,64d2fd46c836a06233681665,64dc7e957b02033fd7e2ecf9,,,,,,,decisionTrl,resources/DG.BMP,resources/DB.BMP,Door3,-0.172806067,-0.021126761,1,0,0,0.7213,optionLeft,70,5975,3,24,0,24,0,1,,,,,,,,,,,,,,,,,,,,,,,,,,,,,,,,,,,,,,,
,,,,,,,,2023-08-16_08h49.45.555,HF_wild_card,2022.2.4,Win32,145.4757056,574c17587fd0ec0006b655cc,64d2fd46c836a06233681665,64dc7e957b02033fd7e2ecf9,,,,,,,ctch,resources/DBN.BMP,resources/DB.BMP,Door1,-0.234561213,-0.020043337,1,0,0,1.0545,optionLeft,30,6005,3,25,0,25,0,1,,,,,,,,,,,,,,,,,,,,,,,,,,,,,,,,,,,,,,,
,,,,,,,,2023-08-16_08h49.45.555,HF_wild_card,2022.2.4,Win32,145.4757056,574c17587fd0ec0006b655cc,64d2fd46c836a06233681665,64dc7e957b02033fd7e2ecf9,,,,,,,decisionTrl,resources/DB.BMP,resources/DG.BMP,Door4,-0.265438787,-0.05092091,1,0,0,1.0697,optionLeft,60,6065,3,26,0,26,0,1,,,,,,,,,,,,,,,,,,,,,,,,,,,,,,,,,,,,,,,
,,,,,,,,2023-08-16_08h49.45.555,HF_wild_card,2022.2.4,Win32,145.4757056,574c17587fd0ec0006b655cc,64d2fd46c836a06233681665,64dc7e957b02033fd7e2ecf9,,,,,,,decisionTrl,resources/DP.BMP,resources/DG.BMP,WildCard_Ex,-0.189057421,-0.017334778,1,0,0,1.0133,optionLeft,95,6160,3,27,0,27,0,1,,,,,,,,,,,,,,,,,,,,,,,,,,,,,,,,,,,,,,,
,,,,,,,,2023-08-16_08h49.45.555,HF_wild_card,2022.2.4,Win32,145.4757056,574c17587fd0ec0006b655cc,64d2fd46c836a06233681665,64dc7e957b02033fd7e2ecf9,,,,,,,decisionTrl,resources/DG.BMP,resources/DB.BMP,Door3,-0.295232936,-0.05687974,1,0,0,1.8544,optionLeft,70,6230,3,28,0,28,0,1,,,,,,,,,,,,,,,,,,,,,,,,,,,,,,,,,,,,,,,
,,,,,,,,2023-08-16_08h49.45.555,HF_wild_card,2022.2.4,Win32,145.4757056,574c17587fd0ec0006b655cc,64d2fd46c836a06233681665,64dc7e957b02033fd7e2ecf9,,,,,,,sngl,resources/Empty.png,resources/DBN.BMP,Door1,0.30227519,-0.072589382,1,0,0,0.6865,optionRight,30,6260,3,29,0,29,0,1,,,,,,,,,,,,,,,,,,,,,,,,,,,,,,,,,,,,,,,
,,,,,,,,2023-08-16_08h49.45.555,HF_wild_card,2022.2.4,Win32,145.4757056,574c17587fd0ec0006b655cc,64d2fd46c836a06233681665,64dc7e957b02033fd7e2ecf9,,,,,,,decisionTrl,resources/DBN.BMP,resources/DR.BMP,Door2,0.256771398,-0.006500542,1,0,0,0.9789,optionRight,20,6280,3,30,0,30,0,1,,,,,,,,,,,,,,,,,,,,,,,,,,,,,,,,,,,,,,,
,,,,,,,,2023-08-16_08h49.45.555,HF_wild_card,2022.2.4,Win32,145.4757056,574c17587fd0ec0006b655cc,64d2fd46c836a06233681665,64dc7e957b02033fd7e2ecf9,,,,,,,decisionTrl,resources/DBN.BMP,resources/DR.BMP,Door1,-0.237269772,-0.054171181,1,0,0,0.6314,optionLeft,30,6310,3,31,0,31,0,1,,,,,,,,,,,,,,,,,,,,,,,,,,,,,,,,,,,,,,,
,,,,,,,,2023-08-16_08h49.45.555,HF_wild_card,2022.2.4,Win32,145.4757056,574c17587fd0ec0006b655cc,64d2fd46c836a06233681665,64dc7e957b02033fd7e2ecf9,,,,,,,decisionTrl,resources/DBN.BMP,resources/DR.BMP,Door1,-0.257313109,-0.034127844,1,0,0,0.5891,optionLeft,30,6340,3,32,0,32,0,1,,,,,,,,,,,,,,,,,,,,,,,,,,,,,,,,,,,,,,,
,,,,,,,,2023-08-16_08h49.45.555,HF_wild_card,2022.2.4,Win32,145.4757056,574c17587fd0ec0006b655cc,64d2fd46c836a06233681665,64dc7e957b02033fd7e2ecf9,,,,,,,ctch,resources/DBN.BMP,resources/DB.BMP,Door4,0.219393283,-0.030877573,1,0,0,1.0274,optionRight,80,6420,3,33,0,33,0,1,,,,,,,,,,,,,,,,,,,,,,,,,,,,,,,,,,,,,,,
,,,,,,,,2023-08-16_08h49.45.555,HF_wild_card,2022.2.4,Win32,145.4757056,574c17587fd0ec0006b655cc,64d2fd46c836a06233681665,64dc7e957b02033fd7e2ecf9,,,,,,,decisionTrl,resources/DG.BMP,resources/DB.BMP,Door3,-0.225352113,-0.05687974,1,0,0,1.1106,optionLeft,70,6490,3,34,0,34,0,1,,,,,,,,,,,,,,,,,,,,,,,,,,,,,,,,,,,,,,,
,,,,,,,,2023-08-16_08h49.45.555,HF_wild_card,2022.2.4,Win32,145.4757056,574c17587fd0ec0006b655cc,64d2fd46c836a06233681665,64dc7e957b02033fd7e2ecf9,,,,,,,decisionTrl,resources/DG.BMP,resources/DP.BMP,Door3,-0.330444204,-0.033586132,1,0,0,1.7503,optionLeft,70,6560,3,35,0,35,0,1,,,,,,,,,,,,,,,,,,,,,,,,,,,,,,,,,,,,,,,
,,,,,,,,2023-08-16_08h49.45.555,HF_wild_card,2022.2.4,Win32,145.4757056,574c17587fd0ec0006b655cc,64d2fd46c836a06233681665,64dc7e957b02033fd7e2ecf9,,,,,,,sngl,resources/DB.BMP,resources/Empty.png,Door4,-0.283315276,-0.020585049,1,0,0,0.6386,optionLeft,80,6640,3,36,0,36,0,1,,,,,,,,,,,,,,,,,,,,,,,,,,,,,,,,,,,,,,,
,,,,,,,,2023-08-16_08h49.45.555,HF_wild_card,2022.2.4,Win32,145.4757056,574c17587fd0ec0006b655cc,64d2fd46c836a06233681665,64dc7e957b02033fd7e2ecf9,,,,,,,decisionTrl,resources/DB.BMP,resources/DG.BMP,Door3,0.40411701,-0.046045504,1,0,0,3.0499,optionRight,70,6710,3,37,0,37,0,1,,,,,,,,,,,,,,,,,,,,,,,,,,,,,,,,,,,,,,,
,,,,,,,,2023-08-16_08h49.45.555,HF_wild_card,2022.2.4,Win32,145.4757056,574c17587fd0ec0006b655cc,64d2fd46c836a06233681665,64dc7e957b02033fd7e2ecf9,,,,,,,sngl,resources/Empty.png,resources/DP.BMP,WildCard_Ex,0.235102925,-0.047670639,1,0,0,0.7131,optionRight,95,6805,3,38,0,38,0,1,,,,,,,,,,,,,,,,,,,,,,,,,,,,,,,,,,,,,,,
,,,,,,,,2023-08-16_08h49.45.555,HF_wild_card,2022.2.4,Win32,145.4757056,574c17587fd0ec0006b655cc,64d2fd46c836a06233681665,64dc7e957b02033fd7e2ecf9,,,,,,,ctch,resources/DB.BMP,resources/DBN.BMP,Door4,-0.258396533,0.001083424,1,0,0,1.9311,optionLeft,60,6865,3,39,0,39,0,1,,,,,,,,,,,,,,,,,,,,,,,,,,,,,,,,,,,,,,,
,,,,,,,,2023-08-16_08h49.45.555,HF_wild_card,2022.2.4,Win32,145.4757056,574c17587fd0ec0006b655cc,64d2fd46c836a06233681665,64dc7e957b02033fd7e2ecf9,,,,,,,sngl,resources/Empty.png,resources/DR.BMP,Door2,0.24539545,-0.014084507,1,0,0,0.6369,optionRight,20,6885,3,40,0,40,0,1,,,,,,,,,,,,,,,,,,,,,,,,,,,,,,,,,,,,,,,
,,,,,,,,2023-08-16_08h49.45.555,HF_wild_card,2022.2.4,Win32,145.4757056,574c17587fd0ec0006b655cc,64d2fd46c836a06233681665,64dc7e957b02033fd7e2ecf9,,,,,,,decisionTrl,resources/DR.BMP,resources/DBN.BMP,Door2,-0.200433369,-0.007583965,1,0,0,1.0347,optionLeft,40,6925,3,41,0,41,0,1,,,,,,,,,,,,,,,,,,,,,,,,,,,,,,,,,,,,,,,
,,,,,,,,2023-08-16_08h49.45.555,HF_wild_card,2022.2.4,Win32,145.4757056,574c17587fd0ec0006b655cc,64d2fd46c836a06233681665,64dc7e957b02033fd7e2ecf9,,,,,,,decisionTrl,resources/DG.BMP,resources/DB.BMP,Door4,0.211809317,-0.036836403,1,0,0,1.3192,optionRight,60,6985,3,42,0,42,0,1,,,,,,,,,,,,,,,,,,,,,,,,,,,,,,,,,,,,,,,
,,,,,,,,2023-08-16_08h49.45.555,HF_wild_card,2022.2.4,Win32,145.4757056,574c17587fd0ec0006b655cc,64d2fd46c836a06233681665,64dc7e957b02033fd7e2ecf9,,,,,,,decisionTrl,resources/DP.BMP,resources/DR.BMP,WildCard_Ex,-0.154929577,-0.0687974,1,0,0,1.4579,optionLeft,95,7080,3,43,0,43,0,1,,,,,,,,,,,,,,,,,,,,,,,,,,,,,,,,,,,,,,,
,,,,,,,,2023-08-16_08h49.45.555,HF_wild_card,2022.2.4,Win32,145.4757056,574c17587fd0ec0006b655cc,64d2fd46c836a06233681665,64dc7e957b02033fd7e2ecf9,,,,,,,,,,,,,,,,,,,,,,,,,,2,0,2,0,1,,,,,,,,,,,,,,,,,,,,,,,,,,,,,,,,,,
,,,,,,,,2023-08-16_08h49.45.555,HF_wild_card,2022.2.4,Win32,145.4757056,574c17587fd0ec0006b655cc,64d2fd46c836a06233681665,64dc7e957b02033fd7e2ecf9,,,,,,,sngl,resources/DY.BMP,resources/Empty.png,WildCard_NonEx,-0.335861322,-0.105092091,1,0,0,16.0628,optionLeft,55,7135,4,0,0,0,0,1,,,,,,,,,,,,,,,,,,,,,,,,,,,,,,,,,,,,,,,
,,,,,,,,2023-08-16_08h49.45.555,HF_wild_card,2022.2.4,Win32,145.4757056,574c17587fd0ec0006b655cc,64d2fd46c836a06233681665,64dc7e957b02033fd7e2ecf9,,,,,,,ctch,resources/DG.BMP,resources/DR.BMP,Door3,-0.265980498,0.087215601,1,0,0,34.6864,optionLeft,70,7205,4,1,0,1,0,1,,,,,,,,,,,,,,,,,,,,,,,,,,,,,,,,,,,,,,,
,,,,,,,,2023-08-16_08h49.45.555,HF_wild_card,2022.2.4,Win32,145.4757056,574c17587fd0ec0006b655cc,64d2fd46c836a06233681665,64dc7e957b02033fd7e2ecf9,,,,,,,decisionTrl,resources/DY.BMP,resources/DB.BMP,Door4,0.271397616,0.020585049,1,0,0,1.0989,optionRight,80,7285,4,2,0,2,0,1,,,,,,,,,,,,,,,,,,,,,,,,,,,,,,,,,,,,,,,
,,,,,,,,2023-08-16_08h49.45.555,HF_wild_card,2022.2.4,Win32,145.4757056,574c17587fd0ec0006b655cc,64d2fd46c836a06233681665,64dc7e957b02033fd7e2ecf9,,,,,,,sngl,resources/Empty.png,resources/DY.BMP,WildCard_NonEx,0.204767064,-0.043336945,1,0,0,0.5114,optionRight,55,7340,4,3,0,3,0,1,,,,,,,,,,,,,,,,,,,,,,,,,,,,,,,,,,,,,,,
,,,,,,,,2023-08-16_08h49.45.555,HF_wild_card,2022.2.4,Win32,145.4757056,574c17587fd0ec0006b655cc,64d2fd46c836a06233681665,64dc7e957b02033fd7e2ecf9,,,,,,,sngl,resources/DR.BMP,resources/Empty.png,Door2,-0.244853738,0.000541712,1,0,0,0.5247,optionLeft,20,7360,4,4,0,4,0,1,,,,,,,,,,,,,,,,,,,,,,,,,,,,,,,,,,,,,,,
,,,,,,,,2023-08-16_08h49.45.555,HF_wild_card,2022.2.4,Win32,145.4757056,574c17587fd0ec0006b655cc,64d2fd46c836a06233681665,64dc7e957b02033fd7e2ecf9,,,,,,,sngl,resources/DY.BMP,resources/Empty.png,WildCard_NonEx,-0.278981582,-0.029252438,1,0,0,0.5136,optionLeft,45,7405,4,5,0,5,0,1,,,,,,,,,,,,,,,,,,,,,,,,,,,,,,,,,,,,,,,
,,,,,,,,2023-08-16_08h49.45.555,HF_wild_card,2022.2.4,Win32,145.4757056,574c17587fd0ec0006b655cc,64d2fd46c836a06233681665,64dc7e957b02033fd7e2ecf9,,,,,,,decisionTrl,resources/DB.BMP,resources/DY.BMP,Door4,-0.273564464,0.007583965,1,0,0,1.0191,optionLeft,80,7485,4,6,0,6,0,1,,,,,,,,,,,,,,,,,,,,,,,,,,,,,,,,,,,,,,,
,,,,,,,,2023-08-16_08h49.45.555,HF_wild_card,2022.2.4,Win32,145.4757056,574c17587fd0ec0006b655cc,64d2fd46c836a06233681665,64dc7e957b02033fd7e2ecf9,,,,,,,ctch,resources/DB.BMP,resources/DBN.BMP,Door4,-0.340736728,0.018959913,1,0,0,0.9918,optionLeft,60,7545,4,7,0,7,0,1,,,,,,,,,,,,,,,,,,,,,,,,,,,,,,,,,,,,,,,
,,,,,,,,2023-08-16_08h49.45.555,HF_wild_card,2022.2.4,Win32,145.4757056,574c17587fd0ec0006b655cc,64d2fd46c836a06233681665,64dc7e957b02033fd7e2ecf9,,,,,,,sngl,resources/Empty.png,resources/DB.BMP,Door4,0.23943662,-0.126760563,1,0,0,0.4978,optionRight,80,7625,4,8,0,8,0,1,,,,,,,,,,,,,,,,,,,,,,,,,,,,,,,,,,,,,,,
,,,,,,,,2023-08-16_08h49.45.555,HF_wild_card,2022.2.4,Win32,145.4757056,574c17587fd0ec0006b655cc,64d2fd46c836a06233681665,64dc7e957b02033fd7e2ecf9,,,,,,,sngl,resources/Empty.png,resources/DY.BMP,WildCard_NonEx,0.163596966,-0.024918743,1,0,0,0.5052,optionRight,45,7670,4,9,0,9,0,1,,,,,,,,,,,,,,,,,,,,,,,,,,,,,,,,,,,,,,,
,,,,,,,,2023-08-16_08h49.45.555,HF_wild_card,2022.2.4,Win32,145.4757056,574c17587fd0ec0006b655cc,64d2fd46c836a06233681665,64dc7e957b02033fd7e2ecf9,,,,,,,decisionTrl,resources/DBN.BMP,resources/DR.BMP,Door1,-0.002708559,-0.013542795,1,0,0,0.1087,optionLeft,30,7700,4,10,0,10,0,1,,,,,,,,,,,,,,,,,,,,,,,,,,,,,,,,,,,,,,,
,,,,,,,,2023-08-16_08h49.45.555,HF_wild_card,2022.2.4,Win32,145.4757056,574c17587fd0ec0006b655cc,64d2fd46c836a06233681665,64dc7e957b02033fd7e2ecf9,,,,,,,decisionTrl,resources/DR.BMP,resources/DBN.BMP,Door1,0.19447454,0.004333694,1,0,0,2.0833,optionRight,30,7730,4,11,0,11,0,1,,,,,,,,,,,,,,,,,,,,,,,,,,,,,,,,,,,,,,,
,,,,,,,,2023-08-16_08h49.45.555,HF_wild_card,2022.2.4,Win32,145.4757056,574c17587fd0ec0006b655cc,64d2fd46c836a06233681665,64dc7e957b02033fd7e2ecf9,,,,,,,decisionTrl,resources/DY.BMP,resources/DG.BMP,Door3,0.173889491,0.007583965,1,0,0,0.9288,optionRight,70,7800,4,12,0,12,0,1,,,,,,,,,,,,,,,,,,,,,,,,,,,,,,,,,,,,,,,
,,,,,,,,2023-08-16_08h49.45.555,HF_wild_card,2022.2.4,Win32,145.4757056,574c17587fd0ec0006b655cc,64d2fd46c836a06233681665,64dc7e957b02033fd7e2ecf9,,,,,,,decisionTrl,resources/DBN.BMP,resources/DY.BMP,Door1,-0.123510293,-0.018418202,1,0,0,1.1162,optionLeft,30,7830,4,13,0,13,0,1,,,,,,,,,,,,,,,,,,,,,,,,,,,,,,,,,,,,,,,
,,,,,,,,2023-08-16_08h49.45.555,HF_wild_card,2022.2.4,Win32,145.4757056,574c17587fd0ec0006b655cc,64d2fd46c836a06233681665,64dc7e957b02033fd7e2ecf9,,,,,,,sngl,resources/DBN.BMP,resources/Empty.png,Door1,-0.237269772,-0.015167931,1,0,0,0.5886,optionLeft,30,7860,4,14,0,14,0,1,,,,,,,,,,,,,,,,,,,,,,,,,,,,,,,,,,,,,,,
,,,,,,,,2023-08-16_08h49.45.555,HF_wild_card,2022.2.4,Win32,145.4757056,574c17587fd0ec0006b655cc,64d2fd46c836a06233681665,64dc7e957b02033fd7e2ecf9,,,,,,,sngl,resources/Empty.png,resources/DBN.BMP,Door1,0.498916576,-0.02708559,1,0,0,0.4772,optionRight,30,7890,4,15,0,15,0,1,,,,,,,,,,,,,,,,,,,,,,,,,,,,,,,,,,,,,,,
,,,,,,,,2023-08-16_08h49.45.555,HF_wild_card,2022.2.4,Win32,145.4757056,574c17587fd0ec0006b655cc,64d2fd46c836a06233681665,64dc7e957b02033fd7e2ecf9,,,,,,,decisionTrl,resources/DB.BMP,resources/DG.BMP,Door3,0.191224269,0.018418202,1,0,0,0.9211,optionRight,70,7960,4,16,0,16,0,1,,,,,,,,,,,,,,,,,,,,,,,,,,,,,,,,,,,,,,,
,,,,,,,,2023-08-16_08h49.45.555,HF_wild_card,2022.2.4,Win32,145.4757056,574c17587fd0ec0006b655cc,64d2fd46c836a06233681665,64dc7e957b02033fd7e2ecf9,,,,,,,decisionTrl,resources/DR.BMP,resources/DBN.BMP,Door2,-0.156013001,-0.022210184,1,0,0,1.6999,optionLeft,40,8000,4,17,0,17,0,1,,,,,,,,,,,,,,,,,,,,,,,,,,,,,,,,,,,,,,,
,,,,,,,,2023-08-16_08h49.45.555,HF_wild_card,2022.2.4,Win32,145.4757056,574c17587fd0ec0006b655cc,64d2fd46c836a06233681665,64dc7e957b02033fd7e2ecf9,,,,,,,ctch,resources/DBN.BMP,resources/DB.BMP,Door4,0.301191766,-0.003250271,1,0,0,0.8877,optionRight,80,8080,4,18,0,18,0,1,,,,,,,,,,,,,,,,,,,,,,,,,,,,,,,,,,,,,,,
,,,,,,,,2023-08-16_08h49.45.555,HF_wild_card,2022.2.4,Win32,145.4757056,574c17587fd0ec0006b655cc,64d2fd46c836a06233681665,64dc7e957b02033fd7e2ecf9,,,,,,,ctch,resources/DG.BMP,resources/DR.BMP,Door3,-0.191224269,-0.010292524,1,0,0,1.0342,optionLeft,70,8150,4,19,0,19,0,1,,,,,,,,,,,,,,,,,,,,,,,,,,,,,,,,,,,,,,,
,,,,,,,,2023-08-16_08h49.45.555,HF_wild_card,2022.2.4,Win32,145.4757056,574c17587fd0ec0006b655cc,64d2fd46c836a06233681665,64dc7e957b02033fd7e2ecf9,,,,,,,sngl,resources/Empty.png,resources/DG.BMP,Door3,0.331527627,-0.041170098,1,0,0,0.4288,optionRight,70,8220,4,20,0,20,0,1,,,,,,,,,,,,,,,,,,,,,,,,,,,,,,,,,,,,,,,
,,,,,,,,2023-08-16_08h49.45.555,HF_wild_card,2022.2.4,Win32,145.4757056,574c17587fd0ec0006b655cc,64d2fd46c836a06233681665,64dc7e957b02033fd7e2ecf9,,,,,,,sngl,resources/DG.BMP,resources/Empty.png,Door3,-0.378114843,-0.028169014,1,0,0,0.4017,optionLeft,70,8290,4,21,0,21,0,1,,,,,,,,,,,,,,,,,,,,,,,,,,,,,,,,,,,,,,,
,,,,,,,,2023-08-16_08h49.45.555,HF_wild_card,2022.2.4,Win32,145.4757056,574c17587fd0ec0006b655cc,64d2fd46c836a06233681665,64dc7e957b02033fd7e2ecf9,,,,,,,decisionTrl,resources/DG.BMP,resources/DB.BMP,Door3,-0.218851571,-0.038461538,1,0,0,0.4697,optionLeft,70,8360,4,22,0,22,0,1,,,,,,,,,,,,,,,,,,,,,,,,,,,,,,,,,,,,,,,
,,,,,,,,2023-08-16_08h49.45.555,HF_wild_card,2022.2.4,Win32,145.4757056,574c17587fd0ec0006b655cc,64d2fd46c836a06233681665,64dc7e957b02033fd7e2ecf9,,,,,,,sngl,resources/DB.BMP,resources/Empty.png,Door4,-0.206933911,-0.028169014,1,0,0,0.4306,optionLeft,60,8420,4,23,0,23,0,1,,,,,,,,,,,,,,,,,,,,,,,,,,,,,,,,,,,,,,,
,,,,,,,,2023-08-16_08h49.45.555,HF_wild_card,2022.2.4,Win32,145.4757056,574c17587fd0ec0006b655cc,64d2fd46c836a06233681665,64dc7e957b02033fd7e2ecf9,,,,,,,ctch,resources/DR.BMP,resources/DG.BMP,Door3,0.185807151,-0.015709642,1,0,0,0.9501,optionRight,70,8490,4,24,0,24,0,1,,,,,,,,,,,,,,,,,,,,,,,,,,,,,,,,,,,,,,,
,,,,,,,,2023-08-16_08h49.45.555,HF_wild_card,2022.2.4,Win32,145.4757056,574c17587fd0ec0006b655cc,64d2fd46c836a06233681665,64dc7e957b02033fd7e2ecf9,,,,,,,decisionTrl,resources/DR.BMP,resources/DBN.BMP,Door1,0.199349946,-0.008125677,1,0,0,1.1314,optionRight,30,8520,4,25,0,25,0,1,,,,,,,,,,,,,,,,,,,,,,,,,,,,,,,,,,,,,,,
,,,,,,,,2023-08-16_08h49.45.555,HF_wild_card,2022.2.4,Win32,145.4757056,574c17587fd0ec0006b655cc,64d2fd46c836a06233681665,64dc7e957b02033fd7e2ecf9,,,,,,,decisionTrl,resources/DB.BMP,resources/DG.BMP,Door4,-0.2843987,-0.014084507,1,0,0,1.6802,optionLeft,80,8600,4,26,0,26,0,1,,,,,,,,,,,,,,,,,,,,,,,,,,,,,,,,,,,,,,,
,,,,,,,,2023-08-16_08h49.45.555,HF_wild_card,2022.2.4,Win32,145.4757056,574c17587fd0ec0006b655cc,64d2fd46c836a06233681665,64dc7e957b02033fd7e2ecf9,,,,,,,sngl,resources/Empty.png,resources/DR.BMP,Door2,0.206392199,-0.042795233,1,0,0,0.5128,optionRight,40,8640,4,27,0,27,0,1,,,,,,,,,,,,,,,,,,,,,,,,,,,,,,,,,,,,,,,
,,,,,,,,2023-08-16_08h49.45.555,HF_wild_card,2022.2.4,Win32,145.4757056,574c17587fd0ec0006b655cc,64d2fd46c836a06233681665,64dc7e957b02033fd7e2ecf9,,,,,,,decisionTrl,resources/DBN.BMP,resources/DR.BMP,Door1,-0.15872156,-0.002708559,1,0,0,1.1803,optionLeft,30,8670,4,28,0,28,0,1,,,,,,,,,,,,,,,,,,,,,,,,,,,,,,,,,,,,,,,
,,,,,,,,2023-08-16_08h49.45.555,HF_wild_card,2022.2.4,Win32,145.4757056,574c17587fd0ec0006b655cc,64d2fd46c836a06233681665,64dc7e957b02033fd7e2ecf9,,,,,,,ctch,resources/DBN.BMP,resources/DB.BMP,Door4,0.154929577,-0.008125677,1,0,0,0.7912,optionRight,80,8750,4,29,0,29,0,1,,,,,,,,,,,,,,,,,,,,,,,,,,,,,,,,,,,,,,,
,,,,,,,,2023-08-16_08h49.45.555,HF_wild_card,2022.2.4,Win32,145.4757056,574c17587fd0ec0006b655cc,64d2fd46c836a06233681665,64dc7e957b02033fd7e2ecf9,,,,,,,decisionTrl,resources/DB.BMP,resources/DG.BMP,Door4,-0.163055255,-0.028710726,1,0,0,1.0634,optionLeft,60,8810,4,30,0,30,0,1,,,,,,,,,,,,,,,,,,,,,,,,,,,,,,,,,,,,,,,
,,,,,,,,2023-08-16_08h49.45.555,HF_wild_card,2022.2.4,Win32,145.4757056,574c17587fd0ec0006b655cc,64d2fd46c836a06233681665,64dc7e957b02033fd7e2ecf9,,,,,,,decisionTrl,resources/DBN.BMP,resources/DR.BMP,Door1,-0.193932828,-0.02383532,1,0,0,1.2136,optionLeft,30,8840,4,31,0,31,0,1,,,,,,,,,,,,,,,,,,,,,,,,,,,,,,,,,,,,,,,
,,,,,,,,2023-08-16_08h49.45.555,HF_wild_card,2022.2.4,Win32,145.4757056,574c17587fd0ec0006b655cc,64d2fd46c836a06233681665,64dc7e957b02033fd7e2ecf9,,,,,,,decisionTrl,resources/DG.BMP,resources/DY.BMP,Door3,-0.253521127,-0.018959913,1,0,0,1.229,optionLeft,70,8910,4,32,0,32,0,1,,,,,,,,,,,,,,,,,,,,,,,,,,,,,,,,,,,,,,,
,,,,,,,,2023-08-16_08h49.45.555,HF_wild_card,2022.2.4,Win32,145.4757056,574c17587fd0ec0006b655cc,64d2fd46c836a06233681665,64dc7e957b02033fd7e2ecf9,,,,,,,decisionTrl,resources/DG.BMP,resources/DB.BMP,Door3,-0.202600217,-0.028710726,1,0,0,0.5411,optionLeft,70,8980,4,33,0,33,0,1,,,,,,,,,,,,,,,,,,,,,,,,,,,,,,,,,,,,,,,
,,,,,,,,2023-08-16_08h49.45.555,HF_wild_card,2022.2.4,Win32,145.4757056,574c17587fd0ec0006b655cc,64d2fd46c836a06233681665,64dc7e957b02033fd7e2ecf9,,,,,,,decisionTrl,resources/DB.BMP,resources/DG.BMP,Door4,-0.167930661,-0.03304442,1,0,0,0.9725,optionLeft,80,9060,4,34,0,34,0,1,,,,,,,,,,,,,,,,,,,,,,,,,,,,,,,,,,,,,,,
,,,,,,,,2023-08-16_08h49.45.555,HF_wild_card,2022.2.4,Win32,145.4757056,574c17587fd0ec0006b655cc,64d2fd46c836a06233681665,64dc7e957b02033fd7e2ecf9,,,,,,,decisionTrl,resources/DY.BMP,resources/DR.BMP,Door2,0.22156013,0.021126761,1,0,0,1.2989,optionRight,20,9080,4,35,0,35,0,1,,,,,,,,,,,,,,,,,,,,,,,,,,,,,,,,,,,,,,,
,,,,,,,,2023-08-16_08h49.45.555,HF_wild_card,2022.2.4,Win32,145.4757056,574c17587fd0ec0006b655cc,64d2fd46c836a06233681665,64dc7e957b02033fd7e2ecf9,,,,,,,decisionTrl,resources/DG.BMP,resources/DB.BMP,Door4,0.138678223,-0.019501625,1,0,0,1.4921,optionRight,80,9160,4,36,0,36,0,1,,,,,,,,,,,,,,,,,,,,,,,,,,,,,,,,,,,,,,,
,,,,,,,,2023-08-16_08h49.45.555,HF_wild_card,2022.2.4,Win32,145.4757056,574c17587fd0ec0006b655cc,64d2fd46c836a06233681665,64dc7e957b02033fd7e2ecf9,,,,,,,decisionTrl,resources/DR.BMP,resources/DBN.BMP,Door2,-0.265438787,0.004333694,1,0,0,1.4088,optionLeft,40,9200,4,37,0,37,0,1,,,,,,,,,,,,,,,,,,,,,,,,,,,,,,,,,,,,,,,
,,,,,,,,2023-08-16_08h49.45.555,HF_wild_card,2022.2.4,Win32,145.4757056,574c17587fd0ec0006b655cc,64d2fd46c836a06233681665,64dc7e957b02033fd7e2ecf9,,,,,,,ctch,resources/DB.BMP,resources/DBN.BMP,Door4,-0.287107259,-0.01787649,1,0,0,1.007,optionLeft,80,9280,4,38,0,38,0,1,,,,,,,,,,,,,,,,,,,,,,,,,,,,,,,,,,,,,,,
,,,,,,,,2023-08-16_08h49.45.555,HF_wild_card,2022.2.4,Win32,145.4757056,574c17587fd0ec0006b655cc,64d2fd46c836a06233681665,64dc7e957b02033fd7e2ecf9,,,,,,,decisionTrl,resources/DBN.BMP,resources/DR.BMP,Door1,-0.214517876,0.007042254,1,0,0,2.3265,optionLeft,30,9310,4,39,0,39,0,1,,,,,,,,,,,,,,,,,,,,,,,,,,,,,,,,,,,,,,,
,,,,,,,,2023-08-16_08h49.45.555,HF_wild_card,2022.2.4,Win32,145.4757056,574c17587fd0ec0006b655cc,64d2fd46c836a06233681665,64dc7e957b02033fd7e2ecf9,,,,,,,decisionTrl,resources/DY.BMP,resources/DBN.BMP,WildCard_NonEx,-0.22751896,-0.015167931,1,0,0,0.9301,optionLeft,45,9355,4,40,0,40,0,1,,,,,,,,,,,,,,,,,,,,,,,,,,,,,,,,,,,,,,,
,,,,,,,,2023-08-16_08h49.45.555,HF_wild_card,2022.2.4,Win32,145.4757056,574c17587fd0ec0006b655cc,64d2fd46c836a06233681665,64dc7e957b02033fd7e2ecf9,,,,,,,decisionTrl,resources/DR.BMP,resources/DY.BMP,WildCard_NonEx,0.192307692,0.013542795,1,0,0,1.8963,optionRight,45,9400,4,41,0,41,0,1,,,,,,,,,,,,,,,,,,,,,,,,,,,,,,,,,,,,,,,
,,,,,,,,2023-08-16_08h49.45.555,HF_wild_card,2022.2.4,Win32,145.4757056,574c17587fd0ec0006b655cc,64d2fd46c836a06233681665,64dc7e957b02033fd7e2ecf9,,,,,,,decisionTrl,resources/DG.BMP,resources/DB.BMP,Door4,0.242145179,-0.007042254,1,0,0,0.9511,optionRight,60,9460,4,42,0,42,0,1,,,,,,,,,,,,,,,,,,,,,,,,,,,,,,,,,,,,,,,
,,,,,,,,2023-08-16_08h49.45.555,HF_wild_card,2022.2.4,Win32,145.4757056,574c17587fd0ec0006b655cc,64d2fd46c836a06233681665,64dc7e957b02033fd7e2ecf9,,,,,,,ctch,resources/DR.BMP,resources/DG.BMP,Door3,0.261646804,-0.03304442,1,0,0,1.3062,optionRight,70,9530,4,43,0,43,0,1,,,,,,,,,,,,,,,,,,,,,,,,,,,,,,,,,,,,,,,
,,,,,,,,2023-08-16_08h49.45.555,HF_wild_card,2022.2.4,Win32,145.4757056,574c17587fd0ec0006b655cc,64d2fd46c836a06233681665,64dc7e957b02033fd7e2ecf9,,,,,,,,,,,,,,,,,,,,,,,,,,3,0,3,0,1,,,,,,,,,,,,,,,,,,,,,,,,,,,,,,,,,,
,,,,,,,,2023-08-16_08h49.45.555,HF_wild_card,2022.2.4,Win32,145.4757056,574c17587fd0ec0006b655cc,64d2fd46c836a06233681665,64dc7e957b02033fd7e2ecf9,,,,,,,decisionTrl,resources/DB.BMP,resources/DG.BMP,Door3,0.219934995,-0.003791983,1,0,0,1.9626,optionRight,70,9600,5,0,0,0,0,1,,,,,,,,,,,,,,,,,,,,,,,,,,,,,,,,,,,,,,,
,,,,,,,,2023-08-16_08h49.45.555,HF_wild_card,2022.2.4,Win32,145.4757056,574c17587fd0ec0006b655cc,64d2fd46c836a06233681665,64dc7e957b02033fd7e2ecf9,,,,,,,decisionTrl,resources/DR.BMP,resources/DBN.BMP,Door1,0.199349946,0.026002167,1,0,0,2.7432,optionRight,30,9630,5,1,0,1,0,1,,,,,,,,,,,,,,,,,,,,,,,,,,,,,,,,,,,,,,,
,,,,,,,,2023-08-16_08h49.45.555,HF_wild_card,2022.2.4,Win32,145.4757056,574c17587fd0ec0006b655cc,64d2fd46c836a06233681665,64dc7e957b02033fd7e2ecf9,,,,,,,sngl,resources/DB.BMP,resources/Empty.png,Door4,-0.189057421,-0.007583965,1,0,0,0.576,optionLeft,80,9710,5,2,0,2,0,1,,,,,,,,,,,,,,,,,,,,,,,,,,,,,,,,,,,,,,,
,,,,,,,,2023-08-16_08h49.45.555,HF_wild_card,2022.2.4,Win32,145.4757056,574c17587fd0ec0006b655cc,64d2fd46c836a06233681665,64dc7e957b02033fd7e2ecf9,,,,,,,decisionTrl,resources/DB.BMP,resources/DG.BMP,Door4,-0.173889491,-0.002708559,1,0,0,0.5282,optionLeft,80,9790,5,3,0,3,0,1,,,,,,,,,,,,,,,,,,,,,,,,,,,,,,,,,,,,,,,
,,,,,,,,2023-08-16_08h49.45.555,HF_wild_card,2022.2.4,Win32,145.4757056,574c17587fd0ec0006b655cc,64d2fd46c836a06233681665,64dc7e957b02033fd7e2ecf9,,,,,,,decisionTrl,resources/DG.BMP,resources/DB.BMP,Door4,0.14084507,-0.011375948,1,0,0,0.5051,optionRight,80,9870,5,4,0,4,0,1,,,,,,,,,,,,,,,,,,,,,,,,,,,,,,,,,,,,,,,
,,,,,,,,2023-08-16_08h49.45.555,HF_wild_card,2022.2.4,Win32,145.4757056,574c17587fd0ec0006b655cc,64d2fd46c836a06233681665,64dc7e957b02033fd7e2ecf9,,,,,,,sngl,resources/DG.BMP,resources/Empty.png,Door3,-0.222101842,-0.020585049,1,0,0,0.5545,optionLeft,70,9940,5,5,0,5,0,1,,,,,,,,,,,,,,,,,,,,,,,,,,,,,,,,,,,,,,,
,,,,,,,,2023-08-16_08h49.45.555,HF_wild_card,2022.2.4,Win32,145.4757056,574c17587fd0ec0006b655cc,64d2fd46c836a06233681665,64dc7e957b02033fd7e2ecf9,,,,,,,decisionTrl,resources/DBN.BMP,resources/DR.BMP,Door1,-0.238353196,-0.042795233,1,0,0,2.0756,optionLeft,30,9970,5,6,0,6,0,1,,,,,,,,,,,,,,,,,,,,,,,,,,,,,,,,,,,,,,,
,,,,,,,,2023-08-16_08h49.45.555,HF_wild_card,2022.2.4,Win32,145.4757056,574c17587fd0ec0006b655cc,64d2fd46c836a06233681665,64dc7e957b02033fd7e2ecf9,,,,,,,ctch,resources/DBN.BMP,resources/DB.BMP,Door4,0.254062839,0,1,0,0,1.0132,optionRight,80,10050,5,7,0,7,0,1,,,,,,,,,,,,,,,,,,,,,,,,,,,,,,,,,,,,,,,
,,,,,,,,2023-08-16_08h49.45.555,HF_wild_card,2022.2.4,Win32,145.4757056,574c17587fd0ec0006b655cc,64d2fd46c836a06233681665,64dc7e957b02033fd7e2ecf9,,,,,,,decisionTrl,resources/DR.BMP,resources/DBN.BMP,Door2,-0.242145179,-0.053629469,1,0,0,1.0131,optionLeft,20,10070,5,8,0,8,0,1,,,,,,,,,,,,,,,,,,,,,,,,,,,,,,,,,,,,,,,
,,,,,,,,2023-08-16_08h49.45.555,HF_wild_card,2022.2.4,Win32,145.4757056,574c17587fd0ec0006b655cc,64d2fd46c836a06233681665,64dc7e957b02033fd7e2ecf9,,,,,,,decisionTrl,resources/DG.BMP,resources/DY.BMP,Door3,-0.276814735,-0.021126761,1,0,0,1.6941,optionLeft,70,10140,5,9,0,9,0,1,,,,,,,,,,,,,,,,,,,,,,,,,,,,,,,,,,,,,,,
,,,,,,,,2023-08-16_08h49.45.555,HF_wild_card,2022.2.4,Win32,145.4757056,574c17587fd0ec0006b655cc,64d2fd46c836a06233681665,64dc7e957b02033fd7e2ecf9,,,,,,,sngl,resources/Empty.png,resources/DY.BMP,WildCard_NonEx,0.108884074,-0.000541712,1,0,0,0.7063,optionRight,55,10195,5,10,0,10,0,1,,,,,,,,,,,,,,,,,,,,,,,,,,,,,,,,,,,,,,,
,,,,,,,,2023-08-16_08h49.45.555,HF_wild_card,2022.2.4,Win32,145.4757056,574c17587fd0ec0006b655cc,64d2fd46c836a06233681665,64dc7e957b02033fd7e2ecf9,,,,,,,decisionTrl,resources/DBN.BMP,resources/DY.BMP,WildCard_NonEx,0.275189599,-0.003250271,1,0,0,2.272,optionRight,55,10250,5,11,0,11,0,1,,,,,,,,,,,,,,,,,,,,,,,,,,,,,,,,,,,,,,,
,,,,,,,,2023-08-16_08h49.45.555,HF_wild_card,2022.2.4,Win32,145.4757056,574c17587fd0ec0006b655cc,64d2fd46c836a06233681665,64dc7e957b02033fd7e2ecf9,,,,,,,sngl,resources/DY.BMP,resources/Empty.png,WildCard_NonEx,-0.252437703,-0.05687974,1,0,0,0.4914,optionLeft,55,10305,5,12,0,12,0,1,,,,,,,,,,,,,,,,,,,,,,,,,,,,,,,,,,,,,,,
,,,,,,,,2023-08-16_08h49.45.555,HF_wild_card,2022.2.4,Win32,145.4757056,574c17587fd0ec0006b655cc,64d2fd46c836a06233681665,64dc7e957b02033fd7e2ecf9,,,,,,,sngl,resources/Empty.png,resources/DR.BMP,Door2,0.212351029,-0.036294691,1,0,0,1.6588,optionRight,20,10325,5,13,0,13,0,1,,,,,,,,,,,,,,,,,,,,,,,,,,,,,,,,,,,,,,,
,,,,,,,,2023-08-16_08h49.45.555,HF_wild_card,2022.2.4,Win32,145.4757056,574c17587fd0ec0006b655cc,64d2fd46c836a06233681665,64dc7e957b02033fd7e2ecf9,,,,,,,decisionTrl,resources/DB.BMP,resources/DY.BMP,Door4,-0.255146262,-0.004333694,1,0,0,0.7555,optionLeft,80,10405,5,14,0,14,0,1,,,,,,,,,,,,,,,,,,,,,,,,,,,,,,,,,,,,,,,
,,,,,,,,2023-08-16_08h49.45.555,HF_wild_card,2022.2.4,Win32,145.4757056,574c17587fd0ec0006b655cc,64d2fd46c836a06233681665,64dc7e957b02033fd7e2ecf9,,,,,,,decisionTrl,resources/DB.BMP,resources/DG.BMP,Door4,-0.234019502,-0.024377031,1,0,0,0.54,optionLeft,80,10485,5,15,0,15,0,1,,,,,,,,,,,,,,,,,,,,,,,,,,,,,,,,,,,,,,,
,,,,,,,,2023-08-16_08h49.45.555,HF_wild_card,2022.2.4,Win32,145.4757056,574c17587fd0ec0006b655cc,64d2fd46c836a06233681665,64dc7e957b02033fd7e2ecf9,,,,,,,ctch,resources/DR.BMP,resources/DG.BMP,Door3,0.170097508,0.013542795,1,0,0,0.9704,optionRight,70,10555,5,16,0,16,0,1,,,,,,,,,,,,,,,,,,,,,,,,,,,,,,,,,,,,,,,
,,,,,,,,2023-08-16_08h49.45.555,HF_wild_card,2022.2.4,Win32,145.4757056,574c17587fd0ec0006b655cc,64d2fd46c836a06233681665,64dc7e957b02033fd7e2ecf9,,,,,,,ctch,resources/DB.BMP,resources/DBN.BMP,Door4,-0.269772481,-0.003791983,1,0,0,0.6512,optionLeft,60,10615,5,17,0,17,0,1,,,,,,,,,,,,,,,,,,,,,,,,,,,,,,,,,,,,,,,
,,,,,,,,2023-08-16_08h49.45.555,HF_wild_card,2022.2.4,Win32,145.4757056,574c17587fd0ec0006b655cc,64d2fd46c836a06233681665,64dc7e957b02033fd7e2ecf9,,,,,,,sngl,resources/Empty.png,resources/DY.BMP,WildCard_NonEx,0.171180932,0.013001083,1,0,0,0.6513,optionRight,45,10660,5,18,0,18,0,1,,,,,,,,,,,,,,,,,,,,,,,,,,,,,,,,,,,,,,,
,,,,,,,,2023-08-16_08h49.45.555,HF_wild_card,2022.2.4,Win32,145.4757056,574c17587fd0ec0006b655cc,64d2fd46c836a06233681665,64dc7e957b02033fd7e2ecf9,,,,,,,sngl,resources/DY.BMP,resources/Empty.png,WildCard_NonEx,-0.235102925,-0.046587216,1,0,0,0.4419,optionLeft,45,10705,5,19,0,19,0,1,,,,,,,,,,,,,,,,,,,,,,,,,,,,,,,,,,,,,,,
,,,,,,,,2023-08-16_08h49.45.555,HF_wild_card,2022.2.4,Win32,145.4757056,574c17587fd0ec0006b655cc,64d2fd46c836a06233681665,64dc7e957b02033fd7e2ecf9,,,,,,,decisionTrl,resources/DR.BMP,resources/DY.BMP,WildCard_NonEx,0.143011918,0.006500542,1,0,0,0.9801,optionRight,55,10760,5,20,0,20,0,1,,,,,,,,,,,,,,,,,,,,,,,,,,,,,,,,,,,,,,,
,,,,,,,,2023-08-16_08h49.45.555,HF_wild_card,2022.2.4,Win32,145.4757056,574c17587fd0ec0006b655cc,64d2fd46c836a06233681665,64dc7e957b02033fd7e2ecf9,,,,,,,decisionTrl,resources/DR.BMP,resources/DBN.BMP,Door2,-0.173889491,-0.031960997,1,0,0,0.8615,optionLeft,40,10800,5,21,0,21,0,1,,,,,,,,,,,,,,,,,,,,,,,,,,,,,,,,,,,,,,,
,,,,,,,,2023-08-16_08h49.45.555,HF_wild_card,2022.2.4,Win32,145.4757056,574c17587fd0ec0006b655cc,64d2fd46c836a06233681665,64dc7e957b02033fd7e2ecf9,,,,,,,ctch,resources/DG.BMP,resources/DR.BMP,Door3,-0.201516793,-0.029252438,1,0,0,0.6386,optionLeft,70,10870,5,22,0,22,0,1,,,,,,,,,,,,,,,,,,,,,,,,,,,,,,,,,,,,,,,
,,,,,,,,2023-08-16_08h49.45.555,HF_wild_card,2022.2.4,Win32,145.4757056,574c17587fd0ec0006b655cc,64d2fd46c836a06233681665,64dc7e957b02033fd7e2ecf9,,,,,,,decisionTrl,resources/DY.BMP,resources/DG.BMP,Door3,0.081798483,-0.026002167,1,0,0,0.7913,optionRight,70,10940,5,23,0,23,0,1,,,,,,,,,,,,,,,,,,,,,,,,,,,,,,,,,,,,,,,
,,,,,,,,2023-08-16_08h49.45.555,HF_wild_card,2022.2.4,Win32,145.4757056,574c17587fd0ec0006b655cc,64d2fd46c836a06233681665,64dc7e957b02033fd7e2ecf9,,,,,,,ctch,resources/DG.BMP,resources/DR.BMP,Door3,-0.208017335,-0.001083424,1,0,0,0.4713,optionLeft,70,11010,5,24,0,24,0,1,,,,,,,,,,,,,,,,,,,,,,,,,,,,,,,,,,,,,,,
,,,,,,,,2023-08-16_08h49.45.555,HF_wild_card,2022.2.4,Win32,145.4757056,574c17587fd0ec0006b655cc,64d2fd46c836a06233681665,64dc7e957b02033fd7e2ecf9,,,,,,,ctch,resources/DR.BMP,resources/DG.BMP,Door3,0.288732394,-0.01191766,1,0,0,0.4778,optionRight,70,11080,5,25,0,25,0,1,,,,,,,,,,,,,,,,,,,,,,,,,,,,,,,,,,,,,,,
,,,,,,,,2023-08-16_08h49.45.555,HF_wild_card,2022.2.4,Win32,145.4757056,574c17587fd0ec0006b655cc,64d2fd46c836a06233681665,64dc7e957b02033fd7e2ecf9,,,,,,,decisionTrl,resources/DR.BMP,resources/DBN.BMP,Door1,0.147887324,-0.02708559,1,0,0,1.0834,optionRight,30,11110,5,26,0,26,0,1,,,,,,,,,,,,,,,,,,,,,,,,,,,,,,,,,,,,,,,
,,,,,,,,2023-08-16_08h49.45.555,HF_wild_card,2022.2.4,Win32,145.4757056,574c17587fd0ec0006b655cc,64d2fd46c836a06233681665,64dc7e957b02033fd7e2ecf9,,,,,,,sngl,resources/DR.BMP,resources/Empty.png,Door2,-0.230769231,-0.001625135,1,0,0,0.5477,optionLeft,40,11150,5,27,0,27,0,1,,,,,,,,,,,,,,,,,,,,,,,,,,,,,,,,,,,,,,,
,,,,,,,,2023-08-16_08h49.45.555,HF_wild_card,2022.2.4,Win32,145.4757056,574c17587fd0ec0006b655cc,64d2fd46c836a06233681665,64dc7e957b02033fd7e2ecf9,,,,,,,ctch,resources/DB.BMP,resources/DBN.BMP,Door4,-0.151679307,0.017334778,1,0,0,0.7564,optionLeft,60,11210,5,28,0,28,0,1,,,,,,,,,,,,,,,,,,,,,,,,,,,,,,,,,,,,,,,
,,,,,,,,2023-08-16_08h49.45.555,HF_wild_card,2022.2.4,Win32,145.4757056,574c17587fd0ec0006b655cc,64d2fd46c836a06233681665,64dc7e957b02033fd7e2ecf9,,,,,,,decisionTrl,resources/DBN.BMP,resources/DR.BMP,Door2,0.159263272,0.006500542,1,0,0,0.7625,optionRight,20,11230,5,29,0,29,0,1,,,,,,,,,,,,,,,,,,,,,,,,,,,,,,,,,,,,,,,
,,,,,,,,2023-08-16_08h49.45.555,HF_wild_card,2022.2.4,Win32,145.4757056,574c17587fd0ec0006b655cc,64d2fd46c836a06233681665,64dc7e957b02033fd7e2ecf9,,,,,,,decisionTrl,resources/DB.BMP,resources/DG.BMP,Door4,-0.251895991,-0.040628386,1,0,0,1.2846,optionLeft,60,11290,5,30,0,30,0,1,,,,,,,,,,,,,,,,,,,,,,,,,,,,,,,,,,,,,,,
,,,,,,,,2023-08-16_08h49.45.555,HF_wild_card,2022.2.4,Win32,145.4757056,574c17587fd0ec0006b655cc,64d2fd46c836a06233681665,64dc7e957b02033fd7e2ecf9,,,,,,,decisionTrl,resources/DG.BMP,resources/DB.BMP,Door3,-0.204767064,-0.035211268,1,0,0,0.7153,optionLeft,70,11360,5,31,0,31,0,1,,,,,,,,,,,,,,,,,,,,,,,,,,,,,,,,,,,,,,,
,,,,,,,,2023-08-16_08h49.45.555,HF_wild_card,2022.2.4,Win32,145.4757056,574c17587fd0ec0006b655cc,64d2fd46c836a06233681665,64dc7e957b02033fd7e2ecf9,,,,,,,sngl,resources/Empty.png,resources/DG.BMP,Door3,0.387865655,0.007042254,1,0,0,0.506,optionRight,70,11430,5,32,0,32,0,1,,,,,,,,,,,,,,,,,,,,,,,,,,,,,,,,,,,,,,,
,,,,,,,,2023-08-16_08h49.45.555,HF_wild_card,2022.2.4,Win32,145.4757056,574c17587fd0ec0006b655cc,64d2fd46c836a06233681665,64dc7e957b02033fd7e2ecf9,,,,,,,decisionTrl,resources/DBN.BMP,resources/DR.BMP,Door2,0.2156013,0.015709642,1,0,0,0.7833,optionRight,20,11450,5,33,0,33,0,1,,,,,,,,,,,,,,,,,,,,,,,,,,,,,,,,,,,,,,,
,,,,,,,,2023-08-16_08h49.45.555,HF_wild_card,2022.2.4,Win32,145.4757056,574c17587fd0ec0006b655cc,64d2fd46c836a06233681665,64dc7e957b02033fd7e2ecf9,,,,,,,sngl,resources/DBN.BMP,resources/Empty.png,Door1,-0.295774648,-0.08992416,1,0,0,0.464,optionLeft,30,11480,5,34,0,34,0,1,,,,,,,,,,,,,,,,,,,,,,,,,,,,,,,,,,,,,,,
,,,,,,,,2023-08-16_08h49.45.555,HF_wild_card,2022.2.4,Win32,145.4757056,574c17587fd0ec0006b655cc,64d2fd46c836a06233681665,64dc7e957b02033fd7e2ecf9,,,,,,,decisionTrl,resources/DY.BMP,resources/DB.BMP,Door4,0.150595883,-0.004333694,1,0,0,0.98,optionRight,80,11560,5,35,0,35,0,1,,,,,,,,,,,,,,,,,,,,,,,,,,,,,,,,,,,,,,,
,,,,,,,,2023-08-16_08h49.45.555,HF_wild_card,2022.2.4,Win32,145.4757056,574c17587fd0ec0006b655cc,64d2fd46c836a06233681665,64dc7e957b02033fd7e2ecf9,,,,,,,decisionTrl,resources/DBN.BMP,resources/DR.BMP,Door1,-0.259479957,0.018959913,1,0,0,0.9438,optionLeft,30,11590,5,36,0,36,0,1,,,,,,,,,,,,,,,,,,,,,,,,,,,,,,,,,,,,,,,
,,,,,,,,2023-08-16_08h49.45.555,HF_wild_card,2022.2.4,Win32,145.4757056,574c17587fd0ec0006b655cc,64d2fd46c836a06233681665,64dc7e957b02033fd7e2ecf9,,,,,,,decisionTrl,resources/DG.BMP,resources/DB.BMP,Door4,0.26056338,0.031960997,1,0,0,1.2352,optionRight,80,11670,5,37,0,37,0,1,,,,,,,,,,,,,,,,,,,,,,,,,,,,,,,,,,,,,,,
,,,,,,,,2023-08-16_08h49.45.555,HF_wild_card,2022.2.4,Win32,145.4757056,574c17587fd0ec0006b655cc,64d2fd46c836a06233681665,64dc7e957b02033fd7e2ecf9,,,,,,,sngl,resources/Empty.png,resources/DB.BMP,Door4,0.336403034,0.017334778,1,0,0,0.4435,optionRight,60,11730,5,38,0,38,0,1,,,,,,,,,,,,,,,,,,,,,,,,,,,,,,,,,,,,,,,
,,,,,,,,2023-08-16_08h49.45.555,HF_wild_card,2022.2.4,Win32,145.4757056,574c17587fd0ec0006b655cc,64d2fd46c836a06233681665,64dc7e957b02033fd7e2ecf9,,,,,,,decisionTrl,resources/DG.BMP,resources/DB.BMP,Door4,0.161971831,0.034127844,1,0,0,0.8191,optionRight,60,11790,5,39,0,39,0,1,,,,,,,,,,,,,,,,,,,,,,,,,,,,,,,,,,,,,,,
,,,,,,,,2023-08-16_08h49.45.555,HF_wild_card,2022.2.4,Win32,145.4757056,574c17587fd0ec0006b655cc,64d2fd46c836a06233681665,64dc7e957b02033fd7e2ecf9,,,,,,,decisionTrl,resources/DY.BMP,resources/DR.BMP,WildCard_NonEx,-0.275731311,-0.009750813,1,0,0,1.1734,optionLeft,45,11835,5,40,0,40,0,1,,,,,,,,,,,,,,,,,,,,,,,,,,,,,,,,,,,,,,,
,,,,,,,,2023-08-16_08h49.45.555,HF_wild_card,2022.2.4,Win32,145.4757056,574c17587fd0ec0006b655cc,64d2fd46c836a06233681665,64dc7e957b02033fd7e2ecf9,,,,,,,ctch,resources/DBN.BMP,resources/DB.BMP,Door4,0.247020585,-0.066088841,1,0,0,0.6091,optionRight,60,11895,5,41,0,41,0,1,,,,,,,,,,,,,,,,,,,,,,,,,,,,,,,,,,,,,,,
,,,,,,,,2023-08-16_08h49.45.555,HF_wild_card,2022.2.4,Win32,145.4757056,574c17587fd0ec0006b655cc,64d2fd46c836a06233681665,64dc7e957b02033fd7e2ecf9,,,,,,,sngl,resources/Empty.png,resources/DBN.BMP,Door1,0.225352113,-0.007042254,1,0,0,0.854,optionRight,30,11925,5,42,0,42,0,1,,,,,,,,,,,,,,,,,,,,,,,,,,,,,,,,,,,,,,,
,,,,,,,,2023-08-16_08h49.45.555,HF_wild_card,2022.2.4,Win32,145.4757056,574c17587fd0ec0006b655cc,64d2fd46c836a06233681665,64dc7e957b02033fd7e2ecf9,,,,,,,decisionTrl,resources/DY.BMP,resources/DBN.BMP,WildCard_NonEx,-0.32340195,0.020585049,1,0,0,1.1179,optionLeft,55,11980,5,43,0,43,0,1,,,,,,,,,,,,,,,,,,,,,,,,,,,,,,,,,,,,,,,
,,,,,,,,2023-08-16_08h49.45.555,HF_wild_card,2022.2.4,Win32,145.4757056,574c17587fd0ec0006b655cc,64d2fd46c836a06233681665,64dc7e957b02033fd7e2ecf9,,,,,,,,,,,,,,,,,,,,,,,,,,4,0,4,0,1,,,,,,,,,,,,,,,,,,,,,,,,,,,,,,,,,,
,,,,,,,,2023-08-16_08h49.45.555,HF_wild_card,2022.2.4,Win32,145.4757056,574c17587fd0ec0006b655cc,64d2fd46c836a06233681665,64dc7e957b02033fd7e2ecf9,,,,,,,ctch,resources/DR.BMP,resources/DG.BMP,Door3,0.195016251,-0.000541712,1,0,0,0.9697,optionRight,70,12050,6,0,0,0,0,1,,,,,,,,,,,,,,,,,,,,,,,,,,,,,,,,,,,,,,,
,,,,,,,,2023-08-16_08h49.45.555,HF_wild_card,2022.2.4,Win32,145.4757056,574c17587fd0ec0006b655cc,64d2fd46c836a06233681665,64dc7e957b02033fd7e2ecf9,,,,,,,decisionTrl,resources/DG.BMP,resources/DY.BMP,Door3,-0.256771398,-0.032502709,1,0,0,0.492,optionLeft,70,12120,6,1,0,1,0,1,,,,,,,,,,,,,,,,,,,,,,,,,,,,,,,,,,,,,,,
,,,,,,,,2023-08-16_08h49.45.555,HF_wild_card,2022.2.4,Win32,145.4757056,574c17587fd0ec0006b655cc,64d2fd46c836a06233681665,64dc7e957b02033fd7e2ecf9,,,,,,,sngl,resources/Empty.png,resources/DY.BMP,WildCard_NonEx,0.309859155,-0.069339112,1,0,0,0.4786,optionRight,55,12175,6,2,0,2,0,1,,,,,,,,,,,,,,,,,,,,,,,,,,,,,,,,,,,,,,,
,,,,,,,,2023-08-16_08h49.45.555,HF_wild_card,2022.2.4,Win32,145.4757056,574c17587fd0ec0006b655cc,64d2fd46c836a06233681665,64dc7e957b02033fd7e2ecf9,,,,,,,sngl,resources/Empty.png,resources/DBN.BMP,Door1,0.211267606,-0.055254605,1,0,0,0.5404,optionRight,30,12205,6,3,0,3,0,1,,,,,,,,,,,,,,,,,,,,,,,,,,,,,,,,,,,,,,,
,,,,,,,,2023-08-16_08h49.45.555,HF_wild_card,2022.2.4,Win32,145.4757056,574c17587fd0ec0006b655cc,64d2fd46c836a06233681665,64dc7e957b02033fd7e2ecf9,,,,,,,decisionTrl,resources/DG.BMP,resources/DB.BMP,Door4,0.397074756,0.004333694,1,0,0,0.8887,optionRight,60,12265,6,4,0,4,0,1,,,,,,,,,,,,,,,,,,,,,,,,,,,,,,,,,,,,,,,
,,,,,,,,2023-08-16_08h49.45.555,HF_wild_card,2022.2.4,Win32,145.4757056,574c17587fd0ec0006b655cc,64d2fd46c836a06233681665,64dc7e957b02033fd7e2ecf9,,,,,,,decisionTrl,resources/DG.BMP,resources/DB.BMP,Door3,-0.145178765,0.015167931,1,0,0,1.005,optionLeft,70,12335,6,5,0,5,0,1,,,,,,,,,,,,,,,,,,,,,,,,,,,,,,,,,,,,,,,
,,,,,,,,2023-08-16_08h49.45.555,HF_wild_card,2022.2.4,Win32,145.4757056,574c17587fd0ec0006b655cc,64d2fd46c836a06233681665,64dc7e957b02033fd7e2ecf9,,,,,,,decisionTrl,resources/DR.BMP,resources/DBN.BMP,Door2,-0.285482124,0.015167931,1,0,0,1.5207,optionLeft,20,12355,6,6,0,6,0,1,,,,,,,,,,,,,,,,,,,,,,,,,,,,,,,,,,,,,,,
,,,,,,,,2023-08-16_08h49.45.555,HF_wild_card,2022.2.4,Win32,145.4757056,574c17587fd0ec0006b655cc,64d2fd46c836a06233681665,64dc7e957b02033fd7e2ecf9,,,,,,,ctch,resources/DG.BMP,resources/DR.BMP,Door3,-0.180931744,-0.061213434,1,0,0,0.6104,optionLeft,70,12425,6,7,0,7,0,1,,,,,,,,,,,,,,,,,,,,,,,,,,,,,,,,,,,,,,,
,,,,,,,,2023-08-16_08h49.45.555,HF_wild_card,2022.2.4,Win32,145.4757056,574c17587fd0ec0006b655cc,64d2fd46c836a06233681665,64dc7e957b02033fd7e2ecf9,,,,,,,sngl,resources/DY.BMP,resources/Empty.png,WildCard_NonEx,-0.236728061,-0.004333694,1,0,0,0.5955,optionLeft,45,12470,6,8,0,8,0,1,,,,,,,,,,,,,,,,,,,,,,,,,,,,,,,,,,,,,,,
,,,,,,,,2023-08-16_08h49.45.555,HF_wild_card,2022.2.4,Win32,145.4757056,574c17587fd0ec0006b655cc,64d2fd46c836a06233681665,64dc7e957b02033fd7e2ecf9,,,,,,,decisionTrl,resources/DY.BMP,resources/DR.BMP,WildCard_NonEx,-0.213434453,-0.026543879,1,0,0,0.6241,optionLeft,55,12525,6,9,0,9,0,1,,,,,,,,,,,,,,,,,,,,,,,,,,,,,,,,,,,,,,,
,,,,,,,,2023-08-16_08h49.45.555,HF_wild_card,2022.2.4,Win32,145.4757056,574c17587fd0ec0006b655cc,64d2fd46c836a06233681665,64dc7e957b02033fd7e2ecf9,,,,,,,ctch,resources/DBN.BMP,resources/DB.BMP,Door4,0.145720477,-0.008667389,1,0,0,0.8673,optionRight,80,12605,6,10,0,10,0,1,,,,,,,,,,,,,,,,,,,,,,,,,,,,,,,,,,,,,,,
,,,,,,,,2023-08-16_08h49.45.555,HF_wild_card,2022.2.4,Win32,145.4757056,574c17587fd0ec0006b655cc,64d2fd46c836a06233681665,64dc7e957b02033fd7e2ecf9,,,,,,,ctch,resources/DG.BMP,resources/DR.BMP,Door3,-0.199349946,0.002166847,1,0,0,0.6384,optionLeft,70,12675,6,11,0,11,0,1,,,,,,,,,,,,,,,,,,,,,,,,,,,,,,,,,,,,,,,
,,,,,,,,2023-08-16_08h49.45.555,HF_wild_card,2022.2.4,Win32,145.4757056,574c17587fd0ec0006b655cc,64d2fd46c836a06233681665,64dc7e957b02033fd7e2ecf9,,,,,,,ctch,resources/DB.BMP,resources/DBN.BMP,Door4,-0.205308776,-0.046045504,1,0,0,0.4779,optionLeft,60,12735,6,12,0,12,0,1,,,,,,,,,,,,,,,,,,,,,,,,,,,,,,,,,,,,,,,
,,,,,,,,2023-08-16_08h49.45.555,HF_wild_card,2022.2.4,Win32,145.4757056,574c17587fd0ec0006b655cc,64d2fd46c836a06233681665,64dc7e957b02033fd7e2ecf9,,,,,,,sngl,resources/Empty.png,resources/DY.BMP,WildCard_NonEx,0.25135428,-0.000541712,1,0,0,0.5482,optionRight,45,12780,6,13,0,13,0,1,,,,,,,,,,,,,,,,,,,,,,,,,,,,,,,,,,,,,,,
,,,,,,,,2023-08-16_08h49.45.555,HF_wild_card,2022.2.4,Win32,145.4757056,574c17587fd0ec0006b655cc,64d2fd46c836a06233681665,64dc7e957b02033fd7e2ecf9,,,,,,,decisionTrl,resources/DR.BMP,resources/DY.BMP,WildCard_NonEx,0.20368364,-0.031960997,1,0,0,1.036,optionRight,45,12825,6,14,0,14,0,1,,,,,,,,,,,,,,,,,,,,,,,,,,,,,,,,,,,,,,,
,,,,,,,,2023-08-16_08h49.45.555,HF_wild_card,2022.2.4,Win32,145.4757056,574c17587fd0ec0006b655cc,64d2fd46c836a06233681665,64dc7e957b02033fd7e2ecf9,,,,,,,decisionTrl,resources/DBN.BMP,resources/DR.BMP,Door1,-0.105092091,-0.055254605,1,0,0,1.4381,optionLeft,30,12855,6,15,0,15,0,1,,,,,,,,,,,,,,,,,,,,,,,,,,,,,,,,,,,,,,,
,,,,,,,,2023-08-16_08h49.45.555,HF_wild_card,2022.2.4,Win32,145.4757056,574c17587fd0ec0006b655cc,64d2fd46c836a06233681665,64dc7e957b02033fd7e2ecf9,,,,,,,decisionTrl,resources/DR.BMP,resources/DBN.BMP,Door2,-0.247020585,-0.05092091,1,0,0,0.6869,optionLeft,40,12895,6,16,0,16,0,1,,,,,,,,,,,,,,,,,,,,,,,,,,,,,,,,,,,,,,,
,,,,,,,,2023-08-16_08h49.45.555,HF_wild_card,2022.2.4,Win32,145.4757056,574c17587fd0ec0006b655cc,64d2fd46c836a06233681665,64dc7e957b02033fd7e2ecf9,,,,,,,decisionTrl,resources/DB.BMP,resources/DG.BMP,Door4,-0.199891658,-0.047670639,1,0,0,2.1398,optionLeft,80,12975,6,17,0,17,0,1,,,,,,,,,,,,,,,,,,,,,,,,,,,,,,,,,,,,,,,
,,,,,,,,2023-08-16_08h49.45.555,HF_wild_card,2022.2.4,Win32,145.4757056,574c17587fd0ec0006b655cc,64d2fd46c836a06233681665,64dc7e957b02033fd7e2ecf9,,,,,,,sngl,resources/DY.BMP,resources/Empty.png,WildCard_NonEx,-0.367822319,-0.002708559,1,0,0,1.4859,optionLeft,55,13030,6,18,0,18,0,1,,,,,,,,,,,,,,,,,,,,,,,,,,,,,,,,,,,,,,,
,,,,,,,,2023-08-16_08h49.45.555,HF_wild_card,2022.2.4,Win32,145.4757056,574c17587fd0ec0006b655cc,64d2fd46c836a06233681665,64dc7e957b02033fd7e2ecf9,,,,,,,ctch,resources/DB.BMP,resources/DBN.BMP,Door4,-0.25460455,-0.040086674,1,0,0,0.4779,optionLeft,60,13090,6,19,0,19,0,1,,,,,,,,,,,,,,,,,,,,,,,,,,,,,,,,,,,,,,,
,,,,,,,,2023-08-16_08h49.45.555,HF_wild_card,2022.2.4,Win32,145.4757056,574c17587fd0ec0006b655cc,64d2fd46c836a06233681665,64dc7e957b02033fd7e2ecf9,,,,,,,decisionTrl,resources/DB.BMP,resources/DG.BMP,Door4,-0.402491874,-0.032502709,1,0,0,0.4371,optionLeft,80,13170,6,20,0,20,0,1,,,,,,,,,,,,,,,,,,,,,,,,,,,,,,,,,,,,,,,
,,,,,,,,2023-08-16_08h49.45.555,HF_wild_card,2022.2.4,Win32,145.4757056,574c17587fd0ec0006b655cc,64d2fd46c836a06233681665,64dc7e957b02033fd7e2ecf9,,,,,,,sngl,resources/DG.BMP,resources/Empty.png,Door3,-0.147887324,-0.028169014,1,0,0,0.5256,optionLeft,70,13240,6,21,0,21,0,1,,,,,,,,,,,,,,,,,,,,,,,,,,,,,,,,,,,,,,,
,,,,,,,,2023-08-16_08h49.45.555,HF_wild_card,2022.2.4,Win32,145.4757056,574c17587fd0ec0006b655cc,64d2fd46c836a06233681665,64dc7e957b02033fd7e2ecf9,,,,,,,sngl,resources/Empty.png,resources/DB.BMP,Door4,0.27843987,-0.061755146,1,0,0,0.5756,optionRight,80,13320,6,22,0,22,0,1,,,,,,,,,,,,,,,,,,,,,,,,,,,,,,,,,,,,,,,
,,,,,,,,2023-08-16_08h49.45.555,HF_wild_card,2022.2.4,Win32,145.4757056,574c17587fd0ec0006b655cc,64d2fd46c836a06233681665,64dc7e957b02033fd7e2ecf9,,,,,,,sngl,resources/Empty.png,resources/DR.BMP,Door2,0.30227519,-0.054171181,1,0,0,0.5482,optionRight,40,13360,6,23,0,23,0,1,,,,,,,,,,,,,,,,,,,,,,,,,,,,,,,,,,,,,,,
,,,,,,,,2023-08-16_08h49.45.555,HF_wild_card,2022.2.4,Win32,145.4757056,574c17587fd0ec0006b655cc,64d2fd46c836a06233681665,64dc7e957b02033fd7e2ecf9,,,,,,,decisionTrl,resources/DB.BMP,resources/DY.BMP,Door4,-0.404658722,-0.041170098,1,0,0,0.4792,optionLeft,80,13440,6,24,0,24,0,1,,,,,,,,,,,,,,,,,,,,,,,,,,,,,,,,,,,,,,,
,,,,,,,,2023-08-16_08h49.45.555,HF_wild_card,2022.2.4,Win32,145.4757056,574c17587fd0ec0006b655cc,64d2fd46c836a06233681665,64dc7e957b02033fd7e2ecf9,,,,,,,sngl,resources/DBN.BMP,resources/Empty.png,Door1,0.002708559,-0.001625135,1,0,0,0.11,optionLeft,30,13470,6,25,0,25,0,1,,,,,,,,,,,,,,,,,,,,,,,,,,,,,,,,,,,,,,,
,,,,,,,,2023-08-16_08h49.45.555,HF_wild_card,2022.2.4,Win32,145.4757056,574c17587fd0ec0006b655cc,64d2fd46c836a06233681665,64dc7e957b02033fd7e2ecf9,,,,,,,decisionTrl,resources/DBN.BMP,resources/DR.BMP,Door1,-0.22751896,-0.068255688,1,0,0,0.492,optionLeft,30,13500,6,26,0,26,0,1,,,,,,,,,,,,,,,,,,,,,,,,,,,,,,,,,,,,,,,
,,,,,,,,2023-08-16_08h49.45.555,HF_wild_card,2022.2.4,Win32,145.4757056,574c17587fd0ec0006b655cc,64d2fd46c836a06233681665,64dc7e957b02033fd7e2ecf9,,,,,,,sngl,resources/DR.BMP,resources/Empty.png,Door2,-0.275189599,-0.018418202,1,0,0,0.4982,optionLeft,20,13520,6,27,0,27,0,1,,,,,,,,,,,,,,,,,,,,,,,,,,,,,,,,,,,,,,,
,,,,,,,,2023-08-16_08h49.45.555,HF_wild_card,2022.2.4,Win32,145.4757056,574c17587fd0ec0006b655cc,64d2fd46c836a06233681665,64dc7e957b02033fd7e2ecf9,,,,,,,decisionTrl,resources/DBN.BMP,resources/DY.BMP,Door1,-0.163596966,-0.043878657,1,0,0,1.0328,optionLeft,30,13550,6,28,0,28,0,1,,,,,,,,,,,,,,,,,,,,,,,,,,,,,,,,,,,,,,,
,,,,,,,,2023-08-16_08h49.45.555,HF_wild_card,2022.2.4,Win32,145.4757056,574c17587fd0ec0006b655cc,64d2fd46c836a06233681665,64dc7e957b02033fd7e2ecf9,,,,,,,decisionTrl,resources/DY.BMP,resources/DBN.BMP,WildCard_NonEx,-0.189057421,-0.053629469,1,0,0,0.4286,optionLeft,55,13605,6,29,0,29,0,1,,,,,,,,,,,,,,,,,,,,,,,,,,,,,,,,,,,,,,,
,,,,,,,,2023-08-16_08h49.45.555,HF_wild_card,2022.2.4,Win32,145.4757056,574c17587fd0ec0006b655cc,64d2fd46c836a06233681665,64dc7e957b02033fd7e2ecf9,,,,,,,decisionTrl,resources/DY.BMP,resources/DB.BMP,Door4,0.211809317,-0.016251354,1,0,0,0.6037,optionRight,80,13685,6,30,0,30,0,1,,,,,,,,,,,,,,,,,,,,,,,,,,,,,,,,,,,,,,,
,,,,,,,,2023-08-16_08h49.45.555,HF_wild_card,2022.2.4,Win32,145.4757056,574c17587fd0ec0006b655cc,64d2fd46c836a06233681665,64dc7e957b02033fd7e2ecf9,,,,,,,decisionTrl,resources/DR.BMP,resources/DBN.BMP,Door2,-0.135427952,-0.019501625,1,0,0,0.6657,optionLeft,40,13725,6,31,0,31,0,1,,,,,,,,,,,,,,,,,,,,,,,,,,,,,,,,,,,,,,,
,,,,,,,,2023-08-16_08h49.45.555,HF_wild_card,2022.2.4,Win32,145.4757056,574c17587fd0ec0006b655cc,64d2fd46c836a06233681665,64dc7e957b02033fd7e2ecf9,,,,,,,sngl,resources/Empty.png,resources/DG.BMP,Door3,0.329902492,-0.065547129,1,0,0,0.5547,optionRight,70,13795,6,32,0,32,0,1,,,,,,,,,,,,,,,,,,,,,,,,,,,,,,,,,,,,,,,
,,,,,,,,2023-08-16_08h49.45.555,HF_wild_card,2022.2.4,Win32,145.4757056,574c17587fd0ec0006b655cc,64d2fd46c836a06233681665,64dc7e957b02033fd7e2ecf9,,,,,,,sngl,resources/DB.BMP,resources/Empty.png,Door4,-0.388407367,-0.030877573,1,0,0,0.4151,optionLeft,60,13855,6,33,0,33,0,1,,,,,,,,,,,,,,,,,,,,,,,,,,,,,,,,,,,,,,,
,,,,,,,,2023-08-16_08h49.45.555,HF_wild_card,2022.2.4,Win32,145.4757056,574c17587fd0ec0006b655cc,64d2fd46c836a06233681665,64dc7e957b02033fd7e2ecf9,,,,,,,decisionTrl,resources/DG.BMP,resources/DB.BMP,Door4,0.097508126,-0.010292524,1,0,0,0.908,optionRight,60,13915,6,34,0,34,0,1,,,,,,,,,,,,,,,,,,,,,,,,,,,,,,,,,,,,,,,
,,,,,,,,2023-08-16_08h49.45.555,HF_wild_card,2022.2.4,Win32,145.4757056,574c17587fd0ec0006b655cc,64d2fd46c836a06233681665,64dc7e957b02033fd7e2ecf9,,,,,,,decisionTrl,resources/DR.BMP,resources/DBN.BMP,Door2,-0.249729144,-0.055796316,1,0,0,0.4921,optionLeft,20,13935,6,35,0,35,0,1,,,,,,,,,,,,,,,,,,,,,,,,,,,,,,,,,,,,,,,
,,,,,,,,2023-08-16_08h49.45.555,HF_wild_card,2022.2.4,Win32,145.4757056,574c17587fd0ec0006b655cc,64d2fd46c836a06233681665,64dc7e957b02033fd7e2ecf9,,,,,,,decisionTrl,resources/DBN.BMP,resources/DR.BMP,Door1,-0.232936078,-0.043878657,1,0,0,0.5892,optionLeft,30,13965,6,36,0,36,0,1,,,,,,,,,,,,,,,,,,,,,,,,,,,,,,,,,,,,,,,
,,,,,,,,2023-08-16_08h49.45.555,HF_wild_card,2022.2.4,Win32,145.4757056,574c17587fd0ec0006b655cc,64d2fd46c836a06233681665,64dc7e957b02033fd7e2ecf9,,,,,,,decisionTrl,resources/DB.BMP,resources/DG.BMP,Door4,-0.212351029,-0.019501625,1,0,0,0.722,optionLeft,80,14045,6,37,0,37,0,1,,,,,,,,,,,,,,,,,,,,,,,,,,,,,,,,,,,,,,,
,,,,,,,,2023-08-16_08h49.45.555,HF_wild_card,2022.2.4,Win32,145.4757056,574c17587fd0ec0006b655cc,64d2fd46c836a06233681665,64dc7e957b02033fd7e2ecf9,,,,,,,decisionTrl,resources/DG.BMP,resources/DB.BMP,Door3,-0.185265439,-0.049295775,1,0,0,0.7708,optionLeft,70,14115,6,38,0,38,0,1,,,,,,,,,,,,,,,,,,,,,,,,,,,,,,,,,,,,,,,
,,,,,,,,2023-08-16_08h49.45.555,HF_wild_card,2022.2.4,Win32,145.4757056,574c17587fd0ec0006b655cc,64d2fd46c836a06233681665,64dc7e957b02033fd7e2ecf9,,,,,,,ctch,resources/DBN.BMP,resources/DB.BMP,Door4,0.377573131,-0.000541712,1,0,0,1.7502,optionRight,60,14175,6,39,0,39,0,1,,,,,,,,,,,,,,,,,,,,,,,,,,,,,,,,,,,,,,,
,,,,,,,,2023-08-16_08h49.45.555,HF_wild_card,2022.2.4,Win32,145.4757056,574c17587fd0ec0006b655cc,64d2fd46c836a06233681665,64dc7e957b02033fd7e2ecf9,,,,,,,decisionTrl,resources/DB.BMP,resources/DG.BMP,Door4,-0.367280607,-0.038461538,1,0,0,1.0273,optionLeft,80,14255,6,40,0,40,0,1,,,,,,,,,,,,,,,,,,,,,,,,,,,,,,,,,,,,,,,
,,,,,,,,2023-08-16_08h49.45.555,HF_wild_card,2022.2.4,Win32,145.4757056,574c17587fd0ec0006b655cc,64d2fd46c836a06233681665,64dc7e957b02033fd7e2ecf9,,,,,,,decisionTrl,resources/DBN.BMP,resources/DR.BMP,Door1,-0.242686891,-0.042253521,1,0,0,0.916,optionLeft,30,14285,6,41,0,41,0,1,,,,,,,,,,,,,,,,,,,,,,,,,,,,,,,,,,,,,,,
,,,,,,,,2023-08-16_08h49.45.555,HF_wild_card,2022.2.4,Win32,145.4757056,574c17587fd0ec0006b655cc,64d2fd46c836a06233681665,64dc7e957b02033fd7e2ecf9,,,,,,,decisionTrl,resources/DY.BMP,resources/DG.BMP,Door3,0.288732394,0.010292524,1,0,0,1.1803,optionRight,70,14355,6,42,0,42,0,1,,,,,,,,,,,,,,,,,,,,,,,,,,,,,,,,,,,,,,,
,,,,,,,,2023-08-16_08h49.45.555,HF_wild_card,2022.2.4,Win32,145.4757056,574c17587fd0ec0006b655cc,64d2fd46c836a06233681665,64dc7e957b02033fd7e2ecf9,,,,,,,ctch,resources/DR.BMP,resources/DG.BMP,Door2,-0.230227519,-0.058504875,1,0,0,0.8598,optionLeft,20,14375,6,43,0,43,0,1,,,,,,,,,,,,,,,,,,,,,,,,,,,,,,,,,,,,,,,
,,,,,,,,2023-08-16_08h49.45.555,HF_wild_card,2022.2.4,Win32,145.4757056,574c17587fd0ec0006b655cc,64d2fd46c836a06233681665,64dc7e957b02033fd7e2ecf9,,,,,,,,,,,,,,,,,,,,,,,,,,5,0,5,0,1,,,,,,,,,,,,,,,,,,,,,,,,,,,,,,,,,,
,,,,,,,,2023-08-16_08h49.45.555,HF_wild_card,2022.2.4,Win32,145.4757056,574c17587fd0ec0006b655cc,64d2fd46c836a06233681665,64dc7e957b02033fd7e2ecf9,,,,,,,decisionTrl,resources/DBN.BMP,resources/DR.BMP,Door2,0.370530878,-0.046587216,1,0,0,2.4418,optionRight,20,14395,7,0,0,0,0,1,,,,,,,,,,,,,,,,,,,,,,,,,,,,,,,,,,,,,,,
,,,,,,,,2023-08-16_08h49.45.555,HF_wild_card,2022.2.4,Win32,145.4757056,574c17587fd0ec0006b655cc,64d2fd46c836a06233681665,64dc7e957b02033fd7e2ecf9,,,,,,,ctch,resources/DR.BMP,resources/DG.BMP,Door3,0.334777898,0.048212351,1,0,0,1.368,optionRight,70,14465,7,1,0,1,0,1,,,,,,,,,,,,,,,,,,,,,,,,,,,,,,,,,,,,,,,
,,,,,,,,2023-08-16_08h49.45.555,HF_wild_card,2022.2.4,Win32,145.4757056,574c17587fd0ec0006b655cc,64d2fd46c836a06233681665,64dc7e957b02033fd7e2ecf9,,,,,,,decisionTrl,resources/DBN.BMP,resources/DR.BMP,Door2,0.445828819,0.029252438,1,0,0,1.1031,optionRight,20,14485,7,2,0,2,0,1,,,,,,,,,,,,,,,,,,,,,,,,,,,,,,,,,,,,,,,
,,,,,,,,2023-08-16_08h49.45.555,HF_wild_card,2022.2.4,Win32,145.4757056,574c17587fd0ec0006b655cc,64d2fd46c836a06233681665,64dc7e957b02033fd7e2ecf9,,,,,,,decisionTrl,resources/DBN.BMP,resources/DR.BMP,Door1,-0.262730228,-0.004333694,1,0,0,0.8598,optionLeft,30,14515,7,3,0,3,0,1,,,,,,,,,,,,,,,,,,,,,,,,,,,,,,,,,,,,,,,
,,,,,,,,2023-08-16_08h49.45.555,HF_wild_card,2022.2.4,Win32,145.4757056,574c17587fd0ec0006b655cc,64d2fd46c836a06233681665,64dc7e957b02033fd7e2ecf9,,,,,,,ctch,resources/DB.BMP,resources/DBN.BMP,Door4,-0.348862405,-0.014626219,1,0,0,0.8047,optionLeft,60,14575,7,4,0,4,0,1,,,,,,,,,,,,,,,,,,,,,,,,,,,,,,,,,,,,,,,
,,,,,,,,2023-08-16_08h49.45.555,HF_wild_card,2022.2.4,Win32,145.4757056,574c17587fd0ec0006b655cc,64d2fd46c836a06233681665,64dc7e957b02033fd7e2ecf9,,,,,,,decisionTrl,resources/DG.BMP,resources/DB.BMP,Door3,-0.222643554,-0.022751896,1,0,0,0.9026,optionLeft,70,14645,7,5,0,5,0,1,,,,,,,,,,,,,,,,,,,,,,,,,,,,,,,,,,,,,,,
,,,,,,,,2023-08-16_08h49.45.555,HF_wild_card,2022.2.4,Win32,145.4757056,574c17587fd0ec0006b655cc,64d2fd46c836a06233681665,64dc7e957b02033fd7e2ecf9,,,,,,,decisionTrl,resources/DG.BMP,resources/DB.BMP,Door3,-0.183640303,-0.010292524,1,0,0,1.1316,optionLeft,70,14715,7,6,0,6,0,1,,,,,,,,,,,,,,,,,,,,,,,,,,,,,,,,,,,,,,,
,,,,,,,,2023-08-16_08h49.45.555,HF_wild_card,2022.2.4,Win32,145.4757056,574c17587fd0ec0006b655cc,64d2fd46c836a06233681665,64dc7e957b02033fd7e2ecf9,,,,,,,decisionTrl,resources/DBN.BMP,resources/DR.BMP,Door1,-0.145178765,-0.038461538,1,0,0,0.8465,optionLeft,30,14745,7,7,0,7,0,1,,,,,,,,,,,,,,,,,,,,,,,,,,,,,,,,,,,,,,,
,,,,,,,,2023-08-16_08h49.45.555,HF_wild_card,2022.2.4,Win32,145.4757056,574c17587fd0ec0006b655cc,64d2fd46c836a06233681665,64dc7e957b02033fd7e2ecf9,,,,,,,decisionTrl,resources/DB.BMP,resources/DG.BMP,Door4,-0.320151679,-0.001625135,1,0,0,0.478,optionLeft,60,14805,7,8,0,8,0,1,,,,,,,,,,,,,,,,,,,,,,,,,,,,,,,,,,,,,,,
,,,,,,,,2023-08-16_08h49.45.555,HF_wild_card,2022.2.4,Win32,145.4757056,574c17587fd0ec0006b655cc,64d2fd46c836a06233681665,64dc7e957b02033fd7e2ecf9,,,,,,,decisionTrl,resources/DG.BMP,resources/DB.BMP,Door3,-0.273564464,-0.015167931,1,0,0,1.1592,optionLeft,70,14875,7,9,0,9,0,1,,,,,,,,,,,,,,,,,,,,,,,,,,,,,,,,,,,,,,,
,,,,,,,,2023-08-16_08h49.45.555,HF_wild_card,2022.2.4,Win32,145.4757056,574c17587fd0ec0006b655cc,64d2fd46c836a06233681665,64dc7e957b02033fd7e2ecf9,,,,,,,decisionTrl,resources/DG.BMP,resources/DB.BMP,Door3,-0.195557963,-0.024918743,1,0,0,0.5002,optionLeft,70,14945,7,10,0,10,0,1,,,,,,,,,,,,,,,,,,,,,,,,,,,,,,,,,,,,,,,
,,,,,,,,2023-08-16_08h49.45.555,HF_wild_card,2022.2.4,Win32,145.4757056,574c17587fd0ec0006b655cc,64d2fd46c836a06233681665,64dc7e957b02033fd7e2ecf9,,,,,,,ctch,resources/DG.BMP,resources/DR.BMP,Door3,-0.202600217,-0.021668472,1,0,0,1.1038,optionLeft,70,15015,7,11,0,11,0,1,,,,,,,,,,,,,,,,,,,,,,,,,,,,,,,,,,,,,,,
,,,,,,,,2023-08-16_08h49.45.555,HF_wild_card,2022.2.4,Win32,145.4757056,574c17587fd0ec0006b655cc,64d2fd46c836a06233681665,64dc7e957b02033fd7e2ecf9,,,,,,,ctch,resources/DR.BMP,resources/DG.BMP,Door3,0.269230769,-0.001625135,1,0,0,1.216,optionRight,70,15085,7,12,0,12,0,1,,,,,,,,,,,,,,,,,,,,,,,,,,,,,,,,,,,,,,,
,,,,,,,,2023-08-16_08h49.45.555,HF_wild_card,2022.2.4,Win32,145.4757056,574c17587fd0ec0006b655cc,64d2fd46c836a06233681665,64dc7e957b02033fd7e2ecf9,,,,,,,ctch,resources/DBN.BMP,resources/DB.BMP,Door4,0.220476706,0.042253521,1,0,0,0.7635,optionRight,60,15145,7,13,0,13,0,1,,,,,,,,,,,,,,,,,,,,,,,,,,,,,,,,,,,,,,,
,,,,,,,,2023-08-16_08h49.45.555,HF_wild_card,2022.2.4,Win32,145.4757056,574c17587fd0ec0006b655cc,64d2fd46c836a06233681665,64dc7e957b02033fd7e2ecf9,,,,,,,ctch,resources/DBN.BMP,resources/DB.BMP,Door4,0.31148429,0.115926327,1,0,0,0.5421,optionRight,80,15225,7,14,0,14,0,1,,,,,,,,,,,,,,,,,,,,,,,,,,,,,,,,,,,,,,,
,,,,,,,,2023-08-16_08h49.45.555,HF_wild_card,2022.2.4,Win32,145.4757056,574c17587fd0ec0006b655cc,64d2fd46c836a06233681665,64dc7e957b02033fd7e2ecf9,,,,,,,ctch,resources/DG.BMP,resources/DR.BMP,Door3,-0.190140845,-0.061213434,1,0,0,0.5762,optionLeft,70,15295,7,15,0,15,0,1,,,,,,,,,,,,,,,,,,,,,,,,,,,,,,,,,,,,,,,
,,,,,,,,2023-08-16_08h49.45.555,HF_wild_card,2022.2.4,Win32,145.4757056,574c17587fd0ec0006b655cc,64d2fd46c836a06233681665,64dc7e957b02033fd7e2ecf9,,,,,,,decisionTrl,resources/DB.BMP,resources/DG.BMP,Door4,-0.248104009,-0.051462622,1,0,0,0.5477,optionLeft,60,15355,7,16,0,16,0,1,,,,,,,,,,,,,,,,,,,,,,,,,,,,,,,,,,,,,,,
,,,,,,,,2023-08-16_08h49.45.555,HF_wild_card,2022.2.4,Win32,145.4757056,574c17587fd0ec0006b655cc,64d2fd46c836a06233681665,64dc7e957b02033fd7e2ecf9,,,,,,,decisionTrl,resources/DR.BMP,resources/DBN.BMP,Door1,0.122968581,0.02383532,1,0,0,1.1537,optionRight,30,15385,7,17,0,17,0,1,,,,,,,,,,,,,,,,,,,,,,,,,,,,,,,,,,,,,,,
,,,,,,,,2023-08-16_08h49.45.555,HF_wild_card,2022.2.4,Win32,145.4757056,574c17587fd0ec0006b655cc,64d2fd46c836a06233681665,64dc7e957b02033fd7e2ecf9,,,,,,,decisionTrl,resources/DG.BMP,resources/DB.BMP,Door3,-0.246478873,0.016793066,1,0,0,0.674,optionLeft,70,15455,7,18,0,18,0,1,,,,,,,,,,,,,,,,,,,,,,,,,,,,,,,,,,,,,,,
,,,,,,,,2023-08-16_08h49.45.555,HF_wild_card,2022.2.4,Win32,145.4757056,574c17587fd0ec0006b655cc,64d2fd46c836a06233681665,64dc7e957b02033fd7e2ecf9,,,,,,,ctch,resources/DB.BMP,resources/DBN.BMP,Door4,-0.180390033,-0.026543879,1,0,0,0.5629,optionLeft,80,15535,7,19,0,19,0,1,,,,,,,,,,,,,,,,,,,,,,,,,,,,,,,,,,,,,,,
,,,,,,,,2023-08-16_08h49.45.555,HF_wild_card,2022.2.4,Win32,145.4757056,574c17587fd0ec0006b655cc,64d2fd46c836a06233681665,64dc7e957b02033fd7e2ecf9,,,,,,,decisionTrl,resources/DR.BMP,resources/DBN.BMP,Door1,0.189057421,-0.007583965,1,0,0,0.9869,optionRight,30,15565,7,20,0,20,0,1,,,,,,,,,,,,,,,,,,,,,,,,,,,,,,,,,,,,,,,
,,,,,,,,2023-08-16_08h49.45.555,HF_wild_card,2022.2.4,Win32,145.4757056,574c17587fd0ec0006b655cc,64d2fd46c836a06233681665,64dc7e957b02033fd7e2ecf9,,,,,,,decisionTrl,resources/DBN.BMP,resources/DR.BMP,Door2,0.304983749,0.049837486,1,0,0,0.7214,optionRight,20,15585,7,21,0,21,0,1,,,,,,,,,,,,,,,,,,,,,,,,,,,,,,,,,,,,,,,
,,,,,,,,2023-08-16_08h49.45.555,HF_wild_card,2022.2.4,Win32,145.4757056,574c17587fd0ec0006b655cc,64d2fd46c836a06233681665,64dc7e957b02033fd7e2ecf9,,,,,,,decisionTrl,resources/DB.BMP,resources/DG.BMP,Door4,-0.281148429,-0.015167931,1,0,0,0.4931,optionLeft,80,15665,7,22,0,22,0,1,,,,,,,,,,,,,,,,,,,,,,,,,,,,,,,,,,,,,,,
,,,,,,,,2023-08-16_08h49.45.555,HF_wild_card,2022.2.4,Win32,145.4757056,574c17587fd0ec0006b655cc,64d2fd46c836a06233681665,64dc7e957b02033fd7e2ecf9,,,,,,,decisionTrl,resources/DR.BMP,resources/DBN.BMP,Door1,0.139761647,-0.002166847,1,0,0,1.0348,optionRight,30,15695,7,23,0,23,0,1,,,,,,,,,,,,,,,,,,,,,,,,,,,,,,,,,,,,,,,
,,,,,,,,2023-08-16_08h49.45.555,HF_wild_card,2022.2.4,Win32,145.4757056,574c17587fd0ec0006b655cc,64d2fd46c836a06233681665,64dc7e957b02033fd7e2ecf9,,,,,,,decisionTrl,resources/DB.BMP,resources/DG.BMP,Door4,-0.166305525,-0.031419285,1,0,0,0.5964,optionLeft,80,15775,7,24,0,24,0,1,,,,,,,,,,,,,,,,,,,,,,,,,,,,,,,,,,,,,,,
,,,,,,,,2023-08-16_08h49.45.555,HF_wild_card,2022.2.4,Win32,145.4757056,574c17587fd0ec0006b655cc,64d2fd46c836a06233681665,64dc7e957b02033fd7e2ecf9,,,,,,,ctch,resources/DR.BMP,resources/DG.BMP,Door3,0.185807151,0.028710726,1,0,0,0.888,optionRight,70,15845,7,25,0,25,0,1,,,,,,,,,,,,,,,,,,,,,,,,,,,,,,,,,,,,,,,
,,,,,,,,2023-08-16_08h49.45.555,HF_wild_card,2022.2.4,Win32,145.4757056,574c17587fd0ec0006b655cc,64d2fd46c836a06233681665,64dc7e957b02033fd7e2ecf9,,,,,,,decisionTrl,resources/DB.BMP,resources/DG.BMP,Door4,-0.198266522,-0.051462622,1,0,0,0.4848,optionLeft,60,15905,7,26,0,26,0,1,,,,,,,,,,,,,,,,,,,,,,,,,,,,,,,,,,,,,,,
,,,,,,,,2023-08-16_08h49.45.555,HF_wild_card,2022.2.4,Win32,145.4757056,574c17587fd0ec0006b655cc,64d2fd46c836a06233681665,64dc7e957b02033fd7e2ecf9,,,,,,,decisionTrl,resources/DG.BMP,resources/DB.BMP,Door3,-0.115926327,-0.020585049,1,0,0,0.7988,optionLeft,70,15975,7,27,0,27,0,1,,,,,,,,,,,,,,,,,,,,,,,,,,,,,,,,,,,,,,,
,,,,,,,,2023-08-16_08h49.45.555,HF_wild_card,2022.2.4,Win32,145.4757056,574c17587fd0ec0006b655cc,64d2fd46c836a06233681665,64dc7e957b02033fd7e2ecf9,,,,,,,decisionTrl,resources/DR.BMP,resources/DBN.BMP,Door1,0.13163597,0.008125677,1,0,0,1.0545,optionRight,30,16005,7,28,0,28,0,1,,,,,,,,,,,,,,,,,,,,,,,,,,,,,,,,,,,,,,,
,,,,,,,,2023-08-16_08h49.45.555,HF_wild_card,2022.2.4,Win32,145.4757056,574c17587fd0ec0006b655cc,64d2fd46c836a06233681665,64dc7e957b02033fd7e2ecf9,,,,,,,decisionTrl,resources/DB.BMP,resources/DG.BMP,Door4,-0.212892741,-0.018959913,1,0,0,0.5765,optionLeft,80,16085,7,29,0,29,0,1,,,,,,,,,,,,,,,,,,,,,,,,,,,,,,,,,,,,,,,
,,,,,,,,2023-08-16_08h49.45.555,HF_wild_card,2022.2.4,Win32,145.4757056,574c17587fd0ec0006b655cc,64d2fd46c836a06233681665,64dc7e957b02033fd7e2ecf9,,,,,,,decisionTrl,resources/DR.BMP,resources/DBN.BMP,Door1,0.137053088,-0.003250271,1,0,0,1.174,optionRight,30,16115,7,30,0,30,0,1,,,,,,,,,,,,,,,,,,,,,,,,,,,,,,,,,,,,,,,
,,,,,,,,2023-08-16_08h49.45.555,HF_wild_card,2022.2.4,Win32,145.4757056,574c17587fd0ec0006b655cc,64d2fd46c836a06233681665,64dc7e957b02033fd7e2ecf9,,,,,,,decisionTrl,resources/DR.BMP,resources/DBN.BMP,Door1,0.124593716,-0.009750813,1,0,0,0.9519,optionRight,30,16145,7,31,0,31,0,1,,,,,,,,,,,,,,,,,,,,,,,,,,,,,,,,,,,,,,,
,,,,,,,,2023-08-16_08h49.45.555,HF_wild_card,2022.2.4,Win32,145.4757056,574c17587fd0ec0006b655cc,64d2fd46c836a06233681665,64dc7e957b02033fd7e2ecf9,,,,,,,ctch,resources/DG.BMP,resources/DR.BMP,Door3,-0.117009751,-0.015167931,1,0,0,0.6325,optionLeft,70,16215,7,32,0,32,0,1,,,,,,,,,,,,,,,,,,,,,,,,,,,,,,,,,,,,,,,
,,,,,,,,2023-08-16_08h49.45.555,HF_wild_card,2022.2.4,Win32,145.4757056,574c17587fd0ec0006b655cc,64d2fd46c836a06233681665,64dc7e957b02033fd7e2ecf9,,,,,,,decisionTrl,resources/DBN.BMP,resources/DR.BMP,Door1,-0.202058505,-0.021126761,1,0,0,0.9293,optionLeft,30,16245,7,33,0,33,0,1,,,,,,,,,,,,,,,,,,,,,,,,,,,,,,,,,,,,,,,
,,,,,,,,2023-08-16_08h49.45.555,HF_wild_card,2022.2.4,Win32,145.4757056,574c17587fd0ec0006b655cc,64d2fd46c836a06233681665,64dc7e957b02033fd7e2ecf9,,,,,,,ctch,resources/DB.BMP,resources/DBN.BMP,Door4,-0.175514626,-0.020585049,1,0,0,0.5559,optionLeft,60,16305,7,34,0,34,0,1,,,,,,,,,,,,,,,,,,,,,,,,,,,,,,,,,,,,,,,
,,,,,,,,2023-08-16_08h49.45.555,HF_wild_card,2022.2.4,Win32,145.4757056,574c17587fd0ec0006b655cc,64d2fd46c836a06233681665,64dc7e957b02033fd7e2ecf9,,,,,,,ctch,resources/DBN.BMP,resources/DB.BMP,Door1,-0.125135428,0.000541712,1,0,0,0.7506,optionLeft,30,16335,7,35,0,35,0,1,,,,,,,,,,,,,,,,,,,,,,,,,,,,,,,,,,,,,,,
,,,,,,,,2023-08-16_08h49.45.555,HF_wild_card,2022.2.4,Win32,145.4757056,574c17587fd0ec0006b655cc,64d2fd46c836a06233681665,64dc7e957b02033fd7e2ecf9,,,,,,,,,,,,,,,,,,,,,,,,,,6,0,6,0,1,,,,,,,,,,,,,,,,,,,,,,,,,,,,,,,,,,
,,,,,,,,2023-08-16_08h49.45.555,HF_wild_card,2022.2.4,Win32,145.4757056,574c17587fd0ec0006b655cc,64d2fd46c836a06233681665,64dc7e957b02033fd7e2ecf9,,,,,,,,,,,,,,,,,,,,,,,,,,,,,,,4,,,,,,,,,,,,,,,,,,,,,,,,,,,,,,,,,
,,,,,,,,2023-08-16_08h49.45.555,HF_wild_card,2022.2.4,Win32,145.4757056,574c17587fd0ec0006b655cc,64d2fd46c836a06233681665,64dc7e957b02033fd7e2ecf9,,,,,,,,,,,,,,,,,,,,,,,,,,,,,,,,,,,,,,,,,,,,,,,,,,,,,,,,,,,,,,,,
,,,,,,,,2023-08-16_08h49.45.555,HF_wild_card,2022.2.4,Win32,145.4757056,574c17587fd0ec0006b655cc,64d2fd46c836a06233681665,64dc7e957b02033fd7e2ecf9,,,,,,,,,,,,,,,,,,,,,,,,,,,,,,,,80,WC_extreme,resources/DP.BMP,0,0,0,0,1,,,,,,,,,,,,,,,,,,,,,,,,,
,,,,,,,,2023-08-16_08h49.45.555,HF_wild_card,2022.2.4,Win32,145.4757056,574c17587fd0ec0006b655cc,64d2fd46c836a06233681665,64dc7e957b02033fd7e2ecf9,,,,,,,,,,,,,,,,,,,,,,,,,,,,,,,,30,Door1,resources/DBN.BMP,1,0,1,0,1,,,,,,,,,,,,,,,,,,,,,,,,,
,,,,,,,,2023-08-16_08h49.45.555,HF_wild_card,2022.2.4,Win32,145.4757056,574c17587fd0ec0006b655cc,64d2fd46c836a06233681665,64dc7e957b02033fd7e2ecf9,,,,,,,,,,,,,,,,,,,,,,,,,,,,,,,,70,Door4,resources/DB.BMP,2,0,2,0,1,,,,,,,,,,,,,,,,,,,,,,,,,
,,,,,,,,2023-08-16_08h49.45.555,HF_wild_card,2022.2.4,Win32,145.4757056,574c17587fd0ec0006b655cc,64d2fd46c836a06233681665,64dc7e957b02033fd7e2ecf9,,,,,,,,,,,,,,,,,,,,,,,,,,,,,,,,55,WC_nonExtreme,resources/DY.BMP,3,0,3,0,1,,,,,,,,,,,,,,,,,,,,,,,,,
,,,,,,,,2023-08-16_08h49.45.555,HF_wild_card,2022.2.4,Win32,145.4757056,574c17587fd0ec0006b655cc,64d2fd46c836a06233681665,64dc7e957b02033fd7e2ecf9,,,,,,,,,,,,,,,,,,,,,,,,,,,,,,,,60,Door3,resources/DG.BMP,4,0,4,0,1,,,,,,,,,,,,,,,,,,,,,,,,,
,,,,,,,,2023-08-16_08h49.45.555,HF_wild_card,2022.2.4,Win32,145.4757056,574c17587fd0ec0006b655cc,64d2fd46c836a06233681665,64dc7e957b02033fd7e2ecf9,,,,,,,,,,,,,,,,,,,,,,,,,,,,,,,,40,Door2,resources/DR.BMP,5,0,5,0,1,,,,,,,,,,,,,,,,,,,,,,,,,
