Condition,Low fixed image (Door1),Low risky image (Door2),High fixed image (Door3),High risky image (Door4),Extreme Wild Card,NonExtreme Wild Card,,date,expName,psychopyVersion,OS,frameRate,PROLIFIC_PID,STUDY_ID,SESSION_ID,mouse_2.x,mouse_2.y,mouse_2.leftButton,mouse_2.midButton,mouse_2.rightButton,mouse_2.clicked_name,Trial Type,Left Option Image,Right Option Image,Chosen Door,mouse.x,mouse.y,mouse.leftButton,mouse.midButton,mouse.rightButton,mouse.time,mouse.clicked_name,Feedback,Cumulative Reward,Block,trial.thisRepN,trial.thisTrialN,trial.thisN,trial.thisIndex,trial.ran,blocks.thisRepN,blocks.thisTrialN,blocks.thisN,blocks.thisIndex,blocks.ran,Money conversion,First Outcome Reported,Shown Door (First Outcome),Displayed Image (First Outcome),outcomes.thisRepN,outcomes.thisTrialN,outcomes.thisN,outcomes.thisIndex,outcomes.ran,judgments.thisRepN,judgments.thisTrialN,judgments.thisN,judgments.thisIndex,judgments.ran,freqMouse.x,freqMouse.y,freqMouse.leftButton,freqMouse.midButton,freqMouse.rightButton,freqMouse.clicked_name,trials.thisRepN,trials.thisTrialN,trials.thisN,trials.thisIndex,trials.ran,FQJ for first outcome,FQJ for second outcome,Shown Door,Displayed Image,judgBlock.thisRepN,judgBlock.thisTrialN,judgBlock.thisN,judgBlock.thisIndex,judgBlock.ran
1,resources/DB.BMP,resources/DBN.BMP,resources/DY.BMP,resources/DR.BMP,resources/DG.BMP,resources/DP.BMP,,2023-08-16_08h49.19.478,HF_wild_card,2022.2.4,MacIntel,59.99880002,5bfe7267098e7a00016a4058,64d2fd46c836a06233681665,64dc7f6c99fcc0f466f02f8d,,,,,,,,,,,,,,,,,,,,,,,,,,,,,,,,,,,,,,,,,,,,,,,,,,,,,,,,,,,,,,,,
,,,,,,,,2023-08-16_08h49.19.478,HF_wild_card,2022.2.4,MacIntel,59.99880002,5bfe7267098e7a00016a4058,64d2fd46c836a06233681665,64dc7f6c99fcc0f466f02f8d,0.011822917,-0.418289931,1,0,0,agree,,,,,,,,,,,,,,,,,,,,,,,,,,,,,,,,,,,,,,,,,,,,,,,,,,,,,,,,,,
,,,,,,,,2023-08-16_08h49.19.478,HF_wild_card,2022.2.4,MacIntel,59.99880002,5bfe7267098e7a00016a4058,64d2fd46c836a06233681665,64dc7f6c99fcc0f466f02f8d,,,,,,,,,,,,,,,,,,,,,,,,,,,,,,,,,,,,,,,,,,,,,,,,,,,,,,,,,,,,,,,,
,,,,,,,,2023-08-16_08h49.19.478,HF_wild_card,2022.2.4,MacIntel,59.99880002,5bfe7267098e7a00016a4058,64d2fd46c836a06233681665,64dc7f6c99fcc0f466f02f8d,,,,,,,decisionTrl,resources/DR.BMP,resources/DY.BMP,Door3,0.373190104,-0.177465278,1,0,0,4.3003,optionRight,70,70,1,0,0,0,0,1,,,,,,,,,,,,,,,,,,,,,,,,,,,,,,,,,,,,,,,
,,,,,,,,2023-08-16_08h49.19.478,HF_wild_card,2022.2.4,MacIntel,59.99880002,5bfe7267098e7a00016a4058,64d2fd46c836a06233681665,64dc7f6c99fcc0f466f02f8d,,,,,,,ctch,resources/DBN.BMP,resources/DY.BMP,Door3,0.336467014,-0.064162326,1,0,0,3.7617,optionRight,70,140,1,1,0,1,0,1,,,,,,,,,,,,,,,,,,,,,,,,,,,,,,,,,,,,,,,
,,,,,,,,2023-08-16_08h49.19.478,HF_wild_card,2022.2.4,MacIntel,59.99880002,5bfe7267098e7a00016a4058,64d2fd46c836a06233681665,64dc7f6c99fcc0f466f02f8d,,,,,,,sngl,resources/Empty.png,resources/DY.BMP,Door3,0.343459201,-0.097387153,1,0,0,2.1315,optionRight,70,210,1,2,0,2,0,1,,,,,,,,,,,,,,,,,,,,,,,,,,,,,,,,,,,,,,,
,,,,,,,,2023-08-16_08h49.19.478,HF_wild_card,2022.2.4,MacIntel,59.99880002,5bfe7267098e7a00016a4058,64d2fd46c836a06233681665,64dc7f6c99fcc0f466f02f8d,,,,,,,decisionTrl,resources/DP.BMP,resources/DR.BMP,Door4,0.415520833,-0.077565104,1,0,0,2.8619,optionRight,80,290,1,3,0,3,0,1,,,,,,,,,,,,,,,,,,,,,,,,,,,,,,,,,,,,,,,
,,,,,,,,2023-08-16_08h49.19.478,HF_wild_card,2022.2.4,MacIntel,59.99880002,5bfe7267098e7a00016a4058,64d2fd46c836a06233681665,64dc7f6c99fcc0f466f02f8d,,,,,,,decisionTrl,resources/DR.BMP,resources/DP.BMP,WildCard_NonEx,0.407387153,-0.097408854,1,0,0,1.8448,optionRight,55,345,1,4,0,4,0,1,,,,,,,,,,,,,,,,,,,,,,,,,,,,,,,,,,,,,,,
,,,,,,,,2023-08-16_08h49.19.478,HF_wild_card,2022.2.4,MacIntel,59.99880002,5bfe7267098e7a00016a4058,64d2fd46c836a06233681665,64dc7f6c99fcc0f466f02f8d,,,,,,,sngl,resources/DY.BMP,resources/Empty.png,Door3,-0.351306424,-0.087304688,1,0,0,1.0421,optionLeft,70,415,1,5,0,5,0,1,,,,,,,,,,,,,,,,,,,,,,,,,,,,,,,,,,,,,,,
,,,,,,,,2023-08-16_08h49.19.478,HF_wild_card,2022.2.4,MacIntel,59.99880002,5bfe7267098e7a00016a4058,64d2fd46c836a06233681665,64dc7f6c99fcc0f466f02f8d,,,,,,,decisionTrl,resources/DY.BMP,resources/DR.BMP,Door4,0.317374132,-0.059084201,1,0,0,1.8973,optionRight,80,495,1,6,0,6,0,1,,,,,,,,,,,,,,,,,,,,,,,,,,,,,,,,,,,,,,,
,,,,,,,,2023-08-16_08h49.19.478,HF_wild_card,2022.2.4,MacIntel,59.99880002,5bfe7267098e7a00016a4058,64d2fd46c836a06233681665,64dc7f6c99fcc0f466f02f8d,,,,,,,sngl,resources/Empty.png,resources/DBN.BMP,Door2,0.267131076,-0.083294271,1,0,0,1.6266,optionRight,20,515,1,7,0,7,0,1,,,,,,,,,,,,,,,,,,,,,,,,,,,,,,,,,,,,,,,
,,,,,,,,2023-08-16_08h49.19.478,HF_wild_card,2022.2.4,MacIntel,59.99880002,5bfe7267098e7a00016a4058,64d2fd46c836a06233681665,64dc7f6c99fcc0f466f02f8d,,,,,,,decisionTrl,resources/DB.BMP,resources/DP.BMP,Door1,-0.378407118,-0.038875868,1,0,0,1.9272,optionLeft,30,545,1,8,0,8,0,1,,,,,,,,,,,,,,,,,,,,,,,,,,,,,,,,,,,,,,,
,,,,,,,,2023-08-16_08h49.19.478,HF_wild_card,2022.2.4,MacIntel,59.99880002,5bfe7267098e7a00016a4058,64d2fd46c836a06233681665,64dc7f6c99fcc0f466f02f8d,,,,,,,decisionTrl,resources/DB.BMP,resources/DBN.BMP,Door1,-0.290104167,-0.075121528,1,0,0,3.2473,optionLeft,30,575,1,9,0,9,0,1,,,,,,,,,,,,,,,,,,,,,,,,,,,,,,,,,,,,,,,
,,,,,,,,2023-08-16_08h49.19.478,HF_wild_card,2022.2.4,MacIntel,59.99880002,5bfe7267098e7a00016a4058,64d2fd46c836a06233681665,64dc7f6c99fcc0f466f02f8d,,,,,,,sngl,resources/Empty.png,resources/DR.BMP,Door4,0.367738715,-0.068927951,1,0,0,0.9289,optionRight,60,635,1,10,0,10,0,1,,,,,,,,,,,,,,,,,,,,,,,,,,,,,,,,,,,,,,,
,,,,,,,,2023-08-16_08h49.19.478,HF_wild_card,2022.2.4,MacIntel,59.99880002,5bfe7267098e7a00016a4058,64d2fd46c836a06233681665,64dc7f6c99fcc0f466f02f8d,,,,,,,sngl,resources/DBN.BMP,resources/Empty.png,Door2,-0.2984375,-0.076653646,1,0,0,1.0282,optionLeft,40,675,1,11,0,11,0,1,,,,,,,,,,,,,,,,,,,,,,,,,,,,,,,,,,,,,,,
,,,,,,,,2023-08-16_08h49.19.478,HF_wild_card,2022.2.4,MacIntel,59.99880002,5bfe7267098e7a00016a4058,64d2fd46c836a06233681665,64dc7f6c99fcc0f466f02f8d,,,,,,,ctch,resources/DY.BMP,resources/DBN.BMP,Door3,-0.303467882,-0.067938368,1,0,0,1.3286,optionLeft,70,745,1,12,0,12,0,1,,,,,,,,,,,,,,,,,,,,,,,,,,,,,,,,,,,,,,,
,,,,,,,,2023-08-16_08h49.19.478,HF_wild_card,2022.2.4,MacIntel,59.99880002,5bfe7267098e7a00016a4058,64d2fd46c836a06233681665,64dc7f6c99fcc0f466f02f8d,,,,,,,decisionTrl,resources/DY.BMP,resources/DR.BMP,Door4,0.382708333,-0.094539931,1,0,0,0.9455,optionRight,60,805,1,13,0,13,0,1,,,,,,,,,,,,,,,,,,,,,,,,,,,,,,,,,,,,,,,
,,,,,,,,2023-08-16_08h49.19.478,HF_wild_card,2022.2.4,MacIntel,59.99880002,5bfe7267098e7a00016a4058,64d2fd46c836a06233681665,64dc7f6c99fcc0f466f02f8d,,,,,,,decisionTrl,resources/DP.BMP,resources/DB.BMP,WildCard_NonEx,-0.267907986,-0.145195313,1,0,0,1.8278,optionLeft,55,860,1,14,0,14,0,1,,,,,,,,,,,,,,,,,,,,,,,,,,,,,,,,,,,,,,,
,,,,,,,,2023-08-16_08h49.19.478,HF_wild_card,2022.2.4,MacIntel,59.99880002,5bfe7267098e7a00016a4058,64d2fd46c836a06233681665,64dc7f6c99fcc0f466f02f8d,,,,,,,decisionTrl,resources/DP.BMP,resources/DBN.BMP,WildCard_NonEx,-0.266831597,-0.114483507,1,0,0,1.3107,optionLeft,55,915,1,15,0,15,0,1,,,,,,,,,,,,,,,,,,,,,,,,,,,,,,,,,,,,,,,
,,,,,,,,2023-08-16_08h49.19.478,HF_wild_card,2022.2.4,MacIntel,59.99880002,5bfe7267098e7a00016a4058,64d2fd46c836a06233681665,64dc7f6c99fcc0f466f02f8d,,,,,,,decisionTrl,resources/DP.BMP,resources/DY.BMP,Door3,0.363797743,-0.080095486,1,0,0,1.0938,optionRight,70,985,1,16,0,16,0,1,,,,,,,,,,,,,,,,,,,,,,,,,,,,,,,,,,,,,,,
,,,,,,,,2023-08-16_08h49.19.478,HF_wild_card,2022.2.4,MacIntel,59.99880002,5bfe7267098e7a00016a4058,64d2fd46c836a06233681665,64dc7f6c99fcc0f466f02f8d,,,,,,,decisionTrl,resources/DY.BMP,resources/DR.BMP,Door3,-0.443263889,-0.098324653,1,0,0,1.1612,optionLeft,70,1055,1,17,0,17,0,1,,,,,,,,,,,,,,,,,,,,,,,,,,,,,,,,,,,,,,,
,,,,,,,,2023-08-16_08h49.19.478,HF_wild_card,2022.2.4,MacIntel,59.99880002,5bfe7267098e7a00016a4058,64d2fd46c836a06233681665,64dc7f6c99fcc0f466f02f8d,,,,,,,decisionTrl,resources/DR.BMP,resources/DY.BMP,Door3,0.365859375,-0.057881944,1,0,0,0.9781,optionRight,70,1125,1,18,0,18,0,1,,,,,,,,,,,,,,,,,,,,,,,,,,,,,,,,,,,,,,,
,,,,,,,,2023-08-16_08h49.19.478,HF_wild_card,2022.2.4,MacIntel,59.99880002,5bfe7267098e7a00016a4058,64d2fd46c836a06233681665,64dc7f6c99fcc0f466f02f8d,,,,,,,decisionTrl,resources/DY.BMP,resources/DP.BMP,Door3,-0.356189236,-0.050616319,1,0,0,1.0928,optionLeft,70,1195,1,19,0,19,0,1,,,,,,,,,,,,,,,,,,,,,,,,,,,,,,,,,,,,,,,
,,,,,,,,2023-08-16_08h49.19.478,HF_wild_card,2022.2.4,MacIntel,59.99880002,5bfe7267098e7a00016a4058,64d2fd46c836a06233681665,64dc7f6c99fcc0f466f02f8d,,,,,,,sngl,resources/DB.BMP,resources/Empty.png,Door1,-0.254509549,-0.043797743,1,0,0,1.1284,optionLeft,30,1225,1,20,0,20,0,1,,,,,,,,,,,,,,,,,,,,,,,,,,,,,,,,,,,,,,,
,,,,,,,,2023-08-16_08h49.19.478,HF_wild_card,2022.2.4,MacIntel,59.99880002,5bfe7267098e7a00016a4058,64d2fd46c836a06233681665,64dc7f6c99fcc0f466f02f8d,,,,,,,ctch,resources/DBN.BMP,resources/DY.BMP,Door3,0.41453125,-0.045742188,1,0,0,0.9274,optionRight,70,1295,1,21,0,21,0,1,,,,,,,,,,,,,,,,,,,,,,,,,,,,,,,,,,,,,,,
,,,,,,,,2023-08-16_08h49.19.478,HF_wild_card,2022.2.4,MacIntel,59.99880002,5bfe7267098e7a00016a4058,64d2fd46c836a06233681665,64dc7f6c99fcc0f466f02f8d,,,,,,,decisionTrl,resources/DR.BMP,resources/DY.BMP,Door3,0.400381944,-0.043389757,1,0,0,0.9261,optionRight,70,1365,1,22,0,22,0,1,,,,,,,,,,,,,,,,,,,,,,,,,,,,,,,,,,,,,,,
,,,,,,,,2023-08-16_08h49.19.478,HF_wild_card,2022.2.4,MacIntel,59.99880002,5bfe7267098e7a00016a4058,64d2fd46c836a06233681665,64dc7f6c99fcc0f466f02f8d,,,,,,,sngl,resources/DP.BMP,resources/Empty.png,WildCard_NonEx,-0.312682292,-0.062491319,1,0,0,0.93,optionLeft,45,1410,1,23,0,23,0,1,,,,,,,,,,,,,,,,,,,,,,,,,,,,,,,,,,,,,,,
,,,,,,,,2023-08-16_08h49.19.478,HF_wild_card,2022.2.4,MacIntel,59.99880002,5bfe7267098e7a00016a4058,64d2fd46c836a06233681665,64dc7f6c99fcc0f466f02f8d,,,,,,,ctch,resources/DR.BMP,resources/DB.BMP,Door4,-0.323294271,-0.081215278,1,0,0,2.3283,optionLeft,60,1470,1,24,0,24,0,1,,,,,,,,,,,,,,,,,,,,,,,,,,,,,,,,,,,,,,,
,,,,,,,,2023-08-16_08h49.19.478,HF_wild_card,2022.2.4,MacIntel,59.99880002,5bfe7267098e7a00016a4058,64d2fd46c836a06233681665,64dc7f6c99fcc0f466f02f8d,,,,,,,sngl,resources/Empty.png,resources/DB.BMP,Door1,0.32499566,-0.069583333,1,0,0,1.0778,optionRight,30,1500,1,25,0,25,0,1,,,,,,,,,,,,,,,,,,,,,,,,,,,,,,,,,,,,,,,
,,,,,,,,2023-08-16_08h49.19.478,HF_wild_card,2022.2.4,MacIntel,59.99880002,5bfe7267098e7a00016a4058,64d2fd46c836a06233681665,64dc7f6c99fcc0f466f02f8d,,,,,,,decisionTrl,resources/DBN.BMP,resources/DB.BMP,Door2,-0.264188368,-0.046883681,1,0,0,2.029,optionLeft,20,1520,1,26,0,26,0,1,,,,,,,,,,,,,,,,,,,,,,,,,,,,,,,,,,,,,,,
,,,,,,,,2023-08-16_08h49.19.478,HF_wild_card,2022.2.4,MacIntel,59.99880002,5bfe7267098e7a00016a4058,64d2fd46c836a06233681665,64dc7f6c99fcc0f466f02f8d,,,,,,,ctch,resources/DB.BMP,resources/DR.BMP,Door4,0.299301215,-0.097413194,1,0,0,2.0779,optionRight,80,1600,1,27,0,27,0,1,,,,,,,,,,,,,,,,,,,,,,,,,,,,,,,,,,,,,,,
,,,,,,,,2023-08-16_08h49.19.478,HF_wild_card,2022.2.4,MacIntel,59.99880002,5bfe7267098e7a00016a4058,64d2fd46c836a06233681665,64dc7f6c99fcc0f466f02f8d,,,,,,,ctch,resources/DB.BMP,resources/DR.BMP,Door4,0.351597222,-0.073927951,1,0,0,1.4948,optionRight,80,1680,1,28,0,28,0,1,,,,,,,,,,,,,,,,,,,,,,,,,,,,,,,,,,,,,,,
,,,,,,,,2023-08-16_08h49.19.478,HF_wild_card,2022.2.4,MacIntel,59.99880002,5bfe7267098e7a00016a4058,64d2fd46c836a06233681665,64dc7f6c99fcc0f466f02f8d,,,,,,,decisionTrl,resources/DBN.BMP,resources/DB.BMP,Door1,0.2503125,-0.08390191,1,0,0,2.4771,optionRight,30,1710,1,29,0,29,0,1,,,,,,,,,,,,,,,,,,,,,,,,,,,,,,,,,,,,,,,
,,,,,,,,2023-08-16_08h49.19.478,HF_wild_card,2022.2.4,MacIntel,59.99880002,5bfe7267098e7a00016a4058,64d2fd46c836a06233681665,64dc7f6c99fcc0f466f02f8d,,,,,,,decisionTrl,resources/DB.BMP,resources/DBN.BMP,Door1,-0.305234375,-0.034175347,1,0,0,1.3919,optionLeft,30,1740,1,30,0,30,0,1,,,,,,,,,,,,,,,,,,,,,,,,,,,,,,,,,,,,,,,
,,,,,,,,2023-08-16_08h49.19.478,HF_wild_card,2022.2.4,MacIntel,59.99880002,5bfe7267098e7a00016a4058,64d2fd46c836a06233681665,64dc7f6c99fcc0f466f02f8d,,,,,,,decisionTrl,resources/DY.BMP,resources/DR.BMP,Door4,0.388802083,-0.073485243,1,0,0,1.8287,optionRight,80,1820,1,31,0,31,0,1,,,,,,,,,,,,,,,,,,,,,,,,,,,,,,,,,,,,,,,
,,,,,,,,2023-08-16_08h49.19.478,HF_wild_card,2022.2.4,MacIntel,59.99880002,5bfe7267098e7a00016a4058,64d2fd46c836a06233681665,64dc7f6c99fcc0f466f02f8d,,,,,,,sngl,resources/Empty.png,resources/DP.BMP,WildCard_NonEx,0.33859375,-0.04343316,1,0,0,0.9441,optionRight,45,1865,1,32,0,32,0,1,,,,,,,,,,,,,,,,,,,,,,,,,,,,,,,,,,,,,,,
,,,,,,,,2023-08-16_08h49.19.478,HF_wild_card,2022.2.4,MacIntel,59.99880002,5bfe7267098e7a00016a4058,64d2fd46c836a06233681665,64dc7f6c99fcc0f466f02f8d,,,,,,,decisionTrl,resources/DBN.BMP,resources/DB.BMP,Door1,0.459301215,-0.051345486,1,0,0,1.6289,optionRight,30,1895,1,33,0,33,0,1,,,,,,,,,,,,,,,,,,,,,,,,,,,,,,,,,,,,,,,
,,,,,,,,2023-08-16_08h49.19.478,HF_wild_card,2022.2.4,MacIntel,59.99880002,5bfe7267098e7a00016a4058,64d2fd46c836a06233681665,64dc7f6c99fcc0f466f02f8d,,,,,,,decisionTrl,resources/DB.BMP,resources/DBN.BMP,Door1,-0.304539931,-0.092395833,1,0,0,1.1619,optionLeft,30,1925,1,34,0,34,0,1,,,,,,,,,,,,,,,,,,,,,,,,,,,,,,,,,,,,,,,
,,,,,,,,2023-08-16_08h49.19.478,HF_wild_card,2022.2.4,MacIntel,59.99880002,5bfe7267098e7a00016a4058,64d2fd46c836a06233681665,64dc7f6c99fcc0f466f02f8d,,,,,,,sngl,resources/DR.BMP,resources/Empty.png,Door4,-0.257638889,-0.054926215,1,0,0,0.9288,optionLeft,80,2005,1,35,0,35,0,1,,,,,,,,,,,,,,,,,,,,,,,,,,,,,,,,,,,,,,,
,,,,,,,,2023-08-16_08h49.19.478,HF_wild_card,2022.2.4,MacIntel,59.99880002,5bfe7267098e7a00016a4058,64d2fd46c836a06233681665,64dc7f6c99fcc0f466f02f8d,,,,,,,sngl,resources/Empty.png,resources/DP.BMP,WildCard_NonEx,0.269392361,-0.080920139,1,0,0,1.0285,optionRight,55,2060,1,36,0,36,0,1,,,,,,,,,,,,,,,,,,,,,,,,,,,,,,,,,,,,,,,
,,,,,,,,2023-08-16_08h49.19.478,HF_wild_card,2022.2.4,MacIntel,59.99880002,5bfe7267098e7a00016a4058,64d2fd46c836a06233681665,64dc7f6c99fcc0f466f02f8d,,,,,,,ctch,resources/DY.BMP,resources/DBN.BMP,Door3,-0.315230035,-0.072708333,1,0,0,1.2949,optionLeft,70,2130,1,37,0,37,0,1,,,,,,,,,,,,,,,,,,,,,,,,,,,,,,,,,,,,,,,
,,,,,,,,2023-08-16_08h49.19.478,HF_wild_card,2022.2.4,MacIntel,59.99880002,5bfe7267098e7a00016a4058,64d2fd46c836a06233681665,64dc7f6c99fcc0f466f02f8d,,,,,,,decisionTrl,resources/DBN.BMP,resources/DB.BMP,Door1,0.335412326,-0.086241319,1,0,0,1.5607,optionRight,30,2160,1,38,0,38,0,1,,,,,,,,,,,,,,,,,,,,,,,,,,,,,,,,,,,,,,,
,,,,,,,,2023-08-16_08h49.19.478,HF_wild_card,2022.2.4,MacIntel,59.99880002,5bfe7267098e7a00016a4058,64d2fd46c836a06233681665,64dc7f6c99fcc0f466f02f8d,,,,,,,decisionTrl,resources/DBN.BMP,resources/DP.BMP,WildCard_NonEx,0.282834201,-0.084822049,1,0,0,2.1114,optionRight,55,2215,1,39,0,39,0,1,,,,,,,,,,,,,,,,,,,,,,,,,,,,,,,,,,,,,,,
,,,,,,,,2023-08-16_08h49.19.478,HF_wild_card,2022.2.4,MacIntel,59.99880002,5bfe7267098e7a00016a4058,64d2fd46c836a06233681665,64dc7f6c99fcc0f466f02f8d,,,,,,,decisionTrl,resources/DR.BMP,resources/DY.BMP,Door4,-0.361896701,-0.052552083,1,0,0,1.5603,optionLeft,60,2275,1,40,0,40,0,1,,,,,,,,,,,,,,,,,,,,,,,,,,,,,,,,,,,,,,,
,,,,,,,,2023-08-16_08h49.19.478,HF_wild_card,2022.2.4,MacIntel,59.99880002,5bfe7267098e7a00016a4058,64d2fd46c836a06233681665,64dc7f6c99fcc0f466f02f8d,,,,,,,decisionTrl,resources/DB.BMP,resources/DBN.BMP,Door1,-0.322296007,-0.068020833,1,0,0,1.161,optionLeft,30,2305,1,41,0,41,0,1,,,,,,,,,,,,,,,,,,,,,,,,,,,,,,,,,,,,,,,
,,,,,,,,2023-08-16_08h49.19.478,HF_wild_card,2022.2.4,MacIntel,59.99880002,5bfe7267098e7a00016a4058,64d2fd46c836a06233681665,64dc7f6c99fcc0f466f02f8d,,,,,,,ctch,resources/DR.BMP,resources/DB.BMP,Door4,-0.237196181,-0.080091146,1,0,0,2.0444,optionLeft,80,2385,1,42,0,42,0,1,,,,,,,,,,,,,,,,,,,,,,,,,,,,,,,,,,,,,,,
,,,,,,,,2023-08-16_08h49.19.478,HF_wild_card,2022.2.4,MacIntel,59.99880002,5bfe7267098e7a00016a4058,64d2fd46c836a06233681665,64dc7f6c99fcc0f466f02f8d,,,,,,,sngl,resources/DP.BMP,resources/Empty.png,WildCard_NonEx,-0.296783854,-0.065694444,1,0,0,1.1605,optionLeft,55,2440,1,43,0,43,0,1,,,,,,,,,,,,,,,,,,,,,,,,,,,,,,,,,,,,,,,
,,,,,,,,2023-08-16_08h49.19.478,HF_wild_card,2022.2.4,MacIntel,59.99880002,5bfe7267098e7a00016a4058,64d2fd46c836a06233681665,64dc7f6c99fcc0f466f02f8d,,,,,,,,,,,,,,,,,,,,,,,,,,0,0,0,0,1,,,,,,,,,,,,,,,,,,,,,,,,,,,,,,,,,,
,,,,,,,,2023-08-16_08h49.19.478,HF_wild_card,2022.2.4,MacIntel,59.99880002,5bfe7267098e7a00016a4058,64d2fd46c836a06233681665,64dc7f6c99fcc0f466f02f8d,,,,,,,decisionTrl,resources/DBN.BMP,resources/DP.BMP,WildCard_NonEx,0.394010417,-0.122938368,1,0,0,2.8281,optionRight,55,2495,2,0,0,0,0,1,,,,,,,,,,,,,,,,,,,,,,,,,,,,,,,,,,,,,,,
,,,,,,,,2023-08-16_08h49.19.478,HF_wild_card,2022.2.4,MacIntel,59.99880002,5bfe7267098e7a00016a4058,64d2fd46c836a06233681665,64dc7f6c99fcc0f466f02f8d,,,,,,,decisionTrl,resources/DY.BMP,resources/DR.BMP,Door4,0.311588542,-0.097530382,1,0,0,1.8613,optionRight,80,2575,2,1,0,1,0,1,,,,,,,,,,,,,,,,,,,,,,,,,,,,,,,,,,,,,,,
,,,,,,,,2023-08-16_08h49.19.478,HF_wild_card,2022.2.4,MacIntel,59.99880002,5bfe7267098e7a00016a4058,64d2fd46c836a06233681665,64dc7f6c99fcc0f466f02f8d,,,,,,,ctch,resources/DY.BMP,resources/DBN.BMP,Door3,-0.253945313,-0.091059028,1,0,0,0.9125,optionLeft,70,2645,2,2,0,2,0,1,,,,,,,,,,,,,,,,,,,,,,,,,,,,,,,,,,,,,,,
,,,,,,,,2023-08-16_08h49.19.478,HF_wild_card,2022.2.4,MacIntel,59.99880002,5bfe7267098e7a00016a4058,64d2fd46c836a06233681665,64dc7f6c99fcc0f466f02f8d,,,,,,,sngl,resources/Empty.png,resources/DB.BMP,Door1,0.282938368,-0.065824653,1,0,0,0.9119,optionRight,30,2675,2,3,0,3,0,1,,,,,,,,,,,,,,,,,,,,,,,,,,,,,,,,,,,,,,,
,,,,,,,,2023-08-16_08h49.19.478,HF_wild_card,2022.2.4,MacIntel,59.99880002,5bfe7267098e7a00016a4058,64d2fd46c836a06233681665,64dc7f6c99fcc0f466f02f8d,,,,,,,ctch,resources/DB.BMP,resources/DR.BMP,Door4,0.354279514,-0.065381944,1,0,0,2.1942,optionRight,60,2735,2,4,0,4,0,1,,,,,,,,,,,,,,,,,,,,,,,,,,,,,,,,,,,,,,,
,,,,,,,,2023-08-16_08h49.19.478,HF_wild_card,2022.2.4,MacIntel,59.99880002,5bfe7267098e7a00016a4058,64d2fd46c836a06233681665,64dc7f6c99fcc0f466f02f8d,,,,,,,ctch,resources/DY.BMP,resources/DBN.BMP,Door3,-0.313780382,-0.07421875,1,0,0,0.912,optionLeft,70,2805,2,5,0,5,0,1,,,,,,,,,,,,,,,,,,,,,,,,,,,,,,,,,,,,,,,
,,,,,,,,2023-08-16_08h49.19.478,HF_wild_card,2022.2.4,MacIntel,59.99880002,5bfe7267098e7a00016a4058,64d2fd46c836a06233681665,64dc7f6c99fcc0f466f02f8d,,,,,,,decisionTrl,resources/DR.BMP,resources/DY.BMP,Door3,0.441497396,-0.063741319,1,0,0,2.4608,optionRight,70,2875,2,6,0,6,0,1,,,,,,,,,,,,,,,,,,,,,,,,,,,,,,,,,,,,,,,
,,,,,,,,2023-08-16_08h49.19.478,HF_wild_card,2022.2.4,MacIntel,59.99880002,5bfe7267098e7a00016a4058,64d2fd46c836a06233681665,64dc7f6c99fcc0f466f02f8d,,,,,,,sngl,resources/DP.BMP,resources/Empty.png,WildCard_NonEx,-0.277825521,-0.054262153,1,0,0,0.8628,optionLeft,55,2930,2,7,0,7,0,1,,,,,,,,,,,,,,,,,,,,,,,,,,,,,,,,,,,,,,,
,,,,,,,,2023-08-16_08h49.19.478,HF_wild_card,2022.2.4,MacIntel,59.99880002,5bfe7267098e7a00016a4058,64d2fd46c836a06233681665,64dc7f6c99fcc0f466f02f8d,,,,,,,decisionTrl,resources/DBN.BMP,resources/DB.BMP,Door1,0.371076389,-0.037217882,1,0,0,1.5102,optionRight,30,2960,2,8,0,8,0,1,,,,,,,,,,,,,,,,,,,,,,,,,,,,,,,,,,,,,,,
,,,,,,,,2023-08-16_08h49.19.478,HF_wild_card,2022.2.4,MacIntel,59.99880002,5bfe7267098e7a00016a4058,64d2fd46c836a06233681665,64dc7f6c99fcc0f466f02f8d,,,,,,,decisionTrl,resources/DB.BMP,resources/DBN.BMP,Door1,-0.32796441,-0.071796875,1,0,0,0.9113,optionLeft,30,2990,2,9,0,9,0,1,,,,,,,,,,,,,,,,,,,,,,,,,,,,,,,,,,,,,,,
,,,,,,,,2023-08-16_08h49.19.478,HF_wild_card,2022.2.4,MacIntel,59.99880002,5bfe7267098e7a00016a4058,64d2fd46c836a06233681665,64dc7f6c99fcc0f466f02f8d,,,,,,,decisionTrl,resources/DB.BMP,resources/DBN.BMP,Door1,-0.270208333,-0.065295139,1,0,0,0.9281,optionLeft,30,3020,2,10,0,10,0,1,,,,,,,,,,,,,,,,,,,,,,,,,,,,,,,,,,,,,,,
,,,,,,,,2023-08-16_08h49.19.478,HF_wild_card,2022.2.4,MacIntel,59.99880002,5bfe7267098e7a00016a4058,64d2fd46c836a06233681665,64dc7f6c99fcc0f466f02f8d,,,,,,,ctch,resources/DR.BMP,resources/DB.BMP,Door4,-0.347048611,-0.088958333,1,0,0,1.3963,optionLeft,60,3080,2,11,0,11,0,1,,,,,,,,,,,,,,,,,,,,,,,,,,,,,,,,,,,,,,,
,,,,,,,,2023-08-16_08h49.19.478,HF_wild_card,2022.2.4,MacIntel,59.99880002,5bfe7267098e7a00016a4058,64d2fd46c836a06233681665,64dc7f6c99fcc0f466f02f8d,,,,,,,decisionTrl,resources/DY.BMP,resources/DR.BMP,Door3,-0.281393229,-0.076666667,1,0,0,1.5463,optionLeft,70,3150,2,12,0,12,0,1,,,,,,,,,,,,,,,,,,,,,,,,,,,,,,,,,,,,,,,
,,,,,,,,2023-08-16_08h49.19.478,HF_wild_card,2022.2.4,MacIntel,59.99880002,5bfe7267098e7a00016a4058,64d2fd46c836a06233681665,64dc7f6c99fcc0f466f02f8d,,,,,,,ctch,resources/DR.BMP,resources/DB.BMP,Door4,-0.329739583,-0.092647569,1,0,0,1.4797,optionLeft,80,3230,2,13,0,13,0,1,,,,,,,,,,,,,,,,,,,,,,,,,,,,,,,,,,,,,,,
,,,,,,,,2023-08-16_08h49.19.478,HF_wild_card,2022.2.4,MacIntel,59.99880002,5bfe7267098e7a00016a4058,64d2fd46c836a06233681665,64dc7f6c99fcc0f466f02f8d,,,,,,,decisionTrl,resources/DB.BMP,resources/DP.BMP,WildCard_NonEx,0.301657986,-0.107673611,1,0,0,1.6778,optionRight,55,3285,2,14,0,14,0,1,,,,,,,,,,,,,,,,,,,,,,,,,,,,,,,,,,,,,,,
,,,,,,,,2023-08-16_08h49.19.478,HF_wild_card,2022.2.4,MacIntel,59.99880002,5bfe7267098e7a00016a4058,64d2fd46c836a06233681665,64dc7f6c99fcc0f466f02f8d,,,,,,,ctch,resources/DBN.BMP,resources/DY.BMP,Door3,0.389670139,-0.055846354,1,0,0,1.0107,optionRight,70,3355,2,15,0,15,0,1,,,,,,,,,,,,,,,,,,,,,,,,,,,,,,,,,,,,,,,
,,,,,,,,2023-08-16_08h49.19.478,HF_wild_card,2022.2.4,MacIntel,59.99880002,5bfe7267098e7a00016a4058,64d2fd46c836a06233681665,64dc7f6c99fcc0f466f02f8d,,,,,,,decisionTrl,resources/DP.BMP,resources/DR.BMP,Door4,0.290442708,-0.076362847,1,0,0,2.2294,optionRight,60,3415,2,16,0,16,0,1,,,,,,,,,,,,,,,,,,,,,,,,,,,,,,,,,,,,,,,
,,,,,,,,2023-08-16_08h49.19.478,HF_wild_card,2022.2.4,MacIntel,59.99880002,5bfe7267098e7a00016a4058,64d2fd46c836a06233681665,64dc7f6c99fcc0f466f02f8d,,,,,,,decisionTrl,resources/DP.BMP,resources/DBN.BMP,WildCard_NonEx,-0.35921441,-0.089262153,1,0,0,1.095,optionLeft,45,3460,2,17,0,17,0,1,,,,,,,,,,,,,,,,,,,,,,,,,,,,,,,,,,,,,,,
,,,,,,,,2023-08-16_08h49.19.478,HF_wild_card,2022.2.4,MacIntel,59.99880002,5bfe7267098e7a00016a4058,64d2fd46c836a06233681665,64dc7f6c99fcc0f466f02f8d,,,,,,,sngl,resources/Empty.png,resources/DBN.BMP,Door2,0.360902778,-0.061432292,1,0,0,1.0808,optionRight,40,3500,2,18,0,18,0,1,,,,,,,,,,,,,,,,,,,,,,,,,,,,,,,,,,,,,,,
,,,,,,,,2023-08-16_08h49.19.478,HF_wild_card,2022.2.4,MacIntel,59.99880002,5bfe7267098e7a00016a4058,64d2fd46c836a06233681665,64dc7f6c99fcc0f466f02f8d,,,,,,,ctch,resources/DBN.BMP,resources/DY.BMP,Door3,0.36750434,-0.055182292,1,0,0,1.044,optionRight,70,3570,2,19,0,19,0,1,,,,,,,,,,,,,,,,,,,,,,,,,,,,,,,,,,,,,,,
,,,,,,,,2023-08-16_08h49.19.478,HF_wild_card,2022.2.4,MacIntel,59.99880002,5bfe7267098e7a00016a4058,64d2fd46c836a06233681665,64dc7f6c99fcc0f466f02f8d,,,,,,,sngl,resources/Empty.png,resources/DP.BMP,WildCard_NonEx,0.387456597,-0.043493924,1,0,0,0.9121,optionRight,45,3615,2,20,0,20,0,1,,,,,,,,,,,,,,,,,,,,,,,,,,,,,,,,,,,,,,,
,,,,,,,,2023-08-16_08h49.19.478,HF_wild_card,2022.2.4,MacIntel,59.99880002,5bfe7267098e7a00016a4058,64d2fd46c836a06233681665,64dc7f6c99fcc0f466f02f8d,,,,,,,sngl,resources/Empty.png,resources/DR.BMP,Door4,0.385720486,-0.042274306,1,0,0,0.9115,optionRight,80,3695,2,21,0,21,0,1,,,,,,,,,,,,,,,,,,,,,,,,,,,,,,,,,,,,,,,
,,,,,,,,2023-08-16_08h49.19.478,HF_wild_card,2022.2.4,MacIntel,59.99880002,5bfe7267098e7a00016a4058,64d2fd46c836a06233681665,64dc7f6c99fcc0f466f02f8d,,,,,,,sngl,resources/DBN.BMP,resources/Empty.png,Door2,-0.36875434,-0.067929688,1,0,0,0.9455,optionLeft,20,3715,2,22,0,22,0,1,,,,,,,,,,,,,,,,,,,,,,,,,,,,,,,,,,,,,,,
,,,,,,,,2023-08-16_08h49.19.478,HF_wild_card,2022.2.4,MacIntel,59.99880002,5bfe7267098e7a00016a4058,64d2fd46c836a06233681665,64dc7f6c99fcc0f466f02f8d,,,,,,,decisionTrl,resources/DR.BMP,resources/DP.BMP,Door4,-0.435221354,-0.084292535,1,0,0,1.7287,optionLeft,80,3795,2,23,0,23,0,1,,,,,,,,,,,,,,,,,,,,,,,,,,,,,,,,,,,,,,,
,,,,,,,,2023-08-16_08h49.19.478,HF_wild_card,2022.2.4,MacIntel,59.99880002,5bfe7267098e7a00016a4058,64d2fd46c836a06233681665,64dc7f6c99fcc0f466f02f8d,,,,,,,sngl,resources/DR.BMP,resources/Empty.png,Door4,-0.317178819,-0.086649306,1,0,0,0.9765,optionLeft,60,3855,2,24,0,24,0,1,,,,,,,,,,,,,,,,,,,,,,,,,,,,,,,,,,,,,,,
,,,,,,,,2023-08-16_08h49.19.478,HF_wild_card,2022.2.4,MacIntel,59.99880002,5bfe7267098e7a00016a4058,64d2fd46c836a06233681665,64dc7f6c99fcc0f466f02f8d,,,,,,,sngl,resources/DP.BMP,resources/Empty.png,WildCard_NonEx,-0.291336806,-0.072269965,1,0,0,0.9776,optionLeft,45,3900,2,25,0,25,0,1,,,,,,,,,,,,,,,,,,,,,,,,,,,,,,,,,,,,,,,
,,,,,,,,2023-08-16_08h49.19.478,HF_wild_card,2022.2.4,MacIntel,59.99880002,5bfe7267098e7a00016a4058,64d2fd46c836a06233681665,64dc7f6c99fcc0f466f02f8d,,,,,,,ctch,resources/DB.BMP,resources/DR.BMP,Door4,0.426358507,-0.03734809,1,0,0,1.5111,optionRight,80,3980,2,26,0,26,0,1,,,,,,,,,,,,,,,,,,,,,,,,,,,,,,,,,,,,,,,
,,,,,,,,2023-08-16_08h49.19.478,HF_wild_card,2022.2.4,MacIntel,59.99880002,5bfe7267098e7a00016a4058,64d2fd46c836a06233681665,64dc7f6c99fcc0f466f02f8d,,,,,,,decisionTrl,resources/DR.BMP,resources/DY.BMP,Door3,0.377786458,-0.062022569,1,0,0,2.2913,optionRight,70,4050,2,27,0,27,0,1,,,,,,,,,,,,,,,,,,,,,,,,,,,,,,,,,,,,,,,
,,,,,,,,2023-08-16_08h49.19.478,HF_wild_card,2022.2.4,MacIntel,59.99880002,5bfe7267098e7a00016a4058,64d2fd46c836a06233681665,64dc7f6c99fcc0f466f02f8d,,,,,,,decisionTrl,resources/DBN.BMP,resources/DB.BMP,Door1,0.365195312,-0.082239583,1,0,0,1.1613,optionRight,30,4080,2,28,0,28,0,1,,,,,,,,,,,,,,,,,,,,,,,,,,,,,,,,,,,,,,,
,,,,,,,,2023-08-16_08h49.19.478,HF_wild_card,2022.2.4,MacIntel,59.99880002,5bfe7267098e7a00016a4058,64d2fd46c836a06233681665,64dc7f6c99fcc0f466f02f8d,,,,,,,sngl,resources/Empty.png,resources/DY.BMP,Door3,0.395876736,-0.050225694,1,0,0,0.9977,optionRight,70,4150,2,29,0,29,0,1,,,,,,,,,,,,,,,,,,,,,,,,,,,,,,,,,,,,,,,
,,,,,,,,2023-08-16_08h49.19.478,HF_wild_card,2022.2.4,MacIntel,59.99880002,5bfe7267098e7a00016a4058,64d2fd46c836a06233681665,64dc7f6c99fcc0f466f02f8d,,,,,,,decisionTrl,resources/DR.BMP,resources/DY.BMP,Door3,0.397556424,-0.041215278,1,0,0,2.1965,optionRight,70,4220,2,30,0,30,0,1,,,,,,,,,,,,,,,,,,,,,,,,,,,,,,,,,,,,,,,
,,,,,,,,2023-08-16_08h49.19.478,HF_wild_card,2022.2.4,MacIntel,59.99880002,5bfe7267098e7a00016a4058,64d2fd46c836a06233681665,64dc7f6c99fcc0f466f02f8d,,,,,,,decisionTrl,resources/DY.BMP,resources/DP.BMP,Door3,-0.304969618,-0.030225694,1,0,0,2.5281,optionLeft,70,4290,2,31,0,31,0,1,,,,,,,,,,,,,,,,,,,,,,,,,,,,,,,,,,,,,,,
,,,,,,,,2023-08-16_08h49.19.478,HF_wild_card,2022.2.4,MacIntel,59.99880002,5bfe7267098e7a00016a4058,64d2fd46c836a06233681665,64dc7f6c99fcc0f466f02f8d,,,,,,,decisionTrl,resources/DP.BMP,resources/DB.BMP,WildCard_NonEx,-0.393194444,-0.08530816,1,0,0,1.3644,optionLeft,45,4335,2,32,0,32,0,1,,,,,,,,,,,,,,,,,,,,,,,,,,,,,,,,,,,,,,,
,,,,,,,,2023-08-16_08h49.19.478,HF_wild_card,2022.2.4,MacIntel,59.99880002,5bfe7267098e7a00016a4058,64d2fd46c836a06233681665,64dc7f6c99fcc0f466f02f8d,,,,,,,decisionTrl,resources/DBN.BMP,resources/DB.BMP,Door1,0.403793403,-0.030577257,1,0,0,0.9793,optionRight,30,4365,2,33,0,33,0,1,,,,,,,,,,,,,,,,,,,,,,,,,,,,,,,,,,,,,,,
,,,,,,,,2023-08-16_08h49.19.478,HF_wild_card,2022.2.4,MacIntel,59.99880002,5bfe7267098e7a00016a4058,64d2fd46c836a06233681665,64dc7f6c99fcc0f466f02f8d,,,,,,,decisionTrl,resources/DY.BMP,resources/DR.BMP,Door3,-0.28000434,-0.042855903,1,0,0,2.342,optionLeft,70,4435,2,34,0,34,0,1,,,,,,,,,,,,,,,,,,,,,,,,,,,,,,,,,,,,,,,
,,,,,,,,2023-08-16_08h49.19.478,HF_wild_card,2022.2.4,MacIntel,59.99880002,5bfe7267098e7a00016a4058,64d2fd46c836a06233681665,64dc7f6c99fcc0f466f02f8d,,,,,,,decisionTrl,resources/DBN.BMP,resources/DB.BMP,Door1,0.367161458,-0.057526042,1,0,0,1.1282,optionRight,30,4465,2,35,0,35,0,1,,,,,,,,,,,,,,,,,,,,,,,,,,,,,,,,,,,,,,,
,,,,,,,,2023-08-16_08h49.19.478,HF_wild_card,2022.2.4,MacIntel,59.99880002,5bfe7267098e7a00016a4058,64d2fd46c836a06233681665,64dc7f6c99fcc0f466f02f8d,,,,,,,sngl,resources/DB.BMP,resources/Empty.png,Door1,-0.286063368,-0.072825521,1,0,0,0.795,optionLeft,30,4495,2,36,0,36,0,1,,,,,,,,,,,,,,,,,,,,,,,,,,,,,,,,,,,,,,,
,,,,,,,,2023-08-16_08h49.19.478,HF_wild_card,2022.2.4,MacIntel,59.99880002,5bfe7267098e7a00016a4058,64d2fd46c836a06233681665,64dc7f6c99fcc0f466f02f8d,,,,,,,sngl,resources/Empty.png,resources/DP.BMP,WildCard_NonEx,0.403077257,-0.048315972,1,0,0,0.8958,optionRight,55,4550,2,37,0,37,0,1,,,,,,,,,,,,,,,,,,,,,,,,,,,,,,,,,,,,,,,
,,,,,,,,2023-08-16_08h49.19.478,HF_wild_card,2022.2.4,MacIntel,59.99880002,5bfe7267098e7a00016a4058,64d2fd46c836a06233681665,64dc7f6c99fcc0f466f02f8d,,,,,,,decisionTrl,resources/DP.BMP,resources/DY.BMP,Door3,0.396280382,-0.039027778,1,0,0,1.2807,optionRight,70,4620,2,38,0,38,0,1,,,,,,,,,,,,,,,,,,,,,,,,,,,,,,,,,,,,,,,
,,,,,,,,2023-08-16_08h49.19.478,HF_wild_card,2022.2.4,MacIntel,59.99880002,5bfe7267098e7a00016a4058,64d2fd46c836a06233681665,64dc7f6c99fcc0f466f02f8d,,,,,,,decisionTrl,resources/DY.BMP,resources/DR.BMP,Door3,-0.318146701,-0.079921875,1,0,0,1.4595,optionLeft,70,4690,2,39,0,39,0,1,,,,,,,,,,,,,,,,,,,,,,,,,,,,,,,,,,,,,,,
,,,,,,,,2023-08-16_08h49.19.478,HF_wild_card,2022.2.4,MacIntel,59.99880002,5bfe7267098e7a00016a4058,64d2fd46c836a06233681665,64dc7f6c99fcc0f466f02f8d,,,,,,,sngl,resources/DY.BMP,resources/Empty.png,Door3,-0.256440972,-0.050716146,1,0,0,0.9454,optionLeft,70,4760,2,40,0,40,0,1,,,,,,,,,,,,,,,,,,,,,,,,,,,,,,,,,,,,,,,
,,,,,,,,2023-08-16_08h49.19.478,HF_wild_card,2022.2.4,MacIntel,59.99880002,5bfe7267098e7a00016a4058,64d2fd46c836a06233681665,64dc7f6c99fcc0f466f02f8d,,,,,,,decisionTrl,resources/DB.BMP,resources/DBN.BMP,Door1,-0.324014757,-0.046124132,1,0,0,1.2112,optionLeft,30,4790,2,41,0,41,0,1,,,,,,,,,,,,,,,,,,,,,,,,,,,,,,,,,,,,,,,
,,,,,,,,2023-08-16_08h49.19.478,HF_wild_card,2022.2.4,MacIntel,59.99880002,5bfe7267098e7a00016a4058,64d2fd46c836a06233681665,64dc7f6c99fcc0f466f02f8d,,,,,,,decisionTrl,resources/DR.BMP,resources/DY.BMP,Door4,-0.280082465,-0.118407118,1,0,0,2.3285,optionLeft,60,4850,2,42,0,42,0,1,,,,,,,,,,,,,,,,,,,,,,,,,,,,,,,,,,,,,,,
,,,,,,,,2023-08-16_08h49.19.478,HF_wild_card,2022.2.4,MacIntel,59.99880002,5bfe7267098e7a00016a4058,64d2fd46c836a06233681665,64dc7f6c99fcc0f466f02f8d,,,,,,,decisionTrl,resources/DB.BMP,resources/DBN.BMP,Door1,-0.328875868,-0.089279514,1,0,0,0.9291,optionLeft,30,4880,2,43,0,43,0,1,,,,,,,,,,,,,,,,,,,,,,,,,,,,,,,,,,,,,,,
,,,,,,,,2023-08-16_08h49.19.478,HF_wild_card,2022.2.4,MacIntel,59.99880002,5bfe7267098e7a00016a4058,64d2fd46c836a06233681665,64dc7f6c99fcc0f466f02f8d,,,,,,,,,,,,,,,,,,,,,,,,,,1,0,1,0,1,,,,,,,,,,,,,,,,,,,,,,,,,,,,,,,,,,
,,,,,,,,2023-08-16_08h49.19.478,HF_wild_card,2022.2.4,MacIntel,59.99880002,5bfe7267098e7a00016a4058,64d2fd46c836a06233681665,64dc7f6c99fcc0f466f02f8d,,,,,,,decisionTrl,resources/DB.BMP,resources/DBN.BMP,Door1,-0.334748264,-0.123463542,1,0,0,2.7129,optionLeft,30,4910,3,0,0,0,0,1,,,,,,,,,,,,,,,,,,,,,,,,,,,,,,,,,,,,,,,
,,,,,,,,2023-08-16_08h49.19.478,HF_wild_card,2022.2.4,MacIntel,59.99880002,5bfe7267098e7a00016a4058,64d2fd46c836a06233681665,64dc7f6c99fcc0f466f02f8d,,,,,,,decisionTrl,resources/DBN.BMP,resources/DB.BMP,Door1,0.377565104,-0.044344618,1,0,0,1.0283,optionRight,30,4940,3,1,0,1,0,1,,,,,,,,,,,,,,,,,,,,,,,,,,,,,,,,,,,,,,,
,,,,,,,,2023-08-16_08h49.19.478,HF_wild_card,2022.2.4,MacIntel,59.99880002,5bfe7267098e7a00016a4058,64d2fd46c836a06233681665,64dc7f6c99fcc0f466f02f8d,,,,,,,ctch,resources/DR.BMP,resources/DB.BMP,Door4,-0.420013021,-0.063480903,1,0,0,1.3125,optionLeft,60,5000,3,2,0,2,0,1,,,,,,,,,,,,,,,,,,,,,,,,,,,,,,,,,,,,,,,
,,,,,,,,2023-08-16_08h49.19.478,HF_wild_card,2022.2.4,MacIntel,59.99880002,5bfe7267098e7a00016a4058,64d2fd46c836a06233681665,64dc7f6c99fcc0f466f02f8d,,,,,,,sngl,resources/DY.BMP,resources/Empty.png,Door3,-0.295199653,-0.058702257,1,0,0,0.9285,optionLeft,70,5070,3,3,0,3,0,1,,,,,,,,,,,,,,,,,,,,,,,,,,,,,,,,,,,,,,,
,,,,,,,,2023-08-16_08h49.19.478,HF_wild_card,2022.2.4,MacIntel,59.99880002,5bfe7267098e7a00016a4058,64d2fd46c836a06233681665,64dc7f6c99fcc0f466f02f8d,,,,,,,ctch,resources/DB.BMP,resources/DR.BMP,Door4,0.362760417,-0.058528646,1,0,0,1.277,optionRight,80,5150,3,4,0,4,0,1,,,,,,,,,,,,,,,,,,,,,,,,,,,,,,,,,,,,,,,
,,,,,,,,2023-08-16_08h49.19.478,HF_wild_card,2022.2.4,MacIntel,59.99880002,5bfe7267098e7a00016a4058,64d2fd46c836a06233681665,64dc7f6c99fcc0f466f02f8d,,,,,,,ctch,resources/DBN.BMP,resources/DY.BMP,Door3,0.412078993,-0.05234375,1,0,0,1.3453,optionRight,70,5220,3,5,0,5,0,1,,,,,,,,,,,,,,,,,,,,,,,,,,,,,,,,,,,,,,,
,,,,,,,,2023-08-16_08h49.19.478,HF_wild_card,2022.2.4,MacIntel,59.99880002,5bfe7267098e7a00016a4058,64d2fd46c836a06233681665,64dc7f6c99fcc0f466f02f8d,,,,,,,ctch,resources/DY.BMP,resources/DBN.BMP,Door3,-0.316380208,-0.06984809,1,0,0,0.9294,optionLeft,70,5290,3,6,0,6,0,1,,,,,,,,,,,,,,,,,,,,,,,,,,,,,,,,,,,,,,,
,,,,,,,,2023-08-16_08h49.19.478,HF_wild_card,2022.2.4,MacIntel,59.99880002,5bfe7267098e7a00016a4058,64d2fd46c836a06233681665,64dc7f6c99fcc0f466f02f8d,,,,,,,ctch,resources/DR.BMP,resources/DB.BMP,Door4,-0.314053819,-0.062452257,1,0,0,1.528,optionLeft,60,5350,3,7,0,7,0,1,,,,,,,,,,,,,,,,,,,,,,,,,,,,,,,,,,,,,,,
,,,,,,,,2023-08-16_08h49.19.478,HF_wild_card,2022.2.4,MacIntel,59.99880002,5bfe7267098e7a00016a4058,64d2fd46c836a06233681665,64dc7f6c99fcc0f466f02f8d,,,,,,,decisionTrl,resources/DY.BMP,resources/DR.BMP,Door3,-0.257730035,-0.163706597,1,0,0,1.2954,optionLeft,70,5420,3,8,0,8,0,1,,,,,,,,,,,,,,,,,,,,,,,,,,,,,,,,,,,,,,,
,,,,,,,,2023-08-16_08h49.19.478,HF_wild_card,2022.2.4,MacIntel,59.99880002,5bfe7267098e7a00016a4058,64d2fd46c836a06233681665,64dc7f6c99fcc0f466f02f8d,,,,,,,decisionTrl,resources/DY.BMP,resources/DR.BMP,Door3,-0.278815104,-0.050963542,1,0,0,1.1276,optionLeft,70,5490,3,9,0,9,0,1,,,,,,,,,,,,,,,,,,,,,,,,,,,,,,,,,,,,,,,
,,,,,,,,2023-08-16_08h49.19.478,HF_wild_card,2022.2.4,MacIntel,59.99880002,5bfe7267098e7a00016a4058,64d2fd46c836a06233681665,64dc7f6c99fcc0f466f02f8d,,,,,,,decisionTrl,resources/DBN.BMP,resources/DB.BMP,Door1,0.433289931,-0.043628472,1,0,0,0.9978,optionRight,30,5520,3,10,0,10,0,1,,,,,,,,,,,,,,,,,,,,,,,,,,,,,,,,,,,,,,,
,,,,,,,,2023-08-16_08h49.19.478,HF_wild_card,2022.2.4,MacIntel,59.99880002,5bfe7267098e7a00016a4058,64d2fd46c836a06233681665,64dc7f6c99fcc0f466f02f8d,,,,,,,sngl,resources/Empty.png,resources/DY.BMP,Door3,0.349743924,-0.041384549,1,0,0,1.0952,optionRight,70,5590,3,11,0,11,0,1,,,,,,,,,,,,,,,,,,,,,,,,,,,,,,,,,,,,,,,
,,,,,,,,2023-08-16_08h49.19.478,HF_wild_card,2022.2.4,MacIntel,59.99880002,5bfe7267098e7a00016a4058,64d2fd46c836a06233681665,64dc7f6c99fcc0f466f02f8d,,,,,,,decisionTrl,resources/DB.BMP,resources/DP.BMP,WildCard_NonEx,0.345347222,-0.062664931,1,0,0,1.5464,optionRight,55,5645,3,12,0,12,0,1,,,,,,,,,,,,,,,,,,,,,,,,,,,,,,,,,,,,,,,
,,,,,,,,2023-08-16_08h49.19.478,HF_wild_card,2022.2.4,MacIntel,59.99880002,5bfe7267098e7a00016a4058,64d2fd46c836a06233681665,64dc7f6c99fcc0f466f02f8d,,,,,,,decisionTrl,resources/DB.BMP,resources/DBN.BMP,Door1,-0.341006944,-0.065503472,1,0,0,0.978,optionLeft,30,5675,3,13,0,13,0,1,,,,,,,,,,,,,,,,,,,,,,,,,,,,,,,,,,,,,,,
,,,,,,,,2023-08-16_08h49.19.478,HF_wild_card,2022.2.4,MacIntel,59.99880002,5bfe7267098e7a00016a4058,64d2fd46c836a06233681665,64dc7f6c99fcc0f466f02f8d,,,,,,,sngl,resources/DP.BMP,resources/Empty.png,WildCard_NonEx,-0.350429687,-0.079179687,1,0,0,0.8773,optionLeft,55,5730,3,14,0,14,0,1,,,,,,,,,,,,,,,,,,,,,,,,,,,,,,,,,,,,,,,
,,,,,,,,2023-08-16_08h49.19.478,HF_wild_card,2022.2.4,MacIntel,59.99880002,5bfe7267098e7a00016a4058,64d2fd46c836a06233681665,64dc7f6c99fcc0f466f02f8d,,,,,,,decisionTrl,resources/DBN.BMP,resources/DB.BMP,Door1,0.410885417,-0.060603299,1,0,0,0.9807,optionRight,30,5760,3,15,0,15,0,1,,,,,,,,,,,,,,,,,,,,,,,,,,,,,,,,,,,,,,,
,,,,,,,,2023-08-16_08h49.19.478,HF_wild_card,2022.2.4,MacIntel,59.99880002,5bfe7267098e7a00016a4058,64d2fd46c836a06233681665,64dc7f6c99fcc0f466f02f8d,,,,,,,decisionTrl,resources/DB.BMP,resources/DBN.BMP,Door1,-0.311228299,-0.077452257,1,0,0,0.7767,optionLeft,30,5790,3,16,0,16,0,1,,,,,,,,,,,,,,,,,,,,,,,,,,,,,,,,,,,,,,,
,,,,,,,,2023-08-16_08h49.19.478,HF_wild_card,2022.2.4,MacIntel,59.99880002,5bfe7267098e7a00016a4058,64d2fd46c836a06233681665,64dc7f6c99fcc0f466f02f8d,,,,,,,sngl,resources/Empty.png,resources/DB.BMP,Door1,0.320655382,-0.049006076,1,0,0,0.8942,optionRight,30,5820,3,17,0,17,0,1,,,,,,,,,,,,,,,,,,,,,,,,,,,,,,,,,,,,,,,
,,,,,,,,2023-08-16_08h49.19.478,HF_wild_card,2022.2.4,MacIntel,59.99880002,5bfe7267098e7a00016a4058,64d2fd46c836a06233681665,64dc7f6c99fcc0f466f02f8d,,,,,,,decisionTrl,resources/DY.BMP,resources/DR.BMP,Door3,-0.338671875,-0.020638021,1,0,0,1.1308,optionLeft,70,5890,3,18,0,18,0,1,,,,,,,,,,,,,,,,,,,,,,,,,,,,,,,,,,,,,,,
,,,,,,,,2023-08-16_08h49.19.478,HF_wild_card,2022.2.4,MacIntel,59.99880002,5bfe7267098e7a00016a4058,64d2fd46c836a06233681665,64dc7f6c99fcc0f466f02f8d,,,,,,,sngl,resources/DBN.BMP,resources/Empty.png,Door2,-0.287365451,-0.040329861,1,0,0,0.9272,optionLeft,40,5930,3,19,0,19,0,1,,,,,,,,,,,,,,,,,,,,,,,,,,,,,,,,,,,,,,,
,,,,,,,,2023-08-16_08h49.19.478,HF_wild_card,2022.2.4,MacIntel,59.99880002,5bfe7267098e7a00016a4058,64d2fd46c836a06233681665,64dc7f6c99fcc0f466f02f8d,,,,,,,decisionTrl,resources/DR.BMP,resources/DP.BMP,Door4,-0.343003472,-0.043602431,1,0,0,2.0774,optionLeft,80,6010,3,20,0,20,0,1,,,,,,,,,,,,,,,,,,,,,,,,,,,,,,,,,,,,,,,
,,,,,,,,2023-08-16_08h49.19.478,HF_wild_card,2022.2.4,MacIntel,59.99880002,5bfe7267098e7a00016a4058,64d2fd46c836a06233681665,64dc7f6c99fcc0f466f02f8d,,,,,,,decisionTrl,resources/DP.BMP,resources/DR.BMP,Door4,0.37968316,-0.093676215,1,0,0,1.5282,optionRight,80,6090,3,21,0,21,0,1,,,,,,,,,,,,,,,,,,,,,,,,,,,,,,,,,,,,,,,
,,,,,,,,2023-08-16_08h49.19.478,HF_wild_card,2022.2.4,MacIntel,59.99880002,5bfe7267098e7a00016a4058,64d2fd46c836a06233681665,64dc7f6c99fcc0f466f02f8d,,,,,,,decisionTrl,resources/DR.BMP,resources/DY.BMP,Door3,0.314457465,-0.061679687,1,0,0,1.6961,optionRight,70,6160,3,22,0,22,0,1,,,,,,,,,,,,,,,,,,,,,,,,,,,,,,,,,,,,,,,
,,,,,,,,2023-08-16_08h49.19.478,HF_wild_card,2022.2.4,MacIntel,59.99880002,5bfe7267098e7a00016a4058,64d2fd46c836a06233681665,64dc7f6c99fcc0f466f02f8d,,,,,,,decisionTrl,resources/DBN.BMP,resources/DP.BMP,WildCard_NonEx,0.317434896,-0.079778646,1,0,0,1.1969,optionRight,45,6205,3,23,0,23,0,1,,,,,,,,,,,,,,,,,,,,,,,,,,,,,,,,,,,,,,,
,,,,,,,,2023-08-16_08h49.19.478,HF_wild_card,2022.2.4,MacIntel,59.99880002,5bfe7267098e7a00016a4058,64d2fd46c836a06233681665,64dc7f6c99fcc0f466f02f8d,,,,,,,decisionTrl,resources/DP.BMP,resources/DY.BMP,Door3,0.412638889,-0.061883681,1,0,0,1.2122,optionRight,70,6275,3,24,0,24,0,1,,,,,,,,,,,,,,,,,,,,,,,,,,,,,,,,,,,,,,,
,,,,,,,,2023-08-16_08h49.19.478,HF_wild_card,2022.2.4,MacIntel,59.99880002,5bfe7267098e7a00016a4058,64d2fd46c836a06233681665,64dc7f6c99fcc0f466f02f8d,,,,,,,decisionTrl,resources/DR.BMP,resources/DY.BMP,Door3,0.409357639,-0.048172743,1,0,0,0.896,optionRight,70,6345,3,25,0,25,0,1,,,,,,,,,,,,,,,,,,,,,,,,,,,,,,,,,,,,,,,
,,,,,,,,2023-08-16_08h49.19.478,HF_wild_card,2022.2.4,MacIntel,59.99880002,5bfe7267098e7a00016a4058,64d2fd46c836a06233681665,64dc7f6c99fcc0f466f02f8d,,,,,,,decisionTrl,resources/DP.BMP,resources/DB.BMP,WildCard_NonEx,-0.336471354,-0.041271701,1,0,0,1.1776,optionLeft,45,6390,3,26,0,26,0,1,,,,,,,,,,,,,,,,,,,,,,,,,,,,,,,,,,,,,,,
,,,,,,,,2023-08-16_08h49.19.478,HF_wild_card,2022.2.4,MacIntel,59.99880002,5bfe7267098e7a00016a4058,64d2fd46c836a06233681665,64dc7f6c99fcc0f466f02f8d,,,,,,,decisionTrl,resources/DY.BMP,resources/DP.BMP,Door3,-0.319735243,-0.06218316,1,0,0,1.7625,optionLeft,70,6460,3,27,0,27,0,1,,,,,,,,,,,,,,,,,,,,,,,,,,,,,,,,,,,,,,,
,,,,,,,,2023-08-16_08h49.19.478,HF_wild_card,2022.2.4,MacIntel,59.99880002,5bfe7267098e7a00016a4058,64d2fd46c836a06233681665,64dc7f6c99fcc0f466f02f8d,,,,,,,ctch,resources/DB.BMP,resources/DR.BMP,Door4,0.337894965,-0.061019965,1,0,0,1.8298,optionRight,60,6520,3,28,0,28,0,1,,,,,,,,,,,,,,,,,,,,,,,,,,,,,,,,,,,,,,,
,,,,,,,,2023-08-16_08h49.19.478,HF_wild_card,2022.2.4,MacIntel,59.99880002,5bfe7267098e7a00016a4058,64d2fd46c836a06233681665,64dc7f6c99fcc0f466f02f8d,,,,,,,ctch,resources/DY.BMP,resources/DBN.BMP,Door3,-0.312907986,-0.049440104,1,0,0,0.8796,optionLeft,70,6590,3,29,0,29,0,1,,,,,,,,,,,,,,,,,,,,,,,,,,,,,,,,,,,,,,,
,,,,,,,,2023-08-16_08h49.19.478,HF_wild_card,2022.2.4,MacIntel,59.99880002,5bfe7267098e7a00016a4058,64d2fd46c836a06233681665,64dc7f6c99fcc0f466f02f8d,,,,,,,sngl,resources/DR.BMP,resources/Empty.png,Door4,-0.29937934,-0.046801215,1,0,0,1.3278,optionLeft,80,6670,3,30,0,30,0,1,,,,,,,,,,,,,,,,,,,,,,,,,,,,,,,,,,,,,,,
,,,,,,,,2023-08-16_08h49.19.478,HF_wild_card,2022.2.4,MacIntel,59.99880002,5bfe7267098e7a00016a4058,64d2fd46c836a06233681665,64dc7f6c99fcc0f466f02f8d,,,,,,,sngl,resources/DB.BMP,resources/Empty.png,Door1,-0.402018229,-0.105134549,1,0,0,0.9132,optionLeft,30,6700,3,31,0,31,0,1,,,,,,,,,,,,,,,,,,,,,,,,,,,,,,,,,,,,,,,
,,,,,,,,2023-08-16_08h49.19.478,HF_wild_card,2022.2.4,MacIntel,59.99880002,5bfe7267098e7a00016a4058,64d2fd46c836a06233681665,64dc7f6c99fcc0f466f02f8d,,,,,,,sngl,resources/Empty.png,resources/DBN.BMP,Door2,0.313936632,-0.049414063,1,0,0,1.2304,optionRight,20,6720,3,32,0,32,0,1,,,,,,,,,,,,,,,,,,,,,,,,,,,,,,,,,,,,,,,
,,,,,,,,2023-08-16_08h49.19.478,HF_wild_card,2022.2.4,MacIntel,59.99880002,5bfe7267098e7a00016a4058,64d2fd46c836a06233681665,64dc7f6c99fcc0f466f02f8d,,,,,,,decisionTrl,resources/DBN.BMP,resources/DB.BMP,Door1,0.302990451,-0.073559028,1,0,0,1.1947,optionRight,30,6750,3,33,0,33,0,1,,,,,,,,,,,,,,,,,,,,,,,,,,,,,,,,,,,,,,,
,,,,,,,,2023-08-16_08h49.19.478,HF_wild_card,2022.2.4,MacIntel,59.99880002,5bfe7267098e7a00016a4058,64d2fd46c836a06233681665,64dc7f6c99fcc0f466f02f8d,,,,,,,decisionTrl,resources/DY.BMP,resources/DR.BMP,Door3,-0.304626736,-0.022144097,1,0,0,1.0443,optionLeft,70,6820,3,34,0,34,0,1,,,,,,,,,,,,,,,,,,,,,,,,,,,,,,,,,,,,,,,
,,,,,,,,2023-08-16_08h49.19.478,HF_wild_card,2022.2.4,MacIntel,59.99880002,5bfe7267098e7a00016a4058,64d2fd46c836a06233681665,64dc7f6c99fcc0f466f02f8d,,,,,,,decisionTrl,resources/DP.BMP,resources/DBN.BMP,WildCard_NonEx,-0.298159722,-0.066792535,1,0,0,1.2128,optionLeft,45,6865,3,35,0,35,0,1,,,,,,,,,,,,,,,,,,,,,,,,,,,,,,,,,,,,,,,
,,,,,,,,2023-08-16_08h49.19.478,HF_wild_card,2022.2.4,MacIntel,59.99880002,5bfe7267098e7a00016a4058,64d2fd46c836a06233681665,64dc7f6c99fcc0f466f02f8d,,,,,,,decisionTrl,resources/DR.BMP,resources/DY.BMP,Door3,0.373289931,-0.081992187,1,0,0,1.5471,optionRight,70,6935,3,36,0,36,0,1,,,,,,,,,,,,,,,,,,,,,,,,,,,,,,,,,,,,,,,
,,,,,,,,2023-08-16_08h49.19.478,HF_wild_card,2022.2.4,MacIntel,59.99880002,5bfe7267098e7a00016a4058,64d2fd46c836a06233681665,64dc7f6c99fcc0f466f02f8d,,,,,,,sngl,resources/Empty.png,resources/DP.BMP,WildCard_NonEx,0.365820313,-0.064635417,1,0,0,1.0285,optionRight,45,6980,3,37,0,37,0,1,,,,,,,,,,,,,,,,,,,,,,,,,,,,,,,,,,,,,,,
,,,,,,,,2023-08-16_08h49.19.478,HF_wild_card,2022.2.4,MacIntel,59.99880002,5bfe7267098e7a00016a4058,64d2fd46c836a06233681665,64dc7f6c99fcc0f466f02f8d,,,,,,,decisionTrl,resources/DB.BMP,resources/DBN.BMP,Door1,-0.305117187,-0.025399306,1,0,0,1.079,optionLeft,30,7010,3,38,0,38,0,1,,,,,,,,,,,,,,,,,,,,,,,,,,,,,,,,,,,,,,,
,,,,,,,,2023-08-16_08h49.19.478,HF_wild_card,2022.2.4,MacIntel,59.99880002,5bfe7267098e7a00016a4058,64d2fd46c836a06233681665,64dc7f6c99fcc0f466f02f8d,,,,,,,sngl,resources/DP.BMP,resources/Empty.png,WildCard_NonEx,-0.279084201,-0.039565972,1,0,0,0.8783,optionLeft,45,7055,3,39,0,39,0,1,,,,,,,,,,,,,,,,,,,,,,,,,,,,,,,,,,,,,,,
,,,,,,,,2023-08-16_08h49.19.478,HF_wild_card,2022.2.4,MacIntel,59.99880002,5bfe7267098e7a00016a4058,64d2fd46c836a06233681665,64dc7f6c99fcc0f466f02f8d,,,,,,,decisionTrl,resources/DR.BMP,resources/DY.BMP,Door3,0.416462674,-0.059431424,1,0,0,1.0772,optionRight,70,7125,3,40,0,40,0,1,,,,,,,,,,,,,,,,,,,,,,,,,,,,,,,,,,,,,,,
,,,,,,,,2023-08-16_08h49.19.478,HF_wild_card,2022.2.4,MacIntel,59.99880002,5bfe7267098e7a00016a4058,64d2fd46c836a06233681665,64dc7f6c99fcc0f466f02f8d,,,,,,,sngl,resources/Empty.png,resources/DP.BMP,WildCard_NonEx,0.387391493,-0.062868924,1,0,0,0.9104,optionRight,55,7180,3,41,0,41,0,1,,,,,,,,,,,,,,,,,,,,,,,,,,,,,,,,,,,,,,,
,,,,,,,,2023-08-16_08h49.19.478,HF_wild_card,2022.2.4,MacIntel,59.99880002,5bfe7267098e7a00016a4058,64d2fd46c836a06233681665,64dc7f6c99fcc0f466f02f8d,,,,,,,sngl,resources/Empty.png,resources/DR.BMP,Door4,0.453602431,-0.032955729,1,0,0,1.1288,optionRight,60,7240,3,42,0,42,0,1,,,,,,,,,,,,,,,,,,,,,,,,,,,,,,,,,,,,,,,
,,,,,,,,2023-08-16_08h49.19.478,HF_wild_card,2022.2.4,MacIntel,59.99880002,5bfe7267098e7a00016a4058,64d2fd46c836a06233681665,64dc7f6c99fcc0f466f02f8d,,,,,,,ctch,resources/DBN.BMP,resources/DY.BMP,Door3,0.342439236,-0.07249566,1,0,0,0.9952,optionRight,70,7310,3,43,0,43,0,1,,,,,,,,,,,,,,,,,,,,,,,,,,,,,,,,,,,,,,,
,,,,,,,,2023-08-16_08h49.19.478,HF_wild_card,2022.2.4,MacIntel,59.99880002,5bfe7267098e7a00016a4058,64d2fd46c836a06233681665,64dc7f6c99fcc0f466f02f8d,,,,,,,,,,,,,,,,,,,,,,,,,,2,0,2,0,1,,,,,,,,,,,,,,,,,,,,,,,,,,,,,,,,,,
,,,,,,,,2023-08-16_08h49.19.478,HF_wild_card,2022.2.4,MacIntel,59.99880002,5bfe7267098e7a00016a4058,64d2fd46c836a06233681665,64dc7f6c99fcc0f466f02f8d,,,,,,,ctch,resources/DB.BMP,resources/DR.BMP,Door4,0.417417535,-0.135286458,1,0,0,2.3345,optionRight,60,7370,4,0,0,0,0,1,,,,,,,,,,,,,,,,,,,,,,,,,,,,,,,,,,,,,,,
,,,,,,,,2023-08-16_08h49.19.478,HF_wild_card,2022.2.4,MacIntel,59.99880002,5bfe7267098e7a00016a4058,64d2fd46c836a06233681665,64dc7f6c99fcc0f466f02f8d,,,,,,,ctch,resources/DY.BMP,resources/DBN.BMP,Door3,-0.258355035,-0.047947049,1,0,0,1.0123,optionLeft,70,7440,4,1,0,1,0,1,,,,,,,,,,,,,,,,,,,,,,,,,,,,,,,,,,,,,,,
,,,,,,,,2023-08-16_08h49.19.478,HF_wild_card,2022.2.4,MacIntel,59.99880002,5bfe7267098e7a00016a4058,64d2fd46c836a06233681665,64dc7f6c99fcc0f466f02f8d,,,,,,,decisionTrl,resources/DY.BMP,resources/DR.BMP,Door3,-0.330438368,-0.07219184,1,0,0,1.1948,optionLeft,70,7510,4,2,0,2,0,1,,,,,,,,,,,,,,,,,,,,,,,,,,,,,,,,,,,,,,,
,,,,,,,,2023-08-16_08h49.19.478,HF_wild_card,2022.2.4,MacIntel,59.99880002,5bfe7267098e7a00016a4058,64d2fd46c836a06233681665,64dc7f6c99fcc0f466f02f8d,,,,,,,decisionTrl,resources/DY.BMP,resources/DR.BMP,Door3,-0.330664063,-0.073945312,1,0,0,0.9454,optionLeft,70,7580,4,3,0,3,0,1,,,,,,,,,,,,,,,,,,,,,,,,,,,,,,,,,,,,,,,
,,,,,,,,2023-08-16_08h49.19.478,HF_wild_card,2022.2.4,MacIntel,59.99880002,5bfe7267098e7a00016a4058,64d2fd46c836a06233681665,64dc7f6c99fcc0f466f02f8d,,,,,,,decisionTrl,resources/DB.BMP,resources/DBN.BMP,Door1,-0.325212674,-0.040182292,1,0,0,1.3452,optionLeft,30,7610,4,4,0,4,0,1,,,,,,,,,,,,,,,,,,,,,,,,,,,,,,,,,,,,,,,
,,,,,,,,2023-08-16_08h49.19.478,HF_wild_card,2022.2.4,MacIntel,59.99880002,5bfe7267098e7a00016a4058,64d2fd46c836a06233681665,64dc7f6c99fcc0f466f02f8d,,,,,,,decisionTrl,resources/DB.BMP,resources/DBN.BMP,Door1,-0.326015625,-0.049665799,1,0,0,0.9454,optionLeft,30,7640,4,5,0,5,0,1,,,,,,,,,,,,,,,,,,,,,,,,,,,,,,,,,,,,,,,
,,,,,,,,2023-08-16_08h49.19.478,HF_wild_card,2022.2.4,MacIntel,59.99880002,5bfe7267098e7a00016a4058,64d2fd46c836a06233681665,64dc7f6c99fcc0f466f02f8d,,,,,,,decisionTrl,resources/DG.BMP,resources/DB.BMP,WildCard_Ex,-0.39328125,-0.025060764,1,0,0,1.6113,optionLeft,5,7645,4,6,0,6,0,1,,,,,,,,,,,,,,,,,,,,,,,,,,,,,,,,,,,,,,,
,,,,,,,,2023-08-16_08h49.19.478,HF_wild_card,2022.2.4,MacIntel,59.99880002,5bfe7267098e7a00016a4058,64d2fd46c836a06233681665,64dc7f6c99fcc0f466f02f8d,,,,,,,sngl,resources/DY.BMP,resources/Empty.png,Door3,-0.333107639,-0.055260417,1,0,0,0.8437,optionLeft,70,7715,4,7,0,7,0,1,,,,,,,,,,,,,,,,,,,,,,,,,,,,,,,,,,,,,,,
,,,,,,,,2023-08-16_08h49.19.478,HF_wild_card,2022.2.4,MacIntel,59.99880002,5bfe7267098e7a00016a4058,64d2fd46c836a06233681665,64dc7f6c99fcc0f466f02f8d,,,,,,,decisionTrl,resources/DBN.BMP,resources/DB.BMP,Door1,0.41515625,-0.034084201,1,0,0,0.9289,optionRight,30,7745,4,8,0,8,0,1,,,,,,,,,,,,,,,,,,,,,,,,,,,,,,,,,,,,,,,
,,,,,,,,2023-08-16_08h49.19.478,HF_wild_card,2022.2.4,MacIntel,59.99880002,5bfe7267098e7a00016a4058,64d2fd46c836a06233681665,64dc7f6c99fcc0f466f02f8d,,,,,,,ctch,resources/DR.BMP,resources/DB.BMP,Door4,-0.361532118,-0.039704861,1,0,0,1.1964,optionLeft,80,7825,4,9,0,9,0,1,,,,,,,,,,,,,,,,,,,,,,,,,,,,,,,,,,,,,,,
,,,,,,,,2023-08-16_08h49.19.478,HF_wild_card,2022.2.4,MacIntel,59.99880002,5bfe7267098e7a00016a4058,64d2fd46c836a06233681665,64dc7f6c99fcc0f466f02f8d,,,,,,,decisionTrl,resources/DY.BMP,resources/DG.BMP,Door3,-0.306497396,-0.037222222,1,0,0,1.4445,optionLeft,70,7895,4,10,0,10,0,1,,,,,,,,,,,,,,,,,,,,,,,,,,,,,,,,,,,,,,,
,,,,,,,,2023-08-16_08h49.19.478,HF_wild_card,2022.2.4,MacIntel,59.99880002,5bfe7267098e7a00016a4058,64d2fd46c836a06233681665,64dc7f6c99fcc0f466f02f8d,,,,,,,sngl,resources/DG.BMP,resources/Empty.png,WildCard_Ex,-0.27124566,-0.044726562,1,0,0,1.0287,optionLeft,95,7990,4,11,0,11,0,1,,,,,,,,,,,,,,,,,,,,,,,,,,,,,,,,,,,,,,,
,,,,,,,,2023-08-16_08h49.19.478,HF_wild_card,2022.2.4,MacIntel,59.99880002,5bfe7267098e7a00016a4058,64d2fd46c836a06233681665,64dc7f6c99fcc0f466f02f8d,,,,,,,decisionTrl,resources/DY.BMP,resources/DR.BMP,Door3,-0.310121528,-0.053819444,1,0,0,2.0114,optionLeft,70,8060,4,12,0,12,0,1,,,,,,,,,,,,,,,,,,,,,,,,,,,,,,,,,,,,,,,
,,,,,,,,2023-08-16_08h49.19.478,HF_wild_card,2022.2.4,MacIntel,59.99880002,5bfe7267098e7a00016a4058,64d2fd46c836a06233681665,64dc7f6c99fcc0f466f02f8d,,,,,,,sngl,resources/Empty.png,resources/DG.BMP,WildCard_Ex,0.367261285,-0.042352431,1,0,0,1.1622,optionRight,5,8065,4,13,0,13,0,1,,,,,,,,,,,,,,,,,,,,,,,,,,,,,,,,,,,,,,,
,,,,,,,,2023-08-16_08h49.19.478,HF_wild_card,2022.2.4,MacIntel,59.99880002,5bfe7267098e7a00016a4058,64d2fd46c836a06233681665,64dc7f6c99fcc0f466f02f8d,,,,,,,decisionTrl,resources/DR.BMP,resources/DY.BMP,Door3,0.468732639,-0.030069444,1,0,0,2.5402,optionRight,70,8135,4,14,0,14,0,1,,,,,,,,,,,,,,,,,,,,,,,,,,,,,,,,,,,,,,,
,,,,,,,,2023-08-16_08h49.19.478,HF_wild_card,2022.2.4,MacIntel,59.99880002,5bfe7267098e7a00016a4058,64d2fd46c836a06233681665,64dc7f6c99fcc0f466f02f8d,,,,,,,decisionTrl,resources/DBN.BMP,resources/DB.BMP,Door1,0.399756944,-0.023606771,1,0,0,1.0109,optionRight,30,8165,4,15,0,15,0,1,,,,,,,,,,,,,,,,,,,,,,,,,,,,,,,,,,,,,,,
,,,,,,,,2023-08-16_08h49.19.478,HF_wild_card,2022.2.4,MacIntel,59.99880002,5bfe7267098e7a00016a4058,64d2fd46c836a06233681665,64dc7f6c99fcc0f466f02f8d,,,,,,,decisionTrl,resources/DG.BMP,resources/DR.BMP,WildCard_Ex,-0.413550347,-0.055577257,1,0,0,2.2646,optionLeft,95,8260,4,16,0,16,0,1,,,,,,,,,,,,,,,,,,,,,,,,,,,,,,,,,,,,,,,
,,,,,,,,2023-08-16_08h49.19.478,HF_wild_card,2022.2.4,MacIntel,59.99880002,5bfe7267098e7a00016a4058,64d2fd46c836a06233681665,64dc7f6c99fcc0f466f02f8d,,,,,,,decisionTrl,resources/DB.BMP,resources/DBN.BMP,Door1,-0.347860243,-0.041618924,1,0,0,1.0453,optionLeft,30,8290,4,17,0,17,0,1,,,,,,,,,,,,,,,,,,,,,,,,,,,,,,,,,,,,,,,
,,,,,,,,2023-08-16_08h49.19.478,HF_wild_card,2022.2.4,MacIntel,59.99880002,5bfe7267098e7a00016a4058,64d2fd46c836a06233681665,64dc7f6c99fcc0f466f02f8d,,,,,,,sngl,resources/DB.BMP,resources/Empty.png,Door1,-0.343580729,-0.033424479,1,0,0,0.9429,optionLeft,30,8320,4,18,0,18,0,1,,,,,,,,,,,,,,,,,,,,,,,,,,,,,,,,,,,,,,,
,,,,,,,,2023-08-16_08h49.19.478,HF_wild_card,2022.2.4,MacIntel,59.99880002,5bfe7267098e7a00016a4058,64d2fd46c836a06233681665,64dc7f6c99fcc0f466f02f8d,,,,,,,decisionTrl,resources/DB.BMP,resources/DG.BMP,Door1,-0.335967882,-0.029045139,1,0,0,2.3146,optionLeft,30,8350,4,19,0,19,0,1,,,,,,,,,,,,,,,,,,,,,,,,,,,,,,,,,,,,,,,
,,,,,,,,2023-08-16_08h49.19.478,HF_wild_card,2022.2.4,MacIntel,59.99880002,5bfe7267098e7a00016a4058,64d2fd46c836a06233681665,64dc7f6c99fcc0f466f02f8d,,,,,,,ctch,resources/DR.BMP,resources/DB.BMP,Door4,-0.375164931,-0.05359375,1,0,0,2.0789,optionLeft,60,8410,4,20,0,20,0,1,,,,,,,,,,,,,,,,,,,,,,,,,,,,,,,,,,,,,,,
,,,,,,,,2023-08-16_08h49.19.478,HF_wild_card,2022.2.4,MacIntel,59.99880002,5bfe7267098e7a00016a4058,64d2fd46c836a06233681665,64dc7f6c99fcc0f466f02f8d,,,,,,,decisionTrl,resources/DR.BMP,resources/DY.BMP,Door3,0.356011285,-0.028133681,1,0,0,1.3782,optionRight,70,8480,4,21,0,21,0,1,,,,,,,,,,,,,,,,,,,,,,,,,,,,,,,,,,,,,,,
,,,,,,,,2023-08-16_08h49.19.478,HF_wild_card,2022.2.4,MacIntel,59.99880002,5bfe7267098e7a00016a4058,64d2fd46c836a06233681665,64dc7f6c99fcc0f466f02f8d,,,,,,,sngl,resources/Empty.png,resources/DG.BMP,WildCard_Ex,0.403832465,-0.031341146,1,0,0,0.8623,optionRight,95,8575,4,22,0,22,0,1,,,,,,,,,,,,,,,,,,,,,,,,,,,,,,,,,,,,,,,
,,,,,,,,2023-08-16_08h49.19.478,HF_wild_card,2022.2.4,MacIntel,59.99880002,5bfe7267098e7a00016a4058,64d2fd46c836a06233681665,64dc7f6c99fcc0f466f02f8d,,,,,,,decisionTrl,resources/DR.BMP,resources/DY.BMP,Door3,0.390855035,-0.019665799,1,0,0,1.4284,optionRight,70,8645,4,23,0,23,0,1,,,,,,,,,,,,,,,,,,,,,,,,,,,,,,,,,,,,,,,
,,,,,,,,2023-08-16_08h49.19.478,HF_wild_card,2022.2.4,MacIntel,59.99880002,5bfe7267098e7a00016a4058,64d2fd46c836a06233681665,64dc7f6c99fcc0f466f02f8d,,,,,,,sngl,resources/Empty.png,resources/DBN.BMP,Door2,0.361475694,-0.044574653,1,0,0,0.9952,optionRight,40,8685,4,24,0,24,0,1,,,,,,,,,,,,,,,,,,,,,,,,,,,,,,,,,,,,,,,
,,,,,,,,2023-08-16_08h49.19.478,HF_wild_card,2022.2.4,MacIntel,59.99880002,5bfe7267098e7a00016a4058,64d2fd46c836a06233681665,64dc7f6c99fcc0f466f02f8d,,,,,,,decisionTrl,resources/DBN.BMP,resources/DG.BMP,Door2,-0.318489583,-0.034353299,1,0,0,3.9953,optionLeft,20,8705,4,25,0,25,0,1,,,,,,,,,,,,,,,,,,,,,,,,,,,,,,,,,,,,,,,
,,,,,,,,2023-08-16_08h49.19.478,HF_wild_card,2022.2.4,MacIntel,59.99880002,5bfe7267098e7a00016a4058,64d2fd46c836a06233681665,64dc7f6c99fcc0f466f02f8d,,,,,,,decisionTrl,resources/DB.BMP,resources/DBN.BMP,Door1,-0.347955729,-0.058255208,1,0,0,1.3607,optionLeft,30,8735,4,26,0,26,0,1,,,,,,,,,,,,,,,,,,,,,,,,,,,,,,,,,,,,,,,
,,,,,,,,2023-08-16_08h49.19.478,HF_wild_card,2022.2.4,MacIntel,59.99880002,5bfe7267098e7a00016a4058,64d2fd46c836a06233681665,64dc7f6c99fcc0f466f02f8d,,,,,,,ctch,resources/DBN.BMP,resources/DY.BMP,Door3,0.459895833,-0.041979167,1,0,0,1.0776,optionRight,70,8805,4,27,0,27,0,1,,,,,,,,,,,,,,,,,,,,,,,,,,,,,,,,,,,,,,,
,,,,,,,,2023-08-16_08h49.19.478,HF_wild_card,2022.2.4,MacIntel,59.99880002,5bfe7267098e7a00016a4058,64d2fd46c836a06233681665,64dc7f6c99fcc0f466f02f8d,,,,,,,ctch,resources/DY.BMP,resources/DBN.BMP,Door3,-0.339965278,-0.056332465,1,0,0,1.0428,optionLeft,70,8875,4,28,0,28,0,1,,,,,,,,,,,,,,,,,,,,,,,,,,,,,,,,,,,,,,,
,,,,,,,,2023-08-16_08h49.19.478,HF_wild_card,2022.2.4,MacIntel,59.99880002,5bfe7267098e7a00016a4058,64d2fd46c836a06233681665,64dc7f6c99fcc0f466f02f8d,,,,,,,ctch,resources/DBN.BMP,resources/DY.BMP,Door3,0.348628472,-0.027730035,1,0,0,0.9445,optionRight,70,8945,4,29,0,29,0,1,,,,,,,,,,,,,,,,,,,,,,,,,,,,,,,,,,,,,,,
,,,,,,,,2023-08-16_08h49.19.478,HF_wild_card,2022.2.4,MacIntel,59.99880002,5bfe7267098e7a00016a4058,64d2fd46c836a06233681665,64dc7f6c99fcc0f466f02f8d,,,,,,,decisionTrl,resources/DR.BMP,resources/DG.BMP,WildCard_Ex,0.351219618,-0.027009549,1,0,0,1.3775,optionRight,5,8950,4,30,0,30,0,1,,,,,,,,,,,,,,,,,,,,,,,,,,,,,,,,,,,,,,,
,,,,,,,,2023-08-16_08h49.19.478,HF_wild_card,2022.2.4,MacIntel,59.99880002,5bfe7267098e7a00016a4058,64d2fd46c836a06233681665,64dc7f6c99fcc0f466f02f8d,,,,,,,decisionTrl,resources/DG.BMP,resources/DY.BMP,WildCard_Ex,-0.361215278,-0.040494792,1,0,0,0.8957,optionLeft,95,9045,4,31,0,31,0,1,,,,,,,,,,,,,,,,,,,,,,,,,,,,,,,,,,,,,,,
,,,,,,,,2023-08-16_08h49.19.478,HF_wild_card,2022.2.4,MacIntel,59.99880002,5bfe7267098e7a00016a4058,64d2fd46c836a06233681665,64dc7f6c99fcc0f466f02f8d,,,,,,,decisionTrl,resources/DBN.BMP,resources/DB.BMP,Door1,0.411341146,-0.032161458,1,0,0,1.0131,optionRight,30,9075,4,32,0,32,0,1,,,,,,,,,,,,,,,,,,,,,,,,,,,,,,,,,,,,,,,
,,,,,,,,2023-08-16_08h49.19.478,HF_wild_card,2022.2.4,MacIntel,59.99880002,5bfe7267098e7a00016a4058,64d2fd46c836a06233681665,64dc7f6c99fcc0f466f02f8d,,,,,,,sngl,resources/Empty.png,resources/DR.BMP,Door4,0.333546007,-0.038098958,1,0,0,0.944,optionRight,80,9155,4,33,0,33,0,1,,,,,,,,,,,,,,,,,,,,,,,,,,,,,,,,,,,,,,,
,,,,,,,,2023-08-16_08h49.19.478,HF_wild_card,2022.2.4,MacIntel,59.99880002,5bfe7267098e7a00016a4058,64d2fd46c836a06233681665,64dc7f6c99fcc0f466f02f8d,,,,,,,sngl,resources/DR.BMP,resources/Empty.png,Door4,-0.332447917,-0.050390625,1,0,0,1.0787,optionLeft,60,9215,4,34,0,34,0,1,,,,,,,,,,,,,,,,,,,,,,,,,,,,,,,,,,,,,,,
,,,,,,,,2023-08-16_08h49.19.478,HF_wild_card,2022.2.4,MacIntel,59.99880002,5bfe7267098e7a00016a4058,64d2fd46c836a06233681665,64dc7f6c99fcc0f466f02f8d,,,,,,,decisionTrl,resources/DY.BMP,resources/DR.BMP,Door3,-0.408072917,-0.029865451,1,0,0,2.66,optionLeft,70,9285,4,35,0,35,0,1,,,,,,,,,,,,,,,,,,,,,,,,,,,,,,,,,,,,,,,
,,,,,,,,2023-08-16_08h49.19.478,HF_wild_card,2022.2.4,MacIntel,59.99880002,5bfe7267098e7a00016a4058,64d2fd46c836a06233681665,64dc7f6c99fcc0f466f02f8d,,,,,,,sngl,resources/DBN.BMP,resources/Empty.png,Door2,-0.33327691,-0.025190972,1,0,0,0.9623,optionLeft,20,9305,4,36,0,36,0,1,,,,,,,,,,,,,,,,,,,,,,,,,,,,,,,,,,,,,,,
,,,,,,,,2023-08-16_08h49.19.478,HF_wild_card,2022.2.4,MacIntel,59.99880002,5bfe7267098e7a00016a4058,64d2fd46c836a06233681665,64dc7f6c99fcc0f466f02f8d,,,,,,,sngl,resources/Empty.png,resources/DY.BMP,Door3,0.408359375,-0.028289931,1,0,0,1.878,optionRight,70,9375,4,37,0,37,0,1,,,,,,,,,,,,,,,,,,,,,,,,,,,,,,,,,,,,,,,
,,,,,,,,2023-08-16_08h49.19.478,HF_wild_card,2022.2.4,MacIntel,59.99880002,5bfe7267098e7a00016a4058,64d2fd46c836a06233681665,64dc7f6c99fcc0f466f02f8d,,,,,,,decisionTrl,resources/DG.BMP,resources/DBN.BMP,WildCard_Ex,-0.305855035,-0.031749132,1,0,0,1.428,optionLeft,5,9380,4,38,0,38,0,1,,,,,,,,,,,,,,,,,,,,,,,,,,,,,,,,,,,,,,,
,,,,,,,,2023-08-16_08h49.19.478,HF_wild_card,2022.2.4,MacIntel,59.99880002,5bfe7267098e7a00016a4058,64d2fd46c836a06233681665,64dc7f6c99fcc0f466f02f8d,,,,,,,ctch,resources/DB.BMP,resources/DR.BMP,Door4,0.355321181,-0.090008681,1,0,0,1.7786,optionRight,60,9440,4,39,0,39,0,1,,,,,,,,,,,,,,,,,,,,,,,,,,,,,,,,,,,,,,,
,,,,,,,,2023-08-16_08h49.19.478,HF_wild_card,2022.2.4,MacIntel,59.99880002,5bfe7267098e7a00016a4058,64d2fd46c836a06233681665,64dc7f6c99fcc0f466f02f8d,,,,,,,decisionTrl,resources/DBN.BMP,resources/DB.BMP,Door1,0.404401042,-0.055203993,1,0,0,1.0125,optionRight,30,9470,4,40,0,40,0,1,,,,,,,,,,,,,,,,,,,,,,,,,,,,,,,,,,,,,,,
,,,,,,,,2023-08-16_08h49.19.478,HF_wild_card,2022.2.4,MacIntel,59.99880002,5bfe7267098e7a00016a4058,64d2fd46c836a06233681665,64dc7f6c99fcc0f466f02f8d,,,,,,,sngl,resources/Empty.png,resources/DB.BMP,Door1,0.382825521,-0.031818576,1,0,0,0.8944,optionRight,30,9500,4,41,0,41,0,1,,,,,,,,,,,,,,,,,,,,,,,,,,,,,,,,,,,,,,,
,,,,,,,,2023-08-16_08h49.19.478,HF_wild_card,2022.2.4,MacIntel,59.99880002,5bfe7267098e7a00016a4058,64d2fd46c836a06233681665,64dc7f6c99fcc0f466f02f8d,,,,,,,decisionTrl,resources/DR.BMP,resources/DY.BMP,Door3,0.368103299,-0.052994792,1,0,0,1.9325,optionRight,70,9570,4,42,0,42,0,1,,,,,,,,,,,,,,,,,,,,,,,,,,,,,,,,,,,,,,,
,,,,,,,,2023-08-16_08h49.19.478,HF_wild_card,2022.2.4,MacIntel,59.99880002,5bfe7267098e7a00016a4058,64d2fd46c836a06233681665,64dc7f6c99fcc0f466f02f8d,,,,,,,sngl,resources/DG.BMP,resources/Empty.png,WildCard_Ex,-0.30687934,-0.035264757,1,0,0,1.0292,optionLeft,5,9575,4,43,0,43,0,1,,,,,,,,,,,,,,,,,,,,,,,,,,,,,,,,,,,,,,,
,,,,,,,,2023-08-16_08h49.19.478,HF_wild_card,2022.2.4,MacIntel,59.99880002,5bfe7267098e7a00016a4058,64d2fd46c836a06233681665,64dc7f6c99fcc0f466f02f8d,,,,,,,,,,,,,,,,,,,,,,,,,,3,0,3,0,1,,,,,,,,,,,,,,,,,,,,,,,,,,,,,,,,,,
,,,,,,,,2023-08-16_08h49.19.478,HF_wild_card,2022.2.4,MacIntel,59.99880002,5bfe7267098e7a00016a4058,64d2fd46c836a06233681665,64dc7f6c99fcc0f466f02f8d,,,,,,,decisionTrl,resources/DR.BMP,resources/DY.BMP,Door3,0.462048611,-0.101571181,1,0,0,2.3501,optionRight,70,9645,5,0,0,0,0,1,,,,,,,,,,,,,,,,,,,,,,,,,,,,,,,,,,,,,,,
,,,,,,,,2023-08-16_08h49.19.478,HF_wild_card,2022.2.4,MacIntel,59.99880002,5bfe7267098e7a00016a4058,64d2fd46c836a06233681665,64dc7f6c99fcc0f466f02f8d,,,,,,,sngl,resources/DB.BMP,resources/Empty.png,Door1,-0.303038194,-0.056106771,1,0,0,1.0287,optionLeft,30,9675,5,1,0,1,0,1,,,,,,,,,,,,,,,,,,,,,,,,,,,,,,,,,,,,,,,
,,,,,,,,2023-08-16_08h49.19.478,HF_wild_card,2022.2.4,MacIntel,59.99880002,5bfe7267098e7a00016a4058,64d2fd46c836a06233681665,64dc7f6c99fcc0f466f02f8d,,,,,,,decisionTrl,resources/DR.BMP,resources/DY.BMP,Door3,0.357109375,-0.034522569,1,0,0,0.977,optionRight,70,9745,5,2,0,2,0,1,,,,,,,,,,,,,,,,,,,,,,,,,,,,,,,,,,,,,,,
,,,,,,,,2023-08-16_08h49.19.478,HF_wild_card,2022.2.4,MacIntel,59.99880002,5bfe7267098e7a00016a4058,64d2fd46c836a06233681665,64dc7f6c99fcc0f466f02f8d,,,,,,,decisionTrl,resources/DBN.BMP,resources/DG.BMP,WildCard_Ex,0.376688368,-0.023211806,1,0,0,1.0624,optionRight,95,9840,5,3,0,3,0,1,,,,,,,,,,,,,,,,,,,,,,,,,,,,,,,,,,,,,,,
,,,,,,,,2023-08-16_08h49.19.478,HF_wild_card,2022.2.4,MacIntel,59.99880002,5bfe7267098e7a00016a4058,64d2fd46c836a06233681665,64dc7f6c99fcc0f466f02f8d,,,,,,,decisionTrl,resources/DG.BMP,resources/DB.BMP,Door1,0.349609375,-0.055863715,1,0,0,1.7273,optionRight,30,9870,5,4,0,4,0,1,,,,,,,,,,,,,,,,,,,,,,,,,,,,,,,,,,,,,,,
,,,,,,,,2023-08-16_08h49.19.478,HF_wild_card,2022.2.4,MacIntel,59.99880002,5bfe7267098e7a00016a4058,64d2fd46c836a06233681665,64dc7f6c99fcc0f466f02f8d,,,,,,,decisionTrl,resources/DB.BMP,resources/DBN.BMP,Door1,-0.317009549,-0.049887153,1,0,0,1.3113,optionLeft,30,9900,5,5,0,5,0,1,,,,,,,,,,,,,,,,,,,,,,,,,,,,,,,,,,,,,,,
,,,,,,,,2023-08-16_08h49.19.478,HF_wild_card,2022.2.4,MacIntel,59.99880002,5bfe7267098e7a00016a4058,64d2fd46c836a06233681665,64dc7f6c99fcc0f466f02f8d,,,,,,,ctch,resources/DR.BMP,resources/DB.BMP,Door4,-0.419032118,-0.076935764,1,0,0,1.2437,optionLeft,60,9960,5,6,0,6,0,1,,,,,,,,,,,,,,,,,,,,,,,,,,,,,,,,,,,,,,,
,,,,,,,,2023-08-16_08h49.19.478,HF_wild_card,2022.2.4,MacIntel,59.99880002,5bfe7267098e7a00016a4058,64d2fd46c836a06233681665,64dc7f6c99fcc0f466f02f8d,,,,,,,decisionTrl,resources/DY.BMP,resources/DR.BMP,Door3,-0.383459201,-0.059162326,1,0,0,1.4778,optionLeft,70,10030,5,7,0,7,0,1,,,,,,,,,,,,,,,,,,,,,,,,,,,,,,,,,,,,,,,
,,,,,,,,2023-08-16_08h49.19.478,HF_wild_card,2022.2.4,MacIntel,59.99880002,5bfe7267098e7a00016a4058,64d2fd46c836a06233681665,64dc7f6c99fcc0f466f02f8d,,,,,,,decisionTrl,resources/DR.BMP,resources/DY.BMP,Door3,0.43577691,-0.095177951,1,0,0,1.1614,optionRight,70,10100,5,8,0,8,0,1,,,,,,,,,,,,,,,,,,,,,,,,,,,,,,,,,,,,,,,
,,,,,,,,2023-08-16_08h49.19.478,HF_wild_card,2022.2.4,MacIntel,59.99880002,5bfe7267098e7a00016a4058,64d2fd46c836a06233681665,64dc7f6c99fcc0f466f02f8d,,,,,,,sngl,resources/DG.BMP,resources/Empty.png,WildCard_Ex,-0.290742188,-0.018719618,1,0,0,1.2107,optionLeft,5,10105,5,9,0,9,0,1,,,,,,,,,,,,,,,,,,,,,,,,,,,,,,,,,,,,,,,
,,,,,,,,2023-08-16_08h49.19.478,HF_wild_card,2022.2.4,MacIntel,59.99880002,5bfe7267098e7a00016a4058,64d2fd46c836a06233681665,64dc7f6c99fcc0f466f02f8d,,,,,,,ctch,resources/DBN.BMP,resources/DY.BMP,Door3,0.452473958,-0.07983941,1,0,0,0.9612,optionRight,70,10175,5,10,0,10,0,1,,,,,,,,,,,,,,,,,,,,,,,,,,,,,,,,,,,,,,,
,,,,,,,,2023-08-16_08h49.19.478,HF_wild_card,2022.2.4,MacIntel,59.99880002,5bfe7267098e7a00016a4058,64d2fd46c836a06233681665,64dc7f6c99fcc0f466f02f8d,,,,,,,sngl,resources/DBN.BMP,resources/Empty.png,Door2,-0.263789063,-0.018567708,1,0,0,0.8455,optionLeft,40,10215,5,11,0,11,0,1,,,,,,,,,,,,,,,,,,,,,,,,,,,,,,,,,,,,,,,
,,,,,,,,2023-08-16_08h49.19.478,HF_wild_card,2022.2.4,MacIntel,59.99880002,5bfe7267098e7a00016a4058,64d2fd46c836a06233681665,64dc7f6c99fcc0f466f02f8d,,,,,,,sngl,resources/Empty.png,resources/DG.BMP,WildCard_Ex,0.405351562,-0.040920139,1,0,0,0.8785,optionRight,5,10220,5,12,0,12,0,1,,,,,,,,,,,,,,,,,,,,,,,,,,,,,,,,,,,,,,,
,,,,,,,,2023-08-16_08h49.19.478,HF_wild_card,2022.2.4,MacIntel,59.99880002,5bfe7267098e7a00016a4058,64d2fd46c836a06233681665,64dc7f6c99fcc0f466f02f8d,,,,,,,decisionTrl,resources/DB.BMP,resources/DBN.BMP,Door1,-0.417044271,-0.035642361,1,0,0,1.2264,optionLeft,30,10250,5,13,0,13,0,1,,,,,,,,,,,,,,,,,,,,,,,,,,,,,,,,,,,,,,,
,,,,,,,,2023-08-16_08h49.19.478,HF_wild_card,2022.2.4,MacIntel,59.99880002,5bfe7267098e7a00016a4058,64d2fd46c836a06233681665,64dc7f6c99fcc0f466f02f8d,,,,,,,sngl,resources/DG.BMP,resources/Empty.png,WildCard_Ex,-0.346827257,-0.048233507,1,0,0,0.8788,optionLeft,95,10345,5,14,0,14,0,1,,,,,,,,,,,,,,,,,,,,,,,,,,,,,,,,,,,,,,,
,,,,,,,,2023-08-16_08h49.19.478,HF_wild_card,2022.2.4,MacIntel,59.99880002,5bfe7267098e7a00016a4058,64d2fd46c836a06233681665,64dc7f6c99fcc0f466f02f8d,,,,,,,decisionTrl,resources/DG.BMP,resources/DR.BMP,Door4,0.379800347,-0.023580729,1,0,0,1.8131,optionRight,60,10405,5,15,0,15,0,1,,,,,,,,,,,,,,,,,,,,,,,,,,,,,,,,,,,,,,,
,,,,,,,,2023-08-16_08h49.19.478,HF_wild_card,2022.2.4,MacIntel,59.99880002,5bfe7267098e7a00016a4058,64d2fd46c836a06233681665,64dc7f6c99fcc0f466f02f8d,,,,,,,ctch,resources/DBN.BMP,resources/DY.BMP,Door3,0.375477431,-0.045894097,1,0,0,1.0275,optionRight,70,10475,5,16,0,16,0,1,,,,,,,,,,,,,,,,,,,,,,,,,,,,,,,,,,,,,,,
,,,,,,,,2023-08-16_08h49.19.478,HF_wild_card,2022.2.4,MacIntel,59.99880002,5bfe7267098e7a00016a4058,64d2fd46c836a06233681665,64dc7f6c99fcc0f466f02f8d,,,,,,,ctch,resources/DR.BMP,resources/DB.BMP,Door4,-0.341831597,-0.059296875,1,0,0,2.1962,optionLeft,80,10555,5,17,0,17,0,1,,,,,,,,,,,,,,,,,,,,,,,,,,,,,,,,,,,,,,,
,,,,,,,,2023-08-16_08h49.19.478,HF_wild_card,2022.2.4,MacIntel,59.99880002,5bfe7267098e7a00016a4058,64d2fd46c836a06233681665,64dc7f6c99fcc0f466f02f8d,,,,,,,decisionTrl,resources/DY.BMP,resources/DR.BMP,Door3,-0.364088542,-0.027304688,1,0,0,1.2769,optionLeft,70,10625,5,18,0,18,0,1,,,,,,,,,,,,,,,,,,,,,,,,,,,,,,,,,,,,,,,
,,,,,,,,2023-08-16_08h49.19.478,HF_wild_card,2022.2.4,MacIntel,59.99880002,5bfe7267098e7a00016a4058,64d2fd46c836a06233681665,64dc7f6c99fcc0f466f02f8d,,,,,,,decisionTrl,resources/DBN.BMP,resources/DB.BMP,Door1,0.395112847,-0.050598958,1,0,0,1.3283,optionRight,30,10655,5,19,0,19,0,1,,,,,,,,,,,,,,,,,,,,,,,,,,,,,,,,,,,,,,,
,,,,,,,,2023-08-16_08h49.19.478,HF_wild_card,2022.2.4,MacIntel,59.99880002,5bfe7267098e7a00016a4058,64d2fd46c836a06233681665,64dc7f6c99fcc0f466f02f8d,,,,,,,decisionTrl,resources/DB.BMP,resources/DG.BMP,WildCard_Ex,0.341154514,-0.050438368,1,0,0,2.4625,optionRight,95,10750,5,20,0,20,0,1,,,,,,,,,,,,,,,,,,,,,,,,,,,,,,,,,,,,,,,
,,,,,,,,2023-08-16_08h49.19.478,HF_wild_card,2022.2.4,MacIntel,59.99880002,5bfe7267098e7a00016a4058,64d2fd46c836a06233681665,64dc7f6c99fcc0f466f02f8d,,,,,,,sngl,resources/Empty.png,resources/DY.BMP,Door3,0.326059028,-0.037109375,1,0,0,1.0125,optionRight,70,10820,5,21,0,21,0,1,,,,,,,,,,,,,,,,,,,,,,,,,,,,,,,,,,,,,,,
,,,,,,,,2023-08-16_08h49.19.478,HF_wild_card,2022.2.4,MacIntel,59.99880002,5bfe7267098e7a00016a4058,64d2fd46c836a06233681665,64dc7f6c99fcc0f466f02f8d,,,,,,,decisionTrl,resources/DB.BMP,resources/DBN.BMP,Door1,-0.375251736,-0.025876736,1,0,0,0.9772,optionLeft,30,10850,5,22,0,22,0,1,,,,,,,,,,,,,,,,,,,,,,,,,,,,,,,,,,,,,,,
,,,,,,,,2023-08-16_08h49.19.478,HF_wild_card,2022.2.4,MacIntel,59.99880002,5bfe7267098e7a00016a4058,64d2fd46c836a06233681665,64dc7f6c99fcc0f466f02f8d,,,,,,,decisionTrl,resources/DY.BMP,resources/DR.BMP,Door3,-0.378619792,-0.053415799,1,0,0,1.4454,optionLeft,70,10920,5,23,0,23,0,1,,,,,,,,,,,,,,,,,,,,,,,,,,,,,,,,,,,,,,,
,,,,,,,,2023-08-16_08h49.19.478,HF_wild_card,2022.2.4,MacIntel,59.99880002,5bfe7267098e7a00016a4058,64d2fd46c836a06233681665,64dc7f6c99fcc0f466f02f8d,,,,,,,sngl,resources/Empty.png,resources/DR.BMP,Door4,0.342478299,-0.049240451,1,0,0,1.0368,optionRight,60,10980,5,24,0,24,0,1,,,,,,,,,,,,,,,,,,,,,,,,,,,,,,,,,,,,,,,
,,,,,,,,2023-08-16_08h49.19.478,HF_wild_card,2022.2.4,MacIntel,59.99880002,5bfe7267098e7a00016a4058,64d2fd46c836a06233681665,64dc7f6c99fcc0f466f02f8d,,,,,,,ctch,resources/DB.BMP,resources/DR.BMP,Door4,0.389366319,-0.050030382,1,0,0,1.3937,optionRight,80,11060,5,25,0,25,0,1,,,,,,,,,,,,,,,,,,,,,,,,,,,,,,,,,,,,,,,
,,,,,,,,2023-08-16_08h49.19.478,HF_wild_card,2022.2.4,MacIntel,59.99880002,5bfe7267098e7a00016a4058,64d2fd46c836a06233681665,64dc7f6c99fcc0f466f02f8d,,,,,,,decisionTrl,resources/DR.BMP,resources/DY.BMP,Door3,0.364921875,-0.04422309,1,0,0,1.3614,optionRight,70,11130,5,26,0,26,0,1,,,,,,,,,,,,,,,,,,,,,,,,,,,,,,,,,,,,,,,
,,,,,,,,2023-08-16_08h49.19.478,HF_wild_card,2022.2.4,MacIntel,59.99880002,5bfe7267098e7a00016a4058,64d2fd46c836a06233681665,64dc7f6c99fcc0f466f02f8d,,,,,,,decisionTrl,resources/DBN.BMP,resources/DB.BMP,Door1,0.39875,-0.050559896,1,0,0,1.0294,optionRight,30,11160,5,27,0,27,0,1,,,,,,,,,,,,,,,,,,,,,,,,,,,,,,,,,,,,,,,
,,,,,,,,2023-08-16_08h49.19.478,HF_wild_card,2022.2.4,MacIntel,59.99880002,5bfe7267098e7a00016a4058,64d2fd46c836a06233681665,64dc7f6c99fcc0f466f02f8d,,,,,,,sngl,resources/Empty.png,resources/DB.BMP,Door1,0.350664062,-0.043324653,1,0,0,0.8614,optionRight,30,11190,5,28,0,28,0,1,,,,,,,,,,,,,,,,,,,,,,,,,,,,,,,,,,,,,,,
,,,,,,,,2023-08-16_08h49.19.478,HF_wild_card,2022.2.4,MacIntel,59.99880002,5bfe7267098e7a00016a4058,64d2fd46c836a06233681665,64dc7f6c99fcc0f466f02f8d,,,,,,,ctch,resources/DY.BMP,resources/DBN.BMP,Door3,-0.335264757,-0.044010417,1,0,0,0.9627,optionLeft,70,11260,5,29,0,29,0,1,,,,,,,,,,,,,,,,,,,,,,,,,,,,,,,,,,,,,,,
,,,,,,,,2023-08-16_08h49.19.478,HF_wild_card,2022.2.4,MacIntel,59.99880002,5bfe7267098e7a00016a4058,64d2fd46c836a06233681665,64dc7f6c99fcc0f466f02f8d,,,,,,,ctch,resources/DB.BMP,resources/DR.BMP,Door4,0.35858941,-0.058945312,1,0,0,1.9765,optionRight,60,11320,5,30,0,30,0,1,,,,,,,,,,,,,,,,,,,,,,,,,,,,,,,,,,,,,,,
,,,,,,,,2023-08-16_08h49.19.478,HF_wild_card,2022.2.4,MacIntel,59.99880002,5bfe7267098e7a00016a4058,64d2fd46c836a06233681665,64dc7f6c99fcc0f466f02f8d,,,,,,,sngl,resources/Empty.png,resources/DBN.BMP,Door2,0.330551215,-0.04405816,1,0,0,1.0456,optionRight,20,11340,5,31,0,31,0,1,,,,,,,,,,,,,,,,,,,,,,,,,,,,,,,,,,,,,,,
,,,,,,,,2023-08-16_08h49.19.478,HF_wild_card,2022.2.4,MacIntel,59.99880002,5bfe7267098e7a00016a4058,64d2fd46c836a06233681665,64dc7f6c99fcc0f466f02f8d,,,,,,,decisionTrl,resources/DG.BMP,resources/DBN.BMP,WildCard_Ex,-0.316697049,-0.033802083,1,0,0,1.362,optionLeft,5,11345,5,32,0,32,0,1,,,,,,,,,,,,,,,,,,,,,,,,,,,,,,,,,,,,,,,
,,,,,,,,2023-08-16_08h49.19.478,HF_wild_card,2022.2.4,MacIntel,59.99880002,5bfe7267098e7a00016a4058,64d2fd46c836a06233681665,64dc7f6c99fcc0f466f02f8d,,,,,,,decisionTrl,resources/DR.BMP,resources/DG.BMP,WildCard_Ex,0.407039931,-0.053940972,1,0,0,1.1615,optionRight,95,11440,5,33,0,33,0,1,,,,,,,,,,,,,,,,,,,,,,,,,,,,,,,,,,,,,,,
,,,,,,,,2023-08-16_08h49.19.478,HF_wild_card,2022.2.4,MacIntel,59.99880002,5bfe7267098e7a00016a4058,64d2fd46c836a06233681665,64dc7f6c99fcc0f466f02f8d,,,,,,,decisionTrl,resources/DY.BMP,resources/DR.BMP,Door3,-0.331909722,-0.049639757,1,0,0,1.2646,optionLeft,70,11510,5,34,0,34,0,1,,,,,,,,,,,,,,,,,,,,,,,,,,,,,,,,,,,,,,,
,,,,,,,,2023-08-16_08h49.19.478,HF_wild_card,2022.2.4,MacIntel,59.99880002,5bfe7267098e7a00016a4058,64d2fd46c836a06233681665,64dc7f6c99fcc0f466f02f8d,,,,,,,sngl,resources/Empty.png,resources/DG.BMP,WildCard_Ex,0.327226562,-0.046206597,1,0,0,1.229,optionRight,95,11605,5,35,0,35,0,1,,,,,,,,,,,,,,,,,,,,,,,,,,,,,,,,,,,,,,,
,,,,,,,,2023-08-16_08h49.19.478,HF_wild_card,2022.2.4,MacIntel,59.99880002,5bfe7267098e7a00016a4058,64d2fd46c836a06233681665,64dc7f6c99fcc0f466f02f8d,,,,,,,sngl,resources/DY.BMP,resources/Empty.png,Door3,-0.293550347,-0.023541667,1,0,0,0.8446,optionLeft,70,11675,5,36,0,36,0,1,,,,,,,,,,,,,,,,,,,,,,,,,,,,,,,,,,,,,,,
,,,,,,,,2023-08-16_08h49.19.478,HF_wild_card,2022.2.4,MacIntel,59.99880002,5bfe7267098e7a00016a4058,64d2fd46c836a06233681665,64dc7f6c99fcc0f466f02f8d,,,,,,,decisionTrl,resources/DY.BMP,resources/DG.BMP,Door3,-0.306953125,-0.037686632,1,0,0,1.2607,optionLeft,70,11745,5,37,0,37,0,1,,,,,,,,,,,,,,,,,,,,,,,,,,,,,,,,,,,,,,,
,,,,,,,,2023-08-16_08h49.19.478,HF_wild_card,2022.2.4,MacIntel,59.99880002,5bfe7267098e7a00016a4058,64d2fd46c836a06233681665,64dc7f6c99fcc0f466f02f8d,,,,,,,decisionTrl,resources/DB.BMP,resources/DBN.BMP,Door1,-0.3890625,-0.064921875,1,0,0,1.1931,optionLeft,30,11775,5,38,0,38,0,1,,,,,,,,,,,,,,,,,,,,,,,,,,,,,,,,,,,,,,,
,,,,,,,,2023-08-16_08h49.19.478,HF_wild_card,2022.2.4,MacIntel,59.99880002,5bfe7267098e7a00016a4058,64d2fd46c836a06233681665,64dc7f6c99fcc0f466f02f8d,,,,,,,ctch,resources/DY.BMP,resources/DBN.BMP,Door3,-0.397673611,-0.057413194,1,0,0,0.9613,optionLeft,70,11845,5,39,0,39,0,1,,,,,,,,,,,,,,,,,,,,,,,,,,,,,,,,,,,,,,,
,,,,,,,,2023-08-16_08h49.19.478,HF_wild_card,2022.2.4,MacIntel,59.99880002,5bfe7267098e7a00016a4058,64d2fd46c836a06233681665,64dc7f6c99fcc0f466f02f8d,,,,,,,decisionTrl,resources/DBN.BMP,resources/DB.BMP,Door1,0.400104167,-0.042217882,1,0,0,0.8951,optionRight,30,11875,5,40,0,40,0,1,,,,,,,,,,,,,,,,,,,,,,,,,,,,,,,,,,,,,,,
,,,,,,,,2023-08-16_08h49.19.478,HF_wild_card,2022.2.4,MacIntel,59.99880002,5bfe7267098e7a00016a4058,64d2fd46c836a06233681665,64dc7f6c99fcc0f466f02f8d,,,,,,,decisionTrl,resources/DBN.BMP,resources/DB.BMP,Door1,0.354709201,-0.02577691,1,0,0,0.9271,optionRight,30,11905,5,41,0,41,0,1,,,,,,,,,,,,,,,,,,,,,,,,,,,,,,,,,,,,,,,
,,,,,,,,2023-08-16_08h49.19.478,HF_wild_card,2022.2.4,MacIntel,59.99880002,5bfe7267098e7a00016a4058,64d2fd46c836a06233681665,64dc7f6c99fcc0f466f02f8d,,,,,,,sngl,resources/DR.BMP,resources/Empty.png,Door4,-0.382873264,-0.062708333,1,0,0,1.0604,optionLeft,80,11985,5,42,0,42,0,1,,,,,,,,,,,,,,,,,,,,,,,,,,,,,,,,,,,,,,,
,,,,,,,,2023-08-16_08h49.19.478,HF_wild_card,2022.2.4,MacIntel,59.99880002,5bfe7267098e7a00016a4058,64d2fd46c836a06233681665,64dc7f6c99fcc0f466f02f8d,,,,,,,decisionTrl,resources/DG.BMP,resources/DY.BMP,Door3,0.361901042,-0.069956597,1,0,0,1.511,optionRight,70,12055,5,43,0,43,0,1,,,,,,,,,,,,,,,,,,,,,,,,,,,,,,,,,,,,,,,
,,,,,,,,2023-08-16_08h49.19.478,HF_wild_card,2022.2.4,MacIntel,59.99880002,5bfe7267098e7a00016a4058,64d2fd46c836a06233681665,64dc7f6c99fcc0f466f02f8d,,,,,,,,,,,,,,,,,,,,,,,,,,4,0,4,0,1,,,,,,,,,,,,,,,,,,,,,,,,,,,,,,,,,,
,,,,,,,,2023-08-16_08h49.19.478,HF_wild_card,2022.2.4,MacIntel,59.99880002,5bfe7267098e7a00016a4058,64d2fd46c836a06233681665,64dc7f6c99fcc0f466f02f8d,,,,,,,decisionTrl,resources/DBN.BMP,resources/DB.BMP,Door1,0.471367188,-0.159592014,1,0,0,2.2599,optionRight,30,12085,6,0,0,0,0,1,,,,,,,,,,,,,,,,,,,,,,,,,,,,,,,,,,,,,,,
,,,,,,,,2023-08-16_08h49.19.478,HF_wild_card,2022.2.4,MacIntel,59.99880002,5bfe7267098e7a00016a4058,64d2fd46c836a06233681665,64dc7f6c99fcc0f466f02f8d,,,,,,,sngl,resources/DR.BMP,resources/Empty.png,Door4,-0.314509549,-0.044917535,1,0,0,0.9772,optionLeft,60,12145,6,1,0,1,0,1,,,,,,,,,,,,,,,,,,,,,,,,,,,,,,,,,,,,,,,
,,,,,,,,2023-08-16_08h49.19.478,HF_wild_card,2022.2.4,MacIntel,59.99880002,5bfe7267098e7a00016a4058,64d2fd46c836a06233681665,64dc7f6c99fcc0f466f02f8d,,,,,,,ctch,resources/DBN.BMP,resources/DY.BMP,Door3,0.402786458,-0.037751736,1,0,0,0.9464,optionRight,70,12215,6,2,0,2,0,1,,,,,,,,,,,,,,,,,,,,,,,,,,,,,,,,,,,,,,,
,,,,,,,,2023-08-16_08h49.19.478,HF_wild_card,2022.2.4,MacIntel,59.99880002,5bfe7267098e7a00016a4058,64d2fd46c836a06233681665,64dc7f6c99fcc0f466f02f8d,,,,,,,ctch,resources/DR.BMP,resources/DB.BMP,Door4,-0.313342014,-0.039392361,1,0,0,0.9429,optionLeft,60,12275,6,3,0,3,0,1,,,,,,,,,,,,,,,,,,,,,,,,,,,,,,,,,,,,,,,
,,,,,,,,2023-08-16_08h49.19.478,HF_wild_card,2022.2.4,MacIntel,59.99880002,5bfe7267098e7a00016a4058,64d2fd46c836a06233681665,64dc7f6c99fcc0f466f02f8d,,,,,,,decisionTrl,resources/DR.BMP,resources/DG.BMP,Door4,-0.281384549,-0.035694444,1,0,0,2.296,optionLeft,60,12335,6,4,0,4,0,1,,,,,,,,,,,,,,,,,,,,,,,,,,,,,,,,,,,,,,,
,,,,,,,,2023-08-16_08h49.19.478,HF_wild_card,2022.2.4,MacIntel,59.99880002,5bfe7267098e7a00016a4058,64d2fd46c836a06233681665,64dc7f6c99fcc0f466f02f8d,,,,,,,decisionTrl,resources/DB.BMP,resources/DBN.BMP,Door1,-0.371241319,-0.086901042,1,0,0,1.1602,optionLeft,30,12365,6,5,0,5,0,1,,,,,,,,,,,,,,,,,,,,,,,,,,,,,,,,,,,,,,,
,,,,,,,,2023-08-16_08h49.19.478,HF_wild_card,2022.2.4,MacIntel,59.99880002,5bfe7267098e7a00016a4058,64d2fd46c836a06233681665,64dc7f6c99fcc0f466f02f8d,,,,,,,ctch,resources/DBN.BMP,resources/DY.BMP,Door3,0.396671007,-0.059796007,1,0,0,0.9096,optionRight,70,12435,6,6,0,6,0,1,,,,,,,,,,,,,,,,,,,,,,,,,,,,,,,,,,,,,,,
,,,,,,,,2023-08-16_08h49.19.478,HF_wild_card,2022.2.4,MacIntel,59.99880002,5bfe7267098e7a00016a4058,64d2fd46c836a06233681665,64dc7f6c99fcc0f466f02f8d,,,,,,,decisionTrl,resources/DBN.BMP,resources/DB.BMP,Door1,0.405208333,-0.038389757,1,0,0,0.9135,optionRight,30,12465,6,7,0,7,0,1,,,,,,,,,,,,,,,,,,,,,,,,,,,,,,,,,,,,,,,
,,,,,,,,2023-08-16_08h49.19.478,HF_wild_card,2022.2.4,MacIntel,59.99880002,5bfe7267098e7a00016a4058,64d2fd46c836a06233681665,64dc7f6c99fcc0f466f02f8d,,,,,,,ctch,resources/DB.BMP,resources/DR.BMP,Door4,0.397395833,-0.036367188,1,0,0,1.1946,optionRight,60,12525,6,8,0,8,0,1,,,,,,,,,,,,,,,,,,,,,,,,,,,,,,,,,,,,,,,
,,,,,,,,2023-08-16_08h49.19.478,HF_wild_card,2022.2.4,MacIntel,59.99880002,5bfe7267098e7a00016a4058,64d2fd46c836a06233681665,64dc7f6c99fcc0f466f02f8d,,,,,,,sngl,resources/Empty.png,resources/DG.BMP,WildCard_Ex,0.352530382,-0.032165799,1,0,0,0.9113,optionRight,95,12620,6,9,0,9,0,1,,,,,,,,,,,,,,,,,,,,,,,,,,,,,,,,,,,,,,,
,,,,,,,,2023-08-16_08h49.19.478,HF_wild_card,2022.2.4,MacIntel,59.99880002,5bfe7267098e7a00016a4058,64d2fd46c836a06233681665,64dc7f6c99fcc0f466f02f8d,,,,,,,sngl,resources/Empty.png,resources/DR.BMP,Door4,0.383637153,-0.022287326,1,0,0,1.0651,optionRight,80,12700,6,10,0,10,0,1,,,,,,,,,,,,,,,,,,,,,,,,,,,,,,,,,,,,,,,
,,,,,,,,2023-08-16_08h49.19.478,HF_wild_card,2022.2.4,MacIntel,59.99880002,5bfe7267098e7a00016a4058,64d2fd46c836a06233681665,64dc7f6c99fcc0f466f02f8d,,,,,,,ctch,resources/DB.BMP,resources/DR.BMP,Door4,0.317296007,-0.089713542,1,0,0,1.7757,optionRight,80,12780,6,11,0,11,0,1,,,,,,,,,,,,,,,,,,,,,,,,,,,,,,,,,,,,,,,
,,,,,,,,2023-08-16_08h49.19.478,HF_wild_card,2022.2.4,MacIntel,59.99880002,5bfe7267098e7a00016a4058,64d2fd46c836a06233681665,64dc7f6c99fcc0f466f02f8d,,,,,,,ctch,resources/DY.BMP,resources/DBN.BMP,Door3,-0.338602431,-0.04187066,1,0,0,1.1449,optionLeft,70,12850,6,12,0,12,0,1,,,,,,,,,,,,,,,,,,,,,,,,,,,,,,,,,,,,,,,
,,,,,,,,2023-08-16_08h49.19.478,HF_wild_card,2022.2.4,MacIntel,59.99880002,5bfe7267098e7a00016a4058,64d2fd46c836a06233681665,64dc7f6c99fcc0f466f02f8d,,,,,,,decisionTrl,resources/DG.BMP,resources/DY.BMP,Door3,0.397934028,-0.072630208,1,0,0,2.0617,optionRight,70,12920,6,13,0,13,0,1,,,,,,,,,,,,,,,,,,,,,,,,,,,,,,,,,,,,,,,
,,,,,,,,2023-08-16_08h49.19.478,HF_wild_card,2022.2.4,MacIntel,59.99880002,5bfe7267098e7a00016a4058,64d2fd46c836a06233681665,64dc7f6c99fcc0f466f02f8d,,,,,,,decisionTrl,resources/DB.BMP,resources/DBN.BMP,Door1,-0.320169271,-0.052569444,1,0,0,0.9289,optionLeft,30,12950,6,14,0,14,0,1,,,,,,,,,,,,,,,,,,,,,,,,,,,,,,,,,,,,,,,
,,,,,,,,2023-08-16_08h49.19.478,HF_wild_card,2022.2.4,MacIntel,59.99880002,5bfe7267098e7a00016a4058,64d2fd46c836a06233681665,64dc7f6c99fcc0f466f02f8d,,,,,,,sngl,resources/DG.BMP,resources/Empty.png,WildCard_Ex,-0.322421875,-0.00703559,1,0,0,0.8941,optionLeft,95,13045,6,15,0,15,0,1,,,,,,,,,,,,,,,,,,,,,,,,,,,,,,,,,,,,,,,
,,,,,,,,2023-08-16_08h49.19.478,HF_wild_card,2022.2.4,MacIntel,59.99880002,5bfe7267098e7a00016a4058,64d2fd46c836a06233681665,64dc7f6c99fcc0f466f02f8d,,,,,,,decisionTrl,resources/DBN.BMP,resources/DB.BMP,Door1,0.408836806,-0.025681424,1,0,0,0.9436,optionRight,30,13075,6,16,0,16,0,1,,,,,,,,,,,,,,,,,,,,,,,,,,,,,,,,,,,,,,,
,,,,,,,,2023-08-16_08h49.19.478,HF_wild_card,2022.2.4,MacIntel,59.99880002,5bfe7267098e7a00016a4058,64d2fd46c836a06233681665,64dc7f6c99fcc0f466f02f8d,,,,,,,sngl,resources/DBN.BMP,resources/Empty.png,Door2,-0.309700521,-0.004409722,1,0,0,1.1947,optionLeft,20,13095,6,17,0,17,0,1,,,,,,,,,,,,,,,,,,,,,,,,,,,,,,,,,,,,,,,
,,,,,,,,2023-08-16_08h49.19.478,HF_wild_card,2022.2.4,MacIntel,59.99880002,5bfe7267098e7a00016a4058,64d2fd46c836a06233681665,64dc7f6c99fcc0f466f02f8d,,,,,,,decisionTrl,resources/DR.BMP,resources/DY.BMP,Door3,0.432322049,-0.05796875,1,0,0,1.0802,optionRight,70,13165,6,18,0,18,0,1,,,,,,,,,,,,,,,,,,,,,,,,,,,,,,,,,,,,,,,
,,,,,,,,2023-08-16_08h49.19.478,HF_wild_card,2022.2.4,MacIntel,59.99880002,5bfe7267098e7a00016a4058,64d2fd46c836a06233681665,64dc7f6c99fcc0f466f02f8d,,,,,,,decisionTrl,resources/DY.BMP,resources/DR.BMP,Door3,-0.37734809,-0.063320313,1,0,0,1.0949,optionLeft,70,13235,6,19,0,19,0,1,,,,,,,,,,,,,,,,,,,,,,,,,,,,,,,,,,,,,,,
,,,,,,,,2023-08-16_08h49.19.478,HF_wild_card,2022.2.4,MacIntel,59.99880002,5bfe7267098e7a00016a4058,64d2fd46c836a06233681665,64dc7f6c99fcc0f466f02f8d,,,,,,,sngl,resources/Empty.png,resources/DB.BMP,Door1,0.379917535,-0.056323785,1,0,0,0.8136,optionRight,30,13265,6,20,0,20,0,1,,,,,,,,,,,,,,,,,,,,,,,,,,,,,,,,,,,,,,,
,,,,,,,,2023-08-16_08h49.19.478,HF_wild_card,2022.2.4,MacIntel,59.99880002,5bfe7267098e7a00016a4058,64d2fd46c836a06233681665,64dc7f6c99fcc0f466f02f8d,,,,,,,decisionTrl,resources/DY.BMP,resources/DG.BMP,Door3,-0.348098958,-0.092565104,1,0,0,1.91,optionLeft,70,13335,6,21,0,21,0,1,,,,,,,,,,,,,,,,,,,,,,,,,,,,,,,,,,,,,,,
,,,,,,,,2023-08-16_08h49.19.478,HF_wild_card,2022.2.4,MacIntel,59.99880002,5bfe7267098e7a00016a4058,64d2fd46c836a06233681665,64dc7f6c99fcc0f466f02f8d,,,,,,,sngl,resources/Empty.png,resources/DG.BMP,WildCard_Ex,0.400763889,-0.04719184,1,0,0,0.7953,optionRight,5,13340,6,22,0,22,0,1,,,,,,,,,,,,,,,,,,,,,,,,,,,,,,,,,,,,,,,
,,,,,,,,2023-08-16_08h49.19.478,HF_wild_card,2022.2.4,MacIntel,59.99880002,5bfe7267098e7a00016a4058,64d2fd46c836a06233681665,64dc7f6c99fcc0f466f02f8d,,,,,,,decisionTrl,resources/DG.BMP,resources/DB.BMP,WildCard_Ex,-0.399162326,-0.074809028,1,0,0,1.2783,optionLeft,95,13435,6,23,0,23,0,1,,,,,,,,,,,,,,,,,,,,,,,,,,,,,,,,,,,,,,,
,,,,,,,,2023-08-16_08h49.19.478,HF_wild_card,2022.2.4,MacIntel,59.99880002,5bfe7267098e7a00016a4058,64d2fd46c836a06233681665,64dc7f6c99fcc0f466f02f8d,,,,,,,decisionTrl,resources/DG.BMP,resources/DBN.BMP,Door2,0.305243056,-0.054144965,1,0,0,2.4275,optionRight,40,13475,6,24,0,24,0,1,,,,,,,,,,,,,,,,,,,,,,,,,,,,,,,,,,,,,,,
,,,,,,,,2023-08-16_08h49.19.478,HF_wild_card,2022.2.4,MacIntel,59.99880002,5bfe7267098e7a00016a4058,64d2fd46c836a06233681665,64dc7f6c99fcc0f466f02f8d,,,,,,,sngl,resources/DY.BMP,resources/Empty.png,Door3,-0.240872396,-0.014626736,1,0,0,0.8448,optionLeft,70,13545,6,25,0,25,0,1,,,,,,,,,,,,,,,,,,,,,,,,,,,,,,,,,,,,,,,
,,,,,,,,2023-08-16_08h49.19.478,HF_wild_card,2022.2.4,MacIntel,59.99880002,5bfe7267098e7a00016a4058,64d2fd46c836a06233681665,64dc7f6c99fcc0f466f02f8d,,,,,,,decisionTrl,resources/DBN.BMP,resources/DG.BMP,WildCard_Ex,0.370338542,-0.042126736,1,0,0,1.5106,optionRight,5,13550,6,26,0,26,0,1,,,,,,,,,,,,,,,,,,,,,,,,,,,,,,,,,,,,,,,
,,,,,,,,2023-08-16_08h49.19.478,HF_wild_card,2022.2.4,MacIntel,59.99880002,5bfe7267098e7a00016a4058,64d2fd46c836a06233681665,64dc7f6c99fcc0f466f02f8d,,,,,,,sngl,resources/Empty.png,resources/DBN.BMP,Door2,0.323793403,-0.003220486,1,0,0,0.9107,optionRight,40,13590,6,27,0,27,0,1,,,,,,,,,,,,,,,,,,,,,,,,,,,,,,,,,,,,,,,
,,,,,,,,2023-08-16_08h49.19.478,HF_wild_card,2022.2.4,MacIntel,59.99880002,5bfe7267098e7a00016a4058,64d2fd46c836a06233681665,64dc7f6c99fcc0f466f02f8d,,,,,,,decisionTrl,resources/DY.BMP,resources/DR.BMP,Door3,-0.319574653,0.005907118,1,0,0,0.9617,optionLeft,70,13660,6,28,0,28,0,1,,,,,,,,,,,,,,,,,,,,,,,,,,,,,,,,,,,,,,,
,,,,,,,,2023-08-16_08h49.19.478,HF_wild_card,2022.2.4,MacIntel,59.99880002,5bfe7267098e7a00016a4058,64d2fd46c836a06233681665,64dc7f6c99fcc0f466f02f8d,,,,,,,ctch,resources/DY.BMP,resources/DBN.BMP,Door3,-0.290008681,-0.03265191,1,0,0,1.3603,optionLeft,70,13730,6,29,0,29,0,1,,,,,,,,,,,,,,,,,,,,,,,,,,,,,,,,,,,,,,,
,,,,,,,,2023-08-16_08h49.19.478,HF_wild_card,2022.2.4,MacIntel,59.99880002,5bfe7267098e7a00016a4058,64d2fd46c836a06233681665,64dc7f6c99fcc0f466f02f8d,,,,,,,decisionTrl,resources/DB.BMP,resources/DG.BMP,WildCard_Ex,0.347543403,-0.045533854,1,0,0,1.9305,optionRight,5,13735,6,30,0,30,0,1,,,,,,,,,,,,,,,,,,,,,,,,,,,,,,,,,,,,,,,
,,,,,,,,2023-08-16_08h49.19.478,HF_wild_card,2022.2.4,MacIntel,59.99880002,5bfe7267098e7a00016a4058,64d2fd46c836a06233681665,64dc7f6c99fcc0f466f02f8d,,,,,,,decisionTrl,resources/DG.BMP,resources/DR.BMP,WildCard_Ex,-0.32702691,-0.031449653,1,0,0,1.0632,optionLeft,5,13740,6,31,0,31,0,1,,,,,,,,,,,,,,,,,,,,,,,,,,,,,,,,,,,,,,,
,,,,,,,,2023-08-16_08h49.19.478,HF_wild_card,2022.2.4,MacIntel,59.99880002,5bfe7267098e7a00016a4058,64d2fd46c836a06233681665,64dc7f6c99fcc0f466f02f8d,,,,,,,decisionTrl,resources/DY.BMP,resources/DR.BMP,Door3,-0.385017361,-0.040855035,1,0,0,1.0774,optionLeft,70,13810,6,32,0,32,0,1,,,,,,,,,,,,,,,,,,,,,,,,,,,,,,,,,,,,,,,
,,,,,,,,2023-08-16_08h49.19.478,HF_wild_card,2022.2.4,MacIntel,59.99880002,5bfe7267098e7a00016a4058,64d2fd46c836a06233681665,64dc7f6c99fcc0f466f02f8d,,,,,,,decisionTrl,resources/DR.BMP,resources/DY.BMP,Door3,0.400729167,-0.054696181,1,0,0,0.942,optionRight,70,13880,6,33,0,33,0,1,,,,,,,,,,,,,,,,,,,,,,,,,,,,,,,,,,,,,,,
,,,,,,,,2023-08-16_08h49.19.478,HF_wild_card,2022.2.4,MacIntel,59.99880002,5bfe7267098e7a00016a4058,64d2fd46c836a06233681665,64dc7f6c99fcc0f466f02f8d,,,,,,,sngl,resources/DG.BMP,resources/Empty.png,WildCard_Ex,-0.294275174,-0.003046875,1,0,0,0.8971,optionLeft,5,13885,6,34,0,34,0,1,,,,,,,,,,,,,,,,,,,,,,,,,,,,,,,,,,,,,,,
,,,,,,,,2023-08-16_08h49.19.478,HF_wild_card,2022.2.4,MacIntel,59.99880002,5bfe7267098e7a00016a4058,64d2fd46c836a06233681665,64dc7f6c99fcc0f466f02f8d,,,,,,,decisionTrl,resources/DY.BMP,resources/DR.BMP,Door3,-0.315915799,-0.009288194,1,0,0,1.1272,optionLeft,70,13955,6,35,0,35,0,1,,,,,,,,,,,,,,,,,,,,,,,,,,,,,,,,,,,,,,,
,,,,,,,,2023-08-16_08h49.19.478,HF_wild_card,2022.2.4,MacIntel,59.99880002,5bfe7267098e7a00016a4058,64d2fd46c836a06233681665,64dc7f6c99fcc0f466f02f8d,,,,,,,sngl,resources/Empty.png,resources/DY.BMP,Door3,0.483880208,-0.052604167,1,0,0,0.778,optionRight,70,14025,6,36,0,36,0,1,,,,,,,,,,,,,,,,,,,,,,,,,,,,,,,,,,,,,,,
,,,,,,,,2023-08-16_08h49.19.478,HF_wild_card,2022.2.4,MacIntel,59.99880002,5bfe7267098e7a00016a4058,64d2fd46c836a06233681665,64dc7f6c99fcc0f466f02f8d,,,,,,,decisionTrl,resources/DR.BMP,resources/DY.BMP,Door3,0.360980903,-0.066258681,1,0,0,1.262,optionRight,70,14095,6,37,0,37,0,1,,,,,,,,,,,,,,,,,,,,,,,,,,,,,,,,,,,,,,,
,,,,,,,,2023-08-16_08h49.19.478,HF_wild_card,2022.2.4,MacIntel,59.99880002,5bfe7267098e7a00016a4058,64d2fd46c836a06233681665,64dc7f6c99fcc0f466f02f8d,,,,,,,sngl,resources/DB.BMP,resources/Empty.png,Door1,-0.396636285,-0.051710069,1,0,0,0.8099,optionLeft,30,14125,6,38,0,38,0,1,,,,,,,,,,,,,,,,,,,,,,,,,,,,,,,,,,,,,,,
,,,,,,,,2023-08-16_08h49.19.478,HF_wild_card,2022.2.4,MacIntel,59.99880002,5bfe7267098e7a00016a4058,64d2fd46c836a06233681665,64dc7f6c99fcc0f466f02f8d,,,,,,,decisionTrl,resources/DR.BMP,resources/DY.BMP,Door3,0.350086806,-0.065360243,1,0,0,1.0968,optionRight,70,14195,6,39,0,39,0,1,,,,,,,,,,,,,,,,,,,,,,,,,,,,,,,,,,,,,,,
,,,,,,,,2023-08-16_08h49.19.478,HF_wild_card,2022.2.4,MacIntel,59.99880002,5bfe7267098e7a00016a4058,64d2fd46c836a06233681665,64dc7f6c99fcc0f466f02f8d,,,,,,,decisionTrl,resources/DB.BMP,resources/DBN.BMP,Door1,-0.386740451,-0.041974826,1,0,0,1.1611,optionLeft,30,14225,6,40,0,40,0,1,,,,,,,,,,,,,,,,,,,,,,,,,,,,,,,,,,,,,,,
,,,,,,,,2023-08-16_08h49.19.478,HF_wild_card,2022.2.4,MacIntel,59.99880002,5bfe7267098e7a00016a4058,64d2fd46c836a06233681665,64dc7f6c99fcc0f466f02f8d,,,,,,,decisionTrl,resources/DB.BMP,resources/DBN.BMP,Door1,-0.325646701,-0.051419271,1,0,0,1.1131,optionLeft,30,14255,6,41,0,41,0,1,,,,,,,,,,,,,,,,,,,,,,,,,,,,,,,,,,,,,,,
,,,,,,,,2023-08-16_08h49.19.478,HF_wild_card,2022.2.4,MacIntel,59.99880002,5bfe7267098e7a00016a4058,64d2fd46c836a06233681665,64dc7f6c99fcc0f466f02f8d,,,,,,,ctch,resources/DR.BMP,resources/DB.BMP,Door4,-0.359418403,-0.07124566,1,0,0,1.2126,optionLeft,80,14335,6,42,0,42,0,1,,,,,,,,,,,,,,,,,,,,,,,,,,,,,,,,,,,,,,,
,,,,,,,,2023-08-16_08h49.19.478,HF_wild_card,2022.2.4,MacIntel,59.99880002,5bfe7267098e7a00016a4058,64d2fd46c836a06233681665,64dc7f6c99fcc0f466f02f8d,,,,,,,decisionTrl,resources/DBN.BMP,resources/DB.BMP,Door1,0.38124566,-0.056957465,1,0,0,1.0263,optionRight,30,14365,6,43,0,43,0,1,,,,,,,,,,,,,,,,,,,,,,,,,,,,,,,,,,,,,,,
,,,,,,,,2023-08-16_08h49.19.478,HF_wild_card,2022.2.4,MacIntel,59.99880002,5bfe7267098e7a00016a4058,64d2fd46c836a06233681665,64dc7f6c99fcc0f466f02f8d,,,,,,,,,,,,,,,,,,,,,,,,,,5,0,5,0,1,,,,,,,,,,,,,,,,,,,,,,,,,,,,,,,,,,
,,,,,,,,2023-08-16_08h49.19.478,HF_wild_card,2022.2.4,MacIntel,59.99880002,5bfe7267098e7a00016a4058,64d2fd46c836a06233681665,64dc7f6c99fcc0f466f02f8d,,,,,,,ctch,resources/DR.BMP,resources/DB.BMP,Door4,-0.277439236,-0.112612847,1,0,0,1.7266,optionLeft,60,14425,7,0,0,0,0,1,,,,,,,,,,,,,,,,,,,,,,,,,,,,,,,,,,,,,,,
,,,,,,,,2023-08-16_08h49.19.478,HF_wild_card,2022.2.4,MacIntel,59.99880002,5bfe7267098e7a00016a4058,64d2fd46c836a06233681665,64dc7f6c99fcc0f466f02f8d,,,,,,,decisionTrl,resources/DR.BMP,resources/DY.BMP,Door3,0.358272569,-0.110716146,1,0,0,1.447,optionRight,70,14495,7,1,0,1,0,1,,,,,,,,,,,,,,,,,,,,,,,,,,,,,,,,,,,,,,,
,,,,,,,,2023-08-16_08h49.19.478,HF_wild_card,2022.2.4,MacIntel,59.99880002,5bfe7267098e7a00016a4058,64d2fd46c836a06233681665,64dc7f6c99fcc0f466f02f8d,,,,,,,decisionTrl,resources/DR.BMP,resources/DY.BMP,Door3,0.352608507,-0.034392361,1,0,0,1.0148,optionRight,70,14565,7,2,0,2,0,1,,,,,,,,,,,,,,,,,,,,,,,,,,,,,,,,,,,,,,,
,,,,,,,,2023-08-16_08h49.19.478,HF_wild_card,2022.2.4,MacIntel,59.99880002,5bfe7267098e7a00016a4058,64d2fd46c836a06233681665,64dc7f6c99fcc0f466f02f8d,,,,,,,decisionTrl,resources/DB.BMP,resources/DBN.BMP,Door1,-0.276493056,-0.040638021,1,0,0,0.931,optionLeft,30,14595,7,3,0,3,0,1,,,,,,,,,,,,,,,,,,,,,,,,,,,,,,,,,,,,,,,
,,,,,,,,2023-08-16_08h49.19.478,HF_wild_card,2022.2.4,MacIntel,59.99880002,5bfe7267098e7a00016a4058,64d2fd46c836a06233681665,64dc7f6c99fcc0f466f02f8d,,,,,,,ctch,resources/DB.BMP,resources/DR.BMP,Door4,0.322790799,-0.061801215,1,0,0,1.6137,optionRight,60,14655,7,4,0,4,0,1,,,,,,,,,,,,,,,,,,,,,,,,,,,,,,,,,,,,,,,
,,,,,,,,2023-08-16_08h49.19.478,HF_wild_card,2022.2.4,MacIntel,59.99880002,5bfe7267098e7a00016a4058,64d2fd46c836a06233681665,64dc7f6c99fcc0f466f02f8d,,,,,,,decisionTrl,resources/DY.BMP,resources/DR.BMP,Door3,-0.219192708,-0.115052083,1,0,0,1.1977,optionLeft,70,14725,7,5,0,5,0,1,,,,,,,,,,,,,,,,,,,,,,,,,,,,,,,,,,,,,,,
,,,,,,,,2023-08-16_08h49.19.478,HF_wild_card,2022.2.4,MacIntel,59.99880002,5bfe7267098e7a00016a4058,64d2fd46c836a06233681665,64dc7f6c99fcc0f466f02f8d,,,,,,,decisionTrl,resources/DR.BMP,resources/DY.BMP,Door3,0.33094184,-0.060642361,1,0,0,0.9311,optionRight,70,14795,7,6,0,6,0,1,,,,,,,,,,,,,,,,,,,,,,,,,,,,,,,,,,,,,,,
,,,,,,,,2023-08-16_08h49.19.478,HF_wild_card,2022.2.4,MacIntel,59.99880002,5bfe7267098e7a00016a4058,64d2fd46c836a06233681665,64dc7f6c99fcc0f466f02f8d,,,,,,,decisionTrl,resources/DB.BMP,resources/DBN.BMP,Door1,-0.357942708,-0.057352431,1,0,0,0.88,optionLeft,30,14825,7,7,0,7,0,1,,,,,,,,,,,,,,,,,,,,,,,,,,,,,,,,,,,,,,,
,,,,,,,,2023-08-16_08h49.19.478,HF_wild_card,2022.2.4,MacIntel,59.99880002,5bfe7267098e7a00016a4058,64d2fd46c836a06233681665,64dc7f6c99fcc0f466f02f8d,,,,,,,decisionTrl,resources/DR.BMP,resources/DY.BMP,Door3,0.348016493,-0.0834375,1,0,0,0.9797,optionRight,70,14895,7,8,0,8,0,1,,,,,,,,,,,,,,,,,,,,,,,,,,,,,,,,,,,,,,,
,,,,,,,,2023-08-16_08h49.19.478,HF_wild_card,2022.2.4,MacIntel,59.99880002,5bfe7267098e7a00016a4058,64d2fd46c836a06233681665,64dc7f6c99fcc0f466f02f8d,,,,,,,decisionTrl,resources/DBN.BMP,resources/DB.BMP,Door1,0.330121528,-0.075824653,1,0,0,1.0459,optionRight,30,14925,7,9,0,9,0,1,,,,,,,,,,,,,,,,,,,,,,,,,,,,,,,,,,,,,,,
,,,,,,,,2023-08-16_08h49.19.478,HF_wild_card,2022.2.4,MacIntel,59.99880002,5bfe7267098e7a00016a4058,64d2fd46c836a06233681665,64dc7f6c99fcc0f466f02f8d,,,,,,,decisionTrl,resources/DBN.BMP,resources/DB.BMP,Door1,0.312135417,-0.037617188,1,0,0,0.9307,optionRight,30,14955,7,10,0,10,0,1,,,,,,,,,,,,,,,,,,,,,,,,,,,,,,,,,,,,,,,
,,,,,,,,2023-08-16_08h49.19.478,HF_wild_card,2022.2.4,MacIntel,59.99880002,5bfe7267098e7a00016a4058,64d2fd46c836a06233681665,64dc7f6c99fcc0f466f02f8d,,,,,,,ctch,resources/DB.BMP,resources/DR.BMP,Door4,0.34203559,-0.075989583,1,0,0,1.3614,optionRight,60,15015,7,11,0,11,0,1,,,,,,,,,,,,,,,,,,,,,,,,,,,,,,,,,,,,,,,
,,,,,,,,2023-08-16_08h49.19.478,HF_wild_card,2022.2.4,MacIntel,59.99880002,5bfe7267098e7a00016a4058,64d2fd46c836a06233681665,64dc7f6c99fcc0f466f02f8d,,,,,,,decisionTrl,resources/DR.BMP,resources/DY.BMP,Door3,0.368315972,-0.063858507,1,0,0,1.0974,optionRight,70,15085,7,12,0,12,0,1,,,,,,,,,,,,,,,,,,,,,,,,,,,,,,,,,,,,,,,
,,,,,,,,2023-08-16_08h49.19.478,HF_wild_card,2022.2.4,MacIntel,59.99880002,5bfe7267098e7a00016a4058,64d2fd46c836a06233681665,64dc7f6c99fcc0f466f02f8d,,,,,,,decisionTrl,resources/DB.BMP,resources/DBN.BMP,Door1,-0.365138889,-0.048559028,1,0,0,0.9487,optionLeft,30,15115,7,13,0,13,0,1,,,,,,,,,,,,,,,,,,,,,,,,,,,,,,,,,,,,,,,
,,,,,,,,2023-08-16_08h49.19.478,HF_wild_card,2022.2.4,MacIntel,59.99880002,5bfe7267098e7a00016a4058,64d2fd46c836a06233681665,64dc7f6c99fcc0f466f02f8d,,,,,,,ctch,resources/DB.BMP,resources/DR.BMP,Door4,0.440989583,-0.071236979,1,0,0,0.9639,optionRight,60,15175,7,14,0,14,0,1,,,,,,,,,,,,,,,,,,,,,,,,,,,,,,,,,,,,,,,
,,,,,,,,2023-08-16_08h49.19.478,HF_wild_card,2022.2.4,MacIntel,59.99880002,5bfe7267098e7a00016a4058,64d2fd46c836a06233681665,64dc7f6c99fcc0f466f02f8d,,,,,,,decisionTrl,resources/DR.BMP,resources/DY.BMP,Door3,0.386167535,-0.058194444,1,0,0,0.9988,optionRight,70,15245,7,15,0,15,0,1,,,,,,,,,,,,,,,,,,,,,,,,,,,,,,,,,,,,,,,
,,,,,,,,2023-08-16_08h49.19.478,HF_wild_card,2022.2.4,MacIntel,59.99880002,5bfe7267098e7a00016a4058,64d2fd46c836a06233681665,64dc7f6c99fcc0f466f02f8d,,,,,,,ctch,resources/DBN.BMP,resources/DY.BMP,Door3,0.347109375,-0.062621528,1,0,0,0.8812,optionRight,70,15315,7,16,0,16,0,1,,,,,,,,,,,,,,,,,,,,,,,,,,,,,,,,,,,,,,,
,,,,,,,,2023-08-16_08h49.19.478,HF_wild_card,2022.2.4,MacIntel,59.99880002,5bfe7267098e7a00016a4058,64d2fd46c836a06233681665,64dc7f6c99fcc0f466f02f8d,,,,,,,ctch,resources/DY.BMP,resources/DBN.BMP,Door3,-0.346831597,-0.050321181,1,0,0,0.8314,optionLeft,70,15385,7,17,0,17,0,1,,,,,,,,,,,,,,,,,,,,,,,,,,,,,,,,,,,,,,,
,,,,,,,,2023-08-16_08h49.19.478,HF_wild_card,2022.2.4,MacIntel,59.99880002,5bfe7267098e7a00016a4058,64d2fd46c836a06233681665,64dc7f6c99fcc0f466f02f8d,,,,,,,decisionTrl,resources/DY.BMP,resources/DR.BMP,Door3,-0.417456597,-0.016289062,1,0,0,1.0972,optionLeft,70,15455,7,18,0,18,0,1,,,,,,,,,,,,,,,,,,,,,,,,,,,,,,,,,,,,,,,
,,,,,,,,2023-08-16_08h49.19.478,HF_wild_card,2022.2.4,MacIntel,59.99880002,5bfe7267098e7a00016a4058,64d2fd46c836a06233681665,64dc7f6c99fcc0f466f02f8d,,,,,,,decisionTrl,resources/DBN.BMP,resources/DB.BMP,Door1,0.370876736,-0.072157118,1,0,0,0.9637,optionRight,30,15485,7,19,0,19,0,1,,,,,,,,,,,,,,,,,,,,,,,,,,,,,,,,,,,,,,,
,,,,,,,,2023-08-16_08h49.19.478,HF_wild_card,2022.2.4,MacIntel,59.99880002,5bfe7267098e7a00016a4058,64d2fd46c836a06233681665,64dc7f6c99fcc0f466f02f8d,,,,,,,decisionTrl,resources/DY.BMP,resources/DR.BMP,Door3,-0.393172743,-0.031779514,1,0,0,0.9971,optionLeft,70,15555,7,20,0,20,0,1,,,,,,,,,,,,,,,,,,,,,,,,,,,,,,,,,,,,,,,
,,,,,,,,2023-08-16_08h49.19.478,HF_wild_card,2022.2.4,MacIntel,59.99880002,5bfe7267098e7a00016a4058,64d2fd46c836a06233681665,64dc7f6c99fcc0f466f02f8d,,,,,,,decisionTrl,resources/DBN.BMP,resources/DB.BMP,Door1,0.410073785,-0.042122396,1,0,0,0.8643,optionRight,30,15585,7,21,0,21,0,1,,,,,,,,,,,,,,,,,,,,,,,,,,,,,,,,,,,,,,,
,,,,,,,,2023-08-16_08h49.19.478,HF_wild_card,2022.2.4,MacIntel,59.99880002,5bfe7267098e7a00016a4058,64d2fd46c836a06233681665,64dc7f6c99fcc0f466f02f8d,,,,,,,ctch,resources/DR.BMP,resources/DB.BMP,Door4,-0.377122396,-0.026332465,1,0,0,1.0146,optionLeft,60,15645,7,22,0,22,0,1,,,,,,,,,,,,,,,,,,,,,,,,,,,,,,,,,,,,,,,
,,,,,,,,2023-08-16_08h49.19.478,HF_wild_card,2022.2.4,MacIntel,59.99880002,5bfe7267098e7a00016a4058,64d2fd46c836a06233681665,64dc7f6c99fcc0f466f02f8d,,,,,,,decisionTrl,resources/DY.BMP,resources/DR.BMP,Door3,-0.261440972,-0.043841146,1,0,0,1.0806,optionLeft,70,15715,7,23,0,23,0,1,,,,,,,,,,,,,,,,,,,,,,,,,,,,,,,,,,,,,,,
,,,,,,,,2023-08-16_08h49.19.478,HF_wild_card,2022.2.4,MacIntel,59.99880002,5bfe7267098e7a00016a4058,64d2fd46c836a06233681665,64dc7f6c99fcc0f466f02f8d,,,,,,,decisionTrl,resources/DBN.BMP,resources/DB.BMP,Door1,0.367669271,-0.043780382,1,0,0,0.8983,optionRight,30,15745,7,24,0,24,0,1,,,,,,,,,,,,,,,,,,,,,,,,,,,,,,,,,,,,,,,
,,,,,,,,2023-08-16_08h49.19.478,HF_wild_card,2022.2.4,MacIntel,59.99880002,5bfe7267098e7a00016a4058,64d2fd46c836a06233681665,64dc7f6c99fcc0f466f02f8d,,,,,,,ctch,resources/DR.BMP,resources/DB.BMP,Door4,-0.411232639,-0.044565972,1,0,0,1.0485,optionLeft,60,15805,7,25,0,25,0,1,,,,,,,,,,,,,,,,,,,,,,,,,,,,,,,,,,,,,,,
,,,,,,,,2023-08-16_08h49.19.478,HF_wild_card,2022.2.4,MacIntel,59.99880002,5bfe7267098e7a00016a4058,64d2fd46c836a06233681665,64dc7f6c99fcc0f466f02f8d,,,,,,,decisionTrl,resources/DY.BMP,resources/DR.BMP,Door3,-0.286293403,-0.034388021,1,0,0,1.3125,optionLeft,70,15875,7,26,0,26,0,1,,,,,,,,,,,,,,,,,,,,,,,,,,,,,,,,,,,,,,,
,,,,,,,,2023-08-16_08h49.19.478,HF_wild_card,2022.2.4,MacIntel,59.99880002,5bfe7267098e7a00016a4058,64d2fd46c836a06233681665,64dc7f6c99fcc0f466f02f8d,,,,,,,decisionTrl,resources/DBN.BMP,resources/DB.BMP,Door1,0.343671875,-0.0403125,1,0,0,0.9815,optionRight,30,15905,7,27,0,27,0,1,,,,,,,,,,,,,,,,,,,,,,,,,,,,,,,,,,,,,,,
,,,,,,,,2023-08-16_08h49.19.478,HF_wild_card,2022.2.4,MacIntel,59.99880002,5bfe7267098e7a00016a4058,64d2fd46c836a06233681665,64dc7f6c99fcc0f466f02f8d,,,,,,,ctch,resources/DBN.BMP,resources/DY.BMP,Door3,0.422473958,-0.031388889,1,0,0,0.864,optionRight,70,15975,7,28,0,28,0,1,,,,,,,,,,,,,,,,,,,,,,,,,,,,,,,,,,,,,,,
,,,,,,,,2023-08-16_08h49.19.478,HF_wild_card,2022.2.4,MacIntel,59.99880002,5bfe7267098e7a00016a4058,64d2fd46c836a06233681665,64dc7f6c99fcc0f466f02f8d,,,,,,,ctch,resources/DY.BMP,resources/DBN.BMP,Door3,-0.350507813,-0.039392361,1,0,0,0.8968,optionLeft,70,16045,7,29,0,29,0,1,,,,,,,,,,,,,,,,,,,,,,,,,,,,,,,,,,,,,,,
,,,,,,,,2023-08-16_08h49.19.478,HF_wild_card,2022.2.4,MacIntel,59.99880002,5bfe7267098e7a00016a4058,64d2fd46c836a06233681665,64dc7f6c99fcc0f466f02f8d,,,,,,,decisionTrl,resources/DY.BMP,resources/DR.BMP,Door3,-0.344144965,-0.026336806,1,0,0,1.0473,optionLeft,70,16115,7,30,0,30,0,1,,,,,,,,,,,,,,,,,,,,,,,,,,,,,,,,,,,,,,,
,,,,,,,,2023-08-16_08h49.19.478,HF_wild_card,2022.2.4,MacIntel,59.99880002,5bfe7267098e7a00016a4058,64d2fd46c836a06233681665,64dc7f6c99fcc0f466f02f8d,,,,,,,decisionTrl,resources/DB.BMP,resources/DBN.BMP,Door1,-0.376445313,-0.058940972,1,0,0,1.112,optionLeft,30,16145,7,31,0,31,0,1,,,,,,,,,,,,,,,,,,,,,,,,,,,,,,,,,,,,,,,
,,,,,,,,2023-08-16_08h49.19.478,HF_wild_card,2022.2.4,MacIntel,59.99880002,5bfe7267098e7a00016a4058,64d2fd46c836a06233681665,64dc7f6c99fcc0f466f02f8d,,,,,,,decisionTrl,resources/DB.BMP,resources/DBN.BMP,Door1,-0.331423611,-0.059722222,1,0,0,0.9314,optionLeft,30,16175,7,32,0,32,0,1,,,,,,,,,,,,,,,,,,,,,,,,,,,,,,,,,,,,,,,
,,,,,,,,2023-08-16_08h49.19.478,HF_wild_card,2022.2.4,MacIntel,59.99880002,5bfe7267098e7a00016a4058,64d2fd46c836a06233681665,64dc7f6c99fcc0f466f02f8d,,,,,,,ctch,resources/DY.BMP,resources/DBN.BMP,Door3,-0.34093316,-0.046822917,1,0,0,0.9805,optionLeft,70,16245,7,33,0,33,0,1,,,,,,,,,,,,,,,,,,,,,,,,,,,,,,,,,,,,,,,
,,,,,,,,2023-08-16_08h49.19.478,HF_wild_card,2022.2.4,MacIntel,59.99880002,5bfe7267098e7a00016a4058,64d2fd46c836a06233681665,64dc7f6c99fcc0f466f02f8d,,,,,,,decisionTrl,resources/DB.BMP,resources/DBN.BMP,Door1,-0.350616319,-0.092361111,1,0,0,0.9304,optionLeft,30,16275,7,34,0,34,0,1,,,,,,,,,,,,,,,,,,,,,,,,,,,,,,,,,,,,,,,
,,,,,,,,2023-08-16_08h49.19.478,HF_wild_card,2022.2.4,MacIntel,59.99880002,5bfe7267098e7a00016a4058,64d2fd46c836a06233681665,64dc7f6c99fcc0f466f02f8d,,,,,,,ctch,resources/DBN.BMP,resources/DY.BMP,Door3,0.390664063,-0.054266493,1,0,0,0.9309,optionRight,70,16345,7,35,0,35,0,1,,,,,,,,,,,,,,,,,,,,,,,,,,,,,,,,,,,,,,,
,,,,,,,,2023-08-16_08h49.19.478,HF_wild_card,2022.2.4,MacIntel,59.99880002,5bfe7267098e7a00016a4058,64d2fd46c836a06233681665,64dc7f6c99fcc0f466f02f8d,,,,,,,,,,,,,,,,,,,,,,,,,,6,0,6,0,1,,,,,,,,,,,,,,,,,,,,,,,,,,,,,,,,,,
,,,,,,,,2023-08-16_08h49.19.478,HF_wild_card,2022.2.4,MacIntel,59.99880002,5bfe7267098e7a00016a4058,64d2fd46c836a06233681665,64dc7f6c99fcc0f466f02f8d,,,,,,,,,,,,,,,,,,,,,,,,,,,,,,,4,,,,,,,,,,,,,,,,,,,,,,,,,,,,,,,,,
,,,,,,,,2023-08-16_08h49.19.478,HF_wild_card,2022.2.4,MacIntel,59.99880002,5bfe7267098e7a00016a4058,64d2fd46c836a06233681665,64dc7f6c99fcc0f466f02f8d,,,,,,,,,,,,,,,,,,,,,,,,,,,,,,,,,,,,,,,,,,,,,,,,,,,,,,,,,,,,,,,,
,,,,,,,,2023-08-16_08h49.19.478,HF_wild_card,2022.2.4,MacIntel,59.99880002,5bfe7267098e7a00016a4058,64d2fd46c836a06233681665,64dc7f6c99fcc0f466f02f8d,,,,,,,,,,,,,,,,,,,,,,,,,,,,,,,,60,Door4,resources/DR.BMP,0,0,0,0,1,,,,,,,,,,,,,,,,,,,,,,,,,
,,,,,,,,2023-08-16_08h49.19.478,HF_wild_card,2022.2.4,MacIntel,59.99880002,5bfe7267098e7a00016a4058,64d2fd46c836a06233681665,64dc7f6c99fcc0f466f02f8d,,,,,,,,,,,,,,,,,,,,,,,,,,,,,,,,95,WC_extreme,resources/DG.BMP,1,0,1,0,1,,,,,,,,,,,,,,,,,,,,,,,,,
