Condition,Low fixed image (Door1),Low risky image (Door2),High fixed image (Door3),High risky image (Door4),Extreme Wild Card,NonExtreme Wild Card,,date,expName,psychopyVersion,OS,frameRate,PROLIFIC_PID,STUDY_ID,SESSION_ID,mouse_2.x,mouse_2.y,mouse_2.leftButton,mouse_2.midButton,mouse_2.rightButton,mouse_2.clicked_name,Trial Type,Left Option Image,Right Option Image,Chosen Door,mouse.x,mouse.y,mouse.leftButton,mouse.midButton,mouse.rightButton,mouse.time,mouse.clicked_name,Feedback,Cumulative Reward,Block,trial.thisRepN,trial.thisTrialN,trial.thisN,trial.thisIndex,trial.ran,blocks.thisRepN,blocks.thisTrialN,blocks.thisN,blocks.thisIndex,blocks.ran,Money conversion,First Outcome Reported,Shown Door (First Outcome),Displayed Image (First Outcome),outcomes.thisRepN,outcomes.thisTrialN,outcomes.thisN,outcomes.thisIndex,outcomes.ran,judgments.thisRepN,judgments.thisTrialN,judgments.thisN,judgments.thisIndex,judgments.ran,freqMouse.x,freqMouse.y,freqMouse.leftButton,freqMouse.midButton,freqMouse.rightButton,freqMouse.clicked_name,FQJ for first outcome,FQJ for second outcome,Shown Door,Displayed Image,trials.thisRepN,trials.thisTrialN,trials.thisN,trials.thisIndex,trials.ran,judgBlock.thisRepN,judgBlock.thisTrialN,judgBlock.thisN,judgBlock.thisIndex,judgBlock.ran
1,resources/DB.BMP,resources/DBN.BMP,resources/DG.BMP,resources/DP.BMP,resources/DR.BMP,resources/DY.BMP,63d18330964d8e7f0f14164d,2023-08-16_08h44.51.089,HF_wild_card,2022.2.4,MacIntel,63.61323155,63d18330964d8e7f0f14164d,64d2fd46c836a06233681665,64dc7e27ad91d76cb42eb0c7,,,,,,,,,,,,,,,,,,,,,,,,,,,,,,,,,,,,,,,,,,,,,,,,,,,,,,,,,,,,,,,,
,,,,,,,63d18330964d8e7f0f14164d,2023-08-16_08h44.51.089,HF_wild_card,2022.2.4,MacIntel,63.61323155,63d18330964d8e7f0f14164d,64d2fd46c836a06233681665,64dc7e27ad91d76cb42eb0c7,0.004,-0.418,1,0,0,agree,,,,,,,,,,,,,,,,,,,,,,,,,,,,,,,,,,,,,,,,,,,,,,,,,,,,,,,,,,
,,,,,,,63d18330964d8e7f0f14164d,2023-08-16_08h44.51.089,HF_wild_card,2022.2.4,MacIntel,63.61323155,63d18330964d8e7f0f14164d,64d2fd46c836a06233681665,64dc7e27ad91d76cb42eb0c7,,,,,,,,,,,,,,,,,,,,,,,,,,,,,,,,,,,,,,,,,,,,,,,,,,,,,,,,,,,,,,,,
,,,,,,,63d18330964d8e7f0f14164d,2023-08-16_08h44.51.089,HF_wild_card,2022.2.4,MacIntel,63.61323155,63d18330964d8e7f0f14164d,64d2fd46c836a06233681665,64dc7e27ad91d76cb42eb0c7,,,,,,,sngl,resources/Empty.png,resources/DBN.BMP,Door2,0.008,-0.414,1,0,0,10.35,optionRight,20,20,1,0,0,0,0,1,,,,,,,,,,,,,,,,,,,,,,,,,,,,,,,,,,,,,,,
,,,,,,,63d18330964d8e7f0f14164d,2023-08-16_08h44.51.089,HF_wild_card,2022.2.4,MacIntel,63.61323155,63d18330964d8e7f0f14164d,64d2fd46c836a06233681665,64dc7e27ad91d76cb42eb0c7,,,,,,,decisionTrl,resources/DG.BMP,resources/DP.BMP,Door4,0.444,0.02,1,0,0,6.183,optionRight,60,80,1,1,0,1,0,1,,,,,,,,,,,,,,,,,,,,,,,,,,,,,,,,,,,,,,,
,,,,,,,63d18330964d8e7f0f14164d,2023-08-16_08h44.51.089,HF_wild_card,2022.2.4,MacIntel,63.61323155,63d18330964d8e7f0f14164d,64d2fd46c836a06233681665,64dc7e27ad91d76cb42eb0c7,,,,,,,ctch,resources/DP.BMP,resources/DB.BMP,Door4,-0.361,-0.05,1,0,0,6.26,optionLeft,80,160,1,2,0,2,0,1,,,,,,,,,,,,,,,,,,,,,,,,,,,,,,,,,,,,,,,
,,,,,,,63d18330964d8e7f0f14164d,2023-08-16_08h44.51.089,HF_wild_card,2022.2.4,MacIntel,63.61323155,63d18330964d8e7f0f14164d,64d2fd46c836a06233681665,64dc7e27ad91d76cb42eb0c7,,,,,,,decisionTrl,resources/DP.BMP,resources/DG.BMP,Door3,0.294,-0.058,1,0,0,5.158,optionRight,70,230,1,3,0,3,0,1,,,,,,,,,,,,,,,,,,,,,,,,,,,,,,,,,,,,,,,
,,,,,,,63d18330964d8e7f0f14164d,2023-08-16_08h44.51.089,HF_wild_card,2022.2.4,MacIntel,63.61323155,63d18330964d8e7f0f14164d,64d2fd46c836a06233681665,64dc7e27ad91d76cb42eb0c7,,,,,,,ctch,resources/DBN.BMP,resources/DG.BMP,Door2,-0.369,-0.028,1,0,0,2.06,optionLeft,20,250,1,4,0,4,0,1,,,,,,,,,,,,,,,,,,,,,,,,,,,,,,,,,,,,,,,
,,,,,,,63d18330964d8e7f0f14164d,2023-08-16_08h44.51.089,HF_wild_card,2022.2.4,MacIntel,63.61323155,63d18330964d8e7f0f14164d,64d2fd46c836a06233681665,64dc7e27ad91d76cb42eb0c7,,,,,,,decisionTrl,resources/DY.BMP,resources/DBN.BMP,Door2,0.314,0.041,1,0,0,2.441,optionRight,40,290,1,5,0,5,0,1,,,,,,,,,,,,,,,,,,,,,,,,,,,,,,,,,,,,,,,
,,,,,,,63d18330964d8e7f0f14164d,2023-08-16_08h44.51.089,HF_wild_card,2022.2.4,MacIntel,63.61323155,63d18330964d8e7f0f14164d,64d2fd46c836a06233681665,64dc7e27ad91d76cb42eb0c7,,,,,,,decisionTrl,resources/DB.BMP,resources/DBN.BMP,Door1,-0.354,-0.075,1,0,0,3.638,optionLeft,30,320,1,6,0,6,0,1,,,,,,,,,,,,,,,,,,,,,,,,,,,,,,,,,,,,,,,
,,,,,,,63d18330964d8e7f0f14164d,2023-08-16_08h44.51.089,HF_wild_card,2022.2.4,MacIntel,63.61323155,63d18330964d8e7f0f14164d,64d2fd46c836a06233681665,64dc7e27ad91d76cb42eb0c7,,,,,,,decisionTrl,resources/DY.BMP,resources/DP.BMP,Door4,0.385,-0.015,1,0,0,1.382,optionRight,80,400,1,7,0,7,0,1,,,,,,,,,,,,,,,,,,,,,,,,,,,,,,,,,,,,,,,
,,,,,,,63d18330964d8e7f0f14164d,2023-08-16_08h44.51.089,HF_wild_card,2022.2.4,MacIntel,63.61323155,63d18330964d8e7f0f14164d,64d2fd46c836a06233681665,64dc7e27ad91d76cb42eb0c7,,,,,,,ctch,resources/DP.BMP,resources/DB.BMP,Door4,-0.259,-0.044,1,0,0,1.133,optionLeft,80,480,1,8,0,8,0,1,,,,,,,,,,,,,,,,,,,,,,,,,,,,,,,,,,,,,,,
,,,,,,,63d18330964d8e7f0f14164d,2023-08-16_08h44.51.089,HF_wild_card,2022.2.4,MacIntel,63.61323155,63d18330964d8e7f0f14164d,64d2fd46c836a06233681665,64dc7e27ad91d76cb42eb0c7,,,,,,,ctch,resources/DB.BMP,resources/DP.BMP,Door4,0.294,0.022,1,0,0,1.985,optionRight,80,560,1,9,0,9,0,1,,,,,,,,,,,,,,,,,,,,,,,,,,,,,,,,,,,,,,,
,,,,,,,63d18330964d8e7f0f14164d,2023-08-16_08h44.51.089,HF_wild_card,2022.2.4,MacIntel,63.61323155,63d18330964d8e7f0f14164d,64d2fd46c836a06233681665,64dc7e27ad91d76cb42eb0c7,,,,,,,decisionTrl,resources/DBN.BMP,resources/DB.BMP,Door2,-0.305,-0.026,1,0,0,1.666,optionLeft,40,600,1,10,0,10,0,1,,,,,,,,,,,,,,,,,,,,,,,,,,,,,,,,,,,,,,,
,,,,,,,63d18330964d8e7f0f14164d,2023-08-16_08h44.51.089,HF_wild_card,2022.2.4,MacIntel,63.61323155,63d18330964d8e7f0f14164d,64d2fd46c836a06233681665,64dc7e27ad91d76cb42eb0c7,,,,,,,decisionTrl,resources/DBN.BMP,resources/DY.BMP,WildCard_NonEx,0.299,-0.013,1,0,0,1.758,optionRight,45,645,1,11,0,11,0,1,,,,,,,,,,,,,,,,,,,,,,,,,,,,,,,,,,,,,,,
,,,,,,,63d18330964d8e7f0f14164d,2023-08-16_08h44.51.089,HF_wild_card,2022.2.4,MacIntel,63.61323155,63d18330964d8e7f0f14164d,64d2fd46c836a06233681665,64dc7e27ad91d76cb42eb0c7,,,,,,,decisionTrl,resources/DB.BMP,resources/DY.BMP,Door1,-0.186,-0.034,1,0,0,2.132,optionLeft,30,675,1,12,0,12,0,1,,,,,,,,,,,,,,,,,,,,,,,,,,,,,,,,,,,,,,,
,,,,,,,63d18330964d8e7f0f14164d,2023-08-16_08h44.51.089,HF_wild_card,2022.2.4,MacIntel,63.61323155,63d18330964d8e7f0f14164d,64d2fd46c836a06233681665,64dc7e27ad91d76cb42eb0c7,,,,,,,ctch,resources/DG.BMP,resources/DBN.BMP,Door2,0.398,0.006,1,0,0,2.853,optionRight,40,715,1,13,0,13,0,1,,,,,,,,,,,,,,,,,,,,,,,,,,,,,,,,,,,,,,,
,,,,,,,63d18330964d8e7f0f14164d,2023-08-16_08h44.51.089,HF_wild_card,2022.2.4,MacIntel,63.61323155,63d18330964d8e7f0f14164d,64d2fd46c836a06233681665,64dc7e27ad91d76cb42eb0c7,,,,,,,decisionTrl,resources/DP.BMP,resources/DY.BMP,Door4,-0.141,-0.071,1,0,0,2.385,optionLeft,80,795,1,14,0,14,0,1,,,,,,,,,,,,,,,,,,,,,,,,,,,,,,,,,,,,,,,
,,,,,,,63d18330964d8e7f0f14164d,2023-08-16_08h44.51.089,HF_wild_card,2022.2.4,MacIntel,63.61323155,63d18330964d8e7f0f14164d,64d2fd46c836a06233681665,64dc7e27ad91d76cb42eb0c7,,,,,,,decisionTrl,resources/DG.BMP,resources/DY.BMP,WildCard_NonEx,0.359,0.024,1,0,0,1.749,optionRight,45,840,1,15,0,15,0,1,,,,,,,,,,,,,,,,,,,,,,,,,,,,,,,,,,,,,,,
,,,,,,,63d18330964d8e7f0f14164d,2023-08-16_08h44.51.089,HF_wild_card,2022.2.4,MacIntel,63.61323155,63d18330964d8e7f0f14164d,64d2fd46c836a06233681665,64dc7e27ad91d76cb42eb0c7,,,,,,,sngl,resources/Empty.png,resources/DB.BMP,Door1,0.274,-0.01,1,0,0,1.918,optionRight,30,870,1,16,0,16,0,1,,,,,,,,,,,,,,,,,,,,,,,,,,,,,,,,,,,,,,,
,,,,,,,63d18330964d8e7f0f14164d,2023-08-16_08h44.51.089,HF_wild_card,2022.2.4,MacIntel,63.61323155,63d18330964d8e7f0f14164d,64d2fd46c836a06233681665,64dc7e27ad91d76cb42eb0c7,,,,,,,decisionTrl,resources/DG.BMP,resources/DP.BMP,Door4,0.259,-0.03,1,0,0,1.568,optionRight,60,930,1,17,0,17,0,1,,,,,,,,,,,,,,,,,,,,,,,,,,,,,,,,,,,,,,,
,,,,,,,63d18330964d8e7f0f14164d,2023-08-16_08h44.51.089,HF_wild_card,2022.2.4,MacIntel,63.61323155,63d18330964d8e7f0f14164d,64d2fd46c836a06233681665,64dc7e27ad91d76cb42eb0c7,,,,,,,sngl,resources/Empty.png,resources/DP.BMP,Door4,0.376,-0.024,1,0,0,1.39,optionRight,60,990,1,18,0,18,0,1,,,,,,,,,,,,,,,,,,,,,,,,,,,,,,,,,,,,,,,
,,,,,,,63d18330964d8e7f0f14164d,2023-08-16_08h44.51.089,HF_wild_card,2022.2.4,MacIntel,63.61323155,63d18330964d8e7f0f14164d,64d2fd46c836a06233681665,64dc7e27ad91d76cb42eb0c7,,,,,,,sngl,resources/DG.BMP,resources/Empty.png,Door3,-0.294,-0.031,1,0,0,1.899,optionLeft,70,1060,1,19,0,19,0,1,,,,,,,,,,,,,,,,,,,,,,,,,,,,,,,,,,,,,,,
,,,,,,,63d18330964d8e7f0f14164d,2023-08-16_08h44.51.089,HF_wild_card,2022.2.4,MacIntel,63.61323155,63d18330964d8e7f0f14164d,64d2fd46c836a06233681665,64dc7e27ad91d76cb42eb0c7,,,,,,,sngl,resources/Empty.png,resources/DY.BMP,WildCard_NonEx,0.303,-0.001,1,0,0,1.098,optionRight,45,1105,1,20,0,20,0,1,,,,,,,,,,,,,,,,,,,,,,,,,,,,,,,,,,,,,,,
,,,,,,,63d18330964d8e7f0f14164d,2023-08-16_08h44.51.089,HF_wild_card,2022.2.4,MacIntel,63.61323155,63d18330964d8e7f0f14164d,64d2fd46c836a06233681665,64dc7e27ad91d76cb42eb0c7,,,,,,,ctch,resources/DBN.BMP,resources/DG.BMP,Door2,-0.38,-0.033,1,0,0,1.767,optionLeft,20,1125,1,21,0,21,0,1,,,,,,,,,,,,,,,,,,,,,,,,,,,,,,,,,,,,,,,
,,,,,,,63d18330964d8e7f0f14164d,2023-08-16_08h44.51.089,HF_wild_card,2022.2.4,MacIntel,63.61323155,63d18330964d8e7f0f14164d,64d2fd46c836a06233681665,64dc7e27ad91d76cb42eb0c7,,,,,,,sngl,resources/DBN.BMP,resources/Empty.png,Door2,-0.277,-0.026,1,0,0,1.098,optionLeft,40,1165,1,22,0,22,0,1,,,,,,,,,,,,,,,,,,,,,,,,,,,,,,,,,,,,,,,
,,,,,,,63d18330964d8e7f0f14164d,2023-08-16_08h44.51.089,HF_wild_card,2022.2.4,MacIntel,63.61323155,63d18330964d8e7f0f14164d,64d2fd46c836a06233681665,64dc7e27ad91d76cb42eb0c7,,,,,,,sngl,resources/Empty.png,resources/DY.BMP,WildCard_NonEx,0.243,0.02,1,0,0,1.082,optionRight,55,1220,1,23,0,23,0,1,,,,,,,,,,,,,,,,,,,,,,,,,,,,,,,,,,,,,,,
,,,,,,,63d18330964d8e7f0f14164d,2023-08-16_08h44.51.089,HF_wild_card,2022.2.4,MacIntel,63.61323155,63d18330964d8e7f0f14164d,64d2fd46c836a06233681665,64dc7e27ad91d76cb42eb0c7,,,,,,,decisionTrl,resources/DY.BMP,resources/DB.BMP,WildCard_NonEx,-0.285,-0.051,1,0,0,1.3,optionLeft,45,1265,1,24,0,24,0,1,,,,,,,,,,,,,,,,,,,,,,,,,,,,,,,,,,,,,,,
,,,,,,,63d18330964d8e7f0f14164d,2023-08-16_08h44.51.089,HF_wild_card,2022.2.4,MacIntel,63.61323155,63d18330964d8e7f0f14164d,64d2fd46c836a06233681665,64dc7e27ad91d76cb42eb0c7,,,,,,,decisionTrl,resources/DG.BMP,resources/DP.BMP,Door4,0.286,-0.015,1,0,0,1.067,optionRight,60,1325,1,25,0,25,0,1,,,,,,,,,,,,,,,,,,,,,,,,,,,,,,,,,,,,,,,
,,,,,,,63d18330964d8e7f0f14164d,2023-08-16_08h44.51.089,HF_wild_card,2022.2.4,MacIntel,63.61323155,63d18330964d8e7f0f14164d,64d2fd46c836a06233681665,64dc7e27ad91d76cb42eb0c7,,,,,,,decisionTrl,resources/DB.BMP,resources/DBN.BMP,Door2,0.278,-0.008,1,0,0,1.735,optionRight,40,1365,1,26,0,26,0,1,,,,,,,,,,,,,,,,,,,,,,,,,,,,,,,,,,,,,,,
,,,,,,,63d18330964d8e7f0f14164d,2023-08-16_08h44.51.089,HF_wild_card,2022.2.4,MacIntel,63.61323155,63d18330964d8e7f0f14164d,64d2fd46c836a06233681665,64dc7e27ad91d76cb42eb0c7,,,,,,,ctch,resources/DG.BMP,resources/DBN.BMP,Door3,-0.34,-0.031,1,0,0,1.466,optionLeft,70,1435,1,27,0,27,0,1,,,,,,,,,,,,,,,,,,,,,,,,,,,,,,,,,,,,,,,
,,,,,,,63d18330964d8e7f0f14164d,2023-08-16_08h44.51.089,HF_wild_card,2022.2.4,MacIntel,63.61323155,63d18330964d8e7f0f14164d,64d2fd46c836a06233681665,64dc7e27ad91d76cb42eb0c7,,,,,,,decisionTrl,resources/DBN.BMP,resources/DB.BMP,Door2,-0.329,-0.049,1,0,0,1.497,optionLeft,40,1475,1,28,0,28,0,1,,,,,,,,,,,,,,,,,,,,,,,,,,,,,,,,,,,,,,,
,,,,,,,63d18330964d8e7f0f14164d,2023-08-16_08h44.51.089,HF_wild_card,2022.2.4,MacIntel,63.61323155,63d18330964d8e7f0f14164d,64d2fd46c836a06233681665,64dc7e27ad91d76cb42eb0c7,,,,,,,decisionTrl,resources/DP.BMP,resources/DG.BMP,Door4,-0.389,-0.038,1,0,0,1.298,optionLeft,80,1555,1,29,0,29,0,1,,,,,,,,,,,,,,,,,,,,,,,,,,,,,,,,,,,,,,,
,,,,,,,63d18330964d8e7f0f14164d,2023-08-16_08h44.51.089,HF_wild_card,2022.2.4,MacIntel,63.61323155,63d18330964d8e7f0f14164d,64d2fd46c836a06233681665,64dc7e27ad91d76cb42eb0c7,,,,,,,decisionTrl,resources/DP.BMP,resources/DG.BMP,Door4,-0.369,-0.019,1,0,0,1.283,optionLeft,80,1635,1,30,0,30,0,1,,,,,,,,,,,,,,,,,,,,,,,,,,,,,,,,,,,,,,,
,,,,,,,63d18330964d8e7f0f14164d,2023-08-16_08h44.51.089,HF_wild_card,2022.2.4,MacIntel,63.61323155,63d18330964d8e7f0f14164d,64d2fd46c836a06233681665,64dc7e27ad91d76cb42eb0c7,,,,,,,sngl,resources/DB.BMP,resources/Empty.png,Door1,-0.367,-0.034,1,0,0,1.434,optionLeft,30,1665,1,31,0,31,0,1,,,,,,,,,,,,,,,,,,,,,,,,,,,,,,,,,,,,,,,
,,,,,,,63d18330964d8e7f0f14164d,2023-08-16_08h44.51.089,HF_wild_card,2022.2.4,MacIntel,63.61323155,63d18330964d8e7f0f14164d,64d2fd46c836a06233681665,64dc7e27ad91d76cb42eb0c7,,,,,,,sngl,resources/DY.BMP,resources/Empty.png,WildCard_NonEx,-0.28,-0.049,1,0,0,1.034,optionLeft,45,1710,1,32,0,32,0,1,,,,,,,,,,,,,,,,,,,,,,,,,,,,,,,,,,,,,,,
,,,,,,,63d18330964d8e7f0f14164d,2023-08-16_08h44.51.089,HF_wild_card,2022.2.4,MacIntel,63.61323155,63d18330964d8e7f0f14164d,64d2fd46c836a06233681665,64dc7e27ad91d76cb42eb0c7,,,,,,,decisionTrl,resources/DG.BMP,resources/DP.BMP,Door4,0.353,-0.003,1,0,0,1.716,optionRight,80,1790,1,33,0,33,0,1,,,,,,,,,,,,,,,,,,,,,,,,,,,,,,,,,,,,,,,
,,,,,,,63d18330964d8e7f0f14164d,2023-08-16_08h44.51.089,HF_wild_card,2022.2.4,MacIntel,63.61323155,63d18330964d8e7f0f14164d,64d2fd46c836a06233681665,64dc7e27ad91d76cb42eb0c7,,,,,,,decisionTrl,resources/DY.BMP,resources/DG.BMP,WildCard_NonEx,-0.192,-0.021,1,0,0,1.056,optionLeft,45,1835,1,34,0,34,0,1,,,,,,,,,,,,,,,,,,,,,,,,,,,,,,,,,,,,,,,
,,,,,,,63d18330964d8e7f0f14164d,2023-08-16_08h44.51.089,HF_wild_card,2022.2.4,MacIntel,63.61323155,63d18330964d8e7f0f14164d,64d2fd46c836a06233681665,64dc7e27ad91d76cb42eb0c7,,,,,,,ctch,resources/DB.BMP,resources/DP.BMP,Door4,0.339,-0.026,1,0,0,0.965,optionRight,80,1915,1,35,0,35,0,1,,,,,,,,,,,,,,,,,,,,,,,,,,,,,,,,,,,,,,,
,,,,,,,63d18330964d8e7f0f14164d,2023-08-16_08h44.51.089,HF_wild_card,2022.2.4,MacIntel,63.61323155,63d18330964d8e7f0f14164d,64d2fd46c836a06233681665,64dc7e27ad91d76cb42eb0c7,,,,,,,sngl,resources/DY.BMP,resources/Empty.png,WildCard_NonEx,-0.249,-0.048,1,0,0,1.248,optionLeft,55,1970,1,36,0,36,0,1,,,,,,,,,,,,,,,,,,,,,,,,,,,,,,,,,,,,,,,
,,,,,,,63d18330964d8e7f0f14164d,2023-08-16_08h44.51.089,HF_wild_card,2022.2.4,MacIntel,63.61323155,63d18330964d8e7f0f14164d,64d2fd46c836a06233681665,64dc7e27ad91d76cb42eb0c7,,,,,,,sngl,resources/Empty.png,resources/DG.BMP,Door3,0.288,-0.091,1,0,0,1.313,optionRight,70,2040,1,37,0,37,0,1,,,,,,,,,,,,,,,,,,,,,,,,,,,,,,,,,,,,,,,
,,,,,,,63d18330964d8e7f0f14164d,2023-08-16_08h44.51.089,HF_wild_card,2022.2.4,MacIntel,63.61323155,63d18330964d8e7f0f14164d,64d2fd46c836a06233681665,64dc7e27ad91d76cb42eb0c7,,,,,,,decisionTrl,resources/DB.BMP,resources/DBN.BMP,Door1,-0.339,-0.039,1,0,0,1.066,optionLeft,30,2070,1,38,0,38,0,1,,,,,,,,,,,,,,,,,,,,,,,,,,,,,,,,,,,,,,,
,,,,,,,63d18330964d8e7f0f14164d,2023-08-16_08h44.51.089,HF_wild_card,2022.2.4,MacIntel,63.61323155,63d18330964d8e7f0f14164d,64d2fd46c836a06233681665,64dc7e27ad91d76cb42eb0c7,,,,,,,decisionTrl,resources/DP.BMP,resources/DG.BMP,Door4,-0.242,-0.034,1,0,0,1.05,optionLeft,60,2130,1,39,0,39,0,1,,,,,,,,,,,,,,,,,,,,,,,,,,,,,,,,,,,,,,,
,,,,,,,63d18330964d8e7f0f14164d,2023-08-16_08h44.51.089,HF_wild_card,2022.2.4,MacIntel,63.61323155,63d18330964d8e7f0f14164d,64d2fd46c836a06233681665,64dc7e27ad91d76cb42eb0c7,,,,,,,decisionTrl,resources/DBN.BMP,resources/DB.BMP,Door2,-0.127,-0.035,1,0,0,1.166,optionLeft,20,2150,1,40,0,40,0,1,,,,,,,,,,,,,,,,,,,,,,,,,,,,,,,,,,,,,,,
,,,,,,,63d18330964d8e7f0f14164d,2023-08-16_08h44.51.089,HF_wild_card,2022.2.4,MacIntel,63.61323155,63d18330964d8e7f0f14164d,64d2fd46c836a06233681665,64dc7e27ad91d76cb42eb0c7,,,,,,,decisionTrl,resources/DB.BMP,resources/DBN.BMP,Door1,-0.49,-0.111,1,0,0,1.384,optionLeft,30,2180,1,41,0,41,0,1,,,,,,,,,,,,,,,,,,,,,,,,,,,,,,,,,,,,,,,
,,,,,,,63d18330964d8e7f0f14164d,2023-08-16_08h44.51.089,HF_wild_card,2022.2.4,MacIntel,63.61323155,63d18330964d8e7f0f14164d,64d2fd46c836a06233681665,64dc7e27ad91d76cb42eb0c7,,,,,,,sngl,resources/DP.BMP,resources/Empty.png,Door4,-0.22,-0.03,1,0,0,1.091,optionLeft,80,2260,1,42,0,42,0,1,,,,,,,,,,,,,,,,,,,,,,,,,,,,,,,,,,,,,,,
,,,,,,,63d18330964d8e7f0f14164d,2023-08-16_08h44.51.089,HF_wild_card,2022.2.4,MacIntel,63.61323155,63d18330964d8e7f0f14164d,64d2fd46c836a06233681665,64dc7e27ad91d76cb42eb0c7,,,,,,,decisionTrl,resources/DBN.BMP,resources/DB.BMP,Door2,-0.277,-0.034,1,0,0,1.729,optionLeft,20,2280,1,43,0,43,0,1,,,,,,,,,,,,,,,,,,,,,,,,,,,,,,,,,,,,,,,
,,,,,,,63d18330964d8e7f0f14164d,2023-08-16_08h44.51.089,HF_wild_card,2022.2.4,MacIntel,63.61323155,63d18330964d8e7f0f14164d,64d2fd46c836a06233681665,64dc7e27ad91d76cb42eb0c7,,,,,,,,,,,,,,,,,,,,,,,,,,0,0,0,0,1,,,,,,,,,,,,,,,,,,,,,,,,,,,,,,,,,,
,,,,,,,63d18330964d8e7f0f14164d,2023-08-16_08h44.51.089,HF_wild_card,2022.2.4,MacIntel,63.61323155,63d18330964d8e7f0f14164d,64d2fd46c836a06233681665,64dc7e27ad91d76cb42eb0c7,,,,,,,ctch,resources/DBN.BMP,resources/DG.BMP,Door3,0.448,-0.088,1,0,0,2.679,optionRight,70,2350,2,0,0,0,0,1,,,,,,,,,,,,,,,,,,,,,,,,,,,,,,,,,,,,,,,
,,,,,,,63d18330964d8e7f0f14164d,2023-08-16_08h44.51.089,HF_wild_card,2022.2.4,MacIntel,63.61323155,63d18330964d8e7f0f14164d,64d2fd46c836a06233681665,64dc7e27ad91d76cb42eb0c7,,,,,,,decisionTrl,resources/DB.BMP,resources/DBN.BMP,Door1,-0.19,-0.141,1,0,0,1.617,optionLeft,30,2380,2,1,0,1,0,1,,,,,,,,,,,,,,,,,,,,,,,,,,,,,,,,,,,,,,,
,,,,,,,63d18330964d8e7f0f14164d,2023-08-16_08h44.51.089,HF_wild_card,2022.2.4,MacIntel,63.61323155,63d18330964d8e7f0f14164d,64d2fd46c836a06233681665,64dc7e27ad91d76cb42eb0c7,,,,,,,ctch,resources/DP.BMP,resources/DB.BMP,Door4,-0.182,-0.15,1,0,0,1.686,optionLeft,60,2440,2,2,0,2,0,1,,,,,,,,,,,,,,,,,,,,,,,,,,,,,,,,,,,,,,,
,,,,,,,63d18330964d8e7f0f14164d,2023-08-16_08h44.51.089,HF_wild_card,2022.2.4,MacIntel,63.61323155,63d18330964d8e7f0f14164d,64d2fd46c836a06233681665,64dc7e27ad91d76cb42eb0c7,,,,,,,sngl,resources/DY.BMP,resources/Empty.png,WildCard_NonEx,-0.25,-0.039,1,0,0,1.191,optionLeft,55,2495,2,3,0,3,0,1,,,,,,,,,,,,,,,,,,,,,,,,,,,,,,,,,,,,,,,
,,,,,,,63d18330964d8e7f0f14164d,2023-08-16_08h44.51.089,HF_wild_card,2022.2.4,MacIntel,63.61323155,63d18330964d8e7f0f14164d,64d2fd46c836a06233681665,64dc7e27ad91d76cb42eb0c7,,,,,,,decisionTrl,resources/DB.BMP,resources/DBN.BMP,Door1,-0.199,-0.009,1,0,0,1.098,optionLeft,30,2525,2,4,0,4,0,1,,,,,,,,,,,,,,,,,,,,,,,,,,,,,,,,,,,,,,,
,,,,,,,63d18330964d8e7f0f14164d,2023-08-16_08h44.51.089,HF_wild_card,2022.2.4,MacIntel,63.61323155,63d18330964d8e7f0f14164d,64d2fd46c836a06233681665,64dc7e27ad91d76cb42eb0c7,,,,,,,decisionTrl,resources/DBN.BMP,resources/DB.BMP,Door2,-0.449,-0.114,1,0,0,1.967,optionLeft,40,2565,2,5,0,5,0,1,,,,,,,,,,,,,,,,,,,,,,,,,,,,,,,,,,,,,,,
,,,,,,,63d18330964d8e7f0f14164d,2023-08-16_08h44.51.089,HF_wild_card,2022.2.4,MacIntel,63.61323155,63d18330964d8e7f0f14164d,64d2fd46c836a06233681665,64dc7e27ad91d76cb42eb0c7,,,,,,,decisionTrl,resources/DG.BMP,resources/DP.BMP,Door4,0.439,0.014,1,0,0,1.132,optionRight,80,2645,2,6,0,6,0,1,,,,,,,,,,,,,,,,,,,,,,,,,,,,,,,,,,,,,,,
,,,,,,,63d18330964d8e7f0f14164d,2023-08-16_08h44.51.089,HF_wild_card,2022.2.4,MacIntel,63.61323155,63d18330964d8e7f0f14164d,64d2fd46c836a06233681665,64dc7e27ad91d76cb42eb0c7,,,,,,,ctch,resources/DB.BMP,resources/DP.BMP,Door4,0.298,0.01,1,0,0,1.166,optionRight,60,2705,2,7,0,7,0,1,,,,,,,,,,,,,,,,,,,,,,,,,,,,,,,,,,,,,,,
,,,,,,,63d18330964d8e7f0f14164d,2023-08-16_08h44.51.089,HF_wild_card,2022.2.4,MacIntel,63.61323155,63d18330964d8e7f0f14164d,64d2fd46c836a06233681665,64dc7e27ad91d76cb42eb0c7,,,,,,,decisionTrl,resources/DB.BMP,resources/DBN.BMP,Door2,0.269,-0.024,1,0,0,1.367,optionRight,20,2725,2,8,0,8,0,1,,,,,,,,,,,,,,,,,,,,,,,,,,,,,,,,,,,,,,,
,,,,,,,63d18330964d8e7f0f14164d,2023-08-16_08h44.51.089,HF_wild_card,2022.2.4,MacIntel,63.61323155,63d18330964d8e7f0f14164d,64d2fd46c836a06233681665,64dc7e27ad91d76cb42eb0c7,,,,,,,sngl,resources/Empty.png,resources/DY.BMP,WildCard_NonEx,0.283,0.005,1,0,0,0.967,optionRight,55,2780,2,9,0,9,0,1,,,,,,,,,,,,,,,,,,,,,,,,,,,,,,,,,,,,,,,
,,,,,,,63d18330964d8e7f0f14164d,2023-08-16_08h44.51.089,HF_wild_card,2022.2.4,MacIntel,63.61323155,63d18330964d8e7f0f14164d,64d2fd46c836a06233681665,64dc7e27ad91d76cb42eb0c7,,,,,,,sngl,resources/Empty.png,resources/DB.BMP,Door1,0.21,-0.025,1,0,0,1.249,optionRight,30,2810,2,10,0,10,0,1,,,,,,,,,,,,,,,,,,,,,,,,,,,,,,,,,,,,,,,
,,,,,,,63d18330964d8e7f0f14164d,2023-08-16_08h44.51.089,HF_wild_card,2022.2.4,MacIntel,63.61323155,63d18330964d8e7f0f14164d,64d2fd46c836a06233681665,64dc7e27ad91d76cb42eb0c7,,,,,,,decisionTrl,resources/DP.BMP,resources/DG.BMP,Door4,-0.276,-0.01,1,0,0,0.999,optionLeft,80,2890,2,11,0,11,0,1,,,,,,,,,,,,,,,,,,,,,,,,,,,,,,,,,,,,,,,
,,,,,,,63d18330964d8e7f0f14164d,2023-08-16_08h44.51.089,HF_wild_card,2022.2.4,MacIntel,63.61323155,63d18330964d8e7f0f14164d,64d2fd46c836a06233681665,64dc7e27ad91d76cb42eb0c7,,,,,,,decisionTrl,resources/DB.BMP,resources/DBN.BMP,Door1,-0.255,-0.023,1,0,0,1.724,optionLeft,30,2920,2,12,0,12,0,1,,,,,,,,,,,,,,,,,,,,,,,,,,,,,,,,,,,,,,,
,,,,,,,63d18330964d8e7f0f14164d,2023-08-16_08h44.51.089,HF_wild_card,2022.2.4,MacIntel,63.61323155,63d18330964d8e7f0f14164d,64d2fd46c836a06233681665,64dc7e27ad91d76cb42eb0c7,,,,,,,decisionTrl,resources/DB.BMP,resources/DY.BMP,Door1,-0.222,-0.021,1,0,0,1.316,optionLeft,30,2950,2,13,0,13,0,1,,,,,,,,,,,,,,,,,,,,,,,,,,,,,,,,,,,,,,,
,,,,,,,63d18330964d8e7f0f14164d,2023-08-16_08h44.51.089,HF_wild_card,2022.2.4,MacIntel,63.61323155,63d18330964d8e7f0f14164d,64d2fd46c836a06233681665,64dc7e27ad91d76cb42eb0c7,,,,,,,sngl,resources/Empty.png,resources/DY.BMP,WildCard_NonEx,0.199,0.022,1,0,0,1.065,optionRight,45,2995,2,14,0,14,0,1,,,,,,,,,,,,,,,,,,,,,,,,,,,,,,,,,,,,,,,
,,,,,,,63d18330964d8e7f0f14164d,2023-08-16_08h44.51.089,HF_wild_card,2022.2.4,MacIntel,63.61323155,63d18330964d8e7f0f14164d,64d2fd46c836a06233681665,64dc7e27ad91d76cb42eb0c7,,,,,,,decisionTrl,resources/DG.BMP,resources/DY.BMP,WildCard_NonEx,0.301,-0.066,1,0,0,1.834,optionRight,45,3040,2,15,0,15,0,1,,,,,,,,,,,,,,,,,,,,,,,,,,,,,,,,,,,,,,,
,,,,,,,63d18330964d8e7f0f14164d,2023-08-16_08h44.51.089,HF_wild_card,2022.2.4,MacIntel,63.61323155,63d18330964d8e7f0f14164d,64d2fd46c836a06233681665,64dc7e27ad91d76cb42eb0c7,,,,,,,decisionTrl,resources/DBN.BMP,resources/DB.BMP,Door1,0.429,-0.041,1,0,0,1.584,optionRight,30,3070,2,16,0,16,0,1,,,,,,,,,,,,,,,,,,,,,,,,,,,,,,,,,,,,,,,
,,,,,,,63d18330964d8e7f0f14164d,2023-08-16_08h44.51.089,HF_wild_card,2022.2.4,MacIntel,63.61323155,63d18330964d8e7f0f14164d,64d2fd46c836a06233681665,64dc7e27ad91d76cb42eb0c7,,,,,,,decisionTrl,resources/DY.BMP,resources/DB.BMP,Door1,0.223,-0.044,1,0,0,1.316,optionRight,30,3100,2,17,0,17,0,1,,,,,,,,,,,,,,,,,,,,,,,,,,,,,,,,,,,,,,,
,,,,,,,63d18330964d8e7f0f14164d,2023-08-16_08h44.51.089,HF_wild_card,2022.2.4,MacIntel,63.61323155,63d18330964d8e7f0f14164d,64d2fd46c836a06233681665,64dc7e27ad91d76cb42eb0c7,,,,,,,decisionTrl,resources/DY.BMP,resources/DG.BMP,WildCard_NonEx,-0.214,-0.038,1,0,0,0.947,optionLeft,55,3155,2,18,0,18,0,1,,,,,,,,,,,,,,,,,,,,,,,,,,,,,,,,,,,,,,,
,,,,,,,63d18330964d8e7f0f14164d,2023-08-16_08h44.51.089,HF_wild_card,2022.2.4,MacIntel,63.61323155,63d18330964d8e7f0f14164d,64d2fd46c836a06233681665,64dc7e27ad91d76cb42eb0c7,,,,,,,sngl,resources/DG.BMP,resources/Empty.png,Door3,-0.127,-0.011,1,0,0,1.182,optionLeft,70,3225,2,19,0,19,0,1,,,,,,,,,,,,,,,,,,,,,,,,,,,,,,,,,,,,,,,
,,,,,,,63d18330964d8e7f0f14164d,2023-08-16_08h44.51.089,HF_wild_card,2022.2.4,MacIntel,63.61323155,63d18330964d8e7f0f14164d,64d2fd46c836a06233681665,64dc7e27ad91d76cb42eb0c7,,,,,,,sngl,resources/DY.BMP,resources/Empty.png,WildCard_NonEx,-0.199,0.004,1,0,0,1.13,optionLeft,45,3270,2,20,0,20,0,1,,,,,,,,,,,,,,,,,,,,,,,,,,,,,,,,,,,,,,,
,,,,,,,63d18330964d8e7f0f14164d,2023-08-16_08h44.51.089,HF_wild_card,2022.2.4,MacIntel,63.61323155,63d18330964d8e7f0f14164d,64d2fd46c836a06233681665,64dc7e27ad91d76cb42eb0c7,,,,,,,decisionTrl,resources/DG.BMP,resources/DP.BMP,Door4,0.334,-0.001,1,0,0,0.981,optionRight,80,3350,2,21,0,21,0,1,,,,,,,,,,,,,,,,,,,,,,,,,,,,,,,,,,,,,,,
,,,,,,,63d18330964d8e7f0f14164d,2023-08-16_08h44.51.089,HF_wild_card,2022.2.4,MacIntel,63.61323155,63d18330964d8e7f0f14164d,64d2fd46c836a06233681665,64dc7e27ad91d76cb42eb0c7,,,,,,,ctch,resources/DP.BMP,resources/DB.BMP,Door4,-0.352,-0.043,1,0,0,0.932,optionLeft,60,3410,2,22,0,22,0,1,,,,,,,,,,,,,,,,,,,,,,,,,,,,,,,,,,,,,,,
,,,,,,,63d18330964d8e7f0f14164d,2023-08-16_08h44.51.089,HF_wild_card,2022.2.4,MacIntel,63.61323155,63d18330964d8e7f0f14164d,64d2fd46c836a06233681665,64dc7e27ad91d76cb42eb0c7,,,,,,,sngl,resources/Empty.png,resources/DBN.BMP,Door2,0.195,-0.035,1,0,0,1.483,optionRight,40,3450,2,23,0,23,0,1,,,,,,,,,,,,,,,,,,,,,,,,,,,,,,,,,,,,,,,
,,,,,,,63d18330964d8e7f0f14164d,2023-08-16_08h44.51.089,HF_wild_card,2022.2.4,MacIntel,63.61323155,63d18330964d8e7f0f14164d,64d2fd46c836a06233681665,64dc7e27ad91d76cb42eb0c7,,,,,,,sngl,resources/DBN.BMP,resources/Empty.png,Door2,-0.261,-0.058,1,0,0,0.731,optionLeft,20,3470,2,24,0,24,0,1,,,,,,,,,,,,,,,,,,,,,,,,,,,,,,,,,,,,,,,
,,,,,,,63d18330964d8e7f0f14164d,2023-08-16_08h44.51.089,HF_wild_card,2022.2.4,MacIntel,63.61323155,63d18330964d8e7f0f14164d,64d2fd46c836a06233681665,64dc7e27ad91d76cb42eb0c7,,,,,,,decisionTrl,resources/DBN.BMP,resources/DB.BMP,Door1,0.468,0.097,1,0,0,1.501,optionRight,30,3500,2,25,0,25,0,1,,,,,,,,,,,,,,,,,,,,,,,,,,,,,,,,,,,,,,,
,,,,,,,63d18330964d8e7f0f14164d,2023-08-16_08h44.51.089,HF_wild_card,2022.2.4,MacIntel,63.61323155,63d18330964d8e7f0f14164d,64d2fd46c836a06233681665,64dc7e27ad91d76cb42eb0c7,,,,,,,decisionTrl,resources/DG.BMP,resources/DP.BMP,Door4,0.386,0.045,1,0,0,0.832,optionRight,80,3580,2,26,0,26,0,1,,,,,,,,,,,,,,,,,,,,,,,,,,,,,,,,,,,,,,,
,,,,,,,63d18330964d8e7f0f14164d,2023-08-16_08h44.51.089,HF_wild_card,2022.2.4,MacIntel,63.61323155,63d18330964d8e7f0f14164d,64d2fd46c836a06233681665,64dc7e27ad91d76cb42eb0c7,,,,,,,sngl,resources/Empty.png,resources/DP.BMP,Door4,0.306,0.032,1,0,0,0.665,optionRight,80,3660,2,27,0,27,0,1,,,,,,,,,,,,,,,,,,,,,,,,,,,,,,,,,,,,,,,
,,,,,,,63d18330964d8e7f0f14164d,2023-08-16_08h44.51.089,HF_wild_card,2022.2.4,MacIntel,63.61323155,63d18330964d8e7f0f14164d,64d2fd46c836a06233681665,64dc7e27ad91d76cb42eb0c7,,,,,,,ctch,resources/DBN.BMP,resources/DG.BMP,Door3,0.341,-0.005,1,0,0,1.3,optionRight,70,3730,2,28,0,28,0,1,,,,,,,,,,,,,,,,,,,,,,,,,,,,,,,,,,,,,,,
,,,,,,,63d18330964d8e7f0f14164d,2023-08-16_08h44.51.089,HF_wild_card,2022.2.4,MacIntel,63.61323155,63d18330964d8e7f0f14164d,64d2fd46c836a06233681665,64dc7e27ad91d76cb42eb0c7,,,,,,,decisionTrl,resources/DP.BMP,resources/DG.BMP,Door3,0.281,0.007,1,0,0,0.699,optionRight,70,3800,2,29,0,29,0,1,,,,,,,,,,,,,,,,,,,,,,,,,,,,,,,,,,,,,,,
,,,,,,,63d18330964d8e7f0f14164d,2023-08-16_08h44.51.089,HF_wild_card,2022.2.4,MacIntel,63.61323155,63d18330964d8e7f0f14164d,64d2fd46c836a06233681665,64dc7e27ad91d76cb42eb0c7,,,,,,,decisionTrl,resources/DG.BMP,resources/DP.BMP,Door4,0.323,0.131,1,0,0,0.783,optionRight,80,3880,2,30,0,30,0,1,,,,,,,,,,,,,,,,,,,,,,,,,,,,,,,,,,,,,,,
,,,,,,,63d18330964d8e7f0f14164d,2023-08-16_08h44.51.089,HF_wild_card,2022.2.4,MacIntel,63.61323155,63d18330964d8e7f0f14164d,64d2fd46c836a06233681665,64dc7e27ad91d76cb42eb0c7,,,,,,,decisionTrl,resources/DY.BMP,resources/DP.BMP,Door4,0.255,0.036,1,0,0,0.798,optionRight,60,3940,2,31,0,31,0,1,,,,,,,,,,,,,,,,,,,,,,,,,,,,,,,,,,,,,,,
,,,,,,,63d18330964d8e7f0f14164d,2023-08-16_08h44.51.089,HF_wild_card,2022.2.4,MacIntel,63.61323155,63d18330964d8e7f0f14164d,64d2fd46c836a06233681665,64dc7e27ad91d76cb42eb0c7,,,,,,,sngl,resources/Empty.png,resources/DG.BMP,Door3,0.325,0.075,1,0,0,0.699,optionRight,70,4010,2,32,0,32,0,1,,,,,,,,,,,,,,,,,,,,,,,,,,,,,,,,,,,,,,,
,,,,,,,63d18330964d8e7f0f14164d,2023-08-16_08h44.51.089,HF_wild_card,2022.2.4,MacIntel,63.61323155,63d18330964d8e7f0f14164d,64d2fd46c836a06233681665,64dc7e27ad91d76cb42eb0c7,,,,,,,ctch,resources/DB.BMP,resources/DP.BMP,Door4,0.35,0.109,1,0,0,0.782,optionRight,80,4090,2,33,0,33,0,1,,,,,,,,,,,,,,,,,,,,,,,,,,,,,,,,,,,,,,,
,,,,,,,63d18330964d8e7f0f14164d,2023-08-16_08h44.51.089,HF_wild_card,2022.2.4,MacIntel,63.61323155,63d18330964d8e7f0f14164d,64d2fd46c836a06233681665,64dc7e27ad91d76cb42eb0c7,,,,,,,decisionTrl,resources/DP.BMP,resources/DY.BMP,Door4,-0.166,-0.006,1,0,0,0.801,optionLeft,80,4170,2,34,0,34,0,1,,,,,,,,,,,,,,,,,,,,,,,,,,,,,,,,,,,,,,,
,,,,,,,63d18330964d8e7f0f14164d,2023-08-16_08h44.51.089,HF_wild_card,2022.2.4,MacIntel,63.61323155,63d18330964d8e7f0f14164d,64d2fd46c836a06233681665,64dc7e27ad91d76cb42eb0c7,,,,,,,sngl,resources/DP.BMP,resources/Empty.png,Door4,-0.266,-0.034,1,0,0,0.682,optionLeft,60,4230,2,35,0,35,0,1,,,,,,,,,,,,,,,,,,,,,,,,,,,,,,,,,,,,,,,
,,,,,,,63d18330964d8e7f0f14164d,2023-08-16_08h44.51.089,HF_wild_card,2022.2.4,MacIntel,63.61323155,63d18330964d8e7f0f14164d,64d2fd46c836a06233681665,64dc7e27ad91d76cb42eb0c7,,,,,,,sngl,resources/DB.BMP,resources/Empty.png,Door1,-0.222,-0.001,1,0,0,0.759,optionLeft,30,4260,2,36,0,36,0,1,,,,,,,,,,,,,,,,,,,,,,,,,,,,,,,,,,,,,,,
,,,,,,,63d18330964d8e7f0f14164d,2023-08-16_08h44.51.089,HF_wild_card,2022.2.4,MacIntel,63.61323155,63d18330964d8e7f0f14164d,64d2fd46c836a06233681665,64dc7e27ad91d76cb42eb0c7,,,,,,,decisionTrl,resources/DBN.BMP,resources/DY.BMP,WildCard_NonEx,0.186,-0.008,1,0,0,1.251,optionRight,45,4305,2,37,0,37,0,1,,,,,,,,,,,,,,,,,,,,,,,,,,,,,,,,,,,,,,,
,,,,,,,63d18330964d8e7f0f14164d,2023-08-16_08h44.51.089,HF_wild_card,2022.2.4,MacIntel,63.61323155,63d18330964d8e7f0f14164d,64d2fd46c836a06233681665,64dc7e27ad91d76cb42eb0c7,,,,,,,ctch,resources/DG.BMP,resources/DBN.BMP,Door3,-0.412,-0.111,1,0,0,1.154,optionLeft,70,4375,2,38,0,38,0,1,,,,,,,,,,,,,,,,,,,,,,,,,,,,,,,,,,,,,,,
,,,,,,,63d18330964d8e7f0f14164d,2023-08-16_08h44.51.089,HF_wild_card,2022.2.4,MacIntel,63.61323155,63d18330964d8e7f0f14164d,64d2fd46c836a06233681665,64dc7e27ad91d76cb42eb0c7,,,,,,,decisionTrl,resources/DY.BMP,resources/DBN.BMP,WildCard_NonEx,-0.347,-0.048,1,0,0,0.782,optionLeft,45,4420,2,39,0,39,0,1,,,,,,,,,,,,,,,,,,,,,,,,,,,,,,,,,,,,,,,
,,,,,,,63d18330964d8e7f0f14164d,2023-08-16_08h44.51.089,HF_wild_card,2022.2.4,MacIntel,63.61323155,63d18330964d8e7f0f14164d,64d2fd46c836a06233681665,64dc7e27ad91d76cb42eb0c7,,,,,,,decisionTrl,resources/DP.BMP,resources/DG.BMP,Door4,-0.232,-0.026,1,0,0,0.749,optionLeft,80,4500,2,40,0,40,0,1,,,,,,,,,,,,,,,,,,,,,,,,,,,,,,,,,,,,,,,
,,,,,,,63d18330964d8e7f0f14164d,2023-08-16_08h44.51.089,HF_wild_card,2022.2.4,MacIntel,63.61323155,63d18330964d8e7f0f14164d,64d2fd46c836a06233681665,64dc7e27ad91d76cb42eb0c7,,,,,,,ctch,resources/DG.BMP,resources/DBN.BMP,Door3,-0.239,-0.031,1,0,0,0.638,optionLeft,70,4570,2,41,0,41,0,1,,,,,,,,,,,,,,,,,,,,,,,,,,,,,,,,,,,,,,,
,,,,,,,63d18330964d8e7f0f14164d,2023-08-16_08h44.51.089,HF_wild_card,2022.2.4,MacIntel,63.61323155,63d18330964d8e7f0f14164d,64d2fd46c836a06233681665,64dc7e27ad91d76cb42eb0c7,,,,,,,decisionTrl,resources/DP.BMP,resources/DG.BMP,Door4,-0.249,-0.058,1,0,0,0.633,optionLeft,80,4650,2,42,0,42,0,1,,,,,,,,,,,,,,,,,,,,,,,,,,,,,,,,,,,,,,,
,,,,,,,63d18330964d8e7f0f14164d,2023-08-16_08h44.51.089,HF_wild_card,2022.2.4,MacIntel,63.61323155,63d18330964d8e7f0f14164d,64d2fd46c836a06233681665,64dc7e27ad91d76cb42eb0c7,,,,,,,decisionTrl,resources/DBN.BMP,resources/DB.BMP,Door2,-0.257,-0.009,1,0,0,0.882,optionLeft,40,4690,2,43,0,43,0,1,,,,,,,,,,,,,,,,,,,,,,,,,,,,,,,,,,,,,,,
,,,,,,,63d18330964d8e7f0f14164d,2023-08-16_08h44.51.089,HF_wild_card,2022.2.4,MacIntel,63.61323155,63d18330964d8e7f0f14164d,64d2fd46c836a06233681665,64dc7e27ad91d76cb42eb0c7,,,,,,,,,,,,,,,,,,,,,,,,,,1,0,1,0,1,,,,,,,,,,,,,,,,,,,,,,,,,,,,,,,,,,
,,,,,,,63d18330964d8e7f0f14164d,2023-08-16_08h44.51.089,HF_wild_card,2022.2.4,MacIntel,63.61323155,63d18330964d8e7f0f14164d,64d2fd46c836a06233681665,64dc7e27ad91d76cb42eb0c7,,,,,,,sngl,resources/Empty.png,resources/DY.BMP,WildCard_NonEx,0.29,-0.126,1,0,0,1.029,optionRight,55,4745,3,0,0,0,0,1,,,,,,,,,,,,,,,,,,,,,,,,,,,,,,,,,,,,,,,
,,,,,,,63d18330964d8e7f0f14164d,2023-08-16_08h44.51.089,HF_wild_card,2022.2.4,MacIntel,63.61323155,63d18330964d8e7f0f14164d,64d2fd46c836a06233681665,64dc7e27ad91d76cb42eb0c7,,,,,,,decisionTrl,resources/DP.BMP,resources/DG.BMP,Door4,-0.326,-0.069,1,0,0,0.883,optionLeft,60,4805,3,1,0,1,0,1,,,,,,,,,,,,,,,,,,,,,,,,,,,,,,,,,,,,,,,
,,,,,,,63d18330964d8e7f0f14164d,2023-08-16_08h44.51.089,HF_wild_card,2022.2.4,MacIntel,63.61323155,63d18330964d8e7f0f14164d,64d2fd46c836a06233681665,64dc7e27ad91d76cb42eb0c7,,,,,,,ctch,resources/DB.BMP,resources/DP.BMP,Door4,0.296,0.002,1,0,0,0.899,optionRight,80,4885,3,2,0,2,0,1,,,,,,,,,,,,,,,,,,,,,,,,,,,,,,,,,,,,,,,
,,,,,,,63d18330964d8e7f0f14164d,2023-08-16_08h44.51.089,HF_wild_card,2022.2.4,MacIntel,63.61323155,63d18330964d8e7f0f14164d,64d2fd46c836a06233681665,64dc7e27ad91d76cb42eb0c7,,,,,,,sngl,resources/Empty.png,resources/DBN.BMP,Door2,0.213,-0.018,1,0,0,0.932,optionRight,20,4905,3,3,0,3,0,1,,,,,,,,,,,,,,,,,,,,,,,,,,,,,,,,,,,,,,,
,,,,,,,63d18330964d8e7f0f14164d,2023-08-16_08h44.51.089,HF_wild_card,2022.2.4,MacIntel,63.61323155,63d18330964d8e7f0f14164d,64d2fd46c836a06233681665,64dc7e27ad91d76cb42eb0c7,,,,,,,sngl,resources/DBN.BMP,resources/Empty.png,Door2,-0.217,-0.046,1,0,0,0.781,optionLeft,40,4945,3,4,0,4,0,1,,,,,,,,,,,,,,,,,,,,,,,,,,,,,,,,,,,,,,,
,,,,,,,63d18330964d8e7f0f14164d,2023-08-16_08h44.51.089,HF_wild_card,2022.2.4,MacIntel,63.61323155,63d18330964d8e7f0f14164d,64d2fd46c836a06233681665,64dc7e27ad91d76cb42eb0c7,,,,,,,decisionTrl,resources/DG.BMP,resources/DP.BMP,Door4,0.401,0,1,0,0,0.781,optionRight,80,5025,3,5,0,5,0,1,,,,,,,,,,,,,,,,,,,,,,,,,,,,,,,,,,,,,,,
,,,,,,,63d18330964d8e7f0f14164d,2023-08-16_08h44.51.089,HF_wild_card,2022.2.4,MacIntel,63.61323155,63d18330964d8e7f0f14164d,64d2fd46c836a06233681665,64dc7e27ad91d76cb42eb0c7,,,,,,,decisionTrl,resources/DY.BMP,resources/DG.BMP,WildCard_NonEx,-0.22,-0.058,1,0,0,1.282,optionLeft,45,5070,3,6,0,6,0,1,,,,,,,,,,,,,,,,,,,,,,,,,,,,,,,,,,,,,,,
,,,,,,,63d18330964d8e7f0f14164d,2023-08-16_08h44.51.089,HF_wild_card,2022.2.4,MacIntel,63.61323155,63d18330964d8e7f0f14164d,64d2fd46c836a06233681665,64dc7e27ad91d76cb42eb0c7,,,,,,,sngl,resources/DB.BMP,resources/Empty.png,Door1,-0.172,0.016,1,0,0,0.673,optionLeft,30,5100,3,7,0,7,0,1,,,,,,,,,,,,,,,,,,,,,,,,,,,,,,,,,,,,,,,
,,,,,,,63d18330964d8e7f0f14164d,2023-08-16_08h44.51.089,HF_wild_card,2022.2.4,MacIntel,63.61323155,63d18330964d8e7f0f14164d,64d2fd46c836a06233681665,64dc7e27ad91d76cb42eb0c7,,,,,,,decisionTrl,resources/DBN.BMP,resources/DY.BMP,WildCard_NonEx,0.33,0.109,1,0,0,0.814,optionRight,45,5145,3,8,0,8,0,1,,,,,,,,,,,,,,,,,,,,,,,,,,,,,,,,,,,,,,,
,,,,,,,63d18330964d8e7f0f14164d,2023-08-16_08h44.51.089,HF_wild_card,2022.2.4,MacIntel,63.61323155,63d18330964d8e7f0f14164d,64d2fd46c836a06233681665,64dc7e27ad91d76cb42eb0c7,,,,,,,decisionTrl,resources/DB.BMP,resources/DBN.BMP,Door2,0.248,0.026,1,0,0,0.714,optionRight,20,5165,3,9,0,9,0,1,,,,,,,,,,,,,,,,,,,,,,,,,,,,,,,,,,,,,,,
,,,,,,,63d18330964d8e7f0f14164d,2023-08-16_08h44.51.089,HF_wild_card,2022.2.4,MacIntel,63.61323155,63d18330964d8e7f0f14164d,64d2fd46c836a06233681665,64dc7e27ad91d76cb42eb0c7,,,,,,,decisionTrl,resources/DY.BMP,resources/DBN.BMP,WildCard_NonEx,-0.257,-0.016,1,0,0,1.2,optionLeft,45,5210,3,10,0,10,0,1,,,,,,,,,,,,,,,,,,,,,,,,,,,,,,,,,,,,,,,
,,,,,,,63d18330964d8e7f0f14164d,2023-08-16_08h44.51.089,HF_wild_card,2022.2.4,MacIntel,63.61323155,63d18330964d8e7f0f14164d,64d2fd46c836a06233681665,64dc7e27ad91d76cb42eb0c7,,,,,,,sngl,resources/Empty.png,resources/DB.BMP,Door1,0.218,-0.003,1,0,0,0.782,optionRight,30,5240,3,11,0,11,0,1,,,,,,,,,,,,,,,,,,,,,,,,,,,,,,,,,,,,,,,
,,,,,,,63d18330964d8e7f0f14164d,2023-08-16_08h44.51.089,HF_wild_card,2022.2.4,MacIntel,63.61323155,63d18330964d8e7f0f14164d,64d2fd46c836a06233681665,64dc7e27ad91d76cb42eb0c7,,,,,,,decisionTrl,resources/DG.BMP,resources/DY.BMP,WildCard_NonEx,0.23,0.002,1,0,0,0.782,optionRight,55,5295,3,12,0,12,0,1,,,,,,,,,,,,,,,,,,,,,,,,,,,,,,,,,,,,,,,
,,,,,,,63d18330964d8e7f0f14164d,2023-08-16_08h44.51.089,HF_wild_card,2022.2.4,MacIntel,63.61323155,63d18330964d8e7f0f14164d,64d2fd46c836a06233681665,64dc7e27ad91d76cb42eb0c7,,,,,,,decisionTrl,resources/DP.BMP,resources/DY.BMP,Door4,-0.432,-0.1,1,0,0,1.251,optionLeft,80,5375,3,13,0,13,0,1,,,,,,,,,,,,,,,,,,,,,,,,,,,,,,,,,,,,,,,
,,,,,,,63d18330964d8e7f0f14164d,2023-08-16_08h44.51.089,HF_wild_card,2022.2.4,MacIntel,63.61323155,63d18330964d8e7f0f14164d,64d2fd46c836a06233681665,64dc7e27ad91d76cb42eb0c7,,,,,,,decisionTrl,resources/DBN.BMP,resources/DB.BMP,Door1,0.186,-0.006,1,0,0,1.25,optionRight,30,5405,3,14,0,14,0,1,,,,,,,,,,,,,,,,,,,,,,,,,,,,,,,,,,,,,,,
,,,,,,,63d18330964d8e7f0f14164d,2023-08-16_08h44.51.089,HF_wild_card,2022.2.4,MacIntel,63.61323155,63d18330964d8e7f0f14164d,64d2fd46c836a06233681665,64dc7e27ad91d76cb42eb0c7,,,,,,,decisionTrl,resources/DG.BMP,resources/DP.BMP,Door4,0.43,-0.06,1,0,0,0.865,optionRight,60,5465,3,15,0,15,0,1,,,,,,,,,,,,,,,,,,,,,,,,,,,,,,,,,,,,,,,
,,,,,,,63d18330964d8e7f0f14164d,2023-08-16_08h44.51.089,HF_wild_card,2022.2.4,MacIntel,63.61323155,63d18330964d8e7f0f14164d,64d2fd46c836a06233681665,64dc7e27ad91d76cb42eb0c7,,,,,,,decisionTrl,resources/DB.BMP,resources/DBN.BMP,Door1,-0.282,-0.08,1,0,0,1.224,optionLeft,30,5495,3,16,0,16,0,1,,,,,,,,,,,,,,,,,,,,,,,,,,,,,,,,,,,,,,,
,,,,,,,63d18330964d8e7f0f14164d,2023-08-16_08h44.51.089,HF_wild_card,2022.2.4,MacIntel,63.61323155,63d18330964d8e7f0f14164d,64d2fd46c836a06233681665,64dc7e27ad91d76cb42eb0c7,,,,,,,ctch,resources/DBN.BMP,resources/DG.BMP,Door2,-0.344,-0.008,1,0,0,1.15,optionLeft,20,5515,3,17,0,17,0,1,,,,,,,,,,,,,,,,,,,,,,,,,,,,,,,,,,,,,,,
,,,,,,,63d18330964d8e7f0f14164d,2023-08-16_08h44.51.089,HF_wild_card,2022.2.4,MacIntel,63.61323155,63d18330964d8e7f0f14164d,64d2fd46c836a06233681665,64dc7e27ad91d76cb42eb0c7,,,,,,,decisionTrl,resources/DG.BMP,resources/DP.BMP,Door4,0.298,-0.003,1,0,0,1.307,optionRight,80,5595,3,18,0,18,0,1,,,,,,,,,,,,,,,,,,,,,,,,,,,,,,,,,,,,,,,
,,,,,,,63d18330964d8e7f0f14164d,2023-08-16_08h44.51.089,HF_wild_card,2022.2.4,MacIntel,63.61323155,63d18330964d8e7f0f14164d,64d2fd46c836a06233681665,64dc7e27ad91d76cb42eb0c7,,,,,,,ctch,resources/DB.BMP,resources/DP.BMP,Door4,0.229,-0.021,1,0,0,0.78,optionRight,60,5655,3,19,0,19,0,1,,,,,,,,,,,,,,,,,,,,,,,,,,,,,,,,,,,,,,,
,,,,,,,63d18330964d8e7f0f14164d,2023-08-16_08h44.51.089,HF_wild_card,2022.2.4,MacIntel,63.61323155,63d18330964d8e7f0f14164d,64d2fd46c836a06233681665,64dc7e27ad91d76cb42eb0c7,,,,,,,decisionTrl,resources/DBN.BMP,resources/DB.BMP,Door1,0.221,-0.025,1,0,0,1.148,optionRight,30,5685,3,20,0,20,0,1,,,,,,,,,,,,,,,,,,,,,,,,,,,,,,,,,,,,,,,
,,,,,,,63d18330964d8e7f0f14164d,2023-08-16_08h44.51.089,HF_wild_card,2022.2.4,MacIntel,63.61323155,63d18330964d8e7f0f14164d,64d2fd46c836a06233681665,64dc7e27ad91d76cb42eb0c7,,,,,,,sngl,resources/Empty.png,resources/DG.BMP,Door3,0.213,-0.01,1,0,0,0.699,optionRight,70,5755,3,21,0,21,0,1,,,,,,,,,,,,,,,,,,,,,,,,,,,,,,,,,,,,,,,
,,,,,,,63d18330964d8e7f0f14164d,2023-08-16_08h44.51.089,HF_wild_card,2022.2.4,MacIntel,63.61323155,63d18330964d8e7f0f14164d,64d2fd46c836a06233681665,64dc7e27ad91d76cb42eb0c7,,,,,,,decisionTrl,resources/DBN.BMP,resources/DB.BMP,Door1,0.174,0.012,1,0,0,0.948,optionRight,30,5785,3,22,0,22,0,1,,,,,,,,,,,,,,,,,,,,,,,,,,,,,,,,,,,,,,,
,,,,,,,63d18330964d8e7f0f14164d,2023-08-16_08h44.51.089,HF_wild_card,2022.2.4,MacIntel,63.61323155,63d18330964d8e7f0f14164d,64d2fd46c836a06233681665,64dc7e27ad91d76cb42eb0c7,,,,,,,decisionTrl,resources/DBN.BMP,resources/DB.BMP,Door1,0.45,-0.005,1,0,0,0.816,optionRight,30,5815,3,23,0,23,0,1,,,,,,,,,,,,,,,,,,,,,,,,,,,,,,,,,,,,,,,
,,,,,,,63d18330964d8e7f0f14164d,2023-08-16_08h44.51.089,HF_wild_card,2022.2.4,MacIntel,63.61323155,63d18330964d8e7f0f14164d,64d2fd46c836a06233681665,64dc7e27ad91d76cb42eb0c7,,,,,,,ctch,resources/DG.BMP,resources/DBN.BMP,Door2,0.254,-0.03,1,0,0,1.065,optionRight,20,5835,3,24,0,24,0,1,,,,,,,,,,,,,,,,,,,,,,,,,,,,,,,,,,,,,,,
,,,,,,,63d18330964d8e7f0f14164d,2023-08-16_08h44.51.089,HF_wild_card,2022.2.4,MacIntel,63.61323155,63d18330964d8e7f0f14164d,64d2fd46c836a06233681665,64dc7e27ad91d76cb42eb0c7,,,,,,,decisionTrl,resources/DB.BMP,resources/DBN.BMP,Door1,-0.236,-0.046,1,0,0,1.301,optionLeft,30,5865,3,25,0,25,0,1,,,,,,,,,,,,,,,,,,,,,,,,,,,,,,,,,,,,,,,
,,,,,,,63d18330964d8e7f0f14164d,2023-08-16_08h44.51.089,HF_wild_card,2022.2.4,MacIntel,63.61323155,63d18330964d8e7f0f14164d,64d2fd46c836a06233681665,64dc7e27ad91d76cb42eb0c7,,,,,,,decisionTrl,resources/DG.BMP,resources/DP.BMP,Door4,0.541,0.026,1,0,0,1.268,optionRight,60,5925,3,26,0,26,0,1,,,,,,,,,,,,,,,,,,,,,,,,,,,,,,,,,,,,,,,
,,,,,,,63d18330964d8e7f0f14164d,2023-08-16_08h44.51.089,HF_wild_card,2022.2.4,MacIntel,63.61323155,63d18330964d8e7f0f14164d,64d2fd46c836a06233681665,64dc7e27ad91d76cb42eb0c7,,,,,,,decisionTrl,resources/DP.BMP,resources/DG.BMP,Door4,-0.264,-0.065,1,0,0,1.083,optionLeft,80,6005,3,27,0,27,0,1,,,,,,,,,,,,,,,,,,,,,,,,,,,,,,,,,,,,,,,
,,,,,,,63d18330964d8e7f0f14164d,2023-08-16_08h44.51.089,HF_wild_card,2022.2.4,MacIntel,63.61323155,63d18330964d8e7f0f14164d,64d2fd46c836a06233681665,64dc7e27ad91d76cb42eb0c7,,,,,,,ctch,resources/DP.BMP,resources/DB.BMP,Door4,-0.224,-0.015,1,0,0,0.785,optionLeft,80,6085,3,28,0,28,0,1,,,,,,,,,,,,,,,,,,,,,,,,,,,,,,,,,,,,,,,
,,,,,,,63d18330964d8e7f0f14164d,2023-08-16_08h44.51.089,HF_wild_card,2022.2.4,MacIntel,63.61323155,63d18330964d8e7f0f14164d,64d2fd46c836a06233681665,64dc7e27ad91d76cb42eb0c7,,,,,,,sngl,resources/DY.BMP,resources/Empty.png,WildCard_NonEx,-0.187,0.016,1,0,0,0.877,optionLeft,55,6140,3,29,0,29,0,1,,,,,,,,,,,,,,,,,,,,,,,,,,,,,,,,,,,,,,,
,,,,,,,63d18330964d8e7f0f14164d,2023-08-16_08h44.51.089,HF_wild_card,2022.2.4,MacIntel,63.61323155,63d18330964d8e7f0f14164d,64d2fd46c836a06233681665,64dc7e27ad91d76cb42eb0c7,,,,,,,sngl,resources/DP.BMP,resources/Empty.png,Door4,-0.165,0.002,1,0,0,0.965,optionLeft,80,6220,3,30,0,30,0,1,,,,,,,,,,,,,,,,,,,,,,,,,,,,,,,,,,,,,,,
,,,,,,,63d18330964d8e7f0f14164d,2023-08-16_08h44.51.089,HF_wild_card,2022.2.4,MacIntel,63.61323155,63d18330964d8e7f0f14164d,64d2fd46c836a06233681665,64dc7e27ad91d76cb42eb0c7,,,,,,,decisionTrl,resources/DY.BMP,resources/DP.BMP,Door4,0.471,0.074,1,0,0,1.347,optionRight,60,6280,3,31,0,31,0,1,,,,,,,,,,,,,,,,,,,,,,,,,,,,,,,,,,,,,,,
,,,,,,,63d18330964d8e7f0f14164d,2023-08-16_08h44.51.089,HF_wild_card,2022.2.4,MacIntel,63.61323155,63d18330964d8e7f0f14164d,64d2fd46c836a06233681665,64dc7e27ad91d76cb42eb0c7,,,,,,,decisionTrl,resources/DY.BMP,resources/DB.BMP,WildCard_NonEx,-0.369,-0.024,1,0,0,1.05,optionLeft,55,6335,3,32,0,32,0,1,,,,,,,,,,,,,,,,,,,,,,,,,,,,,,,,,,,,,,,
,,,,,,,63d18330964d8e7f0f14164d,2023-08-16_08h44.51.089,HF_wild_card,2022.2.4,MacIntel,63.61323155,63d18330964d8e7f0f14164d,64d2fd46c836a06233681665,64dc7e27ad91d76cb42eb0c7,,,,,,,decisionTrl,resources/DP.BMP,resources/DG.BMP,Door4,-0.22,0,1,0,0,0.832,optionLeft,60,6395,3,33,0,33,0,1,,,,,,,,,,,,,,,,,,,,,,,,,,,,,,,,,,,,,,,
,,,,,,,63d18330964d8e7f0f14164d,2023-08-16_08h44.51.089,HF_wild_card,2022.2.4,MacIntel,63.61323155,63d18330964d8e7f0f14164d,64d2fd46c836a06233681665,64dc7e27ad91d76cb42eb0c7,,,,,,,ctch,resources/DP.BMP,resources/DB.BMP,Door4,-0.154,0.02,1,0,0,1.284,optionLeft,80,6475,3,34,0,34,0,1,,,,,,,,,,,,,,,,,,,,,,,,,,,,,,,,,,,,,,,
,,,,,,,63d18330964d8e7f0f14164d,2023-08-16_08h44.51.089,HF_wild_card,2022.2.4,MacIntel,63.61323155,63d18330964d8e7f0f14164d,64d2fd46c836a06233681665,64dc7e27ad91d76cb42eb0c7,,,,,,,decisionTrl,resources/DB.BMP,resources/DBN.BMP,Door1,-0.306,-0.055,1,0,0,1.459,optionLeft,30,6505,3,35,0,35,0,1,,,,,,,,,,,,,,,,,,,,,,,,,,,,,,,,,,,,,,,
,,,,,,,63d18330964d8e7f0f14164d,2023-08-16_08h44.51.089,HF_wild_card,2022.2.4,MacIntel,63.61323155,63d18330964d8e7f0f14164d,64d2fd46c836a06233681665,64dc7e27ad91d76cb42eb0c7,,,,,,,decisionTrl,resources/DP.BMP,resources/DG.BMP,Door4,-0.176,0.012,1,0,0,0.881,optionLeft,80,6585,3,36,0,36,0,1,,,,,,,,,,,,,,,,,,,,,,,,,,,,,,,,,,,,,,,
,,,,,,,63d18330964d8e7f0f14164d,2023-08-16_08h44.51.089,HF_wild_card,2022.2.4,MacIntel,63.61323155,63d18330964d8e7f0f14164d,64d2fd46c836a06233681665,64dc7e27ad91d76cb42eb0c7,,,,,,,sngl,resources/DY.BMP,resources/Empty.png,WildCard_NonEx,-0.166,0.004,1,0,0,1.082,optionLeft,45,6630,3,37,0,37,0,1,,,,,,,,,,,,,,,,,,,,,,,,,,,,,,,,,,,,,,,
,,,,,,,63d18330964d8e7f0f14164d,2023-08-16_08h44.51.089,HF_wild_card,2022.2.4,MacIntel,63.61323155,63d18330964d8e7f0f14164d,64d2fd46c836a06233681665,64dc7e27ad91d76cb42eb0c7,,,,,,,ctch,resources/DG.BMP,resources/DBN.BMP,Door3,-0.39,-0.098,1,0,0,0.983,optionLeft,70,6700,3,38,0,38,0,1,,,,,,,,,,,,,,,,,,,,,,,,,,,,,,,,,,,,,,,
,,,,,,,63d18330964d8e7f0f14164d,2023-08-16_08h44.51.089,HF_wild_card,2022.2.4,MacIntel,63.61323155,63d18330964d8e7f0f14164d,64d2fd46c836a06233681665,64dc7e27ad91d76cb42eb0c7,,,,,,,decisionTrl,resources/DB.BMP,resources/DY.BMP,Door1,-0.205,-0.015,1,0,0,1.468,optionLeft,30,6730,3,39,0,39,0,1,,,,,,,,,,,,,,,,,,,,,,,,,,,,,,,,,,,,,,,
,,,,,,,63d18330964d8e7f0f14164d,2023-08-16_08h44.51.089,HF_wild_card,2022.2.4,MacIntel,63.61323155,63d18330964d8e7f0f14164d,64d2fd46c836a06233681665,64dc7e27ad91d76cb42eb0c7,,,,,,,sngl,resources/Empty.png,resources/DY.BMP,WildCard_NonEx,0.229,-0.01,1,0,0,0.913,optionRight,45,6775,3,40,0,40,0,1,,,,,,,,,,,,,,,,,,,,,,,,,,,,,,,,,,,,,,,
,,,,,,,63d18330964d8e7f0f14164d,2023-08-16_08h44.51.089,HF_wild_card,2022.2.4,MacIntel,63.61323155,63d18330964d8e7f0f14164d,64d2fd46c836a06233681665,64dc7e27ad91d76cb42eb0c7,,,,,,,sngl,resources/DG.BMP,resources/Empty.png,Door3,-0.135,0.017,1,0,0,0.882,optionLeft,70,6845,3,41,0,41,0,1,,,,,,,,,,,,,,,,,,,,,,,,,,,,,,,,,,,,,,,
,,,,,,,63d18330964d8e7f0f14164d,2023-08-16_08h44.51.089,HF_wild_card,2022.2.4,MacIntel,63.61323155,63d18330964d8e7f0f14164d,64d2fd46c836a06233681665,64dc7e27ad91d76cb42eb0c7,,,,,,,sngl,resources/Empty.png,resources/DP.BMP,Door4,0.219,-0.008,1,0,0,0.949,optionRight,60,6905,3,42,0,42,0,1,,,,,,,,,,,,,,,,,,,,,,,,,,,,,,,,,,,,,,,
,,,,,,,63d18330964d8e7f0f14164d,2023-08-16_08h44.51.089,HF_wild_card,2022.2.4,MacIntel,63.61323155,63d18330964d8e7f0f14164d,64d2fd46c836a06233681665,64dc7e27ad91d76cb42eb0c7,,,,,,,ctch,resources/DBN.BMP,resources/DG.BMP,Door3,0.624,0.039,1,0,0,1.366,optionRight,70,6975,3,43,0,43,0,1,,,,,,,,,,,,,,,,,,,,,,,,,,,,,,,,,,,,,,,
,,,,,,,63d18330964d8e7f0f14164d,2023-08-16_08h44.51.089,HF_wild_card,2022.2.4,MacIntel,63.61323155,63d18330964d8e7f0f14164d,64d2fd46c836a06233681665,64dc7e27ad91d76cb42eb0c7,,,,,,,,,,,,,,,,,,,,,,,,,,2,0,2,0,1,,,,,,,,,,,,,,,,,,,,,,,,,,,,,,,,,,
,,,,,,,63d18330964d8e7f0f14164d,2023-08-16_08h44.51.089,HF_wild_card,2022.2.4,MacIntel,63.61323155,63d18330964d8e7f0f14164d,64d2fd46c836a06233681665,64dc7e27ad91d76cb42eb0c7,,,,,,,decisionTrl,resources/DG.BMP,resources/DP.BMP,Door4,0.389,-0.096,1,0,0,1.332,optionRight,60,7035,4,0,0,0,0,1,,,,,,,,,,,,,,,,,,,,,,,,,,,,,,,,,,,,,,,
,,,,,,,63d18330964d8e7f0f14164d,2023-08-16_08h44.51.089,HF_wild_card,2022.2.4,MacIntel,63.61323155,63d18330964d8e7f0f14164d,64d2fd46c836a06233681665,64dc7e27ad91d76cb42eb0c7,,,,,,,decisionTrl,resources/DG.BMP,resources/DP.BMP,Door4,0.265,-0.011,1,0,0,0.867,optionRight,80,7115,4,1,0,1,0,1,,,,,,,,,,,,,,,,,,,,,,,,,,,,,,,,,,,,,,,
,,,,,,,63d18330964d8e7f0f14164d,2023-08-16_08h44.51.089,HF_wild_card,2022.2.4,MacIntel,63.61323155,63d18330964d8e7f0f14164d,64d2fd46c836a06233681665,64dc7e27ad91d76cb42eb0c7,,,,,,,ctch,resources/DB.BMP,resources/DP.BMP,Door4,0.24,-0.019,1,0,0,0.782,optionRight,60,7175,4,2,0,2,0,1,,,,,,,,,,,,,,,,,,,,,,,,,,,,,,,,,,,,,,,
,,,,,,,63d18330964d8e7f0f14164d,2023-08-16_08h44.51.089,HF_wild_card,2022.2.4,MacIntel,63.61323155,63d18330964d8e7f0f14164d,64d2fd46c836a06233681665,64dc7e27ad91d76cb42eb0c7,,,,,,,decisionTrl,resources/DR.BMP,resources/DBN.BMP,WildCard_Ex,-0.299,0.031,1,0,0,2.286,optionLeft,5,7180,4,3,0,3,0,1,,,,,,,,,,,,,,,,,,,,,,,,,,,,,,,,,,,,,,,
,,,,,,,63d18330964d8e7f0f14164d,2023-08-16_08h44.51.089,HF_wild_card,2022.2.4,MacIntel,63.61323155,63d18330964d8e7f0f14164d,64d2fd46c836a06233681665,64dc7e27ad91d76cb42eb0c7,,,,,,,decisionTrl,resources/DR.BMP,resources/DG.BMP,Door3,0.304,0.017,1,0,0,0.908,optionRight,70,7250,4,4,0,4,0,1,,,,,,,,,,,,,,,,,,,,,,,,,,,,,,,,,,,,,,,
,,,,,,,63d18330964d8e7f0f14164d,2023-08-16_08h44.51.089,HF_wild_card,2022.2.4,MacIntel,63.61323155,63d18330964d8e7f0f14164d,64d2fd46c836a06233681665,64dc7e27ad91d76cb42eb0c7,,,,,,,sngl,resources/DR.BMP,resources/Empty.png,WildCard_Ex,-0.199,0.027,1,0,0,1.029,optionLeft,95,7345,4,5,0,5,0,1,,,,,,,,,,,,,,,,,,,,,,,,,,,,,,,,,,,,,,,
,,,,,,,63d18330964d8e7f0f14164d,2023-08-16_08h44.51.089,HF_wild_card,2022.2.4,MacIntel,63.61323155,63d18330964d8e7f0f14164d,64d2fd46c836a06233681665,64dc7e27ad91d76cb42eb0c7,,,,,,,decisionTrl,resources/DB.BMP,resources/DBN.BMP,Door1,-0.229,0,1,0,0,1.015,optionLeft,30,7375,4,6,0,6,0,1,,,,,,,,,,,,,,,,,,,,,,,,,,,,,,,,,,,,,,,
,,,,,,,63d18330964d8e7f0f14164d,2023-08-16_08h44.51.089,HF_wild_card,2022.2.4,MacIntel,63.61323155,63d18330964d8e7f0f14164d,64d2fd46c836a06233681665,64dc7e27ad91d76cb42eb0c7,,,,,,,sngl,resources/Empty.png,resources/DG.BMP,Door3,0.253,-0.011,1,0,0,0.797,optionRight,70,7445,4,7,0,7,0,1,,,,,,,,,,,,,,,,,,,,,,,,,,,,,,,,,,,,,,,
,,,,,,,63d18330964d8e7f0f14164d,2023-08-16_08h44.51.089,HF_wild_card,2022.2.4,MacIntel,63.61323155,63d18330964d8e7f0f14164d,64d2fd46c836a06233681665,64dc7e27ad91d76cb42eb0c7,,,,,,,ctch,resources/DP.BMP,resources/DB.BMP,Door4,-0.254,0.006,1,0,0,0.883,optionLeft,60,7505,4,8,0,8,0,1,,,,,,,,,,,,,,,,,,,,,,,,,,,,,,,,,,,,,,,
,,,,,,,63d18330964d8e7f0f14164d,2023-08-16_08h44.51.089,HF_wild_card,2022.2.4,MacIntel,63.61323155,63d18330964d8e7f0f14164d,64d2fd46c836a06233681665,64dc7e27ad91d76cb42eb0c7,,,,,,,decisionTrl,resources/DP.BMP,resources/DG.BMP,Door4,-0.157,0,1,0,0,0.866,optionLeft,80,7585,4,9,0,9,0,1,,,,,,,,,,,,,,,,,,,,,,,,,,,,,,,,,,,,,,,
,,,,,,,63d18330964d8e7f0f14164d,2023-08-16_08h44.51.089,HF_wild_card,2022.2.4,MacIntel,63.61323155,63d18330964d8e7f0f14164d,64d2fd46c836a06233681665,64dc7e27ad91d76cb42eb0c7,,,,,,,decisionTrl,resources/DP.BMP,resources/DG.BMP,Door4,-0.151,-0.014,1,0,0,0.765,optionLeft,60,7645,4,10,0,10,0,1,,,,,,,,,,,,,,,,,,,,,,,,,,,,,,,,,,,,,,,
,,,,,,,63d18330964d8e7f0f14164d,2023-08-16_08h44.51.089,HF_wild_card,2022.2.4,MacIntel,63.61323155,63d18330964d8e7f0f14164d,64d2fd46c836a06233681665,64dc7e27ad91d76cb42eb0c7,,,,,,,ctch,resources/DB.BMP,resources/DP.BMP,Door4,0.514,0.017,1,0,0,1.067,optionRight,80,7725,4,11,0,11,0,1,,,,,,,,,,,,,,,,,,,,,,,,,,,,,,,,,,,,,,,
,,,,,,,63d18330964d8e7f0f14164d,2023-08-16_08h44.51.089,HF_wild_card,2022.2.4,MacIntel,63.61323155,63d18330964d8e7f0f14164d,64d2fd46c836a06233681665,64dc7e27ad91d76cb42eb0c7,,,,,,,decisionTrl,resources/DP.BMP,resources/DG.BMP,Door4,-0.407,-0.044,1,0,0,0.934,optionLeft,80,7805,4,12,0,12,0,1,,,,,,,,,,,,,,,,,,,,,,,,,,,,,,,,,,,,,,,
,,,,,,,63d18330964d8e7f0f14164d,2023-08-16_08h44.51.089,HF_wild_card,2022.2.4,MacIntel,63.61323155,63d18330964d8e7f0f14164d,64d2fd46c836a06233681665,64dc7e27ad91d76cb42eb0c7,,,,,,,decisionTrl,resources/DR.BMP,resources/DB.BMP,WildCard_Ex,-0.471,-0.076,1,0,0,1.785,optionLeft,5,7810,4,13,0,13,0,1,,,,,,,,,,,,,,,,,,,,,,,,,,,,,,,,,,,,,,,
,,,,,,,63d18330964d8e7f0f14164d,2023-08-16_08h44.51.089,HF_wild_card,2022.2.4,MacIntel,63.61323155,63d18330964d8e7f0f14164d,64d2fd46c836a06233681665,64dc7e27ad91d76cb42eb0c7,,,,,,,decisionTrl,resources/DBN.BMP,resources/DB.BMP,Door1,0.58,-0.029,1,0,0,0.984,optionRight,30,7840,4,14,0,14,0,1,,,,,,,,,,,,,,,,,,,,,,,,,,,,,,,,,,,,,,,
,,,,,,,63d18330964d8e7f0f14164d,2023-08-16_08h44.51.089,HF_wild_card,2022.2.4,MacIntel,63.61323155,63d18330964d8e7f0f14164d,64d2fd46c836a06233681665,64dc7e27ad91d76cb42eb0c7,,,,,,,sngl,resources/Empty.png,resources/DR.BMP,WildCard_Ex,0.236,-0.004,1,0,0,1.006,optionRight,95,7935,4,15,0,15,0,1,,,,,,,,,,,,,,,,,,,,,,,,,,,,,,,,,,,,,,,
,,,,,,,63d18330964d8e7f0f14164d,2023-08-16_08h44.51.089,HF_wild_card,2022.2.4,MacIntel,63.61323155,63d18330964d8e7f0f14164d,64d2fd46c836a06233681665,64dc7e27ad91d76cb42eb0c7,,,,,,,decisionTrl,resources/DBN.BMP,resources/DB.BMP,Door1,0.414,0.054,1,0,0,1.198,optionRight,30,7965,4,16,0,16,0,1,,,,,,,,,,,,,,,,,,,,,,,,,,,,,,,,,,,,,,,
,,,,,,,63d18330964d8e7f0f14164d,2023-08-16_08h44.51.089,HF_wild_card,2022.2.4,MacIntel,63.61323155,63d18330964d8e7f0f14164d,64d2fd46c836a06233681665,64dc7e27ad91d76cb42eb0c7,,,,,,,sngl,resources/DB.BMP,resources/Empty.png,Door1,-0.174,-0.001,1,0,0,0.881,optionLeft,30,7995,4,17,0,17,0,1,,,,,,,,,,,,,,,,,,,,,,,,,,,,,,,,,,,,,,,
,,,,,,,63d18330964d8e7f0f14164d,2023-08-16_08h44.51.089,HF_wild_card,2022.2.4,MacIntel,63.61323155,63d18330964d8e7f0f14164d,64d2fd46c836a06233681665,64dc7e27ad91d76cb42eb0c7,,,,,,,decisionTrl,resources/DG.BMP,resources/DP.BMP,Door4,0.46,0.019,1,0,0,0.779,optionRight,80,8075,4,18,0,18,0,1,,,,,,,,,,,,,,,,,,,,,,,,,,,,,,,,,,,,,,,
,,,,,,,63d18330964d8e7f0f14164d,2023-08-16_08h44.51.089,HF_wild_card,2022.2.4,MacIntel,63.61323155,63d18330964d8e7f0f14164d,64d2fd46c836a06233681665,64dc7e27ad91d76cb42eb0c7,,,,,,,sngl,resources/Empty.png,resources/DR.BMP,WildCard_Ex,0.378,0.065,1,0,0,1.014,optionRight,5,8080,4,19,0,19,0,1,,,,,,,,,,,,,,,,,,,,,,,,,,,,,,,,,,,,,,,
,,,,,,,63d18330964d8e7f0f14164d,2023-08-16_08h44.51.089,HF_wild_card,2022.2.4,MacIntel,63.61323155,63d18330964d8e7f0f14164d,64d2fd46c836a06233681665,64dc7e27ad91d76cb42eb0c7,,,,,,,decisionTrl,resources/DB.BMP,resources/DBN.BMP,Door1,-0.237,-0.074,1,0,0,1.334,optionLeft,30,8110,4,20,0,20,0,1,,,,,,,,,,,,,,,,,,,,,,,,,,,,,,,,,,,,,,,
,,,,,,,63d18330964d8e7f0f14164d,2023-08-16_08h44.51.089,HF_wild_card,2022.2.4,MacIntel,63.61323155,63d18330964d8e7f0f14164d,64d2fd46c836a06233681665,64dc7e27ad91d76cb42eb0c7,,,,,,,sngl,resources/Empty.png,resources/DP.BMP,Door4,0.261,0.005,1,0,0,0.966,optionRight,80,8190,4,21,0,21,0,1,,,,,,,,,,,,,,,,,,,,,,,,,,,,,,,,,,,,,,,
,,,,,,,63d18330964d8e7f0f14164d,2023-08-16_08h44.51.089,HF_wild_card,2022.2.4,MacIntel,63.61323155,63d18330964d8e7f0f14164d,64d2fd46c836a06233681665,64dc7e27ad91d76cb42eb0c7,,,,,,,decisionTrl,resources/DP.BMP,resources/DG.BMP,Door4,-0.309,-0.073,1,0,0,0.898,optionLeft,60,8250,4,22,0,22,0,1,,,,,,,,,,,,,,,,,,,,,,,,,,,,,,,,,,,,,,,
,,,,,,,63d18330964d8e7f0f14164d,2023-08-16_08h44.51.089,HF_wild_card,2022.2.4,MacIntel,63.61323155,63d18330964d8e7f0f14164d,64d2fd46c836a06233681665,64dc7e27ad91d76cb42eb0c7,,,,,,,ctch,resources/DP.BMP,resources/DB.BMP,Door4,-0.382,-0.053,1,0,0,0.8,optionLeft,60,8310,4,23,0,23,0,1,,,,,,,,,,,,,,,,,,,,,,,,,,,,,,,,,,,,,,,
,,,,,,,63d18330964d8e7f0f14164d,2023-08-16_08h44.51.089,HF_wild_card,2022.2.4,MacIntel,63.61323155,63d18330964d8e7f0f14164d,64d2fd46c836a06233681665,64dc7e27ad91d76cb42eb0c7,,,,,,,decisionTrl,resources/DBN.BMP,resources/DB.BMP,Door1,0.323,0.051,1,0,0,1.117,optionRight,30,8340,4,24,0,24,0,1,,,,,,,,,,,,,,,,,,,,,,,,,,,,,,,,,,,,,,,
,,,,,,,63d18330964d8e7f0f14164d,2023-08-16_08h44.51.089,HF_wild_card,2022.2.4,MacIntel,63.61323155,63d18330964d8e7f0f14164d,64d2fd46c836a06233681665,64dc7e27ad91d76cb42eb0c7,,,,,,,ctch,resources/DBN.BMP,resources/DG.BMP,Door3,0.359,0.014,1,0,0,0.95,optionRight,70,8410,4,25,0,25,0,1,,,,,,,,,,,,,,,,,,,,,,,,,,,,,,,,,,,,,,,
,,,,,,,63d18330964d8e7f0f14164d,2023-08-16_08h44.51.089,HF_wild_card,2022.2.4,MacIntel,63.61323155,63d18330964d8e7f0f14164d,64d2fd46c836a06233681665,64dc7e27ad91d76cb42eb0c7,,,,,,,sngl,resources/DR.BMP,resources/Empty.png,WildCard_Ex,-0.187,-0.066,1,0,0,1.054,optionLeft,5,8415,4,26,0,26,0,1,,,,,,,,,,,,,,,,,,,,,,,,,,,,,,,,,,,,,,,
,,,,,,,63d18330964d8e7f0f14164d,2023-08-16_08h44.51.089,HF_wild_card,2022.2.4,MacIntel,63.61323155,63d18330964d8e7f0f14164d,64d2fd46c836a06233681665,64dc7e27ad91d76cb42eb0c7,,,,,,,decisionTrl,resources/DB.BMP,resources/DR.BMP,WildCard_Ex,0.391,-0.001,1,0,0,0.813,optionRight,95,8510,4,27,0,27,0,1,,,,,,,,,,,,,,,,,,,,,,,,,,,,,,,,,,,,,,,
,,,,,,,63d18330964d8e7f0f14164d,2023-08-16_08h44.51.089,HF_wild_card,2022.2.4,MacIntel,63.61323155,63d18330964d8e7f0f14164d,64d2fd46c836a06233681665,64dc7e27ad91d76cb42eb0c7,,,,,,,decisionTrl,resources/DBN.BMP,resources/DR.BMP,WildCard_Ex,0.391,0.016,1,0,0,0.749,optionRight,5,8515,4,28,0,28,0,1,,,,,,,,,,,,,,,,,,,,,,,,,,,,,,,,,,,,,,,
,,,,,,,63d18330964d8e7f0f14164d,2023-08-16_08h44.51.089,HF_wild_card,2022.2.4,MacIntel,63.61323155,63d18330964d8e7f0f14164d,64d2fd46c836a06233681665,64dc7e27ad91d76cb42eb0c7,,,,,,,decisionTrl,resources/DBN.BMP,resources/DB.BMP,Door1,0.365,0.131,1,0,0,1.1,optionRight,30,8545,4,29,0,29,0,1,,,,,,,,,,,,,,,,,,,,,,,,,,,,,,,,,,,,,,,
,,,,,,,63d18330964d8e7f0f14164d,2023-08-16_08h44.51.089,HF_wild_card,2022.2.4,MacIntel,63.61323155,63d18330964d8e7f0f14164d,64d2fd46c836a06233681665,64dc7e27ad91d76cb42eb0c7,,,,,,,decisionTrl,resources/DG.BMP,resources/DP.BMP,Door4,0.378,0.02,1,0,0,0.914,optionRight,60,8605,4,30,0,30,0,1,,,,,,,,,,,,,,,,,,,,,,,,,,,,,,,,,,,,,,,
,,,,,,,63d18330964d8e7f0f14164d,2023-08-16_08h44.51.089,HF_wild_card,2022.2.4,MacIntel,63.61323155,63d18330964d8e7f0f14164d,64d2fd46c836a06233681665,64dc7e27ad91d76cb42eb0c7,,,,,,,decisionTrl,resources/DR.BMP,resources/DP.BMP,Door4,0.33,0.051,1,0,0,1.516,optionRight,80,8685,4,31,0,31,0,1,,,,,,,,,,,,,,,,,,,,,,,,,,,,,,,,,,,,,,,
,,,,,,,63d18330964d8e7f0f14164d,2023-08-16_08h44.51.089,HF_wild_card,2022.2.4,MacIntel,63.61323155,63d18330964d8e7f0f14164d,64d2fd46c836a06233681665,64dc7e27ad91d76cb42eb0c7,,,,,,,sngl,resources/DBN.BMP,resources/Empty.png,Door2,-0.139,-0.058,1,0,0,0.864,optionLeft,20,8705,4,32,0,32,0,1,,,,,,,,,,,,,,,,,,,,,,,,,,,,,,,,,,,,,,,
,,,,,,,63d18330964d8e7f0f14164d,2023-08-16_08h44.51.089,HF_wild_card,2022.2.4,MacIntel,63.61323155,63d18330964d8e7f0f14164d,64d2fd46c836a06233681665,64dc7e27ad91d76cb42eb0c7,,,,,,,decisionTrl,resources/DB.BMP,resources/DBN.BMP,Door1,-0.39,-0.083,1,0,0,1.15,optionLeft,30,8735,4,33,0,33,0,1,,,,,,,,,,,,,,,,,,,,,,,,,,,,,,,,,,,,,,,
,,,,,,,63d18330964d8e7f0f14164d,2023-08-16_08h44.51.089,HF_wild_card,2022.2.4,MacIntel,63.61323155,63d18330964d8e7f0f14164d,64d2fd46c836a06233681665,64dc7e27ad91d76cb42eb0c7,,,,,,,decisionTrl,resources/DB.BMP,resources/DBN.BMP,Door1,-0.331,-0.033,1,0,0,0.834,optionLeft,30,8765,4,34,0,34,0,1,,,,,,,,,,,,,,,,,,,,,,,,,,,,,,,,,,,,,,,
,,,,,,,63d18330964d8e7f0f14164d,2023-08-16_08h44.51.089,HF_wild_card,2022.2.4,MacIntel,63.61323155,63d18330964d8e7f0f14164d,64d2fd46c836a06233681665,64dc7e27ad91d76cb42eb0c7,,,,,,,ctch,resources/DBN.BMP,resources/DG.BMP,Door3,0.293,-0.024,1,0,0,1.565,optionRight,70,8835,4,35,0,35,0,1,,,,,,,,,,,,,,,,,,,,,,,,,,,,,,,,,,,,,,,
,,,,,,,63d18330964d8e7f0f14164d,2023-08-16_08h44.51.089,HF_wild_card,2022.2.4,MacIntel,63.61323155,63d18330964d8e7f0f14164d,64d2fd46c836a06233681665,64dc7e27ad91d76cb42eb0c7,,,,,,,ctch,resources/DG.BMP,resources/DBN.BMP,Door3,-0.259,0.016,1,0,0,1.234,optionLeft,70,8905,4,36,0,36,0,1,,,,,,,,,,,,,,,,,,,,,,,,,,,,,,,,,,,,,,,
,,,,,,,63d18330964d8e7f0f14164d,2023-08-16_08h44.51.089,HF_wild_card,2022.2.4,MacIntel,63.61323155,63d18330964d8e7f0f14164d,64d2fd46c836a06233681665,64dc7e27ad91d76cb42eb0c7,,,,,,,ctch,resources/DG.BMP,resources/DBN.BMP,Door3,-0.332,0,1,0,0,1.549,optionLeft,70,8975,4,37,0,37,0,1,,,,,,,,,,,,,,,,,,,,,,,,,,,,,,,,,,,,,,,
,,,,,,,63d18330964d8e7f0f14164d,2023-08-16_08h44.51.089,HF_wild_card,2022.2.4,MacIntel,63.61323155,63d18330964d8e7f0f14164d,64d2fd46c836a06233681665,64dc7e27ad91d76cb42eb0c7,,,,,,,sngl,resources/DP.BMP,resources/Empty.png,Door4,-0.147,0.015,1,0,0,0.879,optionLeft,60,9035,4,38,0,38,0,1,,,,,,,,,,,,,,,,,,,,,,,,,,,,,,,,,,,,,,,
,,,,,,,63d18330964d8e7f0f14164d,2023-08-16_08h44.51.089,HF_wild_card,2022.2.4,MacIntel,63.61323155,63d18330964d8e7f0f14164d,64d2fd46c836a06233681665,64dc7e27ad91d76cb42eb0c7,,,,,,,decisionTrl,resources/DG.BMP,resources/DR.BMP,Door3,-0.262,-0.065,1,0,0,2.584,optionLeft,70,9105,4,39,0,39,0,1,,,,,,,,,,,,,,,,,,,,,,,,,,,,,,,,,,,,,,,
,,,,,,,63d18330964d8e7f0f14164d,2023-08-16_08h44.51.089,HF_wild_card,2022.2.4,MacIntel,63.61323155,63d18330964d8e7f0f14164d,64d2fd46c836a06233681665,64dc7e27ad91d76cb42eb0c7,,,,,,,sngl,resources/DG.BMP,resources/Empty.png,Door3,-0.166,0.029,1,0,0,0.915,optionLeft,70,9175,4,40,0,40,0,1,,,,,,,,,,,,,,,,,,,,,,,,,,,,,,,,,,,,,,,
,,,,,,,63d18330964d8e7f0f14164d,2023-08-16_08h44.51.089,HF_wild_card,2022.2.4,MacIntel,63.61323155,63d18330964d8e7f0f14164d,64d2fd46c836a06233681665,64dc7e27ad91d76cb42eb0c7,,,,,,,sngl,resources/Empty.png,resources/DB.BMP,Door1,0.228,-0.011,1,0,0,1.467,optionRight,30,9205,4,41,0,41,0,1,,,,,,,,,,,,,,,,,,,,,,,,,,,,,,,,,,,,,,,
,,,,,,,63d18330964d8e7f0f14164d,2023-08-16_08h44.51.089,HF_wild_card,2022.2.4,MacIntel,63.61323155,63d18330964d8e7f0f14164d,64d2fd46c836a06233681665,64dc7e27ad91d76cb42eb0c7,,,,,,,decisionTrl,resources/DP.BMP,resources/DR.BMP,Door4,-0.496,-0.064,1,0,0,1.166,optionLeft,80,9285,4,42,0,42,0,1,,,,,,,,,,,,,,,,,,,,,,,,,,,,,,,,,,,,,,,
,,,,,,,63d18330964d8e7f0f14164d,2023-08-16_08h44.51.089,HF_wild_card,2022.2.4,MacIntel,63.61323155,63d18330964d8e7f0f14164d,64d2fd46c836a06233681665,64dc7e27ad91d76cb42eb0c7,,,,,,,sngl,resources/Empty.png,resources/DBN.BMP,Door2,0.141,-0.02,1,0,0,0.95,optionRight,40,9325,4,43,0,43,0,1,,,,,,,,,,,,,,,,,,,,,,,,,,,,,,,,,,,,,,,
,,,,,,,63d18330964d8e7f0f14164d,2023-08-16_08h44.51.089,HF_wild_card,2022.2.4,MacIntel,63.61323155,63d18330964d8e7f0f14164d,64d2fd46c836a06233681665,64dc7e27ad91d76cb42eb0c7,,,,,,,,,,,,,,,,,,,,,,,,,,3,0,3,0,1,,,,,,,,,,,,,,,,,,,,,,,,,,,,,,,,,,
,,,,,,,63d18330964d8e7f0f14164d,2023-08-16_08h44.51.089,HF_wild_card,2022.2.4,MacIntel,63.61323155,63d18330964d8e7f0f14164d,64d2fd46c836a06233681665,64dc7e27ad91d76cb42eb0c7,,,,,,,ctch,resources/DBN.BMP,resources/DG.BMP,Door3,0.358,-0.07,1,0,0,1.203,optionRight,70,9395,5,0,0,0,0,1,,,,,,,,,,,,,,,,,,,,,,,,,,,,,,,,,,,,,,,
,,,,,,,63d18330964d8e7f0f14164d,2023-08-16_08h44.51.089,HF_wild_card,2022.2.4,MacIntel,63.61323155,63d18330964d8e7f0f14164d,64d2fd46c836a06233681665,64dc7e27ad91d76cb42eb0c7,,,,,,,decisionTrl,resources/DB.BMP,resources/DBN.BMP,Door1,-0.214,-0.115,1,0,0,1.367,optionLeft,30,9425,5,1,0,1,0,1,,,,,,,,,,,,,,,,,,,,,,,,,,,,,,,,,,,,,,,
,,,,,,,63d18330964d8e7f0f14164d,2023-08-16_08h44.51.089,HF_wild_card,2022.2.4,MacIntel,63.61323155,63d18330964d8e7f0f14164d,64d2fd46c836a06233681665,64dc7e27ad91d76cb42eb0c7,,,,,,,decisionTrl,resources/DP.BMP,resources/DG.BMP,Door4,-0.161,-0.043,1,0,0,1.265,optionLeft,60,9485,5,2,0,2,0,1,,,,,,,,,,,,,,,,,,,,,,,,,,,,,,,,,,,,,,,
,,,,,,,63d18330964d8e7f0f14164d,2023-08-16_08h44.51.089,HF_wild_card,2022.2.4,MacIntel,63.61323155,63d18330964d8e7f0f14164d,64d2fd46c836a06233681665,64dc7e27ad91d76cb42eb0c7,,,,,,,decisionTrl,resources/DB.BMP,resources/DR.BMP,Door1,-0.222,-0.053,1,0,0,1.133,optionLeft,30,9515,5,3,0,3,0,1,,,,,,,,,,,,,,,,,,,,,,,,,,,,,,,,,,,,,,,
,,,,,,,63d18330964d8e7f0f14164d,2023-08-16_08h44.51.089,HF_wild_card,2022.2.4,MacIntel,63.61323155,63d18330964d8e7f0f14164d,64d2fd46c836a06233681665,64dc7e27ad91d76cb42eb0c7,,,,,,,decisionTrl,resources/DG.BMP,resources/DP.BMP,Door4,0.191,0.002,1,0,0,0.939,optionRight,80,9595,5,4,0,4,0,1,,,,,,,,,,,,,,,,,,,,,,,,,,,,,,,,,,,,,,,
,,,,,,,63d18330964d8e7f0f14164d,2023-08-16_08h44.51.089,HF_wild_card,2022.2.4,MacIntel,63.61323155,63d18330964d8e7f0f14164d,64d2fd46c836a06233681665,64dc7e27ad91d76cb42eb0c7,,,,,,,decisionTrl,resources/DBN.BMP,resources/DB.BMP,Door1,0.264,-0.011,1,0,0,0.964,optionRight,30,9625,5,5,0,5,0,1,,,,,,,,,,,,,,,,,,,,,,,,,,,,,,,,,,,,,,,
,,,,,,,63d18330964d8e7f0f14164d,2023-08-16_08h44.51.089,HF_wild_card,2022.2.4,MacIntel,63.61323155,63d18330964d8e7f0f14164d,64d2fd46c836a06233681665,64dc7e27ad91d76cb42eb0c7,,,,,,,decisionTrl,resources/DP.BMP,resources/DR.BMP,Door4,-0.347,-0.023,1,0,0,1.381,optionLeft,80,9705,5,6,0,6,0,1,,,,,,,,,,,,,,,,,,,,,,,,,,,,,,,,,,,,,,,
,,,,,,,63d18330964d8e7f0f14164d,2023-08-16_08h44.51.089,HF_wild_card,2022.2.4,MacIntel,63.61323155,63d18330964d8e7f0f14164d,64d2fd46c836a06233681665,64dc7e27ad91d76cb42eb0c7,,,,,,,sngl,resources/DB.BMP,resources/Empty.png,Door1,-0.191,-0.013,1,0,0,0.832,optionLeft,30,9735,5,7,0,7,0,1,,,,,,,,,,,,,,,,,,,,,,,,,,,,,,,,,,,,,,,
,,,,,,,63d18330964d8e7f0f14164d,2023-08-16_08h44.51.089,HF_wild_card,2022.2.4,MacIntel,63.61323155,63d18330964d8e7f0f14164d,64d2fd46c836a06233681665,64dc7e27ad91d76cb42eb0c7,,,,,,,decisionTrl,resources/DG.BMP,resources/DP.BMP,Door4,0.163,-0.013,1,0,0,2.203,optionRight,80,9815,5,8,0,8,0,1,,,,,,,,,,,,,,,,,,,,,,,,,,,,,,,,,,,,,,,
,,,,,,,63d18330964d8e7f0f14164d,2023-08-16_08h44.51.089,HF_wild_card,2022.2.4,MacIntel,63.61323155,63d18330964d8e7f0f14164d,64d2fd46c836a06233681665,64dc7e27ad91d76cb42eb0c7,,,,,,,decisionTrl,resources/DG.BMP,resources/DR.BMP,WildCard_Ex,0.563,0.029,1,0,0,2.22,optionRight,95,9910,5,9,0,9,0,1,,,,,,,,,,,,,,,,,,,,,,,,,,,,,,,,,,,,,,,
,,,,,,,63d18330964d8e7f0f14164d,2023-08-16_08h44.51.089,HF_wild_card,2022.2.4,MacIntel,63.61323155,63d18330964d8e7f0f14164d,64d2fd46c836a06233681665,64dc7e27ad91d76cb42eb0c7,,,,,,,sngl,resources/Empty.png,resources/DP.BMP,Door4,0.439,0.01,1,0,0,1.483,optionRight,60,9970,5,10,0,10,0,1,,,,,,,,,,,,,,,,,,,,,,,,,,,,,,,,,,,,,,,
,,,,,,,63d18330964d8e7f0f14164d,2023-08-16_08h44.51.089,HF_wild_card,2022.2.4,MacIntel,63.61323155,63d18330964d8e7f0f14164d,64d2fd46c836a06233681665,64dc7e27ad91d76cb42eb0c7,,,,,,,sngl,resources/Empty.png,resources/DR.BMP,WildCard_Ex,0.411,0.029,1,0,0,0.848,optionRight,95,10065,5,11,0,11,0,1,,,,,,,,,,,,,,,,,,,,,,,,,,,,,,,,,,,,,,,
,,,,,,,63d18330964d8e7f0f14164d,2023-08-16_08h44.51.089,HF_wild_card,2022.2.4,MacIntel,63.61323155,63d18330964d8e7f0f14164d,64d2fd46c836a06233681665,64dc7e27ad91d76cb42eb0c7,,,,,,,decisionTrl,resources/DBN.BMP,resources/DB.BMP,Door1,0.361,0.026,1,0,0,1.239,optionRight,30,10095,5,12,0,12,0,1,,,,,,,,,,,,,,,,,,,,,,,,,,,,,,,,,,,,,,,
,,,,,,,63d18330964d8e7f0f14164d,2023-08-16_08h44.51.089,HF_wild_card,2022.2.4,MacIntel,63.61323155,63d18330964d8e7f0f14164d,64d2fd46c836a06233681665,64dc7e27ad91d76cb42eb0c7,,,,,,,ctch,resources/DBN.BMP,resources/DG.BMP,Door3,0.406,0.047,1,0,0,0.882,optionRight,70,10165,5,13,0,13,0,1,,,,,,,,,,,,,,,,,,,,,,,,,,,,,,,,,,,,,,,
,,,,,,,63d18330964d8e7f0f14164d,2023-08-16_08h44.51.089,HF_wild_card,2022.2.4,MacIntel,63.61323155,63d18330964d8e7f0f14164d,64d2fd46c836a06233681665,64dc7e27ad91d76cb42eb0c7,,,,,,,decisionTrl,resources/DR.BMP,resources/DB.BMP,Door1,0.374,0.021,1,0,0,1.785,optionRight,30,10195,5,14,0,14,0,1,,,,,,,,,,,,,,,,,,,,,,,,,,,,,,,,,,,,,,,
,,,,,,,63d18330964d8e7f0f14164d,2023-08-16_08h44.51.089,HF_wild_card,2022.2.4,MacIntel,63.61323155,63d18330964d8e7f0f14164d,64d2fd46c836a06233681665,64dc7e27ad91d76cb42eb0c7,,,,,,,decisionTrl,resources/DP.BMP,resources/DG.BMP,Door4,-0.139,-0.089,1,0,0,1.702,optionLeft,80,10275,5,15,0,15,0,1,,,,,,,,,,,,,,,,,,,,,,,,,,,,,,,,,,,,,,,
,,,,,,,63d18330964d8e7f0f14164d,2023-08-16_08h44.51.089,HF_wild_card,2022.2.4,MacIntel,63.61323155,63d18330964d8e7f0f14164d,64d2fd46c836a06233681665,64dc7e27ad91d76cb42eb0c7,,,,,,,decisionTrl,resources/DBN.BMP,resources/DB.BMP,Door1,0.35,0.051,1,0,0,1.448,optionRight,30,10305,5,16,0,16,0,1,,,,,,,,,,,,,,,,,,,,,,,,,,,,,,,,,,,,,,,
,,,,,,,63d18330964d8e7f0f14164d,2023-08-16_08h44.51.089,HF_wild_card,2022.2.4,MacIntel,63.61323155,63d18330964d8e7f0f14164d,64d2fd46c836a06233681665,64dc7e27ad91d76cb42eb0c7,,,,,,,decisionTrl,resources/DR.BMP,resources/DG.BMP,WildCard_Ex,-0.22,-0.114,1,0,0,1.683,optionLeft,95,10400,5,17,0,17,0,1,,,,,,,,,,,,,,,,,,,,,,,,,,,,,,,,,,,,,,,
,,,,,,,63d18330964d8e7f0f14164d,2023-08-16_08h44.51.089,HF_wild_card,2022.2.4,MacIntel,63.61323155,63d18330964d8e7f0f14164d,64d2fd46c836a06233681665,64dc7e27ad91d76cb42eb0c7,,,,,,,sngl,resources/DR.BMP,resources/Empty.png,WildCard_Ex,-0.19,-0.073,1,0,0,1.067,optionLeft,5,10405,5,18,0,18,0,1,,,,,,,,,,,,,,,,,,,,,,,,,,,,,,,,,,,,,,,
,,,,,,,63d18330964d8e7f0f14164d,2023-08-16_08h44.51.089,HF_wild_card,2022.2.4,MacIntel,63.61323155,63d18330964d8e7f0f14164d,64d2fd46c836a06233681665,64dc7e27ad91d76cb42eb0c7,,,,,,,sngl,resources/DP.BMP,resources/Empty.png,Door4,-0.18,-0.039,1,0,0,0.917,optionLeft,80,10485,5,19,0,19,0,1,,,,,,,,,,,,,,,,,,,,,,,,,,,,,,,,,,,,,,,
,,,,,,,63d18330964d8e7f0f14164d,2023-08-16_08h44.51.089,HF_wild_card,2022.2.4,MacIntel,63.61323155,63d18330964d8e7f0f14164d,64d2fd46c836a06233681665,64dc7e27ad91d76cb42eb0c7,,,,,,,ctch,resources/DG.BMP,resources/DBN.BMP,Door3,-0.249,-0.039,1,0,0,2.068,optionLeft,70,10555,5,20,0,20,0,1,,,,,,,,,,,,,,,,,,,,,,,,,,,,,,,,,,,,,,,
,,,,,,,63d18330964d8e7f0f14164d,2023-08-16_08h44.51.089,HF_wild_card,2022.2.4,MacIntel,63.61323155,63d18330964d8e7f0f14164d,64d2fd46c836a06233681665,64dc7e27ad91d76cb42eb0c7,,,,,,,decisionTrl,resources/DB.BMP,resources/DBN.BMP,Door1,-0.192,-0.036,1,0,0,1.006,optionLeft,30,10585,5,21,0,21,0,1,,,,,,,,,,,,,,,,,,,,,,,,,,,,,,,,,,,,,,,
,,,,,,,63d18330964d8e7f0f14164d,2023-08-16_08h44.51.089,HF_wild_card,2022.2.4,MacIntel,63.61323155,63d18330964d8e7f0f14164d,64d2fd46c836a06233681665,64dc7e27ad91d76cb42eb0c7,,,,,,,decisionTrl,resources/DBN.BMP,resources/DR.BMP,WildCard_Ex,0.281,0.091,1,0,0,1.368,optionRight,5,10590,5,22,0,22,0,1,,,,,,,,,,,,,,,,,,,,,,,,,,,,,,,,,,,,,,,
,,,,,,,63d18330964d8e7f0f14164d,2023-08-16_08h44.51.089,HF_wild_card,2022.2.4,MacIntel,63.61323155,63d18330964d8e7f0f14164d,64d2fd46c836a06233681665,64dc7e27ad91d76cb42eb0c7,,,,,,,ctch,resources/DB.BMP,resources/DP.BMP,Door4,0.391,0.139,1,0,0,0.948,optionRight,80,10670,5,23,0,23,0,1,,,,,,,,,,,,,,,,,,,,,,,,,,,,,,,,,,,,,,,
,,,,,,,63d18330964d8e7f0f14164d,2023-08-16_08h44.51.089,HF_wild_card,2022.2.4,MacIntel,63.61323155,63d18330964d8e7f0f14164d,64d2fd46c836a06233681665,64dc7e27ad91d76cb42eb0c7,,,,,,,sngl,resources/DR.BMP,resources/Empty.png,WildCard_Ex,-0.181,-0.051,1,0,0,0.948,optionLeft,95,10765,5,24,0,24,0,1,,,,,,,,,,,,,,,,,,,,,,,,,,,,,,,,,,,,,,,
,,,,,,,63d18330964d8e7f0f14164d,2023-08-16_08h44.51.089,HF_wild_card,2022.2.4,MacIntel,63.61323155,63d18330964d8e7f0f14164d,64d2fd46c836a06233681665,64dc7e27ad91d76cb42eb0c7,,,,,,,decisionTrl,resources/DB.BMP,resources/DBN.BMP,Door1,-0.2,-0.02,1,0,0,1.201,optionLeft,30,10795,5,25,0,25,0,1,,,,,,,,,,,,,,,,,,,,,,,,,,,,,,,,,,,,,,,
,,,,,,,63d18330964d8e7f0f14164d,2023-08-16_08h44.51.089,HF_wild_card,2022.2.4,MacIntel,63.61323155,63d18330964d8e7f0f14164d,64d2fd46c836a06233681665,64dc7e27ad91d76cb42eb0c7,,,,,,,sngl,resources/DBN.BMP,resources/Empty.png,Door2,-0.16,0.026,1,0,0,0.949,optionLeft,40,10835,5,26,0,26,0,1,,,,,,,,,,,,,,,,,,,,,,,,,,,,,,,,,,,,,,,
,,,,,,,63d18330964d8e7f0f14164d,2023-08-16_08h44.51.089,HF_wild_card,2022.2.4,MacIntel,63.61323155,63d18330964d8e7f0f14164d,64d2fd46c836a06233681665,64dc7e27ad91d76cb42eb0c7,,,,,,,sngl,resources/Empty.png,resources/DB.BMP,Door1,0.228,0.057,1,0,0,0.932,optionRight,30,10865,5,27,0,27,0,1,,,,,,,,,,,,,,,,,,,,,,,,,,,,,,,,,,,,,,,
,,,,,,,63d18330964d8e7f0f14164d,2023-08-16_08h44.51.089,HF_wild_card,2022.2.4,MacIntel,63.61323155,63d18330964d8e7f0f14164d,64d2fd46c836a06233681665,64dc7e27ad91d76cb42eb0c7,,,,,,,decisionTrl,resources/DG.BMP,resources/DP.BMP,Door4,0.283,0.062,1,0,0,0.865,optionRight,60,10925,5,28,0,28,0,1,,,,,,,,,,,,,,,,,,,,,,,,,,,,,,,,,,,,,,,
,,,,,,,63d18330964d8e7f0f14164d,2023-08-16_08h44.51.089,HF_wild_card,2022.2.4,MacIntel,63.61323155,63d18330964d8e7f0f14164d,64d2fd46c836a06233681665,64dc7e27ad91d76cb42eb0c7,,,,,,,sngl,resources/Empty.png,resources/DG.BMP,Door3,0.27,0.059,1,0,0,0.833,optionRight,70,10995,5,29,0,29,0,1,,,,,,,,,,,,,,,,,,,,,,,,,,,,,,,,,,,,,,,
,,,,,,,63d18330964d8e7f0f14164d,2023-08-16_08h44.51.089,HF_wild_card,2022.2.4,MacIntel,63.61323155,63d18330964d8e7f0f14164d,64d2fd46c836a06233681665,64dc7e27ad91d76cb42eb0c7,,,,,,,sngl,resources/Empty.png,resources/DR.BMP,WildCard_Ex,0.221,0.051,1,0,0,0.783,optionRight,5,11000,5,30,0,30,0,1,,,,,,,,,,,,,,,,,,,,,,,,,,,,,,,,,,,,,,,
,,,,,,,63d18330964d8e7f0f14164d,2023-08-16_08h44.51.089,HF_wild_card,2022.2.4,MacIntel,63.61323155,63d18330964d8e7f0f14164d,64d2fd46c836a06233681665,64dc7e27ad91d76cb42eb0c7,,,,,,,ctch,resources/DP.BMP,resources/DB.BMP,Door4,-0.15,-0.016,1,0,0,1.073,optionLeft,60,11060,5,31,0,31,0,1,,,,,,,,,,,,,,,,,,,,,,,,,,,,,,,,,,,,,,,
,,,,,,,63d18330964d8e7f0f14164d,2023-08-16_08h44.51.089,HF_wild_card,2022.2.4,MacIntel,63.61323155,63d18330964d8e7f0f14164d,64d2fd46c836a06233681665,64dc7e27ad91d76cb42eb0c7,,,,,,,decisionTrl,resources/DP.BMP,resources/DG.BMP,Door4,-0.195,-0.014,1,0,0,0.964,optionLeft,60,11120,5,32,0,32,0,1,,,,,,,,,,,,,,,,,,,,,,,,,,,,,,,,,,,,,,,
,,,,,,,63d18330964d8e7f0f14164d,2023-08-16_08h44.51.089,HF_wild_card,2022.2.4,MacIntel,63.61323155,63d18330964d8e7f0f14164d,64d2fd46c836a06233681665,64dc7e27ad91d76cb42eb0c7,,,,,,,decisionTrl,resources/DR.BMP,resources/DBN.BMP,WildCard_Ex,-0.185,-0.036,1,0,0,1.514,optionLeft,95,11215,5,33,0,33,0,1,,,,,,,,,,,,,,,,,,,,,,,,,,,,,,,,,,,,,,,
,,,,,,,63d18330964d8e7f0f14164d,2023-08-16_08h44.51.089,HF_wild_card,2022.2.4,MacIntel,63.61323155,63d18330964d8e7f0f14164d,64d2fd46c836a06233681665,64dc7e27ad91d76cb42eb0c7,,,,,,,sngl,resources/DG.BMP,resources/Empty.png,Door3,-0.161,0.002,1,0,0,0.764,optionLeft,70,11285,5,34,0,34,0,1,,,,,,,,,,,,,,,,,,,,,,,,,,,,,,,,,,,,,,,
,,,,,,,63d18330964d8e7f0f14164d,2023-08-16_08h44.51.089,HF_wild_card,2022.2.4,MacIntel,63.61323155,63d18330964d8e7f0f14164d,64d2fd46c836a06233681665,64dc7e27ad91d76cb42eb0c7,,,,,,,decisionTrl,resources/DB.BMP,resources/DBN.BMP,Door1,-0.189,0.022,1,0,0,0.881,optionLeft,30,11315,5,35,0,35,0,1,,,,,,,,,,,,,,,,,,,,,,,,,,,,,,,,,,,,,,,
,,,,,,,63d18330964d8e7f0f14164d,2023-08-16_08h44.51.089,HF_wild_card,2022.2.4,MacIntel,63.61323155,63d18330964d8e7f0f14164d,64d2fd46c836a06233681665,64dc7e27ad91d76cb42eb0c7,,,,,,,ctch,resources/DP.BMP,resources/DB.BMP,Door4,-0.231,0.007,1,0,0,0.847,optionLeft,60,11375,5,36,0,36,0,1,,,,,,,,,,,,,,,,,,,,,,,,,,,,,,,,,,,,,,,
,,,,,,,63d18330964d8e7f0f14164d,2023-08-16_08h44.51.089,HF_wild_card,2022.2.4,MacIntel,63.61323155,63d18330964d8e7f0f14164d,64d2fd46c836a06233681665,64dc7e27ad91d76cb42eb0c7,,,,,,,decisionTrl,resources/DP.BMP,resources/DG.BMP,Door4,-0.212,0.01,1,0,0,0.732,optionLeft,60,11435,5,37,0,37,0,1,,,,,,,,,,,,,,,,,,,,,,,,,,,,,,,,,,,,,,,
,,,,,,,63d18330964d8e7f0f14164d,2023-08-16_08h44.51.089,HF_wild_card,2022.2.4,MacIntel,63.61323155,63d18330964d8e7f0f14164d,64d2fd46c836a06233681665,64dc7e27ad91d76cb42eb0c7,,,,,,,sngl,resources/Empty.png,resources/DBN.BMP,Door2,0.231,0.094,1,0,0,0.848,optionRight,20,11455,5,38,0,38,0,1,,,,,,,,,,,,,,,,,,,,,,,,,,,,,,,,,,,,,,,
,,,,,,,63d18330964d8e7f0f14164d,2023-08-16_08h44.51.089,HF_wild_card,2022.2.4,MacIntel,63.61323155,63d18330964d8e7f0f14164d,64d2fd46c836a06233681665,64dc7e27ad91d76cb42eb0c7,,,,,,,ctch,resources/DG.BMP,resources/DBN.BMP,Door3,-0.144,0.005,1,0,0,1.015,optionLeft,70,11525,5,39,0,39,0,1,,,,,,,,,,,,,,,,,,,,,,,,,,,,,,,,,,,,,,,
,,,,,,,63d18330964d8e7f0f14164d,2023-08-16_08h44.51.089,HF_wild_card,2022.2.4,MacIntel,63.61323155,63d18330964d8e7f0f14164d,64d2fd46c836a06233681665,64dc7e27ad91d76cb42eb0c7,,,,,,,ctch,resources/DB.BMP,resources/DP.BMP,Door4,0.265,0.072,1,0,0,1.083,optionRight,80,11605,5,40,0,40,0,1,,,,,,,,,,,,,,,,,,,,,,,,,,,,,,,,,,,,,,,
,,,,,,,63d18330964d8e7f0f14164d,2023-08-16_08h44.51.089,HF_wild_card,2022.2.4,MacIntel,63.61323155,63d18330964d8e7f0f14164d,64d2fd46c836a06233681665,64dc7e27ad91d76cb42eb0c7,,,,,,,decisionTrl,resources/DG.BMP,resources/DP.BMP,Door4,0.318,0.116,1,0,0,0.85,optionRight,80,11685,5,41,0,41,0,1,,,,,,,,,,,,,,,,,,,,,,,,,,,,,,,,,,,,,,,
,,,,,,,63d18330964d8e7f0f14164d,2023-08-16_08h44.51.089,HF_wild_card,2022.2.4,MacIntel,63.61323155,63d18330964d8e7f0f14164d,64d2fd46c836a06233681665,64dc7e27ad91d76cb42eb0c7,,,,,,,decisionTrl,resources/DBN.BMP,resources/DB.BMP,Door1,0.269,0.006,1,0,0,0.958,optionRight,30,11715,5,42,0,42,0,1,,,,,,,,,,,,,,,,,,,,,,,,,,,,,,,,,,,,,,,
,,,,,,,63d18330964d8e7f0f14164d,2023-08-16_08h44.51.089,HF_wild_card,2022.2.4,MacIntel,63.61323155,63d18330964d8e7f0f14164d,64d2fd46c836a06233681665,64dc7e27ad91d76cb42eb0c7,,,,,,,decisionTrl,resources/DR.BMP,resources/DP.BMP,Door4,0.344,0.037,1,0,0,1.183,optionRight,60,11775,5,43,0,43,0,1,,,,,,,,,,,,,,,,,,,,,,,,,,,,,,,,,,,,,,,
,,,,,,,63d18330964d8e7f0f14164d,2023-08-16_08h44.51.089,HF_wild_card,2022.2.4,MacIntel,63.61323155,63d18330964d8e7f0f14164d,64d2fd46c836a06233681665,64dc7e27ad91d76cb42eb0c7,,,,,,,,,,,,,,,,,,,,,,,,,,4,0,4,0,1,,,,,,,,,,,,,,,,,,,,,,,,,,,,,,,,,,
,,,,,,,63d18330964d8e7f0f14164d,2023-08-16_08h44.51.089,HF_wild_card,2022.2.4,MacIntel,63.61323155,63d18330964d8e7f0f14164d,64d2fd46c836a06233681665,64dc7e27ad91d76cb42eb0c7,,,,,,,decisionTrl,resources/DR.BMP,resources/DG.BMP,WildCard_Ex,-0.212,-0.118,1,0,0,1.211,optionLeft,5,11780,6,0,0,0,0,1,,,,,,,,,,,,,,,,,,,,,,,,,,,,,,,,,,,,,,,
,,,,,,,63d18330964d8e7f0f14164d,2023-08-16_08h44.51.089,HF_wild_card,2022.2.4,MacIntel,63.61323155,63d18330964d8e7f0f14164d,64d2fd46c836a06233681665,64dc7e27ad91d76cb42eb0c7,,,,,,,ctch,resources/DB.BMP,resources/DP.BMP,Door4,0.229,-0.013,1,0,0,0.781,optionRight,60,11840,6,1,0,1,0,1,,,,,,,,,,,,,,,,,,,,,,,,,,,,,,,,,,,,,,,
,,,,,,,63d18330964d8e7f0f14164d,2023-08-16_08h44.51.089,HF_wild_card,2022.2.4,MacIntel,63.61323155,63d18330964d8e7f0f14164d,64d2fd46c836a06233681665,64dc7e27ad91d76cb42eb0c7,,,,,,,decisionTrl,resources/DB.BMP,resources/DBN.BMP,Door1,-0.43,-0.004,1,0,0,1.117,optionLeft,30,11870,6,2,0,2,0,1,,,,,,,,,,,,,,,,,,,,,,,,,,,,,,,,,,,,,,,
,,,,,,,63d18330964d8e7f0f14164d,2023-08-16_08h44.51.089,HF_wild_card,2022.2.4,MacIntel,63.61323155,63d18330964d8e7f0f14164d,64d2fd46c836a06233681665,64dc7e27ad91d76cb42eb0c7,,,,,,,decisionTrl,resources/DR.BMP,resources/DBN.BMP,WildCard_Ex,-0.315,-0.021,1,0,0,1.19,optionLeft,95,11965,6,3,0,3,0,1,,,,,,,,,,,,,,,,,,,,,,,,,,,,,,,,,,,,,,,
,,,,,,,63d18330964d8e7f0f14164d,2023-08-16_08h44.51.089,HF_wild_card,2022.2.4,MacIntel,63.61323155,63d18330964d8e7f0f14164d,64d2fd46c836a06233681665,64dc7e27ad91d76cb42eb0c7,,,,,,,decisionTrl,resources/DB.BMP,resources/DBN.BMP,Door1,-0.24,0.016,1,0,0,0.747,optionLeft,30,11995,6,4,0,4,0,1,,,,,,,,,,,,,,,,,,,,,,,,,,,,,,,,,,,,,,,
,,,,,,,63d18330964d8e7f0f14164d,2023-08-16_08h44.51.089,HF_wild_card,2022.2.4,MacIntel,63.61323155,63d18330964d8e7f0f14164d,64d2fd46c836a06233681665,64dc7e27ad91d76cb42eb0c7,,,,,,,decisionTrl,resources/DP.BMP,resources/DG.BMP,Door4,-0.192,0.005,1,0,0,0.933,optionLeft,80,12075,6,5,0,5,0,1,,,,,,,,,,,,,,,,,,,,,,,,,,,,,,,,,,,,,,,
,,,,,,,63d18330964d8e7f0f14164d,2023-08-16_08h44.51.089,HF_wild_card,2022.2.4,MacIntel,63.61323155,63d18330964d8e7f0f14164d,64d2fd46c836a06233681665,64dc7e27ad91d76cb42eb0c7,,,,,,,decisionTrl,resources/DB.BMP,resources/DR.BMP,Door1,-0.231,-0.059,1,0,0,1.366,optionLeft,30,12105,6,6,0,6,0,1,,,,,,,,,,,,,,,,,,,,,,,,,,,,,,,,,,,,,,,
,,,,,,,63d18330964d8e7f0f14164d,2023-08-16_08h44.51.089,HF_wild_card,2022.2.4,MacIntel,63.61323155,63d18330964d8e7f0f14164d,64d2fd46c836a06233681665,64dc7e27ad91d76cb42eb0c7,,,,,,,sngl,resources/Empty.png,resources/DR.BMP,WildCard_Ex,0.306,-0.038,1,0,0,0.749,optionRight,95,12200,6,7,0,7,0,1,,,,,,,,,,,,,,,,,,,,,,,,,,,,,,,,,,,,,,,
,,,,,,,63d18330964d8e7f0f14164d,2023-08-16_08h44.51.089,HF_wild_card,2022.2.4,MacIntel,63.61323155,63d18330964d8e7f0f14164d,64d2fd46c836a06233681665,64dc7e27ad91d76cb42eb0c7,,,,,,,sngl,resources/DBN.BMP,resources/Empty.png,Door2,-0.167,-0.013,1,0,0,1.031,optionLeft,20,12220,6,8,0,8,0,1,,,,,,,,,,,,,,,,,,,,,,,,,,,,,,,,,,,,,,,
,,,,,,,63d18330964d8e7f0f14164d,2023-08-16_08h44.51.089,HF_wild_card,2022.2.4,MacIntel,63.61323155,63d18330964d8e7f0f14164d,64d2fd46c836a06233681665,64dc7e27ad91d76cb42eb0c7,,,,,,,sngl,resources/Empty.png,resources/DP.BMP,Door4,0.215,-0.034,1,0,0,1.05,optionRight,80,12300,6,9,0,9,0,1,,,,,,,,,,,,,,,,,,,,,,,,,,,,,,,,,,,,,,,
,,,,,,,63d18330964d8e7f0f14164d,2023-08-16_08h44.51.089,HF_wild_card,2022.2.4,MacIntel,63.61323155,63d18330964d8e7f0f14164d,64d2fd46c836a06233681665,64dc7e27ad91d76cb42eb0c7,,,,,,,ctch,resources/DB.BMP,resources/DP.BMP,Door4,0.238,-0.016,1,0,0,0.964,optionRight,80,12380,6,10,0,10,0,1,,,,,,,,,,,,,,,,,,,,,,,,,,,,,,,,,,,,,,,
,,,,,,,63d18330964d8e7f0f14164d,2023-08-16_08h44.51.089,HF_wild_card,2022.2.4,MacIntel,63.61323155,63d18330964d8e7f0f14164d,64d2fd46c836a06233681665,64dc7e27ad91d76cb42eb0c7,,,,,,,decisionTrl,resources/DB.BMP,resources/DBN.BMP,Door1,-0.255,0.02,1,0,0,1.115,optionLeft,30,12410,6,11,0,11,0,1,,,,,,,,,,,,,,,,,,,,,,,,,,,,,,,,,,,,,,,
,,,,,,,63d18330964d8e7f0f14164d,2023-08-16_08h44.51.089,HF_wild_card,2022.2.4,MacIntel,63.61323155,63d18330964d8e7f0f14164d,64d2fd46c836a06233681665,64dc7e27ad91d76cb42eb0c7,,,,,,,ctch,resources/DBN.BMP,resources/DG.BMP,Door3,0.265,-0.028,1,0,0,1.251,optionRight,70,12480,6,12,0,12,0,1,,,,,,,,,,,,,,,,,,,,,,,,,,,,,,,,,,,,,,,
,,,,,,,63d18330964d8e7f0f14164d,2023-08-16_08h44.51.089,HF_wild_card,2022.2.4,MacIntel,63.61323155,63d18330964d8e7f0f14164d,64d2fd46c836a06233681665,64dc7e27ad91d76cb42eb0c7,,,,,,,decisionTrl,resources/DR.BMP,resources/DB.BMP,WildCard_Ex,-0.109,-0.011,1,0,0,1.399,optionLeft,5,12485,6,13,0,13,0,1,,,,,,,,,,,,,,,,,,,,,,,,,,,,,,,,,,,,,,,
,,,,,,,63d18330964d8e7f0f14164d,2023-08-16_08h44.51.089,HF_wild_card,2022.2.4,MacIntel,63.61323155,63d18330964d8e7f0f14164d,64d2fd46c836a06233681665,64dc7e27ad91d76cb42eb0c7,,,,,,,decisionTrl,resources/DP.BMP,resources/DG.BMP,Door4,-0.237,-0.034,1,0,0,1.048,optionLeft,80,12565,6,14,0,14,0,1,,,,,,,,,,,,,,,,,,,,,,,,,,,,,,,,,,,,,,,
,,,,,,,63d18330964d8e7f0f14164d,2023-08-16_08h44.51.089,HF_wild_card,2022.2.4,MacIntel,63.61323155,63d18330964d8e7f0f14164d,64d2fd46c836a06233681665,64dc7e27ad91d76cb42eb0c7,,,,,,,ctch,resources/DG.BMP,resources/DBN.BMP,Door3,-0.239,0.04,1,0,0,1.248,optionLeft,70,12635,6,15,0,15,0,1,,,,,,,,,,,,,,,,,,,,,,,,,,,,,,,,,,,,,,,
,,,,,,,63d18330964d8e7f0f14164d,2023-08-16_08h44.51.089,HF_wild_card,2022.2.4,MacIntel,63.61323155,63d18330964d8e7f0f14164d,64d2fd46c836a06233681665,64dc7e27ad91d76cb42eb0c7,,,,,,,decisionTrl,resources/DG.BMP,resources/DP.BMP,Door4,0.318,0.066,1,0,0,1.016,optionRight,80,12715,6,16,0,16,0,1,,,,,,,,,,,,,,,,,,,,,,,,,,,,,,,,,,,,,,,
,,,,,,,63d18330964d8e7f0f14164d,2023-08-16_08h44.51.089,HF_wild_card,2022.2.4,MacIntel,63.61323155,63d18330964d8e7f0f14164d,64d2fd46c836a06233681665,64dc7e27ad91d76cb42eb0c7,,,,,,,sngl,resources/Empty.png,resources/DBN.BMP,Door2,0.323,0.015,1,0,0,0.932,optionRight,40,12755,6,17,0,17,0,1,,,,,,,,,,,,,,,,,,,,,,,,,,,,,,,,,,,,,,,
,,,,,,,63d18330964d8e7f0f14164d,2023-08-16_08h44.51.089,HF_wild_card,2022.2.4,MacIntel,63.61323155,63d18330964d8e7f0f14164d,64d2fd46c836a06233681665,64dc7e27ad91d76cb42eb0c7,,,,,,,decisionTrl,resources/DBN.BMP,resources/DB.BMP,Door1,0.323,0.066,1,0,0,0.965,optionRight,30,12785,6,18,0,18,0,1,,,,,,,,,,,,,,,,,,,,,,,,,,,,,,,,,,,,,,,
,,,,,,,63d18330964d8e7f0f14164d,2023-08-16_08h44.51.089,HF_wild_card,2022.2.4,MacIntel,63.61323155,63d18330964d8e7f0f14164d,64d2fd46c836a06233681665,64dc7e27ad91d76cb42eb0c7,,,,,,,decisionTrl,resources/DG.BMP,resources/DP.BMP,Door4,0.258,-0.02,1,0,0,0.93,optionRight,80,12865,6,19,0,19,0,1,,,,,,,,,,,,,,,,,,,,,,,,,,,,,,,,,,,,,,,
,,,,,,,63d18330964d8e7f0f14164d,2023-08-16_08h44.51.089,HF_wild_card,2022.2.4,MacIntel,63.61323155,63d18330964d8e7f0f14164d,64d2fd46c836a06233681665,64dc7e27ad91d76cb42eb0c7,,,,,,,ctch,resources/DP.BMP,resources/DB.BMP,Door4,-0.157,-0.009,1,0,0,1.803,optionLeft,60,12925,6,20,0,20,0,1,,,,,,,,,,,,,,,,,,,,,,,,,,,,,,,,,,,,,,,
,,,,,,,63d18330964d8e7f0f14164d,2023-08-16_08h44.51.089,HF_wild_card,2022.2.4,MacIntel,63.61323155,63d18330964d8e7f0f14164d,64d2fd46c836a06233681665,64dc7e27ad91d76cb42eb0c7,,,,,,,decisionTrl,resources/DBN.BMP,resources/DB.BMP,Door1,0.228,0.005,1,0,0,1.133,optionRight,30,12955,6,21,0,21,0,1,,,,,,,,,,,,,,,,,,,,,,,,,,,,,,,,,,,,,,,
,,,,,,,63d18330964d8e7f0f14164d,2023-08-16_08h44.51.089,HF_wild_card,2022.2.4,MacIntel,63.61323155,63d18330964d8e7f0f14164d,64d2fd46c836a06233681665,64dc7e27ad91d76cb42eb0c7,,,,,,,sngl,resources/Empty.png,resources/DB.BMP,Door1,0.183,-0.045,1,0,0,1.807,optionRight,30,12985,6,22,0,22,0,1,,,,,,,,,,,,,,,,,,,,,,,,,,,,,,,,,,,,,,,
,,,,,,,63d18330964d8e7f0f14164d,2023-08-16_08h44.51.089,HF_wild_card,2022.2.4,MacIntel,63.61323155,63d18330964d8e7f0f14164d,64d2fd46c836a06233681665,64dc7e27ad91d76cb42eb0c7,,,,,,,decisionTrl,resources/DR.BMP,resources/DP.BMP,WildCard_Ex,-0.504,0.029,1,0,0,2.001,optionLeft,95,13080,6,23,0,23,0,1,,,,,,,,,,,,,,,,,,,,,,,,,,,,,,,,,,,,,,,
,,,,,,,63d18330964d8e7f0f14164d,2023-08-16_08h44.51.089,HF_wild_card,2022.2.4,MacIntel,63.61323155,63d18330964d8e7f0f14164d,64d2fd46c836a06233681665,64dc7e27ad91d76cb42eb0c7,,,,,,,decisionTrl,resources/DBN.BMP,resources/DR.BMP,WildCard_Ex,0.395,0.024,1,0,0,1.783,optionRight,5,13085,6,24,0,24,0,1,,,,,,,,,,,,,,,,,,,,,,,,,,,,,,,,,,,,,,,
,,,,,,,63d18330964d8e7f0f14164d,2023-08-16_08h44.51.089,HF_wild_card,2022.2.4,MacIntel,63.61323155,63d18330964d8e7f0f14164d,64d2fd46c836a06233681665,64dc7e27ad91d76cb42eb0c7,,,,,,,ctch,resources/DG.BMP,resources/DBN.BMP,Door3,-0.214,-0.015,1,0,0,0.848,optionLeft,70,13155,6,25,0,25,0,1,,,,,,,,,,,,,,,,,,,,,,,,,,,,,,,,,,,,,,,
,,,,,,,63d18330964d8e7f0f14164d,2023-08-16_08h44.51.089,HF_wild_card,2022.2.4,MacIntel,63.61323155,63d18330964d8e7f0f14164d,64d2fd46c836a06233681665,64dc7e27ad91d76cb42eb0c7,,,,,,,sngl,resources/DP.BMP,resources/Empty.png,Door4,-0.264,-0.023,1,0,0,1.147,optionLeft,60,13215,6,26,0,26,0,1,,,,,,,,,,,,,,,,,,,,,,,,,,,,,,,,,,,,,,,
,,,,,,,63d18330964d8e7f0f14164d,2023-08-16_08h44.51.089,HF_wild_card,2022.2.4,MacIntel,63.61323155,63d18330964d8e7f0f14164d,64d2fd46c836a06233681665,64dc7e27ad91d76cb42eb0c7,,,,,,,decisionTrl,resources/DG.BMP,resources/DR.BMP,WildCard_Ex,0.268,0.025,1,0,0,1.565,optionRight,95,13310,6,27,0,27,0,1,,,,,,,,,,,,,,,,,,,,,,,,,,,,,,,,,,,,,,,
,,,,,,,63d18330964d8e7f0f14164d,2023-08-16_08h44.51.089,HF_wild_card,2022.2.4,MacIntel,63.61323155,63d18330964d8e7f0f14164d,64d2fd46c836a06233681665,64dc7e27ad91d76cb42eb0c7,,,,,,,decisionTrl,resources/DBN.BMP,resources/DB.BMP,Door1,0.2,-0.015,1,0,0,1.8,optionRight,30,13340,6,28,0,28,0,1,,,,,,,,,,,,,,,,,,,,,,,,,,,,,,,,,,,,,,,
,,,,,,,63d18330964d8e7f0f14164d,2023-08-16_08h44.51.089,HF_wild_card,2022.2.4,MacIntel,63.61323155,63d18330964d8e7f0f14164d,64d2fd46c836a06233681665,64dc7e27ad91d76cb42eb0c7,,,,,,,decisionTrl,resources/DG.BMP,resources/DP.BMP,Door4,0.284,0.002,1,0,0,0.884,optionRight,60,13400,6,29,0,29,0,1,,,,,,,,,,,,,,,,,,,,,,,,,,,,,,,,,,,,,,,
,,,,,,,63d18330964d8e7f0f14164d,2023-08-16_08h44.51.089,HF_wild_card,2022.2.4,MacIntel,63.61323155,63d18330964d8e7f0f14164d,64d2fd46c836a06233681665,64dc7e27ad91d76cb42eb0c7,,,,,,,sngl,resources/Empty.png,resources/DR.BMP,WildCard_Ex,0.291,-0.006,1,0,0,0.802,optionRight,5,13405,6,30,0,30,0,1,,,,,,,,,,,,,,,,,,,,,,,,,,,,,,,,,,,,,,,
,,,,,,,63d18330964d8e7f0f14164d,2023-08-16_08h44.51.089,HF_wild_card,2022.2.4,MacIntel,63.61323155,63d18330964d8e7f0f14164d,64d2fd46c836a06233681665,64dc7e27ad91d76cb42eb0c7,,,,,,,sngl,resources/DR.BMP,resources/Empty.png,WildCard_Ex,-0.115,-0.021,1,0,0,0.964,optionLeft,95,13500,6,31,0,31,0,1,,,,,,,,,,,,,,,,,,,,,,,,,,,,,,,,,,,,,,,
,,,,,,,63d18330964d8e7f0f14164d,2023-08-16_08h44.51.089,HF_wild_card,2022.2.4,MacIntel,63.61323155,63d18330964d8e7f0f14164d,64d2fd46c836a06233681665,64dc7e27ad91d76cb42eb0c7,,,,,,,decisionTrl,resources/DBN.BMP,resources/DB.BMP,Door1,0.33,0.004,1,0,0,0.899,optionRight,30,13530,6,32,0,32,0,1,,,,,,,,,,,,,,,,,,,,,,,,,,,,,,,,,,,,,,,
,,,,,,,63d18330964d8e7f0f14164d,2023-08-16_08h44.51.089,HF_wild_card,2022.2.4,MacIntel,63.61323155,63d18330964d8e7f0f14164d,64d2fd46c836a06233681665,64dc7e27ad91d76cb42eb0c7,,,,,,,sngl,resources/DR.BMP,resources/Empty.png,WildCard_Ex,-0.127,-0.05,1,0,0,0.949,optionLeft,5,13535,6,33,0,33,0,1,,,,,,,,,,,,,,,,,,,,,,,,,,,,,,,,,,,,,,,
,,,,,,,63d18330964d8e7f0f14164d,2023-08-16_08h44.51.089,HF_wild_card,2022.2.4,MacIntel,63.61323155,63d18330964d8e7f0f14164d,64d2fd46c836a06233681665,64dc7e27ad91d76cb42eb0c7,,,,,,,sngl,resources/DB.BMP,resources/Empty.png,Door1,-0.125,-0.02,1,0,0,1,optionLeft,30,13565,6,34,0,34,0,1,,,,,,,,,,,,,,,,,,,,,,,,,,,,,,,,,,,,,,,
,,,,,,,63d18330964d8e7f0f14164d,2023-08-16_08h44.51.089,HF_wild_card,2022.2.4,MacIntel,63.61323155,63d18330964d8e7f0f14164d,64d2fd46c836a06233681665,64dc7e27ad91d76cb42eb0c7,,,,,,,decisionTrl,resources/DG.BMP,resources/DP.BMP,Door4,0.364,-0.074,1,0,0,0.883,optionRight,80,13645,6,35,0,35,0,1,,,,,,,,,,,,,,,,,,,,,,,,,,,,,,,,,,,,,,,
,,,,,,,63d18330964d8e7f0f14164d,2023-08-16_08h44.51.089,HF_wild_card,2022.2.4,MacIntel,63.61323155,63d18330964d8e7f0f14164d,64d2fd46c836a06233681665,64dc7e27ad91d76cb42eb0c7,,,,,,,ctch,resources/DBN.BMP,resources/DG.BMP,Door3,0.224,-0.019,1,0,0,1.084,optionRight,70,13715,6,36,0,36,0,1,,,,,,,,,,,,,,,,,,,,,,,,,,,,,,,,,,,,,,,
,,,,,,,63d18330964d8e7f0f14164d,2023-08-16_08h44.51.089,HF_wild_card,2022.2.4,MacIntel,63.61323155,63d18330964d8e7f0f14164d,64d2fd46c836a06233681665,64dc7e27ad91d76cb42eb0c7,,,,,,,decisionTrl,resources/DP.BMP,resources/DG.BMP,Door4,-0.23,-0.069,1,0,0,1.016,optionLeft,60,13775,6,37,0,37,0,1,,,,,,,,,,,,,,,,,,,,,,,,,,,,,,,,,,,,,,,
,,,,,,,63d18330964d8e7f0f14164d,2023-08-16_08h44.51.089,HF_wild_card,2022.2.4,MacIntel,63.61323155,63d18330964d8e7f0f14164d,64d2fd46c836a06233681665,64dc7e27ad91d76cb42eb0c7,,,,,,,decisionTrl,resources/DB.BMP,resources/DBN.BMP,Door1,-0.18,0.041,1,0,0,1.049,optionLeft,30,13805,6,38,0,38,0,1,,,,,,,,,,,,,,,,,,,,,,,,,,,,,,,,,,,,,,,
,,,,,,,63d18330964d8e7f0f14164d,2023-08-16_08h44.51.089,HF_wild_card,2022.2.4,MacIntel,63.61323155,63d18330964d8e7f0f14164d,64d2fd46c836a06233681665,64dc7e27ad91d76cb42eb0c7,,,,,,,sngl,resources/Empty.png,resources/DG.BMP,Door3,0.243,-0.061,1,0,0,1.283,optionRight,70,13875,6,39,0,39,0,1,,,,,,,,,,,,,,,,,,,,,,,,,,,,,,,,,,,,,,,
,,,,,,,63d18330964d8e7f0f14164d,2023-08-16_08h44.51.089,HF_wild_card,2022.2.4,MacIntel,63.61323155,63d18330964d8e7f0f14164d,64d2fd46c836a06233681665,64dc7e27ad91d76cb42eb0c7,,,,,,,decisionTrl,resources/DP.BMP,resources/DG.BMP,Door4,-0.17,0.036,1,0,0,0.922,optionLeft,80,13955,6,40,0,40,0,1,,,,,,,,,,,,,,,,,,,,,,,,,,,,,,,,,,,,,,,
,,,,,,,63d18330964d8e7f0f14164d,2023-08-16_08h44.51.089,HF_wild_card,2022.2.4,MacIntel,63.61323155,63d18330964d8e7f0f14164d,64d2fd46c836a06233681665,64dc7e27ad91d76cb42eb0c7,,,,,,,ctch,resources/DP.BMP,resources/DB.BMP,Door4,-0.237,-0.029,1,0,0,0.833,optionLeft,60,14015,6,41,0,41,0,1,,,,,,,,,,,,,,,,,,,,,,,,,,,,,,,,,,,,,,,
,,,,,,,63d18330964d8e7f0f14164d,2023-08-16_08h44.51.089,HF_wild_card,2022.2.4,MacIntel,63.61323155,63d18330964d8e7f0f14164d,64d2fd46c836a06233681665,64dc7e27ad91d76cb42eb0c7,,,,,,,sngl,resources/DG.BMP,resources/Empty.png,Door3,-0.241,0.025,1,0,0,0.796,optionLeft,70,14085,6,42,0,42,0,1,,,,,,,,,,,,,,,,,,,,,,,,,,,,,,,,,,,,,,,
,,,,,,,63d18330964d8e7f0f14164d,2023-08-16_08h44.51.089,HF_wild_card,2022.2.4,MacIntel,63.61323155,63d18330964d8e7f0f14164d,64d2fd46c836a06233681665,64dc7e27ad91d76cb42eb0c7,,,,,,,decisionTrl,resources/DP.BMP,resources/DR.BMP,Door4,-0.269,0.034,1,0,0,0.815,optionLeft,80,14165,6,43,0,43,0,1,,,,,,,,,,,,,,,,,,,,,,,,,,,,,,,,,,,,,,,
,,,,,,,63d18330964d8e7f0f14164d,2023-08-16_08h44.51.089,HF_wild_card,2022.2.4,MacIntel,63.61323155,63d18330964d8e7f0f14164d,64d2fd46c836a06233681665,64dc7e27ad91d76cb42eb0c7,,,,,,,,,,,,,,,,,,,,,,,,,,5,0,5,0,1,,,,,,,,,,,,,,,,,,,,,,,,,,,,,,,,,,
,,,,,,,63d18330964d8e7f0f14164d,2023-08-16_08h44.51.089,HF_wild_card,2022.2.4,MacIntel,63.61323155,63d18330964d8e7f0f14164d,64d2fd46c836a06233681665,64dc7e27ad91d76cb42eb0c7,,,,,,,decisionTrl,resources/DB.BMP,resources/DBN.BMP,Door1,-0.222,-0.161,1,0,0,1.761,optionLeft,30,14195,7,0,0,0,0,1,,,,,,,,,,,,,,,,,,,,,,,,,,,,,,,,,,,,,,,
,,,,,,,63d18330964d8e7f0f14164d,2023-08-16_08h44.51.089,HF_wild_card,2022.2.4,MacIntel,63.61323155,63d18330964d8e7f0f14164d,64d2fd46c836a06233681665,64dc7e27ad91d76cb42eb0c7,,,,,,,decisionTrl,resources/DG.BMP,resources/DP.BMP,Door4,0.236,-0.035,1,0,0,0.917,optionRight,60,14255,7,1,0,1,0,1,,,,,,,,,,,,,,,,,,,,,,,,,,,,,,,,,,,,,,,
,,,,,,,63d18330964d8e7f0f14164d,2023-08-16_08h44.51.089,HF_wild_card,2022.2.4,MacIntel,63.61323155,63d18330964d8e7f0f14164d,64d2fd46c836a06233681665,64dc7e27ad91d76cb42eb0c7,,,,,,,decisionTrl,resources/DP.BMP,resources/DG.BMP,Door4,-0.266,0.012,1,0,0,0.933,optionLeft,80,14335,7,2,0,2,0,1,,,,,,,,,,,,,,,,,,,,,,,,,,,,,,,,,,,,,,,
,,,,,,,63d18330964d8e7f0f14164d,2023-08-16_08h44.51.089,HF_wild_card,2022.2.4,MacIntel,63.61323155,63d18330964d8e7f0f14164d,64d2fd46c836a06233681665,64dc7e27ad91d76cb42eb0c7,,,,,,,decisionTrl,resources/DBN.BMP,resources/DB.BMP,Door1,0.341,0.062,1,0,0,0.983,optionRight,30,14365,7,3,0,3,0,1,,,,,,,,,,,,,,,,,,,,,,,,,,,,,,,,,,,,,,,
,,,,,,,63d18330964d8e7f0f14164d,2023-08-16_08h44.51.089,HF_wild_card,2022.2.4,MacIntel,63.61323155,63d18330964d8e7f0f14164d,64d2fd46c836a06233681665,64dc7e27ad91d76cb42eb0c7,,,,,,,decisionTrl,resources/DB.BMP,resources/DBN.BMP,Door1,-0.342,0.034,1,0,0,0.884,optionLeft,30,14395,7,4,0,4,0,1,,,,,,,,,,,,,,,,,,,,,,,,,,,,,,,,,,,,,,,
,,,,,,,63d18330964d8e7f0f14164d,2023-08-16_08h44.51.089,HF_wild_card,2022.2.4,MacIntel,63.61323155,63d18330964d8e7f0f14164d,64d2fd46c836a06233681665,64dc7e27ad91d76cb42eb0c7,,,,,,,decisionTrl,resources/DP.BMP,resources/DG.BMP,Door4,-0.25,0.046,1,0,0,0.967,optionLeft,80,14475,7,5,0,5,0,1,,,,,,,,,,,,,,,,,,,,,,,,,,,,,,,,,,,,,,,
,,,,,,,63d18330964d8e7f0f14164d,2023-08-16_08h44.51.089,HF_wild_card,2022.2.4,MacIntel,63.61323155,63d18330964d8e7f0f14164d,64d2fd46c836a06233681665,64dc7e27ad91d76cb42eb0c7,,,,,,,ctch,resources/DB.BMP,resources/DP.BMP,Door4,0.24,-0.026,1,0,0,0.986,optionRight,60,14535,7,6,0,6,0,1,,,,,,,,,,,,,,,,,,,,,,,,,,,,,,,,,,,,,,,
,,,,,,,63d18330964d8e7f0f14164d,2023-08-16_08h44.51.089,HF_wild_card,2022.2.4,MacIntel,63.61323155,63d18330964d8e7f0f14164d,64d2fd46c836a06233681665,64dc7e27ad91d76cb42eb0c7,,,,,,,ctch,resources/DG.BMP,resources/DBN.BMP,Door3,-0.299,0.026,1,0,0,1.209,optionLeft,70,14605,7,7,0,7,0,1,,,,,,,,,,,,,,,,,,,,,,,,,,,,,,,,,,,,,,,
,,,,,,,63d18330964d8e7f0f14164d,2023-08-16_08h44.51.089,HF_wild_card,2022.2.4,MacIntel,63.61323155,63d18330964d8e7f0f14164d,64d2fd46c836a06233681665,64dc7e27ad91d76cb42eb0c7,,,,,,,decisionTrl,resources/DBN.BMP,resources/DB.BMP,Door1,0.359,-0.014,1,0,0,1.162,optionRight,30,14635,7,8,0,8,0,1,,,,,,,,,,,,,,,,,,,,,,,,,,,,,,,,,,,,,,,
,,,,,,,63d18330964d8e7f0f14164d,2023-08-16_08h44.51.089,HF_wild_card,2022.2.4,MacIntel,63.61323155,63d18330964d8e7f0f14164d,64d2fd46c836a06233681665,64dc7e27ad91d76cb42eb0c7,,,,,,,decisionTrl,resources/DB.BMP,resources/DBN.BMP,Door1,-0.24,-0.004,1,0,0,0.933,optionLeft,30,14665,7,9,0,9,0,1,,,,,,,,,,,,,,,,,,,,,,,,,,,,,,,,,,,,,,,
,,,,,,,63d18330964d8e7f0f14164d,2023-08-16_08h44.51.089,HF_wild_card,2022.2.4,MacIntel,63.61323155,63d18330964d8e7f0f14164d,64d2fd46c836a06233681665,64dc7e27ad91d76cb42eb0c7,,,,,,,ctch,resources/DBN.BMP,resources/DG.BMP,Door3,0.193,-0.074,1,0,0,1.346,optionRight,70,14735,7,10,0,10,0,1,,,,,,,,,,,,,,,,,,,,,,,,,,,,,,,,,,,,,,,
,,,,,,,63d18330964d8e7f0f14164d,2023-08-16_08h44.51.089,HF_wild_card,2022.2.4,MacIntel,63.61323155,63d18330964d8e7f0f14164d,64d2fd46c836a06233681665,64dc7e27ad91d76cb42eb0c7,,,,,,,decisionTrl,resources/DB.BMP,resources/DBN.BMP,Door1,-0.19,-0.003,1,0,0,1.017,optionLeft,30,14765,7,11,0,11,0,1,,,,,,,,,,,,,,,,,,,,,,,,,,,,,,,,,,,,,,,
,,,,,,,63d18330964d8e7f0f14164d,2023-08-16_08h44.51.089,HF_wild_card,2022.2.4,MacIntel,63.61323155,63d18330964d8e7f0f14164d,64d2fd46c836a06233681665,64dc7e27ad91d76cb42eb0c7,,,,,,,decisionTrl,resources/DG.BMP,resources/DP.BMP,Door4,0.275,-0.049,1,0,0,0.867,optionRight,60,14825,7,12,0,12,0,1,,,,,,,,,,,,,,,,,,,,,,,,,,,,,,,,,,,,,,,
,,,,,,,63d18330964d8e7f0f14164d,2023-08-16_08h44.51.089,HF_wild_card,2022.2.4,MacIntel,63.61323155,63d18330964d8e7f0f14164d,64d2fd46c836a06233681665,64dc7e27ad91d76cb42eb0c7,,,,,,,ctch,resources/DBN.BMP,resources/DG.BMP,Door3,0.23,0.019,1,0,0,1.319,optionRight,70,14895,7,13,0,13,0,1,,,,,,,,,,,,,,,,,,,,,,,,,,,,,,,,,,,,,,,
,,,,,,,63d18330964d8e7f0f14164d,2023-08-16_08h44.51.089,HF_wild_card,2022.2.4,MacIntel,63.61323155,63d18330964d8e7f0f14164d,64d2fd46c836a06233681665,64dc7e27ad91d76cb42eb0c7,,,,,,,decisionTrl,resources/DG.BMP,resources/DP.BMP,Door4,0.325,0.014,1,0,0,1.151,optionRight,80,14975,7,14,0,14,0,1,,,,,,,,,,,,,,,,,,,,,,,,,,,,,,,,,,,,,,,
,,,,,,,63d18330964d8e7f0f14164d,2023-08-16_08h44.51.089,HF_wild_card,2022.2.4,MacIntel,63.61323155,63d18330964d8e7f0f14164d,64d2fd46c836a06233681665,64dc7e27ad91d76cb42eb0c7,,,,,,,ctch,resources/DBN.BMP,resources/DG.BMP,Door3,0.211,-0.014,1,0,0,1.134,optionRight,70,15045,7,15,0,15,0,1,,,,,,,,,,,,,,,,,,,,,,,,,,,,,,,,,,,,,,,
,,,,,,,63d18330964d8e7f0f14164d,2023-08-16_08h44.51.089,HF_wild_card,2022.2.4,MacIntel,63.61323155,63d18330964d8e7f0f14164d,64d2fd46c836a06233681665,64dc7e27ad91d76cb42eb0c7,,,,,,,ctch,resources/DP.BMP,resources/DB.BMP,Door4,-0.177,-0.005,1,0,0,1.501,optionLeft,80,15125,7,16,0,16,0,1,,,,,,,,,,,,,,,,,,,,,,,,,,,,,,,,,,,,,,,
,,,,,,,63d18330964d8e7f0f14164d,2023-08-16_08h44.51.089,HF_wild_card,2022.2.4,MacIntel,63.61323155,63d18330964d8e7f0f14164d,64d2fd46c836a06233681665,64dc7e27ad91d76cb42eb0c7,,,,,,,ctch,resources/DB.BMP,resources/DP.BMP,Door4,0.425,0.007,1,0,0,0.985,optionRight,80,15205,7,17,0,17,0,1,,,,,,,,,,,,,,,,,,,,,,,,,,,,,,,,,,,,,,,
,,,,,,,63d18330964d8e7f0f14164d,2023-08-16_08h44.51.089,HF_wild_card,2022.2.4,MacIntel,63.61323155,63d18330964d8e7f0f14164d,64d2fd46c836a06233681665,64dc7e27ad91d76cb42eb0c7,,,,,,,decisionTrl,resources/DG.BMP,resources/DP.BMP,Door4,0.259,-0.01,1,0,0,1.102,optionRight,80,15285,7,18,0,18,0,1,,,,,,,,,,,,,,,,,,,,,,,,,,,,,,,,,,,,,,,
,,,,,,,63d18330964d8e7f0f14164d,2023-08-16_08h44.51.089,HF_wild_card,2022.2.4,MacIntel,63.61323155,63d18330964d8e7f0f14164d,64d2fd46c836a06233681665,64dc7e27ad91d76cb42eb0c7,,,,,,,decisionTrl,resources/DB.BMP,resources/DBN.BMP,Door1,-0.164,-0.011,1,0,0,1.349,optionLeft,30,15315,7,19,0,19,0,1,,,,,,,,,,,,,,,,,,,,,,,,,,,,,,,,,,,,,,,
,,,,,,,63d18330964d8e7f0f14164d,2023-08-16_08h44.51.089,HF_wild_card,2022.2.4,MacIntel,63.61323155,63d18330964d8e7f0f14164d,64d2fd46c836a06233681665,64dc7e27ad91d76cb42eb0c7,,,,,,,decisionTrl,resources/DP.BMP,resources/DG.BMP,Door4,-0.166,0.021,1,0,0,1.577,optionLeft,80,15395,7,20,0,20,0,1,,,,,,,,,,,,,,,,,,,,,,,,,,,,,,,,,,,,,,,
,,,,,,,63d18330964d8e7f0f14164d,2023-08-16_08h44.51.089,HF_wild_card,2022.2.4,MacIntel,63.61323155,63d18330964d8e7f0f14164d,64d2fd46c836a06233681665,64dc7e27ad91d76cb42eb0c7,,,,,,,decisionTrl,resources/DG.BMP,resources/DP.BMP,Door4,0.215,-0.005,1,0,0,1.92,optionRight,60,15455,7,21,0,21,0,1,,,,,,,,,,,,,,,,,,,,,,,,,,,,,,,,,,,,,,,
,,,,,,,63d18330964d8e7f0f14164d,2023-08-16_08h44.51.089,HF_wild_card,2022.2.4,MacIntel,63.61323155,63d18330964d8e7f0f14164d,64d2fd46c836a06233681665,64dc7e27ad91d76cb42eb0c7,,,,,,,decisionTrl,resources/DBN.BMP,resources/DB.BMP,Door1,0.339,-0.005,1,0,0,0.9,optionRight,30,15485,7,22,0,22,0,1,,,,,,,,,,,,,,,,,,,,,,,,,,,,,,,,,,,,,,,
,,,,,,,63d18330964d8e7f0f14164d,2023-08-16_08h44.51.089,HF_wild_card,2022.2.4,MacIntel,63.61323155,63d18330964d8e7f0f14164d,64d2fd46c836a06233681665,64dc7e27ad91d76cb42eb0c7,,,,,,,ctch,resources/DP.BMP,resources/DB.BMP,Door4,-0.272,-0.073,1,0,0,1.252,optionLeft,60,15545,7,23,0,23,0,1,,,,,,,,,,,,,,,,,,,,,,,,,,,,,,,,,,,,,,,
,,,,,,,63d18330964d8e7f0f14164d,2023-08-16_08h44.51.089,HF_wild_card,2022.2.4,MacIntel,63.61323155,63d18330964d8e7f0f14164d,64d2fd46c836a06233681665,64dc7e27ad91d76cb42eb0c7,,,,,,,decisionTrl,resources/DG.BMP,resources/DP.BMP,Door4,0.331,-0.01,1,0,0,0.851,optionRight,80,15625,7,24,0,24,0,1,,,,,,,,,,,,,,,,,,,,,,,,,,,,,,,,,,,,,,,
,,,,,,,63d18330964d8e7f0f14164d,2023-08-16_08h44.51.089,HF_wild_card,2022.2.4,MacIntel,63.61323155,63d18330964d8e7f0f14164d,64d2fd46c836a06233681665,64dc7e27ad91d76cb42eb0c7,,,,,,,decisionTrl,resources/DP.BMP,resources/DG.BMP,Door4,-0.281,0.047,1,0,0,1.202,optionLeft,60,15685,7,25,0,25,0,1,,,,,,,,,,,,,,,,,,,,,,,,,,,,,,,,,,,,,,,
,,,,,,,63d18330964d8e7f0f14164d,2023-08-16_08h44.51.089,HF_wild_card,2022.2.4,MacIntel,63.61323155,63d18330964d8e7f0f14164d,64d2fd46c836a06233681665,64dc7e27ad91d76cb42eb0c7,,,,,,,ctch,resources/DP.BMP,resources/DB.BMP,Door4,-0.19,0.015,1,0,0,0.967,optionLeft,80,15765,7,26,0,26,0,1,,,,,,,,,,,,,,,,,,,,,,,,,,,,,,,,,,,,,,,
,,,,,,,63d18330964d8e7f0f14164d,2023-08-16_08h44.51.089,HF_wild_card,2022.2.4,MacIntel,63.61323155,63d18330964d8e7f0f14164d,64d2fd46c836a06233681665,64dc7e27ad91d76cb42eb0c7,,,,,,,decisionTrl,resources/DBN.BMP,resources/DB.BMP,Door1,0.251,-0.021,1,0,0,1.203,optionRight,30,15795,7,27,0,27,0,1,,,,,,,,,,,,,,,,,,,,,,,,,,,,,,,,,,,,,,,
,,,,,,,63d18330964d8e7f0f14164d,2023-08-16_08h44.51.089,HF_wild_card,2022.2.4,MacIntel,63.61323155,63d18330964d8e7f0f14164d,64d2fd46c836a06233681665,64dc7e27ad91d76cb42eb0c7,,,,,,,ctch,resources/DG.BMP,resources/DBN.BMP,Door3,-0.251,0.034,1,0,0,1.32,optionLeft,70,15865,7,28,0,28,0,1,,,,,,,,,,,,,,,,,,,,,,,,,,,,,,,,,,,,,,,
