Condition,Low fixed image (Door1),Low risky image (Door2),High fixed image (Door3),High risky image (Door4),Extreme Wild Card,NonExtreme Wild Card,,date,expName,psychopyVersion,OS,frameRate,PROLIFIC_PID,STUDY_ID,SESSION_ID,mouse_2.x,mouse_2.y,mouse_2.leftButton,mouse_2.midButton,mouse_2.rightButton,mouse_2.clicked_name,Trial Type,Left Option Image,Right Option Image,Chosen Door,mouse.x,mouse.y,mouse.leftButton,mouse.midButton,mouse.rightButton,mouse.time,mouse.clicked_name,Feedback,Cumulative Reward,Block,trial.thisRepN,trial.thisTrialN,trial.thisN,trial.thisIndex,trial.ran,blocks.thisRepN,blocks.thisTrialN,blocks.thisN,blocks.thisIndex,blocks.ran,Money conversion,First Outcome Reported,Shown Door (First Outcome),Displayed Image (First Outcome),outcomes.thisRepN,outcomes.thisTrialN,outcomes.thisN,outcomes.thisIndex,outcomes.ran,judgments.thisRepN,judgments.thisTrialN,judgments.thisN,judgments.thisIndex,judgments.ran,freqMouse.x,freqMouse.y,freqMouse.leftButton,freqMouse.midButton,freqMouse.rightButton,freqMouse.clicked_name,FQJ for first outcome,FQJ for second outcome,Shown Door,Displayed Image,trials.thisRepN,trials.thisTrialN,trials.thisN,trials.thisIndex,trials.ran,judgBlock.thisRepN,judgBlock.thisTrialN,judgBlock.thisN,judgBlock.thisIndex,judgBlock.ran
1,resources/DY.BMP,resources/DG.BMP,resources/DB.BMP,resources/DBN.BMP,resources/DR.BMP,resources/DP.BMP,,2023-08-16_08h43.38.812,HF_wild_card,2022.2.4,Win32,59.98440405,5d8b35eebb2405000106ff4a,64d2fd46c836a06233681665,64dc7d26e573ae18ef7326cb,,,,,,,,,,,,,,,,,,,,,,,,,,,,,,,,,,,,,,,,,,,,,,,,,,,,,,,,,,,,,,,,
,,,,,,,,2023-08-16_08h43.38.812,HF_wild_card,2022.2.4,Win32,59.98440405,5d8b35eebb2405000106ff4a,64d2fd46c836a06233681665,64dc7d26e573ae18ef7326cb,0.00715271,-0.416666641,1,0,0,agree,,,,,,,,,,,,,,,,,,,,,,,,,,,,,,,,,,,,,,,,,,,,,,,,,,,,,,,,,,
,,,,,,,,2023-08-16_08h43.38.812,HF_wild_card,2022.2.4,Win32,59.98440405,5d8b35eebb2405000106ff4a,64d2fd46c836a06233681665,64dc7d26e573ae18ef7326cb,,,,,,,,,,,,,,,,,,,,,,,,,,,,,,,,,,,,,,,,,,,,,,,,,,,,,,,,,,,,,,,,
,,,,,,,,2023-08-16_08h43.38.812,HF_wild_card,2022.2.4,Win32,59.98440405,5d8b35eebb2405000106ff4a,64d2fd46c836a06233681665,64dc7d26e573ae18ef7326cb,,,,,,,decisionTrl,resources/DY.BMP,resources/DP.BMP,WildCard_NonEx,0.339097137,-0.115972176,1,0,0,3.1449,optionRight,45,45,1,0,0,0,0,1,,,,,,,,,,,,,,,,,,,,,,,,,,,,,,,,,,,,,,,
,,,,,,,,2023-08-16_08h43.38.812,HF_wild_card,2022.2.4,Win32,59.98440405,5d8b35eebb2405000106ff4a,64d2fd46c836a06233681665,64dc7d26e573ae18ef7326cb,,,,,,,sngl,resources/Empty.png,resources/DBN.BMP,Door4,0.243958282,-0.058333244,1,0,0,2.3913,optionRight,60,105,1,1,0,1,0,1,,,,,,,,,,,,,,,,,,,,,,,,,,,,,,,,,,,,,,,
,,,,,,,,2023-08-16_08h43.38.812,HF_wild_card,2022.2.4,Win32,59.98440405,5d8b35eebb2405000106ff4a,64d2fd46c836a06233681665,64dc7d26e573ae18ef7326cb,,,,,,,decisionTrl,resources/DB.BMP,resources/DP.BMP,Door3,-0.240763931,-0.120833244,1,0,0,2.7384,optionLeft,70,175,1,2,0,2,0,1,,,,,,,,,,,,,,,,,,,,,,,,,,,,,,,,,,,,,,,
,,,,,,,,2023-08-16_08h43.38.812,HF_wild_card,2022.2.4,Win32,59.98440405,5d8b35eebb2405000106ff4a,64d2fd46c836a06233681665,64dc7d26e573ae18ef7326cb,,,,,,,decisionTrl,resources/DY.BMP,resources/DG.BMP,Door1,-0.200486145,-0.075,1,0,0,3.1603,optionLeft,30,205,1,3,0,3,0,1,,,,,,,,,,,,,,,,,,,,,,,,,,,,,,,,,,,,,,,
,,,,,,,,2023-08-16_08h43.38.812,HF_wild_card,2022.2.4,Win32,59.98440405,5d8b35eebb2405000106ff4a,64d2fd46c836a06233681665,64dc7d26e573ae18ef7326cb,,,,,,,ctch,resources/DG.BMP,resources/DB.BMP,Door3,0.257847137,-0.0375,1,0,0,2.162,optionRight,70,275,1,4,0,4,0,1,,,,,,,,,,,,,,,,,,,,,,,,,,,,,,,,,,,,,,,
,,,,,,,,2023-08-16_08h43.38.812,HF_wild_card,2022.2.4,Win32,59.98440405,5d8b35eebb2405000106ff4a,64d2fd46c836a06233681665,64dc7d26e573ae18ef7326cb,,,,,,,decisionTrl,resources/DP.BMP,resources/DBN.BMP,WildCard_NonEx,-0.188680573,-0.058333244,1,0,0,2.8391,optionLeft,45,320,1,5,0,5,0,1,,,,,,,,,,,,,,,,,,,,,,,,,,,,,,,,,,,,,,,
,,,,,,,,2023-08-16_08h43.38.812,HF_wild_card,2022.2.4,Win32,59.98440405,5d8b35eebb2405000106ff4a,64d2fd46c836a06233681665,64dc7d26e573ae18ef7326cb,,,,,,,decisionTrl,resources/DG.BMP,resources/DY.BMP,Door1,0.230763626,-0.0375,1,0,0,1.693,optionRight,30,350,1,6,0,6,0,1,,,,,,,,,,,,,,,,,,,,,,,,,,,,,,,,,,,,,,,
,,,,,,,,2023-08-16_08h43.38.812,HF_wild_card,2022.2.4,Win32,59.98440405,5d8b35eebb2405000106ff4a,64d2fd46c836a06233681665,64dc7d26e573ae18ef7326cb,,,,,,,sngl,resources/DB.BMP,resources/Empty.png,Door3,-0.178263931,-0.047222176,1,0,0,1.8626,optionLeft,70,420,1,7,0,7,0,1,,,,,,,,,,,,,,,,,,,,,,,,,,,,,,,,,,,,,,,
,,,,,,,,2023-08-16_08h43.38.812,HF_wild_card,2022.2.4,Win32,59.98440405,5d8b35eebb2405000106ff4a,64d2fd46c836a06233681665,64dc7d26e573ae18ef7326cb,,,,,,,decisionTrl,resources/DY.BMP,resources/DG.BMP,Door1,-0.172013931,-0.049305534,1,0,0,1.632,optionLeft,30,450,1,8,0,8,0,1,,,,,,,,,,,,,,,,,,,,,,,,,,,,,,,,,,,,,,,
,,,,,,,,2023-08-16_08h43.38.812,HF_wild_card,2022.2.4,Win32,59.98440405,5d8b35eebb2405000106ff4a,64d2fd46c836a06233681665,64dc7d26e573ae18ef7326cb,,,,,,,decisionTrl,resources/DB.BMP,resources/DBN.BMP,Door3,-0.14909729,-0.041666641,1,0,0,3.2301,optionLeft,70,520,1,9,0,9,0,1,,,,,,,,,,,,,,,,,,,,,,,,,,,,,,,,,,,,,,,
,,,,,,,,2023-08-16_08h43.38.812,HF_wild_card,2022.2.4,Win32,59.98440405,5d8b35eebb2405000106ff4a,64d2fd46c836a06233681665,64dc7d26e573ae18ef7326cb,,,,,,,sngl,resources/DP.BMP,resources/Empty.png,WildCard_NonEx,-0.166458359,-0.044444313,1,0,0,1.5718,optionLeft,55,575,1,10,0,10,0,1,,,,,,,,,,,,,,,,,,,,,,,,,,,,,,,,,,,,,,,
,,,,,,,,2023-08-16_08h43.38.812,HF_wild_card,2022.2.4,Win32,59.98440405,5d8b35eebb2405000106ff4a,64d2fd46c836a06233681665,64dc7d26e573ae18ef7326cb,,,,,,,decisionTrl,resources/DB.BMP,resources/DBN.BMP,Door3,-0.179652863,-0.042361069,1,0,0,2.7227,optionLeft,70,645,1,11,0,11,0,1,,,,,,,,,,,,,,,,,,,,,,,,,,,,,,,,,,,,,,,
,,,,,,,,2023-08-16_08h43.38.812,HF_wild_card,2022.2.4,Win32,59.98440405,5d8b35eebb2405000106ff4a,64d2fd46c836a06233681665,64dc7d26e573ae18ef7326cb,,,,,,,decisionTrl,resources/DY.BMP,resources/DG.BMP,Door2,0.250208282,-0.036111069,1,0,0,1.7782,optionRight,20,665,1,12,0,12,0,1,,,,,,,,,,,,,,,,,,,,,,,,,,,,,,,,,,,,,,,
,,,,,,,,2023-08-16_08h43.38.812,HF_wild_card,2022.2.4,Win32,59.98440405,5d8b35eebb2405000106ff4a,64d2fd46c836a06233681665,64dc7d26e573ae18ef7326cb,,,,,,,decisionTrl,resources/DG.BMP,resources/DY.BMP,Door1,0.166180496,-0.038888855,1,0,0,2.0977,optionRight,30,695,1,13,0,13,0,1,,,,,,,,,,,,,,,,,,,,,,,,,,,,,,,,,,,,,,,
,,,,,,,,2023-08-16_08h43.38.812,HF_wild_card,2022.2.4,Win32,59.98440405,5d8b35eebb2405000106ff4a,64d2fd46c836a06233681665,64dc7d26e573ae18ef7326cb,,,,,,,decisionTrl,resources/DG.BMP,resources/DY.BMP,Door1,0.186319351,-0.046527748,1,0,0,1.8959,optionRight,30,725,1,14,0,14,0,1,,,,,,,,,,,,,,,,,,,,,,,,,,,,,,,,,,,,,,,
,,,,,,,,2023-08-16_08h43.38.812,HF_wild_card,2022.2.4,Win32,59.98440405,5d8b35eebb2405000106ff4a,64d2fd46c836a06233681665,64dc7d26e573ae18ef7326cb,,,,,,,decisionTrl,resources/DG.BMP,resources/DY.BMP,Door2,-0.201180573,-0.055555534,1,0,0,1.3075,optionLeft,40,765,1,15,0,15,0,1,,,,,,,,,,,,,,,,,,,,,,,,,,,,,,,,,,,,,,,
,,,,,,,,2023-08-16_08h43.38.812,HF_wild_card,2022.2.4,Win32,59.98440405,5d8b35eebb2405000106ff4a,64d2fd46c836a06233681665,64dc7d26e573ae18ef7326cb,,,,,,,decisionTrl,resources/DBN.BMP,resources/DP.BMP,WildCard_NonEx,0.229375,-0.052083244,1,0,0,2.3446,optionRight,55,820,1,16,0,16,0,1,,,,,,,,,,,,,,,,,,,,,,,,,,,,,,,,,,,,,,,
,,,,,,,,2023-08-16_08h43.38.812,HF_wild_card,2022.2.4,Win32,59.98440405,5d8b35eebb2405000106ff4a,64d2fd46c836a06233681665,64dc7d26e573ae18ef7326cb,,,,,,,sngl,resources/Empty.png,resources/DP.BMP,WildCard_NonEx,0.287708282,-0.023611031,1,0,0,1.1526,optionRight,45,865,1,17,0,17,0,1,,,,,,,,,,,,,,,,,,,,,,,,,,,,,,,,,,,,,,,
,,,,,,,,2023-08-16_08h43.38.812,HF_wild_card,2022.2.4,Win32,59.98440405,5d8b35eebb2405000106ff4a,64d2fd46c836a06233681665,64dc7d26e573ae18ef7326cb,,,,,,,sngl,resources/Empty.png,resources/DG.BMP,Door2,0.312013626,-0.045138855,1,0,0,1.2468,optionRight,20,885,1,18,0,18,0,1,,,,,,,,,,,,,,,,,,,,,,,,,,,,,,,,,,,,,,,
,,,,,,,,2023-08-16_08h43.38.812,HF_wild_card,2022.2.4,Win32,59.98440405,5d8b35eebb2405000106ff4a,64d2fd46c836a06233681665,64dc7d26e573ae18ef7326cb,,,,,,,decisionTrl,resources/DG.BMP,resources/DP.BMP,WildCard_NonEx,0.233541489,-0.043055534,1,0,0,1.5112,optionRight,55,940,1,19,0,19,0,1,,,,,,,,,,,,,,,,,,,,,,,,,,,,,,,,,,,,,,,
,,,,,,,,2023-08-16_08h43.38.812,HF_wild_card,2022.2.4,Win32,59.98440405,5d8b35eebb2405000106ff4a,64d2fd46c836a06233681665,64dc7d26e573ae18ef7326cb,,,,,,,decisionTrl,resources/DY.BMP,resources/DG.BMP,Door1,-0.158125153,-0.048611069,1,0,0,1.3526,optionLeft,30,970,1,20,0,20,0,1,,,,,,,,,,,,,,,,,,,,,,,,,,,,,,,,,,,,,,,
,,,,,,,,2023-08-16_08h43.38.812,HF_wild_card,2022.2.4,Win32,59.98440405,5d8b35eebb2405000106ff4a,64d2fd46c836a06233681665,64dc7d26e573ae18ef7326cb,,,,,,,decisionTrl,resources/DBN.BMP,resources/DB.BMP,Door3,0.287708282,-0.066666641,1,0,0,2.4661,optionRight,70,1040,1,21,0,21,0,1,,,,,,,,,,,,,,,,,,,,,,,,,,,,,,,,,,,,,,,
,,,,,,,,2023-08-16_08h43.38.812,HF_wild_card,2022.2.4,Win32,59.98440405,5d8b35eebb2405000106ff4a,64d2fd46c836a06233681665,64dc7d26e573ae18ef7326cb,,,,,,,decisionTrl,resources/DP.BMP,resources/DY.BMP,WildCard_NonEx,-0.147708359,-0.0375,1,0,0,2.2802,optionLeft,55,1095,1,22,0,22,0,1,,,,,,,,,,,,,,,,,,,,,,,,,,,,,,,,,,,,,,,
,,,,,,,,2023-08-16_08h43.38.812,HF_wild_card,2022.2.4,Win32,59.98440405,5d8b35eebb2405000106ff4a,64d2fd46c836a06233681665,64dc7d26e573ae18ef7326cb,,,,,,,ctch,resources/DBN.BMP,resources/DY.BMP,Door1,0.205069351,-0.029166641,1,0,0,1.7283,optionRight,30,1125,1,23,0,23,0,1,,,,,,,,,,,,,,,,,,,,,,,,,,,,,,,,,,,,,,,
,,,,,,,,2023-08-16_08h43.38.812,HF_wild_card,2022.2.4,Win32,59.98440405,5d8b35eebb2405000106ff4a,64d2fd46c836a06233681665,64dc7d26e573ae18ef7326cb,,,,,,,sngl,resources/Empty.png,resources/DY.BMP,Door1,0.250208282,-0.034722176,1,0,0,1.1796,optionRight,30,1155,1,24,0,24,0,1,,,,,,,,,,,,,,,,,,,,,,,,,,,,,,,,,,,,,,,
,,,,,,,,2023-08-16_08h43.38.812,HF_wild_card,2022.2.4,Win32,59.98440405,5d8b35eebb2405000106ff4a,64d2fd46c836a06233681665,64dc7d26e573ae18ef7326cb,,,,,,,sngl,resources/DP.BMP,resources/Empty.png,WildCard_NonEx,-0.13034729,-0.031944389,1,0,0,1.2609,optionLeft,45,1200,1,25,0,25,0,1,,,,,,,,,,,,,,,,,,,,,,,,,,,,,,,,,,,,,,,
,,,,,,,,2023-08-16_08h43.38.812,HF_wild_card,2022.2.4,Win32,59.98440405,5d8b35eebb2405000106ff4a,64d2fd46c836a06233681665,64dc7d26e573ae18ef7326cb,,,,,,,decisionTrl,resources/DB.BMP,resources/DBN.BMP,Door3,-0.135902786,-0.018055534,1,0,0,2.9132,optionLeft,70,1270,1,26,0,26,0,1,,,,,,,,,,,,,,,,,,,,,,,,,,,,,,,,,,,,,,,
,,,,,,,,2023-08-16_08h43.38.812,HF_wild_card,2022.2.4,Win32,59.98440405,5d8b35eebb2405000106ff4a,64d2fd46c836a06233681665,64dc7d26e573ae18ef7326cb,,,,,,,ctch,resources/DG.BMP,resources/DB.BMP,Door3,0.190486069,-0.040277748,1,0,0,1.5638,optionRight,70,1340,1,27,0,27,0,1,,,,,,,,,,,,,,,,,,,,,,,,,,,,,,,,,,,,,,,
,,,,,,,,2023-08-16_08h43.38.812,HF_wild_card,2022.2.4,Win32,59.98440405,5d8b35eebb2405000106ff4a,64d2fd46c836a06233681665,64dc7d26e573ae18ef7326cb,,,,,,,ctch,resources/DB.BMP,resources/DG.BMP,Door3,-0.121319504,-0.015972252,1,0,0,1.3754,optionLeft,70,1410,1,28,0,28,0,1,,,,,,,,,,,,,,,,,,,,,,,,,,,,,,,,,,,,,,,
,,,,,,,,2023-08-16_08h43.38.812,HF_wild_card,2022.2.4,Win32,59.98440405,5d8b35eebb2405000106ff4a,64d2fd46c836a06233681665,64dc7d26e573ae18ef7326cb,,,,,,,sngl,resources/DG.BMP,resources/Empty.png,Door2,-0.147013931,-0.015277748,1,0,0,1.3193,optionLeft,40,1450,1,29,0,29,0,1,,,,,,,,,,,,,,,,,,,,,,,,,,,,,,,,,,,,,,,
,,,,,,,,2023-08-16_08h43.38.812,HF_wild_card,2022.2.4,Win32,59.98440405,5d8b35eebb2405000106ff4a,64d2fd46c836a06233681665,64dc7d26e573ae18ef7326cb,,,,,,,ctch,resources/DB.BMP,resources/DG.BMP,Door3,-0.15534729,-0.029166641,1,0,0,1.7205,optionLeft,70,1520,1,30,0,30,0,1,,,,,,,,,,,,,,,,,,,,,,,,,,,,,,,,,,,,,,,
,,,,,,,,2023-08-16_08h43.38.812,HF_wild_card,2022.2.4,Win32,59.98440405,5d8b35eebb2405000106ff4a,64d2fd46c836a06233681665,64dc7d26e573ae18ef7326cb,,,,,,,sngl,resources/DBN.BMP,resources/Empty.png,Door4,-0.164375153,-0.027083321,1,0,0,1.2068,optionLeft,80,1600,1,31,0,31,0,1,,,,,,,,,,,,,,,,,,,,,,,,,,,,,,,,,,,,,,,
,,,,,,,,2023-08-16_08h43.38.812,HF_wild_card,2022.2.4,Win32,59.98440405,5d8b35eebb2405000106ff4a,64d2fd46c836a06233681665,64dc7d26e573ae18ef7326cb,,,,,,,decisionTrl,resources/DBN.BMP,resources/DB.BMP,Door4,-0.121319504,-0.029861031,1,0,0,1.8275,optionLeft,80,1680,1,32,0,32,0,1,,,,,,,,,,,,,,,,,,,,,,,,,,,,,,,,,,,,,,,
,,,,,,,,2023-08-16_08h43.38.812,HF_wild_card,2022.2.4,Win32,59.98440405,5d8b35eebb2405000106ff4a,64d2fd46c836a06233681665,64dc7d26e573ae18ef7326cb,,,,,,,decisionTrl,resources/DB.BMP,resources/DBN.BMP,Door4,0.15715271,-0.015277748,1,0,0,1.8946,optionRight,80,1760,1,33,0,33,0,1,,,,,,,,,,,,,,,,,,,,,,,,,,,,,,,,,,,,,,,
,,,,,,,,2023-08-16_08h43.38.812,HF_wild_card,2022.2.4,Win32,59.98440405,5d8b35eebb2405000106ff4a,64d2fd46c836a06233681665,64dc7d26e573ae18ef7326cb,,,,,,,ctch,resources/DY.BMP,resources/DBN.BMP,Door4,0.143958282,-0.015972252,1,0,0,1.564,optionRight,60,1820,1,34,0,34,0,1,,,,,,,,,,,,,,,,,,,,,,,,,,,,,,,,,,,,,,,
,,,,,,,,2023-08-16_08h43.38.812,HF_wild_card,2022.2.4,Win32,59.98440405,5d8b35eebb2405000106ff4a,64d2fd46c836a06233681665,64dc7d26e573ae18ef7326cb,,,,,,,sngl,resources/DY.BMP,resources/Empty.png,Door1,-0.125486145,-0.020833321,1,0,0,1.1574,optionLeft,30,1850,1,35,0,35,0,1,,,,,,,,,,,,,,,,,,,,,,,,,,,,,,,,,,,,,,,
,,,,,,,,2023-08-16_08h43.38.812,HF_wild_card,2022.2.4,Win32,59.98440405,5d8b35eebb2405000106ff4a,64d2fd46c836a06233681665,64dc7d26e573ae18ef7326cb,,,,,,,decisionTrl,resources/DP.BMP,resources/DB.BMP,Door3,0.216180496,-0.015277748,1,0,0,2.7976,optionRight,70,1920,1,36,0,36,0,1,,,,,,,,,,,,,,,,,,,,,,,,,,,,,,,,,,,,,,,
,,,,,,,,2023-08-16_08h43.38.812,HF_wild_card,2022.2.4,Win32,59.98440405,5d8b35eebb2405000106ff4a,64d2fd46c836a06233681665,64dc7d26e573ae18ef7326cb,,,,,,,decisionTrl,resources/DBN.BMP,resources/DB.BMP,Door3,0.152986069,-0.031249962,1,0,0,2.0947,optionRight,70,1990,1,37,0,37,0,1,,,,,,,,,,,,,,,,,,,,,,,,,,,,,,,,,,,,,,,
,,,,,,,,2023-08-16_08h43.38.812,HF_wild_card,2022.2.4,Win32,59.98440405,5d8b35eebb2405000106ff4a,64d2fd46c836a06233681665,64dc7d26e573ae18ef7326cb,,,,,,,sngl,resources/Empty.png,resources/DB.BMP,Door3,0.172430496,-0.026388855,1,0,0,1.1293,optionRight,70,2060,1,38,0,38,0,1,,,,,,,,,,,,,,,,,,,,,,,,,,,,,,,,,,,,,,,
,,,,,,,,2023-08-16_08h43.38.812,HF_wild_card,2022.2.4,Win32,59.98440405,5d8b35eebb2405000106ff4a,64d2fd46c836a06233681665,64dc7d26e573ae18ef7326cb,,,,,,,sngl,resources/Empty.png,resources/DP.BMP,WildCard_NonEx,0.23215271,-0.050694313,1,0,0,1.1285,optionRight,55,2115,1,39,0,39,0,1,,,,,,,,,,,,,,,,,,,,,,,,,,,,,,,,,,,,,,,
,,,,,,,,2023-08-16_08h43.38.812,HF_wild_card,2022.2.4,Win32,59.98440405,5d8b35eebb2405000106ff4a,64d2fd46c836a06233681665,64dc7d26e573ae18ef7326cb,,,,,,,decisionTrl,resources/DBN.BMP,resources/DB.BMP,Door4,-0.141458359,-0.029861031,1,0,0,1.992,optionLeft,80,2195,1,40,0,40,0,1,,,,,,,,,,,,,,,,,,,,,,,,,,,,,,,,,,,,,,,
,,,,,,,,2023-08-16_08h43.38.812,HF_wild_card,2022.2.4,Win32,59.98440405,5d8b35eebb2405000106ff4a,64d2fd46c836a06233681665,64dc7d26e573ae18ef7326cb,,,,,,,ctch,resources/DY.BMP,resources/DBN.BMP,Door4,0.145347061,-0.012499962,1,0,0,1.3739,optionRight,80,2275,1,41,0,41,0,1,,,,,,,,,,,,,,,,,,,,,,,,,,,,,,,,,,,,,,,
,,,,,,,,2023-08-16_08h43.38.812,HF_wild_card,2022.2.4,Win32,59.98440405,5d8b35eebb2405000106ff4a,64d2fd46c836a06233681665,64dc7d26e573ae18ef7326cb,,,,,,,decisionTrl,resources/DP.BMP,resources/DG.BMP,WildCard_NonEx,-0.114375153,-0.038194313,1,0,0,2.0746,optionLeft,55,2330,1,42,0,42,0,1,,,,,,,,,,,,,,,,,,,,,,,,,,,,,,,,,,,,,,,
,,,,,,,,2023-08-16_08h43.38.812,HF_wild_card,2022.2.4,Win32,59.98440405,5d8b35eebb2405000106ff4a,64d2fd46c836a06233681665,64dc7d26e573ae18ef7326cb,,,,,,,ctch,resources/DBN.BMP,resources/DY.BMP,Door4,-0.113680573,-0.034722176,1,0,0,1.8156,optionLeft,60,2390,1,43,0,43,0,1,,,,,,,,,,,,,,,,,,,,,,,,,,,,,,,,,,,,,,,
,,,,,,,,2023-08-16_08h43.38.812,HF_wild_card,2022.2.4,Win32,59.98440405,5d8b35eebb2405000106ff4a,64d2fd46c836a06233681665,64dc7d26e573ae18ef7326cb,,,,,,,,,,,,,,,,,,,,,,,,,,0,0,0,0,1,,,,,,,,,,,,,,,,,,,,,,,,,,,,,,,,,,
,,,,,,,,2023-08-16_08h43.38.812,HF_wild_card,2022.2.4,Win32,59.98440405,5d8b35eebb2405000106ff4a,64d2fd46c836a06233681665,64dc7d26e573ae18ef7326cb,,,,,,,ctch,resources/DY.BMP,resources/DBN.BMP,Door4,0.140486069,-0.088888855,1,0,0,1.207,optionRight,80,2470,2,0,0,0,0,1,,,,,,,,,,,,,,,,,,,,,,,,,,,,,,,,,,,,,,,
,,,,,,,,2023-08-16_08h43.38.812,HF_wild_card,2022.2.4,Win32,59.98440405,5d8b35eebb2405000106ff4a,64d2fd46c836a06233681665,64dc7d26e573ae18ef7326cb,,,,,,,sngl,resources/Empty.png,resources/DB.BMP,Door3,0.18215271,-0.063888855,1,0,0,1.0538,optionRight,70,2540,2,1,0,1,0,1,,,,,,,,,,,,,,,,,,,,,,,,,,,,,,,,,,,,,,,
,,,,,,,,2023-08-16_08h43.38.812,HF_wild_card,2022.2.4,Win32,59.98440405,5d8b35eebb2405000106ff4a,64d2fd46c836a06233681665,64dc7d26e573ae18ef7326cb,,,,,,,sngl,resources/DBN.BMP,resources/Empty.png,Door4,-0.123402786,-0.040277748,1,0,0,1.0712,optionLeft,60,2600,2,2,0,2,0,1,,,,,,,,,,,,,,,,,,,,,,,,,,,,,,,,,,,,,,,
,,,,,,,,2023-08-16_08h43.38.812,HF_wild_card,2022.2.4,Win32,59.98440405,5d8b35eebb2405000106ff4a,64d2fd46c836a06233681665,64dc7d26e573ae18ef7326cb,,,,,,,decisionTrl,resources/DY.BMP,resources/DG.BMP,Door1,-0.117152786,-0.0375,1,0,0,1.6846,optionLeft,30,2630,2,3,0,3,0,1,,,,,,,,,,,,,,,,,,,,,,,,,,,,,,,,,,,,,,,
,,,,,,,,2023-08-16_08h43.38.812,HF_wild_card,2022.2.4,Win32,59.98440405,5d8b35eebb2405000106ff4a,64d2fd46c836a06233681665,64dc7d26e573ae18ef7326cb,,,,,,,decisionTrl,resources/DBN.BMP,resources/DB.BMP,Door3,0.173819504,-0.034027748,1,0,0,2.421,optionRight,70,2700,2,4,0,4,0,1,,,,,,,,,,,,,,,,,,,,,,,,,,,,,,,,,,,,,,,
,,,,,,,,2023-08-16_08h43.38.812,HF_wild_card,2022.2.4,Win32,59.98440405,5d8b35eebb2405000106ff4a,64d2fd46c836a06233681665,64dc7d26e573ae18ef7326cb,,,,,,,decisionTrl,resources/DB.BMP,resources/DBN.BMP,Door3,-0.140763931,-0.018749962,1,0,0,1.6361,optionLeft,70,2770,2,5,0,5,0,1,,,,,,,,,,,,,,,,,,,,,,,,,,,,,,,,,,,,,,,
,,,,,,,,2023-08-16_08h43.38.812,HF_wild_card,2022.2.4,Win32,59.98440405,5d8b35eebb2405000106ff4a,64d2fd46c836a06233681665,64dc7d26e573ae18ef7326cb,,,,,,,sngl,resources/DG.BMP,resources/Empty.png,Door2,-0.127569504,-0.023611031,1,0,0,1.0641,optionLeft,20,2790,2,6,0,6,0,1,,,,,,,,,,,,,,,,,,,,,,,,,,,,,,,,,,,,,,,
,,,,,,,,2023-08-16_08h43.38.812,HF_wild_card,2022.2.4,Win32,59.98440405,5d8b35eebb2405000106ff4a,64d2fd46c836a06233681665,64dc7d26e573ae18ef7326cb,,,,,,,decisionTrl,resources/DG.BMP,resources/DY.BMP,Door1,0.193263626,-0.029166641,1,0,0,0.7868,optionRight,30,2820,2,7,0,7,0,1,,,,,,,,,,,,,,,,,,,,,,,,,,,,,,,,,,,,,,,
,,,,,,,,2023-08-16_08h43.38.812,HF_wild_card,2022.2.4,Win32,59.98440405,5d8b35eebb2405000106ff4a,64d2fd46c836a06233681665,64dc7d26e573ae18ef7326cb,,,,,,,decisionTrl,resources/DB.BMP,resources/DP.BMP,Door3,-0.144930573,-0.024305534,1,0,0,1.4782,optionLeft,70,2890,2,8,0,8,0,1,,,,,,,,,,,,,,,,,,,,,,,,,,,,,,,,,,,,,,,
,,,,,,,,2023-08-16_08h43.38.812,HF_wild_card,2022.2.4,Win32,59.98440405,5d8b35eebb2405000106ff4a,64d2fd46c836a06233681665,64dc7d26e573ae18ef7326cb,,,,,,,decisionTrl,resources/DP.BMP,resources/DBN.BMP,Door4,0.148124924,-0.019444389,1,0,0,1.4774,optionRight,80,2970,2,9,0,9,0,1,,,,,,,,,,,,,,,,,,,,,,,,,,,,,,,,,,,,,,,
,,,,,,,,2023-08-16_08h43.38.812,HF_wild_card,2022.2.4,Win32,59.98440405,5d8b35eebb2405000106ff4a,64d2fd46c836a06233681665,64dc7d26e573ae18ef7326cb,,,,,,,sngl,resources/Empty.png,resources/DG.BMP,Door2,0.205069351,-0.05,1,0,0,1.1476,optionRight,40,3010,2,10,0,10,0,1,,,,,,,,,,,,,,,,,,,,,,,,,,,,,,,,,,,,,,,
,,,,,,,,2023-08-16_08h43.38.812,HF_wild_card,2022.2.4,Win32,59.98440405,5d8b35eebb2405000106ff4a,64d2fd46c836a06233681665,64dc7d26e573ae18ef7326cb,,,,,,,decisionTrl,resources/DB.BMP,resources/DBN.BMP,Door4,0.179375,-0.0375,1,0,0,0.7572,optionRight,80,3090,2,11,0,11,0,1,,,,,,,,,,,,,,,,,,,,,,,,,,,,,,,,,,,,,,,
,,,,,,,,2023-08-16_08h43.38.812,HF_wild_card,2022.2.4,Win32,59.98440405,5d8b35eebb2405000106ff4a,64d2fd46c836a06233681665,64dc7d26e573ae18ef7326cb,,,,,,,ctch,resources/DBN.BMP,resources/DY.BMP,Door4,-0.123402786,-0.008333321,1,0,0,0.8137,optionLeft,60,3150,2,12,0,12,0,1,,,,,,,,,,,,,,,,,,,,,,,,,,,,,,,,,,,,,,,
,,,,,,,,2023-08-16_08h43.38.812,HF_wild_card,2022.2.4,Win32,59.98440405,5d8b35eebb2405000106ff4a,64d2fd46c836a06233681665,64dc7d26e573ae18ef7326cb,,,,,,,decisionTrl,resources/DY.BMP,resources/DG.BMP,Door1,-0.127569504,-0.009027748,1,0,0,1.5297,optionLeft,30,3180,2,13,0,13,0,1,,,,,,,,,,,,,,,,,,,,,,,,,,,,,,,,,,,,,,,
,,,,,,,,2023-08-16_08h43.38.812,HF_wild_card,2022.2.4,Win32,59.98440405,5d8b35eebb2405000106ff4a,64d2fd46c836a06233681665,64dc7d26e573ae18ef7326cb,,,,,,,ctch,resources/DBN.BMP,resources/DY.BMP,Door4,-0.113680573,-0.006249962,1,0,0,1.6809,optionLeft,80,3260,2,14,0,14,0,1,,,,,,,,,,,,,,,,,,,,,,,,,,,,,,,,,,,,,,,
,,,,,,,,2023-08-16_08h43.38.812,HF_wild_card,2022.2.4,Win32,59.98440405,5d8b35eebb2405000106ff4a,64d2fd46c836a06233681665,64dc7d26e573ae18ef7326cb,,,,,,,sngl,resources/DY.BMP,resources/Empty.png,Door1,-0.127569504,-0.009722137,1,0,0,1.4133,optionLeft,30,3290,2,15,0,15,0,1,,,,,,,,,,,,,,,,,,,,,,,,,,,,,,,,,,,,,,,
,,,,,,,,2023-08-16_08h43.38.812,HF_wild_card,2022.2.4,Win32,59.98440405,5d8b35eebb2405000106ff4a,64d2fd46c836a06233681665,64dc7d26e573ae18ef7326cb,,,,,,,ctch,resources/DG.BMP,resources/DB.BMP,Door3,0.173124924,-0.014583321,1,0,0,1.8374,optionRight,70,3360,2,16,0,16,0,1,,,,,,,,,,,,,,,,,,,,,,,,,,,,,,,,,,,,,,,
,,,,,,,,2023-08-16_08h43.38.812,HF_wild_card,2022.2.4,Win32,59.98440405,5d8b35eebb2405000106ff4a,64d2fd46c836a06233681665,64dc7d26e573ae18ef7326cb,,,,,,,decisionTrl,resources/DG.BMP,resources/DY.BMP,Door1,0.077986069,-0.013888855,1,0,0,1.9786,optionRight,30,3390,2,17,0,17,0,1,,,,,,,,,,,,,,,,,,,,,,,,,,,,,,,,,,,,,,,
,,,,,,,,2023-08-16_08h43.38.812,HF_wild_card,2022.2.4,Win32,59.98440405,5d8b35eebb2405000106ff4a,64d2fd46c836a06233681665,64dc7d26e573ae18ef7326cb,,,,,,,decisionTrl,resources/DG.BMP,resources/DP.BMP,WildCard_NonEx,0.150208282,-0.019444389,1,0,0,1.6279,optionRight,45,3435,2,18,0,18,0,1,,,,,,,,,,,,,,,,,,,,,,,,,,,,,,,,,,,,,,,
,,,,,,,,2023-08-16_08h43.38.812,HF_wild_card,2022.2.4,Win32,59.98440405,5d8b35eebb2405000106ff4a,64d2fd46c836a06233681665,64dc7d26e573ae18ef7326cb,,,,,,,sngl,resources/Empty.png,resources/DBN.BMP,Door4,0.164791641,-0.030555534,1,0,0,0.8451,optionRight,80,3515,2,19,0,19,0,1,,,,,,,,,,,,,,,,,,,,,,,,,,,,,,,,,,,,,,,
,,,,,,,,2023-08-16_08h43.38.812,HF_wild_card,2022.2.4,Win32,59.98440405,5d8b35eebb2405000106ff4a,64d2fd46c836a06233681665,64dc7d26e573ae18ef7326cb,,,,,,,decisionTrl,resources/DP.BMP,resources/DB.BMP,Door3,0.268263626,-0.050694313,1,0,0,1.5118,optionRight,70,3585,2,20,0,20,0,1,,,,,,,,,,,,,,,,,,,,,,,,,,,,,,,,,,,,,,,
,,,,,,,,2023-08-16_08h43.38.812,HF_wild_card,2022.2.4,Win32,59.98440405,5d8b35eebb2405000106ff4a,64d2fd46c836a06233681665,64dc7d26e573ae18ef7326cb,,,,,,,decisionTrl,resources/DBN.BMP,resources/DB.BMP,Door4,-0.135902786,0.010416679,1,0,0,2.4105,optionLeft,80,3665,2,21,0,21,0,1,,,,,,,,,,,,,,,,,,,,,,,,,,,,,,,,,,,,,,,
,,,,,,,,2023-08-16_08h43.38.812,HF_wild_card,2022.2.4,Win32,59.98440405,5d8b35eebb2405000106ff4a,64d2fd46c836a06233681665,64dc7d26e573ae18ef7326cb,,,,,,,sngl,resources/DP.BMP,resources/Empty.png,WildCard_NonEx,-0.11784729,3.8147E-08,1,0,0,1.4127,optionLeft,55,3720,2,22,0,22,0,1,,,,,,,,,,,,,,,,,,,,,,,,,,,,,,,,,,,,,,,
,,,,,,,,2023-08-16_08h43.38.812,HF_wild_card,2022.2.4,Win32,59.98440405,5d8b35eebb2405000106ff4a,64d2fd46c836a06233681665,64dc7d26e573ae18ef7326cb,,,,,,,decisionTrl,resources/DP.BMP,resources/DY.BMP,WildCard_NonEx,-0.124791718,-0.001388855,1,0,0,1.5455,optionLeft,55,3775,2,23,0,23,0,1,,,,,,,,,,,,,,,,,,,,,,,,,,,,,,,,,,,,,,,
,,,,,,,,2023-08-16_08h43.38.812,HF_wild_card,2022.2.4,Win32,59.98440405,5d8b35eebb2405000106ff4a,64d2fd46c836a06233681665,64dc7d26e573ae18ef7326cb,,,,,,,decisionTrl,resources/DB.BMP,resources/DBN.BMP,Door4,0.121041641,-0.014583321,1,0,0,1.5306,optionRight,60,3835,2,24,0,24,0,1,,,,,,,,,,,,,,,,,,,,,,,,,,,,,,,,,,,,,,,
,,,,,,,,2023-08-16_08h43.38.812,HF_wild_card,2022.2.4,Win32,59.98440405,5d8b35eebb2405000106ff4a,64d2fd46c836a06233681665,64dc7d26e573ae18ef7326cb,,,,,,,ctch,resources/DB.BMP,resources/DG.BMP,Door3,-0.115763931,0.006944466,1,0,0,1.2455,optionLeft,70,3905,2,25,0,25,0,1,,,,,,,,,,,,,,,,,,,,,,,,,,,,,,,,,,,,,,,
,,,,,,,,2023-08-16_08h43.38.812,HF_wild_card,2022.2.4,Win32,59.98440405,5d8b35eebb2405000106ff4a,64d2fd46c836a06233681665,64dc7d26e573ae18ef7326cb,,,,,,,decisionTrl,resources/DG.BMP,resources/DY.BMP,Door1,0.116874924,-0.016666641,1,0,0,4.1814,optionRight,30,3935,2,26,0,26,0,1,,,,,,,,,,,,,,,,,,,,,,,,,,,,,,,,,,,,,,,
,,,,,,,,2023-08-16_08h43.38.812,HF_wild_card,2022.2.4,Win32,59.98440405,5d8b35eebb2405000106ff4a,64d2fd46c836a06233681665,64dc7d26e573ae18ef7326cb,,,,,,,decisionTrl,resources/DBN.BMP,resources/DP.BMP,Door4,-0.107430573,0.009027863,1,0,0,1.5043,optionLeft,80,4015,2,27,0,27,0,1,,,,,,,,,,,,,,,,,,,,,,,,,,,,,,,,,,,,,,,
,,,,,,,,2023-08-16_08h43.38.812,HF_wild_card,2022.2.4,Win32,59.98440405,5d8b35eebb2405000106ff4a,64d2fd46c836a06233681665,64dc7d26e573ae18ef7326cb,,,,,,,decisionTrl,resources/DY.BMP,resources/DP.BMP,WildCard_NonEx,0.134236069,-0.032638855,1,0,0,2.1949,optionRight,45,4060,2,28,0,28,0,1,,,,,,,,,,,,,,,,,,,,,,,,,,,,,,,,,,,,,,,
,,,,,,,,2023-08-16_08h43.38.812,HF_wild_card,2022.2.4,Win32,59.98440405,5d8b35eebb2405000106ff4a,64d2fd46c836a06233681665,64dc7d26e573ae18ef7326cb,,,,,,,ctch,resources/DB.BMP,resources/DG.BMP,Door3,-0.135208359,0.004166679,1,0,0,1.7649,optionLeft,70,4130,2,29,0,29,0,1,,,,,,,,,,,,,,,,,,,,,,,,,,,,,,,,,,,,,,,
,,,,,,,,2023-08-16_08h43.38.812,HF_wild_card,2022.2.4,Win32,59.98440405,5d8b35eebb2405000106ff4a,64d2fd46c836a06233681665,64dc7d26e573ae18ef7326cb,,,,,,,decisionTrl,resources/DBN.BMP,resources/DB.BMP,Door4,-0.12409729,0.012500038,1,0,0,2.0113,optionLeft,60,4190,2,30,0,30,0,1,,,,,,,,,,,,,,,,,,,,,,,,,,,,,,,,,,,,,,,
,,,,,,,,2023-08-16_08h43.38.812,HF_wild_card,2022.2.4,Win32,59.98440405,5d8b35eebb2405000106ff4a,64d2fd46c836a06233681665,64dc7d26e573ae18ef7326cb,,,,,,,ctch,resources/DG.BMP,resources/DB.BMP,Door3,0.176597061,-0.023611031,1,0,0,1.9645,optionRight,70,4260,2,31,0,31,0,1,,,,,,,,,,,,,,,,,,,,,,,,,,,,,,,,,,,,,,,
,,,,,,,,2023-08-16_08h43.38.812,HF_wild_card,2022.2.4,Win32,59.98440405,5d8b35eebb2405000106ff4a,64d2fd46c836a06233681665,64dc7d26e573ae18ef7326cb,,,,,,,decisionTrl,resources/DB.BMP,resources/DBN.BMP,Door3,-0.10534729,0.001388969,1,0,0,1.9653,optionLeft,70,4330,2,32,0,32,0,1,,,,,,,,,,,,,,,,,,,,,,,,,,,,,,,,,,,,,,,
,,,,,,,,2023-08-16_08h43.38.812,HF_wild_card,2022.2.4,Win32,59.98440405,5d8b35eebb2405000106ff4a,64d2fd46c836a06233681665,64dc7d26e573ae18ef7326cb,,,,,,,ctch,resources/DY.BMP,resources/DBN.BMP,Door4,0.143958282,-0.016666641,1,0,0,1.4818,optionRight,60,4390,2,33,0,33,0,1,,,,,,,,,,,,,,,,,,,,,,,,,,,,,,,,,,,,,,,
,,,,,,,,2023-08-16_08h43.38.812,HF_wild_card,2022.2.4,Win32,59.98440405,5d8b35eebb2405000106ff4a,64d2fd46c836a06233681665,64dc7d26e573ae18ef7326cb,,,,,,,decisionTrl,resources/DY.BMP,resources/DG.BMP,Door1,-0.160208359,0.009722252,1,0,0,1.5778,optionLeft,30,4420,2,34,0,34,0,1,,,,,,,,,,,,,,,,,,,,,,,,,,,,,,,,,,,,,,,
,,,,,,,,2023-08-16_08h43.38.812,HF_wild_card,2022.2.4,Win32,59.98440405,5d8b35eebb2405000106ff4a,64d2fd46c836a06233681665,64dc7d26e573ae18ef7326cb,,,,,,,sngl,resources/DB.BMP,resources/Empty.png,Door3,-0.124791718,0.001388969,1,0,0,0.9314,optionLeft,70,4490,2,35,0,35,0,1,,,,,,,,,,,,,,,,,,,,,,,,,,,,,,,,,,,,,,,
,,,,,,,,2023-08-16_08h43.38.812,HF_wild_card,2022.2.4,Win32,59.98440405,5d8b35eebb2405000106ff4a,64d2fd46c836a06233681665,64dc7d26e573ae18ef7326cb,,,,,,,decisionTrl,resources/DY.BMP,resources/DG.BMP,Door1,-0.122013931,-0.004861031,1,0,0,1.327,optionLeft,30,4520,2,36,0,36,0,1,,,,,,,,,,,,,,,,,,,,,,,,,,,,,,,,,,,,,,,
,,,,,,,,2023-08-16_08h43.38.812,HF_wild_card,2022.2.4,Win32,59.98440405,5d8b35eebb2405000106ff4a,64d2fd46c836a06233681665,64dc7d26e573ae18ef7326cb,,,,,,,sngl,resources/Empty.png,resources/DY.BMP,Door1,0.184236069,-0.038194313,1,0,0,0.895,optionRight,30,4550,2,37,0,37,0,1,,,,,,,,,,,,,,,,,,,,,,,,,,,,,,,,,,,,,,,
,,,,,,,,2023-08-16_08h43.38.812,HF_wild_card,2022.2.4,Win32,59.98440405,5d8b35eebb2405000106ff4a,64d2fd46c836a06233681665,64dc7d26e573ae18ef7326cb,,,,,,,sngl,resources/DP.BMP,resources/Empty.png,WildCard_NonEx,-0.110208359,0.001388969,1,0,0,0.9948,optionLeft,45,4595,2,38,0,38,0,1,,,,,,,,,,,,,,,,,,,,,,,,,,,,,,,,,,,,,,,
,,,,,,,,2023-08-16_08h43.38.812,HF_wild_card,2022.2.4,Win32,59.98440405,5d8b35eebb2405000106ff4a,64d2fd46c836a06233681665,64dc7d26e573ae18ef7326cb,,,,,,,decisionTrl,resources/DG.BMP,resources/DY.BMP,Door1,0.131458282,-0.026388855,1,0,0,1.8811,optionRight,30,4625,2,39,0,39,0,1,,,,,,,,,,,,,,,,,,,,,,,,,,,,,,,,,,,,,,,
,,,,,,,,2023-08-16_08h43.38.812,HF_wild_card,2022.2.4,Win32,59.98440405,5d8b35eebb2405000106ff4a,64d2fd46c836a06233681665,64dc7d26e573ae18ef7326cb,,,,,,,decisionTrl,resources/DP.BMP,resources/DG.BMP,WildCard_NonEx,-0.166458359,-0.007638855,1,0,0,1.5775,optionLeft,45,4670,2,40,0,40,0,1,,,,,,,,,,,,,,,,,,,,,,,,,,,,,,,,,,,,,,,
,,,,,,,,2023-08-16_08h43.38.812,HF_wild_card,2022.2.4,Win32,59.98440405,5d8b35eebb2405000106ff4a,64d2fd46c836a06233681665,64dc7d26e573ae18ef7326cb,,,,,,,sngl,resources/Empty.png,resources/DP.BMP,WildCard_NonEx,0.15715271,-0.0375,1,0,0,2.1314,optionRight,45,4715,2,41,0,41,0,1,,,,,,,,,,,,,,,,,,,,,,,,,,,,,,,,,,,,,,,
,,,,,,,,2023-08-16_08h43.38.812,HF_wild_card,2022.2.4,Win32,59.98440405,5d8b35eebb2405000106ff4a,64d2fd46c836a06233681665,64dc7d26e573ae18ef7326cb,,,,,,,decisionTrl,resources/DBN.BMP,resources/DB.BMP,Door3,0.167569504,-0.040277748,1,0,0,3.0965,optionRight,70,4785,2,42,0,42,0,1,,,,,,,,,,,,,,,,,,,,,,,,,,,,,,,,,,,,,,,
,,,,,,,,2023-08-16_08h43.38.812,HF_wild_card,2022.2.4,Win32,59.98440405,5d8b35eebb2405000106ff4a,64d2fd46c836a06233681665,64dc7d26e573ae18ef7326cb,,,,,,,sngl,resources/Empty.png,resources/DP.BMP,WildCard_NonEx,0.191875,-0.047222176,1,0,0,0.9787,optionRight,55,4840,2,43,0,43,0,1,,,,,,,,,,,,,,,,,,,,,,,,,,,,,,,,,,,,,,,
,,,,,,,,2023-08-16_08h43.38.812,HF_wild_card,2022.2.4,Win32,59.98440405,5d8b35eebb2405000106ff4a,64d2fd46c836a06233681665,64dc7d26e573ae18ef7326cb,,,,,,,,,,,,,,,,,,,,,,,,,,1,0,1,0,1,,,,,,,,,,,,,,,,,,,,,,,,,,,,,,,,,,
,,,,,,,,2023-08-16_08h43.38.812,HF_wild_card,2022.2.4,Win32,59.98440405,5d8b35eebb2405000106ff4a,64d2fd46c836a06233681665,64dc7d26e573ae18ef7326cb,,,,,,,decisionTrl,resources/DY.BMP,resources/DG.BMP,Door1,-0.103263931,-0.056944313,1,0,0,2.2583,optionLeft,30,4870,3,0,0,0,0,1,,,,,,,,,,,,,,,,,,,,,,,,,,,,,,,,,,,,,,,
,,,,,,,,2023-08-16_08h43.38.812,HF_wild_card,2022.2.4,Win32,59.98440405,5d8b35eebb2405000106ff4a,64d2fd46c836a06233681665,64dc7d26e573ae18ef7326cb,,,,,,,decisionTrl,resources/DY.BMP,resources/DG.BMP,Door1,-0.09284729,-0.036805534,1,0,0,1.0788,optionLeft,30,4900,3,1,0,1,0,1,,,,,,,,,,,,,,,,,,,,,,,,,,,,,,,,,,,,,,,
,,,,,,,,2023-08-16_08h43.38.812,HF_wild_card,2022.2.4,Win32,59.98440405,5d8b35eebb2405000106ff4a,64d2fd46c836a06233681665,64dc7d26e573ae18ef7326cb,,,,,,,decisionTrl,resources/DG.BMP,resources/DY.BMP,Door1,0.171041641,-0.038194313,1,0,0,1.2112,optionRight,30,4930,3,2,0,2,0,1,,,,,,,,,,,,,,,,,,,,,,,,,,,,,,,,,,,,,,,
,,,,,,,,2023-08-16_08h43.38.812,HF_wild_card,2022.2.4,Win32,59.98440405,5d8b35eebb2405000106ff4a,64d2fd46c836a06233681665,64dc7d26e573ae18ef7326cb,,,,,,,decisionTrl,resources/DP.BMP,resources/DB.BMP,Door3,0.154374924,-0.040277748,1,0,0,1.7271,optionRight,70,5000,3,3,0,3,0,1,,,,,,,,,,,,,,,,,,,,,,,,,,,,,,,,,,,,,,,
,,,,,,,,2023-08-16_08h43.38.812,HF_wild_card,2022.2.4,Win32,59.98440405,5d8b35eebb2405000106ff4a,64d2fd46c836a06233681665,64dc7d26e573ae18ef7326cb,,,,,,,decisionTrl,resources/DP.BMP,resources/DY.BMP,WildCard_NonEx,-0.17409729,-0.010416641,1,0,0,2.5601,optionLeft,55,5055,3,4,0,4,0,1,,,,,,,,,,,,,,,,,,,,,,,,,,,,,,,,,,,,,,,
,,,,,,,,2023-08-16_08h43.38.812,HF_wild_card,2022.2.4,Win32,59.98440405,5d8b35eebb2405000106ff4a,64d2fd46c836a06233681665,64dc7d26e573ae18ef7326cb,,,,,,,ctch,resources/DG.BMP,resources/DB.BMP,Door3,0.155069504,-0.04375,1,0,0,1.2107,optionRight,70,5125,3,5,0,5,0,1,,,,,,,,,,,,,,,,,,,,,,,,,,,,,,,,,,,,,,,
,,,,,,,,2023-08-16_08h43.38.812,HF_wild_card,2022.2.4,Win32,59.98440405,5d8b35eebb2405000106ff4a,64d2fd46c836a06233681665,64dc7d26e573ae18ef7326cb,,,,,,,sngl,resources/DY.BMP,resources/Empty.png,Door1,-0.087291718,-0.017361031,1,0,0,0.8976,optionLeft,30,5155,3,6,0,6,0,1,,,,,,,,,,,,,,,,,,,,,,,,,,,,,,,,,,,,,,,
,,,,,,,,2023-08-16_08h43.38.812,HF_wild_card,2022.2.4,Win32,59.98440405,5d8b35eebb2405000106ff4a,64d2fd46c836a06233681665,64dc7d26e573ae18ef7326cb,,,,,,,sngl,resources/DBN.BMP,resources/Empty.png,Door4,-0.193541718,0.002083359,1,0,0,1.2614,optionLeft,80,5235,3,7,0,7,0,1,,,,,,,,,,,,,,,,,,,,,,,,,,,,,,,,,,,,,,,
,,,,,,,,2023-08-16_08h43.38.812,HF_wild_card,2022.2.4,Win32,59.98440405,5d8b35eebb2405000106ff4a,64d2fd46c836a06233681665,64dc7d26e573ae18ef7326cb,,,,,,,decisionTrl,resources/DBN.BMP,resources/DB.BMP,Door4,-0.110902786,-0.029861031,1,0,0,1.748,optionLeft,60,5295,3,8,0,8,0,1,,,,,,,,,,,,,,,,,,,,,,,,,,,,,,,,,,,,,,,
,,,,,,,,2023-08-16_08h43.38.812,HF_wild_card,2022.2.4,Win32,59.98440405,5d8b35eebb2405000106ff4a,64d2fd46c836a06233681665,64dc7d26e573ae18ef7326cb,,,,,,,decisionTrl,resources/DG.BMP,resources/DY.BMP,Door1,0.134930496,-0.059722176,1,0,0,1.9294,optionRight,30,5325,3,9,0,9,0,1,,,,,,,,,,,,,,,,,,,,,,,,,,,,,,,,,,,,,,,
,,,,,,,,2023-08-16_08h43.38.812,HF_wild_card,2022.2.4,Win32,59.98440405,5d8b35eebb2405000106ff4a,64d2fd46c836a06233681665,64dc7d26e573ae18ef7326cb,,,,,,,decisionTrl,resources/DBN.BMP,resources/DP.BMP,Door4,-0.103958359,-0.038194313,1,0,0,2.1648,optionLeft,80,5405,3,10,0,10,0,1,,,,,,,,,,,,,,,,,,,,,,,,,,,,,,,,,,,,,,,
,,,,,,,,2023-08-16_08h43.38.812,HF_wild_card,2022.2.4,Win32,59.98440405,5d8b35eebb2405000106ff4a,64d2fd46c836a06233681665,64dc7d26e573ae18ef7326cb,,,,,,,ctch,resources/DB.BMP,resources/DG.BMP,Door3,-0.122708359,-0.031944389,1,0,0,1.744,optionLeft,70,5475,3,11,0,11,0,1,,,,,,,,,,,,,,,,,,,,,,,,,,,,,,,,,,,,,,,
,,,,,,,,2023-08-16_08h43.38.812,HF_wild_card,2022.2.4,Win32,59.98440405,5d8b35eebb2405000106ff4a,64d2fd46c836a06233681665,64dc7d26e573ae18ef7326cb,,,,,,,decisionTrl,resources/DG.BMP,resources/DY.BMP,Door1,0.127986069,-0.05625,1,0,0,1.7943,optionRight,30,5505,3,12,0,12,0,1,,,,,,,,,,,,,,,,,,,,,,,,,,,,,,,,,,,,,,,
,,,,,,,,2023-08-16_08h43.38.812,HF_wild_card,2022.2.4,Win32,59.98440405,5d8b35eebb2405000106ff4a,64d2fd46c836a06233681665,64dc7d26e573ae18ef7326cb,,,,,,,sngl,resources/Empty.png,resources/DY.BMP,Door1,0.162708282,-0.056944313,1,0,0,0.8276,optionRight,30,5535,3,13,0,13,0,1,,,,,,,,,,,,,,,,,,,,,,,,,,,,,,,,,,,,,,,
,,,,,,,,2023-08-16_08h43.38.812,HF_wild_card,2022.2.4,Win32,59.98440405,5d8b35eebb2405000106ff4a,64d2fd46c836a06233681665,64dc7d26e573ae18ef7326cb,,,,,,,decisionTrl,resources/DBN.BMP,resources/DB.BMP,Door3,0.174513779,-0.073611069,1,0,0,1.7651,optionRight,70,5605,3,14,0,14,0,1,,,,,,,,,,,,,,,,,,,,,,,,,,,,,,,,,,,,,,,
,,,,,,,,2023-08-16_08h43.38.812,HF_wild_card,2022.2.4,Win32,59.98440405,5d8b35eebb2405000106ff4a,64d2fd46c836a06233681665,64dc7d26e573ae18ef7326cb,,,,,,,ctch,resources/DBN.BMP,resources/DY.BMP,Door4,-0.120625153,-0.024305534,1,0,0,1.4441,optionLeft,60,5665,3,15,0,15,0,1,,,,,,,,,,,,,,,,,,,,,,,,,,,,,,,,,,,,,,,
,,,,,,,,2023-08-16_08h43.38.812,HF_wild_card,2022.2.4,Win32,59.98440405,5d8b35eebb2405000106ff4a,64d2fd46c836a06233681665,64dc7d26e573ae18ef7326cb,,,,,,,ctch,resources/DB.BMP,resources/DG.BMP,Door3,-0.115763931,-0.028472252,1,0,0,2.5575,optionLeft,70,5735,3,16,0,16,0,1,,,,,,,,,,,,,,,,,,,,,,,,,,,,,,,,,,,,,,,
,,,,,,,,2023-08-16_08h43.38.812,HF_wild_card,2022.2.4,Win32,59.98440405,5d8b35eebb2405000106ff4a,64d2fd46c836a06233681665,64dc7d26e573ae18ef7326cb,,,,,,,sngl,resources/Empty.png,resources/DB.BMP,Door3,0.132847061,-0.050694313,1,0,0,0.8324,optionRight,70,5805,3,17,0,17,0,1,,,,,,,,,,,,,,,,,,,,,,,,,,,,,,,,,,,,,,,
,,,,,,,,2023-08-16_08h43.38.812,HF_wild_card,2022.2.4,Win32,59.98440405,5d8b35eebb2405000106ff4a,64d2fd46c836a06233681665,64dc7d26e573ae18ef7326cb,,,,,,,decisionTrl,resources/DP.BMP,resources/DBN.BMP,Door4,0.128680496,-0.049305534,1,0,0,2.0984,optionRight,80,5885,3,18,0,18,0,1,,,,,,,,,,,,,,,,,,,,,,,,,,,,,,,,,,,,,,,
,,,,,,,,2023-08-16_08h43.38.812,HF_wild_card,2022.2.4,Win32,59.98440405,5d8b35eebb2405000106ff4a,64d2fd46c836a06233681665,64dc7d26e573ae18ef7326cb,,,,,,,decisionTrl,resources/DY.BMP,resources/DG.BMP,Door1,-0.115069504,-0.023611031,1,0,0,1.2949,optionLeft,30,5915,3,19,0,19,0,1,,,,,,,,,,,,,,,,,,,,,,,,,,,,,,,,,,,,,,,
,,,,,,,,2023-08-16_08h43.38.812,HF_wild_card,2022.2.4,Win32,59.98440405,5d8b35eebb2405000106ff4a,64d2fd46c836a06233681665,64dc7d26e573ae18ef7326cb,,,,,,,sngl,resources/DB.BMP,resources/Empty.png,Door3,-0.120625153,-0.036111069,1,0,0,0.7748,optionLeft,70,5985,3,20,0,20,0,1,,,,,,,,,,,,,,,,,,,,,,,,,,,,,,,,,,,,,,,
,,,,,,,,2023-08-16_08h43.38.812,HF_wild_card,2022.2.4,Win32,59.98440405,5d8b35eebb2405000106ff4a,64d2fd46c836a06233681665,64dc7d26e573ae18ef7326cb,,,,,,,ctch,resources/DY.BMP,resources/DBN.BMP,Door4,0.137013779,-0.061111069,1,0,0,1.6654,optionRight,60,6045,3,21,0,21,0,1,,,,,,,,,,,,,,,,,,,,,,,,,,,,,,,,,,,,,,,
,,,,,,,,2023-08-16_08h43.38.812,HF_wild_card,2022.2.4,Win32,59.98440405,5d8b35eebb2405000106ff4a,64d2fd46c836a06233681665,64dc7d26e573ae18ef7326cb,,,,,,,decisionTrl,resources/DB.BMP,resources/DBN.BMP,Door3,-0.11784729,-0.020833321,1,0,0,1.9125,optionLeft,70,6115,3,22,0,22,0,1,,,,,,,,,,,,,,,,,,,,,,,,,,,,,,,,,,,,,,,
,,,,,,,,2023-08-16_08h43.38.812,HF_wild_card,2022.2.4,Win32,59.98440405,5d8b35eebb2405000106ff4a,64d2fd46c836a06233681665,64dc7d26e573ae18ef7326cb,,,,,,,sngl,resources/Empty.png,resources/DP.BMP,WildCard_NonEx,0.16340271,-0.079166641,1,0,0,0.834,optionRight,45,6160,3,23,0,23,0,1,,,,,,,,,,,,,,,,,,,,,,,,,,,,,,,,,,,,,,,
,,,,,,,,2023-08-16_08h43.38.812,HF_wild_card,2022.2.4,Win32,59.98440405,5d8b35eebb2405000106ff4a,64d2fd46c836a06233681665,64dc7d26e573ae18ef7326cb,,,,,,,decisionTrl,resources/DB.BMP,resources/DBN.BMP,Door3,-0.133125153,-0.024999962,1,0,0,1.5478,optionLeft,70,6230,3,24,0,24,0,1,,,,,,,,,,,,,,,,,,,,,,,,,,,,,,,,,,,,,,,
,,,,,,,,2023-08-16_08h43.38.812,HF_wild_card,2022.2.4,Win32,59.98440405,5d8b35eebb2405000106ff4a,64d2fd46c836a06233681665,64dc7d26e573ae18ef7326cb,,,,,,,decisionTrl,resources/DG.BMP,resources/DP.BMP,WildCard_NonEx,0.128680496,-0.047222176,1,0,0,1.69,optionRight,45,6275,3,25,0,25,0,1,,,,,,,,,,,,,,,,,,,,,,,,,,,,,,,,,,,,,,,
,,,,,,,,2023-08-16_08h43.38.812,HF_wild_card,2022.2.4,Win32,59.98440405,5d8b35eebb2405000106ff4a,64d2fd46c836a06233681665,64dc7d26e573ae18ef7326cb,,,,,,,sngl,resources/DP.BMP,resources/Empty.png,WildCard_NonEx,-0.112986145,-0.031944389,1,0,0,0.8079,optionLeft,45,6320,3,26,0,26,0,1,,,,,,,,,,,,,,,,,,,,,,,,,,,,,,,,,,,,,,,
,,,,,,,,2023-08-16_08h43.38.812,HF_wild_card,2022.2.4,Win32,59.98440405,5d8b35eebb2405000106ff4a,64d2fd46c836a06233681665,64dc7d26e573ae18ef7326cb,,,,,,,ctch,resources/DG.BMP,resources/DB.BMP,Door3,0.17590271,-0.055555534,1,0,0,1.3796,optionRight,70,6390,3,27,0,27,0,1,,,,,,,,,,,,,,,,,,,,,,,,,,,,,,,,,,,,,,,
,,,,,,,,2023-08-16_08h43.38.812,HF_wild_card,2022.2.4,Win32,59.98440405,5d8b35eebb2405000106ff4a,64d2fd46c836a06233681665,64dc7d26e573ae18ef7326cb,,,,,,,decisionTrl,resources/DP.BMP,resources/DG.BMP,WildCard_NonEx,-0.102569504,-0.019444389,1,0,0,1.7471,optionLeft,55,6445,3,28,0,28,0,1,,,,,,,,,,,,,,,,,,,,,,,,,,,,,,,,,,,,,,,
,,,,,,,,2023-08-16_08h43.38.812,HF_wild_card,2022.2.4,Win32,59.98440405,5d8b35eebb2405000106ff4a,64d2fd46c836a06233681665,64dc7d26e573ae18ef7326cb,,,,,,,sngl,resources/Empty.png,resources/DG.BMP,Door2,0.148819504,-0.058333244,1,0,0,1.0052,optionRight,20,6465,3,29,0,29,0,1,,,,,,,,,,,,,,,,,,,,,,,,,,,,,,,,,,,,,,,
,,,,,,,,2023-08-16_08h43.38.812,HF_wild_card,2022.2.4,Win32,59.98440405,5d8b35eebb2405000106ff4a,64d2fd46c836a06233681665,64dc7d26e573ae18ef7326cb,,,,,,,decisionTrl,resources/DY.BMP,resources/DG.BMP,Door1,-0.118541718,-0.002083321,1,0,0,3.0809,optionLeft,30,6495,3,30,0,30,0,1,,,,,,,,,,,,,,,,,,,,,,,,,,,,,,,,,,,,,,,
,,,,,,,,2023-08-16_08h43.38.812,HF_wild_card,2022.2.4,Win32,59.98440405,5d8b35eebb2405000106ff4a,64d2fd46c836a06233681665,64dc7d26e573ae18ef7326cb,,,,,,,decisionTrl,resources/DBN.BMP,resources/DB.BMP,Door3,0.234236069,-0.061805534,1,0,0,1.4367,optionRight,70,6565,3,31,0,31,0,1,,,,,,,,,,,,,,,,,,,,,,,,,,,,,,,,,,,,,,,
,,,,,,,,2023-08-16_08h43.38.812,HF_wild_card,2022.2.4,Win32,59.98440405,5d8b35eebb2405000106ff4a,64d2fd46c836a06233681665,64dc7d26e573ae18ef7326cb,,,,,,,sngl,resources/Empty.png,resources/DP.BMP,WildCard_NonEx,0.191875,-0.067361069,1,0,0,0.8538,optionRight,55,6620,3,32,0,32,0,1,,,,,,,,,,,,,,,,,,,,,,,,,,,,,,,,,,,,,,,
,,,,,,,,2023-08-16_08h43.38.812,HF_wild_card,2022.2.4,Win32,59.98440405,5d8b35eebb2405000106ff4a,64d2fd46c836a06233681665,64dc7d26e573ae18ef7326cb,,,,,,,sngl,resources/DP.BMP,resources/Empty.png,WildCard_NonEx,-0.131041718,-0.001388855,1,0,0,0.9453,optionLeft,55,6675,3,33,0,33,0,1,,,,,,,,,,,,,,,,,,,,,,,,,,,,,,,,,,,,,,,
,,,,,,,,2023-08-16_08h43.38.812,HF_wild_card,2022.2.4,Win32,59.98440405,5d8b35eebb2405000106ff4a,64d2fd46c836a06233681665,64dc7d26e573ae18ef7326cb,,,,,,,sngl,resources/Empty.png,resources/DBN.BMP,Door4,0.200208282,-0.065277748,1,0,0,0.8226,optionRight,60,6735,3,34,0,34,0,1,,,,,,,,,,,,,,,,,,,,,,,,,,,,,,,,,,,,,,,
,,,,,,,,2023-08-16_08h43.38.812,HF_wild_card,2022.2.4,Win32,59.98440405,5d8b35eebb2405000106ff4a,64d2fd46c836a06233681665,64dc7d26e573ae18ef7326cb,,,,,,,sngl,resources/DG.BMP,resources/Empty.png,Door2,-0.115069504,-0.011111031,1,0,0,0.857,optionLeft,40,6775,3,35,0,35,0,1,,,,,,,,,,,,,,,,,,,,,,,,,,,,,,,,,,,,,,,
,,,,,,,,2023-08-16_08h43.38.812,HF_wild_card,2022.2.4,Win32,59.98440405,5d8b35eebb2405000106ff4a,64d2fd46c836a06233681665,64dc7d26e573ae18ef7326cb,,,,,,,decisionTrl,resources/DBN.BMP,resources/DB.BMP,Door3,0.122430496,-0.047916641,1,0,0,1.2597,optionRight,70,6845,3,36,0,36,0,1,,,,,,,,,,,,,,,,,,,,,,,,,,,,,,,,,,,,,,,
,,,,,,,,2023-08-16_08h43.38.812,HF_wild_card,2022.2.4,Win32,59.98440405,5d8b35eebb2405000106ff4a,64d2fd46c836a06233681665,64dc7d26e573ae18ef7326cb,,,,,,,decisionTrl,resources/DB.BMP,resources/DBN.BMP,Door3,-0.12409729,-0.020833321,1,0,0,1.8306,optionLeft,70,6915,3,37,0,37,0,1,,,,,,,,,,,,,,,,,,,,,,,,,,,,,,,,,,,,,,,
,,,,,,,,2023-08-16_08h43.38.812,HF_wild_card,2022.2.4,Win32,59.98440405,5d8b35eebb2405000106ff4a,64d2fd46c836a06233681665,64dc7d26e573ae18ef7326cb,,,,,,,ctch,resources/DY.BMP,resources/DBN.BMP,Door4,0.165486069,-0.048611069,1,0,0,0.9733,optionRight,80,6995,3,38,0,38,0,1,,,,,,,,,,,,,,,,,,,,,,,,,,,,,,,,,,,,,,,
,,,,,,,,2023-08-16_08h43.38.812,HF_wild_card,2022.2.4,Win32,59.98440405,5d8b35eebb2405000106ff4a,64d2fd46c836a06233681665,64dc7d26e573ae18ef7326cb,,,,,,,decisionTrl,resources/DG.BMP,resources/DY.BMP,Door1,0.126597061,-0.047916641,1,0,0,1.9305,optionRight,30,7025,3,39,0,39,0,1,,,,,,,,,,,,,,,,,,,,,,,,,,,,,,,,,,,,,,,
,,,,,,,,2023-08-16_08h43.38.812,HF_wild_card,2022.2.4,Win32,59.98440405,5d8b35eebb2405000106ff4a,64d2fd46c836a06233681665,64dc7d26e573ae18ef7326cb,,,,,,,decisionTrl,resources/DY.BMP,resources/DP.BMP,WildCard_NonEx,0.199513626,-0.0625,1,0,0,1.4446,optionRight,45,7070,3,40,0,40,0,1,,,,,,,,,,,,,,,,,,,,,,,,,,,,,,,,,,,,,,,
,,,,,,,,2023-08-16_08h43.38.812,HF_wild_card,2022.2.4,Win32,59.98440405,5d8b35eebb2405000106ff4a,64d2fd46c836a06233681665,64dc7d26e573ae18ef7326cb,,,,,,,ctch,resources/DBN.BMP,resources/DY.BMP,Door4,-0.119930573,0.001388969,1,0,0,1.4442,optionLeft,60,7130,3,41,0,41,0,1,,,,,,,,,,,,,,,,,,,,,,,,,,,,,,,,,,,,,,,
,,,,,,,,2023-08-16_08h43.38.812,HF_wild_card,2022.2.4,Win32,59.98440405,5d8b35eebb2405000106ff4a,64d2fd46c836a06233681665,64dc7d26e573ae18ef7326cb,,,,,,,decisionTrl,resources/DB.BMP,resources/DBN.BMP,Door3,-0.135208359,-0.001388855,1,0,0,1.5136,optionLeft,70,7200,3,42,0,42,0,1,,,,,,,,,,,,,,,,,,,,,,,,,,,,,,,,,,,,,,,
,,,,,,,,2023-08-16_08h43.38.812,HF_wild_card,2022.2.4,Win32,59.98440405,5d8b35eebb2405000106ff4a,64d2fd46c836a06233681665,64dc7d26e573ae18ef7326cb,,,,,,,decisionTrl,resources/DB.BMP,resources/DP.BMP,Door3,-0.126180573,0.005555573,1,0,0,1.2803,optionLeft,70,7270,3,43,0,43,0,1,,,,,,,,,,,,,,,,,,,,,,,,,,,,,,,,,,,,,,,
,,,,,,,,2023-08-16_08h43.38.812,HF_wild_card,2022.2.4,Win32,59.98440405,5d8b35eebb2405000106ff4a,64d2fd46c836a06233681665,64dc7d26e573ae18ef7326cb,,,,,,,,,,,,,,,,,,,,,,,,,,2,0,2,0,1,,,,,,,,,,,,,,,,,,,,,,,,,,,,,,,,,,
,,,,,,,,2023-08-16_08h43.38.812,HF_wild_card,2022.2.4,Win32,59.98440405,5d8b35eebb2405000106ff4a,64d2fd46c836a06233681665,64dc7d26e573ae18ef7326cb,,,,,,,sngl,resources/Empty.png,resources/DR.BMP,WildCard_Ex,0.280763626,-0.130555534,1,0,0,1.0255,optionRight,5,7275,4,0,0,0,0,1,,,,,,,,,,,,,,,,,,,,,,,,,,,,,,,,,,,,,,,
,,,,,,,,2023-08-16_08h43.38.812,HF_wild_card,2022.2.4,Win32,59.98440405,5d8b35eebb2405000106ff4a,64d2fd46c836a06233681665,64dc7d26e573ae18ef7326cb,,,,,,,sngl,resources/Empty.png,resources/DG.BMP,Door2,0.212013626,-0.055555534,1,0,0,0.7657,optionRight,40,7315,4,1,0,1,0,1,,,,,,,,,,,,,,,,,,,,,,,,,,,,,,,,,,,,,,,
,,,,,,,,2023-08-16_08h43.38.812,HF_wild_card,2022.2.4,Win32,59.98440405,5d8b35eebb2405000106ff4a,64d2fd46c836a06233681665,64dc7d26e573ae18ef7326cb,,,,,,,decisionTrl,resources/DY.BMP,resources/DG.BMP,Door2,0.149513779,-0.028472252,1,0,0,1.8969,optionRight,40,7355,4,2,0,2,0,1,,,,,,,,,,,,,,,,,,,,,,,,,,,,,,,,,,,,,,,
,,,,,,,,2023-08-16_08h43.38.812,HF_wild_card,2022.2.4,Win32,59.98440405,5d8b35eebb2405000106ff4a,64d2fd46c836a06233681665,64dc7d26e573ae18ef7326cb,,,,,,,ctch,resources/DY.BMP,resources/DBN.BMP,Door4,0.171736069,-0.030555534,1,0,0,1.5925,optionRight,80,7435,4,3,0,3,0,1,,,,,,,,,,,,,,,,,,,,,,,,,,,,,,,,,,,,,,,
,,,,,,,,2023-08-16_08h43.38.812,HF_wild_card,2022.2.4,Win32,59.98440405,5d8b35eebb2405000106ff4a,64d2fd46c836a06233681665,64dc7d26e573ae18ef7326cb,,,,,,,sngl,resources/DY.BMP,resources/Empty.png,Door1,-0.158125153,0.010416679,1,0,0,1.0479,optionLeft,30,7465,4,4,0,4,0,1,,,,,,,,,,,,,,,,,,,,,,,,,,,,,,,,,,,,,,,
,,,,,,,,2023-08-16_08h43.38.812,HF_wild_card,2022.2.4,Win32,59.98440405,5d8b35eebb2405000106ff4a,64d2fd46c836a06233681665,64dc7d26e573ae18ef7326cb,,,,,,,decisionTrl,resources/DG.BMP,resources/DR.BMP,Door2,-0.179652863,0.006250038,1,0,0,2.213,optionLeft,40,7505,4,5,0,5,0,1,,,,,,,,,,,,,,,,,,,,,,,,,,,,,,,,,,,,,,,
,,,,,,,,2023-08-16_08h43.38.812,HF_wild_card,2022.2.4,Win32,59.98440405,5d8b35eebb2405000106ff4a,64d2fd46c836a06233681665,64dc7d26e573ae18ef7326cb,,,,,,,sngl,resources/DG.BMP,resources/Empty.png,Door2,-0.144930573,0.003472252,1,0,0,0.9954,optionLeft,20,7525,4,6,0,6,0,1,,,,,,,,,,,,,,,,,,,,,,,,,,,,,,,,,,,,,,,
,,,,,,,,2023-08-16_08h43.38.812,HF_wild_card,2022.2.4,Win32,59.98440405,5d8b35eebb2405000106ff4a,64d2fd46c836a06233681665,64dc7d26e573ae18ef7326cb,,,,,,,decisionTrl,resources/DB.BMP,resources/DBN.BMP,Door3,-0.169236145,-0.002083321,1,0,0,2.2942,optionLeft,70,7595,4,7,0,7,0,1,,,,,,,,,,,,,,,,,,,,,,,,,,,,,,,,,,,,,,,
,,,,,,,,2023-08-16_08h43.38.812,HF_wild_card,2022.2.4,Win32,59.98440405,5d8b35eebb2405000106ff4a,64d2fd46c836a06233681665,64dc7d26e573ae18ef7326cb,,,,,,,decisionTrl,resources/DR.BMP,resources/DBN.BMP,Door4,0.212708282,-0.04375,1,0,0,1.5995,optionRight,80,7675,4,8,0,8,0,1,,,,,,,,,,,,,,,,,,,,,,,,,,,,,,,,,,,,,,,
,,,,,,,,2023-08-16_08h43.38.812,HF_wild_card,2022.2.4,Win32,59.98440405,5d8b35eebb2405000106ff4a,64d2fd46c836a06233681665,64dc7d26e573ae18ef7326cb,,,,,,,decisionTrl,resources/DR.BMP,resources/DG.BMP,Door2,0.254375,-0.052083244,1,0,0,3.4496,optionRight,40,7715,4,9,0,9,0,1,,,,,,,,,,,,,,,,,,,,,,,,,,,,,,,,,,,,,,,
,,,,,,,,2023-08-16_08h43.38.812,HF_wild_card,2022.2.4,Win32,59.98440405,5d8b35eebb2405000106ff4a,64d2fd46c836a06233681665,64dc7d26e573ae18ef7326cb,,,,,,,decisionTrl,resources/DG.BMP,resources/DY.BMP,Door2,-0.157430573,-0.015277748,1,0,0,2.7127,optionLeft,40,7755,4,10,0,10,0,1,,,,,,,,,,,,,,,,,,,,,,,,,,,,,,,,,,,,,,,
,,,,,,,,2023-08-16_08h43.38.812,HF_wild_card,2022.2.4,Win32,59.98440405,5d8b35eebb2405000106ff4a,64d2fd46c836a06233681665,64dc7d26e573ae18ef7326cb,,,,,,,sngl,resources/Empty.png,resources/DY.BMP,Door1,0.205069351,-0.045138855,1,0,0,0.9819,optionRight,30,7785,4,11,0,11,0,1,,,,,,,,,,,,,,,,,,,,,,,,,,,,,,,,,,,,,,,
,,,,,,,,2023-08-16_08h43.38.812,HF_wild_card,2022.2.4,Win32,59.98440405,5d8b35eebb2405000106ff4a,64d2fd46c836a06233681665,64dc7d26e573ae18ef7326cb,,,,,,,decisionTrl,resources/DBN.BMP,resources/DB.BMP,Door3,0.291875,-0.084722176,1,0,0,1.4647,optionRight,70,7855,4,12,0,12,0,1,,,,,,,,,,,,,,,,,,,,,,,,,,,,,,,,,,,,,,,
,,,,,,,,2023-08-16_08h43.38.812,HF_wild_card,2022.2.4,Win32,59.98440405,5d8b35eebb2405000106ff4a,64d2fd46c836a06233681665,64dc7d26e573ae18ef7326cb,,,,,,,decisionTrl,resources/DB.BMP,resources/DR.BMP,Door3,-0.124791718,-0.015972252,1,0,0,1.045,optionLeft,70,7925,4,13,0,13,0,1,,,,,,,,,,,,,,,,,,,,,,,,,,,,,,,,,,,,,,,
,,,,,,,,2023-08-16_08h43.38.812,HF_wild_card,2022.2.4,Win32,59.98440405,5d8b35eebb2405000106ff4a,64d2fd46c836a06233681665,64dc7d26e573ae18ef7326cb,,,,,,,ctch,resources/DBN.BMP,resources/DY.BMP,Door4,-0.153263931,-0.019444389,1,0,0,1.4812,optionLeft,80,8005,4,14,0,14,0,1,,,,,,,,,,,,,,,,,,,,,,,,,,,,,,,,,,,,,,,
,,,,,,,,2023-08-16_08h43.38.812,HF_wild_card,2022.2.4,Win32,59.98440405,5d8b35eebb2405000106ff4a,64d2fd46c836a06233681665,64dc7d26e573ae18ef7326cb,,,,,,,decisionTrl,resources/DY.BMP,resources/DR.BMP,Door1,-0.139375153,-0.034722176,1,0,0,1.6944,optionLeft,30,8035,4,15,0,15,0,1,,,,,,,,,,,,,,,,,,,,,,,,,,,,,,,,,,,,,,,
,,,,,,,,2023-08-16_08h43.38.812,HF_wild_card,2022.2.4,Win32,59.98440405,5d8b35eebb2405000106ff4a,64d2fd46c836a06233681665,64dc7d26e573ae18ef7326cb,,,,,,,sngl,resources/Empty.png,resources/DB.BMP,Door3,0.202291489,-0.072222176,1,0,0,0.762,optionRight,70,8105,4,16,0,16,0,1,,,,,,,,,,,,,,,,,,,,,,,,,,,,,,,,,,,,,,,
,,,,,,,,2023-08-16_08h43.38.812,HF_wild_card,2022.2.4,Win32,59.98440405,5d8b35eebb2405000106ff4a,64d2fd46c836a06233681665,64dc7d26e573ae18ef7326cb,,,,,,,sngl,resources/DB.BMP,resources/Empty.png,Door3,-0.107430573,-0.034722176,1,0,0,0.8153,optionLeft,70,8175,4,17,0,17,0,1,,,,,,,,,,,,,,,,,,,,,,,,,,,,,,,,,,,,,,,
,,,,,,,,2023-08-16_08h43.38.812,HF_wild_card,2022.2.4,Win32,59.98440405,5d8b35eebb2405000106ff4a,64d2fd46c836a06233681665,64dc7d26e573ae18ef7326cb,,,,,,,ctch,resources/DBN.BMP,resources/DY.BMP,Door4,-0.117152786,-0.029166641,1,0,0,1.3317,optionLeft,60,8235,4,18,0,18,0,1,,,,,,,,,,,,,,,,,,,,,,,,,,,,,,,,,,,,,,,
,,,,,,,,2023-08-16_08h43.38.812,HF_wild_card,2022.2.4,Win32,59.98440405,5d8b35eebb2405000106ff4a,64d2fd46c836a06233681665,64dc7d26e573ae18ef7326cb,,,,,,,sngl,resources/DR.BMP,resources/Empty.png,WildCard_Ex,-0.122013931,-0.022222252,1,0,0,1.1277,optionLeft,95,8330,4,19,0,19,0,1,,,,,,,,,,,,,,,,,,,,,,,,,,,,,,,,,,,,,,,
,,,,,,,,2023-08-16_08h43.38.812,HF_wild_card,2022.2.4,Win32,59.98440405,5d8b35eebb2405000106ff4a,64d2fd46c836a06233681665,64dc7d26e573ae18ef7326cb,,,,,,,decisionTrl,resources/DB.BMP,resources/DBN.BMP,Door3,-0.133125153,-0.034027748,1,0,0,3.4946,optionLeft,70,8400,4,20,0,20,0,1,,,,,,,,,,,,,,,,,,,,,,,,,,,,,,,,,,,,,,,
,,,,,,,,2023-08-16_08h43.38.812,HF_wild_card,2022.2.4,Win32,59.98440405,5d8b35eebb2405000106ff4a,64d2fd46c836a06233681665,64dc7d26e573ae18ef7326cb,,,,,,,decisionTrl,resources/DBN.BMP,resources/DR.BMP,Door4,-0.122708359,-0.040277748,1,0,0,2.5273,optionLeft,60,8460,4,21,0,21,0,1,,,,,,,,,,,,,,,,,,,,,,,,,,,,,,,,,,,,,,,
,,,,,,,,2023-08-16_08h43.38.812,HF_wild_card,2022.2.4,Win32,59.98440405,5d8b35eebb2405000106ff4a,64d2fd46c836a06233681665,64dc7d26e573ae18ef7326cb,,,,,,,ctch,resources/DG.BMP,resources/DB.BMP,Door3,0.178680496,-0.071527748,1,0,0,1.3818,optionRight,70,8530,4,22,0,22,0,1,,,,,,,,,,,,,,,,,,,,,,,,,,,,,,,,,,,,,,,
,,,,,,,,2023-08-16_08h43.38.812,HF_wild_card,2022.2.4,Win32,59.98440405,5d8b35eebb2405000106ff4a,64d2fd46c836a06233681665,64dc7d26e573ae18ef7326cb,,,,,,,ctch,resources/DB.BMP,resources/DG.BMP,Door3,-0.146319504,-0.019444389,1,0,0,0.9667,optionLeft,70,8600,4,23,0,23,0,1,,,,,,,,,,,,,,,,,,,,,,,,,,,,,,,,,,,,,,,
,,,,,,,,2023-08-16_08h43.38.812,HF_wild_card,2022.2.4,Win32,59.98440405,5d8b35eebb2405000106ff4a,64d2fd46c836a06233681665,64dc7d26e573ae18ef7326cb,,,,,,,decisionTrl,resources/DBN.BMP,resources/DB.BMP,Door3,0.25715271,-0.073611069,1,0,0,1.4458,optionRight,70,8670,4,24,0,24,0,1,,,,,,,,,,,,,,,,,,,,,,,,,,,,,,,,,,,,,,,
,,,,,,,,2023-08-16_08h43.38.812,HF_wild_card,2022.2.4,Win32,59.98440405,5d8b35eebb2405000106ff4a,64d2fd46c836a06233681665,64dc7d26e573ae18ef7326cb,,,,,,,decisionTrl,resources/DY.BMP,resources/DG.BMP,Door2,0.177986069,-0.047916641,1,0,0,1.378,optionRight,20,8690,4,25,0,25,0,1,,,,,,,,,,,,,,,,,,,,,,,,,,,,,,,,,,,,,,,
,,,,,,,,2023-08-16_08h43.38.812,HF_wild_card,2022.2.4,Win32,59.98440405,5d8b35eebb2405000106ff4a,64d2fd46c836a06233681665,64dc7d26e573ae18ef7326cb,,,,,,,sngl,resources/DR.BMP,resources/Empty.png,WildCard_Ex,-0.135902786,-0.006249962,1,0,0,0.9616,optionLeft,5,8695,4,26,0,26,0,1,,,,,,,,,,,,,,,,,,,,,,,,,,,,,,,,,,,,,,,
,,,,,,,,2023-08-16_08h43.38.812,HF_wild_card,2022.2.4,Win32,59.98440405,5d8b35eebb2405000106ff4a,64d2fd46c836a06233681665,64dc7d26e573ae18ef7326cb,,,,,,,decisionTrl,resources/DG.BMP,resources/DY.BMP,Door1,0.131458282,-0.019444389,1,0,0,4.6154,optionRight,30,8725,4,27,0,27,0,1,,,,,,,,,,,,,,,,,,,,,,,,,,,,,,,,,,,,,,,
,,,,,,,,2023-08-16_08h43.38.812,HF_wild_card,2022.2.4,Win32,59.98440405,5d8b35eebb2405000106ff4a,64d2fd46c836a06233681665,64dc7d26e573ae18ef7326cb,,,,,,,ctch,resources/DY.BMP,resources/DBN.BMP,Door4,0.148124924,-0.029861031,1,0,0,1.4799,optionRight,60,8785,4,28,0,28,0,1,,,,,,,,,,,,,,,,,,,,,,,,,,,,,,,,,,,,,,,
,,,,,,,,2023-08-16_08h43.38.812,HF_wild_card,2022.2.4,Win32,59.98440405,5d8b35eebb2405000106ff4a,64d2fd46c836a06233681665,64dc7d26e573ae18ef7326cb,,,,,,,decisionTrl,resources/DG.BMP,resources/DY.BMP,Door2,-0.109513931,-0.004166641,1,0,0,1.7953,optionLeft,40,8825,4,29,0,29,0,1,,,,,,,,,,,,,,,,,,,,,,,,,,,,,,,,,,,,,,,
,,,,,,,,2023-08-16_08h43.38.812,HF_wild_card,2022.2.4,Win32,59.98440405,5d8b35eebb2405000106ff4a,64d2fd46c836a06233681665,64dc7d26e573ae18ef7326cb,,,,,,,sngl,resources/DBN.BMP,resources/Empty.png,Door4,-0.097013931,0.003472252,1,0,0,1.149,optionLeft,60,8885,4,30,0,30,0,1,,,,,,,,,,,,,,,,,,,,,,,,,,,,,,,,,,,,,,,
,,,,,,,,2023-08-16_08h43.38.812,HF_wild_card,2022.2.4,Win32,59.98440405,5d8b35eebb2405000106ff4a,64d2fd46c836a06233681665,64dc7d26e573ae18ef7326cb,,,,,,,decisionTrl,resources/DBN.BMP,resources/DB.BMP,Door3,0.251597137,-0.045833244,1,0,0,1.8154,optionRight,70,8955,4,31,0,31,0,1,,,,,,,,,,,,,,,,,,,,,,,,,,,,,,,,,,,,,,,
,,,,,,,,2023-08-16_08h43.38.812,HF_wild_card,2022.2.4,Win32,59.98440405,5d8b35eebb2405000106ff4a,64d2fd46c836a06233681665,64dc7d26e573ae18ef7326cb,,,,,,,decisionTrl,resources/DB.BMP,resources/DBN.BMP,Door4,0.136319504,-0.036805534,1,0,0,2.6997,optionRight,80,9035,4,32,0,32,0,1,,,,,,,,,,,,,,,,,,,,,,,,,,,,,,,,,,,,,,,
,,,,,,,,2023-08-16_08h43.38.812,HF_wild_card,2022.2.4,Win32,59.98440405,5d8b35eebb2405000106ff4a,64d2fd46c836a06233681665,64dc7d26e573ae18ef7326cb,,,,,,,decisionTrl,resources/DB.BMP,resources/DBN.BMP,Door4,0.116874924,-0.011111031,1,0,0,1.3663,optionRight,60,9095,4,33,0,33,0,1,,,,,,,,,,,,,,,,,,,,,,,,,,,,,,,,,,,,,,,
,,,,,,,,2023-08-16_08h43.38.812,HF_wild_card,2022.2.4,Win32,59.98440405,5d8b35eebb2405000106ff4a,64d2fd46c836a06233681665,64dc7d26e573ae18ef7326cb,,,,,,,decisionTrl,resources/DY.BMP,resources/DG.BMP,Door2,0.22590271,-0.029166641,1,0,0,1.2806,optionRight,40,9135,4,34,0,34,0,1,,,,,,,,,,,,,,,,,,,,,,,,,,,,,,,,,,,,,,,
,,,,,,,,2023-08-16_08h43.38.812,HF_wild_card,2022.2.4,Win32,59.98440405,5d8b35eebb2405000106ff4a,64d2fd46c836a06233681665,64dc7d26e573ae18ef7326cb,,,,,,,decisionTrl,resources/DY.BMP,resources/DG.BMP,Door2,0.177986069,-0.038888855,1,0,0,0.879,optionRight,20,9155,4,35,0,35,0,1,,,,,,,,,,,,,,,,,,,,,,,,,,,,,,,,,,,,,,,
,,,,,,,,2023-08-16_08h43.38.812,HF_wild_card,2022.2.4,Win32,59.98440405,5d8b35eebb2405000106ff4a,64d2fd46c836a06233681665,64dc7d26e573ae18ef7326cb,,,,,,,decisionTrl,resources/DBN.BMP,resources/DB.BMP,Door3,0.167569504,-0.031944389,1,0,0,1.3789,optionRight,70,9225,4,36,0,36,0,1,,,,,,,,,,,,,,,,,,,,,,,,,,,,,,,,,,,,,,,
,,,,,,,,2023-08-16_08h43.38.812,HF_wild_card,2022.2.4,Win32,59.98440405,5d8b35eebb2405000106ff4a,64d2fd46c836a06233681665,64dc7d26e573ae18ef7326cb,,,,,,,ctch,resources/DG.BMP,resources/DB.BMP,Door3,0.132847061,-0.020833321,1,0,0,1.7287,optionRight,70,9295,4,37,0,37,0,1,,,,,,,,,,,,,,,,,,,,,,,,,,,,,,,,,,,,,,,
,,,,,,,,2023-08-16_08h43.38.812,HF_wild_card,2022.2.4,Win32,59.98440405,5d8b35eebb2405000106ff4a,64d2fd46c836a06233681665,64dc7d26e573ae18ef7326cb,,,,,,,sngl,resources/Empty.png,resources/DR.BMP,WildCard_Ex,0.184236069,-0.043055534,1,0,0,0.9108,optionRight,95,9390,4,38,0,38,0,1,,,,,,,,,,,,,,,,,,,,,,,,,,,,,,,,,,,,,,,
,,,,,,,,2023-08-16_08h43.38.812,HF_wild_card,2022.2.4,Win32,59.98440405,5d8b35eebb2405000106ff4a,64d2fd46c836a06233681665,64dc7d26e573ae18ef7326cb,,,,,,,decisionTrl,resources/DR.BMP,resources/DY.BMP,WildCard_Ex,-0.103958359,0.008333359,1,0,0,1.4604,optionLeft,5,9395,4,39,0,39,0,1,,,,,,,,,,,,,,,,,,,,,,,,,,,,,,,,,,,,,,,
,,,,,,,,2023-08-16_08h43.38.812,HF_wild_card,2022.2.4,Win32,59.98440405,5d8b35eebb2405000106ff4a,64d2fd46c836a06233681665,64dc7d26e573ae18ef7326cb,,,,,,,ctch,resources/DB.BMP,resources/DG.BMP,Door3,-0.14909729,0.020833359,1,0,0,2.7279,optionLeft,70,9465,4,40,0,40,0,1,,,,,,,,,,,,,,,,,,,,,,,,,,,,,,,,,,,,,,,
,,,,,,,,2023-08-16_08h43.38.812,HF_wild_card,2022.2.4,Win32,59.98440405,5d8b35eebb2405000106ff4a,64d2fd46c836a06233681665,64dc7d26e573ae18ef7326cb,,,,,,,decisionTrl,resources/DG.BMP,resources/DY.BMP,Door2,-0.146319504,0.020833359,1,0,0,4.3786,optionLeft,20,9485,4,41,0,41,0,1,,,,,,,,,,,,,,,,,,,,,,,,,,,,,,,,,,,,,,,
,,,,,,,,2023-08-16_08h43.38.812,HF_wild_card,2022.2.4,Win32,59.98440405,5d8b35eebb2405000106ff4a,64d2fd46c836a06233681665,64dc7d26e573ae18ef7326cb,,,,,,,decisionTrl,resources/DR.BMP,resources/DB.BMP,Door3,0.214791489,-0.052777748,1,0,0,1.6992,optionRight,70,9555,4,42,0,42,0,1,,,,,,,,,,,,,,,,,,,,,,,,,,,,,,,,,,,,,,,
,,,,,,,,2023-08-16_08h43.38.812,HF_wild_card,2022.2.4,Win32,59.98440405,5d8b35eebb2405000106ff4a,64d2fd46c836a06233681665,64dc7d26e573ae18ef7326cb,,,,,,,sngl,resources/Empty.png,resources/DBN.BMP,Door4,0.215486069,-0.058333244,1,0,0,0.9647,optionRight,80,9635,4,43,0,43,0,1,,,,,,,,,,,,,,,,,,,,,,,,,,,,,,,,,,,,,,,
,,,,,,,,2023-08-16_08h43.38.812,HF_wild_card,2022.2.4,Win32,59.98440405,5d8b35eebb2405000106ff4a,64d2fd46c836a06233681665,64dc7d26e573ae18ef7326cb,,,,,,,,,,,,,,,,,,,,,,,,,,3,0,3,0,1,,,,,,,,,,,,,,,,,,,,,,,,,,,,,,,,,,
,,,,,,,,2023-08-16_08h43.38.812,HF_wild_card,2022.2.4,Win32,59.98440405,5d8b35eebb2405000106ff4a,64d2fd46c836a06233681665,64dc7d26e573ae18ef7326cb,,,,,,,ctch,resources/DBN.BMP,resources/DY.BMP,Door4,-0.13659729,-0.044444313,1,0,0,1.4619,optionLeft,60,9695,5,0,0,0,0,1,,,,,,,,,,,,,,,,,,,,,,,,,,,,,,,,,,,,,,,
,,,,,,,,2023-08-16_08h43.38.812,HF_wild_card,2022.2.4,Win32,59.98440405,5d8b35eebb2405000106ff4a,64d2fd46c836a06233681665,64dc7d26e573ae18ef7326cb,,,,,,,sngl,resources/Empty.png,resources/DR.BMP,WildCard_Ex,0.196736069,-0.077083244,1,0,0,0.8287,optionRight,5,9700,5,1,0,1,0,1,,,,,,,,,,,,,,,,,,,,,,,,,,,,,,,,,,,,,,,
,,,,,,,,2023-08-16_08h43.38.812,HF_wild_card,2022.2.4,Win32,59.98440405,5d8b35eebb2405000106ff4a,64d2fd46c836a06233681665,64dc7d26e573ae18ef7326cb,,,,,,,ctch,resources/DY.BMP,resources/DBN.BMP,Door4,0.155069504,-0.053472176,1,0,0,2.2596,optionRight,60,9760,5,2,0,2,0,1,,,,,,,,,,,,,,,,,,,,,,,,,,,,,,,,,,,,,,,
,,,,,,,,2023-08-16_08h43.38.812,HF_wild_card,2022.2.4,Win32,59.98440405,5d8b35eebb2405000106ff4a,64d2fd46c836a06233681665,64dc7d26e573ae18ef7326cb,,,,,,,decisionTrl,resources/DBN.BMP,resources/DB.BMP,Door3,0.227291489,-0.057638855,1,0,0,1.5219,optionRight,70,9830,5,3,0,3,0,1,,,,,,,,,,,,,,,,,,,,,,,,,,,,,,,,,,,,,,,
,,,,,,,,2023-08-16_08h43.38.812,HF_wild_card,2022.2.4,Win32,59.98440405,5d8b35eebb2405000106ff4a,64d2fd46c836a06233681665,64dc7d26e573ae18ef7326cb,,,,,,,decisionTrl,resources/DB.BMP,resources/DBN.BMP,Door3,-0.120625153,0.007638969,1,0,0,1.7702,optionLeft,70,9900,5,4,0,4,0,1,,,,,,,,,,,,,,,,,,,,,,,,,,,,,,,,,,,,,,,
,,,,,,,,2023-08-16_08h43.38.812,HF_wild_card,2022.2.4,Win32,59.98440405,5d8b35eebb2405000106ff4a,64d2fd46c836a06233681665,64dc7d26e573ae18ef7326cb,,,,,,,decisionTrl,resources/DY.BMP,resources/DG.BMP,Door2,0.177986069,-0.045138855,1,0,0,2.153,optionRight,40,9940,5,5,0,5,0,1,,,,,,,,,,,,,,,,,,,,,,,,,,,,,,,,,,,,,,,
,,,,,,,,2023-08-16_08h43.38.812,HF_wild_card,2022.2.4,Win32,59.98440405,5d8b35eebb2405000106ff4a,64d2fd46c836a06233681665,64dc7d26e573ae18ef7326cb,,,,,,,decisionTrl,resources/DR.BMP,resources/DY.BMP,WildCard_Ex,-0.126180573,0.006944466,1,0,0,1.1746,optionLeft,95,10035,5,6,0,6,0,1,,,,,,,,,,,,,,,,,,,,,,,,,,,,,,,,,,,,,,,
,,,,,,,,2023-08-16_08h43.38.812,HF_wild_card,2022.2.4,Win32,59.98440405,5d8b35eebb2405000106ff4a,64d2fd46c836a06233681665,64dc7d26e573ae18ef7326cb,,,,,,,decisionTrl,resources/DBN.BMP,resources/DR.BMP,Door4,-0.127569504,0.013194466,1,0,0,1.3036,optionLeft,60,10095,5,7,0,7,0,1,,,,,,,,,,,,,,,,,,,,,,,,,,,,,,,,,,,,,,,
,,,,,,,,2023-08-16_08h43.38.812,HF_wild_card,2022.2.4,Win32,59.98440405,5d8b35eebb2405000106ff4a,64d2fd46c836a06233681665,64dc7d26e573ae18ef7326cb,,,,,,,ctch,resources/DB.BMP,resources/DG.BMP,Door3,-0.104652939,0.006250038,1,0,0,2.6207,optionLeft,70,10165,5,8,0,8,0,1,,,,,,,,,,,,,,,,,,,,,,,,,,,,,,,,,,,,,,,
,,,,,,,,2023-08-16_08h43.38.812,HF_wild_card,2022.2.4,Win32,59.98440405,5d8b35eebb2405000106ff4a,64d2fd46c836a06233681665,64dc7d26e573ae18ef7326cb,,,,,,,sngl,resources/DR.BMP,resources/Empty.png,WildCard_Ex,-0.131041718,-0.004166641,1,0,0,0.9068,optionLeft,95,10260,5,9,0,9,0,1,,,,,,,,,,,,,,,,,,,,,,,,,,,,,,,,,,,,,,,
,,,,,,,,2023-08-16_08h43.38.812,HF_wild_card,2022.2.4,Win32,59.98440405,5d8b35eebb2405000106ff4a,64d2fd46c836a06233681665,64dc7d26e573ae18ef7326cb,,,,,,,sngl,resources/DR.BMP,resources/Empty.png,WildCard_Ex,-0.14284729,0.011111145,1,0,0,1.2671,optionLeft,5,10265,5,10,0,10,0,1,,,,,,,,,,,,,,,,,,,,,,,,,,,,,,,,,,,,,,,
,,,,,,,,2023-08-16_08h43.38.812,HF_wild_card,2022.2.4,Win32,59.98440405,5d8b35eebb2405000106ff4a,64d2fd46c836a06233681665,64dc7d26e573ae18ef7326cb,,,,,,,decisionTrl,resources/DB.BMP,resources/DBN.BMP,Door3,-0.201180573,0.019444466,1,0,0,1.9624,optionLeft,70,10335,5,11,0,11,0,1,,,,,,,,,,,,,,,,,,,,,,,,,,,,,,,,,,,,,,,
,,,,,,,,2023-08-16_08h43.38.812,HF_wild_card,2022.2.4,Win32,59.98440405,5d8b35eebb2405000106ff4a,64d2fd46c836a06233681665,64dc7d26e573ae18ef7326cb,,,,,,,sngl,resources/DY.BMP,resources/Empty.png,Door1,-0.123402786,-0.000694427,1,0,0,0.9239,optionLeft,30,10365,5,12,0,12,0,1,,,,,,,,,,,,,,,,,,,,,,,,,,,,,,,,,,,,,,,
,,,,,,,,2023-08-16_08h43.38.812,HF_wild_card,2022.2.4,Win32,59.98440405,5d8b35eebb2405000106ff4a,64d2fd46c836a06233681665,64dc7d26e573ae18ef7326cb,,,,,,,decisionTrl,resources/DG.BMP,resources/DR.BMP,WildCard_Ex,0.191180496,-0.064583244,1,0,0,0.8031,optionRight,95,10460,5,13,0,13,0,1,,,,,,,,,,,,,,,,,,,,,,,,,,,,,,,,,,,,,,,
,,,,,,,,2023-08-16_08h43.38.812,HF_wild_card,2022.2.4,Win32,59.98440405,5d8b35eebb2405000106ff4a,64d2fd46c836a06233681665,64dc7d26e573ae18ef7326cb,,,,,,,sngl,resources/Empty.png,resources/DG.BMP,Door2,0.130763855,-0.047222176,1,0,0,0.8789,optionRight,20,10480,5,14,0,14,0,1,,,,,,,,,,,,,,,,,,,,,,,,,,,,,,,,,,,,,,,
,,,,,,,,2023-08-16_08h43.38.812,HF_wild_card,2022.2.4,Win32,59.98440405,5d8b35eebb2405000106ff4a,64d2fd46c836a06233681665,64dc7d26e573ae18ef7326cb,,,,,,,decisionTrl,resources/DBN.BMP,resources/DB.BMP,Door3,0.180069351,-0.038194313,1,0,0,1.7712,optionRight,70,10550,5,15,0,15,0,1,,,,,,,,,,,,,,,,,,,,,,,,,,,,,,,,,,,,,,,
,,,,,,,,2023-08-16_08h43.38.812,HF_wild_card,2022.2.4,Win32,59.98440405,5d8b35eebb2405000106ff4a,64d2fd46c836a06233681665,64dc7d26e573ae18ef7326cb,,,,,,,decisionTrl,resources/DG.BMP,resources/DY.BMP,Door2,-0.123402786,0.016666679,1,0,0,1.5203,optionLeft,20,10570,5,16,0,16,0,1,,,,,,,,,,,,,,,,,,,,,,,,,,,,,,,,,,,,,,,
,,,,,,,,2023-08-16_08h43.38.812,HF_wild_card,2022.2.4,Win32,59.98440405,5d8b35eebb2405000106ff4a,64d2fd46c836a06233681665,64dc7d26e573ae18ef7326cb,,,,,,,decisionTrl,resources/DB.BMP,resources/DR.BMP,Door3,-0.114375153,0.022222252,1,0,0,1.7557,optionLeft,70,10640,5,17,0,17,0,1,,,,,,,,,,,,,,,,,,,,,,,,,,,,,,,,,,,,,,,
,,,,,,,,2023-08-16_08h43.38.812,HF_wild_card,2022.2.4,Win32,59.98440405,5d8b35eebb2405000106ff4a,64d2fd46c836a06233681665,64dc7d26e573ae18ef7326cb,,,,,,,sngl,resources/DB.BMP,resources/Empty.png,Door3,-0.122708359,0.025694466,1,0,0,1.1468,optionLeft,70,10710,5,18,0,18,0,1,,,,,,,,,,,,,,,,,,,,,,,,,,,,,,,,,,,,,,,
,,,,,,,,2023-08-16_08h43.38.812,HF_wild_card,2022.2.4,Win32,59.98440405,5d8b35eebb2405000106ff4a,64d2fd46c836a06233681665,64dc7d26e573ae18ef7326cb,,,,,,,ctch,resources/DG.BMP,resources/DB.BMP,Door3,0.178680496,-0.035416641,1,0,0,1.4155,optionRight,70,10780,5,19,0,19,0,1,,,,,,,,,,,,,,,,,,,,,,,,,,,,,,,,,,,,,,,
,,,,,,,,2023-08-16_08h43.38.812,HF_wild_card,2022.2.4,Win32,59.98440405,5d8b35eebb2405000106ff4a,64d2fd46c836a06233681665,64dc7d26e573ae18ef7326cb,,,,,,,decisionTrl,resources/DR.BMP,resources/DG.BMP,WildCard_Ex,-0.119930573,0.018750038,1,0,0,0.9081,optionLeft,5,10785,5,20,0,20,0,1,,,,,,,,,,,,,,,,,,,,,,,,,,,,,,,,,,,,,,,
,,,,,,,,2023-08-16_08h43.38.812,HF_wild_card,2022.2.4,Win32,59.98440405,5d8b35eebb2405000106ff4a,64d2fd46c836a06233681665,64dc7d26e573ae18ef7326cb,,,,,,,decisionTrl,resources/DG.BMP,resources/DY.BMP,Door2,-0.162986145,0.031250038,1,0,0,4.2633,optionLeft,20,10805,5,21,0,21,0,1,,,,,,,,,,,,,,,,,,,,,,,,,,,,,,,,,,,,,,,
,,,,,,,,2023-08-16_08h43.38.812,HF_wild_card,2022.2.4,Win32,59.98440405,5d8b35eebb2405000106ff4a,64d2fd46c836a06233681665,64dc7d26e573ae18ef7326cb,,,,,,,decisionTrl,resources/DY.BMP,resources/DG.BMP,Door2,0.140486069,-0.024305534,1,0,0,2.9884,optionRight,20,10825,5,22,0,22,0,1,,,,,,,,,,,,,,,,,,,,,,,,,,,,,,,,,,,,,,,
,,,,,,,,2023-08-16_08h43.38.812,HF_wild_card,2022.2.4,Win32,59.98440405,5d8b35eebb2405000106ff4a,64d2fd46c836a06233681665,64dc7d26e573ae18ef7326cb,,,,,,,decisionTrl,resources/DB.BMP,resources/DBN.BMP,Door3,-0.107430573,0.015972252,1,0,0,1.8204,optionLeft,70,10895,5,23,0,23,0,1,,,,,,,,,,,,,,,,,,,,,,,,,,,,,,,,,,,,,,,
,,,,,,,,2023-08-16_08h43.38.812,HF_wild_card,2022.2.4,Win32,59.98440405,5d8b35eebb2405000106ff4a,64d2fd46c836a06233681665,64dc7d26e573ae18ef7326cb,,,,,,,ctch,resources/DY.BMP,resources/DBN.BMP,Door4,0.146041641,-0.031944389,1,0,0,2.7782,optionRight,60,10955,5,24,0,24,0,1,,,,,,,,,,,,,,,,,,,,,,,,,,,,,,,,,,,,,,,
,,,,,,,,2023-08-16_08h43.38.812,HF_wild_card,2022.2.4,Win32,59.98440405,5d8b35eebb2405000106ff4a,64d2fd46c836a06233681665,64dc7d26e573ae18ef7326cb,,,,,,,decisionTrl,resources/DR.BMP,resources/DBN.BMP,WildCard_Ex,-0.144930573,0.022916679,1,0,0,1.362,optionLeft,5,10960,5,25,0,25,0,1,,,,,,,,,,,,,,,,,,,,,,,,,,,,,,,,,,,,,,,
,,,,,,,,2023-08-16_08h43.38.812,HF_wild_card,2022.2.4,Win32,59.98440405,5d8b35eebb2405000106ff4a,64d2fd46c836a06233681665,64dc7d26e573ae18ef7326cb,,,,,,,sngl,resources/Empty.png,resources/DR.BMP,WildCard_Ex,0.195347137,-0.064583244,1,0,0,0.9542,optionRight,95,11055,5,26,0,26,0,1,,,,,,,,,,,,,,,,,,,,,,,,,,,,,,,,,,,,,,,
,,,,,,,,2023-08-16_08h43.38.812,HF_wild_card,2022.2.4,Win32,59.98440405,5d8b35eebb2405000106ff4a,64d2fd46c836a06233681665,64dc7d26e573ae18ef7326cb,,,,,,,decisionTrl,resources/DB.BMP,resources/DBN.BMP,Door3,-0.128263931,-0.004861031,1,0,0,1.6562,optionLeft,70,11125,5,27,0,27,0,1,,,,,,,,,,,,,,,,,,,,,,,,,,,,,,,,,,,,,,,
,,,,,,,,2023-08-16_08h43.38.812,HF_wild_card,2022.2.4,Win32,59.98440405,5d8b35eebb2405000106ff4a,64d2fd46c836a06233681665,64dc7d26e573ae18ef7326cb,,,,,,,decisionTrl,resources/DG.BMP,resources/DY.BMP,Door2,-0.142152786,-0.002083321,1,0,0,2.9334,optionLeft,40,11165,5,28,0,28,0,1,,,,,,,,,,,,,,,,,,,,,,,,,,,,,,,,,,,,,,,
,,,,,,,,2023-08-16_08h43.38.812,HF_wild_card,2022.2.4,Win32,59.98440405,5d8b35eebb2405000106ff4a,64d2fd46c836a06233681665,64dc7d26e573ae18ef7326cb,,,,,,,decisionTrl,resources/DG.BMP,resources/DY.BMP,Door2,-0.102569504,-0.011805534,1,0,0,1.7773,optionLeft,40,11205,5,29,0,29,0,1,,,,,,,,,,,,,,,,,,,,,,,,,,,,,,,,,,,,,,,
,,,,,,,,2023-08-16_08h43.38.812,HF_wild_card,2022.2.4,Win32,59.98440405,5d8b35eebb2405000106ff4a,64d2fd46c836a06233681665,64dc7d26e573ae18ef7326cb,,,,,,,decisionTrl,resources/DY.BMP,resources/DG.BMP,Door2,0.152291641,-0.043055534,1,0,0,2.6764,optionRight,40,11245,5,30,0,30,0,1,,,,,,,,,,,,,,,,,,,,,,,,,,,,,,,,,,,,,,,
,,,,,,,,2023-08-16_08h43.38.812,HF_wild_card,2022.2.4,Win32,59.98440405,5d8b35eebb2405000106ff4a,64d2fd46c836a06233681665,64dc7d26e573ae18ef7326cb,,,,,,,decisionTrl,resources/DY.BMP,resources/DR.BMP,Door1,-0.109513931,-0.009722137,1,0,0,1.4143,optionLeft,30,11275,5,31,0,31,0,1,,,,,,,,,,,,,,,,,,,,,,,,,,,,,,,,,,,,,,,
,,,,,,,,2023-08-16_08h43.38.812,HF_wild_card,2022.2.4,Win32,59.98440405,5d8b35eebb2405000106ff4a,64d2fd46c836a06233681665,64dc7d26e573ae18ef7326cb,,,,,,,decisionTrl,resources/DY.BMP,resources/DG.BMP,Door2,0.15090271,-0.047916641,1,0,0,1.6625,optionRight,40,11315,5,32,0,32,0,1,,,,,,,,,,,,,,,,,,,,,,,,,,,,,,,,,,,,,,,
,,,,,,,,2023-08-16_08h43.38.812,HF_wild_card,2022.2.4,Win32,59.98440405,5d8b35eebb2405000106ff4a,64d2fd46c836a06233681665,64dc7d26e573ae18ef7326cb,,,,,,,ctch,resources/DB.BMP,resources/DG.BMP,Door3,-0.131041718,-0.003472137,1,0,0,1.2143,optionLeft,70,11385,5,33,0,33,0,1,,,,,,,,,,,,,,,,,,,,,,,,,,,,,,,,,,,,,,,
,,,,,,,,2023-08-16_08h43.38.812,HF_wild_card,2022.2.4,Win32,59.98440405,5d8b35eebb2405000106ff4a,64d2fd46c836a06233681665,64dc7d26e573ae18ef7326cb,,,,,,,sngl,resources/Empty.png,resources/DB.BMP,Door3,0.125208282,-0.047222176,1,0,0,0.9367,optionRight,70,11455,5,34,0,34,0,1,,,,,,,,,,,,,,,,,,,,,,,,,,,,,,,,,,,,,,,
,,,,,,,,2023-08-16_08h43.38.812,HF_wild_card,2022.2.4,Win32,59.98440405,5d8b35eebb2405000106ff4a,64d2fd46c836a06233681665,64dc7d26e573ae18ef7326cb,,,,,,,sngl,resources/DBN.BMP,resources/Empty.png,Door4,-0.108125153,-0.018055534,1,0,0,0.8625,optionLeft,80,11535,5,35,0,35,0,1,,,,,,,,,,,,,,,,,,,,,,,,,,,,,,,,,,,,,,,
,,,,,,,,2023-08-16_08h43.38.812,HF_wild_card,2022.2.4,Win32,59.98440405,5d8b35eebb2405000106ff4a,64d2fd46c836a06233681665,64dc7d26e573ae18ef7326cb,,,,,,,sngl,resources/Empty.png,resources/DBN.BMP,Door4,0.178680496,-0.057638855,1,0,0,0.8108,optionRight,60,11595,5,36,0,36,0,1,,,,,,,,,,,,,,,,,,,,,,,,,,,,,,,,,,,,,,,
,,,,,,,,2023-08-16_08h43.38.812,HF_wild_card,2022.2.4,Win32,59.98440405,5d8b35eebb2405000106ff4a,64d2fd46c836a06233681665,64dc7d26e573ae18ef7326cb,,,,,,,decisionTrl,resources/DBN.BMP,resources/DB.BMP,Door4,-0.117152786,-0.017361031,1,0,0,0.7442,optionLeft,60,11655,5,37,0,37,0,1,,,,,,,,,,,,,,,,,,,,,,,,,,,,,,,,,,,,,,,
,,,,,,,,2023-08-16_08h43.38.812,HF_wild_card,2022.2.4,Win32,59.98440405,5d8b35eebb2405000106ff4a,64d2fd46c836a06233681665,64dc7d26e573ae18ef7326cb,,,,,,,ctch,resources/DBN.BMP,resources/DY.BMP,Door4,-0.10534729,-0.009027748,1,0,0,1.7706,optionLeft,80,11735,5,38,0,38,0,1,,,,,,,,,,,,,,,,,,,,,,,,,,,,,,,,,,,,,,,
,,,,,,,,2023-08-16_08h43.38.812,HF_wild_card,2022.2.4,Win32,59.98440405,5d8b35eebb2405000106ff4a,64d2fd46c836a06233681665,64dc7d26e573ae18ef7326cb,,,,,,,ctch,resources/DG.BMP,resources/DB.BMP,Door3,0.173124924,-0.057638855,1,0,0,0.9401,optionRight,70,11805,5,39,0,39,0,1,,,,,,,,,,,,,,,,,,,,,,,,,,,,,,,,,,,,,,,
,,,,,,,,2023-08-16_08h43.38.812,HF_wild_card,2022.2.4,Win32,59.98440405,5d8b35eebb2405000106ff4a,64d2fd46c836a06233681665,64dc7d26e573ae18ef7326cb,,,,,,,decisionTrl,resources/DBN.BMP,resources/DB.BMP,Door3,0.177986069,-0.044444313,1,0,0,1.404,optionRight,70,11875,5,40,0,40,0,1,,,,,,,,,,,,,,,,,,,,,,,,,,,,,,,,,,,,,,,
,,,,,,,,2023-08-16_08h43.38.812,HF_wild_card,2022.2.4,Win32,59.98440405,5d8b35eebb2405000106ff4a,64d2fd46c836a06233681665,64dc7d26e573ae18ef7326cb,,,,,,,sngl,resources/Empty.png,resources/DY.BMP,Door1,0.152291641,-0.043055534,1,0,0,2.0055,optionRight,30,11905,5,41,0,41,0,1,,,,,,,,,,,,,,,,,,,,,,,,,,,,,,,,,,,,,,,
,,,,,,,,2023-08-16_08h43.38.812,HF_wild_card,2022.2.4,Win32,59.98440405,5d8b35eebb2405000106ff4a,64d2fd46c836a06233681665,64dc7d26e573ae18ef7326cb,,,,,,,sngl,resources/DG.BMP,resources/Empty.png,Door2,-0.141458359,-0.009722137,1,0,0,0.7791,optionLeft,40,11945,5,42,0,42,0,1,,,,,,,,,,,,,,,,,,,,,,,,,,,,,,,,,,,,,,,
,,,,,,,,2023-08-16_08h43.38.812,HF_wild_card,2022.2.4,Win32,59.98440405,5d8b35eebb2405000106ff4a,64d2fd46c836a06233681665,64dc7d26e573ae18ef7326cb,,,,,,,decisionTrl,resources/DR.BMP,resources/DB.BMP,Door3,0.10715271,-0.050694313,1,0,0,1.4166,optionRight,70,12015,5,43,0,43,0,1,,,,,,,,,,,,,,,,,,,,,,,,,,,,,,,,,,,,,,,
,,,,,,,,2023-08-16_08h43.38.812,HF_wild_card,2022.2.4,Win32,59.98440405,5d8b35eebb2405000106ff4a,64d2fd46c836a06233681665,64dc7d26e573ae18ef7326cb,,,,,,,,,,,,,,,,,,,,,,,,,,4,0,4,0,1,,,,,,,,,,,,,,,,,,,,,,,,,,,,,,,,,,
,,,,,,,,2023-08-16_08h43.38.812,HF_wild_card,2022.2.4,Win32,59.98440405,5d8b35eebb2405000106ff4a,64d2fd46c836a06233681665,64dc7d26e573ae18ef7326cb,,,,,,,ctch,resources/DBN.BMP,resources/DY.BMP,Door4,-0.144930573,-0.033333244,1,0,0,1.5967,optionLeft,60,12075,6,0,0,0,0,1,,,,,,,,,,,,,,,,,,,,,,,,,,,,,,,,,,,,,,,
,,,,,,,,2023-08-16_08h43.38.812,HF_wild_card,2022.2.4,Win32,59.98440405,5d8b35eebb2405000106ff4a,64d2fd46c836a06233681665,64dc7d26e573ae18ef7326cb,,,,,,,decisionTrl,resources/DY.BMP,resources/DG.BMP,Door2,0.154374924,-0.047222176,1,0,0,1.343,optionRight,20,12095,6,1,0,1,0,1,,,,,,,,,,,,,,,,,,,,,,,,,,,,,,,,,,,,,,,
,,,,,,,,2023-08-16_08h43.38.812,HF_wild_card,2022.2.4,Win32,59.98440405,5d8b35eebb2405000106ff4a,64d2fd46c836a06233681665,64dc7d26e573ae18ef7326cb,,,,,,,sngl,resources/DR.BMP,resources/Empty.png,WildCard_Ex,-0.11784729,-0.006249962,1,0,0,0.8948,optionLeft,95,12190,6,2,0,2,0,1,,,,,,,,,,,,,,,,,,,,,,,,,,,,,,,,,,,,,,,
,,,,,,,,2023-08-16_08h43.38.812,HF_wild_card,2022.2.4,Win32,59.98440405,5d8b35eebb2405000106ff4a,64d2fd46c836a06233681665,64dc7d26e573ae18ef7326cb,,,,,,,decisionTrl,resources/DY.BMP,resources/DG.BMP,Door1,-0.121319504,-0.013194389,1,0,0,2.1135,optionLeft,30,12220,6,3,0,3,0,1,,,,,,,,,,,,,,,,,,,,,,,,,,,,,,,,,,,,,,,
,,,,,,,,2023-08-16_08h43.38.812,HF_wild_card,2022.2.4,Win32,59.98440405,5d8b35eebb2405000106ff4a,64d2fd46c836a06233681665,64dc7d26e573ae18ef7326cb,,,,,,,sngl,resources/DB.BMP,resources/Empty.png,Door3,-0.152569504,-0.003472137,1,0,0,0.7982,optionLeft,70,12290,6,4,0,4,0,1,,,,,,,,,,,,,,,,,,,,,,,,,,,,,,,,,,,,,,,
,,,,,,,,2023-08-16_08h43.38.812,HF_wild_card,2022.2.4,Win32,59.98440405,5d8b35eebb2405000106ff4a,64d2fd46c836a06233681665,64dc7d26e573ae18ef7326cb,,,,,,,ctch,resources/DBN.BMP,resources/DY.BMP,Door4,-0.11784729,-0.012499962,1,0,0,1.3961,optionLeft,80,12370,6,5,0,5,0,1,,,,,,,,,,,,,,,,,,,,,,,,,,,,,,,,,,,,,,,
,,,,,,,,2023-08-16_08h43.38.812,HF_wild_card,2022.2.4,Win32,59.98440405,5d8b35eebb2405000106ff4a,64d2fd46c836a06233681665,64dc7d26e573ae18ef7326cb,,,,,,,decisionTrl,resources/DBN.BMP,resources/DB.BMP,Door4,-0.114375153,-0.015277748,1,0,0,0.7984,optionLeft,80,12450,6,6,0,6,0,1,,,,,,,,,,,,,,,,,,,,,,,,,,,,,,,,,,,,,,,
,,,,,,,,2023-08-16_08h43.38.812,HF_wild_card,2022.2.4,Win32,59.98440405,5d8b35eebb2405000106ff4a,64d2fd46c836a06233681665,64dc7d26e573ae18ef7326cb,,,,,,,decisionTrl,resources/DG.BMP,resources/DY.BMP,Door2,-0.12409729,-0.006249962,1,0,0,2.7315,optionLeft,20,12470,6,7,0,7,0,1,,,,,,,,,,,,,,,,,,,,,,,,,,,,,,,,,,,,,,,
,,,,,,,,2023-08-16_08h43.38.812,HF_wild_card,2022.2.4,Win32,59.98440405,5d8b35eebb2405000106ff4a,64d2fd46c836a06233681665,64dc7d26e573ae18ef7326cb,,,,,,,decisionTrl,resources/DBN.BMP,resources/DB.BMP,Door3,0.152986069,-0.040277748,1,0,0,1.931,optionRight,70,12540,6,8,0,8,0,1,,,,,,,,,,,,,,,,,,,,,,,,,,,,,,,,,,,,,,,
,,,,,,,,2023-08-16_08h43.38.812,HF_wild_card,2022.2.4,Win32,59.98440405,5d8b35eebb2405000106ff4a,64d2fd46c836a06233681665,64dc7d26e573ae18ef7326cb,,,,,,,decisionTrl,resources/DBN.BMP,resources/DR.BMP,Door4,-0.115069504,0.001388969,1,0,0,2.045,optionLeft,60,12600,6,9,0,9,0,1,,,,,,,,,,,,,,,,,,,,,,,,,,,,,,,,,,,,,,,
,,,,,,,,2023-08-16_08h43.38.812,HF_wild_card,2022.2.4,Win32,59.98440405,5d8b35eebb2405000106ff4a,64d2fd46c836a06233681665,64dc7d26e573ae18ef7326cb,,,,,,,ctch,resources/DG.BMP,resources/DB.BMP,Door3,0.162708282,-0.039583244,1,0,0,1.3478,optionRight,70,12670,6,10,0,10,0,1,,,,,,,,,,,,,,,,,,,,,,,,,,,,,,,,,,,,,,,
,,,,,,,,2023-08-16_08h43.38.812,HF_wild_card,2022.2.4,Win32,59.98440405,5d8b35eebb2405000106ff4a,64d2fd46c836a06233681665,64dc7d26e573ae18ef7326cb,,,,,,,decisionTrl,resources/DBN.BMP,resources/DB.BMP,Door3,0.165486069,-0.034027748,1,0,0,1.7632,optionRight,70,12740,6,11,0,11,0,1,,,,,,,,,,,,,,,,,,,,,,,,,,,,,,,,,,,,,,,
,,,,,,,,2023-08-16_08h43.38.812,HF_wild_card,2022.2.4,Win32,59.98440405,5d8b35eebb2405000106ff4a,64d2fd46c836a06233681665,64dc7d26e573ae18ef7326cb,,,,,,,decisionTrl,resources/DB.BMP,resources/DBN.BMP,Door3,-0.156736145,0.013194466,1,0,0,1.1272,optionLeft,70,12810,6,12,0,12,0,1,,,,,,,,,,,,,,,,,,,,,,,,,,,,,,,,,,,,,,,
,,,,,,,,2023-08-16_08h43.38.812,HF_wild_card,2022.2.4,Win32,59.98440405,5d8b35eebb2405000106ff4a,64d2fd46c836a06233681665,64dc7d26e573ae18ef7326cb,,,,,,,decisionTrl,resources/DB.BMP,resources/DBN.BMP,Door3,-0.113680573,0.013888969,1,0,0,1.5108,optionLeft,70,12880,6,13,0,13,0,1,,,,,,,,,,,,,,,,,,,,,,,,,,,,,,,,,,,,,,,
,,,,,,,,2023-08-16_08h43.38.812,HF_wild_card,2022.2.4,Win32,59.98440405,5d8b35eebb2405000106ff4a,64d2fd46c836a06233681665,64dc7d26e573ae18ef7326cb,,,,,,,sngl,resources/Empty.png,resources/DBN.BMP,Door4,0.174513779,-0.040277748,1,0,0,1.1283,optionRight,80,12960,6,14,0,14,0,1,,,,,,,,,,,,,,,,,,,,,,,,,,,,,,,,,,,,,,,
,,,,,,,,2023-08-16_08h43.38.812,HF_wild_card,2022.2.4,Win32,59.98440405,5d8b35eebb2405000106ff4a,64d2fd46c836a06233681665,64dc7d26e573ae18ef7326cb,,,,,,,decisionTrl,resources/DB.BMP,resources/DBN.BMP,Door3,-0.122708359,0.001388969,1,0,0,1.9778,optionLeft,70,13030,6,15,0,15,0,1,,,,,,,,,,,,,,,,,,,,,,,,,,,,,,,,,,,,,,,
,,,,,,,,2023-08-16_08h43.38.812,HF_wild_card,2022.2.4,Win32,59.98440405,5d8b35eebb2405000106ff4a,64d2fd46c836a06233681665,64dc7d26e573ae18ef7326cb,,,,,,,ctch,resources/DY.BMP,resources/DBN.BMP,Door4,0.160624924,-0.031249962,1,0,0,1.8612,optionRight,60,13090,6,16,0,16,0,1,,,,,,,,,,,,,,,,,,,,,,,,,,,,,,,,,,,,,,,
,,,,,,,,2023-08-16_08h43.38.812,HF_wild_card,2022.2.4,Win32,59.98440405,5d8b35eebb2405000106ff4a,64d2fd46c836a06233681665,64dc7d26e573ae18ef7326cb,,,,,,,decisionTrl,resources/DG.BMP,resources/DY.BMP,Door2,-0.126875153,0.008333359,1,0,0,1.6617,optionLeft,40,13130,6,17,0,17,0,1,,,,,,,,,,,,,,,,,,,,,,,,,,,,,,,,,,,,,,,
,,,,,,,,2023-08-16_08h43.38.812,HF_wild_card,2022.2.4,Win32,59.98440405,5d8b35eebb2405000106ff4a,64d2fd46c836a06233681665,64dc7d26e573ae18ef7326cb,,,,,,,decisionTrl,resources/DY.BMP,resources/DG.BMP,Door2,0.150208282,-0.029166641,1,0,0,1.3989,optionRight,20,13150,6,18,0,18,0,1,,,,,,,,,,,,,,,,,,,,,,,,,,,,,,,,,,,,,,,
,,,,,,,,2023-08-16_08h43.38.812,HF_wild_card,2022.2.4,Win32,59.98440405,5d8b35eebb2405000106ff4a,64d2fd46c836a06233681665,64dc7d26e573ae18ef7326cb,,,,,,,decisionTrl,resources/DG.BMP,resources/DR.BMP,Door2,-0.128263931,-0.000694427,1,0,0,1.5952,optionLeft,20,13170,6,19,0,19,0,1,,,,,,,,,,,,,,,,,,,,,,,,,,,,,,,,,,,,,,,
,,,,,,,,2023-08-16_08h43.38.812,HF_wild_card,2022.2.4,Win32,59.98440405,5d8b35eebb2405000106ff4a,64d2fd46c836a06233681665,64dc7d26e573ae18ef7326cb,,,,,,,decisionTrl,resources/DR.BMP,resources/DG.BMP,WildCard_Ex,-0.143541718,3.8147E-08,1,0,0,1.9777,optionLeft,5,13175,6,20,0,20,0,1,,,,,,,,,,,,,,,,,,,,,,,,,,,,,,,,,,,,,,,
,,,,,,,,2023-08-16_08h43.38.812,HF_wild_card,2022.2.4,Win32,59.98440405,5d8b35eebb2405000106ff4a,64d2fd46c836a06233681665,64dc7d26e573ae18ef7326cb,,,,,,,decisionTrl,resources/DY.BMP,resources/DR.BMP,WildCard_Ex,0.192569351,-0.041666641,1,0,0,0.9477,optionRight,95,13270,6,21,0,21,0,1,,,,,,,,,,,,,,,,,,,,,,,,,,,,,,,,,,,,,,,
,,,,,,,,2023-08-16_08h43.38.812,HF_wild_card,2022.2.4,Win32,59.98440405,5d8b35eebb2405000106ff4a,64d2fd46c836a06233681665,64dc7d26e573ae18ef7326cb,,,,,,,decisionTrl,resources/DR.BMP,resources/DY.BMP,Door1,0.162013779,-0.042361069,1,0,0,1.3149,optionRight,30,13300,6,22,0,22,0,1,,,,,,,,,,,,,,,,,,,,,,,,,,,,,,,,,,,,,,,
,,,,,,,,2023-08-16_08h43.38.812,HF_wild_card,2022.2.4,Win32,59.98440405,5d8b35eebb2405000106ff4a,64d2fd46c836a06233681665,64dc7d26e573ae18ef7326cb,,,,,,,sngl,resources/DR.BMP,resources/Empty.png,WildCard_Ex,-0.127569504,-0.017361031,1,0,0,0.662,optionLeft,5,13305,6,23,0,23,0,1,,,,,,,,,,,,,,,,,,,,,,,,,,,,,,,,,,,,,,,
,,,,,,,,2023-08-16_08h43.38.812,HF_wild_card,2022.2.4,Win32,59.98440405,5d8b35eebb2405000106ff4a,64d2fd46c836a06233681665,64dc7d26e573ae18ef7326cb,,,,,,,sngl,resources/Empty.png,resources/DR.BMP,WildCard_Ex,0.162708282,-0.053472176,1,0,0,0.8451,optionRight,5,13310,6,24,0,24,0,1,,,,,,,,,,,,,,,,,,,,,,,,,,,,,,,,,,,,,,,
,,,,,,,,2023-08-16_08h43.38.812,HF_wild_card,2022.2.4,Win32,59.98440405,5d8b35eebb2405000106ff4a,64d2fd46c836a06233681665,64dc7d26e573ae18ef7326cb,,,,,,,ctch,resources/DG.BMP,resources/DB.BMP,Door3,0.167569504,-0.067361069,1,0,0,1.1991,optionRight,70,13380,6,25,0,25,0,1,,,,,,,,,,,,,,,,,,,,,,,,,,,,,,,,,,,,,,,
,,,,,,,,2023-08-16_08h43.38.812,HF_wild_card,2022.2.4,Win32,59.98440405,5d8b35eebb2405000106ff4a,64d2fd46c836a06233681665,64dc7d26e573ae18ef7326cb,,,,,,,sngl,resources/DY.BMP,resources/Empty.png,Door1,-0.131041718,-0.021527748,1,0,0,0.8616,optionLeft,30,13410,6,26,0,26,0,1,,,,,,,,,,,,,,,,,,,,,,,,,,,,,,,,,,,,,,,
,,,,,,,,2023-08-16_08h43.38.812,HF_wild_card,2022.2.4,Win32,59.98440405,5d8b35eebb2405000106ff4a,64d2fd46c836a06233681665,64dc7d26e573ae18ef7326cb,,,,,,,decisionTrl,resources/DB.BMP,resources/DR.BMP,Door3,-0.128958359,-0.025694389,1,0,0,1.4132,optionLeft,70,13480,6,27,0,27,0,1,,,,,,,,,,,,,,,,,,,,,,,,,,,,,,,,,,,,,,,
,,,,,,,,2023-08-16_08h43.38.812,HF_wild_card,2022.2.4,Win32,59.98440405,5d8b35eebb2405000106ff4a,64d2fd46c836a06233681665,64dc7d26e573ae18ef7326cb,,,,,,,decisionTrl,resources/DY.BMP,resources/DG.BMP,Door2,0.102986069,-0.043055534,1,0,0,2.2149,optionRight,40,13520,6,28,0,28,0,1,,,,,,,,,,,,,,,,,,,,,,,,,,,,,,,,,,,,,,,
,,,,,,,,2023-08-16_08h43.38.812,HF_wild_card,2022.2.4,Win32,59.98440405,5d8b35eebb2405000106ff4a,64d2fd46c836a06233681665,64dc7d26e573ae18ef7326cb,,,,,,,decisionTrl,resources/DR.BMP,resources/DB.BMP,Door3,0.131458282,-0.054861069,1,0,0,1.2624,optionRight,70,13590,6,29,0,29,0,1,,,,,,,,,,,,,,,,,,,,,,,,,,,,,,,,,,,,,,,
,,,,,,,,2023-08-16_08h43.38.812,HF_wild_card,2022.2.4,Win32,59.98440405,5d8b35eebb2405000106ff4a,64d2fd46c836a06233681665,64dc7d26e573ae18ef7326cb,,,,,,,decisionTrl,resources/DG.BMP,resources/DY.BMP,Door2,-0.123402786,-0.021527748,1,0,0,2.1146,optionLeft,40,13630,6,30,0,30,0,1,,,,,,,,,,,,,,,,,,,,,,,,,,,,,,,,,,,,,,,
,,,,,,,,2023-08-16_08h43.38.812,HF_wild_card,2022.2.4,Win32,59.98440405,5d8b35eebb2405000106ff4a,64d2fd46c836a06233681665,64dc7d26e573ae18ef7326cb,,,,,,,sngl,resources/Empty.png,resources/DR.BMP,WildCard_Ex,0.154374924,-0.052777748,1,0,0,0.9112,optionRight,95,13725,6,31,0,31,0,1,,,,,,,,,,,,,,,,,,,,,,,,,,,,,,,,,,,,,,,
,,,,,,,,2023-08-16_08h43.38.812,HF_wild_card,2022.2.4,Win32,59.98440405,5d8b35eebb2405000106ff4a,64d2fd46c836a06233681665,64dc7d26e573ae18ef7326cb,,,,,,,sngl,resources/DG.BMP,resources/Empty.png,Door2,-0.129652786,-0.018749962,1,0,0,0.7647,optionLeft,20,13745,6,32,0,32,0,1,,,,,,,,,,,,,,,,,,,,,,,,,,,,,,,,,,,,,,,
,,,,,,,,2023-08-16_08h43.38.812,HF_wild_card,2022.2.4,Win32,59.98440405,5d8b35eebb2405000106ff4a,64d2fd46c836a06233681665,64dc7d26e573ae18ef7326cb,,,,,,,sngl,resources/DBN.BMP,resources/Empty.png,Door4,-0.11159729,-0.019444389,1,0,0,0.9981,optionLeft,60,13805,6,33,0,33,0,1,,,,,,,,,,,,,,,,,,,,,,,,,,,,,,,,,,,,,,,
,,,,,,,,2023-08-16_08h43.38.812,HF_wild_card,2022.2.4,Win32,59.98440405,5d8b35eebb2405000106ff4a,64d2fd46c836a06233681665,64dc7d26e573ae18ef7326cb,,,,,,,ctch,resources/DB.BMP,resources/DG.BMP,Door3,-0.104652939,-0.024305534,1,0,0,1.4485,optionLeft,70,13875,6,34,0,34,0,1,,,,,,,,,,,,,,,,,,,,,,,,,,,,,,,,,,,,,,,
,,,,,,,,2023-08-16_08h43.38.812,HF_wild_card,2022.2.4,Win32,59.98440405,5d8b35eebb2405000106ff4a,64d2fd46c836a06233681665,64dc7d26e573ae18ef7326cb,,,,,,,decisionTrl,resources/DBN.BMP,resources/DB.BMP,Door3,0.134930496,-0.026388855,1,0,0,1.2796,optionRight,70,13945,6,35,0,35,0,1,,,,,,,,,,,,,,,,,,,,,,,,,,,,,,,,,,,,,,,
,,,,,,,,2023-08-16_08h43.38.812,HF_wild_card,2022.2.4,Win32,59.98440405,5d8b35eebb2405000106ff4a,64d2fd46c836a06233681665,64dc7d26e573ae18ef7326cb,,,,,,,decisionTrl,resources/DB.BMP,resources/DBN.BMP,Door3,-0.14284729,0.009027863,1,0,0,0.9422,optionLeft,70,14015,6,36,0,36,0,1,,,,,,,,,,,,,,,,,,,,,,,,,,,,,,,,,,,,,,,
,,,,,,,,2023-08-16_08h43.38.812,HF_wild_card,2022.2.4,Win32,59.98440405,5d8b35eebb2405000106ff4a,64d2fd46c836a06233681665,64dc7d26e573ae18ef7326cb,,,,,,,sngl,resources/Empty.png,resources/DB.BMP,Door3,0.14465271,-0.018749962,1,0,0,0.7114,optionRight,70,14085,6,37,0,37,0,1,,,,,,,,,,,,,,,,,,,,,,,,,,,,,,,,,,,,,,,
,,,,,,,,2023-08-16_08h43.38.812,HF_wild_card,2022.2.4,Win32,59.98440405,5d8b35eebb2405000106ff4a,64d2fd46c836a06233681665,64dc7d26e573ae18ef7326cb,,,,,,,ctch,resources/DY.BMP,resources/DBN.BMP,Door4,0.146041641,-0.018055534,1,0,0,1.7289,optionRight,80,14165,6,38,0,38,0,1,,,,,,,,,,,,,,,,,,,,,,,,,,,,,,,,,,,,,,,
,,,,,,,,2023-08-16_08h43.38.812,HF_wild_card,2022.2.4,Win32,59.98440405,5d8b35eebb2405000106ff4a,64d2fd46c836a06233681665,64dc7d26e573ae18ef7326cb,,,,,,,ctch,resources/DB.BMP,resources/DG.BMP,Door3,-0.115763931,0.005555573,1,0,0,1.2792,optionLeft,70,14235,6,39,0,39,0,1,,,,,,,,,,,,,,,,,,,,,,,,,,,,,,,,,,,,,,,
,,,,,,,,2023-08-16_08h43.38.812,HF_wild_card,2022.2.4,Win32,59.98440405,5d8b35eebb2405000106ff4a,64d2fd46c836a06233681665,64dc7d26e573ae18ef7326cb,,,,,,,sngl,resources/Empty.png,resources/DG.BMP,Door2,0.182847137,-0.022916641,1,0,0,0.9615,optionRight,40,14275,6,40,0,40,0,1,,,,,,,,,,,,,,,,,,,,,,,,,,,,,,,,,,,,,,,
,,,,,,,,2023-08-16_08h43.38.812,HF_wild_card,2022.2.4,Win32,59.98440405,5d8b35eebb2405000106ff4a,64d2fd46c836a06233681665,64dc7d26e573ae18ef7326cb,,,,,,,sngl,resources/Empty.png,resources/DY.BMP,Door1,0.173124924,-0.030555534,1,0,0,0.8787,optionRight,30,14305,6,41,0,41,0,1,,,,,,,,,,,,,,,,,,,,,,,,,,,,,,,,,,,,,,,
,,,,,,,,2023-08-16_08h43.38.812,HF_wild_card,2022.2.4,Win32,59.98440405,5d8b35eebb2405000106ff4a,64d2fd46c836a06233681665,64dc7d26e573ae18ef7326cb,,,,,,,decisionTrl,resources/DR.BMP,resources/DBN.BMP,Door4,0.164791641,-0.013194389,1,0,0,1.5276,optionRight,60,14365,6,42,0,42,0,1,,,,,,,,,,,,,,,,,,,,,,,,,,,,,,,,,,,,,,,
,,,,,,,,2023-08-16_08h43.38.812,HF_wild_card,2022.2.4,Win32,59.98440405,5d8b35eebb2405000106ff4a,64d2fd46c836a06233681665,64dc7d26e573ae18ef7326cb,,,,,,,decisionTrl,resources/DG.BMP,resources/DY.BMP,Door2,-0.143541718,0.022916679,1,0,0,1.4289,optionLeft,40,14405,6,43,0,43,0,1,,,,,,,,,,,,,,,,,,,,,,,,,,,,,,,,,,,,,,,
,,,,,,,,2023-08-16_08h43.38.812,HF_wild_card,2022.2.4,Win32,59.98440405,5d8b35eebb2405000106ff4a,64d2fd46c836a06233681665,64dc7d26e573ae18ef7326cb,,,,,,,,,,,,,,,,,,,,,,,,,,5,0,5,0,1,,,,,,,,,,,,,,,,,,,,,,,,,,,,,,,,,,
,,,,,,,,2023-08-16_08h43.38.812,HF_wild_card,2022.2.4,Win32,59.98440405,5d8b35eebb2405000106ff4a,64d2fd46c836a06233681665,64dc7d26e573ae18ef7326cb,,,,,,,decisionTrl,resources/DY.BMP,resources/DG.BMP,Door2,0.137013779,-0.115972176,1,0,0,3.2237,optionRight,40,14445,7,0,0,0,0,1,,,,,,,,,,,,,,,,,,,,,,,,,,,,,,,,,,,,,,,
,,,,,,,,2023-08-16_08h43.38.812,HF_wild_card,2022.2.4,Win32,59.98440405,5d8b35eebb2405000106ff4a,64d2fd46c836a06233681665,64dc7d26e573ae18ef7326cb,,,,,,,decisionTrl,resources/DG.BMP,resources/DY.BMP,Door2,-0.151180573,-0.023611031,1,0,0,3.1142,optionLeft,20,14465,7,1,0,1,0,1,,,,,,,,,,,,,,,,,,,,,,,,,,,,,,,,,,,,,,,
,,,,,,,,2023-08-16_08h43.38.812,HF_wild_card,2022.2.4,Win32,59.98440405,5d8b35eebb2405000106ff4a,64d2fd46c836a06233681665,64dc7d26e573ae18ef7326cb,,,,,,,ctch,resources/DB.BMP,resources/DG.BMP,Door3,-0.134513931,-0.023611031,1,0,0,1.0663,optionLeft,70,14535,7,2,0,2,0,1,,,,,,,,,,,,,,,,,,,,,,,,,,,,,,,,,,,,,,,
,,,,,,,,2023-08-16_08h43.38.812,HF_wild_card,2022.2.4,Win32,59.98440405,5d8b35eebb2405000106ff4a,64d2fd46c836a06233681665,64dc7d26e573ae18ef7326cb,,,,,,,ctch,resources/DB.BMP,resources/DG.BMP,Door3,-0.159513931,-0.021527748,1,0,0,0.8489,optionLeft,70,14605,7,3,0,3,0,1,,,,,,,,,,,,,,,,,,,,,,,,,,,,,,,,,,,,,,,
,,,,,,,,2023-08-16_08h43.38.812,HF_wild_card,2022.2.4,Win32,59.98440405,5d8b35eebb2405000106ff4a,64d2fd46c836a06233681665,64dc7d26e573ae18ef7326cb,,,,,,,decisionTrl,resources/DBN.BMP,resources/DB.BMP,Door3,0.199513626,-0.065277748,1,0,0,1.2815,optionRight,70,14675,7,4,0,4,0,1,,,,,,,,,,,,,,,,,,,,,,,,,,,,,,,,,,,,,,,
,,,,,,,,2023-08-16_08h43.38.812,HF_wild_card,2022.2.4,Win32,59.98440405,5d8b35eebb2405000106ff4a,64d2fd46c836a06233681665,64dc7d26e573ae18ef7326cb,,,,,,,decisionTrl,resources/DBN.BMP,resources/DB.BMP,Door3,0.177291489,-0.065277748,1,0,0,0.8322,optionRight,70,14745,7,5,0,5,0,1,,,,,,,,,,,,,,,,,,,,,,,,,,,,,,,,,,,,,,,
,,,,,,,,2023-08-16_08h43.38.812,HF_wild_card,2022.2.4,Win32,59.98440405,5d8b35eebb2405000106ff4a,64d2fd46c836a06233681665,64dc7d26e573ae18ef7326cb,,,,,,,ctch,resources/DY.BMP,resources/DBN.BMP,Door4,0.189097137,-0.0625,1,0,0,1.6823,optionRight,80,14825,7,6,0,6,0,1,,,,,,,,,,,,,,,,,,,,,,,,,,,,,,,,,,,,,,,
,,,,,,,,2023-08-16_08h43.38.812,HF_wild_card,2022.2.4,Win32,59.98440405,5d8b35eebb2405000106ff4a,64d2fd46c836a06233681665,64dc7d26e573ae18ef7326cb,,,,,,,decisionTrl,resources/DY.BMP,resources/DG.BMP,Door2,0.13215271,-0.006944427,1,0,0,1.8812,optionRight,40,14865,7,7,0,7,0,1,,,,,,,,,,,,,,,,,,,,,,,,,,,,,,,,,,,,,,,
,,,,,,,,2023-08-16_08h43.38.812,HF_wild_card,2022.2.4,Win32,59.98440405,5d8b35eebb2405000106ff4a,64d2fd46c836a06233681665,64dc7d26e573ae18ef7326cb,,,,,,,decisionTrl,resources/DB.BMP,resources/DBN.BMP,Door3,-0.11784729,0.013194466,1,0,0,1.1978,optionLeft,70,14935,7,8,0,8,0,1,,,,,,,,,,,,,,,,,,,,,,,,,,,,,,,,,,,,,,,
,,,,,,,,2023-08-16_08h43.38.812,HF_wild_card,2022.2.4,Win32,59.98440405,5d8b35eebb2405000106ff4a,64d2fd46c836a06233681665,64dc7d26e573ae18ef7326cb,,,,,,,decisionTrl,resources/DB.BMP,resources/DBN.BMP,Door3,-0.137986145,0.017361145,1,0,0,0.9494,optionLeft,70,15005,7,9,0,9,0,1,,,,,,,,,,,,,,,,,,,,,,,,,,,,,,,,,,,,,,,
,,,,,,,,2023-08-16_08h43.38.812,HF_wild_card,2022.2.4,Win32,59.98440405,5d8b35eebb2405000106ff4a,64d2fd46c836a06233681665,64dc7d26e573ae18ef7326cb,,,,,,,decisionTrl,resources/DBN.BMP,resources/DB.BMP,Door3,0.141180496,-0.029166641,1,0,0,1.1485,optionRight,70,15075,7,10,0,10,0,1,,,,,,,,,,,,,,,,,,,,,,,,,,,,,,,,,,,,,,,
,,,,,,,,2023-08-16_08h43.38.812,HF_wild_card,2022.2.4,Win32,59.98440405,5d8b35eebb2405000106ff4a,64d2fd46c836a06233681665,64dc7d26e573ae18ef7326cb,,,,,,,decisionTrl,resources/DY.BMP,resources/DG.BMP,Door2,0.129374924,-0.028472252,1,0,0,1.7137,optionRight,20,15095,7,11,0,11,0,1,,,,,,,,,,,,,,,,,,,,,,,,,,,,,,,,,,,,,,,
,,,,,,,,2023-08-16_08h43.38.812,HF_wild_card,2022.2.4,Win32,59.98440405,5d8b35eebb2405000106ff4a,64d2fd46c836a06233681665,64dc7d26e573ae18ef7326cb,,,,,,,decisionTrl,resources/DY.BMP,resources/DG.BMP,Door1,-0.103263931,-0.005555534,1,0,0,1.7653,optionLeft,30,15125,7,12,0,12,0,1,,,,,,,,,,,,,,,,,,,,,,,,,,,,,,,,,,,,,,,
,,,,,,,,2023-08-16_08h43.38.812,HF_wild_card,2022.2.4,Win32,59.98440405,5d8b35eebb2405000106ff4a,64d2fd46c836a06233681665,64dc7d26e573ae18ef7326cb,,,,,,,ctch,resources/DBN.BMP,resources/DY.BMP,Door4,-0.116458359,0.009722252,1,0,0,1.4309,optionLeft,60,15185,7,13,0,13,0,1,,,,,,,,,,,,,,,,,,,,,,,,,,,,,,,,,,,,,,,
,,,,,,,,2023-08-16_08h43.38.812,HF_wild_card,2022.2.4,Win32,59.98440405,5d8b35eebb2405000106ff4a,64d2fd46c836a06233681665,64dc7d26e573ae18ef7326cb,,,,,,,decisionTrl,resources/DG.BMP,resources/DY.BMP,Door1,0.105763855,-0.018055534,1,0,0,1.7809,optionRight,30,15215,7,14,0,14,0,1,,,,,,,,,,,,,,,,,,,,,,,,,,,,,,,,,,,,,,,
,,,,,,,,2023-08-16_08h43.38.812,HF_wild_card,2022.2.4,Win32,59.98440405,5d8b35eebb2405000106ff4a,64d2fd46c836a06233681665,64dc7d26e573ae18ef7326cb,,,,,,,ctch,resources/DG.BMP,resources/DB.BMP,Door3,0.191180496,-0.04375,1,0,0,1.2141,optionRight,70,15285,7,15,0,15,0,1,,,,,,,,,,,,,,,,,,,,,,,,,,,,,,,,,,,,,,,
,,,,,,,,2023-08-16_08h43.38.812,HF_wild_card,2022.2.4,Win32,59.98440405,5d8b35eebb2405000106ff4a,64d2fd46c836a06233681665,64dc7d26e573ae18ef7326cb,,,,,,,ctch,resources/DG.BMP,resources/DB.BMP,Door3,0.135624924,-0.024305534,1,0,0,0.6979,optionRight,70,15355,7,16,0,16,0,1,,,,,,,,,,,,,,,,,,,,,,,,,,,,,,,,,,,,,,,
,,,,,,,,2023-08-16_08h43.38.812,HF_wild_card,2022.2.4,Win32,59.98440405,5d8b35eebb2405000106ff4a,64d2fd46c836a06233681665,64dc7d26e573ae18ef7326cb,,,,,,,decisionTrl,resources/DG.BMP,resources/DY.BMP,Door2,-0.114375153,0.019444466,1,0,0,2.3141,optionLeft,40,15395,7,17,0,17,0,1,,,,,,,,,,,,,,,,,,,,,,,,,,,,,,,,,,,,,,,
,,,,,,,,2023-08-16_08h43.38.812,HF_wild_card,2022.2.4,Win32,59.98440405,5d8b35eebb2405000106ff4a,64d2fd46c836a06233681665,64dc7d26e573ae18ef7326cb,,,,,,,decisionTrl,resources/DY.BMP,resources/DG.BMP,Door1,-0.106736145,0.019444466,1,0,0,1.6994,optionLeft,30,15425,7,18,0,18,0,1,,,,,,,,,,,,,,,,,,,,,,,,,,,,,,,,,,,,,,,
,,,,,,,,2023-08-16_08h43.38.812,HF_wild_card,2022.2.4,Win32,59.98440405,5d8b35eebb2405000106ff4a,64d2fd46c836a06233681665,64dc7d26e573ae18ef7326cb,,,,,,,ctch,resources/DBN.BMP,resources/DY.BMP,Door4,-0.128263931,0.033333359,1,0,0,1.3479,optionLeft,80,15505,7,19,0,19,0,1,,,,,,,,,,,,,,,,,,,,,,,,,,,,,,,,,,,,,,,
,,,,,,,,2023-08-16_08h43.38.812,HF_wild_card,2022.2.4,Win32,59.98440405,5d8b35eebb2405000106ff4a,64d2fd46c836a06233681665,64dc7d26e573ae18ef7326cb,,,,,,,ctch,resources/DBN.BMP,resources/DY.BMP,Door4,-0.123402786,0.024305573,1,0,0,0.6819,optionLeft,60,15565,7,20,0,20,0,1,,,,,,,,,,,,,,,,,,,,,,,,,,,,,,,,,,,,,,,
,,,,,,,,2023-08-16_08h43.38.812,HF_wild_card,2022.2.4,Win32,59.98440405,5d8b35eebb2405000106ff4a,64d2fd46c836a06233681665,64dc7d26e573ae18ef7326cb,,,,,,,decisionTrl,resources/DY.BMP,resources/DG.BMP,Door2,0.141874924,-0.021527748,1,0,0,1.2497,optionRight,20,15585,7,21,0,21,0,1,,,,,,,,,,,,,,,,,,,,,,,,,,,,,,,,,,,,,,,
,,,,,,,,2023-08-16_08h43.38.812,HF_wild_card,2022.2.4,Win32,59.98440405,5d8b35eebb2405000106ff4a,64d2fd46c836a06233681665,64dc7d26e573ae18ef7326cb,,,,,,,decisionTrl,resources/DG.BMP,resources/DY.BMP,Door2,-0.117152786,0.004166679,1,0,0,2.7479,optionLeft,40,15625,7,22,0,22,0,1,,,,,,,,,,,,,,,,,,,,,,,,,,,,,,,,,,,,,,,
,,,,,,,,2023-08-16_08h43.38.812,HF_wild_card,2022.2.4,Win32,59.98440405,5d8b35eebb2405000106ff4a,64d2fd46c836a06233681665,64dc7d26e573ae18ef7326cb,,,,,,,ctch,resources/DY.BMP,resources/DBN.BMP,Door4,0.120347061,-0.030555534,1,0,0,1.2159,optionRight,60,15685,7,23,0,23,0,1,,,,,,,,,,,,,,,,,,,,,,,,,,,,,,,,,,,,,,,
,,,,,,,,2023-08-16_08h43.38.812,HF_wild_card,2022.2.4,Win32,59.98440405,5d8b35eebb2405000106ff4a,64d2fd46c836a06233681665,64dc7d26e573ae18ef7326cb,,,,,,,decisionTrl,resources/DB.BMP,resources/DBN.BMP,Door3,-0.126180573,0.015277863,1,0,0,1.1977,optionLeft,70,15755,7,24,0,24,0,1,,,,,,,,,,,,,,,,,,,,,,,,,,,,,,,,,,,,,,,
,,,,,,,,2023-08-16_08h43.38.812,HF_wild_card,2022.2.4,Win32,59.98440405,5d8b35eebb2405000106ff4a,64d2fd46c836a06233681665,64dc7d26e573ae18ef7326cb,,,,,,,ctch,resources/DY.BMP,resources/DBN.BMP,Door4,0.145347061,-0.040277748,1,0,0,1.3145,optionRight,80,15835,7,25,0,25,0,1,,,,,,,,,,,,,,,,,,,,,,,,,,,,,,,,,,,,,,,
,,,,,,,,2023-08-16_08h43.38.812,HF_wild_card,2022.2.4,Win32,59.98440405,5d8b35eebb2405000106ff4a,64d2fd46c836a06233681665,64dc7d26e573ae18ef7326cb,,,,,,,decisionTrl,resources/DBN.BMP,resources/DB.BMP,Door3,0.13215271,-0.029861031,1,0,0,1.8314,optionRight,70,15905,7,26,0,26,0,1,,,,,,,,,,,,,,,,,,,,,,,,,,,,,,,,,,,,,,,
,,,,,,,,2023-08-16_08h43.38.812,HF_wild_card,2022.2.4,Win32,59.98440405,5d8b35eebb2405000106ff4a,64d2fd46c836a06233681665,64dc7d26e573ae18ef7326cb,,,,,,,ctch,resources/DB.BMP,resources/DG.BMP,Door3,-0.11159729,0.006250038,1,0,0,1.5141,optionLeft,70,15975,7,27,0,27,0,1,,,,,,,,,,,,,,,,,,,,,,,,,,,,,,,,,,,,,,,
,,,,,,,,2023-08-16_08h43.38.812,HF_wild_card,2022.2.4,Win32,59.98440405,5d8b35eebb2405000106ff4a,64d2fd46c836a06233681665,64dc7d26e573ae18ef7326cb,,,,,,,decisionTrl,resources/DB.BMP,resources/DBN.BMP,Door3,-0.110902786,0.011111145,1,0,0,1.6311,optionLeft,70,16045,7,28,0,28,0,1,,,,,,,,,,,,,,,,,,,,,,,,,,,,,,,,,,,,,,,
,,,,,,,,2023-08-16_08h43.38.812,HF_wild_card,2022.2.4,Win32,59.98440405,5d8b35eebb2405000106ff4a,64d2fd46c836a06233681665,64dc7d26e573ae18ef7326cb,,,,,,,decisionTrl,resources/DB.BMP,resources/DBN.BMP,Door3,-0.11784729,0.013194466,1,0,0,1.3166,optionLeft,70,16115,7,29,0,29,0,1,,,,,,,,,,,,,,,,,,,,,,,,,,,,,,,,,,,,,,,
,,,,,,,,2023-08-16_08h43.38.812,HF_wild_card,2022.2.4,Win32,59.98440405,5d8b35eebb2405000106ff4a,64d2fd46c836a06233681665,64dc7d26e573ae18ef7326cb,,,,,,,decisionTrl,resources/DBN.BMP,resources/DB.BMP,Door3,0.131458282,-0.027777748,1,0,0,1.2663,optionRight,70,16185,7,30,0,30,0,1,,,,,,,,,,,,,,,,,,,,,,,,,,,,,,,,,,,,,,,
,,,,,,,,2023-08-16_08h43.38.812,HF_wild_card,2022.2.4,Win32,59.98440405,5d8b35eebb2405000106ff4a,64d2fd46c836a06233681665,64dc7d26e573ae18ef7326cb,,,,,,,decisionTrl,resources/DG.BMP,resources/DY.BMP,Door1,0.133541641,-0.031944389,1,0,0,1.9974,optionRight,30,16215,7,31,0,31,0,1,,,,,,,,,,,,,,,,,,,,,,,,,,,,,,,,,,,,,,,
,,,,,,,,2023-08-16_08h43.38.812,HF_wild_card,2022.2.4,Win32,59.98440405,5d8b35eebb2405000106ff4a,64d2fd46c836a06233681665,64dc7d26e573ae18ef7326cb,,,,,,,ctch,resources/DG.BMP,resources/DB.BMP,Door3,0.131458282,-0.027777748,1,0,0,1.1816,optionRight,70,16285,7,32,0,32,0,1,,,,,,,,,,,,,,,,,,,,,,,,,,,,,,,,,,,,,,,
,,,,,,,,2023-08-16_08h43.38.812,HF_wild_card,2022.2.4,Win32,59.98440405,5d8b35eebb2405000106ff4a,64d2fd46c836a06233681665,64dc7d26e573ae18ef7326cb,,,,,,,decisionTrl,resources/DG.BMP,resources/DY.BMP,Door2,-0.137986145,0.027083359,1,0,0,2.398,optionLeft,20,16305,7,33,0,33,0,1,,,,,,,,,,,,,,,,,,,,,,,,,,,,,,,,,,,,,,,
,,,,,,,,2023-08-16_08h43.38.812,HF_wild_card,2022.2.4,Win32,59.98440405,5d8b35eebb2405000106ff4a,64d2fd46c836a06233681665,64dc7d26e573ae18ef7326cb,,,,,,,decisionTrl,resources/DBN.BMP,resources/DB.BMP,Door3,0.20090271,-0.045833244,1,0,0,1.2001,optionRight,70,16375,7,34,0,34,0,1,,,,,,,,,,,,,,,,,,,,,,,,,,,,,,,,,,,,,,,
,,,,,,,,2023-08-16_08h43.38.812,HF_wild_card,2022.2.4,Win32,59.98440405,5d8b35eebb2405000106ff4a,64d2fd46c836a06233681665,64dc7d26e573ae18ef7326cb,,,,,,,decisionTrl,resources/DB.BMP,resources/DBN.BMP,Door3,-0.106736145,0.011805573,1,0,0,1.0319,optionLeft,70,16445,7,35,0,35,0,1,,,,,,,,,,,,,,,,,,,,,,,,,,,,,,,,,,,,,,,
,,,,,,,,2023-08-16_08h43.38.812,HF_wild_card,2022.2.4,Win32,59.98440405,5d8b35eebb2405000106ff4a,64d2fd46c836a06233681665,64dc7d26e573ae18ef7326cb,,,,,,,,,,,,,,,,,,,,,,,,,,6,0,6,0,1,,,,,,,,,,,,,,,,,,,,,,,,,,,,,,,,,,
,,,,,,,,2023-08-16_08h43.38.812,HF_wild_card,2022.2.4,Win32,59.98440405,5d8b35eebb2405000106ff4a,64d2fd46c836a06233681665,64dc7d26e573ae18ef7326cb,,,,,,,,,,,,,,,,,,,,,,,,,,,,,,,4,,,,,,,,,,,,,,,,,,,,,,,,,,,,,,,,,
,,,,,,,,2023-08-16_08h43.38.812,HF_wild_card,2022.2.4,Win32,59.98440405,5d8b35eebb2405000106ff4a,64d2fd46c836a06233681665,64dc7d26e573ae18ef7326cb,,,,,,,,,,,,,,,,,,,,,,,,,,,,,,,,,,,,,,,,,,,,,,,,,,,,,,,,,,,,,,,,
,,,,,,,,2023-08-16_08h43.38.812,HF_wild_card,2022.2.4,Win32,59.98440405,5d8b35eebb2405000106ff4a,64d2fd46c836a06233681665,64dc7d26e573ae18ef7326cb,,,,,,,,,,,,,,,,,,,,,,,,,,,,,,,,5,WC_extreme,resources/DR.BMP,0,0,0,0,1,,,,,,,,,,,,,,,,,,,,,,,,,
,,,,,,,,2023-08-16_08h43.38.812,HF_wild_card,2022.2.4,Win32,59.98440405,5d8b35eebb2405000106ff4a,64d2fd46c836a06233681665,64dc7d26e573ae18ef7326cb,,,,,,,,,,,,,,,,,,,,,,,,,,,,,,,,70,Door3,resources/DB.BMP,1,0,1,0,1,,,,,,,,,,,,,,,,,,,,,,,,,
,,,,,,,,2023-08-16_08h43.38.812,HF_wild_card,2022.2.4,Win32,59.98440405,5d8b35eebb2405000106ff4a,64d2fd46c836a06233681665,64dc7d26e573ae18ef7326cb,,,,,,,,,,,,,,,,,,,,,,,,,,,,,,,,30,WC_nonExtreme,resources/DP.BMP,2,0,2,0,1,,,,,,,,,,,,,,,,,,,,,,,,,
,,,,,,,,2023-08-16_08h43.38.812,HF_wild_card,2022.2.4,Win32,59.98440405,5d8b35eebb2405000106ff4a,64d2fd46c836a06233681665,64dc7d26e573ae18ef7326cb,,,,,,,,,,,,,,,,,,,,,,,,,,,,,,,,40,Door2,resources/DG.BMP,3,0,3,0,1,,,,,,,,,,,,,,,,,,,,,,,,,
,,,,,,,,2023-08-16_08h43.38.812,HF_wild_card,2022.2.4,Win32,59.98440405,5d8b35eebb2405000106ff4a,64d2fd46c836a06233681665,64dc7d26e573ae18ef7326cb,,,,,,,,,,,,,,,,,,,,,,,,,,,,,,,,70,Door4,resources/DBN.BMP,4,0,4,0,1,,,,,,,,,,,,,,,,,,,,,,,,,
,,,,,,,,2023-08-16_08h43.38.812,HF_wild_card,2022.2.4,Win32,59.98440405,5d8b35eebb2405000106ff4a,64d2fd46c836a06233681665,64dc7d26e573ae18ef7326cb,,,,,,,,,,,,,,,,,,,,,,,,,,,,,,,,20,Door1,resources/DY.BMP,5,0,5,0,1,,,,,,,,,,,,,,,,,,,,,,,,,
,,,,,,,,2023-08-16_08h43.38.812,HF_wild_card,2022.2.4,Win32,59.98440405,5d8b35eebb2405000106ff4a,64d2fd46c836a06233681665,64dc7d26e573ae18ef7326cb,,,,,,,,,,,,,,,,,,,,,,,,,,,,,,,,,,,,,,,,,,,,,,,,,,,,,,,,,,,,,,,,
