Condition,Low fixed image (Door1),Low risky image (Door2),High fixed image (Door3),High risky image (Door4),NonExtreme Wild Card 1,NonExtreme Wild Card 2,,date,expName,psychopyVersion,OS,frameRate,PROLIFIC_PID,STUDY_ID,SESSION_ID,mouse_2.x,mouse_2.y,mouse_2.leftButton,mouse_2.midButton,mouse_2.rightButton,mouse_2.clicked_name,Trial Type,Left Option Image,Right Option Image,Chosen Door,mouse.x,mouse.y,mouse.leftButton,mouse.midButton,mouse.rightButton,mouse.time,mouse.clicked_name,Feedback,Cumulative Reward,Block,trial.thisRepN,trial.thisTrialN,trial.thisN,trial.thisIndex,trial.ran,blocks.thisRepN,blocks.thisTrialN,blocks.thisN,blocks.thisIndex,blocks.ran,Money conversion,First Outcome Reported,Shown Door (First Outcome),Displayed Image (First Outcome),outcomes.thisRepN,outcomes.thisTrialN,outcomes.thisN,outcomes.thisIndex,outcomes.ran,judgments.thisRepN,judgments.thisTrialN,judgments.thisN,judgments.thisIndex,judgments.ran,freqMouse.x,freqMouse.y,freqMouse.leftButton,freqMouse.midButton,freqMouse.rightButton,freqMouse.clicked_name,trials.thisRepN,trials.thisTrialN,trials.thisN,trials.thisIndex,trials.ran,FQJ for first outcome,FQJ for second outcome,Shown Door,Displayed Image,judgBlock.thisRepN,judgBlock.thisTrialN,judgBlock.thisN,judgBlock.thisIndex,judgBlock.ran
2,resources/DB.BMP,resources/DBN.BMP,resources/DG.BMP,resources/DY.BMP,resources/DP.BMP,resources/DR.BMP,,2023-08-06_08h17.44.904,HF_wild_card,2022.2.4,MacIntel,60.04202942,61475c6bb6cdf4eadb143dd8,64ce5acb97489d65b14ecc7a,64cf4888732099a712481116,,,,,,,,,,,,,,,,,,,,,,,,,,,,,,,,,,,,,,,,,,,,,,,,,,,,,,,,,,,,,,,,
,,,,,,,,2023-08-06_08h17.44.904,HF_wild_card,2022.2.4,MacIntel,60.04202942,61475c6bb6cdf4eadb143dd8,64ce5acb97489d65b14ecc7a,64cf4888732099a712481116,0.008876614,-0.415611301,1,0,0,agree,,,,,,,,,,,,,,,,,,,,,,,,,,,,,,,,,,,,,,,,,,,,,,,,,,,,,,,,,,
,,,,,,,,2023-08-06_08h17.44.904,HF_wild_card,2022.2.4,MacIntel,60.04202942,61475c6bb6cdf4eadb143dd8,64ce5acb97489d65b14ecc7a,64cf4888732099a712481116,,,,,,,,,,,,,,,,,,,,,,,,,,,,,,,,,,,,,,,,,,,,,,,,,,,,,,,,,,,,,,,,
,,,,,,,,2023-08-06_08h17.44.904,HF_wild_card,2022.2.4,MacIntel,60.04202942,61475c6bb6cdf4eadb143dd8,64ce5acb97489d65b14ecc7a,64cf4888732099a712481116,,,,,,,decisionTrl,resources/DBN.BMP,resources/DB.BMP,Door1,0.353115099,-0.042570631,1,0,0,2.6406,optionRight,30,30,1,0,0,0,0,1,,,,,,,,,,,,,,,,,,,,,,,,,,,,,,,,,,,,,,,
,,,,,,,,2023-08-06_08h17.44.904,HF_wild_card,2022.2.4,MacIntel,60.04202942,61475c6bb6cdf4eadb143dd8,64ce5acb97489d65b14ecc7a,64cf4888732099a712481116,,,,,,,decisionTrl,resources/DB.BMP,resources/DBN.BMP,Door1,-0.278333469,-0.033069255,1,0,0,2.0762,optionLeft,30,60,1,1,0,1,0,1,,,,,,,,,,,,,,,,,,,,,,,,,,,,,,,,,,,,,,,
,,,,,,,,2023-08-06_08h17.44.904,HF_wild_card,2022.2.4,MacIntel,60.04202942,61475c6bb6cdf4eadb143dd8,64ce5acb97489d65b14ecc7a,64cf4888732099a712481116,,,,,,,sngl,resources/Empty.png,resources/DG.BMP,Door3,0.389376085,0.00469045,1,0,0,3.0255,optionRight,70,130,1,2,0,2,0,1,,,,,,,,,,,,,,,,,,,,,,,,,,,,,,,,,,,,,,,
,,,,,,,,2023-08-06_08h17.44.904,HF_wild_card,2022.2.4,MacIntel,60.04202942,61475c6bb6cdf4eadb143dd8,64ce5acb97489d65b14ecc7a,64cf4888732099a712481116,,,,,,,decisionTrl,resources/DR.BMP,resources/DB.BMP,Door1,0.41330702,0.078940226,1,0,0,2.9627,optionRight,30,160,1,3,0,3,0,1,,,,,,,,,,,,,,,,,,,,,,,,,,,,,,,,,,,,,,,
,,,,,,,,2023-08-06_08h17.44.904,HF_wild_card,2022.2.4,MacIntel,60.04202942,61475c6bb6cdf4eadb143dd8,64ce5acb97489d65b14ecc7a,64cf4888732099a712481116,,,,,,,sngl,resources/DB.BMP,resources/Empty.png,Door1,-0.301924167,-0.035695462,1,0,0,1.2606,optionLeft,30,190,1,4,0,4,0,1,,,,,,,,,,,,,,,,,,,,,,,,,,,,,,,,,,,,,,,
,,,,,,,,2023-08-06_08h17.44.904,HF_wild_card,2022.2.4,MacIntel,60.04202942,61475c6bb6cdf4eadb143dd8,64ce5acb97489d65b14ecc7a,64cf4888732099a712481116,,,,,,,sngl,resources/Empty.png,resources/DR.BMP,WildCard_NonEx,0.417679172,0.054830695,1,0,0,1.7678,optionRight,45,235,1,5,0,5,0,1,,,,,,,,,,,,,,,,,,,,,,,,,,,,,,,,,,,,,,,
,,,,,,,,2023-08-06_08h17.44.904,HF_wild_card,2022.2.4,MacIntel,60.04202942,61475c6bb6cdf4eadb143dd8,64ce5acb97489d65b14ecc7a,64cf4888732099a712481116,,,,,,,ctch,resources/DB.BMP,resources/DY.BMP,Door4,0.409679905,-0.021720988,1,0,0,1.762,optionRight,80,315,1,6,0,6,0,1,,,,,,,,,,,,,,,,,,,,,,,,,,,,,,,,,,,,,,,
,,,,,,,,2023-08-06_08h17.44.904,HF_wild_card,2022.2.4,MacIntel,60.04202942,61475c6bb6cdf4eadb143dd8,64ce5acb97489d65b14ecc7a,64cf4888732099a712481116,,,,,,,decisionTrl,resources/DG.BMP,resources/DY.BMP,Door4,0.32245558,-0.021505873,1,0,0,2.7633,optionRight,60,375,1,7,0,7,0,1,,,,,,,,,,,,,,,,,,,,,,,,,,,,,,,,,,,,,,,
,,,,,,,,2023-08-06_08h17.44.904,HF_wild_card,2022.2.4,MacIntel,60.04202942,61475c6bb6cdf4eadb143dd8,64ce5acb97489d65b14ecc7a,64cf4888732099a712481116,,,,,,,decisionTrl,resources/DR.BMP,resources/DY.BMP,Door4,0.366233995,0.013947313,1,0,0,1.9798,optionRight,60,435,1,8,0,8,0,1,,,,,,,,,,,,,,,,,,,,,,,,,,,,,,,,,,,,,,,
,,,,,,,,2023-08-06_08h17.44.904,HF_wild_card,2022.2.4,MacIntel,60.04202942,61475c6bb6cdf4eadb143dd8,64ce5acb97489d65b14ecc7a,64cf4888732099a712481116,,,,,,,ctch,resources/DG.BMP,resources/DBN.BMP,Door3,-0.358887363,0.0001631,1,0,0,2.2288,optionLeft,70,505,1,9,0,9,0,1,,,,,,,,,,,,,,,,,,,,,,,,,,,,,,,,,,,,,,,
,,,,,,,,2023-08-06_08h17.44.904,HF_wild_card,2022.2.4,MacIntel,60.04202942,61475c6bb6cdf4eadb143dd8,64ce5acb97489d65b14ecc7a,64cf4888732099a712481116,,,,,,,sngl,resources/DBN.BMP,resources/Empty.png,Door2,-0.214517822,0.014835036,1,0,0,1.4521,optionLeft,40,545,1,10,0,10,0,1,,,,,,,,,,,,,,,,,,,,,,,,,,,,,,,,,,,,,,,
,,,,,,,,2023-08-06_08h17.44.904,HF_wild_card,2022.2.4,MacIntel,60.04202942,61475c6bb6cdf4eadb143dd8,64ce5acb97489d65b14ecc7a,64cf4888732099a712481116,,,,,,,decisionTrl,resources/DBN.BMP,resources/DR.BMP,WildCard_NonEx,0.34213623,-0.01245619,1,0,0,2.0452,optionRight,45,590,1,11,0,11,0,1,,,,,,,,,,,,,,,,,,,,,,,,,,,,,,,,,,,,,,,
,,,,,,,,2023-08-06_08h17.44.904,HF_wild_card,2022.2.4,MacIntel,60.04202942,61475c6bb6cdf4eadb143dd8,64ce5acb97489d65b14ecc7a,64cf4888732099a712481116,,,,,,,decisionTrl,resources/DY.BMP,resources/DG.BMP,Door4,-0.32293691,0.016838752,1,0,0,1.766,optionLeft,80,670,1,12,0,12,0,1,,,,,,,,,,,,,,,,,,,,,,,,,,,,,,,,,,,,,,,
,,,,,,,,2023-08-06_08h17.44.904,HF_wild_card,2022.2.4,MacIntel,60.04202942,61475c6bb6cdf4eadb143dd8,64ce5acb97489d65b14ecc7a,64cf4888732099a712481116,,,,,,,sngl,resources/Empty.png,resources/DB.BMP,Door1,0.320948758,0.012082418,1,0,0,1.4624,optionRight,30,700,1,13,0,13,0,1,,,,,,,,,,,,,,,,,,,,,,,,,,,,,,,,,,,,,,,
,,,,,,,,2023-08-06_08h17.44.904,HF_wild_card,2022.2.4,MacIntel,60.04202942,61475c6bb6cdf4eadb143dd8,64ce5acb97489d65b14ecc7a,64cf4888732099a712481116,,,,,,,ctch,resources/DY.BMP,resources/DB.BMP,Door4,-0.311165636,0.014933167,1,0,0,1.6305,optionLeft,60,760,1,14,0,14,0,1,,,,,,,,,,,,,,,,,,,,,,,,,,,,,,,,,,,,,,,
,,,,,,,,2023-08-06_08h17.44.904,HF_wild_card,2022.2.4,MacIntel,60.04202942,61475c6bb6cdf4eadb143dd8,64ce5acb97489d65b14ecc7a,64cf4888732099a712481116,,,,,,,decisionTrl,resources/DBN.BMP,resources/DB.BMP,Door1,0.383534071,0.012407328,1,0,0,1.6616,optionRight,30,790,1,15,0,15,0,1,,,,,,,,,,,,,,,,,,,,,,,,,,,,,,,,,,,,,,,
,,,,,,,,2023-08-06_08h17.44.904,HF_wild_card,2022.2.4,MacIntel,60.04202942,61475c6bb6cdf4eadb143dd8,64ce5acb97489d65b14ecc7a,64cf4888732099a712481116,,,,,,,decisionTrl,resources/DG.BMP,resources/DR.BMP,Door3,-0.307812805,0.022466227,1,0,0,1.6472,optionLeft,70,860,1,16,0,16,0,1,,,,,,,,,,,,,,,,,,,,,,,,,,,,,,,,,,,,,,,
,,,,,,,,2023-08-06_08h17.44.904,HF_wild_card,2022.2.4,MacIntel,60.04202942,61475c6bb6cdf4eadb143dd8,64ce5acb97489d65b14ecc7a,64cf4888732099a712481116,,,,,,,sngl,resources/Empty.png,resources/DY.BMP,Door4,0.331645576,-0.001794162,1,0,0,1.245,optionRight,60,920,1,17,0,17,0,1,,,,,,,,,,,,,,,,,,,,,,,,,,,,,,,,,,,,,,,
,,,,,,,,2023-08-06_08h17.44.904,HF_wild_card,2022.2.4,MacIntel,60.04202942,61475c6bb6cdf4eadb143dd8,64ce5acb97489d65b14ecc7a,64cf4888732099a712481116,,,,,,,sngl,resources/DY.BMP,resources/Empty.png,Door4,-0.291909993,0.013421529,1,0,0,1.0462,optionLeft,80,1000,1,18,0,18,0,1,,,,,,,,,,,,,,,,,,,,,,,,,,,,,,,,,,,,,,,
,,,,,,,,2023-08-06_08h17.44.904,HF_wild_card,2022.2.4,MacIntel,60.04202942,61475c6bb6cdf4eadb143dd8,64ce5acb97489d65b14ecc7a,64cf4888732099a712481116,,,,,,,ctch,resources/DG.BMP,resources/DBN.BMP,Door2,0.274673598,0.021534865,1,0,0,3.196,optionRight,20,1020,1,19,0,19,0,1,,,,,,,,,,,,,,,,,,,,,,,,,,,,,,,,,,,,,,,
,,,,,,,,2023-08-06_08h17.44.904,HF_wild_card,2022.2.4,MacIntel,60.04202942,61475c6bb6cdf4eadb143dd8,64ce5acb97489d65b14ecc7a,64cf4888732099a712481116,,,,,,,decisionTrl,resources/DB.BMP,resources/DBN.BMP,Door1,-0.247072211,-0.034865689,1,0,0,1.7628,optionLeft,30,1050,1,20,0,20,0,1,,,,,,,,,,,,,,,,,,,,,,,,,,,,,,,,,,,,,,,
,,,,,,,,2023-08-06_08h17.44.904,HF_wild_card,2022.2.4,MacIntel,60.04202942,61475c6bb6cdf4eadb143dd8,64ce5acb97489d65b14ecc7a,64cf4888732099a712481116,,,,,,,decisionTrl,resources/DBN.BMP,resources/DB.BMP,Door1,0.236760254,-0.006500719,1,0,0,1.7339,optionRight,30,1080,1,21,0,21,0,1,,,,,,,,,,,,,,,,,,,,,,,,,,,,,,,,,,,,,,,
,,,,,,,,2023-08-06_08h17.44.904,HF_wild_card,2022.2.4,MacIntel,60.04202942,61475c6bb6cdf4eadb143dd8,64ce5acb97489d65b14ecc7a,64cf4888732099a712481116,,,,,,,ctch,resources/DY.BMP,resources/DB.BMP,Door4,-0.38652927,-0.010603841,1,0,0,1.0939,optionLeft,60,1140,1,22,0,22,0,1,,,,,,,,,,,,,,,,,,,,,,,,,,,,,,,,,,,,,,,
,,,,,,,,2023-08-06_08h17.44.904,HF_wild_card,2022.2.4,MacIntel,60.04202942,61475c6bb6cdf4eadb143dd8,64ce5acb97489d65b14ecc7a,64cf4888732099a712481116,,,,,,,decisionTrl,resources/DY.BMP,resources/DG.BMP,Door3,0.320580377,0.012267965,1,0,0,1.7639,optionRight,70,1210,1,23,0,23,0,1,,,,,,,,,,,,,,,,,,,,,,,,,,,,,,,,,,,,,,,
,,,,,,,,2023-08-06_08h17.44.904,HF_wild_card,2022.2.4,MacIntel,60.04202942,61475c6bb6cdf4eadb143dd8,64ce5acb97489d65b14ecc7a,64cf4888732099a712481116,,,,,,,ctch,resources/DBN.BMP,resources/DG.BMP,Door3,0.321934408,0.044951104,1,0,0,1.1817,optionRight,70,1280,1,24,0,24,0,1,,,,,,,,,,,,,,,,,,,,,,,,,,,,,,,,,,,,,,,
,,,,,,,,2023-08-06_08h17.44.904,HF_wild_card,2022.2.4,MacIntel,60.04202942,61475c6bb6cdf4eadb143dd8,64ce5acb97489d65b14ecc7a,64cf4888732099a712481116,,,,,,,decisionTrl,resources/DBN.BMP,resources/DB.BMP,Door1,0.326677721,0.036622857,1,0,0,1.9126,optionRight,30,1310,1,25,0,25,0,1,,,,,,,,,,,,,,,,,,,,,,,,,,,,,,,,,,,,,,,
,,,,,,,,2023-08-06_08h17.44.904,HF_wild_card,2022.2.4,MacIntel,60.04202942,61475c6bb6cdf4eadb143dd8,64ce5acb97489d65b14ecc7a,64cf4888732099a712481116,,,,,,,ctch,resources/DB.BMP,resources/DY.BMP,Door4,0.395596653,0.044302809,1,0,0,1.2957,optionRight,80,1390,1,26,0,26,0,1,,,,,,,,,,,,,,,,,,,,,,,,,,,,,,,,,,,,,,,
,,,,,,,,2023-08-06_08h17.44.904,HF_wild_card,2022.2.4,MacIntel,60.04202942,61475c6bb6cdf4eadb143dd8,64ce5acb97489d65b14ecc7a,64cf4888732099a712481116,,,,,,,decisionTrl,resources/DY.BMP,resources/DG.BMP,Door4,-0.332653097,0.009307895,1,0,0,2.3857,optionLeft,60,1450,1,27,0,27,0,1,,,,,,,,,,,,,,,,,,,,,,,,,,,,,,,,,,,,,,,
,,,,,,,,2023-08-06_08h17.44.904,HF_wild_card,2022.2.4,MacIntel,60.04202942,61475c6bb6cdf4eadb143dd8,64ce5acb97489d65b14ecc7a,64cf4888732099a712481116,,,,,,,sngl,resources/Empty.png,resources/DBN.BMP,Door2,0.265556505,0.015473735,1,0,0,1.36,optionRight,20,1470,1,28,0,28,0,1,,,,,,,,,,,,,,,,,,,,,,,,,,,,,,,,,,,,,,,
,,,,,,,,2023-08-06_08h17.44.904,HF_wild_card,2022.2.4,MacIntel,60.04202942,61475c6bb6cdf4eadb143dd8,64ce5acb97489d65b14ecc7a,64cf4888732099a712481116,,,,,,,sngl,resources/DR.BMP,resources/Empty.png,WildCard_NonEx,-0.370464986,0.074165717,1,0,0,1.0613,optionLeft,45,1515,1,29,0,29,0,1,,,,,,,,,,,,,,,,,,,,,,,,,,,,,,,,,,,,,,,
,,,,,,,,2023-08-06_08h17.44.904,HF_wild_card,2022.2.4,MacIntel,60.04202942,61475c6bb6cdf4eadb143dd8,64ce5acb97489d65b14ecc7a,64cf4888732099a712481116,,,,,,,decisionTrl,resources/DB.BMP,resources/DBN.BMP,Door1,-0.294731988,0.008244866,1,0,0,1.6677,optionLeft,30,1545,1,30,0,30,0,1,,,,,,,,,,,,,,,,,,,,,,,,,,,,,,,,,,,,,,,
,,,,,,,,2023-08-06_08h17.44.904,HF_wild_card,2022.2.4,MacIntel,60.04202942,61475c6bb6cdf4eadb143dd8,64ce5acb97489d65b14ecc7a,64cf4888732099a712481116,,,,,,,sngl,resources/DG.BMP,resources/Empty.png,Door3,-0.287673611,0.083919474,1,0,0,1.0117,optionLeft,70,1615,1,31,0,31,0,1,,,,,,,,,,,,,,,,,,,,,,,,,,,,,,,,,,,,,,,
,,,,,,,,2023-08-06_08h17.44.904,HF_wild_card,2022.2.4,MacIntel,60.04202942,61475c6bb6cdf4eadb143dd8,64ce5acb97489d65b14ecc7a,64cf4888732099a712481116,,,,,,,decisionTrl,resources/DG.BMP,resources/DY.BMP,Door4,0.350274929,0.035708618,1,0,0,1.6947,optionRight,80,1695,1,32,0,32,0,1,,,,,,,,,,,,,,,,,,,,,,,,,,,,,,,,,,,,,,,
,,,,,,,,2023-08-06_08h17.44.904,HF_wild_card,2022.2.4,MacIntel,60.04202942,61475c6bb6cdf4eadb143dd8,64ce5acb97489d65b14ecc7a,64cf4888732099a712481116,,,,,,,decisionTrl,resources/DG.BMP,resources/DY.BMP,Door4,0.390078396,0.006019423,1,0,0,1.5281,optionRight,80,1775,1,33,0,33,0,1,,,,,,,,,,,,,,,,,,,,,,,,,,,,,,,,,,,,,,,
,,,,,,,,2023-08-06_08h17.44.904,HF_wild_card,2022.2.4,MacIntel,60.04202942,61475c6bb6cdf4eadb143dd8,64ce5acb97489d65b14ecc7a,64cf4888732099a712481116,,,,,,,decisionTrl,resources/DR.BMP,resources/DG.BMP,Door3,0.436037326,0.035767517,1,0,0,1.8617,optionRight,70,1845,1,34,0,34,0,1,,,,,,,,,,,,,,,,,,,,,,,,,,,,,,,,,,,,,,,
,,,,,,,,2023-08-06_08h17.44.904,HF_wild_card,2022.2.4,MacIntel,60.04202942,61475c6bb6cdf4eadb143dd8,64ce5acb97489d65b14ecc7a,64cf4888732099a712481116,,,,,,,decisionTrl,resources/DY.BMP,resources/DR.BMP,Door4,-0.389389852,0.065042894,1,0,0,1.2315,optionLeft,80,1925,1,35,0,35,0,1,,,,,,,,,,,,,,,,,,,,,,,,,,,,,,,,,,,,,,,
,,,,,,,,2023-08-06_08h17.44.904,HF_wild_card,2022.2.4,MacIntel,60.04202942,61475c6bb6cdf4eadb143dd8,64ce5acb97489d65b14ecc7a,64cf4888732099a712481116,,,,,,,decisionTrl,resources/DB.BMP,resources/DR.BMP,WildCard_NonEx,0.348492567,0.070838691,1,0,0,1.6291,optionRight,45,1970,1,36,0,36,0,1,,,,,,,,,,,,,,,,,,,,,,,,,,,,,,,,,,,,,,,
,,,,,,,,2023-08-06_08h17.44.904,HF_wild_card,2022.2.4,MacIntel,60.04202942,61475c6bb6cdf4eadb143dd8,64ce5acb97489d65b14ecc7a,64cf4888732099a712481116,,,,,,,decisionTrl,resources/DR.BMP,resources/DBN.BMP,WildCard_NonEx,-0.4218691,0.026170146,1,0,0,1.2951,optionLeft,45,2015,1,37,0,37,0,1,,,,,,,,,,,,,,,,,,,,,,,,,,,,,,,,,,,,,,,
,,,,,,,,2023-08-06_08h17.44.904,HF_wild_card,2022.2.4,MacIntel,60.04202942,61475c6bb6cdf4eadb143dd8,64ce5acb97489d65b14ecc7a,64cf4888732099a712481116,,,,,,,decisionTrl,resources/DB.BMP,resources/DBN.BMP,Door1,-0.321966892,0.078229913,1,0,0,1.2628,optionLeft,30,2045,1,38,0,38,0,1,,,,,,,,,,,,,,,,,,,,,,,,,,,,,,,,,,,,,,,
,,,,,,,,2023-08-06_08h17.44.904,HF_wild_card,2022.2.4,MacIntel,60.04202942,61475c6bb6cdf4eadb143dd8,64ce5acb97489d65b14ecc7a,64cf4888732099a712481116,,,,,,,sngl,resources/Empty.png,resources/DR.BMP,WildCard_NonEx,0.340141195,0.079050768,1,0,0,0.9621,optionRight,55,2100,1,39,0,39,0,1,,,,,,,,,,,,,,,,,,,,,,,,,,,,,,,,,,,,,,,
,,,,,,,,2023-08-06_08h17.44.904,HF_wild_card,2022.2.4,MacIntel,60.04202942,61475c6bb6cdf4eadb143dd8,64ce5acb97489d65b14ecc7a,64cf4888732099a712481116,,,,,,,decisionTrl,resources/DG.BMP,resources/DY.BMP,Door4,0.422142334,0.012488912,1,0,0,1.5775,optionRight,60,2160,1,40,0,40,0,1,,,,,,,,,,,,,,,,,,,,,,,,,,,,,,,,,,,,,,,
,,,,,,,,2023-08-06_08h17.44.904,HF_wild_card,2022.2.4,MacIntel,60.04202942,61475c6bb6cdf4eadb143dd8,64ce5acb97489d65b14ecc7a,64cf4888732099a712481116,,,,,,,sngl,resources/DR.BMP,resources/Empty.png,WildCard_NonEx,-0.376316393,0.052266168,1,0,0,0.9304,optionLeft,55,2215,1,41,0,41,0,1,,,,,,,,,,,,,,,,,,,,,,,,,,,,,,,,,,,,,,,
,,,,,,,,2023-08-06_08h17.44.904,HF_wild_card,2022.2.4,MacIntel,60.04202942,61475c6bb6cdf4eadb143dd8,64ce5acb97489d65b14ecc7a,64cf4888732099a712481116,,,,,,,ctch,resources/DBN.BMP,resources/DG.BMP,Door3,0.386688368,0.023536479,1,0,0,1.1969,optionRight,70,2285,1,42,0,42,0,1,,,,,,,,,,,,,,,,,,,,,,,,,,,,,,,,,,,,,,,
,,,,,,,,2023-08-06_08h17.44.904,HF_wild_card,2022.2.4,MacIntel,60.04202942,61475c6bb6cdf4eadb143dd8,64ce5acb97489d65b14ecc7a,64cf4888732099a712481116,,,,,,,decisionTrl,resources/DY.BMP,resources/DG.BMP,Door4,-0.395528293,0.040717333,1,0,0,1.7567,optionLeft,60,2345,1,43,0,43,0,1,,,,,,,,,,,,,,,,,,,,,,,,,,,,,,,,,,,,,,,
,,,,,,,,2023-08-06_08h17.44.904,HF_wild_card,2022.2.4,MacIntel,60.04202942,61475c6bb6cdf4eadb143dd8,64ce5acb97489d65b14ecc7a,64cf4888732099a712481116,,,,,,,,,,,,,,,,,,,,,,,,,,0,0,0,0,1,,,,,,,,,,,,,,,,,,,,,,,,,,,,,,,,,,
,,,,,,,,2023-08-06_08h17.44.904,HF_wild_card,2022.2.4,MacIntel,60.04202942,61475c6bb6cdf4eadb143dd8,64ce5acb97489d65b14ecc7a,64cf4888732099a712481116,,,,,,,sngl,resources/Empty.png,resources/DBN.BMP,Door2,0.435246175,0.062430996,1,0,0,1.8432,optionRight,40,2385,2,0,0,0,0,1,,,,,,,,,,,,,,,,,,,,,,,,,,,,,,,,,,,,,,,
,,,,,,,,2023-08-06_08h17.44.904,HF_wild_card,2022.2.4,MacIntel,60.04202942,61475c6bb6cdf4eadb143dd8,64ce5acb97489d65b14ecc7a,64cf4888732099a712481116,,,,,,,decisionTrl,resources/DG.BMP,resources/DY.BMP,Door4,0.397580295,-0.055341322,1,0,0,1.6131,optionRight,80,2465,2,1,0,1,0,1,,,,,,,,,,,,,,,,,,,,,,,,,,,,,,,,,,,,,,,
,,,,,,,,2023-08-06_08h17.44.904,HF_wild_card,2022.2.4,MacIntel,60.04202942,61475c6bb6cdf4eadb143dd8,64ce5acb97489d65b14ecc7a,64cf4888732099a712481116,,,,,,,decisionTrl,resources/DB.BMP,resources/DBN.BMP,Door1,-0.364705946,-0.010703566,1,0,0,1.6181,optionLeft,30,2495,2,2,0,2,0,1,,,,,,,,,,,,,,,,,,,,,,,,,,,,,,,,,,,,,,,
,,,,,,,,2023-08-06_08h17.44.904,HF_wild_card,2022.2.4,MacIntel,60.04202942,61475c6bb6cdf4eadb143dd8,64ce5acb97489d65b14ecc7a,64cf4888732099a712481116,,,,,,,ctch,resources/DB.BMP,resources/DY.BMP,Door4,0.39598348,-0.009887831,1,0,0,0.9796,optionRight,60,2555,2,3,0,3,0,1,,,,,,,,,,,,,,,,,,,,,,,,,,,,,,,,,,,,,,,
,,,,,,,,2023-08-06_08h17.44.904,HF_wild_card,2022.2.4,MacIntel,60.04202942,61475c6bb6cdf4eadb143dd8,64ce5acb97489d65b14ecc7a,64cf4888732099a712481116,,,,,,,decisionTrl,resources/DR.BMP,resources/DBN.BMP,WildCard_NonEx,-0.315862427,0.071607971,1,0,0,1.6809,optionLeft,45,2600,2,4,0,4,0,1,,,,,,,,,,,,,,,,,,,,,,,,,,,,,,,,,,,,,,,
,,,,,,,,2023-08-06_08h17.44.904,HF_wild_card,2022.2.4,MacIntel,60.04202942,61475c6bb6cdf4eadb143dd8,64ce5acb97489d65b14ecc7a,64cf4888732099a712481116,,,,,,,decisionTrl,resources/DR.BMP,resources/DG.BMP,Door3,0.345039062,-0.019386258,1,0,0,1.3704,optionRight,70,2670,2,5,0,5,0,1,,,,,,,,,,,,,,,,,,,,,,,,,,,,,,,,,,,,,,,
,,,,,,,,2023-08-06_08h17.44.904,HF_wild_card,2022.2.4,MacIntel,60.04202942,61475c6bb6cdf4eadb143dd8,64ce5acb97489d65b14ecc7a,64cf4888732099a712481116,,,,,,,decisionTrl,resources/DBN.BMP,resources/DB.BMP,Door1,0.299058431,-0.009784749,1,0,0,1.4984,optionRight,30,2700,2,6,0,6,0,1,,,,,,,,,,,,,,,,,,,,,,,,,,,,,,,,,,,,,,,
,,,,,,,,2023-08-06_08h17.44.904,HF_wild_card,2022.2.4,MacIntel,60.04202942,61475c6bb6cdf4eadb143dd8,64ce5acb97489d65b14ecc7a,64cf4888732099a712481116,,,,,,,decisionTrl,resources/DB.BMP,resources/DBN.BMP,Door1,-0.291227756,0.045822347,1,0,0,1.2955,optionLeft,30,2730,2,7,0,7,0,1,,,,,,,,,,,,,,,,,,,,,,,,,,,,,,,,,,,,,,,
,,,,,,,,2023-08-06_08h17.44.904,HF_wild_card,2022.2.4,MacIntel,60.04202942,61475c6bb6cdf4eadb143dd8,64ce5acb97489d65b14ecc7a,64cf4888732099a712481116,,,,,,,sngl,resources/DR.BMP,resources/Empty.png,WildCard_NonEx,-0.370060832,0.047852648,1,0,0,0.9178,optionLeft,55,2785,2,8,0,8,0,1,,,,,,,,,,,,,,,,,,,,,,,,,,,,,,,,,,,,,,,
,,,,,,,,2023-08-06_08h17.44.904,HF_wild_card,2022.2.4,MacIntel,60.04202942,61475c6bb6cdf4eadb143dd8,64ce5acb97489d65b14ecc7a,64cf4888732099a712481116,,,,,,,ctch,resources/DB.BMP,resources/DY.BMP,Door4,0.329008586,0.000447862,1,0,0,1.5134,optionRight,80,2865,2,9,0,9,0,1,,,,,,,,,,,,,,,,,,,,,,,,,,,,,,,,,,,,,,,
,,,,,,,,2023-08-06_08h17.44.904,HF_wild_card,2022.2.4,MacIntel,60.04202942,61475c6bb6cdf4eadb143dd8,64ce5acb97489d65b14ecc7a,64cf4888732099a712481116,,,,,,,sngl,resources/DR.BMP,resources/Empty.png,WildCard_NonEx,-0.381883545,0.035053609,1,0,0,0.9287,optionLeft,45,2910,2,10,0,10,0,1,,,,,,,,,,,,,,,,,,,,,,,,,,,,,,,,,,,,,,,
,,,,,,,,2023-08-06_08h17.44.904,HF_wild_card,2022.2.4,MacIntel,60.04202942,61475c6bb6cdf4eadb143dd8,64ce5acb97489d65b14ecc7a,64cf4888732099a712481116,,,,,,,decisionTrl,resources/DR.BMP,resources/DB.BMP,WildCard_NonEx,-0.267469109,0.041423001,1,0,0,1.1655,optionLeft,45,2955,2,11,0,11,0,1,,,,,,,,,,,,,,,,,,,,,,,,,,,,,,,,,,,,,,,
,,,,,,,,2023-08-06_08h17.44.904,HF_wild_card,2022.2.4,MacIntel,60.04202942,61475c6bb6cdf4eadb143dd8,64ce5acb97489d65b14ecc7a,64cf4888732099a712481116,,,,,,,ctch,resources/DY.BMP,resources/DB.BMP,Door4,-0.334321289,0.06106937,1,0,0,0.9625,optionLeft,80,3035,2,12,0,12,0,1,,,,,,,,,,,,,,,,,,,,,,,,,,,,,,,,,,,,,,,
,,,,,,,,2023-08-06_08h17.44.904,HF_wild_card,2022.2.4,MacIntel,60.04202942,61475c6bb6cdf4eadb143dd8,64ce5acb97489d65b14ecc7a,64cf4888732099a712481116,,,,,,,sngl,resources/DBN.BMP,resources/Empty.png,Door2,-0.235610385,0.07366628,1,0,0,1.3262,optionLeft,20,3055,2,13,0,13,0,1,,,,,,,,,,,,,,,,,,,,,,,,,,,,,,,,,,,,,,,
,,,,,,,,2023-08-06_08h17.44.904,HF_wild_card,2022.2.4,MacIntel,60.04202942,61475c6bb6cdf4eadb143dd8,64ce5acb97489d65b14ecc7a,64cf4888732099a712481116,,,,,,,sngl,resources/Empty.png,resources/DB.BMP,Door1,0.346018202,0.02656562,1,0,0,0.9306,optionRight,30,3085,2,14,0,14,0,1,,,,,,,,,,,,,,,,,,,,,,,,,,,,,,,,,,,,,,,
,,,,,,,,2023-08-06_08h17.44.904,HF_wild_card,2022.2.4,MacIntel,60.04202942,61475c6bb6cdf4eadb143dd8,64ce5acb97489d65b14ecc7a,64cf4888732099a712481116,,,,,,,decisionTrl,resources/DB.BMP,resources/DBN.BMP,Door1,-0.332827555,0.036952955,1,0,0,1.1107,optionLeft,30,3115,2,15,0,15,0,1,,,,,,,,,,,,,,,,,,,,,,,,,,,,,,,,,,,,,,,
,,,,,,,,2023-08-06_08h17.44.904,HF_wild_card,2022.2.4,MacIntel,60.04202942,61475c6bb6cdf4eadb143dd8,64ce5acb97489d65b14ecc7a,64cf4888732099a712481116,,,,,,,decisionTrl,resources/DBN.BMP,resources/DB.BMP,Door1,0.424883084,0.050072259,1,0,0,1.1605,optionRight,30,3145,2,16,0,16,0,1,,,,,,,,,,,,,,,,,,,,,,,,,,,,,,,,,,,,,,,
,,,,,,,,2023-08-06_08h17.44.904,HF_wild_card,2022.2.4,MacIntel,60.04202942,61475c6bb6cdf4eadb143dd8,64ce5acb97489d65b14ecc7a,64cf4888732099a712481116,,,,,,,sngl,resources/Empty.png,resources/DR.BMP,WildCard_NonEx,0.405800103,-0.044077216,1,0,0,0.9309,optionRight,55,3200,2,17,0,17,0,1,,,,,,,,,,,,,,,,,,,,,,,,,,,,,,,,,,,,,,,
,,,,,,,,2023-08-06_08h17.44.904,HF_wild_card,2022.2.4,MacIntel,60.04202942,61475c6bb6cdf4eadb143dd8,64ce5acb97489d65b14ecc7a,64cf4888732099a712481116,,,,,,,sngl,resources/Empty.png,resources/DR.BMP,WildCard_NonEx,0.376019423,-0.025088976,1,0,0,0.9367,optionRight,45,3245,2,18,0,18,0,1,,,,,,,,,,,,,,,,,,,,,,,,,,,,,,,,,,,,,,,
,,,,,,,,2023-08-06_08h17.44.904,HF_wild_card,2022.2.4,MacIntel,60.04202942,61475c6bb6cdf4eadb143dd8,64ce5acb97489d65b14ecc7a,64cf4888732099a712481116,,,,,,,decisionTrl,resources/DY.BMP,resources/DG.BMP,Door3,0.375965034,0.045549588,1,0,0,2.3477,optionRight,70,3315,2,19,0,19,0,1,,,,,,,,,,,,,,,,,,,,,,,,,,,,,,,,,,,,,,,
,,,,,,,,2023-08-06_08h17.44.904,HF_wild_card,2022.2.4,MacIntel,60.04202942,61475c6bb6cdf4eadb143dd8,64ce5acb97489d65b14ecc7a,64cf4888732099a712481116,,,,,,,decisionTrl,resources/DY.BMP,resources/DG.BMP,Door3,0.405885417,-0.000487298,1,0,0,0.964,optionRight,70,3385,2,20,0,20,0,1,,,,,,,,,,,,,,,,,,,,,,,,,,,,,,,,,,,,,,,
,,,,,,,,2023-08-06_08h17.44.904,HF_wild_card,2022.2.4,MacIntel,60.04202942,61475c6bb6cdf4eadb143dd8,64ce5acb97489d65b14ecc7a,64cf4888732099a712481116,,,,,,,decisionTrl,resources/DBN.BMP,resources/DB.BMP,Door1,0.394302843,-0.008844198,1,0,0,1.319,optionRight,30,3415,2,21,0,21,0,1,,,,,,,,,,,,,,,,,,,,,,,,,,,,,,,,,,,,,,,
,,,,,,,,2023-08-06_08h17.44.904,HF_wild_card,2022.2.4,MacIntel,60.04202942,61475c6bb6cdf4eadb143dd8,64ce5acb97489d65b14ecc7a,64cf4888732099a712481116,,,,,,,decisionTrl,resources/DG.BMP,resources/DY.BMP,Door4,0.438595242,0.031972555,1,0,0,1.196,optionRight,60,3475,2,22,0,22,0,1,,,,,,,,,,,,,,,,,,,,,,,,,,,,,,,,,,,,,,,
,,,,,,,,2023-08-06_08h17.44.904,HF_wild_card,2022.2.4,MacIntel,60.04202942,61475c6bb6cdf4eadb143dd8,64ce5acb97489d65b14ecc7a,64cf4888732099a712481116,,,,,,,decisionTrl,resources/DG.BMP,resources/DY.BMP,Door3,-0.316886495,0.056798638,1,0,0,0.763,optionLeft,70,3545,2,23,0,23,0,1,,,,,,,,,,,,,,,,,,,,,,,,,,,,,,,,,,,,,,,
,,,,,,,,2023-08-06_08h17.44.904,HF_wild_card,2022.2.4,MacIntel,60.04202942,61475c6bb6cdf4eadb143dd8,64ce5acb97489d65b14ecc7a,64cf4888732099a712481116,,,,,,,decisionTrl,resources/DG.BMP,resources/DY.BMP,Door3,-0.349358453,0.100490723,1,0,0,0.8482,optionLeft,70,3615,2,24,0,24,0,1,,,,,,,,,,,,,,,,,,,,,,,,,,,,,,,,,,,,,,,
,,,,,,,,2023-08-06_08h17.44.904,HF_wild_card,2022.2.4,MacIntel,60.04202942,61475c6bb6cdf4eadb143dd8,64ce5acb97489d65b14ecc7a,64cf4888732099a712481116,,,,,,,decisionTrl,resources/DB.BMP,resources/DR.BMP,WildCard_NonEx,0.399584283,-0.043708021,1,0,0,1.3275,optionRight,55,3670,2,25,0,25,0,1,,,,,,,,,,,,,,,,,,,,,,,,,,,,,,,,,,,,,,,
,,,,,,,,2023-08-06_08h17.44.904,HF_wild_card,2022.2.4,MacIntel,60.04202942,61475c6bb6cdf4eadb143dd8,64ce5acb97489d65b14ecc7a,64cf4888732099a712481116,,,,,,,decisionTrl,resources/DBN.BMP,resources/DR.BMP,WildCard_NonEx,0.316900838,-0.017348836,1,0,0,1.3446,optionRight,45,3715,2,26,0,26,0,1,,,,,,,,,,,,,,,,,,,,,,,,,,,,,,,,,,,,,,,
,,,,,,,,2023-08-06_08h17.44.904,HF_wild_card,2022.2.4,MacIntel,60.04202942,61475c6bb6cdf4eadb143dd8,64ce5acb97489d65b14ecc7a,64cf4888732099a712481116,,,,,,,decisionTrl,resources/DG.BMP,resources/DR.BMP,Door3,-0.330767076,0.055084839,1,0,0,2.2775,optionLeft,70,3785,2,27,0,27,0,1,,,,,,,,,,,,,,,,,,,,,,,,,,,,,,,,,,,,,,,
,,,,,,,,2023-08-06_08h17.44.904,HF_wild_card,2022.2.4,MacIntel,60.04202942,61475c6bb6cdf4eadb143dd8,64ce5acb97489d65b14ecc7a,64cf4888732099a712481116,,,,,,,sngl,resources/Empty.png,resources/DY.BMP,Door4,0.400418701,-0.018992818,1,0,0,1.1309,optionRight,80,3865,2,28,0,28,0,1,,,,,,,,,,,,,,,,,,,,,,,,,,,,,,,,,,,,,,,
,,,,,,,,2023-08-06_08h17.44.904,HF_wild_card,2022.2.4,MacIntel,60.04202942,61475c6bb6cdf4eadb143dd8,64ce5acb97489d65b14ecc7a,64cf4888732099a712481116,,,,,,,ctch,resources/DBN.BMP,resources/DG.BMP,Door3,0.366649577,-0.033596157,1,0,0,1.1311,optionRight,70,3935,2,29,0,29,0,1,,,,,,,,,,,,,,,,,,,,,,,,,,,,,,,,,,,,,,,
,,,,,,,,2023-08-06_08h17.44.904,HF_wild_card,2022.2.4,MacIntel,60.04202942,61475c6bb6cdf4eadb143dd8,64ce5acb97489d65b14ecc7a,64cf4888732099a712481116,,,,,,,sngl,resources/Empty.png,resources/DG.BMP,Door3,0.342473823,0.005950317,1,0,0,1.345,optionRight,70,4005,2,30,0,30,0,1,,,,,,,,,,,,,,,,,,,,,,,,,,,,,,,,,,,,,,,
,,,,,,,,2023-08-06_08h17.44.904,HF_wild_card,2022.2.4,MacIntel,60.04202942,61475c6bb6cdf4eadb143dd8,64ce5acb97489d65b14ecc7a,64cf4888732099a712481116,,,,,,,decisionTrl,resources/DY.BMP,resources/DG.BMP,Door4,-0.31552219,0.047813619,1,0,0,1.7706,optionLeft,80,4085,2,31,0,31,0,1,,,,,,,,,,,,,,,,,,,,,,,,,,,,,,,,,,,,,,,
,,,,,,,,2023-08-06_08h17.44.904,HF_wild_card,2022.2.4,MacIntel,60.04202942,61475c6bb6cdf4eadb143dd8,64ce5acb97489d65b14ecc7a,64cf4888732099a712481116,,,,,,,ctch,resources/DG.BMP,resources/DBN.BMP,Door3,-0.269394057,0.03831682,1,0,0,1.094,optionLeft,70,4155,2,32,0,32,0,1,,,,,,,,,,,,,,,,,,,,,,,,,,,,,,,,,,,,,,,
,,,,,,,,2023-08-06_08h17.44.904,HF_wild_card,2022.2.4,MacIntel,60.04202942,61475c6bb6cdf4eadb143dd8,64ce5acb97489d65b14ecc7a,64cf4888732099a712481116,,,,,,,sngl,resources/DB.BMP,resources/Empty.png,Door1,-0.312885539,-0.007405667,1,0,0,0.9968,optionLeft,30,4185,2,33,0,33,0,1,,,,,,,,,,,,,,,,,,,,,,,,,,,,,,,,,,,,,,,
,,,,,,,,2023-08-06_08h17.44.904,HF_wild_card,2022.2.4,MacIntel,60.04202942,61475c6bb6cdf4eadb143dd8,64ce5acb97489d65b14ecc7a,64cf4888732099a712481116,,,,,,,ctch,resources/DG.BMP,resources/DBN.BMP,Door3,-0.278447062,0.036132372,1,0,0,1.0954,optionLeft,70,4255,2,34,0,34,0,1,,,,,,,,,,,,,,,,,,,,,,,,,,,,,,,,,,,,,,,
,,,,,,,,2023-08-06_08h17.44.904,HF_wild_card,2022.2.4,MacIntel,60.04202942,61475c6bb6cdf4eadb143dd8,64ce5acb97489d65b14ecc7a,64cf4888732099a712481116,,,,,,,decisionTrl,resources/DB.BMP,resources/DBN.BMP,Door1,-0.337021383,-0.004361064,1,0,0,1.2121,optionLeft,30,4285,2,35,0,35,0,1,,,,,,,,,,,,,,,,,,,,,,,,,,,,,,,,,,,,,,,
,,,,,,,,2023-08-06_08h17.44.904,HF_wild_card,2022.2.4,MacIntel,60.04202942,61475c6bb6cdf4eadb143dd8,64ce5acb97489d65b14ecc7a,64cf4888732099a712481116,,,,,,,decisionTrl,resources/DY.BMP,resources/DR.BMP,Door4,-0.264460314,0.002091471,1,0,0,1.6754,optionLeft,60,4345,2,36,0,36,0,1,,,,,,,,,,,,,,,,,,,,,,,,,,,,,,,,,,,,,,,
,,,,,,,,2023-08-06_08h17.44.904,HF_wild_card,2022.2.4,MacIntel,60.04202942,61475c6bb6cdf4eadb143dd8,64ce5acb97489d65b14ecc7a,64cf4888732099a712481116,,,,,,,sngl,resources/DY.BMP,resources/Empty.png,Door4,-0.239558173,0.000430908,1,0,0,0.8792,optionLeft,60,4405,2,37,0,37,0,1,,,,,,,,,,,,,,,,,,,,,,,,,,,,,,,,,,,,,,,
,,,,,,,,2023-08-06_08h17.44.904,HF_wild_card,2022.2.4,MacIntel,60.04202942,61475c6bb6cdf4eadb143dd8,64ce5acb97489d65b14ecc7a,64cf4888732099a712481116,,,,,,,decisionTrl,resources/DBN.BMP,resources/DB.BMP,Door1,0.306704441,-0.029907769,1,0,0,0.8296,optionRight,30,4435,2,38,0,38,0,1,,,,,,,,,,,,,,,,,,,,,,,,,,,,,,,,,,,,,,,
,,,,,,,,2023-08-06_08h17.44.904,HF_wild_card,2022.2.4,MacIntel,60.04202942,61475c6bb6cdf4eadb143dd8,64ce5acb97489d65b14ecc7a,64cf4888732099a712481116,,,,,,,sngl,resources/DG.BMP,resources/Empty.png,Door3,-0.308691474,0.030451016,1,0,0,0.7779,optionLeft,70,4505,2,39,0,39,0,1,,,,,,,,,,,,,,,,,,,,,,,,,,,,,,,,,,,,,,,
,,,,,,,,2023-08-06_08h17.44.904,HF_wild_card,2022.2.4,MacIntel,60.04202942,61475c6bb6cdf4eadb143dd8,64ce5acb97489d65b14ecc7a,64cf4888732099a712481116,,,,,,,decisionTrl,resources/DR.BMP,resources/DY.BMP,Door4,0.290723877,-0.005735135,1,0,0,1.3962,optionRight,60,4565,2,40,0,40,0,1,,,,,,,,,,,,,,,,,,,,,,,,,,,,,,,,,,,,,,,
,,,,,,,,2023-08-06_08h17.44.904,HF_wild_card,2022.2.4,MacIntel,60.04202942,61475c6bb6cdf4eadb143dd8,64ce5acb97489d65b14ecc7a,64cf4888732099a712481116,,,,,,,ctch,resources/DY.BMP,resources/DB.BMP,Door4,-0.312635498,-0.009090915,1,0,0,1.1288,optionLeft,80,4645,2,41,0,41,0,1,,,,,,,,,,,,,,,,,,,,,,,,,,,,,,,,,,,,,,,
,,,,,,,,2023-08-06_08h17.44.904,HF_wild_card,2022.2.4,MacIntel,60.04202942,61475c6bb6cdf4eadb143dd8,64ce5acb97489d65b14ecc7a,64cf4888732099a712481116,,,,,,,decisionTrl,resources/DY.BMP,resources/DG.BMP,Door3,0.366456299,-0.00140313,1,0,0,1.3625,optionRight,70,4715,2,42,0,42,0,1,,,,,,,,,,,,,,,,,,,,,,,,,,,,,,,,,,,,,,,
,,,,,,,,2023-08-06_08h17.44.904,HF_wild_card,2022.2.4,MacIntel,60.04202942,61475c6bb6cdf4eadb143dd8,64ce5acb97489d65b14ecc7a,64cf4888732099a712481116,,,,,,,ctch,resources/DBN.BMP,resources/DG.BMP,Door3,0.298898519,-0.034055379,1,0,0,1.0462,optionRight,70,4785,2,43,0,43,0,1,,,,,,,,,,,,,,,,,,,,,,,,,,,,,,,,,,,,,,,
,,,,,,,,2023-08-06_08h17.44.904,HF_wild_card,2022.2.4,MacIntel,60.04202942,61475c6bb6cdf4eadb143dd8,64ce5acb97489d65b14ecc7a,64cf4888732099a712481116,,,,,,,,,,,,,,,,,,,,,,,,,,1,0,1,0,1,,,,,,,,,,,,,,,,,,,,,,,,,,,,,,,,,,
,,,,,,,,2023-08-06_08h17.44.904,HF_wild_card,2022.2.4,MacIntel,60.04202942,61475c6bb6cdf4eadb143dd8,64ce5acb97489d65b14ecc7a,64cf4888732099a712481116,,,,,,,decisionTrl,resources/DY.BMP,resources/DG.BMP,Door3,0.251661174,-0.123169827,1,0,0,0.816,optionRight,70,4855,3,0,0,0,0,1,,,,,,,,,,,,,,,,,,,,,,,,,,,,,,,,,,,,,,,
,,,,,,,,2023-08-06_08h17.44.904,HF_wild_card,2022.2.4,MacIntel,60.04202942,61475c6bb6cdf4eadb143dd8,64ce5acb97489d65b14ecc7a,64cf4888732099a712481116,,,,,,,decisionTrl,resources/DG.BMP,resources/DY.BMP,Door3,-0.292161458,-0.043426005,1,0,0,1.0131,optionLeft,70,4925,3,1,0,1,0,1,,,,,,,,,,,,,,,,,,,,,,,,,,,,,,,,,,,,,,,
,,,,,,,,2023-08-06_08h17.44.904,HF_wild_card,2022.2.4,MacIntel,60.04202942,61475c6bb6cdf4eadb143dd8,64ce5acb97489d65b14ecc7a,64cf4888732099a712481116,,,,,,,decisionTrl,resources/DBN.BMP,resources/DB.BMP,Door1,0.345886095,-0.046600444,1,0,0,0.8274,optionRight,30,4955,3,2,0,2,0,1,,,,,,,,,,,,,,,,,,,,,,,,,,,,,,,,,,,,,,,
,,,,,,,,2023-08-06_08h17.44.904,HF_wild_card,2022.2.4,MacIntel,60.04202942,61475c6bb6cdf4eadb143dd8,64ce5acb97489d65b14ecc7a,64cf4888732099a712481116,,,,,,,ctch,resources/DB.BMP,resources/DY.BMP,Door4,0.359342312,-0.033565267,1,0,0,1.1113,optionRight,80,5035,3,3,0,3,0,1,,,,,,,,,,,,,,,,,,,,,,,,,,,,,,,,,,,,,,,
,,,,,,,,2023-08-06_08h17.44.904,HF_wild_card,2022.2.4,MacIntel,60.04202942,61475c6bb6cdf4eadb143dd8,64ce5acb97489d65b14ecc7a,64cf4888732099a712481116,,,,,,,ctch,resources/DBN.BMP,resources/DG.BMP,Door3,0.309151476,-0.02523312,1,0,0,0.9786,optionRight,70,5105,3,4,0,4,0,1,,,,,,,,,,,,,,,,,,,,,,,,,,,,,,,,,,,,,,,
,,,,,,,,2023-08-06_08h17.44.904,HF_wild_card,2022.2.4,MacIntel,60.04202942,61475c6bb6cdf4eadb143dd8,64ce5acb97489d65b14ecc7a,64cf4888732099a712481116,,,,,,,decisionTrl,resources/DY.BMP,resources/DG.BMP,Door3,0.377732883,-0.013239814,1,0,0,1.9282,optionRight,70,5175,3,5,0,5,0,1,,,,,,,,,,,,,,,,,,,,,,,,,,,,,,,,,,,,,,,
,,,,,,,,2023-08-06_08h17.44.904,HF_wild_card,2022.2.4,MacIntel,60.04202942,61475c6bb6cdf4eadb143dd8,64ce5acb97489d65b14ecc7a,64cf4888732099a712481116,,,,,,,decisionTrl,resources/DR.BMP,resources/DG.BMP,WildCard_NonEx,-0.209639282,0.020481262,1,0,0,1.2461,optionLeft,55,5230,3,6,0,6,0,1,,,,,,,,,,,,,,,,,,,,,,,,,,,,,,,,,,,,,,,
,,,,,,,,2023-08-06_08h17.44.904,HF_wild_card,2022.2.4,MacIntel,60.04202942,61475c6bb6cdf4eadb143dd8,64ce5acb97489d65b14ecc7a,64cf4888732099a712481116,,,,,,,decisionTrl,resources/DBN.BMP,resources/DB.BMP,Door1,0.283039822,-0.039024828,1,0,0,1.071,optionRight,30,5260,3,7,0,7,0,1,,,,,,,,,,,,,,,,,,,,,,,,,,,,,,,,,,,,,,,
,,,,,,,,2023-08-06_08h17.44.904,HF_wild_card,2022.2.4,MacIntel,60.04202942,61475c6bb6cdf4eadb143dd8,64ce5acb97489d65b14ecc7a,64cf4888732099a712481116,,,,,,,decisionTrl,resources/DBN.BMP,resources/DB.BMP,Door1,0.442000326,-0.013615757,1,0,0,0.9285,optionRight,30,5290,3,8,0,8,0,1,,,,,,,,,,,,,,,,,,,,,,,,,,,,,,,,,,,,,,,
,,,,,,,,2023-08-06_08h17.44.904,HF_wild_card,2022.2.4,MacIntel,60.04202942,61475c6bb6cdf4eadb143dd8,64ce5acb97489d65b14ecc7a,64cf4888732099a712481116,,,,,,,decisionTrl,resources/DBN.BMP,resources/DR.BMP,WildCard_NonEx,0.409928657,-0.037139214,1,0,0,1.0255,optionRight,45,5335,3,9,0,9,0,1,,,,,,,,,,,,,,,,,,,,,,,,,,,,,,,,,,,,,,,
,,,,,,,,2023-08-06_08h17.44.904,HF_wild_card,2022.2.4,MacIntel,60.04202942,61475c6bb6cdf4eadb143dd8,64ce5acb97489d65b14ecc7a,64cf4888732099a712481116,,,,,,,decisionTrl,resources/DR.BMP,resources/DBN.BMP,WildCard_NonEx,-0.362241821,-0.008969828,1,0,0,1.1785,optionLeft,55,5390,3,10,0,10,0,1,,,,,,,,,,,,,,,,,,,,,,,,,,,,,,,,,,,,,,,
,,,,,,,,2023-08-06_08h17.44.904,HF_wild_card,2022.2.4,MacIntel,60.04202942,61475c6bb6cdf4eadb143dd8,64ce5acb97489d65b14ecc7a,64cf4888732099a712481116,,,,,,,decisionTrl,resources/DBN.BMP,resources/DB.BMP,Door1,0.342203369,0.021405267,1,0,0,0.9458,optionRight,30,5420,3,11,0,11,0,1,,,,,,,,,,,,,,,,,,,,,,,,,,,,,,,,,,,,,,,
,,,,,,,,2023-08-06_08h17.44.904,HF_wild_card,2022.2.4,MacIntel,60.04202942,61475c6bb6cdf4eadb143dd8,64ce5acb97489d65b14ecc7a,64cf4888732099a712481116,,,,,,,ctch,resources/DG.BMP,resources/DBN.BMP,Door3,-0.337829386,0.023277181,1,0,0,0.9458,optionLeft,70,5490,3,12,0,12,0,1,,,,,,,,,,,,,,,,,,,,,,,,,,,,,,,,,,,,,,,
,,,,,,,,2023-08-06_08h17.44.904,HF_wild_card,2022.2.4,MacIntel,60.04202942,61475c6bb6cdf4eadb143dd8,64ce5acb97489d65b14ecc7a,64cf4888732099a712481116,,,,,,,decisionTrl,resources/DY.BMP,resources/DG.BMP,Door3,0.471762831,0.002967055,1,0,0,1.3298,optionRight,70,5560,3,13,0,13,0,1,,,,,,,,,,,,,,,,,,,,,,,,,,,,,,,,,,,,,,,
,,,,,,,,2023-08-06_08h17.44.904,HF_wild_card,2022.2.4,MacIntel,60.04202942,61475c6bb6cdf4eadb143dd8,64ce5acb97489d65b14ecc7a,64cf4888732099a712481116,,,,,,,decisionTrl,resources/DG.BMP,resources/DY.BMP,Door4,0.385277642,0.02509335,1,0,0,1.6811,optionRight,60,5620,3,14,0,14,0,1,,,,,,,,,,,,,,,,,,,,,,,,,,,,,,,,,,,,,,,
,,,,,,,,2023-08-06_08h17.44.904,HF_wild_card,2022.2.4,MacIntel,60.04202942,61475c6bb6cdf4eadb143dd8,64ce5acb97489d65b14ecc7a,64cf4888732099a712481116,,,,,,,ctch,resources/DBN.BMP,resources/DG.BMP,Door3,0.398634169,-0.016570909,1,0,0,1.0459,optionRight,70,5690,3,15,0,15,0,1,,,,,,,,,,,,,,,,,,,,,,,,,,,,,,,,,,,,,,,
,,,,,,,,2023-08-06_08h17.44.904,HF_wild_card,2022.2.4,MacIntel,60.04202942,61475c6bb6cdf4eadb143dd8,64ce5acb97489d65b14ecc7a,64cf4888732099a712481116,,,,,,,sngl,resources/Empty.png,resources/DY.BMP,Door4,0.438238118,0.022745226,1,0,0,0.868,optionRight,60,5750,3,16,0,16,0,1,,,,,,,,,,,,,,,,,,,,,,,,,,,,,,,,,,,,,,,
,,,,,,,,2023-08-06_08h17.44.904,HF_wild_card,2022.2.4,MacIntel,60.04202942,61475c6bb6cdf4eadb143dd8,64ce5acb97489d65b14ecc7a,64cf4888732099a712481116,,,,,,,sngl,resources/DB.BMP,resources/Empty.png,Door1,-0.302957492,-0.010428772,1,0,0,1.0619,optionLeft,30,5780,3,17,0,17,0,1,,,,,,,,,,,,,,,,,,,,,,,,,,,,,,,,,,,,,,,
,,,,,,,,2023-08-06_08h17.44.904,HF_wild_card,2022.2.4,MacIntel,60.04202942,61475c6bb6cdf4eadb143dd8,64ce5acb97489d65b14ecc7a,64cf4888732099a712481116,,,,,,,sngl,resources/Empty.png,resources/DBN.BMP,Door2,0.347769775,0.025803562,1,0,0,0.9131,optionRight,20,5800,3,18,0,18,0,1,,,,,,,,,,,,,,,,,,,,,,,,,,,,,,,,,,,,,,,
,,,,,,,,2023-08-06_08h17.44.904,HF_wild_card,2022.2.4,MacIntel,60.04202942,61475c6bb6cdf4eadb143dd8,64ce5acb97489d65b14ecc7a,64cf4888732099a712481116,,,,,,,ctch,resources/DY.BMP,resources/DB.BMP,Door4,-0.456638184,0.031705085,1,0,0,1.4631,optionLeft,60,5860,3,19,0,19,0,1,,,,,,,,,,,,,,,,,,,,,,,,,,,,,,,,,,,,,,,
,,,,,,,,2023-08-06_08h17.44.904,HF_wild_card,2022.2.4,MacIntel,60.04202942,61475c6bb6cdf4eadb143dd8,64ce5acb97489d65b14ecc7a,64cf4888732099a712481116,,,,,,,decisionTrl,resources/DR.BMP,resources/DY.BMP,WildCard_NonEx,-0.380672336,0.02781467,1,0,0,1.2793,optionLeft,45,5905,3,20,0,20,0,1,,,,,,,,,,,,,,,,,,,,,,,,,,,,,,,,,,,,,,,
,,,,,,,,2023-08-06_08h17.44.904,HF_wild_card,2022.2.4,MacIntel,60.04202942,61475c6bb6cdf4eadb143dd8,64ce5acb97489d65b14ecc7a,64cf4888732099a712481116,,,,,,,decisionTrl,resources/DG.BMP,resources/DY.BMP,Door3,-0.273785875,0.00844201,1,0,0,1.7118,optionLeft,70,5975,3,21,0,21,0,1,,,,,,,,,,,,,,,,,,,,,,,,,,,,,,,,,,,,,,,
,,,,,,,,2023-08-06_08h17.44.904,HF_wild_card,2022.2.4,MacIntel,60.04202942,61475c6bb6cdf4eadb143dd8,64ce5acb97489d65b14ecc7a,64cf4888732099a712481116,,,,,,,sngl,resources/DR.BMP,resources/Empty.png,WildCard_NonEx,-0.384314033,0.042818095,1,0,0,0.8803,optionLeft,45,6020,3,22,0,22,0,1,,,,,,,,,,,,,,,,,,,,,,,,,,,,,,,,,,,,,,,
,,,,,,,,2023-08-06_08h17.44.904,HF_wild_card,2022.2.4,MacIntel,60.04202942,61475c6bb6cdf4eadb143dd8,64ce5acb97489d65b14ecc7a,64cf4888732099a712481116,,,,,,,sngl,resources/Empty.png,resources/DR.BMP,WildCard_NonEx,0.410437283,0.073535224,1,0,0,0.7539,optionRight,45,6065,3,23,0,23,0,1,,,,,,,,,,,,,,,,,,,,,,,,,,,,,,,,,,,,,,,
,,,,,,,,2023-08-06_08h17.44.904,HF_wild_card,2022.2.4,MacIntel,60.04202942,61475c6bb6cdf4eadb143dd8,64ce5acb97489d65b14ecc7a,64cf4888732099a712481116,,,,,,,sngl,resources/DY.BMP,resources/Empty.png,Door4,-0.376701321,0.042252299,1,0,0,0.7805,optionLeft,80,6145,3,24,0,24,0,1,,,,,,,,,,,,,,,,,,,,,,,,,,,,,,,,,,,,,,,
,,,,,,,,2023-08-06_08h17.44.904,HF_wild_card,2022.2.4,MacIntel,60.04202942,61475c6bb6cdf4eadb143dd8,64ce5acb97489d65b14ecc7a,64cf4888732099a712481116,,,,,,,decisionTrl,resources/DB.BMP,resources/DBN.BMP,Door1,-0.383479818,0.058488057,1,0,0,1.0097,optionLeft,30,6175,3,25,0,25,0,1,,,,,,,,,,,,,,,,,,,,,,,,,,,,,,,,,,,,,,,
,,,,,,,,2023-08-06_08h17.44.904,HF_wild_card,2022.2.4,MacIntel,60.04202942,61475c6bb6cdf4eadb143dd8,64ce5acb97489d65b14ecc7a,64cf4888732099a712481116,,,,,,,sngl,resources/DG.BMP,resources/Empty.png,Door3,-0.377444458,0.027741597,1,0,0,0.8457,optionLeft,70,6245,3,26,0,26,0,1,,,,,,,,,,,,,,,,,,,,,,,,,,,,,,,,,,,,,,,
,,,,,,,,2023-08-06_08h17.44.904,HF_wild_card,2022.2.4,MacIntel,60.04202942,61475c6bb6cdf4eadb143dd8,64ce5acb97489d65b14ecc7a,64cf4888732099a712481116,,,,,,,decisionTrl,resources/DG.BMP,resources/DY.BMP,Door3,-0.366022,0.056159092,1,0,0,1.1004,optionLeft,70,6315,3,27,0,27,0,1,,,,,,,,,,,,,,,,,,,,,,,,,,,,,,,,,,,,,,,
,,,,,,,,2023-08-06_08h17.44.904,HF_wild_card,2022.2.4,MacIntel,60.04202942,61475c6bb6cdf4eadb143dd8,64ce5acb97489d65b14ecc7a,64cf4888732099a712481116,,,,,,,ctch,resources/DY.BMP,resources/DB.BMP,Door4,-0.305415582,0.072722609,1,0,0,1.1608,optionLeft,80,6395,3,28,0,28,0,1,,,,,,,,,,,,,,,,,,,,,,,,,,,,,,,,,,,,,,,
,,,,,,,,2023-08-06_08h17.44.904,HF_wild_card,2022.2.4,MacIntel,60.04202942,61475c6bb6cdf4eadb143dd8,64ce5acb97489d65b14ecc7a,64cf4888732099a712481116,,,,,,,sngl,resources/Empty.png,resources/DG.BMP,Door3,0.367669271,-0.00886912,1,0,0,1.8274,optionRight,70,6465,3,29,0,29,0,1,,,,,,,,,,,,,,,,,,,,,,,,,,,,,,,,,,,,,,,
,,,,,,,,2023-08-06_08h17.44.904,HF_wild_card,2022.2.4,MacIntel,60.04202942,61475c6bb6cdf4eadb143dd8,64ce5acb97489d65b14ecc7a,64cf4888732099a712481116,,,,,,,decisionTrl,resources/DB.BMP,resources/DR.BMP,WildCard_NonEx,0.468529188,-0.001435547,1,0,0,1.6971,optionRight,55,6520,3,30,0,30,0,1,,,,,,,,,,,,,,,,,,,,,,,,,,,,,,,,,,,,,,,
,,,,,,,,2023-08-06_08h17.44.904,HF_wild_card,2022.2.4,MacIntel,60.04202942,61475c6bb6cdf4eadb143dd8,64ce5acb97489d65b14ecc7a,64cf4888732099a712481116,,,,,,,decisionTrl,resources/DB.BMP,resources/DBN.BMP,Door1,-0.353331841,0.025467767,1,0,0,1.1779,optionLeft,30,6550,3,31,0,31,0,1,,,,,,,,,,,,,,,,,,,,,,,,,,,,,,,,,,,,,,,
,,,,,,,,2023-08-06_08h17.44.904,HF_wild_card,2022.2.4,MacIntel,60.04202942,61475c6bb6cdf4eadb143dd8,64ce5acb97489d65b14ecc7a,64cf4888732099a712481116,,,,,,,decisionTrl,resources/DY.BMP,resources/DR.BMP,Door4,-0.338271111,-0.052907172,1,0,0,1.2758,optionLeft,60,6610,3,32,0,32,0,1,,,,,,,,,,,,,,,,,,,,,,,,,,,,,,,,,,,,,,,
,,,,,,,,2023-08-06_08h17.44.904,HF_wild_card,2022.2.4,MacIntel,60.04202942,61475c6bb6cdf4eadb143dd8,64ce5acb97489d65b14ecc7a,64cf4888732099a712481116,,,,,,,sngl,resources/Empty.png,resources/DB.BMP,Door1,0.378768039,-0.021997104,1,0,0,0.8538,optionRight,30,6640,3,33,0,33,0,1,,,,,,,,,,,,,,,,,,,,,,,,,,,,,,,,,,,,,,,
,,,,,,,,2023-08-06_08h17.44.904,HF_wild_card,2022.2.4,MacIntel,60.04202942,61475c6bb6cdf4eadb143dd8,64ce5acb97489d65b14ecc7a,64cf4888732099a712481116,,,,,,,decisionTrl,resources/DR.BMP,resources/DB.BMP,WildCard_NonEx,-0.332399902,0.009135098,1,0,0,0.8962,optionLeft,55,6695,3,34,0,34,0,1,,,,,,,,,,,,,,,,,,,,,,,,,,,,,,,,,,,,,,,
,,,,,,,,2023-08-06_08h17.44.904,HF_wild_card,2022.2.4,MacIntel,60.04202942,61475c6bb6cdf4eadb143dd8,64ce5acb97489d65b14ecc7a,64cf4888732099a712481116,,,,,,,sngl,resources/DR.BMP,resources/Empty.png,WildCard_NonEx,-0.382912937,0.031407979,1,0,0,0.7608,optionLeft,55,6750,3,35,0,35,0,1,,,,,,,,,,,,,,,,,,,,,,,,,,,,,,,,,,,,,,,
,,,,,,,,2023-08-06_08h17.44.904,HF_wild_card,2022.2.4,MacIntel,60.04202942,61475c6bb6cdf4eadb143dd8,64ce5acb97489d65b14ecc7a,64cf4888732099a712481116,,,,,,,sngl,resources/DBN.BMP,resources/Empty.png,Door2,-0.266254612,-0.020086263,1,0,0,0.8276,optionLeft,40,6790,3,36,0,36,0,1,,,,,,,,,,,,,,,,,,,,,,,,,,,,,,,,,,,,,,,
,,,,,,,,2023-08-06_08h17.44.904,HF_wild_card,2022.2.4,MacIntel,60.04202942,61475c6bb6cdf4eadb143dd8,64ce5acb97489d65b14ecc7a,64cf4888732099a712481116,,,,,,,ctch,resources/DB.BMP,resources/DY.BMP,Door4,0.362060276,-0.013917948,1,0,0,0.9037,optionRight,60,6850,3,37,0,37,0,1,,,,,,,,,,,,,,,,,,,,,,,,,,,,,,,,,,,,,,,
,,,,,,,,2023-08-06_08h17.44.904,HF_wild_card,2022.2.4,MacIntel,60.04202942,61475c6bb6cdf4eadb143dd8,64ce5acb97489d65b14ecc7a,64cf4888732099a712481116,,,,,,,sngl,resources/Empty.png,resources/DR.BMP,WildCard_NonEx,0.348094076,-0.033355611,1,0,0,0.8454,optionRight,55,6905,3,38,0,38,0,1,,,,,,,,,,,,,,,,,,,,,,,,,,,,,,,,,,,,,,,
,,,,,,,,2023-08-06_08h17.44.904,HF_wild_card,2022.2.4,MacIntel,60.04202942,61475c6bb6cdf4eadb143dd8,64ce5acb97489d65b14ecc7a,64cf4888732099a712481116,,,,,,,ctch,resources/DG.BMP,resources/DBN.BMP,Door3,-0.279886068,0.026150004,1,0,0,0.9619,optionLeft,70,6975,3,39,0,39,0,1,,,,,,,,,,,,,,,,,,,,,,,,,,,,,,,,,,,,,,,
,,,,,,,,2023-08-06_08h17.44.904,HF_wild_card,2022.2.4,MacIntel,60.04202942,61475c6bb6cdf4eadb143dd8,64ce5acb97489d65b14ecc7a,64cf4888732099a712481116,,,,,,,decisionTrl,resources/DY.BMP,resources/DG.BMP,Door4,-0.305562066,0.037017992,1,0,0,1.0942,optionLeft,80,7055,3,40,0,40,0,1,,,,,,,,,,,,,,,,,,,,,,,,,,,,,,,,,,,,,,,
,,,,,,,,2023-08-06_08h17.44.904,HF_wild_card,2022.2.4,MacIntel,60.04202942,61475c6bb6cdf4eadb143dd8,64ce5acb97489d65b14ecc7a,64cf4888732099a712481116,,,,,,,decisionTrl,resources/DB.BMP,resources/DBN.BMP,Door1,-0.276363729,0.022008769,1,0,0,1.6595,optionLeft,30,7085,3,41,0,41,0,1,,,,,,,,,,,,,,,,,,,,,,,,,,,,,,,,,,,,,,,
,,,,,,,,2023-08-06_08h17.44.904,HF_wild_card,2022.2.4,MacIntel,60.04202942,61475c6bb6cdf4eadb143dd8,64ce5acb97489d65b14ecc7a,64cf4888732099a712481116,,,,,,,decisionTrl,resources/DG.BMP,resources/DR.BMP,WildCard_NonEx,0.364294434,-0.030501133,1,0,0,1.4115,optionRight,55,7140,3,42,0,42,0,1,,,,,,,,,,,,,,,,,,,,,,,,,,,,,,,,,,,,,,,
,,,,,,,,2023-08-06_08h17.44.904,HF_wild_card,2022.2.4,MacIntel,60.04202942,61475c6bb6cdf4eadb143dd8,64ce5acb97489d65b14ecc7a,64cf4888732099a712481116,,,,,,,decisionTrl,resources/DB.BMP,resources/DBN.BMP,Door1,-0.263801948,0.051715868,1,0,0,0.9291,optionLeft,30,7170,3,43,0,43,0,1,,,,,,,,,,,,,,,,,,,,,,,,,,,,,,,,,,,,,,,
,,,,,,,,2023-08-06_08h17.44.904,HF_wild_card,2022.2.4,MacIntel,60.04202942,61475c6bb6cdf4eadb143dd8,64ce5acb97489d65b14ecc7a,64cf4888732099a712481116,,,,,,,,,,,,,,,,,,,,,,,,,,2,0,2,0,1,,,,,,,,,,,,,,,,,,,,,,,,,,,,,,,,,,
,,,,,,,,2023-08-06_08h17.44.904,HF_wild_card,2022.2.4,MacIntel,60.04202942,61475c6bb6cdf4eadb143dd8,64ce5acb97489d65b14ecc7a,64cf4888732099a712481116,,,,,,,decisionTrl,resources/DG.BMP,resources/DY.BMP,Door4,0.410141059,-0.122930705,1,0,0,2.7548,optionRight,60,7230,4,0,0,0,0,1,,,,,,,,,,,,,,,,,,,,,,,,,,,,,,,,,,,,,,,
,,,,,,,,2023-08-06_08h17.44.904,HF_wild_card,2022.2.4,MacIntel,60.04202942,61475c6bb6cdf4eadb143dd8,64ce5acb97489d65b14ecc7a,64cf4888732099a712481116,,,,,,,ctch,resources/DBN.BMP,resources/DG.BMP,Door3,0.271242608,-0.016677144,1,0,0,0.8491,optionRight,70,7300,4,1,0,1,0,1,,,,,,,,,,,,,,,,,,,,,,,,,,,,,,,,,,,,,,,
,,,,,,,,2023-08-06_08h17.44.904,HF_wild_card,2022.2.4,MacIntel,60.04202942,61475c6bb6cdf4eadb143dd8,64ce5acb97489d65b14ecc7a,64cf4888732099a712481116,,,,,,,sngl,resources/Empty.png,resources/DBN.BMP,Door2,0.235951131,-0.005447557,1,0,0,1.152,optionRight,40,7340,4,2,0,2,0,1,,,,,,,,,,,,,,,,,,,,,,,,,,,,,,,,,,,,,,,
,,,,,,,,2023-08-06_08h17.44.904,HF_wild_card,2022.2.4,MacIntel,60.04202942,61475c6bb6cdf4eadb143dd8,64ce5acb97489d65b14ecc7a,64cf4888732099a712481116,,,,,,,decisionTrl,resources/DP.BMP,resources/DG.BMP,WildCard_Ex,-0.411180556,0.018446045,1,0,0,1.2471,optionLeft,55,7395,4,3,0,3,0,1,,,,,,,,,,,,,,,,,,,,,,,,,,,,,,,,,,,,,,,
,,,,,,,,2023-08-06_08h17.44.904,HF_wild_card,2022.2.4,MacIntel,60.04202942,61475c6bb6cdf4eadb143dd8,64ce5acb97489d65b14ecc7a,64cf4888732099a712481116,,,,,,,sngl,resources/Empty.png,resources/DG.BMP,Door3,0.290030857,0.006391296,1,0,0,0.7647,optionRight,70,7465,4,4,0,4,0,1,,,,,,,,,,,,,,,,,,,,,,,,,,,,,,,,,,,,,,,
,,,,,,,,2023-08-06_08h17.44.904,HF_wild_card,2022.2.4,MacIntel,60.04202942,61475c6bb6cdf4eadb143dd8,64ce5acb97489d65b14ecc7a,64cf4888732099a712481116,,,,,,,decisionTrl,resources/DBN.BMP,resources/DP.BMP,WildCard_Ex,0.278623115,0.026184896,1,0,0,1.2467,optionRight,55,7520,4,5,0,5,0,1,,,,,,,,,,,,,,,,,,,,,,,,,,,,,,,,,,,,,,,
,,,,,,,,2023-08-06_08h17.44.904,HF_wild_card,2022.2.4,MacIntel,60.04202942,61475c6bb6cdf4eadb143dd8,64ce5acb97489d65b14ecc7a,64cf4888732099a712481116,,,,,,,sngl,resources/DB.BMP,resources/Empty.png,Door1,-0.267074246,0.025374451,1,0,0,0.9125,optionLeft,30,7550,4,6,0,6,0,1,,,,,,,,,,,,,,,,,,,,,,,,,,,,,,,,,,,,,,,
,,,,,,,,2023-08-06_08h17.44.904,HF_wild_card,2022.2.4,MacIntel,60.04202942,61475c6bb6cdf4eadb143dd8,64ce5acb97489d65b14ecc7a,64cf4888732099a712481116,,,,,,,decisionTrl,resources/DBN.BMP,resources/DB.BMP,Door1,0.284601373,0.002327813,1,0,0,1.0799,optionRight,30,7580,4,7,0,7,0,1,,,,,,,,,,,,,,,,,,,,,,,,,,,,,,,,,,,,,,,
,,,,,,,,2023-08-06_08h17.44.904,HF_wild_card,2022.2.4,MacIntel,60.04202942,61475c6bb6cdf4eadb143dd8,64ce5acb97489d65b14ecc7a,64cf4888732099a712481116,,,,,,,decisionTrl,resources/DBN.BMP,resources/DB.BMP,Door1,0.26557251,0.009905396,1,0,0,0.7321,optionRight,30,7610,4,8,0,8,0,1,,,,,,,,,,,,,,,,,,,,,,,,,,,,,,,,,,,,,,,
,,,,,,,,2023-08-06_08h17.44.904,HF_wild_card,2022.2.4,MacIntel,60.04202942,61475c6bb6cdf4eadb143dd8,64ce5acb97489d65b14ecc7a,64cf4888732099a712481116,,,,,,,decisionTrl,resources/DP.BMP,resources/DB.BMP,WildCard_Ex,-0.330262892,0.014875658,1,0,0,0.9616,optionLeft,55,7665,4,9,0,9,0,1,,,,,,,,,,,,,,,,,,,,,,,,,,,,,,,,,,,,,,,
,,,,,,,,2023-08-06_08h17.44.904,HF_wild_card,2022.2.4,MacIntel,60.04202942,61475c6bb6cdf4eadb143dd8,64ce5acb97489d65b14ecc7a,64cf4888732099a712481116,,,,,,,ctch,resources/DG.BMP,resources/DBN.BMP,Door3,-0.215070326,0.039115668,1,0,0,0.8631,optionLeft,70,7735,4,10,0,10,0,1,,,,,,,,,,,,,,,,,,,,,,,,,,,,,,,,,,,,,,,
,,,,,,,,2023-08-06_08h17.44.904,HF_wild_card,2022.2.4,MacIntel,60.04202942,61475c6bb6cdf4eadb143dd8,64ce5acb97489d65b14ecc7a,64cf4888732099a712481116,,,,,,,sngl,resources/DG.BMP,resources/Empty.png,Door3,-0.22503045,0.004462857,1,0,0,0.6792,optionLeft,70,7805,4,11,0,11,0,1,,,,,,,,,,,,,,,,,,,,,,,,,,,,,,,,,,,,,,,
,,,,,,,,2023-08-06_08h17.44.904,HF_wild_card,2022.2.4,MacIntel,60.04202942,61475c6bb6cdf4eadb143dd8,64ce5acb97489d65b14ecc7a,64cf4888732099a712481116,,,,,,,decisionTrl,resources/DB.BMP,resources/DBN.BMP,Door1,-0.354628771,-0.037845934,1,0,0,0.8616,optionLeft,30,7835,4,12,0,12,0,1,,,,,,,,,,,,,,,,,,,,,,,,,,,,,,,,,,,,,,,
,,,,,,,,2023-08-06_08h17.44.904,HF_wild_card,2022.2.4,MacIntel,60.04202942,61475c6bb6cdf4eadb143dd8,64ce5acb97489d65b14ecc7a,64cf4888732099a712481116,,,,,,,sngl,resources/Empty.png,resources/DP.BMP,WildCard_Ex,0.346488444,-0.001355387,1,0,0,0.7638,optionRight,55,7890,4,13,0,13,0,1,,,,,,,,,,,,,,,,,,,,,,,,,,,,,,,,,,,,,,,
,,,,,,,,2023-08-06_08h17.44.904,HF_wild_card,2022.2.4,MacIntel,60.04202942,61475c6bb6cdf4eadb143dd8,64ce5acb97489d65b14ecc7a,64cf4888732099a712481116,,,,,,,decisionTrl,resources/DY.BMP,resources/DG.BMP,Door3,0.205574748,0.017004191,1,0,0,1.3453,optionRight,70,7960,4,14,0,14,0,1,,,,,,,,,,,,,,,,,,,,,,,,,,,,,,,,,,,,,,,
,,,,,,,,2023-08-06_08h17.44.904,HF_wild_card,2022.2.4,MacIntel,60.04202942,61475c6bb6cdf4eadb143dd8,64ce5acb97489d65b14ecc7a,64cf4888732099a712481116,,,,,,,ctch,resources/DG.BMP,resources/DBN.BMP,Door3,-0.27579149,0.027857463,1,0,0,0.863,optionLeft,70,8030,4,15,0,15,0,1,,,,,,,,,,,,,,,,,,,,,,,,,,,,,,,,,,,,,,,
,,,,,,,,2023-08-06_08h17.44.904,HF_wild_card,2022.2.4,MacIntel,60.04202942,61475c6bb6cdf4eadb143dd8,64ce5acb97489d65b14ecc7a,64cf4888732099a712481116,,,,,,,decisionTrl,resources/DB.BMP,resources/DP.BMP,WildCard_Ex,0.190835029,-0.027803718,1,0,0,1.0131,optionRight,55,8085,4,16,0,16,0,1,,,,,,,,,,,,,,,,,,,,,,,,,,,,,,,,,,,,,,,
,,,,,,,,2023-08-06_08h17.44.904,HF_wild_card,2022.2.4,MacIntel,60.04202942,61475c6bb6cdf4eadb143dd8,64ce5acb97489d65b14ecc7a,64cf4888732099a712481116,,,,,,,decisionTrl,resources/DY.BMP,resources/DP.BMP,Door4,-0.236833598,0.066859436,1,0,0,1.6209,optionLeft,60,8145,4,17,0,17,0,1,,,,,,,,,,,,,,,,,,,,,,,,,,,,,,,,,,,,,,,
,,,,,,,,2023-08-06_08h17.44.904,HF_wild_card,2022.2.4,MacIntel,60.04202942,61475c6bb6cdf4eadb143dd8,64ce5acb97489d65b14ecc7a,64cf4888732099a712481116,,,,,,,ctch,resources/DY.BMP,resources/DB.BMP,Door4,-0.230715807,0.013757867,1,0,0,1.1966,optionLeft,80,8225,4,18,0,18,0,1,,,,,,,,,,,,,,,,,,,,,,,,,,,,,,,,,,,,,,,
,,,,,,,,2023-08-06_08h17.44.904,HF_wild_card,2022.2.4,MacIntel,60.04202942,61475c6bb6cdf4eadb143dd8,64ce5acb97489d65b14ecc7a,64cf4888732099a712481116,,,,,,,decisionTrl,resources/DB.BMP,resources/DBN.BMP,Door1,-0.207805583,0.036476339,1,0,0,1.38,optionLeft,30,8255,4,19,0,19,0,1,,,,,,,,,,,,,,,,,,,,,,,,,,,,,,,,,,,,,,,
,,,,,,,,2023-08-06_08h17.44.904,HF_wild_card,2022.2.4,MacIntel,60.04202942,61475c6bb6cdf4eadb143dd8,64ce5acb97489d65b14ecc7a,64cf4888732099a712481116,,,,,,,sngl,resources/DBN.BMP,resources/Empty.png,Door2,-0.246830037,-0.014259338,1,0,0,0.7649,optionLeft,20,8275,4,20,0,20,0,1,,,,,,,,,,,,,,,,,,,,,,,,,,,,,,,,,,,,,,,
,,,,,,,,2023-08-06_08h17.44.904,HF_wild_card,2022.2.4,MacIntel,60.04202942,61475c6bb6cdf4eadb143dd8,64ce5acb97489d65b14ecc7a,64cf4888732099a712481116,,,,,,,decisionTrl,resources/DG.BMP,resources/DP.BMP,Door3,-0.217023519,0.014381443,1,0,0,1.7463,optionLeft,70,8345,4,21,0,21,0,1,,,,,,,,,,,,,,,,,,,,,,,,,,,,,,,,,,,,,,,
,,,,,,,,2023-08-06_08h17.44.904,HF_wild_card,2022.2.4,MacIntel,60.04202942,61475c6bb6cdf4eadb143dd8,64ce5acb97489d65b14ecc7a,64cf4888732099a712481116,,,,,,,decisionTrl,resources/DB.BMP,resources/DBN.BMP,Door1,-0.22064365,0.039671495,1,0,0,1.5153,optionLeft,30,8375,4,22,0,22,0,1,,,,,,,,,,,,,,,,,,,,,,,,,,,,,,,,,,,,,,,
,,,,,,,,2023-08-06_08h17.44.904,HF_wild_card,2022.2.4,MacIntel,60.04202942,61475c6bb6cdf4eadb143dd8,64ce5acb97489d65b14ecc7a,64cf4888732099a712481116,,,,,,,decisionTrl,resources/DP.BMP,resources/DY.BMP,Door4,0.244172635,-0.009551426,1,0,0,1.3447,optionRight,60,8435,4,23,0,23,0,1,,,,,,,,,,,,,,,,,,,,,,,,,,,,,,,,,,,,,,,
,,,,,,,,2023-08-06_08h17.44.904,HF_wild_card,2022.2.4,MacIntel,60.04202942,61475c6bb6cdf4eadb143dd8,64ce5acb97489d65b14ecc7a,64cf4888732099a712481116,,,,,,,decisionTrl,resources/DY.BMP,resources/DG.BMP,Door3,0.169583266,0.038149346,1,0,0,1.3691,optionRight,70,8505,4,24,0,24,0,1,,,,,,,,,,,,,,,,,,,,,,,,,,,,,,,,,,,,,,,
,,,,,,,,2023-08-06_08h17.44.904,HF_wild_card,2022.2.4,MacIntel,60.04202942,61475c6bb6cdf4eadb143dd8,64ce5acb97489d65b14ecc7a,64cf4888732099a712481116,,,,,,,sngl,resources/DP.BMP,resources/Empty.png,WildCard_Ex,-0.337005208,0.023608941,1,0,0,0.8616,optionLeft,55,8560,4,25,0,25,0,1,,,,,,,,,,,,,,,,,,,,,,,,,,,,,,,,,,,,,,,
,,,,,,,,2023-08-06_08h17.44.904,HF_wild_card,2022.2.4,MacIntel,60.04202942,61475c6bb6cdf4eadb143dd8,64ce5acb97489d65b14ecc7a,64cf4888732099a712481116,,,,,,,decisionTrl,resources/DY.BMP,resources/DG.BMP,Door4,-0.207873467,0.035460409,1,0,0,1.6462,optionLeft,60,8620,4,26,0,26,0,1,,,,,,,,,,,,,,,,,,,,,,,,,,,,,,,,,,,,,,,
,,,,,,,,2023-08-06_08h17.44.904,HF_wild_card,2022.2.4,MacIntel,60.04202942,61475c6bb6cdf4eadb143dd8,64ce5acb97489d65b14ecc7a,64cf4888732099a712481116,,,,,,,sngl,resources/Empty.png,resources/DB.BMP,Door1,0.22901808,0.050352512,1,0,0,0.9168,optionRight,30,8650,4,27,0,27,0,1,,,,,,,,,,,,,,,,,,,,,,,,,,,,,,,,,,,,,,,
,,,,,,,,2023-08-06_08h17.44.904,HF_wild_card,2022.2.4,MacIntel,60.04202942,61475c6bb6cdf4eadb143dd8,64ce5acb97489d65b14ecc7a,64cf4888732099a712481116,,,,,,,ctch,resources/DBN.BMP,resources/DG.BMP,Door3,0.32913303,0.058827955,1,0,0,0.929,optionRight,70,8720,4,28,0,28,0,1,,,,,,,,,,,,,,,,,,,,,,,,,,,,,,,,,,,,,,,
,,,,,,,,2023-08-06_08h17.44.904,HF_wild_card,2022.2.4,MacIntel,60.04202942,61475c6bb6cdf4eadb143dd8,64ce5acb97489d65b14ecc7a,64cf4888732099a712481116,,,,,,,sngl,resources/DY.BMP,resources/Empty.png,Door4,-0.258956028,0.022087165,1,0,0,0.845,optionLeft,60,8780,4,29,0,29,0,1,,,,,,,,,,,,,,,,,,,,,,,,,,,,,,,,,,,,,,,
,,,,,,,,2023-08-06_08h17.44.904,HF_wild_card,2022.2.4,MacIntel,60.04202942,61475c6bb6cdf4eadb143dd8,64ce5acb97489d65b14ecc7a,64cf4888732099a712481116,,,,,,,decisionTrl,resources/DP.BMP,resources/DBN.BMP,WildCard_Ex,-0.262161153,0.055263163,1,0,0,0.9945,optionLeft,55,8835,4,30,0,30,0,1,,,,,,,,,,,,,,,,,,,,,,,,,,,,,,,,,,,,,,,
,,,,,,,,2023-08-06_08h17.44.904,HF_wild_card,2022.2.4,MacIntel,60.04202942,61475c6bb6cdf4eadb143dd8,64ce5acb97489d65b14ecc7a,64cf4888732099a712481116,,,,,,,decisionTrl,resources/DBN.BMP,resources/DB.BMP,Door1,0.304947442,0.091678128,1,0,0,1.131,optionRight,30,8865,4,31,0,31,0,1,,,,,,,,,,,,,,,,,,,,,,,,,,,,,,,,,,,,,,,
,,,,,,,,2023-08-06_08h17.44.904,HF_wild_card,2022.2.4,MacIntel,60.04202942,61475c6bb6cdf4eadb143dd8,64ce5acb97489d65b14ecc7a,64cf4888732099a712481116,,,,,,,ctch,resources/DB.BMP,resources/DY.BMP,Door4,0.384488932,0.036217889,1,0,0,1.43,optionRight,80,8945,4,32,0,32,0,1,,,,,,,,,,,,,,,,,,,,,,,,,,,,,,,,,,,,,,,
,,,,,,,,2023-08-06_08h17.44.904,HF_wild_card,2022.2.4,MacIntel,60.04202942,61475c6bb6cdf4eadb143dd8,64ce5acb97489d65b14ecc7a,64cf4888732099a712481116,,,,,,,sngl,resources/Empty.png,resources/DP.BMP,WildCard_Ex,0.46239502,0.073170742,1,0,0,0.8798,optionRight,45,8990,4,33,0,33,0,1,,,,,,,,,,,,,,,,,,,,,,,,,,,,,,,,,,,,,,,
,,,,,,,,2023-08-06_08h17.44.904,HF_wild_card,2022.2.4,MacIntel,60.04202942,61475c6bb6cdf4eadb143dd8,64ce5acb97489d65b14ecc7a,64cf4888732099a712481116,,,,,,,sngl,resources/Empty.png,resources/DY.BMP,Door4,0.339991862,0.034123637,1,0,0,0.8639,optionRight,80,9070,4,34,0,34,0,1,,,,,,,,,,,,,,,,,,,,,,,,,,,,,,,,,,,,,,,
,,,,,,,,2023-08-06_08h17.44.904,HF_wild_card,2022.2.4,MacIntel,60.04202942,61475c6bb6cdf4eadb143dd8,64ce5acb97489d65b14ecc7a,64cf4888732099a712481116,,,,,,,ctch,resources/DB.BMP,resources/DY.BMP,Door4,0.514510091,0.006416829,1,0,0,1.264,optionRight,60,9130,4,35,0,35,0,1,,,,,,,,,,,,,,,,,,,,,,,,,,,,,,,,,,,,,,,
,,,,,,,,2023-08-06_08h17.44.904,HF_wild_card,2022.2.4,MacIntel,60.04202942,61475c6bb6cdf4eadb143dd8,64ce5acb97489d65b14ecc7a,64cf4888732099a712481116,,,,,,,decisionTrl,resources/DG.BMP,resources/DY.BMP,Door4,0.362706028,-0.024069722,1,0,0,2.0955,optionRight,80,9210,4,36,0,36,0,1,,,,,,,,,,,,,,,,,,,,,,,,,,,,,,,,,,,,,,,
,,,,,,,,2023-08-06_08h17.44.904,HF_wild_card,2022.2.4,MacIntel,60.04202942,61475c6bb6cdf4eadb143dd8,64ce5acb97489d65b14ecc7a,64cf4888732099a712481116,,,,,,,decisionTrl,resources/DBN.BMP,resources/DB.BMP,Door1,0.376375054,0.026947903,1,0,0,1.3014,optionRight,30,9240,4,37,0,37,0,1,,,,,,,,,,,,,,,,,,,,,,,,,,,,,,,,,,,,,,,
,,,,,,,,2023-08-06_08h17.44.904,HF_wild_card,2022.2.4,MacIntel,60.04202942,61475c6bb6cdf4eadb143dd8,64ce5acb97489d65b14ecc7a,64cf4888732099a712481116,,,,,,,decisionTrl,resources/DG.BMP,resources/DY.BMP,Door4,0.388926053,-0.005930278,1,0,0,1.7619,optionRight,80,9320,4,38,0,38,0,1,,,,,,,,,,,,,,,,,,,,,,,,,,,,,,,,,,,,,,,
,,,,,,,,2023-08-06_08h17.44.904,HF_wild_card,2022.2.4,MacIntel,60.04202942,61475c6bb6cdf4eadb143dd8,64ce5acb97489d65b14ecc7a,64cf4888732099a712481116,,,,,,,decisionTrl,resources/DB.BMP,resources/DBN.BMP,Door1,-0.328478122,0.017608812,1,0,0,1.1804,optionLeft,30,9350,4,39,0,39,0,1,,,,,,,,,,,,,,,,,,,,,,,,,,,,,,,,,,,,,,,
,,,,,,,,2023-08-06_08h17.44.904,HF_wild_card,2022.2.4,MacIntel,60.04202942,61475c6bb6cdf4eadb143dd8,64ce5acb97489d65b14ecc7a,64cf4888732099a712481116,,,,,,,ctch,resources/DY.BMP,resources/DB.BMP,Door4,-0.275771823,0.04678894,1,0,0,1.2122,optionLeft,80,9430,4,40,0,40,0,1,,,,,,,,,,,,,,,,,,,,,,,,,,,,,,,,,,,,,,,
,,,,,,,,2023-08-06_08h17.44.904,HF_wild_card,2022.2.4,MacIntel,60.04202942,61475c6bb6cdf4eadb143dd8,64ce5acb97489d65b14ecc7a,64cf4888732099a712481116,,,,,,,decisionTrl,resources/DG.BMP,resources/DY.BMP,Door4,0.463013916,0.023182136,1,0,0,1.1777,optionRight,80,9510,4,41,0,41,0,1,,,,,,,,,,,,,,,,,,,,,,,,,,,,,,,,,,,,,,,
,,,,,,,,2023-08-06_08h17.44.904,HF_wild_card,2022.2.4,MacIntel,60.04202942,61475c6bb6cdf4eadb143dd8,64ce5acb97489d65b14ecc7a,64cf4888732099a712481116,,,,,,,sngl,resources/DP.BMP,resources/Empty.png,WildCard_Ex,-0.326565314,-0.009400601,1,0,0,0.7788,optionLeft,45,9555,4,42,0,42,0,1,,,,,,,,,,,,,,,,,,,,,,,,,,,,,,,,,,,,,,,
,,,,,,,,2023-08-06_08h17.44.904,HF_wild_card,2022.2.4,MacIntel,60.04202942,61475c6bb6cdf4eadb143dd8,64ce5acb97489d65b14ecc7a,64cf4888732099a712481116,,,,,,,decisionTrl,resources/DY.BMP,resources/DG.BMP,Door3,0.237998522,0.04139445,1,0,0,1.4354,optionRight,70,9625,4,43,0,43,0,1,,,,,,,,,,,,,,,,,,,,,,,,,,,,,,,,,,,,,,,
,,,,,,,,2023-08-06_08h17.44.904,HF_wild_card,2022.2.4,MacIntel,60.04202942,61475c6bb6cdf4eadb143dd8,64ce5acb97489d65b14ecc7a,64cf4888732099a712481116,,,,,,,,,,,,,,,,,,,,,,,,,,3,0,3,0,1,,,,,,,,,,,,,,,,,,,,,,,,,,,,,,,,,,
,,,,,,,,2023-08-06_08h17.44.904,HF_wild_card,2022.2.4,MacIntel,60.04202942,61475c6bb6cdf4eadb143dd8,64ce5acb97489d65b14ecc7a,64cf4888732099a712481116,,,,,,,sngl,resources/DP.BMP,resources/Empty.png,WildCard_Ex,-0.262680122,-0.116731025,1,0,0,0.8453,optionLeft,55,9680,5,0,0,0,0,1,,,,,,,,,,,,,,,,,,,,,,,,,,,,,,,,,,,,,,,
,,,,,,,,2023-08-06_08h17.44.904,HF_wild_card,2022.2.4,MacIntel,60.04202942,61475c6bb6cdf4eadb143dd8,64ce5acb97489d65b14ecc7a,64cf4888732099a712481116,,,,,,,sngl,resources/Empty.png,resources/DY.BMP,Door4,0.308244832,0.027625326,1,0,0,0.778,optionRight,60,9740,5,1,0,1,0,1,,,,,,,,,,,,,,,,,,,,,,,,,,,,,,,,,,,,,,,
,,,,,,,,2023-08-06_08h17.44.904,HF_wild_card,2022.2.4,MacIntel,60.04202942,61475c6bb6cdf4eadb143dd8,64ce5acb97489d65b14ecc7a,64cf4888732099a712481116,,,,,,,decisionTrl,resources/DB.BMP,resources/DBN.BMP,Door1,-0.292408786,0.026794061,1,0,0,0.8951,optionLeft,30,9770,5,2,0,2,0,1,,,,,,,,,,,,,,,,,,,,,,,,,,,,,,,,,,,,,,,
,,,,,,,,2023-08-06_08h17.44.904,HF_wild_card,2022.2.4,MacIntel,60.04202942,61475c6bb6cdf4eadb143dd8,64ce5acb97489d65b14ecc7a,64cf4888732099a712481116,,,,,,,decisionTrl,resources/DG.BMP,resources/DY.BMP,Door3,-0.318983832,0.015377943,1,0,0,1.8431,optionLeft,70,9840,5,3,0,3,0,1,,,,,,,,,,,,,,,,,,,,,,,,,,,,,,,,,,,,,,,
,,,,,,,,2023-08-06_08h17.44.904,HF_wild_card,2022.2.4,MacIntel,60.04202942,61475c6bb6cdf4eadb143dd8,64ce5acb97489d65b14ecc7a,64cf4888732099a712481116,,,,,,,decisionTrl,resources/DG.BMP,resources/DY.BMP,Door3,-0.314788784,0.02974667,1,0,0,0.8648,optionLeft,70,9910,5,4,0,4,0,1,,,,,,,,,,,,,,,,,,,,,,,,,,,,,,,,,,,,,,,
,,,,,,,,2023-08-06_08h17.44.904,HF_wild_card,2022.2.4,MacIntel,60.04202942,61475c6bb6cdf4eadb143dd8,64ce5acb97489d65b14ecc7a,64cf4888732099a712481116,,,,,,,decisionTrl,resources/DBN.BMP,resources/DB.BMP,Door1,0.327281901,0.007668118,1,0,0,0.9875,optionRight,30,9940,5,5,0,5,0,1,,,,,,,,,,,,,,,,,,,,,,,,,,,,,,,,,,,,,,,
,,,,,,,,2023-08-06_08h17.44.904,HF_wild_card,2022.2.4,MacIntel,60.04202942,61475c6bb6cdf4eadb143dd8,64ce5acb97489d65b14ecc7a,64cf4888732099a712481116,,,,,,,sngl,resources/Empty.png,resources/DB.BMP,Door1,0.295503608,0.065196974,1,0,0,0.7303,optionRight,30,9970,5,6,0,6,0,1,,,,,,,,,,,,,,,,,,,,,,,,,,,,,,,,,,,,,,,
,,,,,,,,2023-08-06_08h17.44.904,HF_wild_card,2022.2.4,MacIntel,60.04202942,61475c6bb6cdf4eadb143dd8,64ce5acb97489d65b14ecc7a,64cf4888732099a712481116,,,,,,,sngl,resources/DY.BMP,resources/Empty.png,Door4,-0.23361379,0.023711819,1,0,0,0.7797,optionLeft,80,10050,5,7,0,7,0,1,,,,,,,,,,,,,,,,,,,,,,,,,,,,,,,,,,,,,,,
,,,,,,,,2023-08-06_08h17.44.904,HF_wild_card,2022.2.4,MacIntel,60.04202942,61475c6bb6cdf4eadb143dd8,64ce5acb97489d65b14ecc7a,64cf4888732099a712481116,,,,,,,decisionTrl,resources/DBN.BMP,resources/DP.BMP,WildCard_Ex,0.352164985,0.021540799,1,0,0,0.7647,optionRight,55,10105,5,8,0,8,0,1,,,,,,,,,,,,,,,,,,,,,,,,,,,,,,,,,,,,,,,
,,,,,,,,2023-08-06_08h17.44.904,HF_wild_card,2022.2.4,MacIntel,60.04202942,61475c6bb6cdf4eadb143dd8,64ce5acb97489d65b14ecc7a,64cf4888732099a712481116,,,,,,,sngl,resources/Empty.png,resources/DBN.BMP,Door2,0.299124349,0.068398607,1,0,0,0.7951,optionRight,20,10125,5,9,0,9,0,1,,,,,,,,,,,,,,,,,,,,,,,,,,,,,,,,,,,,,,,
,,,,,,,,2023-08-06_08h17.44.904,HF_wild_card,2022.2.4,MacIntel,60.04202942,61475c6bb6cdf4eadb143dd8,64ce5acb97489d65b14ecc7a,64cf4888732099a712481116,,,,,,,sngl,resources/DP.BMP,resources/Empty.png,WildCard_Ex,-0.291204427,0.003702799,1,0,0,0.6962,optionLeft,45,10170,5,10,0,10,0,1,,,,,,,,,,,,,,,,,,,,,,,,,,,,,,,,,,,,,,,
,,,,,,,,2023-08-06_08h17.44.904,HF_wild_card,2022.2.4,MacIntel,60.04202942,61475c6bb6cdf4eadb143dd8,64ce5acb97489d65b14ecc7a,64cf4888732099a712481116,,,,,,,decisionTrl,resources/DY.BMP,resources/DG.BMP,Door3,0.30742947,0.020677829,1,0,0,1.8608,optionRight,70,10240,5,11,0,11,0,1,,,,,,,,,,,,,,,,,,,,,,,,,,,,,,,,,,,,,,,
,,,,,,,,2023-08-06_08h17.44.904,HF_wild_card,2022.2.4,MacIntel,60.04202942,61475c6bb6cdf4eadb143dd8,64ce5acb97489d65b14ecc7a,64cf4888732099a712481116,,,,,,,ctch,resources/DB.BMP,resources/DY.BMP,Door4,0.290764092,-0.000429179,1,0,0,0.9823,optionRight,80,10320,5,12,0,12,0,1,,,,,,,,,,,,,,,,,,,,,,,,,,,,,,,,,,,,,,,
,,,,,,,,2023-08-06_08h17.44.904,HF_wild_card,2022.2.4,MacIntel,60.04202942,61475c6bb6cdf4eadb143dd8,64ce5acb97489d65b14ecc7a,64cf4888732099a712481116,,,,,,,decisionTrl,resources/DP.BMP,resources/DY.BMP,WildCard_Ex,-0.174719306,-0.022119446,1,0,0,1.1944,optionLeft,45,10365,5,13,0,13,0,1,,,,,,,,,,,,,,,,,,,,,,,,,,,,,,,,,,,,,,,
,,,,,,,,2023-08-06_08h17.44.904,HF_wild_card,2022.2.4,MacIntel,60.04202942,61475c6bb6cdf4eadb143dd8,64ce5acb97489d65b14ecc7a,64cf4888732099a712481116,,,,,,,decisionTrl,resources/DB.BMP,resources/DBN.BMP,Door1,-0.314731344,-0.048236084,1,0,0,1.1122,optionLeft,30,10395,5,14,0,14,0,1,,,,,,,,,,,,,,,,,,,,,,,,,,,,,,,,,,,,,,,
,,,,,,,,2023-08-06_08h17.44.904,HF_wild_card,2022.2.4,MacIntel,60.04202942,61475c6bb6cdf4eadb143dd8,64ce5acb97489d65b14ecc7a,64cf4888732099a712481116,,,,,,,ctch,resources/DG.BMP,resources/DBN.BMP,Door3,-0.240136922,0.022486471,1,0,0,0.8658,optionLeft,70,10465,5,15,0,15,0,1,,,,,,,,,,,,,,,,,,,,,,,,,,,,,,,,,,,,,,,
,,,,,,,,2023-08-06_08h17.44.904,HF_wild_card,2022.2.4,MacIntel,60.04202942,61475c6bb6cdf4eadb143dd8,64ce5acb97489d65b14ecc7a,64cf4888732099a712481116,,,,,,,decisionTrl,resources/DB.BMP,resources/DBN.BMP,Door1,-0.269370049,0.028502842,1,0,0,0.829,optionLeft,30,10495,5,16,0,16,0,1,,,,,,,,,,,,,,,,,,,,,,,,,,,,,,,,,,,,,,,
,,,,,,,,2023-08-06_08h17.44.904,HF_wild_card,2022.2.4,MacIntel,60.04202942,61475c6bb6cdf4eadb143dd8,64ce5acb97489d65b14ecc7a,64cf4888732099a712481116,,,,,,,sngl,resources/Empty.png,resources/DP.BMP,WildCard_Ex,0.348655599,0.043179898,1,0,0,0.7789,optionRight,55,10550,5,17,0,17,0,1,,,,,,,,,,,,,,,,,,,,,,,,,,,,,,,,,,,,,,,
,,,,,,,,2023-08-06_08h17.44.904,HF_wild_card,2022.2.4,MacIntel,60.04202942,61475c6bb6cdf4eadb143dd8,64ce5acb97489d65b14ecc7a,64cf4888732099a712481116,,,,,,,decisionTrl,resources/DY.BMP,resources/DG.BMP,Door3,0.29941569,0.039214613,1,0,0,1.4494,optionRight,70,10620,5,18,0,18,0,1,,,,,,,,,,,,,,,,,,,,,,,,,,,,,,,,,,,,,,,
,,,,,,,,2023-08-06_08h17.44.904,HF_wild_card,2022.2.4,MacIntel,60.04202942,61475c6bb6cdf4eadb143dd8,64ce5acb97489d65b14ecc7a,64cf4888732099a712481116,,,,,,,sngl,resources/Empty.png,resources/DP.BMP,WildCard_Ex,0.280721368,0.004727139,1,0,0,0.6338,optionRight,45,10665,5,19,0,19,0,1,,,,,,,,,,,,,,,,,,,,,,,,,,,,,,,,,,,,,,,
,,,,,,,,2023-08-06_08h17.44.904,HF_wild_card,2022.2.4,MacIntel,60.04202942,61475c6bb6cdf4eadb143dd8,64ce5acb97489d65b14ecc7a,64cf4888732099a712481116,,,,,,,decisionTrl,resources/DG.BMP,resources/DP.BMP,Door3,-0.208174099,-0.001496921,1,0,0,1.7801,optionLeft,70,10735,5,20,0,20,0,1,,,,,,,,,,,,,,,,,,,,,,,,,,,,,,,,,,,,,,,
,,,,,,,,2023-08-06_08h17.44.904,HF_wild_card,2022.2.4,MacIntel,60.04202942,61475c6bb6cdf4eadb143dd8,64ce5acb97489d65b14ecc7a,64cf4888732099a712481116,,,,,,,ctch,resources/DY.BMP,resources/DB.BMP,Door4,-0.261686198,0.004956665,1,0,0,1.5306,optionLeft,80,10815,5,21,0,21,0,1,,,,,,,,,,,,,,,,,,,,,,,,,,,,,,,,,,,,,,,
,,,,,,,,2023-08-06_08h17.44.904,HF_wild_card,2022.2.4,MacIntel,60.04202942,61475c6bb6cdf4eadb143dd8,64ce5acb97489d65b14ecc7a,64cf4888732099a712481116,,,,,,,decisionTrl,resources/DP.BMP,resources/DB.BMP,WildCard_Ex,-0.249745212,-0.004123535,1,0,0,1.2301,optionLeft,55,10870,5,22,0,22,0,1,,,,,,,,,,,,,,,,,,,,,,,,,,,,,,,,,,,,,,,
,,,,,,,,2023-08-06_08h17.44.904,HF_wild_card,2022.2.4,MacIntel,60.04202942,61475c6bb6cdf4eadb143dd8,64ce5acb97489d65b14ecc7a,64cf4888732099a712481116,,,,,,,ctch,resources/DB.BMP,resources/DY.BMP,Door4,0.276533474,0.012946031,1,0,0,1.0792,optionRight,80,10950,5,23,0,23,0,1,,,,,,,,,,,,,,,,,,,,,,,,,,,,,,,,,,,,,,,
,,,,,,,,2023-08-06_08h17.44.904,HF_wild_card,2022.2.4,MacIntel,60.04202942,61475c6bb6cdf4eadb143dd8,64ce5acb97489d65b14ecc7a,64cf4888732099a712481116,,,,,,,ctch,resources/DY.BMP,resources/DB.BMP,Door4,-0.192591824,0.008092448,1,0,0,0.9948,optionLeft,60,11010,5,24,0,24,0,1,,,,,,,,,,,,,,,,,,,,,,,,,,,,,,,,,,,,,,,
,,,,,,,,2023-08-06_08h17.44.904,HF_wild_card,2022.2.4,MacIntel,60.04202942,61475c6bb6cdf4eadb143dd8,64ce5acb97489d65b14ecc7a,64cf4888732099a712481116,,,,,,,sngl,resources/DB.BMP,resources/Empty.png,Door1,-0.249041477,0.023652412,1,0,0,0.8302,optionLeft,30,11040,5,25,0,25,0,1,,,,,,,,,,,,,,,,,,,,,,,,,,,,,,,,,,,,,,,
,,,,,,,,2023-08-06_08h17.44.904,HF_wild_card,2022.2.4,MacIntel,60.04202942,61475c6bb6cdf4eadb143dd8,64ce5acb97489d65b14ecc7a,64cf4888732099a712481116,,,,,,,decisionTrl,resources/DBN.BMP,resources/DB.BMP,Door1,0.333375515,0.048846978,1,0,0,0.9821,optionRight,30,11070,5,26,0,26,0,1,,,,,,,,,,,,,,,,,,,,,,,,,,,,,,,,,,,,,,,
,,,,,,,,2023-08-06_08h17.44.904,HF_wild_card,2022.2.4,MacIntel,60.04202942,61475c6bb6cdf4eadb143dd8,64ce5acb97489d65b14ecc7a,64cf4888732099a712481116,,,,,,,sngl,resources/DG.BMP,resources/Empty.png,Door3,-0.2639603,-2.47871E-05,1,0,0,0.7279,optionLeft,70,11140,5,27,0,27,0,1,,,,,,,,,,,,,,,,,,,,,,,,,,,,,,,,,,,,,,,
,,,,,,,,2023-08-06_08h17.44.904,HF_wild_card,2022.2.4,MacIntel,60.04202942,61475c6bb6cdf4eadb143dd8,64ce5acb97489d65b14ecc7a,64cf4888732099a712481116,,,,,,,decisionTrl,resources/DP.BMP,resources/DG.BMP,Door3,0.34000217,0.02054579,1,0,0,1.5151,optionRight,70,11210,5,28,0,28,0,1,,,,,,,,,,,,,,,,,,,,,,,,,,,,,,,,,,,,,,,
,,,,,,,,2023-08-06_08h17.44.904,HF_wild_card,2022.2.4,MacIntel,60.04202942,61475c6bb6cdf4eadb143dd8,64ce5acb97489d65b14ecc7a,64cf4888732099a712481116,,,,,,,decisionTrl,resources/DB.BMP,resources/DBN.BMP,Door1,-0.252352498,0.006502787,1,0,0,1.3454,optionLeft,30,11240,5,29,0,29,0,1,,,,,,,,,,,,,,,,,,,,,,,,,,,,,,,,,,,,,,,
,,,,,,,,2023-08-06_08h17.44.904,HF_wild_card,2022.2.4,MacIntel,60.04202942,61475c6bb6cdf4eadb143dd8,64ce5acb97489d65b14ecc7a,64cf4888732099a712481116,,,,,,,sngl,resources/DBN.BMP,resources/Empty.png,Door2,-0.271659614,0.001117486,1,0,0,0.8632,optionLeft,40,11280,5,30,0,30,0,1,,,,,,,,,,,,,,,,,,,,,,,,,,,,,,,,,,,,,,,
,,,,,,,,2023-08-06_08h17.44.904,HF_wild_card,2022.2.4,MacIntel,60.04202942,61475c6bb6cdf4eadb143dd8,64ce5acb97489d65b14ecc7a,64cf4888732099a712481116,,,,,,,decisionTrl,resources/DY.BMP,resources/DP.BMP,Door4,-0.285620015,0.010315789,1,0,0,1.8102,optionLeft,80,11360,5,31,0,31,0,1,,,,,,,,,,,,,,,,,,,,,,,,,,,,,,,,,,,,,,,
,,,,,,,,2023-08-06_08h17.44.904,HF_wild_card,2022.2.4,MacIntel,60.04202942,61475c6bb6cdf4eadb143dd8,64ce5acb97489d65b14ecc7a,64cf4888732099a712481116,,,,,,,decisionTrl,resources/DBN.BMP,resources/DB.BMP,Door1,0.30823744,0.013797031,1,0,0,1.0446,optionRight,30,11390,5,32,0,32,0,1,,,,,,,,,,,,,,,,,,,,,,,,,,,,,,,,,,,,,,,
,,,,,,,,2023-08-06_08h17.44.904,HF_wild_card,2022.2.4,MacIntel,60.04202942,61475c6bb6cdf4eadb143dd8,64ce5acb97489d65b14ecc7a,64cf4888732099a712481116,,,,,,,ctch,resources/DBN.BMP,resources/DG.BMP,Door3,0.421290148,0.060654161,1,0,0,1.0304,optionRight,70,11460,5,33,0,33,0,1,,,,,,,,,,,,,,,,,,,,,,,,,,,,,,,,,,,,,,,
,,,,,,,,2023-08-06_08h17.44.904,HF_wild_card,2022.2.4,MacIntel,60.04202942,61475c6bb6cdf4eadb143dd8,64ce5acb97489d65b14ecc7a,64cf4888732099a712481116,,,,,,,decisionTrl,resources/DG.BMP,resources/DY.BMP,Door4,0.344234484,0.064003499,1,0,0,1.4454,optionRight,60,11520,5,34,0,34,0,1,,,,,,,,,,,,,,,,,,,,,,,,,,,,,,,,,,,,,,,
,,,,,,,,2023-08-06_08h17.44.904,HF_wild_card,2022.2.4,MacIntel,60.04202942,61475c6bb6cdf4eadb143dd8,64ce5acb97489d65b14ecc7a,64cf4888732099a712481116,,,,,,,ctch,resources/DG.BMP,resources/DBN.BMP,Door3,-0.281829427,-0.030057441,1,0,0,0.7453,optionLeft,70,11590,5,35,0,35,0,1,,,,,,,,,,,,,,,,,,,,,,,,,,,,,,,,,,,,,,,
,,,,,,,,2023-08-06_08h17.44.904,HF_wild_card,2022.2.4,MacIntel,60.04202942,61475c6bb6cdf4eadb143dd8,64ce5acb97489d65b14ecc7a,64cf4888732099a712481116,,,,,,,decisionTrl,resources/DY.BMP,resources/DG.BMP,Door3,0.29318495,0.031066522,1,0,0,2.0684,optionRight,70,11660,5,36,0,36,0,1,,,,,,,,,,,,,,,,,,,,,,,,,,,,,,,,,,,,,,,
,,,,,,,,2023-08-06_08h17.44.904,HF_wild_card,2022.2.4,MacIntel,60.04202942,61475c6bb6cdf4eadb143dd8,64ce5acb97489d65b14ecc7a,64cf4888732099a712481116,,,,,,,decisionTrl,resources/DB.BMP,resources/DP.BMP,WildCard_Ex,0.253446587,0.022175869,1,0,0,1.3466,optionRight,55,11715,5,37,0,37,0,1,,,,,,,,,,,,,,,,,,,,,,,,,,,,,,,,,,,,,,,
,,,,,,,,2023-08-06_08h17.44.904,HF_wild_card,2022.2.4,MacIntel,60.04202942,61475c6bb6cdf4eadb143dd8,64ce5acb97489d65b14ecc7a,64cf4888732099a712481116,,,,,,,decisionTrl,resources/DG.BMP,resources/DY.BMP,Door3,-0.329282057,0.044556308,1,0,0,3.1029,optionLeft,70,11785,5,38,0,38,0,1,,,,,,,,,,,,,,,,,,,,,,,,,,,,,,,,,,,,,,,
,,,,,,,,2023-08-06_08h17.44.904,HF_wild_card,2022.2.4,MacIntel,60.04202942,61475c6bb6cdf4eadb143dd8,64ce5acb97489d65b14ecc7a,64cf4888732099a712481116,,,,,,,decisionTrl,resources/DBN.BMP,resources/DB.BMP,Door1,0.337557644,0.009915805,1,0,0,1.0955,optionRight,30,11815,5,39,0,39,0,1,,,,,,,,,,,,,,,,,,,,,,,,,,,,,,,,,,,,,,,
,,,,,,,,2023-08-06_08h17.44.904,HF_wild_card,2022.2.4,MacIntel,60.04202942,61475c6bb6cdf4eadb143dd8,64ce5acb97489d65b14ecc7a,64cf4888732099a712481116,,,,,,,ctch,resources/DBN.BMP,resources/DG.BMP,Door3,0.443601345,0.030556708,1,0,0,1.0807,optionRight,70,11885,5,40,0,40,0,1,,,,,,,,,,,,,,,,,,,,,,,,,,,,,,,,,,,,,,,
,,,,,,,,2023-08-06_08h17.44.904,HF_wild_card,2022.2.4,MacIntel,60.04202942,61475c6bb6cdf4eadb143dd8,64ce5acb97489d65b14ecc7a,64cf4888732099a712481116,,,,,,,decisionTrl,resources/DP.BMP,resources/DBN.BMP,WildCard_Ex,-0.333468153,-0.024988708,1,0,0,1.1455,optionLeft,45,11930,5,41,0,41,0,1,,,,,,,,,,,,,,,,,,,,,,,,,,,,,,,,,,,,,,,
,,,,,,,,2023-08-06_08h17.44.904,HF_wild_card,2022.2.4,MacIntel,60.04202942,61475c6bb6cdf4eadb143dd8,64ce5acb97489d65b14ecc7a,64cf4888732099a712481116,,,,,,,sngl,resources/Empty.png,resources/DG.BMP,Door3,0.368744032,0.011387804,1,0,0,0.927,optionRight,70,12000,5,42,0,42,0,1,,,,,,,,,,,,,,,,,,,,,,,,,,,,,,,,,,,,,,,
,,,,,,,,2023-08-06_08h17.44.904,HF_wild_card,2022.2.4,MacIntel,60.04202942,61475c6bb6cdf4eadb143dd8,64ce5acb97489d65b14ecc7a,64cf4888732099a712481116,,,,,,,decisionTrl,resources/DY.BMP,resources/DG.BMP,Door4,-0.227938775,0.005070597,1,0,0,2.427,optionLeft,60,12060,5,43,0,43,0,1,,,,,,,,,,,,,,,,,,,,,,,,,,,,,,,,,,,,,,,
,,,,,,,,2023-08-06_08h17.44.904,HF_wild_card,2022.2.4,MacIntel,60.04202942,61475c6bb6cdf4eadb143dd8,64ce5acb97489d65b14ecc7a,64cf4888732099a712481116,,,,,,,,,,,,,,,,,,,,,,,,,,4,0,4,0,1,,,,,,,,,,,,,,,,,,,,,,,,,,,,,,,,,,
,,,,,,,,2023-08-06_08h17.44.904,HF_wild_card,2022.2.4,MacIntel,60.04202942,61475c6bb6cdf4eadb143dd8,64ce5acb97489d65b14ecc7a,64cf4888732099a712481116,,,,,,,sngl,resources/DG.BMP,resources/Empty.png,Door3,-0.380077142,-0.080523885,1,0,0,0.9989,optionLeft,70,12130,6,0,0,0,0,1,,,,,,,,,,,,,,,,,,,,,,,,,,,,,,,,,,,,,,,
,,,,,,,,2023-08-06_08h17.44.904,HF_wild_card,2022.2.4,MacIntel,60.04202942,61475c6bb6cdf4eadb143dd8,64ce5acb97489d65b14ecc7a,64cf4888732099a712481116,,,,,,,decisionTrl,resources/DG.BMP,resources/DY.BMP,Door3,-0.353930257,-0.001091817,1,0,0,2.629,optionLeft,70,12200,6,1,0,1,0,1,,,,,,,,,,,,,,,,,,,,,,,,,,,,,,,,,,,,,,,
,,,,,,,,2023-08-06_08h17.44.904,HF_wild_card,2022.2.4,MacIntel,60.04202942,61475c6bb6cdf4eadb143dd8,64ce5acb97489d65b14ecc7a,64cf4888732099a712481116,,,,,,,sngl,resources/Empty.png,resources/DP.BMP,WildCard_Ex,0.356560737,-0.024836765,1,0,0,0.8086,optionRight,45,12245,6,2,0,2,0,1,,,,,,,,,,,,,,,,,,,,,,,,,,,,,,,,,,,,,,,
,,,,,,,,2023-08-06_08h17.44.904,HF_wild_card,2022.2.4,MacIntel,60.04202942,61475c6bb6cdf4eadb143dd8,64ce5acb97489d65b14ecc7a,64cf4888732099a712481116,,,,,,,ctch,resources/DBN.BMP,resources/DG.BMP,Door3,0.305923665,0.022553067,1,0,0,1.0783,optionRight,70,12315,6,3,0,3,0,1,,,,,,,,,,,,,,,,,,,,,,,,,,,,,,,,,,,,,,,
,,,,,,,,2023-08-06_08h17.44.904,HF_wild_card,2022.2.4,MacIntel,60.04202942,61475c6bb6cdf4eadb143dd8,64ce5acb97489d65b14ecc7a,64cf4888732099a712481116,,,,,,,decisionTrl,resources/DB.BMP,resources/DBN.BMP,Door1,-0.313609958,0.052192993,1,0,0,0.8321,optionLeft,30,12345,6,4,0,4,0,1,,,,,,,,,,,,,,,,,,,,,,,,,,,,,,,,,,,,,,,
,,,,,,,,2023-08-06_08h17.44.904,HF_wild_card,2022.2.4,MacIntel,60.04202942,61475c6bb6cdf4eadb143dd8,64ce5acb97489d65b14ecc7a,64cf4888732099a712481116,,,,,,,ctch,resources/DG.BMP,resources/DBN.BMP,Door3,-0.341979913,0.023890957,1,0,0,0.8637,optionLeft,70,12415,6,5,0,5,0,1,,,,,,,,,,,,,,,,,,,,,,,,,,,,,,,,,,,,,,,
,,,,,,,,2023-08-06_08h17.44.904,HF_wild_card,2022.2.4,MacIntel,60.04202942,61475c6bb6cdf4eadb143dd8,64ce5acb97489d65b14ecc7a,64cf4888732099a712481116,,,,,,,decisionTrl,resources/DB.BMP,resources/DP.BMP,WildCard_Ex,0.205963406,0.033030192,1,0,0,1.4143,optionRight,45,12460,6,6,0,6,0,1,,,,,,,,,,,,,,,,,,,,,,,,,,,,,,,,,,,,,,,
,,,,,,,,2023-08-06_08h17.44.904,HF_wild_card,2022.2.4,MacIntel,60.04202942,61475c6bb6cdf4eadb143dd8,64ce5acb97489d65b14ecc7a,64cf4888732099a712481116,,,,,,,sngl,resources/Empty.png,resources/DB.BMP,Door1,0.242982924,0.033682522,1,0,0,0.7973,optionRight,30,12490,6,7,0,7,0,1,,,,,,,,,,,,,,,,,,,,,,,,,,,,,,,,,,,,,,,
,,,,,,,,2023-08-06_08h17.44.904,HF_wild_card,2022.2.4,MacIntel,60.04202942,61475c6bb6cdf4eadb143dd8,64ce5acb97489d65b14ecc7a,64cf4888732099a712481116,,,,,,,ctch,resources/DY.BMP,resources/DB.BMP,Door4,-0.325485874,0.081249288,1,0,0,0.9603,optionLeft,60,12550,6,8,0,8,0,1,,,,,,,,,,,,,,,,,,,,,,,,,,,,,,,,,,,,,,,
,,,,,,,,2023-08-06_08h17.44.904,HF_wild_card,2022.2.4,MacIntel,60.04202942,61475c6bb6cdf4eadb143dd8,64ce5acb97489d65b14ecc7a,64cf4888732099a712481116,,,,,,,sngl,resources/DP.BMP,resources/Empty.png,WildCard_Ex,-0.359611274,0.026550429,1,0,0,0.7645,optionLeft,55,12605,6,9,0,9,0,1,,,,,,,,,,,,,,,,,,,,,,,,,,,,,,,,,,,,,,,
,,,,,,,,2023-08-06_08h17.44.904,HF_wild_card,2022.2.4,MacIntel,60.04202942,61475c6bb6cdf4eadb143dd8,64ce5acb97489d65b14ecc7a,64cf4888732099a712481116,,,,,,,decisionTrl,resources/DBN.BMP,resources/DB.BMP,Door1,0.315214437,-0.004381917,1,0,0,1.2122,optionRight,30,12635,6,10,0,10,0,1,,,,,,,,,,,,,,,,,,,,,,,,,,,,,,,,,,,,,,,
,,,,,,,,2023-08-06_08h17.44.904,HF_wild_card,2022.2.4,MacIntel,60.04202942,61475c6bb6cdf4eadb143dd8,64ce5acb97489d65b14ecc7a,64cf4888732099a712481116,,,,,,,decisionTrl,resources/DP.BMP,resources/DY.BMP,Door4,0.195632867,0.076120673,1,0,0,1.6646,optionRight,80,12715,6,11,0,11,0,1,,,,,,,,,,,,,,,,,,,,,,,,,,,,,,,,,,,,,,,
,,,,,,,,2023-08-06_08h17.44.904,HF_wild_card,2022.2.4,MacIntel,60.04202942,61475c6bb6cdf4eadb143dd8,64ce5acb97489d65b14ecc7a,64cf4888732099a712481116,,,,,,,sngl,resources/Empty.png,resources/DP.BMP,WildCard_Ex,0.358307563,-0.032884521,1,0,0,0.8827,optionRight,55,12770,6,12,0,12,0,1,,,,,,,,,,,,,,,,,,,,,,,,,,,,,,,,,,,,,,,
,,,,,,,,2023-08-06_08h17.44.904,HF_wild_card,2022.2.4,MacIntel,60.04202942,61475c6bb6cdf4eadb143dd8,64ce5acb97489d65b14ecc7a,64cf4888732099a712481116,,,,,,,decisionTrl,resources/DP.BMP,resources/DBN.BMP,WildCard_Ex,-0.367151625,-0.025338813,1,0,0,0.9046,optionLeft,55,12825,6,13,0,13,0,1,,,,,,,,,,,,,,,,,,,,,,,,,,,,,,,,,,,,,,,
,,,,,,,,2023-08-06_08h17.44.904,HF_wild_card,2022.2.4,MacIntel,60.04202942,61475c6bb6cdf4eadb143dd8,64ce5acb97489d65b14ecc7a,64cf4888732099a712481116,,,,,,,decisionTrl,resources/DBN.BMP,resources/DB.BMP,Door1,0.364481337,0.015180698,1,0,0,0.9946,optionRight,30,12855,6,14,0,14,0,1,,,,,,,,,,,,,,,,,,,,,,,,,,,,,,,,,,,,,,,
,,,,,,,,2023-08-06_08h17.44.904,HF_wild_card,2022.2.4,MacIntel,60.04202942,61475c6bb6cdf4eadb143dd8,64ce5acb97489d65b14ecc7a,64cf4888732099a712481116,,,,,,,sngl,resources/Empty.png,resources/DY.BMP,Door4,0.388105604,-0.032025892,1,0,0,0.88,optionRight,80,12935,6,15,0,15,0,1,,,,,,,,,,,,,,,,,,,,,,,,,,,,,,,,,,,,,,,
,,,,,,,,2023-08-06_08h17.44.904,HF_wild_card,2022.2.4,MacIntel,60.04202942,61475c6bb6cdf4eadb143dd8,64ce5acb97489d65b14ecc7a,64cf4888732099a712481116,,,,,,,sngl,resources/DB.BMP,resources/Empty.png,Door1,-0.307407464,0.034224854,1,0,0,0.7831,optionLeft,30,12965,6,16,0,16,0,1,,,,,,,,,,,,,,,,,,,,,,,,,,,,,,,,,,,,,,,
,,,,,,,,2023-08-06_08h17.44.904,HF_wild_card,2022.2.4,MacIntel,60.04202942,61475c6bb6cdf4eadb143dd8,64ce5acb97489d65b14ecc7a,64cf4888732099a712481116,,,,,,,sngl,resources/DY.BMP,resources/Empty.png,Door4,-0.261076864,0.007201979,1,0,0,0.7805,optionLeft,60,13025,6,17,0,17,0,1,,,,,,,,,,,,,,,,,,,,,,,,,,,,,,,,,,,,,,,
,,,,,,,,2023-08-06_08h17.44.904,HF_wild_card,2022.2.4,MacIntel,60.04202942,61475c6bb6cdf4eadb143dd8,64ce5acb97489d65b14ecc7a,64cf4888732099a712481116,,,,,,,decisionTrl,resources/DB.BMP,resources/DBN.BMP,Door1,-0.3141234,0.042159424,1,0,0,0.8793,optionLeft,30,13055,6,18,0,18,0,1,,,,,,,,,,,,,,,,,,,,,,,,,,,,,,,,,,,,,,,
,,,,,,,,2023-08-06_08h17.44.904,HF_wild_card,2022.2.4,MacIntel,60.04202942,61475c6bb6cdf4eadb143dd8,64ce5acb97489d65b14ecc7a,64cf4888732099a712481116,,,,,,,decisionTrl,resources/DG.BMP,resources/DY.BMP,Door3,-0.23576433,0.020050659,1,0,0,1.5286,optionLeft,70,13125,6,19,0,19,0,1,,,,,,,,,,,,,,,,,,,,,,,,,,,,,,,,,,,,,,,
,,,,,,,,2023-08-06_08h17.44.904,HF_wild_card,2022.2.4,MacIntel,60.04202942,61475c6bb6cdf4eadb143dd8,64ce5acb97489d65b14ecc7a,64cf4888732099a712481116,,,,,,,sngl,resources/Empty.png,resources/DBN.BMP,Door2,0.306382175,-0.010207418,1,0,0,1.079,optionRight,40,13165,6,20,0,20,0,1,,,,,,,,,,,,,,,,,,,,,,,,,,,,,,,,,,,,,,,
,,,,,,,,2023-08-06_08h17.44.904,HF_wild_card,2022.2.4,MacIntel,60.04202942,61475c6bb6cdf4eadb143dd8,64ce5acb97489d65b14ecc7a,64cf4888732099a712481116,,,,,,,ctch,resources/DY.BMP,resources/DB.BMP,Door4,-0.260255364,0.042665914,1,0,0,1.2949,optionLeft,80,13245,6,21,0,21,0,1,,,,,,,,,,,,,,,,,,,,,,,,,,,,,,,,,,,,,,,
,,,,,,,,2023-08-06_08h17.44.904,HF_wild_card,2022.2.4,MacIntel,60.04202942,61475c6bb6cdf4eadb143dd8,64ce5acb97489d65b14ecc7a,64cf4888732099a712481116,,,,,,,decisionTrl,resources/DP.BMP,resources/DB.BMP,WildCard_Ex,-0.312244839,0.016964993,1,0,0,1.6627,optionLeft,55,13300,6,22,0,22,0,1,,,,,,,,,,,,,,,,,,,,,,,,,,,,,,,,,,,,,,,
,,,,,,,,2023-08-06_08h17.44.904,HF_wild_card,2022.2.4,MacIntel,60.04202942,61475c6bb6cdf4eadb143dd8,64ce5acb97489d65b14ecc7a,64cf4888732099a712481116,,,,,,,ctch,resources/DB.BMP,resources/DY.BMP,Door4,0.433802083,-0.015680678,1,0,0,1.5609,optionRight,80,13380,6,23,0,23,0,1,,,,,,,,,,,,,,,,,,,,,,,,,,,,,,,,,,,,,,,
,,,,,,,,2023-08-06_08h17.44.904,HF_wild_card,2022.2.4,MacIntel,60.04202942,61475c6bb6cdf4eadb143dd8,64ce5acb97489d65b14ecc7a,64cf4888732099a712481116,,,,,,,ctch,resources/DB.BMP,resources/DY.BMP,Door4,0.441840413,0.002003988,1,0,0,1.1958,optionRight,60,13440,6,24,0,24,0,1,,,,,,,,,,,,,,,,,,,,,,,,,,,,,,,,,,,,,,,
,,,,,,,,2023-08-06_08h17.44.904,HF_wild_card,2022.2.4,MacIntel,60.04202942,61475c6bb6cdf4eadb143dd8,64ce5acb97489d65b14ecc7a,64cf4888732099a712481116,,,,,,,decisionTrl,resources/DG.BMP,resources/DY.BMP,Door3,-0.300085517,0.055290222,1,0,0,2.3958,optionLeft,70,13510,6,25,0,25,0,1,,,,,,,,,,,,,,,,,,,,,,,,,,,,,,,,,,,,,,,
,,,,,,,,2023-08-06_08h17.44.904,HF_wild_card,2022.2.4,MacIntel,60.04202942,61475c6bb6cdf4eadb143dd8,64ce5acb97489d65b14ecc7a,64cf4888732099a712481116,,,,,,,decisionTrl,resources/DB.BMP,resources/DBN.BMP,Door1,-0.340049032,0.026345452,1,0,0,1.2815,optionLeft,30,13540,6,26,0,26,0,1,,,,,,,,,,,,,,,,,,,,,,,,,,,,,,,,,,,,,,,
,,,,,,,,2023-08-06_08h17.44.904,HF_wild_card,2022.2.4,MacIntel,60.04202942,61475c6bb6cdf4eadb143dd8,64ce5acb97489d65b14ecc7a,64cf4888732099a712481116,,,,,,,decisionTrl,resources/DB.BMP,resources/DBN.BMP,Door1,-0.404883864,0.014544033,1,0,0,1.5439,optionLeft,30,13570,6,27,0,27,0,1,,,,,,,,,,,,,,,,,,,,,,,,,,,,,,,,,,,,,,,
,,,,,,,,2023-08-06_08h17.44.904,HF_wild_card,2022.2.4,MacIntel,60.04202942,61475c6bb6cdf4eadb143dd8,64ce5acb97489d65b14ecc7a,64cf4888732099a712481116,,,,,,,decisionTrl,resources/DY.BMP,resources/DG.BMP,Door3,0.318183933,0.050236918,1,0,0,1.3158,optionRight,70,13640,6,28,0,28,0,1,,,,,,,,,,,,,,,,,,,,,,,,,,,,,,,,,,,,,,,
,,,,,,,,2023-08-06_08h17.44.904,HF_wild_card,2022.2.4,MacIntel,60.04202942,61475c6bb6cdf4eadb143dd8,64ce5acb97489d65b14ecc7a,64cf4888732099a712481116,,,,,,,ctch,resources/DG.BMP,resources/DBN.BMP,Door3,-0.345315009,0.037543267,1,0,0,0.866,optionLeft,70,13710,6,29,0,29,0,1,,,,,,,,,,,,,,,,,,,,,,,,,,,,,,,,,,,,,,,
,,,,,,,,2023-08-06_08h17.44.904,HF_wild_card,2022.2.4,MacIntel,60.04202942,61475c6bb6cdf4eadb143dd8,64ce5acb97489d65b14ecc7a,64cf4888732099a712481116,,,,,,,sngl,resources/Empty.png,resources/DG.BMP,Door3,0.465678982,0.017791545,1,0,0,0.9791,optionRight,70,13780,6,30,0,30,0,1,,,,,,,,,,,,,,,,,,,,,,,,,,,,,,,,,,,,,,,
,,,,,,,,2023-08-06_08h17.44.904,HF_wild_card,2022.2.4,MacIntel,60.04202942,61475c6bb6cdf4eadb143dd8,64ce5acb97489d65b14ecc7a,64cf4888732099a712481116,,,,,,,decisionTrl,resources/DY.BMP,resources/DP.BMP,Door4,-0.287821927,0.031492649,1,0,0,1.9974,optionLeft,80,13860,6,31,0,31,0,1,,,,,,,,,,,,,,,,,,,,,,,,,,,,,,,,,,,,,,,
,,,,,,,,2023-08-06_08h17.44.904,HF_wild_card,2022.2.4,MacIntel,60.04202942,61475c6bb6cdf4eadb143dd8,64ce5acb97489d65b14ecc7a,64cf4888732099a712481116,,,,,,,sngl,resources/DP.BMP,resources/Empty.png,WildCard_Ex,-0.361343146,-0.003930155,1,0,0,1.25,optionLeft,45,13905,6,32,0,32,0,1,,,,,,,,,,,,,,,,,,,,,,,,,,,,,,,,,,,,,,,
,,,,,,,,2023-08-06_08h17.44.904,HF_wild_card,2022.2.4,MacIntel,60.04202942,61475c6bb6cdf4eadb143dd8,64ce5acb97489d65b14ecc7a,64cf4888732099a712481116,,,,,,,decisionTrl,resources/DBN.BMP,resources/DB.BMP,Door1,0.278323907,-0.013192139,1,0,0,1.7929,optionRight,30,13935,6,33,0,33,0,1,,,,,,,,,,,,,,,,,,,,,,,,,,,,,,,,,,,,,,,
,,,,,,,,2023-08-06_08h17.44.904,HF_wild_card,2022.2.4,MacIntel,60.04202942,61475c6bb6cdf4eadb143dd8,64ce5acb97489d65b14ecc7a,64cf4888732099a712481116,,,,,,,decisionTrl,resources/DG.BMP,resources/DY.BMP,Door3,-0.390932007,0.047766588,1,0,0,2.6417,optionLeft,70,14005,6,34,0,34,0,1,,,,,,,,,,,,,,,,,,,,,,,,,,,,,,,,,,,,,,,
,,,,,,,,2023-08-06_08h17.44.904,HF_wild_card,2022.2.4,MacIntel,60.04202942,61475c6bb6cdf4eadb143dd8,64ce5acb97489d65b14ecc7a,64cf4888732099a712481116,,,,,,,decisionTrl,resources/DY.BMP,resources/DG.BMP,Door3,0.392626953,-0.019494663,1,0,0,1.0798,optionRight,70,14075,6,35,0,35,0,1,,,,,,,,,,,,,,,,,,,,,,,,,,,,,,,,,,,,,,,
,,,,,,,,2023-08-06_08h17.44.904,HF_wild_card,2022.2.4,MacIntel,60.04202942,61475c6bb6cdf4eadb143dd8,64ce5acb97489d65b14ecc7a,64cf4888732099a712481116,,,,,,,decisionTrl,resources/DG.BMP,resources/DP.BMP,Door3,-0.322591654,0.043313768,1,0,0,1.2815,optionLeft,70,14145,6,36,0,36,0,1,,,,,,,,,,,,,,,,,,,,,,,,,,,,,,,,,,,,,,,
,,,,,,,,2023-08-06_08h17.44.904,HF_wild_card,2022.2.4,MacIntel,60.04202942,61475c6bb6cdf4eadb143dd8,64ce5acb97489d65b14ecc7a,64cf4888732099a712481116,,,,,,,decisionTrl,resources/DY.BMP,resources/DG.BMP,Door3,0.397293294,0.027307468,1,0,0,1.7964,optionRight,70,14215,6,37,0,37,0,1,,,,,,,,,,,,,,,,,,,,,,,,,,,,,,,,,,,,,,,
,,,,,,,,2023-08-06_08h17.44.904,HF_wild_card,2022.2.4,MacIntel,60.04202942,61475c6bb6cdf4eadb143dd8,64ce5acb97489d65b14ecc7a,64cf4888732099a712481116,,,,,,,decisionTrl,resources/DBN.BMP,resources/DP.BMP,WildCard_Ex,0.405281033,0.036639981,1,0,0,1.0479,optionRight,55,14270,6,38,0,38,0,1,,,,,,,,,,,,,,,,,,,,,,,,,,,,,,,,,,,,,,,
,,,,,,,,2023-08-06_08h17.44.904,HF_wild_card,2022.2.4,MacIntel,60.04202942,61475c6bb6cdf4eadb143dd8,64ce5acb97489d65b14ecc7a,64cf4888732099a712481116,,,,,,,decisionTrl,resources/DP.BMP,resources/DG.BMP,Door3,0.393386095,0.003372158,1,0,0,1.1809,optionRight,70,14340,6,39,0,39,0,1,,,,,,,,,,,,,,,,,,,,,,,,,,,,,,,,,,,,,,,
,,,,,,,,2023-08-06_08h17.44.904,HF_wild_card,2022.2.4,MacIntel,60.04202942,61475c6bb6cdf4eadb143dd8,64ce5acb97489d65b14ecc7a,64cf4888732099a712481116,,,,,,,ctch,resources/DBN.BMP,resources/DG.BMP,Door3,0.34686849,0.001985813,1,0,0,0.9315,optionRight,70,14410,6,40,0,40,0,1,,,,,,,,,,,,,,,,,,,,,,,,,,,,,,,,,,,,,,,
,,,,,,,,2023-08-06_08h17.44.904,HF_wild_card,2022.2.4,MacIntel,60.04202942,61475c6bb6cdf4eadb143dd8,64ce5acb97489d65b14ecc7a,64cf4888732099a712481116,,,,,,,decisionTrl,resources/DY.BMP,resources/DG.BMP,Door3,0.47407742,0.024555223,1,0,0,1.6674,optionRight,70,14480,6,41,0,41,0,1,,,,,,,,,,,,,,,,,,,,,,,,,,,,,,,,,,,,,,,
,,,,,,,,2023-08-06_08h17.44.904,HF_wild_card,2022.2.4,MacIntel,60.04202942,61475c6bb6cdf4eadb143dd8,64ce5acb97489d65b14ecc7a,64cf4888732099a712481116,,,,,,,decisionTrl,resources/DBN.BMP,resources/DB.BMP,Door1,0.276635064,-0.002027656,1,0,0,1.1,optionRight,30,14510,6,42,0,42,0,1,,,,,,,,,,,,,,,,,,,,,,,,,,,,,,,,,,,,,,,
,,,,,,,,2023-08-06_08h17.44.904,HF_wild_card,2022.2.4,MacIntel,60.04202942,61475c6bb6cdf4eadb143dd8,64ce5acb97489d65b14ecc7a,64cf4888732099a712481116,,,,,,,sngl,resources/DBN.BMP,resources/Empty.png,Door2,-0.255830112,0.037325846,1,0,0,0.8321,optionLeft,20,14530,6,43,0,43,0,1,,,,,,,,,,,,,,,,,,,,,,,,,,,,,,,,,,,,,,,
,,,,,,,,2023-08-06_08h17.44.904,HF_wild_card,2022.2.4,MacIntel,60.04202942,61475c6bb6cdf4eadb143dd8,64ce5acb97489d65b14ecc7a,64cf4888732099a712481116,,,,,,,,,,,,,,,,,,,,,,,,,,5,0,5,0,1,,,,,,,,,,,,,,,,,,,,,,,,,,,,,,,,,,
,,,,,,,,2023-08-06_08h17.44.904,HF_wild_card,2022.2.4,MacIntel,60.04202942,61475c6bb6cdf4eadb143dd8,64ce5acb97489d65b14ecc7a,64cf4888732099a712481116,,,,,,,decisionTrl,resources/DBN.BMP,resources/DB.BMP,Door1,0.434537489,-0.110492622,1,0,0,1.2619,optionRight,30,14560,7,0,0,0,0,1,,,,,,,,,,,,,,,,,,,,,,,,,,,,,,,,,,,,,,,
,,,,,,,,2023-08-06_08h17.44.904,HF_wild_card,2022.2.4,MacIntel,60.04202942,61475c6bb6cdf4eadb143dd8,64ce5acb97489d65b14ecc7a,64cf4888732099a712481116,,,,,,,decisionTrl,resources/DB.BMP,resources/DBN.BMP,Door1,-0.371385091,0.026213989,1,0,0,0.9324,optionLeft,30,14590,7,1,0,1,0,1,,,,,,,,,,,,,,,,,,,,,,,,,,,,,,,,,,,,,,,
,,,,,,,,2023-08-06_08h17.44.904,HF_wild_card,2022.2.4,MacIntel,60.04202942,61475c6bb6cdf4eadb143dd8,64ce5acb97489d65b14ecc7a,64cf4888732099a712481116,,,,,,,decisionTrl,resources/DBN.BMP,resources/DB.BMP,Door1,0.331183607,-0.064938761,1,0,0,0.8475,optionRight,30,14620,7,2,0,2,0,1,,,,,,,,,,,,,,,,,,,,,,,,,,,,,,,,,,,,,,,
,,,,,,,,2023-08-06_08h17.44.904,HF_wild_card,2022.2.4,MacIntel,60.04202942,61475c6bb6cdf4eadb143dd8,64ce5acb97489d65b14ecc7a,64cf4888732099a712481116,,,,,,,ctch,resources/DBN.BMP,resources/DG.BMP,Door3,0.380838759,-0.052644586,1,0,0,1.715,optionRight,70,14690,7,3,0,3,0,1,,,,,,,,,,,,,,,,,,,,,,,,,,,,,,,,,,,,,,,
,,,,,,,,2023-08-06_08h17.44.904,HF_wild_card,2022.2.4,MacIntel,60.04202942,61475c6bb6cdf4eadb143dd8,64ce5acb97489d65b14ecc7a,64cf4888732099a712481116,,,,,,,decisionTrl,resources/DG.BMP,resources/DY.BMP,Door3,-0.419040154,0.07970659,1,0,0,1.2827,optionLeft,70,14760,7,4,0,4,0,1,,,,,,,,,,,,,,,,,,,,,,,,,,,,,,,,,,,,,,,
,,,,,,,,2023-08-06_08h17.44.904,HF_wild_card,2022.2.4,MacIntel,60.04202942,61475c6bb6cdf4eadb143dd8,64ce5acb97489d65b14ecc7a,64cf4888732099a712481116,,,,,,,ctch,resources/DB.BMP,resources/DY.BMP,Door4,0.378210856,-0.058508233,1,0,0,1.0789,optionRight,80,14840,7,5,0,5,0,1,,,,,,,,,,,,,,,,,,,,,,,,,,,,,,,,,,,,,,,
,,,,,,,,2023-08-06_08h17.44.904,HF_wild_card,2022.2.4,MacIntel,60.04202942,61475c6bb6cdf4eadb143dd8,64ce5acb97489d65b14ecc7a,64cf4888732099a712481116,,,,,,,decisionTrl,resources/DY.BMP,resources/DG.BMP,Door3,0.361822917,-0.047758687,1,0,0,1.1448,optionRight,70,14910,7,6,0,6,0,1,,,,,,,,,,,,,,,,,,,,,,,,,,,,,,,,,,,,,,,
,,,,,,,,2023-08-06_08h17.44.904,HF_wild_card,2022.2.4,MacIntel,60.04202942,61475c6bb6cdf4eadb143dd8,64ce5acb97489d65b14ecc7a,64cf4888732099a712481116,,,,,,,decisionTrl,resources/DBN.BMP,resources/DB.BMP,Door1,0.465603299,-0.065839539,1,0,0,1.1529,optionRight,30,14940,7,7,0,7,0,1,,,,,,,,,,,,,,,,,,,,,,,,,,,,,,,,,,,,,,,
,,,,,,,,2023-08-06_08h17.44.904,HF_wild_card,2022.2.4,MacIntel,60.04202942,61475c6bb6cdf4eadb143dd8,64ce5acb97489d65b14ecc7a,64cf4888732099a712481116,,,,,,,decisionTrl,resources/DB.BMP,resources/DBN.BMP,Door1,-0.393148193,0.065608487,1,0,0,0.9324,optionLeft,30,14970,7,8,0,8,0,1,,,,,,,,,,,,,,,,,,,,,,,,,,,,,,,,,,,,,,,
,,,,,,,,2023-08-06_08h17.44.904,HF_wild_card,2022.2.4,MacIntel,60.04202942,61475c6bb6cdf4eadb143dd8,64ce5acb97489d65b14ecc7a,64cf4888732099a712481116,,,,,,,ctch,resources/DG.BMP,resources/DBN.BMP,Door3,-0.311919827,0.023242188,1,0,0,0.8636,optionLeft,70,15040,7,9,0,9,0,1,,,,,,,,,,,,,,,,,,,,,,,,,,,,,,,,,,,,,,,
,,,,,,,,2023-08-06_08h17.44.904,HF_wild_card,2022.2.4,MacIntel,60.04202942,61475c6bb6cdf4eadb143dd8,64ce5acb97489d65b14ecc7a,64cf4888732099a712481116,,,,,,,decisionTrl,resources/DG.BMP,resources/DY.BMP,Door3,-0.258526306,0.038554077,1,0,0,1.1571,optionLeft,70,15110,7,10,0,10,0,1,,,,,,,,,,,,,,,,,,,,,,,,,,,,,,,,,,,,,,,
,,,,,,,,2023-08-06_08h17.44.904,HF_wild_card,2022.2.4,MacIntel,60.04202942,61475c6bb6cdf4eadb143dd8,64ce5acb97489d65b14ecc7a,64cf4888732099a712481116,,,,,,,decisionTrl,resources/DB.BMP,resources/DBN.BMP,Door1,-0.187548421,0.001772732,1,0,0,0.999,optionLeft,30,15140,7,11,0,11,0,1,,,,,,,,,,,,,,,,,,,,,,,,,,,,,,,,,,,,,,,
,,,,,,,,2023-08-06_08h17.44.904,HF_wild_card,2022.2.4,MacIntel,60.04202942,61475c6bb6cdf4eadb143dd8,64ce5acb97489d65b14ecc7a,64cf4888732099a712481116,,,,,,,decisionTrl,resources/DBN.BMP,resources/DB.BMP,Door1,0.300413615,-0.066282925,1,0,0,0.8323,optionRight,30,15170,7,12,0,12,0,1,,,,,,,,,,,,,,,,,,,,,,,,,,,,,,,,,,,,,,,
,,,,,,,,2023-08-06_08h17.44.904,HF_wild_card,2022.2.4,MacIntel,60.04202942,61475c6bb6cdf4eadb143dd8,64ce5acb97489d65b14ecc7a,64cf4888732099a712481116,,,,,,,decisionTrl,resources/DG.BMP,resources/DY.BMP,Door3,-0.348026869,0.082745972,1,0,0,1.0156,optionLeft,70,15240,7,13,0,13,0,1,,,,,,,,,,,,,,,,,,,,,,,,,,,,,,,,,,,,,,,
,,,,,,,,2023-08-06_08h17.44.904,HF_wild_card,2022.2.4,MacIntel,60.04202942,61475c6bb6cdf4eadb143dd8,64ce5acb97489d65b14ecc7a,64cf4888732099a712481116,,,,,,,decisionTrl,resources/DY.BMP,resources/DG.BMP,Door3,0.353998752,-0.119563734,1,0,0,1.6133,optionRight,70,15310,7,14,0,14,0,1,,,,,,,,,,,,,,,,,,,,,,,,,,,,,,,,,,,,,,,
,,,,,,,,2023-08-06_08h17.44.904,HF_wild_card,2022.2.4,MacIntel,60.04202942,61475c6bb6cdf4eadb143dd8,64ce5acb97489d65b14ecc7a,64cf4888732099a712481116,,,,,,,decisionTrl,resources/DG.BMP,resources/DY.BMP,Door3,-0.325584005,0.091152445,1,0,0,0.9632,optionLeft,70,15380,7,15,0,15,0,1,,,,,,,,,,,,,,,,,,,,,,,,,,,,,,,,,,,,,,,
,,,,,,,,2023-08-06_08h17.44.904,HF_wild_card,2022.2.4,MacIntel,60.04202942,61475c6bb6cdf4eadb143dd8,64ce5acb97489d65b14ecc7a,64cf4888732099a712481116,,,,,,,decisionTrl,resources/DG.BMP,resources/DY.BMP,Door3,-0.283097636,0.025922953,1,0,0,0.6999,optionLeft,70,15450,7,16,0,16,0,1,,,,,,,,,,,,,,,,,,,,,,,,,,,,,,,,,,,,,,,
,,,,,,,,2023-08-06_08h17.44.904,HF_wild_card,2022.2.4,MacIntel,60.04202942,61475c6bb6cdf4eadb143dd8,64ce5acb97489d65b14ecc7a,64cf4888732099a712481116,,,,,,,ctch,resources/DBN.BMP,resources/DG.BMP,Door3,0.442462294,-0.111761271,1,0,0,0.9854,optionRight,70,15520,7,17,0,17,0,1,,,,,,,,,,,,,,,,,,,,,,,,,,,,,,,,,,,,,,,
,,,,,,,,2023-08-06_08h17.44.904,HF_wild_card,2022.2.4,MacIntel,60.04202942,61475c6bb6cdf4eadb143dd8,64ce5acb97489d65b14ecc7a,64cf4888732099a712481116,,,,,,,decisionTrl,resources/DB.BMP,resources/DBN.BMP,Door1,-0.256805623,0.04663364,1,0,0,1.1674,optionLeft,30,15550,7,18,0,18,0,1,,,,,,,,,,,,,,,,,,,,,,,,,,,,,,,,,,,,,,,
,,,,,,,,2023-08-06_08h17.44.904,HF_wild_card,2022.2.4,MacIntel,60.04202942,61475c6bb6cdf4eadb143dd8,64ce5acb97489d65b14ecc7a,64cf4888732099a712481116,,,,,,,decisionTrl,resources/DB.BMP,resources/DBN.BMP,Door1,-0.310861782,0.02959927,1,0,0,0.9677,optionLeft,30,15580,7,19,0,19,0,1,,,,,,,,,,,,,,,,,,,,,,,,,,,,,,,,,,,,,,,
,,,,,,,,2023-08-06_08h17.44.904,HF_wild_card,2022.2.4,MacIntel,60.04202942,61475c6bb6cdf4eadb143dd8,64ce5acb97489d65b14ecc7a,64cf4888732099a712481116,,,,,,,decisionTrl,resources/DY.BMP,resources/DG.BMP,Door3,0.502668728,-0.08989719,1,0,0,1.4779,optionRight,70,15650,7,20,0,20,0,1,,,,,,,,,,,,,,,,,,,,,,,,,,,,,,,,,,,,,,,
,,,,,,,,2023-08-06_08h17.44.904,HF_wild_card,2022.2.4,MacIntel,60.04202942,61475c6bb6cdf4eadb143dd8,64ce5acb97489d65b14ecc7a,64cf4888732099a712481116,,,,,,,ctch,resources/DY.BMP,resources/DB.BMP,Door4,-0.337524618,0.025194499,1,0,0,0.999,optionLeft,60,15710,7,21,0,21,0,1,,,,,,,,,,,,,,,,,,,,,,,,,,,,,,,,,,,,,,,
,,,,,,,,2023-08-06_08h17.44.904,HF_wild_card,2022.2.4,MacIntel,60.04202942,61475c6bb6cdf4eadb143dd8,64ce5acb97489d65b14ecc7a,64cf4888732099a712481116,,,,,,,decisionTrl,resources/DY.BMP,resources/DG.BMP,Door3,0.481355794,-0.059409214,1,0,0,1.5952,optionRight,70,15780,7,22,0,22,0,1,,,,,,,,,,,,,,,,,,,,,,,,,,,,,,,,,,,,,,,
,,,,,,,,2023-08-06_08h17.44.904,HF_wild_card,2022.2.4,MacIntel,60.04202942,61475c6bb6cdf4eadb143dd8,64ce5acb97489d65b14ecc7a,64cf4888732099a712481116,,,,,,,decisionTrl,resources/DG.BMP,resources/DY.BMP,Door3,-0.349460958,0.041388075,1,0,0,0.9479,optionLeft,70,15850,7,23,0,23,0,1,,,,,,,,,,,,,,,,,,,,,,,,,,,,,,,,,,,,,,,
,,,,,,,,2023-08-06_08h17.44.904,HF_wild_card,2022.2.4,MacIntel,60.04202942,61475c6bb6cdf4eadb143dd8,64ce5acb97489d65b14ecc7a,64cf4888732099a712481116,,,,,,,decisionTrl,resources/DBN.BMP,resources/DB.BMP,Door1,0.43244534,-0.021763645,1,0,0,0.9365,optionRight,30,15880,7,24,0,24,0,1,,,,,,,,,,,,,,,,,,,,,,,,,,,,,,,,,,,,,,,
,,,,,,,,2023-08-06_08h17.44.904,HF_wild_card,2022.2.4,MacIntel,60.04202942,61475c6bb6cdf4eadb143dd8,64ce5acb97489d65b14ecc7a,64cf4888732099a712481116,,,,,,,ctch,resources/DB.BMP,resources/DY.BMP,Door4,0.343460829,-0.028225064,1,0,0,1.5978,optionRight,60,15940,7,25,0,25,0,1,,,,,,,,,,,,,,,,,,,,,,,,,,,,,,,,,,,,,,,
,,,,,,,,2023-08-06_08h17.44.904,HF_wild_card,2022.2.4,MacIntel,60.04202942,61475c6bb6cdf4eadb143dd8,64ce5acb97489d65b14ecc7a,64cf4888732099a712481116,,,,,,,decisionTrl,resources/DBN.BMP,resources/DB.BMP,Door1,0.310056085,0.000794101,1,0,0,0.9483,optionRight,30,15970,7,26,0,26,0,1,,,,,,,,,,,,,,,,,,,,,,,,,,,,,,,,,,,,,,,
,,,,,,,,2023-08-06_08h17.44.904,HF_wild_card,2022.2.4,MacIntel,60.04202942,61475c6bb6cdf4eadb143dd8,64ce5acb97489d65b14ecc7a,64cf4888732099a712481116,,,,,,,ctch,resources/DY.BMP,resources/DB.BMP,Door4,-0.359708455,0.024266934,1,0,0,1.8284,optionLeft,60,16030,7,27,0,27,0,1,,,,,,,,,,,,,,,,,,,,,,,,,,,,,,,,,,,,,,,
,,,,,,,,2023-08-06_08h17.44.904,HF_wild_card,2022.2.4,MacIntel,60.04202942,61475c6bb6cdf4eadb143dd8,64ce5acb97489d65b14ecc7a,64cf4888732099a712481116,,,,,,,ctch,resources/DB.BMP,resources/DY.BMP,Door4,0.479014214,-0.004082404,1,0,0,1.0316,optionRight,80,16110,7,28,0,28,0,1,,,,,,,,,,,,,,,,,,,,,,,,,,,,,,,,,,,,,,,
,,,,,,,,2023-08-06_08h17.44.904,HF_wild_card,2022.2.4,MacIntel,60.04202942,61475c6bb6cdf4eadb143dd8,64ce5acb97489d65b14ecc7a,64cf4888732099a712481116,,,,,,,decisionTrl,resources/DB.BMP,resources/DBN.BMP,Door1,-0.313530613,0.027866516,1,0,0,1.0011,optionLeft,30,16140,7,29,0,29,0,1,,,,,,,,,,,,,,,,,,,,,,,,,,,,,,,,,,,,,,,
,,,,,,,,2023-08-06_08h17.44.904,HF_wild_card,2022.2.4,MacIntel,60.04202942,61475c6bb6cdf4eadb143dd8,64ce5acb97489d65b14ecc7a,64cf4888732099a712481116,,,,,,,ctch,resources/DG.BMP,resources/DBN.BMP,Door3,-0.297596469,0.026312425,1,0,0,0.9637,optionLeft,70,16210,7,30,0,30,0,1,,,,,,,,,,,,,,,,,,,,,,,,,,,,,,,,,,,,,,,
,,,,,,,,2023-08-06_08h17.44.904,HF_wild_card,2022.2.4,MacIntel,60.04202942,61475c6bb6cdf4eadb143dd8,64ce5acb97489d65b14ecc7a,64cf4888732099a712481116,,,,,,,decisionTrl,resources/DY.BMP,resources/DG.BMP,Door3,0.295867377,-0.012384847,1,0,0,1.4191,optionRight,70,16280,7,31,0,31,0,1,,,,,,,,,,,,,,,,,,,,,,,,,,,,,,,,,,,,,,,
,,,,,,,,2023-08-06_08h17.44.904,HF_wild_card,2022.2.4,MacIntel,60.04202942,61475c6bb6cdf4eadb143dd8,64ce5acb97489d65b14ecc7a,64cf4888732099a712481116,,,,,,,ctch,resources/DBN.BMP,resources/DG.BMP,Door3,0.326993408,-0.011834785,1,0,0,1.1306,optionRight,70,16350,7,32,0,32,0,1,,,,,,,,,,,,,,,,,,,,,,,,,,,,,,,,,,,,,,,
,,,,,,,,2023-08-06_08h17.44.904,HF_wild_card,2022.2.4,MacIntel,60.04202942,61475c6bb6cdf4eadb143dd8,64ce5acb97489d65b14ecc7a,64cf4888732099a712481116,,,,,,,ctch,resources/DY.BMP,resources/DB.BMP,Door4,-0.306404182,0.03686303,1,0,0,1.1785,optionLeft,80,16430,7,33,0,33,0,1,,,,,,,,,,,,,,,,,,,,,,,,,,,,,,,,,,,,,,,
,,,,,,,,2023-08-06_08h17.44.904,HF_wild_card,2022.2.4,MacIntel,60.04202942,61475c6bb6cdf4eadb143dd8,64ce5acb97489d65b14ecc7a,64cf4888732099a712481116,,,,,,,ctch,resources/DG.BMP,resources/DBN.BMP,Door3,-0.332211236,0.002093608,1,0,0,0.8484,optionLeft,70,16500,7,34,0,34,0,1,,,,,,,,,,,,,,,,,,,,,,,,,,,,,,,,,,,,,,,
,,,,,,,,2023-08-06_08h17.44.904,HF_wild_card,2022.2.4,MacIntel,60.04202942,61475c6bb6cdf4eadb143dd8,64ce5acb97489d65b14ecc7a,64cf4888732099a712481116,,,,,,,decisionTrl,resources/DY.BMP,resources/DG.BMP,Door3,0.224462484,-0.040289273,1,0,0,1.6447,optionRight,70,16570,7,35,0,35,0,1,,,,,,,,,,,,,,,,,,,,,,,,,,,,,,,,,,,,,,,
,,,,,,,,2023-08-06_08h17.44.904,HF_wild_card,2022.2.4,MacIntel,60.04202942,61475c6bb6cdf4eadb143dd8,64ce5acb97489d65b14ecc7a,64cf4888732099a712481116,,,,,,,,,,,,,,,,,,,,,,,,,,6,0,6,0,1,,,,,,,,,,,,,,,,,,,,,,,,,,,,,,,,,,
,,,,,,,,2023-08-06_08h17.44.904,HF_wild_card,2022.2.4,MacIntel,60.04202942,61475c6bb6cdf4eadb143dd8,64ce5acb97489d65b14ecc7a,64cf4888732099a712481116,,,,,,,,,,,,,,,,,,,,,,,,,,,,,,,4,,,,,,,,,,,,,,,,,,,,,,,,,,,,,,,,,
,,,,,,,,2023-08-06_08h17.44.904,HF_wild_card,2022.2.4,MacIntel,60.04202942,61475c6bb6cdf4eadb143dd8,64ce5acb97489d65b14ecc7a,64cf4888732099a712481116,,,,,,,,,,,,,,,,,,,,,,,,,,,,,,,,,,,,,,,,,,,,,,,,,,,,,,,,,,,,,,,,
,,,,,,,,2023-08-06_08h17.44.904,HF_wild_card,2022.2.4,MacIntel,60.04202942,61475c6bb6cdf4eadb143dd8,64ce5acb97489d65b14ecc7a,64cf4888732099a712481116,,,,,,,,,,,,,,,,,,,,,,,,,,,,,,,,60,Door3,resources/DG.BMP,0,0,0,0,1,,,,,,,,,,,,,,,,,,,,,,,,,
,,,,,,,,2023-08-06_08h17.44.904,HF_wild_card,2022.2.4,MacIntel,60.04202942,61475c6bb6cdf4eadb143dd8,64ce5acb97489d65b14ecc7a,64cf4888732099a712481116,,,,,,,,,,,,,,,,,,,,,,,,,,,,,,,,70,Door4,resources/DY.BMP,1,0,1,0,1,,,,,,,,,,,,,,,,,,,,,,,,,
,,,,,,,,2023-08-06_08h17.44.904,HF_wild_card,2022.2.4,MacIntel,60.04202942,61475c6bb6cdf4eadb143dd8,64ce5acb97489d65b14ecc7a,64cf4888732099a712481116,,,,,,,,,,,,,,,,,,,,,,,,,,,,,,,,80,WC_nonExtreme,resources/DR.BMP,2,0,2,0,1,,,,,,,,,,,,,,,,,,,,,,,,,
