Condition,Low fixed image (Door1),Low risky image (Door2),High fixed image (Door3),High risky image (Door4),Extreme Wild Card,NonExtreme Wild Card,,date,expName,psychopyVersion,OS,frameRate,PROLIFIC_PID,STUDY_ID,SESSION_ID,mouse_2.x,mouse_2.y,mouse_2.leftButton,mouse_2.midButton,mouse_2.rightButton,mouse_2.clicked_name,Trial Type,Left Option Image,Right Option Image,Chosen Door,mouse.x,mouse.y,mouse.leftButton,mouse.midButton,mouse.rightButton,mouse.time,mouse.clicked_name,Feedback,Cumulative Reward,Block,trial.thisRepN,trial.thisTrialN,trial.thisN,trial.thisIndex,trial.ran,blocks.thisRepN,blocks.thisTrialN,blocks.thisN,blocks.thisIndex,blocks.ran,Money conversion,First Outcome Reported,Shown Door (First Outcome),Displayed Image (First Outcome),outcomes.thisRepN,outcomes.thisTrialN,outcomes.thisN,outcomes.thisIndex,outcomes.ran,judgments.thisRepN,judgments.thisTrialN,judgments.thisN,judgments.thisIndex,judgments.ran,freqMouse.x,freqMouse.y,freqMouse.leftButton,freqMouse.midButton,freqMouse.rightButton,freqMouse.clicked_name,FQJ for first outcome,FQJ for second outcome,Shown Door,Displayed Image,trials.thisRepN,trials.thisTrialN,trials.thisN,trials.thisIndex,trials.ran,judgBlock.thisRepN,judgBlock.thisTrialN,judgBlock.thisN,judgBlock.thisIndex,judgBlock.ran
1,resources/DP.BMP,resources/DY.BMP,resources/DB.BMP,resources/DR.BMP,resources/DBN.BMP,resources/DG.BMP,,2023-08-16_08h42.34.246,HF_wild_card,2022.2.4,Win32,60.05645307,5dd3df439ca8a33c3460fe11,64d2fd46c836a06233681665,64dc7d7db112f1d2aaa1d3f1,,,,,,,,,,,,,,,,,,,,,,,,,,,,,,,,,,,,,,,,,,,,,,,,,,,,,,,,,,,,,,,,
,,,,,,,,2023-08-16_08h42.34.246,HF_wild_card,2022.2.4,Win32,60.05645307,5dd3df439ca8a33c3460fe11,64d2fd46c836a06233681665,64dc7d7db112f1d2aaa1d3f1,0.03125,-0.415364583,1,0,0,agree,,,,,,,,,,,,,,,,,,,,,,,,,,,,,,,,,,,,,,,,,,,,,,,,,,,,,,,,,,
,,,,,,,,2023-08-16_08h42.34.246,HF_wild_card,2022.2.4,Win32,60.05645307,5dd3df439ca8a33c3460fe11,64d2fd46c836a06233681665,64dc7d7db112f1d2aaa1d3f1,,,,,,,,,,,,,,,,,,,,,,,,,,,,,,,,,,,,,,,,,,,,,,,,,,,,,,,,,,,,,,,,
,,,,,,,,2023-08-16_08h42.34.246,HF_wild_card,2022.2.4,Win32,60.05645307,5dd3df439ca8a33c3460fe11,64d2fd46c836a06233681665,64dc7d7db112f1d2aaa1d3f1,,,,,,,sngl,resources/DG.BMP,resources/Empty.png,WildCard_NonEx,-0.358072917,-0.052083333,1,0,0,2.288,optionLeft,55,55,1,0,0,0,0,1,,,,,,,,,,,,,,,,,,,,,,,,,,,,,,,,,,,,,,,
,,,,,,,,2023-08-16_08h42.34.246,HF_wild_card,2022.2.4,Win32,60.05645307,5dd3df439ca8a33c3460fe11,64d2fd46c836a06233681665,64dc7d7db112f1d2aaa1d3f1,,,,,,,sngl,resources/Empty.png,resources/DG.BMP,WildCard_NonEx,0.372395833,-0.02734375,1,0,0,1.355299999,optionRight,45,100,1,1,0,1,0,1,,,,,,,,,,,,,,,,,,,,,,,,,,,,,,,,,,,,,,,
,,,,,,,,2023-08-16_08h42.34.246,HF_wild_card,2022.2.4,Win32,60.05645307,5dd3df439ca8a33c3460fe11,64d2fd46c836a06233681665,64dc7d7db112f1d2aaa1d3f1,,,,,,,decisionTrl,resources/DY.BMP,resources/DP.BMP,Door2,-0.321614583,-0.013020833,1,0,0,2.350599999,optionLeft,20,120,1,2,0,2,0,1,,,,,,,,,,,,,,,,,,,,,,,,,,,,,,,,,,,,,,,
,,,,,,,,2023-08-16_08h42.34.246,HF_wild_card,2022.2.4,Win32,60.05645307,5dd3df439ca8a33c3460fe11,64d2fd46c836a06233681665,64dc7d7db112f1d2aaa1d3f1,,,,,,,ctch,resources/DP.BMP,resources/DR.BMP,Door4,0.23046875,-0.01171875,1,0,0,1.8617,optionRight,60,180,1,3,0,3,0,1,,,,,,,,,,,,,,,,,,,,,,,,,,,,,,,,,,,,,,,
,,,,,,,,2023-08-16_08h42.34.246,HF_wild_card,2022.2.4,Win32,60.05645307,5dd3df439ca8a33c3460fe11,64d2fd46c836a06233681665,64dc7d7db112f1d2aaa1d3f1,,,,,,,decisionTrl,resources/DR.BMP,resources/DB.BMP,Door3,0.27734375,-0.010416667,1,0,0,1.723599999,optionRight,70,250,1,4,0,4,0,1,,,,,,,,,,,,,,,,,,,,,,,,,,,,,,,,,,,,,,,
,,,,,,,,2023-08-16_08h42.34.246,HF_wild_card,2022.2.4,Win32,60.05645307,5dd3df439ca8a33c3460fe11,64d2fd46c836a06233681665,64dc7d7db112f1d2aaa1d3f1,,,,,,,decisionTrl,resources/DP.BMP,resources/DY.BMP,Door2,0.346354167,0.04296875,1,0,0,1.8613,optionRight,20,270,1,5,0,5,0,1,,,,,,,,,,,,,,,,,,,,,,,,,,,,,,,,,,,,,,,
,,,,,,,,2023-08-16_08h42.34.246,HF_wild_card,2022.2.4,Win32,60.05645307,5dd3df439ca8a33c3460fe11,64d2fd46c836a06233681665,64dc7d7db112f1d2aaa1d3f1,,,,,,,decisionTrl,resources/DB.BMP,resources/DR.BMP,Door4,0.296875,-0.048177083,1,0,0,1.8061,optionRight,60,330,1,6,0,6,0,1,,,,,,,,,,,,,,,,,,,,,,,,,,,,,,,,,,,,,,,
,,,,,,,,2023-08-16_08h42.34.246,HF_wild_card,2022.2.4,Win32,60.05645307,5dd3df439ca8a33c3460fe11,64d2fd46c836a06233681665,64dc7d7db112f1d2aaa1d3f1,,,,,,,sngl,resources/Empty.png,resources/DP.BMP,Door1,0.466145833,0.029947917,1,0,0,0.9721,optionRight,30,360,1,7,0,7,0,1,,,,,,,,,,,,,,,,,,,,,,,,,,,,,,,,,,,,,,,
,,,,,,,,2023-08-16_08h42.34.246,HF_wild_card,2022.2.4,Win32,60.05645307,5dd3df439ca8a33c3460fe11,64d2fd46c836a06233681665,64dc7d7db112f1d2aaa1d3f1,,,,,,,decisionTrl,resources/DG.BMP,resources/DB.BMP,Door3,0.4375,0.005208333,1,0,0,1.9796,optionRight,70,430,1,8,0,8,0,1,,,,,,,,,,,,,,,,,,,,,,,,,,,,,,,,,,,,,,,
,,,,,,,,2023-08-16_08h42.34.246,HF_wild_card,2022.2.4,Win32,60.05645307,5dd3df439ca8a33c3460fe11,64d2fd46c836a06233681665,64dc7d7db112f1d2aaa1d3f1,,,,,,,ctch,resources/DP.BMP,resources/DR.BMP,Door1,-0.34375,0.00390625,1,0,0,1.4932,optionLeft,30,460,1,9,0,9,0,1,,,,,,,,,,,,,,,,,,,,,,,,,,,,,,,,,,,,,,,
,,,,,,,,2023-08-16_08h42.34.246,HF_wild_card,2022.2.4,Win32,60.05645307,5dd3df439ca8a33c3460fe11,64d2fd46c836a06233681665,64dc7d7db112f1d2aaa1d3f1,,,,,,,decisionTrl,resources/DP.BMP,resources/DY.BMP,Door2,0.389322917,0.029947917,1,0,0,1.8516,optionRight,20,480,1,10,0,10,0,1,,,,,,,,,,,,,,,,,,,,,,,,,,,,,,,,,,,,,,,
,,,,,,,,2023-08-16_08h42.34.246,HF_wild_card,2022.2.4,Win32,60.05645307,5dd3df439ca8a33c3460fe11,64d2fd46c836a06233681665,64dc7d7db112f1d2aaa1d3f1,,,,,,,sngl,resources/DB.BMP,resources/Empty.png,Door3,-0.384114583,-0.00390625,1,0,0,1.0509,optionLeft,70,550,1,11,0,11,0,1,,,,,,,,,,,,,,,,,,,,,,,,,,,,,,,,,,,,,,,
,,,,,,,,2023-08-16_08h42.34.246,HF_wild_card,2022.2.4,Win32,60.05645307,5dd3df439ca8a33c3460fe11,64d2fd46c836a06233681665,64dc7d7db112f1d2aaa1d3f1,,,,,,,decisionTrl,resources/DP.BMP,resources/DY.BMP,Door1,-0.40234375,-0.0078125,1,0,0,1.5338,optionLeft,30,580,1,12,0,12,0,1,,,,,,,,,,,,,,,,,,,,,,,,,,,,,,,,,,,,,,,
,,,,,,,,2023-08-16_08h42.34.246,HF_wild_card,2022.2.4,Win32,60.05645307,5dd3df439ca8a33c3460fe11,64d2fd46c836a06233681665,64dc7d7db112f1d2aaa1d3f1,,,,,,,sngl,resources/DY.BMP,resources/Empty.png,Door2,-0.502604167,0.0546875,1,0,0,0.8325,optionLeft,40,620,1,13,0,13,0,1,,,,,,,,,,,,,,,,,,,,,,,,,,,,,,,,,,,,,,,
,,,,,,,,2023-08-16_08h42.34.246,HF_wild_card,2022.2.4,Win32,60.05645307,5dd3df439ca8a33c3460fe11,64d2fd46c836a06233681665,64dc7d7db112f1d2aaa1d3f1,,,,,,,ctch,resources/DB.BMP,resources/DY.BMP,Door3,-0.39453125,0,1,0,0,1.3537,optionLeft,70,690,1,14,0,14,0,1,,,,,,,,,,,,,,,,,,,,,,,,,,,,,,,,,,,,,,,
,,,,,,,,2023-08-16_08h42.34.246,HF_wild_card,2022.2.4,Win32,60.05645307,5dd3df439ca8a33c3460fe11,64d2fd46c836a06233681665,64dc7d7db112f1d2aaa1d3f1,,,,,,,sngl,resources/DR.BMP,resources/Empty.png,Door4,-0.350260417,0.029947917,1,0,0,0.901400001,optionLeft,80,770,1,15,0,15,0,1,,,,,,,,,,,,,,,,,,,,,,,,,,,,,,,,,,,,,,,
,,,,,,,,2023-08-16_08h42.34.246,HF_wild_card,2022.2.4,Win32,60.05645307,5dd3df439ca8a33c3460fe11,64d2fd46c836a06233681665,64dc7d7db112f1d2aaa1d3f1,,,,,,,ctch,resources/DY.BMP,resources/DB.BMP,Door3,0.333333333,-0.048177083,1,0,0,1.692,optionRight,70,840,1,16,0,16,0,1,,,,,,,,,,,,,,,,,,,,,,,,,,,,,,,,,,,,,,,
,,,,,,,,2023-08-16_08h42.34.246,HF_wild_card,2022.2.4,Win32,60.05645307,5dd3df439ca8a33c3460fe11,64d2fd46c836a06233681665,64dc7d7db112f1d2aaa1d3f1,,,,,,,sngl,resources/DG.BMP,resources/Empty.png,WildCard_NonEx,-0.385416667,0.029947917,1,0,0,1.137400001,optionLeft,45,885,1,17,0,17,0,1,,,,,,,,,,,,,,,,,,,,,,,,,,,,,,,,,,,,,,,
,,,,,,,,2023-08-16_08h42.34.246,HF_wild_card,2022.2.4,Win32,60.05645307,5dd3df439ca8a33c3460fe11,64d2fd46c836a06233681665,64dc7d7db112f1d2aaa1d3f1,,,,,,,decisionTrl,resources/DB.BMP,resources/DR.BMP,Door3,-0.333333333,-0.0234375,1,0,0,2.371799999,optionLeft,70,955,1,18,0,18,0,1,,,,,,,,,,,,,,,,,,,,,,,,,,,,,,,,,,,,,,,
,,,,,,,,2023-08-16_08h42.34.246,HF_wild_card,2022.2.4,Win32,60.05645307,5dd3df439ca8a33c3460fe11,64d2fd46c836a06233681665,64dc7d7db112f1d2aaa1d3f1,,,,,,,decisionTrl,resources/DP.BMP,resources/DG.BMP,WildCard_NonEx,0.348958333,0.02734375,1,0,0,1.391599999,optionRight,55,1010,1,19,0,19,0,1,,,,,,,,,,,,,,,,,,,,,,,,,,,,,,,,,,,,,,,
,,,,,,,,2023-08-16_08h42.34.246,HF_wild_card,2022.2.4,Win32,60.05645307,5dd3df439ca8a33c3460fe11,64d2fd46c836a06233681665,64dc7d7db112f1d2aaa1d3f1,,,,,,,decisionTrl,resources/DY.BMP,resources/DP.BMP,Door1,0.30078125,0.01171875,1,0,0,2.0932,optionRight,30,1040,1,20,0,20,0,1,,,,,,,,,,,,,,,,,,,,,,,,,,,,,,,,,,,,,,,
,,,,,,,,2023-08-16_08h42.34.246,HF_wild_card,2022.2.4,Win32,60.05645307,5dd3df439ca8a33c3460fe11,64d2fd46c836a06233681665,64dc7d7db112f1d2aaa1d3f1,,,,,,,decisionTrl,resources/DG.BMP,resources/DR.BMP,WildCard_NonEx,-0.481770833,-0.022135417,1,0,0,1.8578,optionLeft,55,1095,1,21,0,21,0,1,,,,,,,,,,,,,,,,,,,,,,,,,,,,,,,,,,,,,,,
,,,,,,,,2023-08-16_08h42.34.246,HF_wild_card,2022.2.4,Win32,60.05645307,5dd3df439ca8a33c3460fe11,64d2fd46c836a06233681665,64dc7d7db112f1d2aaa1d3f1,,,,,,,decisionTrl,resources/DY.BMP,resources/DP.BMP,Door2,-0.365885417,0.022135417,1,0,0,2.0093,optionLeft,40,1135,1,22,0,22,0,1,,,,,,,,,,,,,,,,,,,,,,,,,,,,,,,,,,,,,,,
,,,,,,,,2023-08-16_08h42.34.246,HF_wild_card,2022.2.4,Win32,60.05645307,5dd3df439ca8a33c3460fe11,64d2fd46c836a06233681665,64dc7d7db112f1d2aaa1d3f1,,,,,,,sngl,resources/Empty.png,resources/DB.BMP,Door3,0.389322917,-0.0234375,1,0,0,0.9507,optionRight,70,1205,1,23,0,23,0,1,,,,,,,,,,,,,,,,,,,,,,,,,,,,,,,,,,,,,,,
,,,,,,,,2023-08-16_08h42.34.246,HF_wild_card,2022.2.4,Win32,60.05645307,5dd3df439ca8a33c3460fe11,64d2fd46c836a06233681665,64dc7d7db112f1d2aaa1d3f1,,,,,,,decisionTrl,resources/DB.BMP,resources/DR.BMP,Door3,-0.381510417,0.024739583,1,0,0,1.0627,optionLeft,70,1275,1,24,0,24,0,1,,,,,,,,,,,,,,,,,,,,,,,,,,,,,,,,,,,,,,,
,,,,,,,,2023-08-16_08h42.34.246,HF_wild_card,2022.2.4,Win32,60.05645307,5dd3df439ca8a33c3460fe11,64d2fd46c836a06233681665,64dc7d7db112f1d2aaa1d3f1,,,,,,,decisionTrl,resources/DY.BMP,resources/DG.BMP,WildCard_NonEx,0.446614583,0.016927083,1,0,0,1.4382,optionRight,55,1330,1,25,0,25,0,1,,,,,,,,,,,,,,,,,,,,,,,,,,,,,,,,,,,,,,,
,,,,,,,,2023-08-16_08h42.34.246,HF_wild_card,2022.2.4,Win32,60.05645307,5dd3df439ca8a33c3460fe11,64d2fd46c836a06233681665,64dc7d7db112f1d2aaa1d3f1,,,,,,,sngl,resources/Empty.png,resources/DR.BMP,Door4,0.486979167,-0.033854167,1,0,0,1.1802,optionRight,60,1390,1,26,0,26,0,1,,,,,,,,,,,,,,,,,,,,,,,,,,,,,,,,,,,,,,,
,,,,,,,,2023-08-16_08h42.34.246,HF_wild_card,2022.2.4,Win32,60.05645307,5dd3df439ca8a33c3460fe11,64d2fd46c836a06233681665,64dc7d7db112f1d2aaa1d3f1,,,,,,,decisionTrl,resources/DR.BMP,resources/DB.BMP,Door3,0.321614583,-0.016927083,1,0,0,1.8282,optionRight,70,1460,1,27,0,27,0,1,,,,,,,,,,,,,,,,,,,,,,,,,,,,,,,,,,,,,,,
,,,,,,,,2023-08-16_08h42.34.246,HF_wild_card,2022.2.4,Win32,60.05645307,5dd3df439ca8a33c3460fe11,64d2fd46c836a06233681665,64dc7d7db112f1d2aaa1d3f1,,,,,,,sngl,resources/DP.BMP,resources/Empty.png,Door1,-0.346354167,0.022135417,1,0,0,0.835299999,optionLeft,30,1490,1,28,0,28,0,1,,,,,,,,,,,,,,,,,,,,,,,,,,,,,,,,,,,,,,,
,,,,,,,,2023-08-16_08h42.34.246,HF_wild_card,2022.2.4,Win32,60.05645307,5dd3df439ca8a33c3460fe11,64d2fd46c836a06233681665,64dc7d7db112f1d2aaa1d3f1,,,,,,,decisionTrl,resources/DG.BMP,resources/DP.BMP,WildCard_NonEx,-0.28125,0.010416667,1,0,0,1.947400001,optionLeft,55,1545,1,29,0,29,0,1,,,,,,,,,,,,,,,,,,,,,,,,,,,,,,,,,,,,,,,
,,,,,,,,2023-08-16_08h42.34.246,HF_wild_card,2022.2.4,Win32,60.05645307,5dd3df439ca8a33c3460fe11,64d2fd46c836a06233681665,64dc7d7db112f1d2aaa1d3f1,,,,,,,decisionTrl,resources/DP.BMP,resources/DY.BMP,Door2,0.454427083,-0.052083333,1,0,0,3.3856,optionRight,40,1585,1,30,0,30,0,1,,,,,,,,,,,,,,,,,,,,,,,,,,,,,,,,,,,,,,,
,,,,,,,,2023-08-16_08h42.34.246,HF_wild_card,2022.2.4,Win32,60.05645307,5dd3df439ca8a33c3460fe11,64d2fd46c836a06233681665,64dc7d7db112f1d2aaa1d3f1,,,,,,,decisionTrl,resources/DG.BMP,resources/DY.BMP,Door2,0.412760417,-0.028645833,1,0,0,1.100400001,optionRight,40,1625,1,31,0,31,0,1,,,,,,,,,,,,,,,,,,,,,,,,,,,,,,,,,,,,,,,
,,,,,,,,2023-08-16_08h42.34.246,HF_wild_card,2022.2.4,Win32,60.05645307,5dd3df439ca8a33c3460fe11,64d2fd46c836a06233681665,64dc7d7db112f1d2aaa1d3f1,,,,,,,decisionTrl,resources/DR.BMP,resources/DB.BMP,Door3,0.328125,-0.005208333,1,0,0,1.4395,optionRight,70,1695,1,32,0,32,0,1,,,,,,,,,,,,,,,,,,,,,,,,,,,,,,,,,,,,,,,
,,,,,,,,2023-08-16_08h42.34.246,HF_wild_card,2022.2.4,Win32,60.05645307,5dd3df439ca8a33c3460fe11,64d2fd46c836a06233681665,64dc7d7db112f1d2aaa1d3f1,,,,,,,decisionTrl,resources/DB.BMP,resources/DR.BMP,Door3,-0.404947917,0.016927083,1,0,0,1.2028,optionLeft,70,1765,1,33,0,33,0,1,,,,,,,,,,,,,,,,,,,,,,,,,,,,,,,,,,,,,,,
,,,,,,,,2023-08-16_08h42.34.246,HF_wild_card,2022.2.4,Win32,60.05645307,5dd3df439ca8a33c3460fe11,64d2fd46c836a06233681665,64dc7d7db112f1d2aaa1d3f1,,,,,,,decisionTrl,resources/DR.BMP,resources/DB.BMP,Door3,0.462239583,0.016927083,1,0,0,1.008599999,optionRight,70,1835,1,34,0,34,0,1,,,,,,,,,,,,,,,,,,,,,,,,,,,,,,,,,,,,,,,
,,,,,,,,2023-08-16_08h42.34.246,HF_wild_card,2022.2.4,Win32,60.05645307,5dd3df439ca8a33c3460fe11,64d2fd46c836a06233681665,64dc7d7db112f1d2aaa1d3f1,,,,,,,ctch,resources/DR.BMP,resources/DP.BMP,Door4,-0.40234375,-0.03515625,1,0,0,1.4484,optionLeft,60,1895,1,35,0,35,0,1,,,,,,,,,,,,,,,,,,,,,,,,,,,,,,,,,,,,,,,
,,,,,,,,2023-08-16_08h42.34.246,HF_wild_card,2022.2.4,Win32,60.05645307,5dd3df439ca8a33c3460fe11,64d2fd46c836a06233681665,64dc7d7db112f1d2aaa1d3f1,,,,,,,sngl,resources/Empty.png,resources/DG.BMP,WildCard_NonEx,0.555989583,-0.010416667,1,0,0,0.8007,optionRight,55,1950,1,36,0,36,0,1,,,,,,,,,,,,,,,,,,,,,,,,,,,,,,,,,,,,,,,
,,,,,,,,2023-08-16_08h42.34.246,HF_wild_card,2022.2.4,Win32,60.05645307,5dd3df439ca8a33c3460fe11,64d2fd46c836a06233681665,64dc7d7db112f1d2aaa1d3f1,,,,,,,ctch,resources/DB.BMP,resources/DY.BMP,Door3,-0.260416667,0.009114583,1,0,0,1.0848,optionLeft,70,2020,1,37,0,37,0,1,,,,,,,,,,,,,,,,,,,,,,,,,,,,,,,,,,,,,,,
,,,,,,,,2023-08-16_08h42.34.246,HF_wild_card,2022.2.4,Win32,60.05645307,5dd3df439ca8a33c3460fe11,64d2fd46c836a06233681665,64dc7d7db112f1d2aaa1d3f1,,,,,,,decisionTrl,resources/DR.BMP,resources/DG.BMP,WildCard_NonEx,0.276041667,0.00390625,1,0,0,2.2792,optionRight,45,2065,1,38,0,38,0,1,,,,,,,,,,,,,,,,,,,,,,,,,,,,,,,,,,,,,,,
,,,,,,,,2023-08-16_08h42.34.246,HF_wild_card,2022.2.4,Win32,60.05645307,5dd3df439ca8a33c3460fe11,64d2fd46c836a06233681665,64dc7d7db112f1d2aaa1d3f1,,,,,,,decisionTrl,resources/DB.BMP,resources/DG.BMP,Door3,-0.268229167,-0.015625,1,0,0,1.1113,optionLeft,70,2135,1,39,0,39,0,1,,,,,,,,,,,,,,,,,,,,,,,,,,,,,,,,,,,,,,,
,,,,,,,,2023-08-16_08h42.34.246,HF_wild_card,2022.2.4,Win32,60.05645307,5dd3df439ca8a33c3460fe11,64d2fd46c836a06233681665,64dc7d7db112f1d2aaa1d3f1,,,,,,,sngl,resources/Empty.png,resources/DY.BMP,Door2,0.313802083,0.029947917,1,0,0,1.0026,optionRight,20,2155,1,40,0,40,0,1,,,,,,,,,,,,,,,,,,,,,,,,,,,,,,,,,,,,,,,
,,,,,,,,2023-08-16_08h42.34.246,HF_wild_card,2022.2.4,Win32,60.05645307,5dd3df439ca8a33c3460fe11,64d2fd46c836a06233681665,64dc7d7db112f1d2aaa1d3f1,,,,,,,decisionTrl,resources/DY.BMP,resources/DP.BMP,Door1,0.290364583,0.010416667,1,0,0,1.0229,optionRight,30,2185,1,41,0,41,0,1,,,,,,,,,,,,,,,,,,,,,,,,,,,,,,,,,,,,,,,
,,,,,,,,2023-08-16_08h42.34.246,HF_wild_card,2022.2.4,Win32,60.05645307,5dd3df439ca8a33c3460fe11,64d2fd46c836a06233681665,64dc7d7db112f1d2aaa1d3f1,,,,,,,ctch,resources/DY.BMP,resources/DB.BMP,Door3,0.328125,-0.001302083,1,0,0,1.1261,optionRight,70,2255,1,42,0,42,0,1,,,,,,,,,,,,,,,,,,,,,,,,,,,,,,,,,,,,,,,
,,,,,,,,2023-08-16_08h42.34.246,HF_wild_card,2022.2.4,Win32,60.05645307,5dd3df439ca8a33c3460fe11,64d2fd46c836a06233681665,64dc7d7db112f1d2aaa1d3f1,,,,,,,ctch,resources/DR.BMP,resources/DP.BMP,Door4,-0.466145833,0,1,0,0,1.4154,optionLeft,80,2335,1,43,0,43,0,1,,,,,,,,,,,,,,,,,,,,,,,,,,,,,,,,,,,,,,,
,,,,,,,,2023-08-16_08h42.34.246,HF_wild_card,2022.2.4,Win32,60.05645307,5dd3df439ca8a33c3460fe11,64d2fd46c836a06233681665,64dc7d7db112f1d2aaa1d3f1,,,,,,,,,,,,,,,,,,,,,,,,,,0,0,0,0,1,,,,,,,,,,,,,,,,,,,,,,,,,,,,,,,,,,
,,,,,,,,2023-08-16_08h42.34.246,HF_wild_card,2022.2.4,Win32,60.05645307,5dd3df439ca8a33c3460fe11,64d2fd46c836a06233681665,64dc7d7db112f1d2aaa1d3f1,,,,,,,sngl,resources/DG.BMP,resources/Empty.png,WildCard_NonEx,-0.321614583,-0.108072917,1,0,0,0.9387,optionLeft,45,2380,2,0,0,0,0,1,,,,,,,,,,,,,,,,,,,,,,,,,,,,,,,,,,,,,,,
,,,,,,,,2023-08-16_08h42.34.246,HF_wild_card,2022.2.4,Win32,60.05645307,5dd3df439ca8a33c3460fe11,64d2fd46c836a06233681665,64dc7d7db112f1d2aaa1d3f1,,,,,,,sngl,resources/DB.BMP,resources/Empty.png,Door3,-0.4140625,0.018229167,1,0,0,0.8102,optionLeft,70,2450,2,1,0,1,0,1,,,,,,,,,,,,,,,,,,,,,,,,,,,,,,,,,,,,,,,
,,,,,,,,2023-08-16_08h42.34.246,HF_wild_card,2022.2.4,Win32,60.05645307,5dd3df439ca8a33c3460fe11,64d2fd46c836a06233681665,64dc7d7db112f1d2aaa1d3f1,,,,,,,decisionTrl,resources/DG.BMP,resources/DP.BMP,Door1,0.399739583,0.006510417,1,0,0,1.8317,optionRight,30,2480,2,2,0,2,0,1,,,,,,,,,,,,,,,,,,,,,,,,,,,,,,,,,,,,,,,
,,,,,,,,2023-08-16_08h42.34.246,HF_wild_card,2022.2.4,Win32,60.05645307,5dd3df439ca8a33c3460fe11,64d2fd46c836a06233681665,64dc7d7db112f1d2aaa1d3f1,,,,,,,sngl,resources/DP.BMP,resources/Empty.png,Door1,-0.401041667,-0.009114583,1,0,0,0.8048,optionLeft,30,2510,2,3,0,3,0,1,,,,,,,,,,,,,,,,,,,,,,,,,,,,,,,,,,,,,,,
,,,,,,,,2023-08-16_08h42.34.246,HF_wild_card,2022.2.4,Win32,60.05645307,5dd3df439ca8a33c3460fe11,64d2fd46c836a06233681665,64dc7d7db112f1d2aaa1d3f1,,,,,,,decisionTrl,resources/DB.BMP,resources/DR.BMP,Door3,-0.326822917,-0.013020833,1,0,0,0.9425,optionLeft,70,2580,2,4,0,4,0,1,,,,,,,,,,,,,,,,,,,,,,,,,,,,,,,,,,,,,,,
,,,,,,,,2023-08-16_08h42.34.246,HF_wild_card,2022.2.4,Win32,60.05645307,5dd3df439ca8a33c3460fe11,64d2fd46c836a06233681665,64dc7d7db112f1d2aaa1d3f1,,,,,,,sngl,resources/Empty.png,resources/DP.BMP,Door1,0.361979167,-0.02734375,1,0,0,0.7695,optionRight,30,2610,2,5,0,5,0,1,,,,,,,,,,,,,,,,,,,,,,,,,,,,,,,,,,,,,,,
,,,,,,,,2023-08-16_08h42.34.246,HF_wild_card,2022.2.4,Win32,60.05645307,5dd3df439ca8a33c3460fe11,64d2fd46c836a06233681665,64dc7d7db112f1d2aaa1d3f1,,,,,,,decisionTrl,resources/DP.BMP,resources/DY.BMP,Door2,0.416666667,0.020833333,1,0,0,1.5592,optionRight,20,2630,2,6,0,6,0,1,,,,,,,,,,,,,,,,,,,,,,,,,,,,,,,,,,,,,,,
,,,,,,,,2023-08-16_08h42.34.246,HF_wild_card,2022.2.4,Win32,60.05645307,5dd3df439ca8a33c3460fe11,64d2fd46c836a06233681665,64dc7d7db112f1d2aaa1d3f1,,,,,,,ctch,resources/DB.BMP,resources/DY.BMP,Door3,-0.334635417,0.001302083,1,0,0,0.888400001,optionLeft,70,2700,2,7,0,7,0,1,,,,,,,,,,,,,,,,,,,,,,,,,,,,,,,,,,,,,,,
,,,,,,,,2023-08-16_08h42.34.246,HF_wild_card,2022.2.4,Win32,60.05645307,5dd3df439ca8a33c3460fe11,64d2fd46c836a06233681665,64dc7d7db112f1d2aaa1d3f1,,,,,,,ctch,resources/DR.BMP,resources/DP.BMP,Door4,-0.38671875,-0.010416667,1,0,0,2.3602,optionLeft,80,2780,2,8,0,8,0,1,,,,,,,,,,,,,,,,,,,,,,,,,,,,,,,,,,,,,,,
,,,,,,,,2023-08-16_08h42.34.246,HF_wild_card,2022.2.4,Win32,60.05645307,5dd3df439ca8a33c3460fe11,64d2fd46c836a06233681665,64dc7d7db112f1d2aaa1d3f1,,,,,,,decisionTrl,resources/DR.BMP,resources/DB.BMP,Door4,-0.295572917,-0.044270833,1,0,0,0.7768,optionLeft,80,2860,2,9,0,9,0,1,,,,,,,,,,,,,,,,,,,,,,,,,,,,,,,,,,,,,,,
,,,,,,,,2023-08-16_08h42.34.246,HF_wild_card,2022.2.4,Win32,60.05645307,5dd3df439ca8a33c3460fe11,64d2fd46c836a06233681665,64dc7d7db112f1d2aaa1d3f1,,,,,,,decisionTrl,resources/DB.BMP,resources/DR.BMP,Door4,0.283854167,-0.002604167,1,0,0,0.9741,optionRight,60,2920,2,10,0,10,0,1,,,,,,,,,,,,,,,,,,,,,,,,,,,,,,,,,,,,,,,
,,,,,,,,2023-08-16_08h42.34.246,HF_wild_card,2022.2.4,Win32,60.05645307,5dd3df439ca8a33c3460fe11,64d2fd46c836a06233681665,64dc7d7db112f1d2aaa1d3f1,,,,,,,decisionTrl,resources/DB.BMP,resources/DR.BMP,Door3,-0.268229167,-0.001302083,1,0,0,0.851400001,optionLeft,70,2990,2,11,0,11,0,1,,,,,,,,,,,,,,,,,,,,,,,,,,,,,,,,,,,,,,,
,,,,,,,,2023-08-16_08h42.34.246,HF_wild_card,2022.2.4,Win32,60.05645307,5dd3df439ca8a33c3460fe11,64d2fd46c836a06233681665,64dc7d7db112f1d2aaa1d3f1,,,,,,,sngl,resources/Empty.png,resources/DR.BMP,Door4,0.5,-0.002604167,1,0,0,0.8794,optionRight,80,3070,2,12,0,12,0,1,,,,,,,,,,,,,,,,,,,,,,,,,,,,,,,,,,,,,,,
,,,,,,,,2023-08-16_08h42.34.246,HF_wild_card,2022.2.4,Win32,60.05645307,5dd3df439ca8a33c3460fe11,64d2fd46c836a06233681665,64dc7d7db112f1d2aaa1d3f1,,,,,,,decisionTrl,resources/DR.BMP,resources/DB.BMP,Door4,-0.376302083,0.009114583,1,0,0,0.765400001,optionLeft,60,3130,2,13,0,13,0,1,,,,,,,,,,,,,,,,,,,,,,,,,,,,,,,,,,,,,,,
,,,,,,,,2023-08-16_08h42.34.246,HF_wild_card,2022.2.4,Win32,60.05645307,5dd3df439ca8a33c3460fe11,64d2fd46c836a06233681665,64dc7d7db112f1d2aaa1d3f1,,,,,,,decisionTrl,resources/DP.BMP,resources/DG.BMP,WildCard_NonEx,0.221354167,0.026041667,1,0,0,1.1441,optionRight,55,3185,2,14,0,14,0,1,,,,,,,,,,,,,,,,,,,,,,,,,,,,,,,,,,,,,,,
,,,,,,,,2023-08-16_08h42.34.246,HF_wild_card,2022.2.4,Win32,60.05645307,5dd3df439ca8a33c3460fe11,64d2fd46c836a06233681665,64dc7d7db112f1d2aaa1d3f1,,,,,,,decisionTrl,resources/DG.BMP,resources/DB.BMP,Door3,0.51171875,0.052083333,1,0,0,1.2834,optionRight,70,3255,2,15,0,15,0,1,,,,,,,,,,,,,,,,,,,,,,,,,,,,,,,,,,,,,,,
,,,,,,,,2023-08-16_08h42.34.246,HF_wild_card,2022.2.4,Win32,60.05645307,5dd3df439ca8a33c3460fe11,64d2fd46c836a06233681665,64dc7d7db112f1d2aaa1d3f1,,,,,,,decisionTrl,resources/DP.BMP,resources/DY.BMP,Door2,0.21875,0.010416667,1,0,0,1.392099999,optionRight,20,3275,2,16,0,16,0,1,,,,,,,,,,,,,,,,,,,,,,,,,,,,,,,,,,,,,,,
,,,,,,,,2023-08-16_08h42.34.246,HF_wild_card,2022.2.4,Win32,60.05645307,5dd3df439ca8a33c3460fe11,64d2fd46c836a06233681665,64dc7d7db112f1d2aaa1d3f1,,,,,,,ctch,resources/DB.BMP,resources/DY.BMP,Door3,-0.369791667,-0.015625,1,0,0,0.9278,optionLeft,70,3345,2,17,0,17,0,1,,,,,,,,,,,,,,,,,,,,,,,,,,,,,,,,,,,,,,,
,,,,,,,,2023-08-16_08h42.34.246,HF_wild_card,2022.2.4,Win32,60.05645307,5dd3df439ca8a33c3460fe11,64d2fd46c836a06233681665,64dc7d7db112f1d2aaa1d3f1,,,,,,,decisionTrl,resources/DG.BMP,resources/DR.BMP,WildCard_NonEx,-0.421875,0.01171875,1,0,0,1.228,optionLeft,55,3400,2,18,0,18,0,1,,,,,,,,,,,,,,,,,,,,,,,,,,,,,,,,,,,,,,,
,,,,,,,,2023-08-16_08h42.34.246,HF_wild_card,2022.2.4,Win32,60.05645307,5dd3df439ca8a33c3460fe11,64d2fd46c836a06233681665,64dc7d7db112f1d2aaa1d3f1,,,,,,,sngl,resources/Empty.png,resources/DB.BMP,Door3,0.497395833,-0.032552083,1,0,0,0.7533,optionRight,70,3470,2,19,0,19,0,1,,,,,,,,,,,,,,,,,,,,,,,,,,,,,,,,,,,,,,,
,,,,,,,,2023-08-16_08h42.34.246,HF_wild_card,2022.2.4,Win32,60.05645307,5dd3df439ca8a33c3460fe11,64d2fd46c836a06233681665,64dc7d7db112f1d2aaa1d3f1,,,,,,,decisionTrl,resources/DR.BMP,resources/DB.BMP,Door3,0.390625,0.013020833,1,0,0,1.104,optionRight,70,3540,2,20,0,20,0,1,,,,,,,,,,,,,,,,,,,,,,,,,,,,,,,,,,,,,,,
,,,,,,,,2023-08-16_08h42.34.246,HF_wild_card,2022.2.4,Win32,60.05645307,5dd3df439ca8a33c3460fe11,64d2fd46c836a06233681665,64dc7d7db112f1d2aaa1d3f1,,,,,,,decisionTrl,resources/DP.BMP,resources/DY.BMP,Door2,0.256510417,-0.006510417,1,0,0,1.0384,optionRight,40,3580,2,21,0,21,0,1,,,,,,,,,,,,,,,,,,,,,,,,,,,,,,,,,,,,,,,
,,,,,,,,2023-08-16_08h42.34.246,HF_wild_card,2022.2.4,Win32,60.05645307,5dd3df439ca8a33c3460fe11,64d2fd46c836a06233681665,64dc7d7db112f1d2aaa1d3f1,,,,,,,sngl,resources/Empty.png,resources/DG.BMP,WildCard_NonEx,0.524739583,0.00390625,1,0,0,0.7872,optionRight,45,3625,2,22,0,22,0,1,,,,,,,,,,,,,,,,,,,,,,,,,,,,,,,,,,,,,,,
,,,,,,,,2023-08-16_08h42.34.246,HF_wild_card,2022.2.4,Win32,60.05645307,5dd3df439ca8a33c3460fe11,64d2fd46c836a06233681665,64dc7d7db112f1d2aaa1d3f1,,,,,,,decisionTrl,resources/DR.BMP,resources/DG.BMP,Door4,-0.365885417,0.03125,1,0,0,0.904,optionLeft,80,3705,2,23,0,23,0,1,,,,,,,,,,,,,,,,,,,,,,,,,,,,,,,,,,,,,,,
,,,,,,,,2023-08-16_08h42.34.246,HF_wild_card,2022.2.4,Win32,60.05645307,5dd3df439ca8a33c3460fe11,64d2fd46c836a06233681665,64dc7d7db112f1d2aaa1d3f1,,,,,,,ctch,resources/DP.BMP,resources/DR.BMP,Door4,0.358072917,0.052083333,1,0,0,1.405400001,optionRight,80,3785,2,24,0,24,0,1,,,,,,,,,,,,,,,,,,,,,,,,,,,,,,,,,,,,,,,
,,,,,,,,2023-08-16_08h42.34.246,HF_wild_card,2022.2.4,Win32,60.05645307,5dd3df439ca8a33c3460fe11,64d2fd46c836a06233681665,64dc7d7db112f1d2aaa1d3f1,,,,,,,ctch,resources/DY.BMP,resources/DB.BMP,Door3,0.236979167,0.002604167,1,0,0,1.2412,optionRight,70,3855,2,25,0,25,0,1,,,,,,,,,,,,,,,,,,,,,,,,,,,,,,,,,,,,,,,
,,,,,,,,2023-08-16_08h42.34.246,HF_wild_card,2022.2.4,Win32,60.05645307,5dd3df439ca8a33c3460fe11,64d2fd46c836a06233681665,64dc7d7db112f1d2aaa1d3f1,,,,,,,decisionTrl,resources/DY.BMP,resources/DG.BMP,Door2,-0.4296875,0.036458333,1,0,0,1.8284,optionLeft,40,3895,2,26,0,26,0,1,,,,,,,,,,,,,,,,,,,,,,,,,,,,,,,,,,,,,,,
,,,,,,,,2023-08-16_08h42.34.246,HF_wild_card,2022.2.4,Win32,60.05645307,5dd3df439ca8a33c3460fe11,64d2fd46c836a06233681665,64dc7d7db112f1d2aaa1d3f1,,,,,,,decisionTrl,resources/DR.BMP,resources/DB.BMP,Door3,0.462239583,0.002604167,1,0,0,2.0761,optionRight,70,3965,2,27,0,27,0,1,,,,,,,,,,,,,,,,,,,,,,,,,,,,,,,,,,,,,,,
,,,,,,,,2023-08-16_08h42.34.246,HF_wild_card,2022.2.4,Win32,60.05645307,5dd3df439ca8a33c3460fe11,64d2fd46c836a06233681665,64dc7d7db112f1d2aaa1d3f1,,,,,,,decisionTrl,resources/DY.BMP,resources/DP.BMP,Door1,0.26953125,0.026041667,1,0,0,1.815900001,optionRight,30,3995,2,28,0,28,0,1,,,,,,,,,,,,,,,,,,,,,,,,,,,,,,,,,,,,,,,
,,,,,,,,2023-08-16_08h42.34.246,HF_wild_card,2022.2.4,Win32,60.05645307,5dd3df439ca8a33c3460fe11,64d2fd46c836a06233681665,64dc7d7db112f1d2aaa1d3f1,,,,,,,ctch,resources/DY.BMP,resources/DB.BMP,Door2,-0.377604167,0.005208333,1,0,0,0.894,optionLeft,40,4035,2,29,0,29,0,1,,,,,,,,,,,,,,,,,,,,,,,,,,,,,,,,,,,,,,,
,,,,,,,,2023-08-16_08h42.34.246,HF_wild_card,2022.2.4,Win32,60.05645307,5dd3df439ca8a33c3460fe11,64d2fd46c836a06233681665,64dc7d7db112f1d2aaa1d3f1,,,,,,,decisionTrl,resources/DB.BMP,resources/DR.BMP,Door4,0.229166667,-0.018229167,1,0,0,1.7891,optionRight,60,4095,2,30,0,30,0,1,,,,,,,,,,,,,,,,,,,,,,,,,,,,,,,,,,,,,,,
,,,,,,,,2023-08-16_08h42.34.246,HF_wild_card,2022.2.4,Win32,60.05645307,5dd3df439ca8a33c3460fe11,64d2fd46c836a06233681665,64dc7d7db112f1d2aaa1d3f1,,,,,,,ctch,resources/DR.BMP,resources/DP.BMP,Door4,-0.430989583,0.005208333,1,0,0,1.870400001,optionLeft,80,4175,2,31,0,31,0,1,,,,,,,,,,,,,,,,,,,,,,,,,,,,,,,,,,,,,,,
,,,,,,,,2023-08-16_08h42.34.246,HF_wild_card,2022.2.4,Win32,60.05645307,5dd3df439ca8a33c3460fe11,64d2fd46c836a06233681665,64dc7d7db112f1d2aaa1d3f1,,,,,,,sngl,resources/DG.BMP,resources/Empty.png,WildCard_NonEx,-0.278645833,0.002604167,1,0,0,0.8082,optionLeft,55,4230,2,32,0,32,0,1,,,,,,,,,,,,,,,,,,,,,,,,,,,,,,,,,,,,,,,
,,,,,,,,2023-08-16_08h42.34.246,HF_wild_card,2022.2.4,Win32,60.05645307,5dd3df439ca8a33c3460fe11,64d2fd46c836a06233681665,64dc7d7db112f1d2aaa1d3f1,,,,,,,sngl,resources/Empty.png,resources/DY.BMP,Door2,0.415364583,-0.010416667,1,0,0,0.751299999,optionRight,40,4270,2,33,0,33,0,1,,,,,,,,,,,,,,,,,,,,,,,,,,,,,,,,,,,,,,,
,,,,,,,,2023-08-16_08h42.34.246,HF_wild_card,2022.2.4,Win32,60.05645307,5dd3df439ca8a33c3460fe11,64d2fd46c836a06233681665,64dc7d7db112f1d2aaa1d3f1,,,,,,,decisionTrl,resources/DB.BMP,resources/DG.BMP,Door3,-0.416666667,0,1,0,0,1.0667,optionLeft,70,4340,2,34,0,34,0,1,,,,,,,,,,,,,,,,,,,,,,,,,,,,,,,,,,,,,,,
,,,,,,,,2023-08-16_08h42.34.246,HF_wild_card,2022.2.4,Win32,60.05645307,5dd3df439ca8a33c3460fe11,64d2fd46c836a06233681665,64dc7d7db112f1d2aaa1d3f1,,,,,,,decisionTrl,resources/DP.BMP,resources/DY.BMP,Door1,-0.12109375,-0.028645833,1,0,0,1.4395,optionLeft,30,4370,2,35,0,35,0,1,,,,,,,,,,,,,,,,,,,,,,,,,,,,,,,,,,,,,,,
,,,,,,,,2023-08-16_08h42.34.246,HF_wild_card,2022.2.4,Win32,60.05645307,5dd3df439ca8a33c3460fe11,64d2fd46c836a06233681665,64dc7d7db112f1d2aaa1d3f1,,,,,,,sngl,resources/DR.BMP,resources/Empty.png,Door4,-0.408854167,0.006510417,1,0,0,0.7741,optionLeft,60,4430,2,36,0,36,0,1,,,,,,,,,,,,,,,,,,,,,,,,,,,,,,,,,,,,,,,
,,,,,,,,2023-08-16_08h42.34.246,HF_wild_card,2022.2.4,Win32,60.05645307,5dd3df439ca8a33c3460fe11,64d2fd46c836a06233681665,64dc7d7db112f1d2aaa1d3f1,,,,,,,sngl,resources/DY.BMP,resources/Empty.png,Door2,-0.458333333,0,1,0,0,0.819200001,optionLeft,20,4450,2,37,0,37,0,1,,,,,,,,,,,,,,,,,,,,,,,,,,,,,,,,,,,,,,,
,,,,,,,,2023-08-16_08h42.34.246,HF_wild_card,2022.2.4,Win32,60.05645307,5dd3df439ca8a33c3460fe11,64d2fd46c836a06233681665,64dc7d7db112f1d2aaa1d3f1,,,,,,,decisionTrl,resources/DY.BMP,resources/DP.BMP,Door1,0.40625,0.00390625,1,0,0,0.868799999,optionRight,30,4480,2,38,0,38,0,1,,,,,,,,,,,,,,,,,,,,,,,,,,,,,,,,,,,,,,,
,,,,,,,,2023-08-16_08h42.34.246,HF_wild_card,2022.2.4,Win32,60.05645307,5dd3df439ca8a33c3460fe11,64d2fd46c836a06233681665,64dc7d7db112f1d2aaa1d3f1,,,,,,,decisionTrl,resources/DY.BMP,resources/DP.BMP,Door1,0.3671875,0.03125,1,0,0,1.0014,optionRight,30,4510,2,39,0,39,0,1,,,,,,,,,,,,,,,,,,,,,,,,,,,,,,,,,,,,,,,
,,,,,,,,2023-08-16_08h42.34.246,HF_wild_card,2022.2.4,Win32,60.05645307,5dd3df439ca8a33c3460fe11,64d2fd46c836a06233681665,64dc7d7db112f1d2aaa1d3f1,,,,,,,decisionTrl,resources/DG.BMP,resources/DY.BMP,WildCard_NonEx,-0.541666667,0.020833333,1,0,0,1.406599999,optionLeft,45,4555,2,40,0,40,0,1,,,,,,,,,,,,,,,,,,,,,,,,,,,,,,,,,,,,,,,
,,,,,,,,2023-08-16_08h42.34.246,HF_wild_card,2022.2.4,Win32,60.05645307,5dd3df439ca8a33c3460fe11,64d2fd46c836a06233681665,64dc7d7db112f1d2aaa1d3f1,,,,,,,ctch,resources/DP.BMP,resources/DR.BMP,Door4,0.3359375,0.024739583,1,0,0,2.2534,optionRight,60,4615,2,41,0,41,0,1,,,,,,,,,,,,,,,,,,,,,,,,,,,,,,,,,,,,,,,
,,,,,,,,2023-08-16_08h42.34.246,HF_wild_card,2022.2.4,Win32,60.05645307,5dd3df439ca8a33c3460fe11,64d2fd46c836a06233681665,64dc7d7db112f1d2aaa1d3f1,,,,,,,decisionTrl,resources/DY.BMP,resources/DP.BMP,Door1,0.220052083,0.005208333,1,0,0,2.3156,optionRight,30,4645,2,42,0,42,0,1,,,,,,,,,,,,,,,,,,,,,,,,,,,,,,,,,,,,,,,
,,,,,,,,2023-08-16_08h42.34.246,HF_wild_card,2022.2.4,Win32,60.05645307,5dd3df439ca8a33c3460fe11,64d2fd46c836a06233681665,64dc7d7db112f1d2aaa1d3f1,,,,,,,sngl,resources/Empty.png,resources/DG.BMP,WildCard_NonEx,0.430989583,0.028645833,1,0,0,0.7552,optionRight,55,4700,2,43,0,43,0,1,,,,,,,,,,,,,,,,,,,,,,,,,,,,,,,,,,,,,,,
,,,,,,,,2023-08-16_08h42.34.246,HF_wild_card,2022.2.4,Win32,60.05645307,5dd3df439ca8a33c3460fe11,64d2fd46c836a06233681665,64dc7d7db112f1d2aaa1d3f1,,,,,,,,,,,,,,,,,,,,,,,,,,1,0,1,0,1,,,,,,,,,,,,,,,,,,,,,,,,,,,,,,,,,,
,,,,,,,,2023-08-16_08h42.34.246,HF_wild_card,2022.2.4,Win32,60.05645307,5dd3df439ca8a33c3460fe11,64d2fd46c836a06233681665,64dc7d7db112f1d2aaa1d3f1,,,,,,,sngl,resources/DR.BMP,resources/Empty.png,Door4,-0.481770833,-0.033854167,1,0,0,0.9845,optionLeft,80,4780,3,0,0,0,0,1,,,,,,,,,,,,,,,,,,,,,,,,,,,,,,,,,,,,,,,
,,,,,,,,2023-08-16_08h42.34.246,HF_wild_card,2022.2.4,Win32,60.05645307,5dd3df439ca8a33c3460fe11,64d2fd46c836a06233681665,64dc7d7db112f1d2aaa1d3f1,,,,,,,sngl,resources/Empty.png,resources/DP.BMP,Door1,0.412760417,-0.016927083,1,0,0,0.772400001,optionRight,30,4810,3,1,0,1,0,1,,,,,,,,,,,,,,,,,,,,,,,,,,,,,,,,,,,,,,,
,,,,,,,,2023-08-16_08h42.34.246,HF_wild_card,2022.2.4,Win32,60.05645307,5dd3df439ca8a33c3460fe11,64d2fd46c836a06233681665,64dc7d7db112f1d2aaa1d3f1,,,,,,,decisionTrl,resources/DY.BMP,resources/DP.BMP,Door1,0.30078125,0.018229167,1,0,0,1.6957,optionRight,30,4840,3,2,0,2,0,1,,,,,,,,,,,,,,,,,,,,,,,,,,,,,,,,,,,,,,,
,,,,,,,,2023-08-16_08h42.34.246,HF_wild_card,2022.2.4,Win32,60.05645307,5dd3df439ca8a33c3460fe11,64d2fd46c836a06233681665,64dc7d7db112f1d2aaa1d3f1,,,,,,,decisionTrl,resources/DR.BMP,resources/DG.BMP,Door4,-0.3984375,0.02734375,1,0,0,1.028799999,optionLeft,60,4900,3,3,0,3,0,1,,,,,,,,,,,,,,,,,,,,,,,,,,,,,,,,,,,,,,,
,,,,,,,,2023-08-16_08h42.34.246,HF_wild_card,2022.2.4,Win32,60.05645307,5dd3df439ca8a33c3460fe11,64d2fd46c836a06233681665,64dc7d7db112f1d2aaa1d3f1,,,,,,,sngl,resources/DY.BMP,resources/Empty.png,Door2,-0.41015625,0.006510417,1,0,0,0.6692,optionLeft,40,4940,3,4,0,4,0,1,,,,,,,,,,,,,,,,,,,,,,,,,,,,,,,,,,,,,,,
,,,,,,,,2023-08-16_08h42.34.246,HF_wild_card,2022.2.4,Win32,60.05645307,5dd3df439ca8a33c3460fe11,64d2fd46c836a06233681665,64dc7d7db112f1d2aaa1d3f1,,,,,,,sngl,resources/Empty.png,resources/DG.BMP,WildCard_NonEx,0.473958333,0.072916667,1,0,0,0.765,optionRight,45,4985,3,5,0,5,0,1,,,,,,,,,,,,,,,,,,,,,,,,,,,,,,,,,,,,,,,
,,,,,,,,2023-08-16_08h42.34.246,HF_wild_card,2022.2.4,Win32,60.05645307,5dd3df439ca8a33c3460fe11,64d2fd46c836a06233681665,64dc7d7db112f1d2aaa1d3f1,,,,,,,decisionTrl,resources/DY.BMP,resources/DP.BMP,Door1,0.244791667,0.02734375,1,0,0,1.2269,optionRight,30,5015,3,6,0,6,0,1,,,,,,,,,,,,,,,,,,,,,,,,,,,,,,,,,,,,,,,
,,,,,,,,2023-08-16_08h42.34.246,HF_wild_card,2022.2.4,Win32,60.05645307,5dd3df439ca8a33c3460fe11,64d2fd46c836a06233681665,64dc7d7db112f1d2aaa1d3f1,,,,,,,decisionTrl,resources/DB.BMP,resources/DR.BMP,Door3,-0.213541667,-0.024739583,1,0,0,2.4904,optionLeft,70,5085,3,7,0,7,0,1,,,,,,,,,,,,,,,,,,,,,,,,,,,,,,,,,,,,,,,
,,,,,,,,2023-08-16_08h42.34.246,HF_wild_card,2022.2.4,Win32,60.05645307,5dd3df439ca8a33c3460fe11,64d2fd46c836a06233681665,64dc7d7db112f1d2aaa1d3f1,,,,,,,decisionTrl,resources/DP.BMP,resources/DG.BMP,Door1,-0.510416667,-0.00390625,1,0,0,1.3309,optionLeft,30,5115,3,8,0,8,0,1,,,,,,,,,,,,,,,,,,,,,,,,,,,,,,,,,,,,,,,
,,,,,,,,2023-08-16_08h42.34.246,HF_wild_card,2022.2.4,Win32,60.05645307,5dd3df439ca8a33c3460fe11,64d2fd46c836a06233681665,64dc7d7db112f1d2aaa1d3f1,,,,,,,decisionTrl,resources/DP.BMP,resources/DY.BMP,Door1,-0.434895833,0.005208333,1,0,0,1.7045,optionLeft,30,5145,3,9,0,9,0,1,,,,,,,,,,,,,,,,,,,,,,,,,,,,,,,,,,,,,,,
,,,,,,,,2023-08-16_08h42.34.246,HF_wild_card,2022.2.4,Win32,60.05645307,5dd3df439ca8a33c3460fe11,64d2fd46c836a06233681665,64dc7d7db112f1d2aaa1d3f1,,,,,,,decisionTrl,resources/DR.BMP,resources/DB.BMP,Door3,0.447916667,0.020833333,1,0,0,1.1775,optionRight,70,5215,3,10,0,10,0,1,,,,,,,,,,,,,,,,,,,,,,,,,,,,,,,,,,,,,,,
,,,,,,,,2023-08-16_08h42.34.246,HF_wild_card,2022.2.4,Win32,60.05645307,5dd3df439ca8a33c3460fe11,64d2fd46c836a06233681665,64dc7d7db112f1d2aaa1d3f1,,,,,,,ctch,resources/DB.BMP,resources/DY.BMP,Door3,-0.43359375,0.00390625,1,0,0,1.205099999,optionLeft,70,5285,3,11,0,11,0,1,,,,,,,,,,,,,,,,,,,,,,,,,,,,,,,,,,,,,,,
,,,,,,,,2023-08-16_08h42.34.246,HF_wild_card,2022.2.4,Win32,60.05645307,5dd3df439ca8a33c3460fe11,64d2fd46c836a06233681665,64dc7d7db112f1d2aaa1d3f1,,,,,,,decisionTrl,resources/DY.BMP,resources/DP.BMP,Door2,-0.419270833,0.0234375,1,0,0,1.5015,optionLeft,20,5305,3,12,0,12,0,1,,,,,,,,,,,,,,,,,,,,,,,,,,,,,,,,,,,,,,,
,,,,,,,,2023-08-16_08h42.34.246,HF_wild_card,2022.2.4,Win32,60.05645307,5dd3df439ca8a33c3460fe11,64d2fd46c836a06233681665,64dc7d7db112f1d2aaa1d3f1,,,,,,,ctch,resources/DY.BMP,resources/DB.BMP,Door3,0.342447917,0.01953125,1,0,0,0.9196,optionRight,70,5375,3,13,0,13,0,1,,,,,,,,,,,,,,,,,,,,,,,,,,,,,,,,,,,,,,,
,,,,,,,,2023-08-16_08h42.34.246,HF_wild_card,2022.2.4,Win32,60.05645307,5dd3df439ca8a33c3460fe11,64d2fd46c836a06233681665,64dc7d7db112f1d2aaa1d3f1,,,,,,,decisionTrl,resources/DG.BMP,resources/DP.BMP,WildCard_NonEx,-0.419270833,-0.026041667,1,0,0,1.4253,optionLeft,55,5430,3,14,0,14,0,1,,,,,,,,,,,,,,,,,,,,,,,,,,,,,,,,,,,,,,,
,,,,,,,,2023-08-16_08h42.34.246,HF_wild_card,2022.2.4,Win32,60.05645307,5dd3df439ca8a33c3460fe11,64d2fd46c836a06233681665,64dc7d7db112f1d2aaa1d3f1,,,,,,,sngl,resources/Empty.png,resources/DR.BMP,Door4,0.3671875,0.0078125,1,0,0,0.844599999,optionRight,60,5490,3,15,0,15,0,1,,,,,,,,,,,,,,,,,,,,,,,,,,,,,,,,,,,,,,,
,,,,,,,,2023-08-16_08h42.34.246,HF_wild_card,2022.2.4,Win32,60.05645307,5dd3df439ca8a33c3460fe11,64d2fd46c836a06233681665,64dc7d7db112f1d2aaa1d3f1,,,,,,,sngl,resources/Empty.png,resources/DB.BMP,Door3,0.36328125,-0.002604167,1,0,0,0.9682,optionRight,70,5560,3,16,0,16,0,1,,,,,,,,,,,,,,,,,,,,,,,,,,,,,,,,,,,,,,,
,,,,,,,,2023-08-16_08h42.34.246,HF_wild_card,2022.2.4,Win32,60.05645307,5dd3df439ca8a33c3460fe11,64d2fd46c836a06233681665,64dc7d7db112f1d2aaa1d3f1,,,,,,,decisionTrl,resources/DB.BMP,resources/DR.BMP,Door3,-0.23828125,-0.014322917,1,0,0,1.9728,optionLeft,70,5630,3,17,0,17,0,1,,,,,,,,,,,,,,,,,,,,,,,,,,,,,,,,,,,,,,,
,,,,,,,,2023-08-16_08h42.34.246,HF_wild_card,2022.2.4,Win32,60.05645307,5dd3df439ca8a33c3460fe11,64d2fd46c836a06233681665,64dc7d7db112f1d2aaa1d3f1,,,,,,,sngl,resources/DB.BMP,resources/Empty.png,Door3,-0.44921875,-0.00390625,1,0,0,0.802,optionLeft,70,5700,3,18,0,18,0,1,,,,,,,,,,,,,,,,,,,,,,,,,,,,,,,,,,,,,,,
,,,,,,,,2023-08-16_08h42.34.246,HF_wild_card,2022.2.4,Win32,60.05645307,5dd3df439ca8a33c3460fe11,64d2fd46c836a06233681665,64dc7d7db112f1d2aaa1d3f1,,,,,,,decisionTrl,resources/DY.BMP,resources/DG.BMP,WildCard_NonEx,0.38671875,0.0078125,1,0,0,1.084,optionRight,55,5755,3,19,0,19,0,1,,,,,,,,,,,,,,,,,,,,,,,,,,,,,,,,,,,,,,,
,,,,,,,,2023-08-16_08h42.34.246,HF_wild_card,2022.2.4,Win32,60.05645307,5dd3df439ca8a33c3460fe11,64d2fd46c836a06233681665,64dc7d7db112f1d2aaa1d3f1,,,,,,,decisionTrl,resources/DB.BMP,resources/DG.BMP,Door3,-0.34375,0.002604167,1,0,0,1.012,optionLeft,70,5825,3,20,0,20,0,1,,,,,,,,,,,,,,,,,,,,,,,,,,,,,,,,,,,,,,,
,,,,,,,,2023-08-16_08h42.34.246,HF_wild_card,2022.2.4,Win32,60.05645307,5dd3df439ca8a33c3460fe11,64d2fd46c836a06233681665,64dc7d7db112f1d2aaa1d3f1,,,,,,,ctch,resources/DP.BMP,resources/DR.BMP,Door4,0.401041667,0.029947917,1,0,0,1.079099999,optionRight,80,5905,3,21,0,21,0,1,,,,,,,,,,,,,,,,,,,,,,,,,,,,,,,,,,,,,,,
,,,,,,,,2023-08-16_08h42.34.246,HF_wild_card,2022.2.4,Win32,60.05645307,5dd3df439ca8a33c3460fe11,64d2fd46c836a06233681665,64dc7d7db112f1d2aaa1d3f1,,,,,,,ctch,resources/DP.BMP,resources/DR.BMP,Door4,0.283854167,0.01171875,1,0,0,0.8431,optionRight,60,5965,3,22,0,22,0,1,,,,,,,,,,,,,,,,,,,,,,,,,,,,,,,,,,,,,,,
,,,,,,,,2023-08-16_08h42.34.246,HF_wild_card,2022.2.4,Win32,60.05645307,5dd3df439ca8a33c3460fe11,64d2fd46c836a06233681665,64dc7d7db112f1d2aaa1d3f1,,,,,,,ctch,resources/DY.BMP,resources/DB.BMP,Door3,0.334635417,0.018229167,1,0,0,1.021299999,optionRight,70,6035,3,23,0,23,0,1,,,,,,,,,,,,,,,,,,,,,,,,,,,,,,,,,,,,,,,
,,,,,,,,2023-08-16_08h42.34.246,HF_wild_card,2022.2.4,Win32,60.05645307,5dd3df439ca8a33c3460fe11,64d2fd46c836a06233681665,64dc7d7db112f1d2aaa1d3f1,,,,,,,ctch,resources/DB.BMP,resources/DY.BMP,Door3,-0.354166667,-0.005208333,1,0,0,0.793400001,optionLeft,70,6105,3,24,0,24,0,1,,,,,,,,,,,,,,,,,,,,,,,,,,,,,,,,,,,,,,,
,,,,,,,,2023-08-16_08h42.34.246,HF_wild_card,2022.2.4,Win32,60.05645307,5dd3df439ca8a33c3460fe11,64d2fd46c836a06233681665,64dc7d7db112f1d2aaa1d3f1,,,,,,,decisionTrl,resources/DP.BMP,resources/DY.BMP,Door1,-0.255208333,-0.044270833,1,0,0,2.0282,optionLeft,30,6135,3,25,0,25,0,1,,,,,,,,,,,,,,,,,,,,,,,,,,,,,,,,,,,,,,,
,,,,,,,,2023-08-16_08h42.34.246,HF_wild_card,2022.2.4,Win32,60.05645307,5dd3df439ca8a33c3460fe11,64d2fd46c836a06233681665,64dc7d7db112f1d2aaa1d3f1,,,,,,,sngl,resources/Empty.png,resources/DG.BMP,WildCard_NonEx,0.432291667,-0.006510417,1,0,0,1.0976,optionRight,55,6190,3,26,0,26,0,1,,,,,,,,,,,,,,,,,,,,,,,,,,,,,,,,,,,,,,,
,,,,,,,,2023-08-16_08h42.34.246,HF_wild_card,2022.2.4,Win32,60.05645307,5dd3df439ca8a33c3460fe11,64d2fd46c836a06233681665,64dc7d7db112f1d2aaa1d3f1,,,,,,,sngl,resources/Empty.png,resources/DY.BMP,Door2,0.39453125,0.010416667,1,0,0,0.8002,optionRight,20,6210,3,27,0,27,0,1,,,,,,,,,,,,,,,,,,,,,,,,,,,,,,,,,,,,,,,
,,,,,,,,2023-08-16_08h42.34.246,HF_wild_card,2022.2.4,Win32,60.05645307,5dd3df439ca8a33c3460fe11,64d2fd46c836a06233681665,64dc7d7db112f1d2aaa1d3f1,,,,,,,ctch,resources/DR.BMP,resources/DP.BMP,Door4,-0.395833333,-0.026041667,1,0,0,1.2428,optionLeft,60,6270,3,28,0,28,0,1,,,,,,,,,,,,,,,,,,,,,,,,,,,,,,,,,,,,,,,
,,,,,,,,2023-08-16_08h42.34.246,HF_wild_card,2022.2.4,Win32,60.05645307,5dd3df439ca8a33c3460fe11,64d2fd46c836a06233681665,64dc7d7db112f1d2aaa1d3f1,,,,,,,decisionTrl,resources/DG.BMP,resources/DR.BMP,Door4,0.26953125,0.009114583,1,0,0,1.0027,optionRight,80,6350,3,29,0,29,0,1,,,,,,,,,,,,,,,,,,,,,,,,,,,,,,,,,,,,,,,
,,,,,,,,2023-08-16_08h42.34.246,HF_wild_card,2022.2.4,Win32,60.05645307,5dd3df439ca8a33c3460fe11,64d2fd46c836a06233681665,64dc7d7db112f1d2aaa1d3f1,,,,,,,decisionTrl,resources/DP.BMP,resources/DY.BMP,Door1,-0.389322917,0.001302083,1,0,0,3.0146,optionLeft,30,6380,3,30,0,30,0,1,,,,,,,,,,,,,,,,,,,,,,,,,,,,,,,,,,,,,,,
,,,,,,,,2023-08-16_08h42.34.246,HF_wild_card,2022.2.4,Win32,60.05645307,5dd3df439ca8a33c3460fe11,64d2fd46c836a06233681665,64dc7d7db112f1d2aaa1d3f1,,,,,,,decisionTrl,resources/DG.BMP,resources/DB.BMP,Door3,0.328125,0.014322917,1,0,0,0.9577,optionRight,70,6450,3,31,0,31,0,1,,,,,,,,,,,,,,,,,,,,,,,,,,,,,,,,,,,,,,,
,,,,,,,,2023-08-16_08h42.34.246,HF_wild_card,2022.2.4,Win32,60.05645307,5dd3df439ca8a33c3460fe11,64d2fd46c836a06233681665,64dc7d7db112f1d2aaa1d3f1,,,,,,,decisionTrl,resources/DB.BMP,resources/DR.BMP,Door3,-0.484375,0.03125,1,0,0,1.4488,optionLeft,70,6520,3,32,0,32,0,1,,,,,,,,,,,,,,,,,,,,,,,,,,,,,,,,,,,,,,,
,,,,,,,,2023-08-16_08h42.34.246,HF_wild_card,2022.2.4,Win32,60.05645307,5dd3df439ca8a33c3460fe11,64d2fd46c836a06233681665,64dc7d7db112f1d2aaa1d3f1,,,,,,,sngl,resources/DG.BMP,resources/Empty.png,WildCard_NonEx,-0.30078125,-0.01171875,1,0,0,0.786900001,optionLeft,55,6575,3,33,0,33,0,1,,,,,,,,,,,,,,,,,,,,,,,,,,,,,,,,,,,,,,,
,,,,,,,,2023-08-16_08h42.34.246,HF_wild_card,2022.2.4,Win32,60.05645307,5dd3df439ca8a33c3460fe11,64d2fd46c836a06233681665,64dc7d7db112f1d2aaa1d3f1,,,,,,,decisionTrl,resources/DG.BMP,resources/DY.BMP,WildCard_NonEx,-0.26953125,0.013020833,1,0,0,0.905900001,optionLeft,55,6630,3,34,0,34,0,1,,,,,,,,,,,,,,,,,,,,,,,,,,,,,,,,,,,,,,,
,,,,,,,,2023-08-16_08h42.34.246,HF_wild_card,2022.2.4,Win32,60.05645307,5dd3df439ca8a33c3460fe11,64d2fd46c836a06233681665,64dc7d7db112f1d2aaa1d3f1,,,,,,,decisionTrl,resources/DY.BMP,resources/DP.BMP,Door1,0.194010417,0.009114583,1,0,0,1.589,optionRight,30,6660,3,35,0,35,0,1,,,,,,,,,,,,,,,,,,,,,,,,,,,,,,,,,,,,,,,
,,,,,,,,2023-08-16_08h42.34.246,HF_wild_card,2022.2.4,Win32,60.05645307,5dd3df439ca8a33c3460fe11,64d2fd46c836a06233681665,64dc7d7db112f1d2aaa1d3f1,,,,,,,decisionTrl,resources/DR.BMP,resources/DB.BMP,Door3,0.25390625,-0.013020833,1,0,0,1.248799999,optionRight,70,6730,3,36,0,36,0,1,,,,,,,,,,,,,,,,,,,,,,,,,,,,,,,,,,,,,,,
,,,,,,,,2023-08-16_08h42.34.246,HF_wild_card,2022.2.4,Win32,60.05645307,5dd3df439ca8a33c3460fe11,64d2fd46c836a06233681665,64dc7d7db112f1d2aaa1d3f1,,,,,,,decisionTrl,resources/DB.BMP,resources/DR.BMP,Door3,-0.302083333,-0.015625,1,0,0,1.335599999,optionLeft,70,6800,3,37,0,37,0,1,,,,,,,,,,,,,,,,,,,,,,,,,,,,,,,,,,,,,,,
,,,,,,,,2023-08-16_08h42.34.246,HF_wild_card,2022.2.4,Win32,60.05645307,5dd3df439ca8a33c3460fe11,64d2fd46c836a06233681665,64dc7d7db112f1d2aaa1d3f1,,,,,,,decisionTrl,resources/DP.BMP,resources/DY.BMP,Door2,0.005208333,-0.001302083,1,0,0,1.4031,optionRight,20,6820,3,38,0,38,0,1,,,,,,,,,,,,,,,,,,,,,,,,,,,,,,,,,,,,,,,
,,,,,,,,2023-08-16_08h42.34.246,HF_wild_card,2022.2.4,Win32,60.05645307,5dd3df439ca8a33c3460fe11,64d2fd46c836a06233681665,64dc7d7db112f1d2aaa1d3f1,,,,,,,ctch,resources/DR.BMP,resources/DP.BMP,Door4,-0.326822917,-0.01171875,1,0,0,2.008,optionLeft,60,6880,3,39,0,39,0,1,,,,,,,,,,,,,,,,,,,,,,,,,,,,,,,,,,,,,,,
,,,,,,,,2023-08-16_08h42.34.246,HF_wild_card,2022.2.4,Win32,60.05645307,5dd3df439ca8a33c3460fe11,64d2fd46c836a06233681665,64dc7d7db112f1d2aaa1d3f1,,,,,,,sngl,resources/DP.BMP,resources/Empty.png,Door1,-0.37109375,-0.032552083,1,0,0,0.755,optionLeft,30,6910,3,40,0,40,0,1,,,,,,,,,,,,,,,,,,,,,,,,,,,,,,,,,,,,,,,
,,,,,,,,2023-08-16_08h42.34.246,HF_wild_card,2022.2.4,Win32,60.05645307,5dd3df439ca8a33c3460fe11,64d2fd46c836a06233681665,64dc7d7db112f1d2aaa1d3f1,,,,,,,decisionTrl,resources/DR.BMP,resources/DB.BMP,Door3,0.302083333,-0.016927083,1,0,0,1.3046,optionRight,70,6980,3,41,0,41,0,1,,,,,,,,,,,,,,,,,,,,,,,,,,,,,,,,,,,,,,,
,,,,,,,,2023-08-16_08h42.34.246,HF_wild_card,2022.2.4,Win32,60.05645307,5dd3df439ca8a33c3460fe11,64d2fd46c836a06233681665,64dc7d7db112f1d2aaa1d3f1,,,,,,,sngl,resources/DG.BMP,resources/Empty.png,WildCard_NonEx,-0.3671875,-0.026041667,1,0,0,0.7698,optionLeft,45,7025,3,42,0,42,0,1,,,,,,,,,,,,,,,,,,,,,,,,,,,,,,,,,,,,,,,
,,,,,,,,2023-08-16_08h42.34.246,HF_wild_card,2022.2.4,Win32,60.05645307,5dd3df439ca8a33c3460fe11,64d2fd46c836a06233681665,64dc7d7db112f1d2aaa1d3f1,,,,,,,decisionTrl,resources/DR.BMP,resources/DB.BMP,Door3,0.251302083,0.01171875,1,0,0,1.103,optionRight,70,7095,3,43,0,43,0,1,,,,,,,,,,,,,,,,,,,,,,,,,,,,,,,,,,,,,,,
,,,,,,,,2023-08-16_08h42.34.246,HF_wild_card,2022.2.4,Win32,60.05645307,5dd3df439ca8a33c3460fe11,64d2fd46c836a06233681665,64dc7d7db112f1d2aaa1d3f1,,,,,,,,,,,,,,,,,,,,,,,,,,2,0,2,0,1,,,,,,,,,,,,,,,,,,,,,,,,,,,,,,,,,,
,,,,,,,,2023-08-16_08h42.34.246,HF_wild_card,2022.2.4,Win32,60.05645307,5dd3df439ca8a33c3460fe11,64d2fd46c836a06233681665,64dc7d7db112f1d2aaa1d3f1,,,,,,,sngl,resources/DB.BMP,resources/Empty.png,Door3,-0.377604167,0.053385417,1,0,0,1.1223,optionLeft,70,7165,4,0,0,0,0,1,,,,,,,,,,,,,,,,,,,,,,,,,,,,,,,,,,,,,,,
,,,,,,,,2023-08-16_08h42.34.246,HF_wild_card,2022.2.4,Win32,60.05645307,5dd3df439ca8a33c3460fe11,64d2fd46c836a06233681665,64dc7d7db112f1d2aaa1d3f1,,,,,,,sngl,resources/Empty.png,resources/DP.BMP,Door1,0.38671875,-0.005208333,1,0,0,0.8488,optionRight,30,7195,4,1,0,1,0,1,,,,,,,,,,,,,,,,,,,,,,,,,,,,,,,,,,,,,,,
,,,,,,,,2023-08-16_08h42.34.246,HF_wild_card,2022.2.4,Win32,60.05645307,5dd3df439ca8a33c3460fe11,64d2fd46c836a06233681665,64dc7d7db112f1d2aaa1d3f1,,,,,,,decisionTrl,resources/DP.BMP,resources/DBN.BMP,WildCard_Ex,0.307291667,0.02734375,1,0,0,1.292400001,optionRight,95,7290,4,2,0,2,0,1,,,,,,,,,,,,,,,,,,,,,,,,,,,,,,,,,,,,,,,
,,,,,,,,2023-08-16_08h42.34.246,HF_wild_card,2022.2.4,Win32,60.05645307,5dd3df439ca8a33c3460fe11,64d2fd46c836a06233681665,64dc7d7db112f1d2aaa1d3f1,,,,,,,decisionTrl,resources/DP.BMP,resources/DY.BMP,Door1,-0.419270833,0.022135417,1,0,0,1.1595,optionLeft,30,7320,4,3,0,3,0,1,,,,,,,,,,,,,,,,,,,,,,,,,,,,,,,,,,,,,,,
,,,,,,,,2023-08-16_08h42.34.246,HF_wild_card,2022.2.4,Win32,60.05645307,5dd3df439ca8a33c3460fe11,64d2fd46c836a06233681665,64dc7d7db112f1d2aaa1d3f1,,,,,,,ctch,resources/DP.BMP,resources/DR.BMP,Door4,0.330729167,0.024739583,1,0,0,1.414900001,optionRight,60,7380,4,4,0,4,0,1,,,,,,,,,,,,,,,,,,,,,,,,,,,,,,,,,,,,,,,
,,,,,,,,2023-08-16_08h42.34.246,HF_wild_card,2022.2.4,Win32,60.05645307,5dd3df439ca8a33c3460fe11,64d2fd46c836a06233681665,64dc7d7db112f1d2aaa1d3f1,,,,,,,decisionTrl,resources/DBN.BMP,resources/DR.BMP,WildCard_Ex,-0.263020833,0.018229167,1,0,0,0.954099999,optionLeft,95,7475,4,5,0,5,0,1,,,,,,,,,,,,,,,,,,,,,,,,,,,,,,,,,,,,,,,
,,,,,,,,2023-08-16_08h42.34.246,HF_wild_card,2022.2.4,Win32,60.05645307,5dd3df439ca8a33c3460fe11,64d2fd46c836a06233681665,64dc7d7db112f1d2aaa1d3f1,,,,,,,sngl,resources/Empty.png,resources/DBN.BMP,WildCard_Ex,0.412760417,0.032552083,1,0,0,0.739,optionRight,5,7480,4,6,0,6,0,1,,,,,,,,,,,,,,,,,,,,,,,,,,,,,,,,,,,,,,,
,,,,,,,,2023-08-16_08h42.34.246,HF_wild_card,2022.2.4,Win32,60.05645307,5dd3df439ca8a33c3460fe11,64d2fd46c836a06233681665,64dc7d7db112f1d2aaa1d3f1,,,,,,,ctch,resources/DY.BMP,resources/DB.BMP,Door3,0.282552083,0.046875,1,0,0,1.0252,optionRight,70,7550,4,7,0,7,0,1,,,,,,,,,,,,,,,,,,,,,,,,,,,,,,,,,,,,,,,
,,,,,,,,2023-08-16_08h42.34.246,HF_wild_card,2022.2.4,Win32,60.05645307,5dd3df439ca8a33c3460fe11,64d2fd46c836a06233681665,64dc7d7db112f1d2aaa1d3f1,,,,,,,decisionTrl,resources/DB.BMP,resources/DR.BMP,Door3,-0.213541667,-0.071614583,1,0,0,1.2922,optionLeft,70,7620,4,8,0,8,0,1,,,,,,,,,,,,,,,,,,,,,,,,,,,,,,,,,,,,,,,
,,,,,,,,2023-08-16_08h42.34.246,HF_wild_card,2022.2.4,Win32,60.05645307,5dd3df439ca8a33c3460fe11,64d2fd46c836a06233681665,64dc7d7db112f1d2aaa1d3f1,,,,,,,ctch,resources/DP.BMP,resources/DR.BMP,Door4,0.229166667,0.005208333,1,0,0,1.7025,optionRight,60,7680,4,9,0,9,0,1,,,,,,,,,,,,,,,,,,,,,,,,,,,,,,,,,,,,,,,
,,,,,,,,2023-08-16_08h42.34.246,HF_wild_card,2022.2.4,Win32,60.05645307,5dd3df439ca8a33c3460fe11,64d2fd46c836a06233681665,64dc7d7db112f1d2aaa1d3f1,,,,,,,sngl,resources/Empty.png,resources/DB.BMP,Door3,0.309895833,-0.006510417,1,0,0,0.804,optionRight,70,7750,4,10,0,10,0,1,,,,,,,,,,,,,,,,,,,,,,,,,,,,,,,,,,,,,,,
,,,,,,,,2023-08-16_08h42.34.246,HF_wild_card,2022.2.4,Win32,60.05645307,5dd3df439ca8a33c3460fe11,64d2fd46c836a06233681665,64dc7d7db112f1d2aaa1d3f1,,,,,,,decisionTrl,resources/DB.BMP,resources/DBN.BMP,WildCard_Ex,0.184895833,-0.013020833,1,0,0,2.0942,optionRight,5,7755,4,11,0,11,0,1,,,,,,,,,,,,,,,,,,,,,,,,,,,,,,,,,,,,,,,
,,,,,,,,2023-08-16_08h42.34.246,HF_wild_card,2022.2.4,Win32,60.05645307,5dd3df439ca8a33c3460fe11,64d2fd46c836a06233681665,64dc7d7db112f1d2aaa1d3f1,,,,,,,sngl,resources/DY.BMP,resources/Empty.png,Door2,-0.384114583,-0.0234375,1,0,0,0.7829,optionLeft,20,7775,4,12,0,12,0,1,,,,,,,,,,,,,,,,,,,,,,,,,,,,,,,,,,,,,,,
,,,,,,,,2023-08-16_08h42.34.246,HF_wild_card,2022.2.4,Win32,60.05645307,5dd3df439ca8a33c3460fe11,64d2fd46c836a06233681665,64dc7d7db112f1d2aaa1d3f1,,,,,,,sngl,resources/DP.BMP,resources/Empty.png,Door1,-0.313802083,-0.02734375,1,0,0,2.136900001,optionLeft,30,7805,4,13,0,13,0,1,,,,,,,,,,,,,,,,,,,,,,,,,,,,,,,,,,,,,,,
,,,,,,,,2023-08-16_08h42.34.246,HF_wild_card,2022.2.4,Win32,60.05645307,5dd3df439ca8a33c3460fe11,64d2fd46c836a06233681665,64dc7d7db112f1d2aaa1d3f1,,,,,,,decisionTrl,resources/DBN.BMP,resources/DP.BMP,WildCard_Ex,-0.368489583,0.00390625,1,0,0,0.9683,optionLeft,5,7810,4,14,0,14,0,1,,,,,,,,,,,,,,,,,,,,,,,,,,,,,,,,,,,,,,,
,,,,,,,,2023-08-16_08h42.34.246,HF_wild_card,2022.2.4,Win32,60.05645307,5dd3df439ca8a33c3460fe11,64d2fd46c836a06233681665,64dc7d7db112f1d2aaa1d3f1,,,,,,,decisionTrl,resources/DY.BMP,resources/DP.BMP,Door1,0.31640625,0.033854167,1,0,0,1.294900001,optionRight,30,7840,4,15,0,15,0,1,,,,,,,,,,,,,,,,,,,,,,,,,,,,,,,,,,,,,,,
,,,,,,,,2023-08-16_08h42.34.246,HF_wild_card,2022.2.4,Win32,60.05645307,5dd3df439ca8a33c3460fe11,64d2fd46c836a06233681665,64dc7d7db112f1d2aaa1d3f1,,,,,,,decisionTrl,resources/DP.BMP,resources/DY.BMP,Door1,-0.41796875,-0.033854167,1,0,0,1.1917,optionLeft,30,7870,4,16,0,16,0,1,,,,,,,,,,,,,,,,,,,,,,,,,,,,,,,,,,,,,,,
,,,,,,,,2023-08-16_08h42.34.246,HF_wild_card,2022.2.4,Win32,60.05645307,5dd3df439ca8a33c3460fe11,64d2fd46c836a06233681665,64dc7d7db112f1d2aaa1d3f1,,,,,,,decisionTrl,resources/DB.BMP,resources/DR.BMP,Door4,0.260416667,-0.016927083,1,0,0,1.2193,optionRight,60,7930,4,17,0,17,0,1,,,,,,,,,,,,,,,,,,,,,,,,,,,,,,,,,,,,,,,
,,,,,,,,2023-08-16_08h42.34.246,HF_wild_card,2022.2.4,Win32,60.05645307,5dd3df439ca8a33c3460fe11,64d2fd46c836a06233681665,64dc7d7db112f1d2aaa1d3f1,,,,,,,decisionTrl,resources/DP.BMP,resources/DY.BMP,Door1,-0.364583333,-0.032552083,1,0,0,1.096599999,optionLeft,30,7960,4,18,0,18,0,1,,,,,,,,,,,,,,,,,,,,,,,,,,,,,,,,,,,,,,,
,,,,,,,,2023-08-16_08h42.34.246,HF_wild_card,2022.2.4,Win32,60.05645307,5dd3df439ca8a33c3460fe11,64d2fd46c836a06233681665,64dc7d7db112f1d2aaa1d3f1,,,,,,,sngl,resources/DBN.BMP,resources/Empty.png,WildCard_Ex,-0.352864583,0.041666667,1,0,0,0.9003,optionLeft,95,8055,4,19,0,19,0,1,,,,,,,,,,,,,,,,,,,,,,,,,,,,,,,,,,,,,,,
,,,,,,,,2023-08-16_08h42.34.246,HF_wild_card,2022.2.4,Win32,60.05645307,5dd3df439ca8a33c3460fe11,64d2fd46c836a06233681665,64dc7d7db112f1d2aaa1d3f1,,,,,,,decisionTrl,resources/DR.BMP,resources/DBN.BMP,WildCard_Ex,0.294270833,0.057291667,1,0,0,0.736099999,optionRight,5,8060,4,20,0,20,0,1,,,,,,,,,,,,,,,,,,,,,,,,,,,,,,,,,,,,,,,
,,,,,,,,2023-08-16_08h42.34.246,HF_wild_card,2022.2.4,Win32,60.05645307,5dd3df439ca8a33c3460fe11,64d2fd46c836a06233681665,64dc7d7db112f1d2aaa1d3f1,,,,,,,decisionTrl,resources/DB.BMP,resources/DR.BMP,Door3,-0.22265625,-0.016927083,1,0,0,0.7773,optionLeft,70,8130,4,21,0,21,0,1,,,,,,,,,,,,,,,,,,,,,,,,,,,,,,,,,,,,,,,
,,,,,,,,2023-08-16_08h42.34.246,HF_wild_card,2022.2.4,Win32,60.05645307,5dd3df439ca8a33c3460fe11,64d2fd46c836a06233681665,64dc7d7db112f1d2aaa1d3f1,,,,,,,decisionTrl,resources/DR.BMP,resources/DB.BMP,Door3,0.244791667,0.00390625,1,0,0,1.3702,optionRight,70,8200,4,22,0,22,0,1,,,,,,,,,,,,,,,,,,,,,,,,,,,,,,,,,,,,,,,
,,,,,,,,2023-08-16_08h42.34.246,HF_wild_card,2022.2.4,Win32,60.05645307,5dd3df439ca8a33c3460fe11,64d2fd46c836a06233681665,64dc7d7db112f1d2aaa1d3f1,,,,,,,ctch,resources/DB.BMP,resources/DY.BMP,Door3,-0.381510417,0.014322917,1,0,0,1.2727,optionLeft,70,8270,4,23,0,23,0,1,,,,,,,,,,,,,,,,,,,,,,,,,,,,,,,,,,,,,,,
,,,,,,,,2023-08-16_08h42.34.246,HF_wild_card,2022.2.4,Win32,60.05645307,5dd3df439ca8a33c3460fe11,64d2fd46c836a06233681665,64dc7d7db112f1d2aaa1d3f1,,,,,,,decisionTrl,resources/DY.BMP,resources/DP.BMP,Door1,0.255208333,-0.018229167,1,0,0,1.0419,optionRight,30,8300,4,24,0,24,0,1,,,,,,,,,,,,,,,,,,,,,,,,,,,,,,,,,,,,,,,
,,,,,,,,2023-08-16_08h42.34.246,HF_wild_card,2022.2.4,Win32,60.05645307,5dd3df439ca8a33c3460fe11,64d2fd46c836a06233681665,64dc7d7db112f1d2aaa1d3f1,,,,,,,decisionTrl,resources/DBN.BMP,resources/DY.BMP,Door2,0.279947917,0.005208333,1,0,0,1.3034,optionRight,40,8340,4,25,0,25,0,1,,,,,,,,,,,,,,,,,,,,,,,,,,,,,,,,,,,,,,,
,,,,,,,,2023-08-16_08h42.34.246,HF_wild_card,2022.2.4,Win32,60.05645307,5dd3df439ca8a33c3460fe11,64d2fd46c836a06233681665,64dc7d7db112f1d2aaa1d3f1,,,,,,,decisionTrl,resources/DR.BMP,resources/DB.BMP,Door3,0.274739583,0.020833333,1,0,0,1.2582,optionRight,70,8410,4,26,0,26,0,1,,,,,,,,,,,,,,,,,,,,,,,,,,,,,,,,,,,,,,,
,,,,,,,,2023-08-16_08h42.34.246,HF_wild_card,2022.2.4,Win32,60.05645307,5dd3df439ca8a33c3460fe11,64d2fd46c836a06233681665,64dc7d7db112f1d2aaa1d3f1,,,,,,,ctch,resources/DB.BMP,resources/DY.BMP,Door3,-0.36328125,0.02734375,1,0,0,0.7841,optionLeft,70,8480,4,27,0,27,0,1,,,,,,,,,,,,,,,,,,,,,,,,,,,,,,,,,,,,,,,
,,,,,,,,2023-08-16_08h42.34.246,HF_wild_card,2022.2.4,Win32,60.05645307,5dd3df439ca8a33c3460fe11,64d2fd46c836a06233681665,64dc7d7db112f1d2aaa1d3f1,,,,,,,decisionTrl,resources/DY.BMP,resources/DP.BMP,Door1,0.19921875,-0.001302083,1,0,0,1.9327,optionRight,30,8510,4,28,0,28,0,1,,,,,,,,,,,,,,,,,,,,,,,,,,,,,,,,,,,,,,,
,,,,,,,,2023-08-16_08h42.34.246,HF_wild_card,2022.2.4,Win32,60.05645307,5dd3df439ca8a33c3460fe11,64d2fd46c836a06233681665,64dc7d7db112f1d2aaa1d3f1,,,,,,,ctch,resources/DY.BMP,resources/DB.BMP,Door3,0.23828125,0,1,0,0,0.861200001,optionRight,70,8580,4,29,0,29,0,1,,,,,,,,,,,,,,,,,,,,,,,,,,,,,,,,,,,,,,,
,,,,,,,,2023-08-16_08h42.34.246,HF_wild_card,2022.2.4,Win32,60.05645307,5dd3df439ca8a33c3460fe11,64d2fd46c836a06233681665,64dc7d7db112f1d2aaa1d3f1,,,,,,,decisionTrl,resources/DR.BMP,resources/DB.BMP,Door3,0.259114583,-0.010416667,1,0,0,1.304799999,optionRight,70,8650,4,30,0,30,0,1,,,,,,,,,,,,,,,,,,,,,,,,,,,,,,,,,,,,,,,
,,,,,,,,2023-08-16_08h42.34.246,HF_wild_card,2022.2.4,Win32,60.05645307,5dd3df439ca8a33c3460fe11,64d2fd46c836a06233681665,64dc7d7db112f1d2aaa1d3f1,,,,,,,decisionTrl,resources/DBN.BMP,resources/DB.BMP,Door3,0.2578125,-0.03515625,1,0,0,1.527900001,optionRight,70,8720,4,31,0,31,0,1,,,,,,,,,,,,,,,,,,,,,,,,,,,,,,,,,,,,,,,
,,,,,,,,2023-08-16_08h42.34.246,HF_wild_card,2022.2.4,Win32,60.05645307,5dd3df439ca8a33c3460fe11,64d2fd46c836a06233681665,64dc7d7db112f1d2aaa1d3f1,,,,,,,decisionTrl,resources/DR.BMP,resources/DB.BMP,Door3,0.315104167,-0.018229167,1,0,0,1.0223,optionRight,70,8790,4,32,0,32,0,1,,,,,,,,,,,,,,,,,,,,,,,,,,,,,,,,,,,,,,,
,,,,,,,,2023-08-16_08h42.34.246,HF_wild_card,2022.2.4,Win32,60.05645307,5dd3df439ca8a33c3460fe11,64d2fd46c836a06233681665,64dc7d7db112f1d2aaa1d3f1,,,,,,,decisionTrl,resources/DY.BMP,resources/DP.BMP,Door1,0.319010417,0.029947917,1,0,0,0.8447,optionRight,30,8820,4,33,0,33,0,1,,,,,,,,,,,,,,,,,,,,,,,,,,,,,,,,,,,,,,,
,,,,,,,,2023-08-16_08h42.34.246,HF_wild_card,2022.2.4,Win32,60.05645307,5dd3df439ca8a33c3460fe11,64d2fd46c836a06233681665,64dc7d7db112f1d2aaa1d3f1,,,,,,,sngl,resources/Empty.png,resources/DY.BMP,Door2,0.200520833,0,1,0,0,0.7116,optionRight,40,8860,4,34,0,34,0,1,,,,,,,,,,,,,,,,,,,,,,,,,,,,,,,,,,,,,,,
,,,,,,,,2023-08-16_08h42.34.246,HF_wild_card,2022.2.4,Win32,60.05645307,5dd3df439ca8a33c3460fe11,64d2fd46c836a06233681665,64dc7d7db112f1d2aaa1d3f1,,,,,,,sngl,resources/Empty.png,resources/DR.BMP,Door4,0.348958333,-0.0234375,1,0,0,0.7005,optionRight,80,8940,4,35,0,35,0,1,,,,,,,,,,,,,,,,,,,,,,,,,,,,,,,,,,,,,,,
,,,,,,,,2023-08-16_08h42.34.246,HF_wild_card,2022.2.4,Win32,60.05645307,5dd3df439ca8a33c3460fe11,64d2fd46c836a06233681665,64dc7d7db112f1d2aaa1d3f1,,,,,,,sngl,resources/Empty.png,resources/DBN.BMP,WildCard_Ex,0.305989583,0.01171875,1,0,0,0.7208,optionRight,95,9035,4,36,0,36,0,1,,,,,,,,,,,,,,,,,,,,,,,,,,,,,,,,,,,,,,,
,,,,,,,,2023-08-16_08h42.34.246,HF_wild_card,2022.2.4,Win32,60.05645307,5dd3df439ca8a33c3460fe11,64d2fd46c836a06233681665,64dc7d7db112f1d2aaa1d3f1,,,,,,,decisionTrl,resources/DB.BMP,resources/DR.BMP,Door3,-0.32421875,-0.065104167,1,0,0,1.899400001,optionLeft,70,9105,4,37,0,37,0,1,,,,,,,,,,,,,,,,,,,,,,,,,,,,,,,,,,,,,,,
,,,,,,,,2023-08-16_08h42.34.246,HF_wild_card,2022.2.4,Win32,60.05645307,5dd3df439ca8a33c3460fe11,64d2fd46c836a06233681665,64dc7d7db112f1d2aaa1d3f1,,,,,,,ctch,resources/DR.BMP,resources/DP.BMP,Door4,-0.399739583,-0.009114583,1,0,0,1.6765,optionLeft,60,9165,4,38,0,38,0,1,,,,,,,,,,,,,,,,,,,,,,,,,,,,,,,,,,,,,,,
,,,,,,,,2023-08-16_08h42.34.246,HF_wild_card,2022.2.4,Win32,60.05645307,5dd3df439ca8a33c3460fe11,64d2fd46c836a06233681665,64dc7d7db112f1d2aaa1d3f1,,,,,,,decisionTrl,resources/DP.BMP,resources/DY.BMP,Door1,-0.2734375,-0.057291667,1,0,0,1.5003,optionLeft,30,9195,4,39,0,39,0,1,,,,,,,,,,,,,,,,,,,,,,,,,,,,,,,,,,,,,,,
,,,,,,,,2023-08-16_08h42.34.246,HF_wild_card,2022.2.4,Win32,60.05645307,5dd3df439ca8a33c3460fe11,64d2fd46c836a06233681665,64dc7d7db112f1d2aaa1d3f1,,,,,,,ctch,resources/DR.BMP,resources/DP.BMP,Door4,-0.337239583,-0.04296875,1,0,0,1.8732,optionLeft,60,9255,4,40,0,40,0,1,,,,,,,,,,,,,,,,,,,,,,,,,,,,,,,,,,,,,,,
,,,,,,,,2023-08-16_08h42.34.246,HF_wild_card,2022.2.4,Win32,60.05645307,5dd3df439ca8a33c3460fe11,64d2fd46c836a06233681665,64dc7d7db112f1d2aaa1d3f1,,,,,,,sngl,resources/DBN.BMP,resources/Empty.png,WildCard_Ex,-0.3359375,0.014322917,1,0,0,0.7329,optionLeft,5,9260,4,41,0,41,0,1,,,,,,,,,,,,,,,,,,,,,,,,,,,,,,,,,,,,,,,
,,,,,,,,2023-08-16_08h42.34.246,HF_wild_card,2022.2.4,Win32,60.05645307,5dd3df439ca8a33c3460fe11,64d2fd46c836a06233681665,64dc7d7db112f1d2aaa1d3f1,,,,,,,sngl,resources/DR.BMP,resources/Empty.png,Door4,-0.21875,-0.015625,1,0,0,0.7124,optionLeft,60,9320,4,42,0,42,0,1,,,,,,,,,,,,,,,,,,,,,,,,,,,,,,,,,,,,,,,
,,,,,,,,2023-08-16_08h42.34.246,HF_wild_card,2022.2.4,Win32,60.05645307,5dd3df439ca8a33c3460fe11,64d2fd46c836a06233681665,64dc7d7db112f1d2aaa1d3f1,,,,,,,decisionTrl,resources/DY.BMP,resources/DBN.BMP,Door2,-0.372395833,-0.076822917,1,0,0,1.402599999,optionLeft,20,9340,4,43,0,43,0,1,,,,,,,,,,,,,,,,,,,,,,,,,,,,,,,,,,,,,,,
,,,,,,,,2023-08-16_08h42.34.246,HF_wild_card,2022.2.4,Win32,60.05645307,5dd3df439ca8a33c3460fe11,64d2fd46c836a06233681665,64dc7d7db112f1d2aaa1d3f1,,,,,,,,,,,,,,,,,,,,,,,,,,3,0,3,0,1,,,,,,,,,,,,,,,,,,,,,,,,,,,,,,,,,,
,,,,,,,,2023-08-16_08h42.34.246,HF_wild_card,2022.2.4,Win32,60.05645307,5dd3df439ca8a33c3460fe11,64d2fd46c836a06233681665,64dc7d7db112f1d2aaa1d3f1,,,,,,,ctch,resources/DY.BMP,resources/DB.BMP,Door3,0.395833333,0.002604167,1,0,0,1.0911,optionRight,70,9410,5,0,0,0,0,1,,,,,,,,,,,,,,,,,,,,,,,,,,,,,,,,,,,,,,,
,,,,,,,,2023-08-16_08h42.34.246,HF_wild_card,2022.2.4,Win32,60.05645307,5dd3df439ca8a33c3460fe11,64d2fd46c836a06233681665,64dc7d7db112f1d2aaa1d3f1,,,,,,,decisionTrl,resources/DR.BMP,resources/DBN.BMP,Door4,-0.41796875,0.024739583,1,0,0,1.608,optionLeft,80,9490,5,1,0,1,0,1,,,,,,,,,,,,,,,,,,,,,,,,,,,,,,,,,,,,,,,
,,,,,,,,2023-08-16_08h42.34.246,HF_wild_card,2022.2.4,Win32,60.05645307,5dd3df439ca8a33c3460fe11,64d2fd46c836a06233681665,64dc7d7db112f1d2aaa1d3f1,,,,,,,ctch,resources/DY.BMP,resources/DB.BMP,Door3,0.368489583,0.013020833,1,0,0,0.6944,optionRight,70,9560,5,2,0,2,0,1,,,,,,,,,,,,,,,,,,,,,,,,,,,,,,,,,,,,,,,
,,,,,,,,2023-08-16_08h42.34.246,HF_wild_card,2022.2.4,Win32,60.05645307,5dd3df439ca8a33c3460fe11,64d2fd46c836a06233681665,64dc7d7db112f1d2aaa1d3f1,,,,,,,ctch,resources/DB.BMP,resources/DY.BMP,Door3,-0.26953125,0.026041667,1,0,0,1.0994,optionLeft,70,9630,5,3,0,3,0,1,,,,,,,,,,,,,,,,,,,,,,,,,,,,,,,,,,,,,,,
,,,,,,,,2023-08-16_08h42.34.246,HF_wild_card,2022.2.4,Win32,60.05645307,5dd3df439ca8a33c3460fe11,64d2fd46c836a06233681665,64dc7d7db112f1d2aaa1d3f1,,,,,,,sngl,resources/Empty.png,resources/DBN.BMP,WildCard_Ex,0.264322917,0.053385417,1,0,0,1.007400001,optionRight,95,9725,5,4,0,4,0,1,,,,,,,,,,,,,,,,,,,,,,,,,,,,,,,,,,,,,,,
,,,,,,,,2023-08-16_08h42.34.246,HF_wild_card,2022.2.4,Win32,60.05645307,5dd3df439ca8a33c3460fe11,64d2fd46c836a06233681665,64dc7d7db112f1d2aaa1d3f1,,,,,,,decisionTrl,resources/DP.BMP,resources/DY.BMP,Door1,-0.192708333,0.001302083,1,0,0,0.924400001,optionLeft,30,9755,5,5,0,5,0,1,,,,,,,,,,,,,,,,,,,,,,,,,,,,,,,,,,,,,,,
,,,,,,,,2023-08-16_08h42.34.246,HF_wild_card,2022.2.4,Win32,60.05645307,5dd3df439ca8a33c3460fe11,64d2fd46c836a06233681665,64dc7d7db112f1d2aaa1d3f1,,,,,,,decisionTrl,resources/DB.BMP,resources/DR.BMP,Door3,-0.276041667,0.032552083,1,0,0,0.818900001,optionLeft,70,9825,5,6,0,6,0,1,,,,,,,,,,,,,,,,,,,,,,,,,,,,,,,,,,,,,,,
,,,,,,,,2023-08-16_08h42.34.246,HF_wild_card,2022.2.4,Win32,60.05645307,5dd3df439ca8a33c3460fe11,64d2fd46c836a06233681665,64dc7d7db112f1d2aaa1d3f1,,,,,,,decisionTrl,resources/DBN.BMP,resources/DY.BMP,WildCard_Ex,-0.220052083,0.028645833,1,0,0,0.8726,optionLeft,95,9920,5,7,0,7,0,1,,,,,,,,,,,,,,,,,,,,,,,,,,,,,,,,,,,,,,,
,,,,,,,,2023-08-16_08h42.34.246,HF_wild_card,2022.2.4,Win32,60.05645307,5dd3df439ca8a33c3460fe11,64d2fd46c836a06233681665,64dc7d7db112f1d2aaa1d3f1,,,,,,,decisionTrl,resources/DP.BMP,resources/DY.BMP,Door1,-0.3125,0.057291667,1,0,0,0.9223,optionLeft,30,9950,5,8,0,8,0,1,,,,,,,,,,,,,,,,,,,,,,,,,,,,,,,,,,,,,,,
,,,,,,,,2023-08-16_08h42.34.246,HF_wild_card,2022.2.4,Win32,60.05645307,5dd3df439ca8a33c3460fe11,64d2fd46c836a06233681665,64dc7d7db112f1d2aaa1d3f1,,,,,,,decisionTrl,resources/DB.BMP,resources/DR.BMP,Door3,-0.229166667,0.02734375,1,0,0,0.963,optionLeft,70,10020,5,9,0,9,0,1,,,,,,,,,,,,,,,,,,,,,,,,,,,,,,,,,,,,,,,
,,,,,,,,2023-08-16_08h42.34.246,HF_wild_card,2022.2.4,Win32,60.05645307,5dd3df439ca8a33c3460fe11,64d2fd46c836a06233681665,64dc7d7db112f1d2aaa1d3f1,,,,,,,decisionTrl,resources/DR.BMP,resources/DB.BMP,Door3,0.1796875,-0.015625,1,0,0,0.951,optionRight,70,10090,5,10,0,10,0,1,,,,,,,,,,,,,,,,,,,,,,,,,,,,,,,,,,,,,,,
,,,,,,,,2023-08-16_08h42.34.246,HF_wild_card,2022.2.4,Win32,60.05645307,5dd3df439ca8a33c3460fe11,64d2fd46c836a06233681665,64dc7d7db112f1d2aaa1d3f1,,,,,,,decisionTrl,resources/DP.BMP,resources/DBN.BMP,WildCard_Ex,0.251302083,0.033854167,1,0,0,1.729,optionRight,5,10095,5,11,0,11,0,1,,,,,,,,,,,,,,,,,,,,,,,,,,,,,,,,,,,,,,,
,,,,,,,,2023-08-16_08h42.34.246,HF_wild_card,2022.2.4,Win32,60.05645307,5dd3df439ca8a33c3460fe11,64d2fd46c836a06233681665,64dc7d7db112f1d2aaa1d3f1,,,,,,,sngl,resources/Empty.png,resources/DR.BMP,Door4,0.125,-0.022135417,1,0,0,1.037900001,optionRight,60,10155,5,12,0,12,0,1,,,,,,,,,,,,,,,,,,,,,,,,,,,,,,,,,,,,,,,
,,,,,,,,2023-08-16_08h42.34.246,HF_wild_card,2022.2.4,Win32,60.05645307,5dd3df439ca8a33c3460fe11,64d2fd46c836a06233681665,64dc7d7db112f1d2aaa1d3f1,,,,,,,ctch,resources/DP.BMP,resources/DR.BMP,Door4,0.2265625,-0.03515625,1,0,0,1.068599999,optionRight,60,10215,5,13,0,13,0,1,,,,,,,,,,,,,,,,,,,,,,,,,,,,,,,,,,,,,,,
,,,,,,,,2023-08-16_08h42.34.246,HF_wild_card,2022.2.4,Win32,60.05645307,5dd3df439ca8a33c3460fe11,64d2fd46c836a06233681665,64dc7d7db112f1d2aaa1d3f1,,,,,,,decisionTrl,resources/DBN.BMP,resources/DB.BMP,Door3,0.196614583,0.0078125,1,0,0,2.328299999,optionRight,70,10285,5,14,0,14,0,1,,,,,,,,,,,,,,,,,,,,,,,,,,,,,,,,,,,,,,,
,,,,,,,,2023-08-16_08h42.34.246,HF_wild_card,2022.2.4,Win32,60.05645307,5dd3df439ca8a33c3460fe11,64d2fd46c836a06233681665,64dc7d7db112f1d2aaa1d3f1,,,,,,,sngl,resources/DBN.BMP,resources/Empty.png,WildCard_Ex,-0.265625,-0.036458333,1,0,0,1.0196,optionLeft,5,10290,5,15,0,15,0,1,,,,,,,,,,,,,,,,,,,,,,,,,,,,,,,,,,,,,,,
,,,,,,,,2023-08-16_08h42.34.246,HF_wild_card,2022.2.4,Win32,60.05645307,5dd3df439ca8a33c3460fe11,64d2fd46c836a06233681665,64dc7d7db112f1d2aaa1d3f1,,,,,,,decisionTrl,resources/DY.BMP,resources/DP.BMP,Door1,0.18359375,0.010416667,1,0,0,0.9965,optionRight,30,10320,5,16,0,16,0,1,,,,,,,,,,,,,,,,,,,,,,,,,,,,,,,,,,,,,,,
,,,,,,,,2023-08-16_08h42.34.246,HF_wild_card,2022.2.4,Win32,60.05645307,5dd3df439ca8a33c3460fe11,64d2fd46c836a06233681665,64dc7d7db112f1d2aaa1d3f1,,,,,,,decisionTrl,resources/DR.BMP,resources/DB.BMP,Door3,0.236979167,-0.005208333,1,0,0,0.918900001,optionRight,70,10390,5,17,0,17,0,1,,,,,,,,,,,,,,,,,,,,,,,,,,,,,,,,,,,,,,,
,,,,,,,,2023-08-16_08h42.34.246,HF_wild_card,2022.2.4,Win32,60.05645307,5dd3df439ca8a33c3460fe11,64d2fd46c836a06233681665,64dc7d7db112f1d2aaa1d3f1,,,,,,,ctch,resources/DB.BMP,resources/DY.BMP,Door3,-0.346354167,0.001302083,1,0,0,0.8277,optionLeft,70,10460,5,18,0,18,0,1,,,,,,,,,,,,,,,,,,,,,,,,,,,,,,,,,,,,,,,
,,,,,,,,2023-08-16_08h42.34.246,HF_wild_card,2022.2.4,Win32,60.05645307,5dd3df439ca8a33c3460fe11,64d2fd46c836a06233681665,64dc7d7db112f1d2aaa1d3f1,,,,,,,decisionTrl,resources/DY.BMP,resources/DBN.BMP,WildCard_Ex,0.171875,0.010416667,1,0,0,0.793099999,optionRight,95,10555,5,19,0,19,0,1,,,,,,,,,,,,,,,,,,,,,,,,,,,,,,,,,,,,,,,
,,,,,,,,2023-08-16_08h42.34.246,HF_wild_card,2022.2.4,Win32,60.05645307,5dd3df439ca8a33c3460fe11,64d2fd46c836a06233681665,64dc7d7db112f1d2aaa1d3f1,,,,,,,decisionTrl,resources/DB.BMP,resources/DR.BMP,Door3,-0.177083333,0.009114583,1,0,0,0.7735,optionLeft,70,10625,5,20,0,20,0,1,,,,,,,,,,,,,,,,,,,,,,,,,,,,,,,,,,,,,,,
,,,,,,,,2023-08-16_08h42.34.246,HF_wild_card,2022.2.4,Win32,60.05645307,5dd3df439ca8a33c3460fe11,64d2fd46c836a06233681665,64dc7d7db112f1d2aaa1d3f1,,,,,,,ctch,resources/DR.BMP,resources/DP.BMP,Door4,-0.251302083,-0.005208333,1,0,0,1.1407,optionLeft,80,10705,5,21,0,21,0,1,,,,,,,,,,,,,,,,,,,,,,,,,,,,,,,,,,,,,,,
,,,,,,,,2023-08-16_08h42.34.246,HF_wild_card,2022.2.4,Win32,60.05645307,5dd3df439ca8a33c3460fe11,64d2fd46c836a06233681665,64dc7d7db112f1d2aaa1d3f1,,,,,,,sngl,resources/Empty.png,resources/DY.BMP,Door2,0.213541667,-0.0078125,1,0,0,0.7129,optionRight,20,10725,5,22,0,22,0,1,,,,,,,,,,,,,,,,,,,,,,,,,,,,,,,,,,,,,,,
,,,,,,,,2023-08-16_08h42.34.246,HF_wild_card,2022.2.4,Win32,60.05645307,5dd3df439ca8a33c3460fe11,64d2fd46c836a06233681665,64dc7d7db112f1d2aaa1d3f1,,,,,,,decisionTrl,resources/DY.BMP,resources/DP.BMP,Door1,0.147135417,-0.010416667,1,0,0,0.9199,optionRight,30,10755,5,23,0,23,0,1,,,,,,,,,,,,,,,,,,,,,,,,,,,,,,,,,,,,,,,
,,,,,,,,2023-08-16_08h42.34.246,HF_wild_card,2022.2.4,Win32,60.05645307,5dd3df439ca8a33c3460fe11,64d2fd46c836a06233681665,64dc7d7db112f1d2aaa1d3f1,,,,,,,decisionTrl,resources/DR.BMP,resources/DB.BMP,Door3,0.201822917,-0.010416667,1,0,0,1.405900001,optionRight,70,10825,5,24,0,24,0,1,,,,,,,,,,,,,,,,,,,,,,,,,,,,,,,,,,,,,,,
,,,,,,,,2023-08-16_08h42.34.246,HF_wild_card,2022.2.4,Win32,60.05645307,5dd3df439ca8a33c3460fe11,64d2fd46c836a06233681665,64dc7d7db112f1d2aaa1d3f1,,,,,,,sngl,resources/DY.BMP,resources/Empty.png,Door2,-0.233072917,0.022135417,1,0,0,0.733,optionLeft,40,10865,5,25,0,25,0,1,,,,,,,,,,,,,,,,,,,,,,,,,,,,,,,,,,,,,,,
,,,,,,,,2023-08-16_08h42.34.246,HF_wild_card,2022.2.4,Win32,60.05645307,5dd3df439ca8a33c3460fe11,64d2fd46c836a06233681665,64dc7d7db112f1d2aaa1d3f1,,,,,,,decisionTrl,resources/DR.BMP,resources/DB.BMP,Door3,0.25390625,0.016927083,1,0,0,1.1932,optionRight,70,10935,5,26,0,26,0,1,,,,,,,,,,,,,,,,,,,,,,,,,,,,,,,,,,,,,,,
,,,,,,,,2023-08-16_08h42.34.246,HF_wild_card,2022.2.4,Win32,60.05645307,5dd3df439ca8a33c3460fe11,64d2fd46c836a06233681665,64dc7d7db112f1d2aaa1d3f1,,,,,,,sngl,resources/Empty.png,resources/DP.BMP,Door1,0.227864583,-0.020833333,1,0,0,0.8488,optionRight,30,10965,5,27,0,27,0,1,,,,,,,,,,,,,,,,,,,,,,,,,,,,,,,,,,,,,,,
,,,,,,,,2023-08-16_08h42.34.246,HF_wild_card,2022.2.4,Win32,60.05645307,5dd3df439ca8a33c3460fe11,64d2fd46c836a06233681665,64dc7d7db112f1d2aaa1d3f1,,,,,,,decisionTrl,resources/DBN.BMP,resources/DR.BMP,WildCard_Ex,-0.272135417,0.028645833,1,0,0,1.2026,optionLeft,95,11060,5,28,0,28,0,1,,,,,,,,,,,,,,,,,,,,,,,,,,,,,,,,,,,,,,,
,,,,,,,,2023-08-16_08h42.34.246,HF_wild_card,2022.2.4,Win32,60.05645307,5dd3df439ca8a33c3460fe11,64d2fd46c836a06233681665,64dc7d7db112f1d2aaa1d3f1,,,,,,,sngl,resources/DP.BMP,resources/Empty.png,Door1,-0.203125,0.015625,1,0,0,1.347200001,optionLeft,30,11090,5,29,0,29,0,1,,,,,,,,,,,,,,,,,,,,,,,,,,,,,,,,,,,,,,,
,,,,,,,,2023-08-16_08h42.34.246,HF_wild_card,2022.2.4,Win32,60.05645307,5dd3df439ca8a33c3460fe11,64d2fd46c836a06233681665,64dc7d7db112f1d2aaa1d3f1,,,,,,,ctch,resources/DP.BMP,resources/DR.BMP,Door4,0.1796875,-0.00390625,1,0,0,1.2515,optionRight,60,11150,5,30,0,30,0,1,,,,,,,,,,,,,,,,,,,,,,,,,,,,,,,,,,,,,,,
,,,,,,,,2023-08-16_08h42.34.246,HF_wild_card,2022.2.4,Win32,60.05645307,5dd3df439ca8a33c3460fe11,64d2fd46c836a06233681665,64dc7d7db112f1d2aaa1d3f1,,,,,,,decisionTrl,resources/DB.BMP,resources/DBN.BMP,WildCard_Ex,0.102864583,0.013020833,1,0,0,1.7474,optionRight,95,11245,5,31,0,31,0,1,,,,,,,,,,,,,,,,,,,,,,,,,,,,,,,,,,,,,,,
,,,,,,,,2023-08-16_08h42.34.246,HF_wild_card,2022.2.4,Win32,60.05645307,5dd3df439ca8a33c3460fe11,64d2fd46c836a06233681665,64dc7d7db112f1d2aaa1d3f1,,,,,,,sngl,resources/Empty.png,resources/DB.BMP,Door3,0.283854167,-0.01171875,1,0,0,0.7497,optionRight,70,11315,5,32,0,32,0,1,,,,,,,,,,,,,,,,,,,,,,,,,,,,,,,,,,,,,,,
,,,,,,,,2023-08-16_08h42.34.246,HF_wild_card,2022.2.4,Win32,60.05645307,5dd3df439ca8a33c3460fe11,64d2fd46c836a06233681665,64dc7d7db112f1d2aaa1d3f1,,,,,,,sngl,resources/DBN.BMP,resources/Empty.png,WildCard_Ex,-0.26171875,0.041666667,1,0,0,0.640299999,optionLeft,95,11410,5,33,0,33,0,1,,,,,,,,,,,,,,,,,,,,,,,,,,,,,,,,,,,,,,,
,,,,,,,,2023-08-16_08h42.34.246,HF_wild_card,2022.2.4,Win32,60.05645307,5dd3df439ca8a33c3460fe11,64d2fd46c836a06233681665,64dc7d7db112f1d2aaa1d3f1,,,,,,,decisionTrl,resources/DY.BMP,resources/DP.BMP,Door1,0.170572917,-0.026041667,1,0,0,1.1082,optionRight,30,11440,5,34,0,34,0,1,,,,,,,,,,,,,,,,,,,,,,,,,,,,,,,,,,,,,,,
,,,,,,,,2023-08-16_08h42.34.246,HF_wild_card,2022.2.4,Win32,60.05645307,5dd3df439ca8a33c3460fe11,64d2fd46c836a06233681665,64dc7d7db112f1d2aaa1d3f1,,,,,,,sngl,resources/DR.BMP,resources/Empty.png,Door4,-0.2734375,0.13671875,1,0,0,2.9611,optionLeft,80,11520,5,35,0,35,0,1,,,,,,,,,,,,,,,,,,,,,,,,,,,,,,,,,,,,,,,
,,,,,,,,2023-08-16_08h42.34.246,HF_wild_card,2022.2.4,Win32,60.05645307,5dd3df439ca8a33c3460fe11,64d2fd46c836a06233681665,64dc7d7db112f1d2aaa1d3f1,,,,,,,decisionTrl,resources/DBN.BMP,resources/DP.BMP,WildCard_Ex,-0.248697917,0.022135417,1,0,0,1.190299999,optionLeft,95,11615,5,36,0,36,0,1,,,,,,,,,,,,,,,,,,,,,,,,,,,,,,,,,,,,,,,
,,,,,,,,2023-08-16_08h42.34.246,HF_wild_card,2022.2.4,Win32,60.05645307,5dd3df439ca8a33c3460fe11,64d2fd46c836a06233681665,64dc7d7db112f1d2aaa1d3f1,,,,,,,sngl,resources/DB.BMP,resources/Empty.png,Door3,-0.342447917,0.071614583,1,0,0,1.693,optionLeft,70,11685,5,37,0,37,0,1,,,,,,,,,,,,,,,,,,,,,,,,,,,,,,,,,,,,,,,
,,,,,,,,2023-08-16_08h42.34.246,HF_wild_card,2022.2.4,Win32,60.05645307,5dd3df439ca8a33c3460fe11,64d2fd46c836a06233681665,64dc7d7db112f1d2aaa1d3f1,,,,,,,ctch,resources/DR.BMP,resources/DP.BMP,Door4,-0.307291667,0.016927083,1,0,0,3.476700001,optionLeft,60,11745,5,38,0,38,0,1,,,,,,,,,,,,,,,,,,,,,,,,,,,,,,,,,,,,,,,
,,,,,,,,2023-08-16_08h42.34.246,HF_wild_card,2022.2.4,Win32,60.05645307,5dd3df439ca8a33c3460fe11,64d2fd46c836a06233681665,64dc7d7db112f1d2aaa1d3f1,,,,,,,decisionTrl,resources/DB.BMP,resources/DR.BMP,Door3,-0.287760417,-0.009114583,1,0,0,1.1523,optionLeft,70,11815,5,39,0,39,0,1,,,,,,,,,,,,,,,,,,,,,,,,,,,,,,,,,,,,,,,
,,,,,,,,2023-08-16_08h42.34.246,HF_wild_card,2022.2.4,Win32,60.05645307,5dd3df439ca8a33c3460fe11,64d2fd46c836a06233681665,64dc7d7db112f1d2aaa1d3f1,,,,,,,decisionTrl,resources/DP.BMP,resources/DY.BMP,Door1,-0.204427083,-0.044270833,1,0,0,0.9061,optionLeft,30,11845,5,40,0,40,0,1,,,,,,,,,,,,,,,,,,,,,,,,,,,,,,,,,,,,,,,
,,,,,,,,2023-08-16_08h42.34.246,HF_wild_card,2022.2.4,Win32,60.05645307,5dd3df439ca8a33c3460fe11,64d2fd46c836a06233681665,64dc7d7db112f1d2aaa1d3f1,,,,,,,decisionTrl,resources/DY.BMP,resources/DP.BMP,Door1,0.194010417,-0.0078125,1,0,0,0.7565,optionRight,30,11875,5,41,0,41,0,1,,,,,,,,,,,,,,,,,,,,,,,,,,,,,,,,,,,,,,,
,,,,,,,,2023-08-16_08h42.34.246,HF_wild_card,2022.2.4,Win32,60.05645307,5dd3df439ca8a33c3460fe11,64d2fd46c836a06233681665,64dc7d7db112f1d2aaa1d3f1,,,,,,,decisionTrl,resources/DP.BMP,resources/DY.BMP,Door1,-0.1484375,0.016927083,1,0,0,0.6302,optionLeft,30,11905,5,42,0,42,0,1,,,,,,,,,,,,,,,,,,,,,,,,,,,,,,,,,,,,,,,
,,,,,,,,2023-08-16_08h42.34.246,HF_wild_card,2022.2.4,Win32,60.05645307,5dd3df439ca8a33c3460fe11,64d2fd46c836a06233681665,64dc7d7db112f1d2aaa1d3f1,,,,,,,sngl,resources/Empty.png,resources/DBN.BMP,WildCard_Ex,0.321614583,-0.01171875,1,0,0,0.6978,optionRight,5,11910,5,43,0,43,0,1,,,,,,,,,,,,,,,,,,,,,,,,,,,,,,,,,,,,,,,
,,,,,,,,2023-08-16_08h42.34.246,HF_wild_card,2022.2.4,Win32,60.05645307,5dd3df439ca8a33c3460fe11,64d2fd46c836a06233681665,64dc7d7db112f1d2aaa1d3f1,,,,,,,,,,,,,,,,,,,,,,,,,,4,0,4,0,1,,,,,,,,,,,,,,,,,,,,,,,,,,,,,,,,,,
,,,,,,,,2023-08-16_08h42.34.246,HF_wild_card,2022.2.4,Win32,60.05645307,5dd3df439ca8a33c3460fe11,64d2fd46c836a06233681665,64dc7d7db112f1d2aaa1d3f1,,,,,,,sngl,resources/Empty.png,resources/DR.BMP,Door4,0.444010417,-0.010416667,1,0,0,0.718099999,optionRight,80,11990,6,0,0,0,0,1,,,,,,,,,,,,,,,,,,,,,,,,,,,,,,,,,,,,,,,
,,,,,,,,2023-08-16_08h42.34.246,HF_wild_card,2022.2.4,Win32,60.05645307,5dd3df439ca8a33c3460fe11,64d2fd46c836a06233681665,64dc7d7db112f1d2aaa1d3f1,,,,,,,ctch,resources/DY.BMP,resources/DB.BMP,Door3,0.333333333,-0.002604167,1,0,0,1.2762,optionRight,70,12060,6,1,0,1,0,1,,,,,,,,,,,,,,,,,,,,,,,,,,,,,,,,,,,,,,,
,,,,,,,,2023-08-16_08h42.34.246,HF_wild_card,2022.2.4,Win32,60.05645307,5dd3df439ca8a33c3460fe11,64d2fd46c836a06233681665,64dc7d7db112f1d2aaa1d3f1,,,,,,,decisionTrl,resources/DY.BMP,resources/DP.BMP,Door1,0.21875,0.018229167,1,0,0,1.4884,optionRight,30,12090,6,2,0,2,0,1,,,,,,,,,,,,,,,,,,,,,,,,,,,,,,,,,,,,,,,
,,,,,,,,2023-08-16_08h42.34.246,HF_wild_card,2022.2.4,Win32,60.05645307,5dd3df439ca8a33c3460fe11,64d2fd46c836a06233681665,64dc7d7db112f1d2aaa1d3f1,,,,,,,decisionTrl,resources/DP.BMP,resources/DY.BMP,Door1,-0.381510417,-0.016927083,1,0,0,0.7997,optionLeft,30,12120,6,3,0,3,0,1,,,,,,,,,,,,,,,,,,,,,,,,,,,,,,,,,,,,,,,
,,,,,,,,2023-08-16_08h42.34.246,HF_wild_card,2022.2.4,Win32,60.05645307,5dd3df439ca8a33c3460fe11,64d2fd46c836a06233681665,64dc7d7db112f1d2aaa1d3f1,,,,,,,decisionTrl,resources/DBN.BMP,resources/DR.BMP,WildCard_Ex,-0.25,-0.032552083,1,0,0,1.417099999,optionLeft,95,12215,6,4,0,4,0,1,,,,,,,,,,,,,,,,,,,,,,,,,,,,,,,,,,,,,,,
,,,,,,,,2023-08-16_08h42.34.246,HF_wild_card,2022.2.4,Win32,60.05645307,5dd3df439ca8a33c3460fe11,64d2fd46c836a06233681665,64dc7d7db112f1d2aaa1d3f1,,,,,,,decisionTrl,resources/DBN.BMP,resources/DB.BMP,WildCard_Ex,-0.21875,0.009114583,1,0,0,2.2455,optionLeft,5,12220,6,5,0,5,0,1,,,,,,,,,,,,,,,,,,,,,,,,,,,,,,,,,,,,,,,
,,,,,,,,2023-08-16_08h42.34.246,HF_wild_card,2022.2.4,Win32,60.05645307,5dd3df439ca8a33c3460fe11,64d2fd46c836a06233681665,64dc7d7db112f1d2aaa1d3f1,,,,,,,decisionTrl,resources/DR.BMP,resources/DB.BMP,Door3,0.209635417,-0.029947917,1,0,0,0.6905,optionRight,70,12290,6,6,0,6,0,1,,,,,,,,,,,,,,,,,,,,,,,,,,,,,,,,,,,,,,,
,,,,,,,,2023-08-16_08h42.34.246,HF_wild_card,2022.2.4,Win32,60.05645307,5dd3df439ca8a33c3460fe11,64d2fd46c836a06233681665,64dc7d7db112f1d2aaa1d3f1,,,,,,,decisionTrl,resources/DB.BMP,resources/DR.BMP,Door3,-0.268229167,0.006510417,1,0,0,1.0178,optionLeft,70,12360,6,7,0,7,0,1,,,,,,,,,,,,,,,,,,,,,,,,,,,,,,,,,,,,,,,
,,,,,,,,2023-08-16_08h42.34.246,HF_wild_card,2022.2.4,Win32,60.05645307,5dd3df439ca8a33c3460fe11,64d2fd46c836a06233681665,64dc7d7db112f1d2aaa1d3f1,,,,,,,ctch,resources/DR.BMP,resources/DP.BMP,Door4,-0.4609375,-0.08984375,1,0,0,2.0555,optionLeft,80,12440,6,8,0,8,0,1,,,,,,,,,,,,,,,,,,,,,,,,,,,,,,,,,,,,,,,
,,,,,,,,2023-08-16_08h42.34.246,HF_wild_card,2022.2.4,Win32,60.05645307,5dd3df439ca8a33c3460fe11,64d2fd46c836a06233681665,64dc7d7db112f1d2aaa1d3f1,,,,,,,sngl,resources/DR.BMP,resources/Empty.png,Door4,-0.319010417,0.014322917,1,0,0,0.706900001,optionLeft,60,12500,6,9,0,9,0,1,,,,,,,,,,,,,,,,,,,,,,,,,,,,,,,,,,,,,,,
,,,,,,,,2023-08-16_08h42.34.246,HF_wild_card,2022.2.4,Win32,60.05645307,5dd3df439ca8a33c3460fe11,64d2fd46c836a06233681665,64dc7d7db112f1d2aaa1d3f1,,,,,,,decisionTrl,resources/DR.BMP,resources/DB.BMP,Door3,0.23046875,-0.028645833,1,0,0,0.9024,optionRight,70,12570,6,10,0,10,0,1,,,,,,,,,,,,,,,,,,,,,,,,,,,,,,,,,,,,,,,
,,,,,,,,2023-08-16_08h42.34.246,HF_wild_card,2022.2.4,Win32,60.05645307,5dd3df439ca8a33c3460fe11,64d2fd46c836a06233681665,64dc7d7db112f1d2aaa1d3f1,,,,,,,sngl,resources/Empty.png,resources/DY.BMP,Door2,0.201822917,-0.032552083,1,0,0,1.172799999,optionRight,40,12610,6,11,0,11,0,1,,,,,,,,,,,,,,,,,,,,,,,,,,,,,,,,,,,,,,,
,,,,,,,,2023-08-16_08h42.34.246,HF_wild_card,2022.2.4,Win32,60.05645307,5dd3df439ca8a33c3460fe11,64d2fd46c836a06233681665,64dc7d7db112f1d2aaa1d3f1,,,,,,,decisionTrl,resources/DR.BMP,resources/DB.BMP,Door3,0.236979167,0.006510417,1,0,0,1.0238,optionRight,70,12680,6,12,0,12,0,1,,,,,,,,,,,,,,,,,,,,,,,,,,,,,,,,,,,,,,,
,,,,,,,,2023-08-16_08h42.34.246,HF_wild_card,2022.2.4,Win32,60.05645307,5dd3df439ca8a33c3460fe11,64d2fd46c836a06233681665,64dc7d7db112f1d2aaa1d3f1,,,,,,,decisionTrl,resources/DP.BMP,resources/DY.BMP,Door1,-0.247395833,-0.01953125,1,0,0,0.854299999,optionLeft,30,12710,6,13,0,13,0,1,,,,,,,,,,,,,,,,,,,,,,,,,,,,,,,,,,,,,,,
,,,,,,,,2023-08-16_08h42.34.246,HF_wild_card,2022.2.4,Win32,60.05645307,5dd3df439ca8a33c3460fe11,64d2fd46c836a06233681665,64dc7d7db112f1d2aaa1d3f1,,,,,,,decisionTrl,resources/DBN.BMP,resources/DP.BMP,WildCard_Ex,-0.203125,0.009114583,1,0,0,1.3966,optionLeft,95,12805,6,14,0,14,0,1,,,,,,,,,,,,,,,,,,,,,,,,,,,,,,,,,,,,,,,
,,,,,,,,2023-08-16_08h42.34.246,HF_wild_card,2022.2.4,Win32,60.05645307,5dd3df439ca8a33c3460fe11,64d2fd46c836a06233681665,64dc7d7db112f1d2aaa1d3f1,,,,,,,decisionTrl,resources/DP.BMP,resources/DY.BMP,Door1,-0.1953125,-0.014322917,1,0,0,1.2784,optionLeft,30,12835,6,15,0,15,0,1,,,,,,,,,,,,,,,,,,,,,,,,,,,,,,,,,,,,,,,
,,,,,,,,2023-08-16_08h42.34.246,HF_wild_card,2022.2.4,Win32,60.05645307,5dd3df439ca8a33c3460fe11,64d2fd46c836a06233681665,64dc7d7db112f1d2aaa1d3f1,,,,,,,ctch,resources/DP.BMP,resources/DR.BMP,Door4,-0.001302083,0.015625,1,0,0,0.5688,optionRight,80,12915,6,16,0,16,0,1,,,,,,,,,,,,,,,,,,,,,,,,,,,,,,,,,,,,,,,
,,,,,,,,2023-08-16_08h42.34.246,HF_wild_card,2022.2.4,Win32,60.05645307,5dd3df439ca8a33c3460fe11,64d2fd46c836a06233681665,64dc7d7db112f1d2aaa1d3f1,,,,,,,ctch,resources/DP.BMP,resources/DR.BMP,Door4,0.295572917,-0.024739583,1,0,0,0.777200001,optionRight,60,12975,6,17,0,17,0,1,,,,,,,,,,,,,,,,,,,,,,,,,,,,,,,,,,,,,,,
,,,,,,,,2023-08-16_08h42.34.246,HF_wild_card,2022.2.4,Win32,60.05645307,5dd3df439ca8a33c3460fe11,64d2fd46c836a06233681665,64dc7d7db112f1d2aaa1d3f1,,,,,,,sngl,resources/DBN.BMP,resources/Empty.png,WildCard_Ex,-0.27734375,0.016927083,1,0,0,0.6769,optionLeft,5,12980,6,18,0,18,0,1,,,,,,,,,,,,,,,,,,,,,,,,,,,,,,,,,,,,,,,
,,,,,,,,2023-08-16_08h42.34.246,HF_wild_card,2022.2.4,Win32,60.05645307,5dd3df439ca8a33c3460fe11,64d2fd46c836a06233681665,64dc7d7db112f1d2aaa1d3f1,,,,,,,decisionTrl,resources/DY.BMP,resources/DP.BMP,Door1,0.265625,-0.032552083,1,0,0,0.7629,optionRight,30,13010,6,19,0,19,0,1,,,,,,,,,,,,,,,,,,,,,,,,,,,,,,,,,,,,,,,
,,,,,,,,2023-08-16_08h42.34.246,HF_wild_card,2022.2.4,Win32,60.05645307,5dd3df439ca8a33c3460fe11,64d2fd46c836a06233681665,64dc7d7db112f1d2aaa1d3f1,,,,,,,decisionTrl,resources/DP.BMP,resources/DY.BMP,Door1,-0.25,-0.0078125,1,0,0,0.747200001,optionLeft,30,13040,6,20,0,20,0,1,,,,,,,,,,,,,,,,,,,,,,,,,,,,,,,,,,,,,,,
,,,,,,,,2023-08-16_08h42.34.246,HF_wild_card,2022.2.4,Win32,60.05645307,5dd3df439ca8a33c3460fe11,64d2fd46c836a06233681665,64dc7d7db112f1d2aaa1d3f1,,,,,,,decisionTrl,resources/DB.BMP,resources/DR.BMP,Door3,-0.259114583,-0.013020833,1,0,0,0.9834,optionLeft,70,13110,6,21,0,21,0,1,,,,,,,,,,,,,,,,,,,,,,,,,,,,,,,,,,,,,,,
,,,,,,,,2023-08-16_08h42.34.246,HF_wild_card,2022.2.4,Win32,60.05645307,5dd3df439ca8a33c3460fe11,64d2fd46c836a06233681665,64dc7d7db112f1d2aaa1d3f1,,,,,,,ctch,resources/DY.BMP,resources/DB.BMP,Door3,0.25,-0.01171875,1,0,0,0.8001,optionRight,70,13180,6,22,0,22,0,1,,,,,,,,,,,,,,,,,,,,,,,,,,,,,,,,,,,,,,,
,,,,,,,,2023-08-16_08h42.34.246,HF_wild_card,2022.2.4,Win32,60.05645307,5dd3df439ca8a33c3460fe11,64d2fd46c836a06233681665,64dc7d7db112f1d2aaa1d3f1,,,,,,,ctch,resources/DB.BMP,resources/DY.BMP,Door3,-0.375,-0.0234375,1,0,0,0.6912,optionLeft,70,13250,6,23,0,23,0,1,,,,,,,,,,,,,,,,,,,,,,,,,,,,,,,,,,,,,,,
,,,,,,,,2023-08-16_08h42.34.246,HF_wild_card,2022.2.4,Win32,60.05645307,5dd3df439ca8a33c3460fe11,64d2fd46c836a06233681665,64dc7d7db112f1d2aaa1d3f1,,,,,,,sngl,resources/DP.BMP,resources/Empty.png,Door1,-0.294270833,-0.022135417,1,0,0,0.675299999,optionLeft,30,13280,6,24,0,24,0,1,,,,,,,,,,,,,,,,,,,,,,,,,,,,,,,,,,,,,,,
,,,,,,,,2023-08-16_08h42.34.246,HF_wild_card,2022.2.4,Win32,60.05645307,5dd3df439ca8a33c3460fe11,64d2fd46c836a06233681665,64dc7d7db112f1d2aaa1d3f1,,,,,,,decisionTrl,resources/DY.BMP,resources/DP.BMP,Door1,0.205729167,0.03515625,1,0,0,0.7737,optionRight,30,13310,6,25,0,25,0,1,,,,,,,,,,,,,,,,,,,,,,,,,,,,,,,,,,,,,,,
,,,,,,,,2023-08-16_08h42.34.246,HF_wild_card,2022.2.4,Win32,60.05645307,5dd3df439ca8a33c3460fe11,64d2fd46c836a06233681665,64dc7d7db112f1d2aaa1d3f1,,,,,,,sngl,resources/DB.BMP,resources/Empty.png,Door3,-0.240885417,0.00390625,1,0,0,0.6404,optionLeft,70,13380,6,26,0,26,0,1,,,,,,,,,,,,,,,,,,,,,,,,,,,,,,,,,,,,,,,
,,,,,,,,2023-08-16_08h42.34.246,HF_wild_card,2022.2.4,Win32,60.05645307,5dd3df439ca8a33c3460fe11,64d2fd46c836a06233681665,64dc7d7db112f1d2aaa1d3f1,,,,,,,decisionTrl,resources/DB.BMP,resources/DR.BMP,Door3,-0.15234375,-0.001302083,1,0,0,1.0573,optionLeft,70,13450,6,27,0,27,0,1,,,,,,,,,,,,,,,,,,,,,,,,,,,,,,,,,,,,,,,
,,,,,,,,2023-08-16_08h42.34.246,HF_wild_card,2022.2.4,Win32,60.05645307,5dd3df439ca8a33c3460fe11,64d2fd46c836a06233681665,64dc7d7db112f1d2aaa1d3f1,,,,,,,decisionTrl,resources/DR.BMP,resources/DBN.BMP,WildCard_Ex,0.24609375,-0.015625,1,0,0,1.3262,optionRight,95,13545,6,28,0,28,0,1,,,,,,,,,,,,,,,,,,,,,,,,,,,,,,,,,,,,,,,
,,,,,,,,2023-08-16_08h42.34.246,HF_wild_card,2022.2.4,Win32,60.05645307,5dd3df439ca8a33c3460fe11,64d2fd46c836a06233681665,64dc7d7db112f1d2aaa1d3f1,,,,,,,sngl,resources/Empty.png,resources/DP.BMP,Door1,0.266927083,-0.018229167,1,0,0,0.747200001,optionRight,30,13575,6,29,0,29,0,1,,,,,,,,,,,,,,,,,,,,,,,,,,,,,,,,,,,,,,,
,,,,,,,,2023-08-16_08h42.34.246,HF_wild_card,2022.2.4,Win32,60.05645307,5dd3df439ca8a33c3460fe11,64d2fd46c836a06233681665,64dc7d7db112f1d2aaa1d3f1,,,,,,,decisionTrl,resources/DY.BMP,resources/DP.BMP,Door1,0.255208333,-0.061197917,1,0,0,3.8389,optionRight,30,13605,6,30,0,30,0,1,,,,,,,,,,,,,,,,,,,,,,,,,,,,,,,,,,,,,,,
,,,,,,,,2023-08-16_08h42.34.246,HF_wild_card,2022.2.4,Win32,60.05645307,5dd3df439ca8a33c3460fe11,64d2fd46c836a06233681665,64dc7d7db112f1d2aaa1d3f1,,,,,,,sngl,resources/DY.BMP,resources/Empty.png,Door2,-0.322916667,-0.026041667,1,0,0,0.7163,optionLeft,20,13625,6,31,0,31,0,1,,,,,,,,,,,,,,,,,,,,,,,,,,,,,,,,,,,,,,,
,,,,,,,,2023-08-16_08h42.34.246,HF_wild_card,2022.2.4,Win32,60.05645307,5dd3df439ca8a33c3460fe11,64d2fd46c836a06233681665,64dc7d7db112f1d2aaa1d3f1,,,,,,,ctch,resources/DR.BMP,resources/DP.BMP,Door4,-0.174479167,0.006510417,1,0,0,1.196799999,optionLeft,60,13685,6,32,0,32,0,1,,,,,,,,,,,,,,,,,,,,,,,,,,,,,,,,,,,,,,,
,,,,,,,,2023-08-16_08h42.34.246,HF_wild_card,2022.2.4,Win32,60.05645307,5dd3df439ca8a33c3460fe11,64d2fd46c836a06233681665,64dc7d7db112f1d2aaa1d3f1,,,,,,,ctch,resources/DB.BMP,resources/DY.BMP,Door3,-0.18359375,-0.01171875,1,0,0,0.7407,optionLeft,70,13755,6,33,0,33,0,1,,,,,,,,,,,,,,,,,,,,,,,,,,,,,,,,,,,,,,,
,,,,,,,,2023-08-16_08h42.34.246,HF_wild_card,2022.2.4,Win32,60.05645307,5dd3df439ca8a33c3460fe11,64d2fd46c836a06233681665,64dc7d7db112f1d2aaa1d3f1,,,,,,,decisionTrl,resources/DR.BMP,resources/DB.BMP,Door3,0.247395833,-0.010416667,1,0,0,1.1684,optionRight,70,13825,6,34,0,34,0,1,,,,,,,,,,,,,,,,,,,,,,,,,,,,,,,,,,,,,,,
,,,,,,,,2023-08-16_08h42.34.246,HF_wild_card,2022.2.4,Win32,60.05645307,5dd3df439ca8a33c3460fe11,64d2fd46c836a06233681665,64dc7d7db112f1d2aaa1d3f1,,,,,,,decisionTrl,resources/DP.BMP,resources/DBN.BMP,WildCard_Ex,0.227864583,-0.016927083,1,0,0,1.3453,optionRight,95,13920,6,35,0,35,0,1,,,,,,,,,,,,,,,,,,,,,,,,,,,,,,,,,,,,,,,
,,,,,,,,2023-08-16_08h42.34.246,HF_wild_card,2022.2.4,Win32,60.05645307,5dd3df439ca8a33c3460fe11,64d2fd46c836a06233681665,64dc7d7db112f1d2aaa1d3f1,,,,,,,sngl,resources/Empty.png,resources/DBN.BMP,WildCard_Ex,0.4296875,-0.006510417,1,0,0,0.744299999,optionRight,5,13925,6,36,0,36,0,1,,,,,,,,,,,,,,,,,,,,,,,,,,,,,,,,,,,,,,,
,,,,,,,,2023-08-16_08h42.34.246,HF_wild_card,2022.2.4,Win32,60.05645307,5dd3df439ca8a33c3460fe11,64d2fd46c836a06233681665,64dc7d7db112f1d2aaa1d3f1,,,,,,,decisionTrl,resources/DB.BMP,resources/DR.BMP,Door3,-0.41796875,0.123697917,1,0,0,0.843599999,optionLeft,70,13995,6,37,0,37,0,1,,,,,,,,,,,,,,,,,,,,,,,,,,,,,,,,,,,,,,,
,,,,,,,,2023-08-16_08h42.34.246,HF_wild_card,2022.2.4,Win32,60.05645307,5dd3df439ca8a33c3460fe11,64d2fd46c836a06233681665,64dc7d7db112f1d2aaa1d3f1,,,,,,,decisionTrl,resources/DBN.BMP,resources/DY.BMP,WildCard_Ex,-0.190104167,0.020833333,1,0,0,0.771099999,optionLeft,95,14090,6,38,0,38,0,1,,,,,,,,,,,,,,,,,,,,,,,,,,,,,,,,,,,,,,,
,,,,,,,,2023-08-16_08h42.34.246,HF_wild_card,2022.2.4,Win32,60.05645307,5dd3df439ca8a33c3460fe11,64d2fd46c836a06233681665,64dc7d7db112f1d2aaa1d3f1,,,,,,,decisionTrl,resources/DB.BMP,resources/DBN.BMP,WildCard_Ex,0.2734375,0.0546875,1,0,0,3.2874,optionRight,5,14095,6,39,0,39,0,1,,,,,,,,,,,,,,,,,,,,,,,,,,,,,,,,,,,,,,,
,,,,,,,,2023-08-16_08h42.34.246,HF_wild_card,2022.2.4,Win32,60.05645307,5dd3df439ca8a33c3460fe11,64d2fd46c836a06233681665,64dc7d7db112f1d2aaa1d3f1,,,,,,,sngl,resources/Empty.png,resources/DB.BMP,Door3,0.305989583,-0.03515625,1,0,0,0.7083,optionRight,70,14165,6,40,0,40,0,1,,,,,,,,,,,,,,,,,,,,,,,,,,,,,,,,,,,,,,,
,,,,,,,,2023-08-16_08h42.34.246,HF_wild_card,2022.2.4,Win32,60.05645307,5dd3df439ca8a33c3460fe11,64d2fd46c836a06233681665,64dc7d7db112f1d2aaa1d3f1,,,,,,,sngl,resources/DBN.BMP,resources/Empty.png,WildCard_Ex,-0.291666667,-0.01171875,1,0,0,0.6567,optionLeft,95,14260,6,41,0,41,0,1,,,,,,,,,,,,,,,,,,,,,,,,,,,,,,,,,,,,,,,
,,,,,,,,2023-08-16_08h42.34.246,HF_wild_card,2022.2.4,Win32,60.05645307,5dd3df439ca8a33c3460fe11,64d2fd46c836a06233681665,64dc7d7db112f1d2aaa1d3f1,,,,,,,decisionTrl,resources/DY.BMP,resources/DBN.BMP,Door2,-0.337239583,0.006510417,1,0,0,0.9563,optionLeft,40,14300,6,42,0,42,0,1,,,,,,,,,,,,,,,,,,,,,,,,,,,,,,,,,,,,,,,
,,,,,,,,2023-08-16_08h42.34.246,HF_wild_card,2022.2.4,Win32,60.05645307,5dd3df439ca8a33c3460fe11,64d2fd46c836a06233681665,64dc7d7db112f1d2aaa1d3f1,,,,,,,sngl,resources/Empty.png,resources/DBN.BMP,WildCard_Ex,0.311197917,-0.001302083,1,0,0,0.5898,optionRight,95,14395,6,43,0,43,0,1,,,,,,,,,,,,,,,,,,,,,,,,,,,,,,,,,,,,,,,
,,,,,,,,2023-08-16_08h42.34.246,HF_wild_card,2022.2.4,Win32,60.05645307,5dd3df439ca8a33c3460fe11,64d2fd46c836a06233681665,64dc7d7db112f1d2aaa1d3f1,,,,,,,,,,,,,,,,,,,,,,,,,,5,0,5,0,1,,,,,,,,,,,,,,,,,,,,,,,,,,,,,,,,,,
,,,,,,,,2023-08-16_08h42.34.246,HF_wild_card,2022.2.4,Win32,60.05645307,5dd3df439ca8a33c3460fe11,64d2fd46c836a06233681665,64dc7d7db112f1d2aaa1d3f1,,,,,,,ctch,resources/DY.BMP,resources/DB.BMP,Door3,0.205729167,-0.174479167,1,0,0,1.208299999,optionRight,70,14465,7,0,0,0,0,1,,,,,,,,,,,,,,,,,,,,,,,,,,,,,,,,,,,,,,,
,,,,,,,,2023-08-16_08h42.34.246,HF_wild_card,2022.2.4,Win32,60.05645307,5dd3df439ca8a33c3460fe11,64d2fd46c836a06233681665,64dc7d7db112f1d2aaa1d3f1,,,,,,,ctch,resources/DB.BMP,resources/DY.BMP,Door3,-0.287760417,0.002604167,1,0,0,0.8629,optionLeft,70,14535,7,1,0,1,0,1,,,,,,,,,,,,,,,,,,,,,,,,,,,,,,,,,,,,,,,
,,,,,,,,2023-08-16_08h42.34.246,HF_wild_card,2022.2.4,Win32,60.05645307,5dd3df439ca8a33c3460fe11,64d2fd46c836a06233681665,64dc7d7db112f1d2aaa1d3f1,,,,,,,decisionTrl,resources/DP.BMP,resources/DY.BMP,Door1,-0.25,-0.024739583,1,0,0,1.0951,optionLeft,30,14565,7,2,0,2,0,1,,,,,,,,,,,,,,,,,,,,,,,,,,,,,,,,,,,,,,,
,,,,,,,,2023-08-16_08h42.34.246,HF_wild_card,2022.2.4,Win32,60.05645307,5dd3df439ca8a33c3460fe11,64d2fd46c836a06233681665,64dc7d7db112f1d2aaa1d3f1,,,,,,,decisionTrl,resources/DR.BMP,resources/DB.BMP,Door3,0.403645833,-0.033854167,1,0,0,0.893,optionRight,70,14635,7,3,0,3,0,1,,,,,,,,,,,,,,,,,,,,,,,,,,,,,,,,,,,,,,,
,,,,,,,,2023-08-16_08h42.34.246,HF_wild_card,2022.2.4,Win32,60.05645307,5dd3df439ca8a33c3460fe11,64d2fd46c836a06233681665,64dc7d7db112f1d2aaa1d3f1,,,,,,,decisionTrl,resources/DR.BMP,resources/DB.BMP,Door3,0.40234375,-0.009114583,1,0,0,0.778,optionRight,70,14705,7,4,0,4,0,1,,,,,,,,,,,,,,,,,,,,,,,,,,,,,,,,,,,,,,,
,,,,,,,,2023-08-16_08h42.34.246,HF_wild_card,2022.2.4,Win32,60.05645307,5dd3df439ca8a33c3460fe11,64d2fd46c836a06233681665,64dc7d7db112f1d2aaa1d3f1,,,,,,,decisionTrl,resources/DY.BMP,resources/DP.BMP,Door1,0.390625,0.015625,1,0,0,0.829299999,optionRight,30,14735,7,5,0,5,0,1,,,,,,,,,,,,,,,,,,,,,,,,,,,,,,,,,,,,,,,
,,,,,,,,2023-08-16_08h42.34.246,HF_wild_card,2022.2.4,Win32,60.05645307,5dd3df439ca8a33c3460fe11,64d2fd46c836a06233681665,64dc7d7db112f1d2aaa1d3f1,,,,,,,ctch,resources/DP.BMP,resources/DR.BMP,Door4,0.338541667,0.0390625,1,0,0,1.480400001,optionRight,60,14795,7,6,0,6,0,1,,,,,,,,,,,,,,,,,,,,,,,,,,,,,,,,,,,,,,,
,,,,,,,,2023-08-16_08h42.34.246,HF_wild_card,2022.2.4,Win32,60.05645307,5dd3df439ca8a33c3460fe11,64d2fd46c836a06233681665,64dc7d7db112f1d2aaa1d3f1,,,,,,,decisionTrl,resources/DB.BMP,resources/DR.BMP,Door3,-0.326822917,-0.01953125,1,0,0,0.9113,optionLeft,70,14865,7,7,0,7,0,1,,,,,,,,,,,,,,,,,,,,,,,,,,,,,,,,,,,,,,,
,,,,,,,,2023-08-16_08h42.34.246,HF_wild_card,2022.2.4,Win32,60.05645307,5dd3df439ca8a33c3460fe11,64d2fd46c836a06233681665,64dc7d7db112f1d2aaa1d3f1,,,,,,,decisionTrl,resources/DP.BMP,resources/DY.BMP,Door1,-0.298177083,-0.029947917,1,0,0,0.896099999,optionLeft,30,14895,7,8,0,8,0,1,,,,,,,,,,,,,,,,,,,,,,,,,,,,,,,,,,,,,,,
,,,,,,,,2023-08-16_08h42.34.246,HF_wild_card,2022.2.4,Win32,60.05645307,5dd3df439ca8a33c3460fe11,64d2fd46c836a06233681665,64dc7d7db112f1d2aaa1d3f1,,,,,,,decisionTrl,resources/DY.BMP,resources/DP.BMP,Door1,0.265625,-0.024739583,1,0,0,0.879400001,optionRight,30,14925,7,9,0,9,0,1,,,,,,,,,,,,,,,,,,,,,,,,,,,,,,,,,,,,,,,
,,,,,,,,2023-08-16_08h42.34.246,HF_wild_card,2022.2.4,Win32,60.05645307,5dd3df439ca8a33c3460fe11,64d2fd46c836a06233681665,64dc7d7db112f1d2aaa1d3f1,,,,,,,decisionTrl,resources/DP.BMP,resources/DY.BMP,Door1,-0.233072917,-0.009114583,1,0,0,0.793599999,optionLeft,30,14955,7,10,0,10,0,1,,,,,,,,,,,,,,,,,,,,,,,,,,,,,,,,,,,,,,,
,,,,,,,,2023-08-16_08h42.34.246,HF_wild_card,2022.2.4,Win32,60.05645307,5dd3df439ca8a33c3460fe11,64d2fd46c836a06233681665,64dc7d7db112f1d2aaa1d3f1,,,,,,,decisionTrl,resources/DP.BMP,resources/DY.BMP,Door1,-0.188802083,-0.015625,1,0,0,0.7775,optionLeft,30,14985,7,11,0,11,0,1,,,,,,,,,,,,,,,,,,,,,,,,,,,,,,,,,,,,,,,
,,,,,,,,2023-08-16_08h42.34.246,HF_wild_card,2022.2.4,Win32,60.05645307,5dd3df439ca8a33c3460fe11,64d2fd46c836a06233681665,64dc7d7db112f1d2aaa1d3f1,,,,,,,decisionTrl,resources/DP.BMP,resources/DY.BMP,Door1,-0.196614583,0.03515625,1,0,0,0.6938,optionLeft,30,15015,7,12,0,12,0,1,,,,,,,,,,,,,,,,,,,,,,,,,,,,,,,,,,,,,,,
,,,,,,,,2023-08-16_08h42.34.246,HF_wild_card,2022.2.4,Win32,60.05645307,5dd3df439ca8a33c3460fe11,64d2fd46c836a06233681665,64dc7d7db112f1d2aaa1d3f1,,,,,,,ctch,resources/DB.BMP,resources/DY.BMP,Door3,-0.2109375,-0.015625,1,0,0,0.7461,optionLeft,70,15085,7,13,0,13,0,1,,,,,,,,,,,,,,,,,,,,,,,,,,,,,,,,,,,,,,,
,,,,,,,,2023-08-16_08h42.34.246,HF_wild_card,2022.2.4,Win32,60.05645307,5dd3df439ca8a33c3460fe11,64d2fd46c836a06233681665,64dc7d7db112f1d2aaa1d3f1,,,,,,,decisionTrl,resources/DY.BMP,resources/DP.BMP,Door1,0.265625,-0.016927083,1,0,0,0.7466,optionRight,30,15115,7,14,0,14,0,1,,,,,,,,,,,,,,,,,,,,,,,,,,,,,,,,,,,,,,,
,,,,,,,,2023-08-16_08h42.34.246,HF_wild_card,2022.2.4,Win32,60.05645307,5dd3df439ca8a33c3460fe11,64d2fd46c836a06233681665,64dc7d7db112f1d2aaa1d3f1,,,,,,,ctch,resources/DR.BMP,resources/DP.BMP,Door4,-0.234375,-0.00390625,1,0,0,1.0793,optionLeft,60,15175,7,15,0,15,0,1,,,,,,,,,,,,,,,,,,,,,,,,,,,,,,,,,,,,,,,
,,,,,,,,2023-08-16_08h42.34.246,HF_wild_card,2022.2.4,Win32,60.05645307,5dd3df439ca8a33c3460fe11,64d2fd46c836a06233681665,64dc7d7db112f1d2aaa1d3f1,,,,,,,ctch,resources/DY.BMP,resources/DB.BMP,Door3,0.25390625,0,1,0,0,0.808400001,optionRight,70,15245,7,16,0,16,0,1,,,,,,,,,,,,,,,,,,,,,,,,,,,,,,,,,,,,,,,
,,,,,,,,2023-08-16_08h42.34.246,HF_wild_card,2022.2.4,Win32,60.05645307,5dd3df439ca8a33c3460fe11,64d2fd46c836a06233681665,64dc7d7db112f1d2aaa1d3f1,,,,,,,ctch,resources/DR.BMP,resources/DP.BMP,Door4,-0.282552083,-0.03125,1,0,0,0.6957,optionLeft,60,15305,7,17,0,17,0,1,,,,,,,,,,,,,,,,,,,,,,,,,,,,,,,,,,,,,,,
,,,,,,,,2023-08-16_08h42.34.246,HF_wild_card,2022.2.4,Win32,60.05645307,5dd3df439ca8a33c3460fe11,64d2fd46c836a06233681665,64dc7d7db112f1d2aaa1d3f1,,,,,,,decisionTrl,resources/DY.BMP,resources/DP.BMP,Door1,0.180989583,0.013020833,1,0,0,0.747299999,optionRight,30,15335,7,18,0,18,0,1,,,,,,,,,,,,,,,,,,,,,,,,,,,,,,,,,,,,,,,
,,,,,,,,2023-08-16_08h42.34.246,HF_wild_card,2022.2.4,Win32,60.05645307,5dd3df439ca8a33c3460fe11,64d2fd46c836a06233681665,64dc7d7db112f1d2aaa1d3f1,,,,,,,decisionTrl,resources/DB.BMP,resources/DR.BMP,Door3,-0.251302083,-0.015625,1,0,0,1.079,optionLeft,70,15405,7,19,0,19,0,1,,,,,,,,,,,,,,,,,,,,,,,,,,,,,,,,,,,,,,,
,,,,,,,,2023-08-16_08h42.34.246,HF_wild_card,2022.2.4,Win32,60.05645307,5dd3df439ca8a33c3460fe11,64d2fd46c836a06233681665,64dc7d7db112f1d2aaa1d3f1,,,,,,,decisionTrl,resources/DY.BMP,resources/DP.BMP,Door1,0.157552083,0.02734375,1,0,0,0.845599999,optionRight,30,15435,7,20,0,20,0,1,,,,,,,,,,,,,,,,,,,,,,,,,,,,,,,,,,,,,,,
,,,,,,,,2023-08-16_08h42.34.246,HF_wild_card,2022.2.4,Win32,60.05645307,5dd3df439ca8a33c3460fe11,64d2fd46c836a06233681665,64dc7d7db112f1d2aaa1d3f1,,,,,,,ctch,resources/DP.BMP,resources/DR.BMP,Door4,0.268229167,0.026041667,1,0,0,1.0258,optionRight,60,15495,7,21,0,21,0,1,,,,,,,,,,,,,,,,,,,,,,,,,,,,,,,,,,,,,,,
,,,,,,,,2023-08-16_08h42.34.246,HF_wild_card,2022.2.4,Win32,60.05645307,5dd3df439ca8a33c3460fe11,64d2fd46c836a06233681665,64dc7d7db112f1d2aaa1d3f1,,,,,,,ctch,resources/DR.BMP,resources/DP.BMP,Door4,-0.247395833,-0.00390625,1,0,0,0.8943,optionLeft,60,15555,7,22,0,22,0,1,,,,,,,,,,,,,,,,,,,,,,,,,,,,,,,,,,,,,,,
,,,,,,,,2023-08-16_08h42.34.246,HF_wild_card,2022.2.4,Win32,60.05645307,5dd3df439ca8a33c3460fe11,64d2fd46c836a06233681665,64dc7d7db112f1d2aaa1d3f1,,,,,,,decisionTrl,resources/DR.BMP,resources/DB.BMP,Door3,0.1796875,0,1,0,0,1.449599999,optionRight,70,15625,7,23,0,23,0,1,,,,,,,,,,,,,,,,,,,,,,,,,,,,,,,,,,,,,,,
,,,,,,,,2023-08-16_08h42.34.246,HF_wild_card,2022.2.4,Win32,60.05645307,5dd3df439ca8a33c3460fe11,64d2fd46c836a06233681665,64dc7d7db112f1d2aaa1d3f1,,,,,,,decisionTrl,resources/DB.BMP,resources/DR.BMP,Door3,-0.18359375,-0.005208333,1,0,0,1.0117,optionLeft,70,15695,7,24,0,24,0,1,,,,,,,,,,,,,,,,,,,,,,,,,,,,,,,,,,,,,,,
,,,,,,,,2023-08-16_08h42.34.246,HF_wild_card,2022.2.4,Win32,60.05645307,5dd3df439ca8a33c3460fe11,64d2fd46c836a06233681665,64dc7d7db112f1d2aaa1d3f1,,,,,,,ctch,resources/DY.BMP,resources/DB.BMP,Door3,0.203125,0.0078125,1,0,0,0.8777,optionRight,70,15765,7,25,0,25,0,1,,,,,,,,,,,,,,,,,,,,,,,,,,,,,,,,,,,,,,,
,,,,,,,,2023-08-16_08h42.34.246,HF_wild_card,2022.2.4,Win32,60.05645307,5dd3df439ca8a33c3460fe11,64d2fd46c836a06233681665,64dc7d7db112f1d2aaa1d3f1,,,,,,,decisionTrl,resources/DR.BMP,resources/DB.BMP,Door3,0.203125,0.00390625,1,0,0,1.444099999,optionRight,70,15835,7,26,0,26,0,1,,,,,,,,,,,,,,,,,,,,,,,,,,,,,,,,,,,,,,,
,,,,,,,,2023-08-16_08h42.34.246,HF_wild_card,2022.2.4,Win32,60.05645307,5dd3df439ca8a33c3460fe11,64d2fd46c836a06233681665,64dc7d7db112f1d2aaa1d3f1,,,,,,,decisionTrl,resources/DP.BMP,resources/DY.BMP,Door1,-0.180989583,0.015625,1,0,0,0.8632,optionLeft,30,15865,7,27,0,27,0,1,,,,,,,,,,,,,,,,,,,,,,,,,,,,,,,,,,,,,,,
,,,,,,,,2023-08-16_08h42.34.246,HF_wild_card,2022.2.4,Win32,60.05645307,5dd3df439ca8a33c3460fe11,64d2fd46c836a06233681665,64dc7d7db112f1d2aaa1d3f1,,,,,,,decisionTrl,resources/DR.BMP,resources/DB.BMP,Door3,0.235677083,-0.006510417,1,0,0,0.8117,optionRight,70,15935,7,28,0,28,0,1,,,,,,,,,,,,,,,,,,,,,,,,,,,,,,,,,,,,,,,
,,,,,,,,2023-08-16_08h42.34.246,HF_wild_card,2022.2.4,Win32,60.05645307,5dd3df439ca8a33c3460fe11,64d2fd46c836a06233681665,64dc7d7db112f1d2aaa1d3f1,,,,,,,decisionTrl,resources/DB.BMP,resources/DR.BMP,Door3,-0.216145833,0.0234375,1,0,0,0.9624,optionLeft,70,16005,7,29,0,29,0,1,,,,,,,,,,,,,,,,,,,,,,,,,,,,,,,,,,,,,,,
,,,,,,,,2023-08-16_08h42.34.246,HF_wild_card,2022.2.4,Win32,60.05645307,5dd3df439ca8a33c3460fe11,64d2fd46c836a06233681665,64dc7d7db112f1d2aaa1d3f1,,,,,,,decisionTrl,resources/DB.BMP,resources/DR.BMP,Door3,-0.290364583,0.024739583,1,0,0,0.9966,optionLeft,70,16075,7,30,0,30,0,1,,,,,,,,,,,,,,,,,,,,,,,,,,,,,,,,,,,,,,,
,,,,,,,,2023-08-16_08h42.34.246,HF_wild_card,2022.2.4,Win32,60.05645307,5dd3df439ca8a33c3460fe11,64d2fd46c836a06233681665,64dc7d7db112f1d2aaa1d3f1,,,,,,,decisionTrl,resources/DB.BMP,resources/DR.BMP,Door3,-0.255208333,0.024739583,1,0,0,0.8615,optionLeft,70,16145,7,31,0,31,0,1,,,,,,,,,,,,,,,,,,,,,,,,,,,,,,,,,,,,,,,
,,,,,,,,2023-08-16_08h42.34.246,HF_wild_card,2022.2.4,Win32,60.05645307,5dd3df439ca8a33c3460fe11,64d2fd46c836a06233681665,64dc7d7db112f1d2aaa1d3f1,,,,,,,ctch,resources/DP.BMP,resources/DR.BMP,Door4,0.169270833,0.014322917,1,0,0,1.145400001,optionRight,80,16225,7,32,0,32,0,1,,,,,,,,,,,,,,,,,,,,,,,,,,,,,,,,,,,,,,,
,,,,,,,,2023-08-16_08h42.34.246,HF_wild_card,2022.2.4,Win32,60.05645307,5dd3df439ca8a33c3460fe11,64d2fd46c836a06233681665,64dc7d7db112f1d2aaa1d3f1,,,,,,,ctch,resources/DB.BMP,resources/DY.BMP,Door3,-0.322916667,0.09765625,1,0,0,0.8792,optionLeft,70,16295,7,33,0,33,0,1,,,,,,,,,,,,,,,,,,,,,,,,,,,,,,,,,,,,,,,
,,,,,,,,2023-08-16_08h42.34.246,HF_wild_card,2022.2.4,Win32,60.05645307,5dd3df439ca8a33c3460fe11,64d2fd46c836a06233681665,64dc7d7db112f1d2aaa1d3f1,,,,,,,decisionTrl,resources/DR.BMP,resources/DB.BMP,Door3,0.201822917,-0.028645833,1,0,0,1.296900001,optionRight,70,16365,7,34,0,34,0,1,,,,,,,,,,,,,,,,,,,,,,,,,,,,,,,,,,,,,,,
,,,,,,,,2023-08-16_08h42.34.246,HF_wild_card,2022.2.4,Win32,60.05645307,5dd3df439ca8a33c3460fe11,64d2fd46c836a06233681665,64dc7d7db112f1d2aaa1d3f1,,,,,,,decisionTrl,resources/DY.BMP,resources/DP.BMP,Door1,0.21484375,-0.006510417,1,0,0,0.7614,optionRight,30,16395,7,35,0,35,0,1,,,,,,,,,,,,,,,,,,,,,,,,,,,,,,,,,,,,,,,
,,,,,,,,2023-08-16_08h42.34.246,HF_wild_card,2022.2.4,Win32,60.05645307,5dd3df439ca8a33c3460fe11,64d2fd46c836a06233681665,64dc7d7db112f1d2aaa1d3f1,,,,,,,,,,,,,,,,,,,,,,,,,,6,0,6,0,1,,,,,,,,,,,,,,,,,,,,,,,,,,,,,,,,,,
,,,,,,,,2023-08-16_08h42.34.246,HF_wild_card,2022.2.4,Win32,60.05645307,5dd3df439ca8a33c3460fe11,64d2fd46c836a06233681665,64dc7d7db112f1d2aaa1d3f1,,,,,,,,,,,,,,,,,,,,,,,,,,,,,,,4,,,,,,,,,,,,,,,,,,,,,,,,,,,,,,,,,
,,,,,,,,2023-08-16_08h42.34.246,HF_wild_card,2022.2.4,Win32,60.05645307,5dd3df439ca8a33c3460fe11,64d2fd46c836a06233681665,64dc7d7db112f1d2aaa1d3f1,,,,,,,,,,,,,,,,,,,,,,,,,,,,,,,,,,,,,,,,,,,,,,,,,,,,,,,,,,,,,,,,
,,,,,,,,2023-08-16_08h42.34.246,HF_wild_card,2022.2.4,Win32,60.05645307,5dd3df439ca8a33c3460fe11,64d2fd46c836a06233681665,64dc7d7db112f1d2aaa1d3f1,,,,,,,,,,,,,,,,,,,,,,,,,,,,,,,,40,WC_nonExtreme,resources/DG.BMP,0,0,0,0,1,,,,,,,,,,,,,,,,,,,,,,,,,
,,,,,,,,2023-08-16_08h42.34.246,HF_wild_card,2022.2.4,Win32,60.05645307,5dd3df439ca8a33c3460fe11,64d2fd46c836a06233681665,64dc7d7db112f1d2aaa1d3f1,,,,,,,,,,,,,,,,,,,,,,,,,,,,,,,,60,Door1,resources/DP.BMP,1,0,1,0,1,,,,,,,,,,,,,,,,,,,,,,,,,
,,,,,,,,2023-08-16_08h42.34.246,HF_wild_card,2022.2.4,Win32,60.05645307,5dd3df439ca8a33c3460fe11,64d2fd46c836a06233681665,64dc7d7db112f1d2aaa1d3f1,,,,,,,,,,,,,,,,,,,,,,,,,,,,,,,,80,Door4,resources/DR.BMP,2,0,2,0,1,,,,,,,,,,,,,,,,,,,,,,,,,
,,,,,,,,2023-08-16_08h42.34.246,HF_wild_card,2022.2.4,Win32,60.05645307,5dd3df439ca8a33c3460fe11,64d2fd46c836a06233681665,64dc7d7db112f1d2aaa1d3f1,,,,,,,,,,,,,,,,,,,,,,,,,,,,,,,,20,Door2,resources/DY.BMP,3,0,3,0,1,,,,,,,,,,,,,,,,,,,,,,,,,
,,,,,,,,2023-08-16_08h42.34.246,HF_wild_card,2022.2.4,Win32,60.05645307,5dd3df439ca8a33c3460fe11,64d2fd46c836a06233681665,64dc7d7db112f1d2aaa1d3f1,,,,,,,,,,,,,,,,,,,,,,,,,,,,,,,,95,WC_extreme,resources/DBN.BMP,4,0,4,0,1,,,,,,,,,,,,,,,,,,,,,,,,,
,,,,,,,,2023-08-16_08h42.34.246,HF_wild_card,2022.2.4,Win32,60.05645307,5dd3df439ca8a33c3460fe11,64d2fd46c836a06233681665,64dc7d7db112f1d2aaa1d3f1,,,,,,,,,,,,,,,,,,,,,,,,,,,,,,,,80,Door3,resources/DB.BMP,5,0,5,0,1,,,,,,,,,,,,,,,,,,,,,,,,,
,,,,,,,,2023-08-16_08h42.34.246,HF_wild_card,2022.2.4,Win32,60.05645307,5dd3df439ca8a33c3460fe11,64d2fd46c836a06233681665,64dc7d7db112f1d2aaa1d3f1,,,,,,,,,,,,,,,,,,,,,,,,,,,,,,,,,,,,,,,,,,,,,,,,,,,,,,,,,,,,,,,,
