Condition,Low fixed image (Door1),Low risky image (Door2),High fixed image (Door3),High risky image (Door4),NonExtreme Wild Card 1,NonExtreme Wild Card 2,,date,expName,psychopyVersion,OS,frameRate,PROLIFIC_PID,STUDY_ID,SESSION_ID,mouse_2.x,mouse_2.y,mouse_2.leftButton,mouse_2.midButton,mouse_2.rightButton,mouse_2.clicked_name,Trial Type,Left Option Image,Right Option Image,Chosen Door,mouse.x,mouse.y,mouse.leftButton,mouse.midButton,mouse.rightButton,mouse.time,mouse.clicked_name,Feedback,Cumulative Reward,Block,trial.thisRepN,trial.thisTrialN,trial.thisN,trial.thisIndex,trial.ran,blocks.thisRepN,blocks.thisTrialN,blocks.thisN,blocks.thisIndex,blocks.ran,Money conversion,First Outcome Reported,Shown Door (First Outcome),Displayed Image (First Outcome),outcomes.thisRepN,outcomes.thisTrialN,outcomes.thisN,outcomes.thisIndex,outcomes.ran,judgments.thisRepN,judgments.thisTrialN,judgments.thisN,judgments.thisIndex,judgments.ran,freqMouse.x,freqMouse.y,freqMouse.leftButton,freqMouse.midButton,freqMouse.rightButton,freqMouse.clicked_name,FQJ for first outcome,FQJ for second outcome,Shown Door,Displayed Image,trials.thisRepN,trials.thisTrialN,trials.thisN,trials.thisIndex,trials.ran,judgBlock.thisRepN,judgBlock.thisTrialN,judgBlock.thisN,judgBlock.thisIndex,judgBlock.ran
2,resources/DP.BMP,resources/DG.BMP,resources/DY.BMP,resources/DBN.BMP,resources/DR.BMP,resources/DB.BMP,,2023-08-16_08h35.56.927,HF_wild_card,2022.2.4,MacIntel,59.99520038,59ce3501a5bbdd0001bf45e2,64d2fd46c836a06233681665,64dc7c4f1a8da31a47b5d486,,,,,,,,,,,,,,,,,,,,,,,,,,,,,,,,,,,,,,,,,,,,,,,,,,,,,,,,,,,,,,,,
,,,,,,,,2023-08-16_08h35.56.927,HF_wild_card,2022.2.4,MacIntel,59.99520038,59ce3501a5bbdd0001bf45e2,64d2fd46c836a06233681665,64dc7c4f1a8da31a47b5d486,0.018511285,-0.412204319,1,0,0,agree,,,,,,,,,,,,,,,,,,,,,,,,,,,,,,,,,,,,,,,,,,,,,,,,,,,,,,,,,,
,,,,,,,,2023-08-16_08h35.56.927,HF_wild_card,2022.2.4,MacIntel,59.99520038,59ce3501a5bbdd0001bf45e2,64d2fd46c836a06233681665,64dc7c4f1a8da31a47b5d486,,,,,,,,,,,,,,,,,,,,,,,,,,,,,,,,,,,,,,,,,,,,,,,,,,,,,,,,,,,,,,,,
,,,,,,,,2023-08-16_08h35.56.927,HF_wild_card,2022.2.4,MacIntel,59.99520038,59ce3501a5bbdd0001bf45e2,64d2fd46c836a06233681665,64dc7c4f1a8da31a47b5d486,,,,,,,decisionTrl,resources/DG.BMP,resources/DP.BMP,Door2,-0.345689562,-0.03945855,1,0,0,5.2919,optionLeft,40,40,1,0,0,0,0,1,,,,,,,,,,,,,,,,,,,,,,,,,,,,,,,,,,,,,,,
,,,,,,,,2023-08-16_08h35.56.927,HF_wild_card,2022.2.4,MacIntel,59.99520038,59ce3501a5bbdd0001bf45e2,64d2fd46c836a06233681665,64dc7c4f1a8da31a47b5d486,,,,,,,decisionTrl,resources/DBN.BMP,resources/DY.BMP,Door3,0.374384223,-0.037575955,1,0,0,2.2992,optionRight,70,110,1,1,0,1,0,1,,,,,,,,,,,,,,,,,,,,,,,,,,,,,,,,,,,,,,,
,,,,,,,,2023-08-16_08h35.56.927,HF_wild_card,2022.2.4,MacIntel,59.99520038,59ce3501a5bbdd0001bf45e2,64d2fd46c836a06233681665,64dc7c4f1a8da31a47b5d486,,,,,,,decisionTrl,resources/DBN.BMP,resources/DB.BMP,WildCard_NonEx,0.314436849,-0.05769043,1,0,0,2.5154,optionRight,45,155,1,2,0,2,0,1,,,,,,,,,,,,,,,,,,,,,,,,,,,,,,,,,,,,,,,
,,,,,,,,2023-08-16_08h35.56.927,HF_wild_card,2022.2.4,MacIntel,59.99520038,59ce3501a5bbdd0001bf45e2,64d2fd46c836a06233681665,64dc7c4f1a8da31a47b5d486,,,,,,,decisionTrl,resources/DB.BMP,resources/DP.BMP,Door1,0.303445095,-0.060283746,1,0,0,3.182,optionRight,30,185,1,3,0,3,0,1,,,,,,,,,,,,,,,,,,,,,,,,,,,,,,,,,,,,,,,
,,,,,,,,2023-08-16_08h35.56.927,HF_wild_card,2022.2.4,MacIntel,59.99520038,59ce3501a5bbdd0001bf45e2,64d2fd46c836a06233681665,64dc7c4f1a8da31a47b5d486,,,,,,,ctch,resources/DG.BMP,resources/DY.BMP,Door2,-0.30343967,0.015652127,1,0,0,1.5632,optionLeft,20,205,1,4,0,4,0,1,,,,,,,,,,,,,,,,,,,,,,,,,,,,,,,,,,,,,,,
,,,,,,,,2023-08-16_08h35.56.927,HF_wild_card,2022.2.4,MacIntel,59.99520038,59ce3501a5bbdd0001bf45e2,64d2fd46c836a06233681665,64dc7c4f1a8da31a47b5d486,,,,,,,ctch,resources/DBN.BMP,resources/DP.BMP,Door4,-0.307288954,0.01008572,1,0,0,2.3825,optionLeft,60,265,1,5,0,5,0,1,,,,,,,,,,,,,,,,,,,,,,,,,,,,,,,,,,,,,,,
,,,,,,,,2023-08-16_08h35.56.927,HF_wild_card,2022.2.4,MacIntel,59.99520038,59ce3501a5bbdd0001bf45e2,64d2fd46c836a06233681665,64dc7c4f1a8da31a47b5d486,,,,,,,sngl,resources/Empty.png,resources/DB.BMP,WildCard_NonEx,0.347317166,-0.026543511,1,0,0,1.9822,optionRight,55,320,1,6,0,6,0,1,,,,,,,,,,,,,,,,,,,,,,,,,,,,,,,,,,,,,,,
,,,,,,,,2023-08-16_08h35.56.927,HF_wild_card,2022.2.4,MacIntel,59.99520038,59ce3501a5bbdd0001bf45e2,64d2fd46c836a06233681665,64dc7c4f1a8da31a47b5d486,,,,,,,decisionTrl,resources/DY.BMP,resources/DBN.BMP,Door4,0.391398112,-0.034627279,1,0,0,1.1809,optionRight,80,400,1,7,0,7,0,1,,,,,,,,,,,,,,,,,,,,,,,,,,,,,,,,,,,,,,,
,,,,,,,,2023-08-16_08h35.56.927,HF_wild_card,2022.2.4,MacIntel,59.99520038,59ce3501a5bbdd0001bf45e2,64d2fd46c836a06233681665,64dc7c4f1a8da31a47b5d486,,,,,,,decisionTrl,resources/DB.BMP,resources/DBN.BMP,Door4,0.386244032,-0.078523763,1,0,0,1.0644,optionRight,60,460,1,8,0,8,0,1,,,,,,,,,,,,,,,,,,,,,,,,,,,,,,,,,,,,,,,
,,,,,,,,2023-08-16_08h35.56.927,HF_wild_card,2022.2.4,MacIntel,59.99520038,59ce3501a5bbdd0001bf45e2,64d2fd46c836a06233681665,64dc7c4f1a8da31a47b5d486,,,,,,,decisionTrl,resources/DP.BMP,resources/DG.BMP,Door1,-0.349495443,-0.026437717,1,0,0,1.397,optionLeft,30,490,1,9,0,9,0,1,,,,,,,,,,,,,,,,,,,,,,,,,,,,,,,,,,,,,,,
,,,,,,,,2023-08-16_08h35.56.927,HF_wild_card,2022.2.4,MacIntel,59.99520038,59ce3501a5bbdd0001bf45e2,64d2fd46c836a06233681665,64dc7c4f1a8da31a47b5d486,,,,,,,ctch,resources/DY.BMP,resources/DG.BMP,Door3,-0.338297526,-0.00324707,1,0,0,1.9336,optionLeft,70,560,1,10,0,10,0,1,,,,,,,,,,,,,,,,,,,,,,,,,,,,,,,,,,,,,,,
,,,,,,,,2023-08-16_08h35.56.927,HF_wild_card,2022.2.4,MacIntel,59.99520038,59ce3501a5bbdd0001bf45e2,64d2fd46c836a06233681665,64dc7c4f1a8da31a47b5d486,,,,,,,decisionTrl,resources/DP.BMP,resources/DG.BMP,Door2,0.406827799,-0.032259115,1,0,0,2.3322,optionRight,20,580,1,11,0,11,0,1,,,,,,,,,,,,,,,,,,,,,,,,,,,,,,,,,,,,,,,
,,,,,,,,2023-08-16_08h35.56.927,HF_wild_card,2022.2.4,MacIntel,59.99520038,59ce3501a5bbdd0001bf45e2,64d2fd46c836a06233681665,64dc7c4f1a8da31a47b5d486,,,,,,,sngl,resources/Empty.png,resources/DG.BMP,Door2,0.34992947,-0.043296984,1,0,0,1.2311,optionRight,20,600,1,12,0,12,0,1,,,,,,,,,,,,,,,,,,,,,,,,,,,,,,,,,,,,,,,
,,,,,,,,2023-08-16_08h35.56.927,HF_wild_card,2022.2.4,MacIntel,59.99520038,59ce3501a5bbdd0001bf45e2,64d2fd46c836a06233681665,64dc7c4f1a8da31a47b5d486,,,,,,,decisionTrl,resources/DY.BMP,resources/DBN.BMP,Door4,0.394148763,-0.084467231,1,0,0,0.8658,optionRight,60,660,1,13,0,13,0,1,,,,,,,,,,,,,,,,,,,,,,,,,,,,,,,,,,,,,,,
,,,,,,,,2023-08-16_08h35.56.927,HF_wild_card,2022.2.4,MacIntel,59.99520038,59ce3501a5bbdd0001bf45e2,64d2fd46c836a06233681665,64dc7c4f1a8da31a47b5d486,,,,,,,sngl,resources/DB.BMP,resources/Empty.png,WildCard_NonEx,-0.355528429,-0.006171332,1,0,0,1.199,optionLeft,45,705,1,14,0,14,0,1,,,,,,,,,,,,,,,,,,,,,,,,,,,,,,,,,,,,,,,
,,,,,,,,2023-08-16_08h35.56.927,HF_wild_card,2022.2.4,MacIntel,59.99520038,59ce3501a5bbdd0001bf45e2,64d2fd46c836a06233681665,64dc7c4f1a8da31a47b5d486,,,,,,,decisionTrl,resources/DB.BMP,resources/DY.BMP,Door3,0.392529297,-0.034299045,1,0,0,1.7307,optionRight,70,775,1,15,0,15,0,1,,,,,,,,,,,,,,,,,,,,,,,,,,,,,,,,,,,,,,,
,,,,,,,,2023-08-16_08h35.56.927,HF_wild_card,2022.2.4,MacIntel,59.99520038,59ce3501a5bbdd0001bf45e2,64d2fd46c836a06233681665,64dc7c4f1a8da31a47b5d486,,,,,,,decisionTrl,resources/DG.BMP,resources/DP.BMP,Door1,0.358751085,-0.048459201,1,0,0,1.7307,optionRight,30,805,1,16,0,16,0,1,,,,,,,,,,,,,,,,,,,,,,,,,,,,,,,,,,,,,,,
,,,,,,,,2023-08-16_08h35.56.927,HF_wild_card,2022.2.4,MacIntel,59.99520038,59ce3501a5bbdd0001bf45e2,64d2fd46c836a06233681665,64dc7c4f1a8da31a47b5d486,,,,,,,decisionTrl,resources/DBN.BMP,resources/DY.BMP,Door4,-0.336352539,-0.031019423,1,0,0,1.048,optionLeft,60,865,1,17,0,17,0,1,,,,,,,,,,,,,,,,,,,,,,,,,,,,,,,,,,,,,,,
,,,,,,,,2023-08-16_08h35.56.927,HF_wild_card,2022.2.4,MacIntel,59.99520038,59ce3501a5bbdd0001bf45e2,64d2fd46c836a06233681665,64dc7c4f1a8da31a47b5d486,,,,,,,sngl,resources/Empty.png,resources/DB.BMP,WildCard_NonEx,0.299072266,-0.027994792,1,0,0,1.0808,optionRight,45,910,1,18,0,18,0,1,,,,,,,,,,,,,,,,,,,,,,,,,,,,,,,,,,,,,,,
,,,,,,,,2023-08-16_08h35.56.927,HF_wild_card,2022.2.4,MacIntel,59.99520038,59ce3501a5bbdd0001bf45e2,64d2fd46c836a06233681665,64dc7c4f1a8da31a47b5d486,,,,,,,decisionTrl,resources/DBN.BMP,resources/DY.BMP,Door4,-0.373483615,-0.001581489,1,0,0,1.2164,optionLeft,60,970,1,19,0,19,0,1,,,,,,,,,,,,,,,,,,,,,,,,,,,,,,,,,,,,,,,
,,,,,,,,2023-08-16_08h35.56.927,HF_wild_card,2022.2.4,MacIntel,59.99520038,59ce3501a5bbdd0001bf45e2,64d2fd46c836a06233681665,64dc7c4f1a8da31a47b5d486,,,,,,,decisionTrl,resources/DY.BMP,resources/DB.BMP,WildCard_NonEx,0.314662001,-0.008460829,1,0,0,2.4983,optionRight,45,1015,1,20,0,20,0,1,,,,,,,,,,,,,,,,,,,,,,,,,,,,,,,,,,,,,,,
,,,,,,,,2023-08-16_08h35.56.927,HF_wild_card,2022.2.4,MacIntel,59.99520038,59ce3501a5bbdd0001bf45e2,64d2fd46c836a06233681665,64dc7c4f1a8da31a47b5d486,,,,,,,decisionTrl,resources/DG.BMP,resources/DP.BMP,Door2,-0.292515734,-0.008322483,1,0,0,2.1141,optionLeft,40,1055,1,21,0,21,0,1,,,,,,,,,,,,,,,,,,,,,,,,,,,,,,,,,,,,,,,
,,,,,,,,2023-08-16_08h35.56.927,HF_wild_card,2022.2.4,MacIntel,59.99520038,59ce3501a5bbdd0001bf45e2,64d2fd46c836a06233681665,64dc7c4f1a8da31a47b5d486,,,,,,,sngl,resources/Empty.png,resources/DP.BMP,Door1,0.382066515,-0.050708008,1,0,0,0.9672,optionRight,30,1085,1,22,0,22,0,1,,,,,,,,,,,,,,,,,,,,,,,,,,,,,,,,,,,,,,,
,,,,,,,,2023-08-16_08h35.56.927,HF_wild_card,2022.2.4,MacIntel,59.99520038,59ce3501a5bbdd0001bf45e2,64d2fd46c836a06233681665,64dc7c4f1a8da31a47b5d486,,,,,,,ctch,resources/DG.BMP,resources/DY.BMP,Door3,0.336246745,-0.017496745,1,0,0,2.1328,optionRight,70,1155,1,23,0,23,0,1,,,,,,,,,,,,,,,,,,,,,,,,,,,,,,,,,,,,,,,
,,,,,,,,2023-08-16_08h35.56.927,HF_wild_card,2022.2.4,MacIntel,59.99520038,59ce3501a5bbdd0001bf45e2,64d2fd46c836a06233681665,64dc7c4f1a8da31a47b5d486,,,,,,,sngl,resources/DP.BMP,resources/Empty.png,Door1,-0.374074978,0.00289171,1,0,0,1.1479,optionLeft,30,1185,1,24,0,24,0,1,,,,,,,,,,,,,,,,,,,,,,,,,,,,,,,,,,,,,,,
,,,,,,,,2023-08-16_08h35.56.927,HF_wild_card,2022.2.4,MacIntel,59.99520038,59ce3501a5bbdd0001bf45e2,64d2fd46c836a06233681665,64dc7c4f1a8da31a47b5d486,,,,,,,decisionTrl,resources/DP.BMP,resources/DG.BMP,Door2,0.413661024,-0.052848307,1,0,0,2.3154,optionRight,40,1225,1,25,0,25,0,1,,,,,,,,,,,,,,,,,,,,,,,,,,,,,,,,,,,,,,,
,,,,,,,,2023-08-16_08h35.56.927,HF_wild_card,2022.2.4,MacIntel,59.99520038,59ce3501a5bbdd0001bf45e2,64d2fd46c836a06233681665,64dc7c4f1a8da31a47b5d486,,,,,,,decisionTrl,resources/DBN.BMP,resources/DY.BMP,Door4,-0.309974501,0.001538086,1,0,0,1.0809,optionLeft,60,1285,1,26,0,26,0,1,,,,,,,,,,,,,,,,,,,,,,,,,,,,,,,,,,,,,,,
,,,,,,,,2023-08-16_08h35.56.927,HF_wild_card,2022.2.4,MacIntel,59.99520038,59ce3501a5bbdd0001bf45e2,64d2fd46c836a06233681665,64dc7c4f1a8da31a47b5d486,,,,,,,sngl,resources/DG.BMP,resources/Empty.png,Door2,-0.322268338,0.007337782,1,0,0,0.8809,optionLeft,40,1325,1,27,0,27,0,1,,,,,,,,,,,,,,,,,,,,,,,,,,,,,,,,,,,,,,,
,,,,,,,,2023-08-16_08h35.56.927,HF_wild_card,2022.2.4,MacIntel,59.99520038,59ce3501a5bbdd0001bf45e2,64d2fd46c836a06233681665,64dc7c4f1a8da31a47b5d486,,,,,,,sngl,resources/Empty.png,resources/DBN.BMP,Door4,0.377346463,-0.028301324,1,0,0,1.0653,optionRight,60,1385,1,28,0,28,0,1,,,,,,,,,,,,,,,,,,,,,,,,,,,,,,,,,,,,,,,
,,,,,,,,2023-08-16_08h35.56.927,HF_wild_card,2022.2.4,MacIntel,59.99520038,59ce3501a5bbdd0001bf45e2,64d2fd46c836a06233681665,64dc7c4f1a8da31a47b5d486,,,,,,,ctch,resources/DP.BMP,resources/DBN.BMP,Door4,0.438245985,-0.019848633,1,0,0,0.7998,optionRight,60,1445,1,29,0,29,0,1,,,,,,,,,,,,,,,,,,,,,,,,,,,,,,,,,,,,,,,
,,,,,,,,2023-08-16_08h35.56.927,HF_wild_card,2022.2.4,MacIntel,59.99520038,59ce3501a5bbdd0001bf45e2,64d2fd46c836a06233681665,64dc7c4f1a8da31a47b5d486,,,,,,,decisionTrl,resources/DY.BMP,resources/DBN.BMP,Door4,0.36340332,-0.001304796,1,0,0,0.6979,optionRight,60,1505,1,30,0,30,0,1,,,,,,,,,,,,,,,,,,,,,,,,,,,,,,,,,,,,,,,
,,,,,,,,2023-08-16_08h35.56.927,HF_wild_card,2022.2.4,MacIntel,59.99520038,59ce3501a5bbdd0001bf45e2,64d2fd46c836a06233681665,64dc7c4f1a8da31a47b5d486,,,,,,,sngl,resources/DB.BMP,resources/Empty.png,WildCard_NonEx,-0.22328559,0.013224284,1,0,0,0.8481,optionLeft,55,1560,1,31,0,31,0,1,,,,,,,,,,,,,,,,,,,,,,,,,,,,,,,,,,,,,,,
,,,,,,,,2023-08-16_08h35.56.927,HF_wild_card,2022.2.4,MacIntel,59.99520038,59ce3501a5bbdd0001bf45e2,64d2fd46c836a06233681665,64dc7c4f1a8da31a47b5d486,,,,,,,decisionTrl,resources/DB.BMP,resources/DG.BMP,WildCard_NonEx,-0.270928277,0.015974935,1,0,0,1.4476,optionLeft,55,1615,1,32,0,32,0,1,,,,,,,,,,,,,,,,,,,,,,,,,,,,,,,,,,,,,,,
,,,,,,,,2023-08-16_08h35.56.927,HF_wild_card,2022.2.4,MacIntel,59.99520038,59ce3501a5bbdd0001bf45e2,64d2fd46c836a06233681665,64dc7c4f1a8da31a47b5d486,,,,,,,sngl,resources/DY.BMP,resources/Empty.png,Door3,-0.289835612,0.017331272,1,0,0,0.8977,optionLeft,70,1685,1,33,0,33,0,1,,,,,,,,,,,,,,,,,,,,,,,,,,,,,,,,,,,,,,,
,,,,,,,,2023-08-16_08h35.56.927,HF_wild_card,2022.2.4,MacIntel,59.99520038,59ce3501a5bbdd0001bf45e2,64d2fd46c836a06233681665,64dc7c4f1a8da31a47b5d486,,,,,,,ctch,resources/DY.BMP,resources/DG.BMP,Door3,-0.258968099,0.01812066,1,0,0,0.8319,optionLeft,70,1755,1,34,0,34,0,1,,,,,,,,,,,,,,,,,,,,,,,,,,,,,,,,,,,,,,,
,,,,,,,,2023-08-16_08h35.56.927,HF_wild_card,2022.2.4,MacIntel,59.99520038,59ce3501a5bbdd0001bf45e2,64d2fd46c836a06233681665,64dc7c4f1a8da31a47b5d486,,,,,,,decisionTrl,resources/DG.BMP,resources/DB.BMP,Door2,-0.264857313,0.008642578,1,0,0,2.7328,optionLeft,20,1775,1,35,0,35,0,1,,,,,,,,,,,,,,,,,,,,,,,,,,,,,,,,,,,,,,,
,,,,,,,,2023-08-16_08h35.56.927,HF_wild_card,2022.2.4,MacIntel,59.99520038,59ce3501a5bbdd0001bf45e2,64d2fd46c836a06233681665,64dc7c4f1a8da31a47b5d486,,,,,,,decisionTrl,resources/DG.BMP,resources/DP.BMP,Door1,0.440128581,-0.029587131,1,0,0,0.8474,optionRight,30,1805,1,36,0,36,0,1,,,,,,,,,,,,,,,,,,,,,,,,,,,,,,,,,,,,,,,
,,,,,,,,2023-08-16_08h35.56.927,HF_wild_card,2022.2.4,MacIntel,59.99520038,59ce3501a5bbdd0001bf45e2,64d2fd46c836a06233681665,64dc7c4f1a8da31a47b5d486,,,,,,,ctch,resources/DP.BMP,resources/DBN.BMP,Door4,0.377067057,-0.040831163,1,0,0,0.883,optionRight,80,1885,1,37,0,37,0,1,,,,,,,,,,,,,,,,,,,,,,,,,,,,,,,,,,,,,,,
,,,,,,,,2023-08-16_08h35.56.927,HF_wild_card,2022.2.4,MacIntel,59.99520038,59ce3501a5bbdd0001bf45e2,64d2fd46c836a06233681665,64dc7c4f1a8da31a47b5d486,,,,,,,sngl,resources/Empty.png,resources/DY.BMP,Door3,0.348795573,-0.012272135,1,0,0,0.8311,optionRight,70,1955,1,38,0,38,0,1,,,,,,,,,,,,,,,,,,,,,,,,,,,,,,,,,,,,,,,
,,,,,,,,2023-08-16_08h35.56.927,HF_wild_card,2022.2.4,MacIntel,59.99520038,59ce3501a5bbdd0001bf45e2,64d2fd46c836a06233681665,64dc7c4f1a8da31a47b5d486,,,,,,,decisionTrl,resources/DY.BMP,resources/DBN.BMP,Door4,0.428605143,-0.002509223,1,0,0,0.9679,optionRight,80,2035,1,39,0,39,0,1,,,,,,,,,,,,,,,,,,,,,,,,,,,,,,,,,,,,,,,
,,,,,,,,2023-08-16_08h35.56.927,HF_wild_card,2022.2.4,MacIntel,59.99520038,59ce3501a5bbdd0001bf45e2,64d2fd46c836a06233681665,64dc7c4f1a8da31a47b5d486,,,,,,,decisionTrl,resources/DP.BMP,resources/DG.BMP,Door1,-0.221611871,0.004231771,1,0,0,1.9144,optionLeft,30,2065,1,40,0,40,0,1,,,,,,,,,,,,,,,,,,,,,,,,,,,,,,,,,,,,,,,
,,,,,,,,2023-08-16_08h35.56.927,HF_wild_card,2022.2.4,MacIntel,59.99520038,59ce3501a5bbdd0001bf45e2,64d2fd46c836a06233681665,64dc7c4f1a8da31a47b5d486,,,,,,,sngl,resources/DBN.BMP,resources/Empty.png,Door4,-0.124245877,0.008420139,1,0,0,0.7651,optionLeft,80,2145,1,41,0,41,0,1,,,,,,,,,,,,,,,,,,,,,,,,,,,,,,,,,,,,,,,
,,,,,,,,2023-08-16_08h35.56.927,HF_wild_card,2022.2.4,MacIntel,59.99520038,59ce3501a5bbdd0001bf45e2,64d2fd46c836a06233681665,64dc7c4f1a8da31a47b5d486,,,,,,,ctch,resources/DBN.BMP,resources/DP.BMP,Door4,-0.181811523,0.027126736,1,0,0,0.8839,optionLeft,60,2205,1,42,0,42,0,1,,,,,,,,,,,,,,,,,,,,,,,,,,,,,,,,,,,,,,,
,,,,,,,,2023-08-16_08h35.56.927,HF_wild_card,2022.2.4,MacIntel,59.99520038,59ce3501a5bbdd0001bf45e2,64d2fd46c836a06233681665,64dc7c4f1a8da31a47b5d486,,,,,,,decisionTrl,resources/DP.BMP,resources/DB.BMP,WildCard_NonEx,0.338918728,-0.033284505,1,0,0,1.9317,optionRight,45,2250,1,43,0,43,0,1,,,,,,,,,,,,,,,,,,,,,,,,,,,,,,,,,,,,,,,
,,,,,,,,2023-08-16_08h35.56.927,HF_wild_card,2022.2.4,MacIntel,59.99520038,59ce3501a5bbdd0001bf45e2,64d2fd46c836a06233681665,64dc7c4f1a8da31a47b5d486,,,,,,,,,,,,,,,,,,,,,,,,,,0,0,0,0,1,,,,,,,,,,,,,,,,,,,,,,,,,,,,,,,,,,
,,,,,,,,2023-08-16_08h35.56.927,HF_wild_card,2022.2.4,MacIntel,59.99520038,59ce3501a5bbdd0001bf45e2,64d2fd46c836a06233681665,64dc7c4f1a8da31a47b5d486,,,,,,,sngl,resources/Empty.png,resources/DP.BMP,Door1,0.247859701,-0.076820204,1,0,0,0.9612,optionRight,30,2280,2,0,0,0,0,1,,,,,,,,,,,,,,,,,,,,,,,,,,,,,,,,,,,,,,,
,,,,,,,,2023-08-16_08h35.56.927,HF_wild_card,2022.2.4,MacIntel,59.99520038,59ce3501a5bbdd0001bf45e2,64d2fd46c836a06233681665,64dc7c4f1a8da31a47b5d486,,,,,,,decisionTrl,resources/DG.BMP,resources/DP.BMP,Door1,0.286463759,-0.024460178,1,0,0,1.6981,optionRight,30,2310,2,1,0,1,0,1,,,,,,,,,,,,,,,,,,,,,,,,,,,,,,,,,,,,,,,
,,,,,,,,2023-08-16_08h35.56.927,HF_wild_card,2022.2.4,MacIntel,59.99520038,59ce3501a5bbdd0001bf45e2,64d2fd46c836a06233681665,64dc7c4f1a8da31a47b5d486,,,,,,,decisionTrl,resources/DY.BMP,resources/DBN.BMP,Door4,0.26257053,-0.00546875,1,0,0,0.6154,optionRight,60,2370,2,2,0,2,0,1,,,,,,,,,,,,,,,,,,,,,,,,,,,,,,,,,,,,,,,
,,,,,,,,2023-08-16_08h35.56.927,HF_wild_card,2022.2.4,MacIntel,59.99520038,59ce3501a5bbdd0001bf45e2,64d2fd46c836a06233681665,64dc7c4f1a8da31a47b5d486,,,,,,,sngl,resources/Empty.png,resources/DB.BMP,WildCard_NonEx,0.1779324,-0.004717339,1,0,0,0.8654,optionRight,45,2415,2,3,0,3,0,1,,,,,,,,,,,,,,,,,,,,,,,,,,,,,,,,,,,,,,,
,,,,,,,,2023-08-16_08h35.56.927,HF_wild_card,2022.2.4,MacIntel,59.99520038,59ce3501a5bbdd0001bf45e2,64d2fd46c836a06233681665,64dc7c4f1a8da31a47b5d486,,,,,,,ctch,resources/DY.BMP,resources/DG.BMP,Door3,-0.240326606,0.024243164,1,0,0,1.1842,optionLeft,70,2485,2,4,0,4,0,1,,,,,,,,,,,,,,,,,,,,,,,,,,,,,,,,,,,,,,,
,,,,,,,,2023-08-16_08h35.56.927,HF_wild_card,2022.2.4,MacIntel,59.99520038,59ce3501a5bbdd0001bf45e2,64d2fd46c836a06233681665,64dc7c4f1a8da31a47b5d486,,,,,,,ctch,resources/DG.BMP,resources/DY.BMP,Door3,0.357196723,-0.005582682,1,0,0,0.7661,optionRight,70,2555,2,5,0,5,0,1,,,,,,,,,,,,,,,,,,,,,,,,,,,,,,,,,,,,,,,
,,,,,,,,2023-08-16_08h35.56.927,HF_wild_card,2022.2.4,MacIntel,59.99520038,59ce3501a5bbdd0001bf45e2,64d2fd46c836a06233681665,64dc7c4f1a8da31a47b5d486,,,,,,,sngl,resources/DBN.BMP,resources/Empty.png,Door4,-0.200176324,0.005189345,1,0,0,0.6812,optionLeft,60,2615,2,6,0,6,0,1,,,,,,,,,,,,,,,,,,,,,,,,,,,,,,,,,,,,,,,
,,,,,,,,2023-08-16_08h35.56.927,HF_wild_card,2022.2.4,MacIntel,59.99520038,59ce3501a5bbdd0001bf45e2,64d2fd46c836a06233681665,64dc7c4f1a8da31a47b5d486,,,,,,,sngl,resources/DB.BMP,resources/Empty.png,WildCard_NonEx,-0.224449327,0.011900499,1,0,0,0.7651,optionLeft,45,2660,2,7,0,7,0,1,,,,,,,,,,,,,,,,,,,,,,,,,,,,,,,,,,,,,,,
,,,,,,,,2023-08-16_08h35.56.927,HF_wild_card,2022.2.4,MacIntel,59.99520038,59ce3501a5bbdd0001bf45e2,64d2fd46c836a06233681665,64dc7c4f1a8da31a47b5d486,,,,,,,ctch,resources/DP.BMP,resources/DBN.BMP,Door4,0.330197483,0.00027398,1,0,0,0.7832,optionRight,80,2740,2,8,0,8,0,1,,,,,,,,,,,,,,,,,,,,,,,,,,,,,,,,,,,,,,,
,,,,,,,,2023-08-16_08h35.56.927,HF_wild_card,2022.2.4,MacIntel,59.99520038,59ce3501a5bbdd0001bf45e2,64d2fd46c836a06233681665,64dc7c4f1a8da31a47b5d486,,,,,,,decisionTrl,resources/DP.BMP,resources/DG.BMP,Door1,-0.167103407,0.008848741,1,0,0,1.8657,optionLeft,30,2770,2,9,0,9,0,1,,,,,,,,,,,,,,,,,,,,,,,,,,,,,,,,,,,,,,,
,,,,,,,,2023-08-16_08h35.56.927,HF_wild_card,2022.2.4,MacIntel,59.99520038,59ce3501a5bbdd0001bf45e2,64d2fd46c836a06233681665,64dc7c4f1a8da31a47b5d486,,,,,,,decisionTrl,resources/DB.BMP,resources/DBN.BMP,Door4,0.265429688,0.00897895,1,0,0,0.8301,optionRight,60,2830,2,10,0,10,0,1,,,,,,,,,,,,,,,,,,,,,,,,,,,,,,,,,,,,,,,
,,,,,,,,2023-08-16_08h35.56.927,HF_wild_card,2022.2.4,MacIntel,59.99520038,59ce3501a5bbdd0001bf45e2,64d2fd46c836a06233681665,64dc7c4f1a8da31a47b5d486,,,,,,,sngl,resources/Empty.png,resources/DBN.BMP,Door4,0.246544054,0.012215169,1,0,0,0.6294,optionRight,80,2910,2,11,0,11,0,1,,,,,,,,,,,,,,,,,,,,,,,,,,,,,,,,,,,,,,,
,,,,,,,,2023-08-16_08h35.56.927,HF_wild_card,2022.2.4,MacIntel,59.99520038,59ce3501a5bbdd0001bf45e2,64d2fd46c836a06233681665,64dc7c4f1a8da31a47b5d486,,,,,,,decisionTrl,resources/DY.BMP,resources/DBN.BMP,Door4,0.207703993,0.022018772,1,0,0,0.6327,optionRight,60,2970,2,12,0,12,0,1,,,,,,,,,,,,,,,,,,,,,,,,,,,,,,,,,,,,,,,
,,,,,,,,2023-08-16_08h35.56.927,HF_wild_card,2022.2.4,MacIntel,59.99520038,59ce3501a5bbdd0001bf45e2,64d2fd46c836a06233681665,64dc7c4f1a8da31a47b5d486,,,,,,,decisionTrl,resources/DB.BMP,resources/DP.BMP,Door1,0.226510959,0.019859484,1,0,0,1.2974,optionRight,30,3000,2,13,0,13,0,1,,,,,,,,,,,,,,,,,,,,,,,,,,,,,,,,,,,,,,,
,,,,,,,,2023-08-16_08h35.56.927,HF_wild_card,2022.2.4,MacIntel,59.99520038,59ce3501a5bbdd0001bf45e2,64d2fd46c836a06233681665,64dc7c4f1a8da31a47b5d486,,,,,,,sngl,resources/DY.BMP,resources/Empty.png,Door3,-0.208273655,8.13802E-06,1,0,0,0.914,optionLeft,70,3070,2,14,0,14,0,1,,,,,,,,,,,,,,,,,,,,,,,,,,,,,,,,,,,,,,,
,,,,,,,,2023-08-16_08h35.56.927,HF_wild_card,2022.2.4,MacIntel,59.99520038,59ce3501a5bbdd0001bf45e2,64d2fd46c836a06233681665,64dc7c4f1a8da31a47b5d486,,,,,,,decisionTrl,resources/DY.BMP,resources/DBN.BMP,Door4,0.302183702,-0.013338216,1,0,0,0.7662,optionRight,80,3150,2,15,0,15,0,1,,,,,,,,,,,,,,,,,,,,,,,,,,,,,,,,,,,,,,,
,,,,,,,,2023-08-16_08h35.56.927,HF_wild_card,2022.2.4,MacIntel,59.99520038,59ce3501a5bbdd0001bf45e2,64d2fd46c836a06233681665,64dc7c4f1a8da31a47b5d486,,,,,,,decisionTrl,resources/DBN.BMP,resources/DY.BMP,Door4,-0.313083225,0.015958659,1,0,0,0.882,optionLeft,80,3230,2,16,0,16,0,1,,,,,,,,,,,,,,,,,,,,,,,,,,,,,,,,,,,,,,,
,,,,,,,,2023-08-16_08h35.56.927,HF_wild_card,2022.2.4,MacIntel,59.99520038,59ce3501a5bbdd0001bf45e2,64d2fd46c836a06233681665,64dc7c4f1a8da31a47b5d486,,,,,,,ctch,resources/DY.BMP,resources/DG.BMP,Door3,-0.142466905,0.009909397,1,0,0,0.9813,optionLeft,70,3300,2,17,0,17,0,1,,,,,,,,,,,,,,,,,,,,,,,,,,,,,,,,,,,,,,,
,,,,,,,,2023-08-16_08h35.56.927,HF_wild_card,2022.2.4,MacIntel,59.99520038,59ce3501a5bbdd0001bf45e2,64d2fd46c836a06233681665,64dc7c4f1a8da31a47b5d486,,,,,,,decisionTrl,resources/DG.BMP,resources/DP.BMP,Door1,0.272507053,-0.009985352,1,0,0,2.0473,optionRight,30,3330,2,18,0,18,0,1,,,,,,,,,,,,,,,,,,,,,,,,,,,,,,,,,,,,,,,
,,,,,,,,2023-08-16_08h35.56.927,HF_wild_card,2022.2.4,MacIntel,59.99520038,59ce3501a5bbdd0001bf45e2,64d2fd46c836a06233681665,64dc7c4f1a8da31a47b5d486,,,,,,,ctch,resources/DBN.BMP,resources/DP.BMP,Door4,-0.230721029,0.011146376,1,0,0,0.865,optionLeft,80,3410,2,19,0,19,0,1,,,,,,,,,,,,,,,,,,,,,,,,,,,,,,,,,,,,,,,
,,,,,,,,2023-08-16_08h35.56.927,HF_wild_card,2022.2.4,MacIntel,59.99520038,59ce3501a5bbdd0001bf45e2,64d2fd46c836a06233681665,64dc7c4f1a8da31a47b5d486,,,,,,,decisionTrl,resources/DBN.BMP,resources/DY.BMP,Door4,-0.129760742,0.010080295,1,0,0,0.7993,optionLeft,60,3470,2,20,0,20,0,1,,,,,,,,,,,,,,,,,,,,,,,,,,,,,,,,,,,,,,,
,,,,,,,,2023-08-16_08h35.56.927,HF_wild_card,2022.2.4,MacIntel,59.99520038,59ce3501a5bbdd0001bf45e2,64d2fd46c836a06233681665,64dc7c4f1a8da31a47b5d486,,,,,,,decisionTrl,resources/DY.BMP,resources/DBN.BMP,Door4,0.289775933,-0.016444227,1,0,0,0.9983,optionRight,80,3550,2,21,0,21,0,1,,,,,,,,,,,,,,,,,,,,,,,,,,,,,,,,,,,,,,,
,,,,,,,,2023-08-16_08h35.56.927,HF_wild_card,2022.2.4,MacIntel,59.99520038,59ce3501a5bbdd0001bf45e2,64d2fd46c836a06233681665,64dc7c4f1a8da31a47b5d486,,,,,,,ctch,resources/DBN.BMP,resources/DP.BMP,Door4,-0.209144423,0.025415039,1,0,0,1.147,optionLeft,80,3630,2,22,0,22,0,1,,,,,,,,,,,,,,,,,,,,,,,,,,,,,,,,,,,,,,,
,,,,,,,,2023-08-16_08h35.56.927,HF_wild_card,2022.2.4,MacIntel,59.99520038,59ce3501a5bbdd0001bf45e2,64d2fd46c836a06233681665,64dc7c4f1a8da31a47b5d486,,,,,,,sngl,resources/DG.BMP,resources/Empty.png,Door2,-0.172116428,0.030723741,1,0,0,0.8328,optionLeft,20,3650,2,23,0,23,0,1,,,,,,,,,,,,,,,,,,,,,,,,,,,,,,,,,,,,,,,
,,,,,,,,2023-08-16_08h35.56.927,HF_wild_card,2022.2.4,MacIntel,59.99520038,59ce3501a5bbdd0001bf45e2,64d2fd46c836a06233681665,64dc7c4f1a8da31a47b5d486,,,,,,,sngl,resources/DB.BMP,resources/Empty.png,WildCard_NonEx,-0.20433214,0.035213216,1,0,0,0.6987,optionLeft,55,3705,2,24,0,24,0,1,,,,,,,,,,,,,,,,,,,,,,,,,,,,,,,,,,,,,,,
,,,,,,,,2023-08-16_08h35.56.927,HF_wild_card,2022.2.4,MacIntel,59.99520038,59ce3501a5bbdd0001bf45e2,64d2fd46c836a06233681665,64dc7c4f1a8da31a47b5d486,,,,,,,sngl,resources/Empty.png,resources/DG.BMP,Door2,0.266587999,-0.022450087,1,0,0,0.7816,optionRight,40,3745,2,25,0,25,0,1,,,,,,,,,,,,,,,,,,,,,,,,,,,,,,,,,,,,,,,
,,,,,,,,2023-08-16_08h35.56.927,HF_wild_card,2022.2.4,MacIntel,59.99520038,59ce3501a5bbdd0001bf45e2,64d2fd46c836a06233681665,64dc7c4f1a8da31a47b5d486,,,,,,,sngl,resources/Empty.png,resources/DY.BMP,Door3,0.246321615,-0.02539605,1,0,0,0.7131,optionRight,70,3815,2,26,0,26,0,1,,,,,,,,,,,,,,,,,,,,,,,,,,,,,,,,,,,,,,,
,,,,,,,,2023-08-16_08h35.56.927,HF_wild_card,2022.2.4,MacIntel,59.99520038,59ce3501a5bbdd0001bf45e2,64d2fd46c836a06233681665,64dc7c4f1a8da31a47b5d486,,,,,,,sngl,resources/DP.BMP,resources/Empty.png,Door1,-0.191216363,0.013859049,1,0,0,0.8817,optionLeft,30,3845,2,27,0,27,0,1,,,,,,,,,,,,,,,,,,,,,,,,,,,,,,,,,,,,,,,
,,,,,,,,2023-08-16_08h35.56.927,HF_wild_card,2022.2.4,MacIntel,59.99520038,59ce3501a5bbdd0001bf45e2,64d2fd46c836a06233681665,64dc7c4f1a8da31a47b5d486,,,,,,,decisionTrl,resources/DB.BMP,resources/DG.BMP,WildCard_NonEx,-0.135093859,0.005900065,1,0,0,1.3794,optionLeft,55,3900,2,28,0,28,0,1,,,,,,,,,,,,,,,,,,,,,,,,,,,,,,,,,,,,,,,
,,,,,,,,2023-08-16_08h35.56.927,HF_wild_card,2022.2.4,MacIntel,59.99520038,59ce3501a5bbdd0001bf45e2,64d2fd46c836a06233681665,64dc7c4f1a8da31a47b5d486,,,,,,,decisionTrl,resources/DY.BMP,resources/DB.BMP,Door3,-0.232489692,0.011610243,1,0,0,0.8479,optionLeft,70,3970,2,29,0,29,0,1,,,,,,,,,,,,,,,,,,,,,,,,,,,,,,,,,,,,,,,
,,,,,,,,2023-08-16_08h35.56.927,HF_wild_card,2022.2.4,MacIntel,59.99520038,59ce3501a5bbdd0001bf45e2,64d2fd46c836a06233681665,64dc7c4f1a8da31a47b5d486,,,,,,,decisionTrl,resources/DBN.BMP,resources/DY.BMP,Door4,-0.239000109,0.016905382,1,0,0,1.0126,optionLeft,60,4030,2,30,0,30,0,1,,,,,,,,,,,,,,,,,,,,,,,,,,,,,,,,,,,,,,,
,,,,,,,,2023-08-16_08h35.56.927,HF_wild_card,2022.2.4,MacIntel,59.99520038,59ce3501a5bbdd0001bf45e2,64d2fd46c836a06233681665,64dc7c4f1a8da31a47b5d486,,,,,,,decisionTrl,resources/DP.BMP,resources/DB.BMP,Door1,-0.130080838,-0.007961697,1,0,0,1.6149,optionLeft,30,4060,2,31,0,31,0,1,,,,,,,,,,,,,,,,,,,,,,,,,,,,,,,,,,,,,,,
,,,,,,,,2023-08-16_08h35.56.927,HF_wild_card,2022.2.4,MacIntel,59.99520038,59ce3501a5bbdd0001bf45e2,64d2fd46c836a06233681665,64dc7c4f1a8da31a47b5d486,,,,,,,decisionTrl,resources/DP.BMP,resources/DG.BMP,Door2,0.258962674,-0.019086372,1,0,0,1.1634,optionRight,40,4100,2,32,0,32,0,1,,,,,,,,,,,,,,,,,,,,,,,,,,,,,,,,,,,,,,,
,,,,,,,,2023-08-16_08h35.56.927,HF_wild_card,2022.2.4,MacIntel,59.99520038,59ce3501a5bbdd0001bf45e2,64d2fd46c836a06233681665,64dc7c4f1a8da31a47b5d486,,,,,,,decisionTrl,resources/DG.BMP,resources/DB.BMP,Door2,-0.263072374,-0.012679036,1,0,0,1.1964,optionLeft,20,4120,2,33,0,33,0,1,,,,,,,,,,,,,,,,,,,,,,,,,,,,,,,,,,,,,,,
,,,,,,,,2023-08-16_08h35.56.927,HF_wild_card,2022.2.4,MacIntel,59.99520038,59ce3501a5bbdd0001bf45e2,64d2fd46c836a06233681665,64dc7c4f1a8da31a47b5d486,,,,,,,decisionTrl,resources/DBN.BMP,resources/DY.BMP,Door4,-0.180007595,-0.00812717,1,0,0,0.7642,optionLeft,80,4200,2,34,0,34,0,1,,,,,,,,,,,,,,,,,,,,,,,,,,,,,,,,,,,,,,,
,,,,,,,,2023-08-16_08h35.56.927,HF_wild_card,2022.2.4,MacIntel,59.99520038,59ce3501a5bbdd0001bf45e2,64d2fd46c836a06233681665,64dc7c4f1a8da31a47b5d486,,,,,,,ctch,resources/DP.BMP,resources/DBN.BMP,Door4,0.286143663,-0.031643338,1,0,0,0.7153,optionRight,80,4280,2,35,0,35,0,1,,,,,,,,,,,,,,,,,,,,,,,,,,,,,,,,,,,,,,,
,,,,,,,,2023-08-16_08h35.56.927,HF_wild_card,2022.2.4,MacIntel,59.99520038,59ce3501a5bbdd0001bf45e2,64d2fd46c836a06233681665,64dc7c4f1a8da31a47b5d486,,,,,,,ctch,resources/DG.BMP,resources/DY.BMP,Door3,0.178982205,-0.033642578,1,0,0,0.7809,optionRight,70,4350,2,36,0,36,0,1,,,,,,,,,,,,,,,,,,,,,,,,,,,,,,,,,,,,,,,
,,,,,,,,2023-08-16_08h35.56.927,HF_wild_card,2022.2.4,MacIntel,59.99520038,59ce3501a5bbdd0001bf45e2,64d2fd46c836a06233681665,64dc7c4f1a8da31a47b5d486,,,,,,,decisionTrl,resources/DG.BMP,resources/DP.BMP,Door1,0.290142144,-0.04754503,1,0,0,2.3667,optionRight,30,4380,2,37,0,37,0,1,,,,,,,,,,,,,,,,,,,,,,,,,,,,,,,,,,,,,,,
,,,,,,,,2023-08-16_08h35.56.927,HF_wild_card,2022.2.4,MacIntel,59.99520038,59ce3501a5bbdd0001bf45e2,64d2fd46c836a06233681665,64dc7c4f1a8da31a47b5d486,,,,,,,decisionTrl,resources/DG.BMP,resources/DP.BMP,Door2,-0.219555664,0.006917318,1,0,0,1.0983,optionLeft,20,4400,2,38,0,38,0,1,,,,,,,,,,,,,,,,,,,,,,,,,,,,,,,,,,,,,,,
,,,,,,,,2023-08-16_08h35.56.927,HF_wild_card,2022.2.4,MacIntel,59.99520038,59ce3501a5bbdd0001bf45e2,64d2fd46c836a06233681665,64dc7c4f1a8da31a47b5d486,,,,,,,decisionTrl,resources/DP.BMP,resources/DG.BMP,Door2,0.365660265,-0.046435547,1,0,0,1.6987,optionRight,20,4420,2,39,0,39,0,1,,,,,,,,,,,,,,,,,,,,,,,,,,,,,,,,,,,,,,,
,,,,,,,,2023-08-16_08h35.56.927,HF_wild_card,2022.2.4,MacIntel,59.99520038,59ce3501a5bbdd0001bf45e2,64d2fd46c836a06233681665,64dc7c4f1a8da31a47b5d486,,,,,,,decisionTrl,resources/DBN.BMP,resources/DB.BMP,Door4,-0.262171766,0.027916124,1,0,0,1.0316,optionLeft,60,4480,2,40,0,40,0,1,,,,,,,,,,,,,,,,,,,,,,,,,,,,,,,,,,,,,,,
,,,,,,,,2023-08-16_08h35.56.927,HF_wild_card,2022.2.4,MacIntel,59.99520038,59ce3501a5bbdd0001bf45e2,64d2fd46c836a06233681665,64dc7c4f1a8da31a47b5d486,,,,,,,decisionTrl,resources/DP.BMP,resources/DG.BMP,Door1,-0.251527235,0.022439236,1,0,0,1.8651,optionLeft,30,4510,2,41,0,41,0,1,,,,,,,,,,,,,,,,,,,,,,,,,,,,,,,,,,,,,,,
,,,,,,,,2023-08-16_08h35.56.927,HF_wild_card,2022.2.4,MacIntel,59.99520038,59ce3501a5bbdd0001bf45e2,64d2fd46c836a06233681665,64dc7c4f1a8da31a47b5d486,,,,,,,decisionTrl,resources/DB.BMP,resources/DY.BMP,Door3,0.25241428,-0.025160048,1,0,0,0.9972,optionRight,70,4580,2,42,0,42,0,1,,,,,,,,,,,,,,,,,,,,,,,,,,,,,,,,,,,,,,,
,,,,,,,,2023-08-16_08h35.56.927,HF_wild_card,2022.2.4,MacIntel,59.99520038,59ce3501a5bbdd0001bf45e2,64d2fd46c836a06233681665,64dc7c4f1a8da31a47b5d486,,,,,,,sngl,resources/Empty.png,resources/DB.BMP,WildCard_NonEx,0.136621094,-0.011062283,1,0,0,0.9483,optionRight,55,4635,2,43,0,43,0,1,,,,,,,,,,,,,,,,,,,,,,,,,,,,,,,,,,,,,,,
,,,,,,,,2023-08-16_08h35.56.927,HF_wild_card,2022.2.4,MacIntel,59.99520038,59ce3501a5bbdd0001bf45e2,64d2fd46c836a06233681665,64dc7c4f1a8da31a47b5d486,,,,,,,,,,,,,,,,,,,,,,,,,,1,0,1,0,1,,,,,,,,,,,,,,,,,,,,,,,,,,,,,,,,,,
,,,,,,,,2023-08-16_08h35.56.927,HF_wild_card,2022.2.4,MacIntel,59.99520038,59ce3501a5bbdd0001bf45e2,64d2fd46c836a06233681665,64dc7c4f1a8da31a47b5d486,,,,,,,sngl,resources/Empty.png,resources/DB.BMP,WildCard_NonEx,0.243858507,-0.183078342,1,0,0,0.9535,optionRight,55,4690,3,0,0,0,0,1,,,,,,,,,,,,,,,,,,,,,,,,,,,,,,,,,,,,,,,
,,,,,,,,2023-08-16_08h35.56.927,HF_wild_card,2022.2.4,MacIntel,59.99520038,59ce3501a5bbdd0001bf45e2,64d2fd46c836a06233681665,64dc7c4f1a8da31a47b5d486,,,,,,,decisionTrl,resources/DP.BMP,resources/DG.BMP,Door1,-0.182126194,-0.001274957,1,0,0,1.6479,optionLeft,30,4720,3,1,0,1,0,1,,,,,,,,,,,,,,,,,,,,,,,,,,,,,,,,,,,,,,,
,,,,,,,,2023-08-16_08h35.56.927,HF_wild_card,2022.2.4,MacIntel,59.99520038,59ce3501a5bbdd0001bf45e2,64d2fd46c836a06233681665,64dc7c4f1a8da31a47b5d486,,,,,,,decisionTrl,resources/DG.BMP,resources/DP.BMP,Door1,0.246649848,-0.037209744,1,0,0,0.9146,optionRight,30,4750,3,2,0,2,0,1,,,,,,,,,,,,,,,,,,,,,,,,,,,,,,,,,,,,,,,
,,,,,,,,2023-08-16_08h35.56.927,HF_wild_card,2022.2.4,MacIntel,59.99520038,59ce3501a5bbdd0001bf45e2,64d2fd46c836a06233681665,64dc7c4f1a8da31a47b5d486,,,,,,,decisionTrl,resources/DB.BMP,resources/DY.BMP,Door3,0.227840169,-0.040486654,1,0,0,1.0307,optionRight,70,4820,3,3,0,3,0,1,,,,,,,,,,,,,,,,,,,,,,,,,,,,,,,,,,,,,,,
,,,,,,,,2023-08-16_08h35.56.927,HF_wild_card,2022.2.4,MacIntel,59.99520038,59ce3501a5bbdd0001bf45e2,64d2fd46c836a06233681665,64dc7c4f1a8da31a47b5d486,,,,,,,decisionTrl,resources/DP.BMP,resources/DG.BMP,Door1,-0.19273546,-0.005552843,1,0,0,1.2182,optionLeft,30,4850,3,4,0,4,0,1,,,,,,,,,,,,,,,,,,,,,,,,,,,,,,,,,,,,,,,
,,,,,,,,2023-08-16_08h35.56.927,HF_wild_card,2022.2.4,MacIntel,59.99520038,59ce3501a5bbdd0001bf45e2,64d2fd46c836a06233681665,64dc7c4f1a8da31a47b5d486,,,,,,,sngl,resources/DG.BMP,resources/Empty.png,Door2,-0.162768555,-0.002398003,1,0,0,0.7838,optionLeft,40,4890,3,5,0,5,0,1,,,,,,,,,,,,,,,,,,,,,,,,,,,,,,,,,,,,,,,
,,,,,,,,2023-08-16_08h35.56.927,HF_wild_card,2022.2.4,MacIntel,59.99520038,59ce3501a5bbdd0001bf45e2,64d2fd46c836a06233681665,64dc7c4f1a8da31a47b5d486,,,,,,,sngl,resources/DB.BMP,resources/Empty.png,WildCard_NonEx,-0.17594401,-0.009258355,1,0,0,0.7491,optionLeft,55,4945,3,6,0,6,0,1,,,,,,,,,,,,,,,,,,,,,,,,,,,,,,,,,,,,,,,
,,,,,,,,2023-08-16_08h35.56.927,HF_wild_card,2022.2.4,MacIntel,59.99520038,59ce3501a5bbdd0001bf45e2,64d2fd46c836a06233681665,64dc7c4f1a8da31a47b5d486,,,,,,,decisionTrl,resources/DY.BMP,resources/DBN.BMP,Door4,0.232638889,-0.035617405,1,0,0,0.6483,optionRight,80,5025,3,7,0,7,0,1,,,,,,,,,,,,,,,,,,,,,,,,,,,,,,,,,,,,,,,
,,,,,,,,2023-08-16_08h35.56.927,HF_wild_card,2022.2.4,MacIntel,59.99520038,59ce3501a5bbdd0001bf45e2,64d2fd46c836a06233681665,64dc7c4f1a8da31a47b5d486,,,,,,,decisionTrl,resources/DBN.BMP,resources/DY.BMP,Door4,-0.142822266,0.004722765,1,0,0,0.8976,optionLeft,60,5085,3,8,0,8,0,1,,,,,,,,,,,,,,,,,,,,,,,,,,,,,,,,,,,,,,,
,,,,,,,,2023-08-16_08h35.56.927,HF_wild_card,2022.2.4,MacIntel,59.99520038,59ce3501a5bbdd0001bf45e2,64d2fd46c836a06233681665,64dc7c4f1a8da31a47b5d486,,,,,,,sngl,resources/DP.BMP,resources/Empty.png,Door1,-0.187860786,0.006239149,1,0,0,0.8152,optionLeft,30,5115,3,9,0,9,0,1,,,,,,,,,,,,,,,,,,,,,,,,,,,,,,,,,,,,,,,
,,,,,,,,2023-08-16_08h35.56.927,HF_wild_card,2022.2.4,MacIntel,59.99520038,59ce3501a5bbdd0001bf45e2,64d2fd46c836a06233681665,64dc7c4f1a8da31a47b5d486,,,,,,,ctch,resources/DG.BMP,resources/DY.BMP,Door3,0.179370117,-0.01461046,1,0,0,0.7957,optionRight,70,5185,3,10,0,10,0,1,,,,,,,,,,,,,,,,,,,,,,,,,,,,,,,,,,,,,,,
,,,,,,,,2023-08-16_08h35.56.927,HF_wild_card,2022.2.4,MacIntel,59.99520038,59ce3501a5bbdd0001bf45e2,64d2fd46c836a06233681665,64dc7c4f1a8da31a47b5d486,,,,,,,decisionTrl,resources/DY.BMP,resources/DBN.BMP,Door4,0.252332899,-0.013547092,1,0,0,0.8166,optionRight,60,5245,3,11,0,11,0,1,,,,,,,,,,,,,,,,,,,,,,,,,,,,,,,,,,,,,,,
,,,,,,,,2023-08-16_08h35.56.927,HF_wild_card,2022.2.4,MacIntel,59.99520038,59ce3501a5bbdd0001bf45e2,64d2fd46c836a06233681665,64dc7c4f1a8da31a47b5d486,,,,,,,decisionTrl,resources/DY.BMP,resources/DBN.BMP,Door4,0.258232964,-0.016661241,1,0,0,1.1331,optionRight,80,5325,3,12,0,12,0,1,,,,,,,,,,,,,,,,,,,,,,,,,,,,,,,,,,,,,,,
,,,,,,,,2023-08-16_08h35.56.927,HF_wild_card,2022.2.4,MacIntel,59.99520038,59ce3501a5bbdd0001bf45e2,64d2fd46c836a06233681665,64dc7c4f1a8da31a47b5d486,,,,,,,ctch,resources/DBN.BMP,resources/DP.BMP,Door4,-0.220263672,0.015288628,1,0,0,0.7316,optionLeft,80,5405,3,13,0,13,0,1,,,,,,,,,,,,,,,,,,,,,,,,,,,,,,,,,,,,,,,
,,,,,,,,2023-08-16_08h35.56.927,HF_wild_card,2022.2.4,MacIntel,59.99520038,59ce3501a5bbdd0001bf45e2,64d2fd46c836a06233681665,64dc7c4f1a8da31a47b5d486,,,,,,,ctch,resources/DY.BMP,resources/DG.BMP,Door3,-0.124319119,0.022498915,1,0,0,0.8985,optionLeft,70,5475,3,14,0,14,0,1,,,,,,,,,,,,,,,,,,,,,,,,,,,,,,,,,,,,,,,
,,,,,,,,2023-08-16_08h35.56.927,HF_wild_card,2022.2.4,MacIntel,59.99520038,59ce3501a5bbdd0001bf45e2,64d2fd46c836a06233681665,64dc7c4f1a8da31a47b5d486,,,,,,,sngl,resources/Empty.png,resources/DG.BMP,Door2,0.210595703,0.001150174,1,0,0,0.7656,optionRight,20,5495,3,15,0,15,0,1,,,,,,,,,,,,,,,,,,,,,,,,,,,,,,,,,,,,,,,
,,,,,,,,2023-08-16_08h35.56.927,HF_wild_card,2022.2.4,MacIntel,59.99520038,59ce3501a5bbdd0001bf45e2,64d2fd46c836a06233681665,64dc7c4f1a8da31a47b5d486,,,,,,,decisionTrl,resources/DBN.BMP,resources/DY.BMP,Door4,-0.138452148,0.010877821,1,0,0,0.7478,optionLeft,60,5555,3,16,0,16,0,1,,,,,,,,,,,,,,,,,,,,,,,,,,,,,,,,,,,,,,,
,,,,,,,,2023-08-16_08h35.56.927,HF_wild_card,2022.2.4,MacIntel,59.99520038,59ce3501a5bbdd0001bf45e2,64d2fd46c836a06233681665,64dc7c4f1a8da31a47b5d486,,,,,,,decisionTrl,resources/DG.BMP,resources/DP.BMP,Door1,0.204684787,0.006578234,1,0,0,1.4139,optionRight,30,5585,3,17,0,17,0,1,,,,,,,,,,,,,,,,,,,,,,,,,,,,,,,,,,,,,,,
,,,,,,,,2023-08-16_08h35.56.927,HF_wild_card,2022.2.4,MacIntel,59.99520038,59ce3501a5bbdd0001bf45e2,64d2fd46c836a06233681665,64dc7c4f1a8da31a47b5d486,,,,,,,decisionTrl,resources/DP.BMP,resources/DG.BMP,Door1,-0.222517904,0.016813151,1,0,0,1.0495,optionLeft,30,5615,3,18,0,18,0,1,,,,,,,,,,,,,,,,,,,,,,,,,,,,,,,,,,,,,,,
,,,,,,,,2023-08-16_08h35.56.927,HF_wild_card,2022.2.4,MacIntel,59.99520038,59ce3501a5bbdd0001bf45e2,64d2fd46c836a06233681665,64dc7c4f1a8da31a47b5d486,,,,,,,sngl,resources/Empty.png,resources/DBN.BMP,Door4,0.228477648,-0.009724935,1,0,0,0.7149,optionRight,60,5675,3,19,0,19,0,1,,,,,,,,,,,,,,,,,,,,,,,,,,,,,,,,,,,,,,,
,,,,,,,,2023-08-16_08h35.56.927,HF_wild_card,2022.2.4,MacIntel,59.99520038,59ce3501a5bbdd0001bf45e2,64d2fd46c836a06233681665,64dc7c4f1a8da31a47b5d486,,,,,,,decisionTrl,resources/DB.BMP,resources/DG.BMP,WildCard_NonEx,-0.135888672,0.019471571,1,0,0,1.6148,optionLeft,45,5720,3,20,0,20,0,1,,,,,,,,,,,,,,,,,,,,,,,,,,,,,,,,,,,,,,,
,,,,,,,,2023-08-16_08h35.56.927,HF_wild_card,2022.2.4,MacIntel,59.99520038,59ce3501a5bbdd0001bf45e2,64d2fd46c836a06233681665,64dc7c4f1a8da31a47b5d486,,,,,,,ctch,resources/DG.BMP,resources/DY.BMP,Door3,0.204926215,-0.007354058,1,0,0,0.9297,optionRight,70,5790,3,21,0,21,0,1,,,,,,,,,,,,,,,,,,,,,,,,,,,,,,,,,,,,,,,
,,,,,,,,2023-08-16_08h35.56.927,HF_wild_card,2022.2.4,MacIntel,59.99520038,59ce3501a5bbdd0001bf45e2,64d2fd46c836a06233681665,64dc7c4f1a8da31a47b5d486,,,,,,,decisionTrl,resources/DG.BMP,resources/DP.BMP,Door1,0.196942817,0.000908746,1,0,0,1.6835,optionRight,30,5820,3,22,0,22,0,1,,,,,,,,,,,,,,,,,,,,,,,,,,,,,,,,,,,,,,,
,,,,,,,,2023-08-16_08h35.56.927,HF_wild_card,2022.2.4,MacIntel,59.99520038,59ce3501a5bbdd0001bf45e2,64d2fd46c836a06233681665,64dc7c4f1a8da31a47b5d486,,,,,,,decisionTrl,resources/DB.BMP,resources/DBN.BMP,Door4,0.208892144,-0.001310221,1,0,0,0.8811,optionRight,60,5880,3,23,0,23,0,1,,,,,,,,,,,,,,,,,,,,,,,,,,,,,,,,,,,,,,,
,,,,,,,,2023-08-16_08h35.56.927,HF_wild_card,2022.2.4,MacIntel,59.99520038,59ce3501a5bbdd0001bf45e2,64d2fd46c836a06233681665,64dc7c4f1a8da31a47b5d486,,,,,,,decisionTrl,resources/DBN.BMP,resources/DB.BMP,Door4,-0.233886719,0.012790256,1,0,0,0.6823,optionLeft,80,5960,3,24,0,24,0,1,,,,,,,,,,,,,,,,,,,,,,,,,,,,,,,,,,,,,,,
,,,,,,,,2023-08-16_08h35.56.927,HF_wild_card,2022.2.4,MacIntel,59.99520038,59ce3501a5bbdd0001bf45e2,64d2fd46c836a06233681665,64dc7c4f1a8da31a47b5d486,,,,,,,sngl,resources/DB.BMP,resources/Empty.png,WildCard_NonEx,-0.207096354,0.037353516,1,0,0,0.7816,optionLeft,45,6005,3,25,0,25,0,1,,,,,,,,,,,,,,,,,,,,,,,,,,,,,,,,,,,,,,,
,,,,,,,,2023-08-16_08h35.56.927,HF_wild_card,2022.2.4,MacIntel,59.99520038,59ce3501a5bbdd0001bf45e2,64d2fd46c836a06233681665,64dc7c4f1a8da31a47b5d486,,,,,,,ctch,resources/DP.BMP,resources/DBN.BMP,Door4,0.175626628,-0.00671658,1,0,0,0.6819,optionRight,80,6085,3,26,0,26,0,1,,,,,,,,,,,,,,,,,,,,,,,,,,,,,,,,,,,,,,,
,,,,,,,,2023-08-16_08h35.56.927,HF_wild_card,2022.2.4,MacIntel,59.99520038,59ce3501a5bbdd0001bf45e2,64d2fd46c836a06233681665,64dc7c4f1a8da31a47b5d486,,,,,,,ctch,resources/DY.BMP,resources/DG.BMP,Door3,-0.15245497,0.001519097,1,0,0,0.8824,optionLeft,70,6155,3,27,0,27,0,1,,,,,,,,,,,,,,,,,,,,,,,,,,,,,,,,,,,,,,,
,,,,,,,,2023-08-16_08h35.56.927,HF_wild_card,2022.2.4,MacIntel,59.99520038,59ce3501a5bbdd0001bf45e2,64d2fd46c836a06233681665,64dc7c4f1a8da31a47b5d486,,,,,,,decisionTrl,resources/DBN.BMP,resources/DY.BMP,Door4,-0.149039714,0.014526367,1,0,0,0.832,optionLeft,80,6235,3,28,0,28,0,1,,,,,,,,,,,,,,,,,,,,,,,,,,,,,,,,,,,,,,,
,,,,,,,,2023-08-16_08h35.56.927,HF_wild_card,2022.2.4,MacIntel,59.99520038,59ce3501a5bbdd0001bf45e2,64d2fd46c836a06233681665,64dc7c4f1a8da31a47b5d486,,,,,,,sngl,resources/Empty.png,resources/DP.BMP,Door1,0.222474501,0.006475152,1,0,0,0.7327,optionRight,30,6265,3,29,0,29,0,1,,,,,,,,,,,,,,,,,,,,,,,,,,,,,,,,,,,,,,,
,,,,,,,,2023-08-16_08h35.56.927,HF_wild_card,2022.2.4,MacIntel,59.99520038,59ce3501a5bbdd0001bf45e2,64d2fd46c836a06233681665,64dc7c4f1a8da31a47b5d486,,,,,,,decisionTrl,resources/DP.BMP,resources/DB.BMP,WildCard_NonEx,0.233501519,-0.004465061,1,0,0,1.4328,optionRight,55,6320,3,30,0,30,0,1,,,,,,,,,,,,,,,,,,,,,,,,,,,,,,,,,,,,,,,
,,,,,,,,2023-08-16_08h35.56.927,HF_wild_card,2022.2.4,MacIntel,59.99520038,59ce3501a5bbdd0001bf45e2,64d2fd46c836a06233681665,64dc7c4f1a8da31a47b5d486,,,,,,,sngl,resources/DBN.BMP,resources/Empty.png,Door4,-0.169574653,0.027460395,1,0,0,0.7481,optionLeft,80,6400,3,31,0,31,0,1,,,,,,,,,,,,,,,,,,,,,,,,,,,,,,,,,,,,,,,
,,,,,,,,2023-08-16_08h35.56.927,HF_wild_card,2022.2.4,MacIntel,59.99520038,59ce3501a5bbdd0001bf45e2,64d2fd46c836a06233681665,64dc7c4f1a8da31a47b5d486,,,,,,,decisionTrl,resources/DG.BMP,resources/DB.BMP,WildCard_NonEx,0.224712457,0.000808377,1,0,0,1.1474,optionRight,55,6455,3,32,0,32,0,1,,,,,,,,,,,,,,,,,,,,,,,,,,,,,,,,,,,,,,,
,,,,,,,,2023-08-16_08h35.56.927,HF_wild_card,2022.2.4,MacIntel,59.99520038,59ce3501a5bbdd0001bf45e2,64d2fd46c836a06233681665,64dc7c4f1a8da31a47b5d486,,,,,,,sngl,resources/Empty.png,resources/DB.BMP,WildCard_NonEx,0.177929687,0.01237793,1,0,0,0.6145,optionRight,45,6500,3,33,0,33,0,1,,,,,,,,,,,,,,,,,,,,,,,,,,,,,,,,,,,,,,,
,,,,,,,,2023-08-16_08h35.56.927,HF_wild_card,2022.2.4,MacIntel,59.99520038,59ce3501a5bbdd0001bf45e2,64d2fd46c836a06233681665,64dc7c4f1a8da31a47b5d486,,,,,,,ctch,resources/DP.BMP,resources/DBN.BMP,Door4,0.180577257,0.018470595,1,0,0,0.6473,optionRight,60,6560,3,34,0,34,0,1,,,,,,,,,,,,,,,,,,,,,,,,,,,,,,,,,,,,,,,
,,,,,,,,2023-08-16_08h35.56.927,HF_wild_card,2022.2.4,MacIntel,59.99520038,59ce3501a5bbdd0001bf45e2,64d2fd46c836a06233681665,64dc7c4f1a8da31a47b5d486,,,,,,,ctch,resources/DBN.BMP,resources/DP.BMP,Door4,-0.183775499,0.019162326,1,0,0,0.948,optionLeft,80,6640,3,35,0,35,0,1,,,,,,,,,,,,,,,,,,,,,,,,,,,,,,,,,,,,,,,
,,,,,,,,2023-08-16_08h35.56.927,HF_wild_card,2022.2.4,MacIntel,59.99520038,59ce3501a5bbdd0001bf45e2,64d2fd46c836a06233681665,64dc7c4f1a8da31a47b5d486,,,,,,,decisionTrl,resources/DBN.BMP,resources/DY.BMP,Door3,0.221812609,0.017749023,1,0,0,3.6982,optionRight,70,6710,3,36,0,36,0,1,,,,,,,,,,,,,,,,,,,,,,,,,,,,,,,,,,,,,,,
,,,,,,,,2023-08-16_08h35.56.927,HF_wild_card,2022.2.4,MacIntel,59.99520038,59ce3501a5bbdd0001bf45e2,64d2fd46c836a06233681665,64dc7c4f1a8da31a47b5d486,,,,,,,decisionTrl,resources/DB.BMP,resources/DP.BMP,WildCard_NonEx,-0.127492947,0.033148872,1,0,0,1.3985,optionLeft,55,6765,3,37,0,37,0,1,,,,,,,,,,,,,,,,,,,,,,,,,,,,,,,,,,,,,,,
,,,,,,,,2023-08-16_08h35.56.927,HF_wild_card,2022.2.4,MacIntel,59.99520038,59ce3501a5bbdd0001bf45e2,64d2fd46c836a06233681665,64dc7c4f1a8da31a47b5d486,,,,,,,sngl,resources/DY.BMP,resources/Empty.png,Door3,-0.2105523,0.044905599,1,0,0,0.7145,optionLeft,70,6835,3,38,0,38,0,1,,,,,,,,,,,,,,,,,,,,,,,,,,,,,,,,,,,,,,,
,,,,,,,,2023-08-16_08h35.56.927,HF_wild_card,2022.2.4,MacIntel,59.99520038,59ce3501a5bbdd0001bf45e2,64d2fd46c836a06233681665,64dc7c4f1a8da31a47b5d486,,,,,,,decisionTrl,resources/DP.BMP,resources/DG.BMP,Door1,-0.136461046,0.011773003,1,0,0,2.0473,optionLeft,30,6865,3,39,0,39,0,1,,,,,,,,,,,,,,,,,,,,,,,,,,,,,,,,,,,,,,,
,,,,,,,,2023-08-16_08h35.56.927,HF_wild_card,2022.2.4,MacIntel,59.99520038,59ce3501a5bbdd0001bf45e2,64d2fd46c836a06233681665,64dc7c4f1a8da31a47b5d486,,,,,,,sngl,resources/Empty.png,resources/DY.BMP,Door3,0.249937609,-0.02698839,1,0,0,0.6965,optionRight,70,6935,3,40,0,40,0,1,,,,,,,,,,,,,,,,,,,,,,,,,,,,,,,,,,,,,,,
,,,,,,,,2023-08-16_08h35.56.927,HF_wild_card,2022.2.4,MacIntel,59.99520038,59ce3501a5bbdd0001bf45e2,64d2fd46c836a06233681665,64dc7c4f1a8da31a47b5d486,,,,,,,decisionTrl,resources/DY.BMP,resources/DB.BMP,Door3,-0.143733724,0.022802734,1,0,0,0.8818,optionLeft,70,7005,3,41,0,41,0,1,,,,,,,,,,,,,,,,,,,,,,,,,,,,,,,,,,,,,,,
,,,,,,,,2023-08-16_08h35.56.927,HF_wild_card,2022.2.4,MacIntel,59.99520038,59ce3501a5bbdd0001bf45e2,64d2fd46c836a06233681665,64dc7c4f1a8da31a47b5d486,,,,,,,decisionTrl,resources/DG.BMP,resources/DP.BMP,Door2,-0.117900933,0.024994575,1,0,0,1.6653,optionLeft,40,7045,3,42,0,42,0,1,,,,,,,,,,,,,,,,,,,,,,,,,,,,,,,,,,,,,,,
,,,,,,,,2023-08-16_08h35.56.927,HF_wild_card,2022.2.4,MacIntel,59.99520038,59ce3501a5bbdd0001bf45e2,64d2fd46c836a06233681665,64dc7c4f1a8da31a47b5d486,,,,,,,decisionTrl,resources/DY.BMP,resources/DBN.BMP,Door4,0.194854058,-0.001133898,1,0,0,1.3131,optionRight,80,7125,3,43,0,43,0,1,,,,,,,,,,,,,,,,,,,,,,,,,,,,,,,,,,,,,,,
,,,,,,,,2023-08-16_08h35.56.927,HF_wild_card,2022.2.4,MacIntel,59.99520038,59ce3501a5bbdd0001bf45e2,64d2fd46c836a06233681665,64dc7c4f1a8da31a47b5d486,,,,,,,,,,,,,,,,,,,,,,,,,,2,0,2,0,1,,,,,,,,,,,,,,,,,,,,,,,,,,,,,,,,,,
,,,,,,,,2023-08-16_08h35.56.927,HF_wild_card,2022.2.4,MacIntel,59.99520038,59ce3501a5bbdd0001bf45e2,64d2fd46c836a06233681665,64dc7c4f1a8da31a47b5d486,,,,,,,decisionTrl,resources/DP.BMP,resources/DG.BMP,Door1,-0.168532986,-0.021465386,1,0,0,2.0434,optionLeft,30,7155,4,0,0,0,0,1,,,,,,,,,,,,,,,,,,,,,,,,,,,,,,,,,,,,,,,
,,,,,,,,2023-08-16_08h35.56.927,HF_wild_card,2022.2.4,MacIntel,59.99520038,59ce3501a5bbdd0001bf45e2,64d2fd46c836a06233681665,64dc7c4f1a8da31a47b5d486,,,,,,,decisionTrl,resources/DR.BMP,resources/DY.BMP,WildCard_Ex,-0.273310004,-0.01059299,1,0,0,1.5302,optionLeft,45,7200,4,1,0,1,0,1,,,,,,,,,,,,,,,,,,,,,,,,,,,,,,,,,,,,,,,
,,,,,,,,2023-08-16_08h35.56.927,HF_wild_card,2022.2.4,MacIntel,59.99520038,59ce3501a5bbdd0001bf45e2,64d2fd46c836a06233681665,64dc7c4f1a8da31a47b5d486,,,,,,,decisionTrl,resources/DY.BMP,resources/DBN.BMP,Door4,0.246153429,-0.018532986,1,0,0,0.9987,optionRight,80,7280,4,2,0,2,0,1,,,,,,,,,,,,,,,,,,,,,,,,,,,,,,,,,,,,,,,
,,,,,,,,2023-08-16_08h35.56.927,HF_wild_card,2022.2.4,MacIntel,59.99520038,59ce3501a5bbdd0001bf45e2,64d2fd46c836a06233681665,64dc7c4f1a8da31a47b5d486,,,,,,,decisionTrl,resources/DBN.BMP,resources/DY.BMP,Door4,-0.218036567,0.020830621,1,0,0,0.7996,optionLeft,60,7340,4,3,0,3,0,1,,,,,,,,,,,,,,,,,,,,,,,,,,,,,,,,,,,,,,,
,,,,,,,,2023-08-16_08h35.56.927,HF_wild_card,2022.2.4,MacIntel,59.99520038,59ce3501a5bbdd0001bf45e2,64d2fd46c836a06233681665,64dc7c4f1a8da31a47b5d486,,,,,,,decisionTrl,resources/DG.BMP,resources/DP.BMP,Door1,0.195090061,-0.032828776,1,0,0,1.6315,optionRight,30,7370,4,4,0,4,0,1,,,,,,,,,,,,,,,,,,,,,,,,,,,,,,,,,,,,,,,
,,,,,,,,2023-08-16_08h35.56.927,HF_wild_card,2022.2.4,MacIntel,59.99520038,59ce3501a5bbdd0001bf45e2,64d2fd46c836a06233681665,64dc7c4f1a8da31a47b5d486,,,,,,,decisionTrl,resources/DP.BMP,resources/DG.BMP,Door1,-0.182685004,0.029828559,1,0,0,1.8655,optionLeft,30,7400,4,5,0,5,0,1,,,,,,,,,,,,,,,,,,,,,,,,,,,,,,,,,,,,,,,
,,,,,,,,2023-08-16_08h35.56.927,HF_wild_card,2022.2.4,MacIntel,59.99520038,59ce3501a5bbdd0001bf45e2,64d2fd46c836a06233681665,64dc7c4f1a8da31a47b5d486,,,,,,,decisionTrl,resources/DBN.BMP,resources/DY.BMP,Door4,-0.215638563,0.049527995,1,0,0,1.2821,optionLeft,80,7480,4,6,0,6,0,1,,,,,,,,,,,,,,,,,,,,,,,,,,,,,,,,,,,,,,,
,,,,,,,,2023-08-16_08h35.56.927,HF_wild_card,2022.2.4,MacIntel,59.99520038,59ce3501a5bbdd0001bf45e2,64d2fd46c836a06233681665,64dc7c4f1a8da31a47b5d486,,,,,,,decisionTrl,resources/DR.BMP,resources/DBN.BMP,Door4,0.215673828,-0.000661892,1,0,0,1.2979,optionRight,80,7560,4,7,0,7,0,1,,,,,,,,,,,,,,,,,,,,,,,,,,,,,,,,,,,,,,,
,,,,,,,,2023-08-16_08h35.56.927,HF_wild_card,2022.2.4,MacIntel,59.99520038,59ce3501a5bbdd0001bf45e2,64d2fd46c836a06233681665,64dc7c4f1a8da31a47b5d486,,,,,,,ctch,resources/DG.BMP,resources/DY.BMP,Door3,0.155650499,-0.012790256,1,0,0,1.0994,optionRight,70,7630,4,8,0,8,0,1,,,,,,,,,,,,,,,,,,,,,,,,,,,,,,,,,,,,,,,
,,,,,,,,2023-08-16_08h35.56.927,HF_wild_card,2022.2.4,MacIntel,59.99520038,59ce3501a5bbdd0001bf45e2,64d2fd46c836a06233681665,64dc7c4f1a8da31a47b5d486,,,,,,,decisionTrl,resources/DG.BMP,resources/DP.BMP,Door1,0.249883355,-0.006024848,1,0,0,1.6346,optionRight,30,7660,4,9,0,9,0,1,,,,,,,,,,,,,,,,,,,,,,,,,,,,,,,,,,,,,,,
,,,,,,,,2023-08-16_08h35.56.927,HF_wild_card,2022.2.4,MacIntel,59.99520038,59ce3501a5bbdd0001bf45e2,64d2fd46c836a06233681665,64dc7c4f1a8da31a47b5d486,,,,,,,sngl,resources/DG.BMP,resources/Empty.png,Door2,-0.103531901,0.014160156,1,0,0,0.8315,optionLeft,20,7680,4,10,0,10,0,1,,,,,,,,,,,,,,,,,,,,,,,,,,,,,,,,,,,,,,,
,,,,,,,,2023-08-16_08h35.56.927,HF_wild_card,2022.2.4,MacIntel,59.99520038,59ce3501a5bbdd0001bf45e2,64d2fd46c836a06233681665,64dc7c4f1a8da31a47b5d486,,,,,,,decisionTrl,resources/DY.BMP,resources/DR.BMP,Door3,-0.203738064,0.03678928,1,0,0,1.6486,optionLeft,70,7750,4,11,0,11,0,1,,,,,,,,,,,,,,,,,,,,,,,,,,,,,,,,,,,,,,,
,,,,,,,,2023-08-16_08h35.56.927,HF_wild_card,2022.2.4,MacIntel,59.99520038,59ce3501a5bbdd0001bf45e2,64d2fd46c836a06233681665,64dc7c4f1a8da31a47b5d486,,,,,,,decisionTrl,resources/DR.BMP,resources/DP.BMP,WildCard_Ex,-0.255064562,0.037565104,1,0,0,1.6621,optionLeft,45,7795,4,12,0,12,0,1,,,,,,,,,,,,,,,,,,,,,,,,,,,,,,,,,,,,,,,
,,,,,,,,2023-08-16_08h35.56.927,HF_wild_card,2022.2.4,MacIntel,59.99520038,59ce3501a5bbdd0001bf45e2,64d2fd46c836a06233681665,64dc7c4f1a8da31a47b5d486,,,,,,,sngl,resources/Empty.png,resources/DBN.BMP,Door4,0.230693902,-0.006149631,1,0,0,0.7651,optionRight,80,7875,4,13,0,13,0,1,,,,,,,,,,,,,,,,,,,,,,,,,,,,,,,,,,,,,,,
,,,,,,,,2023-08-16_08h35.56.927,HF_wild_card,2022.2.4,MacIntel,59.99520038,59ce3501a5bbdd0001bf45e2,64d2fd46c836a06233681665,64dc7c4f1a8da31a47b5d486,,,,,,,decisionTrl,resources/DP.BMP,resources/DG.BMP,Door2,0.255737305,-0.014477539,1,0,0,1.982,optionRight,40,7915,4,14,0,14,0,1,,,,,,,,,,,,,,,,,,,,,,,,,,,,,,,,,,,,,,,
,,,,,,,,2023-08-16_08h35.56.927,HF_wild_card,2022.2.4,MacIntel,59.99520038,59ce3501a5bbdd0001bf45e2,64d2fd46c836a06233681665,64dc7c4f1a8da31a47b5d486,,,,,,,decisionTrl,resources/DBN.BMP,resources/DY.BMP,Door4,-0.117382813,0.009714084,1,0,0,1.4982,optionLeft,80,7995,4,15,0,15,0,1,,,,,,,,,,,,,,,,,,,,,,,,,,,,,,,,,,,,,,,
,,,,,,,,2023-08-16_08h35.56.927,HF_wild_card,2022.2.4,MacIntel,59.99520038,59ce3501a5bbdd0001bf45e2,64d2fd46c836a06233681665,64dc7c4f1a8da31a47b5d486,,,,,,,sngl,resources/DR.BMP,resources/Empty.png,WildCard_Ex,-0.111854384,0.015806749,1,0,0,0.9307,optionLeft,45,8040,4,16,0,16,0,1,,,,,,,,,,,,,,,,,,,,,,,,,,,,,,,,,,,,,,,
,,,,,,,,2023-08-16_08h35.56.927,HF_wild_card,2022.2.4,MacIntel,59.99520038,59ce3501a5bbdd0001bf45e2,64d2fd46c836a06233681665,64dc7c4f1a8da31a47b5d486,,,,,,,sngl,resources/Empty.png,resources/DR.BMP,WildCard_Ex,0.229522027,-0.006005859,1,0,0,0.6989,optionRight,45,8085,4,17,0,17,0,1,,,,,,,,,,,,,,,,,,,,,,,,,,,,,,,,,,,,,,,
,,,,,,,,2023-08-16_08h35.56.927,HF_wild_card,2022.2.4,MacIntel,59.99520038,59ce3501a5bbdd0001bf45e2,64d2fd46c836a06233681665,64dc7c4f1a8da31a47b5d486,,,,,,,decisionTrl,resources/DBN.BMP,resources/DY.BMP,Door4,-0.181979709,0.032004123,1,0,0,1.3649,optionLeft,60,8145,4,18,0,18,0,1,,,,,,,,,,,,,,,,,,,,,,,,,,,,,,,,,,,,,,,
,,,,,,,,2023-08-16_08h35.56.927,HF_wild_card,2022.2.4,MacIntel,59.99520038,59ce3501a5bbdd0001bf45e2,64d2fd46c836a06233681665,64dc7c4f1a8da31a47b5d486,,,,,,,decisionTrl,resources/DY.BMP,resources/DBN.BMP,Door4,0.219251845,-0.011583116,1,0,0,1.4146,optionRight,80,8225,4,19,0,19,0,1,,,,,,,,,,,,,,,,,,,,,,,,,,,,,,,,,,,,,,,
,,,,,,,,2023-08-16_08h35.56.927,HF_wild_card,2022.2.4,MacIntel,59.99520038,59ce3501a5bbdd0001bf45e2,64d2fd46c836a06233681665,64dc7c4f1a8da31a47b5d486,,,,,,,ctch,resources/DBN.BMP,resources/DP.BMP,Door4,-0.253393555,0.032400174,1,0,0,0.8978,optionLeft,60,8285,4,20,0,20,0,1,,,,,,,,,,,,,,,,,,,,,,,,,,,,,,,,,,,,,,,
,,,,,,,,2023-08-16_08h35.56.927,HF_wild_card,2022.2.4,MacIntel,59.99520038,59ce3501a5bbdd0001bf45e2,64d2fd46c836a06233681665,64dc7c4f1a8da31a47b5d486,,,,,,,ctch,resources/DP.BMP,resources/DBN.BMP,Door4,0.259879557,-0.02624783,1,0,0,0.8325,optionRight,60,8345,4,21,0,21,0,1,,,,,,,,,,,,,,,,,,,,,,,,,,,,,,,,,,,,,,,
,,,,,,,,2023-08-16_08h35.56.927,HF_wild_card,2022.2.4,MacIntel,59.99520038,59ce3501a5bbdd0001bf45e2,64d2fd46c836a06233681665,64dc7c4f1a8da31a47b5d486,,,,,,,decisionTrl,resources/DP.BMP,resources/DG.BMP,Door1,-0.124926758,0.013815647,1,0,0,1.9152,optionLeft,30,8375,4,22,0,22,0,1,,,,,,,,,,,,,,,,,,,,,,,,,,,,,,,,,,,,,,,
,,,,,,,,2023-08-16_08h35.56.927,HF_wild_card,2022.2.4,MacIntel,59.99520038,59ce3501a5bbdd0001bf45e2,64d2fd46c836a06233681665,64dc7c4f1a8da31a47b5d486,,,,,,,decisionTrl,resources/DP.BMP,resources/DR.BMP,WildCard_Ex,0.165814887,-0.006759983,1,0,0,1.6164,optionRight,45,8420,4,23,0,23,0,1,,,,,,,,,,,,,,,,,,,,,,,,,,,,,,,,,,,,,,,
,,,,,,,,2023-08-16_08h35.56.927,HF_wild_card,2022.2.4,MacIntel,59.99520038,59ce3501a5bbdd0001bf45e2,64d2fd46c836a06233681665,64dc7c4f1a8da31a47b5d486,,,,,,,sngl,resources/DP.BMP,resources/Empty.png,Door1,-0.215600586,0.029760742,1,0,0,1.0067,optionLeft,30,8450,4,24,0,24,0,1,,,,,,,,,,,,,,,,,,,,,,,,,,,,,,,,,,,,,,,
,,,,,,,,2023-08-16_08h35.56.927,HF_wild_card,2022.2.4,MacIntel,59.99520038,59ce3501a5bbdd0001bf45e2,64d2fd46c836a06233681665,64dc7c4f1a8da31a47b5d486,,,,,,,decisionTrl,resources/DG.BMP,resources/DP.BMP,Door2,-0.174064128,0.044189453,1,0,0,1.6985,optionLeft,20,8470,4,25,0,25,0,1,,,,,,,,,,,,,,,,,,,,,,,,,,,,,,,,,,,,,,,
,,,,,,,,2023-08-16_08h35.56.927,HF_wild_card,2022.2.4,MacIntel,59.99520038,59ce3501a5bbdd0001bf45e2,64d2fd46c836a06233681665,64dc7c4f1a8da31a47b5d486,,,,,,,sngl,resources/DBN.BMP,resources/Empty.png,Door4,-0.191015625,0.053860135,1,0,0,0.7978,optionLeft,60,8530,4,26,0,26,0,1,,,,,,,,,,,,,,,,,,,,,,,,,,,,,,,,,,,,,,,
,,,,,,,,2023-08-16_08h35.56.927,HF_wild_card,2022.2.4,MacIntel,59.99520038,59ce3501a5bbdd0001bf45e2,64d2fd46c836a06233681665,64dc7c4f1a8da31a47b5d486,,,,,,,decisionTrl,resources/DG.BMP,resources/DR.BMP,WildCard_Ex,0.171015082,0.015608724,1,0,0,0.9641,optionRight,55,8585,4,27,0,27,0,1,,,,,,,,,,,,,,,,,,,,,,,,,,,,,,,,,,,,,,,
,,,,,,,,2023-08-16_08h35.56.927,HF_wild_card,2022.2.4,MacIntel,59.99520038,59ce3501a5bbdd0001bf45e2,64d2fd46c836a06233681665,64dc7c4f1a8da31a47b5d486,,,,,,,ctch,resources/DBN.BMP,resources/DP.BMP,Door4,-0.163983832,0.034431966,1,0,0,0.9154,optionLeft,60,8645,4,28,0,28,0,1,,,,,,,,,,,,,,,,,,,,,,,,,,,,,,,,,,,,,,,
,,,,,,,,2023-08-16_08h35.56.927,HF_wild_card,2022.2.4,MacIntel,59.99520038,59ce3501a5bbdd0001bf45e2,64d2fd46c836a06233681665,64dc7c4f1a8da31a47b5d486,,,,,,,sngl,resources/DY.BMP,resources/Empty.png,Door3,-0.179820421,0.031046549,1,0,0,1.0134,optionLeft,70,8715,4,29,0,29,0,1,,,,,,,,,,,,,,,,,,,,,,,,,,,,,,,,,,,,,,,
,,,,,,,,2023-08-16_08h35.56.927,HF_wild_card,2022.2.4,MacIntel,59.99520038,59ce3501a5bbdd0001bf45e2,64d2fd46c836a06233681665,64dc7c4f1a8da31a47b5d486,,,,,,,sngl,resources/Empty.png,resources/DR.BMP,WildCard_Ex,0.216075304,0.006051975,1,0,0,0.7306,optionRight,55,8770,4,30,0,30,0,1,,,,,,,,,,,,,,,,,,,,,,,,,,,,,,,,,,,,,,,
,,,,,,,,2023-08-16_08h35.56.927,HF_wild_card,2022.2.4,MacIntel,59.99520038,59ce3501a5bbdd0001bf45e2,64d2fd46c836a06233681665,64dc7c4f1a8da31a47b5d486,,,,,,,decisionTrl,resources/DBN.BMP,resources/DR.BMP,Door4,-0.187464735,0.006062826,1,0,0,0.8573,optionLeft,80,8850,4,31,0,31,0,1,,,,,,,,,,,,,,,,,,,,,,,,,,,,,,,,,,,,,,,
,,,,,,,,2023-08-16_08h35.56.927,HF_wild_card,2022.2.4,MacIntel,59.99520038,59ce3501a5bbdd0001bf45e2,64d2fd46c836a06233681665,64dc7c4f1a8da31a47b5d486,,,,,,,sngl,resources/Empty.png,resources/DP.BMP,Door1,0.205959744,-0.021573893,1,0,0,0.7636,optionRight,30,8880,4,32,0,32,0,1,,,,,,,,,,,,,,,,,,,,,,,,,,,,,,,,,,,,,,,
,,,,,,,,2023-08-16_08h35.56.927,HF_wild_card,2022.2.4,MacIntel,59.99520038,59ce3501a5bbdd0001bf45e2,64d2fd46c836a06233681665,64dc7c4f1a8da31a47b5d486,,,,,,,ctch,resources/DG.BMP,resources/DY.BMP,Door3,0.192713759,-0.010904948,1,0,0,0.9318,optionRight,70,8950,4,33,0,33,0,1,,,,,,,,,,,,,,,,,,,,,,,,,,,,,,,,,,,,,,,
,,,,,,,,2023-08-16_08h35.56.927,HF_wild_card,2022.2.4,MacIntel,59.99520038,59ce3501a5bbdd0001bf45e2,64d2fd46c836a06233681665,64dc7c4f1a8da31a47b5d486,,,,,,,decisionTrl,resources/DR.BMP,resources/DG.BMP,WildCard_Ex,-0.167013889,0.019501411,1,0,0,1.2484,optionLeft,55,9005,4,34,0,34,0,1,,,,,,,,,,,,,,,,,,,,,,,,,,,,,,,,,,,,,,,
,,,,,,,,2023-08-16_08h35.56.927,HF_wild_card,2022.2.4,MacIntel,59.99520038,59ce3501a5bbdd0001bf45e2,64d2fd46c836a06233681665,64dc7c4f1a8da31a47b5d486,,,,,,,decisionTrl,resources/DY.BMP,resources/DBN.BMP,Door4,0.258422852,-0.001779514,1,0,0,0.7989,optionRight,60,9065,4,35,0,35,0,1,,,,,,,,,,,,,,,,,,,,,,,,,,,,,,,,,,,,,,,
,,,,,,,,2023-08-16_08h35.56.927,HF_wild_card,2022.2.4,MacIntel,59.99520038,59ce3501a5bbdd0001bf45e2,64d2fd46c836a06233681665,64dc7c4f1a8da31a47b5d486,,,,,,,decisionTrl,resources/DG.BMP,resources/DP.BMP,Door1,0.198546007,-0.004560004,1,0,0,1.5656,optionRight,30,9095,4,36,0,36,0,1,,,,,,,,,,,,,,,,,,,,,,,,,,,,,,,,,,,,,,,
,,,,,,,,2023-08-16_08h35.56.927,HF_wild_card,2022.2.4,MacIntel,59.99520038,59ce3501a5bbdd0001bf45e2,64d2fd46c836a06233681665,64dc7c4f1a8da31a47b5d486,,,,,,,sngl,resources/DR.BMP,resources/Empty.png,WildCard_Ex,-0.151519097,0.019645182,1,0,0,0.8181,optionLeft,55,9150,4,37,0,37,0,1,,,,,,,,,,,,,,,,,,,,,,,,,,,,,,,,,,,,,,,
,,,,,,,,2023-08-16_08h35.56.927,HF_wild_card,2022.2.4,MacIntel,59.99520038,59ce3501a5bbdd0001bf45e2,64d2fd46c836a06233681665,64dc7c4f1a8da31a47b5d486,,,,,,,sngl,resources/Empty.png,resources/DG.BMP,Door2,0.172683377,-0.007733832,1,0,0,0.7839,optionRight,40,9190,4,38,0,38,0,1,,,,,,,,,,,,,,,,,,,,,,,,,,,,,,,,,,,,,,,
,,,,,,,,2023-08-16_08h35.56.927,HF_wild_card,2022.2.4,MacIntel,59.99520038,59ce3501a5bbdd0001bf45e2,64d2fd46c836a06233681665,64dc7c4f1a8da31a47b5d486,,,,,,,sngl,resources/Empty.png,resources/DY.BMP,Door3,0.21351454,-0.000908746,1,0,0,0.7651,optionRight,70,9260,4,39,0,39,0,1,,,,,,,,,,,,,,,,,,,,,,,,,,,,,,,,,,,,,,,
,,,,,,,,2023-08-16_08h35.56.927,HF_wild_card,2022.2.4,MacIntel,59.99520038,59ce3501a5bbdd0001bf45e2,64d2fd46c836a06233681665,64dc7c4f1a8da31a47b5d486,,,,,,,ctch,resources/DP.BMP,resources/DBN.BMP,Door4,0.197900391,0.010061306,1,0,0,0.9641,optionRight,60,9320,4,40,0,40,0,1,,,,,,,,,,,,,,,,,,,,,,,,,,,,,,,,,,,,,,,
,,,,,,,,2023-08-16_08h35.56.927,HF_wild_card,2022.2.4,MacIntel,59.99520038,59ce3501a5bbdd0001bf45e2,64d2fd46c836a06233681665,64dc7c4f1a8da31a47b5d486,,,,,,,ctch,resources/DY.BMP,resources/DG.BMP,Door3,-0.274658203,0.045106337,1,0,0,0.9344,optionLeft,70,9390,4,41,0,41,0,1,,,,,,,,,,,,,,,,,,,,,,,,,,,,,,,,,,,,,,,
,,,,,,,,2023-08-16_08h35.56.927,HF_wild_card,2022.2.4,MacIntel,59.99520038,59ce3501a5bbdd0001bf45e2,64d2fd46c836a06233681665,64dc7c4f1a8da31a47b5d486,,,,,,,decisionTrl,resources/DY.BMP,resources/DBN.BMP,Door4,0.287193468,0.005902778,1,0,0,1.4473,optionRight,80,9470,4,42,0,42,0,1,,,,,,,,,,,,,,,,,,,,,,,,,,,,,,,,,,,,,,,
,,,,,,,,2023-08-16_08h35.56.927,HF_wild_card,2022.2.4,MacIntel,59.99520038,59ce3501a5bbdd0001bf45e2,64d2fd46c836a06233681665,64dc7c4f1a8da31a47b5d486,,,,,,,ctch,resources/DY.BMP,resources/DG.BMP,Door3,-0.179890951,0.022246636,1,0,0,0.8987,optionLeft,70,9540,4,43,0,43,0,1,,,,,,,,,,,,,,,,,,,,,,,,,,,,,,,,,,,,,,,
,,,,,,,,2023-08-16_08h35.56.927,HF_wild_card,2022.2.4,MacIntel,59.99520038,59ce3501a5bbdd0001bf45e2,64d2fd46c836a06233681665,64dc7c4f1a8da31a47b5d486,,,,,,,,,,,,,,,,,,,,,,,,,,3,0,3,0,1,,,,,,,,,,,,,,,,,,,,,,,,,,,,,,,,,,
,,,,,,,,2023-08-16_08h35.56.927,HF_wild_card,2022.2.4,MacIntel,59.99520038,59ce3501a5bbdd0001bf45e2,64d2fd46c836a06233681665,64dc7c4f1a8da31a47b5d486,,,,,,,decisionTrl,resources/DY.BMP,resources/DBN.BMP,Door4,0.195844184,-0.125952148,1,0,0,0.893,optionRight,80,9620,5,0,0,0,0,1,,,,,,,,,,,,,,,,,,,,,,,,,,,,,,,,,,,,,,,
,,,,,,,,2023-08-16_08h35.56.927,HF_wild_card,2022.2.4,MacIntel,59.99520038,59ce3501a5bbdd0001bf45e2,64d2fd46c836a06233681665,64dc7c4f1a8da31a47b5d486,,,,,,,sngl,resources/Empty.png,resources/DY.BMP,Door3,0.172642687,-0.047235786,1,0,0,0.6645,optionRight,70,9690,5,1,0,1,0,1,,,,,,,,,,,,,,,,,,,,,,,,,,,,,,,,,,,,,,,
,,,,,,,,2023-08-16_08h35.56.927,HF_wild_card,2022.2.4,MacIntel,59.99520038,59ce3501a5bbdd0001bf45e2,64d2fd46c836a06233681665,64dc7c4f1a8da31a47b5d486,,,,,,,ctch,resources/DY.BMP,resources/DG.BMP,Door3,-0.236905924,0.010853407,1,0,0,0.7314,optionLeft,70,9760,5,2,0,2,0,1,,,,,,,,,,,,,,,,,,,,,,,,,,,,,,,,,,,,,,,
,,,,,,,,2023-08-16_08h35.56.927,HF_wild_card,2022.2.4,MacIntel,59.99520038,59ce3501a5bbdd0001bf45e2,64d2fd46c836a06233681665,64dc7c4f1a8da31a47b5d486,,,,,,,decisionTrl,resources/DY.BMP,resources/DR.BMP,Door3,-0.158327908,0.000789388,1,0,0,0.6992,optionLeft,70,9830,5,3,0,3,0,1,,,,,,,,,,,,,,,,,,,,,,,,,,,,,,,,,,,,,,,
,,,,,,,,2023-08-16_08h35.56.927,HF_wild_card,2022.2.4,MacIntel,59.99520038,59ce3501a5bbdd0001bf45e2,64d2fd46c836a06233681665,64dc7c4f1a8da31a47b5d486,,,,,,,decisionTrl,resources/DBN.BMP,resources/DR.BMP,Door4,-0.147911241,0.002625868,1,0,0,0.7667,optionLeft,60,9890,5,4,0,4,0,1,,,,,,,,,,,,,,,,,,,,,,,,,,,,,,,,,,,,,,,
,,,,,,,,2023-08-16_08h35.56.927,HF_wild_card,2022.2.4,MacIntel,59.99520038,59ce3501a5bbdd0001bf45e2,64d2fd46c836a06233681665,64dc7c4f1a8da31a47b5d486,,,,,,,sngl,resources/Empty.png,resources/DP.BMP,Door1,0.22843967,-0.028919813,1,0,0,0.7987,optionRight,30,9920,5,5,0,5,0,1,,,,,,,,,,,,,,,,,,,,,,,,,,,,,,,,,,,,,,,
,,,,,,,,2023-08-16_08h35.56.927,HF_wild_card,2022.2.4,MacIntel,59.99520038,59ce3501a5bbdd0001bf45e2,64d2fd46c836a06233681665,64dc7c4f1a8da31a47b5d486,,,,,,,decisionTrl,resources/DR.BMP,resources/DP.BMP,WildCard_Ex,-0.158395725,0.023974609,1,0,0,1.5332,optionLeft,45,9965,5,6,0,6,0,1,,,,,,,,,,,,,,,,,,,,,,,,,,,,,,,,,,,,,,,
,,,,,,,,2023-08-16_08h35.56.927,HF_wild_card,2022.2.4,MacIntel,59.99520038,59ce3501a5bbdd0001bf45e2,64d2fd46c836a06233681665,64dc7c4f1a8da31a47b5d486,,,,,,,decisionTrl,resources/DY.BMP,resources/DBN.BMP,Door4,0.24613444,-0.032511393,1,0,0,0.9475,optionRight,60,10025,5,7,0,7,0,1,,,,,,,,,,,,,,,,,,,,,,,,,,,,,,,,,,,,,,,
,,,,,,,,2023-08-16_08h35.56.927,HF_wild_card,2022.2.4,MacIntel,59.99520038,59ce3501a5bbdd0001bf45e2,64d2fd46c836a06233681665,64dc7c4f1a8da31a47b5d486,,,,,,,decisionTrl,resources/DR.BMP,resources/DY.BMP,Door3,0.244981554,-0.030650499,1,0,0,0.8504,optionRight,70,10095,5,8,0,8,0,1,,,,,,,,,,,,,,,,,,,,,,,,,,,,,,,,,,,,,,,
,,,,,,,,2023-08-16_08h35.56.927,HF_wild_card,2022.2.4,MacIntel,59.99520038,59ce3501a5bbdd0001bf45e2,64d2fd46c836a06233681665,64dc7c4f1a8da31a47b5d486,,,,,,,sngl,resources/DY.BMP,resources/Empty.png,Door3,-0.131214735,0.016918945,1,0,0,0.8001,optionLeft,70,10165,5,9,0,9,0,1,,,,,,,,,,,,,,,,,,,,,,,,,,,,,,,,,,,,,,,
,,,,,,,,2023-08-16_08h35.56.927,HF_wild_card,2022.2.4,MacIntel,59.99520038,59ce3501a5bbdd0001bf45e2,64d2fd46c836a06233681665,64dc7c4f1a8da31a47b5d486,,,,,,,decisionTrl,resources/DG.BMP,resources/DP.BMP,Door1,0.269010417,-0.024755859,1,0,0,1.5991,optionRight,30,10195,5,10,0,10,0,1,,,,,,,,,,,,,,,,,,,,,,,,,,,,,,,,,,,,,,,
,,,,,,,,2023-08-16_08h35.56.927,HF_wild_card,2022.2.4,MacIntel,59.99520038,59ce3501a5bbdd0001bf45e2,64d2fd46c836a06233681665,64dc7c4f1a8da31a47b5d486,,,,,,,ctch,resources/DBN.BMP,resources/DP.BMP,Door4,-0.234903971,0.00949707,1,0,0,0.7812,optionLeft,60,10255,5,11,0,11,0,1,,,,,,,,,,,,,,,,,,,,,,,,,,,,,,,,,,,,,,,
,,,,,,,,2023-08-16_08h35.56.927,HF_wild_card,2022.2.4,MacIntel,59.99520038,59ce3501a5bbdd0001bf45e2,64d2fd46c836a06233681665,64dc7c4f1a8da31a47b5d486,,,,,,,decisionTrl,resources/DP.BMP,resources/DR.BMP,WildCard_Ex,0.174115668,-0.038462999,1,0,0,0.9321,optionRight,45,10300,5,12,0,12,0,1,,,,,,,,,,,,,,,,,,,,,,,,,,,,,,,,,,,,,,,
,,,,,,,,2023-08-16_08h35.56.927,HF_wild_card,2022.2.4,MacIntel,59.99520038,59ce3501a5bbdd0001bf45e2,64d2fd46c836a06233681665,64dc7c4f1a8da31a47b5d486,,,,,,,ctch,resources/DP.BMP,resources/DBN.BMP,Door4,0.249742296,-0.044677734,1,0,0,0.7806,optionRight,60,10360,5,13,0,13,0,1,,,,,,,,,,,,,,,,,,,,,,,,,,,,,,,,,,,,,,,
,,,,,,,,2023-08-16_08h35.56.927,HF_wild_card,2022.2.4,MacIntel,59.99520038,59ce3501a5bbdd0001bf45e2,64d2fd46c836a06233681665,64dc7c4f1a8da31a47b5d486,,,,,,,sngl,resources/DR.BMP,resources/Empty.png,WildCard_Ex,-0.217344835,0.015532769,1,0,0,0.7478,optionLeft,55,10415,5,14,0,14,0,1,,,,,,,,,,,,,,,,,,,,,,,,,,,,,,,,,,,,,,,
,,,,,,,,2023-08-16_08h35.56.927,HF_wild_card,2022.2.4,MacIntel,59.99520038,59ce3501a5bbdd0001bf45e2,64d2fd46c836a06233681665,64dc7c4f1a8da31a47b5d486,,,,,,,decisionTrl,resources/DBN.BMP,resources/DY.BMP,Door4,-0.130769857,0.012280273,1,0,0,1.4471,optionLeft,60,10475,5,15,0,15,0,1,,,,,,,,,,,,,,,,,,,,,,,,,,,,,,,,,,,,,,,
,,,,,,,,2023-08-16_08h35.56.927,HF_wild_card,2022.2.4,MacIntel,59.99520038,59ce3501a5bbdd0001bf45e2,64d2fd46c836a06233681665,64dc7c4f1a8da31a47b5d486,,,,,,,sngl,resources/Empty.png,resources/DR.BMP,WildCard_Ex,0.139672852,-0.015524631,1,0,0,0.6647,optionRight,55,10530,5,16,0,16,0,1,,,,,,,,,,,,,,,,,,,,,,,,,,,,,,,,,,,,,,,
,,,,,,,,2023-08-16_08h35.56.927,HF_wild_card,2022.2.4,MacIntel,59.99520038,59ce3501a5bbdd0001bf45e2,64d2fd46c836a06233681665,64dc7c4f1a8da31a47b5d486,,,,,,,decisionTrl,resources/DG.BMP,resources/DP.BMP,Door1,0.294897461,-0.044669596,1,0,0,1.9148,optionRight,30,10560,5,17,0,17,0,1,,,,,,,,,,,,,,,,,,,,,,,,,,,,,,,,,,,,,,,
,,,,,,,,2023-08-16_08h35.56.927,HF_wild_card,2022.2.4,MacIntel,59.99520038,59ce3501a5bbdd0001bf45e2,64d2fd46c836a06233681665,64dc7c4f1a8da31a47b5d486,,,,,,,sngl,resources/DG.BMP,resources/Empty.png,Door2,-0.211493598,0.032400174,1,0,0,0.7793,optionLeft,40,10600,5,18,0,18,0,1,,,,,,,,,,,,,,,,,,,,,,,,,,,,,,,,,,,,,,,
,,,,,,,,2023-08-16_08h35.56.927,HF_wild_card,2022.2.4,MacIntel,59.99520038,59ce3501a5bbdd0001bf45e2,64d2fd46c836a06233681665,64dc7c4f1a8da31a47b5d486,,,,,,,decisionTrl,resources/DR.BMP,resources/DBN.BMP,Door4,0.284396701,-0.028572591,1,0,0,0.9981,optionRight,60,10660,5,19,0,19,0,1,,,,,,,,,,,,,,,,,,,,,,,,,,,,,,,,,,,,,,,
,,,,,,,,2023-08-16_08h35.56.927,HF_wild_card,2022.2.4,MacIntel,59.99520038,59ce3501a5bbdd0001bf45e2,64d2fd46c836a06233681665,64dc7c4f1a8da31a47b5d486,,,,,,,sngl,resources/DBN.BMP,resources/Empty.png,Door4,-0.171028646,0.008688694,1,0,0,0.6635,optionLeft,80,10740,5,20,0,20,0,1,,,,,,,,,,,,,,,,,,,,,,,,,,,,,,,,,,,,,,,
,,,,,,,,2023-08-16_08h35.56.927,HF_wild_card,2022.2.4,MacIntel,59.99520038,59ce3501a5bbdd0001bf45e2,64d2fd46c836a06233681665,64dc7c4f1a8da31a47b5d486,,,,,,,decisionTrl,resources/DP.BMP,resources/DG.BMP,Door1,-0.166183811,0.011010742,1,0,0,2.1645,optionLeft,30,10770,5,21,0,21,0,1,,,,,,,,,,,,,,,,,,,,,,,,,,,,,,,,,,,,,,,
,,,,,,,,2023-08-16_08h35.56.927,HF_wild_card,2022.2.4,MacIntel,59.99520038,59ce3501a5bbdd0001bf45e2,64d2fd46c836a06233681665,64dc7c4f1a8da31a47b5d486,,,,,,,decisionTrl,resources/DR.BMP,resources/DG.BMP,WildCard_Ex,-0.185782878,0.008846029,1,0,0,0.9666,optionLeft,45,10815,5,22,0,22,0,1,,,,,,,,,,,,,,,,,,,,,,,,,,,,,,,,,,,,,,,
,,,,,,,,2023-08-16_08h35.56.927,HF_wild_card,2022.2.4,MacIntel,59.99520038,59ce3501a5bbdd0001bf45e2,64d2fd46c836a06233681665,64dc7c4f1a8da31a47b5d486,,,,,,,decisionTrl,resources/DY.BMP,resources/DBN.BMP,Door4,0.201885308,-0.020369466,1,0,0,2.5478,optionRight,80,10895,5,23,0,23,0,1,,,,,,,,,,,,,,,,,,,,,,,,,,,,,,,,,,,,,,,
,,,,,,,,2023-08-16_08h35.56.927,HF_wild_card,2022.2.4,MacIntel,59.99520038,59ce3501a5bbdd0001bf45e2,64d2fd46c836a06233681665,64dc7c4f1a8da31a47b5d486,,,,,,,ctch,resources/DG.BMP,resources/DY.BMP,Door3,0.220453559,-0.032752821,1,0,0,0.6813,optionRight,70,10965,5,24,0,24,0,1,,,,,,,,,,,,,,,,,,,,,,,,,,,,,,,,,,,,,,,
,,,,,,,,2023-08-16_08h35.56.927,HF_wild_card,2022.2.4,MacIntel,59.99520038,59ce3501a5bbdd0001bf45e2,64d2fd46c836a06233681665,64dc7c4f1a8da31a47b5d486,,,,,,,decisionTrl,resources/DP.BMP,resources/DG.BMP,Door2,0.278895399,-0.020220269,1,0,0,1.7309,optionRight,40,11005,5,25,0,25,0,1,,,,,,,,,,,,,,,,,,,,,,,,,,,,,,,,,,,,,,,
,,,,,,,,2023-08-16_08h35.56.927,HF_wild_card,2022.2.4,MacIntel,59.99520038,59ce3501a5bbdd0001bf45e2,64d2fd46c836a06233681665,64dc7c4f1a8da31a47b5d486,,,,,,,decisionTrl,resources/DBN.BMP,resources/DY.BMP,Door4,-0.26684299,0.01180013,1,0,0,1.0146,optionLeft,60,11065,5,26,0,26,0,1,,,,,,,,,,,,,,,,,,,,,,,,,,,,,,,,,,,,,,,
,,,,,,,,2023-08-16_08h35.56.927,HF_wild_card,2022.2.4,MacIntel,59.99520038,59ce3501a5bbdd0001bf45e2,64d2fd46c836a06233681665,64dc7c4f1a8da31a47b5d486,,,,,,,ctch,resources/DG.BMP,resources/DY.BMP,Door3,0.259581163,-0.034106445,1,0,0,0.749,optionRight,70,11135,5,27,0,27,0,1,,,,,,,,,,,,,,,,,,,,,,,,,,,,,,,,,,,,,,,
,,,,,,,,2023-08-16_08h35.56.927,HF_wild_card,2022.2.4,MacIntel,59.99520038,59ce3501a5bbdd0001bf45e2,64d2fd46c836a06233681665,64dc7c4f1a8da31a47b5d486,,,,,,,ctch,resources/DP.BMP,resources/DBN.BMP,Door4,0.247029622,-0.00852322,1,0,0,0.7469,optionRight,60,11195,5,28,0,28,0,1,,,,,,,,,,,,,,,,,,,,,,,,,,,,,,,,,,,,,,,
,,,,,,,,2023-08-16_08h35.56.927,HF_wild_card,2022.2.4,MacIntel,59.99520038,59ce3501a5bbdd0001bf45e2,64d2fd46c836a06233681665,64dc7c4f1a8da31a47b5d486,,,,,,,sngl,resources/DP.BMP,resources/Empty.png,Door1,-0.182864041,0.011254883,1,0,0,0.7812,optionLeft,30,11225,5,29,0,29,0,1,,,,,,,,,,,,,,,,,,,,,,,,,,,,,,,,,,,,,,,
,,,,,,,,2023-08-16_08h35.56.927,HF_wild_card,2022.2.4,MacIntel,59.99520038,59ce3501a5bbdd0001bf45e2,64d2fd46c836a06233681665,64dc7c4f1a8da31a47b5d486,,,,,,,decisionTrl,resources/DG.BMP,resources/DR.BMP,WildCard_Ex,0.298814562,-0.037890625,1,0,0,1.0318,optionRight,45,11270,5,30,0,30,0,1,,,,,,,,,,,,,,,,,,,,,,,,,,,,,,,,,,,,,,,
,,,,,,,,2023-08-16_08h35.56.927,HF_wild_card,2022.2.4,MacIntel,59.99520038,59ce3501a5bbdd0001bf45e2,64d2fd46c836a06233681665,64dc7c4f1a8da31a47b5d486,,,,,,,decisionTrl,resources/DBN.BMP,resources/DY.BMP,Door4,-0.137738715,0.017746311,1,0,0,1.6147,optionLeft,80,11350,5,31,0,31,0,1,,,,,,,,,,,,,,,,,,,,,,,,,,,,,,,,,,,,,,,
,,,,,,,,2023-08-16_08h35.56.927,HF_wild_card,2022.2.4,MacIntel,59.99520038,59ce3501a5bbdd0001bf45e2,64d2fd46c836a06233681665,64dc7c4f1a8da31a47b5d486,,,,,,,sngl,resources/DR.BMP,resources/Empty.png,WildCard_Ex,-0.125339084,0.015299479,1,0,0,0.7812,optionLeft,45,11395,5,32,0,32,0,1,,,,,,,,,,,,,,,,,,,,,,,,,,,,,,,,,,,,,,,
,,,,,,,,2023-08-16_08h35.56.927,HF_wild_card,2022.2.4,MacIntel,59.99520038,59ce3501a5bbdd0001bf45e2,64d2fd46c836a06233681665,64dc7c4f1a8da31a47b5d486,,,,,,,sngl,resources/Empty.png,resources/DR.BMP,WildCard_Ex,0.239895291,-0.016696506,1,0,0,0.6165,optionRight,45,11440,5,33,0,33,0,1,,,,,,,,,,,,,,,,,,,,,,,,,,,,,,,,,,,,,,,
,,,,,,,,2023-08-16_08h35.56.927,HF_wild_card,2022.2.4,MacIntel,59.99520038,59ce3501a5bbdd0001bf45e2,64d2fd46c836a06233681665,64dc7c4f1a8da31a47b5d486,,,,,,,ctch,resources/DBN.BMP,resources/DP.BMP,Door4,-0.187036133,0.043532986,1,0,0,0.9154,optionLeft,80,11520,5,34,0,34,0,1,,,,,,,,,,,,,,,,,,,,,,,,,,,,,,,,,,,,,,,
,,,,,,,,2023-08-16_08h35.56.927,HF_wild_card,2022.2.4,MacIntel,59.99520038,59ce3501a5bbdd0001bf45e2,64d2fd46c836a06233681665,64dc7c4f1a8da31a47b5d486,,,,,,,decisionTrl,resources/DG.BMP,resources/DP.BMP,Door2,-0.136523438,0.027441406,1,0,0,1.7321,optionLeft,40,11560,5,35,0,35,0,1,,,,,,,,,,,,,,,,,,,,,,,,,,,,,,,,,,,,,,,
,,,,,,,,2023-08-16_08h35.56.927,HF_wild_card,2022.2.4,MacIntel,59.99520038,59ce3501a5bbdd0001bf45e2,64d2fd46c836a06233681665,64dc7c4f1a8da31a47b5d486,,,,,,,decisionTrl,resources/DP.BMP,resources/DG.BMP,Door2,0.172195095,-0.00585395,1,0,0,1.6326,optionRight,40,11600,5,36,0,36,0,1,,,,,,,,,,,,,,,,,,,,,,,,,,,,,,,,,,,,,,,
,,,,,,,,2023-08-16_08h35.56.927,HF_wild_card,2022.2.4,MacIntel,59.99520038,59ce3501a5bbdd0001bf45e2,64d2fd46c836a06233681665,64dc7c4f1a8da31a47b5d486,,,,,,,decisionTrl,resources/DY.BMP,resources/DBN.BMP,Door4,0.152164714,0.006266276,1,0,0,1.7323,optionRight,60,11660,5,37,0,37,0,1,,,,,,,,,,,,,,,,,,,,,,,,,,,,,,,,,,,,,,,
,,,,,,,,2023-08-16_08h35.56.927,HF_wild_card,2022.2.4,MacIntel,59.99520038,59ce3501a5bbdd0001bf45e2,64d2fd46c836a06233681665,64dc7c4f1a8da31a47b5d486,,,,,,,decisionTrl,resources/DBN.BMP,resources/DY.BMP,Door4,-0.155517578,0.015169271,1,0,0,1.3819,optionLeft,80,11740,5,38,0,38,0,1,,,,,,,,,,,,,,,,,,,,,,,,,,,,,,,,,,,,,,,
,,,,,,,,2023-08-16_08h35.56.927,HF_wild_card,2022.2.4,MacIntel,59.99520038,59ce3501a5bbdd0001bf45e2,64d2fd46c836a06233681665,64dc7c4f1a8da31a47b5d486,,,,,,,decisionTrl,resources/DG.BMP,resources/DP.BMP,Door1,0.226763238,-0.010907661,1,0,0,1.1815,optionRight,30,11770,5,39,0,39,0,1,,,,,,,,,,,,,,,,,,,,,,,,,,,,,,,,,,,,,,,
,,,,,,,,2023-08-16_08h35.56.927,HF_wild_card,2022.2.4,MacIntel,59.99520038,59ce3501a5bbdd0001bf45e2,64d2fd46c836a06233681665,64dc7c4f1a8da31a47b5d486,,,,,,,sngl,resources/Empty.png,resources/DG.BMP,Door2,0.15585395,0.002813043,1,0,0,0.7673,optionRight,20,11790,5,40,0,40,0,1,,,,,,,,,,,,,,,,,,,,,,,,,,,,,,,,,,,,,,,
,,,,,,,,2023-08-16_08h35.56.927,HF_wild_card,2022.2.4,MacIntel,59.99520038,59ce3501a5bbdd0001bf45e2,64d2fd46c836a06233681665,64dc7c4f1a8da31a47b5d486,,,,,,,decisionTrl,resources/DP.BMP,resources/DG.BMP,Door1,-0.118858507,0.023095703,1,0,0,1.0157,optionLeft,30,11820,5,41,0,41,0,1,,,,,,,,,,,,,,,,,,,,,,,,,,,,,,,,,,,,,,,
,,,,,,,,2023-08-16_08h35.56.927,HF_wild_card,2022.2.4,MacIntel,59.99520038,59ce3501a5bbdd0001bf45e2,64d2fd46c836a06233681665,64dc7c4f1a8da31a47b5d486,,,,,,,sngl,resources/Empty.png,resources/DBN.BMP,Door4,0.287084961,0.009478082,1,0,0,0.7308,optionRight,60,11880,5,42,0,42,0,1,,,,,,,,,,,,,,,,,,,,,,,,,,,,,,,,,,,,,,,
,,,,,,,,2023-08-16_08h35.56.927,HF_wild_card,2022.2.4,MacIntel,59.99520038,59ce3501a5bbdd0001bf45e2,64d2fd46c836a06233681665,64dc7c4f1a8da31a47b5d486,,,,,,,ctch,resources/DY.BMP,resources/DG.BMP,Door3,-0.275542535,0.047683377,1,0,0,0.9467,optionLeft,70,11950,5,43,0,43,0,1,,,,,,,,,,,,,,,,,,,,,,,,,,,,,,,,,,,,,,,
,,,,,,,,2023-08-16_08h35.56.927,HF_wild_card,2022.2.4,MacIntel,59.99520038,59ce3501a5bbdd0001bf45e2,64d2fd46c836a06233681665,64dc7c4f1a8da31a47b5d486,,,,,,,,,,,,,,,,,,,,,,,,,,4,0,4,0,1,,,,,,,,,,,,,,,,,,,,,,,,,,,,,,,,,,
,,,,,,,,2023-08-16_08h35.56.927,HF_wild_card,2022.2.4,MacIntel,59.99520038,59ce3501a5bbdd0001bf45e2,64d2fd46c836a06233681665,64dc7c4f1a8da31a47b5d486,,,,,,,sngl,resources/Empty.png,resources/DP.BMP,Door1,0.20664605,-0.199782986,1,0,0,0.7748,optionRight,30,11980,6,0,0,0,0,1,,,,,,,,,,,,,,,,,,,,,,,,,,,,,,,,,,,,,,,
,,,,,,,,2023-08-16_08h35.56.927,HF_wild_card,2022.2.4,MacIntel,59.99520038,59ce3501a5bbdd0001bf45e2,64d2fd46c836a06233681665,64dc7c4f1a8da31a47b5d486,,,,,,,decisionTrl,resources/DY.BMP,resources/DBN.BMP,Door3,-0.224948459,-0.000542535,1,0,0,1.5131,optionLeft,70,12050,6,1,0,1,0,1,,,,,,,,,,,,,,,,,,,,,,,,,,,,,,,,,,,,,,,
,,,,,,,,2023-08-16_08h35.56.927,HF_wild_card,2022.2.4,MacIntel,59.99520038,59ce3501a5bbdd0001bf45e2,64d2fd46c836a06233681665,64dc7c4f1a8da31a47b5d486,,,,,,,sngl,resources/DP.BMP,resources/Empty.png,Door1,-0.189916992,0.004044596,1,0,0,0.9336,optionLeft,30,12080,6,2,0,2,0,1,,,,,,,,,,,,,,,,,,,,,,,,,,,,,,,,,,,,,,,
,,,,,,,,2023-08-16_08h35.56.927,HF_wild_card,2022.2.4,MacIntel,59.99520038,59ce3501a5bbdd0001bf45e2,64d2fd46c836a06233681665,64dc7c4f1a8da31a47b5d486,,,,,,,decisionTrl,resources/DY.BMP,resources/DBN.BMP,Door4,0.269921875,-0.019797092,1,0,0,1.0985,optionRight,60,12140,6,3,0,3,0,1,,,,,,,,,,,,,,,,,,,,,,,,,,,,,,,,,,,,,,,
,,,,,,,,2023-08-16_08h35.56.927,HF_wild_card,2022.2.4,MacIntel,59.99520038,59ce3501a5bbdd0001bf45e2,64d2fd46c836a06233681665,64dc7c4f1a8da31a47b5d486,,,,,,,decisionTrl,resources/DP.BMP,resources/DG.BMP,Door1,-0.150873481,0.012562391,1,0,0,1.1954,optionLeft,30,12170,6,4,0,4,0,1,,,,,,,,,,,,,,,,,,,,,,,,,,,,,,,,,,,,,,,
,,,,,,,,2023-08-16_08h35.56.927,HF_wild_card,2022.2.4,MacIntel,59.99520038,59ce3501a5bbdd0001bf45e2,64d2fd46c836a06233681665,64dc7c4f1a8da31a47b5d486,,,,,,,decisionTrl,resources/DBN.BMP,resources/DY.BMP,Door4,-0.141015625,0.007953559,1,0,0,1.1981,optionLeft,80,12250,6,5,0,5,0,1,,,,,,,,,,,,,,,,,,,,,,,,,,,,,,,,,,,,,,,
,,,,,,,,2023-08-16_08h35.56.927,HF_wild_card,2022.2.4,MacIntel,59.99520038,59ce3501a5bbdd0001bf45e2,64d2fd46c836a06233681665,64dc7c4f1a8da31a47b5d486,,,,,,,decisionTrl,resources/DP.BMP,resources/DG.BMP,Door1,-0.135310872,0.001592339,1,0,0,1.1993,optionLeft,30,12280,6,6,0,6,0,1,,,,,,,,,,,,,,,,,,,,,,,,,,,,,,,,,,,,,,,
,,,,,,,,2023-08-16_08h35.56.927,HF_wild_card,2022.2.4,MacIntel,59.99520038,59ce3501a5bbdd0001bf45e2,64d2fd46c836a06233681665,64dc7c4f1a8da31a47b5d486,,,,,,,decisionTrl,resources/DR.BMP,resources/DP.BMP,WildCard_Ex,-0.141889106,0.003936089,1,0,0,1.0647,optionLeft,45,12325,6,7,0,7,0,1,,,,,,,,,,,,,,,,,,,,,,,,,,,,,,,,,,,,,,,
,,,,,,,,2023-08-16_08h35.56.927,HF_wild_card,2022.2.4,MacIntel,59.99520038,59ce3501a5bbdd0001bf45e2,64d2fd46c836a06233681665,64dc7c4f1a8da31a47b5d486,,,,,,,sngl,resources/DR.BMP,resources/Empty.png,WildCard_Ex,-0.205143229,0.02597385,1,0,0,0.815,optionLeft,45,12370,6,8,0,8,0,1,,,,,,,,,,,,,,,,,,,,,,,,,,,,,,,,,,,,,,,
,,,,,,,,2023-08-16_08h35.56.927,HF_wild_card,2022.2.4,MacIntel,59.99520038,59ce3501a5bbdd0001bf45e2,64d2fd46c836a06233681665,64dc7c4f1a8da31a47b5d486,,,,,,,decisionTrl,resources/DG.BMP,resources/DR.BMP,WildCard_Ex,0.209342448,0.006684028,1,0,0,0.8644,optionRight,45,12415,6,9,0,9,0,1,,,,,,,,,,,,,,,,,,,,,,,,,,,,,,,,,,,,,,,
,,,,,,,,2023-08-16_08h35.56.927,HF_wild_card,2022.2.4,MacIntel,59.99520038,59ce3501a5bbdd0001bf45e2,64d2fd46c836a06233681665,64dc7c4f1a8da31a47b5d486,,,,,,,decisionTrl,resources/DBN.BMP,resources/DY.BMP,Door4,-0.2222602,0.043199327,1,0,0,1.4825,optionLeft,80,12495,6,10,0,10,0,1,,,,,,,,,,,,,,,,,,,,,,,,,,,,,,,,,,,,,,,
,,,,,,,,2023-08-16_08h35.56.927,HF_wild_card,2022.2.4,MacIntel,59.99520038,59ce3501a5bbdd0001bf45e2,64d2fd46c836a06233681665,64dc7c4f1a8da31a47b5d486,,,,,,,ctch,resources/DY.BMP,resources/DG.BMP,Door3,-0.160131836,0.023714193,1,0,0,0.8488,optionLeft,70,12565,6,11,0,11,0,1,,,,,,,,,,,,,,,,,,,,,,,,,,,,,,,,,,,,,,,
,,,,,,,,2023-08-16_08h35.56.927,HF_wild_card,2022.2.4,MacIntel,59.99520038,59ce3501a5bbdd0001bf45e2,64d2fd46c836a06233681665,64dc7c4f1a8da31a47b5d486,,,,,,,sngl,resources/Empty.png,resources/DY.BMP,Door3,0.234581163,-0.028415256,1,0,0,0.8141,optionRight,70,12635,6,12,0,12,0,1,,,,,,,,,,,,,,,,,,,,,,,,,,,,,,,,,,,,,,,
,,,,,,,,2023-08-16_08h35.56.927,HF_wild_card,2022.2.4,MacIntel,59.99520038,59ce3501a5bbdd0001bf45e2,64d2fd46c836a06233681665,64dc7c4f1a8da31a47b5d486,,,,,,,decisionTrl,resources/DY.BMP,resources/DBN.BMP,Door3,-0.126966688,0.020247396,1,0,0,2.2664,optionLeft,70,12705,6,13,0,13,0,1,,,,,,,,,,,,,,,,,,,,,,,,,,,,,,,,,,,,,,,
,,,,,,,,2023-08-16_08h35.56.927,HF_wild_card,2022.2.4,MacIntel,59.99520038,59ce3501a5bbdd0001bf45e2,64d2fd46c836a06233681665,64dc7c4f1a8da31a47b5d486,,,,,,,ctch,resources/DY.BMP,resources/DG.BMP,Door3,-0.14624566,0.040774197,1,0,0,0.7823,optionLeft,70,12775,6,14,0,14,0,1,,,,,,,,,,,,,,,,,,,,,,,,,,,,,,,,,,,,,,,
,,,,,,,,2023-08-16_08h35.56.927,HF_wild_card,2022.2.4,MacIntel,59.99520038,59ce3501a5bbdd0001bf45e2,64d2fd46c836a06233681665,64dc7c4f1a8da31a47b5d486,,,,,,,ctch,resources/DG.BMP,resources/DY.BMP,Door3,0.225279405,0.013519965,1,0,0,0.7146,optionRight,70,12845,6,15,0,15,0,1,,,,,,,,,,,,,,,,,,,,,,,,,,,,,,,,,,,,,,,
,,,,,,,,2023-08-16_08h35.56.927,HF_wild_card,2022.2.4,MacIntel,59.99520038,59ce3501a5bbdd0001bf45e2,64d2fd46c836a06233681665,64dc7c4f1a8da31a47b5d486,,,,,,,decisionTrl,resources/DR.BMP,resources/DBN.BMP,Door4,0.204481337,0.033452691,1,0,0,0.8957,optionRight,60,12905,6,16,0,16,0,1,,,,,,,,,,,,,,,,,,,,,,,,,,,,,,,,,,,,,,,
,,,,,,,,2023-08-16_08h35.56.927,HF_wild_card,2022.2.4,MacIntel,59.99520038,59ce3501a5bbdd0001bf45e2,64d2fd46c836a06233681665,64dc7c4f1a8da31a47b5d486,,,,,,,decisionTrl,resources/DG.BMP,resources/DP.BMP,Door2,-0.204709201,0.031366645,1,0,0,1.3655,optionLeft,20,12925,6,17,0,17,0,1,,,,,,,,,,,,,,,,,,,,,,,,,,,,,,,,,,,,,,,
,,,,,,,,2023-08-16_08h35.56.927,HF_wild_card,2022.2.4,MacIntel,59.99520038,59ce3501a5bbdd0001bf45e2,64d2fd46c836a06233681665,64dc7c4f1a8da31a47b5d486,,,,,,,ctch,resources/DP.BMP,resources/DBN.BMP,Door4,0.210023329,0.013121202,1,0,0,1.5841,optionRight,80,13005,6,18,0,18,0,1,,,,,,,,,,,,,,,,,,,,,,,,,,,,,,,,,,,,,,,
,,,,,,,,2023-08-16_08h35.56.927,HF_wild_card,2022.2.4,MacIntel,59.99520038,59ce3501a5bbdd0001bf45e2,64d2fd46c836a06233681665,64dc7c4f1a8da31a47b5d486,,,,,,,decisionTrl,resources/DP.BMP,resources/DR.BMP,WildCard_Ex,0.205872938,0.02027181,1,0,0,0.8973,optionRight,45,13050,6,19,0,19,0,1,,,,,,,,,,,,,,,,,,,,,,,,,,,,,,,,,,,,,,,
,,,,,,,,2023-08-16_08h35.56.927,HF_wild_card,2022.2.4,MacIntel,59.99520038,59ce3501a5bbdd0001bf45e2,64d2fd46c836a06233681665,64dc7c4f1a8da31a47b5d486,,,,,,,decisionTrl,resources/DR.BMP,resources/DY.BMP,Door3,0.232025825,0.022214084,1,0,0,0.963,optionRight,70,13120,6,20,0,20,0,1,,,,,,,,,,,,,,,,,,,,,,,,,,,,,,,,,,,,,,,
,,,,,,,,2023-08-16_08h35.56.927,HF_wild_card,2022.2.4,MacIntel,59.99520038,59ce3501a5bbdd0001bf45e2,64d2fd46c836a06233681665,64dc7c4f1a8da31a47b5d486,,,,,,,decisionTrl,resources/DBN.BMP,resources/DR.BMP,Door4,-0.199831814,0.043939887,1,0,0,0.8143,optionLeft,60,13180,6,21,0,21,0,1,,,,,,,,,,,,,,,,,,,,,,,,,,,,,,,,,,,,,,,
,,,,,,,,2023-08-16_08h35.56.927,HF_wild_card,2022.2.4,MacIntel,59.99520038,59ce3501a5bbdd0001bf45e2,64d2fd46c836a06233681665,64dc7c4f1a8da31a47b5d486,,,,,,,decisionTrl,resources/DP.BMP,resources/DG.BMP,Door1,-0.143326823,0.047583008,1,0,0,1.6145,optionLeft,30,13210,6,22,0,22,0,1,,,,,,,,,,,,,,,,,,,,,,,,,,,,,,,,,,,,,,,
,,,,,,,,2023-08-16_08h35.56.927,HF_wild_card,2022.2.4,MacIntel,59.99520038,59ce3501a5bbdd0001bf45e2,64d2fd46c836a06233681665,64dc7c4f1a8da31a47b5d486,,,,,,,sngl,resources/Empty.png,resources/DR.BMP,WildCard_Ex,0.185595703,0.011013455,1,0,0,0.6979,optionRight,55,13265,6,23,0,23,0,1,,,,,,,,,,,,,,,,,,,,,,,,,,,,,,,,,,,,,,,
,,,,,,,,2023-08-16_08h35.56.927,HF_wild_card,2022.2.4,MacIntel,59.99520038,59ce3501a5bbdd0001bf45e2,64d2fd46c836a06233681665,64dc7c4f1a8da31a47b5d486,,,,,,,ctch,resources/DG.BMP,resources/DY.BMP,Door3,0.189605035,0.019938151,1,0,0,0.8823,optionRight,70,13335,6,24,0,24,0,1,,,,,,,,,,,,,,,,,,,,,,,,,,,,,,,,,,,,,,,
,,,,,,,,2023-08-16_08h35.56.927,HF_wild_card,2022.2.4,MacIntel,59.99520038,59ce3501a5bbdd0001bf45e2,64d2fd46c836a06233681665,64dc7c4f1a8da31a47b5d486,,,,,,,decisionTrl,resources/DBN.BMP,resources/DY.BMP,Door4,-0.198239475,0.047045898,1,0,0,1.1827,optionLeft,80,13415,6,25,0,25,0,1,,,,,,,,,,,,,,,,,,,,,,,,,,,,,,,,,,,,,,,
,,,,,,,,2023-08-16_08h35.56.927,HF_wild_card,2022.2.4,MacIntel,59.99520038,59ce3501a5bbdd0001bf45e2,64d2fd46c836a06233681665,64dc7c4f1a8da31a47b5d486,,,,,,,decisionTrl,resources/DG.BMP,resources/DP.BMP,Door1,0.237727865,-0.00301378,1,0,0,1.4157,optionRight,30,13445,6,26,0,26,0,1,,,,,,,,,,,,,,,,,,,,,,,,,,,,,,,,,,,,,,,
,,,,,,,,2023-08-16_08h35.56.927,HF_wild_card,2022.2.4,MacIntel,59.99520038,59ce3501a5bbdd0001bf45e2,64d2fd46c836a06233681665,64dc7c4f1a8da31a47b5d486,,,,,,,sngl,resources/DG.BMP,resources/Empty.png,Door2,-0.165549045,0.03156467,1,0,0,0.7135,optionLeft,20,13465,6,27,0,27,0,1,,,,,,,,,,,,,,,,,,,,,,,,,,,,,,,,,,,,,,,
,,,,,,,,2023-08-16_08h35.56.927,HF_wild_card,2022.2.4,MacIntel,59.99520038,59ce3501a5bbdd0001bf45e2,64d2fd46c836a06233681665,64dc7c4f1a8da31a47b5d486,,,,,,,sngl,resources/DR.BMP,resources/Empty.png,WildCard_Ex,-0.159152561,0.028363715,1,0,0,0.8647,optionLeft,55,13520,6,28,0,28,0,1,,,,,,,,,,,,,,,,,,,,,,,,,,,,,,,,,,,,,,,
,,,,,,,,2023-08-16_08h35.56.927,HF_wild_card,2022.2.4,MacIntel,59.99520038,59ce3501a5bbdd0001bf45e2,64d2fd46c836a06233681665,64dc7c4f1a8da31a47b5d486,,,,,,,sngl,resources/Empty.png,resources/DG.BMP,Door2,0.222488064,0.009195964,1,0,0,0.7476,optionRight,40,13560,6,29,0,29,0,1,,,,,,,,,,,,,,,,,,,,,,,,,,,,,,,,,,,,,,,
,,,,,,,,2023-08-16_08h35.56.927,HF_wild_card,2022.2.4,MacIntel,59.99520038,59ce3501a5bbdd0001bf45e2,64d2fd46c836a06233681665,64dc7c4f1a8da31a47b5d486,,,,,,,decisionTrl,resources/DR.BMP,resources/DG.BMP,WildCard_Ex,-0.176082357,0.052300347,1,0,0,0.8647,optionLeft,55,13615,6,30,0,30,0,1,,,,,,,,,,,,,,,,,,,,,,,,,,,,,,,,,,,,,,,
,,,,,,,,2023-08-16_08h35.56.927,HF_wild_card,2022.2.4,MacIntel,59.99520038,59ce3501a5bbdd0001bf45e2,64d2fd46c836a06233681665,64dc7c4f1a8da31a47b5d486,,,,,,,sngl,resources/DBN.BMP,resources/Empty.png,Door4,-0.12136773,0.03401964,1,0,0,0.7469,optionLeft,60,13675,6,31,0,31,0,1,,,,,,,,,,,,,,,,,,,,,,,,,,,,,,,,,,,,,,,
,,,,,,,,2023-08-16_08h35.56.927,HF_wild_card,2022.2.4,MacIntel,59.99520038,59ce3501a5bbdd0001bf45e2,64d2fd46c836a06233681665,64dc7c4f1a8da31a47b5d486,,,,,,,sngl,resources/Empty.png,resources/DR.BMP,WildCard_Ex,0.229294162,0.024796549,1,0,0,0.7315,optionRight,45,13720,6,32,0,32,0,1,,,,,,,,,,,,,,,,,,,,,,,,,,,,,,,,,,,,,,,
,,,,,,,,2023-08-16_08h35.56.927,HF_wild_card,2022.2.4,MacIntel,59.99520038,59ce3501a5bbdd0001bf45e2,64d2fd46c836a06233681665,64dc7c4f1a8da31a47b5d486,,,,,,,decisionTrl,resources/DG.BMP,resources/DP.BMP,Door1,0.192697483,0.003971354,1,0,0,1.2653,optionRight,30,13750,6,33,0,33,0,1,,,,,,,,,,,,,,,,,,,,,,,,,,,,,,,,,,,,,,,
,,,,,,,,2023-08-16_08h35.56.927,HF_wild_card,2022.2.4,MacIntel,59.99520038,59ce3501a5bbdd0001bf45e2,64d2fd46c836a06233681665,64dc7c4f1a8da31a47b5d486,,,,,,,decisionTrl,resources/DP.BMP,resources/DG.BMP,Door2,0.176242405,0.012817383,1,0,0,0.7805,optionRight,40,13790,6,34,0,34,0,1,,,,,,,,,,,,,,,,,,,,,,,,,,,,,,,,,,,,,,,
,,,,,,,,2023-08-16_08h35.56.927,HF_wild_card,2022.2.4,MacIntel,59.99520038,59ce3501a5bbdd0001bf45e2,64d2fd46c836a06233681665,64dc7c4f1a8da31a47b5d486,,,,,,,decisionTrl,resources/DY.BMP,resources/DBN.BMP,Door4,0.167919922,0.013978407,1,0,0,1.3325,optionRight,80,13870,6,35,0,35,0,1,,,,,,,,,,,,,,,,,,,,,,,,,,,,,,,,,,,,,,,
,,,,,,,,2023-08-16_08h35.56.927,HF_wild_card,2022.2.4,MacIntel,59.99520038,59ce3501a5bbdd0001bf45e2,64d2fd46c836a06233681665,64dc7c4f1a8da31a47b5d486,,,,,,,decisionTrl,resources/DBN.BMP,resources/DY.BMP,Door4,-0.128681098,0.030284288,1,0,0,0.9815,optionLeft,80,13950,6,36,0,36,0,1,,,,,,,,,,,,,,,,,,,,,,,,,,,,,,,,,,,,,,,
,,,,,,,,2023-08-16_08h35.56.927,HF_wild_card,2022.2.4,MacIntel,59.99520038,59ce3501a5bbdd0001bf45e2,64d2fd46c836a06233681665,64dc7c4f1a8da31a47b5d486,,,,,,,sngl,resources/DY.BMP,resources/Empty.png,Door3,-0.142428928,0.043511285,1,0,0,0.7655,optionLeft,70,14020,6,37,0,37,0,1,,,,,,,,,,,,,,,,,,,,,,,,,,,,,,,,,,,,,,,
,,,,,,,,2023-08-16_08h35.56.927,HF_wild_card,2022.2.4,MacIntel,59.99520038,59ce3501a5bbdd0001bf45e2,64d2fd46c836a06233681665,64dc7c4f1a8da31a47b5d486,,,,,,,ctch,resources/DBN.BMP,resources/DP.BMP,Door4,-0.103171115,0.046275499,1,0,0,0.7319,optionLeft,60,14080,6,38,0,38,0,1,,,,,,,,,,,,,,,,,,,,,,,,,,,,,,,,,,,,,,,
,,,,,,,,2023-08-16_08h35.56.927,HF_wild_card,2022.2.4,MacIntel,59.99520038,59ce3501a5bbdd0001bf45e2,64d2fd46c836a06233681665,64dc7c4f1a8da31a47b5d486,,,,,,,ctch,resources/DP.BMP,resources/DBN.BMP,Door4,0.249310981,0.033737522,1,0,0,0.664,optionRight,80,14160,6,39,0,39,0,1,,,,,,,,,,,,,,,,,,,,,,,,,,,,,,,,,,,,,,,
,,,,,,,,2023-08-16_08h35.56.927,HF_wild_card,2022.2.4,MacIntel,59.99520038,59ce3501a5bbdd0001bf45e2,64d2fd46c836a06233681665,64dc7c4f1a8da31a47b5d486,,,,,,,decisionTrl,resources/DG.BMP,resources/DP.BMP,Door1,0.174853516,0.017458767,1,0,0,1.0673,optionRight,30,14190,6,40,0,40,0,1,,,,,,,,,,,,,,,,,,,,,,,,,,,,,,,,,,,,,,,
,,,,,,,,2023-08-16_08h35.56.927,HF_wild_card,2022.2.4,MacIntel,59.99520038,59ce3501a5bbdd0001bf45e2,64d2fd46c836a06233681665,64dc7c4f1a8da31a47b5d486,,,,,,,sngl,resources/Empty.png,resources/DBN.BMP,Door4,0.221348741,0.023342556,1,0,0,0.7486,optionRight,80,14270,6,41,0,41,0,1,,,,,,,,,,,,,,,,,,,,,,,,,,,,,,,,,,,,,,,
,,,,,,,,2023-08-16_08h35.56.927,HF_wild_card,2022.2.4,MacIntel,59.99520038,59ce3501a5bbdd0001bf45e2,64d2fd46c836a06233681665,64dc7c4f1a8da31a47b5d486,,,,,,,decisionTrl,resources/DY.BMP,resources/DR.BMP,Door3,-0.250745985,0.04680447,1,0,0,0.9995,optionLeft,70,14340,6,42,0,42,0,1,,,,,,,,,,,,,,,,,,,,,,,,,,,,,,,,,,,,,,,
,,,,,,,,2023-08-16_08h35.56.927,HF_wild_card,2022.2.4,MacIntel,59.99520038,59ce3501a5bbdd0001bf45e2,64d2fd46c836a06233681665,64dc7c4f1a8da31a47b5d486,,,,,,,ctch,resources/DBN.BMP,resources/DP.BMP,Door4,-0.191593424,0.044989692,1,0,0,1.1474,optionLeft,80,14420,6,43,0,43,0,1,,,,,,,,,,,,,,,,,,,,,,,,,,,,,,,,,,,,,,,
,,,,,,,,2023-08-16_08h35.56.927,HF_wild_card,2022.2.4,MacIntel,59.99520038,59ce3501a5bbdd0001bf45e2,64d2fd46c836a06233681665,64dc7c4f1a8da31a47b5d486,,,,,,,,,,,,,,,,,,,,,,,,,,5,0,5,0,1,,,,,,,,,,,,,,,,,,,,,,,,,,,,,,,,,,
,,,,,,,,2023-08-16_08h35.56.927,HF_wild_card,2022.2.4,MacIntel,59.99520038,59ce3501a5bbdd0001bf45e2,64d2fd46c836a06233681665,64dc7c4f1a8da31a47b5d486,,,,,,,ctch,resources/DY.BMP,resources/DG.BMP,Door3,-0.15398763,-0.062399631,1,0,0,1.0167,optionLeft,70,14490,7,0,0,0,0,1,,,,,,,,,,,,,,,,,,,,,,,,,,,,,,,,,,,,,,,
,,,,,,,,2023-08-16_08h35.56.927,HF_wild_card,2022.2.4,MacIntel,59.99520038,59ce3501a5bbdd0001bf45e2,64d2fd46c836a06233681665,64dc7c4f1a8da31a47b5d486,,,,,,,decisionTrl,resources/DP.BMP,resources/DG.BMP,Door2,0.201155599,-0.044794379,1,0,0,1.216,optionRight,20,14510,7,1,0,1,0,1,,,,,,,,,,,,,,,,,,,,,,,,,,,,,,,,,,,,,,,
,,,,,,,,2023-08-16_08h35.56.927,HF_wild_card,2022.2.4,MacIntel,59.99520038,59ce3501a5bbdd0001bf45e2,64d2fd46c836a06233681665,64dc7c4f1a8da31a47b5d486,,,,,,,decisionTrl,resources/DBN.BMP,resources/DY.BMP,Door4,-0.203811306,0.016164822,1,0,0,0.7166,optionLeft,60,14570,7,2,0,2,0,1,,,,,,,,,,,,,,,,,,,,,,,,,,,,,,,,,,,,,,,
,,,,,,,,2023-08-16_08h35.56.927,HF_wild_card,2022.2.4,MacIntel,59.99520038,59ce3501a5bbdd0001bf45e2,64d2fd46c836a06233681665,64dc7c4f1a8da31a47b5d486,,,,,,,ctch,resources/DG.BMP,resources/DY.BMP,Door3,0.231423611,-0.036564128,1,0,0,0.7312,optionRight,70,14640,7,3,0,3,0,1,,,,,,,,,,,,,,,,,,,,,,,,,,,,,,,,,,,,,,,
,,,,,,,,2023-08-16_08h35.56.927,HF_wild_card,2022.2.4,MacIntel,59.99520038,59ce3501a5bbdd0001bf45e2,64d2fd46c836a06233681665,64dc7c4f1a8da31a47b5d486,,,,,,,ctch,resources/DY.BMP,resources/DG.BMP,Door3,-0.237093099,-0.01262207,1,0,0,0.667,optionLeft,70,14710,7,4,0,4,0,1,,,,,,,,,,,,,,,,,,,,,,,,,,,,,,,,,,,,,,,
,,,,,,,,2023-08-16_08h35.56.927,HF_wild_card,2022.2.4,MacIntel,59.99520038,59ce3501a5bbdd0001bf45e2,64d2fd46c836a06233681665,64dc7c4f1a8da31a47b5d486,,,,,,,ctch,resources/DP.BMP,resources/DBN.BMP,Door4,0.141305881,-0.028830295,1,0,0,0.7669,optionRight,80,14790,7,5,0,5,0,1,,,,,,,,,,,,,,,,,,,,,,,,,,,,,,,,,,,,,,,
,,,,,,,,2023-08-16_08h35.56.927,HF_wild_card,2022.2.4,MacIntel,59.99520038,59ce3501a5bbdd0001bf45e2,64d2fd46c836a06233681665,64dc7c4f1a8da31a47b5d486,,,,,,,decisionTrl,resources/DY.BMP,resources/DBN.BMP,Door4,0.221416558,-0.021318902,1,0,0,0.7322,optionRight,80,14870,7,6,0,6,0,1,,,,,,,,,,,,,,,,,,,,,,,,,,,,,,,,,,,,,,,
,,,,,,,,2023-08-16_08h35.56.927,HF_wild_card,2022.2.4,MacIntel,59.99520038,59ce3501a5bbdd0001bf45e2,64d2fd46c836a06233681665,64dc7c4f1a8da31a47b5d486,,,,,,,decisionTrl,resources/DBN.BMP,resources/DY.BMP,Door4,-0.170665148,0.025645616,1,0,0,0.932,optionLeft,60,14930,7,7,0,7,0,1,,,,,,,,,,,,,,,,,,,,,,,,,,,,,,,,,,,,,,,
,,,,,,,,2023-08-16_08h35.56.927,HF_wild_card,2022.2.4,MacIntel,59.99520038,59ce3501a5bbdd0001bf45e2,64d2fd46c836a06233681665,64dc7c4f1a8da31a47b5d486,,,,,,,decisionTrl,resources/DY.BMP,resources/DBN.BMP,Door4,0.198101128,-0.011260308,1,0,0,0.6804,optionRight,60,14990,7,8,0,8,0,1,,,,,,,,,,,,,,,,,,,,,,,,,,,,,,,,,,,,,,,
,,,,,,,,2023-08-16_08h35.56.927,HF_wild_card,2022.2.4,MacIntel,59.99520038,59ce3501a5bbdd0001bf45e2,64d2fd46c836a06233681665,64dc7c4f1a8da31a47b5d486,,,,,,,decisionTrl,resources/DBN.BMP,resources/DY.BMP,Door4,-0.160709635,0.024313694,1,0,0,0.6324,optionLeft,60,15050,7,9,0,9,0,1,,,,,,,,,,,,,,,,,,,,,,,,,,,,,,,,,,,,,,,
,,,,,,,,2023-08-16_08h35.56.927,HF_wild_card,2022.2.4,MacIntel,59.99520038,59ce3501a5bbdd0001bf45e2,64d2fd46c836a06233681665,64dc7c4f1a8da31a47b5d486,,,,,,,decisionTrl,resources/DY.BMP,resources/DBN.BMP,Door4,0.239054362,-0.0246148,1,0,0,0.7001,optionRight,80,15130,7,10,0,10,0,1,,,,,,,,,,,,,,,,,,,,,,,,,,,,,,,,,,,,,,,
,,,,,,,,2023-08-16_08h35.56.927,HF_wild_card,2022.2.4,MacIntel,59.99520038,59ce3501a5bbdd0001bf45e2,64d2fd46c836a06233681665,64dc7c4f1a8da31a47b5d486,,,,,,,decisionTrl,resources/DP.BMP,resources/DG.BMP,Door2,0.294411892,-0.024395074,1,0,0,1.4333,optionRight,40,15170,7,11,0,11,0,1,,,,,,,,,,,,,,,,,,,,,,,,,,,,,,,,,,,,,,,
,,,,,,,,2023-08-16_08h35.56.927,HF_wild_card,2022.2.4,MacIntel,59.99520038,59ce3501a5bbdd0001bf45e2,64d2fd46c836a06233681665,64dc7c4f1a8da31a47b5d486,,,,,,,ctch,resources/DBN.BMP,resources/DP.BMP,Door4,-0.240435113,0.031629774,1,0,0,0.7998,optionLeft,80,15250,7,12,0,12,0,1,,,,,,,,,,,,,,,,,,,,,,,,,,,,,,,,,,,,,,,
,,,,,,,,2023-08-16_08h35.56.927,HF_wild_card,2022.2.4,MacIntel,59.99520038,59ce3501a5bbdd0001bf45e2,64d2fd46c836a06233681665,64dc7c4f1a8da31a47b5d486,,,,,,,decisionTrl,resources/DG.BMP,resources/DP.BMP,Door2,-0.239645725,0.008808051,1,0,0,1.1332,optionLeft,20,15270,7,13,0,13,0,1,,,,,,,,,,,,,,,,,,,,,,,,,,,,,,,,,,,,,,,
,,,,,,,,2023-08-16_08h35.56.927,HF_wild_card,2022.2.4,MacIntel,59.99520038,59ce3501a5bbdd0001bf45e2,64d2fd46c836a06233681665,64dc7c4f1a8da31a47b5d486,,,,,,,decisionTrl,resources/DP.BMP,resources/DG.BMP,Door2,0.264984809,-0.022686089,1,0,0,2.0984,optionRight,40,15310,7,14,0,14,0,1,,,,,,,,,,,,,,,,,,,,,,,,,,,,,,,,,,,,,,,
,,,,,,,,2023-08-16_08h35.56.927,HF_wild_card,2022.2.4,MacIntel,59.99520038,59ce3501a5bbdd0001bf45e2,64d2fd46c836a06233681665,64dc7c4f1a8da31a47b5d486,,,,,,,ctch,resources/DG.BMP,resources/DY.BMP,Door3,0.286254883,-0.025805664,1,0,0,0.8151,optionRight,70,15380,7,15,0,15,0,1,,,,,,,,,,,,,,,,,,,,,,,,,,,,,,,,,,,,,,,
,,,,,,,,2023-08-16_08h35.56.927,HF_wild_card,2022.2.4,MacIntel,59.99520038,59ce3501a5bbdd0001bf45e2,64d2fd46c836a06233681665,64dc7c4f1a8da31a47b5d486,,,,,,,decisionTrl,resources/DP.BMP,resources/DG.BMP,Door2,0.223887804,-0.002639431,1,0,0,1.7325,optionRight,40,15420,7,16,0,16,0,1,,,,,,,,,,,,,,,,,,,,,,,,,,,,,,,,,,,,,,,
,,,,,,,,2023-08-16_08h35.56.927,HF_wild_card,2022.2.4,MacIntel,59.99520038,59ce3501a5bbdd0001bf45e2,64d2fd46c836a06233681665,64dc7c4f1a8da31a47b5d486,,,,,,,decisionTrl,resources/DBN.BMP,resources/DY.BMP,Door4,-0.218733724,0.039078776,1,0,0,0.7977,optionLeft,80,15500,7,17,0,17,0,1,,,,,,,,,,,,,,,,,,,,,,,,,,,,,,,,,,,,,,,
,,,,,,,,2023-08-16_08h35.56.927,HF_wild_card,2022.2.4,MacIntel,59.99520038,59ce3501a5bbdd0001bf45e2,64d2fd46c836a06233681665,64dc7c4f1a8da31a47b5d486,,,,,,,decisionTrl,resources/DG.BMP,resources/DP.BMP,Door2,-0.201953125,0.019677734,1,0,0,2.3008,optionLeft,40,15540,7,18,0,18,0,1,,,,,,,,,,,,,,,,,,,,,,,,,,,,,,,,,,,,,,,
,,,,,,,,2023-08-16_08h35.56.927,HF_wild_card,2022.2.4,MacIntel,59.99520038,59ce3501a5bbdd0001bf45e2,64d2fd46c836a06233681665,64dc7c4f1a8da31a47b5d486,,,,,,,ctch,resources/DBN.BMP,resources/DP.BMP,Door4,-0.192659505,0.017442491,1,0,0,0.849,optionLeft,60,15600,7,19,0,19,0,1,,,,,,,,,,,,,,,,,,,,,,,,,,,,,,,,,,,,,,,
,,,,,,,,2023-08-16_08h35.56.927,HF_wild_card,2022.2.4,MacIntel,59.99520038,59ce3501a5bbdd0001bf45e2,64d2fd46c836a06233681665,64dc7c4f1a8da31a47b5d486,,,,,,,decisionTrl,resources/DG.BMP,resources/DP.BMP,Door1,0.221112739,-0.02273763,1,0,0,1.3134,optionRight,30,15630,7,20,0,20,0,1,,,,,,,,,,,,,,,,,,,,,,,,,,,,,,,,,,,,,,,
,,,,,,,,2023-08-16_08h35.56.927,HF_wild_card,2022.2.4,MacIntel,59.99520038,59ce3501a5bbdd0001bf45e2,64d2fd46c836a06233681665,64dc7c4f1a8da31a47b5d486,,,,,,,decisionTrl,resources/DY.BMP,resources/DBN.BMP,Door4,0.228729926,-0.018497721,1,0,0,0.8304,optionRight,80,15710,7,21,0,21,0,1,,,,,,,,,,,,,,,,,,,,,,,,,,,,,,,,,,,,,,,
,,,,,,,,2023-08-16_08h35.56.927,HF_wild_card,2022.2.4,MacIntel,59.99520038,59ce3501a5bbdd0001bf45e2,64d2fd46c836a06233681665,64dc7c4f1a8da31a47b5d486,,,,,,,decisionTrl,resources/DG.BMP,resources/DP.BMP,Door1,0.241346571,-0.044672309,1,0,0,1.4016,optionRight,30,15740,7,22,0,22,0,1,,,,,,,,,,,,,,,,,,,,,,,,,,,,,,,,,,,,,,,
,,,,,,,,2023-08-16_08h35.56.927,HF_wild_card,2022.2.4,MacIntel,59.99520038,59ce3501a5bbdd0001bf45e2,64d2fd46c836a06233681665,64dc7c4f1a8da31a47b5d486,,,,,,,ctch,resources/DBN.BMP,resources/DP.BMP,Door4,-0.230362956,-0.002107747,1,0,0,0.7489,optionLeft,80,15820,7,23,0,23,0,1,,,,,,,,,,,,,,,,,,,,,,,,,,,,,,,,,,,,,,,
,,,,,,,,2023-08-16_08h35.56.927,HF_wild_card,2022.2.4,MacIntel,59.99520038,59ce3501a5bbdd0001bf45e2,64d2fd46c836a06233681665,64dc7c4f1a8da31a47b5d486,,,,,,,decisionTrl,resources/DP.BMP,resources/DG.BMP,Door1,-0.185083008,0.004977756,1,0,0,1.6332,optionLeft,30,15850,7,24,0,24,0,1,,,,,,,,,,,,,,,,,,,,,,,,,,,,,,,,,,,,,,,
,,,,,,,,2023-08-16_08h35.56.927,HF_wild_card,2022.2.4,MacIntel,59.99520038,59ce3501a5bbdd0001bf45e2,64d2fd46c836a06233681665,64dc7c4f1a8da31a47b5d486,,,,,,,ctch,resources/DP.BMP,resources/DBN.BMP,Door4,0.222073025,-0.025431315,1,0,0,0.6842,optionRight,60,15910,7,25,0,25,0,1,,,,,,,,,,,,,,,,,,,,,,,,,,,,,,,,,,,,,,,
,,,,,,,,2023-08-16_08h35.56.927,HF_wild_card,2022.2.4,MacIntel,59.99520038,59ce3501a5bbdd0001bf45e2,64d2fd46c836a06233681665,64dc7c4f1a8da31a47b5d486,,,,,,,decisionTrl,resources/DG.BMP,resources/DP.BMP,Door2,-0.17093099,-0.005284288,1,0,0,1.683,optionLeft,20,15930,7,26,0,26,0,1,,,,,,,,,,,,,,,,,,,,,,,,,,,,,,,,,,,,,,,
,,,,,,,,2023-08-16_08h35.56.927,HF_wild_card,2022.2.4,MacIntel,59.99520038,59ce3501a5bbdd0001bf45e2,64d2fd46c836a06233681665,64dc7c4f1a8da31a47b5d486,,,,,,,decisionTrl,resources/DY.BMP,resources/DBN.BMP,Door4,0.225987413,-0.031149631,1,0,0,0.7489,optionRight,60,15990,7,27,0,27,0,1,,,,,,,,,,,,,,,,,,,,,,,,,,,,,,,,,,,,,,,
,,,,,,,,2023-08-16_08h35.56.927,HF_wild_card,2022.2.4,MacIntel,59.99520038,59ce3501a5bbdd0001bf45e2,64d2fd46c836a06233681665,64dc7c4f1a8da31a47b5d486,,,,,,,ctch,resources/DG.BMP,resources/DY.BMP,Door3,0.238270399,-0.044547526,1,0,0,0.8641,optionRight,70,16060,7,28,0,28,0,1,,,,,,,,,,,,,,,,,,,,,,,,,,,,,,,,,,,,,,,
,,,,,,,,2023-08-16_08h35.56.927,HF_wild_card,2022.2.4,MacIntel,59.99520038,59ce3501a5bbdd0001bf45e2,64d2fd46c836a06233681665,64dc7c4f1a8da31a47b5d486,,,,,,,ctch,resources/DP.BMP,resources/DBN.BMP,Door4,0.217176649,-0.013121202,1,0,0,0.7837,optionRight,80,16140,7,29,0,29,0,1,,,,,,,,,,,,,,,,,,,,,,,,,,,,,,,,,,,,,,,
,,,,,,,,2023-08-16_08h35.56.927,HF_wild_card,2022.2.4,MacIntel,59.99520038,59ce3501a5bbdd0001bf45e2,64d2fd46c836a06233681665,64dc7c4f1a8da31a47b5d486,,,,,,,decisionTrl,resources/DG.BMP,resources/DP.BMP,Door1,0.335842556,-0.051413303,1,0,0,1.3156,optionRight,30,16170,7,30,0,30,0,1,,,,,,,,,,,,,,,,,,,,,,,,,,,,,,,,,,,,,,,
,,,,,,,,2023-08-16_08h35.56.927,HF_wild_card,2022.2.4,MacIntel,59.99520038,59ce3501a5bbdd0001bf45e2,64d2fd46c836a06233681665,64dc7c4f1a8da31a47b5d486,,,,,,,ctch,resources/DY.BMP,resources/DG.BMP,Door3,-0.181898329,0.008870443,1,0,0,0.9325,optionLeft,70,16240,7,31,0,31,0,1,,,,,,,,,,,,,,,,,,,,,,,,,,,,,,,,,,,,,,,
,,,,,,,,2023-08-16_08h35.56.927,HF_wild_card,2022.2.4,MacIntel,59.99520038,59ce3501a5bbdd0001bf45e2,64d2fd46c836a06233681665,64dc7c4f1a8da31a47b5d486,,,,,,,decisionTrl,resources/DP.BMP,resources/DG.BMP,Door1,-0.131952582,-0.007549371,1,0,0,2.0009,optionLeft,30,16270,7,32,0,32,0,1,,,,,,,,,,,,,,,,,,,,,,,,,,,,,,,,,,,,,,,
,,,,,,,,2023-08-16_08h35.56.927,HF_wild_card,2022.2.4,MacIntel,59.99520038,59ce3501a5bbdd0001bf45e2,64d2fd46c836a06233681665,64dc7c4f1a8da31a47b5d486,,,,,,,decisionTrl,resources/DBN.BMP,resources/DY.BMP,Door4,-0.202753364,0.018023003,1,0,0,1.1184,optionLeft,80,16350,7,33,0,33,0,1,,,,,,,,,,,,,,,,,,,,,,,,,,,,,,,,,,,,,,,
,,,,,,,,2023-08-16_08h35.56.927,HF_wild_card,2022.2.4,MacIntel,59.99520038,59ce3501a5bbdd0001bf45e2,64d2fd46c836a06233681665,64dc7c4f1a8da31a47b5d486,,,,,,,decisionTrl,resources/DY.BMP,resources/DBN.BMP,Door4,0.259426541,-0.022146267,1,0,0,0.8496,optionRight,80,16430,7,34,0,34,0,1,,,,,,,,,,,,,,,,,,,,,,,,,,,,,,,,,,,,,,,
,,,,,,,,2023-08-16_08h35.56.927,HF_wild_card,2022.2.4,MacIntel,59.99520038,59ce3501a5bbdd0001bf45e2,64d2fd46c836a06233681665,64dc7c4f1a8da31a47b5d486,,,,,,,decisionTrl,resources/DBN.BMP,resources/DY.BMP,Door4,-0.180259874,-0.009326172,1,0,0,0.6991,optionLeft,60,16490,7,35,0,35,0,1,,,,,,,,,,,,,,,,,,,,,,,,,,,,,,,,,,,,,,,
,,,,,,,,2023-08-16_08h35.56.927,HF_wild_card,2022.2.4,MacIntel,59.99520038,59ce3501a5bbdd0001bf45e2,64d2fd46c836a06233681665,64dc7c4f1a8da31a47b5d486,,,,,,,,,,,,,,,,,,,,,,,,,,6,0,6,0,1,,,,,,,,,,,,,,,,,,,,,,,,,,,,,,,,,,
,,,,,,,,2023-08-16_08h35.56.927,HF_wild_card,2022.2.4,MacIntel,59.99520038,59ce3501a5bbdd0001bf45e2,64d2fd46c836a06233681665,64dc7c4f1a8da31a47b5d486,,,,,,,,,,,,,,,,,,,,,,,,,,,,,,,4,,,,,,,,,,,,,,,,,,,,,,,,,,,,,,,,,
,,,,,,,,2023-08-16_08h35.56.927,HF_wild_card,2022.2.4,MacIntel,59.99520038,59ce3501a5bbdd0001bf45e2,64d2fd46c836a06233681665,64dc7c4f1a8da31a47b5d486,,,,,,,,,,,,,,,,,,,,,,,,,,,,,,,,,,,,,,,,,,,,,,,,,,,,,,,,,,,,,,,,
,,,,,,,,2023-08-16_08h35.56.927,HF_wild_card,2022.2.4,MacIntel,59.99520038,59ce3501a5bbdd0001bf45e2,64d2fd46c836a06233681665,64dc7c4f1a8da31a47b5d486,,,,,,,,,,,,,,,,,,,,,,,,,,,,,,,,45,WC_nonExtreme,resources/DB.BMP,0,0,0,0,1,,,,,,,,,,,,,,,,,,,,,,,,,
,,,,,,,,2023-08-16_08h35.56.927,HF_wild_card,2022.2.4,MacIntel,59.99520038,59ce3501a5bbdd0001bf45e2,64d2fd46c836a06233681665,64dc7c4f1a8da31a47b5d486,,,,,,,,,,,,,,,,,,,,,,,,,,,,,,,,70,Door4,resources/DBN.BMP,1,0,1,0,1,,,,,,,,,,,,,,,,,,,,,,,,,
,,,,,,,,2023-08-16_08h35.56.927,HF_wild_card,2022.2.4,MacIntel,59.99520038,59ce3501a5bbdd0001bf45e2,64d2fd46c836a06233681665,64dc7c4f1a8da31a47b5d486,,,,,,,,,,,,,,,,,,,,,,,,,,,,,,,,50,WC_extreme,resources/DR.BMP,2,0,2,0,1,,,,,,,,,,,,,,,,,,,,,,,,,
