Condition,Low fixed image (Door1),Low risky image (Door2),High fixed image (Door3),High risky image (Door4),Extreme Wild Card,NonExtreme Wild Card,,date,expName,psychopyVersion,OS,frameRate,PROLIFIC_PID,STUDY_ID,SESSION_ID,mouse_2.x,mouse_2.y,mouse_2.leftButton,mouse_2.midButton,mouse_2.rightButton,mouse_2.clicked_name,Trial Type,Left Option Image,Right Option Image,Chosen Door,mouse.x,mouse.y,mouse.leftButton,mouse.midButton,mouse.rightButton,mouse.time,mouse.clicked_name,Feedback,Cumulative Reward,Block,trial.thisRepN,trial.thisTrialN,trial.thisN,trial.thisIndex,trial.ran,blocks.thisRepN,blocks.thisTrialN,blocks.thisN,blocks.thisIndex,blocks.ran,Money conversion,First Outcome Reported,Shown Door (First Outcome),Displayed Image (First Outcome),outcomes.thisRepN,outcomes.thisTrialN,outcomes.thisN,outcomes.thisIndex,outcomes.ran,judgments.thisRepN,judgments.thisTrialN,judgments.thisN,judgments.thisIndex,judgments.ran,freqMouse.x,freqMouse.y,freqMouse.leftButton,freqMouse.midButton,freqMouse.rightButton,freqMouse.clicked_name,FQJ for first outcome,FQJ for second outcome,Shown Door,Displayed Image,trials.thisRepN,trials.thisTrialN,trials.thisN,trials.thisIndex,trials.ran,judgBlock.thisRepN,judgBlock.thisTrialN,judgBlock.thisN,judgBlock.thisIndex,judgBlock.ran
0,resources/DY.BMP,resources/DP.BMP,resources/DB.BMP,resources/DBN.BMP,resources/DG.BMP,resources/DR.BMP,,2023-08-16_08h37.53.466,HF_wild_card,2022.2.4,Win32,59.86948452,5aa836d6f053610001728189,64d2fd46c836a06233681665,64dc7c6922e0e5d178a08dc2,,,,,,,,,,,,,,,,,,,,,,,,,,,,,,,,,,,,,,,,,,,,,,,,,,,,,,,,,,,,,,,,
,,,,,,,,2023-08-16_08h37.53.466,HF_wild_card,2022.2.4,Win32,59.86948452,5aa836d6f053610001728189,64d2fd46c836a06233681665,64dc7c6922e0e5d178a08dc2,-0.004934211,-0.416118421,1,0,0,agree,,,,,,,,,,,,,,,,,,,,,,,,,,,,,,,,,,,,,,,,,,,,,,,,,,,,,,,,,,
,,,,,,,,2023-08-16_08h37.53.466,HF_wild_card,2022.2.4,Win32,59.86948452,5aa836d6f053610001728189,64d2fd46c836a06233681665,64dc7c6922e0e5d178a08dc2,,,,,,,,,,,,,,,,,,,,,,,,,,,,,,,,,,,,,,,,,,,,,,,,,,,,,,,,,,,,,,,,
,,,,,,,,2023-08-16_08h37.53.466,HF_wild_card,2022.2.4,Win32,59.86948452,5aa836d6f053610001728189,64d2fd46c836a06233681665,64dc7c6922e0e5d178a08dc2,,,,,,,ctch,resources/DY.BMP,resources/DBN.BMP,Door4,0.284539474,-0.0625,1,0,0,2.8782,optionRight,80,80,1,0,0,0,0,1,,,,,,,,,,,,,,,,,,,,,,,,,,,,,,,,,,,,,,,
,,,,,,,,2023-08-16_08h37.53.466,HF_wild_card,2022.2.4,Win32,59.86948452,5aa836d6f053610001728189,64d2fd46c836a06233681665,64dc7c6922e0e5d178a08dc2,,,,,,,decisionTrl,resources/DB.BMP,resources/DBN.BMP,Door3,-0.370065789,-0.070175439,1,0,0,1.9951,optionLeft,70,150,1,1,0,1,0,1,,,,,,,,,,,,,,,,,,,,,,,,,,,,,,,,,,,,,,,
,,,,,,,,2023-08-16_08h37.53.466,HF_wild_card,2022.2.4,Win32,59.86948452,5aa836d6f053610001728189,64d2fd46c836a06233681665,64dc7c6922e0e5d178a08dc2,,,,,,,sngl,resources/Empty.png,resources/DG.BMP,WildCard_Ex,0.344846491,-0.018092105,1,0,0,1.6192,optionRight,95,245,1,2,0,2,0,1,,,,,,,,,,,,,,,,,,,,,,,,,,,,,,,,,,,,,,,
,,,,,,,,2023-08-16_08h37.53.466,HF_wild_card,2022.2.4,Win32,59.86948452,5aa836d6f053610001728189,64d2fd46c836a06233681665,64dc7c6922e0e5d178a08dc2,,,,,,,decisionTrl,resources/DG.BMP,resources/DBN.BMP,Door4,0.433662281,0.042214912,1,0,0,2.9046,optionRight,80,325,1,3,0,3,0,1,,,,,,,,,,,,,,,,,,,,,,,,,,,,,,,,,,,,,,,
,,,,,,,,2023-08-16_08h37.53.466,HF_wild_card,2022.2.4,Win32,59.86948452,5aa836d6f053610001728189,64d2fd46c836a06233681665,64dc7c6922e0e5d178a08dc2,,,,,,,decisionTrl,resources/DBN.BMP,resources/DB.BMP,Door4,-0.322368421,0.071820175,1,0,0,2.5296,optionLeft,80,405,1,4,0,4,0,1,,,,,,,,,,,,,,,,,,,,,,,,,,,,,,,,,,,,,,,
,,,,,,,,2023-08-16_08h37.53.466,HF_wild_card,2022.2.4,Win32,59.86948452,5aa836d6f053610001728189,64d2fd46c836a06233681665,64dc7c6922e0e5d178a08dc2,,,,,,,ctch,resources/DBN.BMP,resources/DY.BMP,Door1,0.300986842,-0.016447368,1,0,0,1.8305,optionRight,30,435,1,5,0,5,0,1,,,,,,,,,,,,,,,,,,,,,,,,,,,,,,,,,,,,,,,
,,,,,,,,2023-08-16_08h37.53.466,HF_wild_card,2022.2.4,Win32,59.86948452,5aa836d6f053610001728189,64d2fd46c836a06233681665,64dc7c6922e0e5d178a08dc2,,,,,,,ctch,resources/DBN.BMP,resources/DY.BMP,Door4,-0.310307018,0.041118421,1,0,0,0.8542,optionLeft,60,495,1,6,0,6,0,1,,,,,,,,,,,,,,,,,,,,,,,,,,,,,,,,,,,,,,,
,,,,,,,,2023-08-16_08h37.53.466,HF_wild_card,2022.2.4,Win32,59.86948452,5aa836d6f053610001728189,64d2fd46c836a06233681665,64dc7c6922e0e5d178a08dc2,,,,,,,sngl,resources/Empty.png,resources/DP.BMP,Door2,0.328399123,-0.029605263,1,0,0,1.1791,optionRight,20,515,1,7,0,7,0,1,,,,,,,,,,,,,,,,,,,,,,,,,,,,,,,,,,,,,,,
,,,,,,,,2023-08-16_08h37.53.466,HF_wild_card,2022.2.4,Win32,59.86948452,5aa836d6f053610001728189,64d2fd46c836a06233681665,64dc7c6922e0e5d178a08dc2,,,,,,,decisionTrl,resources/DBN.BMP,resources/DB.BMP,Door4,-0.354166667,0.058114035,1,0,0,0.7709,optionLeft,60,575,1,8,0,8,0,1,,,,,,,,,,,,,,,,,,,,,,,,,,,,,,,,,,,,,,,
,,,,,,,,2023-08-16_08h37.53.466,HF_wild_card,2022.2.4,Win32,59.86948452,5aa836d6f053610001728189,64d2fd46c836a06233681665,64dc7c6922e0e5d178a08dc2,,,,,,,sngl,resources/DP.BMP,resources/Empty.png,Door2,-0.32620614,0.001644737,1,0,0,1.1963,optionLeft,40,615,1,9,0,9,0,1,,,,,,,,,,,,,,,,,,,,,,,,,,,,,,,,,,,,,,,
,,,,,,,,2023-08-16_08h37.53.466,HF_wild_card,2022.2.4,Win32,59.86948452,5aa836d6f053610001728189,64d2fd46c836a06233681665,64dc7c6922e0e5d178a08dc2,,,,,,,decisionTrl,resources/DB.BMP,resources/DBN.BMP,Door4,0.344298246,0.035635965,1,0,0,0.9798,optionRight,80,695,1,10,0,10,0,1,,,,,,,,,,,,,,,,,,,,,,,,,,,,,,,,,,,,,,,
,,,,,,,,2023-08-16_08h37.53.466,HF_wild_card,2022.2.4,Win32,59.86948452,5aa836d6f053610001728189,64d2fd46c836a06233681665,64dc7c6922e0e5d178a08dc2,,,,,,,sngl,resources/DG.BMP,resources/Empty.png,WildCard_Ex,-0.332236842,0.033442982,1,0,0,1.0589,optionLeft,5,700,1,11,0,11,0,1,,,,,,,,,,,,,,,,,,,,,,,,,,,,,,,,,,,,,,,
,,,,,,,,2023-08-16_08h37.53.466,HF_wild_card,2022.2.4,Win32,59.86948452,5aa836d6f053610001728189,64d2fd46c836a06233681665,64dc7c6922e0e5d178a08dc2,,,,,,,sngl,resources/DG.BMP,resources/Empty.png,WildCard_Ex,-0.285087719,0.029057018,1,0,0,1.7423,optionLeft,95,795,1,12,0,12,0,1,,,,,,,,,,,,,,,,,,,,,,,,,,,,,,,,,,,,,,,
,,,,,,,,2023-08-16_08h37.53.466,HF_wild_card,2022.2.4,Win32,59.86948452,5aa836d6f053610001728189,64d2fd46c836a06233681665,64dc7c6922e0e5d178a08dc2,,,,,,,decisionTrl,resources/DG.BMP,resources/DP.BMP,WildCard_Ex,-0.255482456,-0.009868421,1,0,0,1.9627,optionLeft,95,890,1,13,0,13,0,1,,,,,,,,,,,,,,,,,,,,,,,,,,,,,,,,,,,,,,,
,,,,,,,,2023-08-16_08h37.53.466,HF_wild_card,2022.2.4,Win32,59.86948452,5aa836d6f053610001728189,64d2fd46c836a06233681665,64dc7c6922e0e5d178a08dc2,,,,,,,ctch,resources/DP.BMP,resources/DB.BMP,Door3,0.413377193,-0.011513158,1,0,0,1.6139,optionRight,70,960,1,14,0,14,0,1,,,,,,,,,,,,,,,,,,,,,,,,,,,,,,,,,,,,,,,
,,,,,,,,2023-08-16_08h37.53.466,HF_wild_card,2022.2.4,Win32,59.86948452,5aa836d6f053610001728189,64d2fd46c836a06233681665,64dc7c6922e0e5d178a08dc2,,,,,,,decisionTrl,resources/DB.BMP,resources/DBN.BMP,Door4,0.308662281,0.029057018,1,0,0,1.0028,optionRight,80,1040,1,15,0,15,0,1,,,,,,,,,,,,,,,,,,,,,,,,,,,,,,,,,,,,,,,
,,,,,,,,2023-08-16_08h37.53.466,HF_wild_card,2022.2.4,Win32,59.86948452,5aa836d6f053610001728189,64d2fd46c836a06233681665,64dc7c6922e0e5d178a08dc2,,,,,,,sngl,resources/Empty.png,resources/DB.BMP,Door3,0.254934211,0.018640351,1,0,0,0.9161,optionRight,70,1110,1,16,0,16,0,1,,,,,,,,,,,,,,,,,,,,,,,,,,,,,,,,,,,,,,,
,,,,,,,,2023-08-16_08h37.53.466,HF_wild_card,2022.2.4,Win32,59.86948452,5aa836d6f053610001728189,64d2fd46c836a06233681665,64dc7c6922e0e5d178a08dc2,,,,,,,decisionTrl,resources/DBN.BMP,resources/DB.BMP,Door4,-0.304824561,0.050438596,1,0,0,1.1972,optionLeft,80,1190,1,17,0,17,0,1,,,,,,,,,,,,,,,,,,,,,,,,,,,,,,,,,,,,,,,
,,,,,,,,2023-08-16_08h37.53.466,HF_wild_card,2022.2.4,Win32,59.86948452,5aa836d6f053610001728189,64d2fd46c836a06233681665,64dc7c6922e0e5d178a08dc2,,,,,,,ctch,resources/DY.BMP,resources/DBN.BMP,Door4,0.364035088,-0.027412281,1,0,0,0.9415,optionRight,60,1250,1,18,0,18,0,1,,,,,,,,,,,,,,,,,,,,,,,,,,,,,,,,,,,,,,,
,,,,,,,,2023-08-16_08h37.53.466,HF_wild_card,2022.2.4,Win32,59.86948452,5aa836d6f053610001728189,64d2fd46c836a06233681665,64dc7c6922e0e5d178a08dc2,,,,,,,decisionTrl,resources/DP.BMP,resources/DY.BMP,Door1,0.317434211,-0.024671053,1,0,0,1.5147,optionRight,30,1280,1,19,0,19,0,1,,,,,,,,,,,,,,,,,,,,,,,,,,,,,,,,,,,,,,,
,,,,,,,,2023-08-16_08h37.53.466,HF_wild_card,2022.2.4,Win32,59.86948452,5aa836d6f053610001728189,64d2fd46c836a06233681665,64dc7c6922e0e5d178a08dc2,,,,,,,decisionTrl,resources/DBN.BMP,resources/DG.BMP,Door4,-0.359100877,0.100328947,1,0,0,0.8466,optionLeft,60,1340,1,20,0,20,0,1,,,,,,,,,,,,,,,,,,,,,,,,,,,,,,,,,,,,,,,
,,,,,,,,2023-08-16_08h37.53.466,HF_wild_card,2022.2.4,Win32,59.86948452,5aa836d6f053610001728189,64d2fd46c836a06233681665,64dc7c6922e0e5d178a08dc2,,,,,,,decisionTrl,resources/DY.BMP,resources/DP.BMP,Door2,0.291666667,-0.00877193,1,0,0,3.1647,optionRight,40,1380,1,21,0,21,0,1,,,,,,,,,,,,,,,,,,,,,,,,,,,,,,,,,,,,,,,
,,,,,,,,2023-08-16_08h37.53.466,HF_wild_card,2022.2.4,Win32,59.86948452,5aa836d6f053610001728189,64d2fd46c836a06233681665,64dc7c6922e0e5d178a08dc2,,,,,,,decisionTrl,resources/DG.BMP,resources/DY.BMP,Door1,0.291118421,-0.004934211,1,0,0,3.2465,optionRight,30,1410,1,22,0,22,0,1,,,,,,,,,,,,,,,,,,,,,,,,,,,,,,,,,,,,,,,
,,,,,,,,2023-08-16_08h37.53.466,HF_wild_card,2022.2.4,Win32,59.86948452,5aa836d6f053610001728189,64d2fd46c836a06233681665,64dc7c6922e0e5d178a08dc2,,,,,,,ctch,resources/DP.BMP,resources/DB.BMP,Door2,-0.354714912,0.043859649,1,0,0,1.696,optionLeft,20,1430,1,23,0,23,0,1,,,,,,,,,,,,,,,,,,,,,,,,,,,,,,,,,,,,,,,
,,,,,,,,2023-08-16_08h37.53.466,HF_wild_card,2022.2.4,Win32,59.86948452,5aa836d6f053610001728189,64d2fd46c836a06233681665,64dc7c6922e0e5d178a08dc2,,,,,,,decisionTrl,resources/DP.BMP,resources/DY.BMP,Door1,0.292214912,0.02247807,1,0,0,1.0459,optionRight,30,1460,1,24,0,24,0,1,,,,,,,,,,,,,,,,,,,,,,,,,,,,,,,,,,,,,,,
,,,,,,,,2023-08-16_08h37.53.466,HF_wild_card,2022.2.4,Win32,59.86948452,5aa836d6f053610001728189,64d2fd46c836a06233681665,64dc7c6922e0e5d178a08dc2,,,,,,,sngl,resources/DY.BMP,resources/Empty.png,Door1,-0.277960526,0.051535088,1,0,0,0.7807,optionLeft,30,1490,1,25,0,25,0,1,,,,,,,,,,,,,,,,,,,,,,,,,,,,,,,,,,,,,,,
,,,,,,,,2023-08-16_08h37.53.466,HF_wild_card,2022.2.4,Win32,59.86948452,5aa836d6f053610001728189,64d2fd46c836a06233681665,64dc7c6922e0e5d178a08dc2,,,,,,,ctch,resources/DB.BMP,resources/DP.BMP,Door3,-0.358004386,0.04495614,1,0,0,1.1808,optionLeft,70,1560,1,26,0,26,0,1,,,,,,,,,,,,,,,,,,,,,,,,,,,,,,,,,,,,,,,
,,,,,,,,2023-08-16_08h37.53.466,HF_wild_card,2022.2.4,Win32,59.86948452,5aa836d6f053610001728189,64d2fd46c836a06233681665,64dc7c6922e0e5d178a08dc2,,,,,,,decisionTrl,resources/DB.BMP,resources/DG.BMP,Door3,-0.320175439,0.025767544,1,0,0,1.3302,optionLeft,70,1630,1,27,0,27,0,1,,,,,,,,,,,,,,,,,,,,,,,,,,,,,,,,,,,,,,,
,,,,,,,,2023-08-16_08h37.53.466,HF_wild_card,2022.2.4,Win32,59.86948452,5aa836d6f053610001728189,64d2fd46c836a06233681665,64dc7c6922e0e5d178a08dc2,,,,,,,decisionTrl,resources/DY.BMP,resources/DP.BMP,Door2,0.337171053,-0.084429825,1,0,0,2.8465,optionRight,40,1670,1,28,0,28,0,1,,,,,,,,,,,,,,,,,,,,,,,,,,,,,,,,,,,,,,,
,,,,,,,,2023-08-16_08h37.53.466,HF_wild_card,2022.2.4,Win32,59.86948452,5aa836d6f053610001728189,64d2fd46c836a06233681665,64dc7c6922e0e5d178a08dc2,,,,,,,decisionTrl,resources/DG.BMP,resources/DB.BMP,Door3,0.271929825,-0.034539474,1,0,0,3.6988,optionRight,70,1740,1,29,0,29,0,1,,,,,,,,,,,,,,,,,,,,,,,,,,,,,,,,,,,,,,,
,,,,,,,,2023-08-16_08h37.53.466,HF_wild_card,2022.2.4,Win32,59.86948452,5aa836d6f053610001728189,64d2fd46c836a06233681665,64dc7c6922e0e5d178a08dc2,,,,,,,sngl,resources/DB.BMP,resources/Empty.png,Door3,-0.314144737,0.024671053,1,0,0,0.7873,optionLeft,70,1810,1,30,0,30,0,1,,,,,,,,,,,,,,,,,,,,,,,,,,,,,,,,,,,,,,,
,,,,,,,,2023-08-16_08h37.53.466,HF_wild_card,2022.2.4,Win32,59.86948452,5aa836d6f053610001728189,64d2fd46c836a06233681665,64dc7c6922e0e5d178a08dc2,,,,,,,decisionTrl,resources/DP.BMP,resources/DY.BMP,Door2,-0.342105263,0.003837719,1,0,0,2.3431,optionLeft,40,1850,1,31,0,31,0,1,,,,,,,,,,,,,,,,,,,,,,,,,,,,,,,,,,,,,,,
,,,,,,,,2023-08-16_08h37.53.466,HF_wild_card,2022.2.4,Win32,59.86948452,5aa836d6f053610001728189,64d2fd46c836a06233681665,64dc7c6922e0e5d178a08dc2,,,,,,,decisionTrl,resources/DY.BMP,resources/DP.BMP,Door1,-0.336622807,-0.04879386,1,0,0,3.6161,optionLeft,30,1880,1,32,0,32,0,1,,,,,,,,,,,,,,,,,,,,,,,,,,,,,,,,,,,,,,,
,,,,,,,,2023-08-16_08h37.53.466,HF_wild_card,2022.2.4,Win32,59.86948452,5aa836d6f053610001728189,64d2fd46c836a06233681665,64dc7c6922e0e5d178a08dc2,,,,,,,sngl,resources/Empty.png,resources/DY.BMP,Door1,0.438048246,0.004385965,1,0,0,0.8648,optionRight,30,1910,1,33,0,33,0,1,,,,,,,,,,,,,,,,,,,,,,,,,,,,,,,,,,,,,,,
,,,,,,,,2023-08-16_08h37.53.466,HF_wild_card,2022.2.4,Win32,59.86948452,5aa836d6f053610001728189,64d2fd46c836a06233681665,64dc7c6922e0e5d178a08dc2,,,,,,,decisionTrl,resources/DY.BMP,resources/DP.BMP,Door2,0.343201754,0.043859649,1,0,0,1.1633,optionRight,40,1950,1,34,0,34,0,1,,,,,,,,,,,,,,,,,,,,,,,,,,,,,,,,,,,,,,,
,,,,,,,,2023-08-16_08h37.53.466,HF_wild_card,2022.2.4,Win32,59.86948452,5aa836d6f053610001728189,64d2fd46c836a06233681665,64dc7c6922e0e5d178a08dc2,,,,,,,decisionTrl,resources/DB.BMP,resources/DBN.BMP,Door4,0.28125,0.081140351,1,0,0,1.3141,optionRight,60,2010,1,35,0,35,0,1,,,,,,,,,,,,,,,,,,,,,,,,,,,,,,,,,,,,,,,
,,,,,,,,2023-08-16_08h37.53.466,HF_wild_card,2022.2.4,Win32,59.86948452,5aa836d6f053610001728189,64d2fd46c836a06233681665,64dc7c6922e0e5d178a08dc2,,,,,,,ctch,resources/DB.BMP,resources/DP.BMP,Door3,-0.341008772,0.032894737,1,0,0,1.5118,optionLeft,70,2080,1,36,0,36,0,1,,,,,,,,,,,,,,,,,,,,,,,,,,,,,,,,,,,,,,,
,,,,,,,,2023-08-16_08h37.53.466,HF_wild_card,2022.2.4,Win32,59.86948452,5aa836d6f053610001728189,64d2fd46c836a06233681665,64dc7c6922e0e5d178a08dc2,,,,,,,sngl,resources/Empty.png,resources/DG.BMP,WildCard_Ex,0.372807018,-0.007127193,1,0,0,0.9638,optionRight,5,2085,1,37,0,37,0,1,,,,,,,,,,,,,,,,,,,,,,,,,,,,,,,,,,,,,,,
,,,,,,,,2023-08-16_08h37.53.466,HF_wild_card,2022.2.4,Win32,59.86948452,5aa836d6f053610001728189,64d2fd46c836a06233681665,64dc7c6922e0e5d178a08dc2,,,,,,,decisionTrl,resources/DP.BMP,resources/DG.BMP,Door2,-0.331140351,0.0625,1,0,0,1.0801,optionLeft,40,2125,1,38,0,38,0,1,,,,,,,,,,,,,,,,,,,,,,,,,,,,,,,,,,,,,,,
,,,,,,,,2023-08-16_08h37.53.466,HF_wild_card,2022.2.4,Win32,59.86948452,5aa836d6f053610001728189,64d2fd46c836a06233681665,64dc7c6922e0e5d178a08dc2,,,,,,,decisionTrl,resources/DBN.BMP,resources/DB.BMP,Door4,-0.32620614,0.0625,1,0,0,0.9966,optionLeft,60,2185,1,39,0,39,0,1,,,,,,,,,,,,,,,,,,,,,,,,,,,,,,,,,,,,,,,
,,,,,,,,2023-08-16_08h37.53.466,HF_wild_card,2022.2.4,Win32,59.86948452,5aa836d6f053610001728189,64d2fd46c836a06233681665,64dc7c6922e0e5d178a08dc2,,,,,,,decisionTrl,resources/DP.BMP,resources/DY.BMP,Door2,-0.354166667,0.023026316,1,0,0,2.4807,optionLeft,20,2205,1,40,0,40,0,1,,,,,,,,,,,,,,,,,,,,,,,,,,,,,,,,,,,,,,,
,,,,,,,,2023-08-16_08h37.53.466,HF_wild_card,2022.2.4,Win32,59.86948452,5aa836d6f053610001728189,64d2fd46c836a06233681665,64dc7c6922e0e5d178a08dc2,,,,,,,sngl,resources/Empty.png,resources/DBN.BMP,Door4,0.362390351,0.038925439,1,0,0,0.8106,optionRight,60,2265,1,41,0,41,0,1,,,,,,,,,,,,,,,,,,,,,,,,,,,,,,,,,,,,,,,
,,,,,,,,2023-08-16_08h37.53.466,HF_wild_card,2022.2.4,Win32,59.86948452,5aa836d6f053610001728189,64d2fd46c836a06233681665,64dc7c6922e0e5d178a08dc2,,,,,,,decisionTrl,resources/DY.BMP,resources/DG.BMP,WildCard_Ex,0.319078947,0.025767544,1,0,0,1.0287,optionRight,5,2270,1,42,0,42,0,1,,,,,,,,,,,,,,,,,,,,,,,,,,,,,,,,,,,,,,,
,,,,,,,,2023-08-16_08h37.53.466,HF_wild_card,2022.2.4,Win32,59.86948452,5aa836d6f053610001728189,64d2fd46c836a06233681665,64dc7c6922e0e5d178a08dc2,,,,,,,sngl,resources/DBN.BMP,resources/Empty.png,Door4,-0.377192982,0.134868421,1,0,0,0.6297,optionLeft,80,2350,1,43,0,43,0,1,,,,,,,,,,,,,,,,,,,,,,,,,,,,,,,,,,,,,,,
,,,,,,,,2023-08-16_08h37.53.466,HF_wild_card,2022.2.4,Win32,59.86948452,5aa836d6f053610001728189,64d2fd46c836a06233681665,64dc7c6922e0e5d178a08dc2,,,,,,,,,,,,,,,,,,,,,,,,,,0,0,0,0,1,,,,,,,,,,,,,,,,,,,,,,,,,,,,,,,,,,
,,,,,,,,2023-08-16_08h37.53.466,HF_wild_card,2022.2.4,Win32,59.86948452,5aa836d6f053610001728189,64d2fd46c836a06233681665,64dc7c6922e0e5d178a08dc2,,,,,,,decisionTrl,resources/DP.BMP,resources/DG.BMP,WildCard_Ex,0.303179825,-0.083333333,1,0,0,2.5407,optionRight,5,2355,2,0,0,0,0,1,,,,,,,,,,,,,,,,,,,,,,,,,,,,,,,,,,,,,,,
,,,,,,,,2023-08-16_08h37.53.466,HF_wild_card,2022.2.4,Win32,59.86948452,5aa836d6f053610001728189,64d2fd46c836a06233681665,64dc7c6922e0e5d178a08dc2,,,,,,,decisionTrl,resources/DG.BMP,resources/DP.BMP,Door2,0.332785088,-0.005482456,1,0,0,1.066,optionRight,20,2375,2,1,0,1,0,1,,,,,,,,,,,,,,,,,,,,,,,,,,,,,,,,,,,,,,,
,,,,,,,,2023-08-16_08h37.53.466,HF_wild_card,2022.2.4,Win32,59.86948452,5aa836d6f053610001728189,64d2fd46c836a06233681665,64dc7c6922e0e5d178a08dc2,,,,,,,sngl,resources/Empty.png,resources/DG.BMP,WildCard_Ex,0.277960526,-0.047149123,1,0,0,1.0152,optionRight,95,2470,2,2,0,2,0,1,,,,,,,,,,,,,,,,,,,,,,,,,,,,,,,,,,,,,,,
,,,,,,,,2023-08-16_08h37.53.466,HF_wild_card,2022.2.4,Win32,59.86948452,5aa836d6f053610001728189,64d2fd46c836a06233681665,64dc7c6922e0e5d178a08dc2,,,,,,,decisionTrl,resources/DBN.BMP,resources/DB.BMP,Door4,-0.316885965,0.024122807,1,0,0,0.8848,optionLeft,80,2550,2,3,0,3,0,1,,,,,,,,,,,,,,,,,,,,,,,,,,,,,,,,,,,,,,,
,,,,,,,,2023-08-16_08h37.53.466,HF_wild_card,2022.2.4,Win32,59.86948452,5aa836d6f053610001728189,64d2fd46c836a06233681665,64dc7c6922e0e5d178a08dc2,,,,,,,decisionTrl,resources/DG.BMP,resources/DBN.BMP,Door4,0.32127193,-0.023026316,1,0,0,1.1355,optionRight,60,2610,2,4,0,4,0,1,,,,,,,,,,,,,,,,,,,,,,,,,,,,,,,,,,,,,,,
,,,,,,,,2023-08-16_08h37.53.466,HF_wild_card,2022.2.4,Win32,59.86948452,5aa836d6f053610001728189,64d2fd46c836a06233681665,64dc7c6922e0e5d178a08dc2,,,,,,,sngl,resources/Empty.png,resources/DBN.BMP,Door4,0.269736842,0.013157895,1,0,0,0.871,optionRight,80,2690,2,5,0,5,0,1,,,,,,,,,,,,,,,,,,,,,,,,,,,,,,,,,,,,,,,
,,,,,,,,2023-08-16_08h37.53.466,HF_wild_card,2022.2.4,Win32,59.86948452,5aa836d6f053610001728189,64d2fd46c836a06233681665,64dc7c6922e0e5d178a08dc2,,,,,,,sngl,resources/Empty.png,resources/DP.BMP,Door2,0.370614035,-0.050986842,1,0,0,1.2771,optionRight,40,2730,2,6,0,6,0,1,,,,,,,,,,,,,,,,,,,,,,,,,,,,,,,,,,,,,,,
,,,,,,,,2023-08-16_08h37.53.466,HF_wild_card,2022.2.4,Win32,59.86948452,5aa836d6f053610001728189,64d2fd46c836a06233681665,64dc7c6922e0e5d178a08dc2,,,,,,,decisionTrl,resources/DP.BMP,resources/DY.BMP,Door2,-0.316337719,0.021929825,1,0,0,1.4823,optionLeft,40,2770,2,7,0,7,0,1,,,,,,,,,,,,,,,,,,,,,,,,,,,,,,,,,,,,,,,
,,,,,,,,2023-08-16_08h37.53.466,HF_wild_card,2022.2.4,Win32,59.86948452,5aa836d6f053610001728189,64d2fd46c836a06233681665,64dc7c6922e0e5d178a08dc2,,,,,,,decisionTrl,resources/DY.BMP,resources/DP.BMP,Door1,-0.306469298,-0.055372807,1,0,0,1.0383,optionLeft,30,2800,2,8,0,8,0,1,,,,,,,,,,,,,,,,,,,,,,,,,,,,,,,,,,,,,,,
,,,,,,,,2023-08-16_08h37.53.466,HF_wild_card,2022.2.4,Win32,59.86948452,5aa836d6f053610001728189,64d2fd46c836a06233681665,64dc7c6922e0e5d178a08dc2,,,,,,,decisionTrl,resources/DBN.BMP,resources/DG.BMP,Door4,-0.309210526,0.072916667,1,0,0,1.184,optionLeft,60,2860,2,9,0,9,0,1,,,,,,,,,,,,,,,,,,,,,,,,,,,,,,,,,,,,,,,
,,,,,,,,2023-08-16_08h37.53.466,HF_wild_card,2022.2.4,Win32,59.86948452,5aa836d6f053610001728189,64d2fd46c836a06233681665,64dc7c6922e0e5d178a08dc2,,,,,,,decisionTrl,resources/DB.BMP,resources/DBN.BMP,Door4,0.434210526,0.016995614,1,0,0,1.1044,optionRight,60,2920,2,10,0,10,0,1,,,,,,,,,,,,,,,,,,,,,,,,,,,,,,,,,,,,,,,
,,,,,,,,2023-08-16_08h37.53.466,HF_wild_card,2022.2.4,Win32,59.86948452,5aa836d6f053610001728189,64d2fd46c836a06233681665,64dc7c6922e0e5d178a08dc2,,,,,,,decisionTrl,resources/DBN.BMP,resources/DB.BMP,Door4,-0.316885965,0.041118421,1,0,0,0.9335,optionLeft,60,2980,2,11,0,11,0,1,,,,,,,,,,,,,,,,,,,,,,,,,,,,,,,,,,,,,,,
,,,,,,,,2023-08-16_08h37.53.466,HF_wild_card,2022.2.4,Win32,59.86948452,5aa836d6f053610001728189,64d2fd46c836a06233681665,64dc7c6922e0e5d178a08dc2,,,,,,,decisionTrl,resources/DB.BMP,resources/DBN.BMP,Door4,0.464912281,0.00877193,1,0,0,0.8482,optionRight,80,3060,2,12,0,12,0,1,,,,,,,,,,,,,,,,,,,,,,,,,,,,,,,,,,,,,,,
,,,,,,,,2023-08-16_08h37.53.466,HF_wild_card,2022.2.4,Win32,59.86948452,5aa836d6f053610001728189,64d2fd46c836a06233681665,64dc7c6922e0e5d178a08dc2,,,,,,,decisionTrl,resources/DP.BMP,resources/DY.BMP,Door2,-0.327302632,0.014254386,1,0,0,1.96,optionLeft,20,3080,2,13,0,13,0,1,,,,,,,,,,,,,,,,,,,,,,,,,,,,,,,,,,,,,,,
,,,,,,,,2023-08-16_08h37.53.466,HF_wild_card,2022.2.4,Win32,59.86948452,5aa836d6f053610001728189,64d2fd46c836a06233681665,64dc7c6922e0e5d178a08dc2,,,,,,,sngl,resources/DP.BMP,resources/Empty.png,Door2,-0.304276316,-0.014254386,1,0,0,1.0451,optionLeft,20,3100,2,14,0,14,0,1,,,,,,,,,,,,,,,,,,,,,,,,,,,,,,,,,,,,,,,
,,,,,,,,2023-08-16_08h37.53.466,HF_wild_card,2022.2.4,Win32,59.86948452,5aa836d6f053610001728189,64d2fd46c836a06233681665,64dc7c6922e0e5d178a08dc2,,,,,,,decisionTrl,resources/DB.BMP,resources/DG.BMP,Door3,-0.328399123,-0.033442982,1,0,0,2.3166,optionLeft,70,3170,2,15,0,15,0,1,,,,,,,,,,,,,,,,,,,,,,,,,,,,,,,,,,,,,,,
,,,,,,,,2023-08-16_08h37.53.466,HF_wild_card,2022.2.4,Win32,59.86948452,5aa836d6f053610001728189,64d2fd46c836a06233681665,64dc7c6922e0e5d178a08dc2,,,,,,,ctch,resources/DBN.BMP,resources/DY.BMP,Door4,-0.469298246,0.072916667,1,0,0,1.0145,optionLeft,60,3230,2,16,0,16,0,1,,,,,,,,,,,,,,,,,,,,,,,,,,,,,,,,,,,,,,,
,,,,,,,,2023-08-16_08h37.53.466,HF_wild_card,2022.2.4,Win32,59.86948452,5aa836d6f053610001728189,64d2fd46c836a06233681665,64dc7c6922e0e5d178a08dc2,,,,,,,sngl,resources/Empty.png,resources/DB.BMP,Door3,0.330592105,-0.015899123,1,0,0,0.9098,optionRight,70,3300,2,17,0,17,0,1,,,,,,,,,,,,,,,,,,,,,,,,,,,,,,,,,,,,,,,
,,,,,,,,2023-08-16_08h37.53.466,HF_wild_card,2022.2.4,Win32,59.86948452,5aa836d6f053610001728189,64d2fd46c836a06233681665,64dc7c6922e0e5d178a08dc2,,,,,,,sngl,resources/DBN.BMP,resources/Empty.png,Door4,-0.366776316,0.090460526,1,0,0,0.8324,optionLeft,60,3360,2,18,0,18,0,1,,,,,,,,,,,,,,,,,,,,,,,,,,,,,,,,,,,,,,,
,,,,,,,,2023-08-16_08h37.53.466,HF_wild_card,2022.2.4,Win32,59.86948452,5aa836d6f053610001728189,64d2fd46c836a06233681665,64dc7c6922e0e5d178a08dc2,,,,,,,decisionTrl,resources/DY.BMP,resources/DG.BMP,WildCard_Ex,0.327302632,-0.025219298,1,0,0,1.5518,optionRight,95,3455,2,19,0,19,0,1,,,,,,,,,,,,,,,,,,,,,,,,,,,,,,,,,,,,,,,
,,,,,,,,2023-08-16_08h37.53.466,HF_wild_card,2022.2.4,Win32,59.86948452,5aa836d6f053610001728189,64d2fd46c836a06233681665,64dc7c6922e0e5d178a08dc2,,,,,,,ctch,resources/DBN.BMP,resources/DY.BMP,Door4,-0.287828947,-0.002192982,1,0,0,1.2939,optionLeft,60,3515,2,20,0,20,0,1,,,,,,,,,,,,,,,,,,,,,,,,,,,,,,,,,,,,,,,
,,,,,,,,2023-08-16_08h37.53.466,HF_wild_card,2022.2.4,Win32,59.86948452,5aa836d6f053610001728189,64d2fd46c836a06233681665,64dc7c6922e0e5d178a08dc2,,,,,,,sngl,resources/Empty.png,resources/DG.BMP,WildCard_Ex,0.345394737,-0.002192982,1,0,0,0.7983,optionRight,5,3520,2,21,0,21,0,1,,,,,,,,,,,,,,,,,,,,,,,,,,,,,,,,,,,,,,,
,,,,,,,,2023-08-16_08h37.53.466,HF_wild_card,2022.2.4,Win32,59.86948452,5aa836d6f053610001728189,64d2fd46c836a06233681665,64dc7c6922e0e5d178a08dc2,,,,,,,ctch,resources/DY.BMP,resources/DBN.BMP,Door4,0.35252193,0.043311404,1,0,0,1.1213,optionRight,80,3600,2,22,0,22,0,1,,,,,,,,,,,,,,,,,,,,,,,,,,,,,,,,,,,,,,,
,,,,,,,,2023-08-16_08h37.53.466,HF_wild_card,2022.2.4,Win32,59.86948452,5aa836d6f053610001728189,64d2fd46c836a06233681665,64dc7c6922e0e5d178a08dc2,,,,,,,decisionTrl,resources/DBN.BMP,resources/DB.BMP,Door4,-0.304276316,0.075109649,1,0,0,0.8484,optionLeft,60,3660,2,23,0,23,0,1,,,,,,,,,,,,,,,,,,,,,,,,,,,,,,,,,,,,,,,
,,,,,,,,2023-08-16_08h37.53.466,HF_wild_card,2022.2.4,Win32,59.86948452,5aa836d6f053610001728189,64d2fd46c836a06233681665,64dc7c6922e0e5d178a08dc2,,,,,,,sngl,resources/DY.BMP,resources/Empty.png,Door1,-0.285635965,0.036732456,1,0,0,1.2814,optionLeft,30,3690,2,24,0,24,0,1,,,,,,,,,,,,,,,,,,,,,,,,,,,,,,,,,,,,,,,
,,,,,,,,2023-08-16_08h37.53.466,HF_wild_card,2022.2.4,Win32,59.86948452,5aa836d6f053610001728189,64d2fd46c836a06233681665,64dc7c6922e0e5d178a08dc2,,,,,,,decisionTrl,resources/DB.BMP,resources/DBN.BMP,Door3,-0.212171053,-0.049342105,1,0,0,1.7317,optionLeft,70,3760,2,25,0,25,0,1,,,,,,,,,,,,,,,,,,,,,,,,,,,,,,,,,,,,,,,
,,,,,,,,2023-08-16_08h37.53.466,HF_wild_card,2022.2.4,Win32,59.86948452,5aa836d6f053610001728189,64d2fd46c836a06233681665,64dc7c6922e0e5d178a08dc2,,,,,,,ctch,resources/DB.BMP,resources/DP.BMP,Door3,-0.285635965,-0.018092105,1,0,0,1.299,optionLeft,70,3830,2,26,0,26,0,1,,,,,,,,,,,,,,,,,,,,,,,,,,,,,,,,,,,,,,,
,,,,,,,,2023-08-16_08h37.53.466,HF_wild_card,2022.2.4,Win32,59.86948452,5aa836d6f053610001728189,64d2fd46c836a06233681665,64dc7c6922e0e5d178a08dc2,,,,,,,decisionTrl,resources/DY.BMP,resources/DP.BMP,Door2,0.308114035,-0.077850877,1,0,0,3.2859,optionRight,20,3850,2,27,0,27,0,1,,,,,,,,,,,,,,,,,,,,,,,,,,,,,,,,,,,,,,,
,,,,,,,,2023-08-16_08h37.53.466,HF_wild_card,2022.2.4,Win32,59.86948452,5aa836d6f053610001728189,64d2fd46c836a06233681665,64dc7c6922e0e5d178a08dc2,,,,,,,sngl,resources/DG.BMP,resources/Empty.png,WildCard_Ex,-0.325657895,0.013157895,1,0,0,0.7602,optionLeft,95,3945,2,28,0,28,0,1,,,,,,,,,,,,,,,,,,,,,,,,,,,,,,,,,,,,,,,
,,,,,,,,2023-08-16_08h37.53.466,HF_wild_card,2022.2.4,Win32,59.86948452,5aa836d6f053610001728189,64d2fd46c836a06233681665,64dc7c6922e0e5d178a08dc2,,,,,,,decisionTrl,resources/DP.BMP,resources/DY.BMP,Door2,-0.353618421,-0.042763158,1,0,0,1.1675,optionLeft,20,3965,2,29,0,29,0,1,,,,,,,,,,,,,,,,,,,,,,,,,,,,,,,,,,,,,,,
,,,,,,,,2023-08-16_08h37.53.466,HF_wild_card,2022.2.4,Win32,59.86948452,5aa836d6f053610001728189,64d2fd46c836a06233681665,64dc7c6922e0e5d178a08dc2,,,,,,,sngl,resources/DG.BMP,resources/Empty.png,WildCard_Ex,-0.22752193,0.020285088,1,0,0,0.8309,optionLeft,5,3970,2,30,0,30,0,1,,,,,,,,,,,,,,,,,,,,,,,,,,,,,,,,,,,,,,,
,,,,,,,,2023-08-16_08h37.53.466,HF_wild_card,2022.2.4,Win32,59.86948452,5aa836d6f053610001728189,64d2fd46c836a06233681665,64dc7c6922e0e5d178a08dc2,,,,,,,decisionTrl,resources/DY.BMP,resources/DP.BMP,Door2,0.376644737,-0.018092105,1,0,0,2.0047,optionRight,20,3990,2,31,0,31,0,1,,,,,,,,,,,,,,,,,,,,,,,,,,,,,,,,,,,,,,,
,,,,,,,,2023-08-16_08h37.53.466,HF_wild_card,2022.2.4,Win32,59.86948452,5aa836d6f053610001728189,64d2fd46c836a06233681665,64dc7c6922e0e5d178a08dc2,,,,,,,sngl,resources/DB.BMP,resources/Empty.png,Door3,-0.305921053,0.014802632,1,0,0,0.915,optionLeft,70,4060,2,32,0,32,0,1,,,,,,,,,,,,,,,,,,,,,,,,,,,,,,,,,,,,,,,
,,,,,,,,2023-08-16_08h37.53.466,HF_wild_card,2022.2.4,Win32,59.86948452,5aa836d6f053610001728189,64d2fd46c836a06233681665,64dc7c6922e0e5d178a08dc2,,,,,,,ctch,resources/DP.BMP,resources/DB.BMP,Door3,0.258223684,-0.013157895,1,0,0,1.2205,optionRight,70,4130,2,33,0,33,0,1,,,,,,,,,,,,,,,,,,,,,,,,,,,,,,,,,,,,,,,
,,,,,,,,2023-08-16_08h37.53.466,HF_wild_card,2022.2.4,Win32,59.86948452,5aa836d6f053610001728189,64d2fd46c836a06233681665,64dc7c6922e0e5d178a08dc2,,,,,,,ctch,resources/DP.BMP,resources/DB.BMP,Door3,0.346491228,-0.040570175,1,0,0,1.0476,optionRight,70,4200,2,34,0,34,0,1,,,,,,,,,,,,,,,,,,,,,,,,,,,,,,,,,,,,,,,
,,,,,,,,2023-08-16_08h37.53.466,HF_wild_card,2022.2.4,Win32,59.86948452,5aa836d6f053610001728189,64d2fd46c836a06233681665,64dc7c6922e0e5d178a08dc2,,,,,,,decisionTrl,resources/DBN.BMP,resources/DB.BMP,Door3,0.268092105,-0.078399123,1,0,0,0.8652,optionRight,70,4270,2,35,0,35,0,1,,,,,,,,,,,,,,,,,,,,,,,,,,,,,,,,,,,,,,,
,,,,,,,,2023-08-16_08h37.53.466,HF_wild_card,2022.2.4,Win32,59.86948452,5aa836d6f053610001728189,64d2fd46c836a06233681665,64dc7c6922e0e5d178a08dc2,,,,,,,decisionTrl,resources/DP.BMP,resources/DY.BMP,Door1,0.300438596,0.001644737,1,0,0,3.366,optionRight,30,4300,2,36,0,36,0,1,,,,,,,,,,,,,,,,,,,,,,,,,,,,,,,,,,,,,,,
,,,,,,,,2023-08-16_08h37.53.466,HF_wild_card,2022.2.4,Win32,59.86948452,5aa836d6f053610001728189,64d2fd46c836a06233681665,64dc7c6922e0e5d178a08dc2,,,,,,,decisionTrl,resources/DG.BMP,resources/DB.BMP,Door3,0.424890351,-0.036184211,1,0,0,0.9155,optionRight,70,4370,2,37,0,37,0,1,,,,,,,,,,,,,,,,,,,,,,,,,,,,,,,,,,,,,,,
,,,,,,,,2023-08-16_08h37.53.466,HF_wild_card,2022.2.4,Win32,59.86948452,5aa836d6f053610001728189,64d2fd46c836a06233681665,64dc7c6922e0e5d178a08dc2,,,,,,,decisionTrl,resources/DY.BMP,resources/DP.BMP,Door1,-0.75,-0.254385965,1,0,0,3.5577,optionLeft,30,4400,2,38,0,38,0,1,,,,,,,,,,,,,,,,,,,,,,,,,,,,,,,,,,,,,,,
,,,,,,,,2023-08-16_08h37.53.466,HF_wild_card,2022.2.4,Win32,59.86948452,5aa836d6f053610001728189,64d2fd46c836a06233681665,64dc7c6922e0e5d178a08dc2,,,,,,,ctch,resources/DY.BMP,resources/DBN.BMP,Door4,0.351973684,0.035635965,1,0,0,0.9507,optionRight,60,4460,2,39,0,39,0,1,,,,,,,,,,,,,,,,,,,,,,,,,,,,,,,,,,,,,,,
,,,,,,,,2023-08-16_08h37.53.466,HF_wild_card,2022.2.4,Win32,59.86948452,5aa836d6f053610001728189,64d2fd46c836a06233681665,64dc7c6922e0e5d178a08dc2,,,,,,,decisionTrl,resources/DG.BMP,resources/DY.BMP,Door1,0.360197368,0.030153509,1,0,0,2.2323,optionRight,30,4490,2,40,0,40,0,1,,,,,,,,,,,,,,,,,,,,,,,,,,,,,,,,,,,,,,,
,,,,,,,,2023-08-16_08h37.53.466,HF_wild_card,2022.2.4,Win32,59.86948452,5aa836d6f053610001728189,64d2fd46c836a06233681665,64dc7c6922e0e5d178a08dc2,,,,,,,ctch,resources/DB.BMP,resources/DP.BMP,Door3,-0.269188596,0.04495614,1,0,0,0.9711,optionLeft,70,4560,2,41,0,41,0,1,,,,,,,,,,,,,,,,,,,,,,,,,,,,,,,,,,,,,,,
,,,,,,,,2023-08-16_08h37.53.466,HF_wild_card,2022.2.4,Win32,59.86948452,5aa836d6f053610001728189,64d2fd46c836a06233681665,64dc7c6922e0e5d178a08dc2,,,,,,,decisionTrl,resources/DB.BMP,resources/DBN.BMP,Door4,0.329495614,-0.016447368,1,0,0,0.9985,optionRight,80,4640,2,42,0,42,0,1,,,,,,,,,,,,,,,,,,,,,,,,,,,,,,,,,,,,,,,
,,,,,,,,2023-08-16_08h37.53.466,HF_wild_card,2022.2.4,Win32,59.86948452,5aa836d6f053610001728189,64d2fd46c836a06233681665,64dc7c6922e0e5d178a08dc2,,,,,,,sngl,resources/Empty.png,resources/DY.BMP,Door1,0.338815789,0.014254386,1,0,0,1.027,optionRight,30,4670,2,43,0,43,0,1,,,,,,,,,,,,,,,,,,,,,,,,,,,,,,,,,,,,,,,
,,,,,,,,2023-08-16_08h37.53.466,HF_wild_card,2022.2.4,Win32,59.86948452,5aa836d6f053610001728189,64d2fd46c836a06233681665,64dc7c6922e0e5d178a08dc2,,,,,,,,,,,,,,,,,,,,,,,,,,1,0,1,0,1,,,,,,,,,,,,,,,,,,,,,,,,,,,,,,,,,,
,,,,,,,,2023-08-16_08h37.53.466,HF_wild_card,2022.2.4,Win32,59.86948452,5aa836d6f053610001728189,64d2fd46c836a06233681665,64dc7c6922e0e5d178a08dc2,,,,,,,decisionTrl,resources/DP.BMP,resources/DY.BMP,Door2,-0.28125,-0.154057018,1,0,0,1.4234,optionLeft,40,4710,3,0,0,0,0,1,,,,,,,,,,,,,,,,,,,,,,,,,,,,,,,,,,,,,,,
,,,,,,,,2023-08-16_08h37.53.466,HF_wild_card,2022.2.4,Win32,59.86948452,5aa836d6f053610001728189,64d2fd46c836a06233681665,64dc7c6922e0e5d178a08dc2,,,,,,,ctch,resources/DBN.BMP,resources/DY.BMP,Door4,-0.444078947,0.00877193,1,0,0,0.9772,optionLeft,60,4770,3,1,0,1,0,1,,,,,,,,,,,,,,,,,,,,,,,,,,,,,,,,,,,,,,,
,,,,,,,,2023-08-16_08h37.53.466,HF_wild_card,2022.2.4,Win32,59.86948452,5aa836d6f053610001728189,64d2fd46c836a06233681665,64dc7c6922e0e5d178a08dc2,,,,,,,decisionTrl,resources/DP.BMP,resources/DY.BMP,Door1,0.270833333,-0.050986842,1,0,0,0.835,optionRight,30,4800,3,2,0,2,0,1,,,,,,,,,,,,,,,,,,,,,,,,,,,,,,,,,,,,,,,
,,,,,,,,2023-08-16_08h37.53.466,HF_wild_card,2022.2.4,Win32,59.86948452,5aa836d6f053610001728189,64d2fd46c836a06233681665,64dc7c6922e0e5d178a08dc2,,,,,,,ctch,resources/DY.BMP,resources/DBN.BMP,Door4,0.311403509,-0.000548246,1,0,0,1.0086,optionRight,80,4880,3,3,0,3,0,1,,,,,,,,,,,,,,,,,,,,,,,,,,,,,,,,,,,,,,,
,,,,,,,,2023-08-16_08h37.53.466,HF_wild_card,2022.2.4,Win32,59.86948452,5aa836d6f053610001728189,64d2fd46c836a06233681665,64dc7c6922e0e5d178a08dc2,,,,,,,sngl,resources/DB.BMP,resources/Empty.png,Door3,-0.285635965,0.041118421,1,0,0,0.8475,optionLeft,70,4950,3,4,0,4,0,1,,,,,,,,,,,,,,,,,,,,,,,,,,,,,,,,,,,,,,,
,,,,,,,,2023-08-16_08h37.53.466,HF_wild_card,2022.2.4,Win32,59.86948452,5aa836d6f053610001728189,64d2fd46c836a06233681665,64dc7c6922e0e5d178a08dc2,,,,,,,decisionTrl,resources/DBN.BMP,resources/DB.BMP,Door3,0.364035088,0.027960526,1,0,0,1.9604,optionRight,70,5020,3,5,0,5,0,1,,,,,,,,,,,,,,,,,,,,,,,,,,,,,,,,,,,,,,,
,,,,,,,,2023-08-16_08h37.53.466,HF_wild_card,2022.2.4,Win32,59.86948452,5aa836d6f053610001728189,64d2fd46c836a06233681665,64dc7c6922e0e5d178a08dc2,,,,,,,decisionTrl,resources/DG.BMP,resources/DY.BMP,WildCard_Ex,-0.316885965,-0.013157895,1,0,0,1.4396,optionLeft,95,5115,3,6,0,6,0,1,,,,,,,,,,,,,,,,,,,,,,,,,,,,,,,,,,,,,,,
,,,,,,,,2023-08-16_08h37.53.466,HF_wild_card,2022.2.4,Win32,59.86948452,5aa836d6f053610001728189,64d2fd46c836a06233681665,64dc7c6922e0e5d178a08dc2,,,,,,,sngl,resources/Empty.png,resources/DB.BMP,Door3,0.369517544,-0.040570175,1,0,0,0.8147,optionRight,70,5185,3,7,0,7,0,1,,,,,,,,,,,,,,,,,,,,,,,,,,,,,,,,,,,,,,,
,,,,,,,,2023-08-16_08h37.53.466,HF_wild_card,2022.2.4,Win32,59.86948452,5aa836d6f053610001728189,64d2fd46c836a06233681665,64dc7c6922e0e5d178a08dc2,,,,,,,decisionTrl,resources/DY.BMP,resources/DG.BMP,Door1,-0.333333333,0.050438596,1,0,0,1.5519,optionLeft,30,5215,3,8,0,8,0,1,,,,,,,,,,,,,,,,,,,,,,,,,,,,,,,,,,,,,,,
,,,,,,,,2023-08-16_08h37.53.466,HF_wild_card,2022.2.4,Win32,59.86948452,5aa836d6f053610001728189,64d2fd46c836a06233681665,64dc7c6922e0e5d178a08dc2,,,,,,,decisionTrl,resources/DY.BMP,resources/DP.BMP,Door1,-0.367872807,-0.040570175,1,0,0,1.5991,optionLeft,30,5245,3,9,0,9,0,1,,,,,,,,,,,,,,,,,,,,,,,,,,,,,,,,,,,,,,,
,,,,,,,,2023-08-16_08h37.53.466,HF_wild_card,2022.2.4,Win32,59.86948452,5aa836d6f053610001728189,64d2fd46c836a06233681665,64dc7c6922e0e5d178a08dc2,,,,,,,decisionTrl,resources/DB.BMP,resources/DBN.BMP,Door4,0.295504386,0.023026316,1,0,0,0.8989,optionRight,60,5305,3,10,0,10,0,1,,,,,,,,,,,,,,,,,,,,,,,,,,,,,,,,,,,,,,,
,,,,,,,,2023-08-16_08h37.53.466,HF_wild_card,2022.2.4,Win32,59.86948452,5aa836d6f053610001728189,64d2fd46c836a06233681665,64dc7c6922e0e5d178a08dc2,,,,,,,decisionTrl,resources/DG.BMP,resources/DB.BMP,Door3,0.329495614,-0.014254386,1,0,0,1.4666,optionRight,70,5375,3,11,0,11,0,1,,,,,,,,,,,,,,,,,,,,,,,,,,,,,,,,,,,,,,,
,,,,,,,,2023-08-16_08h37.53.466,HF_wild_card,2022.2.4,Win32,59.86948452,5aa836d6f053610001728189,64d2fd46c836a06233681665,64dc7c6922e0e5d178a08dc2,,,,,,,sngl,resources/Empty.png,resources/DG.BMP,WildCard_Ex,0.29879386,-0.020833333,1,0,0,0.9119,optionRight,5,5380,3,12,0,12,0,1,,,,,,,,,,,,,,,,,,,,,,,,,,,,,,,,,,,,,,,
,,,,,,,,2023-08-16_08h37.53.466,HF_wild_card,2022.2.4,Win32,59.86948452,5aa836d6f053610001728189,64d2fd46c836a06233681665,64dc7c6922e0e5d178a08dc2,,,,,,,ctch,resources/DP.BMP,resources/DB.BMP,Door3,0.348684211,-0.035087719,1,0,0,1.3991,optionRight,70,5450,3,13,0,13,0,1,,,,,,,,,,,,,,,,,,,,,,,,,,,,,,,,,,,,,,,
,,,,,,,,2023-08-16_08h37.53.466,HF_wild_card,2022.2.4,Win32,59.86948452,5aa836d6f053610001728189,64d2fd46c836a06233681665,64dc7c6922e0e5d178a08dc2,,,,,,,decisionTrl,resources/DG.BMP,resources/DBN.BMP,Door4,0.331140351,-0.024122807,1,0,0,1.5155,optionRight,80,5530,3,14,0,14,0,1,,,,,,,,,,,,,,,,,,,,,,,,,,,,,,,,,,,,,,,
,,,,,,,,2023-08-16_08h37.53.466,HF_wild_card,2022.2.4,Win32,59.86948452,5aa836d6f053610001728189,64d2fd46c836a06233681665,64dc7c6922e0e5d178a08dc2,,,,,,,decisionTrl,resources/DB.BMP,resources/DG.BMP,Door3,-0.411184211,-0.018092105,1,0,0,1.6014,optionLeft,70,5600,3,15,0,15,0,1,,,,,,,,,,,,,,,,,,,,,,,,,,,,,,,,,,,,,,,
,,,,,,,,2023-08-16_08h37.53.466,HF_wild_card,2022.2.4,Win32,59.86948452,5aa836d6f053610001728189,64d2fd46c836a06233681665,64dc7c6922e0e5d178a08dc2,,,,,,,sngl,resources/Empty.png,resources/DY.BMP,Door1,0.349232456,-0.041118421,1,0,0,0.8818,optionRight,30,5630,3,16,0,16,0,1,,,,,,,,,,,,,,,,,,,,,,,,,,,,,,,,,,,,,,,
,,,,,,,,2023-08-16_08h37.53.466,HF_wild_card,2022.2.4,Win32,59.86948452,5aa836d6f053610001728189,64d2fd46c836a06233681665,64dc7c6922e0e5d178a08dc2,,,,,,,decisionTrl,resources/DP.BMP,resources/DY.BMP,Door2,-0.337171053,0.042214912,1,0,0,1.6596,optionLeft,40,5670,3,17,0,17,0,1,,,,,,,,,,,,,,,,,,,,,,,,,,,,,,,,,,,,,,,
,,,,,,,,2023-08-16_08h37.53.466,HF_wild_card,2022.2.4,Win32,59.86948452,5aa836d6f053610001728189,64d2fd46c836a06233681665,64dc7c6922e0e5d178a08dc2,,,,,,,decisionTrl,resources/DBN.BMP,resources/DB.BMP,Door4,-0.35745614,0.030153509,1,0,0,0.9983,optionLeft,80,5750,3,18,0,18,0,1,,,,,,,,,,,,,,,,,,,,,,,,,,,,,,,,,,,,,,,
,,,,,,,,2023-08-16_08h37.53.466,HF_wild_card,2022.2.4,Win32,59.86948452,5aa836d6f053610001728189,64d2fd46c836a06233681665,64dc7c6922e0e5d178a08dc2,,,,,,,sngl,resources/DG.BMP,resources/Empty.png,WildCard_Ex,-0.25877193,-0.009868421,1,0,0,0.921,optionLeft,95,5845,3,19,0,19,0,1,,,,,,,,,,,,,,,,,,,,,,,,,,,,,,,,,,,,,,,
,,,,,,,,2023-08-16_08h37.53.466,HF_wild_card,2022.2.4,Win32,59.86948452,5aa836d6f053610001728189,64d2fd46c836a06233681665,64dc7c6922e0e5d178a08dc2,,,,,,,decisionTrl,resources/DY.BMP,resources/DP.BMP,Door2,0.291118421,-0.047697368,1,0,0,1.8929,optionRight,20,5865,3,20,0,20,0,1,,,,,,,,,,,,,,,,,,,,,,,,,,,,,,,,,,,,,,,
,,,,,,,,2023-08-16_08h37.53.466,HF_wild_card,2022.2.4,Win32,59.86948452,5aa836d6f053610001728189,64d2fd46c836a06233681665,64dc7c6922e0e5d178a08dc2,,,,,,,decisionTrl,resources/DB.BMP,resources/DBN.BMP,Door4,0.385964912,0.009868421,1,0,0,1.2452,optionRight,60,5925,3,21,0,21,0,1,,,,,,,,,,,,,,,,,,,,,,,,,,,,,,,,,,,,,,,
,,,,,,,,2023-08-16_08h37.53.466,HF_wild_card,2022.2.4,Win32,59.86948452,5aa836d6f053610001728189,64d2fd46c836a06233681665,64dc7c6922e0e5d178a08dc2,,,,,,,sngl,resources/DBN.BMP,resources/Empty.png,Door4,-0.263157895,0.018092105,1,0,0,0.8212,optionLeft,80,6005,3,22,0,22,0,1,,,,,,,,,,,,,,,,,,,,,,,,,,,,,,,,,,,,,,,
,,,,,,,,2023-08-16_08h37.53.466,HF_wild_card,2022.2.4,Win32,59.86948452,5aa836d6f053610001728189,64d2fd46c836a06233681665,64dc7c6922e0e5d178a08dc2,,,,,,,decisionTrl,resources/DY.BMP,resources/DP.BMP,Door2,0.331688596,-0.082236842,1,0,0,0.9938,optionRight,20,6025,3,23,0,23,0,1,,,,,,,,,,,,,,,,,,,,,,,,,,,,,,,,,,,,,,,
,,,,,,,,2023-08-16_08h37.53.466,HF_wild_card,2022.2.4,Win32,59.86948452,5aa836d6f053610001728189,64d2fd46c836a06233681665,64dc7c6922e0e5d178a08dc2,,,,,,,decisionTrl,resources/DG.BMP,resources/DP.BMP,Door2,0.327850877,-0.149122807,1,0,0,3.5326,optionRight,20,6045,3,24,0,24,0,1,,,,,,,,,,,,,,,,,,,,,,,,,,,,,,,,,,,,,,,
,,,,,,,,2023-08-16_08h37.53.466,HF_wild_card,2022.2.4,Win32,59.86948452,5aa836d6f053610001728189,64d2fd46c836a06233681665,64dc7c6922e0e5d178a08dc2,,,,,,,decisionTrl,resources/DB.BMP,resources/DBN.BMP,Door4,0.478618421,0.024671053,1,0,0,1.0143,optionRight,80,6125,3,25,0,25,0,1,,,,,,,,,,,,,,,,,,,,,,,,,,,,,,,,,,,,,,,
,,,,,,,,2023-08-16_08h37.53.466,HF_wild_card,2022.2.4,Win32,59.86948452,5aa836d6f053610001728189,64d2fd46c836a06233681665,64dc7c6922e0e5d178a08dc2,,,,,,,ctch,resources/DB.BMP,resources/DP.BMP,Door3,-0.481907895,0.012061404,1,0,0,1.5478,optionLeft,70,6195,3,26,0,26,0,1,,,,,,,,,,,,,,,,,,,,,,,,,,,,,,,,,,,,,,,
,,,,,,,,2023-08-16_08h37.53.466,HF_wild_card,2022.2.4,Win32,59.86948452,5aa836d6f053610001728189,64d2fd46c836a06233681665,64dc7c6922e0e5d178a08dc2,,,,,,,ctch,resources/DP.BMP,resources/DB.BMP,Door2,-0.39747807,-0.018640351,1,0,0,1.2984,optionLeft,20,6215,3,27,0,27,0,1,,,,,,,,,,,,,,,,,,,,,,,,,,,,,,,,,,,,,,,
,,,,,,,,2023-08-16_08h37.53.466,HF_wild_card,2022.2.4,Win32,59.86948452,5aa836d6f053610001728189,64d2fd46c836a06233681665,64dc7c6922e0e5d178a08dc2,,,,,,,decisionTrl,resources/DP.BMP,resources/DY.BMP,Door1,0.341008772,-0.019188596,1,0,0,0.7984,optionRight,30,6245,3,28,0,28,0,1,,,,,,,,,,,,,,,,,,,,,,,,,,,,,,,,,,,,,,,
,,,,,,,,2023-08-16_08h37.53.466,HF_wild_card,2022.2.4,Win32,59.86948452,5aa836d6f053610001728189,64d2fd46c836a06233681665,64dc7c6922e0e5d178a08dc2,,,,,,,decisionTrl,resources/DBN.BMP,resources/DB.BMP,Door4,-0.338815789,0.080592105,1,0,0,0.8146,optionLeft,80,6325,3,29,0,29,0,1,,,,,,,,,,,,,,,,,,,,,,,,,,,,,,,,,,,,,,,
,,,,,,,,2023-08-16_08h37.53.466,HF_wild_card,2022.2.4,Win32,59.86948452,5aa836d6f053610001728189,64d2fd46c836a06233681665,64dc7c6922e0e5d178a08dc2,,,,,,,decisionTrl,resources/DP.BMP,resources/DG.BMP,WildCard_Ex,0.349232456,-0.069078947,1,0,0,0.9101,optionRight,5,6330,3,30,0,30,0,1,,,,,,,,,,,,,,,,,,,,,,,,,,,,,,,,,,,,,,,
,,,,,,,,2023-08-16_08h37.53.466,HF_wild_card,2022.2.4,Win32,59.86948452,5aa836d6f053610001728189,64d2fd46c836a06233681665,64dc7c6922e0e5d178a08dc2,,,,,,,sngl,resources/DG.BMP,resources/Empty.png,WildCard_Ex,-0.299890351,0.029057018,1,0,0,0.9974,optionLeft,5,6335,3,31,0,31,0,1,,,,,,,,,,,,,,,,,,,,,,,,,,,,,,,,,,,,,,,
,,,,,,,,2023-08-16_08h37.53.466,HF_wild_card,2022.2.4,Win32,59.86948452,5aa836d6f053610001728189,64d2fd46c836a06233681665,64dc7c6922e0e5d178a08dc2,,,,,,,sngl,resources/Empty.png,resources/DP.BMP,Door2,0.362390351,-0.140899123,1,0,0,2.2657,optionRight,20,6355,3,32,0,32,0,1,,,,,,,,,,,,,,,,,,,,,,,,,,,,,,,,,,,,,,,
,,,,,,,,2023-08-16_08h37.53.466,HF_wild_card,2022.2.4,Win32,59.86948452,5aa836d6f053610001728189,64d2fd46c836a06233681665,64dc7c6922e0e5d178a08dc2,,,,,,,decisionTrl,resources/DBN.BMP,resources/DB.BMP,Door4,-0.294407895,0.052083333,1,0,0,1.1212,optionLeft,80,6435,3,33,0,33,0,1,,,,,,,,,,,,,,,,,,,,,,,,,,,,,,,,,,,,,,,
,,,,,,,,2023-08-16_08h37.53.466,HF_wild_card,2022.2.4,Win32,59.86948452,5aa836d6f053610001728189,64d2fd46c836a06233681665,64dc7c6922e0e5d178a08dc2,,,,,,,ctch,resources/DY.BMP,resources/DBN.BMP,Door4,0.247258772,-0.065789474,1,0,0,1.0153,optionRight,80,6515,3,34,0,34,0,1,,,,,,,,,,,,,,,,,,,,,,,,,,,,,,,,,,,,,,,
,,,,,,,,2023-08-16_08h37.53.466,HF_wild_card,2022.2.4,Win32,59.86948452,5aa836d6f053610001728189,64d2fd46c836a06233681665,64dc7c6922e0e5d178a08dc2,,,,,,,sngl,resources/DY.BMP,resources/Empty.png,Door1,-0.296600877,0.073464912,1,0,0,0.6972,optionLeft,30,6545,3,35,0,35,0,1,,,,,,,,,,,,,,,,,,,,,,,,,,,,,,,,,,,,,,,
,,,,,,,,2023-08-16_08h37.53.466,HF_wild_card,2022.2.4,Win32,59.86948452,5aa836d6f053610001728189,64d2fd46c836a06233681665,64dc7c6922e0e5d178a08dc2,,,,,,,sngl,resources/DP.BMP,resources/Empty.png,Door2,-0.313048246,-0.012609649,1,0,0,0.9641,optionLeft,40,6585,3,36,0,36,0,1,,,,,,,,,,,,,,,,,,,,,,,,,,,,,,,,,,,,,,,
,,,,,,,,2023-08-16_08h37.53.466,HF_wild_card,2022.2.4,Win32,59.86948452,5aa836d6f053610001728189,64d2fd46c836a06233681665,64dc7c6922e0e5d178a08dc2,,,,,,,ctch,resources/DB.BMP,resources/DP.BMP,Door3,-0.405701754,-0.031798246,1,0,0,1.1476,optionLeft,70,6655,3,37,0,37,0,1,,,,,,,,,,,,,,,,,,,,,,,,,,,,,,,,,,,,,,,
,,,,,,,,2023-08-16_08h37.53.466,HF_wild_card,2022.2.4,Win32,59.86948452,5aa836d6f053610001728189,64d2fd46c836a06233681665,64dc7c6922e0e5d178a08dc2,,,,,,,decisionTrl,resources/DY.BMP,resources/DP.BMP,Door2,0.351425439,-0.125,1,0,0,1.7833,optionRight,20,6675,3,38,0,38,0,1,,,,,,,,,,,,,,,,,,,,,,,,,,,,,,,,,,,,,,,
,,,,,,,,2023-08-16_08h37.53.466,HF_wild_card,2022.2.4,Win32,59.86948452,5aa836d6f053610001728189,64d2fd46c836a06233681665,64dc7c6922e0e5d178a08dc2,,,,,,,decisionTrl,resources/DBN.BMP,resources/DG.BMP,Door4,-0.313048246,-0.006578947,1,0,0,0.9493,optionLeft,80,6755,3,39,0,39,0,1,,,,,,,,,,,,,,,,,,,,,,,,,,,,,,,,,,,,,,,
,,,,,,,,2023-08-16_08h37.53.466,HF_wild_card,2022.2.4,Win32,59.86948452,5aa836d6f053610001728189,64d2fd46c836a06233681665,64dc7c6922e0e5d178a08dc2,,,,,,,decisionTrl,resources/DB.BMP,resources/DBN.BMP,Door3,-0.337171053,-0.036184211,1,0,0,1.3048,optionLeft,70,6825,3,40,0,40,0,1,,,,,,,,,,,,,,,,,,,,,,,,,,,,,,,,,,,,,,,
,,,,,,,,2023-08-16_08h37.53.466,HF_wild_card,2022.2.4,Win32,59.86948452,5aa836d6f053610001728189,64d2fd46c836a06233681665,64dc7c6922e0e5d178a08dc2,,,,,,,sngl,resources/Empty.png,resources/DG.BMP,WildCard_Ex,0.313596491,-0.03125,1,0,0,0.7522,optionRight,95,6920,3,41,0,41,0,1,,,,,,,,,,,,,,,,,,,,,,,,,,,,,,,,,,,,,,,
,,,,,,,,2023-08-16_08h37.53.466,HF_wild_card,2022.2.4,Win32,59.86948452,5aa836d6f053610001728189,64d2fd46c836a06233681665,64dc7c6922e0e5d178a08dc2,,,,,,,sngl,resources/Empty.png,resources/DBN.BMP,Door4,0.252192982,-0.013157895,1,0,0,0.8378,optionRight,60,6980,3,42,0,42,0,1,,,,,,,,,,,,,,,,,,,,,,,,,,,,,,,,,,,,,,,
,,,,,,,,2023-08-16_08h37.53.466,HF_wild_card,2022.2.4,Win32,59.86948452,5aa836d6f053610001728189,64d2fd46c836a06233681665,64dc7c6922e0e5d178a08dc2,,,,,,,ctch,resources/DBN.BMP,resources/DY.BMP,Door4,-0.313596491,0.007127193,1,0,0,0.8646,optionLeft,60,7040,3,43,0,43,0,1,,,,,,,,,,,,,,,,,,,,,,,,,,,,,,,,,,,,,,,
,,,,,,,,2023-08-16_08h37.53.466,HF_wild_card,2022.2.4,Win32,59.86948452,5aa836d6f053610001728189,64d2fd46c836a06233681665,64dc7c6922e0e5d178a08dc2,,,,,,,,,,,,,,,,,,,,,,,,,,2,0,2,0,1,,,,,,,,,,,,,,,,,,,,,,,,,,,,,,,,,,
,,,,,,,,2023-08-16_08h37.53.466,HF_wild_card,2022.2.4,Win32,59.86948452,5aa836d6f053610001728189,64d2fd46c836a06233681665,64dc7c6922e0e5d178a08dc2,,,,,,,decisionTrl,resources/DBN.BMP,resources/DB.BMP,Door4,-0.32127193,0.047149123,1,0,0,1.2139,optionLeft,60,7100,4,0,0,0,0,1,,,,,,,,,,,,,,,,,,,,,,,,,,,,,,,,,,,,,,,
,,,,,,,,2023-08-16_08h37.53.466,HF_wild_card,2022.2.4,Win32,59.86948452,5aa836d6f053610001728189,64d2fd46c836a06233681665,64dc7c6922e0e5d178a08dc2,,,,,,,decisionTrl,resources/DR.BMP,resources/DP.BMP,WildCard_NonEx,-0.75,-0.257127193,1,0,0,1.5432,optionLeft,55,7155,4,1,0,1,0,1,,,,,,,,,,,,,,,,,,,,,,,,,,,,,,,,,,,,,,,
,,,,,,,,2023-08-16_08h37.53.466,HF_wild_card,2022.2.4,Win32,59.86948452,5aa836d6f053610001728189,64d2fd46c836a06233681665,64dc7c6922e0e5d178a08dc2,,,,,,,decisionTrl,resources/DY.BMP,resources/DR.BMP,WildCard_NonEx,0.288925439,-0.086622807,1,0,0,2.2166,optionRight,55,7210,4,2,0,2,0,1,,,,,,,,,,,,,,,,,,,,,,,,,,,,,,,,,,,,,,,
,,,,,,,,2023-08-16_08h37.53.466,HF_wild_card,2022.2.4,Win32,59.86948452,5aa836d6f053610001728189,64d2fd46c836a06233681665,64dc7c6922e0e5d178a08dc2,,,,,,,sngl,resources/Empty.png,resources/DBN.BMP,Door4,0.276864035,-0.045504386,1,0,0,0.7472,optionRight,80,7290,4,3,0,3,0,1,,,,,,,,,,,,,,,,,,,,,,,,,,,,,,,,,,,,,,,
,,,,,,,,2023-08-16_08h37.53.466,HF_wild_card,2022.2.4,Win32,59.86948452,5aa836d6f053610001728189,64d2fd46c836a06233681665,64dc7c6922e0e5d178a08dc2,,,,,,,decisionTrl,resources/DP.BMP,resources/DY.BMP,Door2,-0.311951754,0.010416667,1,0,0,1.7017,optionLeft,20,7310,4,4,0,4,0,1,,,,,,,,,,,,,,,,,,,,,,,,,,,,,,,,,,,,,,,
,,,,,,,,2023-08-16_08h37.53.466,HF_wild_card,2022.2.4,Win32,59.86948452,5aa836d6f053610001728189,64d2fd46c836a06233681665,64dc7c6922e0e5d178a08dc2,,,,,,,sngl,resources/Empty.png,resources/DB.BMP,Door3,0.242872807,-0.012061404,1,0,0,0.5914,optionRight,70,7380,4,5,0,5,0,1,,,,,,,,,,,,,,,,,,,,,,,,,,,,,,,,,,,,,,,
,,,,,,,,2023-08-16_08h37.53.466,HF_wild_card,2022.2.4,Win32,59.86948452,5aa836d6f053610001728189,64d2fd46c836a06233681665,64dc7c6922e0e5d178a08dc2,,,,,,,sngl,resources/DR.BMP,resources/Empty.png,WildCard_NonEx,-0.333881579,-0.009868421,1,0,0,0.6262,optionLeft,55,7435,4,6,0,6,0,1,,,,,,,,,,,,,,,,,,,,,,,,,,,,,,,,,,,,,,,
,,,,,,,,2023-08-16_08h37.53.466,HF_wild_card,2022.2.4,Win32,59.86948452,5aa836d6f053610001728189,64d2fd46c836a06233681665,64dc7c6922e0e5d178a08dc2,,,,,,,sngl,resources/Empty.png,resources/DR.BMP,WildCard_NonEx,0.376644737,-0.044407895,1,0,0,0.6492,optionRight,45,7480,4,7,0,7,0,1,,,,,,,,,,,,,,,,,,,,,,,,,,,,,,,,,,,,,,,
,,,,,,,,2023-08-16_08h37.53.466,HF_wild_card,2022.2.4,Win32,59.86948452,5aa836d6f053610001728189,64d2fd46c836a06233681665,64dc7c6922e0e5d178a08dc2,,,,,,,decisionTrl,resources/DBN.BMP,resources/DB.BMP,Door4,-0.325657895,-0.001096491,1,0,0,0.8649,optionLeft,80,7560,4,8,0,8,0,1,,,,,,,,,,,,,,,,,,,,,,,,,,,,,,,,,,,,,,,
,,,,,,,,2023-08-16_08h37.53.466,HF_wild_card,2022.2.4,Win32,59.86948452,5aa836d6f053610001728189,64d2fd46c836a06233681665,64dc7c6922e0e5d178a08dc2,,,,,,,decisionTrl,resources/DP.BMP,resources/DY.BMP,Door2,-0.308114035,-0.057017544,1,0,0,1.3663,optionLeft,40,7600,4,9,0,9,0,1,,,,,,,,,,,,,,,,,,,,,,,,,,,,,,,,,,,,,,,
,,,,,,,,2023-08-16_08h37.53.466,HF_wild_card,2022.2.4,Win32,59.86948452,5aa836d6f053610001728189,64d2fd46c836a06233681665,64dc7c6922e0e5d178a08dc2,,,,,,,sngl,resources/DP.BMP,resources/Empty.png,Door2,-0.411184211,-0.047697368,1,0,0,0.8384,optionLeft,20,7620,4,10,0,10,0,1,,,,,,,,,,,,,,,,,,,,,,,,,,,,,,,,,,,,,,,
,,,,,,,,2023-08-16_08h37.53.466,HF_wild_card,2022.2.4,Win32,59.86948452,5aa836d6f053610001728189,64d2fd46c836a06233681665,64dc7c6922e0e5d178a08dc2,,,,,,,ctch,resources/DB.BMP,resources/DP.BMP,Door3,-0.343201754,0.012609649,1,0,0,1.0301,optionLeft,70,7690,4,11,0,11,0,1,,,,,,,,,,,,,,,,,,,,,,,,,,,,,,,,,,,,,,,
,,,,,,,,2023-08-16_08h37.53.466,HF_wild_card,2022.2.4,Win32,59.86948452,5aa836d6f053610001728189,64d2fd46c836a06233681665,64dc7c6922e0e5d178a08dc2,,,,,,,decisionTrl,resources/DR.BMP,resources/DBN.BMP,Door4,0.269188596,-0.033991228,1,0,0,0.9014,optionRight,60,7750,4,12,0,12,0,1,,,,,,,,,,,,,,,,,,,,,,,,,,,,,,,,,,,,,,,
,,,,,,,,2023-08-16_08h37.53.466,HF_wild_card,2022.2.4,Win32,59.86948452,5aa836d6f053610001728189,64d2fd46c836a06233681665,64dc7c6922e0e5d178a08dc2,,,,,,,decisionTrl,resources/DBN.BMP,resources/DB.BMP,Door4,-0.341008772,-0.005482456,1,0,0,0.9166,optionLeft,60,7810,4,13,0,13,0,1,,,,,,,,,,,,,,,,,,,,,,,,,,,,,,,,,,,,,,,
,,,,,,,,2023-08-16_08h37.53.466,HF_wild_card,2022.2.4,Win32,59.86948452,5aa836d6f053610001728189,64d2fd46c836a06233681665,64dc7c6922e0e5d178a08dc2,,,,,,,decisionTrl,resources/DB.BMP,resources/DBN.BMP,Door3,-0.283991228,-0.026864035,1,0,0,1.0022,optionLeft,70,7880,4,14,0,14,0,1,,,,,,,,,,,,,,,,,,,,,,,,,,,,,,,,,,,,,,,
,,,,,,,,2023-08-16_08h37.53.466,HF_wild_card,2022.2.4,Win32,59.86948452,5aa836d6f053610001728189,64d2fd46c836a06233681665,64dc7c6922e0e5d178a08dc2,,,,,,,decisionTrl,resources/DY.BMP,resources/DP.BMP,Door2,0.302083333,-0.066885965,1,0,0,1.5816,optionRight,20,7900,4,15,0,15,0,1,,,,,,,,,,,,,,,,,,,,,,,,,,,,,,,,,,,,,,,
,,,,,,,,2023-08-16_08h37.53.466,HF_wild_card,2022.2.4,Win32,59.86948452,5aa836d6f053610001728189,64d2fd46c836a06233681665,64dc7c6922e0e5d178a08dc2,,,,,,,sngl,resources/DY.BMP,resources/Empty.png,Door1,-0.305372807,-0.001644737,1,0,0,0.7875,optionLeft,30,7930,4,16,0,16,0,1,,,,,,,,,,,,,,,,,,,,,,,,,,,,,,,,,,,,,,,
,,,,,,,,2023-08-16_08h37.53.466,HF_wild_card,2022.2.4,Win32,59.86948452,5aa836d6f053610001728189,64d2fd46c836a06233681665,64dc7c6922e0e5d178a08dc2,,,,,,,decisionTrl,resources/DP.BMP,resources/DY.BMP,Door1,0.304276316,-0.014802632,1,0,0,1.0556,optionRight,30,7960,4,17,0,17,0,1,,,,,,,,,,,,,,,,,,,,,,,,,,,,,,,,,,,,,,,
,,,,,,,,2023-08-16_08h37.53.466,HF_wild_card,2022.2.4,Win32,59.86948452,5aa836d6f053610001728189,64d2fd46c836a06233681665,64dc7c6922e0e5d178a08dc2,,,,,,,sngl,resources/DR.BMP,resources/Empty.png,WildCard_NonEx,-0.400219298,0.007127193,1,0,0,0.9608,optionLeft,45,8005,4,18,0,18,0,1,,,,,,,,,,,,,,,,,,,,,,,,,,,,,,,,,,,,,,,
,,,,,,,,2023-08-16_08h37.53.466,HF_wild_card,2022.2.4,Win32,59.86948452,5aa836d6f053610001728189,64d2fd46c836a06233681665,64dc7c6922e0e5d178a08dc2,,,,,,,decisionTrl,resources/DP.BMP,resources/DR.BMP,WildCard_NonEx,0.411184211,0.028508772,1,0,0,1.7722,optionRight,55,8060,4,19,0,19,0,1,,,,,,,,,,,,,,,,,,,,,,,,,,,,,,,,,,,,,,,
,,,,,,,,2023-08-16_08h37.53.466,HF_wild_card,2022.2.4,Win32,59.86948452,5aa836d6f053610001728189,64d2fd46c836a06233681665,64dc7c6922e0e5d178a08dc2,,,,,,,ctch,resources/DP.BMP,resources/DB.BMP,Door3,0.274122807,0.006030702,1,0,0,1.433,optionRight,70,8130,4,20,0,20,0,1,,,,,,,,,,,,,,,,,,,,,,,,,,,,,,,,,,,,,,,
,,,,,,,,2023-08-16_08h37.53.466,HF_wild_card,2022.2.4,Win32,59.86948452,5aa836d6f053610001728189,64d2fd46c836a06233681665,64dc7c6922e0e5d178a08dc2,,,,,,,decisionTrl,resources/DB.BMP,resources/DBN.BMP,Door4,0.310855263,0.001096491,1,0,0,1.2056,optionRight,60,8190,4,21,0,21,0,1,,,,,,,,,,,,,,,,,,,,,,,,,,,,,,,,,,,,,,,
,,,,,,,,2023-08-16_08h37.53.466,HF_wild_card,2022.2.4,Win32,59.86948452,5aa836d6f053610001728189,64d2fd46c836a06233681665,64dc7c6922e0e5d178a08dc2,,,,,,,decisionTrl,resources/DY.BMP,resources/DP.BMP,Door1,-0.349232456,-0.004934211,1,0,0,1.7994,optionLeft,30,8220,4,22,0,22,0,1,,,,,,,,,,,,,,,,,,,,,,,,,,,,,,,,,,,,,,,
,,,,,,,,2023-08-16_08h37.53.466,HF_wild_card,2022.2.4,Win32,59.86948452,5aa836d6f053610001728189,64d2fd46c836a06233681665,64dc7c6922e0e5d178a08dc2,,,,,,,ctch,resources/DY.BMP,resources/DBN.BMP,Door4,0.409539474,-0.004385965,1,0,0,0.9617,optionRight,80,8300,4,23,0,23,0,1,,,,,,,,,,,,,,,,,,,,,,,,,,,,,,,,,,,,,,,
,,,,,,,,2023-08-16_08h37.53.466,HF_wild_card,2022.2.4,Win32,59.86948452,5aa836d6f053610001728189,64d2fd46c836a06233681665,64dc7c6922e0e5d178a08dc2,,,,,,,sngl,resources/Empty.png,resources/DY.BMP,Door1,0.390899123,-0.046052632,1,0,0,0.6895,optionRight,30,8330,4,24,0,24,0,1,,,,,,,,,,,,,,,,,,,,,,,,,,,,,,,,,,,,,,,
,,,,,,,,2023-08-16_08h37.53.466,HF_wild_card,2022.2.4,Win32,59.86948452,5aa836d6f053610001728189,64d2fd46c836a06233681665,64dc7c6922e0e5d178a08dc2,,,,,,,ctch,resources/DP.BMP,resources/DB.BMP,Door3,0.298245614,-0.036184211,1,0,0,1.8658,optionRight,70,8400,4,25,0,25,0,1,,,,,,,,,,,,,,,,,,,,,,,,,,,,,,,,,,,,,,,
,,,,,,,,2023-08-16_08h37.53.466,HF_wild_card,2022.2.4,Win32,59.86948452,5aa836d6f053610001728189,64d2fd46c836a06233681665,64dc7c6922e0e5d178a08dc2,,,,,,,decisionTrl,resources/DR.BMP,resources/DB.BMP,Door3,0.335526316,-0.080592105,1,0,0,2.1786,optionRight,70,8470,4,26,0,26,0,1,,,,,,,,,,,,,,,,,,,,,,,,,,,,,,,,,,,,,,,
,,,,,,,,2023-08-16_08h37.53.466,HF_wild_card,2022.2.4,Win32,59.86948452,5aa836d6f053610001728189,64d2fd46c836a06233681665,64dc7c6922e0e5d178a08dc2,,,,,,,decisionTrl,resources/DR.BMP,resources/DY.BMP,WildCard_NonEx,-0.354714912,0.007127193,1,0,0,1.7704,optionLeft,45,8515,4,27,0,27,0,1,,,,,,,,,,,,,,,,,,,,,,,,,,,,,,,,,,,,,,,
,,,,,,,,2023-08-16_08h37.53.466,HF_wild_card,2022.2.4,Win32,59.86948452,5aa836d6f053610001728189,64d2fd46c836a06233681665,64dc7c6922e0e5d178a08dc2,,,,,,,decisionTrl,resources/DP.BMP,resources/DY.BMP,Door1,0.314144737,-0.014802632,1,0,0,1.0992,optionRight,30,8545,4,28,0,28,0,1,,,,,,,,,,,,,,,,,,,,,,,,,,,,,,,,,,,,,,,
,,,,,,,,2023-08-16_08h37.53.466,HF_wild_card,2022.2.4,Win32,59.86948452,5aa836d6f053610001728189,64d2fd46c836a06233681665,64dc7c6922e0e5d178a08dc2,,,,,,,ctch,resources/DB.BMP,resources/DP.BMP,Door3,-0.318530702,0.027412281,1,0,0,0.7749,optionLeft,70,8615,4,29,0,29,0,1,,,,,,,,,,,,,,,,,,,,,,,,,,,,,,,,,,,,,,,
,,,,,,,,2023-08-16_08h37.53.466,HF_wild_card,2022.2.4,Win32,59.86948452,5aa836d6f053610001728189,64d2fd46c836a06233681665,64dc7c6922e0e5d178a08dc2,,,,,,,sngl,resources/DB.BMP,resources/Empty.png,Door3,-0.291666667,-0.07127193,1,0,0,0.8318,optionLeft,70,8685,4,30,0,30,0,1,,,,,,,,,,,,,,,,,,,,,,,,,,,,,,,,,,,,,,,
,,,,,,,,2023-08-16_08h37.53.466,HF_wild_card,2022.2.4,Win32,59.86948452,5aa836d6f053610001728189,64d2fd46c836a06233681665,64dc7c6922e0e5d178a08dc2,,,,,,,ctch,resources/DBN.BMP,resources/DY.BMP,Door4,-0.360745614,-0.009868421,1,0,0,0.9315,optionLeft,60,8745,4,31,0,31,0,1,,,,,,,,,,,,,,,,,,,,,,,,,,,,,,,,,,,,,,,
,,,,,,,,2023-08-16_08h37.53.466,HF_wild_card,2022.2.4,Win32,59.86948452,5aa836d6f053610001728189,64d2fd46c836a06233681665,64dc7c6922e0e5d178a08dc2,,,,,,,decisionTrl,resources/DB.BMP,resources/DBN.BMP,Door3,-0.393640351,-0.015899123,1,0,0,1.4277,optionLeft,70,8815,4,32,0,32,0,1,,,,,,,,,,,,,,,,,,,,,,,,,,,,,,,,,,,,,,,
,,,,,,,,2023-08-16_08h37.53.466,HF_wild_card,2022.2.4,Win32,59.86948452,5aa836d6f053610001728189,64d2fd46c836a06233681665,64dc7c6922e0e5d178a08dc2,,,,,,,ctch,resources/DY.BMP,resources/DBN.BMP,Door4,0.316337719,0.012609649,1,0,0,1.0327,optionRight,60,8875,4,33,0,33,0,1,,,,,,,,,,,,,,,,,,,,,,,,,,,,,,,,,,,,,,,
,,,,,,,,2023-08-16_08h37.53.466,HF_wild_card,2022.2.4,Win32,59.86948452,5aa836d6f053610001728189,64d2fd46c836a06233681665,64dc7c6922e0e5d178a08dc2,,,,,,,decisionTrl,resources/DY.BMP,resources/DP.BMP,Door2,0.281798246,-0.085526316,1,0,0,3.4173,optionRight,20,8895,4,34,0,34,0,1,,,,,,,,,,,,,,,,,,,,,,,,,,,,,,,,,,,,,,,
,,,,,,,,2023-08-16_08h37.53.466,HF_wild_card,2022.2.4,Win32,59.86948452,5aa836d6f053610001728189,64d2fd46c836a06233681665,64dc7c6922e0e5d178a08dc2,,,,,,,decisionTrl,resources/DBN.BMP,resources/DB.BMP,Door4,-0.372807018,0.051535088,1,0,0,0.6818,optionLeft,80,8975,4,35,0,35,0,1,,,,,,,,,,,,,,,,,,,,,,,,,,,,,,,,,,,,,,,
,,,,,,,,2023-08-16_08h37.53.466,HF_wild_card,2022.2.4,Win32,59.86948452,5aa836d6f053610001728189,64d2fd46c836a06233681665,64dc7c6922e0e5d178a08dc2,,,,,,,sngl,resources/Empty.png,resources/DR.BMP,WildCard_NonEx,0.389254386,-0.050986842,1,0,0,0.7488,optionRight,55,9030,4,36,0,36,0,1,,,,,,,,,,,,,,,,,,,,,,,,,,,,,,,,,,,,,,,
,,,,,,,,2023-08-16_08h37.53.466,HF_wild_card,2022.2.4,Win32,59.86948452,5aa836d6f053610001728189,64d2fd46c836a06233681665,64dc7c6922e0e5d178a08dc2,,,,,,,sngl,resources/Empty.png,resources/DP.BMP,Door2,0.343201754,-0.042763158,1,0,0,0.7834,optionRight,40,9070,4,37,0,37,0,1,,,,,,,,,,,,,,,,,,,,,,,,,,,,,,,,,,,,,,,
,,,,,,,,2023-08-16_08h37.53.466,HF_wild_card,2022.2.4,Win32,59.86948452,5aa836d6f053610001728189,64d2fd46c836a06233681665,64dc7c6922e0e5d178a08dc2,,,,,,,decisionTrl,resources/DB.BMP,resources/DBN.BMP,Door3,-0.342653509,0.021381579,1,0,0,0.7654,optionLeft,70,9140,4,38,0,38,0,1,,,,,,,,,,,,,,,,,,,,,,,,,,,,,,,,,,,,,,,
,,,,,,,,2023-08-16_08h37.53.466,HF_wild_card,2022.2.4,Win32,59.86948452,5aa836d6f053610001728189,64d2fd46c836a06233681665,64dc7c6922e0e5d178a08dc2,,,,,,,ctch,resources/DBN.BMP,resources/DY.BMP,Door4,-0.356907895,0.006030702,1,0,0,0.8827,optionLeft,60,9200,4,39,0,39,0,1,,,,,,,,,,,,,,,,,,,,,,,,,,,,,,,,,,,,,,,
,,,,,,,,2023-08-16_08h37.53.466,HF_wild_card,2022.2.4,Win32,59.86948452,5aa836d6f053610001728189,64d2fd46c836a06233681665,64dc7c6922e0e5d178a08dc2,,,,,,,decisionTrl,resources/DBN.BMP,resources/DR.BMP,Door4,-0.41995614,-0.054276316,1,0,0,0.7985,optionLeft,80,9280,4,40,0,40,0,1,,,,,,,,,,,,,,,,,,,,,,,,,,,,,,,,,,,,,,,
,,,,,,,,2023-08-16_08h37.53.466,HF_wild_card,2022.2.4,Win32,59.86948452,5aa836d6f053610001728189,64d2fd46c836a06233681665,64dc7c6922e0e5d178a08dc2,,,,,,,sngl,resources/DBN.BMP,resources/Empty.png,Door4,-0.341557018,0.026864035,1,0,0,0.7586,optionLeft,60,9340,4,41,0,41,0,1,,,,,,,,,,,,,,,,,,,,,,,,,,,,,,,,,,,,,,,
,,,,,,,,2023-08-16_08h37.53.466,HF_wild_card,2022.2.4,Win32,59.86948452,5aa836d6f053610001728189,64d2fd46c836a06233681665,64dc7c6922e0e5d178a08dc2,,,,,,,decisionTrl,resources/DB.BMP,resources/DR.BMP,WildCard_NonEx,0.358004386,-0.052631579,1,0,0,1.5659,optionRight,55,9395,4,42,0,42,0,1,,,,,,,,,,,,,,,,,,,,,,,,,,,,,,,,,,,,,,,
,,,,,,,,2023-08-16_08h37.53.466,HF_wild_card,2022.2.4,Win32,59.86948452,5aa836d6f053610001728189,64d2fd46c836a06233681665,64dc7c6922e0e5d178a08dc2,,,,,,,decisionTrl,resources/DY.BMP,resources/DP.BMP,Door2,0.332236842,-0.134320175,1,0,0,2.0159,optionRight,20,9415,4,43,0,43,0,1,,,,,,,,,,,,,,,,,,,,,,,,,,,,,,,,,,,,,,,
,,,,,,,,2023-08-16_08h37.53.466,HF_wild_card,2022.2.4,Win32,59.86948452,5aa836d6f053610001728189,64d2fd46c836a06233681665,64dc7c6922e0e5d178a08dc2,,,,,,,,,,,,,,,,,,,,,,,,,,3,0,3,0,1,,,,,,,,,,,,,,,,,,,,,,,,,,,,,,,,,,
,,,,,,,,2023-08-16_08h37.53.466,HF_wild_card,2022.2.4,Win32,59.86948452,5aa836d6f053610001728189,64d2fd46c836a06233681665,64dc7c6922e0e5d178a08dc2,,,,,,,decisionTrl,resources/DBN.BMP,resources/DR.BMP,WildCard_NonEx,0.313048246,-0.05372807,1,0,0,1.6429,optionRight,55,9470,5,0,0,0,0,1,,,,,,,,,,,,,,,,,,,,,,,,,,,,,,,,,,,,,,,
,,,,,,,,2023-08-16_08h37.53.466,HF_wild_card,2022.2.4,Win32,59.86948452,5aa836d6f053610001728189,64d2fd46c836a06233681665,64dc7c6922e0e5d178a08dc2,,,,,,,sngl,resources/Empty.png,resources/DP.BMP,Door2,0.280153509,-0.035635965,1,0,0,0.8821,optionRight,20,9490,5,1,0,1,0,1,,,,,,,,,,,,,,,,,,,,,,,,,,,,,,,,,,,,,,,
,,,,,,,,2023-08-16_08h37.53.466,HF_wild_card,2022.2.4,Win32,59.86948452,5aa836d6f053610001728189,64d2fd46c836a06233681665,64dc7c6922e0e5d178a08dc2,,,,,,,ctch,resources/DP.BMP,resources/DB.BMP,Door3,0.34375,-0.039473684,1,0,0,0.9393,optionRight,70,9560,5,2,0,2,0,1,,,,,,,,,,,,,,,,,,,,,,,,,,,,,,,,,,,,,,,
,,,,,,,,2023-08-16_08h37.53.466,HF_wild_card,2022.2.4,Win32,59.86948452,5aa836d6f053610001728189,64d2fd46c836a06233681665,64dc7c6922e0e5d178a08dc2,,,,,,,sngl,resources/DBN.BMP,resources/Empty.png,Door4,-0.384868421,0.025767544,1,0,0,0.7031,optionLeft,80,9640,5,3,0,3,0,1,,,,,,,,,,,,,,,,,,,,,,,,,,,,,,,,,,,,,,,
,,,,,,,,2023-08-16_08h37.53.466,HF_wild_card,2022.2.4,Win32,59.86948452,5aa836d6f053610001728189,64d2fd46c836a06233681665,64dc7c6922e0e5d178a08dc2,,,,,,,sngl,resources/DY.BMP,resources/Empty.png,Door1,-0.286184211,0.004385965,1,0,0,0.9428,optionLeft,30,9670,5,4,0,4,0,1,,,,,,,,,,,,,,,,,,,,,,,,,,,,,,,,,,,,,,,
,,,,,,,,2023-08-16_08h37.53.466,HF_wild_card,2022.2.4,Win32,59.86948452,5aa836d6f053610001728189,64d2fd46c836a06233681665,64dc7c6922e0e5d178a08dc2,,,,,,,ctch,resources/DBN.BMP,resources/DY.BMP,Door4,-0.286184211,0.006030702,1,0,0,0.8526,optionLeft,80,9750,5,5,0,5,0,1,,,,,,,,,,,,,,,,,,,,,,,,,,,,,,,,,,,,,,,
,,,,,,,,2023-08-16_08h37.53.466,HF_wild_card,2022.2.4,Win32,59.86948452,5aa836d6f053610001728189,64d2fd46c836a06233681665,64dc7c6922e0e5d178a08dc2,,,,,,,decisionTrl,resources/DR.BMP,resources/DB.BMP,WildCard_NonEx,-0.35252193,0.02247807,1,0,0,1.3434,optionLeft,45,9795,5,6,0,6,0,1,,,,,,,,,,,,,,,,,,,,,,,,,,,,,,,,,,,,,,,
,,,,,,,,2023-08-16_08h37.53.466,HF_wild_card,2022.2.4,Win32,59.86948452,5aa836d6f053610001728189,64d2fd46c836a06233681665,64dc7c6922e0e5d178a08dc2,,,,,,,decisionTrl,resources/DBN.BMP,resources/DB.BMP,Door4,-0.349232456,0.042214912,1,0,0,1.2214,optionLeft,80,9875,5,7,0,7,0,1,,,,,,,,,,,,,,,,,,,,,,,,,,,,,,,,,,,,,,,
,,,,,,,,2023-08-16_08h37.53.466,HF_wild_card,2022.2.4,Win32,59.86948452,5aa836d6f053610001728189,64d2fd46c836a06233681665,64dc7c6922e0e5d178a08dc2,,,,,,,ctch,resources/DB.BMP,resources/DP.BMP,Door3,-0.401315789,-0.032346491,1,0,0,1.3654,optionLeft,70,9945,5,8,0,8,0,1,,,,,,,,,,,,,,,,,,,,,,,,,,,,,,,,,,,,,,,
,,,,,,,,2023-08-16_08h37.53.466,HF_wild_card,2022.2.4,Win32,59.86948452,5aa836d6f053610001728189,64d2fd46c836a06233681665,64dc7c6922e0e5d178a08dc2,,,,,,,decisionTrl,resources/DP.BMP,resources/DY.BMP,Door2,-0.296600877,-0.057017544,1,0,0,2.2782,optionLeft,40,9985,5,9,0,9,0,1,,,,,,,,,,,,,,,,,,,,,,,,,,,,,,,,,,,,,,,
,,,,,,,,2023-08-16_08h37.53.466,HF_wild_card,2022.2.4,Win32,59.86948452,5aa836d6f053610001728189,64d2fd46c836a06233681665,64dc7c6922e0e5d178a08dc2,,,,,,,decisionTrl,resources/DP.BMP,resources/DY.BMP,Door2,-0.282894737,-0.052631579,1,0,0,1.1815,optionLeft,40,10025,5,10,0,10,0,1,,,,,,,,,,,,,,,,,,,,,,,,,,,,,,,,,,,,,,,
,,,,,,,,2023-08-16_08h37.53.466,HF_wild_card,2022.2.4,Win32,59.86948452,5aa836d6f053610001728189,64d2fd46c836a06233681665,64dc7c6922e0e5d178a08dc2,,,,,,,decisionTrl,resources/DBN.BMP,resources/DB.BMP,Door4,-0.303179825,0.007127193,1,0,0,0.8643,optionLeft,60,10085,5,11,0,11,0,1,,,,,,,,,,,,,,,,,,,,,,,,,,,,,,,,,,,,,,,
,,,,,,,,2023-08-16_08h37.53.466,HF_wild_card,2022.2.4,Win32,59.86948452,5aa836d6f053610001728189,64d2fd46c836a06233681665,64dc7c6922e0e5d178a08dc2,,,,,,,sngl,resources/Empty.png,resources/DR.BMP,WildCard_NonEx,0.307017544,-0.018092105,1,0,0,0.7816,optionRight,55,10140,5,12,0,12,0,1,,,,,,,,,,,,,,,,,,,,,,,,,,,,,,,,,,,,,,,
,,,,,,,,2023-08-16_08h37.53.466,HF_wild_card,2022.2.4,Win32,59.86948452,5aa836d6f053610001728189,64d2fd46c836a06233681665,64dc7c6922e0e5d178a08dc2,,,,,,,sngl,resources/DB.BMP,resources/Empty.png,Door3,-0.377192982,-0.015899123,1,0,0,0.7544,optionLeft,70,10210,5,13,0,13,0,1,,,,,,,,,,,,,,,,,,,,,,,,,,,,,,,,,,,,,,,
,,,,,,,,2023-08-16_08h37.53.466,HF_wild_card,2022.2.4,Win32,59.86948452,5aa836d6f053610001728189,64d2fd46c836a06233681665,64dc7c6922e0e5d178a08dc2,,,,,,,sngl,resources/Empty.png,resources/DY.BMP,Door1,0.304824561,-0.004934211,1,0,0,0.8711,optionRight,30,10240,5,14,0,14,0,1,,,,,,,,,,,,,,,,,,,,,,,,,,,,,,,,,,,,,,,
,,,,,,,,2023-08-16_08h37.53.466,HF_wild_card,2022.2.4,Win32,59.86948452,5aa836d6f053610001728189,64d2fd46c836a06233681665,64dc7c6922e0e5d178a08dc2,,,,,,,decisionTrl,resources/DR.BMP,resources/DY.BMP,WildCard_NonEx,-0.328947368,0.020833333,1,0,0,1.2135,optionLeft,55,10295,5,15,0,15,0,1,,,,,,,,,,,,,,,,,,,,,,,,,,,,,,,,,,,,,,,
,,,,,,,,2023-08-16_08h37.53.466,HF_wild_card,2022.2.4,Win32,59.86948452,5aa836d6f053610001728189,64d2fd46c836a06233681665,64dc7c6922e0e5d178a08dc2,,,,,,,sngl,resources/DR.BMP,resources/Empty.png,WildCard_NonEx,-0.35745614,0.04495614,1,0,0,0.7437,optionLeft,45,10340,5,16,0,16,0,1,,,,,,,,,,,,,,,,,,,,,,,,,,,,,,,,,,,,,,,
,,,,,,,,2023-08-16_08h37.53.466,HF_wild_card,2022.2.4,Win32,59.86948452,5aa836d6f053610001728189,64d2fd46c836a06233681665,64dc7c6922e0e5d178a08dc2,,,,,,,ctch,resources/DY.BMP,resources/DBN.BMP,Door4,0.287280702,-0.001644737,1,0,0,1.0106,optionRight,80,10420,5,17,0,17,0,1,,,,,,,,,,,,,,,,,,,,,,,,,,,,,,,,,,,,,,,
,,,,,,,,2023-08-16_08h37.53.466,HF_wild_card,2022.2.4,Win32,59.86948452,5aa836d6f053610001728189,64d2fd46c836a06233681665,64dc7c6922e0e5d178a08dc2,,,,,,,ctch,resources/DBN.BMP,resources/DY.BMP,Door4,-0.430372807,0.063596491,1,0,0,1.1649,optionLeft,80,10500,5,18,0,18,0,1,,,,,,,,,,,,,,,,,,,,,,,,,,,,,,,,,,,,,,,
,,,,,,,,2023-08-16_08h37.53.466,HF_wild_card,2022.2.4,Win32,59.86948452,5aa836d6f053610001728189,64d2fd46c836a06233681665,64dc7c6922e0e5d178a08dc2,,,,,,,sngl,resources/DP.BMP,resources/Empty.png,Door2,-0.276315789,0.033442982,1,0,0,1.2828,optionLeft,40,10540,5,19,0,19,0,1,,,,,,,,,,,,,,,,,,,,,,,,,,,,,,,,,,,,,,,
,,,,,,,,2023-08-16_08h37.53.466,HF_wild_card,2022.2.4,Win32,59.86948452,5aa836d6f053610001728189,64d2fd46c836a06233681665,64dc7c6922e0e5d178a08dc2,,,,,,,decisionTrl,resources/DY.BMP,resources/DP.BMP,Door2,0.29495614,-0.004934211,1,0,0,1.4329,optionRight,40,10580,5,20,0,20,0,1,,,,,,,,,,,,,,,,,,,,,,,,,,,,,,,,,,,,,,,
,,,,,,,,2023-08-16_08h37.53.466,HF_wild_card,2022.2.4,Win32,59.86948452,5aa836d6f053610001728189,64d2fd46c836a06233681665,64dc7c6922e0e5d178a08dc2,,,,,,,ctch,resources/DB.BMP,resources/DP.BMP,Door3,-0.308662281,0.024671053,1,0,0,0.8654,optionLeft,70,10650,5,21,0,21,0,1,,,,,,,,,,,,,,,,,,,,,,,,,,,,,,,,,,,,,,,
,,,,,,,,2023-08-16_08h37.53.466,HF_wild_card,2022.2.4,Win32,59.86948452,5aa836d6f053610001728189,64d2fd46c836a06233681665,64dc7c6922e0e5d178a08dc2,,,,,,,decisionTrl,resources/DR.BMP,resources/DBN.BMP,Door4,0.286732456,-0.01370614,1,0,0,1.0874,optionRight,60,10710,5,22,0,22,0,1,,,,,,,,,,,,,,,,,,,,,,,,,,,,,,,,,,,,,,,
,,,,,,,,2023-08-16_08h37.53.466,HF_wild_card,2022.2.4,Win32,59.86948452,5aa836d6f053610001728189,64d2fd46c836a06233681665,64dc7c6922e0e5d178a08dc2,,,,,,,sngl,resources/Empty.png,resources/DB.BMP,Door3,0.326754386,-0.032346491,1,0,0,0.8215,optionRight,70,10780,5,23,0,23,0,1,,,,,,,,,,,,,,,,,,,,,,,,,,,,,,,,,,,,,,,
,,,,,,,,2023-08-16_08h37.53.466,HF_wild_card,2022.2.4,Win32,59.86948452,5aa836d6f053610001728189,64d2fd46c836a06233681665,64dc7c6922e0e5d178a08dc2,,,,,,,decisionTrl,resources/DBN.BMP,resources/DB.BMP,Door4,-0.325109649,0.007127193,1,0,0,0.8353,optionLeft,80,10860,5,24,0,24,0,1,,,,,,,,,,,,,,,,,,,,,,,,,,,,,,,,,,,,,,,
,,,,,,,,2023-08-16_08h37.53.466,HF_wild_card,2022.2.4,Win32,59.86948452,5aa836d6f053610001728189,64d2fd46c836a06233681665,64dc7c6922e0e5d178a08dc2,,,,,,,decisionTrl,resources/DB.BMP,resources/DBN.BMP,Door4,0.262061404,-0.015350877,1,0,0,1.0654,optionRight,60,10920,5,25,0,25,0,1,,,,,,,,,,,,,,,,,,,,,,,,,,,,,,,,,,,,,,,
,,,,,,,,2023-08-16_08h37.53.466,HF_wild_card,2022.2.4,Win32,59.86948452,5aa836d6f053610001728189,64d2fd46c836a06233681665,64dc7c6922e0e5d178a08dc2,,,,,,,decisionTrl,resources/DP.BMP,resources/DR.BMP,WildCard_NonEx,0.293311404,0.035635965,1,0,0,1.8157,optionRight,55,10975,5,26,0,26,0,1,,,,,,,,,,,,,,,,,,,,,,,,,,,,,,,,,,,,,,,
,,,,,,,,2023-08-16_08h37.53.466,HF_wild_card,2022.2.4,Win32,59.86948452,5aa836d6f053610001728189,64d2fd46c836a06233681665,64dc7c6922e0e5d178a08dc2,,,,,,,decisionTrl,resources/DY.BMP,resources/DP.BMP,Door2,0.282346491,-0.00877193,1,0,0,1.4604,optionRight,40,11015,5,27,0,27,0,1,,,,,,,,,,,,,,,,,,,,,,,,,,,,,,,,,,,,,,,
,,,,,,,,2023-08-16_08h37.53.466,HF_wild_card,2022.2.4,Win32,59.86948452,5aa836d6f053610001728189,64d2fd46c836a06233681665,64dc7c6922e0e5d178a08dc2,,,,,,,decisionTrl,resources/DY.BMP,resources/DR.BMP,WildCard_NonEx,0.286732456,-0.013157895,1,0,0,1.1947,optionRight,55,11070,5,28,0,28,0,1,,,,,,,,,,,,,,,,,,,,,,,,,,,,,,,,,,,,,,,
,,,,,,,,2023-08-16_08h37.53.466,HF_wild_card,2022.2.4,Win32,59.86948452,5aa836d6f053610001728189,64d2fd46c836a06233681665,64dc7c6922e0e5d178a08dc2,,,,,,,sngl,resources/DR.BMP,resources/Empty.png,WildCard_NonEx,-0.326754386,-0.005482456,1,0,0,1.2872,optionLeft,55,11125,5,29,0,29,0,1,,,,,,,,,,,,,,,,,,,,,,,,,,,,,,,,,,,,,,,
,,,,,,,,2023-08-16_08h37.53.466,HF_wild_card,2022.2.4,Win32,59.86948452,5aa836d6f053610001728189,64d2fd46c836a06233681665,64dc7c6922e0e5d178a08dc2,,,,,,,decisionTrl,resources/DB.BMP,resources/DR.BMP,Door3,-0.315241228,0.001644737,1,0,0,0.9635,optionLeft,70,11195,5,30,0,30,0,1,,,,,,,,,,,,,,,,,,,,,,,,,,,,,,,,,,,,,,,
,,,,,,,,2023-08-16_08h37.53.466,HF_wild_card,2022.2.4,Win32,59.86948452,5aa836d6f053610001728189,64d2fd46c836a06233681665,64dc7c6922e0e5d178a08dc2,,,,,,,sngl,resources/Empty.png,resources/DR.BMP,WildCard_NonEx,0.353618421,0.002741228,1,0,0,0.6488,optionRight,45,11240,5,31,0,31,0,1,,,,,,,,,,,,,,,,,,,,,,,,,,,,,,,,,,,,,,,
,,,,,,,,2023-08-16_08h37.53.466,HF_wild_card,2022.2.4,Win32,59.86948452,5aa836d6f053610001728189,64d2fd46c836a06233681665,64dc7c6922e0e5d178a08dc2,,,,,,,decisionTrl,resources/DP.BMP,resources/DY.BMP,Door2,-0.339912281,0.018092105,1,0,0,1.0152,optionLeft,20,11260,5,32,0,32,0,1,,,,,,,,,,,,,,,,,,,,,,,,,,,,,,,,,,,,,,,
,,,,,,,,2023-08-16_08h37.53.466,HF_wild_card,2022.2.4,Win32,59.86948452,5aa836d6f053610001728189,64d2fd46c836a06233681665,64dc7c6922e0e5d178a08dc2,,,,,,,decisionTrl,resources/DB.BMP,resources/DBN.BMP,Door4,0.302631579,-0.047149123,1,0,0,0.9815,optionRight,80,11340,5,33,0,33,0,1,,,,,,,,,,,,,,,,,,,,,,,,,,,,,,,,,,,,,,,
,,,,,,,,2023-08-16_08h37.53.466,HF_wild_card,2022.2.4,Win32,59.86948452,5aa836d6f053610001728189,64d2fd46c836a06233681665,64dc7c6922e0e5d178a08dc2,,,,,,,decisionTrl,resources/DP.BMP,resources/DY.BMP,Door1,0.377192982,-0.024671053,1,0,0,1.9701,optionRight,30,11370,5,34,0,34,0,1,,,,,,,,,,,,,,,,,,,,,,,,,,,,,,,,,,,,,,,
,,,,,,,,2023-08-16_08h37.53.466,HF_wild_card,2022.2.4,Win32,59.86948452,5aa836d6f053610001728189,64d2fd46c836a06233681665,64dc7c6922e0e5d178a08dc2,,,,,,,ctch,resources/DP.BMP,resources/DB.BMP,Door3,0.339364035,-0.00877193,1,0,0,1.1651,optionRight,70,11440,5,35,0,35,0,1,,,,,,,,,,,,,,,,,,,,,,,,,,,,,,,,,,,,,,,
,,,,,,,,2023-08-16_08h37.53.466,HF_wild_card,2022.2.4,Win32,59.86948452,5aa836d6f053610001728189,64d2fd46c836a06233681665,64dc7c6922e0e5d178a08dc2,,,,,,,decisionTrl,resources/DBN.BMP,resources/DB.BMP,Door4,-0.278508772,0.050438596,1,0,0,1.2192,optionLeft,80,11520,5,36,0,36,0,1,,,,,,,,,,,,,,,,,,,,,,,,,,,,,,,,,,,,,,,
,,,,,,,,2023-08-16_08h37.53.466,HF_wild_card,2022.2.4,Win32,59.86948452,5aa836d6f053610001728189,64d2fd46c836a06233681665,64dc7c6922e0e5d178a08dc2,,,,,,,decisionTrl,resources/DR.BMP,resources/DP.BMP,WildCard_NonEx,-0.280701754,0.006578947,1,0,0,1.616,optionLeft,45,11565,5,37,0,37,0,1,,,,,,,,,,,,,,,,,,,,,,,,,,,,,,,,,,,,,,,
,,,,,,,,2023-08-16_08h37.53.466,HF_wild_card,2022.2.4,Win32,59.86948452,5aa836d6f053610001728189,64d2fd46c836a06233681665,64dc7c6922e0e5d178a08dc2,,,,,,,decisionTrl,resources/DY.BMP,resources/DP.BMP,Door1,-0.265899123,-0.025767544,1,0,0,1.5883,optionLeft,30,11595,5,38,0,38,0,1,,,,,,,,,,,,,,,,,,,,,,,,,,,,,,,,,,,,,,,
,,,,,,,,2023-08-16_08h37.53.466,HF_wild_card,2022.2.4,Win32,59.86948452,5aa836d6f053610001728189,64d2fd46c836a06233681665,64dc7c6922e0e5d178a08dc2,,,,,,,sngl,resources/Empty.png,resources/DBN.BMP,Door4,0.375548246,-0.000548246,1,0,0,0.7648,optionRight,60,11655,5,39,0,39,0,1,,,,,,,,,,,,,,,,,,,,,,,,,,,,,,,,,,,,,,,
,,,,,,,,2023-08-16_08h37.53.466,HF_wild_card,2022.2.4,Win32,59.86948452,5aa836d6f053610001728189,64d2fd46c836a06233681665,64dc7c6922e0e5d178a08dc2,,,,,,,decisionTrl,resources/DY.BMP,resources/DP.BMP,Door1,-0.300438596,-0.04879386,1,0,0,3.1996,optionLeft,30,11685,5,40,0,40,0,1,,,,,,,,,,,,,,,,,,,,,,,,,,,,,,,,,,,,,,,
,,,,,,,,2023-08-16_08h37.53.466,HF_wild_card,2022.2.4,Win32,59.86948452,5aa836d6f053610001728189,64d2fd46c836a06233681665,64dc7c6922e0e5d178a08dc2,,,,,,,decisionTrl,resources/DB.BMP,resources/DBN.BMP,Door3,-0.362938596,-0.046600877,1,0,0,1.0269,optionLeft,70,11755,5,41,0,41,0,1,,,,,,,,,,,,,,,,,,,,,,,,,,,,,,,,,,,,,,,
,,,,,,,,2023-08-16_08h37.53.466,HF_wild_card,2022.2.4,Win32,59.86948452,5aa836d6f053610001728189,64d2fd46c836a06233681665,64dc7c6922e0e5d178a08dc2,,,,,,,decisionTrl,resources/DB.BMP,resources/DBN.BMP,Door4,0.332785088,-0.009868421,1,0,0,1.2317,optionRight,60,11815,5,42,0,42,0,1,,,,,,,,,,,,,,,,,,,,,,,,,,,,,,,,,,,,,,,
,,,,,,,,2023-08-16_08h37.53.466,HF_wild_card,2022.2.4,Win32,59.86948452,5aa836d6f053610001728189,64d2fd46c836a06233681665,64dc7c6922e0e5d178a08dc2,,,,,,,ctch,resources/DY.BMP,resources/DBN.BMP,Door4,0.226425439,0.011513158,1,0,0,0.8984,optionRight,60,11875,5,43,0,43,0,1,,,,,,,,,,,,,,,,,,,,,,,,,,,,,,,,,,,,,,,
,,,,,,,,2023-08-16_08h37.53.466,HF_wild_card,2022.2.4,Win32,59.86948452,5aa836d6f053610001728189,64d2fd46c836a06233681665,64dc7c6922e0e5d178a08dc2,,,,,,,,,,,,,,,,,,,,,,,,,,4,0,4,0,1,,,,,,,,,,,,,,,,,,,,,,,,,,,,,,,,,,
,,,,,,,,2023-08-16_08h37.53.466,HF_wild_card,2022.2.4,Win32,59.86948452,5aa836d6f053610001728189,64d2fd46c836a06233681665,64dc7c6922e0e5d178a08dc2,,,,,,,decisionTrl,resources/DB.BMP,resources/DBN.BMP,Door4,0.002741228,-0.277412281,1,0,0,0.12,optionRight,60,11935,6,0,0,0,0,1,,,,,,,,,,,,,,,,,,,,,,,,,,,,,,,,,,,,,,,
,,,,,,,,2023-08-16_08h37.53.466,HF_wild_card,2022.2.4,Win32,59.86948452,5aa836d6f053610001728189,64d2fd46c836a06233681665,64dc7c6922e0e5d178a08dc2,,,,,,,sngl,resources/Empty.png,resources/DY.BMP,Door1,0.304276316,-0.04002193,1,0,0,0.9375,optionRight,30,11965,6,1,0,1,0,1,,,,,,,,,,,,,,,,,,,,,,,,,,,,,,,,,,,,,,,
,,,,,,,,2023-08-16_08h37.53.466,HF_wild_card,2022.2.4,Win32,59.86948452,5aa836d6f053610001728189,64d2fd46c836a06233681665,64dc7c6922e0e5d178a08dc2,,,,,,,decisionTrl,resources/DB.BMP,resources/DR.BMP,Door3,-0.297697368,0.024122807,1,0,0,0.8647,optionLeft,70,12035,6,2,0,2,0,1,,,,,,,,,,,,,,,,,,,,,,,,,,,,,,,,,,,,,,,
,,,,,,,,2023-08-16_08h37.53.466,HF_wild_card,2022.2.4,Win32,59.86948452,5aa836d6f053610001728189,64d2fd46c836a06233681665,64dc7c6922e0e5d178a08dc2,,,,,,,decisionTrl,resources/DR.BMP,resources/DP.BMP,WildCard_NonEx,-0.342105263,-0.059758772,1,0,0,1.2007,optionLeft,55,12090,6,3,0,3,0,1,,,,,,,,,,,,,,,,,,,,,,,,,,,,,,,,,,,,,,,
,,,,,,,,2023-08-16_08h37.53.466,HF_wild_card,2022.2.4,Win32,59.86948452,5aa836d6f053610001728189,64d2fd46c836a06233681665,64dc7c6922e0e5d178a08dc2,,,,,,,decisionTrl,resources/DY.BMP,resources/DR.BMP,WildCard_NonEx,0.368421053,-0.042763158,1,0,0,0.808,optionRight,55,12145,6,4,0,4,0,1,,,,,,,,,,,,,,,,,,,,,,,,,,,,,,,,,,,,,,,
,,,,,,,,2023-08-16_08h37.53.466,HF_wild_card,2022.2.4,Win32,59.86948452,5aa836d6f053610001728189,64d2fd46c836a06233681665,64dc7c6922e0e5d178a08dc2,,,,,,,decisionTrl,resources/DP.BMP,resources/DY.BMP,Door2,-0.315241228,-0.041666667,1,0,0,1.7299,optionLeft,20,12165,6,5,0,5,0,1,,,,,,,,,,,,,,,,,,,,,,,,,,,,,,,,,,,,,,,
,,,,,,,,2023-08-16_08h37.53.466,HF_wild_card,2022.2.4,Win32,59.86948452,5aa836d6f053610001728189,64d2fd46c836a06233681665,64dc7c6922e0e5d178a08dc2,,,,,,,sngl,resources/DY.BMP,resources/Empty.png,Door1,-0.260964912,-0.029605263,1,0,0,1.0275,optionLeft,30,12195,6,6,0,6,0,1,,,,,,,,,,,,,,,,,,,,,,,,,,,,,,,,,,,,,,,
,,,,,,,,2023-08-16_08h37.53.466,HF_wild_card,2022.2.4,Win32,59.86948452,5aa836d6f053610001728189,64d2fd46c836a06233681665,64dc7c6922e0e5d178a08dc2,,,,,,,decisionTrl,resources/DY.BMP,resources/DP.BMP,Door1,-0.280701754,-0.051535088,1,0,0,1.3512,optionLeft,30,12225,6,7,0,7,0,1,,,,,,,,,,,,,,,,,,,,,,,,,,,,,,,,,,,,,,,
,,,,,,,,2023-08-16_08h37.53.466,HF_wild_card,2022.2.4,Win32,59.86948452,5aa836d6f053610001728189,64d2fd46c836a06233681665,64dc7c6922e0e5d178a08dc2,,,,,,,ctch,resources/DY.BMP,resources/DBN.BMP,Door4,0.299890351,-0.001096491,1,0,0,0.9111,optionRight,60,12285,6,8,0,8,0,1,,,,,,,,,,,,,,,,,,,,,,,,,,,,,,,,,,,,,,,
,,,,,,,,2023-08-16_08h37.53.466,HF_wild_card,2022.2.4,Win32,59.86948452,5aa836d6f053610001728189,64d2fd46c836a06233681665,64dc7c6922e0e5d178a08dc2,,,,,,,decisionTrl,resources/DBN.BMP,resources/DB.BMP,Door4,-0.288377193,-0.021929825,1,0,0,0.9648,optionLeft,60,12345,6,9,0,9,0,1,,,,,,,,,,,,,,,,,,,,,,,,,,,,,,,,,,,,,,,
,,,,,,,,2023-08-16_08h37.53.466,HF_wild_card,2022.2.4,Win32,59.86948452,5aa836d6f053610001728189,64d2fd46c836a06233681665,64dc7c6922e0e5d178a08dc2,,,,,,,decisionTrl,resources/DBN.BMP,resources/DB.BMP,Door4,-0.436951754,-0.007127193,1,0,0,1.0105,optionLeft,80,12425,6,10,0,10,0,1,,,,,,,,,,,,,,,,,,,,,,,,,,,,,,,,,,,,,,,
,,,,,,,,2023-08-16_08h37.53.466,HF_wild_card,2022.2.4,Win32,59.86948452,5aa836d6f053610001728189,64d2fd46c836a06233681665,64dc7c6922e0e5d178a08dc2,,,,,,,sngl,resources/DB.BMP,resources/Empty.png,Door3,-0.286732456,0.014254386,1,0,0,0.8657,optionLeft,70,12495,6,11,0,11,0,1,,,,,,,,,,,,,,,,,,,,,,,,,,,,,,,,,,,,,,,
,,,,,,,,2023-08-16_08h37.53.466,HF_wild_card,2022.2.4,Win32,59.86948452,5aa836d6f053610001728189,64d2fd46c836a06233681665,64dc7c6922e0e5d178a08dc2,,,,,,,decisionTrl,resources/DR.BMP,resources/DBN.BMP,Door4,0.259320175,0.025219298,1,0,0,1.299,optionRight,60,12555,6,12,0,12,0,1,,,,,,,,,,,,,,,,,,,,,,,,,,,,,,,,,,,,,,,
,,,,,,,,2023-08-16_08h37.53.466,HF_wild_card,2022.2.4,Win32,59.86948452,5aa836d6f053610001728189,64d2fd46c836a06233681665,64dc7c6922e0e5d178a08dc2,,,,,,,decisionTrl,resources/DB.BMP,resources/DBN.BMP,Door4,0.339364035,0.015350877,1,0,0,1.5991,optionRight,60,12615,6,13,0,13,0,1,,,,,,,,,,,,,,,,,,,,,,,,,,,,,,,,,,,,,,,
,,,,,,,,2023-08-16_08h37.53.466,HF_wild_card,2022.2.4,Win32,59.86948452,5aa836d6f053610001728189,64d2fd46c836a06233681665,64dc7c6922e0e5d178a08dc2,,,,,,,decisionTrl,resources/DY.BMP,resources/DP.BMP,Door1,-0.256030702,-0.02247807,1,0,0,2.4288,optionLeft,30,12645,6,14,0,14,0,1,,,,,,,,,,,,,,,,,,,,,,,,,,,,,,,,,,,,,,,
,,,,,,,,2023-08-16_08h37.53.466,HF_wild_card,2022.2.4,Win32,59.86948452,5aa836d6f053610001728189,64d2fd46c836a06233681665,64dc7c6922e0e5d178a08dc2,,,,,,,decisionTrl,resources/DR.BMP,resources/DY.BMP,WildCard_NonEx,-0.288377193,0.004385965,1,0,0,1.0808,optionLeft,45,12690,6,15,0,15,0,1,,,,,,,,,,,,,,,,,,,,,,,,,,,,,,,,,,,,,,,
,,,,,,,,2023-08-16_08h37.53.466,HF_wild_card,2022.2.4,Win32,59.86948452,5aa836d6f053610001728189,64d2fd46c836a06233681665,64dc7c6922e0e5d178a08dc2,,,,,,,sngl,resources/Empty.png,resources/DBN.BMP,Door4,0.383223684,0.003289474,1,0,0,0.7352,optionRight,80,12770,6,16,0,16,0,1,,,,,,,,,,,,,,,,,,,,,,,,,,,,,,,,,,,,,,,
,,,,,,,,2023-08-16_08h37.53.466,HF_wild_card,2022.2.4,Win32,59.86948452,5aa836d6f053610001728189,64d2fd46c836a06233681665,64dc7c6922e0e5d178a08dc2,,,,,,,decisionTrl,resources/DBN.BMP,resources/DB.BMP,Door4,-0.325657895,0,1,0,0,0.8878,optionLeft,60,12830,6,17,0,17,0,1,,,,,,,,,,,,,,,,,,,,,,,,,,,,,,,,,,,,,,,
,,,,,,,,2023-08-16_08h37.53.466,HF_wild_card,2022.2.4,Win32,59.86948452,5aa836d6f053610001728189,64d2fd46c836a06233681665,64dc7c6922e0e5d178a08dc2,,,,,,,decisionTrl,resources/DBN.BMP,resources/DR.BMP,Door4,-0.324561404,0.032894737,1,0,0,1.1972,optionLeft,80,12910,6,18,0,18,0,1,,,,,,,,,,,,,,,,,,,,,,,,,,,,,,,,,,,,,,,
,,,,,,,,2023-08-16_08h37.53.466,HF_wild_card,2022.2.4,Win32,59.86948452,5aa836d6f053610001728189,64d2fd46c836a06233681665,64dc7c6922e0e5d178a08dc2,,,,,,,decisionTrl,resources/DP.BMP,resources/DY.BMP,Door1,0.493969298,0.057017544,1,0,0,3.0292,optionRight,30,12940,6,19,0,19,0,1,,,,,,,,,,,,,,,,,,,,,,,,,,,,,,,,,,,,,,,
,,,,,,,,2023-08-16_08h37.53.466,HF_wild_card,2022.2.4,Win32,59.86948452,5aa836d6f053610001728189,64d2fd46c836a06233681665,64dc7c6922e0e5d178a08dc2,,,,,,,decisionTrl,resources/DR.BMP,resources/DB.BMP,Door3,0.410635965,0.003837719,1,0,0,1.621,optionRight,70,13010,6,20,0,20,0,1,,,,,,,,,,,,,,,,,,,,,,,,,,,,,,,,,,,,,,,
,,,,,,,,2023-08-16_08h37.53.466,HF_wild_card,2022.2.4,Win32,59.86948452,5aa836d6f053610001728189,64d2fd46c836a06233681665,64dc7c6922e0e5d178a08dc2,,,,,,,ctch,resources/DP.BMP,resources/DB.BMP,Door3,0.258223684,0.008223684,1,0,0,0.988,optionRight,70,13080,6,21,0,21,0,1,,,,,,,,,,,,,,,,,,,,,,,,,,,,,,,,,,,,,,,
,,,,,,,,2023-08-16_08h37.53.466,HF_wild_card,2022.2.4,Win32,59.86948452,5aa836d6f053610001728189,64d2fd46c836a06233681665,64dc7c6922e0e5d178a08dc2,,,,,,,ctch,resources/DB.BMP,resources/DP.BMP,Door3,-0.34375,0.024122807,1,0,0,1.6996,optionLeft,70,13150,6,22,0,22,0,1,,,,,,,,,,,,,,,,,,,,,,,,,,,,,,,,,,,,,,,
,,,,,,,,2023-08-16_08h37.53.466,HF_wild_card,2022.2.4,Win32,59.86948452,5aa836d6f053610001728189,64d2fd46c836a06233681665,64dc7c6922e0e5d178a08dc2,,,,,,,ctch,resources/DB.BMP,resources/DP.BMP,Door3,-0.302083333,-0.003289474,1,0,0,1.0163,optionLeft,70,13220,6,23,0,23,0,1,,,,,,,,,,,,,,,,,,,,,,,,,,,,,,,,,,,,,,,
,,,,,,,,2023-08-16_08h37.53.466,HF_wild_card,2022.2.4,Win32,59.86948452,5aa836d6f053610001728189,64d2fd46c836a06233681665,64dc7c6922e0e5d178a08dc2,,,,,,,ctch,resources/DY.BMP,resources/DBN.BMP,Door4,0.281798246,-0.009868421,1,0,0,1.0103,optionRight,80,13300,6,24,0,24,0,1,,,,,,,,,,,,,,,,,,,,,,,,,,,,,,,,,,,,,,,
,,,,,,,,2023-08-16_08h37.53.466,HF_wild_card,2022.2.4,Win32,59.86948452,5aa836d6f053610001728189,64d2fd46c836a06233681665,64dc7c6922e0e5d178a08dc2,,,,,,,sngl,resources/Empty.png,resources/DP.BMP,Door2,0.380482456,-0.023026316,1,0,0,0.903,optionRight,40,13340,6,25,0,25,0,1,,,,,,,,,,,,,,,,,,,,,,,,,,,,,,,,,,,,,,,
,,,,,,,,2023-08-16_08h37.53.466,HF_wild_card,2022.2.4,Win32,59.86948452,5aa836d6f053610001728189,64d2fd46c836a06233681665,64dc7c6922e0e5d178a08dc2,,,,,,,decisionTrl,resources/DB.BMP,resources/DBN.BMP,Door4,0.259320175,-0.027412281,1,0,0,0.9646,optionRight,60,13400,6,26,0,26,0,1,,,,,,,,,,,,,,,,,,,,,,,,,,,,,,,,,,,,,,,
,,,,,,,,2023-08-16_08h37.53.466,HF_wild_card,2022.2.4,Win32,59.86948452,5aa836d6f053610001728189,64d2fd46c836a06233681665,64dc7c6922e0e5d178a08dc2,,,,,,,sngl,resources/Empty.png,resources/DB.BMP,Door3,0.390350877,0.00877193,1,0,0,0.7988,optionRight,70,13470,6,27,0,27,0,1,,,,,,,,,,,,,,,,,,,,,,,,,,,,,,,,,,,,,,,
,,,,,,,,2023-08-16_08h37.53.466,HF_wild_card,2022.2.4,Win32,59.86948452,5aa836d6f053610001728189,64d2fd46c836a06233681665,64dc7c6922e0e5d178a08dc2,,,,,,,decisionTrl,resources/DBN.BMP,resources/DB.BMP,Door3,0.304824561,-0.026864035,1,0,0,1.2992,optionRight,70,13540,6,28,0,28,0,1,,,,,,,,,,,,,,,,,,,,,,,,,,,,,,,,,,,,,,,
,,,,,,,,2023-08-16_08h37.53.466,HF_wild_card,2022.2.4,Win32,59.86948452,5aa836d6f053610001728189,64d2fd46c836a06233681665,64dc7c6922e0e5d178a08dc2,,,,,,,decisionTrl,resources/DP.BMP,resources/DY.BMP,Door1,0.311951754,-0.010964912,1,0,0,2.0998,optionRight,30,13570,6,29,0,29,0,1,,,,,,,,,,,,,,,,,,,,,,,,,,,,,,,,,,,,,,,
,,,,,,,,2023-08-16_08h37.53.466,HF_wild_card,2022.2.4,Win32,59.86948452,5aa836d6f053610001728189,64d2fd46c836a06233681665,64dc7c6922e0e5d178a08dc2,,,,,,,sngl,resources/Empty.png,resources/DR.BMP,WildCard_NonEx,0.360197368,-0.000548246,1,0,0,0.7654,optionRight,55,13625,6,30,0,30,0,1,,,,,,,,,,,,,,,,,,,,,,,,,,,,,,,,,,,,,,,
,,,,,,,,2023-08-16_08h37.53.466,HF_wild_card,2022.2.4,Win32,59.86948452,5aa836d6f053610001728189,64d2fd46c836a06233681665,64dc7c6922e0e5d178a08dc2,,,,,,,decisionTrl,resources/DB.BMP,resources/DBN.BMP,Door3,-0.337171053,-0.006030702,1,0,0,1.4544,optionLeft,70,13695,6,31,0,31,0,1,,,,,,,,,,,,,,,,,,,,,,,,,,,,,,,,,,,,,,,
,,,,,,,,2023-08-16_08h37.53.466,HF_wild_card,2022.2.4,Win32,59.86948452,5aa836d6f053610001728189,64d2fd46c836a06233681665,64dc7c6922e0e5d178a08dc2,,,,,,,decisionTrl,resources/DY.BMP,resources/DP.BMP,Door2,0.311951754,-0.015350877,1,0,0,1.4923,optionRight,40,13735,6,32,0,32,0,1,,,,,,,,,,,,,,,,,,,,,,,,,,,,,,,,,,,,,,,
,,,,,,,,2023-08-16_08h37.53.466,HF_wild_card,2022.2.4,Win32,59.86948452,5aa836d6f053610001728189,64d2fd46c836a06233681665,64dc7c6922e0e5d178a08dc2,,,,,,,decisionTrl,resources/DP.BMP,resources/DY.BMP,Door2,-0.351425439,0.007127193,1,0,0,0.9164,optionLeft,20,13755,6,33,0,33,0,1,,,,,,,,,,,,,,,,,,,,,,,,,,,,,,,,,,,,,,,
,,,,,,,,2023-08-16_08h37.53.466,HF_wild_card,2022.2.4,Win32,59.86948452,5aa836d6f053610001728189,64d2fd46c836a06233681665,64dc7c6922e0e5d178a08dc2,,,,,,,ctch,resources/DBN.BMP,resources/DY.BMP,Door4,-0.283442982,-0.013157895,1,0,0,1.0484,optionLeft,60,13815,6,34,0,34,0,1,,,,,,,,,,,,,,,,,,,,,,,,,,,,,,,,,,,,,,,
,,,,,,,,2023-08-16_08h37.53.466,HF_wild_card,2022.2.4,Win32,59.86948452,5aa836d6f053610001728189,64d2fd46c836a06233681665,64dc7c6922e0e5d178a08dc2,,,,,,,sngl,resources/DBN.BMP,resources/Empty.png,Door4,-0.296052632,0.041666667,1,0,0,0.8146,optionLeft,60,13875,6,35,0,35,0,1,,,,,,,,,,,,,,,,,,,,,,,,,,,,,,,,,,,,,,,
,,,,,,,,2023-08-16_08h37.53.466,HF_wild_card,2022.2.4,Win32,59.86948452,5aa836d6f053610001728189,64d2fd46c836a06233681665,64dc7c6922e0e5d178a08dc2,,,,,,,sngl,resources/DR.BMP,resources/Empty.png,WildCard_NonEx,-0.349232456,0.066885965,1,0,0,0.7649,optionLeft,55,13930,6,36,0,36,0,1,,,,,,,,,,,,,,,,,,,,,,,,,,,,,,,,,,,,,,,
,,,,,,,,2023-08-16_08h37.53.466,HF_wild_card,2022.2.4,Win32,59.86948452,5aa836d6f053610001728189,64d2fd46c836a06233681665,64dc7c6922e0e5d178a08dc2,,,,,,,decisionTrl,resources/DP.BMP,resources/DR.BMP,WildCard_NonEx,0.40625,0.003289474,1,0,0,1.1662,optionRight,45,13975,6,37,0,37,0,1,,,,,,,,,,,,,,,,,,,,,,,,,,,,,,,,,,,,,,,
,,,,,,,,2023-08-16_08h37.53.466,HF_wild_card,2022.2.4,Win32,59.86948452,5aa836d6f053610001728189,64d2fd46c836a06233681665,64dc7c6922e0e5d178a08dc2,,,,,,,ctch,resources/DBN.BMP,resources/DY.BMP,Door4,-0.311951754,0.043859649,1,0,0,0.9809,optionLeft,80,14055,6,38,0,38,0,1,,,,,,,,,,,,,,,,,,,,,,,,,,,,,,,,,,,,,,,
,,,,,,,,2023-08-16_08h37.53.466,HF_wild_card,2022.2.4,Win32,59.86948452,5aa836d6f053610001728189,64d2fd46c836a06233681665,64dc7c6922e0e5d178a08dc2,,,,,,,sngl,resources/Empty.png,resources/DR.BMP,WildCard_NonEx,0.389254386,0.02247807,1,0,0,0.7728,optionRight,45,14100,6,39,0,39,0,1,,,,,,,,,,,,,,,,,,,,,,,,,,,,,,,,,,,,,,,
,,,,,,,,2023-08-16_08h37.53.466,HF_wild_card,2022.2.4,Win32,59.86948452,5aa836d6f053610001728189,64d2fd46c836a06233681665,64dc7c6922e0e5d178a08dc2,,,,,,,ctch,resources/DP.BMP,resources/DB.BMP,Door3,0.256030702,0.033442982,1,0,0,1.0487,optionRight,70,14170,6,40,0,40,0,1,,,,,,,,,,,,,,,,,,,,,,,,,,,,,,,,,,,,,,,
,,,,,,,,2023-08-16_08h37.53.466,HF_wild_card,2022.2.4,Win32,59.86948452,5aa836d6f053610001728189,64d2fd46c836a06233681665,64dc7c6922e0e5d178a08dc2,,,,,,,sngl,resources/DR.BMP,resources/Empty.png,WildCard_NonEx,-0.376644737,0.042763158,1,0,0,0.7933,optionLeft,45,14215,6,41,0,41,0,1,,,,,,,,,,,,,,,,,,,,,,,,,,,,,,,,,,,,,,,
,,,,,,,,2023-08-16_08h37.53.466,HF_wild_card,2022.2.4,Win32,59.86948452,5aa836d6f053610001728189,64d2fd46c836a06233681665,64dc7c6922e0e5d178a08dc2,,,,,,,sngl,resources/DP.BMP,resources/Empty.png,Door2,-0.266447368,-0.003837719,1,0,0,1.6842,optionLeft,20,14235,6,42,0,42,0,1,,,,,,,,,,,,,,,,,,,,,,,,,,,,,,,,,,,,,,,
,,,,,,,,2023-08-16_08h37.53.466,HF_wild_card,2022.2.4,Win32,59.86948452,5aa836d6f053610001728189,64d2fd46c836a06233681665,64dc7c6922e0e5d178a08dc2,,,,,,,decisionTrl,resources/DY.BMP,resources/DP.BMP,Door2,0.333881579,-0.010964912,1,0,0,0.9981,optionRight,20,14255,6,43,0,43,0,1,,,,,,,,,,,,,,,,,,,,,,,,,,,,,,,,,,,,,,,
,,,,,,,,2023-08-16_08h37.53.466,HF_wild_card,2022.2.4,Win32,59.86948452,5aa836d6f053610001728189,64d2fd46c836a06233681665,64dc7c6922e0e5d178a08dc2,,,,,,,,,,,,,,,,,,,,,,,,,,5,0,5,0,1,,,,,,,,,,,,,,,,,,,,,,,,,,,,,,,,,,
,,,,,,,,2023-08-16_08h37.53.466,HF_wild_card,2022.2.4,Win32,59.86948452,5aa836d6f053610001728189,64d2fd46c836a06233681665,64dc7c6922e0e5d178a08dc2,,,,,,,ctch,resources/DY.BMP,resources/DBN.BMP,Door4,0.299890351,-0.037280702,1,0,0,0.7341,optionRight,60,14315,7,0,0,0,0,1,,,,,,,,,,,,,,,,,,,,,,,,,,,,,,,,,,,,,,,
,,,,,,,,2023-08-16_08h37.53.466,HF_wild_card,2022.2.4,Win32,59.86948452,5aa836d6f053610001728189,64d2fd46c836a06233681665,64dc7c6922e0e5d178a08dc2,,,,,,,ctch,resources/DB.BMP,resources/DP.BMP,Door3,-0.373903509,-0.006030702,1,0,0,1.1381,optionLeft,70,14385,7,1,0,1,0,1,,,,,,,,,,,,,,,,,,,,,,,,,,,,,,,,,,,,,,,
,,,,,,,,2023-08-16_08h37.53.466,HF_wild_card,2022.2.4,Win32,59.86948452,5aa836d6f053610001728189,64d2fd46c836a06233681665,64dc7c6922e0e5d178a08dc2,,,,,,,decisionTrl,resources/DBN.BMP,resources/DB.BMP,Door3,0.347587719,-0.025219298,1,0,0,2.3295,optionRight,70,14455,7,2,0,2,0,1,,,,,,,,,,,,,,,,,,,,,,,,,,,,,,,,,,,,,,,
,,,,,,,,2023-08-16_08h37.53.466,HF_wild_card,2022.2.4,Win32,59.86948452,5aa836d6f053610001728189,64d2fd46c836a06233681665,64dc7c6922e0e5d178a08dc2,,,,,,,ctch,resources/DB.BMP,resources/DP.BMP,Door3,-0.457785088,0.009320175,1,0,0,1.0334,optionLeft,70,14525,7,3,0,3,0,1,,,,,,,,,,,,,,,,,,,,,,,,,,,,,,,,,,,,,,,
,,,,,,,,2023-08-16_08h37.53.466,HF_wild_card,2022.2.4,Win32,59.86948452,5aa836d6f053610001728189,64d2fd46c836a06233681665,64dc7c6922e0e5d178a08dc2,,,,,,,decisionTrl,resources/DBN.BMP,resources/DB.BMP,Door4,-0.378289474,0.097587719,1,0,0,1.1951,optionLeft,60,14585,7,4,0,4,0,1,,,,,,,,,,,,,,,,,,,,,,,,,,,,,,,,,,,,,,,
,,,,,,,,2023-08-16_08h37.53.466,HF_wild_card,2022.2.4,Win32,59.86948452,5aa836d6f053610001728189,64d2fd46c836a06233681665,64dc7c6922e0e5d178a08dc2,,,,,,,decisionTrl,resources/DB.BMP,resources/DBN.BMP,Door4,-0.00877193,-0.010416667,1,0,0,1.7511,optionRight,60,14645,7,5,0,5,0,1,,,,,,,,,,,,,,,,,,,,,,,,,,,,,,,,,,,,,,,
,,,,,,,,2023-08-16_08h37.53.466,HF_wild_card,2022.2.4,Win32,59.86948452,5aa836d6f053610001728189,64d2fd46c836a06233681665,64dc7c6922e0e5d178a08dc2,,,,,,,decisionTrl,resources/DBN.BMP,resources/DB.BMP,Door4,-0.315789474,0.019188596,1,0,0,2.3295,optionLeft,60,14705,7,6,0,6,0,1,,,,,,,,,,,,,,,,,,,,,,,,,,,,,,,,,,,,,,,
,,,,,,,,2023-08-16_08h37.53.466,HF_wild_card,2022.2.4,Win32,59.86948452,5aa836d6f053610001728189,64d2fd46c836a06233681665,64dc7c6922e0e5d178a08dc2,,,,,,,decisionTrl,resources/DP.BMP,resources/DY.BMP,Door1,0.351973684,-0.041118421,1,0,0,3.0514,optionRight,30,14735,7,7,0,7,0,1,,,,,,,,,,,,,,,,,,,,,,,,,,,,,,,,,,,,,,,
,,,,,,,,2023-08-16_08h37.53.466,HF_wild_card,2022.2.4,Win32,59.86948452,5aa836d6f053610001728189,64d2fd46c836a06233681665,64dc7c6922e0e5d178a08dc2,,,,,,,ctch,resources/DBN.BMP,resources/DY.BMP,Door4,-0.25877193,0.04879386,1,0,0,0.9171,optionLeft,80,14815,7,8,0,8,0,1,,,,,,,,,,,,,,,,,,,,,,,,,,,,,,,,,,,,,,,
,,,,,,,,2023-08-16_08h37.53.466,HF_wild_card,2022.2.4,Win32,59.86948452,5aa836d6f053610001728189,64d2fd46c836a06233681665,64dc7c6922e0e5d178a08dc2,,,,,,,ctch,resources/DB.BMP,resources/DP.BMP,Door3,-0.275767544,0.030153509,1,0,0,1.0168,optionLeft,70,14885,7,9,0,9,0,1,,,,,,,,,,,,,,,,,,,,,,,,,,,,,,,,,,,,,,,
,,,,,,,,2023-08-16_08h37.53.466,HF_wild_card,2022.2.4,Win32,59.86948452,5aa836d6f053610001728189,64d2fd46c836a06233681665,64dc7c6922e0e5d178a08dc2,,,,,,,decisionTrl,resources/DP.BMP,resources/DY.BMP,Door1,0.408991228,-0.019736842,1,0,0,2.9669,optionRight,30,14915,7,10,0,10,0,1,,,,,,,,,,,,,,,,,,,,,,,,,,,,,,,,,,,,,,,
,,,,,,,,2023-08-16_08h37.53.466,HF_wild_card,2022.2.4,Win32,59.86948452,5aa836d6f053610001728189,64d2fd46c836a06233681665,64dc7c6922e0e5d178a08dc2,,,,,,,decisionTrl,resources/DP.BMP,resources/DY.BMP,Door2,-0.293859649,0.038925439,1,0,0,1.1722,optionLeft,40,14955,7,11,0,11,0,1,,,,,,,,,,,,,,,,,,,,,,,,,,,,,,,,,,,,,,,
,,,,,,,,2023-08-16_08h37.53.466,HF_wild_card,2022.2.4,Win32,59.86948452,5aa836d6f053610001728189,64d2fd46c836a06233681665,64dc7c6922e0e5d178a08dc2,,,,,,,decisionTrl,resources/DP.BMP,resources/DY.BMP,Door1,0.269736842,-0.033991228,1,0,0,1.6715,optionRight,30,14985,7,12,0,12,0,1,,,,,,,,,,,,,,,,,,,,,,,,,,,,,,,,,,,,,,,
,,,,,,,,2023-08-16_08h37.53.466,HF_wild_card,2022.2.4,Win32,59.86948452,5aa836d6f053610001728189,64d2fd46c836a06233681665,64dc7c6922e0e5d178a08dc2,,,,,,,decisionTrl,resources/DB.BMP,resources/DBN.BMP,Door3,-0.414473684,0.018640351,1,0,0,1.3828,optionLeft,70,15055,7,13,0,13,0,1,,,,,,,,,,,,,,,,,,,,,,,,,,,,,,,,,,,,,,,
,,,,,,,,2023-08-16_08h37.53.466,HF_wild_card,2022.2.4,Win32,59.86948452,5aa836d6f053610001728189,64d2fd46c836a06233681665,64dc7c6922e0e5d178a08dc2,,,,,,,decisionTrl,resources/DB.BMP,resources/DBN.BMP,Door4,0.337719298,0.038377193,1,0,0,0.9325,optionRight,80,15135,7,14,0,14,0,1,,,,,,,,,,,,,,,,,,,,,,,,,,,,,,,,,,,,,,,
,,,,,,,,2023-08-16_08h37.53.466,HF_wild_card,2022.2.4,Win32,59.86948452,5aa836d6f053610001728189,64d2fd46c836a06233681665,64dc7c6922e0e5d178a08dc2,,,,,,,decisionTrl,resources/DY.BMP,resources/DP.BMP,Door1,-0.303179825,0.058114035,1,0,0,2.3675,optionLeft,30,15165,7,15,0,15,0,1,,,,,,,,,,,,,,,,,,,,,,,,,,,,,,,,,,,,,,,
,,,,,,,,2023-08-16_08h37.53.466,HF_wild_card,2022.2.4,Win32,59.86948452,5aa836d6f053610001728189,64d2fd46c836a06233681665,64dc7c6922e0e5d178a08dc2,,,,,,,decisionTrl,resources/DBN.BMP,resources/DB.BMP,Door4,-0.286732456,0.109100877,1,0,0,1.9462,optionLeft,80,15245,7,16,0,16,0,1,,,,,,,,,,,,,,,,,,,,,,,,,,,,,,,,,,,,,,,
,,,,,,,,2023-08-16_08h37.53.466,HF_wild_card,2022.2.4,Win32,59.86948452,5aa836d6f053610001728189,64d2fd46c836a06233681665,64dc7c6922e0e5d178a08dc2,,,,,,,decisionTrl,resources/DBN.BMP,resources/DB.BMP,Door3,0.30372807,0.010964912,1,0,0,0.9175,optionRight,70,15315,7,17,0,17,0,1,,,,,,,,,,,,,,,,,,,,,,,,,,,,,,,,,,,,,,,
,,,,,,,,2023-08-16_08h37.53.466,HF_wild_card,2022.2.4,Win32,59.86948452,5aa836d6f053610001728189,64d2fd46c836a06233681665,64dc7c6922e0e5d178a08dc2,,,,,,,decisionTrl,resources/DY.BMP,resources/DP.BMP,Door1,-0.324561404,0.023574561,1,0,0,2.5831,optionLeft,30,15345,7,18,0,18,0,1,,,,,,,,,,,,,,,,,,,,,,,,,,,,,,,,,,,,,,,
,,,,,,,,2023-08-16_08h37.53.466,HF_wild_card,2022.2.4,Win32,59.86948452,5aa836d6f053610001728189,64d2fd46c836a06233681665,64dc7c6922e0e5d178a08dc2,,,,,,,ctch,resources/DP.BMP,resources/DB.BMP,Door3,0.247258772,-0.002192982,1,0,0,1.1557,optionRight,70,15415,7,19,0,19,0,1,,,,,,,,,,,,,,,,,,,,,,,,,,,,,,,,,,,,,,,
,,,,,,,,2023-08-16_08h37.53.466,HF_wild_card,2022.2.4,Win32,59.86948452,5aa836d6f053610001728189,64d2fd46c836a06233681665,64dc7c6922e0e5d178a08dc2,,,,,,,decisionTrl,resources/DB.BMP,resources/DBN.BMP,Door4,0.412828947,0.029057018,1,0,0,1.2643,optionRight,80,15495,7,20,0,20,0,1,,,,,,,,,,,,,,,,,,,,,,,,,,,,,,,,,,,,,,,
,,,,,,,,2023-08-16_08h37.53.466,HF_wild_card,2022.2.4,Win32,59.86948452,5aa836d6f053610001728189,64d2fd46c836a06233681665,64dc7c6922e0e5d178a08dc2,,,,,,,ctch,resources/DBN.BMP,resources/DY.BMP,Door4,-0.300986842,0.011513158,1,0,0,1.533,optionLeft,80,15575,7,21,0,21,0,1,,,,,,,,,,,,,,,,,,,,,,,,,,,,,,,,,,,,,,,
,,,,,,,,2023-08-16_08h37.53.466,HF_wild_card,2022.2.4,Win32,59.86948452,5aa836d6f053610001728189,64d2fd46c836a06233681665,64dc7c6922e0e5d178a08dc2,,,,,,,decisionTrl,resources/DBN.BMP,resources/DB.BMP,Door4,-0.317434211,-0.012061404,1,0,0,1.0557,optionLeft,80,15655,7,22,0,22,0,1,,,,,,,,,,,,,,,,,,,,,,,,,,,,,,,,,,,,,,,
,,,,,,,,2023-08-16_08h37.53.466,HF_wild_card,2022.2.4,Win32,59.86948452,5aa836d6f053610001728189,64d2fd46c836a06233681665,64dc7c6922e0e5d178a08dc2,,,,,,,ctch,resources/DP.BMP,resources/DB.BMP,Door3,0.271381579,0.010964912,1,0,0,0.8495,optionRight,70,15725,7,23,0,23,0,1,,,,,,,,,,,,,,,,,,,,,,,,,,,,,,,,,,,,,,,
,,,,,,,,2023-08-16_08h37.53.466,HF_wild_card,2022.2.4,Win32,59.86948452,5aa836d6f053610001728189,64d2fd46c836a06233681665,64dc7c6922e0e5d178a08dc2,,,,,,,ctch,resources/DP.BMP,resources/DB.BMP,Door3,0.327302632,0.011513158,1,0,0,0.8158,optionRight,70,15795,7,24,0,24,0,1,,,,,,,,,,,,,,,,,,,,,,,,,,,,,,,,,,,,,,,
,,,,,,,,2023-08-16_08h37.53.466,HF_wild_card,2022.2.4,Win32,59.86948452,5aa836d6f053610001728189,64d2fd46c836a06233681665,64dc7c6922e0e5d178a08dc2,,,,,,,decisionTrl,resources/DY.BMP,resources/DP.BMP,Door2,0.322368421,-0.023574561,1,0,0,1.3986,optionRight,20,15815,7,25,0,25,0,1,,,,,,,,,,,,,,,,,,,,,,,,,,,,,,,,,,,,,,,
,,,,,,,,2023-08-16_08h37.53.466,HF_wild_card,2022.2.4,Win32,59.86948452,5aa836d6f053610001728189,64d2fd46c836a06233681665,64dc7c6922e0e5d178a08dc2,,,,,,,decisionTrl,resources/DP.BMP,resources/DY.BMP,Door1,0.387609649,-0.002741228,1,0,0,1.4333,optionRight,30,15845,7,26,0,26,0,1,,,,,,,,,,,,,,,,,,,,,,,,,,,,,,,,,,,,,,,
,,,,,,,,2023-08-16_08h37.53.466,HF_wild_card,2022.2.4,Win32,59.86948452,5aa836d6f053610001728189,64d2fd46c836a06233681665,64dc7c6922e0e5d178a08dc2,,,,,,,decisionTrl,resources/DY.BMP,resources/DP.BMP,Door2,0.287280702,-0.000548246,1,0,0,0.9833,optionRight,40,15885,7,27,0,27,0,1,,,,,,,,,,,,,,,,,,,,,,,,,,,,,,,,,,,,,,,
,,,,,,,,2023-08-16_08h37.53.466,HF_wild_card,2022.2.4,Win32,59.86948452,5aa836d6f053610001728189,64d2fd46c836a06233681665,64dc7c6922e0e5d178a08dc2,,,,,,,ctch,resources/DY.BMP,resources/DBN.BMP,Door4,0.289473684,0.018640351,1,0,0,1.0658,optionRight,80,15965,7,28,0,28,0,1,,,,,,,,,,,,,,,,,,,,,,,,,,,,,,,,,,,,,,,
,,,,,,,,2023-08-16_08h37.53.466,HF_wild_card,2022.2.4,Win32,59.86948452,5aa836d6f053610001728189,64d2fd46c836a06233681665,64dc7c6922e0e5d178a08dc2,,,,,,,decisionTrl,resources/DY.BMP,resources/DP.BMP,Door2,0.351425439,-0.019188596,1,0,0,1.3667,optionRight,20,15985,7,29,0,29,0,1,,,,,,,,,,,,,,,,,,,,,,,,,,,,,,,,,,,,,,,
,,,,,,,,2023-08-16_08h37.53.466,HF_wild_card,2022.2.4,Win32,59.86948452,5aa836d6f053610001728189,64d2fd46c836a06233681665,64dc7c6922e0e5d178a08dc2,,,,,,,ctch,resources/DY.BMP,resources/DBN.BMP,Door4,0.254385965,-0.000548246,1,0,0,0.8332,optionRight,60,16045,7,30,0,30,0,1,,,,,,,,,,,,,,,,,,,,,,,,,,,,,,,,,,,,,,,
,,,,,,,,2023-08-16_08h37.53.466,HF_wild_card,2022.2.4,Win32,59.86948452,5aa836d6f053610001728189,64d2fd46c836a06233681665,64dc7c6922e0e5d178a08dc2,,,,,,,decisionTrl,resources/DP.BMP,resources/DY.BMP,Door1,0.430921053,0.003289474,1,0,0,1.7264,optionRight,30,16075,7,31,0,31,0,1,,,,,,,,,,,,,,,,,,,,,,,,,,,,,,,,,,,,,,,
,,,,,,,,2023-08-16_08h37.53.466,HF_wild_card,2022.2.4,Win32,59.86948452,5aa836d6f053610001728189,64d2fd46c836a06233681665,64dc7c6922e0e5d178a08dc2,,,,,,,decisionTrl,resources/DB.BMP,resources/DBN.BMP,Door4,0.30372807,0.068530702,1,0,0,0.755,optionRight,60,16135,7,32,0,32,0,1,,,,,,,,,,,,,,,,,,,,,,,,,,,,,,,,,,,,,,,
,,,,,,,,2023-08-16_08h37.53.466,HF_wild_card,2022.2.4,Win32,59.86948452,5aa836d6f053610001728189,64d2fd46c836a06233681665,64dc7c6922e0e5d178a08dc2,,,,,,,decisionTrl,resources/DB.BMP,resources/DBN.BMP,Door3,-0.292763158,0.009868421,1,0,0,0.9726,optionLeft,70,16205,7,33,0,33,0,1,,,,,,,,,,,,,,,,,,,,,,,,,,,,,,,,,,,,,,,
,,,,,,,,2023-08-16_08h37.53.466,HF_wild_card,2022.2.4,Win32,59.86948452,5aa836d6f053610001728189,64d2fd46c836a06233681665,64dc7c6922e0e5d178a08dc2,,,,,,,ctch,resources/DBN.BMP,resources/DY.BMP,Door4,-0.333881579,0.032346491,1,0,0,0.815,optionLeft,60,16265,7,34,0,34,0,1,,,,,,,,,,,,,,,,,,,,,,,,,,,,,,,,,,,,,,,
,,,,,,,,2023-08-16_08h37.53.466,HF_wild_card,2022.2.4,Win32,59.86948452,5aa836d6f053610001728189,64d2fd46c836a06233681665,64dc7c6922e0e5d178a08dc2,,,,,,,decisionTrl,resources/DY.BMP,resources/DP.BMP,Door2,0.29002193,0.006578947,1,0,0,1.2831,optionRight,20,16285,7,35,0,35,0,1,,,,,,,,,,,,,,,,,,,,,,,,,,,,,,,,,,,,,,,
,,,,,,,,2023-08-16_08h37.53.466,HF_wild_card,2022.2.4,Win32,59.86948452,5aa836d6f053610001728189,64d2fd46c836a06233681665,64dc7c6922e0e5d178a08dc2,,,,,,,,,,,,,,,,,,,,,,,,,,6,0,6,0,1,,,,,,,,,,,,,,,,,,,,,,,,,,,,,,,,,,
,,,,,,,,2023-08-16_08h37.53.466,HF_wild_card,2022.2.4,Win32,59.86948452,5aa836d6f053610001728189,64d2fd46c836a06233681665,64dc7c6922e0e5d178a08dc2,,,,,,,,,,,,,,,,,,,,,,,,,,,,,,,4,,,,,,,,,,,,,,,,,,,,,,,,,,,,,,,,,
,,,,,,,,2023-08-16_08h37.53.466,HF_wild_card,2022.2.4,Win32,59.86948452,5aa836d6f053610001728189,64d2fd46c836a06233681665,64dc7c6922e0e5d178a08dc2,,,,,,,,,,,,,,,,,,,,,,,,,,,,,,,,,,,,,,,,,,,,,,,,,,,,,,,,,,,,,,,,
,,,,,,,,2023-08-16_08h37.53.466,HF_wild_card,2022.2.4,Win32,59.86948452,5aa836d6f053610001728189,64d2fd46c836a06233681665,64dc7c6922e0e5d178a08dc2,,,,,,,,,,,,,,,,,,,,,,,,,,,,,,,,40,Door2,resources/DP.BMP,0,0,0,0,1,,,,,,,,,,,,,,,,,,,,,,,,,
,,,,,,,,2023-08-16_08h37.53.466,HF_wild_card,2022.2.4,Win32,59.86948452,5aa836d6f053610001728189,64d2fd46c836a06233681665,64dc7c6922e0e5d178a08dc2,,,,,,,,,,,,,,,,,,,,,,,,,,,,,,,,2,WC_extreme,resources/DG.BMP,1,0,1,0,1,,,,,,,,,,,,,,,,,,,,,,,,,
,,,,,,,,2023-08-16_08h37.53.466,HF_wild_card,2022.2.4,Win32,59.86948452,5aa836d6f053610001728189,64d2fd46c836a06233681665,64dc7c6922e0e5d178a08dc2,,,,,,,,,,,,,,,,,,,,,,,,,,,,,,,,55,WC_nonExtreme,resources/DR.BMP,2,0,2,0,1,,,,,,,,,,,,,,,,,,,,,,,,,
,,,,,,,,2023-08-16_08h37.53.466,HF_wild_card,2022.2.4,Win32,59.86948452,5aa836d6f053610001728189,64d2fd46c836a06233681665,64dc7c6922e0e5d178a08dc2,,,,,,,,,,,,,,,,,,,,,,,,,,,,,,,,70,Door4,resources/DBN.BMP,3,0,3,0,1,,,,,,,,,,,,,,,,,,,,,,,,,
,,,,,,,,2023-08-16_08h37.53.466,HF_wild_card,2022.2.4,Win32,59.86948452,5aa836d6f053610001728189,64d2fd46c836a06233681665,64dc7c6922e0e5d178a08dc2,,,,,,,,,,,,,,,,,,,,,,,,,,,,,,,,30,Door1,resources/DY.BMP,4,0,4,0,1,,,,,,,,,,,,,,,,,,,,,,,,,
,,,,,,,,2023-08-16_08h37.53.466,HF_wild_card,2022.2.4,Win32,59.86948452,5aa836d6f053610001728189,64d2fd46c836a06233681665,64dc7c6922e0e5d178a08dc2,,,,,,,,,,,,,,,,,,,,,,,,,,,,,,,,80,Door3,resources/DB.BMP,5,0,5,0,1,,,,,,,,,,,,,,,,,,,,,,,,,
,,,,,,,,2023-08-16_08h37.53.466,HF_wild_card,2022.2.4,Win32,59.86948452,5aa836d6f053610001728189,64d2fd46c836a06233681665,64dc7c6922e0e5d178a08dc2,,,,,,,,,,,,,,,,,,,,,,,,,,,,,,,,,,,,,,,,,,,,,,,,,,,,,,,,,,,,,,,,
