Condition,Low fixed image (Door1),Low risky image (Door2),High fixed image (Door3),High risky image (Door4),Extreme Wild Card,NonExtreme Wild Card,,date,expName,psychopyVersion,OS,frameRate,PROLIFIC_PID,STUDY_ID,SESSION_ID,mouse_2.x,mouse_2.y,mouse_2.leftButton,mouse_2.midButton,mouse_2.rightButton,mouse_2.clicked_name,Trial Type,Left Option Image,Right Option Image,Chosen Door,mouse.x,mouse.y,mouse.leftButton,mouse.midButton,mouse.rightButton,mouse.time,mouse.clicked_name,Feedback,Cumulative Reward,Block,trial.thisRepN,trial.thisTrialN,trial.thisN,trial.thisIndex,trial.ran,blocks.thisRepN,blocks.thisTrialN,blocks.thisN,blocks.thisIndex,blocks.ran,Money conversion,First Outcome Reported,Shown Door (First Outcome),Displayed Image (First Outcome),outcomes.thisRepN,outcomes.thisTrialN,outcomes.thisN,outcomes.thisIndex,outcomes.ran,judgments.thisRepN,judgments.thisTrialN,judgments.thisN,judgments.thisIndex,judgments.ran,freqMouse.x,freqMouse.y,freqMouse.leftButton,freqMouse.midButton,freqMouse.rightButton,freqMouse.clicked_name,FQJ for first outcome,FQJ for second outcome,Shown Door,Displayed Image,trials.thisRepN,trials.thisTrialN,trials.thisN,trials.thisIndex,trials.ran,judgBlock.thisRepN,judgBlock.thisTrialN,judgBlock.thisN,judgBlock.thisIndex,judgBlock.ran
0,resources/DB.BMP,resources/DY.BMP,resources/DG.BMP,resources/DR.BMP,resources/DBN.BMP,resources/DP.BMP,,2023-08-16_08h40.42.031,HF_wild_card,2022.2.4,Win32,29.97332374,5e4d40e2d3132c1907e80312,64d2fd46c836a06233681665,64dc7afaa15d0c3400c86d00,,,,,,,,,,,,,,,,,,,,,,,,,,,,,,,,,,,,,,,,,,,,,,,,,,,,,,,,,,,,,,,,
,,,,,,,,2023-08-16_08h40.42.031,HF_wild_card,2022.2.4,Win32,29.97332374,5e4d40e2d3132c1907e80312,64d2fd46c836a06233681665,64dc7afaa15d0c3400c86d00,-0.021296254,-0.411111125,1,0,0,agree,,,,,,,,,,,,,,,,,,,,,,,,,,,,,,,,,,,,,,,,,,,,,,,,,,,,,,,,,,
,,,,,,,,2023-08-16_08h40.42.031,HF_wild_card,2022.2.4,Win32,29.97332374,5e4d40e2d3132c1907e80312,64d2fd46c836a06233681665,64dc7afaa15d0c3400c86d00,,,,,,,,,,,,,,,,,,,,,,,,,,,,,,,,,,,,,,,,,,,,,,,,,,,,,,,,,,,,,,,,
,,,,,,,,2023-08-16_08h40.42.031,HF_wild_card,2022.2.4,Win32,29.97332374,5e4d40e2d3132c1907e80312,64d2fd46c836a06233681665,64dc7afaa15d0c3400c86d00,,,,,,,decisionTrl,resources/DY.BMP,resources/DB.BMP,Door2,-0.272222236,-0.127777806,1,0,0,6.5944,optionLeft,20,20,1,0,0,0,0,1,,,,,,,,,,,,,,,,,,,,,,,,,,,,,,,,,,,,,,,
,,,,,,,,2023-08-16_08h40.42.031,HF_wild_card,2022.2.4,Win32,29.97332374,5e4d40e2d3132c1907e80312,64d2fd46c836a06233681665,64dc7afaa15d0c3400c86d00,,,,,,,sngl,resources/Empty.png,resources/DBN.BMP,WildCard_Ex,0.422222279,-0.086111104,1,0,0,2.9475,optionRight,95,115,1,1,0,1,0,1,,,,,,,,,,,,,,,,,,,,,,,,,,,,,,,,,,,,,,,
,,,,,,,,2023-08-16_08h40.42.031,HF_wild_card,2022.2.4,Win32,29.97332374,5e4d40e2d3132c1907e80312,64d2fd46c836a06233681665,64dc7afaa15d0c3400c86d00,,,,,,,sngl,resources/Empty.png,resources/DY.BMP,Door2,0.372222194,-0.056481503,1,0,0,2.1242,optionRight,20,135,1,2,0,2,0,1,,,,,,,,,,,,,,,,,,,,,,,,,,,,,,,,,,,,,,,
,,,,,,,,2023-08-16_08h40.42.031,HF_wild_card,2022.2.4,Win32,29.97332374,5e4d40e2d3132c1907e80312,64d2fd46c836a06233681665,64dc7afaa15d0c3400c86d00,,,,,,,decisionTrl,resources/DR.BMP,resources/DG.BMP,Door4,-0.276851866,0.00462963,1,0,0,3.2391,optionLeft,80,215,1,3,0,3,0,1,,,,,,,,,,,,,,,,,,,,,,,,,,,,,,,,,,,,,,,
,,,,,,,,2023-08-16_08h40.42.031,HF_wild_card,2022.2.4,Win32,29.97332374,5e4d40e2d3132c1907e80312,64d2fd46c836a06233681665,64dc7afaa15d0c3400c86d00,,,,,,,sngl,resources/DBN.BMP,resources/Empty.png,WildCard_Ex,-0.349999993,-0.003703718,1,0,0,1.8781,optionLeft,5,220,1,4,0,4,0,1,,,,,,,,,,,,,,,,,,,,,,,,,,,,,,,,,,,,,,,
,,,,,,,,2023-08-16_08h40.42.031,HF_wild_card,2022.2.4,Win32,29.97332374,5e4d40e2d3132c1907e80312,64d2fd46c836a06233681665,64dc7afaa15d0c3400c86d00,,,,,,,sngl,resources/Empty.png,resources/DBN.BMP,WildCard_Ex,0.325000057,-0.043518526,1,0,0,1.5821,optionRight,5,225,1,5,0,5,0,1,,,,,,,,,,,,,,,,,,,,,,,,,,,,,,,,,,,,,,,
,,,,,,,,2023-08-16_08h40.42.031,HF_wild_card,2022.2.4,Win32,29.97332374,5e4d40e2d3132c1907e80312,64d2fd46c836a06233681665,64dc7afaa15d0c3400c86d00,,,,,,,decisionTrl,resources/DG.BMP,resources/DR.BMP,Door3,-0.264814801,-0.010185206,1,0,0,6.0198,optionLeft,70,295,1,6,0,6,0,1,,,,,,,,,,,,,,,,,,,,,,,,,,,,,,,,,,,,,,,
,,,,,,,,2023-08-16_08h40.42.031,HF_wild_card,2022.2.4,Win32,29.97332374,5e4d40e2d3132c1907e80312,64d2fd46c836a06233681665,64dc7afaa15d0c3400c86d00,,,,,,,decisionTrl,resources/DG.BMP,resources/DR.BMP,Door4,0.20648151,-0.038888896,1,0,0,3.1263,optionRight,60,355,1,7,0,7,0,1,,,,,,,,,,,,,,,,,,,,,,,,,,,,,,,,,,,,,,,
,,,,,,,,2023-08-16_08h40.42.031,HF_wild_card,2022.2.4,Win32,29.97332374,5e4d40e2d3132c1907e80312,64d2fd46c836a06233681665,64dc7afaa15d0c3400c86d00,,,,,,,sngl,resources/DR.BMP,resources/Empty.png,Door4,-0.324999986,-0.002777771,1,0,0,1.064,optionLeft,80,435,1,8,0,8,0,1,,,,,,,,,,,,,,,,,,,,,,,,,,,,,,,,,,,,,,,
,,,,,,,,2023-08-16_08h40.42.031,HF_wild_card,2022.2.4,Win32,29.97332374,5e4d40e2d3132c1907e80312,64d2fd46c836a06233681665,64dc7afaa15d0c3400c86d00,,,,,,,ctch,resources/DY.BMP,resources/DG.BMP,Door3,0.313888974,-0.074074074,1,0,0,2.1088,optionRight,70,505,1,9,0,9,0,1,,,,,,,,,,,,,,,,,,,,,,,,,,,,,,,,,,,,,,,
,,,,,,,,2023-08-16_08h40.42.031,HF_wild_card,2022.2.4,Win32,29.97332374,5e4d40e2d3132c1907e80312,64d2fd46c836a06233681665,64dc7afaa15d0c3400c86d00,,,,,,,sngl,resources/Empty.png,resources/DR.BMP,Door4,0.348148205,0.008333312,1,0,0,2.1438,optionRight,60,565,1,10,0,10,0,1,,,,,,,,,,,,,,,,,,,,,,,,,,,,,,,,,,,,,,,
,,,,,,,,2023-08-16_08h40.42.031,HF_wild_card,2022.2.4,Win32,29.97332374,5e4d40e2d3132c1907e80312,64d2fd46c836a06233681665,64dc7afaa15d0c3400c86d00,,,,,,,decisionTrl,resources/DR.BMP,resources/DBN.BMP,WildCard_Ex,0.068518533,0.009259259,1,0,0,2.0235,optionRight,95,660,1,11,0,11,0,1,,,,,,,,,,,,,,,,,,,,,,,,,,,,,,,,,,,,,,,
,,,,,,,,2023-08-16_08h40.42.031,HF_wild_card,2022.2.4,Win32,29.97332374,5e4d40e2d3132c1907e80312,64d2fd46c836a06233681665,64dc7afaa15d0c3400c86d00,,,,,,,decisionTrl,resources/DY.BMP,resources/DB.BMP,Door1,0.303703732,0.002777771,1,0,0,2.2779,optionRight,30,690,1,12,0,12,0,1,,,,,,,,,,,,,,,,,,,,,,,,,,,,,,,,,,,,,,,
,,,,,,,,2023-08-16_08h40.42.031,HF_wild_card,2022.2.4,Win32,29.97332374,5e4d40e2d3132c1907e80312,64d2fd46c836a06233681665,64dc7afaa15d0c3400c86d00,,,,,,,decisionTrl,resources/DR.BMP,resources/DG.BMP,Door3,0.340740769,-0.00462963,1,0,0,5.5268,optionRight,70,760,1,13,0,13,0,1,,,,,,,,,,,,,,,,,,,,,,,,,,,,,,,,,,,,,,,
,,,,,,,,2023-08-16_08h40.42.031,HF_wild_card,2022.2.4,Win32,29.97332374,5e4d40e2d3132c1907e80312,64d2fd46c836a06233681665,64dc7afaa15d0c3400c86d00,,,,,,,sngl,resources/DB.BMP,resources/Empty.png,Door1,-0.304629608,0.000925912,1,0,0,1.6464,optionLeft,30,790,1,14,0,14,0,1,,,,,,,,,,,,,,,,,,,,,,,,,,,,,,,,,,,,,,,
,,,,,,,,2023-08-16_08h40.42.031,HF_wild_card,2022.2.4,Win32,29.97332374,5e4d40e2d3132c1907e80312,64d2fd46c836a06233681665,64dc7afaa15d0c3400c86d00,,,,,,,decisionTrl,resources/DB.BMP,resources/DY.BMP,Door1,-0.325925933,-0.001851859,1,0,0,2.3169,optionLeft,30,820,1,15,0,15,0,1,,,,,,,,,,,,,,,,,,,,,,,,,,,,,,,,,,,,,,,
,,,,,,,,2023-08-16_08h40.42.031,HF_wild_card,2022.2.4,Win32,29.97332374,5e4d40e2d3132c1907e80312,64d2fd46c836a06233681665,64dc7afaa15d0c3400c86d00,,,,,,,decisionTrl,resources/DR.BMP,resources/DG.BMP,Door3,0.289814843,-0.031481496,1,0,0,1.9309,optionRight,70,890,1,16,0,16,0,1,,,,,,,,,,,,,,,,,,,,,,,,,,,,,,,,,,,,,,,
,,,,,,,,2023-08-16_08h40.42.031,HF_wild_card,2022.2.4,Win32,29.97332374,5e4d40e2d3132c1907e80312,64d2fd46c836a06233681665,64dc7afaa15d0c3400c86d00,,,,,,,ctch,resources/DG.BMP,resources/DY.BMP,Door3,-0.307407414,0.015740748,1,0,0,3.1036,optionLeft,70,960,1,17,0,17,0,1,,,,,,,,,,,,,,,,,,,,,,,,,,,,,,,,,,,,,,,
,,,,,,,,2023-08-16_08h40.42.031,HF_wild_card,2022.2.4,Win32,29.97332374,5e4d40e2d3132c1907e80312,64d2fd46c836a06233681665,64dc7afaa15d0c3400c86d00,,,,,,,decisionTrl,resources/DB.BMP,resources/DY.BMP,Door1,-0.216666681,-0.000925947,1,0,0,1.9245,optionLeft,30,990,1,18,0,18,0,1,,,,,,,,,,,,,,,,,,,,,,,,,,,,,,,,,,,,,,,
,,,,,,,,2023-08-16_08h40.42.031,HF_wild_card,2022.2.4,Win32,29.97332374,5e4d40e2d3132c1907e80312,64d2fd46c836a06233681665,64dc7afaa15d0c3400c86d00,,,,,,,decisionTrl,resources/DBN.BMP,resources/DB.BMP,WildCard_Ex,-0.288888861,0.035185178,1,0,0,1.2114,optionLeft,5,995,1,19,0,19,0,1,,,,,,,,,,,,,,,,,,,,,,,,,,,,,,,,,,,,,,,
,,,,,,,,2023-08-16_08h40.42.031,HF_wild_card,2022.2.4,Win32,29.97332374,5e4d40e2d3132c1907e80312,64d2fd46c836a06233681665,64dc7afaa15d0c3400c86d00,,,,,,,decisionTrl,resources/DBN.BMP,resources/DR.BMP,Door4,0.198148162,-0.067592586,1,0,0,2.0003,optionRight,60,1055,1,20,0,20,0,1,,,,,,,,,,,,,,,,,,,,,,,,,,,,,,,,,,,,,,,
,,,,,,,,2023-08-16_08h40.42.031,HF_wild_card,2022.2.4,Win32,29.97332374,5e4d40e2d3132c1907e80312,64d2fd46c836a06233681665,64dc7afaa15d0c3400c86d00,,,,,,,decisionTrl,resources/DB.BMP,resources/DY.BMP,Door2,0.146296325,-0.062962956,1,0,0,2.3977,optionRight,20,1075,1,21,0,21,0,1,,,,,,,,,,,,,,,,,,,,,,,,,,,,,,,,,,,,,,,
,,,,,,,,2023-08-16_08h40.42.031,HF_wild_card,2022.2.4,Win32,29.97332374,5e4d40e2d3132c1907e80312,64d2fd46c836a06233681665,64dc7afaa15d0c3400c86d00,,,,,,,sngl,resources/Empty.png,resources/DB.BMP,Door1,0.397222307,-0.070370392,1,0,0,1.4268,optionRight,30,1105,1,22,0,22,0,1,,,,,,,,,,,,,,,,,,,,,,,,,,,,,,,,,,,,,,,
,,,,,,,,2023-08-16_08h40.42.031,HF_wild_card,2022.2.4,Win32,29.97332374,5e4d40e2d3132c1907e80312,64d2fd46c836a06233681665,64dc7afaa15d0c3400c86d00,,,,,,,sngl,resources/DG.BMP,resources/Empty.png,Door3,-0.17314812,0.00462963,1,0,0,1.2924,optionLeft,70,1175,1,23,0,23,0,1,,,,,,,,,,,,,,,,,,,,,,,,,,,,,,,,,,,,,,,
,,,,,,,,2023-08-16_08h40.42.031,HF_wild_card,2022.2.4,Win32,29.97332374,5e4d40e2d3132c1907e80312,64d2fd46c836a06233681665,64dc7afaa15d0c3400c86d00,,,,,,,decisionTrl,resources/DY.BMP,resources/DB.BMP,Door2,-0.185185185,0.001851859,1,0,0,1.9091,optionLeft,40,1215,1,24,0,24,0,1,,,,,,,,,,,,,,,,,,,,,,,,,,,,,,,,,,,,,,,
,,,,,,,,2023-08-16_08h40.42.031,HF_wild_card,2022.2.4,Win32,29.97332374,5e4d40e2d3132c1907e80312,64d2fd46c836a06233681665,64dc7afaa15d0c3400c86d00,,,,,,,ctch,resources/DB.BMP,resources/DR.BMP,Door4,0.321296268,-0.049074067,1,0,0,3.7493,optionRight,80,1295,1,25,0,25,0,1,,,,,,,,,,,,,,,,,,,,,,,,,,,,,,,,,,,,,,,
,,,,,,,,2023-08-16_08h40.42.031,HF_wild_card,2022.2.4,Win32,29.97332374,5e4d40e2d3132c1907e80312,64d2fd46c836a06233681665,64dc7afaa15d0c3400c86d00,,,,,,,decisionTrl,resources/DBN.BMP,resources/DG.BMP,Door3,0.252777806,-0.014814836,1,0,0,5.3706,optionRight,70,1365,1,26,0,26,0,1,,,,,,,,,,,,,,,,,,,,,,,,,,,,,,,,,,,,,,,
,,,,,,,,2023-08-16_08h40.42.031,HF_wild_card,2022.2.4,Win32,29.97332374,5e4d40e2d3132c1907e80312,64d2fd46c836a06233681665,64dc7afaa15d0c3400c86d00,,,,,,,decisionTrl,resources/DG.BMP,resources/DBN.BMP,Door3,-0.163888861,0.006481489,1,0,0,1.8793,optionLeft,70,1435,1,27,0,27,0,1,,,,,,,,,,,,,,,,,,,,,,,,,,,,,,,,,,,,,,,
,,,,,,,,2023-08-16_08h40.42.031,HF_wild_card,2022.2.4,Win32,29.97332374,5e4d40e2d3132c1907e80312,64d2fd46c836a06233681665,64dc7afaa15d0c3400c86d00,,,,,,,ctch,resources/DY.BMP,resources/DG.BMP,Door3,0.255555541,-0.031481496,1,0,0,1.3853,optionRight,70,1505,1,28,0,28,0,1,,,,,,,,,,,,,,,,,,,,,,,,,,,,,,,,,,,,,,,
,,,,,,,,2023-08-16_08h40.42.031,HF_wild_card,2022.2.4,Win32,29.97332374,5e4d40e2d3132c1907e80312,64d2fd46c836a06233681665,64dc7afaa15d0c3400c86d00,,,,,,,ctch,resources/DR.BMP,resources/DB.BMP,Door4,-0.190740727,0.030555548,1,0,0,2.7449,optionLeft,60,1565,1,29,0,29,0,1,,,,,,,,,,,,,,,,,,,,,,,,,,,,,,,,,,,,,,,
,,,,,,,,2023-08-16_08h40.42.031,HF_wild_card,2022.2.4,Win32,29.97332374,5e4d40e2d3132c1907e80312,64d2fd46c836a06233681665,64dc7afaa15d0c3400c86d00,,,,,,,decisionTrl,resources/DB.BMP,resources/DBN.BMP,Door1,-0.182407379,0.0074074,1,0,0,3.4769,optionLeft,30,1595,1,30,0,30,0,1,,,,,,,,,,,,,,,,,,,,,,,,,,,,,,,,,,,,,,,
,,,,,,,,2023-08-16_08h40.42.031,HF_wild_card,2022.2.4,Win32,29.97332374,5e4d40e2d3132c1907e80312,64d2fd46c836a06233681665,64dc7afaa15d0c3400c86d00,,,,,,,sngl,resources/DY.BMP,resources/Empty.png,Door2,-0.207407422,0.0074074,1,0,0,0.8849,optionLeft,40,1635,1,31,0,31,0,1,,,,,,,,,,,,,,,,,,,,,,,,,,,,,,,,,,,,,,,
,,,,,,,,2023-08-16_08h40.42.031,HF_wild_card,2022.2.4,Win32,29.97332374,5e4d40e2d3132c1907e80312,64d2fd46c836a06233681665,64dc7afaa15d0c3400c86d00,,,,,,,decisionTrl,resources/DB.BMP,resources/DY.BMP,Door2,0.229629658,-0.037962984,1,0,0,2.5268,optionRight,40,1675,1,32,0,32,0,1,,,,,,,,,,,,,,,,,,,,,,,,,,,,,,,,,,,,,,,
,,,,,,,,2023-08-16_08h40.42.031,HF_wild_card,2022.2.4,Win32,29.97332374,5e4d40e2d3132c1907e80312,64d2fd46c836a06233681665,64dc7afaa15d0c3400c86d00,,,,,,,sngl,resources/Empty.png,resources/DG.BMP,Door3,0.113888917,-0.012962977,1,0,0,1.3555,optionRight,70,1745,1,33,0,33,0,1,,,,,,,,,,,,,,,,,,,,,,,,,,,,,,,,,,,,,,,
,,,,,,,,2023-08-16_08h40.42.031,HF_wild_card,2022.2.4,Win32,29.97332374,5e4d40e2d3132c1907e80312,64d2fd46c836a06233681665,64dc7afaa15d0c3400c86d00,,,,,,,sngl,resources/DBN.BMP,resources/Empty.png,WildCard_Ex,-0.240740741,0.009259259,1,0,0,1.6441,optionLeft,95,1840,1,34,0,34,0,1,,,,,,,,,,,,,,,,,,,,,,,,,,,,,,,,,,,,,,,
,,,,,,,,2023-08-16_08h40.42.031,HF_wild_card,2022.2.4,Win32,29.97332374,5e4d40e2d3132c1907e80312,64d2fd46c836a06233681665,64dc7afaa15d0c3400c86d00,,,,,,,decisionTrl,resources/DBN.BMP,resources/DY.BMP,WildCard_Ex,-0.186111097,0.006481489,1,0,0,0.8028,optionLeft,95,1935,1,35,0,35,0,1,,,,,,,,,,,,,,,,,,,,,,,,,,,,,,,,,,,,,,,
,,,,,,,,2023-08-16_08h40.42.031,HF_wild_card,2022.2.4,Win32,29.97332374,5e4d40e2d3132c1907e80312,64d2fd46c836a06233681665,64dc7afaa15d0c3400c86d00,,,,,,,ctch,resources/DG.BMP,resources/DY.BMP,Door3,-0.149999972,-0.020370377,1,0,0,4.9688,optionLeft,70,2005,1,36,0,36,0,1,,,,,,,,,,,,,,,,,,,,,,,,,,,,,,,,,,,,,,,
,,,,,,,,2023-08-16_08h40.42.031,HF_wild_card,2022.2.4,Win32,29.97332374,5e4d40e2d3132c1907e80312,64d2fd46c836a06233681665,64dc7afaa15d0c3400c86d00,,,,,,,decisionTrl,resources/DR.BMP,resources/DG.BMP,Door3,0.215740769,-0.029629637,1,0,0,1.0757,optionRight,70,2075,1,37,0,37,0,1,,,,,,,,,,,,,,,,,,,,,,,,,,,,,,,,,,,,,,,
,,,,,,,,2023-08-16_08h40.42.031,HF_wild_card,2022.2.4,Win32,29.97332374,5e4d40e2d3132c1907e80312,64d2fd46c836a06233681665,64dc7afaa15d0c3400c86d00,,,,,,,ctch,resources/DB.BMP,resources/DR.BMP,Door4,0.150000042,-0.028703725,1,0,0,6.2162,optionRight,60,2135,1,38,0,38,0,1,,,,,,,,,,,,,,,,,,,,,,,,,,,,,,,,,,,,,,,
,,,,,,,,2023-08-16_08h40.42.031,HF_wild_card,2022.2.4,Win32,29.97332374,5e4d40e2d3132c1907e80312,64d2fd46c836a06233681665,64dc7afaa15d0c3400c86d00,,,,,,,ctch,resources/DR.BMP,resources/DB.BMP,Door4,-0.14444443,-0.00462963,1,0,0,1.3435,optionLeft,60,2195,1,39,0,39,0,1,,,,,,,,,,,,,,,,,,,,,,,,,,,,,,,,,,,,,,,
,,,,,,,,2023-08-16_08h40.42.031,HF_wild_card,2022.2.4,Win32,29.97332374,5e4d40e2d3132c1907e80312,64d2fd46c836a06233681665,64dc7afaa15d0c3400c86d00,,,,,,,decisionTrl,resources/DG.BMP,resources/DR.BMP,Door4,0.154629672,-0.025925919,1,0,0,1.4553,optionRight,80,2275,1,40,0,40,0,1,,,,,,,,,,,,,,,,,,,,,,,,,,,,,,,,,,,,,,,
,,,,,,,,2023-08-16_08h40.42.031,HF_wild_card,2022.2.4,Win32,29.97332374,5e4d40e2d3132c1907e80312,64d2fd46c836a06233681665,64dc7afaa15d0c3400c86d00,,,,,,,decisionTrl,resources/DY.BMP,resources/DB.BMP,Door2,-0.150925884,-0.001851859,1,0,0,4.0114,optionLeft,20,2295,1,41,0,41,0,1,,,,,,,,,,,,,,,,,,,,,,,,,,,,,,,,,,,,,,,
,,,,,,,,2023-08-16_08h40.42.031,HF_wild_card,2022.2.4,Win32,29.97332374,5e4d40e2d3132c1907e80312,64d2fd46c836a06233681665,64dc7afaa15d0c3400c86d00,,,,,,,decisionTrl,resources/DY.BMP,resources/DBN.BMP,WildCard_Ex,0.169444473,-0.018518519,1,0,0,1.1676,optionRight,5,2300,1,42,0,42,0,1,,,,,,,,,,,,,,,,,,,,,,,,,,,,,,,,,,,,,,,
,,,,,,,,2023-08-16_08h40.42.031,HF_wild_card,2022.2.4,Win32,29.97332374,5e4d40e2d3132c1907e80312,64d2fd46c836a06233681665,64dc7afaa15d0c3400c86d00,,,,,,,decisionTrl,resources/DG.BMP,resources/DR.BMP,Door4,0.130555541,-0.010185206,1,0,0,2.5556,optionRight,80,2380,1,43,0,43,0,1,,,,,,,,,,,,,,,,,,,,,,,,,,,,,,,,,,,,,,,
,,,,,,,,2023-08-16_08h40.42.031,HF_wild_card,2022.2.4,Win32,29.97332374,5e4d40e2d3132c1907e80312,64d2fd46c836a06233681665,64dc7afaa15d0c3400c86d00,,,,,,,,,,,,,,,,,,,,,,,,,,0,0,0,0,1,,,,,,,,,,,,,,,,,,,,,,,,,,,,,,,,,,
,,,,,,,,2023-08-16_08h40.42.031,HF_wild_card,2022.2.4,Win32,29.97332374,5e4d40e2d3132c1907e80312,64d2fd46c836a06233681665,64dc7afaa15d0c3400c86d00,,,,,,,decisionTrl,resources/DG.BMP,resources/DR.BMP,Door4,0.189814815,0.012962942,1,0,0,5.0248,optionRight,60,2440,2,0,0,0,0,1,,,,,,,,,,,,,,,,,,,,,,,,,,,,,,,,,,,,,,,
,,,,,,,,2023-08-16_08h40.42.031,HF_wild_card,2022.2.4,Win32,29.97332374,5e4d40e2d3132c1907e80312,64d2fd46c836a06233681665,64dc7afaa15d0c3400c86d00,,,,,,,ctch,resources/DY.BMP,resources/DG.BMP,Door3,0.300000085,-0.028703725,1,0,0,2.4482,optionRight,70,2510,2,1,0,1,0,1,,,,,,,,,,,,,,,,,,,,,,,,,,,,,,,,,,,,,,,
,,,,,,,,2023-08-16_08h40.42.031,HF_wild_card,2022.2.4,Win32,29.97332374,5e4d40e2d3132c1907e80312,64d2fd46c836a06233681665,64dc7afaa15d0c3400c86d00,,,,,,,decisionTrl,resources/DBN.BMP,resources/DG.BMP,Door3,0.290740755,-0.031481496,1,0,0,0.9778,optionRight,70,2580,2,2,0,2,0,1,,,,,,,,,,,,,,,,,,,,,,,,,,,,,,,,,,,,,,,
,,,,,,,,2023-08-16_08h40.42.031,HF_wild_card,2022.2.4,Win32,29.97332374,5e4d40e2d3132c1907e80312,64d2fd46c836a06233681665,64dc7afaa15d0c3400c86d00,,,,,,,decisionTrl,resources/DB.BMP,resources/DBN.BMP,Door1,-0.212037051,-0.00462963,1,0,0,1.7323,optionLeft,30,2610,2,3,0,3,0,1,,,,,,,,,,,,,,,,,,,,,,,,,,,,,,,,,,,,,,,
,,,,,,,,2023-08-16_08h40.42.031,HF_wild_card,2022.2.4,Win32,29.97332374,5e4d40e2d3132c1907e80312,64d2fd46c836a06233681665,64dc7afaa15d0c3400c86d00,,,,,,,sngl,resources/Empty.png,resources/DR.BMP,Door4,0.227777764,-0.019444466,1,0,0,1.0361,optionRight,80,2690,2,4,0,4,0,1,,,,,,,,,,,,,,,,,,,,,,,,,,,,,,,,,,,,,,,
,,,,,,,,2023-08-16_08h40.42.031,HF_wild_card,2022.2.4,Win32,29.97332374,5e4d40e2d3132c1907e80312,64d2fd46c836a06233681665,64dc7afaa15d0c3400c86d00,,,,,,,ctch,resources/DY.BMP,resources/DG.BMP,Door3,0.256481524,-0.035185178,1,0,0,1.301,optionRight,70,2760,2,5,0,5,0,1,,,,,,,,,,,,,,,,,,,,,,,,,,,,,,,,,,,,,,,
,,,,,,,,2023-08-16_08h40.42.031,HF_wild_card,2022.2.4,Win32,29.97332374,5e4d40e2d3132c1907e80312,64d2fd46c836a06233681665,64dc7afaa15d0c3400c86d00,,,,,,,sngl,resources/DG.BMP,resources/Empty.png,Door3,-0.224999958,-0.010185206,1,0,0,0.8742,optionLeft,70,2830,2,6,0,6,0,1,,,,,,,,,,,,,,,,,,,,,,,,,,,,,,,,,,,,,,,
,,,,,,,,2023-08-16_08h40.42.031,HF_wild_card,2022.2.4,Win32,29.97332374,5e4d40e2d3132c1907e80312,64d2fd46c836a06233681665,64dc7afaa15d0c3400c86d00,,,,,,,decisionTrl,resources/DG.BMP,resources/DR.BMP,Door3,-0.212962963,-0.017592607,1,0,0,0.9568,optionLeft,70,2900,2,7,0,7,0,1,,,,,,,,,,,,,,,,,,,,,,,,,,,,,,,,,,,,,,,
,,,,,,,,2023-08-16_08h40.42.031,HF_wild_card,2022.2.4,Win32,29.97332374,5e4d40e2d3132c1907e80312,64d2fd46c836a06233681665,64dc7afaa15d0c3400c86d00,,,,,,,decisionTrl,resources/DY.BMP,resources/DB.BMP,Door1,0.134259259,-0.024074095,1,0,0,4.1323,optionRight,30,2930,2,8,0,8,0,1,,,,,,,,,,,,,,,,,,,,,,,,,,,,,,,,,,,,,,,
,,,,,,,,2023-08-16_08h40.42.031,HF_wild_card,2022.2.4,Win32,29.97332374,5e4d40e2d3132c1907e80312,64d2fd46c836a06233681665,64dc7afaa15d0c3400c86d00,,,,,,,decisionTrl,resources/DG.BMP,resources/DR.BMP,Door3,-0.136111083,0.009259259,1,0,0,1.228,optionLeft,70,3000,2,9,0,9,0,1,,,,,,,,,,,,,,,,,,,,,,,,,,,,,,,,,,,,,,,
,,,,,,,,2023-08-16_08h40.42.031,HF_wild_card,2022.2.4,Win32,29.97332374,5e4d40e2d3132c1907e80312,64d2fd46c836a06233681665,64dc7afaa15d0c3400c86d00,,,,,,,decisionTrl,resources/DR.BMP,resources/DG.BMP,Door3,0.300925926,-0.044444437,1,0,0,0.9104,optionRight,70,3070,2,10,0,10,0,1,,,,,,,,,,,,,,,,,,,,,,,,,,,,,,,,,,,,,,,
,,,,,,,,2023-08-16_08h40.42.031,HF_wild_card,2022.2.4,Win32,29.97332374,5e4d40e2d3132c1907e80312,64d2fd46c836a06233681665,64dc7afaa15d0c3400c86d00,,,,,,,decisionTrl,resources/DG.BMP,resources/DBN.BMP,Door3,-0.198148162,0.009259259,1,0,0,0.8564,optionLeft,70,3140,2,11,0,11,0,1,,,,,,,,,,,,,,,,,,,,,,,,,,,,,,,,,,,,,,,
,,,,,,,,2023-08-16_08h40.42.031,HF_wild_card,2022.2.4,Win32,29.97332374,5e4d40e2d3132c1907e80312,64d2fd46c836a06233681665,64dc7afaa15d0c3400c86d00,,,,,,,sngl,resources/Empty.png,resources/DBN.BMP,WildCard_Ex,0.194444444,-0.019444466,1,0,0,1.2058,optionRight,95,3235,2,12,0,12,0,1,,,,,,,,,,,,,,,,,,,,,,,,,,,,,,,,,,,,,,,
,,,,,,,,2023-08-16_08h40.42.031,HF_wild_card,2022.2.4,Win32,29.97332374,5e4d40e2d3132c1907e80312,64d2fd46c836a06233681665,64dc7afaa15d0c3400c86d00,,,,,,,decisionTrl,resources/DB.BMP,resources/DY.BMP,Door2,0.241666653,-0.015740748,1,0,0,1.9594,optionRight,20,3255,2,13,0,13,0,1,,,,,,,,,,,,,,,,,,,,,,,,,,,,,,,,,,,,,,,
,,,,,,,,2023-08-16_08h40.42.031,HF_wild_card,2022.2.4,Win32,29.97332374,5e4d40e2d3132c1907e80312,64d2fd46c836a06233681665,64dc7afaa15d0c3400c86d00,,,,,,,decisionTrl,resources/DB.BMP,resources/DY.BMP,Door1,-0.203703704,0.01666666,1,0,0,1.0839,optionLeft,30,3285,2,14,0,14,0,1,,,,,,,,,,,,,,,,,,,,,,,,,,,,,,,,,,,,,,,
,,,,,,,,2023-08-16_08h40.42.031,HF_wild_card,2022.2.4,Win32,29.97332374,5e4d40e2d3132c1907e80312,64d2fd46c836a06233681665,64dc7afaa15d0c3400c86d00,,,,,,,sngl,resources/Empty.png,resources/DY.BMP,Door2,0.178703732,-0.020370377,1,0,0,1.0706,optionRight,40,3325,2,15,0,15,0,1,,,,,,,,,,,,,,,,,,,,,,,,,,,,,,,,,,,,,,,
,,,,,,,,2023-08-16_08h40.42.031,HF_wild_card,2022.2.4,Win32,29.97332374,5e4d40e2d3132c1907e80312,64d2fd46c836a06233681665,64dc7afaa15d0c3400c86d00,,,,,,,decisionTrl,resources/DBN.BMP,resources/DY.BMP,WildCard_Ex,-0.147222236,0.001851859,1,0,0,0.9109,optionLeft,95,3420,2,16,0,16,0,1,,,,,,,,,,,,,,,,,,,,,,,,,,,,,,,,,,,,,,,
,,,,,,,,2023-08-16_08h40.42.031,HF_wild_card,2022.2.4,Win32,29.97332374,5e4d40e2d3132c1907e80312,64d2fd46c836a06233681665,64dc7afaa15d0c3400c86d00,,,,,,,decisionTrl,resources/DBN.BMP,resources/DR.BMP,WildCard_Ex,-0.139814801,0.0074074,1,0,0,0.7329,optionLeft,5,3425,2,17,0,17,0,1,,,,,,,,,,,,,,,,,,,,,,,,,,,,,,,,,,,,,,,
,,,,,,,,2023-08-16_08h40.42.031,HF_wild_card,2022.2.4,Win32,29.97332374,5e4d40e2d3132c1907e80312,64d2fd46c836a06233681665,64dc7afaa15d0c3400c86d00,,,,,,,decisionTrl,resources/DR.BMP,resources/DG.BMP,Door3,0.157407407,0.000925912,1,0,0,2.4627,optionRight,70,3495,2,18,0,18,0,1,,,,,,,,,,,,,,,,,,,,,,,,,,,,,,,,,,,,,,,
,,,,,,,,2023-08-16_08h40.42.031,HF_wild_card,2022.2.4,Win32,29.97332374,5e4d40e2d3132c1907e80312,64d2fd46c836a06233681665,64dc7afaa15d0c3400c86d00,,,,,,,decisionTrl,resources/DB.BMP,resources/DY.BMP,Door1,-0.15370369,0.008333312,1,0,0,1.6685,optionLeft,30,3525,2,19,0,19,0,1,,,,,,,,,,,,,,,,,,,,,,,,,,,,,,,,,,,,,,,
,,,,,,,,2023-08-16_08h40.42.031,HF_wild_card,2022.2.4,Win32,29.97332374,5e4d40e2d3132c1907e80312,64d2fd46c836a06233681665,64dc7afaa15d0c3400c86d00,,,,,,,sngl,resources/Empty.png,resources/DB.BMP,Door1,0.166666667,-0.00462963,1,0,0,0.8973,optionRight,30,3555,2,20,0,20,0,1,,,,,,,,,,,,,,,,,,,,,,,,,,,,,,,,,,,,,,,
,,,,,,,,2023-08-16_08h40.42.031,HF_wild_card,2022.2.4,Win32,29.97332374,5e4d40e2d3132c1907e80312,64d2fd46c836a06233681665,64dc7afaa15d0c3400c86d00,,,,,,,ctch,resources/DB.BMP,resources/DR.BMP,Door4,0.18240745,-0.010185206,1,0,0,1.0417,optionRight,60,3615,2,21,0,21,0,1,,,,,,,,,,,,,,,,,,,,,,,,,,,,,,,,,,,,,,,
,,,,,,,,2023-08-16_08h40.42.031,HF_wild_card,2022.2.4,Win32,29.97332374,5e4d40e2d3132c1907e80312,64d2fd46c836a06233681665,64dc7afaa15d0c3400c86d00,,,,,,,decisionTrl,resources/DY.BMP,resources/DB.BMP,Door2,-0.114814829,0,1,0,0,3.4575,optionLeft,20,3635,2,22,0,22,0,1,,,,,,,,,,,,,,,,,,,,,,,,,,,,,,,,,,,,,,,
,,,,,,,,2023-08-16_08h40.42.031,HF_wild_card,2022.2.4,Win32,29.97332374,5e4d40e2d3132c1907e80312,64d2fd46c836a06233681665,64dc7afaa15d0c3400c86d00,,,,,,,decisionTrl,resources/DR.BMP,resources/DG.BMP,Door3,0.164814843,-0.012962977,1,0,0,0.9865,optionRight,70,3705,2,23,0,23,0,1,,,,,,,,,,,,,,,,,,,,,,,,,,,,,,,,,,,,,,,
,,,,,,,,2023-08-16_08h40.42.031,HF_wild_card,2022.2.4,Win32,29.97332374,5e4d40e2d3132c1907e80312,64d2fd46c836a06233681665,64dc7afaa15d0c3400c86d00,,,,,,,ctch,resources/DG.BMP,resources/DY.BMP,Door3,-0.172222208,0.013888889,1,0,0,1.1367,optionLeft,70,3775,2,24,0,24,0,1,,,,,,,,,,,,,,,,,,,,,,,,,,,,,,,,,,,,,,,
,,,,,,,,2023-08-16_08h40.42.031,HF_wild_card,2022.2.4,Win32,29.97332374,5e4d40e2d3132c1907e80312,64d2fd46c836a06233681665,64dc7afaa15d0c3400c86d00,,,,,,,ctch,resources/DR.BMP,resources/DB.BMP,Door1,0.162037037,-0.018518519,1,0,0,2.7811,optionRight,30,3805,2,25,0,25,0,1,,,,,,,,,,,,,,,,,,,,,,,,,,,,,,,,,,,,,,,
,,,,,,,,2023-08-16_08h40.42.031,HF_wild_card,2022.2.4,Win32,29.97332374,5e4d40e2d3132c1907e80312,64d2fd46c836a06233681665,64dc7afaa15d0c3400c86d00,,,,,,,sngl,resources/DR.BMP,resources/Empty.png,Door4,-0.138888889,0.0074074,1,0,0,0.8268,optionLeft,60,3865,2,26,0,26,0,1,,,,,,,,,,,,,,,,,,,,,,,,,,,,,,,,,,,,,,,
,,,,,,,,2023-08-16_08h40.42.031,HF_wild_card,2022.2.4,Win32,29.97332374,5e4d40e2d3132c1907e80312,64d2fd46c836a06233681665,64dc7afaa15d0c3400c86d00,,,,,,,decisionTrl,resources/DB.BMP,resources/DY.BMP,Door1,-0.125,-0.000925947,1,0,0,5.1397,optionLeft,30,3895,2,27,0,27,0,1,,,,,,,,,,,,,,,,,,,,,,,,,,,,,,,,,,,,,,,
,,,,,,,,2023-08-16_08h40.42.031,HF_wild_card,2022.2.4,Win32,29.97332374,5e4d40e2d3132c1907e80312,64d2fd46c836a06233681665,64dc7afaa15d0c3400c86d00,,,,,,,ctch,resources/DG.BMP,resources/DY.BMP,Door3,-0.142592607,0.0074074,1,0,0,0.9834,optionLeft,70,3965,2,28,0,28,0,1,,,,,,,,,,,,,,,,,,,,,,,,,,,,,,,,,,,,,,,
,,,,,,,,2023-08-16_08h40.42.031,HF_wild_card,2022.2.4,Win32,29.97332374,5e4d40e2d3132c1907e80312,64d2fd46c836a06233681665,64dc7afaa15d0c3400c86d00,,,,,,,decisionTrl,resources/DG.BMP,resources/DR.BMP,Door3,-0.142592607,0.01666666,1,0,0,1.4188,optionLeft,70,4035,2,29,0,29,0,1,,,,,,,,,,,,,,,,,,,,,,,,,,,,,,,,,,,,,,,
,,,,,,,,2023-08-16_08h40.42.031,HF_wild_card,2022.2.4,Win32,29.97332374,5e4d40e2d3132c1907e80312,64d2fd46c836a06233681665,64dc7afaa15d0c3400c86d00,,,,,,,ctch,resources/DR.BMP,resources/DB.BMP,Door4,-0.175000014,0.029629637,1,0,0,2.8284,optionLeft,80,4115,2,30,0,30,0,1,,,,,,,,,,,,,,,,,,,,,,,,,,,,,,,,,,,,,,,
,,,,,,,,2023-08-16_08h40.42.031,HF_wild_card,2022.2.4,Win32,29.97332374,5e4d40e2d3132c1907e80312,64d2fd46c836a06233681665,64dc7afaa15d0c3400c86d00,,,,,,,sngl,resources/Empty.png,resources/DG.BMP,Door3,0.157407407,-0.000925947,1,0,0,1.0611,optionRight,70,4185,2,31,0,31,0,1,,,,,,,,,,,,,,,,,,,,,,,,,,,,,,,,,,,,,,,
,,,,,,,,2023-08-16_08h40.42.031,HF_wild_card,2022.2.4,Win32,29.97332374,5e4d40e2d3132c1907e80312,64d2fd46c836a06233681665,64dc7afaa15d0c3400c86d00,,,,,,,decisionTrl,resources/DY.BMP,resources/DB.BMP,Door2,-0.138888889,0.023148148,1,0,0,4.3965,optionLeft,20,4205,2,32,0,32,0,1,,,,,,,,,,,,,,,,,,,,,,,,,,,,,,,,,,,,,,,
,,,,,,,,2023-08-16_08h40.42.031,HF_wild_card,2022.2.4,Win32,29.97332374,5e4d40e2d3132c1907e80312,64d2fd46c836a06233681665,64dc7afaa15d0c3400c86d00,,,,,,,decisionTrl,resources/DY.BMP,resources/DBN.BMP,WildCard_Ex,0.17777782,-0.025000007,1,0,0,1.0319,optionRight,5,4210,2,33,0,33,0,1,,,,,,,,,,,,,,,,,,,,,,,,,,,,,,,,,,,,,,,
,,,,,,,,2023-08-16_08h40.42.031,HF_wild_card,2022.2.4,Win32,29.97332374,5e4d40e2d3132c1907e80312,64d2fd46c836a06233681665,64dc7afaa15d0c3400c86d00,,,,,,,sngl,resources/DBN.BMP,resources/Empty.png,WildCard_Ex,-0.146296254,0.000925912,1,0,0,1.2112,optionLeft,5,4215,2,34,0,34,0,1,,,,,,,,,,,,,,,,,,,,,,,,,,,,,,,,,,,,,,,
,,,,,,,,2023-08-16_08h40.42.031,HF_wild_card,2022.2.4,Win32,29.97332374,5e4d40e2d3132c1907e80312,64d2fd46c836a06233681665,64dc7afaa15d0c3400c86d00,,,,,,,sngl,resources/DBN.BMP,resources/Empty.png,WildCard_Ex,-0.117592564,0.017592571,1,0,0,1.132,optionLeft,95,4310,2,35,0,35,0,1,,,,,,,,,,,,,,,,,,,,,,,,,,,,,,,,,,,,,,,
,,,,,,,,2023-08-16_08h40.42.031,HF_wild_card,2022.2.4,Win32,29.97332374,5e4d40e2d3132c1907e80312,64d2fd46c836a06233681665,64dc7afaa15d0c3400c86d00,,,,,,,decisionTrl,resources/DR.BMP,resources/DBN.BMP,WildCard_Ex,0.159259302,0.001851859,1,0,0,1.1598,optionRight,95,4405,2,36,0,36,0,1,,,,,,,,,,,,,,,,,,,,,,,,,,,,,,,,,,,,,,,
,,,,,,,,2023-08-16_08h40.42.031,HF_wild_card,2022.2.4,Win32,29.97332374,5e4d40e2d3132c1907e80312,64d2fd46c836a06233681665,64dc7afaa15d0c3400c86d00,,,,,,,sngl,resources/DY.BMP,resources/Empty.png,Door2,-0.183333291,0.01203703,1,0,0,1.1439,optionLeft,20,4425,2,37,0,37,0,1,,,,,,,,,,,,,,,,,,,,,,,,,,,,,,,,,,,,,,,
,,,,,,,,2023-08-16_08h40.42.031,HF_wild_card,2022.2.4,Win32,29.97332374,5e4d40e2d3132c1907e80312,64d2fd46c836a06233681665,64dc7afaa15d0c3400c86d00,,,,,,,sngl,resources/DB.BMP,resources/Empty.png,Door1,-0.187037009,0.005555541,1,0,0,0.8429,optionLeft,30,4455,2,38,0,38,0,1,,,,,,,,,,,,,,,,,,,,,,,,,,,,,,,,,,,,,,,
,,,,,,,,2023-08-16_08h40.42.031,HF_wild_card,2022.2.4,Win32,29.97332374,5e4d40e2d3132c1907e80312,64d2fd46c836a06233681665,64dc7afaa15d0c3400c86d00,,,,,,,ctch,resources/DB.BMP,resources/DR.BMP,Door4,0.14907406,-0.003703718,1,0,0,1.5767,optionRight,80,4535,2,39,0,39,0,1,,,,,,,,,,,,,,,,,,,,,,,,,,,,,,,,,,,,,,,
,,,,,,,,2023-08-16_08h40.42.031,HF_wild_card,2022.2.4,Win32,29.97332374,5e4d40e2d3132c1907e80312,64d2fd46c836a06233681665,64dc7afaa15d0c3400c86d00,,,,,,,decisionTrl,resources/DY.BMP,resources/DB.BMP,Door2,-0.17777775,0.017592571,1,0,0,2.6763,optionLeft,40,4575,2,40,0,40,0,1,,,,,,,,,,,,,,,,,,,,,,,,,,,,,,,,,,,,,,,
,,,,,,,,2023-08-16_08h40.42.031,HF_wild_card,2022.2.4,Win32,29.97332374,5e4d40e2d3132c1907e80312,64d2fd46c836a06233681665,64dc7afaa15d0c3400c86d00,,,,,,,decisionTrl,resources/DBN.BMP,resources/DB.BMP,WildCard_Ex,-0.187037009,0.025925919,1,0,0,1.4157,optionLeft,95,4670,2,41,0,41,0,1,,,,,,,,,,,,,,,,,,,,,,,,,,,,,,,,,,,,,,,
,,,,,,,,2023-08-16_08h40.42.031,HF_wild_card,2022.2.4,Win32,29.97332374,5e4d40e2d3132c1907e80312,64d2fd46c836a06233681665,64dc7afaa15d0c3400c86d00,,,,,,,sngl,resources/Empty.png,resources/DBN.BMP,WildCard_Ex,0.185185185,0,1,0,0,0.7869,optionRight,5,4675,2,42,0,42,0,1,,,,,,,,,,,,,,,,,,,,,,,,,,,,,,,,,,,,,,,
,,,,,,,,2023-08-16_08h40.42.031,HF_wild_card,2022.2.4,Win32,29.97332374,5e4d40e2d3132c1907e80312,64d2fd46c836a06233681665,64dc7afaa15d0c3400c86d00,,,,,,,decisionTrl,resources/DR.BMP,resources/DG.BMP,Door4,-0.164814772,0.01666666,1,0,0,2.0343,optionLeft,80,4755,2,43,0,43,0,1,,,,,,,,,,,,,,,,,,,,,,,,,,,,,,,,,,,,,,,
,,,,,,,,2023-08-16_08h40.42.031,HF_wild_card,2022.2.4,Win32,29.97332374,5e4d40e2d3132c1907e80312,64d2fd46c836a06233681665,64dc7afaa15d0c3400c86d00,,,,,,,,,,,,,,,,,,,,,,,,,,1,0,1,0,1,,,,,,,,,,,,,,,,,,,,,,,,,,,,,,,,,,
,,,,,,,,2023-08-16_08h40.42.031,HF_wild_card,2022.2.4,Win32,29.97332374,5e4d40e2d3132c1907e80312,64d2fd46c836a06233681665,64dc7afaa15d0c3400c86d00,,,,,,,decisionTrl,resources/DG.BMP,resources/DR.BMP,Door3,-0.195370356,-0.100000028,1,0,0,8.8135,optionLeft,70,4825,3,0,0,0,0,1,,,,,,,,,,,,,,,,,,,,,,,,,,,,,,,,,,,,,,,
,,,,,,,,2023-08-16_08h40.42.031,HF_wild_card,2022.2.4,Win32,29.97332374,5e4d40e2d3132c1907e80312,64d2fd46c836a06233681665,64dc7afaa15d0c3400c86d00,,,,,,,sngl,resources/Empty.png,resources/DY.BMP,Door2,0.284259302,0.00462963,1,0,0,0.9388,optionRight,20,4845,3,1,0,1,0,1,,,,,,,,,,,,,,,,,,,,,,,,,,,,,,,,,,,,,,,
,,,,,,,,2023-08-16_08h40.42.031,HF_wild_card,2022.2.4,Win32,29.97332374,5e4d40e2d3132c1907e80312,64d2fd46c836a06233681665,64dc7afaa15d0c3400c86d00,,,,,,,sngl,resources/DBN.BMP,resources/Empty.png,WildCard_Ex,-0.199999986,-0.015740748,1,0,0,1.1041,optionLeft,5,4850,3,2,0,2,0,1,,,,,,,,,,,,,,,,,,,,,,,,,,,,,,,,,,,,,,,
,,,,,,,,2023-08-16_08h40.42.031,HF_wild_card,2022.2.4,Win32,29.97332374,5e4d40e2d3132c1907e80312,64d2fd46c836a06233681665,64dc7afaa15d0c3400c86d00,,,,,,,sngl,resources/Empty.png,resources/DR.BMP,Door4,0.193518533,0,1,0,0,0.9021,optionRight,60,4910,3,3,0,3,0,1,,,,,,,,,,,,,,,,,,,,,,,,,,,,,,,,,,,,,,,
,,,,,,,,2023-08-16_08h40.42.031,HF_wild_card,2022.2.4,Win32,29.97332374,5e4d40e2d3132c1907e80312,64d2fd46c836a06233681665,64dc7afaa15d0c3400c86d00,,,,,,,decisionTrl,resources/DY.BMP,resources/DB.BMP,Door1,0.215740769,-0.003703718,1,0,0,3.227,optionRight,30,4940,3,4,0,4,0,1,,,,,,,,,,,,,,,,,,,,,,,,,,,,,,,,,,,,,,,
,,,,,,,,2023-08-16_08h40.42.031,HF_wild_card,2022.2.4,Win32,29.97332374,5e4d40e2d3132c1907e80312,64d2fd46c836a06233681665,64dc7afaa15d0c3400c86d00,,,,,,,decisionTrl,resources/DB.BMP,resources/DY.BMP,Door2,0.193518533,0,1,0,0,1.4457,optionRight,20,4960,3,5,0,5,0,1,,,,,,,,,,,,,,,,,,,,,,,,,,,,,,,,,,,,,,,
,,,,,,,,2023-08-16_08h40.42.031,HF_wild_card,2022.2.4,Win32,29.97332374,5e4d40e2d3132c1907e80312,64d2fd46c836a06233681665,64dc7afaa15d0c3400c86d00,,,,,,,ctch,resources/DR.BMP,resources/DB.BMP,Door4,-0.239814829,-0.005555577,1,0,0,1.3609,optionLeft,60,5020,3,6,0,6,0,1,,,,,,,,,,,,,,,,,,,,,,,,,,,,,,,,,,,,,,,
,,,,,,,,2023-08-16_08h40.42.031,HF_wild_card,2022.2.4,Win32,29.97332374,5e4d40e2d3132c1907e80312,64d2fd46c836a06233681665,64dc7afaa15d0c3400c86d00,,,,,,,decisionTrl,resources/DR.BMP,resources/DG.BMP,Door3,0.162037037,0.00462963,1,0,0,2.2415,optionRight,70,5090,3,7,0,7,0,1,,,,,,,,,,,,,,,,,,,,,,,,,,,,,,,,,,,,,,,
,,,,,,,,2023-08-16_08h40.42.031,HF_wild_card,2022.2.4,Win32,29.97332374,5e4d40e2d3132c1907e80312,64d2fd46c836a06233681665,64dc7afaa15d0c3400c86d00,,,,,,,ctch,resources/DY.BMP,resources/DG.BMP,Door3,0.175925926,-0.001851859,1,0,0,1.0524,optionRight,70,5160,3,8,0,8,0,1,,,,,,,,,,,,,,,,,,,,,,,,,,,,,,,,,,,,,,,
,,,,,,,,2023-08-16_08h40.42.031,HF_wild_card,2022.2.4,Win32,29.97332374,5e4d40e2d3132c1907e80312,64d2fd46c836a06233681665,64dc7afaa15d0c3400c86d00,,,,,,,sngl,resources/Empty.png,resources/DBN.BMP,WildCard_Ex,0.168518561,0.0074074,1,0,0,2.0998,optionRight,5,5165,3,9,0,9,0,1,,,,,,,,,,,,,,,,,,,,,,,,,,,,,,,,,,,,,,,
,,,,,,,,2023-08-16_08h40.42.031,HF_wild_card,2022.2.4,Win32,29.97332374,5e4d40e2d3132c1907e80312,64d2fd46c836a06233681665,64dc7afaa15d0c3400c86d00,,,,,,,decisionTrl,resources/DB.BMP,resources/DY.BMP,Door1,-0.143518519,-0.012962977,1,0,0,3.4044,optionLeft,30,5195,3,10,0,10,0,1,,,,,,,,,,,,,,,,,,,,,,,,,,,,,,,,,,,,,,,
,,,,,,,,2023-08-16_08h40.42.031,HF_wild_card,2022.2.4,Win32,29.97332374,5e4d40e2d3132c1907e80312,64d2fd46c836a06233681665,64dc7afaa15d0c3400c86d00,,,,,,,decisionTrl,resources/DBN.BMP,resources/DR.BMP,Door4,0.164814843,-0.01203703,1,0,0,2.2609,optionRight,60,5255,3,11,0,11,0,1,,,,,,,,,,,,,,,,,,,,,,,,,,,,,,,,,,,,,,,
,,,,,,,,2023-08-16_08h40.42.031,HF_wild_card,2022.2.4,Win32,29.97332374,5e4d40e2d3132c1907e80312,64d2fd46c836a06233681665,64dc7afaa15d0c3400c86d00,,,,,,,decisionTrl,resources/DY.BMP,resources/DBN.BMP,Door2,-0.194444444,-0.023148148,1,0,0,1.4984,optionLeft,20,5275,3,12,0,12,0,1,,,,,,,,,,,,,,,,,,,,,,,,,,,,,,,,,,,,,,,
,,,,,,,,2023-08-16_08h40.42.031,HF_wild_card,2022.2.4,Win32,29.97332374,5e4d40e2d3132c1907e80312,64d2fd46c836a06233681665,64dc7afaa15d0c3400c86d00,,,,,,,decisionTrl,resources/DB.BMP,resources/DBN.BMP,Door1,-0.175000014,-0.015740748,1,0,0,1.1481,optionLeft,30,5305,3,13,0,13,0,1,,,,,,,,,,,,,,,,,,,,,,,,,,,,,,,,,,,,,,,
,,,,,,,,2023-08-16_08h40.42.031,HF_wild_card,2022.2.4,Win32,29.97332374,5e4d40e2d3132c1907e80312,64d2fd46c836a06233681665,64dc7afaa15d0c3400c86d00,,,,,,,decisionTrl,resources/DBN.BMP,resources/DB.BMP,Door1,0.156481496,-0.005555577,1,0,0,1.7117,optionRight,30,5335,3,14,0,14,0,1,,,,,,,,,,,,,,,,,,,,,,,,,,,,,,,,,,,,,,,
,,,,,,,,2023-08-16_08h40.42.031,HF_wild_card,2022.2.4,Win32,29.97332374,5e4d40e2d3132c1907e80312,64d2fd46c836a06233681665,64dc7afaa15d0c3400c86d00,,,,,,,decisionTrl,resources/DG.BMP,resources/DR.BMP,Door3,-0.14444443,-0.019444466,1,0,0,2.8252,optionLeft,70,5405,3,15,0,15,0,1,,,,,,,,,,,,,,,,,,,,,,,,,,,,,,,,,,,,,,,
,,,,,,,,2023-08-16_08h40.42.031,HF_wild_card,2022.2.4,Win32,29.97332374,5e4d40e2d3132c1907e80312,64d2fd46c836a06233681665,64dc7afaa15d0c3400c86d00,,,,,,,decisionTrl,resources/DY.BMP,resources/DB.BMP,Door1,0.162037037,-0.006481489,1,0,0,2.3151,optionRight,30,5435,3,16,0,16,0,1,,,,,,,,,,,,,,,,,,,,,,,,,,,,,,,,,,,,,,,
,,,,,,,,2023-08-16_08h40.42.031,HF_wild_card,2022.2.4,Win32,29.97332374,5e4d40e2d3132c1907e80312,64d2fd46c836a06233681665,64dc7afaa15d0c3400c86d00,,,,,,,decisionTrl,resources/DBN.BMP,resources/DY.BMP,Door2,0.169444473,-0.01203703,1,0,0,2.8343,optionRight,40,5475,3,17,0,17,0,1,,,,,,,,,,,,,,,,,,,,,,,,,,,,,,,,,,,,,,,
,,,,,,,,2023-08-16_08h40.42.031,HF_wild_card,2022.2.4,Win32,29.97332374,5e4d40e2d3132c1907e80312,64d2fd46c836a06233681665,64dc7afaa15d0c3400c86d00,,,,,,,sngl,resources/DBN.BMP,resources/Empty.png,WildCard_Ex,-0.169444402,-0.005555577,1,0,0,1.2936,optionLeft,95,5570,3,18,0,18,0,1,,,,,,,,,,,,,,,,,,,,,,,,,,,,,,,,,,,,,,,
,,,,,,,,2023-08-16_08h40.42.031,HF_wild_card,2022.2.4,Win32,29.97332374,5e4d40e2d3132c1907e80312,64d2fd46c836a06233681665,64dc7afaa15d0c3400c86d00,,,,,,,decisionTrl,resources/DB.BMP,resources/DY.BMP,Door1,-0.154629601,-0.006481489,1,0,0,4.3371,optionLeft,30,5600,3,19,0,19,0,1,,,,,,,,,,,,,,,,,,,,,,,,,,,,,,,,,,,,,,,
,,,,,,,,2023-08-16_08h40.42.031,HF_wild_card,2022.2.4,Win32,29.97332374,5e4d40e2d3132c1907e80312,64d2fd46c836a06233681665,64dc7afaa15d0c3400c86d00,,,,,,,ctch,resources/DG.BMP,resources/DY.BMP,Door3,-0.180555556,-0.00462963,1,0,0,1.8958,optionLeft,70,5670,3,20,0,20,0,1,,,,,,,,,,,,,,,,,,,,,,,,,,,,,,,,,,,,,,,
,,,,,,,,2023-08-16_08h40.42.031,HF_wild_card,2022.2.4,Win32,29.97332374,5e4d40e2d3132c1907e80312,64d2fd46c836a06233681665,64dc7afaa15d0c3400c86d00,,,,,,,decisionTrl,resources/DY.BMP,resources/DB.BMP,Door1,0.157407407,0,1,0,0,2.4431,optionRight,30,5700,3,21,0,21,0,1,,,,,,,,,,,,,,,,,,,,,,,,,,,,,,,,,,,,,,,
,,,,,,,,2023-08-16_08h40.42.031,HF_wild_card,2022.2.4,Win32,29.97332374,5e4d40e2d3132c1907e80312,64d2fd46c836a06233681665,64dc7afaa15d0c3400c86d00,,,,,,,sngl,resources/Empty.png,resources/DB.BMP,Door1,0.193518533,-0.011111118,1,0,0,0.962,optionRight,30,5730,3,22,0,22,0,1,,,,,,,,,,,,,,,,,,,,,,,,,,,,,,,,,,,,,,,
,,,,,,,,2023-08-16_08h40.42.031,HF_wild_card,2022.2.4,Win32,29.97332374,5e4d40e2d3132c1907e80312,64d2fd46c836a06233681665,64dc7afaa15d0c3400c86d00,,,,,,,decisionTrl,resources/DR.BMP,resources/DG.BMP,Door3,0.175925926,-0.010185206,1,0,0,1.8934,optionRight,70,5800,3,23,0,23,0,1,,,,,,,,,,,,,,,,,,,,,,,,,,,,,,,,,,,,,,,
,,,,,,,,2023-08-16_08h40.42.031,HF_wild_card,2022.2.4,Win32,29.97332374,5e4d40e2d3132c1907e80312,64d2fd46c836a06233681665,64dc7afaa15d0c3400c86d00,,,,,,,ctch,resources/DY.BMP,resources/DG.BMP,Door3,0.175000014,0.001851859,1,0,0,1.2547,optionRight,70,5870,3,24,0,24,0,1,,,,,,,,,,,,,,,,,,,,,,,,,,,,,,,,,,,,,,,
,,,,,,,,2023-08-16_08h40.42.031,HF_wild_card,2022.2.4,Win32,29.97332374,5e4d40e2d3132c1907e80312,64d2fd46c836a06233681665,64dc7afaa15d0c3400c86d00,,,,,,,decisionTrl,resources/DR.BMP,resources/DG.BMP,Door3,0.162962949,0.001851859,1,0,0,1.0447,optionRight,70,5940,3,25,0,25,0,1,,,,,,,,,,,,,,,,,,,,,,,,,,,,,,,,,,,,,,,
,,,,,,,,2023-08-16_08h40.42.031,HF_wild_card,2022.2.4,Win32,29.97332374,5e4d40e2d3132c1907e80312,64d2fd46c836a06233681665,64dc7afaa15d0c3400c86d00,,,,,,,decisionTrl,resources/DR.BMP,resources/DBN.BMP,WildCard_Ex,0.171296296,0.002777771,1,0,0,1.1717,optionRight,5,5945,3,26,0,26,0,1,,,,,,,,,,,,,,,,,,,,,,,,,,,,,,,,,,,,,,,
,,,,,,,,2023-08-16_08h40.42.031,HF_wild_card,2022.2.4,Win32,29.97332374,5e4d40e2d3132c1907e80312,64d2fd46c836a06233681665,64dc7afaa15d0c3400c86d00,,,,,,,decisionTrl,resources/DBN.BMP,resources/DG.BMP,Door3,0.173148191,0.000925912,1,0,0,1.4181,optionRight,70,6015,3,27,0,27,0,1,,,,,,,,,,,,,,,,,,,,,,,,,,,,,,,,,,,,,,,
,,,,,,,,2023-08-16_08h40.42.031,HF_wild_card,2022.2.4,Win32,29.97332374,5e4d40e2d3132c1907e80312,64d2fd46c836a06233681665,64dc7afaa15d0c3400c86d00,,,,,,,ctch,resources/DR.BMP,resources/DB.BMP,Door1,0.194444444,-0.025925919,1,0,0,5.4061,optionRight,30,6045,3,28,0,28,0,1,,,,,,,,,,,,,,,,,,,,,,,,,,,,,,,,,,,,,,,
,,,,,,,,2023-08-16_08h40.42.031,HF_wild_card,2022.2.4,Win32,29.97332374,5e4d40e2d3132c1907e80312,64d2fd46c836a06233681665,64dc7afaa15d0c3400c86d00,,,,,,,decisionTrl,resources/DG.BMP,resources/DBN.BMP,Door3,-0.179629644,-0.013888889,1,0,0,1.5287,optionLeft,70,6115,3,29,0,29,0,1,,,,,,,,,,,,,,,,,,,,,,,,,,,,,,,,,,,,,,,
,,,,,,,,2023-08-16_08h40.42.031,HF_wild_card,2022.2.4,Win32,29.97332374,5e4d40e2d3132c1907e80312,64d2fd46c836a06233681665,64dc7afaa15d0c3400c86d00,,,,,,,sngl,resources/Empty.png,resources/DBN.BMP,WildCard_Ex,0.22129631,-0.008333347,1,0,0,1.4438,optionRight,95,6210,3,30,0,30,0,1,,,,,,,,,,,,,,,,,,,,,,,,,,,,,,,,,,,,,,,
,,,,,,,,2023-08-16_08h40.42.031,HF_wild_card,2022.2.4,Win32,29.97332374,5e4d40e2d3132c1907e80312,64d2fd46c836a06233681665,64dc7afaa15d0c3400c86d00,,,,,,,decisionTrl,resources/DR.BMP,resources/DG.BMP,Door3,0.174074102,-0.0074074,1,0,0,2.7756,optionRight,70,6280,3,31,0,31,0,1,,,,,,,,,,,,,,,,,,,,,,,,,,,,,,,,,,,,,,,
,,,,,,,,2023-08-16_08h40.42.031,HF_wild_card,2022.2.4,Win32,29.97332374,5e4d40e2d3132c1907e80312,64d2fd46c836a06233681665,64dc7afaa15d0c3400c86d00,,,,,,,decisionTrl,resources/DY.BMP,resources/DB.BMP,Door1,0.166666667,-0.01666666,1,0,0,1.9769,optionRight,30,6310,3,32,0,32,0,1,,,,,,,,,,,,,,,,,,,,,,,,,,,,,,,,,,,,,,,
,,,,,,,,2023-08-16_08h40.42.031,HF_wild_card,2022.2.4,Win32,29.97332374,5e4d40e2d3132c1907e80312,64d2fd46c836a06233681665,64dc7afaa15d0c3400c86d00,,,,,,,decisionTrl,resources/DB.BMP,resources/DY.BMP,Door2,0.194444444,-0.010185206,1,0,0,4.5528,optionRight,20,6330,3,33,0,33,0,1,,,,,,,,,,,,,,,,,,,,,,,,,,,,,,,,,,,,,,,
,,,,,,,,2023-08-16_08h40.42.031,HF_wild_card,2022.2.4,Win32,29.97332374,5e4d40e2d3132c1907e80312,64d2fd46c836a06233681665,64dc7afaa15d0c3400c86d00,,,,,,,sngl,resources/DB.BMP,resources/Empty.png,Door1,-0.14444443,-0.0074074,1,0,0,0.9774,optionLeft,30,6360,3,34,0,34,0,1,,,,,,,,,,,,,,,,,,,,,,,,,,,,,,,,,,,,,,,
,,,,,,,,2023-08-16_08h40.42.031,HF_wild_card,2022.2.4,Win32,29.97332374,5e4d40e2d3132c1907e80312,64d2fd46c836a06233681665,64dc7afaa15d0c3400c86d00,,,,,,,ctch,resources/DB.BMP,resources/DR.BMP,Door4,0.207407422,-0.009259259,1,0,0,1.696,optionRight,80,6440,3,35,0,35,0,1,,,,,,,,,,,,,,,,,,,,,,,,,,,,,,,,,,,,,,,
,,,,,,,,2023-08-16_08h40.42.031,HF_wild_card,2022.2.4,Win32,29.97332374,5e4d40e2d3132c1907e80312,64d2fd46c836a06233681665,64dc7afaa15d0c3400c86d00,,,,,,,ctch,resources/DG.BMP,resources/DY.BMP,Door3,-0.222222222,-0.000925947,1,0,0,1.668,optionLeft,70,6510,3,36,0,36,0,1,,,,,,,,,,,,,,,,,,,,,,,,,,,,,,,,,,,,,,,
,,,,,,,,2023-08-16_08h40.42.031,HF_wild_card,2022.2.4,Win32,29.97332374,5e4d40e2d3132c1907e80312,64d2fd46c836a06233681665,64dc7afaa15d0c3400c86d00,,,,,,,decisionTrl,resources/DG.BMP,resources/DR.BMP,Door4,0.190740727,-0.012962977,1,0,0,1.3399,optionRight,60,6570,3,37,0,37,0,1,,,,,,,,,,,,,,,,,,,,,,,,,,,,,,,,,,,,,,,
,,,,,,,,2023-08-16_08h40.42.031,HF_wild_card,2022.2.4,Win32,29.97332374,5e4d40e2d3132c1907e80312,64d2fd46c836a06233681665,64dc7afaa15d0c3400c86d00,,,,,,,sngl,resources/DG.BMP,resources/Empty.png,Door3,-0.164814772,-0.006481489,1,0,0,0.9271,optionLeft,70,6640,3,38,0,38,0,1,,,,,,,,,,,,,,,,,,,,,,,,,,,,,,,,,,,,,,,
,,,,,,,,2023-08-16_08h40.42.031,HF_wild_card,2022.2.4,Win32,29.97332374,5e4d40e2d3132c1907e80312,64d2fd46c836a06233681665,64dc7afaa15d0c3400c86d00,,,,,,,ctch,resources/DB.BMP,resources/DR.BMP,Door4,0.14907406,-0.00462963,1,0,0,1.9998,optionRight,60,6700,3,39,0,39,0,1,,,,,,,,,,,,,,,,,,,,,,,,,,,,,,,,,,,,,,,
,,,,,,,,2023-08-16_08h40.42.031,HF_wild_card,2022.2.4,Win32,29.97332374,5e4d40e2d3132c1907e80312,64d2fd46c836a06233681665,64dc7afaa15d0c3400c86d00,,,,,,,decisionTrl,resources/DG.BMP,resources/DR.BMP,Door3,-0.207407422,-0.013888889,1,0,0,1.8295,optionLeft,70,6770,3,40,0,40,0,1,,,,,,,,,,,,,,,,,,,,,,,,,,,,,,,,,,,,,,,
,,,,,,,,2023-08-16_08h40.42.031,HF_wild_card,2022.2.4,Win32,29.97332374,5e4d40e2d3132c1907e80312,64d2fd46c836a06233681665,64dc7afaa15d0c3400c86d00,,,,,,,sngl,resources/DR.BMP,resources/Empty.png,Door4,-0.224074046,-0.01666666,1,0,0,0.9775,optionLeft,80,6850,3,41,0,41,0,1,,,,,,,,,,,,,,,,,,,,,,,,,,,,,,,,,,,,,,,
,,,,,,,,2023-08-16_08h40.42.031,HF_wild_card,2022.2.4,Win32,29.97332374,5e4d40e2d3132c1907e80312,64d2fd46c836a06233681665,64dc7afaa15d0c3400c86d00,,,,,,,sngl,resources/DY.BMP,resources/Empty.png,Door2,-0.155555513,-0.014814836,1,0,0,1.1975,optionLeft,40,6890,3,42,0,42,0,1,,,,,,,,,,,,,,,,,,,,,,,,,,,,,,,,,,,,,,,
,,,,,,,,2023-08-16_08h40.42.031,HF_wild_card,2022.2.4,Win32,29.97332374,5e4d40e2d3132c1907e80312,64d2fd46c836a06233681665,64dc7afaa15d0c3400c86d00,,,,,,,sngl,resources/Empty.png,resources/DG.BMP,Door3,0.156481496,-0.00462963,1,0,0,1.1233,optionRight,70,6960,3,43,0,43,0,1,,,,,,,,,,,,,,,,,,,,,,,,,,,,,,,,,,,,,,,
,,,,,,,,2023-08-16_08h40.42.031,HF_wild_card,2022.2.4,Win32,29.97332374,5e4d40e2d3132c1907e80312,64d2fd46c836a06233681665,64dc7afaa15d0c3400c86d00,,,,,,,,,,,,,,,,,,,,,,,,,,2,0,2,0,1,,,,,,,,,,,,,,,,,,,,,,,,,,,,,,,,,,
,,,,,,,,2023-08-16_08h40.42.031,HF_wild_card,2022.2.4,Win32,29.97332374,5e4d40e2d3132c1907e80312,64d2fd46c836a06233681665,64dc7afaa15d0c3400c86d00,,,,,,,sngl,resources/DP.BMP,resources/Empty.png,WildCard_NonEx,-0.287037037,-0.102777764,1,0,0,2.1768,optionLeft,55,7015,4,0,0,0,0,1,,,,,,,,,,,,,,,,,,,,,,,,,,,,,,,,,,,,,,,
,,,,,,,,2023-08-16_08h40.42.031,HF_wild_card,2022.2.4,Win32,29.97332374,5e4d40e2d3132c1907e80312,64d2fd46c836a06233681665,64dc7afaa15d0c3400c86d00,,,,,,,sngl,resources/DR.BMP,resources/Empty.png,Door4,-0.24537037,-0.012962977,1,0,0,2.5991,optionLeft,60,7075,4,1,0,1,0,1,,,,,,,,,,,,,,,,,,,,,,,,,,,,,,,,,,,,,,,
,,,,,,,,2023-08-16_08h40.42.031,HF_wild_card,2022.2.4,Win32,29.97332374,5e4d40e2d3132c1907e80312,64d2fd46c836a06233681665,64dc7afaa15d0c3400c86d00,,,,,,,decisionTrl,resources/DY.BMP,resources/DB.BMP,Door1,0.178703732,-0.028703725,1,0,0,2.8448,optionRight,30,7105,4,2,0,2,0,1,,,,,,,,,,,,,,,,,,,,,,,,,,,,,,,,,,,,,,,
,,,,,,,,2023-08-16_08h40.42.031,HF_wild_card,2022.2.4,Win32,29.97332374,5e4d40e2d3132c1907e80312,64d2fd46c836a06233681665,64dc7afaa15d0c3400c86d00,,,,,,,sngl,resources/Empty.png,resources/DY.BMP,Door2,0.180555556,-0.018518519,1,0,0,0.7811,optionRight,40,7145,4,3,0,3,0,1,,,,,,,,,,,,,,,,,,,,,,,,,,,,,,,,,,,,,,,
,,,,,,,,2023-08-16_08h40.42.031,HF_wild_card,2022.2.4,Win32,29.97332374,5e4d40e2d3132c1907e80312,64d2fd46c836a06233681665,64dc7afaa15d0c3400c86d00,,,,,,,decisionTrl,resources/DB.BMP,resources/DY.BMP,Door2,0.194444444,-0.01203703,1,0,0,1.4427,optionRight,20,7165,4,4,0,4,0,1,,,,,,,,,,,,,,,,,,,,,,,,,,,,,,,,,,,,,,,
,,,,,,,,2023-08-16_08h40.42.031,HF_wild_card,2022.2.4,Win32,29.97332374,5e4d40e2d3132c1907e80312,64d2fd46c836a06233681665,64dc7afaa15d0c3400c86d00,,,,,,,decisionTrl,resources/DG.BMP,resources/DR.BMP,Door3,-0.206481439,-0.002777771,1,0,0,2.3438,optionLeft,70,7235,4,5,0,5,0,1,,,,,,,,,,,,,,,,,,,,,,,,,,,,,,,,,,,,,,,
,,,,,,,,2023-08-16_08h40.42.031,HF_wild_card,2022.2.4,Win32,29.97332374,5e4d40e2d3132c1907e80312,64d2fd46c836a06233681665,64dc7afaa15d0c3400c86d00,,,,,,,sngl,resources/Empty.png,resources/DR.BMP,Door4,0.202777792,-0.015740748,1,0,0,1.2833,optionRight,80,7315,4,6,0,6,0,1,,,,,,,,,,,,,,,,,,,,,,,,,,,,,,,,,,,,,,,
,,,,,,,,2023-08-16_08h40.42.031,HF_wild_card,2022.2.4,Win32,29.97332374,5e4d40e2d3132c1907e80312,64d2fd46c836a06233681665,64dc7afaa15d0c3400c86d00,,,,,,,ctch,resources/DG.BMP,resources/DY.BMP,Door3,-0.291666667,-0.0074074,1,0,0,1.5099,optionLeft,70,7385,4,7,0,7,0,1,,,,,,,,,,,,,,,,,,,,,,,,,,,,,,,,,,,,,,,
,,,,,,,,2023-08-16_08h40.42.031,HF_wild_card,2022.2.4,Win32,29.97332374,5e4d40e2d3132c1907e80312,64d2fd46c836a06233681665,64dc7afaa15d0c3400c86d00,,,,,,,ctch,resources/DR.BMP,resources/DB.BMP,Door4,-0.196296268,-0.012962977,1,0,0,1.376,optionLeft,80,7465,4,8,0,8,0,1,,,,,,,,,,,,,,,,,,,,,,,,,,,,,,,,,,,,,,,
,,,,,,,,2023-08-16_08h40.42.031,HF_wild_card,2022.2.4,Win32,29.97332374,5e4d40e2d3132c1907e80312,64d2fd46c836a06233681665,64dc7afaa15d0c3400c86d00,,,,,,,ctch,resources/DR.BMP,resources/DB.BMP,Door4,-0.141666624,-0.012962977,1,0,0,0.8472,optionLeft,80,7545,4,9,0,9,0,1,,,,,,,,,,,,,,,,,,,,,,,,,,,,,,,,,,,,,,,
,,,,,,,,2023-08-16_08h40.42.031,HF_wild_card,2022.2.4,Win32,29.97332374,5e4d40e2d3132c1907e80312,64d2fd46c836a06233681665,64dc7afaa15d0c3400c86d00,,,,,,,decisionTrl,resources/DP.BMP,resources/DG.BMP,Door3,0.189814815,-0.008333347,1,0,0,2.3937,optionRight,70,7615,4,10,0,10,0,1,,,,,,,,,,,,,,,,,,,,,,,,,,,,,,,,,,,,,,,
,,,,,,,,2023-08-16_08h40.42.031,HF_wild_card,2022.2.4,Win32,29.97332374,5e4d40e2d3132c1907e80312,64d2fd46c836a06233681665,64dc7afaa15d0c3400c86d00,,,,,,,decisionTrl,resources/DR.BMP,resources/DG.BMP,Door3,0.156481496,-0.00462963,1,0,0,1.4994,optionRight,70,7685,4,11,0,11,0,1,,,,,,,,,,,,,,,,,,,,,,,,,,,,,,,,,,,,,,,
,,,,,,,,2023-08-16_08h40.42.031,HF_wild_card,2022.2.4,Win32,29.97332374,5e4d40e2d3132c1907e80312,64d2fd46c836a06233681665,64dc7afaa15d0c3400c86d00,,,,,,,decisionTrl,resources/DY.BMP,resources/DB.BMP,Door1,0.178703732,-0.005555577,1,0,0,3.1967,optionRight,30,7715,4,12,0,12,0,1,,,,,,,,,,,,,,,,,,,,,,,,,,,,,,,,,,,,,,,
,,,,,,,,2023-08-16_08h40.42.031,HF_wild_card,2022.2.4,Win32,29.97332374,5e4d40e2d3132c1907e80312,64d2fd46c836a06233681665,64dc7afaa15d0c3400c86d00,,,,,,,sngl,resources/DB.BMP,resources/Empty.png,Door1,-0.199999986,-0.020370377,1,0,0,1.0332,optionLeft,30,7745,4,13,0,13,0,1,,,,,,,,,,,,,,,,,,,,,,,,,,,,,,,,,,,,,,,
,,,,,,,,2023-08-16_08h40.42.031,HF_wild_card,2022.2.4,Win32,29.97332374,5e4d40e2d3132c1907e80312,64d2fd46c836a06233681665,64dc7afaa15d0c3400c86d00,,,,,,,decisionTrl,resources/DY.BMP,resources/DB.BMP,Door1,0.150000042,-0.008333347,1,0,0,1.2727,optionRight,30,7775,4,14,0,14,0,1,,,,,,,,,,,,,,,,,,,,,,,,,,,,,,,,,,,,,,,
,,,,,,,,2023-08-16_08h40.42.031,HF_wild_card,2022.2.4,Win32,29.97332374,5e4d40e2d3132c1907e80312,64d2fd46c836a06233681665,64dc7afaa15d0c3400c86d00,,,,,,,decisionTrl,resources/DB.BMP,resources/DY.BMP,Door1,-0.193518533,-0.012962977,1,0,0,1.2365,optionLeft,30,7805,4,15,0,15,0,1,,,,,,,,,,,,,,,,,,,,,,,,,,,,,,,,,,,,,,,
,,,,,,,,2023-08-16_08h40.42.031,HF_wild_card,2022.2.4,Win32,29.97332374,5e4d40e2d3132c1907e80312,64d2fd46c836a06233681665,64dc7afaa15d0c3400c86d00,,,,,,,sngl,resources/Empty.png,resources/DP.BMP,WildCard_NonEx,0.151851866,-0.0074074,1,0,0,1.9428,optionRight,55,7860,4,16,0,16,0,1,,,,,,,,,,,,,,,,,,,,,,,,,,,,,,,,,,,,,,,
,,,,,,,,2023-08-16_08h40.42.031,HF_wild_card,2022.2.4,Win32,29.97332374,5e4d40e2d3132c1907e80312,64d2fd46c836a06233681665,64dc7afaa15d0c3400c86d00,,,,,,,decisionTrl,resources/DP.BMP,resources/DR.BMP,Door4,0.218518504,-0.000925947,1,0,0,4.099,optionRight,60,7920,4,17,0,17,0,1,,,,,,,,,,,,,,,,,,,,,,,,,,,,,,,,,,,,,,,
,,,,,,,,2023-08-16_08h40.42.031,HF_wild_card,2022.2.4,Win32,29.97332374,5e4d40e2d3132c1907e80312,64d2fd46c836a06233681665,64dc7afaa15d0c3400c86d00,,,,,,,sngl,resources/Empty.png,resources/DB.BMP,Door1,0.244444459,-0.005555577,1,0,0,1.178,optionRight,30,7950,4,18,0,18,0,1,,,,,,,,,,,,,,,,,,,,,,,,,,,,,,,,,,,,,,,
,,,,,,,,2023-08-16_08h40.42.031,HF_wild_card,2022.2.4,Win32,29.97332374,5e4d40e2d3132c1907e80312,64d2fd46c836a06233681665,64dc7afaa15d0c3400c86d00,,,,,,,decisionTrl,resources/DY.BMP,resources/DP.BMP,WildCard_NonEx,0.203703704,-0.014814836,1,0,0,3.5932,optionRight,55,8005,4,19,0,19,0,1,,,,,,,,,,,,,,,,,,,,,,,,,,,,,,,,,,,,,,,
,,,,,,,,2023-08-16_08h40.42.031,HF_wild_card,2022.2.4,Win32,29.97332374,5e4d40e2d3132c1907e80312,64d2fd46c836a06233681665,64dc7afaa15d0c3400c86d00,,,,,,,decisionTrl,resources/DB.BMP,resources/DY.BMP,Door1,-0.19722218,-0.014814836,1,0,0,2.8125,optionLeft,30,8035,4,20,0,20,0,1,,,,,,,,,,,,,,,,,,,,,,,,,,,,,,,,,,,,,,,
,,,,,,,,2023-08-16_08h40.42.031,HF_wild_card,2022.2.4,Win32,29.97332374,5e4d40e2d3132c1907e80312,64d2fd46c836a06233681665,64dc7afaa15d0c3400c86d00,,,,,,,sngl,resources/DG.BMP,resources/Empty.png,Door3,-0.14907406,-0.012962977,1,0,0,1.0855,optionLeft,70,8105,4,21,0,21,0,1,,,,,,,,,,,,,,,,,,,,,,,,,,,,,,,,,,,,,,,
,,,,,,,,2023-08-16_08h40.42.031,HF_wild_card,2022.2.4,Win32,29.97332374,5e4d40e2d3132c1907e80312,64d2fd46c836a06233681665,64dc7afaa15d0c3400c86d00,,,,,,,decisionTrl,resources/DY.BMP,resources/DB.BMP,Door1,0.133333347,0,1,0,0,1.7104,optionRight,30,8135,4,22,0,22,0,1,,,,,,,,,,,,,,,,,,,,,,,,,,,,,,,,,,,,,,,
,,,,,,,,2023-08-16_08h40.42.031,HF_wild_card,2022.2.4,Win32,29.97332374,5e4d40e2d3132c1907e80312,64d2fd46c836a06233681665,64dc7afaa15d0c3400c86d00,,,,,,,decisionTrl,resources/DB.BMP,resources/DY.BMP,Door1,-0.179629644,-0.005555577,1,0,0,1.7769,optionLeft,30,8165,4,23,0,23,0,1,,,,,,,,,,,,,,,,,,,,,,,,,,,,,,,,,,,,,,,
,,,,,,,,2023-08-16_08h40.42.031,HF_wild_card,2022.2.4,Win32,29.97332374,5e4d40e2d3132c1907e80312,64d2fd46c836a06233681665,64dc7afaa15d0c3400c86d00,,,,,,,sngl,resources/Empty.png,resources/DP.BMP,WildCard_NonEx,0.187962991,0.000925912,1,0,0,1.486,optionRight,45,8210,4,24,0,24,0,1,,,,,,,,,,,,,,,,,,,,,,,,,,,,,,,,,,,,,,,
,,,,,,,,2023-08-16_08h40.42.031,HF_wild_card,2022.2.4,Win32,29.97332374,5e4d40e2d3132c1907e80312,64d2fd46c836a06233681665,64dc7afaa15d0c3400c86d00,,,,,,,ctch,resources/DY.BMP,resources/DG.BMP,Door3,0.233333376,-0.000925947,1,0,0,1.4121,optionRight,70,8280,4,25,0,25,0,1,,,,,,,,,,,,,,,,,,,,,,,,,,,,,,,,,,,,,,,
,,,,,,,,2023-08-16_08h40.42.031,HF_wild_card,2022.2.4,Win32,29.97332374,5e4d40e2d3132c1907e80312,64d2fd46c836a06233681665,64dc7afaa15d0c3400c86d00,,,,,,,sngl,resources/DY.BMP,resources/Empty.png,Door2,-0.193518533,-0.021296289,1,0,0,1.3635,optionLeft,20,8300,4,26,0,26,0,1,,,,,,,,,,,,,,,,,,,,,,,,,,,,,,,,,,,,,,,
,,,,,,,,2023-08-16_08h40.42.031,HF_wild_card,2022.2.4,Win32,29.97332374,5e4d40e2d3132c1907e80312,64d2fd46c836a06233681665,64dc7afaa15d0c3400c86d00,,,,,,,decisionTrl,resources/DR.BMP,resources/DP.BMP,Door4,-0.171296296,-0.012962977,1,0,0,5.8083,optionLeft,60,8360,4,27,0,27,0,1,,,,,,,,,,,,,,,,,,,,,,,,,,,,,,,,,,,,,,,
,,,,,,,,2023-08-16_08h40.42.031,HF_wild_card,2022.2.4,Win32,29.97332374,5e4d40e2d3132c1907e80312,64d2fd46c836a06233681665,64dc7afaa15d0c3400c86d00,,,,,,,decisionTrl,resources/DP.BMP,resources/DB.BMP,WildCard_NonEx,-0.17314812,-0.006481489,1,0,0,2.4805,optionLeft,55,8415,4,28,0,28,0,1,,,,,,,,,,,,,,,,,,,,,,,,,,,,,,,,,,,,,,,
,,,,,,,,2023-08-16_08h40.42.031,HF_wild_card,2022.2.4,Win32,29.97332374,5e4d40e2d3132c1907e80312,64d2fd46c836a06233681665,64dc7afaa15d0c3400c86d00,,,,,,,sngl,resources/Empty.png,resources/DG.BMP,Door3,0.185185185,-0.001851859,1,0,0,1.1247,optionRight,70,8485,4,29,0,29,0,1,,,,,,,,,,,,,,,,,,,,,,,,,,,,,,,,,,,,,,,
,,,,,,,,2023-08-16_08h40.42.031,HF_wild_card,2022.2.4,Win32,29.97332374,5e4d40e2d3132c1907e80312,64d2fd46c836a06233681665,64dc7afaa15d0c3400c86d00,,,,,,,decisionTrl,resources/DR.BMP,resources/DG.BMP,Door3,0.18240745,0.003703683,1,0,0,1.4528,optionRight,70,8555,4,30,0,30,0,1,,,,,,,,,,,,,,,,,,,,,,,,,,,,,,,,,,,,,,,
,,,,,,,,2023-08-16_08h40.42.031,HF_wild_card,2022.2.4,Win32,29.97332374,5e4d40e2d3132c1907e80312,64d2fd46c836a06233681665,64dc7afaa15d0c3400c86d00,,,,,,,ctch,resources/DB.BMP,resources/DR.BMP,Door4,0.187037079,-0.026851866,1,0,0,3.269,optionRight,80,8635,4,31,0,31,0,1,,,,,,,,,,,,,,,,,,,,,,,,,,,,,,,,,,,,,,,
,,,,,,,,2023-08-16_08h40.42.031,HF_wild_card,2022.2.4,Win32,29.97332374,5e4d40e2d3132c1907e80312,64d2fd46c836a06233681665,64dc7afaa15d0c3400c86d00,,,,,,,ctch,resources/DY.BMP,resources/DG.BMP,Door3,0.19722225,-0.009259259,1,0,0,1.5263,optionRight,70,8705,4,32,0,32,0,1,,,,,,,,,,,,,,,,,,,,,,,,,,,,,,,,,,,,,,,
,,,,,,,,2023-08-16_08h40.42.031,HF_wild_card,2022.2.4,Win32,29.97332374,5e4d40e2d3132c1907e80312,64d2fd46c836a06233681665,64dc7afaa15d0c3400c86d00,,,,,,,decisionTrl,resources/DG.BMP,resources/DR.BMP,Door4,0.128703718,-0.009259259,1,0,0,1.4104,optionRight,60,8765,4,33,0,33,0,1,,,,,,,,,,,,,,,,,,,,,,,,,,,,,,,,,,,,,,,
,,,,,,,,2023-08-16_08h40.42.031,HF_wild_card,2022.2.4,Win32,29.97332374,5e4d40e2d3132c1907e80312,64d2fd46c836a06233681665,64dc7afaa15d0c3400c86d00,,,,,,,decisionTrl,resources/DB.BMP,resources/DP.BMP,WildCard_NonEx,0.207407422,-0.011111118,1,0,0,2.1375,optionRight,55,8820,4,34,0,34,0,1,,,,,,,,,,,,,,,,,,,,,,,,,,,,,,,,,,,,,,,
,,,,,,,,2023-08-16_08h40.42.031,HF_wild_card,2022.2.4,Win32,29.97332374,5e4d40e2d3132c1907e80312,64d2fd46c836a06233681665,64dc7afaa15d0c3400c86d00,,,,,,,decisionTrl,resources/DG.BMP,resources/DR.BMP,Door3,-0.162037037,-0.012962977,1,0,0,2.2296,optionLeft,70,8890,4,35,0,35,0,1,,,,,,,,,,,,,,,,,,,,,,,,,,,,,,,,,,,,,,,
,,,,,,,,2023-08-16_08h40.42.031,HF_wild_card,2022.2.4,Win32,29.97332374,5e4d40e2d3132c1907e80312,64d2fd46c836a06233681665,64dc7afaa15d0c3400c86d00,,,,,,,decisionTrl,resources/DR.BMP,resources/DG.BMP,Door3,0.241666653,-0.012962977,1,0,0,0.9666,optionRight,70,8960,4,36,0,36,0,1,,,,,,,,,,,,,,,,,,,,,,,,,,,,,,,,,,,,,,,
,,,,,,,,2023-08-16_08h40.42.031,HF_wild_card,2022.2.4,Win32,29.97332374,5e4d40e2d3132c1907e80312,64d2fd46c836a06233681665,64dc7afaa15d0c3400c86d00,,,,,,,decisionTrl,resources/DG.BMP,resources/DR.BMP,Door3,-0.14444443,-0.010185206,1,0,0,0.8267,optionLeft,70,9030,4,37,0,37,0,1,,,,,,,,,,,,,,,,,,,,,,,,,,,,,,,,,,,,,,,
,,,,,,,,2023-08-16_08h40.42.031,HF_wild_card,2022.2.4,Win32,29.97332374,5e4d40e2d3132c1907e80312,64d2fd46c836a06233681665,64dc7afaa15d0c3400c86d00,,,,,,,ctch,resources/DB.BMP,resources/DR.BMP,Door4,0.163888931,-0.012962977,1,0,0,3.4909,optionRight,80,9110,4,38,0,38,0,1,,,,,,,,,,,,,,,,,,,,,,,,,,,,,,,,,,,,,,,
,,,,,,,,2023-08-16_08h40.42.031,HF_wild_card,2022.2.4,Win32,29.97332374,5e4d40e2d3132c1907e80312,64d2fd46c836a06233681665,64dc7afaa15d0c3400c86d00,,,,,,,decisionTrl,resources/DR.BMP,resources/DG.BMP,Door4,-0.199074074,-0.012962977,1,0,0,1.1986,optionLeft,80,9190,4,39,0,39,0,1,,,,,,,,,,,,,,,,,,,,,,,,,,,,,,,,,,,,,,,
,,,,,,,,2023-08-16_08h40.42.031,HF_wild_card,2022.2.4,Win32,29.97332374,5e4d40e2d3132c1907e80312,64d2fd46c836a06233681665,64dc7afaa15d0c3400c86d00,,,,,,,decisionTrl,resources/DG.BMP,resources/DP.BMP,Door3,-0.127777735,-0.012962977,1,0,0,1.3103,optionLeft,70,9260,4,40,0,40,0,1,,,,,,,,,,,,,,,,,,,,,,,,,,,,,,,,,,,,,,,
,,,,,,,,2023-08-16_08h40.42.031,HF_wild_card,2022.2.4,Win32,29.97332374,5e4d40e2d3132c1907e80312,64d2fd46c836a06233681665,64dc7afaa15d0c3400c86d00,,,,,,,decisionTrl,resources/DP.BMP,resources/DY.BMP,WildCard_NonEx,-0.217592593,-0.015740748,1,0,0,1.84,optionLeft,55,9315,4,41,0,41,0,1,,,,,,,,,,,,,,,,,,,,,,,,,,,,,,,,,,,,,,,
,,,,,,,,2023-08-16_08h40.42.031,HF_wild_card,2022.2.4,Win32,29.97332374,5e4d40e2d3132c1907e80312,64d2fd46c836a06233681665,64dc7afaa15d0c3400c86d00,,,,,,,sngl,resources/DP.BMP,resources/Empty.png,WildCard_NonEx,-0.147222236,-0.012962977,1,0,0,0.7441,optionLeft,45,9360,4,42,0,42,0,1,,,,,,,,,,,,,,,,,,,,,,,,,,,,,,,,,,,,,,,
,,,,,,,,2023-08-16_08h40.42.031,HF_wild_card,2022.2.4,Win32,29.97332374,5e4d40e2d3132c1907e80312,64d2fd46c836a06233681665,64dc7afaa15d0c3400c86d00,,,,,,,ctch,resources/DG.BMP,resources/DY.BMP,Door3,-0.19722218,-0.021296289,1,0,0,1.7503,optionLeft,70,9430,4,43,0,43,0,1,,,,,,,,,,,,,,,,,,,,,,,,,,,,,,,,,,,,,,,
,,,,,,,,2023-08-16_08h40.42.031,HF_wild_card,2022.2.4,Win32,29.97332374,5e4d40e2d3132c1907e80312,64d2fd46c836a06233681665,64dc7afaa15d0c3400c86d00,,,,,,,,,,,,,,,,,,,,,,,,,,3,0,3,0,1,,,,,,,,,,,,,,,,,,,,,,,,,,,,,,,,,,
,,,,,,,,2023-08-16_08h40.42.031,HF_wild_card,2022.2.4,Win32,29.97332374,5e4d40e2d3132c1907e80312,64d2fd46c836a06233681665,64dc7afaa15d0c3400c86d00,,,,,,,decisionTrl,resources/DP.BMP,resources/DG.BMP,Door3,0.204629616,-0.132407436,1,0,0,1.7283,optionRight,70,9500,5,0,0,0,0,1,,,,,,,,,,,,,,,,,,,,,,,,,,,,,,,,,,,,,,,
,,,,,,,,2023-08-16_08h40.42.031,HF_wild_card,2022.2.4,Win32,29.97332374,5e4d40e2d3132c1907e80312,64d2fd46c836a06233681665,64dc7afaa15d0c3400c86d00,,,,,,,decisionTrl,resources/DG.BMP,resources/DR.BMP,Door4,0.168518561,-0.005555577,1,0,0,2.7017,optionRight,80,9580,5,1,0,1,0,1,,,,,,,,,,,,,,,,,,,,,,,,,,,,,,,,,,,,,,,
,,,,,,,,2023-08-16_08h40.42.031,HF_wild_card,2022.2.4,Win32,29.97332374,5e4d40e2d3132c1907e80312,64d2fd46c836a06233681665,64dc7afaa15d0c3400c86d00,,,,,,,sngl,resources/DG.BMP,resources/Empty.png,Door3,-0.15370369,0.009259259,1,0,0,1.2459,optionLeft,70,9650,5,2,0,2,0,1,,,,,,,,,,,,,,,,,,,,,,,,,,,,,,,,,,,,,,,
,,,,,,,,2023-08-16_08h40.42.031,HF_wild_card,2022.2.4,Win32,29.97332374,5e4d40e2d3132c1907e80312,64d2fd46c836a06233681665,64dc7afaa15d0c3400c86d00,,,,,,,ctch,resources/DB.BMP,resources/DR.BMP,Door4,0.237963005,-0.001851859,1,0,0,1.2031,optionRight,80,9730,5,3,0,3,0,1,,,,,,,,,,,,,,,,,,,,,,,,,,,,,,,,,,,,,,,
,,,,,,,,2023-08-16_08h40.42.031,HF_wild_card,2022.2.4,Win32,29.97332374,5e4d40e2d3132c1907e80312,64d2fd46c836a06233681665,64dc7afaa15d0c3400c86d00,,,,,,,decisionTrl,resources/DY.BMP,resources/DB.BMP,Door1,0.199074074,-0.014814836,1,0,0,2.1277,optionRight,30,9760,5,4,0,4,0,1,,,,,,,,,,,,,,,,,,,,,,,,,,,,,,,,,,,,,,,
,,,,,,,,2023-08-16_08h40.42.031,HF_wild_card,2022.2.4,Win32,29.97332374,5e4d40e2d3132c1907e80312,64d2fd46c836a06233681665,64dc7afaa15d0c3400c86d00,,,,,,,ctch,resources/DG.BMP,resources/DY.BMP,Door3,-0.206481439,-0.011111118,1,0,0,1.3594,optionLeft,70,9830,5,5,0,5,0,1,,,,,,,,,,,,,,,,,,,,,,,,,,,,,,,,,,,,,,,
,,,,,,,,2023-08-16_08h40.42.031,HF_wild_card,2022.2.4,Win32,29.97332374,5e4d40e2d3132c1907e80312,64d2fd46c836a06233681665,64dc7afaa15d0c3400c86d00,,,,,,,decisionTrl,resources/DG.BMP,resources/DR.BMP,Door4,0.200925968,-0.01666666,1,0,0,1.3445,optionRight,80,9910,5,6,0,6,0,1,,,,,,,,,,,,,,,,,,,,,,,,,,,,,,,,,,,,,,,
,,,,,,,,2023-08-16_08h40.42.031,HF_wild_card,2022.2.4,Win32,29.97332374,5e4d40e2d3132c1907e80312,64d2fd46c836a06233681665,64dc7afaa15d0c3400c86d00,,,,,,,decisionTrl,resources/DY.BMP,resources/DP.BMP,WildCard_NonEx,0.232407393,-0.020370377,1,0,0,1.6427,optionRight,55,9965,5,7,0,7,0,1,,,,,,,,,,,,,,,,,,,,,,,,,,,,,,,,,,,,,,,
,,,,,,,,2023-08-16_08h40.42.031,HF_wild_card,2022.2.4,Win32,29.97332374,5e4d40e2d3132c1907e80312,64d2fd46c836a06233681665,64dc7afaa15d0c3400c86d00,,,,,,,ctch,resources/DY.BMP,resources/DG.BMP,Door3,0.232407393,-0.019444466,1,0,0,1.695,optionRight,70,10035,5,8,0,8,0,1,,,,,,,,,,,,,,,,,,,,,,,,,,,,,,,,,,,,,,,
,,,,,,,,2023-08-16_08h40.42.031,HF_wild_card,2022.2.4,Win32,29.97332374,5e4d40e2d3132c1907e80312,64d2fd46c836a06233681665,64dc7afaa15d0c3400c86d00,,,,,,,decisionTrl,resources/DB.BMP,resources/DY.BMP,Door1,-0.12962963,-0.005555577,1,0,0,8.4655,optionLeft,30,10065,5,9,0,9,0,1,,,,,,,,,,,,,,,,,,,,,,,,,,,,,,,,,,,,,,,
,,,,,,,,2023-08-16_08h40.42.031,HF_wild_card,2022.2.4,Win32,29.97332374,5e4d40e2d3132c1907e80312,64d2fd46c836a06233681665,64dc7afaa15d0c3400c86d00,,,,,,,decisionTrl,resources/DR.BMP,resources/DG.BMP,Door4,-0.22129631,0,1,0,0,1.3269,optionLeft,80,10145,5,10,0,10,0,1,,,,,,,,,,,,,,,,,,,,,,,,,,,,,,,,,,,,,,,
,,,,,,,,2023-08-16_08h40.42.031,HF_wild_card,2022.2.4,Win32,29.97332374,5e4d40e2d3132c1907e80312,64d2fd46c836a06233681665,64dc7afaa15d0c3400c86d00,,,,,,,decisionTrl,resources/DB.BMP,resources/DY.BMP,Door1,-0.17777775,-0.018518519,1,0,0,1.5438,optionLeft,30,10175,5,11,0,11,0,1,,,,,,,,,,,,,,,,,,,,,,,,,,,,,,,,,,,,,,,
,,,,,,,,2023-08-16_08h40.42.031,HF_wild_card,2022.2.4,Win32,29.97332374,5e4d40e2d3132c1907e80312,64d2fd46c836a06233681665,64dc7afaa15d0c3400c86d00,,,,,,,decisionTrl,resources/DG.BMP,resources/DR.BMP,Door4,0.15370369,-0.020370377,1,0,0,1.4139,optionRight,80,10255,5,12,0,12,0,1,,,,,,,,,,,,,,,,,,,,,,,,,,,,,,,,,,,,,,,
,,,,,,,,2023-08-16_08h40.42.031,HF_wild_card,2022.2.4,Win32,29.97332374,5e4d40e2d3132c1907e80312,64d2fd46c836a06233681665,64dc7afaa15d0c3400c86d00,,,,,,,sngl,resources/Empty.png,resources/DP.BMP,WildCard_NonEx,0.185185185,-0.019444466,1,0,0,1.9362,optionRight,55,10310,5,13,0,13,0,1,,,,,,,,,,,,,,,,,,,,,,,,,,,,,,,,,,,,,,,
,,,,,,,,2023-08-16_08h40.42.031,HF_wild_card,2022.2.4,Win32,29.97332374,5e4d40e2d3132c1907e80312,64d2fd46c836a06233681665,64dc7afaa15d0c3400c86d00,,,,,,,decisionTrl,resources/DG.BMP,resources/DP.BMP,Door3,-0.207407422,0.002777771,1,0,0,1.6225,optionLeft,70,10380,5,14,0,14,0,1,,,,,,,,,,,,,,,,,,,,,,,,,,,,,,,,,,,,,,,
,,,,,,,,2023-08-16_08h40.42.031,HF_wild_card,2022.2.4,Win32,29.97332374,5e4d40e2d3132c1907e80312,64d2fd46c836a06233681665,64dc7afaa15d0c3400c86d00,,,,,,,sngl,resources/DB.BMP,resources/Empty.png,Door1,-0.154629601,-0.020370377,1,0,0,1.6776,optionLeft,30,10410,5,15,0,15,0,1,,,,,,,,,,,,,,,,,,,,,,,,,,,,,,,,,,,,,,,
,,,,,,,,2023-08-16_08h40.42.031,HF_wild_card,2022.2.4,Win32,29.97332374,5e4d40e2d3132c1907e80312,64d2fd46c836a06233681665,64dc7afaa15d0c3400c86d00,,,,,,,ctch,resources/DB.BMP,resources/DR.BMP,Door4,0.199074074,-0.043518526,1,0,0,2.1315,optionRight,60,10470,5,16,0,16,0,1,,,,,,,,,,,,,,,,,,,,,,,,,,,,,,,,,,,,,,,
,,,,,,,,2023-08-16_08h40.42.031,HF_wild_card,2022.2.4,Win32,29.97332374,5e4d40e2d3132c1907e80312,64d2fd46c836a06233681665,64dc7afaa15d0c3400c86d00,,,,,,,decisionTrl,resources/DR.BMP,resources/DG.BMP,Door3,0.253703718,-0.013888889,1,0,0,1.4883,optionRight,70,10540,5,17,0,17,0,1,,,,,,,,,,,,,,,,,,,,,,,,,,,,,,,,,,,,,,,
,,,,,,,,2023-08-16_08h40.42.031,HF_wild_card,2022.2.4,Win32,29.97332374,5e4d40e2d3132c1907e80312,64d2fd46c836a06233681665,64dc7afaa15d0c3400c86d00,,,,,,,sngl,resources/Empty.png,resources/DY.BMP,Door2,0.23055557,-0.008333347,1,0,0,1.4606,optionRight,20,10560,5,18,0,18,0,1,,,,,,,,,,,,,,,,,,,,,,,,,,,,,,,,,,,,,,,
,,,,,,,,2023-08-16_08h40.42.031,HF_wild_card,2022.2.4,Win32,29.97332374,5e4d40e2d3132c1907e80312,64d2fd46c836a06233681665,64dc7afaa15d0c3400c86d00,,,,,,,decisionTrl,resources/DY.BMP,resources/DB.BMP,Door1,0.256481524,-0.009259259,1,0,0,1.0274,optionRight,30,10590,5,19,0,19,0,1,,,,,,,,,,,,,,,,,,,,,,,,,,,,,,,,,,,,,,,
,,,,,,,,2023-08-16_08h40.42.031,HF_wild_card,2022.2.4,Win32,29.97332374,5e4d40e2d3132c1907e80312,64d2fd46c836a06233681665,64dc7afaa15d0c3400c86d00,,,,,,,decisionTrl,resources/DY.BMP,resources/DB.BMP,Door1,0.257407436,-0.025000007,1,0,0,0.7979,optionRight,30,10620,5,20,0,20,0,1,,,,,,,,,,,,,,,,,,,,,,,,,,,,,,,,,,,,,,,
,,,,,,,,2023-08-16_08h40.42.031,HF_wild_card,2022.2.4,Win32,29.97332374,5e4d40e2d3132c1907e80312,64d2fd46c836a06233681665,64dc7afaa15d0c3400c86d00,,,,,,,decisionTrl,resources/DG.BMP,resources/DR.BMP,Door3,-0.165740755,0.005555541,1,0,0,1.9155,optionLeft,70,10690,5,21,0,21,0,1,,,,,,,,,,,,,,,,,,,,,,,,,,,,,,,,,,,,,,,
,,,,,,,,2023-08-16_08h40.42.031,HF_wild_card,2022.2.4,Win32,29.97332374,5e4d40e2d3132c1907e80312,64d2fd46c836a06233681665,64dc7afaa15d0c3400c86d00,,,,,,,decisionTrl,resources/DB.BMP,resources/DY.BMP,Door1,-0.224074046,0.000925912,1,0,0,1.5785,optionLeft,30,10720,5,22,0,22,0,1,,,,,,,,,,,,,,,,,,,,,,,,,,,,,,,,,,,,,,,
,,,,,,,,2023-08-16_08h40.42.031,HF_wild_card,2022.2.4,Win32,29.97332374,5e4d40e2d3132c1907e80312,64d2fd46c836a06233681665,64dc7afaa15d0c3400c86d00,,,,,,,sngl,resources/DR.BMP,resources/Empty.png,Door4,-0.223148134,0.003703683,1,0,0,1.7898,optionLeft,80,10800,5,23,0,23,0,1,,,,,,,,,,,,,,,,,,,,,,,,,,,,,,,,,,,,,,,
,,,,,,,,2023-08-16_08h40.42.031,HF_wild_card,2022.2.4,Win32,29.97332374,5e4d40e2d3132c1907e80312,64d2fd46c836a06233681665,64dc7afaa15d0c3400c86d00,,,,,,,sngl,resources/Empty.png,resources/DG.BMP,Door3,0.199999986,-0.018518519,1,0,0,1.3814,optionRight,70,10870,5,24,0,24,0,1,,,,,,,,,,,,,,,,,,,,,,,,,,,,,,,,,,,,,,,
,,,,,,,,2023-08-16_08h40.42.031,HF_wild_card,2022.2.4,Win32,29.97332374,5e4d40e2d3132c1907e80312,64d2fd46c836a06233681665,64dc7afaa15d0c3400c86d00,,,,,,,sngl,resources/DP.BMP,resources/Empty.png,WildCard_NonEx,-0.148148148,-0.003703718,1,0,0,1.0043,optionLeft,45,10915,5,25,0,25,0,1,,,,,,,,,,,,,,,,,,,,,,,,,,,,,,,,,,,,,,,
,,,,,,,,2023-08-16_08h40.42.031,HF_wild_card,2022.2.4,Win32,29.97332374,5e4d40e2d3132c1907e80312,64d2fd46c836a06233681665,64dc7afaa15d0c3400c86d00,,,,,,,decisionTrl,resources/DR.BMP,resources/DP.BMP,Door4,-0.195370356,0.001851859,1,0,0,1.5998,optionLeft,60,10975,5,26,0,26,0,1,,,,,,,,,,,,,,,,,,,,,,,,,,,,,,,,,,,,,,,
,,,,,,,,2023-08-16_08h40.42.031,HF_wild_card,2022.2.4,Win32,29.97332374,5e4d40e2d3132c1907e80312,64d2fd46c836a06233681665,64dc7afaa15d0c3400c86d00,,,,,,,sngl,resources/DP.BMP,resources/Empty.png,WildCard_NonEx,-0.223148134,-0.009259259,1,0,0,1.0342,optionLeft,55,11030,5,27,0,27,0,1,,,,,,,,,,,,,,,,,,,,,,,,,,,,,,,,,,,,,,,
,,,,,,,,2023-08-16_08h40.42.031,HF_wild_card,2022.2.4,Win32,29.97332374,5e4d40e2d3132c1907e80312,64d2fd46c836a06233681665,64dc7afaa15d0c3400c86d00,,,,,,,sngl,resources/DY.BMP,resources/Empty.png,Door2,-0.171296296,-0.010185206,1,0,0,1.0773,optionLeft,40,11070,5,28,0,28,0,1,,,,,,,,,,,,,,,,,,,,,,,,,,,,,,,,,,,,,,,
,,,,,,,,2023-08-16_08h40.42.031,HF_wild_card,2022.2.4,Win32,29.97332374,5e4d40e2d3132c1907e80312,64d2fd46c836a06233681665,64dc7afaa15d0c3400c86d00,,,,,,,ctch,resources/DR.BMP,resources/DB.BMP,Door4,-0.139814801,-0.000925947,1,0,0,2.2268,optionLeft,60,11130,5,29,0,29,0,1,,,,,,,,,,,,,,,,,,,,,,,,,,,,,,,,,,,,,,,
,,,,,,,,2023-08-16_08h40.42.031,HF_wild_card,2022.2.4,Win32,29.97332374,5e4d40e2d3132c1907e80312,64d2fd46c836a06233681665,64dc7afaa15d0c3400c86d00,,,,,,,sngl,resources/Empty.png,resources/DB.BMP,Door1,0.171296296,-0.011111118,1,0,0,1.2953,optionRight,30,11160,5,30,0,30,0,1,,,,,,,,,,,,,,,,,,,,,,,,,,,,,,,,,,,,,,,
,,,,,,,,2023-08-16_08h40.42.031,HF_wild_card,2022.2.4,Win32,29.97332374,5e4d40e2d3132c1907e80312,64d2fd46c836a06233681665,64dc7afaa15d0c3400c86d00,,,,,,,ctch,resources/DY.BMP,resources/DG.BMP,Door3,0.160185213,-0.020370377,1,0,0,1.3606,optionRight,70,11230,5,31,0,31,0,1,,,,,,,,,,,,,,,,,,,,,,,,,,,,,,,,,,,,,,,
,,,,,,,,2023-08-16_08h40.42.031,HF_wild_card,2022.2.4,Win32,29.97332374,5e4d40e2d3132c1907e80312,64d2fd46c836a06233681665,64dc7afaa15d0c3400c86d00,,,,,,,decisionTrl,resources/DR.BMP,resources/DG.BMP,Door3,0.205555598,-0.018518519,1,0,0,1.2159,optionRight,70,11300,5,32,0,32,0,1,,,,,,,,,,,,,,,,,,,,,,,,,,,,,,,,,,,,,,,
,,,,,,,,2023-08-16_08h40.42.031,HF_wild_card,2022.2.4,Win32,29.97332374,5e4d40e2d3132c1907e80312,64d2fd46c836a06233681665,64dc7afaa15d0c3400c86d00,,,,,,,decisionTrl,resources/DB.BMP,resources/DP.BMP,WildCard_NonEx,0.208333333,-0.047222243,1,0,0,5.2592,optionRight,55,11355,5,33,0,33,0,1,,,,,,,,,,,,,,,,,,,,,,,,,,,,,,,,,,,,,,,
,,,,,,,,2023-08-16_08h40.42.031,HF_wild_card,2022.2.4,Win32,29.97332374,5e4d40e2d3132c1907e80312,64d2fd46c836a06233681665,64dc7afaa15d0c3400c86d00,,,,,,,sngl,resources/Empty.png,resources/DP.BMP,WildCard_NonEx,0.212037051,-0.030555548,1,0,0,0.8721,optionRight,45,11400,5,34,0,34,0,1,,,,,,,,,,,,,,,,,,,,,,,,,,,,,,,,,,,,,,,
,,,,,,,,2023-08-16_08h40.42.031,HF_wild_card,2022.2.4,Win32,29.97332374,5e4d40e2d3132c1907e80312,64d2fd46c836a06233681665,64dc7afaa15d0c3400c86d00,,,,,,,decisionTrl,resources/DP.BMP,resources/DB.BMP,Door1,0.27407406,-0.027777778,1,0,0,3.7518,optionRight,30,11430,5,35,0,35,0,1,,,,,,,,,,,,,,,,,,,,,,,,,,,,,,,,,,,,,,,
,,,,,,,,2023-08-16_08h40.42.031,HF_wild_card,2022.2.4,Win32,29.97332374,5e4d40e2d3132c1907e80312,64d2fd46c836a06233681665,64dc7afaa15d0c3400c86d00,,,,,,,decisionTrl,resources/DP.BMP,resources/DY.BMP,WildCard_NonEx,-0.125,0.00462963,1,0,0,2.7678,optionLeft,45,11475,5,36,0,36,0,1,,,,,,,,,,,,,,,,,,,,,,,,,,,,,,,,,,,,,,,
,,,,,,,,2023-08-16_08h40.42.031,HF_wild_card,2022.2.4,Win32,29.97332374,5e4d40e2d3132c1907e80312,64d2fd46c836a06233681665,64dc7afaa15d0c3400c86d00,,,,,,,decisionTrl,resources/DB.BMP,resources/DY.BMP,Door2,0.250925912,-0.026851866,1,0,0,0.7224,optionRight,20,11495,5,37,0,37,0,1,,,,,,,,,,,,,,,,,,,,,,,,,,,,,,,,,,,,,,,
,,,,,,,,2023-08-16_08h40.42.031,HF_wild_card,2022.2.4,Win32,29.97332374,5e4d40e2d3132c1907e80312,64d2fd46c836a06233681665,64dc7afaa15d0c3400c86d00,,,,,,,decisionTrl,resources/DP.BMP,resources/DR.BMP,Door4,0.252777806,-0.029629637,1,0,0,1.4582,optionRight,60,11555,5,38,0,38,0,1,,,,,,,,,,,,,,,,,,,,,,,,,,,,,,,,,,,,,,,
,,,,,,,,2023-08-16_08h40.42.031,HF_wild_card,2022.2.4,Win32,29.97332374,5e4d40e2d3132c1907e80312,64d2fd46c836a06233681665,64dc7afaa15d0c3400c86d00,,,,,,,decisionTrl,resources/DY.BMP,resources/DB.BMP,Door1,0.263888889,-0.025000007,1,0,0,1.8283,optionRight,30,11585,5,39,0,39,0,1,,,,,,,,,,,,,,,,,,,,,,,,,,,,,,,,,,,,,,,
,,,,,,,,2023-08-16_08h40.42.031,HF_wild_card,2022.2.4,Win32,29.97332374,5e4d40e2d3132c1907e80312,64d2fd46c836a06233681665,64dc7afaa15d0c3400c86d00,,,,,,,ctch,resources/DR.BMP,resources/DB.BMP,Door4,-0.17314812,0.001851859,1,0,0,1.4615,optionLeft,60,11645,5,40,0,40,0,1,,,,,,,,,,,,,,,,,,,,,,,,,,,,,,,,,,,,,,,
,,,,,,,,2023-08-16_08h40.42.031,HF_wild_card,2022.2.4,Win32,29.97332374,5e4d40e2d3132c1907e80312,64d2fd46c836a06233681665,64dc7afaa15d0c3400c86d00,,,,,,,decisionTrl,resources/DR.BMP,resources/DG.BMP,Door3,0.225000028,-0.023148148,1,0,0,1.1543,optionRight,70,11715,5,41,0,41,0,1,,,,,,,,,,,,,,,,,,,,,,,,,,,,,,,,,,,,,,,
,,,,,,,,2023-08-16_08h40.42.031,HF_wild_card,2022.2.4,Win32,29.97332374,5e4d40e2d3132c1907e80312,64d2fd46c836a06233681665,64dc7afaa15d0c3400c86d00,,,,,,,sngl,resources/Empty.png,resources/DR.BMP,Door4,0.207407422,-0.01666666,1,0,0,0.9392,optionRight,60,11775,5,42,0,42,0,1,,,,,,,,,,,,,,,,,,,,,,,,,,,,,,,,,,,,,,,
,,,,,,,,2023-08-16_08h40.42.031,HF_wild_card,2022.2.4,Win32,29.97332374,5e4d40e2d3132c1907e80312,64d2fd46c836a06233681665,64dc7afaa15d0c3400c86d00,,,,,,,ctch,resources/DG.BMP,resources/DY.BMP,Door3,-0.25,0.022222201,1,0,0,1.4786,optionLeft,70,11845,5,43,0,43,0,1,,,,,,,,,,,,,,,,,,,,,,,,,,,,,,,,,,,,,,,
,,,,,,,,2023-08-16_08h40.42.031,HF_wild_card,2022.2.4,Win32,29.97332374,5e4d40e2d3132c1907e80312,64d2fd46c836a06233681665,64dc7afaa15d0c3400c86d00,,,,,,,,,,,,,,,,,,,,,,,,,,4,0,4,0,1,,,,,,,,,,,,,,,,,,,,,,,,,,,,,,,,,,
,,,,,,,,2023-08-16_08h40.42.031,HF_wild_card,2022.2.4,Win32,29.97332374,5e4d40e2d3132c1907e80312,64d2fd46c836a06233681665,64dc7afaa15d0c3400c86d00,,,,,,,decisionTrl,resources/DB.BMP,resources/DY.BMP,Door1,-0.235185199,-0.125,1,0,0,2.2542,optionLeft,30,11875,6,0,0,0,0,1,,,,,,,,,,,,,,,,,,,,,,,,,,,,,,,,,,,,,,,
,,,,,,,,2023-08-16_08h40.42.031,HF_wild_card,2022.2.4,Win32,29.97332374,5e4d40e2d3132c1907e80312,64d2fd46c836a06233681665,64dc7afaa15d0c3400c86d00,,,,,,,sngl,resources/Empty.png,resources/DG.BMP,Door3,0.240740741,-0.019444466,1,0,0,1.1617,optionRight,70,11945,6,1,0,1,0,1,,,,,,,,,,,,,,,,,,,,,,,,,,,,,,,,,,,,,,,
,,,,,,,,2023-08-16_08h40.42.031,HF_wild_card,2022.2.4,Win32,29.97332374,5e4d40e2d3132c1907e80312,64d2fd46c836a06233681665,64dc7afaa15d0c3400c86d00,,,,,,,sngl,resources/DG.BMP,resources/Empty.png,Door3,-0.187037009,-0.020370377,1,0,0,0.7834,optionLeft,70,12015,6,2,0,2,0,1,,,,,,,,,,,,,,,,,,,,,,,,,,,,,,,,,,,,,,,
,,,,,,,,2023-08-16_08h40.42.031,HF_wild_card,2022.2.4,Win32,29.97332374,5e4d40e2d3132c1907e80312,64d2fd46c836a06233681665,64dc7afaa15d0c3400c86d00,,,,,,,ctch,resources/DG.BMP,resources/DY.BMP,Door3,-0.253703718,0.0074074,1,0,0,1.0159,optionLeft,70,12085,6,3,0,3,0,1,,,,,,,,,,,,,,,,,,,,,,,,,,,,,,,,,,,,,,,
,,,,,,,,2023-08-16_08h40.42.031,HF_wild_card,2022.2.4,Win32,29.97332374,5e4d40e2d3132c1907e80312,64d2fd46c836a06233681665,64dc7afaa15d0c3400c86d00,,,,,,,decisionTrl,resources/DG.BMP,resources/DR.BMP,Door3,-0.191666638,-0.009259259,1,0,0,1.1397,optionLeft,70,12155,6,4,0,4,0,1,,,,,,,,,,,,,,,,,,,,,,,,,,,,,,,,,,,,,,,
,,,,,,,,2023-08-16_08h40.42.031,HF_wild_card,2022.2.4,Win32,29.97332374,5e4d40e2d3132c1907e80312,64d2fd46c836a06233681665,64dc7afaa15d0c3400c86d00,,,,,,,decisionTrl,resources/DP.BMP,resources/DB.BMP,WildCard_NonEx,-0.195370356,0,1,0,0,1.8437,optionLeft,45,12200,6,5,0,5,0,1,,,,,,,,,,,,,,,,,,,,,,,,,,,,,,,,,,,,,,,
,,,,,,,,2023-08-16_08h40.42.031,HF_wild_card,2022.2.4,Win32,29.97332374,5e4d40e2d3132c1907e80312,64d2fd46c836a06233681665,64dc7afaa15d0c3400c86d00,,,,,,,decisionTrl,resources/DP.BMP,resources/DR.BMP,Door4,0.293518561,-0.023148148,1,0,0,1.6748,optionRight,60,12260,6,6,0,6,0,1,,,,,,,,,,,,,,,,,,,,,,,,,,,,,,,,,,,,,,,
,,,,,,,,2023-08-16_08h40.42.031,HF_wild_card,2022.2.4,Win32,29.97332374,5e4d40e2d3132c1907e80312,64d2fd46c836a06233681665,64dc7afaa15d0c3400c86d00,,,,,,,decisionTrl,resources/DR.BMP,resources/DG.BMP,Door3,0.219444487,-0.017592607,1,0,0,1.1695,optionRight,70,12330,6,7,0,7,0,1,,,,,,,,,,,,,,,,,,,,,,,,,,,,,,,,,,,,,,,
,,,,,,,,2023-08-16_08h40.42.031,HF_wild_card,2022.2.4,Win32,29.97332374,5e4d40e2d3132c1907e80312,64d2fd46c836a06233681665,64dc7afaa15d0c3400c86d00,,,,,,,sngl,resources/DY.BMP,resources/Empty.png,Door2,-0.198148162,-0.009259259,1,0,0,1.1933,optionLeft,20,12350,6,8,0,8,0,1,,,,,,,,,,,,,,,,,,,,,,,,,,,,,,,,,,,,,,,
,,,,,,,,2023-08-16_08h40.42.031,HF_wild_card,2022.2.4,Win32,29.97332374,5e4d40e2d3132c1907e80312,64d2fd46c836a06233681665,64dc7afaa15d0c3400c86d00,,,,,,,ctch,resources/DB.BMP,resources/DR.BMP,Door4,0.178703732,-0.029629637,1,0,0,1.5702,optionRight,80,12430,6,9,0,9,0,1,,,,,,,,,,,,,,,,,,,,,,,,,,,,,,,,,,,,,,,
,,,,,,,,2023-08-16_08h40.42.031,HF_wild_card,2022.2.4,Win32,29.97332374,5e4d40e2d3132c1907e80312,64d2fd46c836a06233681665,64dc7afaa15d0c3400c86d00,,,,,,,decisionTrl,resources/DR.BMP,resources/DG.BMP,Door4,-0.14907406,0.001851859,1,0,0,1.1229,optionLeft,80,12510,6,10,0,10,0,1,,,,,,,,,,,,,,,,,,,,,,,,,,,,,,,,,,,,,,,
,,,,,,,,2023-08-16_08h40.42.031,HF_wild_card,2022.2.4,Win32,29.97332374,5e4d40e2d3132c1907e80312,64d2fd46c836a06233681665,64dc7afaa15d0c3400c86d00,,,,,,,sngl,resources/Empty.png,resources/DY.BMP,Door2,0.223148134,-0.037037037,1,0,0,1.1246,optionRight,40,12550,6,11,0,11,0,1,,,,,,,,,,,,,,,,,,,,,,,,,,,,,,,,,,,,,,,
,,,,,,,,2023-08-16_08h40.42.031,HF_wild_card,2022.2.4,Win32,29.97332374,5e4d40e2d3132c1907e80312,64d2fd46c836a06233681665,64dc7afaa15d0c3400c86d00,,,,,,,sngl,resources/DR.BMP,resources/Empty.png,Door4,-0.17314812,-0.006481489,1,0,0,0.9845,optionLeft,60,12610,6,12,0,12,0,1,,,,,,,,,,,,,,,,,,,,,,,,,,,,,,,,,,,,,,,
,,,,,,,,2023-08-16_08h40.42.031,HF_wild_card,2022.2.4,Win32,29.97332374,5e4d40e2d3132c1907e80312,64d2fd46c836a06233681665,64dc7afaa15d0c3400c86d00,,,,,,,decisionTrl,resources/DG.BMP,resources/DR.BMP,Door3,-0.160185143,-0.00462963,1,0,0,1.0569,optionLeft,70,12680,6,13,0,13,0,1,,,,,,,,,,,,,,,,,,,,,,,,,,,,,,,,,,,,,,,
,,,,,,,,2023-08-16_08h40.42.031,HF_wild_card,2022.2.4,Win32,29.97332374,5e4d40e2d3132c1907e80312,64d2fd46c836a06233681665,64dc7afaa15d0c3400c86d00,,,,,,,decisionTrl,resources/DR.BMP,resources/DP.BMP,Door4,-0.218518504,-0.000925947,1,0,0,2.2517,optionLeft,60,12740,6,14,0,14,0,1,,,,,,,,,,,,,,,,,,,,,,,,,,,,,,,,,,,,,,,
,,,,,,,,2023-08-16_08h40.42.031,HF_wild_card,2022.2.4,Win32,29.97332374,5e4d40e2d3132c1907e80312,64d2fd46c836a06233681665,64dc7afaa15d0c3400c86d00,,,,,,,ctch,resources/DB.BMP,resources/DR.BMP,Door4,0.207407422,-0.030555548,1,0,0,1.858,optionRight,80,12820,6,15,0,15,0,1,,,,,,,,,,,,,,,,,,,,,,,,,,,,,,,,,,,,,,,
,,,,,,,,2023-08-16_08h40.42.031,HF_wild_card,2022.2.4,Win32,29.97332374,5e4d40e2d3132c1907e80312,64d2fd46c836a06233681665,64dc7afaa15d0c3400c86d00,,,,,,,decisionTrl,resources/DG.BMP,resources/DP.BMP,Door3,-0.205555527,0,1,0,0,1.4441,optionLeft,70,12890,6,16,0,16,0,1,,,,,,,,,,,,,,,,,,,,,,,,,,,,,,,,,,,,,,,
,,,,,,,,2023-08-16_08h40.42.031,HF_wild_card,2022.2.4,Win32,29.97332374,5e4d40e2d3132c1907e80312,64d2fd46c836a06233681665,64dc7afaa15d0c3400c86d00,,,,,,,decisionTrl,resources/DY.BMP,resources/DB.BMP,Door1,0.179629644,-0.027777778,1,0,0,1.6275,optionRight,30,12920,6,17,0,17,0,1,,,,,,,,,,,,,,,,,,,,,,,,,,,,,,,,,,,,,,,
,,,,,,,,2023-08-16_08h40.42.031,HF_wild_card,2022.2.4,Win32,29.97332374,5e4d40e2d3132c1907e80312,64d2fd46c836a06233681665,64dc7afaa15d0c3400c86d00,,,,,,,ctch,resources/DR.BMP,resources/DB.BMP,Door4,-0.241666653,-0.00462963,1,0,0,1.3773,optionLeft,80,13000,6,18,0,18,0,1,,,,,,,,,,,,,,,,,,,,,,,,,,,,,,,,,,,,,,,
,,,,,,,,2023-08-16_08h40.42.031,HF_wild_card,2022.2.4,Win32,29.97332374,5e4d40e2d3132c1907e80312,64d2fd46c836a06233681665,64dc7afaa15d0c3400c86d00,,,,,,,sngl,resources/DP.BMP,resources/Empty.png,WildCard_NonEx,-0.17777775,-0.006481489,1,0,0,1.2821,optionLeft,45,13045,6,19,0,19,0,1,,,,,,,,,,,,,,,,,,,,,,,,,,,,,,,,,,,,,,,
,,,,,,,,2023-08-16_08h40.42.031,HF_wild_card,2022.2.4,Win32,29.97332374,5e4d40e2d3132c1907e80312,64d2fd46c836a06233681665,64dc7afaa15d0c3400c86d00,,,,,,,decisionTrl,resources/DB.BMP,resources/DY.BMP,Door1,-0.186111097,0,1,0,0,2.1832,optionLeft,30,13075,6,20,0,20,0,1,,,,,,,,,,,,,,,,,,,,,,,,,,,,,,,,,,,,,,,
,,,,,,,,2023-08-16_08h40.42.031,HF_wild_card,2022.2.4,Win32,29.97332374,5e4d40e2d3132c1907e80312,64d2fd46c836a06233681665,64dc7afaa15d0c3400c86d00,,,,,,,decisionTrl,resources/DP.BMP,resources/DY.BMP,WildCard_NonEx,-0.17777775,0,1,0,0,1.8559,optionLeft,45,13120,6,21,0,21,0,1,,,,,,,,,,,,,,,,,,,,,,,,,,,,,,,,,,,,,,,
,,,,,,,,2023-08-16_08h40.42.031,HF_wild_card,2022.2.4,Win32,29.97332374,5e4d40e2d3132c1907e80312,64d2fd46c836a06233681665,64dc7afaa15d0c3400c86d00,,,,,,,sngl,resources/Empty.png,resources/DP.BMP,WildCard_NonEx,0.179629644,-0.037962984,1,0,0,1.6378,optionRight,45,13165,6,22,0,22,0,1,,,,,,,,,,,,,,,,,,,,,,,,,,,,,,,,,,,,,,,
,,,,,,,,2023-08-16_08h40.42.031,HF_wild_card,2022.2.4,Win32,29.97332374,5e4d40e2d3132c1907e80312,64d2fd46c836a06233681665,64dc7afaa15d0c3400c86d00,,,,,,,sngl,resources/Empty.png,resources/DB.BMP,Door1,0.216666681,-0.049074067,1,0,0,1.2955,optionRight,30,13195,6,23,0,23,0,1,,,,,,,,,,,,,,,,,,,,,,,,,,,,,,,,,,,,,,,
,,,,,,,,2023-08-16_08h40.42.031,HF_wild_card,2022.2.4,Win32,29.97332374,5e4d40e2d3132c1907e80312,64d2fd46c836a06233681665,64dc7afaa15d0c3400c86d00,,,,,,,decisionTrl,resources/DG.BMP,resources/DR.BMP,Door4,0.241666653,-0.052777785,1,0,0,2.1439,optionRight,60,13255,6,24,0,24,0,1,,,,,,,,,,,,,,,,,,,,,,,,,,,,,,,,,,,,,,,
,,,,,,,,2023-08-16_08h40.42.031,HF_wild_card,2022.2.4,Win32,29.97332374,5e4d40e2d3132c1907e80312,64d2fd46c836a06233681665,64dc7afaa15d0c3400c86d00,,,,,,,decisionTrl,resources/DG.BMP,resources/DR.BMP,Door3,-0.232407393,0.003703683,1,0,0,0.8945,optionLeft,70,13325,6,25,0,25,0,1,,,,,,,,,,,,,,,,,,,,,,,,,,,,,,,,,,,,,,,
,,,,,,,,2023-08-16_08h40.42.031,HF_wild_card,2022.2.4,Win32,29.97332374,5e4d40e2d3132c1907e80312,64d2fd46c836a06233681665,64dc7afaa15d0c3400c86d00,,,,,,,decisionTrl,resources/DR.BMP,resources/DG.BMP,Door3,0.196296339,-0.027777778,1,0,0,1.1175,optionRight,70,13395,6,26,0,26,0,1,,,,,,,,,,,,,,,,,,,,,,,,,,,,,,,,,,,,,,,
,,,,,,,,2023-08-16_08h40.42.031,HF_wild_card,2022.2.4,Win32,29.97332374,5e4d40e2d3132c1907e80312,64d2fd46c836a06233681665,64dc7afaa15d0c3400c86d00,,,,,,,decisionTrl,resources/DB.BMP,resources/DP.BMP,WildCard_NonEx,0.220370399,-0.043518526,1,0,0,3.0083,optionRight,55,13450,6,27,0,27,0,1,,,,,,,,,,,,,,,,,,,,,,,,,,,,,,,,,,,,,,,
,,,,,,,,2023-08-16_08h40.42.031,HF_wild_card,2022.2.4,Win32,29.97332374,5e4d40e2d3132c1907e80312,64d2fd46c836a06233681665,64dc7afaa15d0c3400c86d00,,,,,,,sngl,resources/DB.BMP,resources/Empty.png,Door1,-0.216666681,0.00462963,1,0,0,1.0272,optionLeft,30,13480,6,28,0,28,0,1,,,,,,,,,,,,,,,,,,,,,,,,,,,,,,,,,,,,,,,
,,,,,,,,2023-08-16_08h40.42.031,HF_wild_card,2022.2.4,Win32,29.97332374,5e4d40e2d3132c1907e80312,64d2fd46c836a06233681665,64dc7afaa15d0c3400c86d00,,,,,,,decisionTrl,resources/DB.BMP,resources/DY.BMP,Door2,0.159259302,-0.037962984,1,0,0,2.3772,optionRight,40,13520,6,29,0,29,0,1,,,,,,,,,,,,,,,,,,,,,,,,,,,,,,,,,,,,,,,
,,,,,,,,2023-08-16_08h40.42.031,HF_wild_card,2022.2.4,Win32,29.97332374,5e4d40e2d3132c1907e80312,64d2fd46c836a06233681665,64dc7afaa15d0c3400c86d00,,,,,,,ctch,resources/DY.BMP,resources/DG.BMP,Door3,0.164814843,-0.025925919,1,0,0,1.5114,optionRight,70,13590,6,30,0,30,0,1,,,,,,,,,,,,,,,,,,,,,,,,,,,,,,,,,,,,,,,
,,,,,,,,2023-08-16_08h40.42.031,HF_wild_card,2022.2.4,Win32,29.97332374,5e4d40e2d3132c1907e80312,64d2fd46c836a06233681665,64dc7afaa15d0c3400c86d00,,,,,,,decisionTrl,resources/DY.BMP,resources/DP.BMP,WildCard_NonEx,0.145370413,-0.015740748,1,0,0,1.9908,optionRight,55,13645,6,31,0,31,0,1,,,,,,,,,,,,,,,,,,,,,,,,,,,,,,,,,,,,,,,
,,,,,,,,2023-08-16_08h40.42.031,HF_wild_card,2022.2.4,Win32,29.97332374,5e4d40e2d3132c1907e80312,64d2fd46c836a06233681665,64dc7afaa15d0c3400c86d00,,,,,,,decisionTrl,resources/DR.BMP,resources/DG.BMP,Door3,0.198148162,-0.024074095,1,0,0,2.1158,optionRight,70,13715,6,32,0,32,0,1,,,,,,,,,,,,,,,,,,,,,,,,,,,,,,,,,,,,,,,
,,,,,,,,2023-08-16_08h40.42.031,HF_wild_card,2022.2.4,Win32,29.97332374,5e4d40e2d3132c1907e80312,64d2fd46c836a06233681665,64dc7afaa15d0c3400c86d00,,,,,,,sngl,resources/DP.BMP,resources/Empty.png,WildCard_NonEx,-0.209259245,-0.003703718,1,0,0,1.2459,optionLeft,55,13770,6,33,0,33,0,1,,,,,,,,,,,,,,,,,,,,,,,,,,,,,,,,,,,,,,,
,,,,,,,,2023-08-16_08h40.42.031,HF_wild_card,2022.2.4,Win32,29.97332374,5e4d40e2d3132c1907e80312,64d2fd46c836a06233681665,64dc7afaa15d0c3400c86d00,,,,,,,decisionTrl,resources/DY.BMP,resources/DB.BMP,Door2,-0.157407407,-0.020370377,1,0,0,1.6985,optionLeft,40,13810,6,34,0,34,0,1,,,,,,,,,,,,,,,,,,,,,,,,,,,,,,,,,,,,,,,
,,,,,,,,2023-08-16_08h40.42.031,HF_wild_card,2022.2.4,Win32,29.97332374,5e4d40e2d3132c1907e80312,64d2fd46c836a06233681665,64dc7afaa15d0c3400c86d00,,,,,,,sngl,resources/Empty.png,resources/DR.BMP,Door4,0.210185228,-0.037962984,1,0,0,1.0121,optionRight,80,13890,6,35,0,35,0,1,,,,,,,,,,,,,,,,,,,,,,,,,,,,,,,,,,,,,,,
,,,,,,,,2023-08-16_08h40.42.031,HF_wild_card,2022.2.4,Win32,29.97332374,5e4d40e2d3132c1907e80312,64d2fd46c836a06233681665,64dc7afaa15d0c3400c86d00,,,,,,,decisionTrl,resources/DB.BMP,resources/DY.BMP,Door2,0.212037051,-0.036111125,1,0,0,1.8589,optionRight,40,13930,6,36,0,36,0,1,,,,,,,,,,,,,,,,,,,,,,,,,,,,,,,,,,,,,,,
,,,,,,,,2023-08-16_08h40.42.031,HF_wild_card,2022.2.4,Win32,29.97332374,5e4d40e2d3132c1907e80312,64d2fd46c836a06233681665,64dc7afaa15d0c3400c86d00,,,,,,,decisionTrl,resources/DY.BMP,resources/DB.BMP,Door2,-0.231481481,0.002777771,1,0,0,1.0813,optionLeft,20,13950,6,37,0,37,0,1,,,,,,,,,,,,,,,,,,,,,,,,,,,,,,,,,,,,,,,
,,,,,,,,2023-08-16_08h40.42.031,HF_wild_card,2022.2.4,Win32,29.97332374,5e4d40e2d3132c1907e80312,64d2fd46c836a06233681665,64dc7afaa15d0c3400c86d00,,,,,,,decisionTrl,resources/DY.BMP,resources/DB.BMP,Door1,0.253703718,-0.045370384,1,0,0,1.1356,optionRight,30,13980,6,38,0,38,0,1,,,,,,,,,,,,,,,,,,,,,,,,,,,,,,,,,,,,,,,
,,,,,,,,2023-08-16_08h40.42.031,HF_wild_card,2022.2.4,Win32,29.97332374,5e4d40e2d3132c1907e80312,64d2fd46c836a06233681665,64dc7afaa15d0c3400c86d00,,,,,,,ctch,resources/DG.BMP,resources/DY.BMP,Door3,-0.244444459,-0.014814836,1,0,0,2.2082,optionLeft,70,14050,6,39,0,39,0,1,,,,,,,,,,,,,,,,,,,,,,,,,,,,,,,,,,,,,,,
,,,,,,,,2023-08-16_08h40.42.031,HF_wild_card,2022.2.4,Win32,29.97332374,5e4d40e2d3132c1907e80312,64d2fd46c836a06233681665,64dc7afaa15d0c3400c86d00,,,,,,,sngl,resources/Empty.png,resources/DP.BMP,WildCard_NonEx,0.226851852,-0.055555556,1,0,0,1.1013,optionRight,55,14105,6,40,0,40,0,1,,,,,,,,,,,,,,,,,,,,,,,,,,,,,,,,,,,,,,,
,,,,,,,,2023-08-16_08h40.42.031,HF_wild_card,2022.2.4,Win32,29.97332374,5e4d40e2d3132c1907e80312,64d2fd46c836a06233681665,64dc7afaa15d0c3400c86d00,,,,,,,ctch,resources/DY.BMP,resources/DG.BMP,Door3,0.173148191,-0.036111125,1,0,0,1.4235,optionRight,70,14175,6,41,0,41,0,1,,,,,,,,,,,,,,,,,,,,,,,,,,,,,,,,,,,,,,,
,,,,,,,,2023-08-16_08h40.42.031,HF_wild_card,2022.2.4,Win32,29.97332374,5e4d40e2d3132c1907e80312,64d2fd46c836a06233681665,64dc7afaa15d0c3400c86d00,,,,,,,decisionTrl,resources/DP.BMP,resources/DG.BMP,Door3,0.20185188,-0.053703697,1,0,0,1.2508,optionRight,70,14245,6,42,0,42,0,1,,,,,,,,,,,,,,,,,,,,,,,,,,,,,,,,,,,,,,,
,,,,,,,,2023-08-16_08h40.42.031,HF_wild_card,2022.2.4,Win32,29.97332374,5e4d40e2d3132c1907e80312,64d2fd46c836a06233681665,64dc7afaa15d0c3400c86d00,,,,,,,ctch,resources/DR.BMP,resources/DB.BMP,Door4,-0.201851809,0.002777771,1,0,0,1.4863,optionLeft,80,14325,6,43,0,43,0,1,,,,,,,,,,,,,,,,,,,,,,,,,,,,,,,,,,,,,,,
,,,,,,,,2023-08-16_08h40.42.031,HF_wild_card,2022.2.4,Win32,29.97332374,5e4d40e2d3132c1907e80312,64d2fd46c836a06233681665,64dc7afaa15d0c3400c86d00,,,,,,,,,,,,,,,,,,,,,,,,,,5,0,5,0,1,,,,,,,,,,,,,,,,,,,,,,,,,,,,,,,,,,
,,,,,,,,2023-08-16_08h40.42.031,HF_wild_card,2022.2.4,Win32,29.97332374,5e4d40e2d3132c1907e80312,64d2fd46c836a06233681665,64dc7afaa15d0c3400c86d00,,,,,,,decisionTrl,resources/DB.BMP,resources/DY.BMP,Door2,0.242592635,-0.128703718,1,0,0,1.545,optionRight,40,14365,7,0,0,0,0,1,,,,,,,,,,,,,,,,,,,,,,,,,,,,,,,,,,,,,,,
,,,,,,,,2023-08-16_08h40.42.031,HF_wild_card,2022.2.4,Win32,29.97332374,5e4d40e2d3132c1907e80312,64d2fd46c836a06233681665,64dc7afaa15d0c3400c86d00,,,,,,,decisionTrl,resources/DR.BMP,resources/DG.BMP,Door3,0.198148162,0.00462963,1,0,0,0.8665,optionRight,70,14435,7,1,0,1,0,1,,,,,,,,,,,,,,,,,,,,,,,,,,,,,,,,,,,,,,,
,,,,,,,,2023-08-16_08h40.42.031,HF_wild_card,2022.2.4,Win32,29.97332374,5e4d40e2d3132c1907e80312,64d2fd46c836a06233681665,64dc7afaa15d0c3400c86d00,,,,,,,ctch,resources/DB.BMP,resources/DR.BMP,Door4,0.198148162,-0.017592607,1,0,0,2.6422,optionRight,60,14495,7,2,0,2,0,1,,,,,,,,,,,,,,,,,,,,,,,,,,,,,,,,,,,,,,,
,,,,,,,,2023-08-16_08h40.42.031,HF_wild_card,2022.2.4,Win32,29.97332374,5e4d40e2d3132c1907e80312,64d2fd46c836a06233681665,64dc7afaa15d0c3400c86d00,,,,,,,decisionTrl,resources/DB.BMP,resources/DY.BMP,Door2,0.202777792,0.006481489,1,0,0,1.2843,optionRight,40,14535,7,3,0,3,0,1,,,,,,,,,,,,,,,,,,,,,,,,,,,,,,,,,,,,,,,
,,,,,,,,2023-08-16_08h40.42.031,HF_wild_card,2022.2.4,Win32,29.97332374,5e4d40e2d3132c1907e80312,64d2fd46c836a06233681665,64dc7afaa15d0c3400c86d00,,,,,,,decisionTrl,resources/DR.BMP,resources/DG.BMP,Door3,0.169444473,0.002777771,1,0,0,1.428,optionRight,70,14605,7,4,0,4,0,1,,,,,,,,,,,,,,,,,,,,,,,,,,,,,,,,,,,,,,,
,,,,,,,,2023-08-16_08h40.42.031,HF_wild_card,2022.2.4,Win32,29.97332374,5e4d40e2d3132c1907e80312,64d2fd46c836a06233681665,64dc7afaa15d0c3400c86d00,,,,,,,decisionTrl,resources/DG.BMP,resources/DR.BMP,Door3,-0.201851809,0.003703683,1,0,0,1.2968,optionLeft,70,14675,7,5,0,5,0,1,,,,,,,,,,,,,,,,,,,,,,,,,,,,,,,,,,,,,,,
,,,,,,,,2023-08-16_08h40.42.031,HF_wild_card,2022.2.4,Win32,29.97332374,5e4d40e2d3132c1907e80312,64d2fd46c836a06233681665,64dc7afaa15d0c3400c86d00,,,,,,,decisionTrl,resources/DY.BMP,resources/DB.BMP,Door2,-0.16851849,0.005555541,1,0,0,1.4353,optionLeft,20,14695,7,6,0,6,0,1,,,,,,,,,,,,,,,,,,,,,,,,,,,,,,,,,,,,,,,
,,,,,,,,2023-08-16_08h40.42.031,HF_wild_card,2022.2.4,Win32,29.97332374,5e4d40e2d3132c1907e80312,64d2fd46c836a06233681665,64dc7afaa15d0c3400c86d00,,,,,,,ctch,resources/DY.BMP,resources/DG.BMP,Door3,0.233333376,-0.008333347,1,0,0,1.2063,optionRight,70,14765,7,7,0,7,0,1,,,,,,,,,,,,,,,,,,,,,,,,,,,,,,,,,,,,,,,
,,,,,,,,2023-08-16_08h40.42.031,HF_wild_card,2022.2.4,Win32,29.97332374,5e4d40e2d3132c1907e80312,64d2fd46c836a06233681665,64dc7afaa15d0c3400c86d00,,,,,,,ctch,resources/DR.BMP,resources/DB.BMP,Door4,-0.17777775,0.001851859,1,0,0,2.5898,optionLeft,60,14825,7,8,0,8,0,1,,,,,,,,,,,,,,,,,,,,,,,,,,,,,,,,,,,,,,,
,,,,,,,,2023-08-16_08h40.42.031,HF_wild_card,2022.2.4,Win32,29.97332374,5e4d40e2d3132c1907e80312,64d2fd46c836a06233681665,64dc7afaa15d0c3400c86d00,,,,,,,decisionTrl,resources/DR.BMP,resources/DG.BMP,Door3,0.272222236,-0.021296289,1,0,0,1.0075,optionRight,70,14895,7,9,0,9,0,1,,,,,,,,,,,,,,,,,,,,,,,,,,,,,,,,,,,,,,,
,,,,,,,,2023-08-16_08h40.42.031,HF_wild_card,2022.2.4,Win32,29.97332374,5e4d40e2d3132c1907e80312,64d2fd46c836a06233681665,64dc7afaa15d0c3400c86d00,,,,,,,decisionTrl,resources/DY.BMP,resources/DB.BMP,Door2,-0.182407379,-0.001851859,1,0,0,1.461,optionLeft,20,14915,7,10,0,10,0,1,,,,,,,,,,,,,,,,,,,,,,,,,,,,,,,,,,,,,,,
,,,,,,,,2023-08-16_08h40.42.031,HF_wild_card,2022.2.4,Win32,29.97332374,5e4d40e2d3132c1907e80312,64d2fd46c836a06233681665,64dc7afaa15d0c3400c86d00,,,,,,,ctch,resources/DR.BMP,resources/DB.BMP,Door4,-0.218518504,-0.002777771,1,0,0,2.0814,optionLeft,60,14975,7,11,0,11,0,1,,,,,,,,,,,,,,,,,,,,,,,,,,,,,,,,,,,,,,,
,,,,,,,,2023-08-16_08h40.42.031,HF_wild_card,2022.2.4,Win32,29.97332374,5e4d40e2d3132c1907e80312,64d2fd46c836a06233681665,64dc7afaa15d0c3400c86d00,,,,,,,decisionTrl,resources/DB.BMP,resources/DY.BMP,Door2,0.247222265,-0.012962977,1,0,0,1.3673,optionRight,40,15015,7,12,0,12,0,1,,,,,,,,,,,,,,,,,,,,,,,,,,,,,,,,,,,,,,,
,,,,,,,,2023-08-16_08h40.42.031,HF_wild_card,2022.2.4,Win32,29.97332374,5e4d40e2d3132c1907e80312,64d2fd46c836a06233681665,64dc7afaa15d0c3400c86d00,,,,,,,ctch,resources/DY.BMP,resources/DG.BMP,Door3,0.204629616,-0.014814836,1,0,0,0.9719,optionRight,70,15085,7,13,0,13,0,1,,,,,,,,,,,,,,,,,,,,,,,,,,,,,,,,,,,,,,,
,,,,,,,,2023-08-16_08h40.42.031,HF_wild_card,2022.2.4,Win32,29.97332374,5e4d40e2d3132c1907e80312,64d2fd46c836a06233681665,64dc7afaa15d0c3400c86d00,,,,,,,decisionTrl,resources/DB.BMP,resources/DY.BMP,Door2,0.150925954,-0.019444466,1,0,0,1.2854,optionRight,20,15105,7,14,0,14,0,1,,,,,,,,,,,,,,,,,,,,,,,,,,,,,,,,,,,,,,,
,,,,,,,,2023-08-16_08h40.42.031,HF_wild_card,2022.2.4,Win32,29.97332374,5e4d40e2d3132c1907e80312,64d2fd46c836a06233681665,64dc7afaa15d0c3400c86d00,,,,,,,ctch,resources/DB.BMP,resources/DR.BMP,Door4,0.148148148,-0.017592607,1,0,0,1.5143,optionRight,80,15185,7,15,0,15,0,1,,,,,,,,,,,,,,,,,,,,,,,,,,,,,,,,,,,,,,,
,,,,,,,,2023-08-16_08h40.42.031,HF_wild_card,2022.2.4,Win32,29.97332374,5e4d40e2d3132c1907e80312,64d2fd46c836a06233681665,64dc7afaa15d0c3400c86d00,,,,,,,ctch,resources/DR.BMP,resources/DB.BMP,Door4,-0.186111097,-0.006481489,1,0,0,2.0607,optionLeft,80,15265,7,16,0,16,0,1,,,,,,,,,,,,,,,,,,,,,,,,,,,,,,,,,,,,,,,
,,,,,,,,2023-08-16_08h40.42.031,HF_wild_card,2022.2.4,Win32,29.97332374,5e4d40e2d3132c1907e80312,64d2fd46c836a06233681665,64dc7afaa15d0c3400c86d00,,,,,,,decisionTrl,resources/DY.BMP,resources/DB.BMP,Door2,-0.142592607,-0.003703718,1,0,0,2.1065,optionLeft,20,15285,7,17,0,17,0,1,,,,,,,,,,,,,,,,,,,,,,,,,,,,,,,,,,,,,,,
,,,,,,,,2023-08-16_08h40.42.031,HF_wild_card,2022.2.4,Win32,29.97332374,5e4d40e2d3132c1907e80312,64d2fd46c836a06233681665,64dc7afaa15d0c3400c86d00,,,,,,,decisionTrl,resources/DR.BMP,resources/DG.BMP,Door3,0.130555541,-0.001851859,1,0,0,1.5614,optionRight,70,15355,7,18,0,18,0,1,,,,,,,,,,,,,,,,,,,,,,,,,,,,,,,,,,,,,,,
,,,,,,,,2023-08-16_08h40.42.031,HF_wild_card,2022.2.4,Win32,29.97332374,5e4d40e2d3132c1907e80312,64d2fd46c836a06233681665,64dc7afaa15d0c3400c86d00,,,,,,,decisionTrl,resources/DR.BMP,resources/DG.BMP,Door3,0.124074088,-0.0074074,1,0,0,0.8186,optionRight,70,15425,7,19,0,19,0,1,,,,,,,,,,,,,,,,,,,,,,,,,,,,,,,,,,,,,,,
,,,,,,,,2023-08-16_08h40.42.031,HF_wild_card,2022.2.4,Win32,29.97332374,5e4d40e2d3132c1907e80312,64d2fd46c836a06233681665,64dc7afaa15d0c3400c86d00,,,,,,,decisionTrl,resources/DG.BMP,resources/DR.BMP,Door3,-0.213888875,-0.000925947,1,0,0,1.1809,optionLeft,70,15495,7,20,0,20,0,1,,,,,,,,,,,,,,,,,,,,,,,,,,,,,,,,,,,,,,,
,,,,,,,,2023-08-16_08h40.42.031,HF_wild_card,2022.2.4,Win32,29.97332374,5e4d40e2d3132c1907e80312,64d2fd46c836a06233681665,64dc7afaa15d0c3400c86d00,,,,,,,decisionTrl,resources/DB.BMP,resources/DY.BMP,Door2,0.087962963,-0.013888889,1,0,0,1.5144,optionRight,20,15515,7,21,0,21,0,1,,,,,,,,,,,,,,,,,,,,,,,,,,,,,,,,,,,,,,,
,,,,,,,,2023-08-16_08h40.42.031,HF_wild_card,2022.2.4,Win32,29.97332374,5e4d40e2d3132c1907e80312,64d2fd46c836a06233681665,64dc7afaa15d0c3400c86d00,,,,,,,decisionTrl,resources/DB.BMP,resources/DY.BMP,Door2,0.199999986,-0.005555577,1,0,0,1.1154,optionRight,40,15555,7,22,0,22,0,1,,,,,,,,,,,,,,,,,,,,,,,,,,,,,,,,,,,,,,,
,,,,,,,,2023-08-16_08h40.42.031,HF_wild_card,2022.2.4,Win32,29.97332374,5e4d40e2d3132c1907e80312,64d2fd46c836a06233681665,64dc7afaa15d0c3400c86d00,,,,,,,decisionTrl,resources/DY.BMP,resources/DB.BMP,Door2,-0.184259273,-0.000925947,1,0,0,1.19,optionLeft,40,15595,7,23,0,23,0,1,,,,,,,,,,,,,,,,,,,,,,,,,,,,,,,,,,,,,,,
,,,,,,,,2023-08-16_08h40.42.031,HF_wild_card,2022.2.4,Win32,29.97332374,5e4d40e2d3132c1907e80312,64d2fd46c836a06233681665,64dc7afaa15d0c3400c86d00,,,,,,,ctch,resources/DG.BMP,resources/DY.BMP,Door3,-0.196296268,0.00462963,1,0,0,1.4248,optionLeft,70,15665,7,24,0,24,0,1,,,,,,,,,,,,,,,,,,,,,,,,,,,,,,,,,,,,,,,
,,,,,,,,2023-08-16_08h40.42.031,HF_wild_card,2022.2.4,Win32,29.97332374,5e4d40e2d3132c1907e80312,64d2fd46c836a06233681665,64dc7afaa15d0c3400c86d00,,,,,,,decisionTrl,resources/DG.BMP,resources/DR.BMP,Door3,-0.161111125,0,1,0,0,1.1157,optionLeft,70,15735,7,25,0,25,0,1,,,,,,,,,,,,,,,,,,,,,,,,,,,,,,,,,,,,,,,
,,,,,,,,2023-08-16_08h40.42.031,HF_wild_card,2022.2.4,Win32,29.97332374,5e4d40e2d3132c1907e80312,64d2fd46c836a06233681665,64dc7afaa15d0c3400c86d00,,,,,,,decisionTrl,resources/DR.BMP,resources/DG.BMP,Door3,0.171296296,-0.008333347,1,0,0,2.4801,optionRight,70,15805,7,26,0,26,0,1,,,,,,,,,,,,,,,,,,,,,,,,,,,,,,,,,,,,,,,
,,,,,,,,2023-08-16_08h40.42.031,HF_wild_card,2022.2.4,Win32,29.97332374,5e4d40e2d3132c1907e80312,64d2fd46c836a06233681665,64dc7afaa15d0c3400c86d00,,,,,,,ctch,resources/DG.BMP,resources/DY.BMP,Door3,-0.151851866,-0.006481489,1,0,0,0.8773,optionLeft,70,15875,7,27,0,27,0,1,,,,,,,,,,,,,,,,,,,,,,,,,,,,,,,,,,,,,,,
,,,,,,,,2023-08-16_08h40.42.031,HF_wild_card,2022.2.4,Win32,29.97332374,5e4d40e2d3132c1907e80312,64d2fd46c836a06233681665,64dc7afaa15d0c3400c86d00,,,,,,,decisionTrl,resources/DG.BMP,resources/DR.BMP,Door3,-0.142592607,0.003703683,1,0,0,1.2005,optionLeft,70,15945,7,28,0,28,0,1,,,,,,,,,,,,,,,,,,,,,,,,,,,,,,,,,,,,,,,
,,,,,,,,2023-08-16_08h40.42.031,HF_wild_card,2022.2.4,Win32,29.97332374,5e4d40e2d3132c1907e80312,64d2fd46c836a06233681665,64dc7afaa15d0c3400c86d00,,,,,,,decisionTrl,resources/DY.BMP,resources/DB.BMP,Door2,-0.228703675,-0.000925947,1,0,0,1.492,optionLeft,40,15985,7,29,0,29,0,1,,,,,,,,,,,,,,,,,,,,,,,,,,,,,,,,,,,,,,,
,,,,,,,,2023-08-16_08h40.42.031,HF_wild_card,2022.2.4,Win32,29.97332374,5e4d40e2d3132c1907e80312,64d2fd46c836a06233681665,64dc7afaa15d0c3400c86d00,,,,,,,ctch,resources/DG.BMP,resources/DY.BMP,Door3,-0.213888875,-0.013888889,1,0,0,1.181,optionLeft,70,16055,7,30,0,30,0,1,,,,,,,,,,,,,,,,,,,,,,,,,,,,,,,,,,,,,,,
,,,,,,,,2023-08-16_08h40.42.031,HF_wild_card,2022.2.4,Win32,29.97332374,5e4d40e2d3132c1907e80312,64d2fd46c836a06233681665,64dc7afaa15d0c3400c86d00,,,,,,,decisionTrl,resources/DG.BMP,resources/DR.BMP,Door3,-0.162962949,-0.006481489,1,0,0,0.8688,optionLeft,70,16125,7,31,0,31,0,1,,,,,,,,,,,,,,,,,,,,,,,,,,,,,,,,,,,,,,,
,,,,,,,,2023-08-16_08h40.42.031,HF_wild_card,2022.2.4,Win32,29.97332374,5e4d40e2d3132c1907e80312,64d2fd46c836a06233681665,64dc7afaa15d0c3400c86d00,,,,,,,ctch,resources/DY.BMP,resources/DG.BMP,Door3,0.138888889,-0.008333347,1,0,0,1.3724,optionRight,70,16195,7,32,0,32,0,1,,,,,,,,,,,,,,,,,,,,,,,,,,,,,,,,,,,,,,,
,,,,,,,,2023-08-16_08h40.42.031,HF_wild_card,2022.2.4,Win32,29.97332374,5e4d40e2d3132c1907e80312,64d2fd46c836a06233681665,64dc7afaa15d0c3400c86d00,,,,,,,ctch,resources/DB.BMP,resources/DR.BMP,Door4,0.164814843,-0.005555577,1,0,0,1.5695,optionRight,60,16255,7,33,0,33,0,1,,,,,,,,,,,,,,,,,,,,,,,,,,,,,,,,,,,,,,,
,,,,,,,,2023-08-16_08h40.42.031,HF_wild_card,2022.2.4,Win32,29.97332374,5e4d40e2d3132c1907e80312,64d2fd46c836a06233681665,64dc7afaa15d0c3400c86d00,,,,,,,decisionTrl,resources/DY.BMP,resources/DB.BMP,Door2,-0.233333305,-0.018518519,1,0,0,1.6822,optionLeft,40,16295,7,34,0,34,0,1,,,,,,,,,,,,,,,,,,,,,,,,,,,,,,,,,,,,,,,
,,,,,,,,2023-08-16_08h40.42.031,HF_wild_card,2022.2.4,Win32,29.97332374,5e4d40e2d3132c1907e80312,64d2fd46c836a06233681665,64dc7afaa15d0c3400c86d00,,,,,,,decisionTrl,resources/DG.BMP,resources/DR.BMP,Door3,-0.207407422,-0.019444466,1,0,0,1.1694,optionLeft,70,16365,7,35,0,35,0,1,,,,,,,,,,,,,,,,,,,,,,,,,,,,,,,,,,,,,,,
,,,,,,,,2023-08-16_08h40.42.031,HF_wild_card,2022.2.4,Win32,29.97332374,5e4d40e2d3132c1907e80312,64d2fd46c836a06233681665,64dc7afaa15d0c3400c86d00,,,,,,,,,,,,,,,,,,,,,,,,,,6,0,6,0,1,,,,,,,,,,,,,,,,,,,,,,,,,,,,,,,,,,
,,,,,,,,2023-08-16_08h40.42.031,HF_wild_card,2022.2.4,Win32,29.97332374,5e4d40e2d3132c1907e80312,64d2fd46c836a06233681665,64dc7afaa15d0c3400c86d00,,,,,,,,,,,,,,,,,,,,,,,,,,,,,,,4,,,,,,,,,,,,,,,,,,,,,,,,,,,,,,,,,
,,,,,,,,2023-08-16_08h40.42.031,HF_wild_card,2022.2.4,Win32,29.97332374,5e4d40e2d3132c1907e80312,64d2fd46c836a06233681665,64dc7afaa15d0c3400c86d00,,,,,,,,,,,,,,,,,,,,,,,,,,,,,,,,,,,,,,,,,,,,,,,,,,,,,,,,,,,,,,,,
,,,,,,,,2023-08-16_08h40.42.031,HF_wild_card,2022.2.4,Win32,29.97332374,5e4d40e2d3132c1907e80312,64d2fd46c836a06233681665,64dc7afaa15d0c3400c86d00,,,,,,,,,,,,,,,,,,,,,,,,,,,,,,,,5,WC_extreme,resources/DBN.BMP,0,0,0,0,1,,,,,,,,,,,,,,,,,,,,,,,,,
,,,,,,,,2023-08-16_08h40.42.031,HF_wild_card,2022.2.4,Win32,29.97332374,5e4d40e2d3132c1907e80312,64d2fd46c836a06233681665,64dc7afaa15d0c3400c86d00,,,,,,,,,,,,,,,,,,,,,,,,,,,,,,,,70,Door3,resources/DG.BMP,1,0,1,0,1,,,,,,,,,,,,,,,,,,,,,,,,,
,,,,,,,,2023-08-16_08h40.42.031,HF_wild_card,2022.2.4,Win32,29.97332374,5e4d40e2d3132c1907e80312,64d2fd46c836a06233681665,64dc7afaa15d0c3400c86d00,,,,,,,,,,,,,,,,,,,,,,,,,,,,,,,,20,Door2,resources/DY.BMP,2,0,2,0,1,,,,,,,,,,,,,,,,,,,,,,,,,
,,,,,,,,2023-08-16_08h40.42.031,HF_wild_card,2022.2.4,Win32,29.97332374,5e4d40e2d3132c1907e80312,64d2fd46c836a06233681665,64dc7afaa15d0c3400c86d00,,,,,,,,,,,,,,,,,,,,,,,,,,,,,,,,30,Door1,resources/DB.BMP,3,0,3,0,1,,,,,,,,,,,,,,,,,,,,,,,,,
,,,,,,,,2023-08-16_08h40.42.031,HF_wild_card,2022.2.4,Win32,29.97332374,5e4d40e2d3132c1907e80312,64d2fd46c836a06233681665,64dc7afaa15d0c3400c86d00,,,,,,,,,,,,,,,,,,,,,,,,,,,,,,,,55,WC_nonExtreme,resources/DP.BMP,4,0,4,0,1,,,,,,,,,,,,,,,,,,,,,,,,,
,,,,,,,,2023-08-16_08h40.42.031,HF_wild_card,2022.2.4,Win32,29.97332374,5e4d40e2d3132c1907e80312,64d2fd46c836a06233681665,64dc7afaa15d0c3400c86d00,,,,,,,,,,,,,,,,,,,,,,,,,,,,,,,,60,Door4,resources/DR.BMP,5,0,5,0,1,,,,,,,,,,,,,,,,,,,,,,,,,
,,,,,,,,2023-08-16_08h40.42.031,HF_wild_card,2022.2.4,Win32,29.97332374,5e4d40e2d3132c1907e80312,64d2fd46c836a06233681665,64dc7afaa15d0c3400c86d00,,,,,,,,,,,,,,,,,,,,,,,,,,,,,,,,,,,,,,,,,,,,,,,,,,,,,,,,,,,,,,,,
,,,,,,,,2023-08-16_08h40.42.031,HF_wild_card,2022.2.4,Win32,29.97332374,5e4d40e2d3132c1907e80312,64d2fd46c836a06233681665,64dc7afaa15d0c3400c86d00,,,,,,,,,,,,,,,,,,,,,,,,,,,,,,,,,,,,,,,,0,0,0,0,1,,,,,,,,,,,,,,,,,,,,
