Condition,Low fixed image (Door1),Low risky image (Door2),High fixed image (Door3),High risky image (Door4),Extreme Wild Card,NonExtreme Wild Card,,date,expName,psychopyVersion,OS,frameRate,PROLIFIC_PID,STUDY_ID,SESSION_ID,mouse_2.x,mouse_2.y,mouse_2.leftButton,mouse_2.midButton,mouse_2.rightButton,mouse_2.clicked_name,Trial Type,Left Option Image,Right Option Image,Chosen Door,mouse.x,mouse.y,mouse.leftButton,mouse.midButton,mouse.rightButton,mouse.time,mouse.clicked_name,Feedback,Cumulative Reward,Block,trial.thisRepN,trial.thisTrialN,trial.thisN,trial.thisIndex,trial.ran,blocks.thisRepN,blocks.thisTrialN,blocks.thisN,blocks.thisIndex,blocks.ran,Money conversion,First Outcome Reported,Shown Door (First Outcome),Displayed Image (First Outcome),outcomes.thisRepN,outcomes.thisTrialN,outcomes.thisN,outcomes.thisIndex,outcomes.ran,judgments.thisRepN,judgments.thisTrialN,judgments.thisN,judgments.thisIndex,judgments.ran,freqMouse.x,freqMouse.y,freqMouse.leftButton,freqMouse.midButton,freqMouse.rightButton,freqMouse.clicked_name,FQJ for first outcome,FQJ for second outcome,Shown Door,Displayed Image,trials.thisRepN,trials.thisTrialN,trials.thisN,trials.thisIndex,trials.ran,judgBlock.thisRepN,judgBlock.thisTrialN,judgBlock.thisN,judgBlock.thisIndex,judgBlock.ran
0,resources/DG.BMP,resources/DB.BMP,resources/DY.BMP,resources/DR.BMP,resources/DBN.BMP,resources/DP.BMP,,2023-08-16_08h51.45.006,HF_wild_card,2022.2.4,MacIntel,59.99880002,5956697216b84c00012b9e72,64d2fd46c836a06233681665,64dc7de2b81681ffc42ae982,,,,,,,,,,,,,,,,,,,,,,,,,,,,,,,,,,,,,,,,,,,,,,,,,,,,,,,,,,,,,,,,
,,,,,,,,2023-08-16_08h51.45.006,HF_wild_card,2022.2.4,MacIntel,59.99880002,5956697216b84c00012b9e72,64d2fd46c836a06233681665,64dc7de2b81681ffc42ae982,0.00519538,-0.414880032,1,0,0,agree,,,,,,,,,,,,,,,,,,,,,,,,,,,,,,,,,,,,,,,,,,,,,,,,,,,,,,,,,,
,,,,,,,,2023-08-16_08h51.45.006,HF_wild_card,2022.2.4,MacIntel,59.99880002,5956697216b84c00012b9e72,64d2fd46c836a06233681665,64dc7de2b81681ffc42ae982,,,,,,,,,,,,,,,,,,,,,,,,,,,,,,,,,,,,,,,,,,,,,,,,,,,,,,,,,,,,,,,,
,,,,,,,,2023-08-16_08h51.45.006,HF_wild_card,2022.2.4,MacIntel,59.99880002,5956697216b84c00012b9e72,64d2fd46c836a06233681665,64dc7de2b81681ffc42ae982,,,,,,,decisionTrl,resources/DBN.BMP,resources/DR.BMP,Door4,0.385425212,-0.016704576,1,0,0,4.3448,optionRight,60,60,1,0,0,0,0,1,,,,,,,,,,,,,,,,,,,,,,,,,,,,,,,,,,,,,,,
,,,,,,,,2023-08-16_08h51.45.006,HF_wild_card,2022.2.4,MacIntel,59.99880002,5956697216b84c00012b9e72,64d2fd46c836a06233681665,64dc7de2b81681ffc42ae982,,,,,,,decisionTrl,resources/DB.BMP,resources/DG.BMP,Door1,0.410808648,-0.083361545,1,0,0,2.5113,optionRight,30,90,1,1,0,1,0,1,,,,,,,,,,,,,,,,,,,,,,,,,,,,,,,,,,,,,,,
,,,,,,,,2023-08-16_08h51.45.006,HF_wild_card,2022.2.4,MacIntel,59.99880002,5956697216b84c00012b9e72,64d2fd46c836a06233681665,64dc7de2b81681ffc42ae982,,,,,,,sngl,resources/Empty.png,resources/DY.BMP,Door3,0.452493625,-0.045819702,1,0,0,1.531,optionRight,70,160,1,2,0,2,0,1,,,,,,,,,,,,,,,,,,,,,,,,,,,,,,,,,,,,,,,
,,,,,,,,2023-08-16_08h51.45.006,HF_wild_card,2022.2.4,MacIntel,59.99880002,5956697216b84c00012b9e72,64d2fd46c836a06233681665,64dc7de2b81681ffc42ae982,,,,,,,decisionTrl,resources/DB.BMP,resources/DBN.BMP,Door2,-0.352666287,0.012239176,1,0,0,1.8388,optionLeft,40,200,1,3,0,3,0,1,,,,,,,,,,,,,,,,,,,,,,,,,,,,,,,,,,,,,,,
,,,,,,,,2023-08-16_08h51.45.006,HF_wild_card,2022.2.4,MacIntel,59.99880002,5956697216b84c00012b9e72,64d2fd46c836a06233681665,64dc7de2b81681ffc42ae982,,,,,,,ctch,resources/DR.BMP,resources/DG.BMP,Door4,-0.372785102,-0.020941026,1,0,0,1.2802,optionLeft,80,280,1,4,0,4,0,1,,,,,,,,,,,,,,,,,,,,,,,,,,,,,,,,,,,,,,,
,,,,,,,,2023-08-16_08h51.45.006,HF_wild_card,2022.2.4,MacIntel,59.99880002,5956697216b84c00012b9e72,64d2fd46c836a06233681665,64dc7de2b81681ffc42ae982,,,,,,,decisionTrl,resources/DR.BMP,resources/DY.BMP,Door3,0.390100911,-0.112243924,1,0,0,1.2328,optionRight,70,350,1,5,0,5,0,1,,,,,,,,,,,,,,,,,,,,,,,,,,,,,,,,,,,,,,,
,,,,,,,,2023-08-16_08h51.45.006,HF_wild_card,2022.2.4,MacIntel,59.99880002,5956697216b84c00012b9e72,64d2fd46c836a06233681665,64dc7de2b81681ffc42ae982,,,,,,,ctch,resources/DG.BMP,resources/DR.BMP,Door4,0.449051107,-0.088837619,1,0,0,1.3992,optionRight,80,430,1,6,0,6,0,1,,,,,,,,,,,,,,,,,,,,,,,,,,,,,,,,,,,,,,,
,,,,,,,,2023-08-16_08h51.45.006,HF_wild_card,2022.2.4,MacIntel,59.99880002,5956697216b84c00012b9e72,64d2fd46c836a06233681665,64dc7de2b81681ffc42ae982,,,,,,,ctch,resources/DR.BMP,resources/DG.BMP,Door4,-0.319856669,0.01550649,1,0,0,1.3469,optionLeft,60,490,1,7,0,7,0,1,,,,,,,,,,,,,,,,,,,,,,,,,,,,,,,,,,,,,,,
,,,,,,,,2023-08-16_08h51.45.006,HF_wild_card,2022.2.4,MacIntel,59.99880002,5956697216b84c00012b9e72,64d2fd46c836a06233681665,64dc7de2b81681ffc42ae982,,,,,,,sngl,resources/Empty.png,resources/DBN.BMP,WildCard_Ex,0.434624295,-0.049388055,1,0,0,1.2642,optionRight,5,495,1,8,0,8,0,1,,,,,,,,,,,,,,,,,,,,,,,,,,,,,,,,,,,,,,,
,,,,,,,,2023-08-16_08h51.45.006,HF_wild_card,2022.2.4,MacIntel,59.99880002,5956697216b84c00012b9e72,64d2fd46c836a06233681665,64dc7de2b81681ffc42ae982,,,,,,,decisionTrl,resources/DBN.BMP,resources/DB.BMP,Door2,0.3547602,-0.027484741,1,0,0,1.046,optionRight,20,515,1,9,0,9,0,1,,,,,,,,,,,,,,,,,,,,,,,,,,,,,,,,,,,,,,,
,,,,,,,,2023-08-16_08h51.45.006,HF_wild_card,2022.2.4,MacIntel,59.99880002,5956697216b84c00012b9e72,64d2fd46c836a06233681665,64dc7de2b81681ffc42ae982,,,,,,,sngl,resources/Empty.png,resources/DBN.BMP,WildCard_Ex,0.324406467,-0.008413764,1,0,0,0.9498,optionRight,95,610,1,10,0,10,0,1,,,,,,,,,,,,,,,,,,,,,,,,,,,,,,,,,,,,,,,
,,,,,,,,2023-08-16_08h51.45.006,HF_wild_card,2022.2.4,MacIntel,59.99880002,5956697216b84c00012b9e72,64d2fd46c836a06233681665,64dc7de2b81681ffc42ae982,,,,,,,sngl,resources/DG.BMP,resources/Empty.png,Door1,-0.339347805,-0.007520752,1,0,0,0.9471,optionLeft,30,640,1,11,0,11,0,1,,,,,,,,,,,,,,,,,,,,,,,,,,,,,,,,,,,,,,,
,,,,,,,,2023-08-16_08h51.45.006,HF_wild_card,2022.2.4,MacIntel,59.99880002,5956697216b84c00012b9e72,64d2fd46c836a06233681665,64dc7de2b81681ffc42ae982,,,,,,,ctch,resources/DB.BMP,resources/DY.BMP,Door3,0.417713623,-0.049417962,1,0,0,1.6124,optionRight,70,710,1,12,0,12,0,1,,,,,,,,,,,,,,,,,,,,,,,,,,,,,,,,,,,,,,,
,,,,,,,,2023-08-16_08h51.45.006,HF_wild_card,2022.2.4,MacIntel,59.99880002,5956697216b84c00012b9e72,64d2fd46c836a06233681665,64dc7de2b81681ffc42ae982,,,,,,,decisionTrl,resources/DR.BMP,resources/DY.BMP,Door3,0.346298692,-0.056238471,1,0,0,1.744,optionRight,70,780,1,13,0,13,0,1,,,,,,,,,,,,,,,,,,,,,,,,,,,,,,,,,,,,,,,
,,,,,,,,2023-08-16_08h51.45.006,HF_wild_card,2022.2.4,MacIntel,59.99880002,5956697216b84c00012b9e72,64d2fd46c836a06233681665,64dc7de2b81681ffc42ae982,,,,,,,ctch,resources/DG.BMP,resources/DR.BMP,Door1,-0.391411913,0.030564914,1,0,0,0.982,optionLeft,30,810,1,14,0,14,0,1,,,,,,,,,,,,,,,,,,,,,,,,,,,,,,,,,,,,,,,
,,,,,,,,2023-08-16_08h51.45.006,HF_wild_card,2022.2.4,MacIntel,59.99880002,5956697216b84c00012b9e72,64d2fd46c836a06233681665,64dc7de2b81681ffc42ae982,,,,,,,decisionTrl,resources/DR.BMP,resources/DBN.BMP,Door4,-0.389612528,0.031330363,1,0,0,1.2647,optionLeft,80,890,1,15,0,15,0,1,,,,,,,,,,,,,,,,,,,,,,,,,,,,,,,,,,,,,,,
,,,,,,,,2023-08-16_08h51.45.006,HF_wild_card,2022.2.4,MacIntel,59.99880002,5956697216b84c00012b9e72,64d2fd46c836a06233681665,64dc7de2b81681ffc42ae982,,,,,,,sngl,resources/DBN.BMP,resources/Empty.png,WildCard_Ex,-0.38563758,0.012061598,1,0,0,1.8988,optionLeft,95,985,1,16,0,16,0,1,,,,,,,,,,,,,,,,,,,,,,,,,,,,,,,,,,,,,,,
,,,,,,,,2023-08-16_08h51.45.006,HF_wild_card,2022.2.4,MacIntel,59.99880002,5956697216b84c00012b9e72,64d2fd46c836a06233681665,64dc7de2b81681ffc42ae982,,,,,,,sngl,resources/DR.BMP,resources/Empty.png,Door4,-0.367954,0.015635546,1,0,0,1.0043,optionLeft,80,1065,1,17,0,17,0,1,,,,,,,,,,,,,,,,,,,,,,,,,,,,,,,,,,,,,,,
,,,,,,,,2023-08-16_08h51.45.006,HF_wild_card,2022.2.4,MacIntel,59.99880002,5956697216b84c00012b9e72,64d2fd46c836a06233681665,64dc7de2b81681ffc42ae982,,,,,,,decisionTrl,resources/DB.BMP,resources/DG.BMP,Door2,-0.431393127,-0.013589003,1,0,0,1.4138,optionLeft,40,1105,1,18,0,18,0,1,,,,,,,,,,,,,,,,,,,,,,,,,,,,,,,,,,,,,,,
,,,,,,,,2023-08-16_08h51.45.006,HF_wild_card,2022.2.4,MacIntel,59.99880002,5956697216b84c00012b9e72,64d2fd46c836a06233681665,64dc7de2b81681ffc42ae982,,,,,,,ctch,resources/DB.BMP,resources/DY.BMP,Door2,-0.346154582,-0.02515937,1,0,0,2.0967,optionLeft,20,1125,1,19,0,19,0,1,,,,,,,,,,,,,,,,,,,,,,,,,,,,,,,,,,,,,,,
,,,,,,,,2023-08-16_08h51.45.006,HF_wild_card,2022.2.4,MacIntel,59.99880002,5956697216b84c00012b9e72,64d2fd46c836a06233681665,64dc7de2b81681ffc42ae982,,,,,,,sngl,resources/DY.BMP,resources/Empty.png,Door3,-0.350420227,-0.001105414,1,0,0,1.0315,optionLeft,70,1195,1,20,0,20,0,1,,,,,,,,,,,,,,,,,,,,,,,,,,,,,,,,,,,,,,,
,,,,,,,,2023-08-16_08h51.45.006,HF_wild_card,2022.2.4,MacIntel,59.99880002,5956697216b84c00012b9e72,64d2fd46c836a06233681665,64dc7de2b81681ffc42ae982,,,,,,,ctch,resources/DY.BMP,resources/DB.BMP,Door3,-0.455826111,-0.004159444,1,0,0,0.9659,optionLeft,70,1265,1,21,0,21,0,1,,,,,,,,,,,,,,,,,,,,,,,,,,,,,,,,,,,,,,,
,,,,,,,,2023-08-16_08h51.45.006,HF_wild_card,2022.2.4,MacIntel,59.99880002,5956697216b84c00012b9e72,64d2fd46c836a06233681665,64dc7de2b81681ffc42ae982,,,,,,,decisionTrl,resources/DY.BMP,resources/DR.BMP,Door3,-0.40132938,-0.005693597,1,0,0,0.8143,optionLeft,70,1335,1,22,0,22,0,1,,,,,,,,,,,,,,,,,,,,,,,,,,,,,,,,,,,,,,,
,,,,,,,,2023-08-16_08h51.45.006,HF_wild_card,2022.2.4,MacIntel,59.99880002,5956697216b84c00012b9e72,64d2fd46c836a06233681665,64dc7de2b81681ffc42ae982,,,,,,,sngl,resources/Empty.png,resources/DB.BMP,Door2,0.497798801,-0.085142619,1,0,0,0.8577,optionRight,20,1355,1,23,0,23,0,1,,,,,,,,,,,,,,,,,,,,,,,,,,,,,,,,,,,,,,,
,,,,,,,,2023-08-16_08h51.45.006,HF_wild_card,2022.2.4,MacIntel,59.99880002,5956697216b84c00012b9e72,64d2fd46c836a06233681665,64dc7de2b81681ffc42ae982,,,,,,,decisionTrl,resources/DG.BMP,resources/DBN.BMP,Door1,-0.385269402,0.029127401,1,0,0,1.1329,optionLeft,30,1385,1,24,0,24,0,1,,,,,,,,,,,,,,,,,,,,,,,,,,,,,,,,,,,,,,,
,,,,,,,,2023-08-16_08h51.45.006,HF_wild_card,2022.2.4,MacIntel,59.99880002,5956697216b84c00012b9e72,64d2fd46c836a06233681665,64dc7de2b81681ffc42ae982,,,,,,,decisionTrl,resources/DG.BMP,resources/DB.BMP,Door2,0.465725776,-0.075088162,1,0,0,1.0924,optionRight,40,1425,1,25,0,25,0,1,,,,,,,,,,,,,,,,,,,,,,,,,,,,,,,,,,,,,,,
,,,,,,,,2023-08-16_08h51.45.006,HF_wild_card,2022.2.4,MacIntel,59.99880002,5956697216b84c00012b9e72,64d2fd46c836a06233681665,64dc7de2b81681ffc42ae982,,,,,,,decisionTrl,resources/DY.BMP,resources/DR.BMP,Door4,0.437318658,-0.099462755,1,0,0,0.9778,optionRight,80,1505,1,26,0,26,0,1,,,,,,,,,,,,,,,,,,,,,,,,,,,,,,,,,,,,,,,
,,,,,,,,2023-08-16_08h51.45.006,HF_wild_card,2022.2.4,MacIntel,59.99880002,5956697216b84c00012b9e72,64d2fd46c836a06233681665,64dc7de2b81681ffc42ae982,,,,,,,decisionTrl,resources/DG.BMP,resources/DB.BMP,Door1,-0.449752502,0.009821031,1,0,0,2.1109,optionLeft,30,1535,1,27,0,27,0,1,,,,,,,,,,,,,,,,,,,,,,,,,,,,,,,,,,,,,,,
,,,,,,,,2023-08-16_08h51.45.006,HF_wild_card,2022.2.4,MacIntel,59.99880002,5956697216b84c00012b9e72,64d2fd46c836a06233681665,64dc7de2b81681ffc42ae982,,,,,,,sngl,resources/DBN.BMP,resources/Empty.png,WildCard_Ex,-0.37888343,0.009903327,1,0,0,0.9821,optionLeft,5,1540,1,28,0,28,0,1,,,,,,,,,,,,,,,,,,,,,,,,,,,,,,,,,,,,,,,
,,,,,,,,2023-08-16_08h51.45.006,HF_wild_card,2022.2.4,MacIntel,59.99880002,5956697216b84c00012b9e72,64d2fd46c836a06233681665,64dc7de2b81681ffc42ae982,,,,,,,sngl,resources/DB.BMP,resources/Empty.png,Door2,-0.45609514,-0.017978787,1,0,0,0.8655,optionLeft,40,1580,1,29,0,29,0,1,,,,,,,,,,,,,,,,,,,,,,,,,,,,,,,,,,,,,,,
,,,,,,,,2023-08-16_08h51.45.006,HF_wild_card,2022.2.4,MacIntel,59.99880002,5956697216b84c00012b9e72,64d2fd46c836a06233681665,64dc7de2b81681ffc42ae982,,,,,,,decisionTrl,resources/DBN.BMP,resources/DG.BMP,Door1,0.456112874,-0.041595595,1,0,0,0.8795,optionRight,30,1610,1,30,0,30,0,1,,,,,,,,,,,,,,,,,,,,,,,,,,,,,,,,,,,,,,,
,,,,,,,,2023-08-16_08h51.45.006,HF_wild_card,2022.2.4,MacIntel,59.99880002,5956697216b84c00012b9e72,64d2fd46c836a06233681665,64dc7de2b81681ffc42ae982,,,,,,,decisionTrl,resources/DY.BMP,resources/DR.BMP,Door3,-0.424122687,-0.031764492,1,0,0,1.1832,optionLeft,70,1680,1,31,0,31,0,1,,,,,,,,,,,,,,,,,,,,,,,,,,,,,,,,,,,,,,,
,,,,,,,,2023-08-16_08h51.45.006,HF_wild_card,2022.2.4,MacIntel,59.99880002,5956697216b84c00012b9e72,64d2fd46c836a06233681665,64dc7de2b81681ffc42ae982,,,,,,,decisionTrl,resources/DG.BMP,resources/DB.BMP,Door2,0.404998644,-0.042312215,1,0,0,1.1641,optionRight,20,1700,1,32,0,32,0,1,,,,,,,,,,,,,,,,,,,,,,,,,,,,,,,,,,,,,,,
,,,,,,,,2023-08-16_08h51.45.006,HF_wild_card,2022.2.4,MacIntel,59.99880002,5956697216b84c00012b9e72,64d2fd46c836a06233681665,64dc7de2b81681ffc42ae982,,,,,,,decisionTrl,resources/DB.BMP,resources/DG.BMP,Door2,-0.342799208,0.021181539,1,0,0,0.8615,optionLeft,20,1720,1,33,0,33,0,1,,,,,,,,,,,,,,,,,,,,,,,,,,,,,,,,,,,,,,,
,,,,,,,,2023-08-16_08h51.45.006,HF_wild_card,2022.2.4,MacIntel,59.99880002,5956697216b84c00012b9e72,64d2fd46c836a06233681665,64dc7de2b81681ffc42ae982,,,,,,,decisionTrl,resources/DBN.BMP,resources/DY.BMP,Door3,0.351442871,-0.039274699,1,0,0,0.9485,optionRight,70,1790,1,34,0,34,0,1,,,,,,,,,,,,,,,,,,,,,,,,,,,,,,,,,,,,,,,
,,,,,,,,2023-08-16_08h51.45.006,HF_wild_card,2022.2.4,MacIntel,59.99880002,5956697216b84c00012b9e72,64d2fd46c836a06233681665,64dc7de2b81681ffc42ae982,,,,,,,decisionTrl,resources/DG.BMP,resources/DB.BMP,Door2,0.396408149,-0.032918023,1,0,0,1.0119,optionRight,20,1810,1,35,0,35,0,1,,,,,,,,,,,,,,,,,,,,,,,,,,,,,,,,,,,,,,,
,,,,,,,,2023-08-16_08h51.45.006,HF_wild_card,2022.2.4,MacIntel,59.99880002,5956697216b84c00012b9e72,64d2fd46c836a06233681665,64dc7de2b81681ffc42ae982,,,,,,,decisionTrl,resources/DB.BMP,resources/DG.BMP,Door1,0.481199002,-0.137625461,1,0,0,1.101,optionRight,30,1840,1,36,0,36,0,1,,,,,,,,,,,,,,,,,,,,,,,,,,,,,,,,,,,,,,,
,,,,,,,,2023-08-16_08h51.45.006,HF_wild_card,2022.2.4,MacIntel,59.99880002,5956697216b84c00012b9e72,64d2fd46c836a06233681665,64dc7de2b81681ffc42ae982,,,,,,,sngl,resources/Empty.png,resources/DG.BMP,Door1,0.446270209,-0.048584527,1,0,0,0.8808,optionRight,30,1870,1,37,0,37,0,1,,,,,,,,,,,,,,,,,,,,,,,,,,,,,,,,,,,,,,,
,,,,,,,,2023-08-16_08h51.45.006,HF_wild_card,2022.2.4,MacIntel,59.99880002,5956697216b84c00012b9e72,64d2fd46c836a06233681665,64dc7de2b81681ffc42ae982,,,,,,,decisionTrl,resources/DR.BMP,resources/DY.BMP,Door3,0.428352322,-0.076672635,1,0,0,0.8966,optionRight,70,1940,1,38,0,38,0,1,,,,,,,,,,,,,,,,,,,,,,,,,,,,,,,,,,,,,,,
,,,,,,,,2023-08-16_08h51.45.006,HF_wild_card,2022.2.4,MacIntel,59.99880002,5956697216b84c00012b9e72,64d2fd46c836a06233681665,64dc7de2b81681ffc42ae982,,,,,,,decisionTrl,resources/DR.BMP,resources/DY.BMP,Door3,0.381755507,-0.094507107,1,0,0,2.3291,optionRight,70,2010,1,39,0,39,0,1,,,,,,,,,,,,,,,,,,,,,,,,,,,,,,,,,,,,,,,
,,,,,,,,2023-08-16_08h51.45.006,HF_wild_card,2022.2.4,MacIntel,59.99880002,5956697216b84c00012b9e72,64d2fd46c836a06233681665,64dc7de2b81681ffc42ae982,,,,,,,decisionTrl,resources/DY.BMP,resources/DBN.BMP,WildCard_Ex,0.378562283,-0.062758247,1,0,0,1.1787,optionRight,95,2105,1,40,0,40,0,1,,,,,,,,,,,,,,,,,,,,,,,,,,,,,,,,,,,,,,,
,,,,,,,,2023-08-16_08h51.45.006,HF_wild_card,2022.2.4,MacIntel,59.99880002,5956697216b84c00012b9e72,64d2fd46c836a06233681665,64dc7de2b81681ffc42ae982,,,,,,,sngl,resources/Empty.png,resources/DR.BMP,Door4,0.427525635,-0.077264743,1,0,0,0.9919,optionRight,60,2165,1,41,0,41,0,1,,,,,,,,,,,,,,,,,,,,,,,,,,,,,,,,,,,,,,,
,,,,,,,,2023-08-16_08h51.45.006,HF_wild_card,2022.2.4,MacIntel,59.99880002,5956697216b84c00012b9e72,64d2fd46c836a06233681665,64dc7de2b81681ffc42ae982,,,,,,,ctch,resources/DY.BMP,resources/DB.BMP,Door2,0.451033529,-0.070561591,1,0,0,1.4139,optionRight,20,2185,1,42,0,42,0,1,,,,,,,,,,,,,,,,,,,,,,,,,,,,,,,,,,,,,,,
,,,,,,,,2023-08-16_08h51.45.006,HF_wild_card,2022.2.4,MacIntel,59.99880002,5956697216b84c00012b9e72,64d2fd46c836a06233681665,64dc7de2b81681ffc42ae982,,,,,,,decisionTrl,resources/DY.BMP,resources/DR.BMP,Door4,0.396496446,-0.0208648,1,0,0,1.6264,optionRight,80,2265,1,43,0,43,0,1,,,,,,,,,,,,,,,,,,,,,,,,,,,,,,,,,,,,,,,
,,,,,,,,2023-08-16_08h51.45.006,HF_wild_card,2022.2.4,MacIntel,59.99880002,5956697216b84c00012b9e72,64d2fd46c836a06233681665,64dc7de2b81681ffc42ae982,,,,,,,,,,,,,,,,,,,,,,,,,,0,0,0,0,1,,,,,,,,,,,,,,,,,,,,,,,,,,,,,,,,,,
,,,,,,,,2023-08-16_08h51.45.006,HF_wild_card,2022.2.4,MacIntel,59.99880002,5956697216b84c00012b9e72,64d2fd46c836a06233681665,64dc7de2b81681ffc42ae982,,,,,,,decisionTrl,resources/DB.BMP,resources/DG.BMP,Door1,0.433124729,-0.049522095,1,0,0,2.8516,optionRight,30,2295,2,0,0,0,0,1,,,,,,,,,,,,,,,,,,,,,,,,,,,,,,,,,,,,,,,
,,,,,,,,2023-08-16_08h51.45.006,HF_wild_card,2022.2.4,MacIntel,59.99880002,5956697216b84c00012b9e72,64d2fd46c836a06233681665,64dc7de2b81681ffc42ae982,,,,,,,sngl,resources/Empty.png,resources/DBN.BMP,WildCard_Ex,0.351373969,0.05026123,1,0,0,0.8996,optionRight,5,2300,2,1,0,1,0,1,,,,,,,,,,,,,,,,,,,,,,,,,,,,,,,,,,,,,,,
,,,,,,,,2023-08-16_08h51.45.006,HF_wild_card,2022.2.4,MacIntel,59.99880002,5956697216b84c00012b9e72,64d2fd46c836a06233681665,64dc7de2b81681ffc42ae982,,,,,,,ctch,resources/DB.BMP,resources/DY.BMP,Door2,-0.398622199,-0.037062276,1,0,0,1.031,optionLeft,40,2340,2,2,0,2,0,1,,,,,,,,,,,,,,,,,,,,,,,,,,,,,,,,,,,,,,,
,,,,,,,,2023-08-16_08h51.45.006,HF_wild_card,2022.2.4,MacIntel,59.99880002,5956697216b84c00012b9e72,64d2fd46c836a06233681665,64dc7de2b81681ffc42ae982,,,,,,,decisionTrl,resources/DB.BMP,resources/DG.BMP,Door2,-0.415796509,-0.034316338,1,0,0,1.0951,optionLeft,40,2380,2,3,0,3,0,1,,,,,,,,,,,,,,,,,,,,,,,,,,,,,,,,,,,,,,,
,,,,,,,,2023-08-16_08h51.45.006,HF_wild_card,2022.2.4,MacIntel,59.99880002,5956697216b84c00012b9e72,64d2fd46c836a06233681665,64dc7de2b81681ffc42ae982,,,,,,,decisionTrl,resources/DG.BMP,resources/DB.BMP,Door2,0.374322238,0.012243483,1,0,0,1.0811,optionRight,40,2420,2,4,0,4,0,1,,,,,,,,,,,,,,,,,,,,,,,,,,,,,,,,,,,,,,,
,,,,,,,,2023-08-16_08h51.45.006,HF_wild_card,2022.2.4,MacIntel,59.99880002,5956697216b84c00012b9e72,64d2fd46c836a06233681665,64dc7de2b81681ffc42ae982,,,,,,,sngl,resources/DG.BMP,resources/Empty.png,Door1,-0.33223938,-0.036710409,1,0,0,0.764,optionLeft,30,2450,2,5,0,5,0,1,,,,,,,,,,,,,,,,,,,,,,,,,,,,,,,,,,,,,,,
,,,,,,,,2023-08-16_08h51.45.006,HF_wild_card,2022.2.4,MacIntel,59.99880002,5956697216b84c00012b9e72,64d2fd46c836a06233681665,64dc7de2b81681ffc42ae982,,,,,,,decisionTrl,resources/DR.BMP,resources/DY.BMP,Door3,0.389087592,-0.015354106,1,0,0,0.8335,optionRight,70,2520,2,6,0,6,0,1,,,,,,,,,,,,,,,,,,,,,,,,,,,,,,,,,,,,,,,
,,,,,,,,2023-08-16_08h51.45.006,HF_wild_card,2022.2.4,MacIntel,59.99880002,5956697216b84c00012b9e72,64d2fd46c836a06233681665,64dc7de2b81681ffc42ae982,,,,,,,decisionTrl,resources/DY.BMP,resources/DR.BMP,Door4,0.386179335,0.011034682,1,0,0,1.0938,optionRight,60,2580,2,7,0,7,0,1,,,,,,,,,,,,,,,,,,,,,,,,,,,,,,,,,,,,,,,
,,,,,,,,2023-08-16_08h51.45.006,HF_wild_card,2022.2.4,MacIntel,59.99880002,5956697216b84c00012b9e72,64d2fd46c836a06233681665,64dc7de2b81681ffc42ae982,,,,,,,sngl,resources/DY.BMP,resources/Empty.png,Door3,-0.358275045,-0.026156548,1,0,0,0.731,optionLeft,70,2650,2,8,0,8,0,1,,,,,,,,,,,,,,,,,,,,,,,,,,,,,,,,,,,,,,,
,,,,,,,,2023-08-16_08h51.45.006,HF_wild_card,2022.2.4,MacIntel,59.99880002,5956697216b84c00012b9e72,64d2fd46c836a06233681665,64dc7de2b81681ffc42ae982,,,,,,,decisionTrl,resources/DG.BMP,resources/DBN.BMP,WildCard_Ex,0.461327854,0.034617547,1,0,0,1.0963,optionRight,95,2745,2,9,0,9,0,1,,,,,,,,,,,,,,,,,,,,,,,,,,,,,,,,,,,,,,,
,,,,,,,,2023-08-16_08h51.45.006,HF_wild_card,2022.2.4,MacIntel,59.99880002,5956697216b84c00012b9e72,64d2fd46c836a06233681665,64dc7de2b81681ffc42ae982,,,,,,,decisionTrl,resources/DY.BMP,resources/DBN.BMP,WildCard_Ex,0.311425103,0.027415771,1,0,0,1.2309,optionRight,5,2750,2,10,0,10,0,1,,,,,,,,,,,,,,,,,,,,,,,,,,,,,,,,,,,,,,,
,,,,,,,,2023-08-16_08h51.45.006,HF_wild_card,2022.2.4,MacIntel,59.99880002,5956697216b84c00012b9e72,64d2fd46c836a06233681665,64dc7de2b81681ffc42ae982,,,,,,,sngl,resources/Empty.png,resources/DY.BMP,Door3,0.422220052,0.031488173,1,0,0,0.8115,optionRight,70,2820,2,11,0,11,0,1,,,,,,,,,,,,,,,,,,,,,,,,,,,,,,,,,,,,,,,
,,,,,,,,2023-08-16_08h51.45.006,HF_wild_card,2022.2.4,MacIntel,59.99880002,5956697216b84c00012b9e72,64d2fd46c836a06233681665,64dc7de2b81681ffc42ae982,,,,,,,ctch,resources/DY.BMP,resources/DB.BMP,Door3,-0.412432726,-0.028513658,1,0,0,1.6803,optionLeft,70,2890,2,12,0,12,0,1,,,,,,,,,,,,,,,,,,,,,,,,,,,,,,,,,,,,,,,
,,,,,,,,2023-08-16_08h51.45.006,HF_wild_card,2022.2.4,MacIntel,59.99880002,5956697216b84c00012b9e72,64d2fd46c836a06233681665,64dc7de2b81681ffc42ae982,,,,,,,decisionTrl,resources/DBN.BMP,resources/DY.BMP,WildCard_Ex,-0.38172699,0.04208018,1,0,0,1.1631,optionLeft,95,2985,2,13,0,13,0,1,,,,,,,,,,,,,,,,,,,,,,,,,,,,,,,,,,,,,,,
,,,,,,,,2023-08-16_08h51.45.006,HF_wild_card,2022.2.4,MacIntel,59.99880002,5956697216b84c00012b9e72,64d2fd46c836a06233681665,64dc7de2b81681ffc42ae982,,,,,,,decisionTrl,resources/DR.BMP,resources/DY.BMP,Door3,0.523053928,0.046182794,1,0,0,1.0167,optionRight,70,3055,2,14,0,14,0,1,,,,,,,,,,,,,,,,,,,,,,,,,,,,,,,,,,,,,,,
,,,,,,,,2023-08-16_08h51.45.006,HF_wild_card,2022.2.4,MacIntel,59.99880002,5956697216b84c00012b9e72,64d2fd46c836a06233681665,64dc7de2b81681ffc42ae982,,,,,,,sngl,resources/DB.BMP,resources/Empty.png,Door2,-0.363038093,-0.030567017,1,0,0,0.9664,optionLeft,20,3075,2,15,0,15,0,1,,,,,,,,,,,,,,,,,,,,,,,,,,,,,,,,,,,,,,,
,,,,,,,,2023-08-16_08h51.45.006,HF_wild_card,2022.2.4,MacIntel,59.99880002,5956697216b84c00012b9e72,64d2fd46c836a06233681665,64dc7de2b81681ffc42ae982,,,,,,,decisionTrl,resources/DG.BMP,resources/DB.BMP,Door1,-0.388283183,-0.005382148,1,0,0,1.1818,optionLeft,30,3105,2,16,0,16,0,1,,,,,,,,,,,,,,,,,,,,,,,,,,,,,,,,,,,,,,,
,,,,,,,,2023-08-16_08h51.45.006,HF_wild_card,2022.2.4,MacIntel,59.99880002,5956697216b84c00012b9e72,64d2fd46c836a06233681665,64dc7de2b81681ffc42ae982,,,,,,,decisionTrl,resources/DBN.BMP,resources/DB.BMP,WildCard_Ex,-0.404295586,0.012256538,1,0,0,0.9655,optionLeft,5,3110,2,17,0,17,0,1,,,,,,,,,,,,,,,,,,,,,,,,,,,,,,,,,,,,,,,
,,,,,,,,2023-08-16_08h51.45.006,HF_wild_card,2022.2.4,MacIntel,59.99880002,5956697216b84c00012b9e72,64d2fd46c836a06233681665,64dc7de2b81681ffc42ae982,,,,,,,sngl,resources/Empty.png,resources/DBN.BMP,WildCard_Ex,0.471602241,0.032872823,1,0,0,0.7635,optionRight,95,3205,2,18,0,18,0,1,,,,,,,,,,,,,,,,,,,,,,,,,,,,,,,,,,,,,,,
,,,,,,,,2023-08-16_08h51.45.006,HF_wild_card,2022.2.4,MacIntel,59.99880002,5956697216b84c00012b9e72,64d2fd46c836a06233681665,64dc7de2b81681ffc42ae982,,,,,,,decisionTrl,resources/DB.BMP,resources/DG.BMP,Door1,0.488660075,0.021011488,1,0,0,1.3485,optionRight,30,3235,2,19,0,19,0,1,,,,,,,,,,,,,,,,,,,,,,,,,,,,,,,,,,,,,,,
,,,,,,,,2023-08-16_08h51.45.006,HF_wild_card,2022.2.4,MacIntel,59.99880002,5956697216b84c00012b9e72,64d2fd46c836a06233681665,64dc7de2b81681ffc42ae982,,,,,,,decisionTrl,resources/DG.BMP,resources/DB.BMP,Door2,0.344269206,-0.034193895,1,0,0,1.0803,optionRight,20,3255,2,20,0,20,0,1,,,,,,,,,,,,,,,,,,,,,,,,,,,,,,,,,,,,,,,
,,,,,,,,2023-08-16_08h51.45.006,HF_wild_card,2022.2.4,MacIntel,59.99880002,5956697216b84c00012b9e72,64d2fd46c836a06233681665,64dc7de2b81681ffc42ae982,,,,,,,decisionTrl,resources/DY.BMP,resources/DR.BMP,Door3,-0.305382724,0.005620253,1,0,0,1.0332,optionLeft,70,3325,2,21,0,21,0,1,,,,,,,,,,,,,,,,,,,,,,,,,,,,,,,,,,,,,,,
,,,,,,,,2023-08-16_08h51.45.006,HF_wild_card,2022.2.4,MacIntel,59.99880002,5956697216b84c00012b9e72,64d2fd46c836a06233681665,64dc7de2b81681ffc42ae982,,,,,,,decisionTrl,resources/DY.BMP,resources/DR.BMP,Door4,0.393474935,0.005016479,1,0,0,0.8989,optionRight,60,3385,2,22,0,22,0,1,,,,,,,,,,,,,,,,,,,,,,,,,,,,,,,,,,,,,,,
,,,,,,,,2023-08-16_08h51.45.006,HF_wild_card,2022.2.4,MacIntel,59.99880002,5956697216b84c00012b9e72,64d2fd46c836a06233681665,64dc7de2b81681ffc42ae982,,,,,,,ctch,resources/DB.BMP,resources/DY.BMP,Door3,0.394744331,-0.019581434,1,0,0,1.0316,optionRight,70,3455,2,23,0,23,0,1,,,,,,,,,,,,,,,,,,,,,,,,,,,,,,,,,,,,,,,
,,,,,,,,2023-08-16_08h51.45.006,HF_wild_card,2022.2.4,MacIntel,59.99880002,5956697216b84c00012b9e72,64d2fd46c836a06233681665,64dc7de2b81681ffc42ae982,,,,,,,decisionTrl,resources/DY.BMP,resources/DR.BMP,Door3,-0.446553175,0.011514621,1,0,0,1.1137,optionLeft,70,3525,2,24,0,24,0,1,,,,,,,,,,,,,,,,,,,,,,,,,,,,,,,,,,,,,,,
,,,,,,,,2023-08-16_08h51.45.006,HF_wild_card,2022.2.4,MacIntel,59.99880002,5956697216b84c00012b9e72,64d2fd46c836a06233681665,64dc7de2b81681ffc42ae982,,,,,,,ctch,resources/DY.BMP,resources/DB.BMP,Door3,-0.378843146,0.02312873,1,0,0,0.814,optionLeft,70,3595,2,25,0,25,0,1,,,,,,,,,,,,,,,,,,,,,,,,,,,,,,,,,,,,,,,
,,,,,,,,2023-08-16_08h51.45.006,HF_wild_card,2022.2.4,MacIntel,59.99880002,5956697216b84c00012b9e72,64d2fd46c836a06233681665,64dc7de2b81681ffc42ae982,,,,,,,decisionTrl,resources/DBN.BMP,resources/DR.BMP,WildCard_Ex,-0.324622328,0.015281915,1,0,0,1.6303,optionLeft,95,3690,2,26,0,26,0,1,,,,,,,,,,,,,,,,,,,,,,,,,,,,,,,,,,,,,,,
,,,,,,,,2023-08-16_08h51.45.006,HF_wild_card,2022.2.4,MacIntel,59.99880002,5956697216b84c00012b9e72,64d2fd46c836a06233681665,64dc7de2b81681ffc42ae982,,,,,,,ctch,resources/DG.BMP,resources/DR.BMP,Door4,0.461550971,-0.022470432,1,0,0,1.6301,optionRight,60,3750,2,27,0,27,0,1,,,,,,,,,,,,,,,,,,,,,,,,,,,,,,,,,,,,,,,
,,,,,,,,2023-08-16_08h51.45.006,HF_wild_card,2022.2.4,MacIntel,59.99880002,5956697216b84c00012b9e72,64d2fd46c836a06233681665,64dc7de2b81681ffc42ae982,,,,,,,sngl,resources/Empty.png,resources/DR.BMP,Door4,0.52994873,-0.006173299,1,0,0,0.8489,optionRight,80,3830,2,28,0,28,0,1,,,,,,,,,,,,,,,,,,,,,,,,,,,,,,,,,,,,,,,
,,,,,,,,2023-08-16_08h51.45.006,HF_wild_card,2022.2.4,MacIntel,59.99880002,5956697216b84c00012b9e72,64d2fd46c836a06233681665,64dc7de2b81681ffc42ae982,,,,,,,decisionTrl,resources/DR.BMP,resources/DY.BMP,Door3,0.439174533,-0.03479187,1,0,0,1.3473,optionRight,70,3900,2,29,0,29,0,1,,,,,,,,,,,,,,,,,,,,,,,,,,,,,,,,,,,,,,,
,,,,,,,,2023-08-16_08h51.45.006,HF_wild_card,2022.2.4,MacIntel,59.99880002,5956697216b84c00012b9e72,64d2fd46c836a06233681665,64dc7de2b81681ffc42ae982,,,,,,,decisionTrl,resources/DBN.BMP,resources/DG.BMP,WildCard_Ex,-0.332495015,0.041570299,1,0,0,1.1132,optionLeft,95,3995,2,30,0,30,0,1,,,,,,,,,,,,,,,,,,,,,,,,,,,,,,,,,,,,,,,
,,,,,,,,2023-08-16_08h51.45.006,HF_wild_card,2022.2.4,MacIntel,59.99880002,5956697216b84c00012b9e72,64d2fd46c836a06233681665,64dc7de2b81681ffc42ae982,,,,,,,sngl,resources/Empty.png,resources/DB.BMP,Door2,0.370255805,0.025457086,1,0,0,1.4818,optionRight,40,4035,2,31,0,31,0,1,,,,,,,,,,,,,,,,,,,,,,,,,,,,,,,,,,,,,,,
,,,,,,,,2023-08-16_08h51.45.006,HF_wild_card,2022.2.4,MacIntel,59.99880002,5956697216b84c00012b9e72,64d2fd46c836a06233681665,64dc7de2b81681ffc42ae982,,,,,,,sngl,resources/DR.BMP,resources/Empty.png,Door4,-0.389690993,-0.011187371,1,0,0,1.2805,optionLeft,60,4095,2,32,0,32,0,1,,,,,,,,,,,,,,,,,,,,,,,,,,,,,,,,,,,,,,,
,,,,,,,,2023-08-16_08h51.45.006,HF_wild_card,2022.2.4,MacIntel,59.99880002,5956697216b84c00012b9e72,64d2fd46c836a06233681665,64dc7de2b81681ffc42ae982,,,,,,,decisionTrl,resources/DG.BMP,resources/DB.BMP,Door1,-0.48781172,-0.014454787,1,0,0,1.3461,optionLeft,30,4125,2,33,0,33,0,1,,,,,,,,,,,,,,,,,,,,,,,,,,,,,,,,,,,,,,,
,,,,,,,,2023-08-16_08h51.45.006,HF_wild_card,2022.2.4,MacIntel,59.99880002,5956697216b84c00012b9e72,64d2fd46c836a06233681665,64dc7de2b81681ffc42ae982,,,,,,,sngl,resources/Empty.png,resources/DG.BMP,Door1,0.45168335,-0.050051643,1,0,0,0.8634,optionRight,30,4155,2,34,0,34,0,1,,,,,,,,,,,,,,,,,,,,,,,,,,,,,,,,,,,,,,,
,,,,,,,,2023-08-16_08h51.45.006,HF_wild_card,2022.2.4,MacIntel,59.99880002,5956697216b84c00012b9e72,64d2fd46c836a06233681665,64dc7de2b81681ffc42ae982,,,,,,,sngl,resources/DBN.BMP,resources/Empty.png,WildCard_Ex,-0.396732924,0.012111816,1,0,0,0.8005,optionLeft,5,4160,2,35,0,35,0,1,,,,,,,,,,,,,,,,,,,,,,,,,,,,,,,,,,,,,,,
,,,,,,,,2023-08-16_08h51.45.006,HF_wild_card,2022.2.4,MacIntel,59.99880002,5956697216b84c00012b9e72,64d2fd46c836a06233681665,64dc7de2b81681ffc42ae982,,,,,,,sngl,resources/DBN.BMP,resources/Empty.png,WildCard_Ex,-0.368507724,0.021379666,1,0,0,0.8805,optionLeft,95,4255,2,36,0,36,0,1,,,,,,,,,,,,,,,,,,,,,,,,,,,,,,,,,,,,,,,
,,,,,,,,2023-08-16_08h51.45.006,HF_wild_card,2022.2.4,MacIntel,59.99880002,5956697216b84c00012b9e72,64d2fd46c836a06233681665,64dc7de2b81681ffc42ae982,,,,,,,ctch,resources/DG.BMP,resources/DR.BMP,Door4,0.299982978,-0.021064453,1,0,0,2.5942,optionRight,60,4315,2,37,0,37,0,1,,,,,,,,,,,,,,,,,,,,,,,,,,,,,,,,,,,,,,,
,,,,,,,,2023-08-16_08h51.45.006,HF_wild_card,2022.2.4,MacIntel,59.99880002,5956697216b84c00012b9e72,64d2fd46c836a06233681665,64dc7de2b81681ffc42ae982,,,,,,,decisionTrl,resources/DB.BMP,resources/DG.BMP,Door1,0.445168593,-0.007238091,1,0,0,1.1483,optionRight,30,4345,2,38,0,38,0,1,,,,,,,,,,,,,,,,,,,,,,,,,,,,,,,,,,,,,,,
,,,,,,,,2023-08-16_08h51.45.006,HF_wild_card,2022.2.4,MacIntel,59.99880002,5956697216b84c00012b9e72,64d2fd46c836a06233681665,64dc7de2b81681ffc42ae982,,,,,,,decisionTrl,resources/DR.BMP,resources/DY.BMP,Door3,0.398254395,0.005684747,1,0,0,0.9649,optionRight,70,4415,2,39,0,39,0,1,,,,,,,,,,,,,,,,,,,,,,,,,,,,,,,,,,,,,,,
,,,,,,,,2023-08-16_08h51.45.006,HF_wild_card,2022.2.4,MacIntel,59.99880002,5956697216b84c00012b9e72,64d2fd46c836a06233681665,64dc7de2b81681ffc42ae982,,,,,,,decisionTrl,resources/DB.BMP,resources/DBN.BMP,WildCard_Ex,0.426791314,-0.004417487,1,0,0,1.1658,optionRight,95,4510,2,40,0,40,0,1,,,,,,,,,,,,,,,,,,,,,,,,,,,,,,,,,,,,,,,
,,,,,,,,2023-08-16_08h51.45.006,HF_wild_card,2022.2.4,MacIntel,59.99880002,5956697216b84c00012b9e72,64d2fd46c836a06233681665,64dc7de2b81681ffc42ae982,,,,,,,ctch,resources/DR.BMP,resources/DG.BMP,Door4,-0.32750963,0.007026537,1,0,0,2.0634,optionLeft,80,4590,2,41,0,41,0,1,,,,,,,,,,,,,,,,,,,,,,,,,,,,,,,,,,,,,,,
,,,,,,,,2023-08-16_08h51.45.006,HF_wild_card,2022.2.4,MacIntel,59.99880002,5956697216b84c00012b9e72,64d2fd46c836a06233681665,64dc7de2b81681ffc42ae982,,,,,,,decisionTrl,resources/DR.BMP,resources/DBN.BMP,WildCard_Ex,0.26828064,0.035637173,1,0,0,1.781,optionRight,5,4595,2,42,0,42,0,1,,,,,,,,,,,,,,,,,,,,,,,,,,,,,,,,,,,,,,,
,,,,,,,,2023-08-16_08h51.45.006,HF_wild_card,2022.2.4,MacIntel,59.99880002,5956697216b84c00012b9e72,64d2fd46c836a06233681665,64dc7de2b81681ffc42ae982,,,,,,,ctch,resources/DR.BMP,resources/DG.BMP,Door4,-0.383452488,-0.008579034,1,0,0,1.0487,optionLeft,80,4675,2,43,0,43,0,1,,,,,,,,,,,,,,,,,,,,,,,,,,,,,,,,,,,,,,,
,,,,,,,,2023-08-16_08h51.45.006,HF_wild_card,2022.2.4,MacIntel,59.99880002,5956697216b84c00012b9e72,64d2fd46c836a06233681665,64dc7de2b81681ffc42ae982,,,,,,,,,,,,,,,,,,,,,,,,,,1,0,1,0,1,,,,,,,,,,,,,,,,,,,,,,,,,,,,,,,,,,
,,,,,,,,2023-08-16_08h51.45.006,HF_wild_card,2022.2.4,MacIntel,59.99880002,5956697216b84c00012b9e72,64d2fd46c836a06233681665,64dc7de2b81681ffc42ae982,,,,,,,sngl,resources/Empty.png,resources/DY.BMP,Door3,0.472173665,0.000496453,1,0,0,0.9987,optionRight,70,4745,3,0,0,0,0,1,,,,,,,,,,,,,,,,,,,,,,,,,,,,,,,,,,,,,,,
,,,,,,,,2023-08-16_08h51.45.006,HF_wild_card,2022.2.4,MacIntel,59.99880002,5956697216b84c00012b9e72,64d2fd46c836a06233681665,64dc7de2b81681ffc42ae982,,,,,,,decisionTrl,resources/DY.BMP,resources/DR.BMP,Door3,-0.300115424,-0.040185954,1,0,0,1.3817,optionLeft,70,4815,3,1,0,1,0,1,,,,,,,,,,,,,,,,,,,,,,,,,,,,,,,,,,,,,,,
,,,,,,,,2023-08-16_08h51.45.006,HF_wild_card,2022.2.4,MacIntel,59.99880002,5956697216b84c00012b9e72,64d2fd46c836a06233681665,64dc7de2b81681ffc42ae982,,,,,,,decisionTrl,resources/DG.BMP,resources/DB.BMP,Door1,-0.474050971,-0.018919305,1,0,0,1.3959,optionLeft,30,4845,3,2,0,2,0,1,,,,,,,,,,,,,,,,,,,,,,,,,,,,,,,,,,,,,,,
,,,,,,,,2023-08-16_08h51.45.006,HF_wild_card,2022.2.4,MacIntel,59.99880002,5956697216b84c00012b9e72,64d2fd46c836a06233681665,64dc7de2b81681ffc42ae982,,,,,,,decisionTrl,resources/DR.BMP,resources/DBN.BMP,WildCard_Ex,0.409236518,0.042249959,1,0,0,1.0631,optionRight,95,4940,3,3,0,3,0,1,,,,,,,,,,,,,,,,,,,,,,,,,,,,,,,,,,,,,,,
,,,,,,,,2023-08-16_08h51.45.006,HF_wild_card,2022.2.4,MacIntel,59.99880002,5956697216b84c00012b9e72,64d2fd46c836a06233681665,64dc7de2b81681ffc42ae982,,,,,,,decisionTrl,resources/DB.BMP,resources/DBN.BMP,Door2,-0.306009555,-0.004411011,1,0,0,1.4991,optionLeft,20,4960,3,4,0,4,0,1,,,,,,,,,,,,,,,,,,,,,,,,,,,,,,,,,,,,,,,
,,,,,,,,2023-08-16_08h51.45.006,HF_wild_card,2022.2.4,MacIntel,59.99880002,5956697216b84c00012b9e72,64d2fd46c836a06233681665,64dc7de2b81681ffc42ae982,,,,,,,sngl,resources/DG.BMP,resources/Empty.png,Door1,-0.496189202,-0.030638699,1,0,0,1.181,optionLeft,30,4990,3,5,0,5,0,1,,,,,,,,,,,,,,,,,,,,,,,,,,,,,,,,,,,,,,,
,,,,,,,,2023-08-16_08h51.45.006,HF_wild_card,2022.2.4,MacIntel,59.99880002,5956697216b84c00012b9e72,64d2fd46c836a06233681665,64dc7de2b81681ffc42ae982,,,,,,,decisionTrl,resources/DG.BMP,resources/DB.BMP,Door1,-0.457675985,0.012972073,1,0,0,1.4158,optionLeft,30,5020,3,6,0,6,0,1,,,,,,,,,,,,,,,,,,,,,,,,,,,,,,,,,,,,,,,
,,,,,,,,2023-08-16_08h51.45.006,HF_wild_card,2022.2.4,MacIntel,59.99880002,5956697216b84c00012b9e72,64d2fd46c836a06233681665,64dc7de2b81681ffc42ae982,,,,,,,decisionTrl,resources/DR.BMP,resources/DY.BMP,Door3,0.480503608,0.016958788,1,0,0,0.8614,optionRight,70,5090,3,7,0,7,0,1,,,,,,,,,,,,,,,,,,,,,,,,,,,,,,,,,,,,,,,
,,,,,,,,2023-08-16_08h51.45.006,HF_wild_card,2022.2.4,MacIntel,59.99880002,5956697216b84c00012b9e72,64d2fd46c836a06233681665,64dc7de2b81681ffc42ae982,,,,,,,decisionTrl,resources/DR.BMP,resources/DY.BMP,Door4,-0.368746406,0.015737678,1,0,0,0.9318,optionLeft,80,5170,3,8,0,8,0,1,,,,,,,,,,,,,,,,,,,,,,,,,,,,,,,,,,,,,,,
,,,,,,,,2023-08-16_08h51.45.006,HF_wild_card,2022.2.4,MacIntel,59.99880002,5956697216b84c00012b9e72,64d2fd46c836a06233681665,64dc7de2b81681ffc42ae982,,,,,,,decisionTrl,resources/DY.BMP,resources/DBN.BMP,WildCard_Ex,0.444697944,0.002922499,1,0,0,1.1461,optionRight,5,5175,3,9,0,9,0,1,,,,,,,,,,,,,,,,,,,,,,,,,,,,,,,,,,,,,,,
,,,,,,,,2023-08-16_08h51.45.006,HF_wild_card,2022.2.4,MacIntel,59.99880002,5956697216b84c00012b9e72,64d2fd46c836a06233681665,64dc7de2b81681ffc42ae982,,,,,,,ctch,resources/DG.BMP,resources/DR.BMP,Door4,0.38905287,-0.022177497,1,0,0,1.6641,optionRight,80,5255,3,10,0,10,0,1,,,,,,,,,,,,,,,,,,,,,,,,,,,,,,,,,,,,,,,
,,,,,,,,2023-08-16_08h51.45.006,HF_wild_card,2022.2.4,MacIntel,59.99880002,5956697216b84c00012b9e72,64d2fd46c836a06233681665,64dc7de2b81681ffc42ae982,,,,,,,sngl,resources/Empty.png,resources/DR.BMP,Door4,0.531576335,-0.035866394,1,0,0,0.8315,optionRight,60,5315,3,11,0,11,0,1,,,,,,,,,,,,,,,,,,,,,,,,,,,,,,,,,,,,,,,
,,,,,,,,2023-08-16_08h51.45.006,HF_wild_card,2022.2.4,MacIntel,59.99880002,5956697216b84c00012b9e72,64d2fd46c836a06233681665,64dc7de2b81681ffc42ae982,,,,,,,decisionTrl,resources/DR.BMP,resources/DY.BMP,Door3,0.227909003,0.017089912,1,0,0,1.9168,optionRight,70,5385,3,12,0,12,0,1,,,,,,,,,,,,,,,,,,,,,,,,,,,,,,,,,,,,,,,
,,,,,,,,2023-08-16_08h51.45.006,HF_wild_card,2022.2.4,MacIntel,59.99880002,5956697216b84c00012b9e72,64d2fd46c836a06233681665,64dc7de2b81681ffc42ae982,,,,,,,decisionTrl,resources/DR.BMP,resources/DY.BMP,Door4,-0.377350769,-0.001641914,1,0,0,0.5825,optionLeft,80,5465,3,13,0,13,0,1,,,,,,,,,,,,,,,,,,,,,,,,,,,,,,,,,,,,,,,
,,,,,,,,2023-08-16_08h51.45.006,HF_wild_card,2022.2.4,MacIntel,59.99880002,5956697216b84c00012b9e72,64d2fd46c836a06233681665,64dc7de2b81681ffc42ae982,,,,,,,sngl,resources/Empty.png,resources/DB.BMP,Door2,0.401194661,-0.050596924,1,0,0,0.9501,optionRight,20,5485,3,14,0,14,0,1,,,,,,,,,,,,,,,,,,,,,,,,,,,,,,,,,,,,,,,
,,,,,,,,2023-08-16_08h51.45.006,HF_wild_card,2022.2.4,MacIntel,59.99880002,5956697216b84c00012b9e72,64d2fd46c836a06233681665,64dc7de2b81681ffc42ae982,,,,,,,ctch,resources/DY.BMP,resources/DB.BMP,Door3,-0.516710307,-0.034213901,1,0,0,3.8627,optionLeft,70,5555,3,15,0,15,0,1,,,,,,,,,,,,,,,,,,,,,,,,,,,,,,,,,,,,,,,
,,,,,,,,2023-08-16_08h51.45.006,HF_wild_card,2022.2.4,MacIntel,59.99880002,5956697216b84c00012b9e72,64d2fd46c836a06233681665,64dc7de2b81681ffc42ae982,,,,,,,decisionTrl,resources/DB.BMP,resources/DG.BMP,Door1,0.4380051,-0.075097249,1,0,0,0.9801,optionRight,30,5585,3,16,0,16,0,1,,,,,,,,,,,,,,,,,,,,,,,,,,,,,,,,,,,,,,,
,,,,,,,,2023-08-16_08h51.45.006,HF_wild_card,2022.2.4,MacIntel,59.99880002,5956697216b84c00012b9e72,64d2fd46c836a06233681665,64dc7de2b81681ffc42ae982,,,,,,,decisionTrl,resources/DG.BMP,resources/DB.BMP,Door2,0.497575412,-0.033196343,1,0,0,1.161,optionRight,20,5605,3,17,0,17,0,1,,,,,,,,,,,,,,,,,,,,,,,,,,,,,,,,,,,,,,,
,,,,,,,,2023-08-16_08h51.45.006,HF_wild_card,2022.2.4,MacIntel,59.99880002,5956697216b84c00012b9e72,64d2fd46c836a06233681665,64dc7de2b81681ffc42ae982,,,,,,,decisionTrl,resources/DB.BMP,resources/DG.BMP,Door1,0.37439426,-0.004199829,1,0,0,1.1816,optionRight,30,5635,3,18,0,18,0,1,,,,,,,,,,,,,,,,,,,,,,,,,,,,,,,,,,,,,,,
,,,,,,,,2023-08-16_08h51.45.006,HF_wild_card,2022.2.4,MacIntel,59.99880002,5956697216b84c00012b9e72,64d2fd46c836a06233681665,64dc7de2b81681ffc42ae982,,,,,,,decisionTrl,resources/DY.BMP,resources/DR.BMP,Door4,0.379277479,-0.058227946,1,0,0,1.4981,optionRight,80,5715,3,19,0,19,0,1,,,,,,,,,,,,,,,,,,,,,,,,,,,,,,,,,,,,,,,
,,,,,,,,2023-08-16_08h51.45.006,HF_wild_card,2022.2.4,MacIntel,59.99880002,5956697216b84c00012b9e72,64d2fd46c836a06233681665,64dc7de2b81681ffc42ae982,,,,,,,decisionTrl,resources/DBN.BMP,resources/DY.BMP,WildCard_Ex,-0.430738491,0.065097724,1,0,0,1.5302,optionLeft,5,5720,3,20,0,20,0,1,,,,,,,,,,,,,,,,,,,,,,,,,,,,,,,,,,,,,,,
,,,,,,,,2023-08-16_08h51.45.006,HF_wild_card,2022.2.4,MacIntel,59.99880002,5956697216b84c00012b9e72,64d2fd46c836a06233681665,64dc7de2b81681ffc42ae982,,,,,,,sngl,resources/DB.BMP,resources/Empty.png,Door2,-0.411685079,0.047205471,1,0,0,0.9805,optionLeft,40,5760,3,21,0,21,0,1,,,,,,,,,,,,,,,,,,,,,,,,,,,,,,,,,,,,,,,
,,,,,,,,2023-08-16_08h51.45.006,HF_wild_card,2022.2.4,MacIntel,59.99880002,5956697216b84c00012b9e72,64d2fd46c836a06233681665,64dc7de2b81681ffc42ae982,,,,,,,ctch,resources/DB.BMP,resources/DY.BMP,Door3,0.387397732,-0.050530836,1,0,0,1.1647,optionRight,70,5830,3,22,0,22,0,1,,,,,,,,,,,,,,,,,,,,,,,,,,,,,,,,,,,,,,,
,,,,,,,,2023-08-16_08h51.45.006,HF_wild_card,2022.2.4,MacIntel,59.99880002,5956697216b84c00012b9e72,64d2fd46c836a06233681665,64dc7de2b81681ffc42ae982,,,,,,,sngl,resources/DR.BMP,resources/Empty.png,Door4,-0.426430257,0.020079312,1,0,0,0.7347,optionLeft,80,5910,3,23,0,23,0,1,,,,,,,,,,,,,,,,,,,,,,,,,,,,,,,,,,,,,,,
,,,,,,,,2023-08-16_08h51.45.006,HF_wild_card,2022.2.4,MacIntel,59.99880002,5956697216b84c00012b9e72,64d2fd46c836a06233681665,64dc7de2b81681ffc42ae982,,,,,,,decisionTrl,resources/DY.BMP,resources/DR.BMP,Door4,0.434483371,-0.006417033,1,0,0,1.7472,optionRight,80,5990,3,24,0,24,0,1,,,,,,,,,,,,,,,,,,,,,,,,,,,,,,,,,,,,,,,
,,,,,,,,2023-08-16_08h51.45.006,HF_wild_card,2022.2.4,MacIntel,59.99880002,5956697216b84c00012b9e72,64d2fd46c836a06233681665,64dc7de2b81681ffc42ae982,,,,,,,ctch,resources/DG.BMP,resources/DR.BMP,Door4,0.396297336,-0.002674628,1,0,0,1.0095,optionRight,80,6070,3,25,0,25,0,1,,,,,,,,,,,,,,,,,,,,,,,,,,,,,,,,,,,,,,,
,,,,,,,,2023-08-16_08h51.45.006,HF_wild_card,2022.2.4,MacIntel,59.99880002,5956697216b84c00012b9e72,64d2fd46c836a06233681665,64dc7de2b81681ffc42ae982,,,,,,,decisionTrl,resources/DG.BMP,resources/DBN.BMP,WildCard_Ex,0.449366591,-0.028475206,1,0,0,1.3318,optionRight,5,6075,3,26,0,26,0,1,,,,,,,,,,,,,,,,,,,,,,,,,,,,,,,,,,,,,,,
,,,,,,,,2023-08-16_08h51.45.006,HF_wild_card,2022.2.4,MacIntel,59.99880002,5956697216b84c00012b9e72,64d2fd46c836a06233681665,64dc7de2b81681ffc42ae982,,,,,,,decisionTrl,resources/DB.BMP,resources/DG.BMP,Door1,0.433923611,-0.077630887,1,0,0,1.0309,optionRight,30,6105,3,27,0,27,0,1,,,,,,,,,,,,,,,,,,,,,,,,,,,,,,,,,,,,,,,
,,,,,,,,2023-08-16_08h51.45.006,HF_wild_card,2022.2.4,MacIntel,59.99880002,5956697216b84c00012b9e72,64d2fd46c836a06233681665,64dc7de2b81681ffc42ae982,,,,,,,decisionTrl,resources/DBN.BMP,resources/DG.BMP,Door1,0.352791884,-0.020037367,1,0,0,1.7314,optionRight,30,6135,3,28,0,28,0,1,,,,,,,,,,,,,,,,,,,,,,,,,,,,,,,,,,,,,,,
,,,,,,,,2023-08-16_08h51.45.006,HF_wild_card,2022.2.4,MacIntel,59.99880002,5956697216b84c00012b9e72,64d2fd46c836a06233681665,64dc7de2b81681ffc42ae982,,,,,,,sngl,resources/Empty.png,resources/DBN.BMP,WildCard_Ex,0.464998237,0.017155117,1,0,0,1.0638,optionRight,95,6230,3,29,0,29,0,1,,,,,,,,,,,,,,,,,,,,,,,,,,,,,,,,,,,,,,,
,,,,,,,,2023-08-16_08h51.45.006,HF_wild_card,2022.2.4,MacIntel,59.99880002,5956697216b84c00012b9e72,64d2fd46c836a06233681665,64dc7de2b81681ffc42ae982,,,,,,,sngl,resources/DY.BMP,resources/Empty.png,Door3,-0.391838786,0.008414239,1,0,0,0.9638,optionLeft,70,6300,3,30,0,30,0,1,,,,,,,,,,,,,,,,,,,,,,,,,,,,,,,,,,,,,,,
,,,,,,,,2023-08-16_08h51.45.006,HF_wild_card,2022.2.4,MacIntel,59.99880002,5956697216b84c00012b9e72,64d2fd46c836a06233681665,64dc7de2b81681ffc42ae982,,,,,,,ctch,resources/DR.BMP,resources/DG.BMP,Door4,-0.44436459,0.006087341,1,0,0,1.4137,optionLeft,80,6380,3,31,0,31,0,1,,,,,,,,,,,,,,,,,,,,,,,,,,,,,,,,,,,,,,,
,,,,,,,,2023-08-16_08h51.45.006,HF_wild_card,2022.2.4,MacIntel,59.99880002,5956697216b84c00012b9e72,64d2fd46c836a06233681665,64dc7de2b81681ffc42ae982,,,,,,,ctch,resources/DR.BMP,resources/DG.BMP,Door4,-0.422617594,0.01657864,1,0,0,0.8317,optionLeft,60,6440,3,32,0,32,0,1,,,,,,,,,,,,,,,,,,,,,,,,,,,,,,,,,,,,,,,
,,,,,,,,2023-08-16_08h51.45.006,HF_wild_card,2022.2.4,MacIntel,59.99880002,5956697216b84c00012b9e72,64d2fd46c836a06233681665,64dc7de2b81681ffc42ae982,,,,,,,sngl,resources/DBN.BMP,resources/Empty.png,WildCard_Ex,-0.404967685,0.056208496,1,0,0,0.8993,optionLeft,95,6535,3,33,0,33,0,1,,,,,,,,,,,,,,,,,,,,,,,,,,,,,,,,,,,,,,,
,,,,,,,,2023-08-16_08h51.45.006,HF_wild_card,2022.2.4,MacIntel,59.99880002,5956697216b84c00012b9e72,64d2fd46c836a06233681665,64dc7de2b81681ffc42ae982,,,,,,,decisionTrl,resources/DBN.BMP,resources/DB.BMP,Door2,0.448665365,-0.048392809,1,0,0,0.9819,optionRight,20,6555,3,34,0,34,0,1,,,,,,,,,,,,,,,,,,,,,,,,,,,,,,,,,,,,,,,
,,,,,,,,2023-08-16_08h51.45.006,HF_wild_card,2022.2.4,MacIntel,59.99880002,5956697216b84c00012b9e72,64d2fd46c836a06233681665,64dc7de2b81681ffc42ae982,,,,,,,sngl,resources/Empty.png,resources/DG.BMP,Door1,0.479151476,-0.037122938,1,0,0,0.8969,optionRight,30,6585,3,35,0,35,0,1,,,,,,,,,,,,,,,,,,,,,,,,,,,,,,,,,,,,,,,
,,,,,,,,2023-08-16_08h51.45.006,HF_wild_card,2022.2.4,MacIntel,59.99880002,5956697216b84c00012b9e72,64d2fd46c836a06233681665,64dc7de2b81681ffc42ae982,,,,,,,ctch,resources/DB.BMP,resources/DY.BMP,Door3,0.430338677,-0.022895304,1,0,0,1.1139,optionRight,70,6655,3,36,0,36,0,1,,,,,,,,,,,,,,,,,,,,,,,,,,,,,,,,,,,,,,,
,,,,,,,,2023-08-16_08h51.45.006,HF_wild_card,2022.2.4,MacIntel,59.99880002,5956697216b84c00012b9e72,64d2fd46c836a06233681665,64dc7de2b81681ffc42ae982,,,,,,,ctch,resources/DY.BMP,resources/DB.BMP,Door3,-0.257227512,0.021901245,1,0,0,1.6474,optionLeft,70,6725,3,37,0,37,0,1,,,,,,,,,,,,,,,,,,,,,,,,,,,,,,,,,,,,,,,
,,,,,,,,2023-08-16_08h51.45.006,HF_wild_card,2022.2.4,MacIntel,59.99880002,5956697216b84c00012b9e72,64d2fd46c836a06233681665,64dc7de2b81681ffc42ae982,,,,,,,decisionTrl,resources/DY.BMP,resources/DR.BMP,Door4,0.446131185,-0.026554294,1,0,0,1.4957,optionRight,60,6785,3,38,0,38,0,1,,,,,,,,,,,,,,,,,,,,,,,,,,,,,,,,,,,,,,,
,,,,,,,,2023-08-16_08h51.45.006,HF_wild_card,2022.2.4,MacIntel,59.99880002,5956697216b84c00012b9e72,64d2fd46c836a06233681665,64dc7de2b81681ffc42ae982,,,,,,,sngl,resources/Empty.png,resources/DBN.BMP,WildCard_Ex,0.445422635,0.02862481,1,0,0,0.9166,optionRight,5,6790,3,39,0,39,0,1,,,,,,,,,,,,,,,,,,,,,,,,,,,,,,,,,,,,,,,
,,,,,,,,2023-08-16_08h51.45.006,HF_wild_card,2022.2.4,MacIntel,59.99880002,5956697216b84c00012b9e72,64d2fd46c836a06233681665,64dc7de2b81681ffc42ae982,,,,,,,decisionTrl,resources/DG.BMP,resources/DB.BMP,Door1,-0.362402649,-0.000144382,1,0,0,1.1964,optionLeft,30,6820,3,40,0,40,0,1,,,,,,,,,,,,,,,,,,,,,,,,,,,,,,,,,,,,,,,
,,,,,,,,2023-08-16_08h51.45.006,HF_wild_card,2022.2.4,MacIntel,59.99880002,5956697216b84c00012b9e72,64d2fd46c836a06233681665,64dc7de2b81681ffc42ae982,,,,,,,decisionTrl,resources/DBN.BMP,resources/DR.BMP,WildCard_Ex,-0.430252041,0.024302843,1,0,0,1.997,optionLeft,95,6915,3,41,0,41,0,1,,,,,,,,,,,,,,,,,,,,,,,,,,,,,,,,,,,,,,,
,,,,,,,,2023-08-16_08h51.45.006,HF_wild_card,2022.2.4,MacIntel,59.99880002,5956697216b84c00012b9e72,64d2fd46c836a06233681665,64dc7de2b81681ffc42ae982,,,,,,,sngl,resources/DBN.BMP,resources/Empty.png,WildCard_Ex,-0.480102641,0.053182441,1,0,0,1.0306,optionLeft,5,6920,3,42,0,42,0,1,,,,,,,,,,,,,,,,,,,,,,,,,,,,,,,,,,,,,,,
,,,,,,,,2023-08-16_08h51.45.006,HF_wild_card,2022.2.4,MacIntel,59.99880002,5956697216b84c00012b9e72,64d2fd46c836a06233681665,64dc7de2b81681ffc42ae982,,,,,,,decisionTrl,resources/DB.BMP,resources/DG.BMP,Door2,-0.30138387,0.004641588,1,0,0,1.6331,optionLeft,40,6960,3,43,0,43,0,1,,,,,,,,,,,,,,,,,,,,,,,,,,,,,,,,,,,,,,,
,,,,,,,,2023-08-16_08h51.45.006,HF_wild_card,2022.2.4,MacIntel,59.99880002,5956697216b84c00012b9e72,64d2fd46c836a06233681665,64dc7de2b81681ffc42ae982,,,,,,,,,,,,,,,,,,,,,,,,,,2,0,2,0,1,,,,,,,,,,,,,,,,,,,,,,,,,,,,,,,,,,
,,,,,,,,2023-08-16_08h51.45.006,HF_wild_card,2022.2.4,MacIntel,59.99880002,5956697216b84c00012b9e72,64d2fd46c836a06233681665,64dc7de2b81681ffc42ae982,,,,,,,sngl,resources/DG.BMP,resources/Empty.png,Door1,-0.44000295,-0.009417996,1,0,0,0.935,optionLeft,30,6990,4,0,0,0,0,1,,,,,,,,,,,,,,,,,,,,,,,,,,,,,,,,,,,,,,,
,,,,,,,,2023-08-16_08h51.45.006,HF_wild_card,2022.2.4,MacIntel,59.99880002,5956697216b84c00012b9e72,64d2fd46c836a06233681665,64dc7de2b81681ffc42ae982,,,,,,,decisionTrl,resources/DB.BMP,resources/DG.BMP,Door2,-0.338023343,0.012749363,1,0,0,1.2966,optionLeft,40,7030,4,1,0,1,0,1,,,,,,,,,,,,,,,,,,,,,,,,,,,,,,,,,,,,,,,
,,,,,,,,2023-08-16_08h51.45.006,HF_wild_card,2022.2.4,MacIntel,59.99880002,5956697216b84c00012b9e72,64d2fd46c836a06233681665,64dc7de2b81681ffc42ae982,,,,,,,ctch,resources/DR.BMP,resources/DG.BMP,Door4,-0.377995572,0.069096239,1,0,0,1.4803,optionLeft,60,7090,4,2,0,2,0,1,,,,,,,,,,,,,,,,,,,,,,,,,,,,,,,,,,,,,,,
,,,,,,,,2023-08-16_08h51.45.006,HF_wild_card,2022.2.4,MacIntel,59.99880002,5956697216b84c00012b9e72,64d2fd46c836a06233681665,64dc7de2b81681ffc42ae982,,,,,,,sngl,resources/DP.BMP,resources/Empty.png,WildCard_NonEx,-0.391620483,0.017120327,1,0,0,1.5609,optionLeft,55,7145,4,3,0,3,0,1,,,,,,,,,,,,,,,,,,,,,,,,,,,,,,,,,,,,,,,
,,,,,,,,2023-08-16_08h51.45.006,HF_wild_card,2022.2.4,MacIntel,59.99880002,5956697216b84c00012b9e72,64d2fd46c836a06233681665,64dc7de2b81681ffc42ae982,,,,,,,ctch,resources/DY.BMP,resources/DB.BMP,Door3,-0.461612413,0.02837009,1,0,0,1.4136,optionLeft,70,7215,4,4,0,4,0,1,,,,,,,,,,,,,,,,,,,,,,,,,,,,,,,,,,,,,,,
,,,,,,,,2023-08-16_08h51.45.006,HF_wild_card,2022.2.4,MacIntel,59.99880002,5956697216b84c00012b9e72,64d2fd46c836a06233681665,64dc7de2b81681ffc42ae982,,,,,,,sngl,resources/Empty.png,resources/DY.BMP,Door3,0.51922838,0.040642768,1,0,0,0.8481,optionRight,70,7285,4,5,0,5,0,1,,,,,,,,,,,,,,,,,,,,,,,,,,,,,,,,,,,,,,,
,,,,,,,,2023-08-16_08h51.45.006,HF_wild_card,2022.2.4,MacIntel,59.99880002,5956697216b84c00012b9e72,64d2fd46c836a06233681665,64dc7de2b81681ffc42ae982,,,,,,,decisionTrl,resources/DY.BMP,resources/DR.BMP,Door4,0.446690403,-0.01203654,1,0,0,1.8127,optionRight,80,7365,4,6,0,6,0,1,,,,,,,,,,,,,,,,,,,,,,,,,,,,,,,,,,,,,,,
,,,,,,,,2023-08-16_08h51.45.006,HF_wild_card,2022.2.4,MacIntel,59.99880002,5956697216b84c00012b9e72,64d2fd46c836a06233681665,64dc7de2b81681ffc42ae982,,,,,,,decisionTrl,resources/DG.BMP,resources/DP.BMP,WildCard_NonEx,0.427943115,0.058713854,1,0,0,1.815,optionRight,45,7410,4,7,0,7,0,1,,,,,,,,,,,,,,,,,,,,,,,,,,,,,,,,,,,,,,,
,,,,,,,,2023-08-16_08h51.45.006,HF_wild_card,2022.2.4,MacIntel,59.99880002,5956697216b84c00012b9e72,64d2fd46c836a06233681665,64dc7de2b81681ffc42ae982,,,,,,,ctch,resources/DB.BMP,resources/DY.BMP,Door3,0.393996718,0.015460442,1,0,0,1.2159,optionRight,70,7480,4,8,0,8,0,1,,,,,,,,,,,,,,,,,,,,,,,,,,,,,,,,,,,,,,,
,,,,,,,,2023-08-16_08h51.45.006,HF_wild_card,2022.2.4,MacIntel,59.99880002,5956697216b84c00012b9e72,64d2fd46c836a06233681665,64dc7de2b81681ffc42ae982,,,,,,,decisionTrl,resources/DY.BMP,resources/DR.BMP,Door4,0.500690375,0.115238987,1,0,0,2.214,optionRight,80,7560,4,9,0,9,0,1,,,,,,,,,,,,,,,,,,,,,,,,,,,,,,,,,,,,,,,
,,,,,,,,2023-08-16_08h51.45.006,HF_wild_card,2022.2.4,MacIntel,59.99880002,5956697216b84c00012b9e72,64d2fd46c836a06233681665,64dc7de2b81681ffc42ae982,,,,,,,ctch,resources/DG.BMP,resources/DR.BMP,Door4,0.398059353,0.012446696,1,0,0,1.2627,optionRight,80,7640,4,10,0,10,0,1,,,,,,,,,,,,,,,,,,,,,,,,,,,,,,,,,,,,,,,
,,,,,,,,2023-08-16_08h51.45.006,HF_wild_card,2022.2.4,MacIntel,59.99880002,5956697216b84c00012b9e72,64d2fd46c836a06233681665,64dc7de2b81681ffc42ae982,,,,,,,decisionTrl,resources/DP.BMP,resources/DR.BMP,Door4,0.466245524,0.031874525,1,0,0,1.3847,optionRight,80,7720,4,11,0,11,0,1,,,,,,,,,,,,,,,,,,,,,,,,,,,,,,,,,,,,,,,
,,,,,,,,2023-08-16_08h51.45.006,HF_wild_card,2022.2.4,MacIntel,59.99880002,5956697216b84c00012b9e72,64d2fd46c836a06233681665,64dc7de2b81681ffc42ae982,,,,,,,decisionTrl,resources/DY.BMP,resources/DP.BMP,Door3,-0.506531033,0.143580322,1,0,0,1.5825,optionLeft,70,7790,4,12,0,12,0,1,,,,,,,,,,,,,,,,,,,,,,,,,,,,,,,,,,,,,,,
,,,,,,,,2023-08-16_08h51.45.006,HF_wild_card,2022.2.4,MacIntel,59.99880002,5956697216b84c00012b9e72,64d2fd46c836a06233681665,64dc7de2b81681ffc42ae982,,,,,,,decisionTrl,resources/DY.BMP,resources/DR.BMP,Door4,0.469978706,0.059627923,1,0,0,1.8808,optionRight,60,7850,4,13,0,13,0,1,,,,,,,,,,,,,,,,,,,,,,,,,,,,,,,,,,,,,,,
,,,,,,,,2023-08-16_08h51.45.006,HF_wild_card,2022.2.4,MacIntel,59.99880002,5956697216b84c00012b9e72,64d2fd46c836a06233681665,64dc7de2b81681ffc42ae982,,,,,,,sngl,resources/Empty.png,resources/DR.BMP,Door4,0.480103624,0.055760362,1,0,0,1.0951,optionRight,80,7930,4,14,0,14,0,1,,,,,,,,,,,,,,,,,,,,,,,,,,,,,,,,,,,,,,,
,,,,,,,,2023-08-16_08h51.45.006,HF_wild_card,2022.2.4,MacIntel,59.99880002,5956697216b84c00012b9e72,64d2fd46c836a06233681665,64dc7de2b81681ffc42ae982,,,,,,,sngl,resources/Empty.png,resources/DB.BMP,Door2,0.48122545,0.037919617,1,0,0,0.9966,optionRight,40,7970,4,15,0,15,0,1,,,,,,,,,,,,,,,,,,,,,,,,,,,,,,,,,,,,,,,
,,,,,,,,2023-08-16_08h51.45.006,HF_wild_card,2022.2.4,MacIntel,59.99880002,5956697216b84c00012b9e72,64d2fd46c836a06233681665,64dc7de2b81681ffc42ae982,,,,,,,decisionTrl,resources/DY.BMP,resources/DR.BMP,Door4,0.390056017,0.046432631,1,0,0,2.9656,optionRight,80,8050,4,16,0,16,0,1,,,,,,,,,,,,,,,,,,,,,,,,,,,,,,,,,,,,,,,
,,,,,,,,2023-08-16_08h51.45.006,HF_wild_card,2022.2.4,MacIntel,59.99880002,5956697216b84c00012b9e72,64d2fd46c836a06233681665,64dc7de2b81681ffc42ae982,,,,,,,sngl,resources/DB.BMP,resources/Empty.png,Door2,-0.375212368,0.085994364,1,0,0,0.8492,optionLeft,20,8070,4,17,0,17,0,1,,,,,,,,,,,,,,,,,,,,,,,,,,,,,,,,,,,,,,,
,,,,,,,,2023-08-16_08h51.45.006,HF_wild_card,2022.2.4,MacIntel,59.99880002,5956697216b84c00012b9e72,64d2fd46c836a06233681665,64dc7de2b81681ffc42ae982,,,,,,,decisionTrl,resources/DP.BMP,resources/DY.BMP,Door3,0.395930583,0.049806247,1,0,0,1.7466,optionRight,70,8140,4,18,0,18,0,1,,,,,,,,,,,,,,,,,,,,,,,,,,,,,,,,,,,,,,,
,,,,,,,,2023-08-16_08h51.45.006,HF_wild_card,2022.2.4,MacIntel,59.99880002,5956697216b84c00012b9e72,64d2fd46c836a06233681665,64dc7de2b81681ffc42ae982,,,,,,,decisionTrl,resources/DB.BMP,resources/DG.BMP,Door1,0.473948161,0.045142212,1,0,0,1.2617,optionRight,30,8170,4,19,0,19,0,1,,,,,,,,,,,,,,,,,,,,,,,,,,,,,,,,,,,,,,,
,,,,,,,,2023-08-16_08h51.45.006,HF_wild_card,2022.2.4,MacIntel,59.99880002,5956697216b84c00012b9e72,64d2fd46c836a06233681665,64dc7de2b81681ffc42ae982,,,,,,,decisionTrl,resources/DR.BMP,resources/DY.BMP,Door4,-0.426148343,0.075210368,1,0,0,1.0802,optionLeft,80,8250,4,20,0,20,0,1,,,,,,,,,,,,,,,,,,,,,,,,,,,,,,,,,,,,,,,
,,,,,,,,2023-08-16_08h51.45.006,HF_wild_card,2022.2.4,MacIntel,59.99880002,5956697216b84c00012b9e72,64d2fd46c836a06233681665,64dc7de2b81681ffc42ae982,,,,,,,decisionTrl,resources/DP.BMP,resources/DG.BMP,WildCard_NonEx,-0.354172024,0.069625651,1,0,0,2.3628,optionLeft,55,8305,4,21,0,21,0,1,,,,,,,,,,,,,,,,,,,,,,,,,,,,,,,,,,,,,,,
,,,,,,,,2023-08-16_08h51.45.006,HF_wild_card,2022.2.4,MacIntel,59.99880002,5956697216b84c00012b9e72,64d2fd46c836a06233681665,64dc7de2b81681ffc42ae982,,,,,,,ctch,resources/DR.BMP,resources/DG.BMP,Door4,-0.398061184,0.045689969,1,0,0,1.4298,optionLeft,80,8385,4,22,0,22,0,1,,,,,,,,,,,,,,,,,,,,,,,,,,,,,,,,,,,,,,,
,,,,,,,,2023-08-16_08h51.45.006,HF_wild_card,2022.2.4,MacIntel,59.99880002,5956697216b84c00012b9e72,64d2fd46c836a06233681665,64dc7de2b81681ffc42ae982,,,,,,,decisionTrl,resources/DB.BMP,resources/DG.BMP,Door1,0.531800537,0.145924072,1,0,0,0.829,optionRight,30,8415,4,23,0,23,0,1,,,,,,,,,,,,,,,,,,,,,,,,,,,,,,,,,,,,,,,
,,,,,,,,2023-08-16_08h51.45.006,HF_wild_card,2022.2.4,MacIntel,59.99880002,5956697216b84c00012b9e72,64d2fd46c836a06233681665,64dc7de2b81681ffc42ae982,,,,,,,decisionTrl,resources/DB.BMP,resources/DP.BMP,Door2,-0.446901788,0.063236287,1,0,0,0.8805,optionLeft,20,8435,4,24,0,24,0,1,,,,,,,,,,,,,,,,,,,,,,,,,,,,,,,,,,,,,,,
,,,,,,,,2023-08-16_08h51.45.006,HF_wild_card,2022.2.4,MacIntel,59.99880002,5956697216b84c00012b9e72,64d2fd46c836a06233681665,64dc7de2b81681ffc42ae982,,,,,,,sngl,resources/DR.BMP,resources/Empty.png,Door4,-0.396059401,0.059263238,1,0,0,0.815,optionLeft,60,8495,4,25,0,25,0,1,,,,,,,,,,,,,,,,,,,,,,,,,,,,,,,,,,,,,,,
,,,,,,,,2023-08-16_08h51.45.006,HF_wild_card,2022.2.4,MacIntel,59.99880002,5956697216b84c00012b9e72,64d2fd46c836a06233681665,64dc7de2b81681ffc42ae982,,,,,,,sngl,resources/Empty.png,resources/DP.BMP,WildCard_NonEx,0.44636461,0.074611545,1,0,0,0.7158,optionRight,45,8540,4,26,0,26,0,1,,,,,,,,,,,,,,,,,,,,,,,,,,,,,,,,,,,,,,,
,,,,,,,,2023-08-16_08h51.45.006,HF_wild_card,2022.2.4,MacIntel,59.99880002,5956697216b84c00012b9e72,64d2fd46c836a06233681665,64dc7de2b81681ffc42ae982,,,,,,,decisionTrl,resources/DR.BMP,resources/DY.BMP,Door3,0.486990017,0.038124729,1,0,0,1.2957,optionRight,70,8610,4,27,0,27,0,1,,,,,,,,,,,,,,,,,,,,,,,,,,,,,,,,,,,,,,,
,,,,,,,,2023-08-16_08h51.45.006,HF_wild_card,2022.2.4,MacIntel,59.99880002,5956697216b84c00012b9e72,64d2fd46c836a06233681665,64dc7de2b81681ffc42ae982,,,,,,,decisionTrl,resources/DG.BMP,resources/DB.BMP,Door1,-0.339210646,0.088142327,1,0,0,1.3307,optionLeft,30,8640,4,28,0,28,0,1,,,,,,,,,,,,,,,,,,,,,,,,,,,,,,,,,,,,,,,
,,,,,,,,2023-08-16_08h51.45.006,HF_wild_card,2022.2.4,MacIntel,59.99880002,5956697216b84c00012b9e72,64d2fd46c836a06233681665,64dc7de2b81681ffc42ae982,,,,,,,decisionTrl,resources/DG.BMP,resources/DB.BMP,Door2,0.397159153,0.053600566,1,0,0,0.8322,optionRight,20,8660,4,29,0,29,0,1,,,,,,,,,,,,,,,,,,,,,,,,,,,,,,,,,,,,,,,
,,,,,,,,2023-08-16_08h51.45.006,HF_wild_card,2022.2.4,MacIntel,59.99880002,5956697216b84c00012b9e72,64d2fd46c836a06233681665,64dc7de2b81681ffc42ae982,,,,,,,decisionTrl,resources/DG.BMP,resources/DB.BMP,Door1,-0.353348219,0.094734667,1,0,0,0.7654,optionLeft,30,8690,4,30,0,30,0,1,,,,,,,,,,,,,,,,,,,,,,,,,,,,,,,,,,,,,,,
,,,,,,,,2023-08-16_08h51.45.006,HF_wild_card,2022.2.4,MacIntel,59.99880002,5956697216b84c00012b9e72,64d2fd46c836a06233681665,64dc7de2b81681ffc42ae982,,,,,,,decisionTrl,resources/DG.BMP,resources/DB.BMP,Door1,-0.386860284,0.084361131,1,0,0,0.8634,optionLeft,30,8720,4,31,0,31,0,1,,,,,,,,,,,,,,,,,,,,,,,,,,,,,,,,,,,,,,,
,,,,,,,,2023-08-16_08h51.45.006,HF_wild_card,2022.2.4,MacIntel,59.99880002,5956697216b84c00012b9e72,64d2fd46c836a06233681665,64dc7de2b81681ffc42ae982,,,,,,,ctch,resources/DB.BMP,resources/DY.BMP,Door3,0.50226237,0.052712741,1,0,0,0.9838,optionRight,70,8790,4,32,0,32,0,1,,,,,,,,,,,,,,,,,,,,,,,,,,,,,,,,,,,,,,,
,,,,,,,,2023-08-16_08h51.45.006,HF_wild_card,2022.2.4,MacIntel,59.99880002,5956697216b84c00012b9e72,64d2fd46c836a06233681665,64dc7de2b81681ffc42ae982,,,,,,,sngl,resources/DP.BMP,resources/Empty.png,WildCard_NonEx,-0.33760376,0.139717916,1,0,0,0.831,optionLeft,45,8835,4,33,0,33,0,1,,,,,,,,,,,,,,,,,,,,,,,,,,,,,,,,,,,,,,,
,,,,,,,,2023-08-16_08h51.45.006,HF_wild_card,2022.2.4,MacIntel,59.99880002,5956697216b84c00012b9e72,64d2fd46c836a06233681665,64dc7de2b81681ffc42ae982,,,,,,,sngl,resources/Empty.png,resources/DP.BMP,WildCard_NonEx,0.52738539,0.100947876,1,0,0,0.7483,optionRight,55,8890,4,34,0,34,0,1,,,,,,,,,,,,,,,,,,,,,,,,,,,,,,,,,,,,,,,
,,,,,,,,2023-08-16_08h51.45.006,HF_wild_card,2022.2.4,MacIntel,59.99880002,5956697216b84c00012b9e72,64d2fd46c836a06233681665,64dc7de2b81681ffc42ae982,,,,,,,decisionTrl,resources/DR.BMP,resources/DY.BMP,Door3,0.444414469,0.070348409,1,0,0,1.1152,optionRight,70,8960,4,35,0,35,0,1,,,,,,,,,,,,,,,,,,,,,,,,,,,,,,,,,,,,,,,
,,,,,,,,2023-08-16_08h51.45.006,HF_wild_card,2022.2.4,MacIntel,59.99880002,5956697216b84c00012b9e72,64d2fd46c836a06233681665,64dc7de2b81681ffc42ae982,,,,,,,decisionTrl,resources/DR.BMP,resources/DY.BMP,Door4,-0.419366184,0.104686042,1,0,0,0.7301,optionLeft,60,9020,4,36,0,36,0,1,,,,,,,,,,,,,,,,,,,,,,,,,,,,,,,,,,,,,,,
,,,,,,,,2023-08-16_08h51.45.006,HF_wild_card,2022.2.4,MacIntel,59.99880002,5956697216b84c00012b9e72,64d2fd46c836a06233681665,64dc7de2b81681ffc42ae982,,,,,,,ctch,resources/DY.BMP,resources/DB.BMP,Door3,-0.382504747,0.095567356,1,0,0,1.0445,optionLeft,70,9090,4,37,0,37,0,1,,,,,,,,,,,,,,,,,,,,,,,,,,,,,,,,,,,,,,,
,,,,,,,,2023-08-16_08h51.45.006,HF_wild_card,2022.2.4,MacIntel,59.99880002,5956697216b84c00012b9e72,64d2fd46c836a06233681665,64dc7de2b81681ffc42ae982,,,,,,,decisionTrl,resources/DR.BMP,resources/DP.BMP,Door4,-0.426232978,0.134174262,1,0,0,1.4786,optionLeft,60,9150,4,38,0,38,0,1,,,,,,,,,,,,,,,,,,,,,,,,,,,,,,,,,,,,,,,
,,,,,,,,2023-08-16_08h51.45.006,HF_wild_card,2022.2.4,MacIntel,59.99880002,5956697216b84c00012b9e72,64d2fd46c836a06233681665,64dc7de2b81681ffc42ae982,,,,,,,ctch,resources/DG.BMP,resources/DR.BMP,Door4,0.500413005,0.007338901,1,0,0,1.4818,optionRight,60,9210,4,39,0,39,0,1,,,,,,,,,,,,,,,,,,,,,,,,,,,,,,,,,,,,,,,
,,,,,,,,2023-08-16_08h51.45.006,HF_wild_card,2022.2.4,MacIntel,59.99880002,5956697216b84c00012b9e72,64d2fd46c836a06233681665,64dc7de2b81681ffc42ae982,,,,,,,decisionTrl,resources/DB.BMP,resources/DG.BMP,Door1,0.509688449,0.0375511,1,0,0,2.3639,optionRight,30,9240,4,40,0,40,0,1,,,,,,,,,,,,,,,,,,,,,,,,,,,,,,,,,,,,,,,
,,,,,,,,2023-08-16_08h51.45.006,HF_wild_card,2022.2.4,MacIntel,59.99880002,5956697216b84c00012b9e72,64d2fd46c836a06233681665,64dc7de2b81681ffc42ae982,,,,,,,sngl,resources/Empty.png,resources/DG.BMP,Door1,0.520420736,0.080790846,1,0,0,0.9143,optionRight,30,9270,4,41,0,41,0,1,,,,,,,,,,,,,,,,,,,,,,,,,,,,,,,,,,,,,,,
,,,,,,,,2023-08-16_08h51.45.006,HF_wild_card,2022.2.4,MacIntel,59.99880002,5956697216b84c00012b9e72,64d2fd46c836a06233681665,64dc7de2b81681ffc42ae982,,,,,,,decisionTrl,resources/DP.BMP,resources/DB.BMP,Door2,0.467222629,0.057135281,1,0,0,1.8145,optionRight,40,9310,4,42,0,42,0,1,,,,,,,,,,,,,,,,,,,,,,,,,,,,,,,,,,,,,,,
,,,,,,,,2023-08-16_08h51.45.006,HF_wild_card,2022.2.4,MacIntel,59.99880002,5956697216b84c00012b9e72,64d2fd46c836a06233681665,64dc7de2b81681ffc42ae982,,,,,,,sngl,resources/DY.BMP,resources/Empty.png,Door3,-0.441834344,0.080728285,1,0,0,0.8131,optionLeft,70,9380,4,43,0,43,0,1,,,,,,,,,,,,,,,,,,,,,,,,,,,,,,,,,,,,,,,
,,,,,,,,2023-08-16_08h51.45.006,HF_wild_card,2022.2.4,MacIntel,59.99880002,5956697216b84c00012b9e72,64d2fd46c836a06233681665,64dc7de2b81681ffc42ae982,,,,,,,,,,,,,,,,,,,,,,,,,,3,0,3,0,1,,,,,,,,,,,,,,,,,,,,,,,,,,,,,,,,,,
,,,,,,,,2023-08-16_08h51.45.006,HF_wild_card,2022.2.4,MacIntel,59.99880002,5956697216b84c00012b9e72,64d2fd46c836a06233681665,64dc7de2b81681ffc42ae982,,,,,,,ctch,resources/DB.BMP,resources/DY.BMP,Door3,0.436445448,0.111520148,1,0,0,1.731,optionRight,70,9450,5,0,0,0,0,1,,,,,,,,,,,,,,,,,,,,,,,,,,,,,,,,,,,,,,,
,,,,,,,,2023-08-16_08h51.45.006,HF_wild_card,2022.2.4,MacIntel,59.99880002,5956697216b84c00012b9e72,64d2fd46c836a06233681665,64dc7de2b81681ffc42ae982,,,,,,,decisionTrl,resources/DR.BMP,resources/DY.BMP,Door4,-0.37169593,0.106394348,1,0,0,1.6327,optionLeft,80,9530,5,1,0,1,0,1,,,,,,,,,,,,,,,,,,,,,,,,,,,,,,,,,,,,,,,
,,,,,,,,2023-08-16_08h51.45.006,HF_wild_card,2022.2.4,MacIntel,59.99880002,5956697216b84c00012b9e72,64d2fd46c836a06233681665,64dc7de2b81681ffc42ae982,,,,,,,sngl,resources/DY.BMP,resources/Empty.png,Door3,-0.411247118,0.104945882,1,0,0,0.7968,optionLeft,70,9600,5,2,0,2,0,1,,,,,,,,,,,,,,,,,,,,,,,,,,,,,,,,,,,,,,,
,,,,,,,,2023-08-16_08h51.45.006,HF_wild_card,2022.2.4,MacIntel,59.99880002,5956697216b84c00012b9e72,64d2fd46c836a06233681665,64dc7de2b81681ffc42ae982,,,,,,,decisionTrl,resources/DY.BMP,resources/DR.BMP,Door4,0.419395616,0.094196031,1,0,0,1.6668,optionRight,60,9660,5,3,0,3,0,1,,,,,,,,,,,,,,,,,,,,,,,,,,,,,,,,,,,,,,,
,,,,,,,,2023-08-16_08h51.45.006,HF_wild_card,2022.2.4,MacIntel,59.99880002,5956697216b84c00012b9e72,64d2fd46c836a06233681665,64dc7de2b81681ffc42ae982,,,,,,,sngl,resources/DB.BMP,resources/Empty.png,Door2,-0.364779561,0.124315626,1,0,0,0.7993,optionLeft,40,9700,5,4,0,4,0,1,,,,,,,,,,,,,,,,,,,,,,,,,,,,,,,,,,,,,,,
,,,,,,,,2023-08-16_08h51.45.006,HF_wild_card,2022.2.4,MacIntel,59.99880002,5956697216b84c00012b9e72,64d2fd46c836a06233681665,64dc7de2b81681ffc42ae982,,,,,,,decisionTrl,resources/DG.BMP,resources/DB.BMP,Door1,-0.412298448,0.137494303,1,0,0,1.365,optionLeft,30,9730,5,5,0,5,0,1,,,,,,,,,,,,,,,,,,,,,,,,,,,,,,,,,,,,,,,
,,,,,,,,2023-08-16_08h51.45.006,HF_wild_card,2022.2.4,MacIntel,59.99880002,5956697216b84c00012b9e72,64d2fd46c836a06233681665,64dc7de2b81681ffc42ae982,,,,,,,decisionTrl,resources/DB.BMP,resources/DG.BMP,Door2,-0.372150438,0.092164544,1,0,0,0.9152,optionLeft,40,9770,5,6,0,6,0,1,,,,,,,,,,,,,,,,,,,,,,,,,,,,,,,,,,,,,,,
,,,,,,,,2023-08-16_08h51.45.006,HF_wild_card,2022.2.4,MacIntel,59.99880002,5956697216b84c00012b9e72,64d2fd46c836a06233681665,64dc7de2b81681ffc42ae982,,,,,,,decisionTrl,resources/DY.BMP,resources/DP.BMP,Door3,-0.347693346,0.096827969,1,0,0,1.7674,optionLeft,70,9840,5,7,0,7,0,1,,,,,,,,,,,,,,,,,,,,,,,,,,,,,,,,,,,,,,,
,,,,,,,,2023-08-16_08h51.45.006,HF_wild_card,2022.2.4,MacIntel,59.99880002,5956697216b84c00012b9e72,64d2fd46c836a06233681665,64dc7de2b81681ffc42ae982,,,,,,,decisionTrl,resources/DB.BMP,resources/DG.BMP,Door2,-0.473650648,0.143721653,1,0,0,1.3111,optionLeft,20,9860,5,8,0,8,0,1,,,,,,,,,,,,,,,,,,,,,,,,,,,,,,,,,,,,,,,
,,,,,,,,2023-08-16_08h51.45.006,HF_wild_card,2022.2.4,MacIntel,59.99880002,5956697216b84c00012b9e72,64d2fd46c836a06233681665,64dc7de2b81681ffc42ae982,,,,,,,sngl,resources/Empty.png,resources/DR.BMP,Door4,0.403335368,0.13072069,1,0,0,0.8296,optionRight,60,9920,5,9,0,9,0,1,,,,,,,,,,,,,,,,,,,,,,,,,,,,,,,,,,,,,,,
,,,,,,,,2023-08-16_08h51.45.006,HF_wild_card,2022.2.4,MacIntel,59.99880002,5956697216b84c00012b9e72,64d2fd46c836a06233681665,64dc7de2b81681ffc42ae982,,,,,,,decisionTrl,resources/DG.BMP,resources/DB.BMP,Door2,0.460625949,0.111842753,1,0,0,1.0469,optionRight,20,9940,5,10,0,10,0,1,,,,,,,,,,,,,,,,,,,,,,,,,,,,,,,,,,,,,,,
,,,,,,,,2023-08-16_08h51.45.006,HF_wild_card,2022.2.4,MacIntel,59.99880002,5956697216b84c00012b9e72,64d2fd46c836a06233681665,64dc7de2b81681ffc42ae982,,,,,,,decisionTrl,resources/DR.BMP,resources/DP.BMP,Door4,-0.305670878,0.132343852,1,0,0,1.4308,optionLeft,80,10020,5,11,0,11,0,1,,,,,,,,,,,,,,,,,,,,,,,,,,,,,,,,,,,,,,,
,,,,,,,,2023-08-16_08h51.45.006,HF_wild_card,2022.2.4,MacIntel,59.99880002,5956697216b84c00012b9e72,64d2fd46c836a06233681665,64dc7de2b81681ffc42ae982,,,,,,,decisionTrl,resources/DR.BMP,resources/DY.BMP,Door4,-0.394136251,0.094685872,1,0,0,1.3149,optionLeft,80,10100,5,12,0,12,0,1,,,,,,,,,,,,,,,,,,,,,,,,,,,,,,,,,,,,,,,
,,,,,,,,2023-08-16_08h51.45.006,HF_wild_card,2022.2.4,MacIntel,59.99880002,5956697216b84c00012b9e72,64d2fd46c836a06233681665,64dc7de2b81681ffc42ae982,,,,,,,ctch,resources/DY.BMP,resources/DB.BMP,Door3,-0.328928969,0.109721985,1,0,0,1.1208,optionLeft,70,10170,5,13,0,13,0,1,,,,,,,,,,,,,,,,,,,,,,,,,,,,,,,,,,,,,,,
,,,,,,,,2023-08-16_08h51.45.006,HF_wild_card,2022.2.4,MacIntel,59.99880002,5956697216b84c00012b9e72,64d2fd46c836a06233681665,64dc7de2b81681ffc42ae982,,,,,,,sngl,resources/Empty.png,resources/DG.BMP,Door1,0.422529704,0.084646946,1,0,0,0.8819,optionRight,30,10200,5,14,0,14,0,1,,,,,,,,,,,,,,,,,,,,,,,,,,,,,,,,,,,,,,,
,,,,,,,,2023-08-16_08h51.45.006,HF_wild_card,2022.2.4,MacIntel,59.99880002,5956697216b84c00012b9e72,64d2fd46c836a06233681665,64dc7de2b81681ffc42ae982,,,,,,,decisionTrl,resources/DG.BMP,resources/DB.BMP,Door1,-0.340646261,0.100874396,1,0,0,1.1301,optionLeft,30,10230,5,15,0,15,0,1,,,,,,,,,,,,,,,,,,,,,,,,,,,,,,,,,,,,,,,
,,,,,,,,2023-08-16_08h51.45.006,HF_wild_card,2022.2.4,MacIntel,59.99880002,5956697216b84c00012b9e72,64d2fd46c836a06233681665,64dc7de2b81681ffc42ae982,,,,,,,ctch,resources/DG.BMP,resources/DR.BMP,Door4,0.426607937,0.127026876,1,0,0,0.9641,optionRight,80,10310,5,16,0,16,0,1,,,,,,,,,,,,,,,,,,,,,,,,,,,,,,,,,,,,,,,
,,,,,,,,2023-08-16_08h51.45.006,HF_wild_card,2022.2.4,MacIntel,59.99880002,5956697216b84c00012b9e72,64d2fd46c836a06233681665,64dc7de2b81681ffc42ae982,,,,,,,decisionTrl,resources/DB.BMP,resources/DG.BMP,Door1,0.491445991,0.049168566,1,0,0,1.0978,optionRight,30,10340,5,17,0,17,0,1,,,,,,,,,,,,,,,,,,,,,,,,,,,,,,,,,,,,,,,
,,,,,,,,2023-08-16_08h51.45.006,HF_wild_card,2022.2.4,MacIntel,59.99880002,5956697216b84c00012b9e72,64d2fd46c836a06233681665,64dc7de2b81681ffc42ae982,,,,,,,sngl,resources/DP.BMP,resources/Empty.png,WildCard_NonEx,-0.344475064,0.118320007,1,0,0,0.788,optionLeft,45,10385,5,18,0,18,0,1,,,,,,,,,,,,,,,,,,,,,,,,,,,,,,,,,,,,,,,
,,,,,,,,2023-08-16_08h51.45.006,HF_wild_card,2022.2.4,MacIntel,59.99880002,5956697216b84c00012b9e72,64d2fd46c836a06233681665,64dc7de2b81681ffc42ae982,,,,,,,sngl,resources/Empty.png,resources/DP.BMP,WildCard_NonEx,0.506129693,0.089067383,1,0,0,0.7153,optionRight,55,10440,5,19,0,19,0,1,,,,,,,,,,,,,,,,,,,,,,,,,,,,,,,,,,,,,,,
,,,,,,,,2023-08-16_08h51.45.006,HF_wild_card,2022.2.4,MacIntel,59.99880002,5956697216b84c00012b9e72,64d2fd46c836a06233681665,64dc7de2b81681ffc42ae982,,,,,,,decisionTrl,resources/DG.BMP,resources/DB.BMP,Door1,-0.438385586,0.131204902,1,0,0,1.1978,optionLeft,30,10470,5,20,0,20,0,1,,,,,,,,,,,,,,,,,,,,,,,,,,,,,,,,,,,,,,,
,,,,,,,,2023-08-16_08h51.45.006,HF_wild_card,2022.2.4,MacIntel,59.99880002,5956697216b84c00012b9e72,64d2fd46c836a06233681665,64dc7de2b81681ffc42ae982,,,,,,,ctch,resources/DR.BMP,resources/DG.BMP,Door4,-0.298129374,0.085868802,1,0,0,1.1466,optionLeft,80,10550,5,21,0,21,0,1,,,,,,,,,,,,,,,,,,,,,,,,,,,,,,,,,,,,,,,
,,,,,,,,2023-08-16_08h51.45.006,HF_wild_card,2022.2.4,MacIntel,59.99880002,5956697216b84c00012b9e72,64d2fd46c836a06233681665,64dc7de2b81681ffc42ae982,,,,,,,sngl,resources/DG.BMP,resources/Empty.png,Door1,-0.424810859,0.088539768,1,0,0,0.829,optionLeft,30,10580,5,22,0,22,0,1,,,,,,,,,,,,,,,,,,,,,,,,,,,,,,,,,,,,,,,
,,,,,,,,2023-08-16_08h51.45.006,HF_wild_card,2022.2.4,MacIntel,59.99880002,5956697216b84c00012b9e72,64d2fd46c836a06233681665,64dc7de2b81681ffc42ae982,,,,,,,decisionTrl,resources/DB.BMP,resources/DP.BMP,Door2,-0.391987406,0.118113234,1,0,0,2.165,optionLeft,20,10600,5,23,0,23,0,1,,,,,,,,,,,,,,,,,,,,,,,,,,,,,,,,,,,,,,,
,,,,,,,,2023-08-16_08h51.45.006,HF_wild_card,2022.2.4,MacIntel,59.99880002,5956697216b84c00012b9e72,64d2fd46c836a06233681665,64dc7de2b81681ffc42ae982,,,,,,,sngl,resources/DR.BMP,resources/Empty.png,Door4,-0.381031257,0.103184509,1,0,0,0.815,optionLeft,80,10680,5,24,0,24,0,1,,,,,,,,,,,,,,,,,,,,,,,,,,,,,,,,,,,,,,,
,,,,,,,,2023-08-16_08h51.45.006,HF_wild_card,2022.2.4,MacIntel,59.99880002,5956697216b84c00012b9e72,64d2fd46c836a06233681665,64dc7de2b81681ffc42ae982,,,,,,,decisionTrl,resources/DP.BMP,resources/DY.BMP,Door3,0.42529107,0.03140547,1,0,0,1.5297,optionRight,70,10750,5,25,0,25,0,1,,,,,,,,,,,,,,,,,,,,,,,,,,,,,,,,,,,,,,,
,,,,,,,,2023-08-16_08h51.45.006,HF_wild_card,2022.2.4,MacIntel,59.99880002,5956697216b84c00012b9e72,64d2fd46c836a06233681665,64dc7de2b81681ffc42ae982,,,,,,,ctch,resources/DY.BMP,resources/DB.BMP,Door3,-0.477475382,0.123643019,1,0,0,1.2485,optionLeft,70,10820,5,26,0,26,0,1,,,,,,,,,,,,,,,,,,,,,,,,,,,,,,,,,,,,,,,
,,,,,,,,2023-08-16_08h51.45.006,HF_wild_card,2022.2.4,MacIntel,59.99880002,5956697216b84c00012b9e72,64d2fd46c836a06233681665,64dc7de2b81681ffc42ae982,,,,,,,decisionTrl,resources/DP.BMP,resources/DR.BMP,Door4,0.489654677,0.056067573,1,0,0,1.4467,optionRight,60,10880,5,27,0,27,0,1,,,,,,,,,,,,,,,,,,,,,,,,,,,,,,,,,,,,,,,
,,,,,,,,2023-08-16_08h51.45.006,HF_wild_card,2022.2.4,MacIntel,59.99880002,5956697216b84c00012b9e72,64d2fd46c836a06233681665,64dc7de2b81681ffc42ae982,,,,,,,sngl,resources/Empty.png,resources/DB.BMP,Door2,0.518664686,0.043696696,1,0,0,0.8658,optionRight,20,10900,5,28,0,28,0,1,,,,,,,,,,,,,,,,,,,,,,,,,,,,,,,,,,,,,,,
,,,,,,,,2023-08-16_08h51.45.006,HF_wild_card,2022.2.4,MacIntel,59.99880002,5956697216b84c00012b9e72,64d2fd46c836a06233681665,64dc7de2b81681ffc42ae982,,,,,,,sngl,resources/DP.BMP,resources/Empty.png,WildCard_NonEx,-0.438955214,0.0630955,1,0,0,0.6639,optionLeft,55,10955,5,29,0,29,0,1,,,,,,,,,,,,,,,,,,,,,,,,,,,,,,,,,,,,,,,
,,,,,,,,2023-08-16_08h51.45.006,HF_wild_card,2022.2.4,MacIntel,59.99880002,5956697216b84c00012b9e72,64d2fd46c836a06233681665,64dc7de2b81681ffc42ae982,,,,,,,decisionTrl,resources/DR.BMP,resources/DY.BMP,Door4,-0.333787604,0.102589823,1,0,0,1.2817,optionLeft,80,11035,5,30,0,30,0,1,,,,,,,,,,,,,,,,,,,,,,,,,,,,,,,,,,,,,,,
,,,,,,,,2023-08-16_08h51.45.006,HF_wild_card,2022.2.4,MacIntel,59.99880002,5956697216b84c00012b9e72,64d2fd46c836a06233681665,64dc7de2b81681ffc42ae982,,,,,,,decisionTrl,resources/DR.BMP,resources/DY.BMP,Door4,-0.372966546,0.127720066,1,0,0,0.814,optionLeft,80,11115,5,31,0,31,0,1,,,,,,,,,,,,,,,,,,,,,,,,,,,,,,,,,,,,,,,
,,,,,,,,2023-08-16_08h51.45.006,HF_wild_card,2022.2.4,MacIntel,59.99880002,5956697216b84c00012b9e72,64d2fd46c836a06233681665,64dc7de2b81681ffc42ae982,,,,,,,decisionTrl,resources/DY.BMP,resources/DR.BMP,Door4,0.477940674,0.066707086,1,0,0,1.6144,optionRight,60,11175,5,32,0,32,0,1,,,,,,,,,,,,,,,,,,,,,,,,,,,,,,,,,,,,,,,
,,,,,,,,2023-08-16_08h51.45.006,HF_wild_card,2022.2.4,MacIntel,59.99880002,5956697216b84c00012b9e72,64d2fd46c836a06233681665,64dc7de2b81681ffc42ae982,,,,,,,ctch,resources/DG.BMP,resources/DR.BMP,Door4,0.504643419,0.100894945,1,0,0,1.5305,optionRight,80,11255,5,33,0,33,0,1,,,,,,,,,,,,,,,,,,,,,,,,,,,,,,,,,,,,,,,
,,,,,,,,2023-08-16_08h51.45.006,HF_wild_card,2022.2.4,MacIntel,59.99880002,5956697216b84c00012b9e72,64d2fd46c836a06233681665,64dc7de2b81681ffc42ae982,,,,,,,decisionTrl,resources/DB.BMP,resources/DG.BMP,Door1,0.254789157,0.034163106,1,0,0,2.1115,optionRight,30,11285,5,34,0,34,0,1,,,,,,,,,,,,,,,,,,,,,,,,,,,,,,,,,,,,,,,
,,,,,,,,2023-08-16_08h51.45.006,HF_wild_card,2022.2.4,MacIntel,59.99880002,5956697216b84c00012b9e72,64d2fd46c836a06233681665,64dc7de2b81681ffc42ae982,,,,,,,ctch,resources/DR.BMP,resources/DG.BMP,Door4,-0.498089532,0.107618646,1,0,0,1.1308,optionLeft,80,11365,5,35,0,35,0,1,,,,,,,,,,,,,,,,,,,,,,,,,,,,,,,,,,,,,,,
,,,,,,,,2023-08-16_08h51.45.006,HF_wild_card,2022.2.4,MacIntel,59.99880002,5956697216b84c00012b9e72,64d2fd46c836a06233681665,64dc7de2b81681ffc42ae982,,,,,,,decisionTrl,resources/DY.BMP,resources/DR.BMP,Door4,0.455134142,0.096258545,1,0,0,0.9315,optionRight,80,11445,5,36,0,36,0,1,,,,,,,,,,,,,,,,,,,,,,,,,,,,,,,,,,,,,,,
,,,,,,,,2023-08-16_08h51.45.006,HF_wild_card,2022.2.4,MacIntel,59.99880002,5956697216b84c00012b9e72,64d2fd46c836a06233681665,64dc7de2b81681ffc42ae982,,,,,,,sngl,resources/Empty.png,resources/DY.BMP,Door3,0.416410862,0.113755222,1,0,0,0.8146,optionRight,70,11515,5,37,0,37,0,1,,,,,,,,,,,,,,,,,,,,,,,,,,,,,,,,,,,,,,,
,,,,,,,,2023-08-16_08h51.45.006,HF_wild_card,2022.2.4,MacIntel,59.99880002,5956697216b84c00012b9e72,64d2fd46c836a06233681665,64dc7de2b81681ffc42ae982,,,,,,,decisionTrl,resources/DY.BMP,resources/DR.BMP,Door4,0.357274984,0.112071431,1,0,0,0.9975,optionRight,60,11575,5,38,0,38,0,1,,,,,,,,,,,,,,,,,,,,,,,,,,,,,,,,,,,,,,,
,,,,,,,,2023-08-16_08h51.45.006,HF_wild_card,2022.2.4,MacIntel,59.99880002,5956697216b84c00012b9e72,64d2fd46c836a06233681665,64dc7de2b81681ffc42ae982,,,,,,,ctch,resources/DB.BMP,resources/DY.BMP,Door3,0.468237305,0.104044223,1,0,0,1.482,optionRight,70,11645,5,39,0,39,0,1,,,,,,,,,,,,,,,,,,,,,,,,,,,,,,,,,,,,,,,
,,,,,,,,2023-08-16_08h51.45.006,HF_wild_card,2022.2.4,MacIntel,59.99880002,5956697216b84c00012b9e72,64d2fd46c836a06233681665,64dc7de2b81681ffc42ae982,,,,,,,decisionTrl,resources/DG.BMP,resources/DP.BMP,WildCard_NonEx,0.309779527,0.042368503,1,0,0,1.7824,optionRight,55,11700,5,40,0,40,0,1,,,,,,,,,,,,,,,,,,,,,,,,,,,,,,,,,,,,,,,
,,,,,,,,2023-08-16_08h51.45.006,HF_wild_card,2022.2.4,MacIntel,59.99880002,5956697216b84c00012b9e72,64d2fd46c836a06233681665,64dc7de2b81681ffc42ae982,,,,,,,sngl,resources/Empty.png,resources/DP.BMP,WildCard_NonEx,0.460047607,0.120216607,1,0,0,0.831,optionRight,45,11745,5,41,0,41,0,1,,,,,,,,,,,,,,,,,,,,,,,,,,,,,,,,,,,,,,,
,,,,,,,,2023-08-16_08h51.45.006,HF_wild_card,2022.2.4,MacIntel,59.99880002,5956697216b84c00012b9e72,64d2fd46c836a06233681665,64dc7de2b81681ffc42ae982,,,,,,,decisionTrl,resources/DP.BMP,resources/DB.BMP,WildCard_NonEx,-0.379689094,0.086183234,1,0,0,1.5112,optionLeft,45,11790,5,42,0,42,0,1,,,,,,,,,,,,,,,,,,,,,,,,,,,,,,,,,,,,,,,
,,,,,,,,2023-08-16_08h51.45.006,HF_wild_card,2022.2.4,MacIntel,59.99880002,5956697216b84c00012b9e72,64d2fd46c836a06233681665,64dc7de2b81681ffc42ae982,,,,,,,decisionTrl,resources/DP.BMP,resources/DG.BMP,WildCard_NonEx,-0.375249295,0.07095381,1,0,0,1.4488,optionLeft,45,11835,5,43,0,43,0,1,,,,,,,,,,,,,,,,,,,,,,,,,,,,,,,,,,,,,,,
,,,,,,,,2023-08-16_08h51.45.006,HF_wild_card,2022.2.4,MacIntel,59.99880002,5956697216b84c00012b9e72,64d2fd46c836a06233681665,64dc7de2b81681ffc42ae982,,,,,,,,,,,,,,,,,,,,,,,,,,4,0,4,0,1,,,,,,,,,,,,,,,,,,,,,,,,,,,,,,,,,,
,,,,,,,,2023-08-16_08h51.45.006,HF_wild_card,2022.2.4,MacIntel,59.99880002,5956697216b84c00012b9e72,64d2fd46c836a06233681665,64dc7de2b81681ffc42ae982,,,,,,,sngl,resources/DB.BMP,resources/Empty.png,Door2,-0.450143127,0.033528273,1,0,0,1.1988,optionLeft,20,11855,6,0,0,0,0,1,,,,,,,,,,,,,,,,,,,,,,,,,,,,,,,,,,,,,,,
,,,,,,,,2023-08-16_08h51.45.006,HF_wild_card,2022.2.4,MacIntel,59.99880002,5956697216b84c00012b9e72,64d2fd46c836a06233681665,64dc7de2b81681ffc42ae982,,,,,,,ctch,resources/DG.BMP,resources/DR.BMP,Door4,0.349522705,0.128132765,1,0,0,1.0317,optionRight,60,11915,6,1,0,1,0,1,,,,,,,,,,,,,,,,,,,,,,,,,,,,,,,,,,,,,,,
,,,,,,,,2023-08-16_08h51.45.006,HF_wild_card,2022.2.4,MacIntel,59.99880002,5956697216b84c00012b9e72,64d2fd46c836a06233681665,64dc7de2b81681ffc42ae982,,,,,,,sngl,resources/Empty.png,resources/DP.BMP,WildCard_NonEx,0.448091227,0.137769775,1,0,0,0.9833,optionRight,55,11970,6,2,0,2,0,1,,,,,,,,,,,,,,,,,,,,,,,,,,,,,,,,,,,,,,,
,,,,,,,,2023-08-16_08h51.45.006,HF_wild_card,2022.2.4,MacIntel,59.99880002,5956697216b84c00012b9e72,64d2fd46c836a06233681665,64dc7de2b81681ffc42ae982,,,,,,,sngl,resources/DG.BMP,resources/Empty.png,Door1,-0.352102966,0.086760627,1,0,0,0.9488,optionLeft,30,12000,6,3,0,3,0,1,,,,,,,,,,,,,,,,,,,,,,,,,,,,,,,,,,,,,,,
,,,,,,,,2023-08-16_08h51.45.006,HF_wild_card,2022.2.4,MacIntel,59.99880002,5956697216b84c00012b9e72,64d2fd46c836a06233681665,64dc7de2b81681ffc42ae982,,,,,,,ctch,resources/DR.BMP,resources/DG.BMP,Door4,-0.426710476,0.077574429,1,0,0,1.1268,optionLeft,60,12060,6,4,0,4,0,1,,,,,,,,,,,,,,,,,,,,,,,,,,,,,,,,,,,,,,,
,,,,,,,,2023-08-16_08h51.45.006,HF_wild_card,2022.2.4,MacIntel,59.99880002,5956697216b84c00012b9e72,64d2fd46c836a06233681665,64dc7de2b81681ffc42ae982,,,,,,,decisionTrl,resources/DR.BMP,resources/DY.BMP,Door3,0.437072076,0.163350898,1,0,0,1.0168,optionRight,70,12130,6,5,0,5,0,1,,,,,,,,,,,,,,,,,,,,,,,,,,,,,,,,,,,,,,,
,,,,,,,,2023-08-16_08h51.45.006,HF_wild_card,2022.2.4,MacIntel,59.99880002,5956697216b84c00012b9e72,64d2fd46c836a06233681665,64dc7de2b81681ffc42ae982,,,,,,,decisionTrl,resources/DY.BMP,resources/DP.BMP,Door3,-0.311843567,0.168962572,1,0,0,1.5509,optionLeft,70,12200,6,6,0,6,0,1,,,,,,,,,,,,,,,,,,,,,,,,,,,,,,,,,,,,,,,
,,,,,,,,2023-08-16_08h51.45.006,HF_wild_card,2022.2.4,MacIntel,59.99880002,5956697216b84c00012b9e72,64d2fd46c836a06233681665,64dc7de2b81681ffc42ae982,,,,,,,decisionTrl,resources/DB.BMP,resources/DG.BMP,Door1,0.419822591,0.075411038,1,0,0,1.231,optionRight,30,12230,6,7,0,7,0,1,,,,,,,,,,,,,,,,,,,,,,,,,,,,,,,,,,,,,,,
,,,,,,,,2023-08-16_08h51.45.006,HF_wild_card,2022.2.4,MacIntel,59.99880002,5956697216b84c00012b9e72,64d2fd46c836a06233681665,64dc7de2b81681ffc42ae982,,,,,,,decisionTrl,resources/DY.BMP,resources/DR.BMP,Door4,0.599506972,0.093942973,1,0,0,1.3817,optionRight,80,12310,6,8,0,8,0,1,,,,,,,,,,,,,,,,,,,,,,,,,,,,,,,,,,,,,,,
,,,,,,,,2023-08-16_08h51.45.006,HF_wild_card,2022.2.4,MacIntel,59.99880002,5956697216b84c00012b9e72,64d2fd46c836a06233681665,64dc7de2b81681ffc42ae982,,,,,,,sngl,resources/DP.BMP,resources/Empty.png,WildCard_NonEx,-0.388933987,0.14451121,1,0,0,1.1279,optionLeft,55,12365,6,9,0,9,0,1,,,,,,,,,,,,,,,,,,,,,,,,,,,,,,,,,,,,,,,
,,,,,,,,2023-08-16_08h51.45.006,HF_wild_card,2022.2.4,MacIntel,59.99880002,5956697216b84c00012b9e72,64d2fd46c836a06233681665,64dc7de2b81681ffc42ae982,,,,,,,decisionTrl,resources/DY.BMP,resources/DR.BMP,Door4,0.446918674,0.135778503,1,0,0,1.5988,optionRight,60,12425,6,10,0,10,0,1,,,,,,,,,,,,,,,,,,,,,,,,,,,,,,,,,,,,,,,
,,,,,,,,2023-08-16_08h51.45.006,HF_wild_card,2022.2.4,MacIntel,59.99880002,5956697216b84c00012b9e72,64d2fd46c836a06233681665,64dc7de2b81681ffc42ae982,,,,,,,ctch,resources/DY.BMP,resources/DB.BMP,Door3,-0.369495816,0.141128743,1,0,0,0.9162,optionLeft,70,12495,6,11,0,11,0,1,,,,,,,,,,,,,,,,,,,,,,,,,,,,,,,,,,,,,,,
,,,,,,,,2023-08-16_08h51.45.006,HF_wild_card,2022.2.4,MacIntel,59.99880002,5956697216b84c00012b9e72,64d2fd46c836a06233681665,64dc7de2b81681ffc42ae982,,,,,,,decisionTrl,resources/DP.BMP,resources/DG.BMP,WildCard_NonEx,-0.312565002,0.102336731,1,0,0,1.0316,optionLeft,45,12540,6,12,0,12,0,1,,,,,,,,,,,,,,,,,,,,,,,,,,,,,,,,,,,,,,,
,,,,,,,,2023-08-16_08h51.45.006,HF_wild_card,2022.2.4,MacIntel,59.99880002,5956697216b84c00012b9e72,64d2fd46c836a06233681665,64dc7de2b81681ffc42ae982,,,,,,,sngl,resources/DR.BMP,resources/Empty.png,Door4,-0.387688361,0.100232476,1,0,0,0.7961,optionLeft,60,12600,6,13,0,13,0,1,,,,,,,,,,,,,,,,,,,,,,,,,,,,,,,,,,,,,,,
,,,,,,,,2023-08-16_08h51.45.006,HF_wild_card,2022.2.4,MacIntel,59.99880002,5956697216b84c00012b9e72,64d2fd46c836a06233681665,64dc7de2b81681ffc42ae982,,,,,,,decisionTrl,resources/DR.BMP,resources/DY.BMP,Door3,0.421132406,0.153936801,1,0,0,2.414,optionRight,70,12670,6,14,0,14,0,1,,,,,,,,,,,,,,,,,,,,,,,,,,,,,,,,,,,,,,,
,,,,,,,,2023-08-16_08h51.45.006,HF_wild_card,2022.2.4,MacIntel,59.99880002,5956697216b84c00012b9e72,64d2fd46c836a06233681665,64dc7de2b81681ffc42ae982,,,,,,,sngl,resources/DP.BMP,resources/Empty.png,WildCard_NonEx,-0.395193007,0.121711222,1,0,0,0.7628,optionLeft,45,12715,6,15,0,15,0,1,,,,,,,,,,,,,,,,,,,,,,,,,,,,,,,,,,,,,,,
,,,,,,,,2023-08-16_08h51.45.006,HF_wild_card,2022.2.4,MacIntel,59.99880002,5956697216b84c00012b9e72,64d2fd46c836a06233681665,64dc7de2b81681ffc42ae982,,,,,,,decisionTrl,resources/DP.BMP,resources/DY.BMP,Door3,0.395215793,0.05946245,1,0,0,1.5624,optionRight,70,12785,6,16,0,16,0,1,,,,,,,,,,,,,,,,,,,,,,,,,,,,,,,,,,,,,,,
,,,,,,,,2023-08-16_08h51.45.006,HF_wild_card,2022.2.4,MacIntel,59.99880002,5956697216b84c00012b9e72,64d2fd46c836a06233681665,64dc7de2b81681ffc42ae982,,,,,,,decisionTrl,resources/DB.BMP,resources/DG.BMP,Door2,-0.47003696,0.128398777,1,0,0,1.6333,optionLeft,40,12825,6,17,0,17,0,1,,,,,,,,,,,,,,,,,,,,,,,,,,,,,,,,,,,,,,,
,,,,,,,,2023-08-16_08h51.45.006,HF_wild_card,2022.2.4,MacIntel,59.99880002,5956697216b84c00012b9e72,64d2fd46c836a06233681665,64dc7de2b81681ffc42ae982,,,,,,,sngl,resources/Empty.png,resources/DG.BMP,Door1,0.395168321,0.138195157,1,0,0,1.0951,optionRight,30,12855,6,18,0,18,0,1,,,,,,,,,,,,,,,,,,,,,,,,,,,,,,,,,,,,,,,
,,,,,,,,2023-08-16_08h51.45.006,HF_wild_card,2022.2.4,MacIntel,59.99880002,5956697216b84c00012b9e72,64d2fd46c836a06233681665,64dc7de2b81681ffc42ae982,,,,,,,sngl,resources/DY.BMP,resources/Empty.png,Door3,-0.36725179,0.145626865,1,0,0,0.898,optionLeft,70,12925,6,19,0,19,0,1,,,,,,,,,,,,,,,,,,,,,,,,,,,,,,,,,,,,,,,
,,,,,,,,2023-08-16_08h51.45.006,HF_wild_card,2022.2.4,MacIntel,59.99880002,5956697216b84c00012b9e72,64d2fd46c836a06233681665,64dc7de2b81681ffc42ae982,,,,,,,ctch,resources/DG.BMP,resources/DR.BMP,Door4,0.402725288,0.138119744,1,0,0,1.3328,optionRight,80,13005,6,20,0,20,0,1,,,,,,,,,,,,,,,,,,,,,,,,,,,,,,,,,,,,,,,
,,,,,,,,2023-08-16_08h51.45.006,HF_wild_card,2022.2.4,MacIntel,59.99880002,5956697216b84c00012b9e72,64d2fd46c836a06233681665,64dc7de2b81681ffc42ae982,,,,,,,decisionTrl,resources/DY.BMP,resources/DR.BMP,Door4,0.381952311,0.153550585,1,0,0,1.2303,optionRight,80,13085,6,21,0,21,0,1,,,,,,,,,,,,,,,,,,,,,,,,,,,,,,,,,,,,,,,
,,,,,,,,2023-08-16_08h51.45.006,HF_wild_card,2022.2.4,MacIntel,59.99880002,5956697216b84c00012b9e72,64d2fd46c836a06233681665,64dc7de2b81681ffc42ae982,,,,,,,decisionTrl,resources/DB.BMP,resources/DP.BMP,WildCard_NonEx,0.390519613,0.014090271,1,0,0,2.0796,optionRight,55,13140,6,22,0,22,0,1,,,,,,,,,,,,,,,,,,,,,,,,,,,,,,,,,,,,,,,
,,,,,,,,2023-08-16_08h51.45.006,HF_wild_card,2022.2.4,MacIntel,59.99880002,5956697216b84c00012b9e72,64d2fd46c836a06233681665,64dc7de2b81681ffc42ae982,,,,,,,sngl,resources/Empty.png,resources/DR.BMP,Door4,0.406861979,0.143075155,1,0,0,0.9476,optionRight,80,13220,6,23,0,23,0,1,,,,,,,,,,,,,,,,,,,,,,,,,,,,,,,,,,,,,,,
,,,,,,,,2023-08-16_08h51.45.006,HF_wild_card,2022.2.4,MacIntel,59.99880002,5956697216b84c00012b9e72,64d2fd46c836a06233681665,64dc7de2b81681ffc42ae982,,,,,,,decisionTrl,resources/DB.BMP,resources/DG.BMP,Door2,-0.319670342,0.139698249,1,0,0,3.5143,optionLeft,20,13240,6,24,0,24,0,1,,,,,,,,,,,,,,,,,,,,,,,,,,,,,,,,,,,,,,,
,,,,,,,,2023-08-16_08h51.45.006,HF_wild_card,2022.2.4,MacIntel,59.99880002,5956697216b84c00012b9e72,64d2fd46c836a06233681665,64dc7de2b81681ffc42ae982,,,,,,,decisionTrl,resources/DR.BMP,resources/DY.BMP,Door4,-0.295751072,0.150046658,1,0,0,1.7825,optionLeft,80,13320,6,25,0,25,0,1,,,,,,,,,,,,,,,,,,,,,,,,,,,,,,,,,,,,,,,
,,,,,,,,2023-08-16_08h51.45.006,HF_wild_card,2022.2.4,MacIntel,59.99880002,5956697216b84c00012b9e72,64d2fd46c836a06233681665,64dc7de2b81681ffc42ae982,,,,,,,sngl,resources/Empty.png,resources/DB.BMP,Door2,0.469619005,0.117282783,1,0,0,0.846,optionRight,40,13360,6,26,0,26,0,1,,,,,,,,,,,,,,,,,,,,,,,,,,,,,,,,,,,,,,,
,,,,,,,,2023-08-16_08h51.45.006,HF_wild_card,2022.2.4,MacIntel,59.99880002,5956697216b84c00012b9e72,64d2fd46c836a06233681665,64dc7de2b81681ffc42ae982,,,,,,,decisionTrl,resources/DP.BMP,resources/DR.BMP,Door4,0.392318115,0.126918098,1,0,0,1.3467,optionRight,80,13440,6,27,0,27,0,1,,,,,,,,,,,,,,,,,,,,,,,,,,,,,,,,,,,,,,,
,,,,,,,,2023-08-16_08h51.45.006,HF_wild_card,2022.2.4,MacIntel,59.99880002,5956697216b84c00012b9e72,64d2fd46c836a06233681665,64dc7de2b81681ffc42ae982,,,,,,,ctch,resources/DB.BMP,resources/DY.BMP,Door3,0.427300754,0.112735697,1,0,0,1.13,optionRight,70,13510,6,28,0,28,0,1,,,,,,,,,,,,,,,,,,,,,,,,,,,,,,,,,,,,,,,
,,,,,,,,2023-08-16_08h51.45.006,HF_wild_card,2022.2.4,MacIntel,59.99880002,5956697216b84c00012b9e72,64d2fd46c836a06233681665,64dc7de2b81681ffc42ae982,,,,,,,decisionTrl,resources/DP.BMP,resources/DB.BMP,WildCard_NonEx,-0.456566501,0.189408535,1,0,0,2.0144,optionLeft,55,13565,6,29,0,29,0,1,,,,,,,,,,,,,,,,,,,,,,,,,,,,,,,,,,,,,,,
,,,,,,,,2023-08-16_08h51.45.006,HF_wild_card,2022.2.4,MacIntel,59.99880002,5956697216b84c00012b9e72,64d2fd46c836a06233681665,64dc7de2b81681ffc42ae982,,,,,,,ctch,resources/DR.BMP,resources/DG.BMP,Door4,-0.353045281,0.15965037,1,0,0,1.3141,optionLeft,60,13625,6,30,0,30,0,1,,,,,,,,,,,,,,,,,,,,,,,,,,,,,,,,,,,,,,,
,,,,,,,,2023-08-16_08h51.45.006,HF_wild_card,2022.2.4,MacIntel,59.99880002,5956697216b84c00012b9e72,64d2fd46c836a06233681665,64dc7de2b81681ffc42ae982,,,,,,,decisionTrl,resources/DR.BMP,resources/DY.BMP,Door3,0.334481269,0.093686422,1,0,0,1.2484,optionRight,70,13695,6,31,0,31,0,1,,,,,,,,,,,,,,,,,,,,,,,,,,,,,,,,,,,,,,,
,,,,,,,,2023-08-16_08h51.45.006,HF_wild_card,2022.2.4,MacIntel,59.99880002,5956697216b84c00012b9e72,64d2fd46c836a06233681665,64dc7de2b81681ffc42ae982,,,,,,,decisionTrl,resources/DB.BMP,resources/DG.BMP,Door1,0.32736145,0.107940335,1,0,0,1.6973,optionRight,30,13725,6,32,0,32,0,1,,,,,,,,,,,,,,,,,,,,,,,,,,,,,,,,,,,,,,,
,,,,,,,,2023-08-16_08h51.45.006,HF_wild_card,2022.2.4,MacIntel,59.99880002,5956697216b84c00012b9e72,64d2fd46c836a06233681665,64dc7de2b81681ffc42ae982,,,,,,,decisionTrl,resources/DG.BMP,resources/DP.BMP,WildCard_NonEx,0.393340386,0.188648512,1,0,0,1.3478,optionRight,45,13770,6,33,0,33,0,1,,,,,,,,,,,,,,,,,,,,,,,,,,,,,,,,,,,,,,,
,,,,,,,,2023-08-16_08h51.45.006,HF_wild_card,2022.2.4,MacIntel,59.99880002,5956697216b84c00012b9e72,64d2fd46c836a06233681665,64dc7de2b81681ffc42ae982,,,,,,,ctch,resources/DY.BMP,resources/DB.BMP,Door3,-0.361825426,0.158742608,1,0,0,1.2294,optionLeft,70,13840,6,34,0,34,0,1,,,,,,,,,,,,,,,,,,,,,,,,,,,,,,,,,,,,,,,
,,,,,,,,2023-08-16_08h51.45.006,HF_wild_card,2022.2.4,MacIntel,59.99880002,5956697216b84c00012b9e72,64d2fd46c836a06233681665,64dc7de2b81681ffc42ae982,,,,,,,ctch,resources/DB.BMP,resources/DY.BMP,Door3,0.569012722,0.185852153,1,0,0,0.9995,optionRight,70,13910,6,35,0,35,0,1,,,,,,,,,,,,,,,,,,,,,,,,,,,,,,,,,,,,,,,
,,,,,,,,2023-08-16_08h51.45.006,HF_wild_card,2022.2.4,MacIntel,59.99880002,5956697216b84c00012b9e72,64d2fd46c836a06233681665,64dc7de2b81681ffc42ae982,,,,,,,decisionTrl,resources/DG.BMP,resources/DB.BMP,Door2,0.37249688,0.140579868,1,0,0,1.9955,optionRight,40,13950,6,36,0,36,0,1,,,,,,,,,,,,,,,,,,,,,,,,,,,,,,,,,,,,,,,
,,,,,,,,2023-08-16_08h51.45.006,HF_wild_card,2022.2.4,MacIntel,59.99880002,5956697216b84c00012b9e72,64d2fd46c836a06233681665,64dc7de2b81681ffc42ae982,,,,,,,decisionTrl,resources/DG.BMP,resources/DB.BMP,Door1,-0.415944519,0.123798048,1,0,0,1.0831,optionLeft,30,13980,6,37,0,37,0,1,,,,,,,,,,,,,,,,,,,,,,,,,,,,,,,,,,,,,,,
,,,,,,,,2023-08-16_08h51.45.006,HF_wild_card,2022.2.4,MacIntel,59.99880002,5956697216b84c00012b9e72,64d2fd46c836a06233681665,64dc7de2b81681ffc42ae982,,,,,,,decisionTrl,resources/DY.BMP,resources/DR.BMP,Door4,0.430142687,0.155497877,1,0,0,1.0493,optionRight,80,14060,6,38,0,38,0,1,,,,,,,,,,,,,,,,,,,,,,,,,,,,,,,,,,,,,,,
,,,,,,,,2023-08-16_08h51.45.006,HF_wild_card,2022.2.4,MacIntel,59.99880002,5956697216b84c00012b9e72,64d2fd46c836a06233681665,64dc7de2b81681ffc42ae982,,,,,,,decisionTrl,resources/DG.BMP,resources/DB.BMP,Door2,0.471946208,0.12562066,1,0,0,1.3124,optionRight,20,14080,6,39,0,39,0,1,,,,,,,,,,,,,,,,,,,,,,,,,,,,,,,,,,,,,,,
,,,,,,,,2023-08-16_08h51.45.006,HF_wild_card,2022.2.4,MacIntel,59.99880002,5956697216b84c00012b9e72,64d2fd46c836a06233681665,64dc7de2b81681ffc42ae982,,,,,,,sngl,resources/Empty.png,resources/DP.BMP,WildCard_NonEx,0.491273058,0.127144979,1,0,0,0.9157,optionRight,45,14125,6,40,0,40,0,1,,,,,,,,,,,,,,,,,,,,,,,,,,,,,,,,,,,,,,,
,,,,,,,,2023-08-16_08h51.45.006,HF_wild_card,2022.2.4,MacIntel,59.99880002,5956697216b84c00012b9e72,64d2fd46c836a06233681665,64dc7de2b81681ffc42ae982,,,,,,,decisionTrl,resources/DG.BMP,resources/DB.BMP,Door1,-0.36971873,0.136692234,1,0,0,1.0487,optionLeft,30,14155,6,41,0,41,0,1,,,,,,,,,,,,,,,,,,,,,,,,,,,,,,,,,,,,,,,
,,,,,,,,2023-08-16_08h51.45.006,HF_wild_card,2022.2.4,MacIntel,59.99880002,5956697216b84c00012b9e72,64d2fd46c836a06233681665,64dc7de2b81681ffc42ae982,,,,,,,sngl,resources/Empty.png,resources/DY.BMP,Door3,0.482070855,0.156262004,1,0,0,0.9325,optionRight,70,14225,6,42,0,42,0,1,,,,,,,,,,,,,,,,,,,,,,,,,,,,,,,,,,,,,,,
,,,,,,,,2023-08-16_08h51.45.006,HF_wild_card,2022.2.4,MacIntel,59.99880002,5956697216b84c00012b9e72,64d2fd46c836a06233681665,64dc7de2b81681ffc42ae982,,,,,,,decisionTrl,resources/DR.BMP,resources/DP.BMP,Door4,-0.411307305,0.135160963,1,0,0,0.9626,optionLeft,60,14285,6,43,0,43,0,1,,,,,,,,,,,,,,,,,,,,,,,,,,,,,,,,,,,,,,,
,,,,,,,,2023-08-16_08h51.45.006,HF_wild_card,2022.2.4,MacIntel,59.99880002,5956697216b84c00012b9e72,64d2fd46c836a06233681665,64dc7de2b81681ffc42ae982,,,,,,,,,,,,,,,,,,,,,,,,,,5,0,5,0,1,,,,,,,,,,,,,,,,,,,,,,,,,,,,,,,,,,
,,,,,,,,2023-08-16_08h51.45.006,HF_wild_card,2022.2.4,MacIntel,59.99880002,5956697216b84c00012b9e72,64d2fd46c836a06233681665,64dc7de2b81681ffc42ae982,,,,,,,decisionTrl,resources/DB.BMP,resources/DG.BMP,Door1,0.34210612,0.086752387,1,0,0,1.4847,optionRight,30,14315,7,0,0,0,0,1,,,,,,,,,,,,,,,,,,,,,,,,,,,,,,,,,,,,,,,
,,,,,,,,2023-08-16_08h51.45.006,HF_wild_card,2022.2.4,MacIntel,59.99880002,5956697216b84c00012b9e72,64d2fd46c836a06233681665,64dc7de2b81681ffc42ae982,,,,,,,ctch,resources/DB.BMP,resources/DY.BMP,Door3,0.438589681,0.099171651,1,0,0,0.982,optionRight,70,14385,7,1,0,1,0,1,,,,,,,,,,,,,,,,,,,,,,,,,,,,,,,,,,,,,,,
,,,,,,,,2023-08-16_08h51.45.006,HF_wild_card,2022.2.4,MacIntel,59.99880002,5956697216b84c00012b9e72,64d2fd46c836a06233681665,64dc7de2b81681ffc42ae982,,,,,,,decisionTrl,resources/DG.BMP,resources/DB.BMP,Door1,-0.378471341,0.104347805,1,0,0,1.6132,optionLeft,30,14415,7,2,0,2,0,1,,,,,,,,,,,,,,,,,,,,,,,,,,,,,,,,,,,,,,,
,,,,,,,,2023-08-16_08h51.45.006,HF_wild_card,2022.2.4,MacIntel,59.99880002,5956697216b84c00012b9e72,64d2fd46c836a06233681665,64dc7de2b81681ffc42ae982,,,,,,,decisionTrl,resources/DG.BMP,resources/DB.BMP,Door2,0.440320231,0.137327406,1,0,0,1.0798,optionRight,40,14455,7,3,0,3,0,1,,,,,,,,,,,,,,,,,,,,,,,,,,,,,,,,,,,,,,,
,,,,,,,,2023-08-16_08h51.45.006,HF_wild_card,2022.2.4,MacIntel,59.99880002,5956697216b84c00012b9e72,64d2fd46c836a06233681665,64dc7de2b81681ffc42ae982,,,,,,,ctch,resources/DB.BMP,resources/DY.BMP,Door3,0.526559109,0.180092434,1,0,0,0.9847,optionRight,70,14525,7,4,0,4,0,1,,,,,,,,,,,,,,,,,,,,,,,,,,,,,,,,,,,,,,,
,,,,,,,,2023-08-16_08h51.45.006,HF_wild_card,2022.2.4,MacIntel,59.99880002,5956697216b84c00012b9e72,64d2fd46c836a06233681665,64dc7de2b81681ffc42ae982,,,,,,,decisionTrl,resources/DG.BMP,resources/DB.BMP,Door1,-0.390706855,0.112306519,1,0,0,1.767,optionLeft,30,14555,7,5,0,5,0,1,,,,,,,,,,,,,,,,,,,,,,,,,,,,,,,,,,,,,,,
,,,,,,,,2023-08-16_08h51.45.006,HF_wild_card,2022.2.4,MacIntel,59.99880002,5956697216b84c00012b9e72,64d2fd46c836a06233681665,64dc7de2b81681ffc42ae982,,,,,,,ctch,resources/DR.BMP,resources/DG.BMP,Door4,-0.409635383,0.111616787,1,0,0,0.834,optionLeft,80,14635,7,6,0,6,0,1,,,,,,,,,,,,,,,,,,,,,,,,,,,,,,,,,,,,,,,
,,,,,,,,2023-08-16_08h51.45.006,HF_wild_card,2022.2.4,MacIntel,59.99880002,5956697216b84c00012b9e72,64d2fd46c836a06233681665,64dc7de2b81681ffc42ae982,,,,,,,decisionTrl,resources/DG.BMP,resources/DB.BMP,Door2,0.488966607,0.100986972,1,0,0,1.4997,optionRight,20,14655,7,7,0,7,0,1,,,,,,,,,,,,,,,,,,,,,,,,,,,,,,,,,,,,,,,
,,,,,,,,2023-08-16_08h51.45.006,HF_wild_card,2022.2.4,MacIntel,59.99880002,5956697216b84c00012b9e72,64d2fd46c836a06233681665,64dc7de2b81681ffc42ae982,,,,,,,ctch,resources/DG.BMP,resources/DR.BMP,Door4,0.456486274,0.105272895,1,0,0,0.9151,optionRight,60,14715,7,8,0,8,0,1,,,,,,,,,,,,,,,,,,,,,,,,,,,,,,,,,,,,,,,
,,,,,,,,2023-08-16_08h51.45.006,HF_wild_card,2022.2.4,MacIntel,59.99880002,5956697216b84c00012b9e72,64d2fd46c836a06233681665,64dc7de2b81681ffc42ae982,,,,,,,decisionTrl,resources/DB.BMP,resources/DG.BMP,Door1,0.431284858,0.103840502,1,0,0,0.9347,optionRight,30,14745,7,9,0,9,0,1,,,,,,,,,,,,,,,,,,,,,,,,,,,,,,,,,,,,,,,
,,,,,,,,2023-08-16_08h51.45.006,HF_wild_card,2022.2.4,MacIntel,59.99880002,5956697216b84c00012b9e72,64d2fd46c836a06233681665,64dc7de2b81681ffc42ae982,,,,,,,ctch,resources/DY.BMP,resources/DB.BMP,Door3,-0.391752421,0.123455471,1,0,0,0.8493,optionLeft,70,14815,7,10,0,10,0,1,,,,,,,,,,,,,,,,,,,,,,,,,,,,,,,,,,,,,,,
,,,,,,,,2023-08-16_08h51.45.006,HF_wild_card,2022.2.4,MacIntel,59.99880002,5956697216b84c00012b9e72,64d2fd46c836a06233681665,64dc7de2b81681ffc42ae982,,,,,,,decisionTrl,resources/DY.BMP,resources/DR.BMP,Door4,0.444172092,0.132559543,1,0,0,0.9635,optionRight,80,14895,7,11,0,11,0,1,,,,,,,,,,,,,,,,,,,,,,,,,,,,,,,,,,,,,,,
,,,,,,,,2023-08-16_08h51.45.006,HF_wild_card,2022.2.4,MacIntel,59.99880002,5956697216b84c00012b9e72,64d2fd46c836a06233681665,64dc7de2b81681ffc42ae982,,,,,,,ctch,resources/DB.BMP,resources/DY.BMP,Door3,0.481377224,0.137455817,1,0,0,0.9189,optionRight,70,14965,7,12,0,12,0,1,,,,,,,,,,,,,,,,,,,,,,,,,,,,,,,,,,,,,,,
,,,,,,,,2023-08-16_08h51.45.006,HF_wild_card,2022.2.4,MacIntel,59.99880002,5956697216b84c00012b9e72,64d2fd46c836a06233681665,64dc7de2b81681ffc42ae982,,,,,,,decisionTrl,resources/DR.BMP,resources/DY.BMP,Door4,-0.451245999,0.182626241,1,0,0,0.9688,optionLeft,60,15025,7,13,0,13,0,1,,,,,,,,,,,,,,,,,,,,,,,,,,,,,,,,,,,,,,,
,,,,,,,,2023-08-16_08h51.45.006,HF_wild_card,2022.2.4,MacIntel,59.99880002,5956697216b84c00012b9e72,64d2fd46c836a06233681665,64dc7de2b81681ffc42ae982,,,,,,,decisionTrl,resources/DY.BMP,resources/DR.BMP,Door4,0.464214003,0.222784797,1,0,0,0.8318,optionRight,60,15085,7,14,0,14,0,1,,,,,,,,,,,,,,,,,,,,,,,,,,,,,,,,,,,,,,,
,,,,,,,,2023-08-16_08h51.45.006,HF_wild_card,2022.2.4,MacIntel,59.99880002,5956697216b84c00012b9e72,64d2fd46c836a06233681665,64dc7de2b81681ffc42ae982,,,,,,,decisionTrl,resources/DB.BMP,resources/DG.BMP,Door2,-0.352517158,0.032343682,1,0,0,1.8644,optionLeft,40,15125,7,15,0,15,0,1,,,,,,,,,,,,,,,,,,,,,,,,,,,,,,,,,,,,,,,
,,,,,,,,2023-08-16_08h51.45.006,HF_wild_card,2022.2.4,MacIntel,59.99880002,5956697216b84c00012b9e72,64d2fd46c836a06233681665,64dc7de2b81681ffc42ae982,,,,,,,decisionTrl,resources/DR.BMP,resources/DY.BMP,Door4,-0.49201338,0.069205526,1,0,0,1.4024,optionLeft,80,15205,7,16,0,16,0,1,,,,,,,,,,,,,,,,,,,,,,,,,,,,,,,,,,,,,,,
,,,,,,,,2023-08-16_08h51.45.006,HF_wild_card,2022.2.4,MacIntel,59.99880002,5956697216b84c00012b9e72,64d2fd46c836a06233681665,64dc7de2b81681ffc42ae982,,,,,,,decisionTrl,resources/DY.BMP,resources/DR.BMP,Door4,0.457802327,0.162503459,1,0,0,0.8934,optionRight,80,15285,7,17,0,17,0,1,,,,,,,,,,,,,,,,,,,,,,,,,,,,,,,,,,,,,,,
,,,,,,,,2023-08-16_08h51.45.006,HF_wild_card,2022.2.4,MacIntel,59.99880002,5956697216b84c00012b9e72,64d2fd46c836a06233681665,64dc7de2b81681ffc42ae982,,,,,,,decisionTrl,resources/DR.BMP,resources/DY.BMP,Door4,-0.379002889,0.089204678,1,0,0,0.6985,optionLeft,60,15345,7,18,0,18,0,1,,,,,,,,,,,,,,,,,,,,,,,,,,,,,,,,,,,,,,,
,,,,,,,,2023-08-16_08h51.45.006,HF_wild_card,2022.2.4,MacIntel,59.99880002,5956697216b84c00012b9e72,64d2fd46c836a06233681665,64dc7de2b81681ffc42ae982,,,,,,,ctch,resources/DY.BMP,resources/DB.BMP,Door3,-0.496680705,0.116400079,1,0,0,1.2505,optionLeft,70,15415,7,19,0,19,0,1,,,,,,,,,,,,,,,,,,,,,,,,,,,,,,,,,,,,,,,
,,,,,,,,2023-08-16_08h51.45.006,HF_wild_card,2022.2.4,MacIntel,59.99880002,5956697216b84c00012b9e72,64d2fd46c836a06233681665,64dc7de2b81681ffc42ae982,,,,,,,decisionTrl,resources/DB.BMP,resources/DG.BMP,Door1,0.452388102,0.128777737,1,0,0,1.5351,optionRight,30,15445,7,20,0,20,0,1,,,,,,,,,,,,,,,,,,,,,,,,,,,,,,,,,,,,,,,
,,,,,,,,2023-08-16_08h51.45.006,HF_wild_card,2022.2.4,MacIntel,59.99880002,5956697216b84c00012b9e72,64d2fd46c836a06233681665,64dc7de2b81681ffc42ae982,,,,,,,decisionTrl,resources/DR.BMP,resources/DY.BMP,Door4,-0.419181451,0.114042765,1,0,0,0.866,optionLeft,80,15525,7,21,0,21,0,1,,,,,,,,,,,,,,,,,,,,,,,,,,,,,,,,,,,,,,,
,,,,,,,,2023-08-16_08h51.45.006,HF_wild_card,2022.2.4,MacIntel,59.99880002,5956697216b84c00012b9e72,64d2fd46c836a06233681665,64dc7de2b81681ffc42ae982,,,,,,,ctch,resources/DG.BMP,resources/DR.BMP,Door4,0.457283257,0.127512377,1,0,0,0.7991,optionRight,60,15585,7,22,0,22,0,1,,,,,,,,,,,,,,,,,,,,,,,,,,,,,,,,,,,,,,,
,,,,,,,,2023-08-16_08h51.45.006,HF_wild_card,2022.2.4,MacIntel,59.99880002,5956697216b84c00012b9e72,64d2fd46c836a06233681665,64dc7de2b81681ffc42ae982,,,,,,,decisionTrl,resources/DY.BMP,resources/DR.BMP,Door4,0.404812147,0.12456838,1,0,0,0.8143,optionRight,80,15665,7,23,0,23,0,1,,,,,,,,,,,,,,,,,,,,,,,,,,,,,,,,,,,,,,,
,,,,,,,,2023-08-16_08h51.45.006,HF_wild_card,2022.2.4,MacIntel,59.99880002,5956697216b84c00012b9e72,64d2fd46c836a06233681665,64dc7de2b81681ffc42ae982,,,,,,,decisionTrl,resources/DY.BMP,resources/DR.BMP,Door4,0.483049588,0.148359375,1,0,0,0.8647,optionRight,80,15745,7,24,0,24,0,1,,,,,,,,,,,,,,,,,,,,,,,,,,,,,,,,,,,,,,,
,,,,,,,,2023-08-16_08h51.45.006,HF_wild_card,2022.2.4,MacIntel,59.99880002,5956697216b84c00012b9e72,64d2fd46c836a06233681665,64dc7de2b81681ffc42ae982,,,,,,,decisionTrl,resources/DB.BMP,resources/DG.BMP,Door1,0.486595188,0.105496962,1,0,0,1.3837,optionRight,30,15775,7,25,0,25,0,1,,,,,,,,,,,,,,,,,,,,,,,,,,,,,,,,,,,,,,,
,,,,,,,,2023-08-16_08h51.45.006,HF_wild_card,2022.2.4,MacIntel,59.99880002,5956697216b84c00012b9e72,64d2fd46c836a06233681665,64dc7de2b81681ffc42ae982,,,,,,,decisionTrl,resources/DR.BMP,resources/DY.BMP,Door4,-0.400180325,0.085761719,1,0,0,0.8464,optionLeft,60,15835,7,26,0,26,0,1,,,,,,,,,,,,,,,,,,,,,,,,,,,,,,,,,,,,,,,
,,,,,,,,2023-08-16_08h51.45.006,HF_wild_card,2022.2.4,MacIntel,59.99880002,5956697216b84c00012b9e72,64d2fd46c836a06233681665,64dc7de2b81681ffc42ae982,,,,,,,ctch,resources/DR.BMP,resources/DG.BMP,Door4,-0.346516215,0.091253967,1,0,0,0.8805,optionLeft,80,15915,7,27,0,27,0,1,,,,,,,,,,,,,,,,,,,,,,,,,,,,,,,,,,,,,,,
,,,,,,,,2023-08-16_08h51.45.006,HF_wild_card,2022.2.4,MacIntel,59.99880002,5956697216b84c00012b9e72,64d2fd46c836a06233681665,64dc7de2b81681ffc42ae982,,,,,,,ctch,resources/DR.BMP,resources/DG.BMP,Door4,-0.352766249,0.090514052,1,0,0,0.7148,optionLeft,80,15995,7,28,0,28,0,1,,,,,,,,,,,,,,,,,,,,,,,,,,,,,,,,,,,,,,,
,,,,,,,,2023-08-16_08h51.45.006,HF_wild_card,2022.2.4,MacIntel,59.99880002,5956697216b84c00012b9e72,64d2fd46c836a06233681665,64dc7de2b81681ffc42ae982,,,,,,,ctch,resources/DG.BMP,resources/DR.BMP,Door4,0.507272,0.09485694,1,0,0,0.7835,optionRight,80,16075,7,29,0,29,0,1,,,,,,,,,,,,,,,,,,,,,,,,,,,,,,,,,,,,,,,
,,,,,,,,2023-08-16_08h51.45.006,HF_wild_card,2022.2.4,MacIntel,59.99880002,5956697216b84c00012b9e72,64d2fd46c836a06233681665,64dc7de2b81681ffc42ae982,,,,,,,decisionTrl,resources/DY.BMP,resources/DR.BMP,Door4,0.413847114,0.04930013,1,0,0,0.8835,optionRight,80,16155,7,30,0,30,0,1,,,,,,,,,,,,,,,,,,,,,,,,,,,,,,,,,,,,,,,
,,,,,,,,2023-08-16_08h51.45.006,HF_wild_card,2022.2.4,MacIntel,59.99880002,5956697216b84c00012b9e72,64d2fd46c836a06233681665,64dc7de2b81681ffc42ae982,,,,,,,decisionTrl,resources/DB.BMP,resources/DG.BMP,Door1,0.379822998,0.067842475,1,0,0,1.0798,optionRight,30,16185,7,31,0,31,0,1,,,,,,,,,,,,,,,,,,,,,,,,,,,,,,,,,,,,,,,
,,,,,,,,2023-08-16_08h51.45.006,HF_wild_card,2022.2.4,MacIntel,59.99880002,5956697216b84c00012b9e72,64d2fd46c836a06233681665,64dc7de2b81681ffc42ae982,,,,,,,decisionTrl,resources/DG.BMP,resources/DB.BMP,Door2,0.501275092,0.050872837,1,0,0,1.1814,optionRight,40,16225,7,32,0,32,0,1,,,,,,,,,,,,,,,,,,,,,,,,,,,,,,,,,,,,,,,
,,,,,,,,2023-08-16_08h51.45.006,HF_wild_card,2022.2.4,MacIntel,59.99880002,5956697216b84c00012b9e72,64d2fd46c836a06233681665,64dc7de2b81681ffc42ae982,,,,,,,decisionTrl,resources/DG.BMP,resources/DB.BMP,Door2,0.434623074,0.080860901,1,0,0,0.8998,optionRight,40,16265,7,33,0,33,0,1,,,,,,,,,,,,,,,,,,,,,,,,,,,,,,,,,,,,,,,
,,,,,,,,2023-08-16_08h51.45.006,HF_wild_card,2022.2.4,MacIntel,59.99880002,5956697216b84c00012b9e72,64d2fd46c836a06233681665,64dc7de2b81681ffc42ae982,,,,,,,ctch,resources/DY.BMP,resources/DB.BMP,Door3,-0.351562025,0.050482076,1,0,0,0.65,optionLeft,70,16335,7,34,0,34,0,1,,,,,,,,,,,,,,,,,,,,,,,,,,,,,,,,,,,,,,,
,,,,,,,,2023-08-16_08h51.45.006,HF_wild_card,2022.2.4,MacIntel,59.99880002,5956697216b84c00012b9e72,64d2fd46c836a06233681665,64dc7de2b81681ffc42ae982,,,,,,,decisionTrl,resources/DR.BMP,resources/DY.BMP,Door4,-0.260948351,0.026141968,1,0,0,1.0972,optionLeft,80,16415,7,35,0,35,0,1,,,,,,,,,,,,,,,,,,,,,,,,,,,,,,,,,,,,,,,
,,,,,,,,2023-08-16_08h51.45.006,HF_wild_card,2022.2.4,MacIntel,59.99880002,5956697216b84c00012b9e72,64d2fd46c836a06233681665,64dc7de2b81681ffc42ae982,,,,,,,,,,,,,,,,,,,,,,,,,,6,0,6,0,1,,,,,,,,,,,,,,,,,,,,,,,,,,,,,,,,,,
,,,,,,,,2023-08-16_08h51.45.006,HF_wild_card,2022.2.4,MacIntel,59.99880002,5956697216b84c00012b9e72,64d2fd46c836a06233681665,64dc7de2b81681ffc42ae982,,,,,,,,,,,,,,,,,,,,,,,,,,,,,,,4,,,,,,,,,,,,,,,,,,,,,,,,,,,,,,,,,
,,,,,,,,2023-08-16_08h51.45.006,HF_wild_card,2022.2.4,MacIntel,59.99880002,5956697216b84c00012b9e72,64d2fd46c836a06233681665,64dc7de2b81681ffc42ae982,,,,,,,,,,,,,,,,,,,,,,,,,,,,,,,,,,,,,,,,,,,,,,,,,,,,,,,,,,,,,,,,
,,,,,,,,2023-08-16_08h51.45.006,HF_wild_card,2022.2.4,MacIntel,59.99880002,5956697216b84c00012b9e72,64d2fd46c836a06233681665,64dc7de2b81681ffc42ae982,,,,,,,,,,,,,,,,,,,,,,,,,,,,,,,,95,WC_extreme,resources/DBN.BMP,0,0,0,0,1,,,,,,,,,,,,,,,,,,,,,,,,,
,,,,,,,,2023-08-16_08h51.45.006,HF_wild_card,2022.2.4,MacIntel,59.99880002,5956697216b84c00012b9e72,64d2fd46c836a06233681665,64dc7de2b81681ffc42ae982,,,,,,,,,,,,,,,,,,,,,,,,,,,,,,,,80,Door4,resources/DR.BMP,1,0,1,0,1,,,,,,,,,,,,,,,,,,,,,,,,,
,,,,,,,,2023-08-16_08h51.45.006,HF_wild_card,2022.2.4,MacIntel,59.99880002,5956697216b84c00012b9e72,64d2fd46c836a06233681665,64dc7de2b81681ffc42ae982,,,,,,,,,,,,,,,,,,,,,,,,,,,,,,,,55,WC_nonExtreme,resources/DP.BMP,2,0,2,0,1,,,,,,,,,,,,,,,,,,,,,,,,,
,,,,,,,,2023-08-16_08h51.45.006,HF_wild_card,2022.2.4,MacIntel,59.99880002,5956697216b84c00012b9e72,64d2fd46c836a06233681665,64dc7de2b81681ffc42ae982,,,,,,,,,,,,,,,,,,,,,,,,,,,,,,,,30,Door2,resources/DB.BMP,3,0,3,0,1,,,,,,,,,,,,,,,,,,,,,,,,,
