Condition,Low fixed image (Door1),Low risky image (Door2),High fixed image (Door3),High risky image (Door4),Extreme Wild Card,NonExtreme Wild Card,,date,expName,psychopyVersion,OS,frameRate,PROLIFIC_PID,STUDY_ID,SESSION_ID,mouse_2.x,mouse_2.y,mouse_2.leftButton,mouse_2.midButton,mouse_2.rightButton,mouse_2.clicked_name,Trial Type,Left Option Image,Right Option Image,Chosen Door,mouse.x,mouse.y,mouse.leftButton,mouse.midButton,mouse.rightButton,mouse.time,mouse.clicked_name,Feedback,Cumulative Reward,Block,trial.thisRepN,trial.thisTrialN,trial.thisN,trial.thisIndex,trial.ran,blocks.thisRepN,blocks.thisTrialN,blocks.thisN,blocks.thisIndex,blocks.ran,Money conversion,First Outcome Reported,Shown Door (First Outcome),Displayed Image (First Outcome),outcomes.thisRepN,outcomes.thisTrialN,outcomes.thisN,outcomes.thisIndex,outcomes.ran,judgments.thisRepN,judgments.thisTrialN,judgments.thisN,judgments.thisIndex,judgments.ran,freqMouse.x,freqMouse.y,freqMouse.leftButton,freqMouse.midButton,freqMouse.rightButton,freqMouse.clicked_name,FQJ for first outcome,FQJ for second outcome,Shown Door,Displayed Image,trials.thisRepN,trials.thisTrialN,trials.thisN,trials.thisIndex,trials.ran,judgBlock.thisRepN,judgBlock.thisTrialN,judgBlock.thisN,judgBlock.thisIndex,judgBlock.ran
1,resources/DG.BMP,resources/DP.BMP,resources/DY.BMP,resources/DB.BMP,resources/DR.BMP,resources/DBN.BMP,,2023-08-16_08h44.05.754,HF_wild_card,2022.2.4,MacIntel,62.5,5dbeff1694f30b3a8f57dfd9,64d2fd46c836a06233681665,64dc7e2de7d73c8f3e8b8b25,,,,,,,,,,,,,,,,,,,,,,,,,,,,,,,,,,,,,,,,,,,,,,,,,,,,,,,,,,,,,,,,
,,,,,,,,2023-08-16_08h44.05.754,HF_wild_card,2022.2.4,MacIntel,62.5,5dbeff1694f30b3a8f57dfd9,64d2fd46c836a06233681665,64dc7e2de7d73c8f3e8b8b25,-0.02,-0.425555556,1,0,0,agree,,,,,,,,,,,,,,,,,,,,,,,,,,,,,,,,,,,,,,,,,,,,,,,,,,,,,,,,,,
,,,,,,,,2023-08-16_08h44.05.754,HF_wild_card,2022.2.4,MacIntel,62.5,5dbeff1694f30b3a8f57dfd9,64d2fd46c836a06233681665,64dc7e2de7d73c8f3e8b8b25,,,,,,,,,,,,,,,,,,,,,,,,,,,,,,,,,,,,,,,,,,,,,,,,,,,,,,,,,,,,,,,,
,,,,,,,,2023-08-16_08h44.05.754,HF_wild_card,2022.2.4,MacIntel,62.5,5dbeff1694f30b3a8f57dfd9,64d2fd46c836a06233681665,64dc7e2de7d73c8f3e8b8b25,,,,,,,sngl,resources/Empty.png,resources/DBN.BMP,WildCard_NonEx,0.273333333,-0.14,1,0,0,4.654,optionRight,45,45,1,0,0,0,0,1,,,,,,,,,,,,,,,,,,,,,,,,,,,,,,,,,,,,,,,
,,,,,,,,2023-08-16_08h44.05.754,HF_wild_card,2022.2.4,MacIntel,62.5,5dbeff1694f30b3a8f57dfd9,64d2fd46c836a06233681665,64dc7e2de7d73c8f3e8b8b25,,,,,,,decisionTrl,resources/DY.BMP,resources/DB.BMP,Door4,0.203333333,0.003333333,1,0,0,3.759,optionRight,80,125,1,1,0,1,0,1,,,,,,,,,,,,,,,,,,,,,,,,,,,,,,,,,,,,,,,
,,,,,,,,2023-08-16_08h44.05.754,HF_wild_card,2022.2.4,MacIntel,62.5,5dbeff1694f30b3a8f57dfd9,64d2fd46c836a06233681665,64dc7e2de7d73c8f3e8b8b25,,,,,,,ctch,resources/DY.BMP,resources/DP.BMP,Door3,-0.294444444,-0.048888889,1,0,0,2.677,optionLeft,70,195,1,2,0,2,0,1,,,,,,,,,,,,,,,,,,,,,,,,,,,,,,,,,,,,,,,
,,,,,,,,2023-08-16_08h44.05.754,HF_wild_card,2022.2.4,MacIntel,62.5,5dbeff1694f30b3a8f57dfd9,64d2fd46c836a06233681665,64dc7e2de7d73c8f3e8b8b25,,,,,,,decisionTrl,resources/DY.BMP,resources/DB.BMP,Door4,0.3,-0.078888889,1,0,0,1.594,optionRight,60,255,1,3,0,3,0,1,,,,,,,,,,,,,,,,,,,,,,,,,,,,,,,,,,,,,,,
,,,,,,,,2023-08-16_08h44.05.754,HF_wild_card,2022.2.4,MacIntel,62.5,5dbeff1694f30b3a8f57dfd9,64d2fd46c836a06233681665,64dc7e2de7d73c8f3e8b8b25,,,,,,,decisionTrl,resources/DP.BMP,resources/DG.BMP,Door2,-0.275555556,-0.024444444,1,0,0,2.01,optionLeft,20,275,1,4,0,4,0,1,,,,,,,,,,,,,,,,,,,,,,,,,,,,,,,,,,,,,,,
,,,,,,,,2023-08-16_08h44.05.754,HF_wild_card,2022.2.4,MacIntel,62.5,5dbeff1694f30b3a8f57dfd9,64d2fd46c836a06233681665,64dc7e2de7d73c8f3e8b8b25,,,,,,,sngl,resources/DY.BMP,resources/Empty.png,Door3,-0.305555556,0.015555556,1,0,0,1.174,optionLeft,70,345,1,5,0,5,0,1,,,,,,,,,,,,,,,,,,,,,,,,,,,,,,,,,,,,,,,
,,,,,,,,2023-08-16_08h44.05.754,HF_wild_card,2022.2.4,MacIntel,62.5,5dbeff1694f30b3a8f57dfd9,64d2fd46c836a06233681665,64dc7e2de7d73c8f3e8b8b25,,,,,,,decisionTrl,resources/DG.BMP,resources/DP.BMP,Door2,0.267777778,0,1,0,0,1.244,optionRight,20,365,1,6,0,6,0,1,,,,,,,,,,,,,,,,,,,,,,,,,,,,,,,,,,,,,,,
,,,,,,,,2023-08-16_08h44.05.754,HF_wild_card,2022.2.4,MacIntel,62.5,5dbeff1694f30b3a8f57dfd9,64d2fd46c836a06233681665,64dc7e2de7d73c8f3e8b8b25,,,,,,,sngl,resources/DBN.BMP,resources/Empty.png,WildCard_NonEx,-0.277777778,-0.025555556,1,0,0,1.127,optionLeft,55,420,1,7,0,7,0,1,,,,,,,,,,,,,,,,,,,,,,,,,,,,,,,,,,,,,,,
,,,,,,,,2023-08-16_08h44.05.754,HF_wild_card,2022.2.4,MacIntel,62.5,5dbeff1694f30b3a8f57dfd9,64d2fd46c836a06233681665,64dc7e2de7d73c8f3e8b8b25,,,,,,,decisionTrl,resources/DP.BMP,resources/DG.BMP,Door1,0.347777778,-0.031111111,1,0,0,1.659,optionRight,30,450,1,8,0,8,0,1,,,,,,,,,,,,,,,,,,,,,,,,,,,,,,,,,,,,,,,
,,,,,,,,2023-08-16_08h44.05.754,HF_wild_card,2022.2.4,MacIntel,62.5,5dbeff1694f30b3a8f57dfd9,64d2fd46c836a06233681665,64dc7e2de7d73c8f3e8b8b25,,,,,,,decisionTrl,resources/DB.BMP,resources/DBN.BMP,WildCard_NonEx,0.308888889,0.055555556,1,0,0,1.111,optionRight,45,495,1,9,0,9,0,1,,,,,,,,,,,,,,,,,,,,,,,,,,,,,,,,,,,,,,,
,,,,,,,,2023-08-16_08h44.05.754,HF_wild_card,2022.2.4,MacIntel,62.5,5dbeff1694f30b3a8f57dfd9,64d2fd46c836a06233681665,64dc7e2de7d73c8f3e8b8b25,,,,,,,decisionTrl,resources/DG.BMP,resources/DP.BMP,Door1,-0.347777778,-0.026666667,1,0,0,0.676,optionLeft,30,525,1,10,0,10,0,1,,,,,,,,,,,,,,,,,,,,,,,,,,,,,,,,,,,,,,,
,,,,,,,,2023-08-16_08h44.05.754,HF_wild_card,2022.2.4,MacIntel,62.5,5dbeff1694f30b3a8f57dfd9,64d2fd46c836a06233681665,64dc7e2de7d73c8f3e8b8b25,,,,,,,decisionTrl,resources/DBN.BMP,resources/DY.BMP,Door3,0.28,0.066666667,1,0,0,1.328,optionRight,70,595,1,11,0,11,0,1,,,,,,,,,,,,,,,,,,,,,,,,,,,,,,,,,,,,,,,
,,,,,,,,2023-08-16_08h44.05.754,HF_wild_card,2022.2.4,MacIntel,62.5,5dbeff1694f30b3a8f57dfd9,64d2fd46c836a06233681665,64dc7e2de7d73c8f3e8b8b25,,,,,,,sngl,resources/Empty.png,resources/DBN.BMP,WildCard_NonEx,0.344444444,0.08,1,0,0,0.959,optionRight,55,650,1,12,0,12,0,1,,,,,,,,,,,,,,,,,,,,,,,,,,,,,,,,,,,,,,,
,,,,,,,,2023-08-16_08h44.05.754,HF_wild_card,2022.2.4,MacIntel,62.5,5dbeff1694f30b3a8f57dfd9,64d2fd46c836a06233681665,64dc7e2de7d73c8f3e8b8b25,,,,,,,decisionTrl,resources/DP.BMP,resources/DG.BMP,Door1,0.335555556,0.056666667,1,0,0,1.344,optionRight,30,680,1,13,0,13,0,1,,,,,,,,,,,,,,,,,,,,,,,,,,,,,,,,,,,,,,,
,,,,,,,,2023-08-16_08h44.05.754,HF_wild_card,2022.2.4,MacIntel,62.5,5dbeff1694f30b3a8f57dfd9,64d2fd46c836a06233681665,64dc7e2de7d73c8f3e8b8b25,,,,,,,sngl,resources/DBN.BMP,resources/Empty.png,WildCard_NonEx,-0.245555556,-0.011111111,1,0,0,0.926,optionLeft,45,725,1,14,0,14,0,1,,,,,,,,,,,,,,,,,,,,,,,,,,,,,,,,,,,,,,,
,,,,,,,,2023-08-16_08h44.05.754,HF_wild_card,2022.2.4,MacIntel,62.5,5dbeff1694f30b3a8f57dfd9,64d2fd46c836a06233681665,64dc7e2de7d73c8f3e8b8b25,,,,,,,sngl,resources/Empty.png,resources/DP.BMP,Door2,0.304444444,0.116666667,1,0,0,1.226,optionRight,20,745,1,15,0,15,0,1,,,,,,,,,,,,,,,,,,,,,,,,,,,,,,,,,,,,,,,
,,,,,,,,2023-08-16_08h44.05.754,HF_wild_card,2022.2.4,MacIntel,62.5,5dbeff1694f30b3a8f57dfd9,64d2fd46c836a06233681665,64dc7e2de7d73c8f3e8b8b25,,,,,,,decisionTrl,resources/DBN.BMP,resources/DP.BMP,Door2,0.364444444,0.047777778,1,0,0,1.51,optionRight,20,765,1,16,0,16,0,1,,,,,,,,,,,,,,,,,,,,,,,,,,,,,,,,,,,,,,,
,,,,,,,,2023-08-16_08h44.05.754,HF_wild_card,2022.2.4,MacIntel,62.5,5dbeff1694f30b3a8f57dfd9,64d2fd46c836a06233681665,64dc7e2de7d73c8f3e8b8b25,,,,,,,sngl,resources/Empty.png,resources/DG.BMP,Door1,0.305555556,-0.001111111,1,0,0,0.909,optionRight,30,795,1,17,0,17,0,1,,,,,,,,,,,,,,,,,,,,,,,,,,,,,,,,,,,,,,,
,,,,,,,,2023-08-16_08h44.05.754,HF_wild_card,2022.2.4,MacIntel,62.5,5dbeff1694f30b3a8f57dfd9,64d2fd46c836a06233681665,64dc7e2de7d73c8f3e8b8b25,,,,,,,decisionTrl,resources/DB.BMP,resources/DY.BMP,Door4,-0.384444444,-0.067777778,1,0,0,1.831,optionLeft,60,855,1,18,0,18,0,1,,,,,,,,,,,,,,,,,,,,,,,,,,,,,,,,,,,,,,,
,,,,,,,,2023-08-16_08h44.05.754,HF_wild_card,2022.2.4,MacIntel,62.5,5dbeff1694f30b3a8f57dfd9,64d2fd46c836a06233681665,64dc7e2de7d73c8f3e8b8b25,,,,,,,ctch,resources/DB.BMP,resources/DG.BMP,Door4,-0.307777778,-0.052222222,1,0,0,0.961,optionLeft,60,915,1,19,0,19,0,1,,,,,,,,,,,,,,,,,,,,,,,,,,,,,,,,,,,,,,,
,,,,,,,,2023-08-16_08h44.05.754,HF_wild_card,2022.2.4,MacIntel,62.5,5dbeff1694f30b3a8f57dfd9,64d2fd46c836a06233681665,64dc7e2de7d73c8f3e8b8b25,,,,,,,decisionTrl,resources/DG.BMP,resources/DBN.BMP,Door1,-0.401111111,-0.102222222,1,0,0,1.193,optionLeft,30,945,1,20,0,20,0,1,,,,,,,,,,,,,,,,,,,,,,,,,,,,,,,,,,,,,,,
,,,,,,,,2023-08-16_08h44.05.754,HF_wild_card,2022.2.4,MacIntel,62.5,5dbeff1694f30b3a8f57dfd9,64d2fd46c836a06233681665,64dc7e2de7d73c8f3e8b8b25,,,,,,,ctch,resources/DY.BMP,resources/DP.BMP,Door3,-0.364444444,-0.03,1,0,0,1.194,optionLeft,70,1015,1,21,0,21,0,1,,,,,,,,,,,,,,,,,,,,,,,,,,,,,,,,,,,,,,,
,,,,,,,,2023-08-16_08h44.05.754,HF_wild_card,2022.2.4,MacIntel,62.5,5dbeff1694f30b3a8f57dfd9,64d2fd46c836a06233681665,64dc7e2de7d73c8f3e8b8b25,,,,,,,sngl,resources/Empty.png,resources/DB.BMP,Door4,0.298888889,0.037777778,1,0,0,1.226,optionRight,60,1075,1,22,0,22,0,1,,,,,,,,,,,,,,,,,,,,,,,,,,,,,,,,,,,,,,,
,,,,,,,,2023-08-16_08h44.05.754,HF_wild_card,2022.2.4,MacIntel,62.5,5dbeff1694f30b3a8f57dfd9,64d2fd46c836a06233681665,64dc7e2de7d73c8f3e8b8b25,,,,,,,sngl,resources/Empty.png,resources/DY.BMP,Door3,0.355555556,0.006666667,1,0,0,0.832,optionRight,70,1145,1,23,0,23,0,1,,,,,,,,,,,,,,,,,,,,,,,,,,,,,,,,,,,,,,,
,,,,,,,,2023-08-16_08h44.05.754,HF_wild_card,2022.2.4,MacIntel,62.5,5dbeff1694f30b3a8f57dfd9,64d2fd46c836a06233681665,64dc7e2de7d73c8f3e8b8b25,,,,,,,decisionTrl,resources/DBN.BMP,resources/DB.BMP,Door4,0.308888889,-0.001111111,1,0,0,1.211,optionRight,80,1225,1,24,0,24,0,1,,,,,,,,,,,,,,,,,,,,,,,,,,,,,,,,,,,,,,,
,,,,,,,,2023-08-16_08h44.05.754,HF_wild_card,2022.2.4,MacIntel,62.5,5dbeff1694f30b3a8f57dfd9,64d2fd46c836a06233681665,64dc7e2de7d73c8f3e8b8b25,,,,,,,decisionTrl,resources/DB.BMP,resources/DY.BMP,Door4,-0.234444444,-0.028888889,1,0,0,1.059,optionLeft,60,1285,1,25,0,25,0,1,,,,,,,,,,,,,,,,,,,,,,,,,,,,,,,,,,,,,,,
,,,,,,,,2023-08-16_08h44.05.754,HF_wild_card,2022.2.4,MacIntel,62.5,5dbeff1694f30b3a8f57dfd9,64d2fd46c836a06233681665,64dc7e2de7d73c8f3e8b8b25,,,,,,,ctch,resources/DB.BMP,resources/DG.BMP,Door4,-0.298888889,-0.006666667,1,0,0,1.144,optionLeft,60,1345,1,26,0,26,0,1,,,,,,,,,,,,,,,,,,,,,,,,,,,,,,,,,,,,,,,
,,,,,,,,2023-08-16_08h44.05.754,HF_wild_card,2022.2.4,MacIntel,62.5,5dbeff1694f30b3a8f57dfd9,64d2fd46c836a06233681665,64dc7e2de7d73c8f3e8b8b25,,,,,,,sngl,resources/DB.BMP,resources/Empty.png,Door4,-0.34,0.012222222,1,0,0,0.894,optionLeft,80,1425,1,27,0,27,0,1,,,,,,,,,,,,,,,,,,,,,,,,,,,,,,,,,,,,,,,
,,,,,,,,2023-08-16_08h44.05.754,HF_wild_card,2022.2.4,MacIntel,62.5,5dbeff1694f30b3a8f57dfd9,64d2fd46c836a06233681665,64dc7e2de7d73c8f3e8b8b25,,,,,,,ctch,resources/DP.BMP,resources/DY.BMP,Door2,-0.39,-0.067777778,1,0,0,1.208,optionLeft,20,1445,1,28,0,28,0,1,,,,,,,,,,,,,,,,,,,,,,,,,,,,,,,,,,,,,,,
,,,,,,,,2023-08-16_08h44.05.754,HF_wild_card,2022.2.4,MacIntel,62.5,5dbeff1694f30b3a8f57dfd9,64d2fd46c836a06233681665,64dc7e2de7d73c8f3e8b8b25,,,,,,,decisionTrl,resources/DY.BMP,resources/DB.BMP,Door3,-0.296666667,-0.06,1,0,0,1.077,optionLeft,70,1515,1,29,0,29,0,1,,,,,,,,,,,,,,,,,,,,,,,,,,,,,,,,,,,,,,,
,,,,,,,,2023-08-16_08h44.05.754,HF_wild_card,2022.2.4,MacIntel,62.5,5dbeff1694f30b3a8f57dfd9,64d2fd46c836a06233681665,64dc7e2de7d73c8f3e8b8b25,,,,,,,decisionTrl,resources/DG.BMP,resources/DP.BMP,Door1,-0.385555556,-0.06,1,0,0,1.312,optionLeft,30,1545,1,30,0,30,0,1,,,,,,,,,,,,,,,,,,,,,,,,,,,,,,,,,,,,,,,
,,,,,,,,2023-08-16_08h44.05.754,HF_wild_card,2022.2.4,MacIntel,62.5,5dbeff1694f30b3a8f57dfd9,64d2fd46c836a06233681665,64dc7e2de7d73c8f3e8b8b25,,,,,,,ctch,resources/DG.BMP,resources/DB.BMP,Door1,-0.203333333,-0.032222222,1,0,0,0.776,optionLeft,30,1575,1,31,0,31,0,1,,,,,,,,,,,,,,,,,,,,,,,,,,,,,,,,,,,,,,,
,,,,,,,,2023-08-16_08h44.05.754,HF_wild_card,2022.2.4,MacIntel,62.5,5dbeff1694f30b3a8f57dfd9,64d2fd46c836a06233681665,64dc7e2de7d73c8f3e8b8b25,,,,,,,decisionTrl,resources/DP.BMP,resources/DG.BMP,Door1,0.294444444,-0.012222222,1,0,0,0.742,optionRight,30,1605,1,32,0,32,0,1,,,,,,,,,,,,,,,,,,,,,,,,,,,,,,,,,,,,,,,
,,,,,,,,2023-08-16_08h44.05.754,HF_wild_card,2022.2.4,MacIntel,62.5,5dbeff1694f30b3a8f57dfd9,64d2fd46c836a06233681665,64dc7e2de7d73c8f3e8b8b25,,,,,,,decisionTrl,resources/DG.BMP,resources/DP.BMP,Door2,0.303333333,0.002222222,1,0,0,0.909,optionRight,20,1625,1,33,0,33,0,1,,,,,,,,,,,,,,,,,,,,,,,,,,,,,,,,,,,,,,,
,,,,,,,,2023-08-16_08h44.05.754,HF_wild_card,2022.2.4,MacIntel,62.5,5dbeff1694f30b3a8f57dfd9,64d2fd46c836a06233681665,64dc7e2de7d73c8f3e8b8b25,,,,,,,sngl,resources/DG.BMP,resources/Empty.png,Door1,-0.245555556,-0.07,1,0,0,0.711,optionLeft,30,1655,1,34,0,34,0,1,,,,,,,,,,,,,,,,,,,,,,,,,,,,,,,,,,,,,,,
,,,,,,,,2023-08-16_08h44.05.754,HF_wild_card,2022.2.4,MacIntel,62.5,5dbeff1694f30b3a8f57dfd9,64d2fd46c836a06233681665,64dc7e2de7d73c8f3e8b8b25,,,,,,,decisionTrl,resources/DP.BMP,resources/DBN.BMP,WildCard_NonEx,0.341111111,0.025555556,1,0,0,0.91,optionRight,45,1700,1,35,0,35,0,1,,,,,,,,,,,,,,,,,,,,,,,,,,,,,,,,,,,,,,,
,,,,,,,,2023-08-16_08h44.05.754,HF_wild_card,2022.2.4,MacIntel,62.5,5dbeff1694f30b3a8f57dfd9,64d2fd46c836a06233681665,64dc7e2de7d73c8f3e8b8b25,,,,,,,ctch,resources/DG.BMP,resources/DB.BMP,Door4,0.253333333,0.026666667,1,0,0,1.193,optionRight,80,1780,1,36,0,36,0,1,,,,,,,,,,,,,,,,,,,,,,,,,,,,,,,,,,,,,,,
,,,,,,,,2023-08-16_08h44.05.754,HF_wild_card,2022.2.4,MacIntel,62.5,5dbeff1694f30b3a8f57dfd9,64d2fd46c836a06233681665,64dc7e2de7d73c8f3e8b8b25,,,,,,,sngl,resources/DP.BMP,resources/Empty.png,Door2,-0.33,-0.006666667,1,0,0,1.461,optionLeft,40,1820,1,37,0,37,0,1,,,,,,,,,,,,,,,,,,,,,,,,,,,,,,,,,,,,,,,
,,,,,,,,2023-08-16_08h44.05.754,HF_wild_card,2022.2.4,MacIntel,62.5,5dbeff1694f30b3a8f57dfd9,64d2fd46c836a06233681665,64dc7e2de7d73c8f3e8b8b25,,,,,,,decisionTrl,resources/DB.BMP,resources/DY.BMP,Door3,0.291111111,0.028888889,1,0,0,0.894,optionRight,70,1890,1,38,0,38,0,1,,,,,,,,,,,,,,,,,,,,,,,,,,,,,,,,,,,,,,,
,,,,,,,,2023-08-16_08h44.05.754,HF_wild_card,2022.2.4,MacIntel,62.5,5dbeff1694f30b3a8f57dfd9,64d2fd46c836a06233681665,64dc7e2de7d73c8f3e8b8b25,,,,,,,ctch,resources/DP.BMP,resources/DY.BMP,Door2,-0.367777778,-0.028888889,1,0,0,0.678,optionLeft,20,1910,1,39,0,39,0,1,,,,,,,,,,,,,,,,,,,,,,,,,,,,,,,,,,,,,,,
,,,,,,,,2023-08-16_08h44.05.754,HF_wild_card,2022.2.4,MacIntel,62.5,5dbeff1694f30b3a8f57dfd9,64d2fd46c836a06233681665,64dc7e2de7d73c8f3e8b8b25,,,,,,,decisionTrl,resources/DB.BMP,resources/DY.BMP,Door3,0.357777778,0,1,0,0,0.678,optionRight,70,1980,1,40,0,40,0,1,,,,,,,,,,,,,,,,,,,,,,,,,,,,,,,,,,,,,,,
,,,,,,,,2023-08-16_08h44.05.754,HF_wild_card,2022.2.4,MacIntel,62.5,5dbeff1694f30b3a8f57dfd9,64d2fd46c836a06233681665,64dc7e2de7d73c8f3e8b8b25,,,,,,,decisionTrl,resources/DY.BMP,resources/DB.BMP,Door4,0.278888889,-0.035555556,1,0,0,0.894,optionRight,60,2040,1,41,0,41,0,1,,,,,,,,,,,,,,,,,,,,,,,,,,,,,,,,,,,,,,,
,,,,,,,,2023-08-16_08h44.05.754,HF_wild_card,2022.2.4,MacIntel,62.5,5dbeff1694f30b3a8f57dfd9,64d2fd46c836a06233681665,64dc7e2de7d73c8f3e8b8b25,,,,,,,decisionTrl,resources/DY.BMP,resources/DBN.BMP,WildCard_NonEx,0.335555556,0.04,1,0,0,0.86,optionRight,45,2085,1,42,0,42,0,1,,,,,,,,,,,,,,,,,,,,,,,,,,,,,,,,,,,,,,,
,,,,,,,,2023-08-16_08h44.05.754,HF_wild_card,2022.2.4,MacIntel,62.5,5dbeff1694f30b3a8f57dfd9,64d2fd46c836a06233681665,64dc7e2de7d73c8f3e8b8b25,,,,,,,decisionTrl,resources/DBN.BMP,resources/DG.BMP,WildCard_NonEx,-0.255555556,-0.054444444,1,0,0,0.977,optionLeft,45,2130,1,43,0,43,0,1,,,,,,,,,,,,,,,,,,,,,,,,,,,,,,,,,,,,,,,
,,,,,,,,2023-08-16_08h44.05.754,HF_wild_card,2022.2.4,MacIntel,62.5,5dbeff1694f30b3a8f57dfd9,64d2fd46c836a06233681665,64dc7e2de7d73c8f3e8b8b25,,,,,,,,,,,,,,,,,,,,,,,,,,0,0,0,0,1,,,,,,,,,,,,,,,,,,,,,,,,,,,,,,,,,,
,,,,,,,,2023-08-16_08h44.05.754,HF_wild_card,2022.2.4,MacIntel,62.5,5dbeff1694f30b3a8f57dfd9,64d2fd46c836a06233681665,64dc7e2de7d73c8f3e8b8b25,,,,,,,decisionTrl,resources/DBN.BMP,resources/DB.BMP,WildCard_NonEx,-0.316666667,-0.117777778,1,0,0,1.374,optionLeft,45,2175,2,0,0,0,0,1,,,,,,,,,,,,,,,,,,,,,,,,,,,,,,,,,,,,,,,
,,,,,,,,2023-08-16_08h44.05.754,HF_wild_card,2022.2.4,MacIntel,62.5,5dbeff1694f30b3a8f57dfd9,64d2fd46c836a06233681665,64dc7e2de7d73c8f3e8b8b25,,,,,,,sngl,resources/Empty.png,resources/DBN.BMP,WildCard_NonEx,0.323333333,0.095555556,1,0,0,0.795,optionRight,45,2220,2,1,0,1,0,1,,,,,,,,,,,,,,,,,,,,,,,,,,,,,,,,,,,,,,,
,,,,,,,,2023-08-16_08h44.05.754,HF_wild_card,2022.2.4,MacIntel,62.5,5dbeff1694f30b3a8f57dfd9,64d2fd46c836a06233681665,64dc7e2de7d73c8f3e8b8b25,,,,,,,ctch,resources/DG.BMP,resources/DB.BMP,Door1,-0.311111111,-0.045555556,1,0,0,0.593,optionLeft,30,2250,2,2,0,2,0,1,,,,,,,,,,,,,,,,,,,,,,,,,,,,,,,,,,,,,,,
,,,,,,,,2023-08-16_08h44.05.754,HF_wild_card,2022.2.4,MacIntel,62.5,5dbeff1694f30b3a8f57dfd9,64d2fd46c836a06233681665,64dc7e2de7d73c8f3e8b8b25,,,,,,,decisionTrl,resources/DBN.BMP,resources/DP.BMP,Door2,0.303333333,0.072222222,1,0,0,1.391,optionRight,40,2290,2,3,0,3,0,1,,,,,,,,,,,,,,,,,,,,,,,,,,,,,,,,,,,,,,,
,,,,,,,,2023-08-16_08h44.05.754,HF_wild_card,2022.2.4,MacIntel,62.5,5dbeff1694f30b3a8f57dfd9,64d2fd46c836a06233681665,64dc7e2de7d73c8f3e8b8b25,,,,,,,decisionTrl,resources/DP.BMP,resources/DG.BMP,Door2,-0.336666667,-0.093333333,1,0,0,0.692,optionLeft,20,2310,2,4,0,4,0,1,,,,,,,,,,,,,,,,,,,,,,,,,,,,,,,,,,,,,,,
,,,,,,,,2023-08-16_08h44.05.754,HF_wild_card,2022.2.4,MacIntel,62.5,5dbeff1694f30b3a8f57dfd9,64d2fd46c836a06233681665,64dc7e2de7d73c8f3e8b8b25,,,,,,,decisionTrl,resources/DP.BMP,resources/DG.BMP,Door1,0.374444444,-0.014444444,1,0,0,0.627,optionRight,30,2340,2,5,0,5,0,1,,,,,,,,,,,,,,,,,,,,,,,,,,,,,,,,,,,,,,,
,,,,,,,,2023-08-16_08h44.05.754,HF_wild_card,2022.2.4,MacIntel,62.5,5dbeff1694f30b3a8f57dfd9,64d2fd46c836a06233681665,64dc7e2de7d73c8f3e8b8b25,,,,,,,decisionTrl,resources/DG.BMP,resources/DP.BMP,Door2,0.188888889,-0.064444444,1,0,0,0.71,optionRight,40,2380,2,6,0,6,0,1,,,,,,,,,,,,,,,,,,,,,,,,,,,,,,,,,,,,,,,
,,,,,,,,2023-08-16_08h44.05.754,HF_wild_card,2022.2.4,MacIntel,62.5,5dbeff1694f30b3a8f57dfd9,64d2fd46c836a06233681665,64dc7e2de7d73c8f3e8b8b25,,,,,,,decisionTrl,resources/DB.BMP,resources/DBN.BMP,WildCard_NonEx,0.384444444,0.057777778,1,0,0,1.044,optionRight,45,2425,2,7,0,7,0,1,,,,,,,,,,,,,,,,,,,,,,,,,,,,,,,,,,,,,,,
,,,,,,,,2023-08-16_08h44.05.754,HF_wild_card,2022.2.4,MacIntel,62.5,5dbeff1694f30b3a8f57dfd9,64d2fd46c836a06233681665,64dc7e2de7d73c8f3e8b8b25,,,,,,,decisionTrl,resources/DB.BMP,resources/DY.BMP,Door3,0.331111111,-0.052222222,1,0,0,0.877,optionRight,70,2495,2,8,0,8,0,1,,,,,,,,,,,,,,,,,,,,,,,,,,,,,,,,,,,,,,,
,,,,,,,,2023-08-16_08h44.05.754,HF_wild_card,2022.2.4,MacIntel,62.5,5dbeff1694f30b3a8f57dfd9,64d2fd46c836a06233681665,64dc7e2de7d73c8f3e8b8b25,,,,,,,decisionTrl,resources/DBN.BMP,resources/DY.BMP,Door3,0.373333333,0.048888889,1,0,0,0.894,optionRight,70,2565,2,9,0,9,0,1,,,,,,,,,,,,,,,,,,,,,,,,,,,,,,,,,,,,,,,
,,,,,,,,2023-08-16_08h44.05.754,HF_wild_card,2022.2.4,MacIntel,62.5,5dbeff1694f30b3a8f57dfd9,64d2fd46c836a06233681665,64dc7e2de7d73c8f3e8b8b25,,,,,,,ctch,resources/DP.BMP,resources/DY.BMP,Door3,0.335555556,-0.028888889,1,0,0,0.91,optionRight,70,2635,2,10,0,10,0,1,,,,,,,,,,,,,,,,,,,,,,,,,,,,,,,,,,,,,,,
,,,,,,,,2023-08-16_08h44.05.754,HF_wild_card,2022.2.4,MacIntel,62.5,5dbeff1694f30b3a8f57dfd9,64d2fd46c836a06233681665,64dc7e2de7d73c8f3e8b8b25,,,,,,,sngl,resources/Empty.png,resources/DY.BMP,Door3,0.334444444,0.013333333,1,0,0,0.728,optionRight,70,2705,2,11,0,11,0,1,,,,,,,,,,,,,,,,,,,,,,,,,,,,,,,,,,,,,,,
,,,,,,,,2023-08-16_08h44.05.754,HF_wild_card,2022.2.4,MacIntel,62.5,5dbeff1694f30b3a8f57dfd9,64d2fd46c836a06233681665,64dc7e2de7d73c8f3e8b8b25,,,,,,,sngl,resources/DBN.BMP,resources/Empty.png,WildCard_NonEx,-0.221111111,-0.037777778,1,0,0,0.977,optionLeft,55,2760,2,12,0,12,0,1,,,,,,,,,,,,,,,,,,,,,,,,,,,,,,,,,,,,,,,
,,,,,,,,2023-08-16_08h44.05.754,HF_wild_card,2022.2.4,MacIntel,62.5,5dbeff1694f30b3a8f57dfd9,64d2fd46c836a06233681665,64dc7e2de7d73c8f3e8b8b25,,,,,,,sngl,resources/DB.BMP,resources/Empty.png,Door4,-0.333333333,-0.097777778,1,0,0,0.943,optionLeft,60,2820,2,13,0,13,0,1,,,,,,,,,,,,,,,,,,,,,,,,,,,,,,,,,,,,,,,
,,,,,,,,2023-08-16_08h44.05.754,HF_wild_card,2022.2.4,MacIntel,62.5,5dbeff1694f30b3a8f57dfd9,64d2fd46c836a06233681665,64dc7e2de7d73c8f3e8b8b25,,,,,,,sngl,resources/Empty.png,resources/DBN.BMP,WildCard_NonEx,0.393333333,0.076666667,1,0,0,0.611,optionRight,55,2875,2,14,0,14,0,1,,,,,,,,,,,,,,,,,,,,,,,,,,,,,,,,,,,,,,,
,,,,,,,,2023-08-16_08h44.05.754,HF_wild_card,2022.2.4,MacIntel,62.5,5dbeff1694f30b3a8f57dfd9,64d2fd46c836a06233681665,64dc7e2de7d73c8f3e8b8b25,,,,,,,sngl,resources/DG.BMP,resources/Empty.png,Door1,-0.365555556,-0.028888889,1,0,0,1.961,optionLeft,30,2905,2,15,0,15,0,1,,,,,,,,,,,,,,,,,,,,,,,,,,,,,,,,,,,,,,,
,,,,,,,,2023-08-16_08h44.05.754,HF_wild_card,2022.2.4,MacIntel,62.5,5dbeff1694f30b3a8f57dfd9,64d2fd46c836a06233681665,64dc7e2de7d73c8f3e8b8b25,,,,,,,decisionTrl,resources/DB.BMP,resources/DY.BMP,Door3,0.295555556,-0.051111111,1,0,0,0.827,optionRight,70,2975,2,16,0,16,0,1,,,,,,,,,,,,,,,,,,,,,,,,,,,,,,,,,,,,,,,
,,,,,,,,2023-08-16_08h44.05.754,HF_wild_card,2022.2.4,MacIntel,62.5,5dbeff1694f30b3a8f57dfd9,64d2fd46c836a06233681665,64dc7e2de7d73c8f3e8b8b25,,,,,,,ctch,resources/DB.BMP,resources/DG.BMP,Door1,0.375555556,-0.023333333,1,0,0,0.577,optionRight,30,3005,2,17,0,17,0,1,,,,,,,,,,,,,,,,,,,,,,,,,,,,,,,,,,,,,,,
,,,,,,,,2023-08-16_08h44.05.754,HF_wild_card,2022.2.4,MacIntel,62.5,5dbeff1694f30b3a8f57dfd9,64d2fd46c836a06233681665,64dc7e2de7d73c8f3e8b8b25,,,,,,,sngl,resources/DP.BMP,resources/Empty.png,Door2,-0.258888889,-0.008888889,1,0,0,0.743,optionLeft,20,3025,2,18,0,18,0,1,,,,,,,,,,,,,,,,,,,,,,,,,,,,,,,,,,,,,,,
,,,,,,,,2023-08-16_08h44.05.754,HF_wild_card,2022.2.4,MacIntel,62.5,5dbeff1694f30b3a8f57dfd9,64d2fd46c836a06233681665,64dc7e2de7d73c8f3e8b8b25,,,,,,,decisionTrl,resources/DY.BMP,resources/DB.BMP,Door3,-0.454444444,0.024444444,1,0,0,0.761,optionLeft,70,3095,2,19,0,19,0,1,,,,,,,,,,,,,,,,,,,,,,,,,,,,,,,,,,,,,,,
,,,,,,,,2023-08-16_08h44.05.754,HF_wild_card,2022.2.4,MacIntel,62.5,5dbeff1694f30b3a8f57dfd9,64d2fd46c836a06233681665,64dc7e2de7d73c8f3e8b8b25,,,,,,,decisionTrl,resources/DY.BMP,resources/DB.BMP,Door3,-0.406666667,-0.014444444,1,0,0,0.928,optionLeft,70,3165,2,20,0,20,0,1,,,,,,,,,,,,,,,,,,,,,,,,,,,,,,,,,,,,,,,
,,,,,,,,2023-08-16_08h44.05.754,HF_wild_card,2022.2.4,MacIntel,62.5,5dbeff1694f30b3a8f57dfd9,64d2fd46c836a06233681665,64dc7e2de7d73c8f3e8b8b25,,,,,,,decisionTrl,resources/DB.BMP,resources/DY.BMP,Door3,0.308888889,-0.124444444,1,0,0,0.711,optionRight,70,3235,2,21,0,21,0,1,,,,,,,,,,,,,,,,,,,,,,,,,,,,,,,,,,,,,,,
,,,,,,,,2023-08-16_08h44.05.754,HF_wild_card,2022.2.4,MacIntel,62.5,5dbeff1694f30b3a8f57dfd9,64d2fd46c836a06233681665,64dc7e2de7d73c8f3e8b8b25,,,,,,,decisionTrl,resources/DBN.BMP,resources/DG.BMP,Door1,0.427777778,-0.088888889,1,0,0,0.694,optionRight,30,3265,2,22,0,22,0,1,,,,,,,,,,,,,,,,,,,,,,,,,,,,,,,,,,,,,,,
,,,,,,,,2023-08-16_08h44.05.754,HF_wild_card,2022.2.4,MacIntel,62.5,5dbeff1694f30b3a8f57dfd9,64d2fd46c836a06233681665,64dc7e2de7d73c8f3e8b8b25,,,,,,,ctch,resources/DB.BMP,resources/DG.BMP,Door1,0.243333333,-0.052222222,1,0,0,0.662,optionRight,30,3295,2,23,0,23,0,1,,,,,,,,,,,,,,,,,,,,,,,,,,,,,,,,,,,,,,,
,,,,,,,,2023-08-16_08h44.05.754,HF_wild_card,2022.2.4,MacIntel,62.5,5dbeff1694f30b3a8f57dfd9,64d2fd46c836a06233681665,64dc7e2de7d73c8f3e8b8b25,,,,,,,sngl,resources/DY.BMP,resources/Empty.png,Door3,-0.347777778,-0.013333333,1,0,0,0.56,optionLeft,70,3365,2,24,0,24,0,1,,,,,,,,,,,,,,,,,,,,,,,,,,,,,,,,,,,,,,,
,,,,,,,,2023-08-16_08h44.05.754,HF_wild_card,2022.2.4,MacIntel,62.5,5dbeff1694f30b3a8f57dfd9,64d2fd46c836a06233681665,64dc7e2de7d73c8f3e8b8b25,,,,,,,decisionTrl,resources/DP.BMP,resources/DBN.BMP,WildCard_NonEx,0.314444444,-0.04,1,0,0,0.66,optionRight,45,3410,2,25,0,25,0,1,,,,,,,,,,,,,,,,,,,,,,,,,,,,,,,,,,,,,,,
,,,,,,,,2023-08-16_08h44.05.754,HF_wild_card,2022.2.4,MacIntel,62.5,5dbeff1694f30b3a8f57dfd9,64d2fd46c836a06233681665,64dc7e2de7d73c8f3e8b8b25,,,,,,,ctch,resources/DY.BMP,resources/DP.BMP,Door3,-0.258888889,-0.014444444,1,0,0,0.627,optionLeft,70,3480,2,26,0,26,0,1,,,,,,,,,,,,,,,,,,,,,,,,,,,,,,,,,,,,,,,
,,,,,,,,2023-08-16_08h44.05.754,HF_wild_card,2022.2.4,MacIntel,62.5,5dbeff1694f30b3a8f57dfd9,64d2fd46c836a06233681665,64dc7e2de7d73c8f3e8b8b25,,,,,,,decisionTrl,resources/DP.BMP,resources/DG.BMP,Door2,-0.31,0.006666667,1,0,0,0.661,optionLeft,20,3500,2,27,0,27,0,1,,,,,,,,,,,,,,,,,,,,,,,,,,,,,,,,,,,,,,,
,,,,,,,,2023-08-16_08h44.05.754,HF_wild_card,2022.2.4,MacIntel,62.5,5dbeff1694f30b3a8f57dfd9,64d2fd46c836a06233681665,64dc7e2de7d73c8f3e8b8b25,,,,,,,sngl,resources/DBN.BMP,resources/Empty.png,WildCard_NonEx,-0.348888889,0.01,1,0,0,0.697,optionLeft,45,3545,2,28,0,28,0,1,,,,,,,,,,,,,,,,,,,,,,,,,,,,,,,,,,,,,,,
,,,,,,,,2023-08-16_08h44.05.754,HF_wild_card,2022.2.4,MacIntel,62.5,5dbeff1694f30b3a8f57dfd9,64d2fd46c836a06233681665,64dc7e2de7d73c8f3e8b8b25,,,,,,,decisionTrl,resources/DG.BMP,resources/DBN.BMP,Door1,-0.368888889,0.008888889,1,0,0,1.727,optionLeft,30,3575,2,29,0,29,0,1,,,,,,,,,,,,,,,,,,,,,,,,,,,,,,,,,,,,,,,
,,,,,,,,2023-08-16_08h44.05.754,HF_wild_card,2022.2.4,MacIntel,62.5,5dbeff1694f30b3a8f57dfd9,64d2fd46c836a06233681665,64dc7e2de7d73c8f3e8b8b25,,,,,,,decisionTrl,resources/DY.BMP,resources/DB.BMP,Door3,-0.225555556,-0.038888889,1,0,0,0.627,optionLeft,70,3645,2,30,0,30,0,1,,,,,,,,,,,,,,,,,,,,,,,,,,,,,,,,,,,,,,,
,,,,,,,,2023-08-16_08h44.05.754,HF_wild_card,2022.2.4,MacIntel,62.5,5dbeff1694f30b3a8f57dfd9,64d2fd46c836a06233681665,64dc7e2de7d73c8f3e8b8b25,,,,,,,decisionTrl,resources/DG.BMP,resources/DP.BMP,Door2,0.264444444,-0.051111111,1,0,0,0.877,optionRight,40,3685,2,31,0,31,0,1,,,,,,,,,,,,,,,,,,,,,,,,,,,,,,,,,,,,,,,
,,,,,,,,2023-08-16_08h44.05.754,HF_wild_card,2022.2.4,MacIntel,62.5,5dbeff1694f30b3a8f57dfd9,64d2fd46c836a06233681665,64dc7e2de7d73c8f3e8b8b25,,,,,,,ctch,resources/DG.BMP,resources/DB.BMP,Door1,-0.336666667,-0.046666667,1,0,0,0.61,optionLeft,30,3715,2,32,0,32,0,1,,,,,,,,,,,,,,,,,,,,,,,,,,,,,,,,,,,,,,,
,,,,,,,,2023-08-16_08h44.05.754,HF_wild_card,2022.2.4,MacIntel,62.5,5dbeff1694f30b3a8f57dfd9,64d2fd46c836a06233681665,64dc7e2de7d73c8f3e8b8b25,,,,,,,decisionTrl,resources/DY.BMP,resources/DBN.BMP,WildCard_NonEx,0.433333333,-0.107777778,1,0,0,0.609,optionRight,45,3760,2,33,0,33,0,1,,,,,,,,,,,,,,,,,,,,,,,,,,,,,,,,,,,,,,,
,,,,,,,,2023-08-16_08h44.05.754,HF_wild_card,2022.2.4,MacIntel,62.5,5dbeff1694f30b3a8f57dfd9,64d2fd46c836a06233681665,64dc7e2de7d73c8f3e8b8b25,,,,,,,decisionTrl,resources/DP.BMP,resources/DG.BMP,Door2,-0.383333333,-0.051111111,1,0,0,0.744,optionLeft,40,3800,2,34,0,34,0,1,,,,,,,,,,,,,,,,,,,,,,,,,,,,,,,,,,,,,,,
,,,,,,,,2023-08-16_08h44.05.754,HF_wild_card,2022.2.4,MacIntel,62.5,5dbeff1694f30b3a8f57dfd9,64d2fd46c836a06233681665,64dc7e2de7d73c8f3e8b8b25,,,,,,,decisionTrl,resources/DG.BMP,resources/DP.BMP,Door1,-0.276666667,-0.033333333,1,0,0,0.661,optionLeft,30,3830,2,35,0,35,0,1,,,,,,,,,,,,,,,,,,,,,,,,,,,,,,,,,,,,,,,
,,,,,,,,2023-08-16_08h44.05.754,HF_wild_card,2022.2.4,MacIntel,62.5,5dbeff1694f30b3a8f57dfd9,64d2fd46c836a06233681665,64dc7e2de7d73c8f3e8b8b25,,,,,,,sngl,resources/Empty.png,resources/DG.BMP,Door1,0.315555556,-0.062222222,1,0,0,0.843,optionRight,30,3860,2,36,0,36,0,1,,,,,,,,,,,,,,,,,,,,,,,,,,,,,,,,,,,,,,,
,,,,,,,,2023-08-16_08h44.05.754,HF_wild_card,2022.2.4,MacIntel,62.5,5dbeff1694f30b3a8f57dfd9,64d2fd46c836a06233681665,64dc7e2de7d73c8f3e8b8b25,,,,,,,sngl,resources/Empty.png,resources/DP.BMP,Door2,0.345555556,-0.054444444,1,0,0,0.811,optionRight,40,3900,2,37,0,37,0,1,,,,,,,,,,,,,,,,,,,,,,,,,,,,,,,,,,,,,,,
,,,,,,,,2023-08-16_08h44.05.754,HF_wild_card,2022.2.4,MacIntel,62.5,5dbeff1694f30b3a8f57dfd9,64d2fd46c836a06233681665,64dc7e2de7d73c8f3e8b8b25,,,,,,,sngl,resources/Empty.png,resources/DB.BMP,Door4,0.381111111,-0.042222222,1,0,0,0.661,optionRight,80,3980,2,38,0,38,0,1,,,,,,,,,,,,,,,,,,,,,,,,,,,,,,,,,,,,,,,
,,,,,,,,2023-08-16_08h44.05.754,HF_wild_card,2022.2.4,MacIntel,62.5,5dbeff1694f30b3a8f57dfd9,64d2fd46c836a06233681665,64dc7e2de7d73c8f3e8b8b25,,,,,,,ctch,resources/DP.BMP,resources/DY.BMP,Door3,0.335555556,-0.045555556,1,0,0,0.645,optionRight,70,4050,2,39,0,39,0,1,,,,,,,,,,,,,,,,,,,,,,,,,,,,,,,,,,,,,,,
,,,,,,,,2023-08-16_08h44.05.754,HF_wild_card,2022.2.4,MacIntel,62.5,5dbeff1694f30b3a8f57dfd9,64d2fd46c836a06233681665,64dc7e2de7d73c8f3e8b8b25,,,,,,,decisionTrl,resources/DY.BMP,resources/DB.BMP,Door4,0.272222222,-0.058888889,1,0,0,0.594,optionRight,60,4110,2,40,0,40,0,1,,,,,,,,,,,,,,,,,,,,,,,,,,,,,,,,,,,,,,,
,,,,,,,,2023-08-16_08h44.05.754,HF_wild_card,2022.2.4,MacIntel,62.5,5dbeff1694f30b3a8f57dfd9,64d2fd46c836a06233681665,64dc7e2de7d73c8f3e8b8b25,,,,,,,decisionTrl,resources/DB.BMP,resources/DY.BMP,Door3,0.345555556,-0.052222222,1,0,0,0.961,optionRight,70,4180,2,41,0,41,0,1,,,,,,,,,,,,,,,,,,,,,,,,,,,,,,,,,,,,,,,
,,,,,,,,2023-08-16_08h44.05.754,HF_wild_card,2022.2.4,MacIntel,62.5,5dbeff1694f30b3a8f57dfd9,64d2fd46c836a06233681665,64dc7e2de7d73c8f3e8b8b25,,,,,,,decisionTrl,resources/DG.BMP,resources/DP.BMP,Door2,0.358888889,-0.106666667,1,0,0,0.861,optionRight,40,4220,2,42,0,42,0,1,,,,,,,,,,,,,,,,,,,,,,,,,,,,,,,,,,,,,,,
,,,,,,,,2023-08-16_08h44.05.754,HF_wild_card,2022.2.4,MacIntel,62.5,5dbeff1694f30b3a8f57dfd9,64d2fd46c836a06233681665,64dc7e2de7d73c8f3e8b8b25,,,,,,,ctch,resources/DY.BMP,resources/DP.BMP,Door2,0.293333333,-0.083333333,1,0,0,0.661,optionRight,20,4240,2,43,0,43,0,1,,,,,,,,,,,,,,,,,,,,,,,,,,,,,,,,,,,,,,,
,,,,,,,,2023-08-16_08h44.05.754,HF_wild_card,2022.2.4,MacIntel,62.5,5dbeff1694f30b3a8f57dfd9,64d2fd46c836a06233681665,64dc7e2de7d73c8f3e8b8b25,,,,,,,,,,,,,,,,,,,,,,,,,,1,0,1,0,1,,,,,,,,,,,,,,,,,,,,,,,,,,,,,,,,,,
,,,,,,,,2023-08-16_08h44.05.754,HF_wild_card,2022.2.4,MacIntel,62.5,5dbeff1694f30b3a8f57dfd9,64d2fd46c836a06233681665,64dc7e2de7d73c8f3e8b8b25,,,,,,,sngl,resources/DY.BMP,resources/Empty.png,Door3,-0.426666667,-0.074444444,1,0,0,0.859,optionLeft,70,4310,3,0,0,0,0,1,,,,,,,,,,,,,,,,,,,,,,,,,,,,,,,,,,,,,,,
,,,,,,,,2023-08-16_08h44.05.754,HF_wild_card,2022.2.4,MacIntel,62.5,5dbeff1694f30b3a8f57dfd9,64d2fd46c836a06233681665,64dc7e2de7d73c8f3e8b8b25,,,,,,,sngl,resources/Empty.png,resources/DBN.BMP,WildCard_NonEx,0.198888889,-0.061111111,1,0,0,0.543,optionRight,55,4365,3,1,0,1,0,1,,,,,,,,,,,,,,,,,,,,,,,,,,,,,,,,,,,,,,,
,,,,,,,,2023-08-16_08h44.05.754,HF_wild_card,2022.2.4,MacIntel,62.5,5dbeff1694f30b3a8f57dfd9,64d2fd46c836a06233681665,64dc7e2de7d73c8f3e8b8b25,,,,,,,decisionTrl,resources/DY.BMP,resources/DB.BMP,Door3,-0.227777778,-0.002222222,1,0,0,0.645,optionLeft,70,4435,3,2,0,2,0,1,,,,,,,,,,,,,,,,,,,,,,,,,,,,,,,,,,,,,,,
,,,,,,,,2023-08-16_08h44.05.754,HF_wild_card,2022.2.4,MacIntel,62.5,5dbeff1694f30b3a8f57dfd9,64d2fd46c836a06233681665,64dc7e2de7d73c8f3e8b8b25,,,,,,,decisionTrl,resources/DG.BMP,resources/DP.BMP,Door2,0.361111111,-0.147777778,1,0,0,0.626,optionRight,40,4475,3,3,0,3,0,1,,,,,,,,,,,,,,,,,,,,,,,,,,,,,,,,,,,,,,,
,,,,,,,,2023-08-16_08h44.05.754,HF_wild_card,2022.2.4,MacIntel,62.5,5dbeff1694f30b3a8f57dfd9,64d2fd46c836a06233681665,64dc7e2de7d73c8f3e8b8b25,,,,,,,decisionTrl,resources/DB.BMP,resources/DY.BMP,Door3,0.356666667,-0.175555556,1,0,0,0.678,optionRight,70,4545,3,4,0,4,0,1,,,,,,,,,,,,,,,,,,,,,,,,,,,,,,,,,,,,,,,
,,,,,,,,2023-08-16_08h44.05.754,HF_wild_card,2022.2.4,MacIntel,62.5,5dbeff1694f30b3a8f57dfd9,64d2fd46c836a06233681665,64dc7e2de7d73c8f3e8b8b25,,,,,,,ctch,resources/DY.BMP,resources/DP.BMP,Door3,-0.271111111,-0.031111111,1,0,0,0.626,optionLeft,70,4615,3,5,0,5,0,1,,,,,,,,,,,,,,,,,,,,,,,,,,,,,,,,,,,,,,,
,,,,,,,,2023-08-16_08h44.05.754,HF_wild_card,2022.2.4,MacIntel,62.5,5dbeff1694f30b3a8f57dfd9,64d2fd46c836a06233681665,64dc7e2de7d73c8f3e8b8b25,,,,,,,decisionTrl,resources/DB.BMP,resources/DY.BMP,Door3,0.331111111,-0.16,1,0,0,0.61,optionRight,70,4685,3,6,0,6,0,1,,,,,,,,,,,,,,,,,,,,,,,,,,,,,,,,,,,,,,,
,,,,,,,,2023-08-16_08h44.05.754,HF_wild_card,2022.2.4,MacIntel,62.5,5dbeff1694f30b3a8f57dfd9,64d2fd46c836a06233681665,64dc7e2de7d73c8f3e8b8b25,,,,,,,ctch,resources/DP.BMP,resources/DY.BMP,Door3,0.395555556,-0.202222222,1,0,0,0.66,optionRight,70,4755,3,7,0,7,0,1,,,,,,,,,,,,,,,,,,,,,,,,,,,,,,,,,,,,,,,
,,,,,,,,2023-08-16_08h44.05.754,HF_wild_card,2022.2.4,MacIntel,62.5,5dbeff1694f30b3a8f57dfd9,64d2fd46c836a06233681665,64dc7e2de7d73c8f3e8b8b25,,,,,,,sngl,resources/Empty.png,resources/DY.BMP,Door3,0.346666667,-0.101111111,1,0,0,0.577,optionRight,70,4825,3,8,0,8,0,1,,,,,,,,,,,,,,,,,,,,,,,,,,,,,,,,,,,,,,,
,,,,,,,,2023-08-16_08h44.05.754,HF_wild_card,2022.2.4,MacIntel,62.5,5dbeff1694f30b3a8f57dfd9,64d2fd46c836a06233681665,64dc7e2de7d73c8f3e8b8b25,,,,,,,ctch,resources/DG.BMP,resources/DB.BMP,Door1,-0.251111111,0.03,1,0,0,1.477,optionLeft,30,4855,3,9,0,9,0,1,,,,,,,,,,,,,,,,,,,,,,,,,,,,,,,,,,,,,,,
,,,,,,,,2023-08-16_08h44.05.754,HF_wild_card,2022.2.4,MacIntel,62.5,5dbeff1694f30b3a8f57dfd9,64d2fd46c836a06233681665,64dc7e2de7d73c8f3e8b8b25,,,,,,,decisionTrl,resources/DB.BMP,resources/DBN.BMP,Door4,-0.261111111,0.025555556,1,0,0,0.728,optionLeft,60,4915,3,10,0,10,0,1,,,,,,,,,,,,,,,,,,,,,,,,,,,,,,,,,,,,,,,
,,,,,,,,2023-08-16_08h44.05.754,HF_wild_card,2022.2.4,MacIntel,62.5,5dbeff1694f30b3a8f57dfd9,64d2fd46c836a06233681665,64dc7e2de7d73c8f3e8b8b25,,,,,,,ctch,resources/DP.BMP,resources/DY.BMP,Door3,0.296666667,0.011111111,1,0,0,0.877,optionRight,70,4985,3,11,0,11,0,1,,,,,,,,,,,,,,,,,,,,,,,,,,,,,,,,,,,,,,,
,,,,,,,,2023-08-16_08h44.05.754,HF_wild_card,2022.2.4,MacIntel,62.5,5dbeff1694f30b3a8f57dfd9,64d2fd46c836a06233681665,64dc7e2de7d73c8f3e8b8b25,,,,,,,sngl,resources/DP.BMP,resources/Empty.png,Door2,-0.427777778,0.041111111,1,0,0,0.693,optionLeft,40,5025,3,12,0,12,0,1,,,,,,,,,,,,,,,,,,,,,,,,,,,,,,,,,,,,,,,
,,,,,,,,2023-08-16_08h44.05.754,HF_wild_card,2022.2.4,MacIntel,62.5,5dbeff1694f30b3a8f57dfd9,64d2fd46c836a06233681665,64dc7e2de7d73c8f3e8b8b25,,,,,,,decisionTrl,resources/DBN.BMP,resources/DP.BMP,WildCard_NonEx,-0.357777778,0.062222222,1,0,0,1.244,optionLeft,55,5080,3,13,0,13,0,1,,,,,,,,,,,,,,,,,,,,,,,,,,,,,,,,,,,,,,,
,,,,,,,,2023-08-16_08h44.05.754,HF_wild_card,2022.2.4,MacIntel,62.5,5dbeff1694f30b3a8f57dfd9,64d2fd46c836a06233681665,64dc7e2de7d73c8f3e8b8b25,,,,,,,sngl,resources/DB.BMP,resources/Empty.png,Door4,-0.408888889,-0.02,1,0,0,0.845,optionLeft,80,5160,3,14,0,14,0,1,,,,,,,,,,,,,,,,,,,,,,,,,,,,,,,,,,,,,,,
,,,,,,,,2023-08-16_08h44.05.754,HF_wild_card,2022.2.4,MacIntel,62.5,5dbeff1694f30b3a8f57dfd9,64d2fd46c836a06233681665,64dc7e2de7d73c8f3e8b8b25,,,,,,,decisionTrl,resources/DG.BMP,resources/DP.BMP,Door2,0.294444444,-0.076666667,1,0,0,1.261,optionRight,20,5180,3,15,0,15,0,1,,,,,,,,,,,,,,,,,,,,,,,,,,,,,,,,,,,,,,,
,,,,,,,,2023-08-16_08h44.05.754,HF_wild_card,2022.2.4,MacIntel,62.5,5dbeff1694f30b3a8f57dfd9,64d2fd46c836a06233681665,64dc7e2de7d73c8f3e8b8b25,,,,,,,decisionTrl,resources/DBN.BMP,resources/DG.BMP,WildCard_NonEx,-0.297777778,0.022222222,1,0,0,0.995,optionLeft,45,5225,3,16,0,16,0,1,,,,,,,,,,,,,,,,,,,,,,,,,,,,,,,,,,,,,,,
,,,,,,,,2023-08-16_08h44.05.754,HF_wild_card,2022.2.4,MacIntel,62.5,5dbeff1694f30b3a8f57dfd9,64d2fd46c836a06233681665,64dc7e2de7d73c8f3e8b8b25,,,,,,,decisionTrl,resources/DB.BMP,resources/DY.BMP,Door3,0.295555556,-0.113333333,1,0,0,0.813,optionRight,70,5295,3,17,0,17,0,1,,,,,,,,,,,,,,,,,,,,,,,,,,,,,,,,,,,,,,,
,,,,,,,,2023-08-16_08h44.05.754,HF_wild_card,2022.2.4,MacIntel,62.5,5dbeff1694f30b3a8f57dfd9,64d2fd46c836a06233681665,64dc7e2de7d73c8f3e8b8b25,,,,,,,decisionTrl,resources/DY.BMP,resources/DB.BMP,Door4,0.341111111,-0.072222222,1,0,0,0.744,optionRight,80,5375,3,18,0,18,0,1,,,,,,,,,,,,,,,,,,,,,,,,,,,,,,,,,,,,,,,
,,,,,,,,2023-08-16_08h44.05.754,HF_wild_card,2022.2.4,MacIntel,62.5,5dbeff1694f30b3a8f57dfd9,64d2fd46c836a06233681665,64dc7e2de7d73c8f3e8b8b25,,,,,,,sngl,resources/DBN.BMP,resources/Empty.png,WildCard_NonEx,-0.372222222,0.023333333,1,0,0,0.743,optionLeft,55,5430,3,19,0,19,0,1,,,,,,,,,,,,,,,,,,,,,,,,,,,,,,,,,,,,,,,
,,,,,,,,2023-08-16_08h44.05.754,HF_wild_card,2022.2.4,MacIntel,62.5,5dbeff1694f30b3a8f57dfd9,64d2fd46c836a06233681665,64dc7e2de7d73c8f3e8b8b25,,,,,,,sngl,resources/Empty.png,resources/DG.BMP,Door1,0.353333333,-0.05,1,0,0,0.628,optionRight,30,5460,3,20,0,20,0,1,,,,,,,,,,,,,,,,,,,,,,,,,,,,,,,,,,,,,,,
,,,,,,,,2023-08-16_08h44.05.754,HF_wild_card,2022.2.4,MacIntel,62.5,5dbeff1694f30b3a8f57dfd9,64d2fd46c836a06233681665,64dc7e2de7d73c8f3e8b8b25,,,,,,,ctch,resources/DG.BMP,resources/DB.BMP,Door4,0.333333333,-0.021111111,1,0,0,0.729,optionRight,60,5520,3,21,0,21,0,1,,,,,,,,,,,,,,,,,,,,,,,,,,,,,,,,,,,,,,,
,,,,,,,,2023-08-16_08h44.05.754,HF_wild_card,2022.2.4,MacIntel,62.5,5dbeff1694f30b3a8f57dfd9,64d2fd46c836a06233681665,64dc7e2de7d73c8f3e8b8b25,,,,,,,decisionTrl,resources/DG.BMP,resources/DP.BMP,Door2,0.36,-0.071111111,1,0,0,0.743,optionRight,20,5540,3,22,0,22,0,1,,,,,,,,,,,,,,,,,,,,,,,,,,,,,,,,,,,,,,,
,,,,,,,,2023-08-16_08h44.05.754,HF_wild_card,2022.2.4,MacIntel,62.5,5dbeff1694f30b3a8f57dfd9,64d2fd46c836a06233681665,64dc7e2de7d73c8f3e8b8b25,,,,,,,ctch,resources/DB.BMP,resources/DG.BMP,Door1,0.324444444,-0.064444444,1,0,0,0.711,optionRight,30,5570,3,23,0,23,0,1,,,,,,,,,,,,,,,,,,,,,,,,,,,,,,,,,,,,,,,
,,,,,,,,2023-08-16_08h44.05.754,HF_wild_card,2022.2.4,MacIntel,62.5,5dbeff1694f30b3a8f57dfd9,64d2fd46c836a06233681665,64dc7e2de7d73c8f3e8b8b25,,,,,,,decisionTrl,resources/DP.BMP,resources/DG.BMP,Door2,-0.232222222,0.002222222,1,0,0,0.811,optionLeft,20,5590,3,24,0,24,0,1,,,,,,,,,,,,,,,,,,,,,,,,,,,,,,,,,,,,,,,
,,,,,,,,2023-08-16_08h44.05.754,HF_wild_card,2022.2.4,MacIntel,62.5,5dbeff1694f30b3a8f57dfd9,64d2fd46c836a06233681665,64dc7e2de7d73c8f3e8b8b25,,,,,,,ctch,resources/DY.BMP,resources/DP.BMP,Door3,-0.397777778,-0.055555556,1,0,0,1.078,optionLeft,70,5660,3,25,0,25,0,1,,,,,,,,,,,,,,,,,,,,,,,,,,,,,,,,,,,,,,,
,,,,,,,,2023-08-16_08h44.05.754,HF_wild_card,2022.2.4,MacIntel,62.5,5dbeff1694f30b3a8f57dfd9,64d2fd46c836a06233681665,64dc7e2de7d73c8f3e8b8b25,,,,,,,decisionTrl,resources/DY.BMP,resources/DB.BMP,Door3,-0.286666667,-0.032222222,1,0,0,0.644,optionLeft,70,5730,3,26,0,26,0,1,,,,,,,,,,,,,,,,,,,,,,,,,,,,,,,,,,,,,,,
,,,,,,,,2023-08-16_08h44.05.754,HF_wild_card,2022.2.4,MacIntel,62.5,5dbeff1694f30b3a8f57dfd9,64d2fd46c836a06233681665,64dc7e2de7d73c8f3e8b8b25,,,,,,,sngl,resources/DG.BMP,resources/Empty.png,Door1,-0.327777778,-0.02,1,0,0,0.629,optionLeft,30,5760,3,27,0,27,0,1,,,,,,,,,,,,,,,,,,,,,,,,,,,,,,,,,,,,,,,
,,,,,,,,2023-08-16_08h44.05.754,HF_wild_card,2022.2.4,MacIntel,62.5,5dbeff1694f30b3a8f57dfd9,64d2fd46c836a06233681665,64dc7e2de7d73c8f3e8b8b25,,,,,,,decisionTrl,resources/DP.BMP,resources/DG.BMP,Door1,0.335555556,-0.037777778,1,0,0,0.843,optionRight,30,5790,3,28,0,28,0,1,,,,,,,,,,,,,,,,,,,,,,,,,,,,,,,,,,,,,,,
,,,,,,,,2023-08-16_08h44.05.754,HF_wild_card,2022.2.4,MacIntel,62.5,5dbeff1694f30b3a8f57dfd9,64d2fd46c836a06233681665,64dc7e2de7d73c8f3e8b8b25,,,,,,,decisionTrl,resources/DY.BMP,resources/DBN.BMP,Door3,-0.273333333,0.055555556,1,0,0,1.377,optionLeft,70,5860,3,29,0,29,0,1,,,,,,,,,,,,,,,,,,,,,,,,,,,,,,,,,,,,,,,
,,,,,,,,2023-08-16_08h44.05.754,HF_wild_card,2022.2.4,MacIntel,62.5,5dbeff1694f30b3a8f57dfd9,64d2fd46c836a06233681665,64dc7e2de7d73c8f3e8b8b25,,,,,,,decisionTrl,resources/DBN.BMP,resources/DB.BMP,Door4,0.196666667,-0.03,1,0,0,1.195,optionRight,80,5940,3,30,0,30,0,1,,,,,,,,,,,,,,,,,,,,,,,,,,,,,,,,,,,,,,,
,,,,,,,,2023-08-16_08h44.05.754,HF_wild_card,2022.2.4,MacIntel,62.5,5dbeff1694f30b3a8f57dfd9,64d2fd46c836a06233681665,64dc7e2de7d73c8f3e8b8b25,,,,,,,decisionTrl,resources/DY.BMP,resources/DB.BMP,Door3,-0.408888889,0.012222222,1,0,0,0.894,optionLeft,70,6010,3,31,0,31,0,1,,,,,,,,,,,,,,,,,,,,,,,,,,,,,,,,,,,,,,,
,,,,,,,,2023-08-16_08h44.05.754,HF_wild_card,2022.2.4,MacIntel,62.5,5dbeff1694f30b3a8f57dfd9,64d2fd46c836a06233681665,64dc7e2de7d73c8f3e8b8b25,,,,,,,decisionTrl,resources/DP.BMP,resources/DG.BMP,Door2,-0.411111111,-0.098888889,1,0,0,0.994,optionLeft,40,6050,3,32,0,32,0,1,,,,,,,,,,,,,,,,,,,,,,,,,,,,,,,,,,,,,,,
,,,,,,,,2023-08-16_08h44.05.754,HF_wild_card,2022.2.4,MacIntel,62.5,5dbeff1694f30b3a8f57dfd9,64d2fd46c836a06233681665,64dc7e2de7d73c8f3e8b8b25,,,,,,,decisionTrl,resources/DP.BMP,resources/DG.BMP,Door1,0.315555556,-0.086666667,1,0,0,0.697,optionRight,30,6080,3,33,0,33,0,1,,,,,,,,,,,,,,,,,,,,,,,,,,,,,,,,,,,,,,,
,,,,,,,,2023-08-16_08h44.05.754,HF_wild_card,2022.2.4,MacIntel,62.5,5dbeff1694f30b3a8f57dfd9,64d2fd46c836a06233681665,64dc7e2de7d73c8f3e8b8b25,,,,,,,decisionTrl,resources/DBN.BMP,resources/DY.BMP,Door3,0.331111111,-0.078888889,1,0,0,0.626,optionRight,70,6150,3,34,0,34,0,1,,,,,,,,,,,,,,,,,,,,,,,,,,,,,,,,,,,,,,,
,,,,,,,,2023-08-16_08h44.05.754,HF_wild_card,2022.2.4,MacIntel,62.5,5dbeff1694f30b3a8f57dfd9,64d2fd46c836a06233681665,64dc7e2de7d73c8f3e8b8b25,,,,,,,decisionTrl,resources/DG.BMP,resources/DP.BMP,Door2,0.353333333,-0.097777778,1,0,0,0.88,optionRight,20,6170,3,35,0,35,0,1,,,,,,,,,,,,,,,,,,,,,,,,,,,,,,,,,,,,,,,
,,,,,,,,2023-08-16_08h44.05.754,HF_wild_card,2022.2.4,MacIntel,62.5,5dbeff1694f30b3a8f57dfd9,64d2fd46c836a06233681665,64dc7e2de7d73c8f3e8b8b25,,,,,,,sngl,resources/DBN.BMP,resources/Empty.png,WildCard_NonEx,-0.413333333,0.024444444,1,0,0,0.761,optionLeft,45,6215,3,36,0,36,0,1,,,,,,,,,,,,,,,,,,,,,,,,,,,,,,,,,,,,,,,
,,,,,,,,2023-08-16_08h44.05.754,HF_wild_card,2022.2.4,MacIntel,62.5,5dbeff1694f30b3a8f57dfd9,64d2fd46c836a06233681665,64dc7e2de7d73c8f3e8b8b25,,,,,,,decisionTrl,resources/DP.BMP,resources/DBN.BMP,Door2,-0.348888889,-0.057777778,1,0,0,0.744,optionLeft,40,6255,3,37,0,37,0,1,,,,,,,,,,,,,,,,,,,,,,,,,,,,,,,,,,,,,,,
,,,,,,,,2023-08-16_08h44.05.754,HF_wild_card,2022.2.4,MacIntel,62.5,5dbeff1694f30b3a8f57dfd9,64d2fd46c836a06233681665,64dc7e2de7d73c8f3e8b8b25,,,,,,,decisionTrl,resources/DB.BMP,resources/DY.BMP,Door3,0.367777778,-0.054444444,1,0,0,1.047,optionRight,70,6325,3,38,0,38,0,1,,,,,,,,,,,,,,,,,,,,,,,,,,,,,,,,,,,,,,,
,,,,,,,,2023-08-16_08h44.05.754,HF_wild_card,2022.2.4,MacIntel,62.5,5dbeff1694f30b3a8f57dfd9,64d2fd46c836a06233681665,64dc7e2de7d73c8f3e8b8b25,,,,,,,ctch,resources/DB.BMP,resources/DG.BMP,Door1,0.294444444,-0.072222222,1,0,0,0.729,optionRight,30,6355,3,39,0,39,0,1,,,,,,,,,,,,,,,,,,,,,,,,,,,,,,,,,,,,,,,
,,,,,,,,2023-08-16_08h44.05.754,HF_wild_card,2022.2.4,MacIntel,62.5,5dbeff1694f30b3a8f57dfd9,64d2fd46c836a06233681665,64dc7e2de7d73c8f3e8b8b25,,,,,,,decisionTrl,resources/DG.BMP,resources/DBN.BMP,Door1,-0.24,-0.03,1,0,0,0.58,optionLeft,30,6385,3,40,0,40,0,1,,,,,,,,,,,,,,,,,,,,,,,,,,,,,,,,,,,,,,,
,,,,,,,,2023-08-16_08h44.05.754,HF_wild_card,2022.2.4,MacIntel,62.5,5dbeff1694f30b3a8f57dfd9,64d2fd46c836a06233681665,64dc7e2de7d73c8f3e8b8b25,,,,,,,sngl,resources/Empty.png,resources/DBN.BMP,WildCard_NonEx,0.285555556,-0.044444444,1,0,0,0.576,optionRight,45,6430,3,41,0,41,0,1,,,,,,,,,,,,,,,,,,,,,,,,,,,,,,,,,,,,,,,
,,,,,,,,2023-08-16_08h44.05.754,HF_wild_card,2022.2.4,MacIntel,62.5,5dbeff1694f30b3a8f57dfd9,64d2fd46c836a06233681665,64dc7e2de7d73c8f3e8b8b25,,,,,,,sngl,resources/Empty.png,resources/DP.BMP,Door2,0.407777778,-0.117777778,1,0,0,0.694,optionRight,20,6450,3,42,0,42,0,1,,,,,,,,,,,,,,,,,,,,,,,,,,,,,,,,,,,,,,,
,,,,,,,,2023-08-16_08h44.05.754,HF_wild_card,2022.2.4,MacIntel,62.5,5dbeff1694f30b3a8f57dfd9,64d2fd46c836a06233681665,64dc7e2de7d73c8f3e8b8b25,,,,,,,sngl,resources/Empty.png,resources/DB.BMP,Door4,0.386666667,-0.1,1,0,0,0.594,optionRight,60,6510,3,43,0,43,0,1,,,,,,,,,,,,,,,,,,,,,,,,,,,,,,,,,,,,,,,
,,,,,,,,2023-08-16_08h44.05.754,HF_wild_card,2022.2.4,MacIntel,62.5,5dbeff1694f30b3a8f57dfd9,64d2fd46c836a06233681665,64dc7e2de7d73c8f3e8b8b25,,,,,,,,,,,,,,,,,,,,,,,,,,2,0,2,0,1,,,,,,,,,,,,,,,,,,,,,,,,,,,,,,,,,,
,,,,,,,,2023-08-16_08h44.05.754,HF_wild_card,2022.2.4,MacIntel,62.5,5dbeff1694f30b3a8f57dfd9,64d2fd46c836a06233681665,64dc7e2de7d73c8f3e8b8b25,,,,,,,decisionTrl,resources/DG.BMP,resources/DP.BMP,Door1,-0.273333333,-0.134444444,1,0,0,0.993,optionLeft,30,6540,4,0,0,0,0,1,,,,,,,,,,,,,,,,,,,,,,,,,,,,,,,,,,,,,,,
,,,,,,,,2023-08-16_08h44.05.754,HF_wild_card,2022.2.4,MacIntel,62.5,5dbeff1694f30b3a8f57dfd9,64d2fd46c836a06233681665,64dc7e2de7d73c8f3e8b8b25,,,,,,,sngl,resources/DG.BMP,resources/Empty.png,Door1,-0.285555556,-0.017777778,1,0,0,0.843,optionLeft,30,6570,4,1,0,1,0,1,,,,,,,,,,,,,,,,,,,,,,,,,,,,,,,,,,,,,,,
,,,,,,,,2023-08-16_08h44.05.754,HF_wild_card,2022.2.4,MacIntel,62.5,5dbeff1694f30b3a8f57dfd9,64d2fd46c836a06233681665,64dc7e2de7d73c8f3e8b8b25,,,,,,,decisionTrl,resources/DG.BMP,resources/DR.BMP,Door1,-0.244444444,-0.022222222,1,0,0,1.028,optionLeft,30,6600,4,2,0,2,0,1,,,,,,,,,,,,,,,,,,,,,,,,,,,,,,,,,,,,,,,
,,,,,,,,2023-08-16_08h44.05.754,HF_wild_card,2022.2.4,MacIntel,62.5,5dbeff1694f30b3a8f57dfd9,64d2fd46c836a06233681665,64dc7e2de7d73c8f3e8b8b25,,,,,,,decisionTrl,resources/DP.BMP,resources/DG.BMP,Door1,0.374444444,0.023333333,1,0,0,1.362,optionRight,30,6630,4,3,0,3,0,1,,,,,,,,,,,,,,,,,,,,,,,,,,,,,,,,,,,,,,,
,,,,,,,,2023-08-16_08h44.05.754,HF_wild_card,2022.2.4,MacIntel,62.5,5dbeff1694f30b3a8f57dfd9,64d2fd46c836a06233681665,64dc7e2de7d73c8f3e8b8b25,,,,,,,decisionTrl,resources/DG.BMP,resources/DP.BMP,Door1,-0.327777778,-0.037777778,1,0,0,0.76,optionLeft,30,6660,4,4,0,4,0,1,,,,,,,,,,,,,,,,,,,,,,,,,,,,,,,,,,,,,,,
,,,,,,,,2023-08-16_08h44.05.754,HF_wild_card,2022.2.4,MacIntel,62.5,5dbeff1694f30b3a8f57dfd9,64d2fd46c836a06233681665,64dc7e2de7d73c8f3e8b8b25,,,,,,,decisionTrl,resources/DR.BMP,resources/DY.BMP,Door3,0.26,-0.005555556,1,0,0,0.575,optionRight,70,6730,4,5,0,5,0,1,,,,,,,,,,,,,,,,,,,,,,,,,,,,,,,,,,,,,,,
,,,,,,,,2023-08-16_08h44.05.754,HF_wild_card,2022.2.4,MacIntel,62.5,5dbeff1694f30b3a8f57dfd9,64d2fd46c836a06233681665,64dc7e2de7d73c8f3e8b8b25,,,,,,,sngl,resources/DY.BMP,resources/Empty.png,Door3,-0.28,-0.053333333,1,0,0,0.81,optionLeft,70,6800,4,6,0,6,0,1,,,,,,,,,,,,,,,,,,,,,,,,,,,,,,,,,,,,,,,
,,,,,,,,2023-08-16_08h44.05.754,HF_wild_card,2022.2.4,MacIntel,62.5,5dbeff1694f30b3a8f57dfd9,64d2fd46c836a06233681665,64dc7e2de7d73c8f3e8b8b25,,,,,,,sngl,resources/Empty.png,resources/DY.BMP,Door3,0.312222222,0.007777778,1,0,0,0.677,optionRight,70,6870,4,7,0,7,0,1,,,,,,,,,,,,,,,,,,,,,,,,,,,,,,,,,,,,,,,
,,,,,,,,2023-08-16_08h44.05.754,HF_wild_card,2022.2.4,MacIntel,62.5,5dbeff1694f30b3a8f57dfd9,64d2fd46c836a06233681665,64dc7e2de7d73c8f3e8b8b25,,,,,,,sngl,resources/Empty.png,resources/DG.BMP,Door1,0.277777778,-0.003333333,1,0,0,0.726,optionRight,30,6900,4,8,0,8,0,1,,,,,,,,,,,,,,,,,,,,,,,,,,,,,,,,,,,,,,,
,,,,,,,,2023-08-16_08h44.05.754,HF_wild_card,2022.2.4,MacIntel,62.5,5dbeff1694f30b3a8f57dfd9,64d2fd46c836a06233681665,64dc7e2de7d73c8f3e8b8b25,,,,,,,decisionTrl,resources/DY.BMP,resources/DB.BMP,Door3,-0.29,-0.111111111,1,0,0,0.61,optionLeft,70,6970,4,9,0,9,0,1,,,,,,,,,,,,,,,,,,,,,,,,,,,,,,,,,,,,,,,
,,,,,,,,2023-08-16_08h44.05.754,HF_wild_card,2022.2.4,MacIntel,62.5,5dbeff1694f30b3a8f57dfd9,64d2fd46c836a06233681665,64dc7e2de7d73c8f3e8b8b25,,,,,,,decisionTrl,resources/DP.BMP,resources/DG.BMP,Door2,-0.471111111,-0.133333333,1,0,0,0.985,optionLeft,20,6990,4,10,0,10,0,1,,,,,,,,,,,,,,,,,,,,,,,,,,,,,,,,,,,,,,,
,,,,,,,,2023-08-16_08h44.05.754,HF_wild_card,2022.2.4,MacIntel,62.5,5dbeff1694f30b3a8f57dfd9,64d2fd46c836a06233681665,64dc7e2de7d73c8f3e8b8b25,,,,,,,decisionTrl,resources/DR.BMP,resources/DG.BMP,WildCard_Ex,-0.375555556,-0.086666667,1,0,0,0.81,optionLeft,5,6995,4,11,0,11,0,1,,,,,,,,,,,,,,,,,,,,,,,,,,,,,,,,,,,,,,,
,,,,,,,,2023-08-16_08h44.05.754,HF_wild_card,2022.2.4,MacIntel,62.5,5dbeff1694f30b3a8f57dfd9,64d2fd46c836a06233681665,64dc7e2de7d73c8f3e8b8b25,,,,,,,decisionTrl,resources/DP.BMP,resources/DG.BMP,Door1,0.408888889,0.113333333,1,0,0,0.611,optionRight,30,7025,4,12,0,12,0,1,,,,,,,,,,,,,,,,,,,,,,,,,,,,,,,,,,,,,,,
,,,,,,,,2023-08-16_08h44.05.754,HF_wild_card,2022.2.4,MacIntel,62.5,5dbeff1694f30b3a8f57dfd9,64d2fd46c836a06233681665,64dc7e2de7d73c8f3e8b8b25,,,,,,,ctch,resources/DY.BMP,resources/DP.BMP,Door3,-0.264444444,-0.02,1,0,0,2.097,optionLeft,70,7095,4,13,0,13,0,1,,,,,,,,,,,,,,,,,,,,,,,,,,,,,,,,,,,,,,,
,,,,,,,,2023-08-16_08h44.05.754,HF_wild_card,2022.2.4,MacIntel,62.5,5dbeff1694f30b3a8f57dfd9,64d2fd46c836a06233681665,64dc7e2de7d73c8f3e8b8b25,,,,,,,ctch,resources/DP.BMP,resources/DY.BMP,Door3,0.267777778,0.008888889,1,0,0,0.727,optionRight,70,7165,4,14,0,14,0,1,,,,,,,,,,,,,,,,,,,,,,,,,,,,,,,,,,,,,,,
,,,,,,,,2023-08-16_08h44.05.754,HF_wild_card,2022.2.4,MacIntel,62.5,5dbeff1694f30b3a8f57dfd9,64d2fd46c836a06233681665,64dc7e2de7d73c8f3e8b8b25,,,,,,,decisionTrl,resources/DP.BMP,resources/DG.BMP,Door2,-0.367777778,-0.067777778,1,0,0,0.729,optionLeft,20,7185,4,15,0,15,0,1,,,,,,,,,,,,,,,,,,,,,,,,,,,,,,,,,,,,,,,
,,,,,,,,2023-08-16_08h44.05.754,HF_wild_card,2022.2.4,MacIntel,62.5,5dbeff1694f30b3a8f57dfd9,64d2fd46c836a06233681665,64dc7e2de7d73c8f3e8b8b25,,,,,,,sngl,resources/DP.BMP,resources/Empty.png,Door2,-0.333333333,-0.085555556,1,0,0,1.027,optionLeft,20,7205,4,16,0,16,0,1,,,,,,,,,,,,,,,,,,,,,,,,,,,,,,,,,,,,,,,
,,,,,,,,2023-08-16_08h44.05.754,HF_wild_card,2022.2.4,MacIntel,62.5,5dbeff1694f30b3a8f57dfd9,64d2fd46c836a06233681665,64dc7e2de7d73c8f3e8b8b25,,,,,,,ctch,resources/DB.BMP,resources/DG.BMP,Door4,-0.376666667,-0.098888889,1,0,0,1.647,optionLeft,80,7285,4,17,0,17,0,1,,,,,,,,,,,,,,,,,,,,,,,,,,,,,,,,,,,,,,,
,,,,,,,,2023-08-16_08h44.05.754,HF_wild_card,2022.2.4,MacIntel,62.5,5dbeff1694f30b3a8f57dfd9,64d2fd46c836a06233681665,64dc7e2de7d73c8f3e8b8b25,,,,,,,ctch,resources/DG.BMP,resources/DB.BMP,Door4,0.214444444,0.022222222,1,0,0,0.878,optionRight,60,7345,4,18,0,18,0,1,,,,,,,,,,,,,,,,,,,,,,,,,,,,,,,,,,,,,,,
,,,,,,,,2023-08-16_08h44.05.754,HF_wild_card,2022.2.4,MacIntel,62.5,5dbeff1694f30b3a8f57dfd9,64d2fd46c836a06233681665,64dc7e2de7d73c8f3e8b8b25,,,,,,,decisionTrl,resources/DB.BMP,resources/DY.BMP,Door4,-0.334444444,-0.04,1,0,0,0.66,optionLeft,80,7425,4,19,0,19,0,1,,,,,,,,,,,,,,,,,,,,,,,,,,,,,,,,,,,,,,,
,,,,,,,,2023-08-16_08h44.05.754,HF_wild_card,2022.2.4,MacIntel,62.5,5dbeff1694f30b3a8f57dfd9,64d2fd46c836a06233681665,64dc7e2de7d73c8f3e8b8b25,,,,,,,sngl,resources/DR.BMP,resources/Empty.png,WildCard_Ex,-0.378888889,-0.044444444,1,0,0,0.609,optionLeft,95,7520,4,20,0,20,0,1,,,,,,,,,,,,,,,,,,,,,,,,,,,,,,,,,,,,,,,
,,,,,,,,2023-08-16_08h44.05.754,HF_wild_card,2022.2.4,MacIntel,62.5,5dbeff1694f30b3a8f57dfd9,64d2fd46c836a06233681665,64dc7e2de7d73c8f3e8b8b25,,,,,,,ctch,resources/DY.BMP,resources/DP.BMP,Door3,-0.333333333,-0.058888889,1,0,0,0.893,optionLeft,70,7590,4,21,0,21,0,1,,,,,,,,,,,,,,,,,,,,,,,,,,,,,,,,,,,,,,,
,,,,,,,,2023-08-16_08h44.05.754,HF_wild_card,2022.2.4,MacIntel,62.5,5dbeff1694f30b3a8f57dfd9,64d2fd46c836a06233681665,64dc7e2de7d73c8f3e8b8b25,,,,,,,decisionTrl,resources/DG.BMP,resources/DP.BMP,Door1,-0.34,-0.085555556,1,0,0,0.709,optionLeft,30,7620,4,22,0,22,0,1,,,,,,,,,,,,,,,,,,,,,,,,,,,,,,,,,,,,,,,
,,,,,,,,2023-08-16_08h44.05.754,HF_wild_card,2022.2.4,MacIntel,62.5,5dbeff1694f30b3a8f57dfd9,64d2fd46c836a06233681665,64dc7e2de7d73c8f3e8b8b25,,,,,,,decisionTrl,resources/DY.BMP,resources/DR.BMP,WildCard_Ex,0.48,-0.041111111,1,0,0,0.661,optionRight,5,7625,4,23,0,23,0,1,,,,,,,,,,,,,,,,,,,,,,,,,,,,,,,,,,,,,,,
,,,,,,,,2023-08-16_08h44.05.754,HF_wild_card,2022.2.4,MacIntel,62.5,5dbeff1694f30b3a8f57dfd9,64d2fd46c836a06233681665,64dc7e2de7d73c8f3e8b8b25,,,,,,,ctch,resources/DB.BMP,resources/DG.BMP,Door4,-0.367777778,-0.06,1,0,0,0.61,optionLeft,80,7705,4,24,0,24,0,1,,,,,,,,,,,,,,,,,,,,,,,,,,,,,,,,,,,,,,,
,,,,,,,,2023-08-16_08h44.05.754,HF_wild_card,2022.2.4,MacIntel,62.5,5dbeff1694f30b3a8f57dfd9,64d2fd46c836a06233681665,64dc7e2de7d73c8f3e8b8b25,,,,,,,decisionTrl,resources/DB.BMP,resources/DR.BMP,Door4,-0.402222222,-0.074444444,1,0,0,0.577,optionLeft,60,7765,4,25,0,25,0,1,,,,,,,,,,,,,,,,,,,,,,,,,,,,,,,,,,,,,,,
,,,,,,,,2023-08-16_08h44.05.754,HF_wild_card,2022.2.4,MacIntel,62.5,5dbeff1694f30b3a8f57dfd9,64d2fd46c836a06233681665,64dc7e2de7d73c8f3e8b8b25,,,,,,,decisionTrl,resources/DG.BMP,resources/DP.BMP,Door2,0.261111111,-0.053333333,1,0,0,1.144,optionRight,20,7785,4,26,0,26,0,1,,,,,,,,,,,,,,,,,,,,,,,,,,,,,,,,,,,,,,,
,,,,,,,,2023-08-16_08h44.05.754,HF_wild_card,2022.2.4,MacIntel,62.5,5dbeff1694f30b3a8f57dfd9,64d2fd46c836a06233681665,64dc7e2de7d73c8f3e8b8b25,,,,,,,decisionTrl,resources/DR.BMP,resources/DB.BMP,WildCard_Ex,-0.255555556,-0.05,1,0,0,0.677,optionLeft,95,7880,4,27,0,27,0,1,,,,,,,,,,,,,,,,,,,,,,,,,,,,,,,,,,,,,,,
,,,,,,,,2023-08-16_08h44.05.754,HF_wild_card,2022.2.4,MacIntel,62.5,5dbeff1694f30b3a8f57dfd9,64d2fd46c836a06233681665,64dc7e2de7d73c8f3e8b8b25,,,,,,,sngl,resources/DB.BMP,resources/Empty.png,Door4,-0.31,-0.042222222,1,0,0,0.764,optionLeft,60,7940,4,28,0,28,0,1,,,,,,,,,,,,,,,,,,,,,,,,,,,,,,,,,,,,,,,
,,,,,,,,2023-08-16_08h44.05.754,HF_wild_card,2022.2.4,MacIntel,62.5,5dbeff1694f30b3a8f57dfd9,64d2fd46c836a06233681665,64dc7e2de7d73c8f3e8b8b25,,,,,,,decisionTrl,resources/DP.BMP,resources/DR.BMP,Door2,-0.278888889,-0.016666667,1,0,0,0.728,optionLeft,40,7980,4,29,0,29,0,1,,,,,,,,,,,,,,,,,,,,,,,,,,,,,,,,,,,,,,,
,,,,,,,,2023-08-16_08h44.05.754,HF_wild_card,2022.2.4,MacIntel,62.5,5dbeff1694f30b3a8f57dfd9,64d2fd46c836a06233681665,64dc7e2de7d73c8f3e8b8b25,,,,,,,ctch,resources/DG.BMP,resources/DB.BMP,Door1,-0.242222222,-0.021111111,1,0,0,0.961,optionLeft,30,8010,4,30,0,30,0,1,,,,,,,,,,,,,,,,,,,,,,,,,,,,,,,,,,,,,,,
,,,,,,,,2023-08-16_08h44.05.754,HF_wild_card,2022.2.4,MacIntel,62.5,5dbeff1694f30b3a8f57dfd9,64d2fd46c836a06233681665,64dc7e2de7d73c8f3e8b8b25,,,,,,,decisionTrl,resources/DY.BMP,resources/DB.BMP,Door3,-0.328888889,0.018888889,1,0,0,0.894,optionLeft,70,8080,4,31,0,31,0,1,,,,,,,,,,,,,,,,,,,,,,,,,,,,,,,,,,,,,,,
,,,,,,,,2023-08-16_08h44.05.754,HF_wild_card,2022.2.4,MacIntel,62.5,5dbeff1694f30b3a8f57dfd9,64d2fd46c836a06233681665,64dc7e2de7d73c8f3e8b8b25,,,,,,,decisionTrl,resources/DR.BMP,resources/DP.BMP,WildCard_Ex,-0.408888889,-0.071111111,1,0,0,1.028,optionLeft,95,8175,4,32,0,32,0,1,,,,,,,,,,,,,,,,,,,,,,,,,,,,,,,,,,,,,,,
,,,,,,,,2023-08-16_08h44.05.754,HF_wild_card,2022.2.4,MacIntel,62.5,5dbeff1694f30b3a8f57dfd9,64d2fd46c836a06233681665,64dc7e2de7d73c8f3e8b8b25,,,,,,,decisionTrl,resources/DB.BMP,resources/DY.BMP,Door4,-0.365555556,-0.053333333,1,0,0,0.677,optionLeft,60,8235,4,33,0,33,0,1,,,,,,,,,,,,,,,,,,,,,,,,,,,,,,,,,,,,,,,
,,,,,,,,2023-08-16_08h44.05.754,HF_wild_card,2022.2.4,MacIntel,62.5,5dbeff1694f30b3a8f57dfd9,64d2fd46c836a06233681665,64dc7e2de7d73c8f3e8b8b25,,,,,,,sngl,resources/DR.BMP,resources/Empty.png,WildCard_Ex,-0.345555556,-0.013333333,1,0,0,0.594,optionLeft,5,8240,4,34,0,34,0,1,,,,,,,,,,,,,,,,,,,,,,,,,,,,,,,,,,,,,,,
,,,,,,,,2023-08-16_08h44.05.754,HF_wild_card,2022.2.4,MacIntel,62.5,5dbeff1694f30b3a8f57dfd9,64d2fd46c836a06233681665,64dc7e2de7d73c8f3e8b8b25,,,,,,,decisionTrl,resources/DY.BMP,resources/DB.BMP,Door3,-0.337777778,0.003333333,1,0,0,0.579,optionLeft,70,8310,4,35,0,35,0,1,,,,,,,,,,,,,,,,,,,,,,,,,,,,,,,,,,,,,,,
,,,,,,,,2023-08-16_08h44.05.754,HF_wild_card,2022.2.4,MacIntel,62.5,5dbeff1694f30b3a8f57dfd9,64d2fd46c836a06233681665,64dc7e2de7d73c8f3e8b8b25,,,,,,,decisionTrl,resources/DY.BMP,resources/DB.BMP,Door3,-0.317777778,-0.003333333,1,0,0,0.561,optionLeft,70,8380,4,36,0,36,0,1,,,,,,,,,,,,,,,,,,,,,,,,,,,,,,,,,,,,,,,
,,,,,,,,2023-08-16_08h44.05.754,HF_wild_card,2022.2.4,MacIntel,62.5,5dbeff1694f30b3a8f57dfd9,64d2fd46c836a06233681665,64dc7e2de7d73c8f3e8b8b25,,,,,,,decisionTrl,resources/DB.BMP,resources/DY.BMP,Door4,-0.342222222,-0.011111111,1,0,0,0.611,optionLeft,80,8460,4,37,0,37,0,1,,,,,,,,,,,,,,,,,,,,,,,,,,,,,,,,,,,,,,,
,,,,,,,,2023-08-16_08h44.05.754,HF_wild_card,2022.2.4,MacIntel,62.5,5dbeff1694f30b3a8f57dfd9,64d2fd46c836a06233681665,64dc7e2de7d73c8f3e8b8b25,,,,,,,sngl,resources/Empty.png,resources/DR.BMP,WildCard_Ex,0.338888889,0.042222222,1,0,0,0.977,optionRight,95,8555,4,38,0,38,0,1,,,,,,,,,,,,,,,,,,,,,,,,,,,,,,,,,,,,,,,
,,,,,,,,2023-08-16_08h44.05.754,HF_wild_card,2022.2.4,MacIntel,62.5,5dbeff1694f30b3a8f57dfd9,64d2fd46c836a06233681665,64dc7e2de7d73c8f3e8b8b25,,,,,,,decisionTrl,resources/DB.BMP,resources/DY.BMP,Door3,0.346666667,0.032222222,1,0,0,4.01,optionRight,70,8625,4,39,0,39,0,1,,,,,,,,,,,,,,,,,,,,,,,,,,,,,,,,,,,,,,,
,,,,,,,,2023-08-16_08h44.05.754,HF_wild_card,2022.2.4,MacIntel,62.5,5dbeff1694f30b3a8f57dfd9,64d2fd46c836a06233681665,64dc7e2de7d73c8f3e8b8b25,,,,,,,sngl,resources/Empty.png,resources/DR.BMP,WildCard_Ex,0.294444444,-0.116666667,1,0,0,0.91,optionRight,5,8630,4,40,0,40,0,1,,,,,,,,,,,,,,,,,,,,,,,,,,,,,,,,,,,,,,,
,,,,,,,,2023-08-16_08h44.05.754,HF_wild_card,2022.2.4,MacIntel,62.5,5dbeff1694f30b3a8f57dfd9,64d2fd46c836a06233681665,64dc7e2de7d73c8f3e8b8b25,,,,,,,sngl,resources/Empty.png,resources/DB.BMP,Door4,0.282222222,-0.027777778,1,0,0,0.961,optionRight,80,8710,4,41,0,41,0,1,,,,,,,,,,,,,,,,,,,,,,,,,,,,,,,,,,,,,,,
,,,,,,,,2023-08-16_08h44.05.754,HF_wild_card,2022.2.4,MacIntel,62.5,5dbeff1694f30b3a8f57dfd9,64d2fd46c836a06233681665,64dc7e2de7d73c8f3e8b8b25,,,,,,,ctch,resources/DP.BMP,resources/DY.BMP,Door2,-0.286666667,-0.038888889,1,0,0,0.944,optionLeft,20,8730,4,42,0,42,0,1,,,,,,,,,,,,,,,,,,,,,,,,,,,,,,,,,,,,,,,
,,,,,,,,2023-08-16_08h44.05.754,HF_wild_card,2022.2.4,MacIntel,62.5,5dbeff1694f30b3a8f57dfd9,64d2fd46c836a06233681665,64dc7e2de7d73c8f3e8b8b25,,,,,,,sngl,resources/Empty.png,resources/DP.BMP,Door2,0.42,-0.008888889,1,0,0,0.611,optionRight,40,8770,4,43,0,43,0,1,,,,,,,,,,,,,,,,,,,,,,,,,,,,,,,,,,,,,,,
,,,,,,,,2023-08-16_08h44.05.754,HF_wild_card,2022.2.4,MacIntel,62.5,5dbeff1694f30b3a8f57dfd9,64d2fd46c836a06233681665,64dc7e2de7d73c8f3e8b8b25,,,,,,,,,,,,,,,,,,,,,,,,,,3,0,3,0,1,,,,,,,,,,,,,,,,,,,,,,,,,,,,,,,,,,
,,,,,,,,2023-08-16_08h44.05.754,HF_wild_card,2022.2.4,MacIntel,62.5,5dbeff1694f30b3a8f57dfd9,64d2fd46c836a06233681665,64dc7e2de7d73c8f3e8b8b25,,,,,,,ctch,resources/DG.BMP,resources/DB.BMP,Door1,-0.325555556,-0.018888889,1,0,0,0.792,optionLeft,30,8800,5,0,0,0,0,1,,,,,,,,,,,,,,,,,,,,,,,,,,,,,,,,,,,,,,,
,,,,,,,,2023-08-16_08h44.05.754,HF_wild_card,2022.2.4,MacIntel,62.5,5dbeff1694f30b3a8f57dfd9,64d2fd46c836a06233681665,64dc7e2de7d73c8f3e8b8b25,,,,,,,sngl,resources/Empty.png,resources/DR.BMP,WildCard_Ex,0.357777778,0.015555556,1,0,0,0.594,optionRight,95,8895,5,1,0,1,0,1,,,,,,,,,,,,,,,,,,,,,,,,,,,,,,,,,,,,,,,
,,,,,,,,2023-08-16_08h44.05.754,HF_wild_card,2022.2.4,MacIntel,62.5,5dbeff1694f30b3a8f57dfd9,64d2fd46c836a06233681665,64dc7e2de7d73c8f3e8b8b25,,,,,,,decisionTrl,resources/DR.BMP,resources/DB.BMP,WildCard_Ex,-0.336666667,-0.081111111,1,0,0,0.977,optionLeft,5,8900,5,2,0,2,0,1,,,,,,,,,,,,,,,,,,,,,,,,,,,,,,,,,,,,,,,
,,,,,,,,2023-08-16_08h44.05.754,HF_wild_card,2022.2.4,MacIntel,62.5,5dbeff1694f30b3a8f57dfd9,64d2fd46c836a06233681665,64dc7e2de7d73c8f3e8b8b25,,,,,,,sngl,resources/Empty.png,resources/DP.BMP,Door2,0.351111111,-0.112222222,1,0,0,0.61,optionRight,20,8920,5,3,0,3,0,1,,,,,,,,,,,,,,,,,,,,,,,,,,,,,,,,,,,,,,,
,,,,,,,,2023-08-16_08h44.05.754,HF_wild_card,2022.2.4,MacIntel,62.5,5dbeff1694f30b3a8f57dfd9,64d2fd46c836a06233681665,64dc7e2de7d73c8f3e8b8b25,,,,,,,sngl,resources/Empty.png,resources/DY.BMP,Door3,0.35,-0.136666667,1,0,0,0.627,optionRight,70,8990,5,4,0,4,0,1,,,,,,,,,,,,,,,,,,,,,,,,,,,,,,,,,,,,,,,
,,,,,,,,2023-08-16_08h44.05.754,HF_wild_card,2022.2.4,MacIntel,62.5,5dbeff1694f30b3a8f57dfd9,64d2fd46c836a06233681665,64dc7e2de7d73c8f3e8b8b25,,,,,,,decisionTrl,resources/DR.BMP,resources/DG.BMP,WildCard_Ex,-0.273333333,-0.005555556,1,0,0,0.71,optionLeft,5,8995,5,5,0,5,0,1,,,,,,,,,,,,,,,,,,,,,,,,,,,,,,,,,,,,,,,
,,,,,,,,2023-08-16_08h44.05.754,HF_wild_card,2022.2.4,MacIntel,62.5,5dbeff1694f30b3a8f57dfd9,64d2fd46c836a06233681665,64dc7e2de7d73c8f3e8b8b25,,,,,,,sngl,resources/DR.BMP,resources/Empty.png,WildCard_Ex,-0.285555556,0.016666667,1,0,0,0.795,optionLeft,95,9090,5,6,0,6,0,1,,,,,,,,,,,,,,,,,,,,,,,,,,,,,,,,,,,,,,,
,,,,,,,,2023-08-16_08h44.05.754,HF_wild_card,2022.2.4,MacIntel,62.5,5dbeff1694f30b3a8f57dfd9,64d2fd46c836a06233681665,64dc7e2de7d73c8f3e8b8b25,,,,,,,sngl,resources/DB.BMP,resources/Empty.png,Door4,-0.344444444,0.034444444,1,0,0,0.727,optionLeft,80,9170,5,7,0,7,0,1,,,,,,,,,,,,,,,,,,,,,,,,,,,,,,,,,,,,,,,
,,,,,,,,2023-08-16_08h44.05.754,HF_wild_card,2022.2.4,MacIntel,62.5,5dbeff1694f30b3a8f57dfd9,64d2fd46c836a06233681665,64dc7e2de7d73c8f3e8b8b25,,,,,,,ctch,resources/DP.BMP,resources/DY.BMP,Door2,-0.372222222,0.023333333,1,0,0,0.595,optionLeft,20,9190,5,8,0,8,0,1,,,,,,,,,,,,,,,,,,,,,,,,,,,,,,,,,,,,,,,
,,,,,,,,2023-08-16_08h44.05.754,HF_wild_card,2022.2.4,MacIntel,62.5,5dbeff1694f30b3a8f57dfd9,64d2fd46c836a06233681665,64dc7e2de7d73c8f3e8b8b25,,,,,,,ctch,resources/DB.BMP,resources/DG.BMP,Door1,0.255555556,-0.008888889,1,0,0,0.694,optionRight,30,9220,5,9,0,9,0,1,,,,,,,,,,,,,,,,,,,,,,,,,,,,,,,,,,,,,,,
,,,,,,,,2023-08-16_08h44.05.754,HF_wild_card,2022.2.4,MacIntel,62.5,5dbeff1694f30b3a8f57dfd9,64d2fd46c836a06233681665,64dc7e2de7d73c8f3e8b8b25,,,,,,,sngl,resources/Empty.png,resources/DB.BMP,Door4,0.384444444,0.032222222,1,0,0,0.727,optionRight,60,9280,5,10,0,10,0,1,,,,,,,,,,,,,,,,,,,,,,,,,,,,,,,,,,,,,,,
,,,,,,,,2023-08-16_08h44.05.754,HF_wild_card,2022.2.4,MacIntel,62.5,5dbeff1694f30b3a8f57dfd9,64d2fd46c836a06233681665,64dc7e2de7d73c8f3e8b8b25,,,,,,,sngl,resources/DY.BMP,resources/Empty.png,Door3,-0.327777778,-0.044444444,1,0,0,0.527,optionLeft,70,9350,5,11,0,11,0,1,,,,,,,,,,,,,,,,,,,,,,,,,,,,,,,,,,,,,,,
,,,,,,,,2023-08-16_08h44.05.754,HF_wild_card,2022.2.4,MacIntel,62.5,5dbeff1694f30b3a8f57dfd9,64d2fd46c836a06233681665,64dc7e2de7d73c8f3e8b8b25,,,,,,,decisionTrl,resources/DB.BMP,resources/DY.BMP,Door3,0.334444444,-0.077777778,1,0,0,0.578,optionRight,70,9420,5,12,0,12,0,1,,,,,,,,,,,,,,,,,,,,,,,,,,,,,,,,,,,,,,,
,,,,,,,,2023-08-16_08h44.05.754,HF_wild_card,2022.2.4,MacIntel,62.5,5dbeff1694f30b3a8f57dfd9,64d2fd46c836a06233681665,64dc7e2de7d73c8f3e8b8b25,,,,,,,decisionTrl,resources/DG.BMP,resources/DP.BMP,Door1,-0.361111111,-0.094444444,1,0,0,0.561,optionLeft,30,9450,5,13,0,13,0,1,,,,,,,,,,,,,,,,,,,,,,,,,,,,,,,,,,,,,,,
,,,,,,,,2023-08-16_08h44.05.754,HF_wild_card,2022.2.4,MacIntel,62.5,5dbeff1694f30b3a8f57dfd9,64d2fd46c836a06233681665,64dc7e2de7d73c8f3e8b8b25,,,,,,,ctch,resources/DY.BMP,resources/DP.BMP,Door2,0.326666667,-0.097777778,1,0,0,0.562,optionRight,40,9490,5,14,0,14,0,1,,,,,,,,,,,,,,,,,,,,,,,,,,,,,,,,,,,,,,,
,,,,,,,,2023-08-16_08h44.05.754,HF_wild_card,2022.2.4,MacIntel,62.5,5dbeff1694f30b3a8f57dfd9,64d2fd46c836a06233681665,64dc7e2de7d73c8f3e8b8b25,,,,,,,sngl,resources/Empty.png,resources/DG.BMP,Door1,0.25,-0.053333333,1,0,0,0.744,optionRight,30,9520,5,15,0,15,0,1,,,,,,,,,,,,,,,,,,,,,,,,,,,,,,,,,,,,,,,
,,,,,,,,2023-08-16_08h44.05.754,HF_wild_card,2022.2.4,MacIntel,62.5,5dbeff1694f30b3a8f57dfd9,64d2fd46c836a06233681665,64dc7e2de7d73c8f3e8b8b25,,,,,,,decisionTrl,resources/DG.BMP,resources/DP.BMP,Door1,-0.24,-0.106666667,1,0,0,0.773,optionLeft,30,9550,5,16,0,16,0,1,,,,,,,,,,,,,,,,,,,,,,,,,,,,,,,,,,,,,,,
,,,,,,,,2023-08-16_08h44.05.754,HF_wild_card,2022.2.4,MacIntel,62.5,5dbeff1694f30b3a8f57dfd9,64d2fd46c836a06233681665,64dc7e2de7d73c8f3e8b8b25,,,,,,,ctch,resources/DP.BMP,resources/DY.BMP,Door3,0.341111111,-0.043333333,1,0,0,0.528,optionRight,70,9620,5,17,0,17,0,1,,,,,,,,,,,,,,,,,,,,,,,,,,,,,,,,,,,,,,,
,,,,,,,,2023-08-16_08h44.05.754,HF_wild_card,2022.2.4,MacIntel,62.5,5dbeff1694f30b3a8f57dfd9,64d2fd46c836a06233681665,64dc7e2de7d73c8f3e8b8b25,,,,,,,decisionTrl,resources/DP.BMP,resources/DG.BMP,Door2,-0.376666667,-0.057777778,1,0,0,1.277,optionLeft,40,9660,5,18,0,18,0,1,,,,,,,,,,,,,,,,,,,,,,,,,,,,,,,,,,,,,,,
,,,,,,,,2023-08-16_08h44.05.754,HF_wild_card,2022.2.4,MacIntel,62.5,5dbeff1694f30b3a8f57dfd9,64d2fd46c836a06233681665,64dc7e2de7d73c8f3e8b8b25,,,,,,,decisionTrl,resources/DP.BMP,resources/DG.BMP,Door2,-0.368888889,-0.057777778,1,0,0,0.812,optionLeft,40,9700,5,19,0,19,0,1,,,,,,,,,,,,,,,,,,,,,,,,,,,,,,,,,,,,,,,
,,,,,,,,2023-08-16_08h44.05.754,HF_wild_card,2022.2.4,MacIntel,62.5,5dbeff1694f30b3a8f57dfd9,64d2fd46c836a06233681665,64dc7e2de7d73c8f3e8b8b25,,,,,,,decisionTrl,resources/DG.BMP,resources/DP.BMP,Door2,0.371111111,-0.044444444,1,0,0,0.561,optionRight,40,9740,5,20,0,20,0,1,,,,,,,,,,,,,,,,,,,,,,,,,,,,,,,,,,,,,,,
,,,,,,,,2023-08-16_08h44.05.754,HF_wild_card,2022.2.4,MacIntel,62.5,5dbeff1694f30b3a8f57dfd9,64d2fd46c836a06233681665,64dc7e2de7d73c8f3e8b8b25,,,,,,,sngl,resources/DP.BMP,resources/Empty.png,Door2,-0.37,-0.047777778,1,0,0,0.66,optionLeft,40,9780,5,21,0,21,0,1,,,,,,,,,,,,,,,,,,,,,,,,,,,,,,,,,,,,,,,
,,,,,,,,2023-08-16_08h44.05.754,HF_wild_card,2022.2.4,MacIntel,62.5,5dbeff1694f30b3a8f57dfd9,64d2fd46c836a06233681665,64dc7e2de7d73c8f3e8b8b25,,,,,,,ctch,resources/DY.BMP,resources/DP.BMP,Door3,-0.502222222,-0.046666667,1,0,0,0.71,optionLeft,70,9850,5,22,0,22,0,1,,,,,,,,,,,,,,,,,,,,,,,,,,,,,,,,,,,,,,,
,,,,,,,,2023-08-16_08h44.05.754,HF_wild_card,2022.2.4,MacIntel,62.5,5dbeff1694f30b3a8f57dfd9,64d2fd46c836a06233681665,64dc7e2de7d73c8f3e8b8b25,,,,,,,decisionTrl,resources/DY.BMP,resources/DB.BMP,Door3,-0.327777778,-0.065555556,1,0,0,0.575,optionLeft,70,9920,5,23,0,23,0,1,,,,,,,,,,,,,,,,,,,,,,,,,,,,,,,,,,,,,,,
,,,,,,,,2023-08-16_08h44.05.754,HF_wild_card,2022.2.4,MacIntel,62.5,5dbeff1694f30b3a8f57dfd9,64d2fd46c836a06233681665,64dc7e2de7d73c8f3e8b8b25,,,,,,,decisionTrl,resources/DR.BMP,resources/DP.BMP,WildCard_Ex,-0.355555556,-0.052222222,1,0,0,0.592,optionLeft,5,9925,5,24,0,24,0,1,,,,,,,,,,,,,,,,,,,,,,,,,,,,,,,,,,,,,,,
,,,,,,,,2023-08-16_08h44.05.754,HF_wild_card,2022.2.4,MacIntel,62.5,5dbeff1694f30b3a8f57dfd9,64d2fd46c836a06233681665,64dc7e2de7d73c8f3e8b8b25,,,,,,,decisionTrl,resources/DP.BMP,resources/DG.BMP,Door2,-0.32,-0.011111111,1,0,0,0.562,optionLeft,20,9945,5,25,0,25,0,1,,,,,,,,,,,,,,,,,,,,,,,,,,,,,,,,,,,,,,,
,,,,,,,,2023-08-16_08h44.05.754,HF_wild_card,2022.2.4,MacIntel,62.5,5dbeff1694f30b3a8f57dfd9,64d2fd46c836a06233681665,64dc7e2de7d73c8f3e8b8b25,,,,,,,decisionTrl,resources/DY.BMP,resources/DB.BMP,Door3,-0.333333333,-0.006666667,1,0,0,0.563,optionLeft,70,10015,5,26,0,26,0,1,,,,,,,,,,,,,,,,,,,,,,,,,,,,,,,,,,,,,,,
,,,,,,,,2023-08-16_08h44.05.754,HF_wild_card,2022.2.4,MacIntel,62.5,5dbeff1694f30b3a8f57dfd9,64d2fd46c836a06233681665,64dc7e2de7d73c8f3e8b8b25,,,,,,,decisionTrl,resources/DP.BMP,resources/DR.BMP,Door2,-0.353333333,-0.024444444,1,0,0,0.577,optionLeft,20,10035,5,27,0,27,0,1,,,,,,,,,,,,,,,,,,,,,,,,,,,,,,,,,,,,,,,
,,,,,,,,2023-08-16_08h44.05.754,HF_wild_card,2022.2.4,MacIntel,62.5,5dbeff1694f30b3a8f57dfd9,64d2fd46c836a06233681665,64dc7e2de7d73c8f3e8b8b25,,,,,,,ctch,resources/DB.BMP,resources/DG.BMP,Door4,-0.33,-0.054444444,1,0,0,0.611,optionLeft,80,10115,5,28,0,28,0,1,,,,,,,,,,,,,,,,,,,,,,,,,,,,,,,,,,,,,,,
,,,,,,,,2023-08-16_08h44.05.754,HF_wild_card,2022.2.4,MacIntel,62.5,5dbeff1694f30b3a8f57dfd9,64d2fd46c836a06233681665,64dc7e2de7d73c8f3e8b8b25,,,,,,,decisionTrl,resources/DR.BMP,resources/DY.BMP,WildCard_Ex,-0.31,-0.028888889,1,0,0,1.045,optionLeft,5,10120,5,29,0,29,0,1,,,,,,,,,,,,,,,,,,,,,,,,,,,,,,,,,,,,,,,
,,,,,,,,2023-08-16_08h44.05.754,HF_wild_card,2022.2.4,MacIntel,62.5,5dbeff1694f30b3a8f57dfd9,64d2fd46c836a06233681665,64dc7e2de7d73c8f3e8b8b25,,,,,,,decisionTrl,resources/DB.BMP,resources/DY.BMP,Door3,0.346666667,0.003333333,1,0,0,0.56,optionRight,70,10190,5,30,0,30,0,1,,,,,,,,,,,,,,,,,,,,,,,,,,,,,,,,,,,,,,,
,,,,,,,,2023-08-16_08h44.05.754,HF_wild_card,2022.2.4,MacIntel,62.5,5dbeff1694f30b3a8f57dfd9,64d2fd46c836a06233681665,64dc7e2de7d73c8f3e8b8b25,,,,,,,decisionTrl,resources/DY.BMP,resources/DB.BMP,Door3,-0.303333333,-0.021111111,1,0,0,0.577,optionLeft,70,10260,5,31,0,31,0,1,,,,,,,,,,,,,,,,,,,,,,,,,,,,,,,,,,,,,,,
,,,,,,,,2023-08-16_08h44.05.754,HF_wild_card,2022.2.4,MacIntel,62.5,5dbeff1694f30b3a8f57dfd9,64d2fd46c836a06233681665,64dc7e2de7d73c8f3e8b8b25,,,,,,,ctch,resources/DG.BMP,resources/DB.BMP,Door1,-0.284444444,-0.064444444,1,0,0,0.644,optionLeft,30,10290,5,32,0,32,0,1,,,,,,,,,,,,,,,,,,,,,,,,,,,,,,,,,,,,,,,
,,,,,,,,2023-08-16_08h44.05.754,HF_wild_card,2022.2.4,MacIntel,62.5,5dbeff1694f30b3a8f57dfd9,64d2fd46c836a06233681665,64dc7e2de7d73c8f3e8b8b25,,,,,,,decisionTrl,resources/DY.BMP,resources/DB.BMP,Door3,-0.287777778,-0.04,1,0,0,0.728,optionLeft,70,10360,5,33,0,33,0,1,,,,,,,,,,,,,,,,,,,,,,,,,,,,,,,,,,,,,,,
,,,,,,,,2023-08-16_08h44.05.754,HF_wild_card,2022.2.4,MacIntel,62.5,5dbeff1694f30b3a8f57dfd9,64d2fd46c836a06233681665,64dc7e2de7d73c8f3e8b8b25,,,,,,,decisionTrl,resources/DB.BMP,resources/DR.BMP,WildCard_Ex,0.29,0.055555556,1,0,0,4.377,optionRight,95,10455,5,34,0,34,0,1,,,,,,,,,,,,,,,,,,,,,,,,,,,,,,,,,,,,,,,
,,,,,,,,2023-08-16_08h44.05.754,HF_wild_card,2022.2.4,MacIntel,62.5,5dbeff1694f30b3a8f57dfd9,64d2fd46c836a06233681665,64dc7e2de7d73c8f3e8b8b25,,,,,,,sngl,resources/Empty.png,resources/DR.BMP,WildCard_Ex,0.16,0.028888889,1,0,0,0.828,optionRight,5,10460,5,35,0,35,0,1,,,,,,,,,,,,,,,,,,,,,,,,,,,,,,,,,,,,,,,
,,,,,,,,2023-08-16_08h44.05.754,HF_wild_card,2022.2.4,MacIntel,62.5,5dbeff1694f30b3a8f57dfd9,64d2fd46c836a06233681665,64dc7e2de7d73c8f3e8b8b25,,,,,,,decisionTrl,resources/DY.BMP,resources/DR.BMP,Door3,-0.241111111,-0.008888889,1,0,0,0.511,optionLeft,70,10530,5,36,0,36,0,1,,,,,,,,,,,,,,,,,,,,,,,,,,,,,,,,,,,,,,,
,,,,,,,,2023-08-16_08h44.05.754,HF_wild_card,2022.2.4,MacIntel,62.5,5dbeff1694f30b3a8f57dfd9,64d2fd46c836a06233681665,64dc7e2de7d73c8f3e8b8b25,,,,,,,sngl,resources/DR.BMP,resources/Empty.png,WildCard_Ex,-0.322222222,-0.056666667,1,0,0,0.545,optionLeft,5,10535,5,37,0,37,0,1,,,,,,,,,,,,,,,,,,,,,,,,,,,,,,,,,,,,,,,
,,,,,,,,2023-08-16_08h44.05.754,HF_wild_card,2022.2.4,MacIntel,62.5,5dbeff1694f30b3a8f57dfd9,64d2fd46c836a06233681665,64dc7e2de7d73c8f3e8b8b25,,,,,,,decisionTrl,resources/DG.BMP,resources/DR.BMP,Door1,-0.298888889,-0.07,1,0,0,0.577,optionLeft,30,10565,5,38,0,38,0,1,,,,,,,,,,,,,,,,,,,,,,,,,,,,,,,,,,,,,,,
,,,,,,,,2023-08-16_08h44.05.754,HF_wild_card,2022.2.4,MacIntel,62.5,5dbeff1694f30b3a8f57dfd9,64d2fd46c836a06233681665,64dc7e2de7d73c8f3e8b8b25,,,,,,,sngl,resources/DG.BMP,resources/Empty.png,Door1,-0.327777778,-0.084444444,1,0,0,0.545,optionLeft,30,10595,5,39,0,39,0,1,,,,,,,,,,,,,,,,,,,,,,,,,,,,,,,,,,,,,,,
,,,,,,,,2023-08-16_08h44.05.754,HF_wild_card,2022.2.4,MacIntel,62.5,5dbeff1694f30b3a8f57dfd9,64d2fd46c836a06233681665,64dc7e2de7d73c8f3e8b8b25,,,,,,,decisionTrl,resources/DG.BMP,resources/DP.BMP,Door1,-0.315555556,-0.043333333,1,0,0,0.695,optionLeft,30,10625,5,40,0,40,0,1,,,,,,,,,,,,,,,,,,,,,,,,,,,,,,,,,,,,,,,
,,,,,,,,2023-08-16_08h44.05.754,HF_wild_card,2022.2.4,MacIntel,62.5,5dbeff1694f30b3a8f57dfd9,64d2fd46c836a06233681665,64dc7e2de7d73c8f3e8b8b25,,,,,,,decisionTrl,resources/DP.BMP,resources/DG.BMP,Door2,-0.24,-0.057777778,1,0,0,2.393,optionLeft,40,10665,5,41,0,41,0,1,,,,,,,,,,,,,,,,,,,,,,,,,,,,,,,,,,,,,,,
,,,,,,,,2023-08-16_08h44.05.754,HF_wild_card,2022.2.4,MacIntel,62.5,5dbeff1694f30b3a8f57dfd9,64d2fd46c836a06233681665,64dc7e2de7d73c8f3e8b8b25,,,,,,,decisionTrl,resources/DB.BMP,resources/DY.BMP,Door4,-0.31,-0.062222222,1,0,0,0.661,optionLeft,80,10745,5,42,0,42,0,1,,,,,,,,,,,,,,,,,,,,,,,,,,,,,,,,,,,,,,,
,,,,,,,,2023-08-16_08h44.05.754,HF_wild_card,2022.2.4,MacIntel,62.5,5dbeff1694f30b3a8f57dfd9,64d2fd46c836a06233681665,64dc7e2de7d73c8f3e8b8b25,,,,,,,decisionTrl,resources/DB.BMP,resources/DY.BMP,Door3,0.355555556,0.018888889,1,0,0,0.912,optionRight,70,10815,5,43,0,43,0,1,,,,,,,,,,,,,,,,,,,,,,,,,,,,,,,,,,,,,,,
,,,,,,,,2023-08-16_08h44.05.754,HF_wild_card,2022.2.4,MacIntel,62.5,5dbeff1694f30b3a8f57dfd9,64d2fd46c836a06233681665,64dc7e2de7d73c8f3e8b8b25,,,,,,,,,,,,,,,,,,,,,,,,,,4,0,4,0,1,,,,,,,,,,,,,,,,,,,,,,,,,,,,,,,,,,
,,,,,,,,2023-08-16_08h44.05.754,HF_wild_card,2022.2.4,MacIntel,62.5,5dbeff1694f30b3a8f57dfd9,64d2fd46c836a06233681665,64dc7e2de7d73c8f3e8b8b25,,,,,,,decisionTrl,resources/DR.BMP,resources/DB.BMP,Door4,0.364444444,-0.177777778,1,0,0,4.307,optionRight,60,10875,6,0,0,0,0,1,,,,,,,,,,,,,,,,,,,,,,,,,,,,,,,,,,,,,,,
,,,,,,,,2023-08-16_08h44.05.754,HF_wild_card,2022.2.4,MacIntel,62.5,5dbeff1694f30b3a8f57dfd9,64d2fd46c836a06233681665,64dc7e2de7d73c8f3e8b8b25,,,,,,,decisionTrl,resources/DG.BMP,resources/DP.BMP,Door2,0.281111111,-0.05,1,0,0,1.563,optionRight,20,10895,6,1,0,1,0,1,,,,,,,,,,,,,,,,,,,,,,,,,,,,,,,,,,,,,,,
,,,,,,,,2023-08-16_08h44.05.754,HF_wild_card,2022.2.4,MacIntel,62.5,5dbeff1694f30b3a8f57dfd9,64d2fd46c836a06233681665,64dc7e2de7d73c8f3e8b8b25,,,,,,,sngl,resources/Empty.png,resources/DR.BMP,WildCard_Ex,0.228888889,-0.121111111,1,0,0,0.911,optionRight,5,10900,6,2,0,2,0,1,,,,,,,,,,,,,,,,,,,,,,,,,,,,,,,,,,,,,,,
,,,,,,,,2023-08-16_08h44.05.754,HF_wild_card,2022.2.4,MacIntel,62.5,5dbeff1694f30b3a8f57dfd9,64d2fd46c836a06233681665,64dc7e2de7d73c8f3e8b8b25,,,,,,,sngl,resources/Empty.png,resources/DP.BMP,Door2,0.333333333,-0.021111111,1,0,0,0.794,optionRight,40,10940,6,3,0,3,0,1,,,,,,,,,,,,,,,,,,,,,,,,,,,,,,,,,,,,,,,
,,,,,,,,2023-08-16_08h44.05.754,HF_wild_card,2022.2.4,MacIntel,62.5,5dbeff1694f30b3a8f57dfd9,64d2fd46c836a06233681665,64dc7e2de7d73c8f3e8b8b25,,,,,,,decisionTrl,resources/DB.BMP,resources/DY.BMP,Door3,0.304444444,-0.106666667,1,0,0,0.76,optionRight,70,11010,6,4,0,4,0,1,,,,,,,,,,,,,,,,,,,,,,,,,,,,,,,,,,,,,,,
,,,,,,,,2023-08-16_08h44.05.754,HF_wild_card,2022.2.4,MacIntel,62.5,5dbeff1694f30b3a8f57dfd9,64d2fd46c836a06233681665,64dc7e2de7d73c8f3e8b8b25,,,,,,,decisionTrl,resources/DY.BMP,resources/DB.BMP,Door4,0.283333333,-0.024444444,1,0,0,1.111,optionRight,80,11090,6,5,0,5,0,1,,,,,,,,,,,,,,,,,,,,,,,,,,,,,,,,,,,,,,,
,,,,,,,,2023-08-16_08h44.05.754,HF_wild_card,2022.2.4,MacIntel,62.5,5dbeff1694f30b3a8f57dfd9,64d2fd46c836a06233681665,64dc7e2de7d73c8f3e8b8b25,,,,,,,decisionTrl,resources/DB.BMP,resources/DY.BMP,Door4,-0.27,0.044444444,1,0,0,1.295,optionLeft,80,11170,6,6,0,6,0,1,,,,,,,,,,,,,,,,,,,,,,,,,,,,,,,,,,,,,,,
,,,,,,,,2023-08-16_08h44.05.754,HF_wild_card,2022.2.4,MacIntel,62.5,5dbeff1694f30b3a8f57dfd9,64d2fd46c836a06233681665,64dc7e2de7d73c8f3e8b8b25,,,,,,,sngl,resources/DB.BMP,resources/Empty.png,Door4,-0.282222222,0.025555556,1,0,0,1.41,optionLeft,60,11230,6,7,0,7,0,1,,,,,,,,,,,,,,,,,,,,,,,,,,,,,,,,,,,,,,,
,,,,,,,,2023-08-16_08h44.05.754,HF_wild_card,2022.2.4,MacIntel,62.5,5dbeff1694f30b3a8f57dfd9,64d2fd46c836a06233681665,64dc7e2de7d73c8f3e8b8b25,,,,,,,sngl,resources/Empty.png,resources/DR.BMP,WildCard_Ex,0.155555556,-0.02,1,0,0,1.744,optionRight,95,11325,6,8,0,8,0,1,,,,,,,,,,,,,,,,,,,,,,,,,,,,,,,,,,,,,,,
,,,,,,,,2023-08-16_08h44.05.754,HF_wild_card,2022.2.4,MacIntel,62.5,5dbeff1694f30b3a8f57dfd9,64d2fd46c836a06233681665,64dc7e2de7d73c8f3e8b8b25,,,,,,,decisionTrl,resources/DP.BMP,resources/DG.BMP,Door2,-0.171111111,0.01,1,0,0,1.677,optionLeft,20,11345,6,9,0,9,0,1,,,,,,,,,,,,,,,,,,,,,,,,,,,,,,,,,,,,,,,
,,,,,,,,2023-08-16_08h44.05.754,HF_wild_card,2022.2.4,MacIntel,62.5,5dbeff1694f30b3a8f57dfd9,64d2fd46c836a06233681665,64dc7e2de7d73c8f3e8b8b25,,,,,,,sngl,resources/Empty.png,resources/DY.BMP,Door3,0.283333333,-0.038888889,1,0,0,1.113,optionRight,70,11415,6,10,0,10,0,1,,,,,,,,,,,,,,,,,,,,,,,,,,,,,,,,,,,,,,,
,,,,,,,,2023-08-16_08h44.05.754,HF_wild_card,2022.2.4,MacIntel,62.5,5dbeff1694f30b3a8f57dfd9,64d2fd46c836a06233681665,64dc7e2de7d73c8f3e8b8b25,,,,,,,ctch,resources/DB.BMP,resources/DG.BMP,Door4,-0.225555556,0.024444444,1,0,0,1.128,optionLeft,80,11495,6,11,0,11,0,1,,,,,,,,,,,,,,,,,,,,,,,,,,,,,,,,,,,,,,,
,,,,,,,,2023-08-16_08h44.05.754,HF_wild_card,2022.2.4,MacIntel,62.5,5dbeff1694f30b3a8f57dfd9,64d2fd46c836a06233681665,64dc7e2de7d73c8f3e8b8b25,,,,,,,ctch,resources/DG.BMP,resources/DB.BMP,Door4,0.21,-0.014444444,1,0,0,1.128,optionRight,80,11575,6,12,0,12,0,1,,,,,,,,,,,,,,,,,,,,,,,,,,,,,,,,,,,,,,,
,,,,,,,,2023-08-16_08h44.05.754,HF_wild_card,2022.2.4,MacIntel,62.5,5dbeff1694f30b3a8f57dfd9,64d2fd46c836a06233681665,64dc7e2de7d73c8f3e8b8b25,,,,,,,ctch,resources/DY.BMP,resources/DP.BMP,Door3,-0.276666667,0.066666667,1,0,0,1.109,optionLeft,70,11645,6,13,0,13,0,1,,,,,,,,,,,,,,,,,,,,,,,,,,,,,,,,,,,,,,,
,,,,,,,,2023-08-16_08h44.05.754,HF_wild_card,2022.2.4,MacIntel,62.5,5dbeff1694f30b3a8f57dfd9,64d2fd46c836a06233681665,64dc7e2de7d73c8f3e8b8b25,,,,,,,ctch,resources/DY.BMP,resources/DP.BMP,Door3,-0.234444444,0.018888889,1,0,0,0.879,optionLeft,70,11715,6,14,0,14,0,1,,,,,,,,,,,,,,,,,,,,,,,,,,,,,,,,,,,,,,,
,,,,,,,,2023-08-16_08h44.05.754,HF_wild_card,2022.2.4,MacIntel,62.5,5dbeff1694f30b3a8f57dfd9,64d2fd46c836a06233681665,64dc7e2de7d73c8f3e8b8b25,,,,,,,decisionTrl,resources/DR.BMP,resources/DP.BMP,WildCard_Ex,-0.225555556,0.04,1,0,0,1.36,optionLeft,95,11810,6,15,0,15,0,1,,,,,,,,,,,,,,,,,,,,,,,,,,,,,,,,,,,,,,,
,,,,,,,,2023-08-16_08h44.05.754,HF_wild_card,2022.2.4,MacIntel,62.5,5dbeff1694f30b3a8f57dfd9,64d2fd46c836a06233681665,64dc7e2de7d73c8f3e8b8b25,,,,,,,ctch,resources/DG.BMP,resources/DB.BMP,Door4,0.248888889,-0.007777778,1,0,0,1.261,optionRight,60,11870,6,16,0,16,0,1,,,,,,,,,,,,,,,,,,,,,,,,,,,,,,,,,,,,,,,
,,,,,,,,2023-08-16_08h44.05.754,HF_wild_card,2022.2.4,MacIntel,62.5,5dbeff1694f30b3a8f57dfd9,64d2fd46c836a06233681665,64dc7e2de7d73c8f3e8b8b25,,,,,,,sngl,resources/DR.BMP,resources/Empty.png,WildCard_Ex,-0.167777778,0.014444444,1,0,0,1.076,optionLeft,95,11965,6,17,0,17,0,1,,,,,,,,,,,,,,,,,,,,,,,,,,,,,,,,,,,,,,,
,,,,,,,,2023-08-16_08h44.05.754,HF_wild_card,2022.2.4,MacIntel,62.5,5dbeff1694f30b3a8f57dfd9,64d2fd46c836a06233681665,64dc7e2de7d73c8f3e8b8b25,,,,,,,sngl,resources/Empty.png,resources/DB.BMP,Door4,0.355555556,0.04,1,0,0,0.71,optionRight,80,12045,6,18,0,18,0,1,,,,,,,,,,,,,,,,,,,,,,,,,,,,,,,,,,,,,,,
,,,,,,,,2023-08-16_08h44.05.754,HF_wild_card,2022.2.4,MacIntel,62.5,5dbeff1694f30b3a8f57dfd9,64d2fd46c836a06233681665,64dc7e2de7d73c8f3e8b8b25,,,,,,,sngl,resources/DY.BMP,resources/Empty.png,Door3,-0.283333333,0.02,1,0,0,0.962,optionLeft,70,12115,6,19,0,19,0,1,,,,,,,,,,,,,,,,,,,,,,,,,,,,,,,,,,,,,,,
,,,,,,,,2023-08-16_08h44.05.754,HF_wild_card,2022.2.4,MacIntel,62.5,5dbeff1694f30b3a8f57dfd9,64d2fd46c836a06233681665,64dc7e2de7d73c8f3e8b8b25,,,,,,,decisionTrl,resources/DP.BMP,resources/DG.BMP,Door1,0.272222222,0.021111111,1,0,0,1.21,optionRight,30,12145,6,20,0,20,0,1,,,,,,,,,,,,,,,,,,,,,,,,,,,,,,,,,,,,,,,
,,,,,,,,2023-08-16_08h44.05.754,HF_wild_card,2022.2.4,MacIntel,62.5,5dbeff1694f30b3a8f57dfd9,64d2fd46c836a06233681665,64dc7e2de7d73c8f3e8b8b25,,,,,,,decisionTrl,resources/DB.BMP,resources/DR.BMP,Door4,-0.171111111,0.054444444,1,0,0,1.612,optionLeft,80,12225,6,21,0,21,0,1,,,,,,,,,,,,,,,,,,,,,,,,,,,,,,,,,,,,,,,
,,,,,,,,2023-08-16_08h44.05.754,HF_wild_card,2022.2.4,MacIntel,62.5,5dbeff1694f30b3a8f57dfd9,64d2fd46c836a06233681665,64dc7e2de7d73c8f3e8b8b25,,,,,,,sngl,resources/DP.BMP,resources/Empty.png,Door2,-0.281111111,0.078888889,1,0,0,1.128,optionLeft,20,12245,6,22,0,22,0,1,,,,,,,,,,,,,,,,,,,,,,,,,,,,,,,,,,,,,,,
,,,,,,,,2023-08-16_08h44.05.754,HF_wild_card,2022.2.4,MacIntel,62.5,5dbeff1694f30b3a8f57dfd9,64d2fd46c836a06233681665,64dc7e2de7d73c8f3e8b8b25,,,,,,,decisionTrl,resources/DG.BMP,resources/DP.BMP,Door2,0.246666667,-0.002222222,1,0,0,3.711,optionRight,40,12285,6,23,0,23,0,1,,,,,,,,,,,,,,,,,,,,,,,,,,,,,,,,,,,,,,,
,,,,,,,,2023-08-16_08h44.05.754,HF_wild_card,2022.2.4,MacIntel,62.5,5dbeff1694f30b3a8f57dfd9,64d2fd46c836a06233681665,64dc7e2de7d73c8f3e8b8b25,,,,,,,decisionTrl,resources/DY.BMP,resources/DB.BMP,Door4,0.341111111,-0.138888889,1,0,0,4.112,optionRight,80,12365,6,24,0,24,0,1,,,,,,,,,,,,,,,,,,,,,,,,,,,,,,,,,,,,,,,
,,,,,,,,2023-08-16_08h44.05.754,HF_wild_card,2022.2.4,MacIntel,62.5,5dbeff1694f30b3a8f57dfd9,64d2fd46c836a06233681665,64dc7e2de7d73c8f3e8b8b25,,,,,,,decisionTrl,resources/DY.BMP,resources/DB.BMP,Door4,0.35,-0.038888889,1,0,0,1.063,optionRight,60,12425,6,25,0,25,0,1,,,,,,,,,,,,,,,,,,,,,,,,,,,,,,,,,,,,,,,
,,,,,,,,2023-08-16_08h44.05.754,HF_wild_card,2022.2.4,MacIntel,62.5,5dbeff1694f30b3a8f57dfd9,64d2fd46c836a06233681665,64dc7e2de7d73c8f3e8b8b25,,,,,,,ctch,resources/DP.BMP,resources/DY.BMP,Door3,0.295555556,-0.017777778,1,0,0,1.028,optionRight,70,12495,6,26,0,26,0,1,,,,,,,,,,,,,,,,,,,,,,,,,,,,,,,,,,,,,,,
,,,,,,,,2023-08-16_08h44.05.754,HF_wild_card,2022.2.4,MacIntel,62.5,5dbeff1694f30b3a8f57dfd9,64d2fd46c836a06233681665,64dc7e2de7d73c8f3e8b8b25,,,,,,,decisionTrl,resources/DY.BMP,resources/DR.BMP,Door3,-0.173333333,0.105555556,1,0,0,1.045,optionLeft,70,12565,6,27,0,27,0,1,,,,,,,,,,,,,,,,,,,,,,,,,,,,,,,,,,,,,,,
,,,,,,,,2023-08-16_08h44.05.754,HF_wild_card,2022.2.4,MacIntel,62.5,5dbeff1694f30b3a8f57dfd9,64d2fd46c836a06233681665,64dc7e2de7d73c8f3e8b8b25,,,,,,,decisionTrl,resources/DG.BMP,resources/DP.BMP,Door2,0.336666667,-0.144444444,1,0,0,1.177,optionRight,20,12585,6,28,0,28,0,1,,,,,,,,,,,,,,,,,,,,,,,,,,,,,,,,,,,,,,,
,,,,,,,,2023-08-16_08h44.05.754,HF_wild_card,2022.2.4,MacIntel,62.5,5dbeff1694f30b3a8f57dfd9,64d2fd46c836a06233681665,64dc7e2de7d73c8f3e8b8b25,,,,,,,sngl,resources/DR.BMP,resources/Empty.png,WildCard_Ex,-0.35,0.016666667,1,0,0,0.746,optionLeft,5,12590,6,29,0,29,0,1,,,,,,,,,,,,,,,,,,,,,,,,,,,,,,,,,,,,,,,
,,,,,,,,2023-08-16_08h44.05.754,HF_wild_card,2022.2.4,MacIntel,62.5,5dbeff1694f30b3a8f57dfd9,64d2fd46c836a06233681665,64dc7e2de7d73c8f3e8b8b25,,,,,,,decisionTrl,resources/DP.BMP,resources/DG.BMP,Door1,0.237777778,-0.032222222,1,0,0,0.711,optionRight,30,12620,6,30,0,30,0,1,,,,,,,,,,,,,,,,,,,,,,,,,,,,,,,,,,,,,,,
,,,,,,,,2023-08-16_08h44.05.754,HF_wild_card,2022.2.4,MacIntel,62.5,5dbeff1694f30b3a8f57dfd9,64d2fd46c836a06233681665,64dc7e2de7d73c8f3e8b8b25,,,,,,,decisionTrl,resources/DG.BMP,resources/DP.BMP,Door1,-0.29,0.045555556,1,0,0,0.827,optionLeft,30,12650,6,31,0,31,0,1,,,,,,,,,,,,,,,,,,,,,,,,,,,,,,,,,,,,,,,
,,,,,,,,2023-08-16_08h44.05.754,HF_wild_card,2022.2.4,MacIntel,62.5,5dbeff1694f30b3a8f57dfd9,64d2fd46c836a06233681665,64dc7e2de7d73c8f3e8b8b25,,,,,,,decisionTrl,resources/DB.BMP,resources/DY.BMP,Door4,-0.333333333,0.006666667,1,0,0,1.245,optionLeft,60,12710,6,32,0,32,0,1,,,,,,,,,,,,,,,,,,,,,,,,,,,,,,,,,,,,,,,
,,,,,,,,2023-08-16_08h44.05.754,HF_wild_card,2022.2.4,MacIntel,62.5,5dbeff1694f30b3a8f57dfd9,64d2fd46c836a06233681665,64dc7e2de7d73c8f3e8b8b25,,,,,,,ctch,resources/DP.BMP,resources/DY.BMP,Door2,-0.266666667,-0.018888889,1,0,0,4.161,optionLeft,40,12750,6,33,0,33,0,1,,,,,,,,,,,,,,,,,,,,,,,,,,,,,,,,,,,,,,,
,,,,,,,,2023-08-16_08h44.05.754,HF_wild_card,2022.2.4,MacIntel,62.5,5dbeff1694f30b3a8f57dfd9,64d2fd46c836a06233681665,64dc7e2de7d73c8f3e8b8b25,,,,,,,decisionTrl,resources/DP.BMP,resources/DG.BMP,Door1,0.233333333,-0.015555556,1,0,0,1.245,optionRight,30,12780,6,34,0,34,0,1,,,,,,,,,,,,,,,,,,,,,,,,,,,,,,,,,,,,,,,
,,,,,,,,2023-08-16_08h44.05.754,HF_wild_card,2022.2.4,MacIntel,62.5,5dbeff1694f30b3a8f57dfd9,64d2fd46c836a06233681665,64dc7e2de7d73c8f3e8b8b25,,,,,,,decisionTrl,resources/DP.BMP,resources/DR.BMP,WildCard_Ex,0.305555556,-0.025555556,1,0,0,0.978,optionRight,5,12785,6,35,0,35,0,1,,,,,,,,,,,,,,,,,,,,,,,,,,,,,,,,,,,,,,,
,,,,,,,,2023-08-16_08h44.05.754,HF_wild_card,2022.2.4,MacIntel,62.5,5dbeff1694f30b3a8f57dfd9,64d2fd46c836a06233681665,64dc7e2de7d73c8f3e8b8b25,,,,,,,decisionTrl,resources/DB.BMP,resources/DY.BMP,Door4,-0.203333333,0.054444444,1,0,0,0.811,optionLeft,80,12865,6,36,0,36,0,1,,,,,,,,,,,,,,,,,,,,,,,,,,,,,,,,,,,,,,,
,,,,,,,,2023-08-16_08h44.05.754,HF_wild_card,2022.2.4,MacIntel,62.5,5dbeff1694f30b3a8f57dfd9,64d2fd46c836a06233681665,64dc7e2de7d73c8f3e8b8b25,,,,,,,sngl,resources/DG.BMP,resources/Empty.png,Door1,-0.091111111,0.008888889,1,0,0,1.011,optionLeft,30,12895,6,37,0,37,0,1,,,,,,,,,,,,,,,,,,,,,,,,,,,,,,,,,,,,,,,
,,,,,,,,2023-08-16_08h44.05.754,HF_wild_card,2022.2.4,MacIntel,62.5,5dbeff1694f30b3a8f57dfd9,64d2fd46c836a06233681665,64dc7e2de7d73c8f3e8b8b25,,,,,,,decisionTrl,resources/DR.BMP,resources/DG.BMP,WildCard_Ex,-0.248888889,0.062222222,1,0,0,0.995,optionLeft,5,12900,6,38,0,38,0,1,,,,,,,,,,,,,,,,,,,,,,,,,,,,,,,,,,,,,,,
,,,,,,,,2023-08-16_08h44.05.754,HF_wild_card,2022.2.4,MacIntel,62.5,5dbeff1694f30b3a8f57dfd9,64d2fd46c836a06233681665,64dc7e2de7d73c8f3e8b8b25,,,,,,,decisionTrl,resources/DY.BMP,resources/DB.BMP,Door4,0.214444444,0.038888889,1,0,0,0.861,optionRight,80,12980,6,39,0,39,0,1,,,,,,,,,,,,,,,,,,,,,,,,,,,,,,,,,,,,,,,
,,,,,,,,2023-08-16_08h44.05.754,HF_wild_card,2022.2.4,MacIntel,62.5,5dbeff1694f30b3a8f57dfd9,64d2fd46c836a06233681665,64dc7e2de7d73c8f3e8b8b25,,,,,,,sngl,resources/Empty.png,resources/DG.BMP,Door1,0.205555556,0.024444444,1,0,0,0.778,optionRight,30,13010,6,40,0,40,0,1,,,,,,,,,,,,,,,,,,,,,,,,,,,,,,,,,,,,,,,
,,,,,,,,2023-08-16_08h44.05.754,HF_wild_card,2022.2.4,MacIntel,62.5,5dbeff1694f30b3a8f57dfd9,64d2fd46c836a06233681665,64dc7e2de7d73c8f3e8b8b25,,,,,,,ctch,resources/DB.BMP,resources/DG.BMP,Door4,-0.432222222,-0.035555556,1,0,0,1.777,optionLeft,60,13070,6,41,0,41,0,1,,,,,,,,,,,,,,,,,,,,,,,,,,,,,,,,,,,,,,,
,,,,,,,,2023-08-16_08h44.05.754,HF_wild_card,2022.2.4,MacIntel,62.5,5dbeff1694f30b3a8f57dfd9,64d2fd46c836a06233681665,64dc7e2de7d73c8f3e8b8b25,,,,,,,decisionTrl,resources/DR.BMP,resources/DY.BMP,WildCard_Ex,-0.192222222,-0.001111111,1,0,0,1.026,optionLeft,95,13165,6,42,0,42,0,1,,,,,,,,,,,,,,,,,,,,,,,,,,,,,,,,,,,,,,,
,,,,,,,,2023-08-16_08h44.05.754,HF_wild_card,2022.2.4,MacIntel,62.5,5dbeff1694f30b3a8f57dfd9,64d2fd46c836a06233681665,64dc7e2de7d73c8f3e8b8b25,,,,,,,decisionTrl,resources/DG.BMP,resources/DR.BMP,WildCard_Ex,0.38,-0.083333333,1,0,0,1.496,optionRight,95,13260,6,43,0,43,0,1,,,,,,,,,,,,,,,,,,,,,,,,,,,,,,,,,,,,,,,
,,,,,,,,2023-08-16_08h44.05.754,HF_wild_card,2022.2.4,MacIntel,62.5,5dbeff1694f30b3a8f57dfd9,64d2fd46c836a06233681665,64dc7e2de7d73c8f3e8b8b25,,,,,,,,,,,,,,,,,,,,,,,,,,5,0,5,0,1,,,,,,,,,,,,,,,,,,,,,,,,,,,,,,,,,,
,,,,,,,,2023-08-16_08h44.05.754,HF_wild_card,2022.2.4,MacIntel,62.5,5dbeff1694f30b3a8f57dfd9,64d2fd46c836a06233681665,64dc7e2de7d73c8f3e8b8b25,,,,,,,ctch,resources/DP.BMP,resources/DY.BMP,Door3,0.196666667,0.021111111,1,0,0,2.106,optionRight,70,13330,7,0,0,0,0,1,,,,,,,,,,,,,,,,,,,,,,,,,,,,,,,,,,,,,,,
,,,,,,,,2023-08-16_08h44.05.754,HF_wild_card,2022.2.4,MacIntel,62.5,5dbeff1694f30b3a8f57dfd9,64d2fd46c836a06233681665,64dc7e2de7d73c8f3e8b8b25,,,,,,,decisionTrl,resources/DG.BMP,resources/DP.BMP,Door1,-0.184444444,-0.026666667,1,0,0,1.647,optionLeft,30,13360,7,1,0,1,0,1,,,,,,,,,,,,,,,,,,,,,,,,,,,,,,,,,,,,,,,
,,,,,,,,2023-08-16_08h44.05.754,HF_wild_card,2022.2.4,MacIntel,62.5,5dbeff1694f30b3a8f57dfd9,64d2fd46c836a06233681665,64dc7e2de7d73c8f3e8b8b25,,,,,,,decisionTrl,resources/DB.BMP,resources/DY.BMP,Door3,0.217777778,-0.006666667,1,0,0,2.031,optionRight,70,13430,7,2,0,2,0,1,,,,,,,,,,,,,,,,,,,,,,,,,,,,,,,,,,,,,,,
,,,,,,,,2023-08-16_08h44.05.754,HF_wild_card,2022.2.4,MacIntel,62.5,5dbeff1694f30b3a8f57dfd9,64d2fd46c836a06233681665,64dc7e2de7d73c8f3e8b8b25,,,,,,,decisionTrl,resources/DP.BMP,resources/DG.BMP,Door1,0.174444444,0.035555556,1,0,0,1.564,optionRight,30,13460,7,3,0,3,0,1,,,,,,,,,,,,,,,,,,,,,,,,,,,,,,,,,,,,,,,
,,,,,,,,2023-08-16_08h44.05.754,HF_wild_card,2022.2.4,MacIntel,62.5,5dbeff1694f30b3a8f57dfd9,64d2fd46c836a06233681665,64dc7e2de7d73c8f3e8b8b25,,,,,,,decisionTrl,resources/DG.BMP,resources/DP.BMP,Door1,-0.284444444,0.036666667,1,0,0,0.948,optionLeft,30,13490,7,4,0,4,0,1,,,,,,,,,,,,,,,,,,,,,,,,,,,,,,,,,,,,,,,
,,,,,,,,2023-08-16_08h44.05.754,HF_wild_card,2022.2.4,MacIntel,62.5,5dbeff1694f30b3a8f57dfd9,64d2fd46c836a06233681665,64dc7e2de7d73c8f3e8b8b25,,,,,,,ctch,resources/DB.BMP,resources/DG.BMP,Door4,-0.128888889,0.043333333,1,0,0,2.998,optionLeft,60,13550,7,5,0,5,0,1,,,,,,,,,,,,,,,,,,,,,,,,,,,,,,,,,,,,,,,
,,,,,,,,2023-08-16_08h44.05.754,HF_wild_card,2022.2.4,MacIntel,62.5,5dbeff1694f30b3a8f57dfd9,64d2fd46c836a06233681665,64dc7e2de7d73c8f3e8b8b25,,,,,,,decisionTrl,resources/DP.BMP,resources/DG.BMP,Door1,0.136666667,0.02,1,0,0,1.231,optionRight,30,13580,7,6,0,6,0,1,,,,,,,,,,,,,,,,,,,,,,,,,,,,,,,,,,,,,,,
,,,,,,,,2023-08-16_08h44.05.754,HF_wild_card,2022.2.4,MacIntel,62.5,5dbeff1694f30b3a8f57dfd9,64d2fd46c836a06233681665,64dc7e2de7d73c8f3e8b8b25,,,,,,,decisionTrl,resources/DP.BMP,resources/DG.BMP,Door1,0.147777778,0.044444444,1,0,0,1.166,optionRight,30,13610,7,7,0,7,0,1,,,,,,,,,,,,,,,,,,,,,,,,,,,,,,,,,,,,,,,
,,,,,,,,2023-08-16_08h44.05.754,HF_wild_card,2022.2.4,MacIntel,62.5,5dbeff1694f30b3a8f57dfd9,64d2fd46c836a06233681665,64dc7e2de7d73c8f3e8b8b25,,,,,,,decisionTrl,resources/DG.BMP,resources/DP.BMP,Door1,-0.162222222,-0.016666667,1,0,0,1.615,optionLeft,30,13640,7,8,0,8,0,1,,,,,,,,,,,,,,,,,,,,,,,,,,,,,,,,,,,,,,,
,,,,,,,,2023-08-16_08h44.05.754,HF_wild_card,2022.2.4,MacIntel,62.5,5dbeff1694f30b3a8f57dfd9,64d2fd46c836a06233681665,64dc7e2de7d73c8f3e8b8b25,,,,,,,decisionTrl,resources/DY.BMP,resources/DB.BMP,Door4,0.236666667,0.018888889,1,0,0,1.431,optionRight,60,13700,7,9,0,9,0,1,,,,,,,,,,,,,,,,,,,,,,,,,,,,,,,,,,,,,,,
,,,,,,,,2023-08-16_08h44.05.754,HF_wild_card,2022.2.4,MacIntel,62.5,5dbeff1694f30b3a8f57dfd9,64d2fd46c836a06233681665,64dc7e2de7d73c8f3e8b8b25,,,,,,,ctch,resources/DY.BMP,resources/DP.BMP,Door3,-0.131111111,0.041111111,1,0,0,2.014,optionLeft,70,13770,7,10,0,10,0,1,,,,,,,,,,,,,,,,,,,,,,,,,,,,,,,,,,,,,,,
,,,,,,,,2023-08-16_08h44.05.754,HF_wild_card,2022.2.4,MacIntel,62.5,5dbeff1694f30b3a8f57dfd9,64d2fd46c836a06233681665,64dc7e2de7d73c8f3e8b8b25,,,,,,,decisionTrl,resources/DP.BMP,resources/DG.BMP,Door1,0.116666667,-0.007777778,1,0,0,1.898,optionRight,30,13800,7,11,0,11,0,1,,,,,,,,,,,,,,,,,,,,,,,,,,,,,,,,,,,,,,,
,,,,,,,,2023-08-16_08h44.05.754,HF_wild_card,2022.2.4,MacIntel,62.5,5dbeff1694f30b3a8f57dfd9,64d2fd46c836a06233681665,64dc7e2de7d73c8f3e8b8b25,,,,,,,decisionTrl,resources/DY.BMP,resources/DB.BMP,Door3,-0.185555556,0.054444444,1,0,0,1.515,optionLeft,70,13870,7,12,0,12,0,1,,,,,,,,,,,,,,,,,,,,,,,,,,,,,,,,,,,,,,,
,,,,,,,,2023-08-16_08h44.05.754,HF_wild_card,2022.2.4,MacIntel,62.5,5dbeff1694f30b3a8f57dfd9,64d2fd46c836a06233681665,64dc7e2de7d73c8f3e8b8b25,,,,,,,ctch,resources/DY.BMP,resources/DP.BMP,Door3,-0.118888889,-0.01,1,0,0,1.365,optionLeft,70,13940,7,13,0,13,0,1,,,,,,,,,,,,,,,,,,,,,,,,,,,,,,,,,,,,,,,
,,,,,,,,2023-08-16_08h44.05.754,HF_wild_card,2022.2.4,MacIntel,62.5,5dbeff1694f30b3a8f57dfd9,64d2fd46c836a06233681665,64dc7e2de7d73c8f3e8b8b25,,,,,,,ctch,resources/DG.BMP,resources/DB.BMP,Door1,-0.156666667,0.006666667,1,0,0,1.365,optionLeft,30,13970,7,14,0,14,0,1,,,,,,,,,,,,,,,,,,,,,,,,,,,,,,,,,,,,,,,
,,,,,,,,2023-08-16_08h44.05.754,HF_wild_card,2022.2.4,MacIntel,62.5,5dbeff1694f30b3a8f57dfd9,64d2fd46c836a06233681665,64dc7e2de7d73c8f3e8b8b25,,,,,,,decisionTrl,resources/DG.BMP,resources/DP.BMP,Door1,-0.113333333,-0.024444444,1,0,0,2.782,optionLeft,30,14000,7,15,0,15,0,1,,,,,,,,,,,,,,,,,,,,,,,,,,,,,,,,,,,,,,,
,,,,,,,,2023-08-16_08h44.05.754,HF_wild_card,2022.2.4,MacIntel,62.5,5dbeff1694f30b3a8f57dfd9,64d2fd46c836a06233681665,64dc7e2de7d73c8f3e8b8b25,,,,,,,ctch,resources/DG.BMP,resources/DB.BMP,Door1,-0.147777778,-0.013333333,1,0,0,0.816,optionLeft,30,14030,7,16,0,16,0,1,,,,,,,,,,,,,,,,,,,,,,,,,,,,,,,,,,,,,,,
,,,,,,,,2023-08-16_08h44.05.754,HF_wild_card,2022.2.4,MacIntel,62.5,5dbeff1694f30b3a8f57dfd9,64d2fd46c836a06233681665,64dc7e2de7d73c8f3e8b8b25,,,,,,,decisionTrl,resources/DP.BMP,resources/DG.BMP,Door1,0.118888889,0.013333333,1,0,0,1.399,optionRight,30,14060,7,17,0,17,0,1,,,,,,,,,,,,,,,,,,,,,,,,,,,,,,,,,,,,,,,
,,,,,,,,2023-08-16_08h44.05.754,HF_wild_card,2022.2.4,MacIntel,62.5,5dbeff1694f30b3a8f57dfd9,64d2fd46c836a06233681665,64dc7e2de7d73c8f3e8b8b25,,,,,,,decisionTrl,resources/DB.BMP,resources/DY.BMP,Door3,0.124444444,0.013333333,1,0,0,1.282,optionRight,70,14130,7,18,0,18,0,1,,,,,,,,,,,,,,,,,,,,,,,,,,,,,,,,,,,,,,,
,,,,,,,,2023-08-16_08h44.05.754,HF_wild_card,2022.2.4,MacIntel,62.5,5dbeff1694f30b3a8f57dfd9,64d2fd46c836a06233681665,64dc7e2de7d73c8f3e8b8b25,,,,,,,ctch,resources/DB.BMP,resources/DG.BMP,Door1,0.118888889,-0.024444444,1,0,0,1.232,optionRight,30,14160,7,19,0,19,0,1,,,,,,,,,,,,,,,,,,,,,,,,,,,,,,,,,,,,,,,
,,,,,,,,2023-08-16_08h44.05.754,HF_wild_card,2022.2.4,MacIntel,62.5,5dbeff1694f30b3a8f57dfd9,64d2fd46c836a06233681665,64dc7e2de7d73c8f3e8b8b25,,,,,,,decisionTrl,resources/DB.BMP,resources/DY.BMP,Door3,0.112222222,-0.005555556,1,0,0,1.832,optionRight,70,14230,7,20,0,20,0,1,,,,,,,,,,,,,,,,,,,,,,,,,,,,,,,,,,,,,,,
,,,,,,,,2023-08-16_08h44.05.754,HF_wild_card,2022.2.4,MacIntel,62.5,5dbeff1694f30b3a8f57dfd9,64d2fd46c836a06233681665,64dc7e2de7d73c8f3e8b8b25,,,,,,,decisionTrl,resources/DG.BMP,resources/DP.BMP,Door1,-0.151111111,-0.011111111,1,0,0,0.914,optionLeft,30,14260,7,21,0,21,0,1,,,,,,,,,,,,,,,,,,,,,,,,,,,,,,,,,,,,,,,
,,,,,,,,2023-08-16_08h44.05.754,HF_wild_card,2022.2.4,MacIntel,62.5,5dbeff1694f30b3a8f57dfd9,64d2fd46c836a06233681665,64dc7e2de7d73c8f3e8b8b25,,,,,,,decisionTrl,resources/DB.BMP,resources/DY.BMP,Door3,0.173333333,-0.02,1,0,0,1.114,optionRight,70,14330,7,22,0,22,0,1,,,,,,,,,,,,,,,,,,,,,,,,,,,,,,,,,,,,,,,
,,,,,,,,2023-08-16_08h44.05.754,HF_wild_card,2022.2.4,MacIntel,62.5,5dbeff1694f30b3a8f57dfd9,64d2fd46c836a06233681665,64dc7e2de7d73c8f3e8b8b25,,,,,,,decisionTrl,resources/DY.BMP,resources/DB.BMP,Door3,-0.156666667,-0.022222222,1,0,0,0.831,optionLeft,70,14400,7,23,0,23,0,1,,,,,,,,,,,,,,,,,,,,,,,,,,,,,,,,,,,,,,,
,,,,,,,,2023-08-16_08h44.05.754,HF_wild_card,2022.2.4,MacIntel,62.5,5dbeff1694f30b3a8f57dfd9,64d2fd46c836a06233681665,64dc7e2de7d73c8f3e8b8b25,,,,,,,ctch,resources/DP.BMP,resources/DY.BMP,Door3,0.118888889,-0.09,1,0,0,1.481,optionRight,70,14470,7,24,0,24,0,1,,,,,,,,,,,,,,,,,,,,,,,,,,,,,,,,,,,,,,,
,,,,,,,,2023-08-16_08h44.05.754,HF_wild_card,2022.2.4,MacIntel,62.5,5dbeff1694f30b3a8f57dfd9,64d2fd46c836a06233681665,64dc7e2de7d73c8f3e8b8b25,,,,,,,decisionTrl,resources/DY.BMP,resources/DB.BMP,Door3,-0.108888889,-0.021111111,1,0,0,0.832,optionLeft,70,14540,7,25,0,25,0,1,,,,,,,,,,,,,,,,,,,,,,,,,,,,,,,,,,,,,,,
,,,,,,,,2023-08-16_08h44.05.754,HF_wild_card,2022.2.4,MacIntel,62.5,5dbeff1694f30b3a8f57dfd9,64d2fd46c836a06233681665,64dc7e2de7d73c8f3e8b8b25,,,,,,,decisionTrl,resources/DB.BMP,resources/DY.BMP,Door3,0.173333333,0.018888889,1,0,0,0.931,optionRight,70,14610,7,26,0,26,0,1,,,,,,,,,,,,,,,,,,,,,,,,,,,,,,,,,,,,,,,
,,,,,,,,2023-08-16_08h44.05.754,HF_wild_card,2022.2.4,MacIntel,62.5,5dbeff1694f30b3a8f57dfd9,64d2fd46c836a06233681665,64dc7e2de7d73c8f3e8b8b25,,,,,,,decisionTrl,resources/DG.BMP,resources/DP.BMP,Door1,-0.122222222,0.008888889,1,0,0,7.199,optionLeft,30,14640,7,27,0,27,0,1,,,,,,,,,,,,,,,,,,,,,,,,,,,,,,,,,,,,,,,
,,,,,,,,2023-08-16_08h44.05.754,HF_wild_card,2022.2.4,MacIntel,62.5,5dbeff1694f30b3a8f57dfd9,64d2fd46c836a06233681665,64dc7e2de7d73c8f3e8b8b25,,,,,,,decisionTrl,resources/DY.BMP,resources/DB.BMP,Door4,0.143333333,0.015555556,1,0,0,1.58,optionRight,80,14720,7,28,0,28,0,1,,,,,,,,,,,,,,,,,,,,,,,,,,,,,,,,,,,,,,,
,,,,,,,,2023-08-16_08h44.05.754,HF_wild_card,2022.2.4,MacIntel,62.5,5dbeff1694f30b3a8f57dfd9,64d2fd46c836a06233681665,64dc7e2de7d73c8f3e8b8b25,,,,,,,ctch,resources/DG.BMP,resources/DB.BMP,Door1,-0.132222222,0.005555556,1,0,0,1.014,optionLeft,30,14750,7,29,0,29,0,1,,,,,,,,,,,,,,,,,,,,,,,,,,,,,,,,,,,,,,,
,,,,,,,,2023-08-16_08h44.05.754,HF_wild_card,2022.2.4,MacIntel,62.5,5dbeff1694f30b3a8f57dfd9,64d2fd46c836a06233681665,64dc7e2de7d73c8f3e8b8b25,,,,,,,decisionTrl,resources/DY.BMP,resources/DB.BMP,Door3,-0.144444444,0.038888889,1,0,0,1.115,optionLeft,70,14820,7,30,0,30,0,1,,,,,,,,,,,,,,,,,,,,,,,,,,,,,,,,,,,,,,,
,,,,,,,,2023-08-16_08h44.05.754,HF_wild_card,2022.2.4,MacIntel,62.5,5dbeff1694f30b3a8f57dfd9,64d2fd46c836a06233681665,64dc7e2de7d73c8f3e8b8b25,,,,,,,decisionTrl,resources/DB.BMP,resources/DY.BMP,Door3,0.107777778,0.016666667,1,0,0,1.032,optionRight,70,14890,7,31,0,31,0,1,,,,,,,,,,,,,,,,,,,,,,,,,,,,,,,,,,,,,,,
,,,,,,,,2023-08-16_08h44.05.754,HF_wild_card,2022.2.4,MacIntel,62.5,5dbeff1694f30b3a8f57dfd9,64d2fd46c836a06233681665,64dc7e2de7d73c8f3e8b8b25,,,,,,,ctch,resources/DY.BMP,resources/DP.BMP,Door3,-0.157777778,0.007777778,1,0,0,1.065,optionLeft,70,14960,7,32,0,32,0,1,,,,,,,,,,,,,,,,,,,,,,,,,,,,,,,,,,,,,,,
,,,,,,,,2023-08-16_08h44.05.754,HF_wild_card,2022.2.4,MacIntel,62.5,5dbeff1694f30b3a8f57dfd9,64d2fd46c836a06233681665,64dc7e2de7d73c8f3e8b8b25,,,,,,,decisionTrl,resources/DP.BMP,resources/DG.BMP,Door1,0.122222222,-0.021111111,1,0,0,0.829,optionRight,30,14990,7,33,0,33,0,1,,,,,,,,,,,,,,,,,,,,,,,,,,,,,,,,,,,,,,,
,,,,,,,,2023-08-16_08h44.05.754,HF_wild_card,2022.2.4,MacIntel,62.5,5dbeff1694f30b3a8f57dfd9,64d2fd46c836a06233681665,64dc7e2de7d73c8f3e8b8b25,,,,,,,ctch,resources/DB.BMP,resources/DG.BMP,Door4,-0.133333333,-0.022222222,1,0,0,0.714,optionLeft,80,15070,7,34,0,34,0,1,,,,,,,,,,,,,,,,,,,,,,,,,,,,,,,,,,,,,,,
,,,,,,,,2023-08-16_08h44.05.754,HF_wild_card,2022.2.4,MacIntel,62.5,5dbeff1694f30b3a8f57dfd9,64d2fd46c836a06233681665,64dc7e2de7d73c8f3e8b8b25,,,,,,,ctch,resources/DP.BMP,resources/DY.BMP,Door3,0.116666667,-0.008888889,1,0,0,0.632,optionRight,70,15140,7,35,0,35,0,1,,,,,,,,,,,,,,,,,,,,,,,,,,,,,,,,,,,,,,,
,,,,,,,,2023-08-16_08h44.05.754,HF_wild_card,2022.2.4,MacIntel,62.5,5dbeff1694f30b3a8f57dfd9,64d2fd46c836a06233681665,64dc7e2de7d73c8f3e8b8b25,,,,,,,,,,,,,,,,,,,,,,,,,,6,0,6,0,1,,,,,,,,,,,,,,,,,,,,,,,,,,,,,,,,,,
,,,,,,,,2023-08-16_08h44.05.754,HF_wild_card,2022.2.4,MacIntel,62.5,5dbeff1694f30b3a8f57dfd9,64d2fd46c836a06233681665,64dc7e2de7d73c8f3e8b8b25,,,,,,,,,,,,,,,,,,,,,,,,,,,,,,,3,,,,,,,,,,,,,,,,,,,,,,,,,,,,,,,,,
,,,,,,,,2023-08-16_08h44.05.754,HF_wild_card,2022.2.4,MacIntel,62.5,5dbeff1694f30b3a8f57dfd9,64d2fd46c836a06233681665,64dc7e2de7d73c8f3e8b8b25,,,,,,,,,,,,,,,,,,,,,,,,,,,,,,,,,,,,,,,,,,,,,,,,,,,,,,,,,,,,,,,,
,,,,,,,,2023-08-16_08h44.05.754,HF_wild_card,2022.2.4,MacIntel,62.5,5dbeff1694f30b3a8f57dfd9,64d2fd46c836a06233681665,64dc7e2de7d73c8f3e8b8b25,,,,,,,,,,,,,,,,,,,,,,,,,,,,,,,,80,Door1,resources/DG.BMP,0,0,0,0,1,,,,,,,,,,,,,,,,,,,,,,,,,
,,,,,,,,2023-08-16_08h44.05.754,HF_wild_card,2022.2.4,MacIntel,62.5,5dbeff1694f30b3a8f57dfd9,64d2fd46c836a06233681665,64dc7e2de7d73c8f3e8b8b25,,,,,,,,,,,,,,,,,,,,,,,,,,,,,,,,65,Door3,resources/DY.BMP,1,0,1,0,1,,,,,,,,,,,,,,,,,,,,,,,,,
,,,,,,,,2023-08-16_08h44.05.754,HF_wild_card,2022.2.4,MacIntel,62.5,5dbeff1694f30b3a8f57dfd9,64d2fd46c836a06233681665,64dc7e2de7d73c8f3e8b8b25,,,,,,,,,,,,,,,,,,,,,,,,,,,,,,,,95,WC_extreme,resources/DR.BMP,2,0,2,0,1,,,,,,,,,,,,,,,,,,,,,,,,,
,,,,,,,,2023-08-16_08h44.05.754,HF_wild_card,2022.2.4,MacIntel,62.5,5dbeff1694f30b3a8f57dfd9,64d2fd46c836a06233681665,64dc7e2de7d73c8f3e8b8b25,,,,,,,,,,,,,,,,,,,,,,,,,,,,,,,,30,WC_nonExtreme,resources/DBN.BMP,3,0,3,0,1,,,,,,,,,,,,,,,,,,,,,,,,,
,,,,,,,,2023-08-16_08h44.05.754,HF_wild_card,2022.2.4,MacIntel,62.5,5dbeff1694f30b3a8f57dfd9,64d2fd46c836a06233681665,64dc7e2de7d73c8f3e8b8b25,,,,,,,,,,,,,,,,,,,,,,,,,,,,,,,,65,Door2,resources/DP.BMP,4,0,4,0,1,,,,,,,,,,,,,,,,,,,,,,,,,
,,,,,,,,2023-08-16_08h44.05.754,HF_wild_card,2022.2.4,MacIntel,62.5,5dbeff1694f30b3a8f57dfd9,64d2fd46c836a06233681665,64dc7e2de7d73c8f3e8b8b25,,,,,,,,,,,,,,,,,,,,,,,,,,,,,,,,80,Door4,resources/DB.BMP,5,0,5,0,1,,,,,,,,,,,,,,,,,,,,,,,,,
,,,,,,,,2023-08-16_08h44.05.754,HF_wild_card,2022.2.4,MacIntel,62.5,5dbeff1694f30b3a8f57dfd9,64d2fd46c836a06233681665,64dc7e2de7d73c8f3e8b8b25,,,,,,,,,,,,,,,,,,,,,,,,,,,,,,,,,,,,,,,,,,,,,,,,,,,,,,,,,,,,,,,,
,,,,,,,,2023-08-16_08h44.05.754,HF_wild_card,2022.2.4,MacIntel,62.5,5dbeff1694f30b3a8f57dfd9,64d2fd46c836a06233681665,64dc7e2de7d73c8f3e8b8b25,,,,,,,,,,,,,,,,,,,,,,,,,,,,,,,,,,,,,,,,0,0,0,0,1,,,,,,,,,,,,,,,,,,,,
,,,,,,,,2023-08-16_08h44.05.754,HF_wild_card,2022.2.4,MacIntel,62.5,5dbeff1694f30b3a8f57dfd9,64d2fd46c836a06233681665,64dc7e2de7d73c8f3e8b8b25,,,,,,,,,,,,,,,,,,,,,,,,,,,,,,,,,,,,,,,,1,0,1,0,1,,,,,,,,,,,,,,,,,,,,
,,,,,,,,2023-08-16_08h44.05.754,HF_wild_card,2022.2.4,MacIntel,62.5,5dbeff1694f30b3a8f57dfd9,64d2fd46c836a06233681665,64dc7e2de7d73c8f3e8b8b25,,,,,,,,,,,,,,,,,,,,,,,,,,,,,,,,,,,,,,,,,,,,,-0.297777778,-0.39,1,0,0,yes,100%,70%,WC_extreme,resources/DR.BMP,0,0,0,0,1,,,,,
,,,,,,,,2023-08-16_08h44.05.754,HF_wild_card,2022.2.4,MacIntel,62.5,5dbeff1694f30b3a8f57dfd9,64d2fd46c836a06233681665,64dc7e2de7d73c8f3e8b8b25,,,,,,,,,,,,,,,,,,,,,,,,,,,,,,,,,,,,,,,,,,,,,,,,,,,,,,,,,,,,0,0,0,0,1
,,,,,,,,2023-08-16_08h44.05.754,HF_wild_card,2022.2.4,MacIntel,62.5,5dbeff1694f30b3a8f57dfd9,64d2fd46c836a06233681665,64dc7e2de7d73c8f3e8b8b25,,,,,,,,,,,,,,,,,,,,,,,,,,,,,,,,,,,,,,,,0,0,0,0,1,,,,,,,,,,,,,,,,,,,,
,,,,,,,,2023-08-16_08h44.05.754,HF_wild_card,2022.2.4,MacIntel,62.5,5dbeff1694f30b3a8f57dfd9,64d2fd46c836a06233681665,64dc7e2de7d73c8f3e8b8b25,,,,,,,,,,,,,,,,,,,,,,,,,,,,,,,,,,,,,,,,1,0,1,0,1,,,,,,,,,,,,,,,,,,,,
,,,,,,,,2023-08-16_08h44.05.754,HF_wild_card,2022.2.4,MacIntel,62.5,5dbeff1694f30b3a8f57dfd9,64d2fd46c836a06233681665,64dc7e2de7d73c8f3e8b8b25,,,,,,,,,,,,,,,,,,,,,,,,,,,,,,,,,,,,,,,,,,,,,-0.275555556,-0.432222222,1,0,0,yes,100%,60%,Door1,resources/DG.BMP,0,0,0,0,1,,,,,
,,,,,,,,2023-08-16_08h44.05.754,HF_wild_card,2022.2.4,MacIntel,62.5,5dbeff1694f30b3a8f57dfd9,64d2fd46c836a06233681665,64dc7e2de7d73c8f3e8b8b25,,,,,,,,,,,,,,,,,,,,,,,,,,,,,,,,,,,,,,,,,,,,,,,,,,,,,,,,,,,,1,0,1,0,1
,,,,,,,,2023-08-16_08h44.05.754,HF_wild_card,2022.2.4,MacIntel,62.5,5dbeff1694f30b3a8f57dfd9,64d2fd46c836a06233681665,64dc7e2de7d73c8f3e8b8b25,,,,,,,,,,,,,,,,,,,,,,,,,,,,,,,,,,,,,,,,0,0,0,0,1,,,,,,,,,,,,,,,,,,,,
