Condition,Low fixed image (Door1),Low risky image (Door2),High fixed image (Door3),High risky image (Door4),NonExtreme Wild Card 1,NonExtreme Wild Card 2,,date,expName,psychopyVersion,OS,frameRate,PROLIFIC_PID,STUDY_ID,SESSION_ID,mouse_2.x,mouse_2.y,mouse_2.leftButton,mouse_2.midButton,mouse_2.rightButton,mouse_2.clicked_name,Trial Type,Left Option Image,Right Option Image,Chosen Door,mouse.x,mouse.y,mouse.leftButton,mouse.midButton,mouse.rightButton,mouse.time,mouse.clicked_name,Feedback,Cumulative Reward,Block,trial.thisRepN,trial.thisTrialN,trial.thisN,trial.thisIndex,trial.ran,blocks.thisRepN,blocks.thisTrialN,blocks.thisN,blocks.thisIndex,blocks.ran,Money conversion,First Outcome Reported,Shown Door (First Outcome),Displayed Image (First Outcome),outcomes.thisRepN,outcomes.thisTrialN,outcomes.thisN,outcomes.thisIndex,outcomes.ran,judgments.thisRepN,judgments.thisTrialN,judgments.thisN,judgments.thisIndex,judgments.ran,freqMouse.x,freqMouse.y,freqMouse.leftButton,freqMouse.midButton,freqMouse.rightButton,freqMouse.clicked_name,FQJ for first outcome,FQJ for second outcome,Shown Door,Displayed Image,trials.thisRepN,trials.thisTrialN,trials.thisN,trials.thisIndex,trials.ran,judgBlock.thisRepN,judgBlock.thisTrialN,judgBlock.thisN,judgBlock.thisIndex,judgBlock.ran
2,resources/DBN.BMP,resources/DB.BMP,resources/DG.BMP,resources/DR.BMP,resources/DY.BMP,resources/DP.BMP,,2023-08-23_15h14.07.914,HF_wild_card,2022.2.4,Win32,59.97720866,627a76b96bea55210aecbba9,64d2fd46c836a06233681665,64e6140ff794b5f912b764c7,,,,,,,,,,,,,,,,,,,,,,,,,,,,,,,,,,,,,,,,,,,,,,,,,,,,,,,,,,,,,,,,
,,,,,,,,2023-08-23_15h14.07.914,HF_wild_card,2022.2.4,Win32,59.97720866,627a76b96bea55210aecbba9,64d2fd46c836a06233681665,64e6140ff794b5f912b764c7,0.00462963,-0.409259259,1,0,0,agree,,,,,,,,,,,,,,,,,,,,,,,,,,,,,,,,,,,,,,,,,,,,,,,,,,,,,,,,,,
,,,,,,,,2023-08-23_15h14.07.914,HF_wild_card,2022.2.4,Win32,59.97720866,627a76b96bea55210aecbba9,64d2fd46c836a06233681665,64e6140ff794b5f912b764c7,,,,,,,,,,,,,,,,,,,,,,,,,,,,,,,,,,,,,,,,,,,,,,,,,,,,,,,,,,,,,,,,
,,,,,,,,2023-08-23_15h14.07.914,HF_wild_card,2022.2.4,Win32,59.97720866,627a76b96bea55210aecbba9,64d2fd46c836a06233681665,64e6140ff794b5f912b764c7,,,,,,,sngl,resources/DB.BMP,resources/Empty.png,Door2,-0.20462963,-0.119444444,1,0,0,2.4751,optionLeft,40,40,1,0,0,0,0,1,,,,,,,,,,,,,,,,,,,,,,,,,,,,,,,,,,,,,,,
,,,,,,,,2023-08-23_15h14.07.914,HF_wild_card,2022.2.4,Win32,59.97720866,627a76b96bea55210aecbba9,64d2fd46c836a06233681665,64e6140ff794b5f912b764c7,,,,,,,sngl,resources/DP.BMP,resources/Empty.png,WildCard_NonEx,-0.215740741,-0.062962963,1,0,0,1.8647,optionLeft,55,95,1,1,0,1,0,1,,,,,,,,,,,,,,,,,,,,,,,,,,,,,,,,,,,,,,,
,,,,,,,,2023-08-23_15h14.07.914,HF_wild_card,2022.2.4,Win32,59.97720866,627a76b96bea55210aecbba9,64d2fd46c836a06233681665,64e6140ff794b5f912b764c7,,,,,,,sngl,resources/DBN.BMP,resources/Empty.png,Door1,-0.373148148,-0.049074074,1,0,0,1.9816,optionLeft,30,125,1,2,0,2,0,1,,,,,,,,,,,,,,,,,,,,,,,,,,,,,,,,,,,,,,,
,,,,,,,,2023-08-23_15h14.07.914,HF_wild_card,2022.2.4,Win32,59.97720866,627a76b96bea55210aecbba9,64d2fd46c836a06233681665,64e6140ff794b5f912b764c7,,,,,,,decisionTrl,resources/DBN.BMP,resources/DB.BMP,Door2,0.45,-0.062037037,1,0,0,1.4821,optionRight,20,145,1,3,0,3,0,1,,,,,,,,,,,,,,,,,,,,,,,,,,,,,,,,,,,,,,,
,,,,,,,,2023-08-23_15h14.07.914,HF_wild_card,2022.2.4,Win32,59.97720866,627a76b96bea55210aecbba9,64d2fd46c836a06233681665,64e6140ff794b5f912b764c7,,,,,,,decisionTrl,resources/DR.BMP,resources/DG.BMP,Door4,-0.235185185,-0.035185185,1,0,0,2.467,optionLeft,60,205,1,4,0,4,0,1,,,,,,,,,,,,,,,,,,,,,,,,,,,,,,,,,,,,,,,
,,,,,,,,2023-08-23_15h14.07.914,HF_wild_card,2022.2.4,Win32,59.97720866,627a76b96bea55210aecbba9,64d2fd46c836a06233681665,64e6140ff794b5f912b764c7,,,,,,,decisionTrl,resources/DP.BMP,resources/DB.BMP,WildCard_NonEx,-0.15462963,-0.049074074,1,0,0,2.3318,optionLeft,55,260,1,5,0,5,0,1,,,,,,,,,,,,,,,,,,,,,,,,,,,,,,,,,,,,,,,
,,,,,,,,2023-08-23_15h14.07.914,HF_wild_card,2022.2.4,Win32,59.97720866,627a76b96bea55210aecbba9,64d2fd46c836a06233681665,64e6140ff794b5f912b764c7,,,,,,,ctch,resources/DBN.BMP,resources/DR.BMP,Door4,0.385185185,-0.024074074,1,0,0,2.4827,optionRight,80,340,1,6,0,6,0,1,,,,,,,,,,,,,,,,,,,,,,,,,,,,,,,,,,,,,,,
,,,,,,,,2023-08-23_15h14.07.914,HF_wild_card,2022.2.4,Win32,59.97720866,627a76b96bea55210aecbba9,64d2fd46c836a06233681665,64e6140ff794b5f912b764c7,,,,,,,sngl,resources/DP.BMP,resources/Empty.png,WildCard_NonEx,-0.27037037,-0.038888889,1,0,0,1.1149,optionLeft,45,385,1,7,0,7,0,1,,,,,,,,,,,,,,,,,,,,,,,,,,,,,,,,,,,,,,,
,,,,,,,,2023-08-23_15h14.07.914,HF_wild_card,2022.2.4,Win32,59.97720866,627a76b96bea55210aecbba9,64d2fd46c836a06233681665,64e6140ff794b5f912b764c7,,,,,,,decisionTrl,resources/DB.BMP,resources/DBN.BMP,Door1,0.471296296,0.016666667,1,0,0,1.6819,optionRight,30,415,1,8,0,8,0,1,,,,,,,,,,,,,,,,,,,,,,,,,,,,,,,,,,,,,,,
,,,,,,,,2023-08-23_15h14.07.914,HF_wild_card,2022.2.4,Win32,59.97720866,627a76b96bea55210aecbba9,64d2fd46c836a06233681665,64e6140ff794b5f912b764c7,,,,,,,sngl,resources/Empty.png,resources/DBN.BMP,Door1,0.350925926,-0.012962963,1,0,0,0.8657,optionRight,30,445,1,9,0,9,0,1,,,,,,,,,,,,,,,,,,,,,,,,,,,,,,,,,,,,,,,
,,,,,,,,2023-08-23_15h14.07.914,HF_wild_card,2022.2.4,Win32,59.97720866,627a76b96bea55210aecbba9,64d2fd46c836a06233681665,64e6140ff794b5f912b764c7,,,,,,,decisionTrl,resources/DB.BMP,resources/DBN.BMP,Door1,0.443518519,-0.034259259,1,0,0,0.9664,optionRight,30,475,1,10,0,10,0,1,,,,,,,,,,,,,,,,,,,,,,,,,,,,,,,,,,,,,,,
,,,,,,,,2023-08-23_15h14.07.914,HF_wild_card,2022.2.4,Win32,59.97720866,627a76b96bea55210aecbba9,64d2fd46c836a06233681665,64e6140ff794b5f912b764c7,,,,,,,sngl,resources/Empty.png,resources/DR.BMP,Door4,0.258333333,0.000925926,1,0,0,0.798,optionRight,60,535,1,11,0,11,0,1,,,,,,,,,,,,,,,,,,,,,,,,,,,,,,,,,,,,,,,
,,,,,,,,2023-08-23_15h14.07.914,HF_wild_card,2022.2.4,Win32,59.97720866,627a76b96bea55210aecbba9,64d2fd46c836a06233681665,64e6140ff794b5f912b764c7,,,,,,,sngl,resources/Empty.png,resources/DG.BMP,Door3,0.287037037,0.016666667,1,0,0,0.6823,optionRight,70,605,1,12,0,12,0,1,,,,,,,,,,,,,,,,,,,,,,,,,,,,,,,,,,,,,,,
,,,,,,,,2023-08-23_15h14.07.914,HF_wild_card,2022.2.4,Win32,59.97720866,627a76b96bea55210aecbba9,64d2fd46c836a06233681665,64e6140ff794b5f912b764c7,,,,,,,decisionTrl,resources/DBN.BMP,resources/DB.BMP,Door2,0.263888889,-0.000925926,1,0,0,1.1991,optionRight,20,625,1,13,0,13,0,1,,,,,,,,,,,,,,,,,,,,,,,,,,,,,,,,,,,,,,,
,,,,,,,,2023-08-23_15h14.07.914,HF_wild_card,2022.2.4,Win32,59.97720866,627a76b96bea55210aecbba9,64d2fd46c836a06233681665,64e6140ff794b5f912b764c7,,,,,,,decisionTrl,resources/DG.BMP,resources/DR.BMP,Door3,-0.32037037,-0.084259259,1,0,0,1.1822,optionLeft,70,695,1,14,0,14,0,1,,,,,,,,,,,,,,,,,,,,,,,,,,,,,,,,,,,,,,,
,,,,,,,,2023-08-23_15h14.07.914,HF_wild_card,2022.2.4,Win32,59.97720866,627a76b96bea55210aecbba9,64d2fd46c836a06233681665,64e6140ff794b5f912b764c7,,,,,,,decisionTrl,resources/DP.BMP,resources/DR.BMP,Door4,0.514814815,-0.002777778,1,0,0,1.0489,optionRight,60,755,1,15,0,15,0,1,,,,,,,,,,,,,,,,,,,,,,,,,,,,,,,,,,,,,,,
,,,,,,,,2023-08-23_15h14.07.914,HF_wild_card,2022.2.4,Win32,59.97720866,627a76b96bea55210aecbba9,64d2fd46c836a06233681665,64e6140ff794b5f912b764c7,,,,,,,decisionTrl,resources/DP.BMP,resources/DBN.BMP,Door1,0.248148148,-0.010185185,1,0,0,0.8827,optionRight,30,785,1,16,0,16,0,1,,,,,,,,,,,,,,,,,,,,,,,,,,,,,,,,,,,,,,,
,,,,,,,,2023-08-23_15h14.07.914,HF_wild_card,2022.2.4,Win32,59.97720866,627a76b96bea55210aecbba9,64d2fd46c836a06233681665,64e6140ff794b5f912b764c7,,,,,,,ctch,resources/DG.BMP,resources/DB.BMP,Door3,-0.152777778,-0.032407407,1,0,0,1.5996,optionLeft,70,855,1,17,0,17,0,1,,,,,,,,,,,,,,,,,,,,,,,,,,,,,,,,,,,,,,,
,,,,,,,,2023-08-23_15h14.07.914,HF_wild_card,2022.2.4,Win32,59.97720866,627a76b96bea55210aecbba9,64d2fd46c836a06233681665,64e6140ff794b5f912b764c7,,,,,,,decisionTrl,resources/DG.BMP,resources/DR.BMP,Door3,-0.225,-0.023148148,1,0,0,1.1323,optionLeft,70,925,1,18,0,18,0,1,,,,,,,,,,,,,,,,,,,,,,,,,,,,,,,,,,,,,,,
,,,,,,,,2023-08-23_15h14.07.914,HF_wild_card,2022.2.4,Win32,59.97720866,627a76b96bea55210aecbba9,64d2fd46c836a06233681665,64e6140ff794b5f912b764c7,,,,,,,ctch,resources/DR.BMP,resources/DBN.BMP,Door4,-0.180555556,-0.024074074,1,0,0,1.7819,optionLeft,60,985,1,19,0,19,0,1,,,,,,,,,,,,,,,,,,,,,,,,,,,,,,,,,,,,,,,
,,,,,,,,2023-08-23_15h14.07.914,HF_wild_card,2022.2.4,Win32,59.97720866,627a76b96bea55210aecbba9,64d2fd46c836a06233681665,64e6140ff794b5f912b764c7,,,,,,,ctch,resources/DB.BMP,resources/DG.BMP,Door3,0.381481481,0.025,1,0,0,1.9164,optionRight,70,1055,1,20,0,20,0,1,,,,,,,,,,,,,,,,,,,,,,,,,,,,,,,,,,,,,,,
,,,,,,,,2023-08-23_15h14.07.914,HF_wild_card,2022.2.4,Win32,59.97720866,627a76b96bea55210aecbba9,64d2fd46c836a06233681665,64e6140ff794b5f912b764c7,,,,,,,decisionTrl,resources/DR.BMP,resources/DG.BMP,Door3,0.3,-0.015740741,1,0,0,1.5162,optionRight,70,1125,1,21,0,21,0,1,,,,,,,,,,,,,,,,,,,,,,,,,,,,,,,,,,,,,,,
,,,,,,,,2023-08-23_15h14.07.914,HF_wild_card,2022.2.4,Win32,59.97720866,627a76b96bea55210aecbba9,64d2fd46c836a06233681665,64e6140ff794b5f912b764c7,,,,,,,decisionTrl,resources/DB.BMP,resources/DBN.BMP,Door2,-0.164814815,-0.018518519,1,0,0,4.285,optionLeft,20,1145,1,22,0,22,0,1,,,,,,,,,,,,,,,,,,,,,,,,,,,,,,,,,,,,,,,
,,,,,,,,2023-08-23_15h14.07.914,HF_wild_card,2022.2.4,Win32,59.97720866,627a76b96bea55210aecbba9,64d2fd46c836a06233681665,64e6140ff794b5f912b764c7,,,,,,,sngl,resources/DG.BMP,resources/Empty.png,Door3,-0.269444444,-0.015740741,1,0,0,0.6813,optionLeft,70,1215,1,23,0,23,0,1,,,,,,,,,,,,,,,,,,,,,,,,,,,,,,,,,,,,,,,
,,,,,,,,2023-08-23_15h14.07.914,HF_wild_card,2022.2.4,Win32,59.97720866,627a76b96bea55210aecbba9,64d2fd46c836a06233681665,64e6140ff794b5f912b764c7,,,,,,,ctch,resources/DBN.BMP,resources/DR.BMP,Door4,0.208333333,-0.018518519,1,0,0,1.2992,optionRight,80,1295,1,24,0,24,0,1,,,,,,,,,,,,,,,,,,,,,,,,,,,,,,,,,,,,,,,
,,,,,,,,2023-08-23_15h14.07.914,HF_wild_card,2022.2.4,Win32,59.97720866,627a76b96bea55210aecbba9,64d2fd46c836a06233681665,64e6140ff794b5f912b764c7,,,,,,,decisionTrl,resources/DG.BMP,resources/DR.BMP,Door4,0.173148148,0.003703704,1,0,0,1.1489,optionRight,80,1375,1,25,0,25,0,1,,,,,,,,,,,,,,,,,,,,,,,,,,,,,,,,,,,,,,,
,,,,,,,,2023-08-23_15h14.07.914,HF_wild_card,2022.2.4,Win32,59.97720866,627a76b96bea55210aecbba9,64d2fd46c836a06233681665,64e6140ff794b5f912b764c7,,,,,,,ctch,resources/DR.BMP,resources/DBN.BMP,Door4,-0.149074074,0.010185185,1,0,0,0.9315,optionLeft,60,1435,1,26,0,26,0,1,,,,,,,,,,,,,,,,,,,,,,,,,,,,,,,,,,,,,,,
,,,,,,,,2023-08-23_15h14.07.914,HF_wild_card,2022.2.4,Win32,59.97720866,627a76b96bea55210aecbba9,64d2fd46c836a06233681665,64e6140ff794b5f912b764c7,,,,,,,sngl,resources/Empty.png,resources/DB.BMP,Door2,0.273148148,-0.007407407,1,0,0,0.7318,optionRight,20,1455,1,27,0,27,0,1,,,,,,,,,,,,,,,,,,,,,,,,,,,,,,,,,,,,,,,
,,,,,,,,2023-08-23_15h14.07.914,HF_wild_card,2022.2.4,Win32,59.97720866,627a76b96bea55210aecbba9,64d2fd46c836a06233681665,64e6140ff794b5f912b764c7,,,,,,,decisionTrl,resources/DB.BMP,resources/DP.BMP,WildCard_NonEx,0.201851852,0.015740741,1,0,0,0.9485,optionRight,45,1500,1,28,0,28,0,1,,,,,,,,,,,,,,,,,,,,,,,,,,,,,,,,,,,,,,,
,,,,,,,,2023-08-23_15h14.07.914,HF_wild_card,2022.2.4,Win32,59.97720866,627a76b96bea55210aecbba9,64d2fd46c836a06233681665,64e6140ff794b5f912b764c7,,,,,,,sngl,resources/Empty.png,resources/DP.BMP,WildCard_NonEx,0.331481481,0.021296296,1,0,0,0.7326,optionRight,55,1555,1,29,0,29,0,1,,,,,,,,,,,,,,,,,,,,,,,,,,,,,,,,,,,,,,,
,,,,,,,,2023-08-23_15h14.07.914,HF_wild_card,2022.2.4,Win32,59.97720866,627a76b96bea55210aecbba9,64d2fd46c836a06233681665,64e6140ff794b5f912b764c7,,,,,,,decisionTrl,resources/DG.BMP,resources/DR.BMP,Door3,-0.201851852,-0.039814815,1,0,0,4.318,optionLeft,70,1625,1,30,0,30,0,1,,,,,,,,,,,,,,,,,,,,,,,,,,,,,,,,,,,,,,,
,,,,,,,,2023-08-23_15h14.07.914,HF_wild_card,2022.2.4,Win32,59.97720866,627a76b96bea55210aecbba9,64d2fd46c836a06233681665,64e6140ff794b5f912b764c7,,,,,,,decisionTrl,resources/DB.BMP,resources/DBN.BMP,Door1,0.375,0.074074074,1,0,0,2.0005,optionRight,30,1655,1,31,0,31,0,1,,,,,,,,,,,,,,,,,,,,,,,,,,,,,,,,,,,,,,,
,,,,,,,,2023-08-23_15h14.07.914,HF_wild_card,2022.2.4,Win32,59.97720866,627a76b96bea55210aecbba9,64d2fd46c836a06233681665,64e6140ff794b5f912b764c7,,,,,,,sngl,resources/DR.BMP,resources/Empty.png,Door4,-0.250925926,-0.043518519,1,0,0,3.302,optionLeft,80,1735,1,32,0,32,0,1,,,,,,,,,,,,,,,,,,,,,,,,,,,,,,,,,,,,,,,
,,,,,,,,2023-08-23_15h14.07.914,HF_wild_card,2022.2.4,Win32,59.97720866,627a76b96bea55210aecbba9,64d2fd46c836a06233681665,64e6140ff794b5f912b764c7,,,,,,,ctch,resources/DB.BMP,resources/DG.BMP,Door3,0.287962963,-0.015740741,1,0,0,0.8825,optionRight,70,1805,1,33,0,33,0,1,,,,,,,,,,,,,,,,,,,,,,,,,,,,,,,,,,,,,,,
,,,,,,,,2023-08-23_15h14.07.914,HF_wild_card,2022.2.4,Win32,59.97720866,627a76b96bea55210aecbba9,64d2fd46c836a06233681665,64e6140ff794b5f912b764c7,,,,,,,sngl,resources/Empty.png,resources/DP.BMP,WildCard_NonEx,0.334259259,0.018518519,1,0,0,0.7652,optionRight,45,1850,1,34,0,34,0,1,,,,,,,,,,,,,,,,,,,,,,,,,,,,,,,,,,,,,,,
,,,,,,,,2023-08-23_15h14.07.914,HF_wild_card,2022.2.4,Win32,59.97720866,627a76b96bea55210aecbba9,64d2fd46c836a06233681665,64e6140ff794b5f912b764c7,,,,,,,decisionTrl,resources/DP.BMP,resources/DG.BMP,Door3,0.416666667,0.037962963,1,0,0,1.0659,optionRight,70,1920,1,35,0,35,0,1,,,,,,,,,,,,,,,,,,,,,,,,,,,,,,,,,,,,,,,
,,,,,,,,2023-08-23_15h14.07.914,HF_wild_card,2022.2.4,Win32,59.97720866,627a76b96bea55210aecbba9,64d2fd46c836a06233681665,64e6140ff794b5f912b764c7,,,,,,,decisionTrl,resources/DBN.BMP,resources/DB.BMP,Door1,-0.213888889,-0.011111111,1,0,0,1.7329,optionLeft,30,1950,1,36,0,36,0,1,,,,,,,,,,,,,,,,,,,,,,,,,,,,,,,,,,,,,,,
,,,,,,,,2023-08-23_15h14.07.914,HF_wild_card,2022.2.4,Win32,59.97720866,627a76b96bea55210aecbba9,64d2fd46c836a06233681665,64e6140ff794b5f912b764c7,,,,,,,decisionTrl,resources/DG.BMP,resources/DP.BMP,WildCard_NonEx,0.348148148,-0.010185185,1,0,0,2.5676,optionRight,45,1995,1,37,0,37,0,1,,,,,,,,,,,,,,,,,,,,,,,,,,,,,,,,,,,,,,,
,,,,,,,,2023-08-23_15h14.07.914,HF_wild_card,2022.2.4,Win32,59.97720866,627a76b96bea55210aecbba9,64d2fd46c836a06233681665,64e6140ff794b5f912b764c7,,,,,,,decisionTrl,resources/DR.BMP,resources/DG.BMP,Door3,0.255555556,0.003703704,1,0,0,0.6489,optionRight,70,2065,1,38,0,38,0,1,,,,,,,,,,,,,,,,,,,,,,,,,,,,,,,,,,,,,,,
,,,,,,,,2023-08-23_15h14.07.914,HF_wild_card,2022.2.4,Win32,59.97720866,627a76b96bea55210aecbba9,64d2fd46c836a06233681665,64e6140ff794b5f912b764c7,,,,,,,decisionTrl,resources/DBN.BMP,resources/DB.BMP,Door1,-0.235185185,-0.012037037,1,0,0,1.3328,optionLeft,30,2095,1,39,0,39,0,1,,,,,,,,,,,,,,,,,,,,,,,,,,,,,,,,,,,,,,,
,,,,,,,,2023-08-23_15h14.07.914,HF_wild_card,2022.2.4,Win32,59.97720866,627a76b96bea55210aecbba9,64d2fd46c836a06233681665,64e6140ff794b5f912b764c7,,,,,,,ctch,resources/DG.BMP,resources/DB.BMP,Door3,-0.171296296,0.005555556,1,0,0,1.4045,optionLeft,70,2165,1,40,0,40,0,1,,,,,,,,,,,,,,,,,,,,,,,,,,,,,,,,,,,,,,,
,,,,,,,,2023-08-23_15h14.07.914,HF_wild_card,2022.2.4,Win32,59.97720866,627a76b96bea55210aecbba9,64d2fd46c836a06233681665,64e6140ff794b5f912b764c7,,,,,,,decisionTrl,resources/DBN.BMP,resources/DP.BMP,WildCard_NonEx,0.267592593,0.003703704,1,0,0,2.9678,optionRight,55,2220,1,41,0,41,0,1,,,,,,,,,,,,,,,,,,,,,,,,,,,,,,,,,,,,,,,
,,,,,,,,2023-08-23_15h14.07.914,HF_wild_card,2022.2.4,Win32,59.97720866,627a76b96bea55210aecbba9,64d2fd46c836a06233681665,64e6140ff794b5f912b764c7,,,,,,,decisionTrl,resources/DR.BMP,resources/DP.BMP,Door4,-0.159259259,-0.000925926,1,0,0,1.2493,optionLeft,60,2280,1,42,0,42,0,1,,,,,,,,,,,,,,,,,,,,,,,,,,,,,,,,,,,,,,,
,,,,,,,,2023-08-23_15h14.07.914,HF_wild_card,2022.2.4,Win32,59.97720866,627a76b96bea55210aecbba9,64d2fd46c836a06233681665,64e6140ff794b5f912b764c7,,,,,,,decisionTrl,resources/DR.BMP,resources/DG.BMP,Door3,0.337037037,-0.017592593,1,0,0,2.1175,optionRight,70,2350,1,43,0,43,0,1,,,,,,,,,,,,,,,,,,,,,,,,,,,,,,,,,,,,,,,
,,,,,,,,2023-08-23_15h14.07.914,HF_wild_card,2022.2.4,Win32,59.97720866,627a76b96bea55210aecbba9,64d2fd46c836a06233681665,64e6140ff794b5f912b764c7,,,,,,,,,,,,,,,,,,,,,,,,,,0,0,0,0,1,,,,,,,,,,,,,,,,,,,,,,,,,,,,,,,,,,
,,,,,,,,2023-08-23_15h14.07.914,HF_wild_card,2022.2.4,Win32,59.97720866,627a76b96bea55210aecbba9,64d2fd46c836a06233681665,64e6140ff794b5f912b764c7,,,,,,,decisionTrl,resources/DB.BMP,resources/DBN.BMP,Door1,0.248148148,-0.047222222,1,0,0,2.3643,optionRight,30,2380,2,0,0,0,0,1,,,,,,,,,,,,,,,,,,,,,,,,,,,,,,,,,,,,,,,
,,,,,,,,2023-08-23_15h14.07.914,HF_wild_card,2022.2.4,Win32,59.97720866,627a76b96bea55210aecbba9,64d2fd46c836a06233681665,64e6140ff794b5f912b764c7,,,,,,,decisionTrl,resources/DR.BMP,resources/DG.BMP,Door4,-0.260185185,-0.036111111,1,0,0,1.7828,optionLeft,80,2460,2,1,0,1,0,1,,,,,,,,,,,,,,,,,,,,,,,,,,,,,,,,,,,,,,,
,,,,,,,,2023-08-23_15h14.07.914,HF_wild_card,2022.2.4,Win32,59.97720866,627a76b96bea55210aecbba9,64d2fd46c836a06233681665,64e6140ff794b5f912b764c7,,,,,,,sngl,resources/DR.BMP,resources/Empty.png,Door4,-0.128703704,-0.012962963,1,0,0,0.7157,optionLeft,60,2520,2,2,0,2,0,1,,,,,,,,,,,,,,,,,,,,,,,,,,,,,,,,,,,,,,,
,,,,,,,,2023-08-23_15h14.07.914,HF_wild_card,2022.2.4,Win32,59.97720866,627a76b96bea55210aecbba9,64d2fd46c836a06233681665,64e6140ff794b5f912b764c7,,,,,,,ctch,resources/DG.BMP,resources/DB.BMP,Door3,-0.165740741,0.00462963,1,0,0,1.0323,optionLeft,70,2590,2,3,0,3,0,1,,,,,,,,,,,,,,,,,,,,,,,,,,,,,,,,,,,,,,,
,,,,,,,,2023-08-23_15h14.07.914,HF_wild_card,2022.2.4,Win32,59.97720866,627a76b96bea55210aecbba9,64d2fd46c836a06233681665,64e6140ff794b5f912b764c7,,,,,,,decisionTrl,resources/DG.BMP,resources/DR.BMP,Door4,0.22962963,0.000925926,1,0,0,4.0858,optionRight,60,2650,2,4,0,4,0,1,,,,,,,,,,,,,,,,,,,,,,,,,,,,,,,,,,,,,,,
,,,,,,,,2023-08-23_15h14.07.914,HF_wild_card,2022.2.4,Win32,59.97720866,627a76b96bea55210aecbba9,64d2fd46c836a06233681665,64e6140ff794b5f912b764c7,,,,,,,decisionTrl,resources/DP.BMP,resources/DB.BMP,WildCard_NonEx,-0.337962963,-0.031481481,1,0,0,1.1661,optionLeft,55,2705,2,5,0,5,0,1,,,,,,,,,,,,,,,,,,,,,,,,,,,,,,,,,,,,,,,
,,,,,,,,2023-08-23_15h14.07.914,HF_wild_card,2022.2.4,Win32,59.97720866,627a76b96bea55210aecbba9,64d2fd46c836a06233681665,64e6140ff794b5f912b764c7,,,,,,,sngl,resources/Empty.png,resources/DP.BMP,WildCard_NonEx,0.359259259,-0.015740741,1,0,0,0.7655,optionRight,55,2760,2,6,0,6,0,1,,,,,,,,,,,,,,,,,,,,,,,,,,,,,,,,,,,,,,,
,,,,,,,,2023-08-23_15h14.07.914,HF_wild_card,2022.2.4,Win32,59.97720866,627a76b96bea55210aecbba9,64d2fd46c836a06233681665,64e6140ff794b5f912b764c7,,,,,,,decisionTrl,resources/DBN.BMP,resources/DB.BMP,Door2,0.140740741,-0.009259259,1,0,0,1.1993,optionRight,40,2800,2,7,0,7,0,1,,,,,,,,,,,,,,,,,,,,,,,,,,,,,,,,,,,,,,,
,,,,,,,,2023-08-23_15h14.07.914,HF_wild_card,2022.2.4,Win32,59.97720866,627a76b96bea55210aecbba9,64d2fd46c836a06233681665,64e6140ff794b5f912b764c7,,,,,,,decisionTrl,resources/DR.BMP,resources/DG.BMP,Door3,0.166666667,-0.019444444,1,0,0,2.7675,optionRight,70,2870,2,8,0,8,0,1,,,,,,,,,,,,,,,,,,,,,,,,,,,,,,,,,,,,,,,
,,,,,,,,2023-08-23_15h14.07.914,HF_wild_card,2022.2.4,Win32,59.97720866,627a76b96bea55210aecbba9,64d2fd46c836a06233681665,64e6140ff794b5f912b764c7,,,,,,,sngl,resources/DP.BMP,resources/Empty.png,WildCard_NonEx,-0.130555556,-0.019444444,1,0,0,0.6822,optionLeft,45,2915,2,9,0,9,0,1,,,,,,,,,,,,,,,,,,,,,,,,,,,,,,,,,,,,,,,
,,,,,,,,2023-08-23_15h14.07.914,HF_wild_card,2022.2.4,Win32,59.97720866,627a76b96bea55210aecbba9,64d2fd46c836a06233681665,64e6140ff794b5f912b764c7,,,,,,,decisionTrl,resources/DB.BMP,resources/DP.BMP,WildCard_NonEx,0.222222222,0.009259259,1,0,0,2.1344,optionRight,45,2960,2,10,0,10,0,1,,,,,,,,,,,,,,,,,,,,,,,,,,,,,,,,,,,,,,,
,,,,,,,,2023-08-23_15h14.07.914,HF_wild_card,2022.2.4,Win32,59.97720866,627a76b96bea55210aecbba9,64d2fd46c836a06233681665,64e6140ff794b5f912b764c7,,,,,,,sngl,resources/DB.BMP,resources/Empty.png,Door2,-0.183333333,-0.018518519,1,0,0,0.5985,optionLeft,20,2980,2,11,0,11,0,1,,,,,,,,,,,,,,,,,,,,,,,,,,,,,,,,,,,,,,,
,,,,,,,,2023-08-23_15h14.07.914,HF_wild_card,2022.2.4,Win32,59.97720866,627a76b96bea55210aecbba9,64d2fd46c836a06233681665,64e6140ff794b5f912b764c7,,,,,,,sngl,resources/DBN.BMP,resources/Empty.png,Door1,-0.198148148,-0.006481481,1,0,0,0.6328,optionLeft,30,3010,2,12,0,12,0,1,,,,,,,,,,,,,,,,,,,,,,,,,,,,,,,,,,,,,,,
,,,,,,,,2023-08-23_15h14.07.914,HF_wild_card,2022.2.4,Win32,59.97720866,627a76b96bea55210aecbba9,64d2fd46c836a06233681665,64e6140ff794b5f912b764c7,,,,,,,decisionTrl,resources/DB.BMP,resources/DBN.BMP,Door1,0.315740741,-0.017592593,1,0,0,0.6986,optionRight,30,3040,2,13,0,13,0,1,,,,,,,,,,,,,,,,,,,,,,,,,,,,,,,,,,,,,,,
,,,,,,,,2023-08-23_15h14.07.914,HF_wild_card,2022.2.4,Win32,59.97720866,627a76b96bea55210aecbba9,64d2fd46c836a06233681665,64e6140ff794b5f912b764c7,,,,,,,decisionTrl,resources/DB.BMP,resources/DBN.BMP,Door1,0.387962963,-0.002777778,1,0,0,0.6493,optionRight,30,3070,2,14,0,14,0,1,,,,,,,,,,,,,,,,,,,,,,,,,,,,,,,,,,,,,,,
,,,,,,,,2023-08-23_15h14.07.914,HF_wild_card,2022.2.4,Win32,59.97720866,627a76b96bea55210aecbba9,64d2fd46c836a06233681665,64e6140ff794b5f912b764c7,,,,,,,decisionTrl,resources/DR.BMP,resources/DG.BMP,Door4,-0.135185185,-0.007407407,1,0,0,1.7156,optionLeft,60,3130,2,15,0,15,0,1,,,,,,,,,,,,,,,,,,,,,,,,,,,,,,,,,,,,,,,
,,,,,,,,2023-08-23_15h14.07.914,HF_wild_card,2022.2.4,Win32,59.97720866,627a76b96bea55210aecbba9,64d2fd46c836a06233681665,64e6140ff794b5f912b764c7,,,,,,,sngl,resources/Empty.png,resources/DB.BMP,Door2,0.278703704,0.002777778,1,0,0,0.8324,optionRight,40,3170,2,16,0,16,0,1,,,,,,,,,,,,,,,,,,,,,,,,,,,,,,,,,,,,,,,
,,,,,,,,2023-08-23_15h14.07.914,HF_wild_card,2022.2.4,Win32,59.97720866,627a76b96bea55210aecbba9,64d2fd46c836a06233681665,64e6140ff794b5f912b764c7,,,,,,,decisionTrl,resources/DBN.BMP,resources/DP.BMP,WildCard_NonEx,0.190740741,-0.026851852,1,0,0,1.6997,optionRight,45,3215,2,17,0,17,0,1,,,,,,,,,,,,,,,,,,,,,,,,,,,,,,,,,,,,,,,
,,,,,,,,2023-08-23_15h14.07.914,HF_wild_card,2022.2.4,Win32,59.97720866,627a76b96bea55210aecbba9,64d2fd46c836a06233681665,64e6140ff794b5f912b764c7,,,,,,,decisionTrl,resources/DG.BMP,resources/DR.BMP,Door3,-0.191666667,-0.038888889,1,0,0,4.3358,optionLeft,70,3285,2,18,0,18,0,1,,,,,,,,,,,,,,,,,,,,,,,,,,,,,,,,,,,,,,,
,,,,,,,,2023-08-23_15h14.07.914,HF_wild_card,2022.2.4,Win32,59.97720866,627a76b96bea55210aecbba9,64d2fd46c836a06233681665,64e6140ff794b5f912b764c7,,,,,,,sngl,resources/Empty.png,resources/DBN.BMP,Door1,0.249074074,-0.008333333,1,0,0,0.6654,optionRight,30,3315,2,19,0,19,0,1,,,,,,,,,,,,,,,,,,,,,,,,,,,,,,,,,,,,,,,
,,,,,,,,2023-08-23_15h14.07.914,HF_wild_card,2022.2.4,Win32,59.97720866,627a76b96bea55210aecbba9,64d2fd46c836a06233681665,64e6140ff794b5f912b764c7,,,,,,,ctch,resources/DB.BMP,resources/DG.BMP,Door3,0.193518519,-0.008333333,1,0,0,1.1161,optionRight,70,3385,2,20,0,20,0,1,,,,,,,,,,,,,,,,,,,,,,,,,,,,,,,,,,,,,,,
,,,,,,,,2023-08-23_15h14.07.914,HF_wild_card,2022.2.4,Win32,59.97720866,627a76b96bea55210aecbba9,64d2fd46c836a06233681665,64e6140ff794b5f912b764c7,,,,,,,ctch,resources/DBN.BMP,resources/DR.BMP,Door4,0.221296296,-0.008333333,1,0,0,1.0995,optionRight,80,3465,2,21,0,21,0,1,,,,,,,,,,,,,,,,,,,,,,,,,,,,,,,,,,,,,,,
,,,,,,,,2023-08-23_15h14.07.914,HF_wild_card,2022.2.4,Win32,59.97720866,627a76b96bea55210aecbba9,64d2fd46c836a06233681665,64e6140ff794b5f912b764c7,,,,,,,sngl,resources/Empty.png,resources/DR.BMP,Door4,0.162962963,-0.006481481,1,0,0,0.8999,optionRight,80,3545,2,22,0,22,0,1,,,,,,,,,,,,,,,,,,,,,,,,,,,,,,,,,,,,,,,
,,,,,,,,2023-08-23_15h14.07.914,HF_wild_card,2022.2.4,Win32,59.97720866,627a76b96bea55210aecbba9,64d2fd46c836a06233681665,64e6140ff794b5f912b764c7,,,,,,,ctch,resources/DG.BMP,resources/DB.BMP,Door3,-0.222222222,0.000925926,1,0,0,1.0161,optionLeft,70,3615,2,23,0,23,0,1,,,,,,,,,,,,,,,,,,,,,,,,,,,,,,,,,,,,,,,
,,,,,,,,2023-08-23_15h14.07.914,HF_wild_card,2022.2.4,Win32,59.97720866,627a76b96bea55210aecbba9,64d2fd46c836a06233681665,64e6140ff794b5f912b764c7,,,,,,,decisionTrl,resources/DP.BMP,resources/DBN.BMP,WildCard_NonEx,-0.344444444,0.002777778,1,0,0,0.9998,optionLeft,45,3660,2,24,0,24,0,1,,,,,,,,,,,,,,,,,,,,,,,,,,,,,,,,,,,,,,,
,,,,,,,,2023-08-23_15h14.07.914,HF_wild_card,2022.2.4,Win32,59.97720866,627a76b96bea55210aecbba9,64d2fd46c836a06233681665,64e6140ff794b5f912b764c7,,,,,,,sngl,resources/Empty.png,resources/DG.BMP,Door3,0.258333333,0.032407407,1,0,0,0.6988,optionRight,70,3730,2,25,0,25,0,1,,,,,,,,,,,,,,,,,,,,,,,,,,,,,,,,,,,,,,,
,,,,,,,,2023-08-23_15h14.07.914,HF_wild_card,2022.2.4,Win32,59.97720866,627a76b96bea55210aecbba9,64d2fd46c836a06233681665,64e6140ff794b5f912b764c7,,,,,,,sngl,resources/DG.BMP,resources/Empty.png,Door3,-0.175,0.025,1,0,0,0.5491,optionLeft,70,3800,2,26,0,26,0,1,,,,,,,,,,,,,,,,,,,,,,,,,,,,,,,,,,,,,,,
,,,,,,,,2023-08-23_15h14.07.914,HF_wild_card,2022.2.4,Win32,59.97720866,627a76b96bea55210aecbba9,64d2fd46c836a06233681665,64e6140ff794b5f912b764c7,,,,,,,decisionTrl,resources/DR.BMP,resources/DG.BMP,Door4,-0.225925926,-0.026851852,1,0,0,1.6332,optionLeft,60,3860,2,27,0,27,0,1,,,,,,,,,,,,,,,,,,,,,,,,,,,,,,,,,,,,,,,
,,,,,,,,2023-08-23_15h14.07.914,HF_wild_card,2022.2.4,Win32,59.97720866,627a76b96bea55210aecbba9,64d2fd46c836a06233681665,64e6140ff794b5f912b764c7,,,,,,,decisionTrl,resources/DBN.BMP,resources/DB.BMP,Door1,-0.20462963,-0.023148148,1,0,0,1.1323,optionLeft,30,3890,2,28,0,28,0,1,,,,,,,,,,,,,,,,,,,,,,,,,,,,,,,,,,,,,,,
,,,,,,,,2023-08-23_15h14.07.914,HF_wild_card,2022.2.4,Win32,59.97720866,627a76b96bea55210aecbba9,64d2fd46c836a06233681665,64e6140ff794b5f912b764c7,,,,,,,decisionTrl,resources/DG.BMP,resources/DP.BMP,Door3,-0.217592593,-0.002777778,1,0,0,1.6997,optionLeft,70,3960,2,29,0,29,0,1,,,,,,,,,,,,,,,,,,,,,,,,,,,,,,,,,,,,,,,
,,,,,,,,2023-08-23_15h14.07.914,HF_wild_card,2022.2.4,Win32,59.97720866,627a76b96bea55210aecbba9,64d2fd46c836a06233681665,64e6140ff794b5f912b764c7,,,,,,,ctch,resources/DR.BMP,resources/DBN.BMP,Door4,-0.162037037,0.006481481,1,0,0,1.0327,optionLeft,80,4040,2,30,0,30,0,1,,,,,,,,,,,,,,,,,,,,,,,,,,,,,,,,,,,,,,,
,,,,,,,,2023-08-23_15h14.07.914,HF_wild_card,2022.2.4,Win32,59.97720866,627a76b96bea55210aecbba9,64d2fd46c836a06233681665,64e6140ff794b5f912b764c7,,,,,,,decisionTrl,resources/DB.BMP,resources/DBN.BMP,Door1,0.3,0.018518519,1,0,0,1.4663,optionRight,30,4070,2,31,0,31,0,1,,,,,,,,,,,,,,,,,,,,,,,,,,,,,,,,,,,,,,,
,,,,,,,,2023-08-23_15h14.07.914,HF_wild_card,2022.2.4,Win32,59.97720866,627a76b96bea55210aecbba9,64d2fd46c836a06233681665,64e6140ff794b5f912b764c7,,,,,,,decisionTrl,resources/DG.BMP,resources/DR.BMP,Door4,0.266666667,0.025925926,1,0,0,1.4825,optionRight,60,4130,2,32,0,32,0,1,,,,,,,,,,,,,,,,,,,,,,,,,,,,,,,,,,,,,,,
,,,,,,,,2023-08-23_15h14.07.914,HF_wild_card,2022.2.4,Win32,59.97720866,627a76b96bea55210aecbba9,64d2fd46c836a06233681665,64e6140ff794b5f912b764c7,,,,,,,ctch,resources/DR.BMP,resources/DBN.BMP,Door4,-0.156481481,-0.001851852,1,0,0,1.1657,optionLeft,60,4190,2,33,0,33,0,1,,,,,,,,,,,,,,,,,,,,,,,,,,,,,,,,,,,,,,,
,,,,,,,,2023-08-23_15h14.07.914,HF_wild_card,2022.2.4,Win32,59.97720866,627a76b96bea55210aecbba9,64d2fd46c836a06233681665,64e6140ff794b5f912b764c7,,,,,,,decisionTrl,resources/DR.BMP,resources/DP.BMP,Door4,-0.141666667,-0.012962963,1,0,0,0.9326,optionLeft,60,4250,2,34,0,34,0,1,,,,,,,,,,,,,,,,,,,,,,,,,,,,,,,,,,,,,,,
,,,,,,,,2023-08-23_15h14.07.914,HF_wild_card,2022.2.4,Win32,59.97720866,627a76b96bea55210aecbba9,64d2fd46c836a06233681665,64e6140ff794b5f912b764c7,,,,,,,decisionTrl,resources/DBN.BMP,resources/DB.BMP,Door1,-0.182407407,0.012037037,1,0,0,1.3334,optionLeft,30,4280,2,35,0,35,0,1,,,,,,,,,,,,,,,,,,,,,,,,,,,,,,,,,,,,,,,
,,,,,,,,2023-08-23_15h14.07.914,HF_wild_card,2022.2.4,Win32,59.97720866,627a76b96bea55210aecbba9,64d2fd46c836a06233681665,64e6140ff794b5f912b764c7,,,,,,,decisionTrl,resources/DG.BMP,resources/DR.BMP,Door3,-0.184259259,0.002777778,1,0,0,1.5001,optionLeft,70,4350,2,36,0,36,0,1,,,,,,,,,,,,,,,,,,,,,,,,,,,,,,,,,,,,,,,
,,,,,,,,2023-08-23_15h14.07.914,HF_wild_card,2022.2.4,Win32,59.97720866,627a76b96bea55210aecbba9,64d2fd46c836a06233681665,64e6140ff794b5f912b764c7,,,,,,,ctch,resources/DB.BMP,resources/DG.BMP,Door3,0.428703704,-0.002777778,1,0,0,0.9321,optionRight,70,4420,2,37,0,37,0,1,,,,,,,,,,,,,,,,,,,,,,,,,,,,,,,,,,,,,,,
,,,,,,,,2023-08-23_15h14.07.914,HF_wild_card,2022.2.4,Win32,59.97720866,627a76b96bea55210aecbba9,64d2fd46c836a06233681665,64e6140ff794b5f912b764c7,,,,,,,decisionTrl,resources/DP.BMP,resources/DG.BMP,Door3,0.301851852,-0.009259259,1,0,0,0.7987,optionRight,70,4490,2,38,0,38,0,1,,,,,,,,,,,,,,,,,,,,,,,,,,,,,,,,,,,,,,,
,,,,,,,,2023-08-23_15h14.07.914,HF_wild_card,2022.2.4,Win32,59.97720866,627a76b96bea55210aecbba9,64d2fd46c836a06233681665,64e6140ff794b5f912b764c7,,,,,,,decisionTrl,resources/DBN.BMP,resources/DB.BMP,Door1,-0.287037037,0.010185185,1,0,0,2.1339,optionLeft,30,4520,2,39,0,39,0,1,,,,,,,,,,,,,,,,,,,,,,,,,,,,,,,,,,,,,,,
,,,,,,,,2023-08-23_15h14.07.914,HF_wild_card,2022.2.4,Win32,59.97720866,627a76b96bea55210aecbba9,64d2fd46c836a06233681665,64e6140ff794b5f912b764c7,,,,,,,decisionTrl,resources/DP.BMP,resources/DR.BMP,Door4,0.158333333,-0.002777778,1,0,0,1.9166,optionRight,80,4600,2,40,0,40,0,1,,,,,,,,,,,,,,,,,,,,,,,,,,,,,,,,,,,,,,,
,,,,,,,,2023-08-23_15h14.07.914,HF_wild_card,2022.2.4,Win32,59.97720866,627a76b96bea55210aecbba9,64d2fd46c836a06233681665,64e6140ff794b5f912b764c7,,,,,,,ctch,resources/DBN.BMP,resources/DR.BMP,Door4,0.357407407,-0.010185185,1,0,0,1.099,optionRight,60,4660,2,41,0,41,0,1,,,,,,,,,,,,,,,,,,,,,,,,,,,,,,,,,,,,,,,
,,,,,,,,2023-08-23_15h14.07.914,HF_wild_card,2022.2.4,Win32,59.97720866,627a76b96bea55210aecbba9,64d2fd46c836a06233681665,64e6140ff794b5f912b764c7,,,,,,,sngl,resources/DP.BMP,resources/Empty.png,WildCard_NonEx,-0.268518519,-0.026851852,1,0,0,0.5829,optionLeft,55,4715,2,42,0,42,0,1,,,,,,,,,,,,,,,,,,,,,,,,,,,,,,,,,,,,,,,
,,,,,,,,2023-08-23_15h14.07.914,HF_wild_card,2022.2.4,Win32,59.97720866,627a76b96bea55210aecbba9,64d2fd46c836a06233681665,64e6140ff794b5f912b764c7,,,,,,,sngl,resources/Empty.png,resources/DP.BMP,WildCard_NonEx,0.27962963,-0.013888889,1,0,0,0.5652,optionRight,45,4760,2,43,0,43,0,1,,,,,,,,,,,,,,,,,,,,,,,,,,,,,,,,,,,,,,,
,,,,,,,,2023-08-23_15h14.07.914,HF_wild_card,2022.2.4,Win32,59.97720866,627a76b96bea55210aecbba9,64d2fd46c836a06233681665,64e6140ff794b5f912b764c7,,,,,,,,,,,,,,,,,,,,,,,,,,1,0,1,0,1,,,,,,,,,,,,,,,,,,,,,,,,,,,,,,,,,,
,,,,,,,,2023-08-23_15h14.07.914,HF_wild_card,2022.2.4,Win32,59.97720866,627a76b96bea55210aecbba9,64d2fd46c836a06233681665,64e6140ff794b5f912b764c7,,,,,,,decisionTrl,resources/DB.BMP,resources/DBN.BMP,Door1,0.152777778,-0.032407407,1,0,0,1.0296,optionRight,30,4790,3,0,0,0,0,1,,,,,,,,,,,,,,,,,,,,,,,,,,,,,,,,,,,,,,,
,,,,,,,,2023-08-23_15h14.07.914,HF_wild_card,2022.2.4,Win32,59.97720866,627a76b96bea55210aecbba9,64d2fd46c836a06233681665,64e6140ff794b5f912b764c7,,,,,,,sngl,resources/Empty.png,resources/DP.BMP,WildCard_NonEx,0.227777778,-0.010185185,1,0,0,0.6991,optionRight,45,4835,3,1,0,1,0,1,,,,,,,,,,,,,,,,,,,,,,,,,,,,,,,,,,,,,,,
,,,,,,,,2023-08-23_15h14.07.914,HF_wild_card,2022.2.4,Win32,59.97720866,627a76b96bea55210aecbba9,64d2fd46c836a06233681665,64e6140ff794b5f912b764c7,,,,,,,decisionTrl,resources/DR.BMP,resources/DP.BMP,Door4,-0.103703704,-0.003703704,1,0,0,1.0985,optionLeft,60,4895,3,2,0,2,0,1,,,,,,,,,,,,,,,,,,,,,,,,,,,,,,,,,,,,,,,
,,,,,,,,2023-08-23_15h14.07.914,HF_wild_card,2022.2.4,Win32,59.97720866,627a76b96bea55210aecbba9,64d2fd46c836a06233681665,64e6140ff794b5f912b764c7,,,,,,,decisionTrl,resources/DR.BMP,resources/DG.BMP,Door3,0.181481481,0,1,0,0,0.9325,optionRight,70,4965,3,3,0,3,0,1,,,,,,,,,,,,,,,,,,,,,,,,,,,,,,,,,,,,,,,
,,,,,,,,2023-08-23_15h14.07.914,HF_wild_card,2022.2.4,Win32,59.97720866,627a76b96bea55210aecbba9,64d2fd46c836a06233681665,64e6140ff794b5f912b764c7,,,,,,,sngl,resources/Empty.png,resources/DB.BMP,Door2,0.290740741,0.002777778,1,0,0,1.0823,optionRight,20,4985,3,4,0,4,0,1,,,,,,,,,,,,,,,,,,,,,,,,,,,,,,,,,,,,,,,
,,,,,,,,2023-08-23_15h14.07.914,HF_wild_card,2022.2.4,Win32,59.97720866,627a76b96bea55210aecbba9,64d2fd46c836a06233681665,64e6140ff794b5f912b764c7,,,,,,,decisionTrl,resources/DBN.BMP,resources/DB.BMP,Door1,-0.253703704,-0.006481481,1,0,0,0.6821,optionLeft,30,5015,3,5,0,5,0,1,,,,,,,,,,,,,,,,,,,,,,,,,,,,,,,,,,,,,,,
,,,,,,,,2023-08-23_15h14.07.914,HF_wild_card,2022.2.4,Win32,59.97720866,627a76b96bea55210aecbba9,64d2fd46c836a06233681665,64e6140ff794b5f912b764c7,,,,,,,decisionTrl,resources/DR.BMP,resources/DG.BMP,Door4,-0.215740741,-0.039814815,1,0,0,0.9485,optionLeft,60,5075,3,6,0,6,0,1,,,,,,,,,,,,,,,,,,,,,,,,,,,,,,,,,,,,,,,
,,,,,,,,2023-08-23_15h14.07.914,HF_wild_card,2022.2.4,Win32,59.97720866,627a76b96bea55210aecbba9,64d2fd46c836a06233681665,64e6140ff794b5f912b764c7,,,,,,,decisionTrl,resources/DBN.BMP,resources/DP.BMP,WildCard_NonEx,0.282407407,-0.006481481,1,0,0,1.0661,optionRight,45,5120,3,7,0,7,0,1,,,,,,,,,,,,,,,,,,,,,,,,,,,,,,,,,,,,,,,
,,,,,,,,2023-08-23_15h14.07.914,HF_wild_card,2022.2.4,Win32,59.97720866,627a76b96bea55210aecbba9,64d2fd46c836a06233681665,64e6140ff794b5f912b764c7,,,,,,,sngl,resources/DP.BMP,resources/Empty.png,WildCard_NonEx,-0.12962963,-0.028703704,1,0,0,0.5483,optionLeft,45,5165,3,8,0,8,0,1,,,,,,,,,,,,,,,,,,,,,,,,,,,,,,,,,,,,,,,
,,,,,,,,2023-08-23_15h14.07.914,HF_wild_card,2022.2.4,Win32,59.97720866,627a76b96bea55210aecbba9,64d2fd46c836a06233681665,64e6140ff794b5f912b764c7,,,,,,,sngl,resources/DP.BMP,resources/Empty.png,WildCard_NonEx,-0.348148148,-0.063888889,1,0,0,0.549,optionLeft,55,5220,3,9,0,9,0,1,,,,,,,,,,,,,,,,,,,,,,,,,,,,,,,,,,,,,,,
,,,,,,,,2023-08-23_15h14.07.914,HF_wild_card,2022.2.4,Win32,59.97720866,627a76b96bea55210aecbba9,64d2fd46c836a06233681665,64e6140ff794b5f912b764c7,,,,,,,decisionTrl,resources/DBN.BMP,resources/DB.BMP,Door1,-0.310185185,-0.012962963,1,0,0,0.9157,optionLeft,30,5250,3,10,0,10,0,1,,,,,,,,,,,,,,,,,,,,,,,,,,,,,,,,,,,,,,,
,,,,,,,,2023-08-23_15h14.07.914,HF_wild_card,2022.2.4,Win32,59.97720866,627a76b96bea55210aecbba9,64d2fd46c836a06233681665,64e6140ff794b5f912b764c7,,,,,,,ctch,resources/DB.BMP,resources/DG.BMP,Door3,0.216666667,-0.00462963,1,0,0,0.9143,optionRight,70,5320,3,11,0,11,0,1,,,,,,,,,,,,,,,,,,,,,,,,,,,,,,,,,,,,,,,
,,,,,,,,2023-08-23_15h14.07.914,HF_wild_card,2022.2.4,Win32,59.97720866,627a76b96bea55210aecbba9,64d2fd46c836a06233681665,64e6140ff794b5f912b764c7,,,,,,,decisionTrl,resources/DP.BMP,resources/DBN.BMP,WildCard_NonEx,-0.24537037,-0.031481481,1,0,0,1.2326,optionLeft,55,5375,3,12,0,12,0,1,,,,,,,,,,,,,,,,,,,,,,,,,,,,,,,,,,,,,,,
,,,,,,,,2023-08-23_15h14.07.914,HF_wild_card,2022.2.4,Win32,59.97720866,627a76b96bea55210aecbba9,64d2fd46c836a06233681665,64e6140ff794b5f912b764c7,,,,,,,decisionTrl,resources/DP.BMP,resources/DR.BMP,Door4,0.373148148,-0.011111111,1,0,0,0.8659,optionRight,60,5435,3,13,0,13,0,1,,,,,,,,,,,,,,,,,,,,,,,,,,,,,,,,,,,,,,,
,,,,,,,,2023-08-23_15h14.07.914,HF_wild_card,2022.2.4,Win32,59.97720866,627a76b96bea55210aecbba9,64d2fd46c836a06233681665,64e6140ff794b5f912b764c7,,,,,,,ctch,resources/DG.BMP,resources/DB.BMP,Door3,-0.122222222,-0.011111111,1,0,0,0.9324,optionLeft,70,5505,3,14,0,14,0,1,,,,,,,,,,,,,,,,,,,,,,,,,,,,,,,,,,,,,,,
,,,,,,,,2023-08-23_15h14.07.914,HF_wild_card,2022.2.4,Win32,59.97720866,627a76b96bea55210aecbba9,64d2fd46c836a06233681665,64e6140ff794b5f912b764c7,,,,,,,ctch,resources/DR.BMP,resources/DBN.BMP,Door4,-0.190740741,-0.010185185,1,0,0,0.7989,optionLeft,60,5565,3,15,0,15,0,1,,,,,,,,,,,,,,,,,,,,,,,,,,,,,,,,,,,,,,,
,,,,,,,,2023-08-23_15h14.07.914,HF_wild_card,2022.2.4,Win32,59.97720866,627a76b96bea55210aecbba9,64d2fd46c836a06233681665,64e6140ff794b5f912b764c7,,,,,,,decisionTrl,resources/DG.BMP,resources/DR.BMP,Door4,0.234259259,-0.003703704,1,0,0,1.8496,optionRight,80,5645,3,16,0,16,0,1,,,,,,,,,,,,,,,,,,,,,,,,,,,,,,,,,,,,,,,
,,,,,,,,2023-08-23_15h14.07.914,HF_wild_card,2022.2.4,Win32,59.97720866,627a76b96bea55210aecbba9,64d2fd46c836a06233681665,64e6140ff794b5f912b764c7,,,,,,,ctch,resources/DBN.BMP,resources/DR.BMP,Door4,0.25,-0.009259259,1,0,0,0.7816,optionRight,60,5705,3,17,0,17,0,1,,,,,,,,,,,,,,,,,,,,,,,,,,,,,,,,,,,,,,,
,,,,,,,,2023-08-23_15h14.07.914,HF_wild_card,2022.2.4,Win32,59.97720866,627a76b96bea55210aecbba9,64d2fd46c836a06233681665,64e6140ff794b5f912b764c7,,,,,,,sngl,resources/DG.BMP,resources/Empty.png,Door3,-0.144444444,-0.003703704,1,0,0,0.5821,optionLeft,70,5775,3,18,0,18,0,1,,,,,,,,,,,,,,,,,,,,,,,,,,,,,,,,,,,,,,,
,,,,,,,,2023-08-23_15h14.07.914,HF_wild_card,2022.2.4,Win32,59.97720866,627a76b96bea55210aecbba9,64d2fd46c836a06233681665,64e6140ff794b5f912b764c7,,,,,,,decisionTrl,resources/DG.BMP,resources/DR.BMP,Door4,0.285185185,-0.015740741,1,0,0,0.9827,optionRight,80,5855,3,19,0,19,0,1,,,,,,,,,,,,,,,,,,,,,,,,,,,,,,,,,,,,,,,
,,,,,,,,2023-08-23_15h14.07.914,HF_wild_card,2022.2.4,Win32,59.97720866,627a76b96bea55210aecbba9,64d2fd46c836a06233681665,64e6140ff794b5f912b764c7,,,,,,,decisionTrl,resources/DB.BMP,resources/DBN.BMP,Door1,0.192592593,-0.011111111,1,0,0,0.982,optionRight,30,5885,3,20,0,20,0,1,,,,,,,,,,,,,,,,,,,,,,,,,,,,,,,,,,,,,,,
,,,,,,,,2023-08-23_15h14.07.914,HF_wild_card,2022.2.4,Win32,59.97720866,627a76b96bea55210aecbba9,64d2fd46c836a06233681665,64e6140ff794b5f912b764c7,,,,,,,sngl,resources/Empty.png,resources/DP.BMP,WildCard_NonEx,0.212962963,-0.010185185,1,0,0,0.9158,optionRight,55,5940,3,21,0,21,0,1,,,,,,,,,,,,,,,,,,,,,,,,,,,,,,,,,,,,,,,
,,,,,,,,2023-08-23_15h14.07.914,HF_wild_card,2022.2.4,Win32,59.97720866,627a76b96bea55210aecbba9,64d2fd46c836a06233681665,64e6140ff794b5f912b764c7,,,,,,,decisionTrl,resources/DP.BMP,resources/DB.BMP,WildCard_NonEx,-0.112962963,-0.006481481,1,0,0,1.6494,optionLeft,55,5995,3,22,0,22,0,1,,,,,,,,,,,,,,,,,,,,,,,,,,,,,,,,,,,,,,,
,,,,,,,,2023-08-23_15h14.07.914,HF_wild_card,2022.2.4,Win32,59.97720866,627a76b96bea55210aecbba9,64d2fd46c836a06233681665,64e6140ff794b5f912b764c7,,,,,,,decisionTrl,resources/DB.BMP,resources/DP.BMP,WildCard_NonEx,0.264814815,-0.018518519,1,0,0,0.7157,optionRight,45,6040,3,23,0,23,0,1,,,,,,,,,,,,,,,,,,,,,,,,,,,,,,,,,,,,,,,
,,,,,,,,2023-08-23_15h14.07.914,HF_wild_card,2022.2.4,Win32,59.97720866,627a76b96bea55210aecbba9,64d2fd46c836a06233681665,64e6140ff794b5f912b764c7,,,,,,,sngl,resources/DR.BMP,resources/Empty.png,Door4,-0.118518519,-0.017592593,1,0,0,0.6651,optionLeft,80,6120,3,24,0,24,0,1,,,,,,,,,,,,,,,,,,,,,,,,,,,,,,,,,,,,,,,
,,,,,,,,2023-08-23_15h14.07.914,HF_wild_card,2022.2.4,Win32,59.97720866,627a76b96bea55210aecbba9,64d2fd46c836a06233681665,64e6140ff794b5f912b764c7,,,,,,,decisionTrl,resources/DG.BMP,resources/DR.BMP,Door4,0.217592593,-0.003703704,1,0,0,1.1658,optionRight,80,6200,3,25,0,25,0,1,,,,,,,,,,,,,,,,,,,,,,,,,,,,,,,,,,,,,,,
,,,,,,,,2023-08-23_15h14.07.914,HF_wild_card,2022.2.4,Win32,59.97720866,627a76b96bea55210aecbba9,64d2fd46c836a06233681665,64e6140ff794b5f912b764c7,,,,,,,sngl,resources/Empty.png,resources/DG.BMP,Door3,0.257407407,0.003703704,1,0,0,0.6149,optionRight,70,6270,3,26,0,26,0,1,,,,,,,,,,,,,,,,,,,,,,,,,,,,,,,,,,,,,,,
,,,,,,,,2023-08-23_15h14.07.914,HF_wild_card,2022.2.4,Win32,59.97720866,627a76b96bea55210aecbba9,64d2fd46c836a06233681665,64e6140ff794b5f912b764c7,,,,,,,ctch,resources/DB.BMP,resources/DG.BMP,Door3,0.203703704,0.010185185,1,0,0,0.7657,optionRight,70,6340,3,27,0,27,0,1,,,,,,,,,,,,,,,,,,,,,,,,,,,,,,,,,,,,,,,
,,,,,,,,2023-08-23_15h14.07.914,HF_wild_card,2022.2.4,Win32,59.97720866,627a76b96bea55210aecbba9,64d2fd46c836a06233681665,64e6140ff794b5f912b764c7,,,,,,,sngl,resources/DBN.BMP,resources/Empty.png,Door1,-0.257407407,0.000925926,1,0,0,0.6325,optionLeft,30,6370,3,28,0,28,0,1,,,,,,,,,,,,,,,,,,,,,,,,,,,,,,,,,,,,,,,
,,,,,,,,2023-08-23_15h14.07.914,HF_wild_card,2022.2.4,Win32,59.97720866,627a76b96bea55210aecbba9,64d2fd46c836a06233681665,64e6140ff794b5f912b764c7,,,,,,,decisionTrl,resources/DR.BMP,resources/DG.BMP,Door4,-0.22962963,-0.026851852,1,0,0,8.7907,optionLeft,60,6430,3,29,0,29,0,1,,,,,,,,,,,,,,,,,,,,,,,,,,,,,,,,,,,,,,,
,,,,,,,,2023-08-23_15h14.07.914,HF_wild_card,2022.2.4,Win32,59.97720866,627a76b96bea55210aecbba9,64d2fd46c836a06233681665,64e6140ff794b5f912b764c7,,,,,,,decisionTrl,resources/DP.BMP,resources/DG.BMP,Door3,0.197222222,-0.032407407,1,0,0,0.9495,optionRight,70,6500,3,30,0,30,0,1,,,,,,,,,,,,,,,,,,,,,,,,,,,,,,,,,,,,,,,
,,,,,,,,2023-08-23_15h14.07.914,HF_wild_card,2022.2.4,Win32,59.97720866,627a76b96bea55210aecbba9,64d2fd46c836a06233681665,64e6140ff794b5f912b764c7,,,,,,,decisionTrl,resources/DB.BMP,resources/DBN.BMP,Door2,-0.309259259,-0.00462963,1,0,0,0.8319,optionLeft,40,6540,3,31,0,31,0,1,,,,,,,,,,,,,,,,,,,,,,,,,,,,,,,,,,,,,,,
,,,,,,,,2023-08-23_15h14.07.914,HF_wild_card,2022.2.4,Win32,59.97720866,627a76b96bea55210aecbba9,64d2fd46c836a06233681665,64e6140ff794b5f912b764c7,,,,,,,decisionTrl,resources/DG.BMP,resources/DR.BMP,Door4,0.247222222,-0.000925926,1,0,0,2.6511,optionRight,80,6620,3,32,0,32,0,1,,,,,,,,,,,,,,,,,,,,,,,,,,,,,,,,,,,,,,,
,,,,,,,,2023-08-23_15h14.07.914,HF_wild_card,2022.2.4,Win32,59.97720866,627a76b96bea55210aecbba9,64d2fd46c836a06233681665,64e6140ff794b5f912b764c7,,,,,,,decisionTrl,resources/DR.BMP,resources/DG.BMP,Door4,-0.319444444,-0.011111111,1,0,0,0.8657,optionLeft,60,6680,3,33,0,33,0,1,,,,,,,,,,,,,,,,,,,,,,,,,,,,,,,,,,,,,,,
,,,,,,,,2023-08-23_15h14.07.914,HF_wild_card,2022.2.4,Win32,59.97720866,627a76b96bea55210aecbba9,64d2fd46c836a06233681665,64e6140ff794b5f912b764c7,,,,,,,sngl,resources/Empty.png,resources/DBN.BMP,Door1,0.205555556,-0.001851852,1,0,0,0.6313,optionRight,30,6710,3,34,0,34,0,1,,,,,,,,,,,,,,,,,,,,,,,,,,,,,,,,,,,,,,,
,,,,,,,,2023-08-23_15h14.07.914,HF_wild_card,2022.2.4,Win32,59.97720866,627a76b96bea55210aecbba9,64d2fd46c836a06233681665,64e6140ff794b5f912b764c7,,,,,,,sngl,resources/DB.BMP,resources/Empty.png,Door2,-0.192592593,-0.025,1,0,0,0.5323,optionLeft,40,6750,3,35,0,35,0,1,,,,,,,,,,,,,,,,,,,,,,,,,,,,,,,,,,,,,,,
,,,,,,,,2023-08-23_15h14.07.914,HF_wild_card,2022.2.4,Win32,59.97720866,627a76b96bea55210aecbba9,64d2fd46c836a06233681665,64e6140ff794b5f912b764c7,,,,,,,decisionTrl,resources/DBN.BMP,resources/DB.BMP,Door2,0.307407407,-0.007407407,1,0,0,0.6657,optionRight,40,6790,3,36,0,36,0,1,,,,,,,,,,,,,,,,,,,,,,,,,,,,,,,,,,,,,,,
,,,,,,,,2023-08-23_15h14.07.914,HF_wild_card,2022.2.4,Win32,59.97720866,627a76b96bea55210aecbba9,64d2fd46c836a06233681665,64e6140ff794b5f912b764c7,,,,,,,sngl,resources/Empty.png,resources/DR.BMP,Door4,0.280555556,0.002777778,1,0,0,0.5652,optionRight,60,6850,3,37,0,37,0,1,,,,,,,,,,,,,,,,,,,,,,,,,,,,,,,,,,,,,,,
,,,,,,,,2023-08-23_15h14.07.914,HF_wild_card,2022.2.4,Win32,59.97720866,627a76b96bea55210aecbba9,64d2fd46c836a06233681665,64e6140ff794b5f912b764c7,,,,,,,decisionTrl,resources/DG.BMP,resources/DP.BMP,Door3,-0.162962963,-0.018518519,1,0,0,0.7821,optionLeft,70,6920,3,38,0,38,0,1,,,,,,,,,,,,,,,,,,,,,,,,,,,,,,,,,,,,,,,
,,,,,,,,2023-08-23_15h14.07.914,HF_wild_card,2022.2.4,Win32,59.97720866,627a76b96bea55210aecbba9,64d2fd46c836a06233681665,64e6140ff794b5f912b764c7,,,,,,,decisionTrl,resources/DB.BMP,resources/DBN.BMP,Door2,-0.213888889,-0.008333333,1,0,0,1.3665,optionLeft,40,6960,3,39,0,39,0,1,,,,,,,,,,,,,,,,,,,,,,,,,,,,,,,,,,,,,,,
,,,,,,,,2023-08-23_15h14.07.914,HF_wild_card,2022.2.4,Win32,59.97720866,627a76b96bea55210aecbba9,64d2fd46c836a06233681665,64e6140ff794b5f912b764c7,,,,,,,decisionTrl,resources/DBN.BMP,resources/DB.BMP,Door2,0.214814815,-0.041666667,1,0,0,0.8653,optionRight,40,7000,3,40,0,40,0,1,,,,,,,,,,,,,,,,,,,,,,,,,,,,,,,,,,,,,,,
,,,,,,,,2023-08-23_15h14.07.914,HF_wild_card,2022.2.4,Win32,59.97720866,627a76b96bea55210aecbba9,64d2fd46c836a06233681665,64e6140ff794b5f912b764c7,,,,,,,ctch,resources/DR.BMP,resources/DBN.BMP,Door4,-0.136111111,0.006481481,1,0,0,0.7821,optionLeft,80,7080,3,41,0,41,0,1,,,,,,,,,,,,,,,,,,,,,,,,,,,,,,,,,,,,,,,
,,,,,,,,2023-08-23_15h14.07.914,HF_wild_card,2022.2.4,Win32,59.97720866,627a76b96bea55210aecbba9,64d2fd46c836a06233681665,64e6140ff794b5f912b764c7,,,,,,,ctch,resources/DG.BMP,resources/DB.BMP,Door3,-0.175,0.015740741,1,0,0,0.8159,optionLeft,70,7150,3,42,0,42,0,1,,,,,,,,,,,,,,,,,,,,,,,,,,,,,,,,,,,,,,,
,,,,,,,,2023-08-23_15h14.07.914,HF_wild_card,2022.2.4,Win32,59.97720866,627a76b96bea55210aecbba9,64d2fd46c836a06233681665,64e6140ff794b5f912b764c7,,,,,,,ctch,resources/DBN.BMP,resources/DR.BMP,Door4,0.301851852,-0.000925926,1,0,0,0.7823,optionRight,80,7230,3,43,0,43,0,1,,,,,,,,,,,,,,,,,,,,,,,,,,,,,,,,,,,,,,,
,,,,,,,,2023-08-23_15h14.07.914,HF_wild_card,2022.2.4,Win32,59.97720866,627a76b96bea55210aecbba9,64d2fd46c836a06233681665,64e6140ff794b5f912b764c7,,,,,,,,,,,,,,,,,,,,,,,,,,2,0,2,0,1,,,,,,,,,,,,,,,,,,,,,,,,,,,,,,,,,,
,,,,,,,,2023-08-23_15h14.07.914,HF_wild_card,2022.2.4,Win32,59.97720866,627a76b96bea55210aecbba9,64d2fd46c836a06233681665,64e6140ff794b5f912b764c7,,,,,,,sngl,resources/Empty.png,resources/DR.BMP,Door4,0.35462963,-0.02037037,1,0,0,1.6306,optionRight,80,7310,4,0,0,0,0,1,,,,,,,,,,,,,,,,,,,,,,,,,,,,,,,,,,,,,,,
,,,,,,,,2023-08-23_15h14.07.914,HF_wild_card,2022.2.4,Win32,59.97720866,627a76b96bea55210aecbba9,64d2fd46c836a06233681665,64e6140ff794b5f912b764c7,,,,,,,decisionTrl,resources/DB.BMP,resources/DBN.BMP,Door2,-0.149074074,0.003703704,1,0,0,1.2826,optionLeft,20,7330,4,1,0,1,0,1,,,,,,,,,,,,,,,,,,,,,,,,,,,,,,,,,,,,,,,
,,,,,,,,2023-08-23_15h14.07.914,HF_wild_card,2022.2.4,Win32,59.97720866,627a76b96bea55210aecbba9,64d2fd46c836a06233681665,64e6140ff794b5f912b764c7,,,,,,,decisionTrl,resources/DBN.BMP,resources/DB.BMP,Door1,-0.157407407,-0.023148148,1,0,0,0.8987,optionLeft,30,7360,4,2,0,2,0,1,,,,,,,,,,,,,,,,,,,,,,,,,,,,,,,,,,,,,,,
,,,,,,,,2023-08-23_15h14.07.914,HF_wild_card,2022.2.4,Win32,59.97720866,627a76b96bea55210aecbba9,64d2fd46c836a06233681665,64e6140ff794b5f912b764c7,,,,,,,sngl,resources/DY.BMP,resources/Empty.png,WildCard_Ex,-0.17037037,-0.025,1,0,0,0.6986,optionLeft,45,7405,4,3,0,3,0,1,,,,,,,,,,,,,,,,,,,,,,,,,,,,,,,,,,,,,,,
,,,,,,,,2023-08-23_15h14.07.914,HF_wild_card,2022.2.4,Win32,59.97720866,627a76b96bea55210aecbba9,64d2fd46c836a06233681665,64e6140ff794b5f912b764c7,,,,,,,decisionTrl,resources/DY.BMP,resources/DBN.BMP,WildCard_Ex,-0.116666667,-0.018518519,1,0,0,1.0657,optionLeft,45,7450,4,4,0,4,0,1,,,,,,,,,,,,,,,,,,,,,,,,,,,,,,,,,,,,,,,
,,,,,,,,2023-08-23_15h14.07.914,HF_wild_card,2022.2.4,Win32,59.97720866,627a76b96bea55210aecbba9,64d2fd46c836a06233681665,64e6140ff794b5f912b764c7,,,,,,,ctch,resources/DB.BMP,resources/DG.BMP,Door3,0.34537037,-0.003703704,1,0,0,2.0501,optionRight,70,7520,4,5,0,5,0,1,,,,,,,,,,,,,,,,,,,,,,,,,,,,,,,,,,,,,,,
,,,,,,,,2023-08-23_15h14.07.914,HF_wild_card,2022.2.4,Win32,59.97720866,627a76b96bea55210aecbba9,64d2fd46c836a06233681665,64e6140ff794b5f912b764c7,,,,,,,decisionTrl,resources/DR.BMP,resources/DG.BMP,Door4,-0.146296296,-0.015740741,1,0,0,0.8659,optionLeft,80,7600,4,6,0,6,0,1,,,,,,,,,,,,,,,,,,,,,,,,,,,,,,,,,,,,,,,
,,,,,,,,2023-08-23_15h14.07.914,HF_wild_card,2022.2.4,Win32,59.97720866,627a76b96bea55210aecbba9,64d2fd46c836a06233681665,64e6140ff794b5f912b764c7,,,,,,,sngl,resources/Empty.png,resources/DG.BMP,Door3,0.397222222,-0.012037037,1,0,0,0.766,optionRight,70,7670,4,7,0,7,0,1,,,,,,,,,,,,,,,,,,,,,,,,,,,,,,,,,,,,,,,
,,,,,,,,2023-08-23_15h14.07.914,HF_wild_card,2022.2.4,Win32,59.97720866,627a76b96bea55210aecbba9,64d2fd46c836a06233681665,64e6140ff794b5f912b764c7,,,,,,,decisionTrl,resources/DBN.BMP,resources/DY.BMP,WildCard_Ex,0.237962963,0.00462963,1,0,0,1.0328,optionRight,55,7725,4,8,0,8,0,1,,,,,,,,,,,,,,,,,,,,,,,,,,,,,,,,,,,,,,,
,,,,,,,,2023-08-23_15h14.07.914,HF_wild_card,2022.2.4,Win32,59.97720866,627a76b96bea55210aecbba9,64d2fd46c836a06233681665,64e6140ff794b5f912b764c7,,,,,,,ctch,resources/DB.BMP,resources/DG.BMP,Door3,0.178703704,-0.010185185,1,0,0,1.5837,optionRight,70,7795,4,9,0,9,0,1,,,,,,,,,,,,,,,,,,,,,,,,,,,,,,,,,,,,,,,
,,,,,,,,2023-08-23_15h14.07.914,HF_wild_card,2022.2.4,Win32,59.97720866,627a76b96bea55210aecbba9,64d2fd46c836a06233681665,64e6140ff794b5f912b764c7,,,,,,,sngl,resources/DBN.BMP,resources/Empty.png,Door1,-0.137962963,-0.005555556,1,0,0,0.6489,optionLeft,30,7825,4,10,0,10,0,1,,,,,,,,,,,,,,,,,,,,,,,,,,,,,,,,,,,,,,,
,,,,,,,,2023-08-23_15h14.07.914,HF_wild_card,2022.2.4,Win32,59.97720866,627a76b96bea55210aecbba9,64d2fd46c836a06233681665,64e6140ff794b5f912b764c7,,,,,,,decisionTrl,resources/DG.BMP,resources/DR.BMP,Door4,0.2,-0.010185185,1,0,0,1.4329,optionRight,80,7905,4,11,0,11,0,1,,,,,,,,,,,,,,,,,,,,,,,,,,,,,,,,,,,,,,,
,,,,,,,,2023-08-23_15h14.07.914,HF_wild_card,2022.2.4,Win32,59.97720866,627a76b96bea55210aecbba9,64d2fd46c836a06233681665,64e6140ff794b5f912b764c7,,,,,,,sngl,resources/Empty.png,resources/DY.BMP,WildCard_Ex,0.246296296,-0.027777778,1,0,0,0.7495,optionRight,55,7960,4,12,0,12,0,1,,,,,,,,,,,,,,,,,,,,,,,,,,,,,,,,,,,,,,,
,,,,,,,,2023-08-23_15h14.07.914,HF_wild_card,2022.2.4,Win32,59.97720866,627a76b96bea55210aecbba9,64d2fd46c836a06233681665,64e6140ff794b5f912b764c7,,,,,,,decisionTrl,resources/DY.BMP,resources/DB.BMP,WildCard_Ex,-0.190740741,-0.016666667,1,0,0,1.2163,optionLeft,45,8005,4,13,0,13,0,1,,,,,,,,,,,,,,,,,,,,,,,,,,,,,,,,,,,,,,,
,,,,,,,,2023-08-23_15h14.07.914,HF_wild_card,2022.2.4,Win32,59.97720866,627a76b96bea55210aecbba9,64d2fd46c836a06233681665,64e6140ff794b5f912b764c7,,,,,,,decisionTrl,resources/DBN.BMP,resources/DB.BMP,Door2,0.27962963,-0.005555556,1,0,0,1.6832,optionRight,20,8025,4,14,0,14,0,1,,,,,,,,,,,,,,,,,,,,,,,,,,,,,,,,,,,,,,,
,,,,,,,,2023-08-23_15h14.07.914,HF_wild_card,2022.2.4,Win32,59.97720866,627a76b96bea55210aecbba9,64d2fd46c836a06233681665,64e6140ff794b5f912b764c7,,,,,,,ctch,resources/DG.BMP,resources/DB.BMP,Door3,-0.206481481,-0.010185185,1,0,0,0.9993,optionLeft,70,8095,4,15,0,15,0,1,,,,,,,,,,,,,,,,,,,,,,,,,,,,,,,,,,,,,,,
,,,,,,,,2023-08-23_15h14.07.914,HF_wild_card,2022.2.4,Win32,59.97720866,627a76b96bea55210aecbba9,64d2fd46c836a06233681665,64e6140ff794b5f912b764c7,,,,,,,sngl,resources/Empty.png,resources/DY.BMP,WildCard_Ex,0.281481481,-0.033333333,1,0,0,0.6493,optionRight,45,8140,4,16,0,16,0,1,,,,,,,,,,,,,,,,,,,,,,,,,,,,,,,,,,,,,,,
,,,,,,,,2023-08-23_15h14.07.914,HF_wild_card,2022.2.4,Win32,59.97720866,627a76b96bea55210aecbba9,64d2fd46c836a06233681665,64e6140ff794b5f912b764c7,,,,,,,ctch,resources/DBN.BMP,resources/DR.BMP,Door4,0.20462963,-0.011111111,1,0,0,0.7986,optionRight,60,8200,4,17,0,17,0,1,,,,,,,,,,,,,,,,,,,,,,,,,,,,,,,,,,,,,,,
,,,,,,,,2023-08-23_15h14.07.914,HF_wild_card,2022.2.4,Win32,59.97720866,627a76b96bea55210aecbba9,64d2fd46c836a06233681665,64e6140ff794b5f912b764c7,,,,,,,ctch,resources/DR.BMP,resources/DBN.BMP,Door4,-0.138888889,-0.014814815,1,0,0,0.832,optionLeft,80,8280,4,18,0,18,0,1,,,,,,,,,,,,,,,,,,,,,,,,,,,,,,,,,,,,,,,
,,,,,,,,2023-08-23_15h14.07.914,HF_wild_card,2022.2.4,Win32,59.97720866,627a76b96bea55210aecbba9,64d2fd46c836a06233681665,64e6140ff794b5f912b764c7,,,,,,,sngl,resources/DR.BMP,resources/Empty.png,Door4,-0.134259259,-0.024074074,1,0,0,0.5658,optionLeft,60,8340,4,19,0,19,0,1,,,,,,,,,,,,,,,,,,,,,,,,,,,,,,,,,,,,,,,
,,,,,,,,2023-08-23_15h14.07.914,HF_wild_card,2022.2.4,Win32,59.97720866,627a76b96bea55210aecbba9,64d2fd46c836a06233681665,64e6140ff794b5f912b764c7,,,,,,,decisionTrl,resources/DBN.BMP,resources/DB.BMP,Door1,-0.237962963,-0.052777778,1,0,0,0.9818,optionLeft,30,8370,4,20,0,20,0,1,,,,,,,,,,,,,,,,,,,,,,,,,,,,,,,,,,,,,,,
,,,,,,,,2023-08-23_15h14.07.914,HF_wild_card,2022.2.4,Win32,59.97720866,627a76b96bea55210aecbba9,64d2fd46c836a06233681665,64e6140ff794b5f912b764c7,,,,,,,sngl,resources/Empty.png,resources/DBN.BMP,Door1,0.237037037,-0.012962963,1,0,0,0.6154,optionRight,30,8400,4,21,0,21,0,1,,,,,,,,,,,,,,,,,,,,,,,,,,,,,,,,,,,,,,,
,,,,,,,,2023-08-23_15h14.07.914,HF_wild_card,2022.2.4,Win32,59.97720866,627a76b96bea55210aecbba9,64d2fd46c836a06233681665,64e6140ff794b5f912b764c7,,,,,,,decisionTrl,resources/DR.BMP,resources/DG.BMP,Door4,-0.150925926,-0.012962963,1,0,0,1.7666,optionLeft,60,8460,4,22,0,22,0,1,,,,,,,,,,,,,,,,,,,,,,,,,,,,,,,,,,,,,,,
,,,,,,,,2023-08-23_15h14.07.914,HF_wild_card,2022.2.4,Win32,59.97720866,627a76b96bea55210aecbba9,64d2fd46c836a06233681665,64e6140ff794b5f912b764c7,,,,,,,decisionTrl,resources/DB.BMP,resources/DBN.BMP,Door1,0.185185185,-0.001851852,1,0,0,1.7667,optionRight,30,8490,4,23,0,23,0,1,,,,,,,,,,,,,,,,,,,,,,,,,,,,,,,,,,,,,,,
,,,,,,,,2023-08-23_15h14.07.914,HF_wild_card,2022.2.4,Win32,59.97720866,627a76b96bea55210aecbba9,64d2fd46c836a06233681665,64e6140ff794b5f912b764c7,,,,,,,decisionTrl,resources/DG.BMP,resources/DR.BMP,Door4,0.251851852,-0.010185185,1,0,0,2.0003,optionRight,60,8550,4,24,0,24,0,1,,,,,,,,,,,,,,,,,,,,,,,,,,,,,,,,,,,,,,,
,,,,,,,,2023-08-23_15h14.07.914,HF_wild_card,2022.2.4,Win32,59.97720866,627a76b96bea55210aecbba9,64d2fd46c836a06233681665,64e6140ff794b5f912b764c7,,,,,,,ctch,resources/DG.BMP,resources/DB.BMP,Door3,-0.171296296,-0.025,1,0,0,0.8991,optionLeft,70,8620,4,25,0,25,0,1,,,,,,,,,,,,,,,,,,,,,,,,,,,,,,,,,,,,,,,
,,,,,,,,2023-08-23_15h14.07.914,HF_wild_card,2022.2.4,Win32,59.97720866,627a76b96bea55210aecbba9,64d2fd46c836a06233681665,64e6140ff794b5f912b764c7,,,,,,,decisionTrl,resources/DG.BMP,resources/DY.BMP,Door3,-0.413888889,-0.084259259,1,0,0,1.0832,optionLeft,70,8690,4,26,0,26,0,1,,,,,,,,,,,,,,,,,,,,,,,,,,,,,,,,,,,,,,,
,,,,,,,,2023-08-23_15h14.07.914,HF_wild_card,2022.2.4,Win32,59.97720866,627a76b96bea55210aecbba9,64d2fd46c836a06233681665,64e6140ff794b5f912b764c7,,,,,,,decisionTrl,resources/DY.BMP,resources/DR.BMP,Door4,0.215740741,-0.016666667,1,0,0,1.1328,optionRight,80,8770,4,27,0,27,0,1,,,,,,,,,,,,,,,,,,,,,,,,,,,,,,,,,,,,,,,
,,,,,,,,2023-08-23_15h14.07.914,HF_wild_card,2022.2.4,Win32,59.97720866,627a76b96bea55210aecbba9,64d2fd46c836a06233681665,64e6140ff794b5f912b764c7,,,,,,,decisionTrl,resources/DG.BMP,resources/DR.BMP,Door4,0.298148148,-0.011111111,1,0,0,1.0487,optionRight,80,8850,4,28,0,28,0,1,,,,,,,,,,,,,,,,,,,,,,,,,,,,,,,,,,,,,,,
,,,,,,,,2023-08-23_15h14.07.914,HF_wild_card,2022.2.4,Win32,59.97720866,627a76b96bea55210aecbba9,64d2fd46c836a06233681665,64e6140ff794b5f912b764c7,,,,,,,decisionTrl,resources/DG.BMP,resources/DR.BMP,Door4,0.271296296,0.001851852,1,0,0,0.7992,optionRight,60,8910,4,29,0,29,0,1,,,,,,,,,,,,,,,,,,,,,,,,,,,,,,,,,,,,,,,
,,,,,,,,2023-08-23_15h14.07.914,HF_wild_card,2022.2.4,Win32,59.97720866,627a76b96bea55210aecbba9,64d2fd46c836a06233681665,64e6140ff794b5f912b764c7,,,,,,,decisionTrl,resources/DB.BMP,resources/DY.BMP,WildCard_Ex,0.335185185,-0.001851852,1,0,0,1.2998,optionRight,55,8965,4,30,0,30,0,1,,,,,,,,,,,,,,,,,,,,,,,,,,,,,,,,,,,,,,,
,,,,,,,,2023-08-23_15h14.07.914,HF_wild_card,2022.2.4,Win32,59.97720866,627a76b96bea55210aecbba9,64d2fd46c836a06233681665,64e6140ff794b5f912b764c7,,,,,,,decisionTrl,resources/DB.BMP,resources/DBN.BMP,Door1,0.297222222,0.001851852,1,0,0,1.1998,optionRight,30,8995,4,31,0,31,0,1,,,,,,,,,,,,,,,,,,,,,,,,,,,,,,,,,,,,,,,
,,,,,,,,2023-08-23_15h14.07.914,HF_wild_card,2022.2.4,Win32,59.97720866,627a76b96bea55210aecbba9,64d2fd46c836a06233681665,64e6140ff794b5f912b764c7,,,,,,,sngl,resources/DY.BMP,resources/Empty.png,WildCard_Ex,-0.181481481,-0.034259259,1,0,0,0.6317,optionLeft,55,9050,4,32,0,32,0,1,,,,,,,,,,,,,,,,,,,,,,,,,,,,,,,,,,,,,,,
,,,,,,,,2023-08-23_15h14.07.914,HF_wild_card,2022.2.4,Win32,59.97720866,627a76b96bea55210aecbba9,64d2fd46c836a06233681665,64e6140ff794b5f912b764c7,,,,,,,decisionTrl,resources/DBN.BMP,resources/DB.BMP,Door1,-0.169444444,-0.060185185,1,0,0,2.1177,optionLeft,30,9080,4,33,0,33,0,1,,,,,,,,,,,,,,,,,,,,,,,,,,,,,,,,,,,,,,,
,,,,,,,,2023-08-23_15h14.07.914,HF_wild_card,2022.2.4,Win32,59.97720866,627a76b96bea55210aecbba9,64d2fd46c836a06233681665,64e6140ff794b5f912b764c7,,,,,,,decisionTrl,resources/DY.BMP,resources/DG.BMP,Door3,0.160185185,-0.009259259,1,0,0,1.2491,optionRight,70,9150,4,34,0,34,0,1,,,,,,,,,,,,,,,,,,,,,,,,,,,,,,,,,,,,,,,
,,,,,,,,2023-08-23_15h14.07.914,HF_wild_card,2022.2.4,Win32,59.97720866,627a76b96bea55210aecbba9,64d2fd46c836a06233681665,64e6140ff794b5f912b764c7,,,,,,,decisionTrl,resources/DR.BMP,resources/DY.BMP,Door4,-0.131481481,-0.025925926,1,0,0,1.4329,optionLeft,80,9230,4,35,0,35,0,1,,,,,,,,,,,,,,,,,,,,,,,,,,,,,,,,,,,,,,,
,,,,,,,,2023-08-23_15h14.07.914,HF_wild_card,2022.2.4,Win32,59.97720866,627a76b96bea55210aecbba9,64d2fd46c836a06233681665,64e6140ff794b5f912b764c7,,,,,,,decisionTrl,resources/DR.BMP,resources/DG.BMP,Door4,-0.107407407,-0.013888889,1,0,0,1.0493,optionLeft,80,9310,4,36,0,36,0,1,,,,,,,,,,,,,,,,,,,,,,,,,,,,,,,,,,,,,,,
,,,,,,,,2023-08-23_15h14.07.914,HF_wild_card,2022.2.4,Win32,59.97720866,627a76b96bea55210aecbba9,64d2fd46c836a06233681665,64e6140ff794b5f912b764c7,,,,,,,sngl,resources/DB.BMP,resources/Empty.png,Door2,-0.15,-0.037037037,1,0,0,0.6985,optionLeft,20,9330,4,37,0,37,0,1,,,,,,,,,,,,,,,,,,,,,,,,,,,,,,,,,,,,,,,
,,,,,,,,2023-08-23_15h14.07.914,HF_wild_card,2022.2.4,Win32,59.97720866,627a76b96bea55210aecbba9,64d2fd46c836a06233681665,64e6140ff794b5f912b764c7,,,,,,,sngl,resources/Empty.png,resources/DB.BMP,Door2,0.219444444,-0.034259259,1,0,0,0.5653,optionRight,40,9370,4,38,0,38,0,1,,,,,,,,,,,,,,,,,,,,,,,,,,,,,,,,,,,,,,,
,,,,,,,,2023-08-23_15h14.07.914,HF_wild_card,2022.2.4,Win32,59.97720866,627a76b96bea55210aecbba9,64d2fd46c836a06233681665,64e6140ff794b5f912b764c7,,,,,,,decisionTrl,resources/DR.BMP,resources/DG.BMP,Door4,-0.162037037,-0.025,1,0,0,2.5505,optionLeft,80,9450,4,39,0,39,0,1,,,,,,,,,,,,,,,,,,,,,,,,,,,,,,,,,,,,,,,
,,,,,,,,2023-08-23_15h14.07.914,HF_wild_card,2022.2.4,Win32,59.97720866,627a76b96bea55210aecbba9,64d2fd46c836a06233681665,64e6140ff794b5f912b764c7,,,,,,,ctch,resources/DBN.BMP,resources/DR.BMP,Door4,0.301851852,-0.000925926,1,0,0,0.7165,optionRight,80,9530,4,40,0,40,0,1,,,,,,,,,,,,,,,,,,,,,,,,,,,,,,,,,,,,,,,
,,,,,,,,2023-08-23_15h14.07.914,HF_wild_card,2022.2.4,Win32,59.97720866,627a76b96bea55210aecbba9,64d2fd46c836a06233681665,64e6140ff794b5f912b764c7,,,,,,,sngl,resources/DG.BMP,resources/Empty.png,Door3,-0.162037037,-0.036111111,1,0,0,3.083,optionLeft,70,9600,4,41,0,41,0,1,,,,,,,,,,,,,,,,,,,,,,,,,,,,,,,,,,,,,,,
,,,,,,,,2023-08-23_15h14.07.914,HF_wild_card,2022.2.4,Win32,59.97720866,627a76b96bea55210aecbba9,64d2fd46c836a06233681665,64e6140ff794b5f912b764c7,,,,,,,ctch,resources/DR.BMP,resources/DBN.BMP,Door4,-0.149074074,-0.050925926,1,0,0,1.3496,optionLeft,60,9660,4,42,0,42,0,1,,,,,,,,,,,,,,,,,,,,,,,,,,,,,,,,,,,,,,,
,,,,,,,,2023-08-23_15h14.07.914,HF_wild_card,2022.2.4,Win32,59.97720866,627a76b96bea55210aecbba9,64d2fd46c836a06233681665,64e6140ff794b5f912b764c7,,,,,,,decisionTrl,resources/DB.BMP,resources/DBN.BMP,Door2,-0.134259259,-0.052777778,1,0,0,2.2341,optionLeft,20,9680,4,43,0,43,0,1,,,,,,,,,,,,,,,,,,,,,,,,,,,,,,,,,,,,,,,
,,,,,,,,2023-08-23_15h14.07.914,HF_wild_card,2022.2.4,Win32,59.97720866,627a76b96bea55210aecbba9,64d2fd46c836a06233681665,64e6140ff794b5f912b764c7,,,,,,,,,,,,,,,,,,,,,,,,,,3,0,3,0,1,,,,,,,,,,,,,,,,,,,,,,,,,,,,,,,,,,
,,,,,,,,2023-08-23_15h14.07.914,HF_wild_card,2022.2.4,Win32,59.97720866,627a76b96bea55210aecbba9,64d2fd46c836a06233681665,64e6140ff794b5f912b764c7,,,,,,,decisionTrl,resources/DR.BMP,resources/DG.BMP,Door3,0.150925926,-0.061111111,1,0,0,3.3485,optionRight,70,9750,5,0,0,0,0,1,,,,,,,,,,,,,,,,,,,,,,,,,,,,,,,,,,,,,,,
,,,,,,,,2023-08-23_15h14.07.914,HF_wild_card,2022.2.4,Win32,59.97720866,627a76b96bea55210aecbba9,64d2fd46c836a06233681665,64e6140ff794b5f912b764c7,,,,,,,decisionTrl,resources/DG.BMP,resources/DR.BMP,Door4,0.211111111,-0.025925926,1,0,0,1.2494,optionRight,60,9810,5,1,0,1,0,1,,,,,,,,,,,,,,,,,,,,,,,,,,,,,,,,,,,,,,,
,,,,,,,,2023-08-23_15h14.07.914,HF_wild_card,2022.2.4,Win32,59.97720866,627a76b96bea55210aecbba9,64d2fd46c836a06233681665,64e6140ff794b5f912b764c7,,,,,,,sngl,resources/Empty.png,resources/DBN.BMP,Door1,0.174074074,-0.024074074,1,0,0,0.8156,optionRight,30,9840,5,2,0,2,0,1,,,,,,,,,,,,,,,,,,,,,,,,,,,,,,,,,,,,,,,
,,,,,,,,2023-08-23_15h14.07.914,HF_wild_card,2022.2.4,Win32,59.97720866,627a76b96bea55210aecbba9,64d2fd46c836a06233681665,64e6140ff794b5f912b764c7,,,,,,,decisionTrl,resources/DB.BMP,resources/DBN.BMP,Door1,0.12037037,-0.021296296,1,0,0,1.3994,optionRight,30,9870,5,3,0,3,0,1,,,,,,,,,,,,,,,,,,,,,,,,,,,,,,,,,,,,,,,
,,,,,,,,2023-08-23_15h14.07.914,HF_wild_card,2022.2.4,Win32,59.97720866,627a76b96bea55210aecbba9,64d2fd46c836a06233681665,64e6140ff794b5f912b764c7,,,,,,,decisionTrl,resources/DBN.BMP,resources/DY.BMP,WildCard_Ex,0.240740741,-0.023148148,1,0,0,0.7824,optionRight,45,9915,5,4,0,4,0,1,,,,,,,,,,,,,,,,,,,,,,,,,,,,,,,,,,,,,,,
,,,,,,,,2023-08-23_15h14.07.914,HF_wild_card,2022.2.4,Win32,59.97720866,627a76b96bea55210aecbba9,64d2fd46c836a06233681665,64e6140ff794b5f912b764c7,,,,,,,decisionTrl,resources/DG.BMP,resources/DR.BMP,Door3,-0.171296296,-0.046296296,1,0,0,1.8332,optionLeft,70,9985,5,5,0,5,0,1,,,,,,,,,,,,,,,,,,,,,,,,,,,,,,,,,,,,,,,
,,,,,,,,2023-08-23_15h14.07.914,HF_wild_card,2022.2.4,Win32,59.97720866,627a76b96bea55210aecbba9,64d2fd46c836a06233681665,64e6140ff794b5f912b764c7,,,,,,,ctch,resources/DG.BMP,resources/DB.BMP,Door3,-0.182407407,-0.059259259,1,0,0,0.5982,optionLeft,70,10055,5,6,0,6,0,1,,,,,,,,,,,,,,,,,,,,,,,,,,,,,,,,,,,,,,,
,,,,,,,,2023-08-23_15h14.07.914,HF_wild_card,2022.2.4,Win32,59.97720866,627a76b96bea55210aecbba9,64d2fd46c836a06233681665,64e6140ff794b5f912b764c7,,,,,,,sngl,resources/DY.BMP,resources/Empty.png,WildCard_Ex,-0.118518519,-0.052777778,1,0,0,0.5656,optionLeft,45,10100,5,7,0,7,0,1,,,,,,,,,,,,,,,,,,,,,,,,,,,,,,,,,,,,,,,
,,,,,,,,2023-08-23_15h14.07.914,HF_wild_card,2022.2.4,Win32,59.97720866,627a76b96bea55210aecbba9,64d2fd46c836a06233681665,64e6140ff794b5f912b764c7,,,,,,,sngl,resources/DR.BMP,resources/Empty.png,Door4,-0.132407407,-0.035185185,1,0,0,0.5155,optionLeft,80,10180,5,8,0,8,0,1,,,,,,,,,,,,,,,,,,,,,,,,,,,,,,,,,,,,,,,
,,,,,,,,2023-08-23_15h14.07.914,HF_wild_card,2022.2.4,Win32,59.97720866,627a76b96bea55210aecbba9,64d2fd46c836a06233681665,64e6140ff794b5f912b764c7,,,,,,,decisionTrl,resources/DY.BMP,resources/DG.BMP,Door3,0.334259259,-0.00462963,1,0,0,1.0329,optionRight,70,10250,5,9,0,9,0,1,,,,,,,,,,,,,,,,,,,,,,,,,,,,,,,,,,,,,,,
,,,,,,,,2023-08-23_15h14.07.914,HF_wild_card,2022.2.4,Win32,59.97720866,627a76b96bea55210aecbba9,64d2fd46c836a06233681665,64e6140ff794b5f912b764c7,,,,,,,decisionTrl,resources/DG.BMP,resources/DR.BMP,Door4,0.155555556,-0.024074074,1,0,0,2.0671,optionRight,60,10310,5,10,0,10,0,1,,,,,,,,,,,,,,,,,,,,,,,,,,,,,,,,,,,,,,,
,,,,,,,,2023-08-23_15h14.07.914,HF_wild_card,2022.2.4,Win32,59.97720866,627a76b96bea55210aecbba9,64d2fd46c836a06233681665,64e6140ff794b5f912b764c7,,,,,,,decisionTrl,resources/DY.BMP,resources/DBN.BMP,WildCard_Ex,-0.100925926,-0.050925926,1,0,0,0.9822,optionLeft,45,10355,5,11,0,11,0,1,,,,,,,,,,,,,,,,,,,,,,,,,,,,,,,,,,,,,,,
,,,,,,,,2023-08-23_15h14.07.914,HF_wild_card,2022.2.4,Win32,59.97720866,627a76b96bea55210aecbba9,64d2fd46c836a06233681665,64e6140ff794b5f912b764c7,,,,,,,ctch,resources/DG.BMP,resources/DB.BMP,Door3,-0.192592593,-0.093518519,1,0,0,0.8154,optionLeft,70,10425,5,12,0,12,0,1,,,,,,,,,,,,,,,,,,,,,,,,,,,,,,,,,,,,,,,
,,,,,,,,2023-08-23_15h14.07.914,HF_wild_card,2022.2.4,Win32,59.97720866,627a76b96bea55210aecbba9,64d2fd46c836a06233681665,64e6140ff794b5f912b764c7,,,,,,,decisionTrl,resources/DG.BMP,resources/DY.BMP,Door3,-0.172222222,-0.071296296,1,0,0,1.0831,optionLeft,70,10495,5,13,0,13,0,1,,,,,,,,,,,,,,,,,,,,,,,,,,,,,,,,,,,,,,,
,,,,,,,,2023-08-23_15h14.07.914,HF_wild_card,2022.2.4,Win32,59.97720866,627a76b96bea55210aecbba9,64d2fd46c836a06233681665,64e6140ff794b5f912b764c7,,,,,,,decisionTrl,resources/DR.BMP,resources/DG.BMP,Door4,-0.219444444,-0.097222222,1,0,0,1.1828,optionLeft,60,10555,5,14,0,14,0,1,,,,,,,,,,,,,,,,,,,,,,,,,,,,,,,,,,,,,,,
,,,,,,,,2023-08-23_15h14.07.914,HF_wild_card,2022.2.4,Win32,59.97720866,627a76b96bea55210aecbba9,64d2fd46c836a06233681665,64e6140ff794b5f912b764c7,,,,,,,sngl,resources/DB.BMP,resources/Empty.png,Door2,-0.17962963,-0.068518519,1,0,0,0.5651,optionLeft,40,10595,5,15,0,15,0,1,,,,,,,,,,,,,,,,,,,,,,,,,,,,,,,,,,,,,,,
,,,,,,,,2023-08-23_15h14.07.914,HF_wild_card,2022.2.4,Win32,59.97720866,627a76b96bea55210aecbba9,64d2fd46c836a06233681665,64e6140ff794b5f912b764c7,,,,,,,sngl,resources/Empty.png,resources/DR.BMP,Door4,0.205555556,-0.036111111,1,0,0,0.5493,optionRight,60,10655,5,16,0,16,0,1,,,,,,,,,,,,,,,,,,,,,,,,,,,,,,,,,,,,,,,
,,,,,,,,2023-08-23_15h14.07.914,HF_wild_card,2022.2.4,Win32,59.97720866,627a76b96bea55210aecbba9,64d2fd46c836a06233681665,64e6140ff794b5f912b764c7,,,,,,,ctch,resources/DR.BMP,resources/DBN.BMP,Door4,-0.108333333,-0.041666667,1,0,0,0.8489,optionLeft,80,10735,5,17,0,17,0,1,,,,,,,,,,,,,,,,,,,,,,,,,,,,,,,,,,,,,,,
,,,,,,,,2023-08-23_15h14.07.914,HF_wild_card,2022.2.4,Win32,59.97720866,627a76b96bea55210aecbba9,64d2fd46c836a06233681665,64e6140ff794b5f912b764c7,,,,,,,decisionTrl,resources/DY.BMP,resources/DB.BMP,WildCard_Ex,-0.281481481,-0.062037037,1,0,0,1.2829,optionLeft,55,10790,5,18,0,18,0,1,,,,,,,,,,,,,,,,,,,,,,,,,,,,,,,,,,,,,,,
,,,,,,,,2023-08-23_15h14.07.914,HF_wild_card,2022.2.4,Win32,59.97720866,627a76b96bea55210aecbba9,64d2fd46c836a06233681665,64e6140ff794b5f912b764c7,,,,,,,ctch,resources/DR.BMP,resources/DBN.BMP,Door4,-0.150925926,-0.086111111,1,0,0,0.7822,optionLeft,60,10850,5,19,0,19,0,1,,,,,,,,,,,,,,,,,,,,,,,,,,,,,,,,,,,,,,,
,,,,,,,,2023-08-23_15h14.07.914,HF_wild_card,2022.2.4,Win32,59.97720866,627a76b96bea55210aecbba9,64d2fd46c836a06233681665,64e6140ff794b5f912b764c7,,,,,,,decisionTrl,resources/DR.BMP,resources/DG.BMP,Door3,0.211111111,-0.037037037,1,0,0,1.0166,optionRight,70,10920,5,20,0,20,0,1,,,,,,,,,,,,,,,,,,,,,,,,,,,,,,,,,,,,,,,
,,,,,,,,2023-08-23_15h14.07.914,HF_wild_card,2022.2.4,Win32,59.97720866,627a76b96bea55210aecbba9,64d2fd46c836a06233681665,64e6140ff794b5f912b764c7,,,,,,,sngl,resources/Empty.png,resources/DG.BMP,Door3,0.217592593,-0.040740741,1,0,0,0.5822,optionRight,70,10990,5,21,0,21,0,1,,,,,,,,,,,,,,,,,,,,,,,,,,,,,,,,,,,,,,,
,,,,,,,,2023-08-23_15h14.07.914,HF_wild_card,2022.2.4,Win32,59.97720866,627a76b96bea55210aecbba9,64d2fd46c836a06233681665,64e6140ff794b5f912b764c7,,,,,,,decisionTrl,resources/DY.BMP,resources/DR.BMP,Door4,0.238888889,-0.034259259,1,0,0,1.7638,optionRight,80,11070,5,22,0,22,0,1,,,,,,,,,,,,,,,,,,,,,,,,,,,,,,,,,,,,,,,
,,,,,,,,2023-08-23_15h14.07.914,HF_wild_card,2022.2.4,Win32,59.97720866,627a76b96bea55210aecbba9,64d2fd46c836a06233681665,64e6140ff794b5f912b764c7,,,,,,,ctch,resources/DBN.BMP,resources/DR.BMP,Door4,0.387962963,-0.002777778,1,0,0,0.6822,optionRight,80,11150,5,23,0,23,0,1,,,,,,,,,,,,,,,,,,,,,,,,,,,,,,,,,,,,,,,
,,,,,,,,2023-08-23_15h14.07.914,HF_wild_card,2022.2.4,Win32,59.97720866,627a76b96bea55210aecbba9,64d2fd46c836a06233681665,64e6140ff794b5f912b764c7,,,,,,,decisionTrl,resources/DB.BMP,resources/DY.BMP,WildCard_Ex,0.361111111,0.007407407,1,0,0,2.3173,optionRight,45,11195,5,24,0,24,0,1,,,,,,,,,,,,,,,,,,,,,,,,,,,,,,,,,,,,,,,
,,,,,,,,2023-08-23_15h14.07.914,HF_wild_card,2022.2.4,Win32,59.97720866,627a76b96bea55210aecbba9,64d2fd46c836a06233681665,64e6140ff794b5f912b764c7,,,,,,,decisionTrl,resources/DG.BMP,resources/DR.BMP,Door3,-0.112037037,-0.046296296,1,0,0,2.5675,optionLeft,70,11265,5,25,0,25,0,1,,,,,,,,,,,,,,,,,,,,,,,,,,,,,,,,,,,,,,,
,,,,,,,,2023-08-23_15h14.07.914,HF_wild_card,2022.2.4,Win32,59.97720866,627a76b96bea55210aecbba9,64d2fd46c836a06233681665,64e6140ff794b5f912b764c7,,,,,,,decisionTrl,resources/DB.BMP,resources/DBN.BMP,Door1,0.235185185,-0.040740741,1,0,0,3.5351,optionRight,30,11295,5,26,0,26,0,1,,,,,,,,,,,,,,,,,,,,,,,,,,,,,,,,,,,,,,,
,,,,,,,,2023-08-23_15h14.07.914,HF_wild_card,2022.2.4,Win32,59.97720866,627a76b96bea55210aecbba9,64d2fd46c836a06233681665,64e6140ff794b5f912b764c7,,,,,,,sngl,resources/DBN.BMP,resources/Empty.png,Door1,-0.15462963,-0.081481481,1,0,0,0.5154,optionLeft,30,11325,5,27,0,27,0,1,,,,,,,,,,,,,,,,,,,,,,,,,,,,,,,,,,,,,,,
,,,,,,,,2023-08-23_15h14.07.914,HF_wild_card,2022.2.4,Win32,59.97720866,627a76b96bea55210aecbba9,64d2fd46c836a06233681665,64e6140ff794b5f912b764c7,,,,,,,decisionTrl,resources/DB.BMP,resources/DBN.BMP,Door1,0.193518519,-0.037037037,1,0,0,1.0323,optionRight,30,11355,5,28,0,28,0,1,,,,,,,,,,,,,,,,,,,,,,,,,,,,,,,,,,,,,,,
,,,,,,,,2023-08-23_15h14.07.914,HF_wild_card,2022.2.4,Win32,59.97720866,627a76b96bea55210aecbba9,64d2fd46c836a06233681665,64e6140ff794b5f912b764c7,,,,,,,ctch,resources/DBN.BMP,resources/DR.BMP,Door4,0.277777778,-0.006481481,1,0,0,0.8324,optionRight,80,11435,5,29,0,29,0,1,,,,,,,,,,,,,,,,,,,,,,,,,,,,,,,,,,,,,,,
,,,,,,,,2023-08-23_15h14.07.914,HF_wild_card,2022.2.4,Win32,59.97720866,627a76b96bea55210aecbba9,64d2fd46c836a06233681665,64e6140ff794b5f912b764c7,,,,,,,decisionTrl,resources/DBN.BMP,resources/DB.BMP,Door2,0.241666667,-0.005555556,1,0,0,0.7153,optionRight,20,11455,5,30,0,30,0,1,,,,,,,,,,,,,,,,,,,,,,,,,,,,,,,,,,,,,,,
,,,,,,,,2023-08-23_15h14.07.914,HF_wild_card,2022.2.4,Win32,59.97720866,627a76b96bea55210aecbba9,64d2fd46c836a06233681665,64e6140ff794b5f912b764c7,,,,,,,decisionTrl,resources/DBN.BMP,resources/DB.BMP,Door1,-0.131481481,-0.090740741,1,0,0,0.5319,optionLeft,30,11485,5,31,0,31,0,1,,,,,,,,,,,,,,,,,,,,,,,,,,,,,,,,,,,,,,,
,,,,,,,,2023-08-23_15h14.07.914,HF_wild_card,2022.2.4,Win32,59.97720866,627a76b96bea55210aecbba9,64d2fd46c836a06233681665,64e6140ff794b5f912b764c7,,,,,,,decisionTrl,resources/DR.BMP,resources/DG.BMP,Door3,0.261111111,-0.034259259,1,0,0,2.2172,optionRight,70,11555,5,32,0,32,0,1,,,,,,,,,,,,,,,,,,,,,,,,,,,,,,,,,,,,,,,
,,,,,,,,2023-08-23_15h14.07.914,HF_wild_card,2022.2.4,Win32,59.97720866,627a76b96bea55210aecbba9,64d2fd46c836a06233681665,64e6140ff794b5f912b764c7,,,,,,,decisionTrl,resources/DBN.BMP,resources/DB.BMP,Door1,-0.197222222,-0.026851852,1,0,0,1.2165,optionLeft,30,11585,5,33,0,33,0,1,,,,,,,,,,,,,,,,,,,,,,,,,,,,,,,,,,,,,,,
,,,,,,,,2023-08-23_15h14.07.914,HF_wild_card,2022.2.4,Win32,59.97720866,627a76b96bea55210aecbba9,64d2fd46c836a06233681665,64e6140ff794b5f912b764c7,,,,,,,ctch,resources/DB.BMP,resources/DG.BMP,Door3,0.234259259,0.021296296,1,0,0,1.3832,optionRight,70,11655,5,34,0,34,0,1,,,,,,,,,,,,,,,,,,,,,,,,,,,,,,,,,,,,,,,
,,,,,,,,2023-08-23_15h14.07.914,HF_wild_card,2022.2.4,Win32,59.97720866,627a76b96bea55210aecbba9,64d2fd46c836a06233681665,64e6140ff794b5f912b764c7,,,,,,,sngl,resources/DY.BMP,resources/Empty.png,WildCard_Ex,-0.232407407,-0.101851852,1,0,0,0.5493,optionLeft,55,11710,5,35,0,35,0,1,,,,,,,,,,,,,,,,,,,,,,,,,,,,,,,,,,,,,,,
,,,,,,,,2023-08-23_15h14.07.914,HF_wild_card,2022.2.4,Win32,59.97720866,627a76b96bea55210aecbba9,64d2fd46c836a06233681665,64e6140ff794b5f912b764c7,,,,,,,decisionTrl,resources/DBN.BMP,resources/DB.BMP,Door1,-0.257407407,-0.092592593,1,0,0,1.3821,optionLeft,30,11740,5,36,0,36,0,1,,,,,,,,,,,,,,,,,,,,,,,,,,,,,,,,,,,,,,,
,,,,,,,,2023-08-23_15h14.07.914,HF_wild_card,2022.2.4,Win32,59.97720866,627a76b96bea55210aecbba9,64d2fd46c836a06233681665,64e6140ff794b5f912b764c7,,,,,,,sngl,resources/Empty.png,resources/DY.BMP,WildCard_Ex,0.171296296,-0.022222222,1,0,0,0.6153,optionRight,45,11785,5,37,0,37,0,1,,,,,,,,,,,,,,,,,,,,,,,,,,,,,,,,,,,,,,,
,,,,,,,,2023-08-23_15h14.07.914,HF_wild_card,2022.2.4,Win32,59.97720866,627a76b96bea55210aecbba9,64d2fd46c836a06233681665,64e6140ff794b5f912b764c7,,,,,,,decisionTrl,resources/DB.BMP,resources/DBN.BMP,Door1,0.177777778,-0.017592593,1,0,0,2.701,optionRight,30,11815,5,38,0,38,0,1,,,,,,,,,,,,,,,,,,,,,,,,,,,,,,,,,,,,,,,
,,,,,,,,2023-08-23_15h14.07.914,HF_wild_card,2022.2.4,Win32,59.97720866,627a76b96bea55210aecbba9,64d2fd46c836a06233681665,64e6140ff794b5f912b764c7,,,,,,,ctch,resources/DB.BMP,resources/DG.BMP,Door3,0.149074074,-0.011111111,1,0,0,1.4803,optionRight,70,11885,5,39,0,39,0,1,,,,,,,,,,,,,,,,,,,,,,,,,,,,,,,,,,,,,,,
,,,,,,,,2023-08-23_15h14.07.914,HF_wild_card,2022.2.4,Win32,59.97720866,627a76b96bea55210aecbba9,64d2fd46c836a06233681665,64e6140ff794b5f912b764c7,,,,,,,sngl,resources/Empty.png,resources/DY.BMP,WildCard_Ex,0.247222222,0.003703704,1,0,0,1.266,optionRight,55,11940,5,40,0,40,0,1,,,,,,,,,,,,,,,,,,,,,,,,,,,,,,,,,,,,,,,
,,,,,,,,2023-08-23_15h14.07.914,HF_wild_card,2022.2.4,Win32,59.97720866,627a76b96bea55210aecbba9,64d2fd46c836a06233681665,64e6140ff794b5f912b764c7,,,,,,,decisionTrl,resources/DR.BMP,resources/DY.BMP,Door4,-0.144444444,-0.069444444,1,0,0,1.8834,optionLeft,80,12020,5,41,0,41,0,1,,,,,,,,,,,,,,,,,,,,,,,,,,,,,,,,,,,,,,,
,,,,,,,,2023-08-23_15h14.07.914,HF_wild_card,2022.2.4,Win32,59.97720866,627a76b96bea55210aecbba9,64d2fd46c836a06233681665,64e6140ff794b5f912b764c7,,,,,,,sngl,resources/DG.BMP,resources/Empty.png,Door3,-0.2,-0.088888889,1,0,0,0.632,optionLeft,70,12090,5,42,0,42,0,1,,,,,,,,,,,,,,,,,,,,,,,,,,,,,,,,,,,,,,,
,,,,,,,,2023-08-23_15h14.07.914,HF_wild_card,2022.2.4,Win32,59.97720866,627a76b96bea55210aecbba9,64d2fd46c836a06233681665,64e6140ff794b5f912b764c7,,,,,,,sngl,resources/Empty.png,resources/DB.BMP,Door2,0.155555556,-0.04537037,1,0,0,0.6821,optionRight,20,12110,5,43,0,43,0,1,,,,,,,,,,,,,,,,,,,,,,,,,,,,,,,,,,,,,,,
,,,,,,,,2023-08-23_15h14.07.914,HF_wild_card,2022.2.4,Win32,59.97720866,627a76b96bea55210aecbba9,64d2fd46c836a06233681665,64e6140ff794b5f912b764c7,,,,,,,,,,,,,,,,,,,,,,,,,,4,0,4,0,1,,,,,,,,,,,,,,,,,,,,,,,,,,,,,,,,,,
,,,,,,,,2023-08-23_15h14.07.914,HF_wild_card,2022.2.4,Win32,59.97720866,627a76b96bea55210aecbba9,64d2fd46c836a06233681665,64e6140ff794b5f912b764c7,,,,,,,decisionTrl,resources/DR.BMP,resources/DG.BMP,Door4,-0.169444444,-0.062962963,1,0,0,10.9396,optionLeft,80,12190,6,0,0,0,0,1,,,,,,,,,,,,,,,,,,,,,,,,,,,,,,,,,,,,,,,
,,,,,,,,2023-08-23_15h14.07.914,HF_wild_card,2022.2.4,Win32,59.97720866,627a76b96bea55210aecbba9,64d2fd46c836a06233681665,64e6140ff794b5f912b764c7,,,,,,,decisionTrl,resources/DB.BMP,resources/DBN.BMP,Door1,0.233333333,-0.030555556,1,0,0,1.0163,optionRight,30,12220,6,1,0,1,0,1,,,,,,,,,,,,,,,,,,,,,,,,,,,,,,,,,,,,,,,
,,,,,,,,2023-08-23_15h14.07.914,HF_wild_card,2022.2.4,Win32,59.97720866,627a76b96bea55210aecbba9,64d2fd46c836a06233681665,64e6140ff794b5f912b764c7,,,,,,,ctch,resources/DG.BMP,resources/DB.BMP,Door3,-0.12962963,-0.05462963,1,0,0,2.2335,optionLeft,70,12290,6,2,0,2,0,1,,,,,,,,,,,,,,,,,,,,,,,,,,,,,,,,,,,,,,,
,,,,,,,,2023-08-23_15h14.07.914,HF_wild_card,2022.2.4,Win32,59.97720866,627a76b96bea55210aecbba9,64d2fd46c836a06233681665,64e6140ff794b5f912b764c7,,,,,,,sngl,resources/DG.BMP,resources/Empty.png,Door3,-0.183333333,-0.089814815,1,0,0,0.5983,optionLeft,70,12360,6,3,0,3,0,1,,,,,,,,,,,,,,,,,,,,,,,,,,,,,,,,,,,,,,,
,,,,,,,,2023-08-23_15h14.07.914,HF_wild_card,2022.2.4,Win32,59.97720866,627a76b96bea55210aecbba9,64d2fd46c836a06233681665,64e6140ff794b5f912b764c7,,,,,,,decisionTrl,resources/DR.BMP,resources/DG.BMP,Door4,-0.137962963,-0.074074074,1,0,0,0.9827,optionLeft,60,12420,6,4,0,4,0,1,,,,,,,,,,,,,,,,,,,,,,,,,,,,,,,,,,,,,,,
,,,,,,,,2023-08-23_15h14.07.914,HF_wild_card,2022.2.4,Win32,59.97720866,627a76b96bea55210aecbba9,64d2fd46c836a06233681665,64e6140ff794b5f912b764c7,,,,,,,decisionTrl,resources/DG.BMP,resources/DY.BMP,Door3,-0.15,-0.077777778,1,0,0,0.7988,optionLeft,70,12490,6,5,0,5,0,1,,,,,,,,,,,,,,,,,,,,,,,,,,,,,,,,,,,,,,,
,,,,,,,,2023-08-23_15h14.07.914,HF_wild_card,2022.2.4,Win32,59.97720866,627a76b96bea55210aecbba9,64d2fd46c836a06233681665,64e6140ff794b5f912b764c7,,,,,,,decisionTrl,resources/DBN.BMP,resources/DB.BMP,Door1,-0.177777778,-0.064814815,1,0,0,0.8655,optionLeft,30,12520,6,6,0,6,0,1,,,,,,,,,,,,,,,,,,,,,,,,,,,,,,,,,,,,,,,
,,,,,,,,2023-08-23_15h14.07.914,HF_wild_card,2022.2.4,Win32,59.97720866,627a76b96bea55210aecbba9,64d2fd46c836a06233681665,64e6140ff794b5f912b764c7,,,,,,,sngl,resources/DY.BMP,resources/Empty.png,WildCard_Ex,-0.173148148,-0.184259259,1,0,0,0.532,optionLeft,45,12565,6,7,0,7,0,1,,,,,,,,,,,,,,,,,,,,,,,,,,,,,,,,,,,,,,,
,,,,,,,,2023-08-23_15h14.07.914,HF_wild_card,2022.2.4,Win32,59.97720866,627a76b96bea55210aecbba9,64d2fd46c836a06233681665,64e6140ff794b5f912b764c7,,,,,,,decisionTrl,resources/DY.BMP,resources/DR.BMP,Door4,0.368518519,-0.032407407,1,0,0,0.8994,optionRight,60,12625,6,8,0,8,0,1,,,,,,,,,,,,,,,,,,,,,,,,,,,,,,,,,,,,,,,
,,,,,,,,2023-08-23_15h14.07.914,HF_wild_card,2022.2.4,Win32,59.97720866,627a76b96bea55210aecbba9,64d2fd46c836a06233681665,64e6140ff794b5f912b764c7,,,,,,,ctch,resources/DR.BMP,resources/DBN.BMP,Door4,-0.140740741,-0.063888889,1,0,0,0.7321,optionLeft,60,12685,6,9,0,9,0,1,,,,,,,,,,,,,,,,,,,,,,,,,,,,,,,,,,,,,,,
,,,,,,,,2023-08-23_15h14.07.914,HF_wild_card,2022.2.4,Win32,59.97720866,627a76b96bea55210aecbba9,64d2fd46c836a06233681665,64e6140ff794b5f912b764c7,,,,,,,sngl,resources/DY.BMP,resources/Empty.png,WildCard_Ex,-0.174074074,-0.07962963,1,0,0,0.6823,optionLeft,55,12740,6,10,0,10,0,1,,,,,,,,,,,,,,,,,,,,,,,,,,,,,,,,,,,,,,,
,,,,,,,,2023-08-23_15h14.07.914,HF_wild_card,2022.2.4,Win32,59.97720866,627a76b96bea55210aecbba9,64d2fd46c836a06233681665,64e6140ff794b5f912b764c7,,,,,,,decisionTrl,resources/DG.BMP,resources/DR.BMP,Door3,-0.119444444,-0.046296296,1,0,0,0.9155,optionLeft,70,12810,6,11,0,11,0,1,,,,,,,,,,,,,,,,,,,,,,,,,,,,,,,,,,,,,,,
,,,,,,,,2023-08-23_15h14.07.914,HF_wild_card,2022.2.4,Win32,59.97720866,627a76b96bea55210aecbba9,64d2fd46c836a06233681665,64e6140ff794b5f912b764c7,,,,,,,decisionTrl,resources/DB.BMP,resources/DBN.BMP,Door1,0.150925926,-0.030555556,1,0,0,0.9998,optionRight,30,12840,6,12,0,12,0,1,,,,,,,,,,,,,,,,,,,,,,,,,,,,,,,,,,,,,,,
,,,,,,,,2023-08-23_15h14.07.914,HF_wild_card,2022.2.4,Win32,59.97720866,627a76b96bea55210aecbba9,64d2fd46c836a06233681665,64e6140ff794b5f912b764c7,,,,,,,sngl,resources/DBN.BMP,resources/Empty.png,Door1,-0.12962963,-0.072222222,1,0,0,0.6651,optionLeft,30,12870,6,13,0,13,0,1,,,,,,,,,,,,,,,,,,,,,,,,,,,,,,,,,,,,,,,
,,,,,,,,2023-08-23_15h14.07.914,HF_wild_card,2022.2.4,Win32,59.97720866,627a76b96bea55210aecbba9,64d2fd46c836a06233681665,64e6140ff794b5f912b764c7,,,,,,,decisionTrl,resources/DY.BMP,resources/DBN.BMP,WildCard_Ex,-0.141666667,-0.043518519,1,0,0,0.8656,optionLeft,55,12925,6,14,0,14,0,1,,,,,,,,,,,,,,,,,,,,,,,,,,,,,,,,,,,,,,,
,,,,,,,,2023-08-23_15h14.07.914,HF_wild_card,2022.2.4,Win32,59.97720866,627a76b96bea55210aecbba9,64d2fd46c836a06233681665,64e6140ff794b5f912b764c7,,,,,,,ctch,resources/DBN.BMP,resources/DR.BMP,Door4,0.235185185,-0.042592593,1,0,0,1.6497,optionRight,80,13005,6,15,0,15,0,1,,,,,,,,,,,,,,,,,,,,,,,,,,,,,,,,,,,,,,,
,,,,,,,,2023-08-23_15h14.07.914,HF_wild_card,2022.2.4,Win32,59.97720866,627a76b96bea55210aecbba9,64d2fd46c836a06233681665,64e6140ff794b5f912b764c7,,,,,,,decisionTrl,resources/DBN.BMP,resources/DB.BMP,Door2,0.244444444,-0.028703704,1,0,0,1.5837,optionRight,20,13025,6,16,0,16,0,1,,,,,,,,,,,,,,,,,,,,,,,,,,,,,,,,,,,,,,,
,,,,,,,,2023-08-23_15h14.07.914,HF_wild_card,2022.2.4,Win32,59.97720866,627a76b96bea55210aecbba9,64d2fd46c836a06233681665,64e6140ff794b5f912b764c7,,,,,,,sngl,resources/Empty.png,resources/DB.BMP,Door2,0.241666667,-0.027777778,1,0,0,0.5486,optionRight,40,13065,6,17,0,17,0,1,,,,,,,,,,,,,,,,,,,,,,,,,,,,,,,,,,,,,,,
,,,,,,,,2023-08-23_15h14.07.914,HF_wild_card,2022.2.4,Win32,59.97720866,627a76b96bea55210aecbba9,64d2fd46c836a06233681665,64e6140ff794b5f912b764c7,,,,,,,ctch,resources/DR.BMP,resources/DBN.BMP,Door4,-0.198148148,-0.039814815,1,0,0,0.8654,optionLeft,80,13145,6,18,0,18,0,1,,,,,,,,,,,,,,,,,,,,,,,,,,,,,,,,,,,,,,,
,,,,,,,,2023-08-23_15h14.07.914,HF_wild_card,2022.2.4,Win32,59.97720866,627a76b96bea55210aecbba9,64d2fd46c836a06233681665,64e6140ff794b5f912b764c7,,,,,,,decisionTrl,resources/DB.BMP,resources/DBN.BMP,Door1,0.174074074,-0.017592593,1,0,0,2.4508,optionRight,30,13175,6,19,0,19,0,1,,,,,,,,,,,,,,,,,,,,,,,,,,,,,,,,,,,,,,,
,,,,,,,,2023-08-23_15h14.07.914,HF_wild_card,2022.2.4,Win32,59.97720866,627a76b96bea55210aecbba9,64d2fd46c836a06233681665,64e6140ff794b5f912b764c7,,,,,,,decisionTrl,resources/DR.BMP,resources/DG.BMP,Door3,0.116666667,-0.031481481,1,0,0,1.1665,optionRight,70,13245,6,20,0,20,0,1,,,,,,,,,,,,,,,,,,,,,,,,,,,,,,,,,,,,,,,
,,,,,,,,2023-08-23_15h14.07.914,HF_wild_card,2022.2.4,Win32,59.97720866,627a76b96bea55210aecbba9,64d2fd46c836a06233681665,64e6140ff794b5f912b764c7,,,,,,,decisionTrl,resources/DB.BMP,resources/DBN.BMP,Door1,0.137962963,-0.017592593,1,0,0,0.9489,optionRight,30,13275,6,21,0,21,0,1,,,,,,,,,,,,,,,,,,,,,,,,,,,,,,,,,,,,,,,
,,,,,,,,2023-08-23_15h14.07.914,HF_wild_card,2022.2.4,Win32,59.97720866,627a76b96bea55210aecbba9,64d2fd46c836a06233681665,64e6140ff794b5f912b764c7,,,,,,,ctch,resources/DB.BMP,resources/DG.BMP,Door3,0.17962963,0.005555556,1,0,0,1.3496,optionRight,70,13345,6,22,0,22,0,1,,,,,,,,,,,,,,,,,,,,,,,,,,,,,,,,,,,,,,,
,,,,,,,,2023-08-23_15h14.07.914,HF_wild_card,2022.2.4,Win32,59.97720866,627a76b96bea55210aecbba9,64d2fd46c836a06233681665,64e6140ff794b5f912b764c7,,,,,,,decisionTrl,resources/DB.BMP,resources/DY.BMP,WildCard_Ex,0.25,-0.005555556,1,0,0,1.1324,optionRight,45,13390,6,23,0,23,0,1,,,,,,,,,,,,,,,,,,,,,,,,,,,,,,,,,,,,,,,
,,,,,,,,2023-08-23_15h14.07.914,HF_wild_card,2022.2.4,Win32,59.97720866,627a76b96bea55210aecbba9,64d2fd46c836a06233681665,64e6140ff794b5f912b764c7,,,,,,,decisionTrl,resources/DBN.BMP,resources/DB.BMP,Door1,-0.198148148,-0.041666667,1,0,0,0.9995,optionLeft,30,13420,6,24,0,24,0,1,,,,,,,,,,,,,,,,,,,,,,,,,,,,,,,,,,,,,,,
,,,,,,,,2023-08-23_15h14.07.914,HF_wild_card,2022.2.4,Win32,59.97720866,627a76b96bea55210aecbba9,64d2fd46c836a06233681665,64e6140ff794b5f912b764c7,,,,,,,sngl,resources/Empty.png,resources/DY.BMP,WildCard_Ex,0.172222222,-0.026851852,1,0,0,0.6656,optionRight,55,13475,6,25,0,25,0,1,,,,,,,,,,,,,,,,,,,,,,,,,,,,,,,,,,,,,,,
,,,,,,,,2023-08-23_15h14.07.914,HF_wild_card,2022.2.4,Win32,59.97720866,627a76b96bea55210aecbba9,64d2fd46c836a06233681665,64e6140ff794b5f912b764c7,,,,,,,decisionTrl,resources/DR.BMP,resources/DG.BMP,Door3,0.198148148,-0.011111111,1,0,0,0.8829,optionRight,70,13545,6,26,0,26,0,1,,,,,,,,,,,,,,,,,,,,,,,,,,,,,,,,,,,,,,,
,,,,,,,,2023-08-23_15h14.07.914,HF_wild_card,2022.2.4,Win32,59.97720866,627a76b96bea55210aecbba9,64d2fd46c836a06233681665,64e6140ff794b5f912b764c7,,,,,,,decisionTrl,resources/DG.BMP,resources/DR.BMP,Door3,-0.297222222,-0.058333333,1,0,0,0.6321,optionLeft,70,13615,6,27,0,27,0,1,,,,,,,,,,,,,,,,,,,,,,,,,,,,,,,,,,,,,,,
,,,,,,,,2023-08-23_15h14.07.914,HF_wild_card,2022.2.4,Win32,59.97720866,627a76b96bea55210aecbba9,64d2fd46c836a06233681665,64e6140ff794b5f912b764c7,,,,,,,sngl,resources/DR.BMP,resources/Empty.png,Door4,-0.308333333,-0.063888889,1,0,0,0.5321,optionLeft,60,13675,6,28,0,28,0,1,,,,,,,,,,,,,,,,,,,,,,,,,,,,,,,,,,,,,,,
,,,,,,,,2023-08-23_15h14.07.914,HF_wild_card,2022.2.4,Win32,59.97720866,627a76b96bea55210aecbba9,64d2fd46c836a06233681665,64e6140ff794b5f912b764c7,,,,,,,sngl,resources/Empty.png,resources/DG.BMP,Door3,0.17037037,-0.008333333,1,0,0,0.532,optionRight,70,13745,6,29,0,29,0,1,,,,,,,,,,,,,,,,,,,,,,,,,,,,,,,,,,,,,,,
,,,,,,,,2023-08-23_15h14.07.914,HF_wild_card,2022.2.4,Win32,59.97720866,627a76b96bea55210aecbba9,64d2fd46c836a06233681665,64e6140ff794b5f912b764c7,,,,,,,decisionTrl,resources/DG.BMP,resources/DR.BMP,Door3,-0.163888889,-0.02037037,1,0,0,1.3495,optionLeft,70,13815,6,30,0,30,0,1,,,,,,,,,,,,,,,,,,,,,,,,,,,,,,,,,,,,,,,
,,,,,,,,2023-08-23_15h14.07.914,HF_wild_card,2022.2.4,Win32,59.97720866,627a76b96bea55210aecbba9,64d2fd46c836a06233681665,64e6140ff794b5f912b764c7,,,,,,,sngl,resources/Empty.png,resources/DBN.BMP,Door1,0.183333333,-0.006481481,1,0,0,0.6821,optionRight,30,13845,6,31,0,31,0,1,,,,,,,,,,,,,,,,,,,,,,,,,,,,,,,,,,,,,,,
,,,,,,,,2023-08-23_15h14.07.914,HF_wild_card,2022.2.4,Win32,59.97720866,627a76b96bea55210aecbba9,64d2fd46c836a06233681665,64e6140ff794b5f912b764c7,,,,,,,ctch,resources/DB.BMP,resources/DG.BMP,Door3,0.139814815,-0.023148148,1,0,0,1.8487,optionRight,70,13915,6,32,0,32,0,1,,,,,,,,,,,,,,,,,,,,,,,,,,,,,,,,,,,,,,,
,,,,,,,,2023-08-23_15h14.07.914,HF_wild_card,2022.2.4,Win32,59.97720866,627a76b96bea55210aecbba9,64d2fd46c836a06233681665,64e6140ff794b5f912b764c7,,,,,,,decisionTrl,resources/DR.BMP,resources/DY.BMP,Door4,-0.188888889,-0.022222222,1,0,0,0.8489,optionLeft,60,13975,6,33,0,33,0,1,,,,,,,,,,,,,,,,,,,,,,,,,,,,,,,,,,,,,,,
,,,,,,,,2023-08-23_15h14.07.914,HF_wild_card,2022.2.4,Win32,59.97720866,627a76b96bea55210aecbba9,64d2fd46c836a06233681665,64e6140ff794b5f912b764c7,,,,,,,sngl,resources/DB.BMP,resources/Empty.png,Door2,-0.153703704,-0.038888889,1,0,0,0.5981,optionLeft,20,13995,6,34,0,34,0,1,,,,,,,,,,,,,,,,,,,,,,,,,,,,,,,,,,,,,,,
,,,,,,,,2023-08-23_15h14.07.914,HF_wild_card,2022.2.4,Win32,59.97720866,627a76b96bea55210aecbba9,64d2fd46c836a06233681665,64e6140ff794b5f912b764c7,,,,,,,sngl,resources/Empty.png,resources/DY.BMP,WildCard_Ex,0.296296296,-0.040740741,1,0,0,0.5322,optionRight,45,14040,6,35,0,35,0,1,,,,,,,,,,,,,,,,,,,,,,,,,,,,,,,,,,,,,,,
,,,,,,,,2023-08-23_15h14.07.914,HF_wild_card,2022.2.4,Win32,59.97720866,627a76b96bea55210aecbba9,64d2fd46c836a06233681665,64e6140ff794b5f912b764c7,,,,,,,decisionTrl,resources/DBN.BMP,resources/DB.BMP,Door1,-0.338888889,-0.009259259,1,0,0,1.7,optionLeft,30,14070,6,36,0,36,0,1,,,,,,,,,,,,,,,,,,,,,,,,,,,,,,,,,,,,,,,
,,,,,,,,2023-08-23_15h14.07.914,HF_wild_card,2022.2.4,Win32,59.97720866,627a76b96bea55210aecbba9,64d2fd46c836a06233681665,64e6140ff794b5f912b764c7,,,,,,,decisionTrl,resources/DG.BMP,resources/DR.BMP,Door3,-0.197222222,0,1,0,0,0.8307,optionLeft,70,14140,6,37,0,37,0,1,,,,,,,,,,,,,,,,,,,,,,,,,,,,,,,,,,,,,,,
,,,,,,,,2023-08-23_15h14.07.914,HF_wild_card,2022.2.4,Win32,59.97720866,627a76b96bea55210aecbba9,64d2fd46c836a06233681665,64e6140ff794b5f912b764c7,,,,,,,ctch,resources/DBN.BMP,resources/DR.BMP,Door4,0.264814815,-0.018518519,1,0,0,0.699,optionRight,60,14200,6,38,0,38,0,1,,,,,,,,,,,,,,,,,,,,,,,,,,,,,,,,,,,,,,,
,,,,,,,,2023-08-23_15h14.07.914,HF_wild_card,2022.2.4,Win32,59.97720866,627a76b96bea55210aecbba9,64d2fd46c836a06233681665,64e6140ff794b5f912b764c7,,,,,,,sngl,resources/Empty.png,resources/DR.BMP,Door4,0.200925926,-0.037037037,1,0,0,0.5125,optionRight,80,14280,6,39,0,39,0,1,,,,,,,,,,,,,,,,,,,,,,,,,,,,,,,,,,,,,,,
,,,,,,,,2023-08-23_15h14.07.914,HF_wild_card,2022.2.4,Win32,59.97720866,627a76b96bea55210aecbba9,64d2fd46c836a06233681665,64e6140ff794b5f912b764c7,,,,,,,decisionTrl,resources/DY.BMP,resources/DG.BMP,Door3,0.165740741,-0.019444444,1,0,0,0.9324,optionRight,70,14350,6,40,0,40,0,1,,,,,,,,,,,,,,,,,,,,,,,,,,,,,,,,,,,,,,,
,,,,,,,,2023-08-23_15h14.07.914,HF_wild_card,2022.2.4,Win32,59.97720866,627a76b96bea55210aecbba9,64d2fd46c836a06233681665,64e6140ff794b5f912b764c7,,,,,,,decisionTrl,resources/DY.BMP,resources/DB.BMP,WildCard_Ex,-0.162962963,-0.04537037,1,0,0,1.1996,optionLeft,55,14405,6,41,0,41,0,1,,,,,,,,,,,,,,,,,,,,,,,,,,,,,,,,,,,,,,,
,,,,,,,,2023-08-23_15h14.07.914,HF_wild_card,2022.2.4,Win32,59.97720866,627a76b96bea55210aecbba9,64d2fd46c836a06233681665,64e6140ff794b5f912b764c7,,,,,,,ctch,resources/DG.BMP,resources/DB.BMP,Door3,-0.161111111,-0.066666667,1,0,0,1.3997,optionLeft,70,14475,6,42,0,42,0,1,,,,,,,,,,,,,,,,,,,,,,,,,,,,,,,,,,,,,,,
,,,,,,,,2023-08-23_15h14.07.914,HF_wild_card,2022.2.4,Win32,59.97720866,627a76b96bea55210aecbba9,64d2fd46c836a06233681665,64e6140ff794b5f912b764c7,,,,,,,decisionTrl,resources/DBN.BMP,resources/DY.BMP,WildCard_Ex,0.240740741,-0.025,1,0,0,0.7325,optionRight,55,14530,6,43,0,43,0,1,,,,,,,,,,,,,,,,,,,,,,,,,,,,,,,,,,,,,,,
,,,,,,,,2023-08-23_15h14.07.914,HF_wild_card,2022.2.4,Win32,59.97720866,627a76b96bea55210aecbba9,64d2fd46c836a06233681665,64e6140ff794b5f912b764c7,,,,,,,,,,,,,,,,,,,,,,,,,,5,0,5,0,1,,,,,,,,,,,,,,,,,,,,,,,,,,,,,,,,,,
,,,,,,,,2023-08-23_15h14.07.914,HF_wild_card,2022.2.4,Win32,59.97720866,627a76b96bea55210aecbba9,64d2fd46c836a06233681665,64e6140ff794b5f912b764c7,,,,,,,decisionTrl,resources/DR.BMP,resources/DG.BMP,Door3,0.112962963,-0.063888889,1,0,0,1.2793,optionRight,70,14600,7,0,0,0,0,1,,,,,,,,,,,,,,,,,,,,,,,,,,,,,,,,,,,,,,,
,,,,,,,,2023-08-23_15h14.07.914,HF_wild_card,2022.2.4,Win32,59.97720866,627a76b96bea55210aecbba9,64d2fd46c836a06233681665,64e6140ff794b5f912b764c7,,,,,,,ctch,resources/DB.BMP,resources/DG.BMP,Door3,0.222222222,-0.022222222,1,0,0,1.2338,optionRight,70,14670,7,1,0,1,0,1,,,,,,,,,,,,,,,,,,,,,,,,,,,,,,,,,,,,,,,
,,,,,,,,2023-08-23_15h14.07.914,HF_wild_card,2022.2.4,Win32,59.97720866,627a76b96bea55210aecbba9,64d2fd46c836a06233681665,64e6140ff794b5f912b764c7,,,,,,,ctch,resources/DG.BMP,resources/DB.BMP,Door3,-0.188888889,0.00462963,1,0,0,1.8513,optionLeft,70,14740,7,2,0,2,0,1,,,,,,,,,,,,,,,,,,,,,,,,,,,,,,,,,,,,,,,
,,,,,,,,2023-08-23_15h14.07.914,HF_wild_card,2022.2.4,Win32,59.97720866,627a76b96bea55210aecbba9,64d2fd46c836a06233681665,64e6140ff794b5f912b764c7,,,,,,,decisionTrl,resources/DG.BMP,resources/DR.BMP,Door3,-0.187962963,-0.041666667,1,0,0,1.1667,optionLeft,70,14810,7,3,0,3,0,1,,,,,,,,,,,,,,,,,,,,,,,,,,,,,,,,,,,,,,,
,,,,,,,,2023-08-23_15h14.07.914,HF_wild_card,2022.2.4,Win32,59.97720866,627a76b96bea55210aecbba9,64d2fd46c836a06233681665,64e6140ff794b5f912b764c7,,,,,,,ctch,resources/DBN.BMP,resources/DR.BMP,Door4,0.215740741,-0.050925926,1,0,0,1.134,optionRight,60,14870,7,4,0,4,0,1,,,,,,,,,,,,,,,,,,,,,,,,,,,,,,,,,,,,,,,
,,,,,,,,2023-08-23_15h14.07.914,HF_wild_card,2022.2.4,Win32,59.97720866,627a76b96bea55210aecbba9,64d2fd46c836a06233681665,64e6140ff794b5f912b764c7,,,,,,,ctch,resources/DG.BMP,resources/DB.BMP,Door3,-0.142592593,-0.009259259,1,0,0,1.2168,optionLeft,70,14940,7,5,0,5,0,1,,,,,,,,,,,,,,,,,,,,,,,,,,,,,,,,,,,,,,,
,,,,,,,,2023-08-23_15h14.07.914,HF_wild_card,2022.2.4,Win32,59.97720866,627a76b96bea55210aecbba9,64d2fd46c836a06233681665,64e6140ff794b5f912b764c7,,,,,,,ctch,resources/DB.BMP,resources/DG.BMP,Door3,0.260185185,-0.046296296,1,0,0,0.9833,optionRight,70,15010,7,6,0,6,0,1,,,,,,,,,,,,,,,,,,,,,,,,,,,,,,,,,,,,,,,
,,,,,,,,2023-08-23_15h14.07.914,HF_wild_card,2022.2.4,Win32,59.97720866,627a76b96bea55210aecbba9,64d2fd46c836a06233681665,64e6140ff794b5f912b764c7,,,,,,,decisionTrl,resources/DR.BMP,resources/DG.BMP,Door3,0.289814815,0.018518519,1,0,0,0.9334,optionRight,70,15080,7,7,0,7,0,1,,,,,,,,,,,,,,,,,,,,,,,,,,,,,,,,,,,,,,,
,,,,,,,,2023-08-23_15h14.07.914,HF_wild_card,2022.2.4,Win32,59.97720866,627a76b96bea55210aecbba9,64d2fd46c836a06233681665,64e6140ff794b5f912b764c7,,,,,,,decisionTrl,resources/DBN.BMP,resources/DB.BMP,Door1,-0.185185185,-0.025925926,1,0,0,1.3995,optionLeft,30,15110,7,8,0,8,0,1,,,,,,,,,,,,,,,,,,,,,,,,,,,,,,,,,,,,,,,
,,,,,,,,2023-08-23_15h14.07.914,HF_wild_card,2022.2.4,Win32,59.97720866,627a76b96bea55210aecbba9,64d2fd46c836a06233681665,64e6140ff794b5f912b764c7,,,,,,,decisionTrl,resources/DR.BMP,resources/DG.BMP,Door3,0.342592593,0,1,0,0,1.5005,optionRight,70,15180,7,9,0,9,0,1,,,,,,,,,,,,,,,,,,,,,,,,,,,,,,,,,,,,,,,
,,,,,,,,2023-08-23_15h14.07.914,HF_wild_card,2022.2.4,Win32,59.97720866,627a76b96bea55210aecbba9,64d2fd46c836a06233681665,64e6140ff794b5f912b764c7,,,,,,,ctch,resources/DBN.BMP,resources/DR.BMP,Door4,0.207407407,-0.006481481,1,0,0,0.9333,optionRight,80,15260,7,10,0,10,0,1,,,,,,,,,,,,,,,,,,,,,,,,,,,,,,,,,,,,,,,
,,,,,,,,2023-08-23_15h14.07.914,HF_wild_card,2022.2.4,Win32,59.97720866,627a76b96bea55210aecbba9,64d2fd46c836a06233681665,64e6140ff794b5f912b764c7,,,,,,,decisionTrl,resources/DB.BMP,resources/DBN.BMP,Door1,0.175925926,-0.013888889,1,0,0,1.1837,optionRight,30,15290,7,11,0,11,0,1,,,,,,,,,,,,,,,,,,,,,,,,,,,,,,,,,,,,,,,
,,,,,,,,2023-08-23_15h14.07.914,HF_wild_card,2022.2.4,Win32,59.97720866,627a76b96bea55210aecbba9,64d2fd46c836a06233681665,64e6140ff794b5f912b764c7,,,,,,,decisionTrl,resources/DB.BMP,resources/DBN.BMP,Door1,0.213888889,-0.02962963,1,0,0,1.2005,optionRight,30,15320,7,12,0,12,0,1,,,,,,,,,,,,,,,,,,,,,,,,,,,,,,,,,,,,,,,
,,,,,,,,2023-08-23_15h14.07.914,HF_wild_card,2022.2.4,Win32,59.97720866,627a76b96bea55210aecbba9,64d2fd46c836a06233681665,64e6140ff794b5f912b764c7,,,,,,,decisionTrl,resources/DG.BMP,resources/DR.BMP,Door3,-0.15462963,-0.024074074,1,0,0,1.0168,optionLeft,70,15390,7,13,0,13,0,1,,,,,,,,,,,,,,,,,,,,,,,,,,,,,,,,,,,,,,,
,,,,,,,,2023-08-23_15h14.07.914,HF_wild_card,2022.2.4,Win32,59.97720866,627a76b96bea55210aecbba9,64d2fd46c836a06233681665,64e6140ff794b5f912b764c7,,,,,,,ctch,resources/DB.BMP,resources/DG.BMP,Door3,0.148148148,-0.089814815,1,0,0,0.9668,optionRight,70,15460,7,14,0,14,0,1,,,,,,,,,,,,,,,,,,,,,,,,,,,,,,,,,,,,,,,
,,,,,,,,2023-08-23_15h14.07.914,HF_wild_card,2022.2.4,Win32,59.97720866,627a76b96bea55210aecbba9,64d2fd46c836a06233681665,64e6140ff794b5f912b764c7,,,,,,,decisionTrl,resources/DG.BMP,resources/DR.BMP,Door3,-0.166666667,-0.009259259,1,0,0,0.8166,optionLeft,70,15530,7,15,0,15,0,1,,,,,,,,,,,,,,,,,,,,,,,,,,,,,,,,,,,,,,,
,,,,,,,,2023-08-23_15h14.07.914,HF_wild_card,2022.2.4,Win32,59.97720866,627a76b96bea55210aecbba9,64d2fd46c836a06233681665,64e6140ff794b5f912b764c7,,,,,,,decisionTrl,resources/DBN.BMP,resources/DB.BMP,Door1,-0.205555556,-0.027777778,1,0,0,0.8831,optionLeft,30,15560,7,16,0,16,0,1,,,,,,,,,,,,,,,,,,,,,,,,,,,,,,,,,,,,,,,
,,,,,,,,2023-08-23_15h14.07.914,HF_wild_card,2022.2.4,Win32,59.97720866,627a76b96bea55210aecbba9,64d2fd46c836a06233681665,64e6140ff794b5f912b764c7,,,,,,,decisionTrl,resources/DR.BMP,resources/DG.BMP,Door3,0.22962963,-0.013888889,1,0,0,1.0834,optionRight,70,15630,7,17,0,17,0,1,,,,,,,,,,,,,,,,,,,,,,,,,,,,,,,,,,,,,,,
,,,,,,,,2023-08-23_15h14.07.914,HF_wild_card,2022.2.4,Win32,59.97720866,627a76b96bea55210aecbba9,64d2fd46c836a06233681665,64e6140ff794b5f912b764c7,,,,,,,decisionTrl,resources/DR.BMP,resources/DG.BMP,Door3,0.173148148,-0.034259259,1,0,0,0.8165,optionRight,70,15700,7,18,0,18,0,1,,,,,,,,,,,,,,,,,,,,,,,,,,,,,,,,,,,,,,,
,,,,,,,,2023-08-23_15h14.07.914,HF_wild_card,2022.2.4,Win32,59.97720866,627a76b96bea55210aecbba9,64d2fd46c836a06233681665,64e6140ff794b5f912b764c7,,,,,,,decisionTrl,resources/DG.BMP,resources/DR.BMP,Door3,-0.221296296,-0.019444444,1,0,0,0.6664,optionLeft,70,15770,7,19,0,19,0,1,,,,,,,,,,,,,,,,,,,,,,,,,,,,,,,,,,,,,,,
,,,,,,,,2023-08-23_15h14.07.914,HF_wild_card,2022.2.4,Win32,59.97720866,627a76b96bea55210aecbba9,64d2fd46c836a06233681665,64e6140ff794b5f912b764c7,,,,,,,decisionTrl,resources/DBN.BMP,resources/DB.BMP,Door1,-0.12962963,-0.023148148,1,0,0,0.8333,optionLeft,30,15800,7,20,0,20,0,1,,,,,,,,,,,,,,,,,,,,,,,,,,,,,,,,,,,,,,,
,,,,,,,,2023-08-23_15h14.07.914,HF_wild_card,2022.2.4,Win32,59.97720866,627a76b96bea55210aecbba9,64d2fd46c836a06233681665,64e6140ff794b5f912b764c7,,,,,,,decisionTrl,resources/DG.BMP,resources/DR.BMP,Door3,-0.155555556,-0.037037037,1,0,0,0.7164,optionLeft,70,15870,7,21,0,21,0,1,,,,,,,,,,,,,,,,,,,,,,,,,,,,,,,,,,,,,,,
,,,,,,,,2023-08-23_15h14.07.914,HF_wild_card,2022.2.4,Win32,59.97720866,627a76b96bea55210aecbba9,64d2fd46c836a06233681665,64e6140ff794b5f912b764c7,,,,,,,ctch,resources/DR.BMP,resources/DBN.BMP,Door4,-0.181481481,0.008333333,1,0,0,1.1835,optionLeft,80,15950,7,22,0,22,0,1,,,,,,,,,,,,,,,,,,,,,,,,,,,,,,,,,,,,,,,
,,,,,,,,2023-08-23_15h14.07.914,HF_wild_card,2022.2.4,Win32,59.97720866,627a76b96bea55210aecbba9,64d2fd46c836a06233681665,64e6140ff794b5f912b764c7,,,,,,,decisionTrl,resources/DG.BMP,resources/DR.BMP,Door3,-0.198148148,-0.036111111,1,0,0,0.9003,optionLeft,70,16020,7,23,0,23,0,1,,,,,,,,,,,,,,,,,,,,,,,,,,,,,,,,,,,,,,,
,,,,,,,,2023-08-23_15h14.07.914,HF_wild_card,2022.2.4,Win32,59.97720866,627a76b96bea55210aecbba9,64d2fd46c836a06233681665,64e6140ff794b5f912b764c7,,,,,,,decisionTrl,resources/DR.BMP,resources/DG.BMP,Door3,0.323148148,-0.009259259,1,0,0,0.6161,optionRight,70,16090,7,24,0,24,0,1,,,,,,,,,,,,,,,,,,,,,,,,,,,,,,,,,,,,,,,
,,,,,,,,2023-08-23_15h14.07.914,HF_wild_card,2022.2.4,Win32,59.97720866,627a76b96bea55210aecbba9,64d2fd46c836a06233681665,64e6140ff794b5f912b764c7,,,,,,,decisionTrl,resources/DB.BMP,resources/DBN.BMP,Door1,0.22962963,-0.036111111,1,0,0,0.8836,optionRight,30,16120,7,25,0,25,0,1,,,,,,,,,,,,,,,,,,,,,,,,,,,,,,,,,,,,,,,
,,,,,,,,2023-08-23_15h14.07.914,HF_wild_card,2022.2.4,Win32,59.97720866,627a76b96bea55210aecbba9,64d2fd46c836a06233681665,64e6140ff794b5f912b764c7,,,,,,,decisionTrl,resources/DBN.BMP,resources/DB.BMP,Door1,-0.175925926,-0.02037037,1,0,0,1.0164,optionLeft,30,16150,7,26,0,26,0,1,,,,,,,,,,,,,,,,,,,,,,,,,,,,,,,,,,,,,,,
,,,,,,,,2023-08-23_15h14.07.914,HF_wild_card,2022.2.4,Win32,59.97720866,627a76b96bea55210aecbba9,64d2fd46c836a06233681665,64e6140ff794b5f912b764c7,,,,,,,decisionTrl,resources/DBN.BMP,resources/DB.BMP,Door1,-0.138888889,-0.062962963,1,0,0,0.65,optionLeft,30,16180,7,27,0,27,0,1,,,,,,,,,,,,,,,,,,,,,,,,,,,,,,,,,,,,,,,
,,,,,,,,2023-08-23_15h14.07.914,HF_wild_card,2022.2.4,Win32,59.97720866,627a76b96bea55210aecbba9,64d2fd46c836a06233681665,64e6140ff794b5f912b764c7,,,,,,,decisionTrl,resources/DB.BMP,resources/DBN.BMP,Door1,0.20462963,-0.082407407,1,0,0,0.6167,optionRight,30,16210,7,28,0,28,0,1,,,,,,,,,,,,,,,,,,,,,,,,,,,,,,,,,,,,,,,
,,,,,,,,2023-08-23_15h14.07.914,HF_wild_card,2022.2.4,Win32,59.97720866,627a76b96bea55210aecbba9,64d2fd46c836a06233681665,64e6140ff794b5f912b764c7,,,,,,,ctch,resources/DBN.BMP,resources/DR.BMP,Door4,0.201851852,-0.066666667,1,0,0,0.7004,optionRight,80,16290,7,29,0,29,0,1,,,,,,,,,,,,,,,,,,,,,,,,,,,,,,,,,,,,,,,
,,,,,,,,2023-08-23_15h14.07.914,HF_wild_card,2022.2.4,Win32,59.97720866,627a76b96bea55210aecbba9,64d2fd46c836a06233681665,64e6140ff794b5f912b764c7,,,,,,,decisionTrl,resources/DB.BMP,resources/DBN.BMP,Door1,0.271296296,-0.039814815,1,0,0,1.3669,optionRight,30,16320,7,30,0,30,0,1,,,,,,,,,,,,,,,,,,,,,,,,,,,,,,,,,,,,,,,
,,,,,,,,2023-08-23_15h14.07.914,HF_wild_card,2022.2.4,Win32,59.97720866,627a76b96bea55210aecbba9,64d2fd46c836a06233681665,64e6140ff794b5f912b764c7,,,,,,,ctch,resources/DR.BMP,resources/DBN.BMP,Door4,-0.152777778,-0.038888889,1,0,0,0.6836,optionLeft,60,16380,7,31,0,31,0,1,,,,,,,,,,,,,,,,,,,,,,,,,,,,,,,,,,,,,,,
,,,,,,,,2023-08-23_15h14.07.914,HF_wild_card,2022.2.4,Win32,59.97720866,627a76b96bea55210aecbba9,64d2fd46c836a06233681665,64e6140ff794b5f912b764c7,,,,,,,decisionTrl,resources/DBN.BMP,resources/DB.BMP,Door1,-0.300925926,-0.037962963,1,0,0,1.0167,optionLeft,30,16410,7,32,0,32,0,1,,,,,,,,,,,,,,,,,,,,,,,,,,,,,,,,,,,,,,,
,,,,,,,,2023-08-23_15h14.07.914,HF_wild_card,2022.2.4,Win32,59.97720866,627a76b96bea55210aecbba9,64d2fd46c836a06233681665,64e6140ff794b5f912b764c7,,,,,,,ctch,resources/DG.BMP,resources/DB.BMP,Door3,-0.163888889,-0.046296296,1,0,0,1.3505,optionLeft,70,16480,7,33,0,33,0,1,,,,,,,,,,,,,,,,,,,,,,,,,,,,,,,,,,,,,,,
,,,,,,,,2023-08-23_15h14.07.914,HF_wild_card,2022.2.4,Win32,59.97720866,627a76b96bea55210aecbba9,64d2fd46c836a06233681665,64e6140ff794b5f912b764c7,,,,,,,ctch,resources/DR.BMP,resources/DBN.BMP,Door4,-0.139814815,-0.014814815,1,0,0,0.7835,optionLeft,80,16560,7,34,0,34,0,1,,,,,,,,,,,,,,,,,,,,,,,,,,,,,,,,,,,,,,,
,,,,,,,,2023-08-23_15h14.07.914,HF_wild_card,2022.2.4,Win32,59.97720866,627a76b96bea55210aecbba9,64d2fd46c836a06233681665,64e6140ff794b5f912b764c7,,,,,,,decisionTrl,resources/DB.BMP,resources/DBN.BMP,Door1,0.271296296,-0.048148148,1,0,0,0.9334,optionRight,30,16590,7,35,0,35,0,1,,,,,,,,,,,,,,,,,,,,,,,,,,,,,,,,,,,,,,,
,,,,,,,,2023-08-23_15h14.07.914,HF_wild_card,2022.2.4,Win32,59.97720866,627a76b96bea55210aecbba9,64d2fd46c836a06233681665,64e6140ff794b5f912b764c7,,,,,,,,,,,,,,,,,,,,,,,,,,6,0,6,0,1,,,,,,,,,,,,,,,,,,,,,,,,,,,,,,,,,,
,,,,,,,,2023-08-23_15h14.07.914,HF_wild_card,2022.2.4,Win32,59.97720866,627a76b96bea55210aecbba9,64d2fd46c836a06233681665,64e6140ff794b5f912b764c7,,,,,,,,,,,,,,,,,,,,,,,,,,,,,,,4,,,,,,,,,,,,,,,,,,,,,,,,,,,,,,,,,
,,,,,,,,2023-08-23_15h14.07.914,HF_wild_card,2022.2.4,Win32,59.97720866,627a76b96bea55210aecbba9,64d2fd46c836a06233681665,64e6140ff794b5f912b764c7,,,,,,,,,,,,,,,,,,,,,,,,,,,,,,,,,,,,,,,,,,,,,,,,,,,,,,,,,,,,,,,,
,,,,,,,,2023-08-23_15h14.07.914,HF_wild_card,2022.2.4,Win32,59.97720866,627a76b96bea55210aecbba9,64d2fd46c836a06233681665,64e6140ff794b5f912b764c7,,,,,,,,,,,,,,,,,,,,,,,,,,,,,,,,70,Door3,resources/DG.BMP,0,0,0,0,1,,,,,,,,,,,,,,,,,,,,,,,,,
,,,,,,,,2023-08-23_15h14.07.914,HF_wild_card,2022.2.4,Win32,59.97720866,627a76b96bea55210aecbba9,64d2fd46c836a06233681665,64e6140ff794b5f912b764c7,,,,,,,,,,,,,,,,,,,,,,,,,,,,,,,,45,WC_nonExtreme,resources/DP.BMP,1,0,1,0,1,,,,,,,,,,,,,,,,,,,,,,,,,
,,,,,,,,2023-08-23_15h14.07.914,HF_wild_card,2022.2.4,Win32,59.97720866,627a76b96bea55210aecbba9,64d2fd46c836a06233681665,64e6140ff794b5f912b764c7,,,,,,,,,,,,,,,,,,,,,,,,,,,,,,,,30,Door1,resources/DBN.BMP,2,0,2,0,1,,,,,,,,,,,,,,,,,,,,,,,,,
,,,,,,,,2023-08-23_15h14.07.914,HF_wild_card,2022.2.4,Win32,59.97720866,627a76b96bea55210aecbba9,64d2fd46c836a06233681665,64e6140ff794b5f912b764c7,,,,,,,,,,,,,,,,,,,,,,,,,,,,,,,,20,Door2,resources/DB.BMP,3,0,3,0,1,,,,,,,,,,,,,,,,,,,,,,,,,
,,,,,,,,2023-08-23_15h14.07.914,HF_wild_card,2022.2.4,Win32,59.97720866,627a76b96bea55210aecbba9,64d2fd46c836a06233681665,64e6140ff794b5f912b764c7,,,,,,,,,,,,,,,,,,,,,,,,,,,,,,,,60,Door4,resources/DR.BMP,4,0,4,0,1,,,,,,,,,,,,,,,,,,,,,,,,,
,,,,,,,,2023-08-23_15h14.07.914,HF_wild_card,2022.2.4,Win32,59.97720866,627a76b96bea55210aecbba9,64d2fd46c836a06233681665,64e6140ff794b5f912b764c7,,,,,,,,,,,,,,,,,,,,,,,,,,,,,,,,45,WC_extreme,resources/DY.BMP,5,0,5,0,1,,,,,,,,,,,,,,,,,,,,,,,,,
,,,,,,,,2023-08-23_15h14.07.914,HF_wild_card,2022.2.4,Win32,59.97720866,627a76b96bea55210aecbba9,64d2fd46c836a06233681665,64e6140ff794b5f912b764c7,,,,,,,,,,,,,,,,,,,,,,,,,,,,,,,,,,,,,,,,,,,,,,,,,,,,,,,,,,,,,,,,
