Condition,Low fixed image (Door1),Low risky image (Door2),High fixed image (Door3),High risky image (Door4),Extreme Wild Card,NonExtreme Wild Card,,date,expName,psychopyVersion,OS,frameRate,PROLIFIC_PID,STUDY_ID,SESSION_ID,mouse_2.x,mouse_2.y,mouse_2.leftButton,mouse_2.midButton,mouse_2.rightButton,mouse_2.clicked_name,Trial Type,Left Option Image,Right Option Image,Chosen Door,mouse.x,mouse.y,mouse.leftButton,mouse.midButton,mouse.rightButton,mouse.time,mouse.clicked_name,Feedback,Cumulative Reward,Block,trial.thisRepN,trial.thisTrialN,trial.thisN,trial.thisIndex,trial.ran,blocks.thisRepN,blocks.thisTrialN,blocks.thisN,blocks.thisIndex,blocks.ran,Money conversion,First Outcome Reported,Shown Door (First Outcome),Displayed Image (First Outcome),outcomes.thisRepN,outcomes.thisTrialN,outcomes.thisN,outcomes.thisIndex,outcomes.ran,judgments.thisRepN,judgments.thisTrialN,judgments.thisN,judgments.thisIndex,judgments.ran,freqMouse.x,freqMouse.y,freqMouse.leftButton,freqMouse.midButton,freqMouse.rightButton,freqMouse.clicked_name,FQJ for first outcome,FQJ for second outcome,Shown Door,Displayed Image,trials.thisRepN,trials.thisTrialN,trials.thisN,trials.thisIndex,trials.ran,judgBlock.thisRepN,judgBlock.thisTrialN,judgBlock.thisN,judgBlock.thisIndex,judgBlock.ran
0,resources/DY.BMP,resources/DBN.BMP,resources/DG.BMP,resources/DR.BMP,resources/DP.BMP,resources/DB.BMP,,2023-08-16_08h50.05.115,HF_wild_card,2022.2.4,Win32,60.08532116,5a3adfb705f005000104d2a3,64d2fd46c836a06233681665,64dc7f737375467112b5d4b5,,,,,,,,,,,,,,,,,,,,,,,,,,,,,,,,,,,,,,,,,,,,,,,,,,,,,,,,,,,,,,,,
,,,,,,,,2023-08-16_08h50.05.115,HF_wild_card,2022.2.4,Win32,60.08532116,5a3adfb705f005000104d2a3,64d2fd46c836a06233681665,64dc7f737375467112b5d4b5,-0.00462963,-0.423148191,1,0,0,agree,,,,,,,,,,,,,,,,,,,,,,,,,,,,,,,,,,,,,,,,,,,,,,,,,,,,,,,,,,
,,,,,,,,2023-08-16_08h50.05.115,HF_wild_card,2022.2.4,Win32,60.08532116,5a3adfb705f005000104d2a3,64d2fd46c836a06233681665,64dc7f737375467112b5d4b5,,,,,,,,,,,,,,,,,,,,,,,,,,,,,,,,,,,,,,,,,,,,,,,,,,,,,,,,,,,,,,,,
,,,,,,,,2023-08-16_08h50.05.115,HF_wild_card,2022.2.4,Win32,60.08532116,5a3adfb705f005000104d2a3,64d2fd46c836a06233681665,64dc7f737375467112b5d4b5,,,,,,,sngl,resources/DG.BMP,resources/Empty.png,Door3,-0.37962963,-0.031481496,1,0,0,2.9019,optionLeft,70,70,1,0,0,0,0,1,,,,,,,,,,,,,,,,,,,,,,,,,,,,,,,,,,,,,,,
,,,,,,,,2023-08-16_08h50.05.115,HF_wild_card,2022.2.4,Win32,60.08532116,5a3adfb705f005000104d2a3,64d2fd46c836a06233681665,64dc7f737375467112b5d4b5,,,,,,,decisionTrl,resources/DG.BMP,resources/DP.BMP,WildCard_Ex,0.416666667,-0.055555556,1,0,0,3.0553,optionRight,95,165,1,1,0,1,0,1,,,,,,,,,,,,,,,,,,,,,,,,,,,,,,,,,,,,,,,
,,,,,,,,2023-08-16_08h50.05.115,HF_wild_card,2022.2.4,Win32,60.08532116,5a3adfb705f005000104d2a3,64d2fd46c836a06233681665,64dc7f737375467112b5d4b5,,,,,,,decisionTrl,resources/DY.BMP,resources/DBN.BMP,Door2,0.413888861,0.01944443,1,0,0,3.154,optionRight,40,205,1,2,0,2,0,1,,,,,,,,,,,,,,,,,,,,,,,,,,,,,,,,,,,,,,,
,,,,,,,,2023-08-16_08h50.05.115,HF_wild_card,2022.2.4,Win32,60.08532116,5a3adfb705f005000104d2a3,64d2fd46c836a06233681665,64dc7f737375467112b5d4b5,,,,,,,ctch,resources/DR.BMP,resources/DY.BMP,Door4,-0.407407407,-0.034259266,1,0,0,2.5018,optionLeft,80,285,1,3,0,3,0,1,,,,,,,,,,,,,,,,,,,,,,,,,,,,,,,,,,,,,,,
,,,,,,,,2023-08-16_08h50.05.115,HF_wild_card,2022.2.4,Win32,60.08532116,5a3adfb705f005000104d2a3,64d2fd46c836a06233681665,64dc7f737375467112b5d4b5,,,,,,,sngl,resources/DP.BMP,resources/Empty.png,WildCard_Ex,-0.405555548,-0.048148155,1,0,0,1.9155,optionLeft,95,380,1,4,0,4,0,1,,,,,,,,,,,,,,,,,,,,,,,,,,,,,,,,,,,,,,,
,,,,,,,,2023-08-16_08h50.05.115,HF_wild_card,2022.2.4,Win32,60.08532116,5a3adfb705f005000104d2a3,64d2fd46c836a06233681665,64dc7f737375467112b5d4b5,,,,,,,decisionTrl,resources/DR.BMP,resources/DP.BMP,WildCard_Ex,0.384259259,-0.057407414,1,0,0,1.4934,optionRight,5,385,1,5,0,5,0,1,,,,,,,,,,,,,,,,,,,,,,,,,,,,,,,,,,,,,,,
,,,,,,,,2023-08-16_08h50.05.115,HF_wild_card,2022.2.4,Win32,60.08532116,5a3adfb705f005000104d2a3,64d2fd46c836a06233681665,64dc7f737375467112b5d4b5,,,,,,,sngl,resources/Empty.png,resources/DP.BMP,WildCard_Ex,0.405555584,-0.046296296,1,0,0,1.5744,optionRight,5,390,1,6,0,6,0,1,,,,,,,,,,,,,,,,,,,,,,,,,,,,,,,,,,,,,,,
,,,,,,,,2023-08-16_08h50.05.115,HF_wild_card,2022.2.4,Win32,60.08532116,5a3adfb705f005000104d2a3,64d2fd46c836a06233681665,64dc7f737375467112b5d4b5,,,,,,,ctch,resources/DR.BMP,resources/DY.BMP,Door4,-0.37962963,-0.026851866,1,0,0,2.4541,optionLeft,60,450,1,7,0,7,0,1,,,,,,,,,,,,,,,,,,,,,,,,,,,,,,,,,,,,,,,
,,,,,,,,2023-08-16_08h50.05.115,HF_wild_card,2022.2.4,Win32,60.08532116,5a3adfb705f005000104d2a3,64d2fd46c836a06233681665,64dc7f737375467112b5d4b5,,,,,,,decisionTrl,resources/DR.BMP,resources/DG.BMP,Door4,-0.395370377,-0.011111118,1,0,0,1.485,optionLeft,80,530,1,8,0,8,0,1,,,,,,,,,,,,,,,,,,,,,,,,,,,,,,,,,,,,,,,
,,,,,,,,2023-08-16_08h50.05.115,HF_wild_card,2022.2.4,Win32,60.08532116,5a3adfb705f005000104d2a3,64d2fd46c836a06233681665,64dc7f737375467112b5d4b5,,,,,,,decisionTrl,resources/DP.BMP,resources/DG.BMP,Door3,0.409259231,-0.017592607,1,0,0,1.5913,optionRight,70,600,1,9,0,9,0,1,,,,,,,,,,,,,,,,,,,,,,,,,,,,,,,,,,,,,,,
,,,,,,,,2023-08-16_08h50.05.115,HF_wild_card,2022.2.4,Win32,60.08532116,5a3adfb705f005000104d2a3,64d2fd46c836a06233681665,64dc7f737375467112b5d4b5,,,,,,,decisionTrl,resources/DP.BMP,resources/DY.BMP,Door1,0.37962963,-0.001851859,1,0,0,2.8598,optionRight,30,630,1,10,0,10,0,1,,,,,,,,,,,,,,,,,,,,,,,,,,,,,,,,,,,,,,,
,,,,,,,,2023-08-16_08h50.05.115,HF_wild_card,2022.2.4,Win32,60.08532116,5a3adfb705f005000104d2a3,64d2fd46c836a06233681665,64dc7f737375467112b5d4b5,,,,,,,decisionTrl,resources/DR.BMP,resources/DG.BMP,Door4,-0.404629637,-0.045370384,1,0,0,2.7165,optionLeft,80,710,1,11,0,11,0,1,,,,,,,,,,,,,,,,,,,,,,,,,,,,,,,,,,,,,,,
,,,,,,,,2023-08-16_08h50.05.115,HF_wild_card,2022.2.4,Win32,60.08532116,5a3adfb705f005000104d2a3,64d2fd46c836a06233681665,64dc7f737375467112b5d4b5,,,,,,,decisionTrl,resources/DG.BMP,resources/DR.BMP,Door4,0.410185213,-0.034259266,1,0,0,1.4884,optionRight,80,790,1,12,0,12,0,1,,,,,,,,,,,,,,,,,,,,,,,,,,,,,,,,,,,,,,,
,,,,,,,,2023-08-16_08h50.05.115,HF_wild_card,2022.2.4,Win32,60.08532116,5a3adfb705f005000104d2a3,64d2fd46c836a06233681665,64dc7f737375467112b5d4b5,,,,,,,sngl,resources/Empty.png,resources/DY.BMP,Door1,0.424074102,-0.062037044,1,0,0,1.8856,optionRight,30,820,1,13,0,13,0,1,,,,,,,,,,,,,,,,,,,,,,,,,,,,,,,,,,,,,,,
,,,,,,,,2023-08-16_08h50.05.115,HF_wild_card,2022.2.4,Win32,60.08532116,5a3adfb705f005000104d2a3,64d2fd46c836a06233681665,64dc7f737375467112b5d4b5,,,,,,,decisionTrl,resources/DG.BMP,resources/DR.BMP,Door4,0.398148148,-0.034259266,1,0,0,1.288,optionRight,80,900,1,14,0,14,0,1,,,,,,,,,,,,,,,,,,,,,,,,,,,,,,,,,,,,,,,
,,,,,,,,2023-08-16_08h50.05.115,HF_wild_card,2022.2.4,Win32,60.08532116,5a3adfb705f005000104d2a3,64d2fd46c836a06233681665,64dc7f737375467112b5d4b5,,,,,,,ctch,resources/DBN.BMP,resources/DG.BMP,Door3,0.425925926,-0.032407407,1,0,0,2.1042,optionRight,70,970,1,15,0,15,0,1,,,,,,,,,,,,,,,,,,,,,,,,,,,,,,,,,,,,,,,
,,,,,,,,2023-08-16_08h50.05.115,HF_wild_card,2022.2.4,Win32,60.08532116,5a3adfb705f005000104d2a3,64d2fd46c836a06233681665,64dc7f737375467112b5d4b5,,,,,,,decisionTrl,resources/DG.BMP,resources/DR.BMP,Door4,0.404629601,-0.041666667,1,0,0,1.4482,optionRight,80,1050,1,16,0,16,0,1,,,,,,,,,,,,,,,,,,,,,,,,,,,,,,,,,,,,,,,
,,,,,,,,2023-08-16_08h50.05.115,HF_wild_card,2022.2.4,Win32,60.08532116,5a3adfb705f005000104d2a3,64d2fd46c836a06233681665,64dc7f737375467112b5d4b5,,,,,,,decisionTrl,resources/DBN.BMP,resources/DY.BMP,Door1,0.45648151,-0.046296296,1,0,0,1.704,optionRight,30,1080,1,17,0,17,0,1,,,,,,,,,,,,,,,,,,,,,,,,,,,,,,,,,,,,,,,
,,,,,,,,2023-08-16_08h50.05.115,HF_wild_card,2022.2.4,Win32,60.08532116,5a3adfb705f005000104d2a3,64d2fd46c836a06233681665,64dc7f737375467112b5d4b5,,,,,,,ctch,resources/DG.BMP,resources/DBN.BMP,Door3,-0.400925919,-0.008333347,0,0,1,1.5043,optionLeft,70,1150,1,18,0,18,0,1,,,,,,,,,,,,,,,,,,,,,,,,,,,,,,,,,,,,,,,
,,,,,,,,2023-08-16_08h50.05.115,HF_wild_card,2022.2.4,Win32,60.08532116,5a3adfb705f005000104d2a3,64d2fd46c836a06233681665,64dc7f737375467112b5d4b5,,,,,,,decisionTrl,resources/DG.BMP,resources/DR.BMP,Door4,0.393518519,0,1,0,0,1.6732,optionRight,60,1210,1,19,0,19,0,1,,,,,,,,,,,,,,,,,,,,,,,,,,,,,,,,,,,,,,,
,,,,,,,,2023-08-16_08h50.05.115,HF_wild_card,2022.2.4,Win32,60.08532116,5a3adfb705f005000104d2a3,64d2fd46c836a06233681665,64dc7f737375467112b5d4b5,,,,,,,sngl,resources/Empty.png,resources/DR.BMP,Door4,0.388888889,-0.037037037,1,0,0,1.5449,optionRight,60,1270,1,20,0,20,0,1,,,,,,,,,,,,,,,,,,,,,,,,,,,,,,,,,,,,,,,
,,,,,,,,2023-08-16_08h50.05.115,HF_wild_card,2022.2.4,Win32,60.08532116,5a3adfb705f005000104d2a3,64d2fd46c836a06233681665,64dc7f737375467112b5d4b5,,,,,,,decisionTrl,resources/DR.BMP,resources/DG.BMP,Door4,-0.375,-0.037037037,1,0,0,3.2959,optionLeft,60,1330,1,21,0,21,0,1,,,,,,,,,,,,,,,,,,,,,,,,,,,,,,,,,,,,,,,
,,,,,,,,2023-08-16_08h50.05.115,HF_wild_card,2022.2.4,Win32,60.08532116,5a3adfb705f005000104d2a3,64d2fd46c836a06233681665,64dc7f737375467112b5d4b5,,,,,,,decisionTrl,resources/DY.BMP,resources/DP.BMP,WildCard_Ex,0.404629601,-0.048148155,1,0,0,1.7854,optionRight,5,1335,1,22,0,22,0,1,,,,,,,,,,,,,,,,,,,,,,,,,,,,,,,,,,,,,,,
,,,,,,,,2023-08-16_08h50.05.115,HF_wild_card,2022.2.4,Win32,60.08532116,5a3adfb705f005000104d2a3,64d2fd46c836a06233681665,64dc7f737375467112b5d4b5,,,,,,,decisionTrl,resources/DBN.BMP,resources/DY.BMP,Door1,0.393518519,-0.046296296,1,0,0,1.274,optionRight,30,1365,1,23,0,23,0,1,,,,,,,,,,,,,,,,,,,,,,,,,,,,,,,,,,,,,,,
,,,,,,,,2023-08-16_08h50.05.115,HF_wild_card,2022.2.4,Win32,60.08532116,5a3adfb705f005000104d2a3,64d2fd46c836a06233681665,64dc7f737375467112b5d4b5,,,,,,,ctch,resources/DY.BMP,resources/DR.BMP,Door4,0.381481453,-0.046296296,1,0,0,1.2248,optionRight,60,1425,1,24,0,24,0,1,,,,,,,,,,,,,,,,,,,,,,,,,,,,,,,,,,,,,,,
,,,,,,,,2023-08-16_08h50.05.115,HF_wild_card,2022.2.4,Win32,60.08532116,5a3adfb705f005000104d2a3,64d2fd46c836a06233681665,64dc7f737375467112b5d4b5,,,,,,,decisionTrl,resources/DBN.BMP,resources/DY.BMP,Door1,0.393518519,-0.048148155,1,0,0,1.2389,optionRight,30,1455,1,25,0,25,0,1,,,,,,,,,,,,,,,,,,,,,,,,,,,,,,,,,,,,,,,
,,,,,,,,2023-08-16_08h50.05.115,HF_wild_card,2022.2.4,Win32,60.08532116,5a3adfb705f005000104d2a3,64d2fd46c836a06233681665,64dc7f737375467112b5d4b5,,,,,,,decisionTrl,resources/DY.BMP,resources/DBN.BMP,Door1,-0.386111118,-0.012962977,1,0,0,1.3362,optionLeft,30,1485,1,26,0,26,0,1,,,,,,,,,,,,,,,,,,,,,,,,,,,,,,,,,,,,,,,
,,,,,,,,2023-08-16_08h50.05.115,HF_wild_card,2022.2.4,Win32,60.08532116,5a3adfb705f005000104d2a3,64d2fd46c836a06233681665,64dc7f737375467112b5d4b5,,,,,,,sngl,resources/DBN.BMP,resources/Empty.png,Door2,-0.353703711,-0.006481489,1,0,0,1.1623,optionLeft,40,1525,1,27,0,27,0,1,,,,,,,,,,,,,,,,,,,,,,,,,,,,,,,,,,,,,,,
,,,,,,,,2023-08-16_08h50.05.115,HF_wild_card,2022.2.4,Win32,60.08532116,5a3adfb705f005000104d2a3,64d2fd46c836a06233681665,64dc7f737375467112b5d4b5,,,,,,,decisionTrl,resources/DY.BMP,resources/DBN.BMP,Door2,0.453703704,0.037037037,1,0,0,2.6564,optionRight,40,1565,1,28,0,28,0,1,,,,,,,,,,,,,,,,,,,,,,,,,,,,,,,,,,,,,,,
,,,,,,,,2023-08-16_08h50.05.115,HF_wild_card,2022.2.4,Win32,60.08532116,5a3adfb705f005000104d2a3,64d2fd46c836a06233681665,64dc7f737375467112b5d4b5,,,,,,,ctch,resources/DY.BMP,resources/DR.BMP,Door4,0.353703675,-0.036111125,1,0,0,1.4632,optionRight,80,1645,1,29,0,29,0,1,,,,,,,,,,,,,,,,,,,,,,,,,,,,,,,,,,,,,,,
,,,,,,,,2023-08-16_08h50.05.115,HF_wild_card,2022.2.4,Win32,60.08532116,5a3adfb705f005000104d2a3,64d2fd46c836a06233681665,64dc7f737375467112b5d4b5,,,,,,,decisionTrl,resources/DP.BMP,resources/DBN.BMP,WildCard_Ex,-0.376851859,-0.036111125,1,0,0,1.3688,optionLeft,5,1650,1,30,0,30,0,1,,,,,,,,,,,,,,,,,,,,,,,,,,,,,,,,,,,,,,,
,,,,,,,,2023-08-16_08h50.05.115,HF_wild_card,2022.2.4,Win32,60.08532116,5a3adfb705f005000104d2a3,64d2fd46c836a06233681665,64dc7f737375467112b5d4b5,,,,,,,decisionTrl,resources/DR.BMP,resources/DG.BMP,Door3,0.437962991,-0.015740748,1,0,0,2.4515,optionRight,70,1720,1,31,0,31,0,1,,,,,,,,,,,,,,,,,,,,,,,,,,,,,,,,,,,,,,,
,,,,,,,,2023-08-16_08h50.05.115,HF_wild_card,2022.2.4,Win32,60.08532116,5a3adfb705f005000104d2a3,64d2fd46c836a06233681665,64dc7f737375467112b5d4b5,,,,,,,ctch,resources/DBN.BMP,resources/DG.BMP,Door3,0.398148148,0.000925912,1,0,0,1.7578,optionRight,70,1790,1,32,0,32,0,1,,,,,,,,,,,,,,,,,,,,,,,,,,,,,,,,,,,,,,,
,,,,,,,,2023-08-16_08h50.05.115,HF_wild_card,2022.2.4,Win32,60.08532116,5a3adfb705f005000104d2a3,64d2fd46c836a06233681665,64dc7f737375467112b5d4b5,,,,,,,decisionTrl,resources/DBN.BMP,resources/DY.BMP,Door2,-0.376851859,0.009259259,1,0,0,1.8748,optionLeft,40,1830,1,33,0,33,0,1,,,,,,,,,,,,,,,,,,,,,,,,,,,,,,,,,,,,,,,
,,,,,,,,2023-08-16_08h50.05.115,HF_wild_card,2022.2.4,Win32,60.08532116,5a3adfb705f005000104d2a3,64d2fd46c836a06233681665,64dc7f737375467112b5d4b5,,,,,,,sngl,resources/DY.BMP,resources/Empty.png,Door1,-0.381481489,-0.020370377,1,0,0,1.3208,optionLeft,30,1860,1,34,0,34,0,1,,,,,,,,,,,,,,,,,,,,,,,,,,,,,,,,,,,,,,,
,,,,,,,,2023-08-16_08h50.05.115,HF_wild_card,2022.2.4,Win32,60.08532116,5a3adfb705f005000104d2a3,64d2fd46c836a06233681665,64dc7f737375467112b5d4b5,,,,,,,decisionTrl,resources/DP.BMP,resources/DR.BMP,Door4,0.421296296,-0.074074074,1,0,0,1.8252,optionRight,80,1940,1,35,0,35,0,1,,,,,,,,,,,,,,,,,,,,,,,,,,,,,,,,,,,,,,,
,,,,,,,,2023-08-16_08h50.05.115,HF_wild_card,2022.2.4,Win32,60.08532116,5a3adfb705f005000104d2a3,64d2fd46c836a06233681665,64dc7f737375467112b5d4b5,,,,,,,sngl,resources/Empty.png,resources/DG.BMP,Door3,0.407407407,-0.025000007,1,0,0,1.6427,optionRight,70,2010,1,36,0,36,0,1,,,,,,,,,,,,,,,,,,,,,,,,,,,,,,,,,,,,,,,
,,,,,,,,2023-08-16_08h50.05.115,HF_wild_card,2022.2.4,Win32,60.08532116,5a3adfb705f005000104d2a3,64d2fd46c836a06233681665,64dc7f737375467112b5d4b5,,,,,,,decisionTrl,resources/DBN.BMP,resources/DP.BMP,Door2,-0.412037037,0.023148148,1,0,0,2.0025,optionLeft,40,2050,1,37,0,37,0,1,,,,,,,,,,,,,,,,,,,,,,,,,,,,,,,,,,,,,,,
,,,,,,,,2023-08-16_08h50.05.115,HF_wild_card,2022.2.4,Win32,60.08532116,5a3adfb705f005000104d2a3,64d2fd46c836a06233681665,64dc7f737375467112b5d4b5,,,,,,,sngl,resources/Empty.png,resources/DBN.BMP,Door2,0.416666667,0.00462963,1,0,0,1.355,optionRight,20,2070,1,38,0,38,0,1,,,,,,,,,,,,,,,,,,,,,,,,,,,,,,,,,,,,,,,
,,,,,,,,2023-08-16_08h50.05.115,HF_wild_card,2022.2.4,Win32,60.08532116,5a3adfb705f005000104d2a3,64d2fd46c836a06233681665,64dc7f737375467112b5d4b5,,,,,,,decisionTrl,resources/DY.BMP,resources/DBN.BMP,Door1,-0.342592593,-0.029629637,1,0,0,0.9768,optionLeft,30,2100,1,39,0,39,0,1,,,,,,,,,,,,,,,,,,,,,,,,,,,,,,,,,,,,,,,
,,,,,,,,2023-08-16_08h50.05.115,HF_wild_card,2022.2.4,Win32,60.08532116,5a3adfb705f005000104d2a3,64d2fd46c836a06233681665,64dc7f737375467112b5d4b5,,,,,,,sngl,resources/DP.BMP,resources/Empty.png,WildCard_Ex,-0.400000007,-0.031481496,1,0,0,1.1633,optionLeft,5,2105,1,40,0,40,0,1,,,,,,,,,,,,,,,,,,,,,,,,,,,,,,,,,,,,,,,
,,,,,,,,2023-08-16_08h50.05.115,HF_wild_card,2022.2.4,Win32,60.08532116,5a3adfb705f005000104d2a3,64d2fd46c836a06233681665,64dc7f737375467112b5d4b5,,,,,,,ctch,resources/DG.BMP,resources/DBN.BMP,Door3,-0.35833334,-0.031481496,1,0,0,1.8048,optionLeft,70,2175,1,41,0,41,0,1,,,,,,,,,,,,,,,,,,,,,,,,,,,,,,,,,,,,,,,
,,,,,,,,2023-08-16_08h50.05.115,HF_wild_card,2022.2.4,Win32,60.08532116,5a3adfb705f005000104d2a3,64d2fd46c836a06233681665,64dc7f737375467112b5d4b5,,,,,,,sngl,resources/DR.BMP,resources/Empty.png,Door4,-0.418518526,-0.006481489,1,0,0,1.5392,optionLeft,80,2255,1,42,0,42,0,1,,,,,,,,,,,,,,,,,,,,,,,,,,,,,,,,,,,,,,,
,,,,,,,,2023-08-16_08h50.05.115,HF_wild_card,2022.2.4,Win32,60.08532116,5a3adfb705f005000104d2a3,64d2fd46c836a06233681665,64dc7f737375467112b5d4b5,,,,,,,sngl,resources/Empty.png,resources/DP.BMP,WildCard_Ex,0.467592593,-0.013888889,1,0,0,1.4707,optionRight,95,2350,1,43,0,43,0,1,,,,,,,,,,,,,,,,,,,,,,,,,,,,,,,,,,,,,,,
,,,,,,,,2023-08-16_08h50.05.115,HF_wild_card,2022.2.4,Win32,60.08532116,5a3adfb705f005000104d2a3,64d2fd46c836a06233681665,64dc7f737375467112b5d4b5,,,,,,,,,,,,,,,,,,,,,,,,,,0,0,0,0,1,,,,,,,,,,,,,,,,,,,,,,,,,,,,,,,,,,
,,,,,,,,2023-08-16_08h50.05.115,HF_wild_card,2022.2.4,Win32,60.08532116,5a3adfb705f005000104d2a3,64d2fd46c836a06233681665,64dc7f737375467112b5d4b5,,,,,,,decisionTrl,resources/DBN.BMP,resources/DY.BMP,Door2,-0.413888896,-0.006481489,1,0,0,1.6585,optionLeft,20,2370,2,0,0,0,0,1,,,,,,,,,,,,,,,,,,,,,,,,,,,,,,,,,,,,,,,
,,,,,,,,2023-08-16_08h50.05.115,HF_wild_card,2022.2.4,Win32,60.08532116,5a3adfb705f005000104d2a3,64d2fd46c836a06233681665,64dc7f737375467112b5d4b5,,,,,,,sngl,resources/DR.BMP,resources/Empty.png,Door4,-0.3675926,-0.038888896,1,0,0,0.9782,optionLeft,60,2430,2,1,0,1,0,1,,,,,,,,,,,,,,,,,,,,,,,,,,,,,,,,,,,,,,,
,,,,,,,,2023-08-16_08h50.05.115,HF_wild_card,2022.2.4,Win32,60.08532116,5a3adfb705f005000104d2a3,64d2fd46c836a06233681665,64dc7f737375467112b5d4b5,,,,,,,ctch,resources/DY.BMP,resources/DR.BMP,Door4,0.399999972,-0.020370377,1,0,0,1.3549,optionRight,80,2510,2,2,0,2,0,1,,,,,,,,,,,,,,,,,,,,,,,,,,,,,,,,,,,,,,,
,,,,,,,,2023-08-16_08h50.05.115,HF_wild_card,2022.2.4,Win32,60.08532116,5a3adfb705f005000104d2a3,64d2fd46c836a06233681665,64dc7f737375467112b5d4b5,,,,,,,decisionTrl,resources/DY.BMP,resources/DP.BMP,WildCard_Ex,0.396296325,-0.026851866,1,0,0,1.6673,optionRight,95,2605,2,3,0,3,0,1,,,,,,,,,,,,,,,,,,,,,,,,,,,,,,,,,,,,,,,
,,,,,,,,2023-08-16_08h50.05.115,HF_wild_card,2022.2.4,Win32,60.08532116,5a3adfb705f005000104d2a3,64d2fd46c836a06233681665,64dc7f737375467112b5d4b5,,,,,,,ctch,resources/DBN.BMP,resources/DG.BMP,Door2,-0.365740741,0.009259259,1,0,0,1.2728,optionLeft,40,2645,2,4,0,4,0,1,,,,,,,,,,,,,,,,,,,,,,,,,,,,,,,,,,,,,,,
,,,,,,,,2023-08-16_08h50.05.115,HF_wild_card,2022.2.4,Win32,60.08532116,5a3adfb705f005000104d2a3,64d2fd46c836a06233681665,64dc7f737375467112b5d4b5,,,,,,,ctch,resources/DR.BMP,resources/DY.BMP,Door4,-0.472222222,-0.045370384,1,0,0,1.6262,optionLeft,80,2725,2,5,0,5,0,1,,,,,,,,,,,,,,,,,,,,,,,,,,,,,,,,,,,,,,,
,,,,,,,,2023-08-16_08h50.05.115,HF_wild_card,2022.2.4,Win32,60.08532116,5a3adfb705f005000104d2a3,64d2fd46c836a06233681665,64dc7f737375467112b5d4b5,,,,,,,ctch,resources/DG.BMP,resources/DBN.BMP,Door3,-0.402777778,-0.006481489,1,0,0,2.0872,optionLeft,70,2795,2,6,0,6,0,1,,,,,,,,,,,,,,,,,,,,,,,,,,,,,,,,,,,,,,,
,,,,,,,,2023-08-16_08h50.05.115,HF_wild_card,2022.2.4,Win32,60.08532116,5a3adfb705f005000104d2a3,64d2fd46c836a06233681665,64dc7f737375467112b5d4b5,,,,,,,sngl,resources/Empty.png,resources/DP.BMP,WildCard_Ex,0.432407379,-0.017592607,1,0,0,1.2281,optionRight,95,2890,2,7,0,7,0,1,,,,,,,,,,,,,,,,,,,,,,,,,,,,,,,,,,,,,,,
,,,,,,,,2023-08-16_08h50.05.115,HF_wild_card,2022.2.4,Win32,60.08532116,5a3adfb705f005000104d2a3,64d2fd46c836a06233681665,64dc7f737375467112b5d4b5,,,,,,,sngl,resources/Empty.png,resources/DP.BMP,WildCard_Ex,0.425925926,-0.015740748,1,0,0,1.6085,optionRight,5,2895,2,8,0,8,0,1,,,,,,,,,,,,,,,,,,,,,,,,,,,,,,,,,,,,,,,
,,,,,,,,2023-08-16_08h50.05.115,HF_wild_card,2022.2.4,Win32,60.08532116,5a3adfb705f005000104d2a3,64d2fd46c836a06233681665,64dc7f737375467112b5d4b5,,,,,,,sngl,resources/Empty.png,resources/DY.BMP,Door1,0.412037037,-0.027777778,1,0,0,1.2717,optionRight,30,2925,2,9,0,9,0,1,,,,,,,,,,,,,,,,,,,,,,,,,,,,,,,,,,,,,,,
,,,,,,,,2023-08-16_08h50.05.115,HF_wild_card,2022.2.4,Win32,60.08532116,5a3adfb705f005000104d2a3,64d2fd46c836a06233681665,64dc7f737375467112b5d4b5,,,,,,,sngl,resources/Empty.png,resources/DR.BMP,Door4,0.37962963,-0.023148148,1,0,0,1.1619,optionRight,80,3005,2,10,0,10,0,1,,,,,,,,,,,,,,,,,,,,,,,,,,,,,,,,,,,,,,,
,,,,,,,,2023-08-16_08h50.05.115,HF_wild_card,2022.2.4,Win32,60.08532116,5a3adfb705f005000104d2a3,64d2fd46c836a06233681665,64dc7f737375467112b5d4b5,,,,,,,sngl,resources/DP.BMP,resources/Empty.png,WildCard_Ex,-0.351851852,-0.006481489,1,0,0,1.0973,optionLeft,5,3010,2,11,0,11,0,1,,,,,,,,,,,,,,,,,,,,,,,,,,,,,,,,,,,,,,,
,,,,,,,,2023-08-16_08h50.05.115,HF_wild_card,2022.2.4,Win32,60.08532116,5a3adfb705f005000104d2a3,64d2fd46c836a06233681665,64dc7f737375467112b5d4b5,,,,,,,decisionTrl,resources/DG.BMP,resources/DR.BMP,Door4,0.388888889,-0.055555556,1,0,0,1.1259,optionRight,60,3070,2,12,0,12,0,1,,,,,,,,,,,,,,,,,,,,,,,,,,,,,,,,,,,,,,,
,,,,,,,,2023-08-16_08h50.05.115,HF_wild_card,2022.2.4,Win32,60.08532116,5a3adfb705f005000104d2a3,64d2fd46c836a06233681665,64dc7f737375467112b5d4b5,,,,,,,decisionTrl,resources/DG.BMP,resources/DR.BMP,Door3,-0.437037044,0.033333319,1,0,0,0.9266,optionLeft,70,3140,2,13,0,13,0,1,,,,,,,,,,,,,,,,,,,,,,,,,,,,,,,,,,,,,,,
,,,,,,,,2023-08-16_08h50.05.115,HF_wild_card,2022.2.4,Win32,60.08532116,5a3adfb705f005000104d2a3,64d2fd46c836a06233681665,64dc7f737375467112b5d4b5,,,,,,,decisionTrl,resources/DBN.BMP,resources/DY.BMP,Door2,-0.351851852,-0.031481496,1,0,0,1.9128,optionLeft,20,3160,2,14,0,14,0,1,,,,,,,,,,,,,,,,,,,,,,,,,,,,,,,,,,,,,,,
,,,,,,,,2023-08-16_08h50.05.115,HF_wild_card,2022.2.4,Win32,60.08532116,5a3adfb705f005000104d2a3,64d2fd46c836a06233681665,64dc7f737375467112b5d4b5,,,,,,,decisionTrl,resources/DY.BMP,resources/DBN.BMP,Door1,-0.444444444,0.014814801,1,0,0,2.2526,optionLeft,30,3190,2,15,0,15,0,1,,,,,,,,,,,,,,,,,,,,,,,,,,,,,,,,,,,,,,,
,,,,,,,,2023-08-16_08h50.05.115,HF_wild_card,2022.2.4,Win32,60.08532116,5a3adfb705f005000104d2a3,64d2fd46c836a06233681665,64dc7f737375467112b5d4b5,,,,,,,decisionTrl,resources/DG.BMP,resources/DP.BMP,Door3,-0.335185192,0.0074074,1,0,0,1.4395,optionLeft,70,3260,2,16,0,16,0,1,,,,,,,,,,,,,,,,,,,,,,,,,,,,,,,,,,,,,,,
,,,,,,,,2023-08-16_08h50.05.115,HF_wild_card,2022.2.4,Win32,60.08532116,5a3adfb705f005000104d2a3,64d2fd46c836a06233681665,64dc7f737375467112b5d4b5,,,,,,,decisionTrl,resources/DR.BMP,resources/DG.BMP,Door3,0.373148176,0.027777778,1,0,0,1.7224,optionRight,70,3330,2,17,0,17,0,1,,,,,,,,,,,,,,,,,,,,,,,,,,,,,,,,,,,,,,,
,,,,,,,,2023-08-16_08h50.05.115,HF_wild_card,2022.2.4,Win32,60.08532116,5a3adfb705f005000104d2a3,64d2fd46c836a06233681665,64dc7f737375467112b5d4b5,,,,,,,decisionTrl,resources/DP.BMP,resources/DBN.BMP,WildCard_Ex,-0.356481481,-0.008333347,1,0,0,1.4198,optionLeft,95,3425,2,18,0,18,0,1,,,,,,,,,,,,,,,,,,,,,,,,,,,,,,,,,,,,,,,
,,,,,,,,2023-08-16_08h50.05.115,HF_wild_card,2022.2.4,Win32,60.08532116,5a3adfb705f005000104d2a3,64d2fd46c836a06233681665,64dc7f737375467112b5d4b5,,,,,,,sngl,resources/DY.BMP,resources/Empty.png,Door1,-0.349999993,-0.034259266,1,0,0,1.1878,optionLeft,30,3455,2,19,0,19,0,1,,,,,,,,,,,,,,,,,,,,,,,,,,,,,,,,,,,,,,,
,,,,,,,,2023-08-16_08h50.05.115,HF_wild_card,2022.2.4,Win32,60.08532116,5a3adfb705f005000104d2a3,64d2fd46c836a06233681665,64dc7f737375467112b5d4b5,,,,,,,decisionTrl,resources/DR.BMP,resources/DP.BMP,WildCard_Ex,0.437962991,-0.046296296,1,0,0,1.1558,optionRight,5,3460,2,20,0,20,0,1,,,,,,,,,,,,,,,,,,,,,,,,,,,,,,,,,,,,,,,
,,,,,,,,2023-08-16_08h50.05.115,HF_wild_card,2022.2.4,Win32,60.08532116,5a3adfb705f005000104d2a3,64d2fd46c836a06233681665,64dc7f737375467112b5d4b5,,,,,,,ctch,resources/DG.BMP,resources/DBN.BMP,Door3,-0.36296297,0.01203703,1,0,0,1.1048,optionLeft,70,3530,2,21,0,21,0,1,,,,,,,,,,,,,,,,,,,,,,,,,,,,,,,,,,,,,,,
,,,,,,,,2023-08-16_08h50.05.115,HF_wild_card,2022.2.4,Win32,60.08532116,5a3adfb705f005000104d2a3,64d2fd46c836a06233681665,64dc7f737375467112b5d4b5,,,,,,,decisionTrl,resources/DY.BMP,resources/DBN.BMP,Door1,-0.312037044,0.01944443,0,0,1,1.4483,optionLeft,30,3560,2,22,0,22,0,1,,,,,,,,,,,,,,,,,,,,,,,,,,,,,,,,,,,,,,,
,,,,,,,,2023-08-16_08h50.05.115,HF_wild_card,2022.2.4,Win32,60.08532116,5a3adfb705f005000104d2a3,64d2fd46c836a06233681665,64dc7f737375467112b5d4b5,,,,,,,ctch,resources/DR.BMP,resources/DY.BMP,Door4,-0.310185185,-0.001851859,1,0,0,1.3275,optionLeft,60,3620,2,23,0,23,0,1,,,,,,,,,,,,,,,,,,,,,,,,,,,,,,,,,,,,,,,
,,,,,,,,2023-08-16_08h50.05.115,HF_wild_card,2022.2.4,Win32,60.08532116,5a3adfb705f005000104d2a3,64d2fd46c836a06233681665,64dc7f737375467112b5d4b5,,,,,,,decisionTrl,resources/DP.BMP,resources/DY.BMP,WildCard_Ex,-0.412037037,-0.011111118,1,0,0,0.9424,optionLeft,5,3625,2,24,0,24,0,1,,,,,,,,,,,,,,,,,,,,,,,,,,,,,,,,,,,,,,,
,,,,,,,,2023-08-16_08h50.05.115,HF_wild_card,2022.2.4,Win32,60.08532116,5a3adfb705f005000104d2a3,64d2fd46c836a06233681665,64dc7f737375467112b5d4b5,,,,,,,decisionTrl,resources/DR.BMP,resources/DG.BMP,Door3,0.455555527,0.010185171,1,0,0,2.2414,optionRight,70,3695,2,25,0,25,0,1,,,,,,,,,,,,,,,,,,,,,,,,,,,,,,,,,,,,,,,
,,,,,,,,2023-08-16_08h50.05.115,HF_wild_card,2022.2.4,Win32,60.08532116,5a3adfb705f005000104d2a3,64d2fd46c836a06233681665,64dc7f737375467112b5d4b5,,,,,,,sngl,resources/DBN.BMP,resources/Empty.png,Door2,-0.010185171,-0.013888889,1,0,0,0.3431,optionLeft,20,3715,2,26,0,26,0,1,,,,,,,,,,,,,,,,,,,,,,,,,,,,,,,,,,,,,,,
,,,,,,,,2023-08-16_08h50.05.115,HF_wild_card,2022.2.4,Win32,60.08532116,5a3adfb705f005000104d2a3,64d2fd46c836a06233681665,64dc7f737375467112b5d4b5,,,,,,,decisionTrl,resources/DY.BMP,resources/DBN.BMP,Door1,-0.311111097,-0.037037037,1,0,0,1.3556,optionLeft,30,3745,2,27,0,27,0,1,,,,,,,,,,,,,,,,,,,,,,,,,,,,,,,,,,,,,,,
,,,,,,,,2023-08-16_08h50.05.115,HF_wild_card,2022.2.4,Win32,60.08532116,5a3adfb705f005000104d2a3,64d2fd46c836a06233681665,64dc7f737375467112b5d4b5,,,,,,,ctch,resources/DBN.BMP,resources/DG.BMP,Door3,0.339814787,0.023148148,1,0,0,1.5929,optionRight,70,3815,2,28,0,28,0,1,,,,,,,,,,,,,,,,,,,,,,,,,,,,,,,,,,,,,,,
,,,,,,,,2023-08-16_08h50.05.115,HF_wild_card,2022.2.4,Win32,60.08532116,5a3adfb705f005000104d2a3,64d2fd46c836a06233681665,64dc7f737375467112b5d4b5,,,,,,,decisionTrl,resources/DR.BMP,resources/DG.BMP,Door3,0.36018527,-0.013888889,1,0,0,1.3286,optionRight,70,3885,2,29,0,29,0,1,,,,,,,,,,,,,,,,,,,,,,,,,,,,,,,,,,,,,,,
,,,,,,,,2023-08-16_08h50.05.115,HF_wild_card,2022.2.4,Win32,60.08532116,5a3adfb705f005000104d2a3,64d2fd46c836a06233681665,64dc7f737375467112b5d4b5,,,,,,,sngl,resources/Empty.png,resources/DBN.BMP,Door2,0.411111196,-0.00462963,1,0,0,1.4092,optionRight,40,3925,2,30,0,30,0,1,,,,,,,,,,,,,,,,,,,,,,,,,,,,,,,,,,,,,,,
,,,,,,,,2023-08-16_08h50.05.115,HF_wild_card,2022.2.4,Win32,60.08532116,5a3adfb705f005000104d2a3,64d2fd46c836a06233681665,64dc7f737375467112b5d4b5,,,,,,,decisionTrl,resources/DY.BMP,resources/DBN.BMP,Door2,0.415740826,0.037962949,1,0,0,1.7756,optionRight,40,3965,2,31,0,31,0,1,,,,,,,,,,,,,,,,,,,,,,,,,,,,,,,,,,,,,,,
,,,,,,,,2023-08-16_08h50.05.115,HF_wild_card,2022.2.4,Win32,60.08532116,5a3adfb705f005000104d2a3,64d2fd46c836a06233681665,64dc7f737375467112b5d4b5,,,,,,,ctch,resources/DY.BMP,resources/DR.BMP,Door4,0.415740826,-0.034259266,1,0,0,1.5921,optionRight,60,4025,2,32,0,32,0,1,,,,,,,,,,,,,,,,,,,,,,,,,,,,,,,,,,,,,,,
,,,,,,,,2023-08-16_08h50.05.115,HF_wild_card,2022.2.4,Win32,60.08532116,5a3adfb705f005000104d2a3,64d2fd46c836a06233681665,64dc7f737375467112b5d4b5,,,,,,,sngl,resources/Empty.png,resources/DG.BMP,Door3,0.374074159,0.00462963,1,0,0,1.2527,optionRight,70,4095,2,33,0,33,0,1,,,,,,,,,,,,,,,,,,,,,,,,,,,,,,,,,,,,,,,
,,,,,,,,2023-08-16_08h50.05.115,HF_wild_card,2022.2.4,Win32,60.08532116,5a3adfb705f005000104d2a3,64d2fd46c836a06233681665,64dc7f737375467112b5d4b5,,,,,,,decisionTrl,resources/DBN.BMP,resources/DP.BMP,WildCard_Ex,0.320370427,-0.029629637,1,0,0,1.3212,optionRight,5,4100,2,34,0,34,0,1,,,,,,,,,,,,,,,,,,,,,,,,,,,,,,,,,,,,,,,
,,,,,,,,2023-08-16_08h50.05.115,HF_wild_card,2022.2.4,Win32,60.08532116,5a3adfb705f005000104d2a3,64d2fd46c836a06233681665,64dc7f737375467112b5d4b5,,,,,,,decisionTrl,resources/DG.BMP,resources/DR.BMP,Door3,-0.348148134,-0.023148148,1,0,0,1.9863,optionLeft,70,4170,2,35,0,35,0,1,,,,,,,,,,,,,,,,,,,,,,,,,,,,,,,,,,,,,,,
,,,,,,,,2023-08-16_08h50.05.115,HF_wild_card,2022.2.4,Win32,60.08532116,5a3adfb705f005000104d2a3,64d2fd46c836a06233681665,64dc7f737375467112b5d4b5,,,,,,,decisionTrl,resources/DBN.BMP,resources/DY.BMP,Door1,0.437037009,-0.006481489,1,0,0,1.8473,optionRight,30,4200,2,36,0,36,0,1,,,,,,,,,,,,,,,,,,,,,,,,,,,,,,,,,,,,,,,
,,,,,,,,2023-08-16_08h50.05.115,HF_wild_card,2022.2.4,Win32,60.08532116,5a3adfb705f005000104d2a3,64d2fd46c836a06233681665,64dc7f737375467112b5d4b5,,,,,,,decisionTrl,resources/DBN.BMP,resources/DY.BMP,Door2,-0.285185143,0,1,0,0,0.9259,optionLeft,40,4240,2,37,0,37,0,1,,,,,,,,,,,,,,,,,,,,,,,,,,,,,,,,,,,,,,,
,,,,,,,,2023-08-16_08h50.05.115,HF_wild_card,2022.2.4,Win32,60.08532116,5a3adfb705f005000104d2a3,64d2fd46c836a06233681665,64dc7f737375467112b5d4b5,,,,,,,decisionTrl,resources/DP.BMP,resources/DG.BMP,Door3,0.350926011,-0.012962977,1,0,0,1.4976,optionRight,70,4310,2,38,0,38,0,1,,,,,,,,,,,,,,,,,,,,,,,,,,,,,,,,,,,,,,,
,,,,,,,,2023-08-16_08h50.05.115,HF_wild_card,2022.2.4,Win32,60.08532116,5a3adfb705f005000104d2a3,64d2fd46c836a06233681665,64dc7f737375467112b5d4b5,,,,,,,sngl,resources/DG.BMP,resources/Empty.png,Door3,-0.303703697,-0.001851859,1,0,0,0.9709,optionLeft,70,4380,2,39,0,39,0,1,,,,,,,,,,,,,,,,,,,,,,,,,,,,,,,,,,,,,,,
,,,,,,,,2023-08-16_08h50.05.115,HF_wild_card,2022.2.4,Win32,60.08532116,5a3adfb705f005000104d2a3,64d2fd46c836a06233681665,64dc7f737375467112b5d4b5,,,,,,,sngl,resources/DP.BMP,resources/Empty.png,WildCard_Ex,-0.482407393,-0.008333347,1,0,0,1.4585,optionLeft,95,4475,2,40,0,40,0,1,,,,,,,,,,,,,,,,,,,,,,,,,,,,,,,,,,,,,,,
,,,,,,,,2023-08-16_08h50.05.115,HF_wild_card,2022.2.4,Win32,60.08532116,5a3adfb705f005000104d2a3,64d2fd46c836a06233681665,64dc7f737375467112b5d4b5,,,,,,,decisionTrl,resources/DP.BMP,resources/DR.BMP,WildCard_Ex,-0.385185171,-0.018518519,1,0,0,1.4476,optionLeft,5,4480,2,41,0,41,0,1,,,,,,,,,,,,,,,,,,,,,,,,,,,,,,,,,,,,,,,
,,,,,,,,2023-08-16_08h50.05.115,HF_wild_card,2022.2.4,Win32,60.08532116,5a3adfb705f005000104d2a3,64d2fd46c836a06233681665,64dc7f737375467112b5d4b5,,,,,,,decisionTrl,resources/DG.BMP,resources/DR.BMP,Door3,-0.368518511,-0.011111118,1,0,0,1.3143,optionLeft,70,4550,2,42,0,42,0,1,,,,,,,,,,,,,,,,,,,,,,,,,,,,,,,,,,,,,,,
,,,,,,,,2023-08-16_08h50.05.115,HF_wild_card,2022.2.4,Win32,60.08532116,5a3adfb705f005000104d2a3,64d2fd46c836a06233681665,64dc7f737375467112b5d4b5,,,,,,,decisionTrl,resources/DR.BMP,resources/DG.BMP,Door3,0.466666751,-0.006481489,1,0,0,1.5866,optionRight,70,4620,2,43,0,43,0,1,,,,,,,,,,,,,,,,,,,,,,,,,,,,,,,,,,,,,,,
,,,,,,,,2023-08-16_08h50.05.115,HF_wild_card,2022.2.4,Win32,60.08532116,5a3adfb705f005000104d2a3,64d2fd46c836a06233681665,64dc7f737375467112b5d4b5,,,,,,,,,,,,,,,,,,,,,,,,,,1,0,1,0,1,,,,,,,,,,,,,,,,,,,,,,,,,,,,,,,,,,
,,,,,,,,2023-08-16_08h50.05.115,HF_wild_card,2022.2.4,Win32,60.08532116,5a3adfb705f005000104d2a3,64d2fd46c836a06233681665,64dc7f737375467112b5d4b5,,,,,,,sngl,resources/Empty.png,resources/DP.BMP,WildCard_Ex,0.415740826,-0.025000007,1,0,0,1.8143,optionRight,5,4625,3,0,0,0,0,1,,,,,,,,,,,,,,,,,,,,,,,,,,,,,,,,,,,,,,,
,,,,,,,,2023-08-16_08h50.05.115,HF_wild_card,2022.2.4,Win32,60.08532116,5a3adfb705f005000104d2a3,64d2fd46c836a06233681665,64dc7f737375467112b5d4b5,,,,,,,decisionTrl,resources/DBN.BMP,resources/DY.BMP,Door2,-0.311111097,-0.064814815,1,0,0,1.965,optionLeft,20,4645,3,1,0,1,0,1,,,,,,,,,,,,,,,,,,,,,,,,,,,,,,,,,,,,,,,
,,,,,,,,2023-08-16_08h50.05.115,HF_wild_card,2022.2.4,Win32,60.08532116,5a3adfb705f005000104d2a3,64d2fd46c836a06233681665,64dc7f737375467112b5d4b5,,,,,,,decisionTrl,resources/DP.BMP,resources/DBN.BMP,Door2,0.375,0.017592571,1,0,0,1.7138,optionRight,40,4685,3,2,0,2,0,1,,,,,,,,,,,,,,,,,,,,,,,,,,,,,,,,,,,,,,,
,,,,,,,,2023-08-16_08h50.05.115,HF_wild_card,2022.2.4,Win32,60.08532116,5a3adfb705f005000104d2a3,64d2fd46c836a06233681665,64dc7f737375467112b5d4b5,,,,,,,sngl,resources/DG.BMP,resources/Empty.png,Door3,-0.419444437,-0.026851866,1,0,0,0.9141,optionLeft,70,4755,3,3,0,3,0,1,,,,,,,,,,,,,,,,,,,,,,,,,,,,,,,,,,,,,,,
,,,,,,,,2023-08-16_08h50.05.115,HF_wild_card,2022.2.4,Win32,60.08532116,5a3adfb705f005000104d2a3,64d2fd46c836a06233681665,64dc7f737375467112b5d4b5,,,,,,,ctch,resources/DR.BMP,resources/DY.BMP,Door4,-0.454629616,-0.038888896,1,0,0,1.376,optionLeft,60,4815,3,4,0,4,0,1,,,,,,,,,,,,,,,,,,,,,,,,,,,,,,,,,,,,,,,
,,,,,,,,2023-08-16_08h50.05.115,HF_wild_card,2022.2.4,Win32,60.08532116,5a3adfb705f005000104d2a3,64d2fd46c836a06233681665,64dc7f737375467112b5d4b5,,,,,,,ctch,resources/DY.BMP,resources/DR.BMP,Door4,0.371296353,-0.017592607,1,0,0,1.3103,optionRight,80,4895,3,5,0,5,0,1,,,,,,,,,,,,,,,,,,,,,,,,,,,,,,,,,,,,,,,
,,,,,,,,2023-08-16_08h50.05.115,HF_wild_card,2022.2.4,Win32,60.08532116,5a3adfb705f005000104d2a3,64d2fd46c836a06233681665,64dc7f737375467112b5d4b5,,,,,,,decisionTrl,resources/DR.BMP,resources/DG.BMP,Door4,-0.371296282,-0.017592607,1,0,0,1.1271,optionLeft,60,4955,3,6,0,6,0,1,,,,,,,,,,,,,,,,,,,,,,,,,,,,,,,,,,,,,,,
,,,,,,,,2023-08-16_08h50.05.115,HF_wild_card,2022.2.4,Win32,60.08532116,5a3adfb705f005000104d2a3,64d2fd46c836a06233681665,64dc7f737375467112b5d4b5,,,,,,,decisionTrl,resources/DY.BMP,resources/DBN.BMP,Door1,-0.357407393,0.037037037,1,0,0,1.0937,optionLeft,30,4985,3,7,0,7,0,1,,,,,,,,,,,,,,,,,,,,,,,,,,,,,,,,,,,,,,,
,,,,,,,,2023-08-16_08h50.05.115,HF_wild_card,2022.2.4,Win32,60.08532116,5a3adfb705f005000104d2a3,64d2fd46c836a06233681665,64dc7f737375467112b5d4b5,,,,,,,sngl,resources/DY.BMP,resources/Empty.png,Door1,-0.468518504,-0.054629644,1,0,0,0.8463,optionLeft,30,5015,3,8,0,8,0,1,,,,,,,,,,,,,,,,,,,,,,,,,,,,,,,,,,,,,,,
,,,,,,,,2023-08-16_08h50.05.115,HF_wild_card,2022.2.4,Win32,60.08532116,5a3adfb705f005000104d2a3,64d2fd46c836a06233681665,64dc7f737375467112b5d4b5,,,,,,,decisionTrl,resources/DBN.BMP,resources/DP.BMP,Door2,-0.253703718,-0.017592607,1,0,0,1.9544,optionLeft,20,5035,3,9,0,9,0,1,,,,,,,,,,,,,,,,,,,,,,,,,,,,,,,,,,,,,,,
,,,,,,,,2023-08-16_08h50.05.115,HF_wild_card,2022.2.4,Win32,60.08532116,5a3adfb705f005000104d2a3,64d2fd46c836a06233681665,64dc7f737375467112b5d4b5,,,,,,,decisionTrl,resources/DR.BMP,resources/DG.BMP,Door4,-0.424074067,-0.052777785,1,0,0,1.4573,optionLeft,60,5095,3,10,0,10,0,1,,,,,,,,,,,,,,,,,,,,,,,,,,,,,,,,,,,,,,,
,,,,,,,,2023-08-16_08h50.05.115,HF_wild_card,2022.2.4,Win32,60.08532116,5a3adfb705f005000104d2a3,64d2fd46c836a06233681665,64dc7f737375467112b5d4b5,,,,,,,decisionTrl,resources/DBN.BMP,resources/DY.BMP,Door2,-0.410185178,0.039814808,1,0,0,1.4387,optionLeft,40,5135,3,11,0,11,0,1,,,,,,,,,,,,,,,,,,,,,,,,,,,,,,,,,,,,,,,
,,,,,,,,2023-08-16_08h50.05.115,HF_wild_card,2022.2.4,Win32,60.08532116,5a3adfb705f005000104d2a3,64d2fd46c836a06233681665,64dc7f737375467112b5d4b5,,,,,,,decisionTrl,resources/DY.BMP,resources/DBN.BMP,Door2,0.311111168,-0.048148155,1,0,0,0.9565,optionRight,40,5175,3,12,0,12,0,1,,,,,,,,,,,,,,,,,,,,,,,,,,,,,,,,,,,,,,,
,,,,,,,,2023-08-16_08h50.05.115,HF_wild_card,2022.2.4,Win32,60.08532116,5a3adfb705f005000104d2a3,64d2fd46c836a06233681665,64dc7f737375467112b5d4b5,,,,,,,sngl,resources/DR.BMP,resources/Empty.png,Door4,-0.27870369,-0.009259259,1,0,0,1.1718,optionLeft,80,5255,3,13,0,13,0,1,,,,,,,,,,,,,,,,,,,,,,,,,,,,,,,,,,,,,,,
,,,,,,,,2023-08-16_08h50.05.115,HF_wild_card,2022.2.4,Win32,60.08532116,5a3adfb705f005000104d2a3,64d2fd46c836a06233681665,64dc7f737375467112b5d4b5,,,,,,,sngl,resources/DBN.BMP,resources/Empty.png,Door2,-0.283333319,0.014814801,1,0,0,1.1589,optionLeft,40,5295,3,14,0,14,0,1,,,,,,,,,,,,,,,,,,,,,,,,,,,,,,,,,,,,,,,
,,,,,,,,2023-08-16_08h50.05.115,HF_wild_card,2022.2.4,Win32,60.08532116,5a3adfb705f005000104d2a3,64d2fd46c836a06233681665,64dc7f737375467112b5d4b5,,,,,,,ctch,resources/DBN.BMP,resources/DG.BMP,Door3,0.40370376,-0.009259259,1,0,0,2.4403,optionRight,70,5365,3,15,0,15,0,1,,,,,,,,,,,,,,,,,,,,,,,,,,,,,,,,,,,,,,,
,,,,,,,,2023-08-16_08h50.05.115,HF_wild_card,2022.2.4,Win32,60.08532116,5a3adfb705f005000104d2a3,64d2fd46c836a06233681665,64dc7f737375467112b5d4b5,,,,,,,decisionTrl,resources/DG.BMP,resources/DR.BMP,Door3,-0.005555541,0.000925912,1,0,0,0.476,optionLeft,70,5435,3,16,0,16,0,1,,,,,,,,,,,,,,,,,,,,,,,,,,,,,,,,,,,,,,,
,,,,,,,,2023-08-16_08h50.05.115,HF_wild_card,2022.2.4,Win32,60.08532116,5a3adfb705f005000104d2a3,64d2fd46c836a06233681665,64dc7f737375467112b5d4b5,,,,,,,decisionTrl,resources/DY.BMP,resources/DBN.BMP,Door2,0.452777863,0.01203703,1,0,0,2.7856,optionRight,20,5455,3,17,0,17,0,1,,,,,,,,,,,,,,,,,,,,,,,,,,,,,,,,,,,,,,,
,,,,,,,,2023-08-16_08h50.05.115,HF_wild_card,2022.2.4,Win32,60.08532116,5a3adfb705f005000104d2a3,64d2fd46c836a06233681665,64dc7f737375467112b5d4b5,,,,,,,sngl,resources/Empty.png,resources/DY.BMP,Door1,0.352777834,0.01944443,1,0,0,1.6374,optionRight,30,5485,3,18,0,18,0,1,,,,,,,,,,,,,,,,,,,,,,,,,,,,,,,,,,,,,,,
,,,,,,,,2023-08-16_08h50.05.115,HF_wild_card,2022.2.4,Win32,60.08532116,5a3adfb705f005000104d2a3,64d2fd46c836a06233681665,64dc7f737375467112b5d4b5,,,,,,,decisionTrl,resources/DR.BMP,resources/DG.BMP,Door3,0.454629686,-0.018518519,1,0,0,1.9901,optionRight,70,5555,3,19,0,19,0,1,,,,,,,,,,,,,,,,,,,,,,,,,,,,,,,,,,,,,,,
,,,,,,,,2023-08-16_08h50.05.115,HF_wild_card,2022.2.4,Win32,60.08532116,5a3adfb705f005000104d2a3,64d2fd46c836a06233681665,64dc7f737375467112b5d4b5,,,,,,,sngl,resources/Empty.png,resources/DR.BMP,Door4,0.376851824,-0.027777778,1,0,0,1.3756,optionRight,60,5615,3,20,0,20,0,1,,,,,,,,,,,,,,,,,,,,,,,,,,,,,,,,,,,,,,,
,,,,,,,,2023-08-16_08h50.05.115,HF_wild_card,2022.2.4,Win32,60.08532116,5a3adfb705f005000104d2a3,64d2fd46c836a06233681665,64dc7f737375467112b5d4b5,,,,,,,sngl,resources/Empty.png,resources/DBN.BMP,Door2,0.346296381,0.0074074,1,0,0,1.2101,optionRight,20,5635,3,21,0,21,0,1,,,,,,,,,,,,,,,,,,,,,,,,,,,,,,,,,,,,,,,
,,,,,,,,2023-08-16_08h50.05.115,HF_wild_card,2022.2.4,Win32,60.08532116,5a3adfb705f005000104d2a3,64d2fd46c836a06233681665,64dc7f737375467112b5d4b5,,,,,,,ctch,resources/DG.BMP,resources/DBN.BMP,Door3,-0.303703697,-0.006481489,1,0,0,1.1756,optionLeft,70,5705,3,22,0,22,0,1,,,,,,,,,,,,,,,,,,,,,,,,,,,,,,,,,,,,,,,
,,,,,,,,2023-08-16_08h50.05.115,HF_wild_card,2022.2.4,Win32,60.08532116,5a3adfb705f005000104d2a3,64d2fd46c836a06233681665,64dc7f737375467112b5d4b5,,,,,,,decisionTrl,resources/DG.BMP,resources/DP.BMP,Door3,-0.424074067,0.044444437,0,0,1,2.6672,optionLeft,70,5775,3,23,0,23,0,1,,,,,,,,,,,,,,,,,,,,,,,,,,,,,,,,,,,,,,,
,,,,,,,,2023-08-16_08h50.05.115,HF_wild_card,2022.2.4,Win32,60.08532116,5a3adfb705f005000104d2a3,64d2fd46c836a06233681665,64dc7f737375467112b5d4b5,,,,,,,decisionTrl,resources/DP.BMP,resources/DY.BMP,WildCard_Ex,-0.354629623,-0.022222236,0,0,1,1.508,optionLeft,5,5780,3,24,0,24,0,1,,,,,,,,,,,,,,,,,,,,,,,,,,,,,,,,,,,,,,,
,,,,,,,,2023-08-16_08h50.05.115,HF_wild_card,2022.2.4,Win32,60.08532116,5a3adfb705f005000104d2a3,64d2fd46c836a06233681665,64dc7f737375467112b5d4b5,,,,,,,decisionTrl,resources/DBN.BMP,resources/DY.BMP,Door1,0.3648149,-0.006481489,1,0,0,1.5138,optionRight,30,5810,3,25,0,25,0,1,,,,,,,,,,,,,,,,,,,,,,,,,,,,,,,,,,,,,,,
,,,,,,,,2023-08-16_08h50.05.115,HF_wild_card,2022.2.4,Win32,60.08532116,5a3adfb705f005000104d2a3,64d2fd46c836a06233681665,64dc7f737375467112b5d4b5,,,,,,,decisionTrl,resources/DY.BMP,resources/DBN.BMP,Door1,-0.215740698,0.01203703,1,0,0,1.2608,optionLeft,30,5840,3,26,0,26,0,1,,,,,,,,,,,,,,,,,,,,,,,,,,,,,,,,,,,,,,,
,,,,,,,,2023-08-16_08h50.05.115,HF_wild_card,2022.2.4,Win32,60.08532116,5a3adfb705f005000104d2a3,64d2fd46c836a06233681665,64dc7f737375467112b5d4b5,,,,,,,decisionTrl,resources/DBN.BMP,resources/DY.BMP,Door2,-0.324999986,0.065740727,0,0,1,1.1976,optionLeft,20,5860,3,27,0,27,0,1,,,,,,,,,,,,,,,,,,,,,,,,,,,,,,,,,,,,,,,
,,,,,,,,2023-08-16_08h50.05.115,HF_wild_card,2022.2.4,Win32,60.08532116,5a3adfb705f005000104d2a3,64d2fd46c836a06233681665,64dc7f737375467112b5d4b5,,,,,,,ctch,resources/DR.BMP,resources/DY.BMP,Door4,-0.417592578,-0.025000007,1,0,0,1.0681,optionLeft,60,5920,3,28,0,28,0,1,,,,,,,,,,,,,,,,,,,,,,,,,,,,,,,,,,,,,,,
,,,,,,,,2023-08-16_08h50.05.115,HF_wild_card,2022.2.4,Win32,60.08532116,5a3adfb705f005000104d2a3,64d2fd46c836a06233681665,64dc7f737375467112b5d4b5,,,,,,,decisionTrl,resources/DG.BMP,resources/DR.BMP,Door3,-0.397222201,0.002777771,1,0,0,1.8799,optionLeft,70,5990,3,29,0,29,0,1,,,,,,,,,,,,,,,,,,,,,,,,,,,,,,,,,,,,,,,
,,,,,,,,2023-08-16_08h50.05.115,HF_wild_card,2022.2.4,Win32,60.08532116,5a3adfb705f005000104d2a3,64d2fd46c836a06233681665,64dc7f737375467112b5d4b5,,,,,,,decisionTrl,resources/DP.BMP,resources/DG.BMP,Door3,0.371296353,0.0074074,1,0,0,1.2393,optionRight,70,6060,3,30,0,30,0,1,,,,,,,,,,,,,,,,,,,,,,,,,,,,,,,,,,,,,,,
,,,,,,,,2023-08-16_08h50.05.115,HF_wild_card,2022.2.4,Win32,60.08532116,5a3adfb705f005000104d2a3,64d2fd46c836a06233681665,64dc7f737375467112b5d4b5,,,,,,,sngl,resources/Empty.png,resources/DP.BMP,WildCard_Ex,0.459259316,-0.008333347,1,0,0,0.8765,optionRight,95,6155,3,31,0,31,0,1,,,,,,,,,,,,,,,,,,,,,,,,,,,,,,,,,,,,,,,
,,,,,,,,2023-08-16_08h50.05.115,HF_wild_card,2022.2.4,Win32,60.08532116,5a3adfb705f005000104d2a3,64d2fd46c836a06233681665,64dc7f737375467112b5d4b5,,,,,,,decisionTrl,resources/DR.BMP,resources/DP.BMP,Door4,-0.280555513,-0.025000007,1,0,0,0.8866,optionLeft,60,6215,3,32,0,32,0,1,,,,,,,,,,,,,,,,,,,,,,,,,,,,,,,,,,,,,,,
,,,,,,,,2023-08-16_08h50.05.115,HF_wild_card,2022.2.4,Win32,60.08532116,5a3adfb705f005000104d2a3,64d2fd46c836a06233681665,64dc7f737375467112b5d4b5,,,,,,,decisionTrl,resources/DG.BMP,resources/DR.BMP,Door3,-0.315740727,-0.018518519,1,0,0,1.0397,optionLeft,70,6285,3,33,0,33,0,1,,,,,,,,,,,,,,,,,,,,,,,,,,,,,,,,,,,,,,,
,,,,,,,,2023-08-16_08h50.05.115,HF_wild_card,2022.2.4,Win32,60.08532116,5a3adfb705f005000104d2a3,64d2fd46c836a06233681665,64dc7f737375467112b5d4b5,,,,,,,decisionTrl,resources/DG.BMP,resources/DR.BMP,Door3,-0.408333319,0.005555541,1,0,0,1.3218,optionLeft,70,6355,3,34,0,34,0,1,,,,,,,,,,,,,,,,,,,,,,,,,,,,,,,,,,,,,,,
,,,,,,,,2023-08-16_08h50.05.115,HF_wild_card,2022.2.4,Win32,60.08532116,5a3adfb705f005000104d2a3,64d2fd46c836a06233681665,64dc7f737375467112b5d4b5,,,,,,,decisionTrl,resources/DP.BMP,resources/DR.BMP,WildCard_Ex,-0.371296282,-0.029629637,1,0,0,1.4987,optionLeft,5,6360,3,35,0,35,0,1,,,,,,,,,,,,,,,,,,,,,,,,,,,,,,,,,,,,,,,
,,,,,,,,2023-08-16_08h50.05.115,HF_wild_card,2022.2.4,Win32,60.08532116,5a3adfb705f005000104d2a3,64d2fd46c836a06233681665,64dc7f737375467112b5d4b5,,,,,,,ctch,resources/DBN.BMP,resources/DG.BMP,Door3,0.508333418,0.039814808,1,0,0,1.0932,optionRight,70,6430,3,36,0,36,0,1,,,,,,,,,,,,,,,,,,,,,,,,,,,,,,,,,,,,,,,
,,,,,,,,2023-08-16_08h50.05.115,HF_wild_card,2022.2.4,Win32,60.08532116,5a3adfb705f005000104d2a3,64d2fd46c836a06233681665,64dc7f737375467112b5d4b5,,,,,,,ctch,resources/DG.BMP,resources/DBN.BMP,Door3,-0.491666653,-0.041666667,1,0,0,1.1474,optionLeft,70,6500,3,37,0,37,0,1,,,,,,,,,,,,,,,,,,,,,,,,,,,,,,,,,,,,,,,
,,,,,,,,2023-08-16_08h50.05.115,HF_wild_card,2022.2.4,Win32,60.08532116,5a3adfb705f005000104d2a3,64d2fd46c836a06233681665,64dc7f737375467112b5d4b5,,,,,,,decisionTrl,resources/DY.BMP,resources/DP.BMP,Door1,-0.232407393,-0.011111118,1,0,0,1.8127,optionLeft,30,6530,3,38,0,38,0,1,,,,,,,,,,,,,,,,,,,,,,,,,,,,,,,,,,,,,,,
,,,,,,,,2023-08-16_08h50.05.115,HF_wild_card,2022.2.4,Win32,60.08532116,5a3adfb705f005000104d2a3,64d2fd46c836a06233681665,64dc7f737375467112b5d4b5,,,,,,,ctch,resources/DY.BMP,resources/DR.BMP,Door4,0.462037122,-0.011111118,1,0,0,1.1259,optionRight,80,6610,3,39,0,39,0,1,,,,,,,,,,,,,,,,,,,,,,,,,,,,,,,,,,,,,,,
,,,,,,,,2023-08-16_08h50.05.115,HF_wild_card,2022.2.4,Win32,60.08532116,5a3adfb705f005000104d2a3,64d2fd46c836a06233681665,64dc7f737375467112b5d4b5,,,,,,,sngl,resources/DP.BMP,resources/Empty.png,WildCard_Ex,-0.408333319,-0.011111118,1,0,0,0.8151,optionLeft,5,6615,3,40,0,40,0,1,,,,,,,,,,,,,,,,,,,,,,,,,,,,,,,,,,,,,,,
,,,,,,,,2023-08-16_08h50.05.115,HF_wild_card,2022.2.4,Win32,60.08532116,5a3adfb705f005000104d2a3,64d2fd46c836a06233681665,64dc7f737375467112b5d4b5,,,,,,,sngl,resources/DP.BMP,resources/Empty.png,WildCard_Ex,-0.209259245,-0.022222236,1,0,0,0.812,optionLeft,95,6710,3,41,0,41,0,1,,,,,,,,,,,,,,,,,,,,,,,,,,,,,,,,,,,,,,,
,,,,,,,,2023-08-16_08h50.05.115,HF_wild_card,2022.2.4,Win32,60.08532116,5a3adfb705f005000104d2a3,64d2fd46c836a06233681665,64dc7f737375467112b5d4b5,,,,,,,sngl,resources/Empty.png,resources/DG.BMP,Door3,0.318518603,-0.018518519,1,0,0,1.2607,optionRight,70,6780,3,42,0,42,0,1,,,,,,,,,,,,,,,,,,,,,,,,,,,,,,,,,,,,,,,
,,,,,,,,2023-08-16_08h50.05.115,HF_wild_card,2022.2.4,Win32,60.08532116,5a3adfb705f005000104d2a3,64d2fd46c836a06233681665,64dc7f737375467112b5d4b5,,,,,,,decisionTrl,resources/DR.BMP,resources/DG.BMP,Door3,0.309259344,-0.006481489,1,0,0,1.5199,optionRight,70,6850,3,43,0,43,0,1,,,,,,,,,,,,,,,,,,,,,,,,,,,,,,,,,,,,,,,
,,,,,,,,2023-08-16_08h50.05.115,HF_wild_card,2022.2.4,Win32,60.08532116,5a3adfb705f005000104d2a3,64d2fd46c836a06233681665,64dc7f737375467112b5d4b5,,,,,,,,,,,,,,,,,,,,,,,,,,2,0,2,0,1,,,,,,,,,,,,,,,,,,,,,,,,,,,,,,,,,,
,,,,,,,,2023-08-16_08h50.05.115,HF_wild_card,2022.2.4,Win32,60.08532116,5a3adfb705f005000104d2a3,64d2fd46c836a06233681665,64dc7f737375467112b5d4b5,,,,,,,decisionTrl,resources/DB.BMP,resources/DR.BMP,WildCard_NonEx,-0.368518511,-0.048148155,0,0,1,2.6811,optionLeft,45,6895,4,0,0,0,0,1,,,,,,,,,,,,,,,,,,,,,,,,,,,,,,,,,,,,,,,
,,,,,,,,2023-08-16_08h50.05.115,HF_wild_card,2022.2.4,Win32,60.08532116,5a3adfb705f005000104d2a3,64d2fd46c836a06233681665,64dc7f737375467112b5d4b5,,,,,,,sngl,resources/Empty.png,resources/DBN.BMP,Door2,0.469444416,0.065740727,1,0,0,0.9797,optionRight,40,6935,4,1,0,1,0,1,,,,,,,,,,,,,,,,,,,,,,,,,,,,,,,,,,,,,,,
,,,,,,,,2023-08-16_08h50.05.115,HF_wild_card,2022.2.4,Win32,60.08532116,5a3adfb705f005000104d2a3,64d2fd46c836a06233681665,64dc7f737375467112b5d4b5,,,,,,,ctch,resources/DY.BMP,resources/DR.BMP,Door4,0.522222307,0.025925919,1,0,0,1.4415,optionRight,80,7015,4,2,0,2,0,1,,,,,,,,,,,,,,,,,,,,,,,,,,,,,,,,,,,,,,,
,,,,,,,,2023-08-16_08h50.05.115,HF_wild_card,2022.2.4,Win32,60.08532116,5a3adfb705f005000104d2a3,64d2fd46c836a06233681665,64dc7f737375467112b5d4b5,,,,,,,ctch,resources/DR.BMP,resources/DY.BMP,Door4,-0.514814801,-0.026851866,1,0,0,0.8057,optionLeft,60,7075,4,3,0,3,0,1,,,,,,,,,,,,,,,,,,,,,,,,,,,,,,,,,,,,,,,
,,,,,,,,2023-08-16_08h50.05.115,HF_wild_card,2022.2.4,Win32,60.08532116,5a3adfb705f005000104d2a3,64d2fd46c836a06233681665,64dc7f737375467112b5d4b5,,,,,,,decisionTrl,resources/DR.BMP,resources/DG.BMP,Door3,0.366666723,0.039814808,1,0,0,1.0864,optionRight,70,7145,4,4,0,4,0,1,,,,,,,,,,,,,,,,,,,,,,,,,,,,,,,,,,,,,,,
,,,,,,,,2023-08-16_08h50.05.115,HF_wild_card,2022.2.4,Win32,60.08532116,5a3adfb705f005000104d2a3,64d2fd46c836a06233681665,64dc7f737375467112b5d4b5,,,,,,,decisionTrl,resources/DB.BMP,resources/DG.BMP,Door3,0.389814871,-0.041666667,1,0,0,3.8936,optionRight,70,7215,4,5,0,5,0,1,,,,,,,,,,,,,,,,,,,,,,,,,,,,,,,,,,,,,,,
,,,,,,,,2023-08-16_08h50.05.115,HF_wild_card,2022.2.4,Win32,60.08532116,5a3adfb705f005000104d2a3,64d2fd46c836a06233681665,64dc7f737375467112b5d4b5,,,,,,,decisionTrl,resources/DG.BMP,resources/DR.BMP,Door3,-0.408333319,-0.020370377,1,0,0,1.2749,optionLeft,70,7285,4,6,0,6,0,1,,,,,,,,,,,,,,,,,,,,,,,,,,,,,,,,,,,,,,,
,,,,,,,,2023-08-16_08h50.05.115,HF_wild_card,2022.2.4,Win32,60.08532116,5a3adfb705f005000104d2a3,64d2fd46c836a06233681665,64dc7f737375467112b5d4b5,,,,,,,decisionTrl,resources/DBN.BMP,resources/DY.BMP,Door1,0.389814871,-0.066666674,1,0,0,1.1314,optionRight,30,7315,4,7,0,7,0,1,,,,,,,,,,,,,,,,,,,,,,,,,,,,,,,,,,,,,,,
,,,,,,,,2023-08-16_08h50.05.115,HF_wild_card,2022.2.4,Win32,60.08532116,5a3adfb705f005000104d2a3,64d2fd46c836a06233681665,64dc7f737375467112b5d4b5,,,,,,,decisionTrl,resources/DR.BMP,resources/DG.BMP,Door3,0.420370455,0.058333326,1,0,0,1.3701,optionRight,70,7385,4,8,0,8,0,1,,,,,,,,,,,,,,,,,,,,,,,,,,,,,,,,,,,,,,,
,,,,,,,,2023-08-16_08h50.05.115,HF_wild_card,2022.2.4,Win32,60.08532116,5a3adfb705f005000104d2a3,64d2fd46c836a06233681665,64dc7f737375467112b5d4b5,,,,,,,decisionTrl,resources/DY.BMP,resources/DB.BMP,WildCard_NonEx,0.52870376,0.053703697,1,0,0,1.244,optionRight,45,7430,4,9,0,9,0,1,,,,,,,,,,,,,,,,,,,,,,,,,,,,,,,,,,,,,,,
,,,,,,,,2023-08-16_08h50.05.115,HF_wild_card,2022.2.4,Win32,60.08532116,5a3adfb705f005000104d2a3,64d2fd46c836a06233681665,64dc7f737375467112b5d4b5,,,,,,,sngl,resources/DR.BMP,resources/Empty.png,Door4,-0.27407406,-0.001851859,1,0,0,1.1548,optionLeft,60,7490,4,10,0,10,0,1,,,,,,,,,,,,,,,,,,,,,,,,,,,,,,,,,,,,,,,
,,,,,,,,2023-08-16_08h50.05.115,HF_wild_card,2022.2.4,Win32,60.08532116,5a3adfb705f005000104d2a3,64d2fd46c836a06233681665,64dc7f737375467112b5d4b5,,,,,,,sngl,resources/DG.BMP,resources/Empty.png,Door3,-0.211111069,-0.003703718,1,0,0,0.9438,optionLeft,70,7560,4,11,0,11,0,1,,,,,,,,,,,,,,,,,,,,,,,,,,,,,,,,,,,,,,,
,,,,,,,,2023-08-16_08h50.05.115,HF_wild_card,2022.2.4,Win32,60.08532116,5a3adfb705f005000104d2a3,64d2fd46c836a06233681665,64dc7f737375467112b5d4b5,,,,,,,decisionTrl,resources/DY.BMP,resources/DBN.BMP,Door1,-0.271296254,-0.012962977,1,0,0,1.173,optionLeft,30,7590,4,12,0,12,0,1,,,,,,,,,,,,,,,,,,,,,,,,,,,,,,,,,,,,,,,
,,,,,,,,2023-08-16_08h50.05.115,HF_wild_card,2022.2.4,Win32,60.08532116,5a3adfb705f005000104d2a3,64d2fd46c836a06233681665,64dc7f737375467112b5d4b5,,,,,,,ctch,resources/DY.BMP,resources/DR.BMP,Door4,0.262962977,-0.09629631,1,0,0,0.9144,optionRight,80,7670,4,13,0,13,0,1,,,,,,,,,,,,,,,,,,,,,,,,,,,,,,,,,,,,,,,
,,,,,,,,2023-08-16_08h50.05.115,HF_wild_card,2022.2.4,Win32,60.08532116,5a3adfb705f005000104d2a3,64d2fd46c836a06233681665,64dc7f737375467112b5d4b5,,,,,,,ctch,resources/DG.BMP,resources/DBN.BMP,Door3,-0.264814801,0.009259259,1,0,0,1.1439,optionLeft,70,7740,4,14,0,14,0,1,,,,,,,,,,,,,,,,,,,,,,,,,,,,,,,,,,,,,,,
,,,,,,,,2023-08-16_08h50.05.115,HF_wild_card,2022.2.4,Win32,60.08532116,5a3adfb705f005000104d2a3,64d2fd46c836a06233681665,64dc7f737375467112b5d4b5,,,,,,,decisionTrl,resources/DG.BMP,resources/DR.BMP,Door4,0.343518575,-0.026851866,1,0,0,1.4046,optionRight,60,7800,4,15,0,15,0,1,,,,,,,,,,,,,,,,,,,,,,,,,,,,,,,,,,,,,,,
,,,,,,,,2023-08-16_08h50.05.115,HF_wild_card,2022.2.4,Win32,60.08532116,5a3adfb705f005000104d2a3,64d2fd46c836a06233681665,64dc7f737375467112b5d4b5,,,,,,,decisionTrl,resources/DB.BMP,resources/DY.BMP,Door1,0.383333418,0.02407406,1,0,0,1.5146,optionRight,30,7830,4,16,0,16,0,1,,,,,,,,,,,,,,,,,,,,,,,,,,,,,,,,,,,,,,,
,,,,,,,,2023-08-16_08h50.05.115,HF_wild_card,2022.2.4,Win32,60.08532116,5a3adfb705f005000104d2a3,64d2fd46c836a06233681665,64dc7f737375467112b5d4b5,,,,,,,sngl,resources/Empty.png,resources/DR.BMP,Door4,0.371296353,-0.022222236,1,0,0,0.8598,optionRight,80,7910,4,17,0,17,0,1,,,,,,,,,,,,,,,,,,,,,,,,,,,,,,,,,,,,,,,
,,,,,,,,2023-08-16_08h50.05.115,HF_wild_card,2022.2.4,Win32,60.08532116,5a3adfb705f005000104d2a3,64d2fd46c836a06233681665,64dc7f737375467112b5d4b5,,,,,,,sngl,resources/DB.BMP,resources/Empty.png,WildCard_NonEx,-0.627777771,-0.071296303,1,0,0,1.0383,optionLeft,55,7965,4,18,0,18,0,1,,,,,,,,,,,,,,,,,,,,,,,,,,,,,,,,,,,,,,,
,,,,,,,,2023-08-16_08h50.05.115,HF_wild_card,2022.2.4,Win32,60.08532116,5a3adfb705f005000104d2a3,64d2fd46c836a06233681665,64dc7f737375467112b5d4b5,,,,,,,decisionTrl,resources/DBN.BMP,resources/DY.BMP,Door2,-0.653703707,0.014814801,1,0,0,1.5264,optionLeft,40,8005,4,19,0,19,0,1,,,,,,,,,,,,,,,,,,,,,,,,,,,,,,,,,,,,,,,
,,,,,,,,2023-08-16_08h50.05.115,HF_wild_card,2022.2.4,Win32,60.08532116,5a3adfb705f005000104d2a3,64d2fd46c836a06233681665,64dc7f737375467112b5d4b5,,,,,,,decisionTrl,resources/DBN.BMP,resources/DB.BMP,WildCard_NonEx,0.436111168,0.000925912,1,0,0,0.8485,optionRight,55,8060,4,20,0,20,0,1,,,,,,,,,,,,,,,,,,,,,,,,,,,,,,,,,,,,,,,
,,,,,,,,2023-08-16_08h50.05.115,HF_wild_card,2022.2.4,Win32,60.08532116,5a3adfb705f005000104d2a3,64d2fd46c836a06233681665,64dc7f737375467112b5d4b5,,,,,,,decisionTrl,resources/DR.BMP,resources/DG.BMP,Door4,-0.209259245,0.025925919,1,0,0,1.0733,optionLeft,80,8140,4,21,0,21,0,1,,,,,,,,,,,,,,,,,,,,,,,,,,,,,,,,,,,,,,,
,,,,,,,,2023-08-16_08h50.05.115,HF_wild_card,2022.2.4,Win32,60.08532116,5a3adfb705f005000104d2a3,64d2fd46c836a06233681665,64dc7f737375467112b5d4b5,,,,,,,decisionTrl,resources/DBN.BMP,resources/DY.BMP,Door2,-0.15370369,0.01666666,1,0,0,1.1817,optionLeft,40,8180,4,22,0,22,0,1,,,,,,,,,,,,,,,,,,,,,,,,,,,,,,,,,,,,,,,
,,,,,,,,2023-08-16_08h50.05.115,HF_wild_card,2022.2.4,Win32,60.08532116,5a3adfb705f005000104d2a3,64d2fd46c836a06233681665,64dc7f737375467112b5d4b5,,,,,,,ctch,resources/DR.BMP,resources/DY.BMP,Door4,-0.213888875,-0.018518519,1,0,0,1.0875,optionLeft,80,8260,4,23,0,23,0,1,,,,,,,,,,,,,,,,,,,,,,,,,,,,,,,,,,,,,,,
,,,,,,,,2023-08-16_08h50.05.115,HF_wild_card,2022.2.4,Win32,60.08532116,5a3adfb705f005000104d2a3,64d2fd46c836a06233681665,64dc7f737375467112b5d4b5,,,,,,,decisionTrl,resources/DG.BMP,resources/DB.BMP,Door3,-0.389814801,0,1,0,0,1.8232,optionLeft,70,8330,4,24,0,24,0,1,,,,,,,,,,,,,,,,,,,,,,,,,,,,,,,,,,,,,,,
,,,,,,,,2023-08-16_08h50.05.115,HF_wild_card,2022.2.4,Win32,60.08532116,5a3adfb705f005000104d2a3,64d2fd46c836a06233681665,64dc7f737375467112b5d4b5,,,,,,,decisionTrl,resources/DG.BMP,resources/DR.BMP,Door3,-0.19259255,-0.003703718,1,0,0,1.0579,optionLeft,70,8400,4,25,0,25,0,1,,,,,,,,,,,,,,,,,,,,,,,,,,,,,,,,,,,,,,,
,,,,,,,,2023-08-16_08h50.05.115,HF_wild_card,2022.2.4,Win32,60.08532116,5a3adfb705f005000104d2a3,64d2fd46c836a06233681665,64dc7f737375467112b5d4b5,,,,,,,sngl,resources/Empty.png,resources/DB.BMP,WildCard_NonEx,0.366666723,0.0074074,1,0,0,1.1419,optionRight,55,8455,4,26,0,26,0,1,,,,,,,,,,,,,,,,,,,,,,,,,,,,,,,,,,,,,,,
,,,,,,,,2023-08-16_08h50.05.115,HF_wild_card,2022.2.4,Win32,60.08532116,5a3adfb705f005000104d2a3,64d2fd46c836a06233681665,64dc7f737375467112b5d4b5,,,,,,,sngl,resources/Empty.png,resources/DY.BMP,Door1,0.22129631,0.000925912,1,0,0,1.2903,optionRight,30,8485,4,27,0,27,0,1,,,,,,,,,,,,,,,,,,,,,,,,,,,,,,,,,,,,,,,
,,,,,,,,2023-08-16_08h50.05.115,HF_wild_card,2022.2.4,Win32,60.08532116,5a3adfb705f005000104d2a3,64d2fd46c836a06233681665,64dc7f737375467112b5d4b5,,,,,,,ctch,resources/DBN.BMP,resources/DG.BMP,Door3,0.287962949,-0.029629637,1,0,0,1.2549,optionRight,70,8555,4,28,0,28,0,1,,,,,,,,,,,,,,,,,,,,,,,,,,,,,,,,,,,,,,,
,,,,,,,,2023-08-16_08h50.05.115,HF_wild_card,2022.2.4,Win32,60.08532116,5a3adfb705f005000104d2a3,64d2fd46c836a06233681665,64dc7f737375467112b5d4b5,,,,,,,decisionTrl,resources/DG.BMP,resources/DR.BMP,Door3,-0.266666624,0.0074074,1,0,0,0.8434,optionLeft,70,8625,4,29,0,29,0,1,,,,,,,,,,,,,,,,,,,,,,,,,,,,,,,,,,,,,,,
,,,,,,,,2023-08-16_08h50.05.115,HF_wild_card,2022.2.4,Win32,60.08532116,5a3adfb705f005000104d2a3,64d2fd46c836a06233681665,64dc7f737375467112b5d4b5,,,,,,,ctch,resources/DBN.BMP,resources/DG.BMP,Door3,0.313888974,0.009259259,1,0,0,1.128,optionRight,70,8695,4,30,0,30,0,1,,,,,,,,,,,,,,,,,,,,,,,,,,,,,,,,,,,,,,,
,,,,,,,,2023-08-16_08h50.05.115,HF_wild_card,2022.2.4,Win32,60.08532116,5a3adfb705f005000104d2a3,64d2fd46c836a06233681665,64dc7f737375467112b5d4b5,,,,,,,decisionTrl,resources/DBN.BMP,resources/DY.BMP,Door2,-0.401851831,0.049074067,0,0,1,1.4664,optionLeft,20,8715,4,31,0,31,0,1,,,,,,,,,,,,,,,,,,,,,,,,,,,,,,,,,,,,,,,
,,,,,,,,2023-08-16_08h50.05.115,HF_wild_card,2022.2.4,Win32,60.08532116,5a3adfb705f005000104d2a3,64d2fd46c836a06233681665,64dc7f737375467112b5d4b5,,,,,,,sngl,resources/DY.BMP,resources/Empty.png,Door1,-0.190740727,0,1,0,0,0.8964,optionLeft,30,8745,4,32,0,32,0,1,,,,,,,,,,,,,,,,,,,,,,,,,,,,,,,,,,,,,,,
,,,,,,,,2023-08-16_08h50.05.115,HF_wild_card,2022.2.4,Win32,60.08532116,5a3adfb705f005000104d2a3,64d2fd46c836a06233681665,64dc7f737375467112b5d4b5,,,,,,,sngl,resources/DB.BMP,resources/Empty.png,WildCard_NonEx,-0.190740727,0.044444437,1,0,0,0.7477,optionLeft,45,8790,4,33,0,33,0,1,,,,,,,,,,,,,,,,,,,,,,,,,,,,,,,,,,,,,,,
,,,,,,,,2023-08-16_08h50.05.115,HF_wild_card,2022.2.4,Win32,60.08532116,5a3adfb705f005000104d2a3,64d2fd46c836a06233681665,64dc7f737375467112b5d4b5,,,,,,,decisionTrl,resources/DY.BMP,resources/DBN.BMP,Door1,-0.320370356,0.02870369,1,0,0,1.4493,optionLeft,30,8820,4,34,0,34,0,1,,,,,,,,,,,,,,,,,,,,,,,,,,,,,,,,,,,,,,,
,,,,,,,,2023-08-16_08h50.05.115,HF_wild_card,2022.2.4,Win32,60.08532116,5a3adfb705f005000104d2a3,64d2fd46c836a06233681665,64dc7f737375467112b5d4b5,,,,,,,sngl,resources/Empty.png,resources/DB.BMP,WildCard_NonEx,0.429629714,0.002777771,1,0,0,0.8756,optionRight,45,8865,4,35,0,35,0,1,,,,,,,,,,,,,,,,,,,,,,,,,,,,,,,,,,,,,,,
,,,,,,,,2023-08-16_08h50.05.115,HF_wild_card,2022.2.4,Win32,60.08532116,5a3adfb705f005000104d2a3,64d2fd46c836a06233681665,64dc7f737375467112b5d4b5,,,,,,,decisionTrl,resources/DR.BMP,resources/DB.BMP,Door4,-0.264814801,-0.025000007,1,0,0,1.0705,optionLeft,80,8945,4,36,0,36,0,1,,,,,,,,,,,,,,,,,,,,,,,,,,,,,,,,,,,,,,,
,,,,,,,,2023-08-16_08h50.05.115,HF_wild_card,2022.2.4,Win32,60.08532116,5a3adfb705f005000104d2a3,64d2fd46c836a06233681665,64dc7f737375467112b5d4b5,,,,,,,ctch,resources/DG.BMP,resources/DBN.BMP,Door3,-0.243518476,-0.032407407,1,0,0,1.5869,optionLeft,70,9015,4,37,0,37,0,1,,,,,,,,,,,,,,,,,,,,,,,,,,,,,,,,,,,,,,,
,,,,,,,,2023-08-16_08h50.05.115,HF_wild_card,2022.2.4,Win32,60.08532116,5a3adfb705f005000104d2a3,64d2fd46c836a06233681665,64dc7f737375467112b5d4b5,,,,,,,decisionTrl,resources/DY.BMP,resources/DBN.BMP,Door1,-0.213888875,0.050925926,1,0,0,1.1753,optionLeft,30,9045,4,38,0,38,0,1,,,,,,,,,,,,,,,,,,,,,,,,,,,,,,,,,,,,,,,
,,,,,,,,2023-08-16_08h50.05.115,HF_wild_card,2022.2.4,Win32,60.08532116,5a3adfb705f005000104d2a3,64d2fd46c836a06233681665,64dc7f737375467112b5d4b5,,,,,,,decisionTrl,resources/DY.BMP,resources/DBN.BMP,Door2,0.48518527,0.058333326,1,0,0,1.0458,optionRight,20,9065,4,39,0,39,0,1,,,,,,,,,,,,,,,,,,,,,,,,,,,,,,,,,,,,,,,
,,,,,,,,2023-08-16_08h50.05.115,HF_wild_card,2022.2.4,Win32,60.08532116,5a3adfb705f005000104d2a3,64d2fd46c836a06233681665,64dc7f737375467112b5d4b5,,,,,,,decisionTrl,resources/DB.BMP,resources/DBN.BMP,WildCard_NonEx,-0.195370356,0.000925912,1,0,0,0.8308,optionLeft,45,9110,4,40,0,40,0,1,,,,,,,,,,,,,,,,,,,,,,,,,,,,,,,,,,,,,,,
,,,,,,,,2023-08-16_08h50.05.115,HF_wild_card,2022.2.4,Win32,60.08532116,5a3adfb705f005000104d2a3,64d2fd46c836a06233681665,64dc7f737375467112b5d4b5,,,,,,,decisionTrl,resources/DR.BMP,resources/DG.BMP,Door4,-0.299074067,0.021296289,1,0,0,2.8878,optionLeft,60,9170,4,41,0,41,0,1,,,,,,,,,,,,,,,,,,,,,,,,,,,,,,,,,,,,,,,
,,,,,,,,2023-08-16_08h50.05.115,HF_wild_card,2022.2.4,Win32,60.08532116,5a3adfb705f005000104d2a3,64d2fd46c836a06233681665,64dc7f737375467112b5d4b5,,,,,,,sngl,resources/Empty.png,resources/DG.BMP,Door3,0.237037023,0.013888889,1,0,0,0.7934,optionRight,70,9240,4,42,0,42,0,1,,,,,,,,,,,,,,,,,,,,,,,,,,,,,,,,,,,,,,,
,,,,,,,,2023-08-16_08h50.05.115,HF_wild_card,2022.2.4,Win32,60.08532116,5a3adfb705f005000104d2a3,64d2fd46c836a06233681665,64dc7f737375467112b5d4b5,,,,,,,sngl,resources/DBN.BMP,resources/Empty.png,Door2,-0.26944443,0.002777771,1,0,0,0.7052,optionLeft,20,9260,4,43,0,43,0,1,,,,,,,,,,,,,,,,,,,,,,,,,,,,,,,,,,,,,,,
,,,,,,,,2023-08-16_08h50.05.115,HF_wild_card,2022.2.4,Win32,60.08532116,5a3adfb705f005000104d2a3,64d2fd46c836a06233681665,64dc7f737375467112b5d4b5,,,,,,,,,,,,,,,,,,,,,,,,,,3,0,3,0,1,,,,,,,,,,,,,,,,,,,,,,,,,,,,,,,,,,
,,,,,,,,2023-08-16_08h50.05.115,HF_wild_card,2022.2.4,Win32,60.08532116,5a3adfb705f005000104d2a3,64d2fd46c836a06233681665,64dc7f737375467112b5d4b5,,,,,,,decisionTrl,resources/DY.BMP,resources/DB.BMP,WildCard_NonEx,0.404629601,-0.071296303,1,0,0,2.7132,optionRight,45,9305,5,0,0,0,0,1,,,,,,,,,,,,,,,,,,,,,,,,,,,,,,,,,,,,,,,
,,,,,,,,2023-08-16_08h50.05.115,HF_wild_card,2022.2.4,Win32,60.08532116,5a3adfb705f005000104d2a3,64d2fd46c836a06233681665,64dc7f737375467112b5d4b5,,,,,,,decisionTrl,resources/DY.BMP,resources/DBN.BMP,Door1,-0.174074032,0.002777771,1,0,0,1.5214,optionLeft,30,9335,5,1,0,1,0,1,,,,,,,,,,,,,,,,,,,,,,,,,,,,,,,,,,,,,,,
,,,,,,,,2023-08-16_08h50.05.115,HF_wild_card,2022.2.4,Win32,60.08532116,5a3adfb705f005000104d2a3,64d2fd46c836a06233681665,64dc7f737375467112b5d4b5,,,,,,,sngl,resources/Empty.png,resources/DG.BMP,Door3,0.371296353,-0.060185185,1,0,0,0.8821,optionRight,70,9405,5,2,0,2,0,1,,,,,,,,,,,,,,,,,,,,,,,,,,,,,,,,,,,,,,,
,,,,,,,,2023-08-16_08h50.05.115,HF_wild_card,2022.2.4,Win32,60.08532116,5a3adfb705f005000104d2a3,64d2fd46c836a06233681665,64dc7f737375467112b5d4b5,,,,,,,decisionTrl,resources/DB.BMP,resources/DR.BMP,Door4,0.417592649,0.02407406,1,0,0,1.642,optionRight,80,9485,5,3,0,3,0,1,,,,,,,,,,,,,,,,,,,,,,,,,,,,,,,,,,,,,,,
,,,,,,,,2023-08-16_08h50.05.115,HF_wild_card,2022.2.4,Win32,60.08532116,5a3adfb705f005000104d2a3,64d2fd46c836a06233681665,64dc7f737375467112b5d4b5,,,,,,,ctch,resources/DG.BMP,resources/DBN.BMP,Door3,-0.199999986,0.01666666,1,0,0,0.9789,optionLeft,70,9555,5,4,0,4,0,1,,,,,,,,,,,,,,,,,,,,,,,,,,,,,,,,,,,,,,,
,,,,,,,,2023-08-16_08h50.05.115,HF_wild_card,2022.2.4,Win32,60.08532116,5a3adfb705f005000104d2a3,64d2fd46c836a06233681665,64dc7f737375467112b5d4b5,,,,,,,sngl,resources/DR.BMP,resources/Empty.png,Door4,-0.306481467,-0.001851859,1,0,0,0.732,optionLeft,80,9635,5,5,0,5,0,1,,,,,,,,,,,,,,,,,,,,,,,,,,,,,,,,,,,,,,,
,,,,,,,,2023-08-16_08h50.05.115,HF_wild_card,2022.2.4,Win32,60.08532116,5a3adfb705f005000104d2a3,64d2fd46c836a06233681665,64dc7f737375467112b5d4b5,,,,,,,decisionTrl,resources/DR.BMP,resources/DG.BMP,Door4,-0.241666653,-0.020370377,0,0,1,0.7375,optionLeft,60,9695,5,6,0,6,0,1,,,,,,,,,,,,,,,,,,,,,,,,,,,,,,,,,,,,,,,
,,,,,,,,2023-08-16_08h50.05.115,HF_wild_card,2022.2.4,Win32,60.08532116,5a3adfb705f005000104d2a3,64d2fd46c836a06233681665,64dc7f737375467112b5d4b5,,,,,,,decisionTrl,resources/DB.BMP,resources/DY.BMP,WildCard_NonEx,-0.181481467,0.010185171,1,0,0,0.9697,optionLeft,55,9750,5,7,0,7,0,1,,,,,,,,,,,,,,,,,,,,,,,,,,,,,,,,,,,,,,,
,,,,,,,,2023-08-16_08h50.05.115,HF_wild_card,2022.2.4,Win32,60.08532116,5a3adfb705f005000104d2a3,64d2fd46c836a06233681665,64dc7f737375467112b5d4b5,,,,,,,decisionTrl,resources/DR.BMP,resources/DB.BMP,Door4,-0.137036995,0.013888889,1,0,0,1.1883,optionLeft,80,9830,5,8,0,8,0,1,,,,,,,,,,,,,,,,,,,,,,,,,,,,,,,,,,,,,,,
,,,,,,,,2023-08-16_08h50.05.115,HF_wild_card,2022.2.4,Win32,60.08532116,5a3adfb705f005000104d2a3,64d2fd46c836a06233681665,64dc7f737375467112b5d4b5,,,,,,,decisionTrl,resources/DR.BMP,resources/DG.BMP,Door4,-0.158333319,0.000925912,1,0,0,0.9763,optionLeft,80,9910,5,9,0,9,0,1,,,,,,,,,,,,,,,,,,,,,,,,,,,,,,,,,,,,,,,
,,,,,,,,2023-08-16_08h50.05.115,HF_wild_card,2022.2.4,Win32,60.08532116,5a3adfb705f005000104d2a3,64d2fd46c836a06233681665,64dc7f737375467112b5d4b5,,,,,,,sngl,resources/Empty.png,resources/DB.BMP,WildCard_NonEx,0.276851866,-0.011111118,1,0,0,0.9048,optionRight,55,9965,5,10,0,10,0,1,,,,,,,,,,,,,,,,,,,,,,,,,,,,,,,,,,,,,,,
,,,,,,,,2023-08-16_08h50.05.115,HF_wild_card,2022.2.4,Win32,60.08532116,5a3adfb705f005000104d2a3,64d2fd46c836a06233681665,64dc7f737375467112b5d4b5,,,,,,,decisionTrl,resources/DBN.BMP,resources/DY.BMP,Door1,0.320370427,-0.025000007,1,0,0,1.0052,optionRight,30,9995,5,11,0,11,0,1,,,,,,,,,,,,,,,,,,,,,,,,,,,,,,,,,,,,,,,
,,,,,,,,2023-08-16_08h50.05.115,HF_wild_card,2022.2.4,Win32,60.08532116,5a3adfb705f005000104d2a3,64d2fd46c836a06233681665,64dc7f737375467112b5d4b5,,,,,,,sngl,resources/DG.BMP,resources/Empty.png,Door3,-0.378703683,-0.034259266,1,0,0,1.8335,optionLeft,70,10065,5,12,0,12,0,1,,,,,,,,,,,,,,,,,,,,,,,,,,,,,,,,,,,,,,,
,,,,,,,,2023-08-16_08h50.05.115,HF_wild_card,2022.2.4,Win32,60.08532116,5a3adfb705f005000104d2a3,64d2fd46c836a06233681665,64dc7f737375467112b5d4b5,,,,,,,decisionTrl,resources/DY.BMP,resources/DBN.BMP,Door1,-0.248148106,-0.022222236,1,0,0,1.0473,optionLeft,30,10095,5,13,0,13,0,1,,,,,,,,,,,,,,,,,,,,,,,,,,,,,,,,,,,,,,,
,,,,,,,,2023-08-16_08h50.05.115,HF_wild_card,2022.2.4,Win32,60.08532116,5a3adfb705f005000104d2a3,64d2fd46c836a06233681665,64dc7f737375467112b5d4b5,,,,,,,decisionTrl,resources/DR.BMP,resources/DG.BMP,Door4,-0.289814772,-0.029629637,1,0,0,1.3881,optionLeft,80,10175,5,14,0,14,0,1,,,,,,,,,,,,,,,,,,,,,,,,,,,,,,,,,,,,,,,
,,,,,,,,2023-08-16_08h50.05.115,HF_wild_card,2022.2.4,Win32,60.08532116,5a3adfb705f005000104d2a3,64d2fd46c836a06233681665,64dc7f737375467112b5d4b5,,,,,,,sngl,resources/DB.BMP,resources/Empty.png,WildCard_NonEx,-0.178703661,0.027777778,1,0,0,0.7763,optionLeft,55,10230,5,15,0,15,0,1,,,,,,,,,,,,,,,,,,,,,,,,,,,,,,,,,,,,,,,
,,,,,,,,2023-08-16_08h50.05.115,HF_wild_card,2022.2.4,Win32,60.08532116,5a3adfb705f005000104d2a3,64d2fd46c836a06233681665,64dc7f737375467112b5d4b5,,,,,,,ctch,resources/DY.BMP,resources/DR.BMP,Door4,0.301851908,-0.006481489,1,0,0,0.9719,optionRight,80,10310,5,16,0,16,0,1,,,,,,,,,,,,,,,,,,,,,,,,,,,,,,,,,,,,,,,
,,,,,,,,2023-08-16_08h50.05.115,HF_wild_card,2022.2.4,Win32,60.08532116,5a3adfb705f005000104d2a3,64d2fd46c836a06233681665,64dc7f737375467112b5d4b5,,,,,,,sngl,resources/Empty.png,resources/DBN.BMP,Door2,0.304629714,0.01666666,1,0,0,0.8904,optionRight,20,10330,5,17,0,17,0,1,,,,,,,,,,,,,,,,,,,,,,,,,,,,,,,,,,,,,,,
,,,,,,,,2023-08-16_08h50.05.115,HF_wild_card,2022.2.4,Win32,60.08532116,5a3adfb705f005000104d2a3,64d2fd46c836a06233681665,64dc7f737375467112b5d4b5,,,,,,,ctch,resources/DBN.BMP,resources/DG.BMP,Door3,0.40833339,0.072222215,1,0,0,1.2233,optionRight,70,10400,5,18,0,18,0,1,,,,,,,,,,,,,,,,,,,,,,,,,,,,,,,,,,,,,,,
,,,,,,,,2023-08-16_08h50.05.115,HF_wild_card,2022.2.4,Win32,60.08532116,5a3adfb705f005000104d2a3,64d2fd46c836a06233681665,64dc7f737375467112b5d4b5,,,,,,,decisionTrl,resources/DBN.BMP,resources/DB.BMP,WildCard_NonEx,0.325000057,0.025925919,1,0,0,1.0132,optionRight,55,10455,5,19,0,19,0,1,,,,,,,,,,,,,,,,,,,,,,,,,,,,,,,,,,,,,,,
,,,,,,,,2023-08-16_08h50.05.115,HF_wild_card,2022.2.4,Win32,60.08532116,5a3adfb705f005000104d2a3,64d2fd46c836a06233681665,64dc7f737375467112b5d4b5,,,,,,,sngl,resources/Empty.png,resources/DY.BMP,Door1,0.397222307,0.0074074,1,0,0,0.9453,optionRight,30,10485,5,20,0,20,0,1,,,,,,,,,,,,,,,,,,,,,,,,,,,,,,,,,,,,,,,
,,,,,,,,2023-08-16_08h50.05.115,HF_wild_card,2022.2.4,Win32,60.08532116,5a3adfb705f005000104d2a3,64d2fd46c836a06233681665,64dc7f737375467112b5d4b5,,,,,,,decisionTrl,resources/DG.BMP,resources/DR.BMP,Door4,0.371296353,-0.023148148,1,0,0,1.7542,optionRight,80,10565,5,21,0,21,0,1,,,,,,,,,,,,,,,,,,,,,,,,,,,,,,,,,,,,,,,
,,,,,,,,2023-08-16_08h50.05.115,HF_wild_card,2022.2.4,Win32,60.08532116,5a3adfb705f005000104d2a3,64d2fd46c836a06233681665,64dc7f737375467112b5d4b5,,,,,,,decisionTrl,resources/DB.BMP,resources/DBN.BMP,WildCard_NonEx,-0.220370328,0.017592571,1,0,0,1.0016,optionLeft,45,10610,5,22,0,22,0,1,,,,,,,,,,,,,,,,,,,,,,,,,,,,,,,,,,,,,,,
,,,,,,,,2023-08-16_08h50.05.115,HF_wild_card,2022.2.4,Win32,60.08532116,5a3adfb705f005000104d2a3,64d2fd46c836a06233681665,64dc7f737375467112b5d4b5,,,,,,,ctch,resources/DBN.BMP,resources/DG.BMP,Door3,0.491666723,-0.025000007,1,0,0,0.8764,optionRight,70,10680,5,23,0,23,0,1,,,,,,,,,,,,,,,,,,,,,,,,,,,,,,,,,,,,,,,
,,,,,,,,2023-08-16_08h50.05.115,HF_wild_card,2022.2.4,Win32,60.08532116,5a3adfb705f005000104d2a3,64d2fd46c836a06233681665,64dc7f737375467112b5d4b5,,,,,,,ctch,resources/DG.BMP,resources/DBN.BMP,Door3,-0.162962949,0.000925912,1,0,0,0.7714,optionLeft,70,10750,5,24,0,24,0,1,,,,,,,,,,,,,,,,,,,,,,,,,,,,,,,,,,,,,,,
,,,,,,,,2023-08-16_08h50.05.115,HF_wild_card,2022.2.4,Win32,60.08532116,5a3adfb705f005000104d2a3,64d2fd46c836a06233681665,64dc7f737375467112b5d4b5,,,,,,,sngl,resources/DBN.BMP,resources/Empty.png,Door2,-0.141666624,-0.011111118,1,0,0,0.8909,optionLeft,40,10790,5,25,0,25,0,1,,,,,,,,,,,,,,,,,,,,,,,,,,,,,,,,,,,,,,,
,,,,,,,,2023-08-16_08h50.05.115,HF_wild_card,2022.2.4,Win32,60.08532116,5a3adfb705f005000104d2a3,64d2fd46c836a06233681665,64dc7f737375467112b5d4b5,,,,,,,ctch,resources/DR.BMP,resources/DY.BMP,Door4,-0.429629608,-0.073148162,1,0,0,1.0451,optionLeft,60,10850,5,26,0,26,0,1,,,,,,,,,,,,,,,,,,,,,,,,,,,,,,,,,,,,,,,
,,,,,,,,2023-08-16_08h50.05.115,HF_wild_card,2022.2.4,Win32,60.08532116,5a3adfb705f005000104d2a3,64d2fd46c836a06233681665,64dc7f737375467112b5d4b5,,,,,,,sngl,resources/Empty.png,resources/DB.BMP,WildCard_NonEx,0.204629616,-0.001851859,1,0,0,0.8599,optionRight,45,10895,5,27,0,27,0,1,,,,,,,,,,,,,,,,,,,,,,,,,,,,,,,,,,,,,,,
,,,,,,,,2023-08-16_08h50.05.115,HF_wild_card,2022.2.4,Win32,60.08532116,5a3adfb705f005000104d2a3,64d2fd46c836a06233681665,64dc7f737375467112b5d4b5,,,,,,,sngl,resources/Empty.png,resources/DR.BMP,Door4,0.394444501,-0.022222236,1,0,0,0.8654,optionRight,60,10955,5,28,0,28,0,1,,,,,,,,,,,,,,,,,,,,,,,,,,,,,,,,,,,,,,,
,,,,,,,,2023-08-16_08h50.05.115,HF_wild_card,2022.2.4,Win32,60.08532116,5a3adfb705f005000104d2a3,64d2fd46c836a06233681665,64dc7f737375467112b5d4b5,,,,,,,decisionTrl,resources/DBN.BMP,resources/DY.BMP,Door1,0.496296353,0.076851845,1,0,0,0.9448,optionRight,30,10985,5,29,0,29,0,1,,,,,,,,,,,,,,,,,,,,,,,,,,,,,,,,,,,,,,,
,,,,,,,,2023-08-16_08h50.05.115,HF_wild_card,2022.2.4,Win32,60.08532116,5a3adfb705f005000104d2a3,64d2fd46c836a06233681665,64dc7f737375467112b5d4b5,,,,,,,decisionTrl,resources/DG.BMP,resources/DB.BMP,Door3,-0.213888875,0.005555541,1,0,0,1.3706,optionLeft,70,11055,5,30,0,30,0,1,,,,,,,,,,,,,,,,,,,,,,,,,,,,,,,,,,,,,,,
,,,,,,,,2023-08-16_08h50.05.115,HF_wild_card,2022.2.4,Win32,60.08532116,5a3adfb705f005000104d2a3,64d2fd46c836a06233681665,64dc7f737375467112b5d4b5,,,,,,,decisionTrl,resources/DG.BMP,resources/DR.BMP,Door4,0.561111168,-0.012962977,1,0,0,2.5842,optionRight,60,11115,5,31,0,31,0,1,,,,,,,,,,,,,,,,,,,,,,,,,,,,,,,,,,,,,,,
,,,,,,,,2023-08-16_08h50.05.115,HF_wild_card,2022.2.4,Win32,60.08532116,5a3adfb705f005000104d2a3,64d2fd46c836a06233681665,64dc7f737375467112b5d4b5,,,,,,,decisionTrl,resources/DBN.BMP,resources/DY.BMP,Door1,0.459259316,0.013888889,1,0,0,0.9842,optionRight,30,11145,5,32,0,32,0,1,,,,,,,,,,,,,,,,,,,,,,,,,,,,,,,,,,,,,,,
,,,,,,,,2023-08-16_08h50.05.115,HF_wild_card,2022.2.4,Win32,60.08532116,5a3adfb705f005000104d2a3,64d2fd46c836a06233681665,64dc7f737375467112b5d4b5,,,,,,,decisionTrl,resources/DG.BMP,resources/DR.BMP,Door3,-0.287962949,-0.029629637,1,0,0,1.7534,optionLeft,70,11215,5,33,0,33,0,1,,,,,,,,,,,,,,,,,,,,,,,,,,,,,,,,,,,,,,,
,,,,,,,,2023-08-16_08h50.05.115,HF_wild_card,2022.2.4,Win32,60.08532116,5a3adfb705f005000104d2a3,64d2fd46c836a06233681665,64dc7f737375467112b5d4b5,,,,,,,decisionTrl,resources/DBN.BMP,resources/DY.BMP,Door1,0.27870369,-0.003703718,1,0,0,0.8698,optionRight,30,11245,5,34,0,34,0,1,,,,,,,,,,,,,,,,,,,,,,,,,,,,,,,,,,,,,,,
,,,,,,,,2023-08-16_08h50.05.115,HF_wild_card,2022.2.4,Win32,60.08532116,5a3adfb705f005000104d2a3,64d2fd46c836a06233681665,64dc7f737375467112b5d4b5,,,,,,,decisionTrl,resources/DR.BMP,resources/DG.BMP,Door3,0.526851937,0.078703704,1,0,0,1.7454,optionRight,70,11315,5,35,0,35,0,1,,,,,,,,,,,,,,,,,,,,,,,,,,,,,,,,,,,,,,,
,,,,,,,,2023-08-16_08h50.05.115,HF_wild_card,2022.2.4,Win32,60.08532116,5a3adfb705f005000104d2a3,64d2fd46c836a06233681665,64dc7f737375467112b5d4b5,,,,,,,decisionTrl,resources/DY.BMP,resources/DBN.BMP,Door1,-0.250925912,0.01944443,1,0,0,1.2883,optionLeft,30,11345,5,36,0,36,0,1,,,,,,,,,,,,,,,,,,,,,,,,,,,,,,,,,,,,,,,
,,,,,,,,2023-08-16_08h50.05.115,HF_wild_card,2022.2.4,Win32,60.08532116,5a3adfb705f005000104d2a3,64d2fd46c836a06233681665,64dc7f737375467112b5d4b5,,,,,,,sngl,resources/DY.BMP,resources/Empty.png,Door1,-0.218518504,0.0074074,0,0,1,0.693,optionLeft,30,11375,5,37,0,37,0,1,,,,,,,,,,,,,,,,,,,,,,,,,,,,,,,,,,,,,,,
,,,,,,,,2023-08-16_08h50.05.115,HF_wild_card,2022.2.4,Win32,60.08532116,5a3adfb705f005000104d2a3,64d2fd46c836a06233681665,64dc7f737375467112b5d4b5,,,,,,,decisionTrl,resources/DG.BMP,resources/DR.BMP,Door3,-0.174074032,0.01203703,1,0,0,1.5355,optionLeft,70,11445,5,38,0,38,0,1,,,,,,,,,,,,,,,,,,,,,,,,,,,,,,,,,,,,,,,
,,,,,,,,2023-08-16_08h50.05.115,HF_wild_card,2022.2.4,Win32,60.08532116,5a3adfb705f005000104d2a3,64d2fd46c836a06233681665,64dc7f737375467112b5d4b5,,,,,,,ctch,resources/DR.BMP,resources/DY.BMP,Door4,-0.201851809,0.02870369,0,0,1,0.8567,optionLeft,80,11525,5,39,0,39,0,1,,,,,,,,,,,,,,,,,,,,,,,,,,,,,,,,,,,,,,,
,,,,,,,,2023-08-16_08h50.05.115,HF_wild_card,2022.2.4,Win32,60.08532116,5a3adfb705f005000104d2a3,64d2fd46c836a06233681665,64dc7f737375467112b5d4b5,,,,,,,decisionTrl,resources/DB.BMP,resources/DG.BMP,Door3,0.207407422,-0.008333347,1,0,0,0.9404,optionRight,70,11595,5,40,0,40,0,1,,,,,,,,,,,,,,,,,,,,,,,,,,,,,,,,,,,,,,,
,,,,,,,,2023-08-16_08h50.05.115,HF_wild_card,2022.2.4,Win32,60.08532116,5a3adfb705f005000104d2a3,64d2fd46c836a06233681665,64dc7f737375467112b5d4b5,,,,,,,ctch,resources/DY.BMP,resources/DR.BMP,Door4,0.27870369,0.000925912,1,0,0,0.9646,optionRight,80,11675,5,41,0,41,0,1,,,,,,,,,,,,,,,,,,,,,,,,,,,,,,,,,,,,,,,
,,,,,,,,2023-08-16_08h50.05.115,HF_wild_card,2022.2.4,Win32,60.08532116,5a3adfb705f005000104d2a3,64d2fd46c836a06233681665,64dc7f737375467112b5d4b5,,,,,,,sngl,resources/DB.BMP,resources/Empty.png,WildCard_NonEx,-0.15370369,0.01203703,1,0,0,0.7561,optionLeft,45,11720,5,42,0,42,0,1,,,,,,,,,,,,,,,,,,,,,,,,,,,,,,,,,,,,,,,
,,,,,,,,2023-08-16_08h50.05.115,HF_wild_card,2022.2.4,Win32,60.08532116,5a3adfb705f005000104d2a3,64d2fd46c836a06233681665,64dc7f737375467112b5d4b5,,,,,,,decisionTrl,resources/DY.BMP,resources/DBN.BMP,Door1,-0.366666653,-0.036111125,1,0,0,0.8821,optionLeft,30,11750,5,43,0,43,0,1,,,,,,,,,,,,,,,,,,,,,,,,,,,,,,,,,,,,,,,
,,,,,,,,2023-08-16_08h50.05.115,HF_wild_card,2022.2.4,Win32,60.08532116,5a3adfb705f005000104d2a3,64d2fd46c836a06233681665,64dc7f737375467112b5d4b5,,,,,,,,,,,,,,,,,,,,,,,,,,4,0,4,0,1,,,,,,,,,,,,,,,,,,,,,,,,,,,,,,,,,,
,,,,,,,,2023-08-16_08h50.05.115,HF_wild_card,2022.2.4,Win32,60.08532116,5a3adfb705f005000104d2a3,64d2fd46c836a06233681665,64dc7f737375467112b5d4b5,,,,,,,sngl,resources/DY.BMP,resources/Empty.png,Door1,-0.371296282,-0.085185192,1,0,0,1.2984,optionLeft,30,11780,6,0,0,0,0,1,,,,,,,,,,,,,,,,,,,,,,,,,,,,,,,,,,,,,,,
,,,,,,,,2023-08-16_08h50.05.115,HF_wild_card,2022.2.4,Win32,60.08532116,5a3adfb705f005000104d2a3,64d2fd46c836a06233681665,64dc7f737375467112b5d4b5,,,,,,,decisionTrl,resources/DG.BMP,resources/DR.BMP,Door4,0.40370376,-0.071296303,1,0,0,1.2302,optionRight,80,11860,6,1,0,1,0,1,,,,,,,,,,,,,,,,,,,,,,,,,,,,,,,,,,,,,,,
,,,,,,,,2023-08-16_08h50.05.115,HF_wild_card,2022.2.4,Win32,60.08532116,5a3adfb705f005000104d2a3,64d2fd46c836a06233681665,64dc7f737375467112b5d4b5,,,,,,,sngl,resources/Empty.png,resources/DB.BMP,WildCard_NonEx,0.313888974,-0.015740748,1,0,0,0.8037,optionRight,45,11905,6,2,0,2,0,1,,,,,,,,,,,,,,,,,,,,,,,,,,,,,,,,,,,,,,,
,,,,,,,,2023-08-16_08h50.05.115,HF_wild_card,2022.2.4,Win32,60.08532116,5a3adfb705f005000104d2a3,64d2fd46c836a06233681665,64dc7f737375467112b5d4b5,,,,,,,decisionTrl,resources/DY.BMP,resources/DBN.BMP,Door1,-0.39907406,0.035185178,1,0,0,1.0219,optionLeft,30,11935,6,3,0,3,0,1,,,,,,,,,,,,,,,,,,,,,,,,,,,,,,,,,,,,,,,
,,,,,,,,2023-08-16_08h50.05.115,HF_wild_card,2022.2.4,Win32,60.08532116,5a3adfb705f005000104d2a3,64d2fd46c836a06233681665,64dc7f737375467112b5d4b5,,,,,,,decisionTrl,resources/DG.BMP,resources/DR.BMP,Door4,0.311111168,-0.013888889,1,0,0,1.2229,optionRight,60,11995,6,4,0,4,0,1,,,,,,,,,,,,,,,,,,,,,,,,,,,,,,,,,,,,,,,
,,,,,,,,2023-08-16_08h50.05.115,HF_wild_card,2022.2.4,Win32,60.08532116,5a3adfb705f005000104d2a3,64d2fd46c836a06233681665,64dc7f737375467112b5d4b5,,,,,,,decisionTrl,resources/DY.BMP,resources/DB.BMP,WildCard_NonEx,0.570370427,0.01666666,1,0,0,1.2359,optionRight,55,12050,6,5,0,5,0,1,,,,,,,,,,,,,,,,,,,,,,,,,,,,,,,,,,,,,,,
,,,,,,,,2023-08-16_08h50.05.115,HF_wild_card,2022.2.4,Win32,60.08532116,5a3adfb705f005000104d2a3,64d2fd46c836a06233681665,64dc7f737375467112b5d4b5,,,,,,,decisionTrl,resources/DG.BMP,resources/DB.BMP,Door3,-0.187962921,0.049074067,0,0,1,0.9159,optionLeft,70,12120,6,6,0,6,0,1,,,,,,,,,,,,,,,,,,,,,,,,,,,,,,,,,,,,,,,
,,,,,,,,2023-08-16_08h50.05.115,HF_wild_card,2022.2.4,Win32,60.08532116,5a3adfb705f005000104d2a3,64d2fd46c836a06233681665,64dc7f737375467112b5d4b5,,,,,,,sngl,resources/Empty.png,resources/DB.BMP,WildCard_NonEx,0.35555564,-0.038888896,1,0,0,0.7598,optionRight,55,12175,6,7,0,7,0,1,,,,,,,,,,,,,,,,,,,,,,,,,,,,,,,,,,,,,,,
,,,,,,,,2023-08-16_08h50.05.115,HF_wild_card,2022.2.4,Win32,60.08532116,5a3adfb705f005000104d2a3,64d2fd46c836a06233681665,64dc7f737375467112b5d4b5,,,,,,,ctch,resources/DBN.BMP,resources/DG.BMP,Door3,0.387963048,0.005555541,1,0,0,0.9102,optionRight,70,12245,6,8,0,8,0,1,,,,,,,,,,,,,,,,,,,,,,,,,,,,,,,,,,,,,,,
,,,,,,,,2023-08-16_08h50.05.115,HF_wild_card,2022.2.4,Win32,60.08532116,5a3adfb705f005000104d2a3,64d2fd46c836a06233681665,64dc7f737375467112b5d4b5,,,,,,,sngl,resources/DR.BMP,resources/Empty.png,Door4,-0.167592578,0.027777778,0,0,1,0.9548,optionLeft,60,12305,6,9,0,9,0,1,,,,,,,,,,,,,,,,,,,,,,,,,,,,,,,,,,,,,,,
,,,,,,,,2023-08-16_08h50.05.115,HF_wild_card,2022.2.4,Win32,60.08532116,5a3adfb705f005000104d2a3,64d2fd46c836a06233681665,64dc7f737375467112b5d4b5,,,,,,,sngl,resources/Empty.png,resources/DR.BMP,Door4,0.347222222,0.012962942,1,0,0,0.7902,optionRight,80,12385,6,10,0,10,0,1,,,,,,,,,,,,,,,,,,,,,,,,,,,,,,,,,,,,,,,
,,,,,,,,2023-08-16_08h50.05.115,HF_wild_card,2022.2.4,Win32,60.08532116,5a3adfb705f005000104d2a3,64d2fd46c836a06233681665,64dc7f737375467112b5d4b5,,,,,,,sngl,resources/DB.BMP,resources/Empty.png,WildCard_NonEx,-0.604629623,-0.042592614,1,0,0,0.9,optionLeft,55,12440,6,11,0,11,0,1,,,,,,,,,,,,,,,,,,,,,,,,,,,,,,,,,,,,,,,
,,,,,,,,2023-08-16_08h50.05.115,HF_wild_card,2022.2.4,Win32,60.08532116,5a3adfb705f005000104d2a3,64d2fd46c836a06233681665,64dc7f737375467112b5d4b5,,,,,,,ctch,resources/DR.BMP,resources/DY.BMP,Door4,-0.285185143,0.000925912,0,0,1,1.1132,optionLeft,80,12520,6,12,0,12,0,1,,,,,,,,,,,,,,,,,,,,,,,,,,,,,,,,,,,,,,,
,,,,,,,,2023-08-16_08h50.05.115,HF_wild_card,2022.2.4,Win32,60.08532116,5a3adfb705f005000104d2a3,64d2fd46c836a06233681665,64dc7f737375467112b5d4b5,,,,,,,decisionTrl,resources/DBN.BMP,resources/DB.BMP,WildCard_NonEx,0.438888974,0.035185178,1,0,0,1.0465,optionRight,45,12565,6,13,0,13,0,1,,,,,,,,,,,,,,,,,,,,,,,,,,,,,,,,,,,,,,,
,,,,,,,,2023-08-16_08h50.05.115,HF_wild_card,2022.2.4,Win32,60.08532116,5a3adfb705f005000104d2a3,64d2fd46c836a06233681665,64dc7f737375467112b5d4b5,,,,,,,sngl,resources/Empty.png,resources/DG.BMP,Door3,0.575000057,0.044444437,1,0,0,0.8811,optionRight,70,12635,6,14,0,14,0,1,,,,,,,,,,,,,,,,,,,,,,,,,,,,,,,,,,,,,,,
,,,,,,,,2023-08-16_08h50.05.115,HF_wild_card,2022.2.4,Win32,60.08532116,5a3adfb705f005000104d2a3,64d2fd46c836a06233681665,64dc7f737375467112b5d4b5,,,,,,,ctch,resources/DY.BMP,resources/DR.BMP,Door4,0.165740755,0.005555541,1,0,0,1.0146,optionRight,60,12695,6,15,0,15,0,1,,,,,,,,,,,,,,,,,,,,,,,,,,,,,,,,,,,,,,,
,,,,,,,,2023-08-16_08h50.05.115,HF_wild_card,2022.2.4,Win32,60.08532116,5a3adfb705f005000104d2a3,64d2fd46c836a06233681665,64dc7f737375467112b5d4b5,,,,,,,decisionTrl,resources/DB.BMP,resources/DR.BMP,Door4,0.170370384,0.0074074,1,0,0,1.0264,optionRight,80,12775,6,16,0,16,0,1,,,,,,,,,,,,,,,,,,,,,,,,,,,,,,,,,,,,,,,
,,,,,,,,2023-08-16_08h50.05.115,HF_wild_card,2022.2.4,Win32,60.08532116,5a3adfb705f005000104d2a3,64d2fd46c836a06233681665,64dc7f737375467112b5d4b5,,,,,,,decisionTrl,resources/DR.BMP,resources/DG.BMP,Door4,-0.250925912,0.002777771,0,0,1,0.8891,optionLeft,80,12855,6,17,0,17,0,1,,,,,,,,,,,,,,,,,,,,,,,,,,,,,,,,,,,,,,,
,,,,,,,,2023-08-16_08h50.05.115,HF_wild_card,2022.2.4,Win32,60.08532116,5a3adfb705f005000104d2a3,64d2fd46c836a06233681665,64dc7f737375467112b5d4b5,,,,,,,decisionTrl,resources/DR.BMP,resources/DG.BMP,Door4,-0.510185171,-0.043518526,1,0,0,0.9181,optionLeft,80,12935,6,18,0,18,0,1,,,,,,,,,,,,,,,,,,,,,,,,,,,,,,,,,,,,,,,
,,,,,,,,2023-08-16_08h50.05.115,HF_wild_card,2022.2.4,Win32,60.08532116,5a3adfb705f005000104d2a3,64d2fd46c836a06233681665,64dc7f737375467112b5d4b5,,,,,,,decisionTrl,resources/DR.BMP,resources/DG.BMP,Door4,-0.218518504,-0.027777778,1,0,0,0.7991,optionLeft,80,13015,6,19,0,19,0,1,,,,,,,,,,,,,,,,,,,,,,,,,,,,,,,,,,,,,,,
,,,,,,,,2023-08-16_08h50.05.115,HF_wild_card,2022.2.4,Win32,60.08532116,5a3adfb705f005000104d2a3,64d2fd46c836a06233681665,64dc7f737375467112b5d4b5,,,,,,,sngl,resources/DG.BMP,resources/Empty.png,Door3,-0.155555513,0,1,0,0,0.8725,optionLeft,70,13085,6,20,0,20,0,1,,,,,,,,,,,,,,,,,,,,,,,,,,,,,,,,,,,,,,,
,,,,,,,,2023-08-16_08h50.05.115,HF_wild_card,2022.2.4,Win32,60.08532116,5a3adfb705f005000104d2a3,64d2fd46c836a06233681665,64dc7f737375467112b5d4b5,,,,,,,decisionTrl,resources/DR.BMP,resources/DG.BMP,Door4,-0.264814801,0.014814801,1,0,0,1.7135,optionLeft,60,13145,6,21,0,21,0,1,,,,,,,,,,,,,,,,,,,,,,,,,,,,,,,,,,,,,,,
,,,,,,,,2023-08-16_08h50.05.115,HF_wild_card,2022.2.4,Win32,60.08532116,5a3adfb705f005000104d2a3,64d2fd46c836a06233681665,64dc7f737375467112b5d4b5,,,,,,,decisionTrl,resources/DG.BMP,resources/DR.BMP,Door3,-0.260185171,-0.011111118,1,0,0,1.7878,optionLeft,70,13215,6,22,0,22,0,1,,,,,,,,,,,,,,,,,,,,,,,,,,,,,,,,,,,,,,,
,,,,,,,,2023-08-16_08h50.05.115,HF_wild_card,2022.2.4,Win32,60.08532116,5a3adfb705f005000104d2a3,64d2fd46c836a06233681665,64dc7f737375467112b5d4b5,,,,,,,decisionTrl,resources/DB.BMP,resources/DBN.BMP,WildCard_NonEx,-0.220370328,0.0074074,1,0,0,0.976,optionLeft,55,13270,6,23,0,23,0,1,,,,,,,,,,,,,,,,,,,,,,,,,,,,,,,,,,,,,,,
,,,,,,,,2023-08-16_08h50.05.115,HF_wild_card,2022.2.4,Win32,60.08532116,5a3adfb705f005000104d2a3,64d2fd46c836a06233681665,64dc7f737375467112b5d4b5,,,,,,,sngl,resources/Empty.png,resources/DY.BMP,Door1,0.459259316,0.0074074,1,0,0,0.7462,optionRight,30,13300,6,24,0,24,0,1,,,,,,,,,,,,,,,,,,,,,,,,,,,,,,,,,,,,,,,
,,,,,,,,2023-08-16_08h50.05.115,HF_wild_card,2022.2.4,Win32,60.08532116,5a3adfb705f005000104d2a3,64d2fd46c836a06233681665,64dc7f737375467112b5d4b5,,,,,,,ctch,resources/DG.BMP,resources/DBN.BMP,Door3,-0.246296282,0.002777771,1,0,0,0.8117,optionLeft,70,13370,6,25,0,25,0,1,,,,,,,,,,,,,,,,,,,,,,,,,,,,,,,,,,,,,,,
,,,,,,,,2023-08-16_08h50.05.115,HF_wild_card,2022.2.4,Win32,60.08532116,5a3adfb705f005000104d2a3,64d2fd46c836a06233681665,64dc7f737375467112b5d4b5,,,,,,,decisionTrl,resources/DG.BMP,resources/DR.BMP,Door4,0.23055557,0.014814801,1,0,0,1.1838,optionRight,60,13430,6,26,0,26,0,1,,,,,,,,,,,,,,,,,,,,,,,,,,,,,,,,,,,,,,,
,,,,,,,,2023-08-16_08h50.05.115,HF_wild_card,2022.2.4,Win32,60.08532116,5a3adfb705f005000104d2a3,64d2fd46c836a06233681665,64dc7f737375467112b5d4b5,,,,,,,ctch,resources/DBN.BMP,resources/DG.BMP,Door3,0.290740755,-0.001851859,1,0,0,0.9725,optionRight,70,13500,6,27,0,27,0,1,,,,,,,,,,,,,,,,,,,,,,,,,,,,,,,,,,,,,,,
,,,,,,,,2023-08-16_08h50.05.115,HF_wild_card,2022.2.4,Win32,60.08532116,5a3adfb705f005000104d2a3,64d2fd46c836a06233681665,64dc7f737375467112b5d4b5,,,,,,,ctch,resources/DG.BMP,resources/DBN.BMP,Door3,-0.437962956,0.020370377,1,0,0,0.7852,optionLeft,70,13570,6,28,0,28,0,1,,,,,,,,,,,,,,,,,,,,,,,,,,,,,,,,,,,,,,,
,,,,,,,,2023-08-16_08h50.05.115,HF_wild_card,2022.2.4,Win32,60.08532116,5a3adfb705f005000104d2a3,64d2fd46c836a06233681665,64dc7f737375467112b5d4b5,,,,,,,decisionTrl,resources/DR.BMP,resources/DB.BMP,Door4,-0.317592586,0.035185178,1,0,0,0.9228,optionLeft,60,13630,6,29,0,29,0,1,,,,,,,,,,,,,,,,,,,,,,,,,,,,,,,,,,,,,,,
,,,,,,,,2023-08-16_08h50.05.115,HF_wild_card,2022.2.4,Win32,60.08532116,5a3adfb705f005000104d2a3,64d2fd46c836a06233681665,64dc7f737375467112b5d4b5,,,,,,,decisionTrl,resources/DY.BMP,resources/DBN.BMP,Door1,-0.419444437,0.023148148,1,0,0,1.2251,optionLeft,30,13660,6,30,0,30,0,1,,,,,,,,,,,,,,,,,,,,,,,,,,,,,,,,,,,,,,,
,,,,,,,,2023-08-16_08h50.05.115,HF_wild_card,2022.2.4,Win32,60.08532116,5a3adfb705f005000104d2a3,64d2fd46c836a06233681665,64dc7f737375467112b5d4b5,,,,,,,decisionTrl,resources/DBN.BMP,resources/DY.BMP,Door2,-0.377777771,0.067592586,1,0,0,0.9547,optionLeft,40,13700,6,31,0,31,0,1,,,,,,,,,,,,,,,,,,,,,,,,,,,,,,,,,,,,,,,
,,,,,,,,2023-08-16_08h50.05.115,HF_wild_card,2022.2.4,Win32,60.08532116,5a3adfb705f005000104d2a3,64d2fd46c836a06233681665,64dc7f737375467112b5d4b5,,,,,,,decisionTrl,resources/DBN.BMP,resources/DY.BMP,Door2,-0.340740734,0.033333319,1,0,0,0.7775,optionLeft,20,13720,6,32,0,32,0,1,,,,,,,,,,,,,,,,,,,,,,,,,,,,,,,,,,,,,,,
,,,,,,,,2023-08-16_08h50.05.115,HF_wild_card,2022.2.4,Win32,60.08532116,5a3adfb705f005000104d2a3,64d2fd46c836a06233681665,64dc7f737375467112b5d4b5,,,,,,,decisionTrl,resources/DB.BMP,resources/DG.BMP,Door3,0.304629714,0.018518519,1,0,0,1.0039,optionRight,70,13790,6,33,0,33,0,1,,,,,,,,,,,,,,,,,,,,,,,,,,,,,,,,,,,,,,,
,,,,,,,,2023-08-16_08h50.05.115,HF_wild_card,2022.2.4,Win32,60.08532116,5a3adfb705f005000104d2a3,64d2fd46c836a06233681665,64dc7f737375467112b5d4b5,,,,,,,ctch,resources/DY.BMP,resources/DR.BMP,Door4,0.255555541,0.005555541,1,0,0,1.0719,optionRight,80,13870,6,34,0,34,0,1,,,,,,,,,,,,,,,,,,,,,,,,,,,,,,,,,,,,,,,
,,,,,,,,2023-08-16_08h50.05.115,HF_wild_card,2022.2.4,Win32,60.08532116,5a3adfb705f005000104d2a3,64d2fd46c836a06233681665,64dc7f737375467112b5d4b5,,,,,,,decisionTrl,resources/DBN.BMP,resources/DY.BMP,Door2,-0.093518504,-0.006481489,1,0,0,1.4098,optionLeft,40,13910,6,35,0,35,0,1,,,,,,,,,,,,,,,,,,,,,,,,,,,,,,,,,,,,,,,
,,,,,,,,2023-08-16_08h50.05.115,HF_wild_card,2022.2.4,Win32,60.08532116,5a3adfb705f005000104d2a3,64d2fd46c836a06233681665,64dc7f737375467112b5d4b5,,,,,,,sngl,resources/Empty.png,resources/DBN.BMP,Door2,0.209259245,0.002777771,1,0,0,0.8488,optionRight,40,13950,6,36,0,36,0,1,,,,,,,,,,,,,,,,,,,,,,,,,,,,,,,,,,,,,,,
,,,,,,,,2023-08-16_08h50.05.115,HF_wild_card,2022.2.4,Win32,60.08532116,5a3adfb705f005000104d2a3,64d2fd46c836a06233681665,64dc7f737375467112b5d4b5,,,,,,,decisionTrl,resources/DB.BMP,resources/DY.BMP,WildCard_NonEx,-0.164814772,0.010185171,1,0,0,1.3052,optionLeft,55,14005,6,37,0,37,0,1,,,,,,,,,,,,,,,,,,,,,,,,,,,,,,,,,,,,,,,
,,,,,,,,2023-08-16_08h50.05.115,HF_wild_card,2022.2.4,Win32,60.08532116,5a3adfb705f005000104d2a3,64d2fd46c836a06233681665,64dc7f737375467112b5d4b5,,,,,,,ctch,resources/DR.BMP,resources/DY.BMP,Door4,-0.195370356,0.01944443,1,0,0,0.9947,optionLeft,80,14085,6,38,0,38,0,1,,,,,,,,,,,,,,,,,,,,,,,,,,,,,,,,,,,,,,,
,,,,,,,,2023-08-16_08h50.05.115,HF_wild_card,2022.2.4,Win32,60.08532116,5a3adfb705f005000104d2a3,64d2fd46c836a06233681665,64dc7f737375467112b5d4b5,,,,,,,decisionTrl,resources/DY.BMP,resources/DBN.BMP,Door2,0.292592578,-0.012962977,1,0,0,1.3215,optionRight,40,14125,6,39,0,39,0,1,,,,,,,,,,,,,,,,,,,,,,,,,,,,,,,,,,,,,,,
,,,,,,,,2023-08-16_08h50.05.115,HF_wild_card,2022.2.4,Win32,60.08532116,5a3adfb705f005000104d2a3,64d2fd46c836a06233681665,64dc7f737375467112b5d4b5,,,,,,,decisionTrl,resources/DBN.BMP,resources/DY.BMP,Door1,0.244444459,-0.008333347,1,0,0,1.3415,optionRight,30,14155,6,40,0,40,0,1,,,,,,,,,,,,,,,,,,,,,,,,,,,,,,,,,,,,,,,
,,,,,,,,2023-08-16_08h50.05.115,HF_wild_card,2022.2.4,Win32,60.08532116,5a3adfb705f005000104d2a3,64d2fd46c836a06233681665,64dc7f737375467112b5d4b5,,,,,,,decisionTrl,resources/DY.BMP,resources/DBN.BMP,Door2,0.540740826,0.074999986,1,0,0,1.1218,optionRight,40,14195,6,41,0,41,0,1,,,,,,,,,,,,,,,,,,,,,,,,,,,,,,,,,,,,,,,
,,,,,,,,2023-08-16_08h50.05.115,HF_wild_card,2022.2.4,Win32,60.08532116,5a3adfb705f005000104d2a3,64d2fd46c836a06233681665,64dc7f737375467112b5d4b5,,,,,,,sngl,resources/DBN.BMP,resources/Empty.png,Door2,-0.132407365,0.018518519,1,0,0,0.7768,optionLeft,20,14215,6,42,0,42,0,1,,,,,,,,,,,,,,,,,,,,,,,,,,,,,,,,,,,,,,,
,,,,,,,,2023-08-16_08h50.05.115,HF_wild_card,2022.2.4,Win32,60.08532116,5a3adfb705f005000104d2a3,64d2fd46c836a06233681665,64dc7f737375467112b5d4b5,,,,,,,sngl,resources/DB.BMP,resources/Empty.png,WildCard_NonEx,-0.213888875,0.02870369,0,0,1,0.7679,optionLeft,45,14260,6,43,0,43,0,1,,,,,,,,,,,,,,,,,,,,,,,,,,,,,,,,,,,,,,,
,,,,,,,,2023-08-16_08h50.05.115,HF_wild_card,2022.2.4,Win32,60.08532116,5a3adfb705f005000104d2a3,64d2fd46c836a06233681665,64dc7f737375467112b5d4b5,,,,,,,,,,,,,,,,,,,,,,,,,,5,0,5,0,1,,,,,,,,,,,,,,,,,,,,,,,,,,,,,,,,,,
,,,,,,,,2023-08-16_08h50.05.115,HF_wild_card,2022.2.4,Win32,60.08532116,5a3adfb705f005000104d2a3,64d2fd46c836a06233681665,64dc7f737375467112b5d4b5,,,,,,,decisionTrl,resources/DR.BMP,resources/DG.BMP,Door4,-0.227777764,-0.011111118,1,0,0,1.144,optionLeft,60,14320,7,0,0,0,0,1,,,,,,,,,,,,,,,,,,,,,,,,,,,,,,,,,,,,,,,
,,,,,,,,2023-08-16_08h50.05.115,HF_wild_card,2022.2.4,Win32,60.08532116,5a3adfb705f005000104d2a3,64d2fd46c836a06233681665,64dc7f737375467112b5d4b5,,,,,,,ctch,resources/DY.BMP,resources/DR.BMP,Door4,0.235185199,0.01203703,1,0,0,0.8679,optionRight,60,14380,7,1,0,1,0,1,,,,,,,,,,,,,,,,,,,,,,,,,,,,,,,,,,,,,,,
,,,,,,,,2023-08-16_08h50.05.115,HF_wild_card,2022.2.4,Win32,60.08532116,5a3adfb705f005000104d2a3,64d2fd46c836a06233681665,64dc7f737375467112b5d4b5,,,,,,,decisionTrl,resources/DG.BMP,resources/DR.BMP,Door4,0.304629714,0.01203703,0,0,1,1.4585,optionRight,80,14460,7,2,0,2,0,1,,,,,,,,,,,,,,,,,,,,,,,,,,,,,,,,,,,,,,,
,,,,,,,,2023-08-16_08h50.05.115,HF_wild_card,2022.2.4,Win32,60.08532116,5a3adfb705f005000104d2a3,64d2fd46c836a06233681665,64dc7f737375467112b5d4b5,,,,,,,decisionTrl,resources/DY.BMP,resources/DBN.BMP,Door1,-0.196296268,0.002777771,0,0,1,1.6359,optionLeft,30,14490,7,3,0,3,0,1,,,,,,,,,,,,,,,,,,,,,,,,,,,,,,,,,,,,,,,
,,,,,,,,2023-08-16_08h50.05.115,HF_wild_card,2022.2.4,Win32,60.08532116,5a3adfb705f005000104d2a3,64d2fd46c836a06233681665,64dc7f737375467112b5d4b5,,,,,,,ctch,resources/DR.BMP,resources/DY.BMP,Door4,-0.537962949,0.037037037,1,0,0,0.8457,optionLeft,80,14570,7,4,0,4,0,1,,,,,,,,,,,,,,,,,,,,,,,,,,,,,,,,,,,,,,,
,,,,,,,,2023-08-16_08h50.05.115,HF_wild_card,2022.2.4,Win32,60.08532116,5a3adfb705f005000104d2a3,64d2fd46c836a06233681665,64dc7f737375467112b5d4b5,,,,,,,ctch,resources/DY.BMP,resources/DR.BMP,Door4,0.179629644,-0.023148148,1,0,0,0.8104,optionRight,60,14630,7,5,0,5,0,1,,,,,,,,,,,,,,,,,,,,,,,,,,,,,,,,,,,,,,,
,,,,,,,,2023-08-16_08h50.05.115,HF_wild_card,2022.2.4,Win32,60.08532116,5a3adfb705f005000104d2a3,64d2fd46c836a06233681665,64dc7f737375467112b5d4b5,,,,,,,ctch,resources/DBN.BMP,resources/DG.BMP,Door3,0.352777834,-0.048148155,1,0,0,0.8272,optionRight,70,14700,7,6,0,6,0,1,,,,,,,,,,,,,,,,,,,,,,,,,,,,,,,,,,,,,,,
,,,,,,,,2023-08-16_08h50.05.115,HF_wild_card,2022.2.4,Win32,60.08532116,5a3adfb705f005000104d2a3,64d2fd46c836a06233681665,64dc7f737375467112b5d4b5,,,,,,,ctch,resources/DBN.BMP,resources/DG.BMP,Door3,0.412963019,0.039814808,1,0,0,0.7643,optionRight,70,14770,7,7,0,7,0,1,,,,,,,,,,,,,,,,,,,,,,,,,,,,,,,,,,,,,,,
,,,,,,,,2023-08-16_08h50.05.115,HF_wild_card,2022.2.4,Win32,60.08532116,5a3adfb705f005000104d2a3,64d2fd46c836a06233681665,64dc7f737375467112b5d4b5,,,,,,,decisionTrl,resources/DBN.BMP,resources/DY.BMP,Door2,-0.431481467,0.049074067,1,0,0,1.0271,optionLeft,40,14810,7,8,0,8,0,1,,,,,,,,,,,,,,,,,,,,,,,,,,,,,,,,,,,,,,,
,,,,,,,,2023-08-16_08h50.05.115,HF_wild_card,2022.2.4,Win32,60.08532116,5a3adfb705f005000104d2a3,64d2fd46c836a06233681665,64dc7f737375467112b5d4b5,,,,,,,decisionTrl,resources/DR.BMP,resources/DG.BMP,Door3,0.501851824,0.042592578,1,0,0,1.3298,optionRight,70,14880,7,9,0,9,0,1,,,,,,,,,,,,,,,,,,,,,,,,,,,,,,,,,,,,,,,
,,,,,,,,2023-08-16_08h50.05.115,HF_wild_card,2022.2.4,Win32,60.08532116,5a3adfb705f005000104d2a3,64d2fd46c836a06233681665,64dc7f737375467112b5d4b5,,,,,,,decisionTrl,resources/DR.BMP,resources/DG.BMP,Door4,-0.095370328,0.025925919,1,0,0,0.9151,optionLeft,60,14940,7,10,0,10,0,1,,,,,,,,,,,,,,,,,,,,,,,,,,,,,,,,,,,,,,,
,,,,,,,,2023-08-16_08h50.05.115,HF_wild_card,2022.2.4,Win32,60.08532116,5a3adfb705f005000104d2a3,64d2fd46c836a06233681665,64dc7f737375467112b5d4b5,,,,,,,decisionTrl,resources/DG.BMP,resources/DR.BMP,Door3,-0.299074067,0.030555548,0,0,1,0.9973,optionLeft,70,15010,7,11,0,11,0,1,,,,,,,,,,,,,,,,,,,,,,,,,,,,,,,,,,,,,,,
,,,,,,,,2023-08-16_08h50.05.115,HF_wild_card,2022.2.4,Win32,60.08532116,5a3adfb705f005000104d2a3,64d2fd46c836a06233681665,64dc7f737375467112b5d4b5,,,,,,,ctch,resources/DG.BMP,resources/DBN.BMP,Door3,-0.132407365,0.030555548,0,0,1,1.0634,optionLeft,70,15080,7,12,0,12,0,1,,,,,,,,,,,,,,,,,,,,,,,,,,,,,,,,,,,,,,,
,,,,,,,,2023-08-16_08h50.05.115,HF_wild_card,2022.2.4,Win32,60.08532116,5a3adfb705f005000104d2a3,64d2fd46c836a06233681665,64dc7f737375467112b5d4b5,,,,,,,decisionTrl,resources/DR.BMP,resources/DG.BMP,Door3,0.352777834,0.044444437,1,0,0,1.0089,optionRight,70,15150,7,13,0,13,0,1,,,,,,,,,,,,,,,,,,,,,,,,,,,,,,,,,,,,,,,
,,,,,,,,2023-08-16_08h50.05.115,HF_wild_card,2022.2.4,Win32,60.08532116,5a3adfb705f005000104d2a3,64d2fd46c836a06233681665,64dc7f737375467112b5d4b5,,,,,,,decisionTrl,resources/DG.BMP,resources/DR.BMP,Door4,0.213888875,-0.025000007,1,0,0,0.8142,optionRight,80,15230,7,14,0,14,0,1,,,,,,,,,,,,,,,,,,,,,,,,,,,,,,,,,,,,,,,
,,,,,,,,2023-08-16_08h50.05.115,HF_wild_card,2022.2.4,Win32,60.08532116,5a3adfb705f005000104d2a3,64d2fd46c836a06233681665,64dc7f737375467112b5d4b5,,,,,,,decisionTrl,resources/DY.BMP,resources/DBN.BMP,Door1,-0.199999986,-0.003703718,1,0,0,0.8487,optionLeft,30,15260,7,15,0,15,0,1,,,,,,,,,,,,,,,,,,,,,,,,,,,,,,,,,,,,,,,
,,,,,,,,2023-08-16_08h50.05.115,HF_wild_card,2022.2.4,Win32,60.08532116,5a3adfb705f005000104d2a3,64d2fd46c836a06233681665,64dc7f737375467112b5d4b5,,,,,,,ctch,resources/DG.BMP,resources/DBN.BMP,Door3,-0.255555541,0.01944443,0,0,1,0.9762,optionLeft,70,15330,7,16,0,16,0,1,,,,,,,,,,,,,,,,,,,,,,,,,,,,,,,,,,,,,,,
,,,,,,,,2023-08-16_08h50.05.115,HF_wild_card,2022.2.4,Win32,60.08532116,5a3adfb705f005000104d2a3,64d2fd46c836a06233681665,64dc7f737375467112b5d4b5,,,,,,,ctch,resources/DY.BMP,resources/DR.BMP,Door4,0.318518603,0.030555548,1,0,0,1.0946,optionRight,80,15410,7,17,0,17,0,1,,,,,,,,,,,,,,,,,,,,,,,,,,,,,,,,,,,,,,,
,,,,,,,,2023-08-16_08h50.05.115,HF_wild_card,2022.2.4,Win32,60.08532116,5a3adfb705f005000104d2a3,64d2fd46c836a06233681665,64dc7f737375467112b5d4b5,,,,,,,ctch,resources/DG.BMP,resources/DBN.BMP,Door3,-0.19259255,0.027777778,1,0,0,1.005,optionLeft,70,15480,7,18,0,18,0,1,,,,,,,,,,,,,,,,,,,,,,,,,,,,,,,,,,,,,,,
,,,,,,,,2023-08-16_08h50.05.115,HF_wild_card,2022.2.4,Win32,60.08532116,5a3adfb705f005000104d2a3,64d2fd46c836a06233681665,64dc7f737375467112b5d4b5,,,,,,,decisionTrl,resources/DR.BMP,resources/DG.BMP,Door4,-0.146296254,-0.001851859,1,0,0,0.8617,optionLeft,80,15560,7,19,0,19,0,1,,,,,,,,,,,,,,,,,,,,,,,,,,,,,,,,,,,,,,,
,,,,,,,,2023-08-16_08h50.05.115,HF_wild_card,2022.2.4,Win32,60.08532116,5a3adfb705f005000104d2a3,64d2fd46c836a06233681665,64dc7f737375467112b5d4b5,,,,,,,decisionTrl,resources/DBN.BMP,resources/DY.BMP,Door1,0.236111111,0.062962956,1,0,0,0.9537,optionRight,30,15590,7,20,0,20,0,1,,,,,,,,,,,,,,,,,,,,,,,,,,,,,,,,,,,,,,,
,,,,,,,,2023-08-16_08h50.05.115,HF_wild_card,2022.2.4,Win32,60.08532116,5a3adfb705f005000104d2a3,64d2fd46c836a06233681665,64dc7f737375467112b5d4b5,,,,,,,decisionTrl,resources/DR.BMP,resources/DG.BMP,Door3,0.167592578,-0.012962977,1,0,0,0.9487,optionRight,70,15660,7,21,0,21,0,1,,,,,,,,,,,,,,,,,,,,,,,,,,,,,,,,,,,,,,,
,,,,,,,,2023-08-16_08h50.05.115,HF_wild_card,2022.2.4,Win32,60.08532116,5a3adfb705f005000104d2a3,64d2fd46c836a06233681665,64dc7f737375467112b5d4b5,,,,,,,ctch,resources/DBN.BMP,resources/DG.BMP,Door3,0.443518603,-0.013888889,1,0,0,0.9785,optionRight,70,15730,7,22,0,22,0,1,,,,,,,,,,,,,,,,,,,,,,,,,,,,,,,,,,,,,,,
,,,,,,,,2023-08-16_08h50.05.115,HF_wild_card,2022.2.4,Win32,60.08532116,5a3adfb705f005000104d2a3,64d2fd46c836a06233681665,64dc7f737375467112b5d4b5,,,,,,,decisionTrl,resources/DY.BMP,resources/DBN.BMP,Door1,-0.283333319,0.002777771,1,0,0,0.8774,optionLeft,30,15760,7,23,0,23,0,1,,,,,,,,,,,,,,,,,,,,,,,,,,,,,,,,,,,,,,,
,,,,,,,,2023-08-16_08h50.05.115,HF_wild_card,2022.2.4,Win32,60.08532116,5a3adfb705f005000104d2a3,64d2fd46c836a06233681665,64dc7f737375467112b5d4b5,,,,,,,decisionTrl,resources/DBN.BMP,resources/DY.BMP,Door2,-0.306481467,0.072222215,1,0,0,0.7945,optionLeft,20,15780,7,24,0,24,0,1,,,,,,,,,,,,,,,,,,,,,,,,,,,,,,,,,,,,,,,
,,,,,,,,2023-08-16_08h50.05.115,HF_wild_card,2022.2.4,Win32,60.08532116,5a3adfb705f005000104d2a3,64d2fd46c836a06233681665,64dc7f737375467112b5d4b5,,,,,,,decisionTrl,resources/DG.BMP,resources/DR.BMP,Door3,-0.669444437,0.055555556,0,0,1,1.2782,optionLeft,70,15850,7,25,0,25,0,1,,,,,,,,,,,,,,,,,,,,,,,,,,,,,,,,,,,,,,,
,,,,,,,,2023-08-16_08h50.05.115,HF_wild_card,2022.2.4,Win32,60.08532116,5a3adfb705f005000104d2a3,64d2fd46c836a06233681665,64dc7f737375467112b5d4b5,,,,,,,decisionTrl,resources/DBN.BMP,resources/DY.BMP,Door1,0.491666723,-0.036111125,1,0,0,0.9704,optionRight,30,15880,7,26,0,26,0,1,,,,,,,,,,,,,,,,,,,,,,,,,,,,,,,,,,,,,,,
,,,,,,,,2023-08-16_08h50.05.115,HF_wild_card,2022.2.4,Win32,60.08532116,5a3adfb705f005000104d2a3,64d2fd46c836a06233681665,64dc7f737375467112b5d4b5,,,,,,,decisionTrl,resources/DY.BMP,resources/DBN.BMP,Door2,0.241666653,-0.022222236,1,0,0,0.7485,optionRight,40,15920,7,27,0,27,0,1,,,,,,,,,,,,,,,,,,,,,,,,,,,,,,,,,,,,,,,
,,,,,,,,2023-08-16_08h50.05.115,HF_wild_card,2022.2.4,Win32,60.08532116,5a3adfb705f005000104d2a3,64d2fd46c836a06233681665,64dc7f737375467112b5d4b5,,,,,,,decisionTrl,resources/DG.BMP,resources/DR.BMP,Door4,0.184259273,0.035185178,1,0,0,1.1833,optionRight,80,16000,7,28,0,28,0,1,,,,,,,,,,,,,,,,,,,,,,,,,,,,,,,,,,,,,,,
,,,,,,,,2023-08-16_08h50.05.115,HF_wild_card,2022.2.4,Win32,60.08532116,5a3adfb705f005000104d2a3,64d2fd46c836a06233681665,64dc7f737375467112b5d4b5,,,,,,,decisionTrl,resources/DY.BMP,resources/DBN.BMP,Door1,-0.345370363,0.014814801,1,0,0,0.9958,optionLeft,30,16030,7,29,0,29,0,1,,,,,,,,,,,,,,,,,,,,,,,,,,,,,,,,,,,,,,,
,,,,,,,,2023-08-16_08h50.05.115,HF_wild_card,2022.2.4,Win32,60.08532116,5a3adfb705f005000104d2a3,64d2fd46c836a06233681665,64dc7f737375467112b5d4b5,,,,,,,decisionTrl,resources/DG.BMP,resources/DR.BMP,Door4,0.162962949,-0.006481489,0,0,1,0.8595,optionRight,60,16090,7,30,0,30,0,1,,,,,,,,,,,,,,,,,,,,,,,,,,,,,,,,,,,,,,,
,,,,,,,,2023-08-16_08h50.05.115,HF_wild_card,2022.2.4,Win32,60.08532116,5a3adfb705f005000104d2a3,64d2fd46c836a06233681665,64dc7f737375467112b5d4b5,,,,,,,decisionTrl,resources/DBN.BMP,resources/DY.BMP,Door1,0.128703718,-0.00462963,1,0,0,1.003,optionRight,30,16120,7,31,0,31,0,1,,,,,,,,,,,,,,,,,,,,,,,,,,,,,,,,,,,,,,,
,,,,,,,,2023-08-16_08h50.05.115,HF_wild_card,2022.2.4,Win32,60.08532116,5a3adfb705f005000104d2a3,64d2fd46c836a06233681665,64dc7f737375467112b5d4b5,,,,,,,decisionTrl,resources/DBN.BMP,resources/DY.BMP,Door2,-0.280555513,0.013888889,1,0,0,0.7642,optionLeft,40,16160,7,32,0,32,0,1,,,,,,,,,,,,,,,,,,,,,,,,,,,,,,,,,,,,,,,
,,,,,,,,2023-08-16_08h50.05.115,HF_wild_card,2022.2.4,Win32,60.08532116,5a3adfb705f005000104d2a3,64d2fd46c836a06233681665,64dc7f737375467112b5d4b5,,,,,,,ctch,resources/DR.BMP,resources/DY.BMP,Door4,-0.141666624,0.032407407,1,0,0,0.889,optionLeft,60,16220,7,33,0,33,0,1,,,,,,,,,,,,,,,,,,,,,,,,,,,,,,,,,,,,,,,
,,,,,,,,2023-08-16_08h50.05.115,HF_wild_card,2022.2.4,Win32,60.08532116,5a3adfb705f005000104d2a3,64d2fd46c836a06233681665,64dc7f737375467112b5d4b5,,,,,,,decisionTrl,resources/DY.BMP,resources/DBN.BMP,Door1,-0.15370369,0.01203703,1,0,0,1.1327,optionLeft,30,16250,7,34,0,34,0,1,,,,,,,,,,,,,,,,,,,,,,,,,,,,,,,,,,,,,,,
,,,,,,,,2023-08-16_08h50.05.115,HF_wild_card,2022.2.4,Win32,60.08532116,5a3adfb705f005000104d2a3,64d2fd46c836a06233681665,64dc7f737375467112b5d4b5,,,,,,,ctch,resources/DR.BMP,resources/DY.BMP,Door4,-0.187962921,0.000925912,0,0,1,0.9299,optionLeft,60,16310,7,35,0,35,0,1,,,,,,,,,,,,,,,,,,,,,,,,,,,,,,,,,,,,,,,
,,,,,,,,2023-08-16_08h50.05.115,HF_wild_card,2022.2.4,Win32,60.08532116,5a3adfb705f005000104d2a3,64d2fd46c836a06233681665,64dc7f737375467112b5d4b5,,,,,,,,,,,,,,,,,,,,,,,,,,6,0,6,0,1,,,,,,,,,,,,,,,,,,,,,,,,,,,,,,,,,,
,,,,,,,,2023-08-16_08h50.05.115,HF_wild_card,2022.2.4,Win32,60.08532116,5a3adfb705f005000104d2a3,64d2fd46c836a06233681665,64dc7f737375467112b5d4b5,,,,,,,,,,,,,,,,,,,,,,,,,,,,,,,4,,,,,,,,,,,,,,,,,,,,,,,,,,,,,,,,,
,,,,,,,,2023-08-16_08h50.05.115,HF_wild_card,2022.2.4,Win32,60.08532116,5a3adfb705f005000104d2a3,64d2fd46c836a06233681665,64dc7f737375467112b5d4b5,,,,,,,,,,,,,,,,,,,,,,,,,,,,,,,,,,,,,,,,,,,,,,,,,,,,,,,,,,,,,,,,
,,,,,,,,2023-08-16_08h50.05.115,HF_wild_card,2022.2.4,Win32,60.08532116,5a3adfb705f005000104d2a3,64d2fd46c836a06233681665,64dc7f737375467112b5d4b5,,,,,,,,,,,,,,,,,,,,,,,,,,,,,,,,60,Door4,resources/DR.BMP,0,0,0,0,1,,,,,,,,,,,,,,,,,,,,,,,,,
,,,,,,,,2023-08-16_08h50.05.115,HF_wild_card,2022.2.4,Win32,60.08532116,5a3adfb705f005000104d2a3,64d2fd46c836a06233681665,64dc7f737375467112b5d4b5,,,,,,,,,,,,,,,,,,,,,,,,,,,,,,,,40,WC_extreme,resources/DP.BMP,1,0,1,0,1,,,,,,,,,,,,,,,,,,,,,,,,,
,,,,,,,,2023-08-16_08h50.05.115,HF_wild_card,2022.2.4,Win32,60.08532116,5a3adfb705f005000104d2a3,64d2fd46c836a06233681665,64dc7f737375467112b5d4b5,,,,,,,,,,,,,,,,,,,,,,,,,,,,,,,,70,Door3,resources/DG.BMP,2,0,2,0,1,,,,,,,,,,,,,,,,,,,,,,,,,
,,,,,,,,2023-08-16_08h50.05.115,HF_wild_card,2022.2.4,Win32,60.08532116,5a3adfb705f005000104d2a3,64d2fd46c836a06233681665,64dc7f737375467112b5d4b5,,,,,,,,,,,,,,,,,,,,,,,,,,,,,,,,55,WC_nonExtreme,resources/DB.BMP,3,0,3,0,1,,,,,,,,,,,,,,,,,,,,,,,,,
,,,,,,,,2023-08-16_08h50.05.115,HF_wild_card,2022.2.4,Win32,60.08532116,5a3adfb705f005000104d2a3,64d2fd46c836a06233681665,64dc7f737375467112b5d4b5,,,,,,,,,,,,,,,,,,,,,,,,,,,,,,,,20,Door2,resources/DBN.BMP,4,0,4,0,1,,,,,,,,,,,,,,,,,,,,,,,,,
,,,,,,,,2023-08-16_08h50.05.115,HF_wild_card,2022.2.4,Win32,60.08532116,5a3adfb705f005000104d2a3,64d2fd46c836a06233681665,64dc7f737375467112b5d4b5,,,,,,,,,,,,,,,,,,,,,,,,,,,,,,,,30,Door1,resources/DY.BMP,5,0,5,0,1,,,,,,,,,,,,,,,,,,,,,,,,,
,,,,,,,,2023-08-16_08h50.05.115,HF_wild_card,2022.2.4,Win32,60.08532116,5a3adfb705f005000104d2a3,64d2fd46c836a06233681665,64dc7f737375467112b5d4b5,,,,,,,,,,,,,,,,,,,,,,,,,,,,,,,,,,,,,,,,,,,,,,,,,,,,,,,,,,,,,,,,
