Condition,Low fixed image (Door1),Low risky image (Door2),High fixed image (Door3),High risky image (Door4),NonExtreme Wild Card 1,NonExtreme Wild Card 2,,date,expName,psychopyVersion,OS,frameRate,PROLIFIC_PID,STUDY_ID,SESSION_ID,mouse_2.x,mouse_2.y,mouse_2.leftButton,mouse_2.midButton,mouse_2.rightButton,mouse_2.clicked_name,Trial Type,Left Option Image,Right Option Image,Chosen Door,mouse.x,mouse.y,mouse.leftButton,mouse.midButton,mouse.rightButton,mouse.time,mouse.clicked_name,Feedback,Cumulative Reward,Block,trial.thisRepN,trial.thisTrialN,trial.thisN,trial.thisIndex,trial.ran,blocks.thisRepN,blocks.thisTrialN,blocks.thisN,blocks.thisIndex,blocks.ran,Money conversion,First Outcome Reported,Shown Door (First Outcome),Displayed Image (First Outcome),outcomes.thisRepN,outcomes.thisTrialN,outcomes.thisN,outcomes.thisIndex,outcomes.ran,judgments.thisRepN,judgments.thisTrialN,judgments.thisN,judgments.thisIndex,judgments.ran,freqMouse.x,freqMouse.y,freqMouse.leftButton,freqMouse.midButton,freqMouse.rightButton,freqMouse.clicked_name,FQJ for first outcome,FQJ for second outcome,Shown Door,Displayed Image,trials.thisRepN,trials.thisTrialN,trials.thisN,trials.thisIndex,trials.ran,judgBlock.thisRepN,judgBlock.thisTrialN,judgBlock.thisN,judgBlock.thisIndex,judgBlock.ran
2,resources/DB.BMP,resources/DP.BMP,resources/DBN.BMP,resources/DR.BMP,resources/DY.BMP,resources/DG.BMP,,2023-08-16_08h31.38.506,HF_wild_card,2022.2.4,Win32,58.80623346,5bebf332cef79f00014d230c,64d2fd46c836a06233681665,64dc7b4573c0403a94b512ce,,,,,,,,,,,,,,,,,,,,,,,,,,,,,,,,,,,,,,,,,,,,,,,,,,,,,,,,,,,,,,,,
,,,,,,,,2023-08-16_08h31.38.506,HF_wild_card,2022.2.4,Win32,58.80623346,5bebf332cef79f00014d230c,64d2fd46c836a06233681665,64dc7b4573c0403a94b512ce,0.007777778,-0.425555556,1,0,0,agree,,,,,,,,,,,,,,,,,,,,,,,,,,,,,,,,,,,,,,,,,,,,,,,,,,,,,,,,,,
,,,,,,,,2023-08-16_08h31.38.506,HF_wild_card,2022.2.4,Win32,58.80623346,5bebf332cef79f00014d230c,64d2fd46c836a06233681665,64dc7b4573c0403a94b512ce,,,,,,,,,,,,,,,,,,,,,,,,,,,,,,,,,,,,,,,,,,,,,,,,,,,,,,,,,,,,,,,,
,,,,,,,,2023-08-16_08h31.38.506,HF_wild_card,2022.2.4,Win32,58.80623346,5bebf332cef79f00014d230c,64d2fd46c836a06233681665,64dc7b4573c0403a94b512ce,,,,,,,sngl,resources/DR.BMP,resources/Empty.png,Door4,-0.372222222,-0.07,1,0,0,1.855,optionLeft,80,80,1,0,0,0,0,1,,,,,,,,,,,,,,,,,,,,,,,,,,,,,,,,,,,,,,,
,,,,,,,,2023-08-16_08h31.38.506,HF_wild_card,2022.2.4,Win32,58.80623346,5bebf332cef79f00014d230c,64d2fd46c836a06233681665,64dc7b4573c0403a94b512ce,,,,,,,decisionTrl,resources/DP.BMP,resources/DB.BMP,Door2,-0.33,-0.046666667,1,0,0,2.2397,optionLeft,20,100,1,1,0,1,0,1,,,,,,,,,,,,,,,,,,,,,,,,,,,,,,,,,,,,,,,
,,,,,,,,2023-08-16_08h31.38.506,HF_wild_card,2022.2.4,Win32,58.80623346,5bebf332cef79f00014d230c,64d2fd46c836a06233681665,64dc7b4573c0403a94b512ce,,,,,,,decisionTrl,resources/DBN.BMP,resources/DG.BMP,WildCard_NonEx,0.398888889,-0.015555556,1,0,0,1.0973,optionRight,45,145,1,2,0,2,0,1,,,,,,,,,,,,,,,,,,,,,,,,,,,,,,,,,,,,,,,
,,,,,,,,2023-08-16_08h31.38.506,HF_wild_card,2022.2.4,Win32,58.80623346,5bebf332cef79f00014d230c,64d2fd46c836a06233681665,64dc7b4573c0403a94b512ce,,,,,,,decisionTrl,resources/DR.BMP,resources/DBN.BMP,Door3,0.363333333,-0.017777778,1,0,0,0.9442,optionRight,70,215,1,3,0,3,0,1,,,,,,,,,,,,,,,,,,,,,,,,,,,,,,,,,,,,,,,
,,,,,,,,2023-08-16_08h31.38.506,HF_wild_card,2022.2.4,Win32,58.80623346,5bebf332cef79f00014d230c,64d2fd46c836a06233681665,64dc7b4573c0403a94b512ce,,,,,,,ctch,resources/DP.BMP,resources/DBN.BMP,Door3,0.391111111,0.004444444,1,0,0,1.9593,optionRight,70,285,1,4,0,4,0,1,,,,,,,,,,,,,,,,,,,,,,,,,,,,,,,,,,,,,,,
,,,,,,,,2023-08-16_08h31.38.506,HF_wild_card,2022.2.4,Win32,58.80623346,5bebf332cef79f00014d230c,64d2fd46c836a06233681665,64dc7b4573c0403a94b512ce,,,,,,,decisionTrl,resources/DG.BMP,resources/DP.BMP,Door2,0.342222222,-0.008888889,1,0,0,1.1425,optionRight,20,305,1,5,0,5,0,1,,,,,,,,,,,,,,,,,,,,,,,,,,,,,,,,,,,,,,,
,,,,,,,,2023-08-16_08h31.38.506,HF_wild_card,2022.2.4,Win32,58.80623346,5bebf332cef79f00014d230c,64d2fd46c836a06233681665,64dc7b4573c0403a94b512ce,,,,,,,ctch,resources/DB.BMP,resources/DR.BMP,Door4,0.328888889,0.004444444,1,0,0,1.152,optionRight,80,385,1,6,0,6,0,1,,,,,,,,,,,,,,,,,,,,,,,,,,,,,,,,,,,,,,,
,,,,,,,,2023-08-16_08h31.38.506,HF_wild_card,2022.2.4,Win32,58.80623346,5bebf332cef79f00014d230c,64d2fd46c836a06233681665,64dc7b4573c0403a94b512ce,,,,,,,sngl,resources/DP.BMP,resources/Empty.png,Door2,-0.333333333,-0.003333333,1,0,0,0.8913,optionLeft,40,425,1,7,0,7,0,1,,,,,,,,,,,,,,,,,,,,,,,,,,,,,,,,,,,,,,,
,,,,,,,,2023-08-16_08h31.38.506,HF_wild_card,2022.2.4,Win32,58.80623346,5bebf332cef79f00014d230c,64d2fd46c836a06233681665,64dc7b4573c0403a94b512ce,,,,,,,ctch,resources/DBN.BMP,resources/DP.BMP,Door2,0.373333333,-0.017777778,1,0,0,1.1261,optionRight,20,445,1,8,0,8,0,1,,,,,,,,,,,,,,,,,,,,,,,,,,,,,,,,,,,,,,,
,,,,,,,,2023-08-16_08h31.38.506,HF_wild_card,2022.2.4,Win32,58.80623346,5bebf332cef79f00014d230c,64d2fd46c836a06233681665,64dc7b4573c0403a94b512ce,,,,,,,decisionTrl,resources/DBN.BMP,resources/DR.BMP,Door4,0.401111111,-0.001111111,1,0,0,0.946,optionRight,80,525,1,9,0,9,0,1,,,,,,,,,,,,,,,,,,,,,,,,,,,,,,,,,,,,,,,
,,,,,,,,2023-08-16_08h31.38.506,HF_wild_card,2022.2.4,Win32,58.80623346,5bebf332cef79f00014d230c,64d2fd46c836a06233681665,64dc7b4573c0403a94b512ce,,,,,,,decisionTrl,resources/DB.BMP,resources/DP.BMP,Door1,-0.326666667,-0.011111111,1,0,0,1.0656,optionLeft,30,555,1,10,0,10,0,1,,,,,,,,,,,,,,,,,,,,,,,,,,,,,,,,,,,,,,,
,,,,,,,,2023-08-16_08h31.38.506,HF_wild_card,2022.2.4,Win32,58.80623346,5bebf332cef79f00014d230c,64d2fd46c836a06233681665,64dc7b4573c0403a94b512ce,,,,,,,sngl,resources/DB.BMP,resources/Empty.png,Door1,-0.438888889,-0.02,1,0,0,0.8278,optionLeft,30,585,1,11,0,11,0,1,,,,,,,,,,,,,,,,,,,,,,,,,,,,,,,,,,,,,,,
,,,,,,,,2023-08-16_08h31.38.506,HF_wild_card,2022.2.4,Win32,58.80623346,5bebf332cef79f00014d230c,64d2fd46c836a06233681665,64dc7b4573c0403a94b512ce,,,,,,,sngl,resources/Empty.png,resources/DG.BMP,WildCard_NonEx,0.348888889,-0.01,1,0,0,0.7136,optionRight,45,630,1,12,0,12,0,1,,,,,,,,,,,,,,,,,,,,,,,,,,,,,,,,,,,,,,,
,,,,,,,,2023-08-16_08h31.38.506,HF_wild_card,2022.2.4,Win32,58.80623346,5bebf332cef79f00014d230c,64d2fd46c836a06233681665,64dc7b4573c0403a94b512ce,,,,,,,decisionTrl,resources/DP.BMP,resources/DB.BMP,Door2,-0.458888889,-0.012222222,1,0,0,1.1621,optionLeft,40,670,1,13,0,13,0,1,,,,,,,,,,,,,,,,,,,,,,,,,,,,,,,,,,,,,,,
,,,,,,,,2023-08-16_08h31.38.506,HF_wild_card,2022.2.4,Win32,58.80623346,5bebf332cef79f00014d230c,64d2fd46c836a06233681665,64dc7b4573c0403a94b512ce,,,,,,,decisionTrl,resources/DBN.BMP,resources/DR.BMP,Door3,-0.29,0.015555556,1,0,0,1.2132,optionLeft,70,740,1,14,0,14,0,1,,,,,,,,,,,,,,,,,,,,,,,,,,,,,,,,,,,,,,,
,,,,,,,,2023-08-16_08h31.38.506,HF_wild_card,2022.2.4,Win32,58.80623346,5bebf332cef79f00014d230c,64d2fd46c836a06233681665,64dc7b4573c0403a94b512ce,,,,,,,decisionTrl,resources/DBN.BMP,resources/DR.BMP,Door4,0.291111111,-0.077777778,1,0,0,3.0735,optionRight,60,800,1,15,0,15,0,1,,,,,,,,,,,,,,,,,,,,,,,,,,,,,,,,,,,,,,,
,,,,,,,,2023-08-16_08h31.38.506,HF_wild_card,2022.2.4,Win32,58.80623346,5bebf332cef79f00014d230c,64d2fd46c836a06233681665,64dc7b4573c0403a94b512ce,,,,,,,sngl,resources/DG.BMP,resources/Empty.png,WildCard_NonEx,-0.25,0.001111111,1,0,0,0.7951,optionLeft,55,855,1,16,0,16,0,1,,,,,,,,,,,,,,,,,,,,,,,,,,,,,,,,,,,,,,,
,,,,,,,,2023-08-16_08h31.38.506,HF_wild_card,2022.2.4,Win32,58.80623346,5bebf332cef79f00014d230c,64d2fd46c836a06233681665,64dc7b4573c0403a94b512ce,,,,,,,sngl,resources/Empty.png,resources/DBN.BMP,Door3,0.257777778,-0.084444444,1,0,0,0.9764,optionRight,70,925,1,17,0,17,0,1,,,,,,,,,,,,,,,,,,,,,,,,,,,,,,,,,,,,,,,
,,,,,,,,2023-08-16_08h31.38.506,HF_wild_card,2022.2.4,Win32,58.80623346,5bebf332cef79f00014d230c,64d2fd46c836a06233681665,64dc7b4573c0403a94b512ce,,,,,,,sngl,resources/Empty.png,resources/DR.BMP,Door4,0.674444444,-0.014444444,1,0,0,2.042,optionRight,60,985,1,18,0,18,0,1,,,,,,,,,,,,,,,,,,,,,,,,,,,,,,,,,,,,,,,
,,,,,,,,2023-08-16_08h31.38.506,HF_wild_card,2022.2.4,Win32,58.80623346,5bebf332cef79f00014d230c,64d2fd46c836a06233681665,64dc7b4573c0403a94b512ce,,,,,,,decisionTrl,resources/DP.BMP,resources/DG.BMP,WildCard_NonEx,0.428888889,-0.015555556,1,0,0,3.4426,optionRight,55,1040,1,19,0,19,0,1,,,,,,,,,,,,,,,,,,,,,,,,,,,,,,,,,,,,,,,
,,,,,,,,2023-08-16_08h31.38.506,HF_wild_card,2022.2.4,Win32,58.80623346,5bebf332cef79f00014d230c,64d2fd46c836a06233681665,64dc7b4573c0403a94b512ce,,,,,,,sngl,resources/Empty.png,resources/DP.BMP,Door2,0.327777778,-0.056666667,1,0,0,1.6789,optionRight,20,1060,1,20,0,20,0,1,,,,,,,,,,,,,,,,,,,,,,,,,,,,,,,,,,,,,,,
,,,,,,,,2023-08-16_08h31.38.506,HF_wild_card,2022.2.4,Win32,58.80623346,5bebf332cef79f00014d230c,64d2fd46c836a06233681665,64dc7b4573c0403a94b512ce,,,,,,,decisionTrl,resources/DB.BMP,resources/DP.BMP,Door1,-0.427777778,-0.048888889,1,0,0,1.695,optionLeft,30,1090,1,21,0,21,0,1,,,,,,,,,,,,,,,,,,,,,,,,,,,,,,,,,,,,,,,
,,,,,,,,2023-08-16_08h31.38.506,HF_wild_card,2022.2.4,Win32,58.80623346,5bebf332cef79f00014d230c,64d2fd46c836a06233681665,64dc7b4573c0403a94b512ce,,,,,,,decisionTrl,resources/DB.BMP,resources/DP.BMP,Door1,-0.434444444,0.001111111,1,0,0,0.9716,optionLeft,30,1120,1,22,0,22,0,1,,,,,,,,,,,,,,,,,,,,,,,,,,,,,,,,,,,,,,,
,,,,,,,,2023-08-16_08h31.38.506,HF_wild_card,2022.2.4,Win32,58.80623346,5bebf332cef79f00014d230c,64d2fd46c836a06233681665,64dc7b4573c0403a94b512ce,,,,,,,decisionTrl,resources/DB.BMP,resources/DP.BMP,Door2,0.358888889,-0.041111111,1,0,0,0.9943,optionRight,20,1140,1,23,0,23,0,1,,,,,,,,,,,,,,,,,,,,,,,,,,,,,,,,,,,,,,,
,,,,,,,,2023-08-16_08h31.38.506,HF_wild_card,2022.2.4,Win32,58.80623346,5bebf332cef79f00014d230c,64d2fd46c836a06233681665,64dc7b4573c0403a94b512ce,,,,,,,decisionTrl,resources/DBN.BMP,resources/DR.BMP,Door3,-0.342222222,-0.035555556,1,0,0,2.3961,optionLeft,70,1210,1,24,0,24,0,1,,,,,,,,,,,,,,,,,,,,,,,,,,,,,,,,,,,,,,,
,,,,,,,,2023-08-16_08h31.38.506,HF_wild_card,2022.2.4,Win32,58.80623346,5bebf332cef79f00014d230c,64d2fd46c836a06233681665,64dc7b4573c0403a94b512ce,,,,,,,ctch,resources/DR.BMP,resources/DB.BMP,Door1,0.298888889,-0.042222222,1,0,0,1.7105,optionRight,30,1240,1,25,0,25,0,1,,,,,,,,,,,,,,,,,,,,,,,,,,,,,,,,,,,,,,,
,,,,,,,,2023-08-16_08h31.38.506,HF_wild_card,2022.2.4,Win32,58.80623346,5bebf332cef79f00014d230c,64d2fd46c836a06233681665,64dc7b4573c0403a94b512ce,,,,,,,decisionTrl,resources/DG.BMP,resources/DR.BMP,Door4,0.307777778,-0.057777778,1,0,0,3.0202,optionRight,80,1320,1,26,0,26,0,1,,,,,,,,,,,,,,,,,,,,,,,,,,,,,,,,,,,,,,,
,,,,,,,,2023-08-16_08h31.38.506,HF_wild_card,2022.2.4,Win32,58.80623346,5bebf332cef79f00014d230c,64d2fd46c836a06233681665,64dc7b4573c0403a94b512ce,,,,,,,decisionTrl,resources/DG.BMP,resources/DBN.BMP,WildCard_NonEx,-0.302222222,-0.014444444,1,0,0,1.0968,optionLeft,45,1365,1,27,0,27,0,1,,,,,,,,,,,,,,,,,,,,,,,,,,,,,,,,,,,,,,,
,,,,,,,,2023-08-16_08h31.38.506,HF_wild_card,2022.2.4,Win32,58.80623346,5bebf332cef79f00014d230c,64d2fd46c836a06233681665,64dc7b4573c0403a94b512ce,,,,,,,sngl,resources/DBN.BMP,resources/Empty.png,Door3,-0.344444444,-0.043333333,1,0,0,0.6939,optionLeft,70,1435,1,28,0,28,0,1,,,,,,,,,,,,,,,,,,,,,,,,,,,,,,,,,,,,,,,
,,,,,,,,2023-08-16_08h31.38.506,HF_wild_card,2022.2.4,Win32,58.80623346,5bebf332cef79f00014d230c,64d2fd46c836a06233681665,64dc7b4573c0403a94b512ce,,,,,,,decisionTrl,resources/DG.BMP,resources/DB.BMP,WildCard_NonEx,-0.49,-0.014444444,1,0,0,2.9607,optionLeft,55,1490,1,29,0,29,0,1,,,,,,,,,,,,,,,,,,,,,,,,,,,,,,,,,,,,,,,
,,,,,,,,2023-08-16_08h31.38.506,HF_wild_card,2022.2.4,Win32,58.80623346,5bebf332cef79f00014d230c,64d2fd46c836a06233681665,64dc7b4573c0403a94b512ce,,,,,,,ctch,resources/DBN.BMP,resources/DP.BMP,Door2,0.414444444,0.045555556,1,0,0,2.1395,optionRight,20,1510,1,30,0,30,0,1,,,,,,,,,,,,,,,,,,,,,,,,,,,,,,,,,,,,,,,
,,,,,,,,2023-08-16_08h31.38.506,HF_wild_card,2022.2.4,Win32,58.80623346,5bebf332cef79f00014d230c,64d2fd46c836a06233681665,64dc7b4573c0403a94b512ce,,,,,,,sngl,resources/Empty.png,resources/DG.BMP,WildCard_NonEx,0.413333333,-0.083333333,1,0,0,1.9972,optionRight,55,1565,1,31,0,31,0,1,,,,,,,,,,,,,,,,,,,,,,,,,,,,,,,,,,,,,,,
,,,,,,,,2023-08-16_08h31.38.506,HF_wild_card,2022.2.4,Win32,58.80623346,5bebf332cef79f00014d230c,64d2fd46c836a06233681665,64dc7b4573c0403a94b512ce,,,,,,,decisionTrl,resources/DR.BMP,resources/DBN.BMP,Door4,-0.373333333,-0.051111111,1,0,0,1.143,optionLeft,60,1625,1,32,0,32,0,1,,,,,,,,,,,,,,,,,,,,,,,,,,,,,,,,,,,,,,,
,,,,,,,,2023-08-16_08h31.38.506,HF_wild_card,2022.2.4,Win32,58.80623346,5bebf332cef79f00014d230c,64d2fd46c836a06233681665,64dc7b4573c0403a94b512ce,,,,,,,ctch,resources/DR.BMP,resources/DB.BMP,Door4,-0.417777778,-0.014444444,1,0,0,0.9672,optionLeft,80,1705,1,33,0,33,0,1,,,,,,,,,,,,,,,,,,,,,,,,,,,,,,,,,,,,,,,
,,,,,,,,2023-08-16_08h31.38.506,HF_wild_card,2022.2.4,Win32,58.80623346,5bebf332cef79f00014d230c,64d2fd46c836a06233681665,64dc7b4573c0403a94b512ce,,,,,,,decisionTrl,resources/DR.BMP,resources/DBN.BMP,Door4,-0.391111111,-0.016666667,1,0,0,0.6937,optionLeft,60,1765,1,34,0,34,0,1,,,,,,,,,,,,,,,,,,,,,,,,,,,,,,,,,,,,,,,
,,,,,,,,2023-08-16_08h31.38.506,HF_wild_card,2022.2.4,Win32,58.80623346,5bebf332cef79f00014d230c,64d2fd46c836a06233681665,64dc7b4573c0403a94b512ce,,,,,,,decisionTrl,resources/DR.BMP,resources/DG.BMP,Door4,-0.323333333,-0.017777778,1,0,0,0.7104,optionLeft,80,1845,1,35,0,35,0,1,,,,,,,,,,,,,,,,,,,,,,,,,,,,,,,,,,,,,,,
,,,,,,,,2023-08-16_08h31.38.506,HF_wild_card,2022.2.4,Win32,58.80623346,5bebf332cef79f00014d230c,64d2fd46c836a06233681665,64dc7b4573c0403a94b512ce,,,,,,,sngl,resources/Empty.png,resources/DB.BMP,Door1,0.465555556,-0.018888889,1,0,0,0.8789,optionRight,30,1875,1,36,0,36,0,1,,,,,,,,,,,,,,,,,,,,,,,,,,,,,,,,,,,,,,,
,,,,,,,,2023-08-16_08h31.38.506,HF_wild_card,2022.2.4,Win32,58.80623346,5bebf332cef79f00014d230c,64d2fd46c836a06233681665,64dc7b4573c0403a94b512ce,,,,,,,decisionTrl,resources/DB.BMP,resources/DG.BMP,WildCard_NonEx,0.402222222,0.004444444,1,0,0,1.193,optionRight,45,1920,1,37,0,37,0,1,,,,,,,,,,,,,,,,,,,,,,,,,,,,,,,,,,,,,,,
,,,,,,,,2023-08-16_08h31.38.506,HF_wild_card,2022.2.4,Win32,58.80623346,5bebf332cef79f00014d230c,64d2fd46c836a06233681665,64dc7b4573c0403a94b512ce,,,,,,,ctch,resources/DP.BMP,resources/DBN.BMP,Door3,0.412222222,0.041111111,1,0,0,2.8116,optionRight,70,1990,1,38,0,38,0,1,,,,,,,,,,,,,,,,,,,,,,,,,,,,,,,,,,,,,,,
,,,,,,,,2023-08-16_08h31.38.506,HF_wild_card,2022.2.4,Win32,58.80623346,5bebf332cef79f00014d230c,64d2fd46c836a06233681665,64dc7b4573c0403a94b512ce,,,,,,,decisionTrl,resources/DP.BMP,resources/DB.BMP,Door2,-0.415555556,0.002222222,1,0,0,3.4626,optionLeft,20,2010,1,39,0,39,0,1,,,,,,,,,,,,,,,,,,,,,,,,,,,,,,,,,,,,,,,
,,,,,,,,2023-08-16_08h31.38.506,HF_wild_card,2022.2.4,Win32,58.80623346,5bebf332cef79f00014d230c,64d2fd46c836a06233681665,64dc7b4573c0403a94b512ce,,,,,,,sngl,resources/DG.BMP,resources/Empty.png,WildCard_NonEx,-0.284444444,0.036666667,1,0,0,3.457,optionLeft,45,2055,1,40,0,40,0,1,,,,,,,,,,,,,,,,,,,,,,,,,,,,,,,,,,,,,,,
,,,,,,,,2023-08-16_08h31.38.506,HF_wild_card,2022.2.4,Win32,58.80623346,5bebf332cef79f00014d230c,64d2fd46c836a06233681665,64dc7b4573c0403a94b512ce,,,,,,,ctch,resources/DB.BMP,resources/DR.BMP,Door4,0.477777778,-0.09,1,0,0,1.0444,optionRight,60,2115,1,41,0,41,0,1,,,,,,,,,,,,,,,,,,,,,,,,,,,,,,,,,,,,,,,
,,,,,,,,2023-08-16_08h31.38.506,HF_wild_card,2022.2.4,Win32,58.80623346,5bebf332cef79f00014d230c,64d2fd46c836a06233681665,64dc7b4573c0403a94b512ce,,,,,,,decisionTrl,resources/DP.BMP,resources/DB.BMP,Door1,0.373333333,-0.097777778,1,0,0,4.7792,optionRight,30,2145,1,42,0,42,0,1,,,,,,,,,,,,,,,,,,,,,,,,,,,,,,,,,,,,,,,
,,,,,,,,2023-08-16_08h31.38.506,HF_wild_card,2022.2.4,Win32,58.80623346,5bebf332cef79f00014d230c,64d2fd46c836a06233681665,64dc7b4573c0403a94b512ce,,,,,,,decisionTrl,resources/DR.BMP,resources/DBN.BMP,Door3,0.446666667,-0.062222222,1,0,0,1.127,optionRight,70,2215,1,43,0,43,0,1,,,,,,,,,,,,,,,,,,,,,,,,,,,,,,,,,,,,,,,
,,,,,,,,2023-08-16_08h31.38.506,HF_wild_card,2022.2.4,Win32,58.80623346,5bebf332cef79f00014d230c,64d2fd46c836a06233681665,64dc7b4573c0403a94b512ce,,,,,,,,,,,,,,,,,,,,,,,,,,0,0,0,0,1,,,,,,,,,,,,,,,,,,,,,,,,,,,,,,,,,,
,,,,,,,,2023-08-16_08h31.38.506,HF_wild_card,2022.2.4,Win32,58.80623346,5bebf332cef79f00014d230c,64d2fd46c836a06233681665,64dc7b4573c0403a94b512ce,,,,,,,decisionTrl,resources/DR.BMP,resources/DBN.BMP,Door3,0.335555556,-0.036666667,1,0,0,0.9343,optionRight,70,2285,2,0,0,0,0,1,,,,,,,,,,,,,,,,,,,,,,,,,,,,,,,,,,,,,,,
,,,,,,,,2023-08-16_08h31.38.506,HF_wild_card,2022.2.4,Win32,58.80623346,5bebf332cef79f00014d230c,64d2fd46c836a06233681665,64dc7b4573c0403a94b512ce,,,,,,,sngl,resources/Empty.png,resources/DB.BMP,Door1,0.326666667,0,1,0,0,0.8945,optionRight,30,2315,2,1,0,1,0,1,,,,,,,,,,,,,,,,,,,,,,,,,,,,,,,,,,,,,,,
,,,,,,,,2023-08-16_08h31.38.506,HF_wild_card,2022.2.4,Win32,58.80623346,5bebf332cef79f00014d230c,64d2fd46c836a06233681665,64dc7b4573c0403a94b512ce,,,,,,,decisionTrl,resources/DP.BMP,resources/DG.BMP,WildCard_NonEx,0.504444444,0.011111111,1,0,0,1.6777,optionRight,45,2360,2,2,0,2,0,1,,,,,,,,,,,,,,,,,,,,,,,,,,,,,,,,,,,,,,,
,,,,,,,,2023-08-16_08h31.38.506,HF_wild_card,2022.2.4,Win32,58.80623346,5bebf332cef79f00014d230c,64d2fd46c836a06233681665,64dc7b4573c0403a94b512ce,,,,,,,sngl,resources/DP.BMP,resources/Empty.png,Door2,-0.426666667,-0.055555556,1,0,0,0.9005,optionLeft,20,2380,2,3,0,3,0,1,,,,,,,,,,,,,,,,,,,,,,,,,,,,,,,,,,,,,,,
,,,,,,,,2023-08-16_08h31.38.506,HF_wild_card,2022.2.4,Win32,58.80623346,5bebf332cef79f00014d230c,64d2fd46c836a06233681665,64dc7b4573c0403a94b512ce,,,,,,,decisionTrl,resources/DBN.BMP,resources/DR.BMP,Door3,-0.418888889,-0.066666667,1,0,0,0.9271,optionLeft,70,2450,2,4,0,4,0,1,,,,,,,,,,,,,,,,,,,,,,,,,,,,,,,,,,,,,,,
,,,,,,,,2023-08-16_08h31.38.506,HF_wild_card,2022.2.4,Win32,58.80623346,5bebf332cef79f00014d230c,64d2fd46c836a06233681665,64dc7b4573c0403a94b512ce,,,,,,,ctch,resources/DR.BMP,resources/DB.BMP,Door4,-0.308888889,-0.027777778,1,0,0,0.928,optionLeft,60,2510,2,5,0,5,0,1,,,,,,,,,,,,,,,,,,,,,,,,,,,,,,,,,,,,,,,
,,,,,,,,2023-08-16_08h31.38.506,HF_wild_card,2022.2.4,Win32,58.80623346,5bebf332cef79f00014d230c,64d2fd46c836a06233681665,64dc7b4573c0403a94b512ce,,,,,,,decisionTrl,resources/DBN.BMP,resources/DG.BMP,Door3,-0.206666667,0,1,0,0,0.9064,optionLeft,70,2580,2,6,0,6,0,1,,,,,,,,,,,,,,,,,,,,,,,,,,,,,,,,,,,,,,,
,,,,,,,,2023-08-16_08h31.38.506,HF_wild_card,2022.2.4,Win32,58.80623346,5bebf332cef79f00014d230c,64d2fd46c836a06233681665,64dc7b4573c0403a94b512ce,,,,,,,ctch,resources/DBN.BMP,resources/DP.BMP,Door3,-0.425555556,-0.021111111,1,0,0,0.7627,optionLeft,70,2650,2,7,0,7,0,1,,,,,,,,,,,,,,,,,,,,,,,,,,,,,,,,,,,,,,,
,,,,,,,,2023-08-16_08h31.38.506,HF_wild_card,2022.2.4,Win32,58.80623346,5bebf332cef79f00014d230c,64d2fd46c836a06233681665,64dc7b4573c0403a94b512ce,,,,,,,ctch,resources/DR.BMP,resources/DB.BMP,Door4,-0.372222222,-0.058888889,1,0,0,0.8118,optionLeft,60,2710,2,8,0,8,0,1,,,,,,,,,,,,,,,,,,,,,,,,,,,,,,,,,,,,,,,
,,,,,,,,2023-08-16_08h31.38.506,HF_wild_card,2022.2.4,Win32,58.80623346,5bebf332cef79f00014d230c,64d2fd46c836a06233681665,64dc7b4573c0403a94b512ce,,,,,,,ctch,resources/DB.BMP,resources/DR.BMP,Door4,0.353333333,-0.046666667,1,0,0,0.8106,optionRight,80,2790,2,9,0,9,0,1,,,,,,,,,,,,,,,,,,,,,,,,,,,,,,,,,,,,,,,
,,,,,,,,2023-08-16_08h31.38.506,HF_wild_card,2022.2.4,Win32,58.80623346,5bebf332cef79f00014d230c,64d2fd46c836a06233681665,64dc7b4573c0403a94b512ce,,,,,,,decisionTrl,resources/DBN.BMP,resources/DR.BMP,Door4,0.347777778,-0.012222222,1,0,0,1.6445,optionRight,60,2850,2,10,0,10,0,1,,,,,,,,,,,,,,,,,,,,,,,,,,,,,,,,,,,,,,,
,,,,,,,,2023-08-16_08h31.38.506,HF_wild_card,2022.2.4,Win32,58.80623346,5bebf332cef79f00014d230c,64d2fd46c836a06233681665,64dc7b4573c0403a94b512ce,,,,,,,decisionTrl,resources/DG.BMP,resources/DP.BMP,WildCard_NonEx,-0.304444444,-0.004444444,1,0,0,3.5274,optionLeft,55,2905,2,11,0,11,0,1,,,,,,,,,,,,,,,,,,,,,,,,,,,,,,,,,,,,,,,
,,,,,,,,2023-08-16_08h31.38.506,HF_wild_card,2022.2.4,Win32,58.80623346,5bebf332cef79f00014d230c,64d2fd46c836a06233681665,64dc7b4573c0403a94b512ce,,,,,,,decisionTrl,resources/DR.BMP,resources/DG.BMP,Door4,-0.42,-0.016666667,1,0,0,3.6801,optionLeft,80,2985,2,12,0,12,0,1,,,,,,,,,,,,,,,,,,,,,,,,,,,,,,,,,,,,,,,
,,,,,,,,2023-08-16_08h31.38.506,HF_wild_card,2022.2.4,Win32,58.80623346,5bebf332cef79f00014d230c,64d2fd46c836a06233681665,64dc7b4573c0403a94b512ce,,,,,,,decisionTrl,resources/DBN.BMP,resources/DR.BMP,Door4,0.364444444,-0.02,1,0,0,1.512,optionRight,80,3065,2,13,0,13,0,1,,,,,,,,,,,,,,,,,,,,,,,,,,,,,,,,,,,,,,,
,,,,,,,,2023-08-16_08h31.38.506,HF_wild_card,2022.2.4,Win32,58.80623346,5bebf332cef79f00014d230c,64d2fd46c836a06233681665,64dc7b4573c0403a94b512ce,,,,,,,decisionTrl,resources/DG.BMP,resources/DR.BMP,Door4,0.388888889,0.023333333,1,0,0,0.6911,optionRight,80,3145,2,14,0,14,0,1,,,,,,,,,,,,,,,,,,,,,,,,,,,,,,,,,,,,,,,
,,,,,,,,2023-08-16_08h31.38.506,HF_wild_card,2022.2.4,Win32,58.80623346,5bebf332cef79f00014d230c,64d2fd46c836a06233681665,64dc7b4573c0403a94b512ce,,,,,,,decisionTrl,resources/DBN.BMP,resources/DR.BMP,Door4,0.467777778,0.007777778,1,0,0,0.8452,optionRight,60,3205,2,15,0,15,0,1,,,,,,,,,,,,,,,,,,,,,,,,,,,,,,,,,,,,,,,
,,,,,,,,2023-08-16_08h31.38.506,HF_wild_card,2022.2.4,Win32,58.80623346,5bebf332cef79f00014d230c,64d2fd46c836a06233681665,64dc7b4573c0403a94b512ce,,,,,,,ctch,resources/DB.BMP,resources/DR.BMP,Door4,0.342222222,0.003333333,1,0,0,0.8301,optionRight,80,3285,2,16,0,16,0,1,,,,,,,,,,,,,,,,,,,,,,,,,,,,,,,,,,,,,,,
,,,,,,,,2023-08-16_08h31.38.506,HF_wild_card,2022.2.4,Win32,58.80623346,5bebf332cef79f00014d230c,64d2fd46c836a06233681665,64dc7b4573c0403a94b512ce,,,,,,,decisionTrl,resources/DG.BMP,resources/DBN.BMP,Door3,0.344444444,0.022222222,1,0,0,0.7621,optionRight,70,3355,2,17,0,17,0,1,,,,,,,,,,,,,,,,,,,,,,,,,,,,,,,,,,,,,,,
,,,,,,,,2023-08-16_08h31.38.506,HF_wild_card,2022.2.4,Win32,58.80623346,5bebf332cef79f00014d230c,64d2fd46c836a06233681665,64dc7b4573c0403a94b512ce,,,,,,,sngl,resources/DBN.BMP,resources/Empty.png,Door3,-0.373333333,0.018888889,1,0,0,0.662,optionLeft,70,3425,2,18,0,18,0,1,,,,,,,,,,,,,,,,,,,,,,,,,,,,,,,,,,,,,,,
,,,,,,,,2023-08-16_08h31.38.506,HF_wild_card,2022.2.4,Win32,58.80623346,5bebf332cef79f00014d230c,64d2fd46c836a06233681665,64dc7b4573c0403a94b512ce,,,,,,,decisionTrl,resources/DB.BMP,resources/DP.BMP,Door1,-0.285555556,-0.002222222,1,0,0,5.6958,optionLeft,30,3455,2,19,0,19,0,1,,,,,,,,,,,,,,,,,,,,,,,,,,,,,,,,,,,,,,,
,,,,,,,,2023-08-16_08h31.38.506,HF_wild_card,2022.2.4,Win32,58.80623346,5bebf332cef79f00014d230c,64d2fd46c836a06233681665,64dc7b4573c0403a94b512ce,,,,,,,sngl,resources/Empty.png,resources/DG.BMP,WildCard_NonEx,0.56,-0.062222222,1,0,0,0.7101,optionRight,55,3510,2,20,0,20,0,1,,,,,,,,,,,,,,,,,,,,,,,,,,,,,,,,,,,,,,,
,,,,,,,,2023-08-16_08h31.38.506,HF_wild_card,2022.2.4,Win32,58.80623346,5bebf332cef79f00014d230c,64d2fd46c836a06233681665,64dc7b4573c0403a94b512ce,,,,,,,sngl,resources/Empty.png,resources/DP.BMP,Door2,0.362222222,-0.023333333,1,0,0,0.6797,optionRight,40,3550,2,21,0,21,0,1,,,,,,,,,,,,,,,,,,,,,,,,,,,,,,,,,,,,,,,
,,,,,,,,2023-08-16_08h31.38.506,HF_wild_card,2022.2.4,Win32,58.80623346,5bebf332cef79f00014d230c,64d2fd46c836a06233681665,64dc7b4573c0403a94b512ce,,,,,,,decisionTrl,resources/DB.BMP,resources/DP.BMP,Door2,0.332222222,-0.006666667,1,0,0,1.2139,optionRight,40,3590,2,22,0,22,0,1,,,,,,,,,,,,,,,,,,,,,,,,,,,,,,,,,,,,,,,
,,,,,,,,2023-08-16_08h31.38.506,HF_wild_card,2022.2.4,Win32,58.80623346,5bebf332cef79f00014d230c,64d2fd46c836a06233681665,64dc7b4573c0403a94b512ce,,,,,,,sngl,resources/DG.BMP,resources/Empty.png,WildCard_NonEx,-0.407777778,0.002222222,1,0,0,0.6945,optionLeft,45,3635,2,23,0,23,0,1,,,,,,,,,,,,,,,,,,,,,,,,,,,,,,,,,,,,,,,
,,,,,,,,2023-08-16_08h31.38.506,HF_wild_card,2022.2.4,Win32,58.80623346,5bebf332cef79f00014d230c,64d2fd46c836a06233681665,64dc7b4573c0403a94b512ce,,,,,,,ctch,resources/DBN.BMP,resources/DP.BMP,Door3,-0.43,0.008888889,1,0,0,0.7545,optionLeft,70,3705,2,24,0,24,0,1,,,,,,,,,,,,,,,,,,,,,,,,,,,,,,,,,,,,,,,
,,,,,,,,2023-08-16_08h31.38.506,HF_wild_card,2022.2.4,Win32,58.80623346,5bebf332cef79f00014d230c,64d2fd46c836a06233681665,64dc7b4573c0403a94b512ce,,,,,,,decisionTrl,resources/DR.BMP,resources/DBN.BMP,Door4,-0.571111111,-0.028888889,1,0,0,1.0435,optionLeft,80,3785,2,25,0,25,0,1,,,,,,,,,,,,,,,,,,,,,,,,,,,,,,,,,,,,,,,
,,,,,,,,2023-08-16_08h31.38.506,HF_wild_card,2022.2.4,Win32,58.80623346,5bebf332cef79f00014d230c,64d2fd46c836a06233681665,64dc7b4573c0403a94b512ce,,,,,,,ctch,resources/DP.BMP,resources/DBN.BMP,Door3,0.376666667,0.007777778,1,0,0,0.8592,optionRight,70,3855,2,26,0,26,0,1,,,,,,,,,,,,,,,,,,,,,,,,,,,,,,,,,,,,,,,
,,,,,,,,2023-08-16_08h31.38.506,HF_wild_card,2022.2.4,Win32,58.80623346,5bebf332cef79f00014d230c,64d2fd46c836a06233681665,64dc7b4573c0403a94b512ce,,,,,,,sngl,resources/Empty.png,resources/DG.BMP,WildCard_NonEx,0.376666667,0,1,0,0,0.6272,optionRight,45,3900,2,27,0,27,0,1,,,,,,,,,,,,,,,,,,,,,,,,,,,,,,,,,,,,,,,
,,,,,,,,2023-08-16_08h31.38.506,HF_wild_card,2022.2.4,Win32,58.80623346,5bebf332cef79f00014d230c,64d2fd46c836a06233681665,64dc7b4573c0403a94b512ce,,,,,,,decisionTrl,resources/DB.BMP,resources/DG.BMP,Door1,-0.4,-0.012222222,1,0,0,1.4275,optionLeft,30,3930,2,28,0,28,0,1,,,,,,,,,,,,,,,,,,,,,,,,,,,,,,,,,,,,,,,
,,,,,,,,2023-08-16_08h31.38.506,HF_wild_card,2022.2.4,Win32,58.80623346,5bebf332cef79f00014d230c,64d2fd46c836a06233681665,64dc7b4573c0403a94b512ce,,,,,,,decisionTrl,resources/DP.BMP,resources/DB.BMP,Door1,0.32,0.005555556,1,0,0,5.3262,optionRight,30,3960,2,29,0,29,0,1,,,,,,,,,,,,,,,,,,,,,,,,,,,,,,,,,,,,,,,
,,,,,,,,2023-08-16_08h31.38.506,HF_wild_card,2022.2.4,Win32,58.80623346,5bebf332cef79f00014d230c,64d2fd46c836a06233681665,64dc7b4573c0403a94b512ce,,,,,,,sngl,resources/DB.BMP,resources/Empty.png,Door1,-0.415555556,-0.025555556,1,0,0,0.7127,optionLeft,30,3990,2,30,0,30,0,1,,,,,,,,,,,,,,,,,,,,,,,,,,,,,,,,,,,,,,,
,,,,,,,,2023-08-16_08h31.38.506,HF_wild_card,2022.2.4,Win32,58.80623346,5bebf332cef79f00014d230c,64d2fd46c836a06233681665,64dc7b4573c0403a94b512ce,,,,,,,decisionTrl,resources/DB.BMP,resources/DP.BMP,Door2,0.286666667,0.007777778,1,0,0,2.9791,optionRight,40,4030,2,31,0,31,0,1,,,,,,,,,,,,,,,,,,,,,,,,,,,,,,,,,,,,,,,
,,,,,,,,2023-08-16_08h31.38.506,HF_wild_card,2022.2.4,Win32,58.80623346,5bebf332cef79f00014d230c,64d2fd46c836a06233681665,64dc7b4573c0403a94b512ce,,,,,,,decisionTrl,resources/DP.BMP,resources/DB.BMP,Door2,-0.347777778,-0.036666667,1,0,0,1.0271,optionLeft,40,4070,2,32,0,32,0,1,,,,,,,,,,,,,,,,,,,,,,,,,,,,,,,,,,,,,,,
,,,,,,,,2023-08-16_08h31.38.506,HF_wild_card,2022.2.4,Win32,58.80623346,5bebf332cef79f00014d230c,64d2fd46c836a06233681665,64dc7b4573c0403a94b512ce,,,,,,,sngl,resources/Empty.png,resources/DR.BMP,Door4,0.368888889,-0.005555556,1,0,0,0.6601,optionRight,80,4150,2,33,0,33,0,1,,,,,,,,,,,,,,,,,,,,,,,,,,,,,,,,,,,,,,,
,,,,,,,,2023-08-16_08h31.38.506,HF_wild_card,2022.2.4,Win32,58.80623346,5bebf332cef79f00014d230c,64d2fd46c836a06233681665,64dc7b4573c0403a94b512ce,,,,,,,sngl,resources/Empty.png,resources/DBN.BMP,Door3,0.447777778,0.017777778,1,0,0,0.5936,optionRight,70,4220,2,34,0,34,0,1,,,,,,,,,,,,,,,,,,,,,,,,,,,,,,,,,,,,,,,
,,,,,,,,2023-08-16_08h31.38.506,HF_wild_card,2022.2.4,Win32,58.80623346,5bebf332cef79f00014d230c,64d2fd46c836a06233681665,64dc7b4573c0403a94b512ce,,,,,,,decisionTrl,resources/DB.BMP,resources/DP.BMP,Door2,0.324444444,-0.02,1,0,0,1.4947,optionRight,40,4260,2,35,0,35,0,1,,,,,,,,,,,,,,,,,,,,,,,,,,,,,,,,,,,,,,,
,,,,,,,,2023-08-16_08h31.38.506,HF_wild_card,2022.2.4,Win32,58.80623346,5bebf332cef79f00014d230c,64d2fd46c836a06233681665,64dc7b4573c0403a94b512ce,,,,,,,ctch,resources/DP.BMP,resources/DBN.BMP,Door3,0.373333333,0.018888889,1,0,0,0.7303,optionRight,70,4330,2,36,0,36,0,1,,,,,,,,,,,,,,,,,,,,,,,,,,,,,,,,,,,,,,,
,,,,,,,,2023-08-16_08h31.38.506,HF_wild_card,2022.2.4,Win32,58.80623346,5bebf332cef79f00014d230c,64d2fd46c836a06233681665,64dc7b4573c0403a94b512ce,,,,,,,decisionTrl,resources/DR.BMP,resources/DBN.BMP,Door3,0.395555556,-0.002222222,1,0,0,0.9428,optionRight,70,4400,2,37,0,37,0,1,,,,,,,,,,,,,,,,,,,,,,,,,,,,,,,,,,,,,,,
,,,,,,,,2023-08-16_08h31.38.506,HF_wild_card,2022.2.4,Win32,58.80623346,5bebf332cef79f00014d230c,64d2fd46c836a06233681665,64dc7b4573c0403a94b512ce,,,,,,,decisionTrl,resources/DP.BMP,resources/DB.BMP,Door2,-0.343333333,-0.027777778,1,0,0,1.2111,optionLeft,20,4420,2,38,0,38,0,1,,,,,,,,,,,,,,,,,,,,,,,,,,,,,,,,,,,,,,,
,,,,,,,,2023-08-16_08h31.38.506,HF_wild_card,2022.2.4,Win32,58.80623346,5bebf332cef79f00014d230c,64d2fd46c836a06233681665,64dc7b4573c0403a94b512ce,,,,,,,sngl,resources/DG.BMP,resources/Empty.png,WildCard_NonEx,-0.418888889,-0.016666667,1,0,0,0.679,optionLeft,55,4475,2,39,0,39,0,1,,,,,,,,,,,,,,,,,,,,,,,,,,,,,,,,,,,,,,,
,,,,,,,,2023-08-16_08h31.38.506,HF_wild_card,2022.2.4,Win32,58.80623346,5bebf332cef79f00014d230c,64d2fd46c836a06233681665,64dc7b4573c0403a94b512ce,,,,,,,decisionTrl,resources/DR.BMP,resources/DBN.BMP,Door3,0.43,0.041111111,1,0,0,2.5292,optionRight,70,4545,2,40,0,40,0,1,,,,,,,,,,,,,,,,,,,,,,,,,,,,,,,,,,,,,,,
,,,,,,,,2023-08-16_08h31.38.506,HF_wild_card,2022.2.4,Win32,58.80623346,5bebf332cef79f00014d230c,64d2fd46c836a06233681665,64dc7b4573c0403a94b512ce,,,,,,,decisionTrl,resources/DP.BMP,resources/DB.BMP,Door1,0.343333333,-0.007777778,1,0,0,1.1956,optionRight,30,4575,2,41,0,41,0,1,,,,,,,,,,,,,,,,,,,,,,,,,,,,,,,,,,,,,,,
,,,,,,,,2023-08-16_08h31.38.506,HF_wild_card,2022.2.4,Win32,58.80623346,5bebf332cef79f00014d230c,64d2fd46c836a06233681665,64dc7b4573c0403a94b512ce,,,,,,,decisionTrl,resources/DG.BMP,resources/DB.BMP,WildCard_NonEx,-0.323333333,0.005555556,1,0,0,1.2268,optionLeft,55,4630,2,42,0,42,0,1,,,,,,,,,,,,,,,,,,,,,,,,,,,,,,,,,,,,,,,
,,,,,,,,2023-08-16_08h31.38.506,HF_wild_card,2022.2.4,Win32,58.80623346,5bebf332cef79f00014d230c,64d2fd46c836a06233681665,64dc7b4573c0403a94b512ce,,,,,,,sngl,resources/DR.BMP,resources/Empty.png,Door4,-0.478888889,-0.004444444,1,0,0,0.7944,optionLeft,60,4690,2,43,0,43,0,1,,,,,,,,,,,,,,,,,,,,,,,,,,,,,,,,,,,,,,,
,,,,,,,,2023-08-16_08h31.38.506,HF_wild_card,2022.2.4,Win32,58.80623346,5bebf332cef79f00014d230c,64d2fd46c836a06233681665,64dc7b4573c0403a94b512ce,,,,,,,,,,,,,,,,,,,,,,,,,,1,0,1,0,1,,,,,,,,,,,,,,,,,,,,,,,,,,,,,,,,,,
,,,,,,,,2023-08-16_08h31.38.506,HF_wild_card,2022.2.4,Win32,58.80623346,5bebf332cef79f00014d230c,64d2fd46c836a06233681665,64dc7b4573c0403a94b512ce,,,,,,,decisionTrl,resources/DP.BMP,resources/DB.BMP,Door2,-0.306666667,-0.061111111,1,0,0,1.1612,optionLeft,40,4730,3,0,0,0,0,1,,,,,,,,,,,,,,,,,,,,,,,,,,,,,,,,,,,,,,,
,,,,,,,,2023-08-16_08h31.38.506,HF_wild_card,2022.2.4,Win32,58.80623346,5bebf332cef79f00014d230c,64d2fd46c836a06233681665,64dc7b4573c0403a94b512ce,,,,,,,sngl,resources/Empty.png,resources/DBN.BMP,Door3,0.338888889,-0.008888889,1,0,0,0.662,optionRight,70,4800,3,1,0,1,0,1,,,,,,,,,,,,,,,,,,,,,,,,,,,,,,,,,,,,,,,
,,,,,,,,2023-08-16_08h31.38.506,HF_wild_card,2022.2.4,Win32,58.80623346,5bebf332cef79f00014d230c,64d2fd46c836a06233681665,64dc7b4573c0403a94b512ce,,,,,,,decisionTrl,resources/DG.BMP,resources/DP.BMP,WildCard_NonEx,-0.411111111,0.018888889,1,0,0,4.6629,optionLeft,45,4845,3,2,0,2,0,1,,,,,,,,,,,,,,,,,,,,,,,,,,,,,,,,,,,,,,,
,,,,,,,,2023-08-16_08h31.38.506,HF_wild_card,2022.2.4,Win32,58.80623346,5bebf332cef79f00014d230c,64d2fd46c836a06233681665,64dc7b4573c0403a94b512ce,,,,,,,decisionTrl,resources/DB.BMP,resources/DP.BMP,Door2,0.278888889,-0.017777778,1,0,0,3.3679,optionRight,40,4885,3,3,0,3,0,1,,,,,,,,,,,,,,,,,,,,,,,,,,,,,,,,,,,,,,,
,,,,,,,,2023-08-16_08h31.38.506,HF_wild_card,2022.2.4,Win32,58.80623346,5bebf332cef79f00014d230c,64d2fd46c836a06233681665,64dc7b4573c0403a94b512ce,,,,,,,decisionTrl,resources/DG.BMP,resources/DR.BMP,Door4,0.44,0.043333333,1,0,0,1.9471,optionRight,60,4945,3,4,0,4,0,1,,,,,,,,,,,,,,,,,,,,,,,,,,,,,,,,,,,,,,,
,,,,,,,,2023-08-16_08h31.38.506,HF_wild_card,2022.2.4,Win32,58.80623346,5bebf332cef79f00014d230c,64d2fd46c836a06233681665,64dc7b4573c0403a94b512ce,,,,,,,decisionTrl,resources/DR.BMP,resources/DG.BMP,WildCard_NonEx,0.484444444,-0.006666667,1,0,0,1.1535,optionRight,55,5000,3,5,0,5,0,1,,,,,,,,,,,,,,,,,,,,,,,,,,,,,,,,,,,,,,,
,,,,,,,,2023-08-16_08h31.38.506,HF_wild_card,2022.2.4,Win32,58.80623346,5bebf332cef79f00014d230c,64d2fd46c836a06233681665,64dc7b4573c0403a94b512ce,,,,,,,decisionTrl,resources/DG.BMP,resources/DB.BMP,WildCard_NonEx,-0.444444444,-0.031111111,1,0,0,1.0425,optionLeft,45,5045,3,6,0,6,0,1,,,,,,,,,,,,,,,,,,,,,,,,,,,,,,,,,,,,,,,
,,,,,,,,2023-08-16_08h31.38.506,HF_wild_card,2022.2.4,Win32,58.80623346,5bebf332cef79f00014d230c,64d2fd46c836a06233681665,64dc7b4573c0403a94b512ce,,,,,,,sngl,resources/Empty.png,resources/DR.BMP,Door4,0.512222222,-0.017777778,1,0,0,0.5964,optionRight,60,5105,3,7,0,7,0,1,,,,,,,,,,,,,,,,,,,,,,,,,,,,,,,,,,,,,,,
,,,,,,,,2023-08-16_08h31.38.506,HF_wild_card,2022.2.4,Win32,58.80623346,5bebf332cef79f00014d230c,64d2fd46c836a06233681665,64dc7b4573c0403a94b512ce,,,,,,,sngl,resources/Empty.png,resources/DB.BMP,Door1,0.316666667,-0.025555556,1,0,0,0.7428,optionRight,30,5135,3,8,0,8,0,1,,,,,,,,,,,,,,,,,,,,,,,,,,,,,,,,,,,,,,,
,,,,,,,,2023-08-16_08h31.38.506,HF_wild_card,2022.2.4,Win32,58.80623346,5bebf332cef79f00014d230c,64d2fd46c836a06233681665,64dc7b4573c0403a94b512ce,,,,,,,decisionTrl,resources/DR.BMP,resources/DBN.BMP,Door3,0.363333333,0.015555556,1,0,0,1.7425,optionRight,70,5205,3,9,0,9,0,1,,,,,,,,,,,,,,,,,,,,,,,,,,,,,,,,,,,,,,,
,,,,,,,,2023-08-16_08h31.38.506,HF_wild_card,2022.2.4,Win32,58.80623346,5bebf332cef79f00014d230c,64d2fd46c836a06233681665,64dc7b4573c0403a94b512ce,,,,,,,ctch,resources/DB.BMP,resources/DR.BMP,Door4,0.421111111,-0.001111111,1,0,0,0.8016,optionRight,60,5265,3,10,0,10,0,1,,,,,,,,,,,,,,,,,,,,,,,,,,,,,,,,,,,,,,,
,,,,,,,,2023-08-16_08h31.38.506,HF_wild_card,2022.2.4,Win32,58.80623346,5bebf332cef79f00014d230c,64d2fd46c836a06233681665,64dc7b4573c0403a94b512ce,,,,,,,sngl,resources/DP.BMP,resources/Empty.png,Door2,-0.356666667,-0.037777778,1,0,0,0.6112,optionLeft,40,5305,3,11,0,11,0,1,,,,,,,,,,,,,,,,,,,,,,,,,,,,,,,,,,,,,,,
,,,,,,,,2023-08-16_08h31.38.506,HF_wild_card,2022.2.4,Win32,58.80623346,5bebf332cef79f00014d230c,64d2fd46c836a06233681665,64dc7b4573c0403a94b512ce,,,,,,,ctch,resources/DBN.BMP,resources/DP.BMP,Door3,-0.285555556,-0.033333333,1,0,0,0.9103,optionLeft,70,5375,3,12,0,12,0,1,,,,,,,,,,,,,,,,,,,,,,,,,,,,,,,,,,,,,,,
,,,,,,,,2023-08-16_08h31.38.506,HF_wild_card,2022.2.4,Win32,58.80623346,5bebf332cef79f00014d230c,64d2fd46c836a06233681665,64dc7b4573c0403a94b512ce,,,,,,,decisionTrl,resources/DB.BMP,resources/DG.BMP,WildCard_NonEx,0.406666667,0.002222222,1,0,0,1.4283,optionRight,55,5430,3,13,0,13,0,1,,,,,,,,,,,,,,,,,,,,,,,,,,,,,,,,,,,,,,,
,,,,,,,,2023-08-16_08h31.38.506,HF_wild_card,2022.2.4,Win32,58.80623346,5bebf332cef79f00014d230c,64d2fd46c836a06233681665,64dc7b4573c0403a94b512ce,,,,,,,sngl,resources/DG.BMP,resources/Empty.png,WildCard_NonEx,-0.493333333,0.001111111,1,0,0,0.5773,optionLeft,45,5475,3,14,0,14,0,1,,,,,,,,,,,,,,,,,,,,,,,,,,,,,,,,,,,,,,,
,,,,,,,,2023-08-16_08h31.38.506,HF_wild_card,2022.2.4,Win32,58.80623346,5bebf332cef79f00014d230c,64d2fd46c836a06233681665,64dc7b4573c0403a94b512ce,,,,,,,ctch,resources/DR.BMP,resources/DB.BMP,Door4,-0.318888889,-0.025555556,1,0,0,1.0609,optionLeft,60,5535,3,15,0,15,0,1,,,,,,,,,,,,,,,,,,,,,,,,,,,,,,,,,,,,,,,
,,,,,,,,2023-08-16_08h31.38.506,HF_wild_card,2022.2.4,Win32,58.80623346,5bebf332cef79f00014d230c,64d2fd46c836a06233681665,64dc7b4573c0403a94b512ce,,,,,,,ctch,resources/DB.BMP,resources/DR.BMP,Door4,0.38,-0.005555556,1,0,0,0.8626,optionRight,60,5595,3,16,0,16,0,1,,,,,,,,,,,,,,,,,,,,,,,,,,,,,,,,,,,,,,,
,,,,,,,,2023-08-16_08h31.38.506,HF_wild_card,2022.2.4,Win32,58.80623346,5bebf332cef79f00014d230c,64d2fd46c836a06233681665,64dc7b4573c0403a94b512ce,,,,,,,decisionTrl,resources/DBN.BMP,resources/DR.BMP,Door3,-0.361111111,0.004444444,1,0,0,0.7295,optionLeft,70,5665,3,17,0,17,0,1,,,,,,,,,,,,,,,,,,,,,,,,,,,,,,,,,,,,,,,
,,,,,,,,2023-08-16_08h31.38.506,HF_wild_card,2022.2.4,Win32,58.80623346,5bebf332cef79f00014d230c,64d2fd46c836a06233681665,64dc7b4573c0403a94b512ce,,,,,,,decisionTrl,resources/DBN.BMP,resources/DG.BMP,Door3,-0.291111111,0.026666667,1,0,0,0.6787,optionLeft,70,5735,3,18,0,18,0,1,,,,,,,,,,,,,,,,,,,,,,,,,,,,,,,,,,,,,,,
,,,,,,,,2023-08-16_08h31.38.506,HF_wild_card,2022.2.4,Win32,58.80623346,5bebf332cef79f00014d230c,64d2fd46c836a06233681665,64dc7b4573c0403a94b512ce,,,,,,,sngl,resources/DR.BMP,resources/Empty.png,Door4,-0.477777778,-0.004444444,1,0,0,0.6112,optionLeft,80,5815,3,19,0,19,0,1,,,,,,,,,,,,,,,,,,,,,,,,,,,,,,,,,,,,,,,
,,,,,,,,2023-08-16_08h31.38.506,HF_wild_card,2022.2.4,Win32,58.80623346,5bebf332cef79f00014d230c,64d2fd46c836a06233681665,64dc7b4573c0403a94b512ce,,,,,,,sngl,resources/DB.BMP,resources/Empty.png,Door1,-0.366666667,0.022222222,1,0,0,0.6101,optionLeft,30,5845,3,20,0,20,0,1,,,,,,,,,,,,,,,,,,,,,,,,,,,,,,,,,,,,,,,
,,,,,,,,2023-08-16_08h31.38.506,HF_wild_card,2022.2.4,Win32,58.80623346,5bebf332cef79f00014d230c,64d2fd46c836a06233681665,64dc7b4573c0403a94b512ce,,,,,,,decisionTrl,resources/DBN.BMP,resources/DR.BMP,Door3,-0.284444444,0.045555556,1,0,0,0.646,optionLeft,70,5915,3,21,0,21,0,1,,,,,,,,,,,,,,,,,,,,,,,,,,,,,,,,,,,,,,,
,,,,,,,,2023-08-16_08h31.38.506,HF_wild_card,2022.2.4,Win32,58.80623346,5bebf332cef79f00014d230c,64d2fd46c836a06233681665,64dc7b4573c0403a94b512ce,,,,,,,ctch,resources/DP.BMP,resources/DBN.BMP,Door3,0.431111111,0.025555556,1,0,0,0.6612,optionRight,70,5985,3,22,0,22,0,1,,,,,,,,,,,,,,,,,,,,,,,,,,,,,,,,,,,,,,,
,,,,,,,,2023-08-16_08h31.38.506,HF_wild_card,2022.2.4,Win32,58.80623346,5bebf332cef79f00014d230c,64d2fd46c836a06233681665,64dc7b4573c0403a94b512ce,,,,,,,sngl,resources/DG.BMP,resources/Empty.png,WildCard_NonEx,-0.334444444,0.013333333,1,0,0,0.5775,optionLeft,55,6040,3,23,0,23,0,1,,,,,,,,,,,,,,,,,,,,,,,,,,,,,,,,,,,,,,,
,,,,,,,,2023-08-16_08h31.38.506,HF_wild_card,2022.2.4,Win32,58.80623346,5bebf332cef79f00014d230c,64d2fd46c836a06233681665,64dc7b4573c0403a94b512ce,,,,,,,decisionTrl,resources/DP.BMP,resources/DG.BMP,WildCard_NonEx,0.387777778,-0.028888889,1,0,0,4.7935,optionRight,55,6095,3,24,0,24,0,1,,,,,,,,,,,,,,,,,,,,,,,,,,,,,,,,,,,,,,,
,,,,,,,,2023-08-16_08h31.38.506,HF_wild_card,2022.2.4,Win32,58.80623346,5bebf332cef79f00014d230c,64d2fd46c836a06233681665,64dc7b4573c0403a94b512ce,,,,,,,decisionTrl,resources/DR.BMP,resources/DBN.BMP,Door3,0.38,0.043333333,1,0,0,0.9774,optionRight,70,6165,3,25,0,25,0,1,,,,,,,,,,,,,,,,,,,,,,,,,,,,,,,,,,,,,,,
,,,,,,,,2023-08-16_08h31.38.506,HF_wild_card,2022.2.4,Win32,58.80623346,5bebf332cef79f00014d230c,64d2fd46c836a06233681665,64dc7b4573c0403a94b512ce,,,,,,,sngl,resources/Empty.png,resources/DP.BMP,Door2,0.368888889,-0.033333333,1,0,0,0.6108,optionRight,20,6185,3,26,0,26,0,1,,,,,,,,,,,,,,,,,,,,,,,,,,,,,,,,,,,,,,,
,,,,,,,,2023-08-16_08h31.38.506,HF_wild_card,2022.2.4,Win32,58.80623346,5bebf332cef79f00014d230c,64d2fd46c836a06233681665,64dc7b4573c0403a94b512ce,,,,,,,sngl,resources/Empty.png,resources/DG.BMP,WildCard_NonEx,0.306666667,-0.023333333,1,0,0,0.6126,optionRight,45,6230,3,27,0,27,0,1,,,,,,,,,,,,,,,,,,,,,,,,,,,,,,,,,,,,,,,
,,,,,,,,2023-08-16_08h31.38.506,HF_wild_card,2022.2.4,Win32,58.80623346,5bebf332cef79f00014d230c,64d2fd46c836a06233681665,64dc7b4573c0403a94b512ce,,,,,,,decisionTrl,resources/DP.BMP,resources/DB.BMP,Door1,0.234444444,-0.005555556,1,0,0,4.0262,optionRight,30,6260,3,28,0,28,0,1,,,,,,,,,,,,,,,,,,,,,,,,,,,,,,,,,,,,,,,
,,,,,,,,2023-08-16_08h31.38.506,HF_wild_card,2022.2.4,Win32,58.80623346,5bebf332cef79f00014d230c,64d2fd46c836a06233681665,64dc7b4573c0403a94b512ce,,,,,,,decisionTrl,resources/DBN.BMP,resources/DR.BMP,Door3,-0.44,-0.006666667,1,0,0,0.7779,optionLeft,70,6330,3,29,0,29,0,1,,,,,,,,,,,,,,,,,,,,,,,,,,,,,,,,,,,,,,,
,,,,,,,,2023-08-16_08h31.38.506,HF_wild_card,2022.2.4,Win32,58.80623346,5bebf332cef79f00014d230c,64d2fd46c836a06233681665,64dc7b4573c0403a94b512ce,,,,,,,sngl,resources/Empty.png,resources/DG.BMP,WildCard_NonEx,0.327777778,-0.028888889,1,0,0,0.5781,optionRight,55,6385,3,30,0,30,0,1,,,,,,,,,,,,,,,,,,,,,,,,,,,,,,,,,,,,,,,
,,,,,,,,2023-08-16_08h31.38.506,HF_wild_card,2022.2.4,Win32,58.80623346,5bebf332cef79f00014d230c,64d2fd46c836a06233681665,64dc7b4573c0403a94b512ce,,,,,,,decisionTrl,resources/DR.BMP,resources/DBN.BMP,Door3,0.244444444,-0.008888889,1,0,0,0.91,optionRight,70,6455,3,31,0,31,0,1,,,,,,,,,,,,,,,,,,,,,,,,,,,,,,,,,,,,,,,
,,,,,,,,2023-08-16_08h31.38.506,HF_wild_card,2022.2.4,Win32,58.80623346,5bebf332cef79f00014d230c,64d2fd46c836a06233681665,64dc7b4573c0403a94b512ce,,,,,,,ctch,resources/DP.BMP,resources/DBN.BMP,Door3,0.4,-0.063333333,1,0,0,0.8302,optionRight,70,6525,3,32,0,32,0,1,,,,,,,,,,,,,,,,,,,,,,,,,,,,,,,,,,,,,,,
,,,,,,,,2023-08-16_08h31.38.506,HF_wild_card,2022.2.4,Win32,58.80623346,5bebf332cef79f00014d230c,64d2fd46c836a06233681665,64dc7b4573c0403a94b512ce,,,,,,,decisionTrl,resources/DP.BMP,resources/DB.BMP,Door2,-0.493333333,-0.016666667,1,0,0,1.3148,optionLeft,40,6565,3,33,0,33,0,1,,,,,,,,,,,,,,,,,,,,,,,,,,,,,,,,,,,,,,,
,,,,,,,,2023-08-16_08h31.38.506,HF_wild_card,2022.2.4,Win32,58.80623346,5bebf332cef79f00014d230c,64d2fd46c836a06233681665,64dc7b4573c0403a94b512ce,,,,,,,decisionTrl,resources/DB.BMP,resources/DP.BMP,Door2,0.304444444,-0.01,1,0,0,1.0315,optionRight,40,6605,3,34,0,34,0,1,,,,,,,,,,,,,,,,,,,,,,,,,,,,,,,,,,,,,,,
,,,,,,,,2023-08-16_08h31.38.506,HF_wild_card,2022.2.4,Win32,58.80623346,5bebf332cef79f00014d230c,64d2fd46c836a06233681665,64dc7b4573c0403a94b512ce,,,,,,,sngl,resources/DBN.BMP,resources/Empty.png,Door3,-0.476666667,0.036666667,1,0,0,0.6643,optionLeft,70,6675,3,35,0,35,0,1,,,,,,,,,,,,,,,,,,,,,,,,,,,,,,,,,,,,,,,
,,,,,,,,2023-08-16_08h31.38.506,HF_wild_card,2022.2.4,Win32,58.80623346,5bebf332cef79f00014d230c,64d2fd46c836a06233681665,64dc7b4573c0403a94b512ce,,,,,,,decisionTrl,resources/DB.BMP,resources/DP.BMP,Door2,0.34,0.038888889,1,0,0,1.8482,optionRight,20,6695,3,36,0,36,0,1,,,,,,,,,,,,,,,,,,,,,,,,,,,,,,,,,,,,,,,
,,,,,,,,2023-08-16_08h31.38.506,HF_wild_card,2022.2.4,Win32,58.80623346,5bebf332cef79f00014d230c,64d2fd46c836a06233681665,64dc7b4573c0403a94b512ce,,,,,,,decisionTrl,resources/DB.BMP,resources/DP.BMP,Door1,-0.306666667,-0.014444444,1,0,0,1.297,optionLeft,30,6725,3,37,0,37,0,1,,,,,,,,,,,,,,,,,,,,,,,,,,,,,,,,,,,,,,,
,,,,,,,,2023-08-16_08h31.38.506,HF_wild_card,2022.2.4,Win32,58.80623346,5bebf332cef79f00014d230c,64d2fd46c836a06233681665,64dc7b4573c0403a94b512ce,,,,,,,decisionTrl,resources/DR.BMP,resources/DBN.BMP,Door3,0.271111111,-0.022222222,1,0,0,0.9979,optionRight,70,6795,3,38,0,38,0,1,,,,,,,,,,,,,,,,,,,,,,,,,,,,,,,,,,,,,,,
,,,,,,,,2023-08-16_08h31.38.506,HF_wild_card,2022.2.4,Win32,58.80623346,5bebf332cef79f00014d230c,64d2fd46c836a06233681665,64dc7b4573c0403a94b512ce,,,,,,,decisionTrl,resources/DG.BMP,resources/DBN.BMP,Door3,0.266666667,-0.014444444,1,0,0,0.698,optionRight,70,6865,3,39,0,39,0,1,,,,,,,,,,,,,,,,,,,,,,,,,,,,,,,,,,,,,,,
,,,,,,,,2023-08-16_08h31.38.506,HF_wild_card,2022.2.4,Win32,58.80623346,5bebf332cef79f00014d230c,64d2fd46c836a06233681665,64dc7b4573c0403a94b512ce,,,,,,,decisionTrl,resources/DBN.BMP,resources/DR.BMP,Door3,-0.304444444,-0.022222222,1,0,0,0.6812,optionLeft,70,6935,3,40,0,40,0,1,,,,,,,,,,,,,,,,,,,,,,,,,,,,,,,,,,,,,,,
,,,,,,,,2023-08-16_08h31.38.506,HF_wild_card,2022.2.4,Win32,58.80623346,5bebf332cef79f00014d230c,64d2fd46c836a06233681665,64dc7b4573c0403a94b512ce,,,,,,,ctch,resources/DBN.BMP,resources/DP.BMP,Door3,-0.278888889,-0.017777778,1,0,0,0.647,optionLeft,70,7005,3,41,0,41,0,1,,,,,,,,,,,,,,,,,,,,,,,,,,,,,,,,,,,,,,,
,,,,,,,,2023-08-16_08h31.38.506,HF_wild_card,2022.2.4,Win32,58.80623346,5bebf332cef79f00014d230c,64d2fd46c836a06233681665,64dc7b4573c0403a94b512ce,,,,,,,ctch,resources/DR.BMP,resources/DB.BMP,Door4,-0.293333333,-0.002222222,1,0,0,1.5138,optionLeft,60,7065,3,42,0,42,0,1,,,,,,,,,,,,,,,,,,,,,,,,,,,,,,,,,,,,,,,
,,,,,,,,2023-08-16_08h31.38.506,HF_wild_card,2022.2.4,Win32,58.80623346,5bebf332cef79f00014d230c,64d2fd46c836a06233681665,64dc7b4573c0403a94b512ce,,,,,,,decisionTrl,resources/DP.BMP,resources/DB.BMP,Door2,-0.285555556,-0.03,1,0,0,1.7149,optionLeft,20,7085,3,43,0,43,0,1,,,,,,,,,,,,,,,,,,,,,,,,,,,,,,,,,,,,,,,
,,,,,,,,2023-08-16_08h31.38.506,HF_wild_card,2022.2.4,Win32,58.80623346,5bebf332cef79f00014d230c,64d2fd46c836a06233681665,64dc7b4573c0403a94b512ce,,,,,,,,,,,,,,,,,,,,,,,,,,2,0,2,0,1,,,,,,,,,,,,,,,,,,,,,,,,,,,,,,,,,,
,,,,,,,,2023-08-16_08h31.38.506,HF_wild_card,2022.2.4,Win32,58.80623346,5bebf332cef79f00014d230c,64d2fd46c836a06233681665,64dc7b4573c0403a94b512ce,,,,,,,decisionTrl,resources/DR.BMP,resources/DBN.BMP,Door3,0.306666667,0.012222222,1,0,0,0.9195,optionRight,70,7155,4,0,0,0,0,1,,,,,,,,,,,,,,,,,,,,,,,,,,,,,,,,,,,,,,,
,,,,,,,,2023-08-16_08h31.38.506,HF_wild_card,2022.2.4,Win32,58.80623346,5bebf332cef79f00014d230c,64d2fd46c836a06233681665,64dc7b4573c0403a94b512ce,,,,,,,ctch,resources/DP.BMP,resources/DBN.BMP,Door3,0.39,0.017777778,1,0,0,0.5791,optionRight,70,7225,4,1,0,1,0,1,,,,,,,,,,,,,,,,,,,,,,,,,,,,,,,,,,,,,,,
,,,,,,,,2023-08-16_08h31.38.506,HF_wild_card,2022.2.4,Win32,58.80623346,5bebf332cef79f00014d230c,64d2fd46c836a06233681665,64dc7b4573c0403a94b512ce,,,,,,,sngl,resources/Empty.png,resources/DP.BMP,Door2,0.355555556,-0.026666667,1,0,0,0.6314,optionRight,40,7265,4,2,0,2,0,1,,,,,,,,,,,,,,,,,,,,,,,,,,,,,,,,,,,,,,,
,,,,,,,,2023-08-16_08h31.38.506,HF_wild_card,2022.2.4,Win32,58.80623346,5bebf332cef79f00014d230c,64d2fd46c836a06233681665,64dc7b4573c0403a94b512ce,,,,,,,sngl,resources/Empty.png,resources/DR.BMP,Door4,0.296666667,0.004444444,1,0,0,0.6147,optionRight,80,7345,4,3,0,3,0,1,,,,,,,,,,,,,,,,,,,,,,,,,,,,,,,,,,,,,,,
,,,,,,,,2023-08-16_08h31.38.506,HF_wild_card,2022.2.4,Win32,58.80623346,5bebf332cef79f00014d230c,64d2fd46c836a06233681665,64dc7b4573c0403a94b512ce,,,,,,,decisionTrl,resources/DY.BMP,resources/DBN.BMP,Door3,0.286666667,-0.001111111,1,0,0,0.8458,optionRight,70,7415,4,4,0,4,0,1,,,,,,,,,,,,,,,,,,,,,,,,,,,,,,,,,,,,,,,
,,,,,,,,2023-08-16_08h31.38.506,HF_wild_card,2022.2.4,Win32,58.80623346,5bebf332cef79f00014d230c,64d2fd46c836a06233681665,64dc7b4573c0403a94b512ce,,,,,,,sngl,resources/DP.BMP,resources/Empty.png,Door2,-0.383333333,-0.023333333,1,0,0,0.6298,optionLeft,20,7435,4,5,0,5,0,1,,,,,,,,,,,,,,,,,,,,,,,,,,,,,,,,,,,,,,,
,,,,,,,,2023-08-16_08h31.38.506,HF_wild_card,2022.2.4,Win32,58.80623346,5bebf332cef79f00014d230c,64d2fd46c836a06233681665,64dc7b4573c0403a94b512ce,,,,,,,sngl,resources/Empty.png,resources/DBN.BMP,Door3,0.374444444,-0.013333333,1,0,0,0.5469,optionRight,70,7505,4,6,0,6,0,1,,,,,,,,,,,,,,,,,,,,,,,,,,,,,,,,,,,,,,,
,,,,,,,,2023-08-16_08h31.38.506,HF_wild_card,2022.2.4,Win32,58.80623346,5bebf332cef79f00014d230c,64d2fd46c836a06233681665,64dc7b4573c0403a94b512ce,,,,,,,decisionTrl,resources/DP.BMP,resources/DB.BMP,Door1,0.343333333,-0.037777778,1,0,0,4.4641,optionRight,30,7535,4,7,0,7,0,1,,,,,,,,,,,,,,,,,,,,,,,,,,,,,,,,,,,,,,,
,,,,,,,,2023-08-16_08h31.38.506,HF_wild_card,2022.2.4,Win32,58.80623346,5bebf332cef79f00014d230c,64d2fd46c836a06233681665,64dc7b4573c0403a94b512ce,,,,,,,ctch,resources/DBN.BMP,resources/DP.BMP,Door3,-0.413333333,-0.038888889,1,0,0,0.8313,optionLeft,70,7605,4,8,0,8,0,1,,,,,,,,,,,,,,,,,,,,,,,,,,,,,,,,,,,,,,,
,,,,,,,,2023-08-16_08h31.38.506,HF_wild_card,2022.2.4,Win32,58.80623346,5bebf332cef79f00014d230c,64d2fd46c836a06233681665,64dc7b4573c0403a94b512ce,,,,,,,decisionTrl,resources/DBN.BMP,resources/DR.BMP,Door3,-0.351111111,0.012222222,1,0,0,0.9645,optionLeft,70,7675,4,9,0,9,0,1,,,,,,,,,,,,,,,,,,,,,,,,,,,,,,,,,,,,,,,
,,,,,,,,2023-08-16_08h31.38.506,HF_wild_card,2022.2.4,Win32,58.80623346,5bebf332cef79f00014d230c,64d2fd46c836a06233681665,64dc7b4573c0403a94b512ce,,,,,,,decisionTrl,resources/DY.BMP,resources/DB.BMP,WildCard_Ex,-0.384444444,-0.013333333,1,0,0,0.8973,optionLeft,55,7730,4,10,0,10,0,1,,,,,,,,,,,,,,,,,,,,,,,,,,,,,,,,,,,,,,,
,,,,,,,,2023-08-16_08h31.38.506,HF_wild_card,2022.2.4,Win32,58.80623346,5bebf332cef79f00014d230c,64d2fd46c836a06233681665,64dc7b4573c0403a94b512ce,,,,,,,decisionTrl,resources/DBN.BMP,resources/DY.BMP,Door3,-0.384444444,-0.018888889,1,0,0,0.8676,optionLeft,70,7800,4,11,0,11,0,1,,,,,,,,,,,,,,,,,,,,,,,,,,,,,,,,,,,,,,,
,,,,,,,,2023-08-16_08h31.38.506,HF_wild_card,2022.2.4,Win32,58.80623346,5bebf332cef79f00014d230c,64d2fd46c836a06233681665,64dc7b4573c0403a94b512ce,,,,,,,decisionTrl,resources/DR.BMP,resources/DBN.BMP,Door3,0.392222222,0.002222222,1,0,0,1.1133,optionRight,70,7870,4,12,0,12,0,1,,,,,,,,,,,,,,,,,,,,,,,,,,,,,,,,,,,,,,,
,,,,,,,,2023-08-16_08h31.38.506,HF_wild_card,2022.2.4,Win32,58.80623346,5bebf332cef79f00014d230c,64d2fd46c836a06233681665,64dc7b4573c0403a94b512ce,,,,,,,decisionTrl,resources/DP.BMP,resources/DB.BMP,Door2,-0.32,-0.02,1,0,0,1.3147,optionLeft,20,7890,4,13,0,13,0,1,,,,,,,,,,,,,,,,,,,,,,,,,,,,,,,,,,,,,,,
,,,,,,,,2023-08-16_08h31.38.506,HF_wild_card,2022.2.4,Win32,58.80623346,5bebf332cef79f00014d230c,64d2fd46c836a06233681665,64dc7b4573c0403a94b512ce,,,,,,,sngl,resources/DR.BMP,resources/Empty.png,Door4,-0.38,-0.03,1,0,0,0.5308,optionLeft,60,7950,4,14,0,14,0,1,,,,,,,,,,,,,,,,,,,,,,,,,,,,,,,,,,,,,,,
,,,,,,,,2023-08-16_08h31.38.506,HF_wild_card,2022.2.4,Win32,58.80623346,5bebf332cef79f00014d230c,64d2fd46c836a06233681665,64dc7b4573c0403a94b512ce,,,,,,,decisionTrl,resources/DBN.BMP,resources/DR.BMP,Door3,-0.315555556,-0.006666667,1,0,0,0.898,optionLeft,70,8020,4,15,0,15,0,1,,,,,,,,,,,,,,,,,,,,,,,,,,,,,,,,,,,,,,,
,,,,,,,,2023-08-16_08h31.38.506,HF_wild_card,2022.2.4,Win32,58.80623346,5bebf332cef79f00014d230c,64d2fd46c836a06233681665,64dc7b4573c0403a94b512ce,,,,,,,sngl,resources/DY.BMP,resources/Empty.png,WildCard_Ex,-0.351111111,-0.035555556,1,0,0,0.6977,optionLeft,55,8075,4,16,0,16,0,1,,,,,,,,,,,,,,,,,,,,,,,,,,,,,,,,,,,,,,,
,,,,,,,,2023-08-16_08h31.38.506,HF_wild_card,2022.2.4,Win32,58.80623346,5bebf332cef79f00014d230c,64d2fd46c836a06233681665,64dc7b4573c0403a94b512ce,,,,,,,decisionTrl,resources/DR.BMP,resources/DY.BMP,Door4,-0.28,-0.032222222,1,0,0,1.03,optionLeft,60,8135,4,17,0,17,0,1,,,,,,,,,,,,,,,,,,,,,,,,,,,,,,,,,,,,,,,
,,,,,,,,2023-08-16_08h31.38.506,HF_wild_card,2022.2.4,Win32,58.80623346,5bebf332cef79f00014d230c,64d2fd46c836a06233681665,64dc7b4573c0403a94b512ce,,,,,,,decisionTrl,resources/DBN.BMP,resources/DR.BMP,Door3,-0.355555556,-0.01,1,0,0,1.6973,optionLeft,70,8205,4,18,0,18,0,1,,,,,,,,,,,,,,,,,,,,,,,,,,,,,,,,,,,,,,,
,,,,,,,,2023-08-16_08h31.38.506,HF_wild_card,2022.2.4,Win32,58.80623346,5bebf332cef79f00014d230c,64d2fd46c836a06233681665,64dc7b4573c0403a94b512ce,,,,,,,sngl,resources/Empty.png,resources/DY.BMP,WildCard_Ex,0.434444444,-0.048888889,1,0,0,0.8969,optionRight,55,8260,4,19,0,19,0,1,,,,,,,,,,,,,,,,,,,,,,,,,,,,,,,,,,,,,,,
,,,,,,,,2023-08-16_08h31.38.506,HF_wild_card,2022.2.4,Win32,58.80623346,5bebf332cef79f00014d230c,64d2fd46c836a06233681665,64dc7b4573c0403a94b512ce,,,,,,,decisionTrl,resources/DB.BMP,resources/DP.BMP,Door2,0.218888889,-0.005555556,1,0,0,1.8441,optionRight,40,8300,4,20,0,20,0,1,,,,,,,,,,,,,,,,,,,,,,,,,,,,,,,,,,,,,,,
,,,,,,,,2023-08-16_08h31.38.506,HF_wild_card,2022.2.4,Win32,58.80623346,5bebf332cef79f00014d230c,64d2fd46c836a06233681665,64dc7b4573c0403a94b512ce,,,,,,,decisionTrl,resources/DB.BMP,resources/DP.BMP,Door2,0.42,0.005555556,1,0,0,1.1952,optionRight,40,8340,4,21,0,21,0,1,,,,,,,,,,,,,,,,,,,,,,,,,,,,,,,,,,,,,,,
,,,,,,,,2023-08-16_08h31.38.506,HF_wild_card,2022.2.4,Win32,58.80623346,5bebf332cef79f00014d230c,64d2fd46c836a06233681665,64dc7b4573c0403a94b512ce,,,,,,,sngl,resources/DB.BMP,resources/Empty.png,Door1,-0.403333333,-0.012222222,1,0,0,0.5435,optionLeft,30,8370,4,22,0,22,0,1,,,,,,,,,,,,,,,,,,,,,,,,,,,,,,,,,,,,,,,
,,,,,,,,2023-08-16_08h31.38.506,HF_wild_card,2022.2.4,Win32,58.80623346,5bebf332cef79f00014d230c,64d2fd46c836a06233681665,64dc7b4573c0403a94b512ce,,,,,,,decisionTrl,resources/DY.BMP,resources/DR.BMP,WildCard_Ex,-0.327777778,-0.024444444,1,0,0,0.964,optionLeft,55,8425,4,23,0,23,0,1,,,,,,,,,,,,,,,,,,,,,,,,,,,,,,,,,,,,,,,
,,,,,,,,2023-08-16_08h31.38.506,HF_wild_card,2022.2.4,Win32,58.80623346,5bebf332cef79f00014d230c,64d2fd46c836a06233681665,64dc7b4573c0403a94b512ce,,,,,,,decisionTrl,resources/DP.BMP,resources/DY.BMP,WildCard_Ex,0.317777778,-0.022222222,1,0,0,1.1295,optionRight,45,8470,4,24,0,24,0,1,,,,,,,,,,,,,,,,,,,,,,,,,,,,,,,,,,,,,,,
,,,,,,,,2023-08-16_08h31.38.506,HF_wild_card,2022.2.4,Win32,58.80623346,5bebf332cef79f00014d230c,64d2fd46c836a06233681665,64dc7b4573c0403a94b512ce,,,,,,,decisionTrl,resources/DP.BMP,resources/DB.BMP,Door2,-0.401111111,-0.022222222,1,0,0,1.1976,optionLeft,40,8510,4,25,0,25,0,1,,,,,,,,,,,,,,,,,,,,,,,,,,,,,,,,,,,,,,,
,,,,,,,,2023-08-16_08h31.38.506,HF_wild_card,2022.2.4,Win32,58.80623346,5bebf332cef79f00014d230c,64d2fd46c836a06233681665,64dc7b4573c0403a94b512ce,,,,,,,ctch,resources/DR.BMP,resources/DB.BMP,Door4,-0.386666667,-0.033333333,1,0,0,0.9945,optionLeft,80,8590,4,26,0,26,0,1,,,,,,,,,,,,,,,,,,,,,,,,,,,,,,,,,,,,,,,
,,,,,,,,2023-08-16_08h31.38.506,HF_wild_card,2022.2.4,Win32,58.80623346,5bebf332cef79f00014d230c,64d2fd46c836a06233681665,64dc7b4573c0403a94b512ce,,,,,,,ctch,resources/DP.BMP,resources/DBN.BMP,Door3,0.382222222,-0.01,1,0,0,0.6821,optionRight,70,8660,4,27,0,27,0,1,,,,,,,,,,,,,,,,,,,,,,,,,,,,,,,,,,,,,,,
,,,,,,,,2023-08-16_08h31.38.506,HF_wild_card,2022.2.4,Win32,58.80623346,5bebf332cef79f00014d230c,64d2fd46c836a06233681665,64dc7b4573c0403a94b512ce,,,,,,,decisionTrl,resources/DB.BMP,resources/DP.BMP,Door1,-0.236666667,-0.016666667,1,0,0,1.6948,optionLeft,30,8690,4,28,0,28,0,1,,,,,,,,,,,,,,,,,,,,,,,,,,,,,,,,,,,,,,,
,,,,,,,,2023-08-16_08h31.38.506,HF_wild_card,2022.2.4,Win32,58.80623346,5bebf332cef79f00014d230c,64d2fd46c836a06233681665,64dc7b4573c0403a94b512ce,,,,,,,ctch,resources/DB.BMP,resources/DR.BMP,Door4,0.507777778,-0.027777778,1,0,0,1.2966,optionRight,80,8770,4,29,0,29,0,1,,,,,,,,,,,,,,,,,,,,,,,,,,,,,,,,,,,,,,,
,,,,,,,,2023-08-16_08h31.38.506,HF_wild_card,2022.2.4,Win32,58.80623346,5bebf332cef79f00014d230c,64d2fd46c836a06233681665,64dc7b4573c0403a94b512ce,,,,,,,decisionTrl,resources/DR.BMP,resources/DBN.BMP,Door4,-0.352222222,0.003333333,1,0,0,0.8953,optionLeft,60,8830,4,30,0,30,0,1,,,,,,,,,,,,,,,,,,,,,,,,,,,,,,,,,,,,,,,
,,,,,,,,2023-08-16_08h31.38.506,HF_wild_card,2022.2.4,Win32,58.80623346,5bebf332cef79f00014d230c,64d2fd46c836a06233681665,64dc7b4573c0403a94b512ce,,,,,,,sngl,resources/DBN.BMP,resources/Empty.png,Door3,-0.363333333,-0.026666667,1,0,0,0.5103,optionLeft,70,8900,4,31,0,31,0,1,,,,,,,,,,,,,,,,,,,,,,,,,,,,,,,,,,,,,,,
,,,,,,,,2023-08-16_08h31.38.506,HF_wild_card,2022.2.4,Win32,58.80623346,5bebf332cef79f00014d230c,64d2fd46c836a06233681665,64dc7b4573c0403a94b512ce,,,,,,,ctch,resources/DB.BMP,resources/DR.BMP,Door4,0.3,-0.043333333,1,0,0,0.9615,optionRight,80,8980,4,32,0,32,0,1,,,,,,,,,,,,,,,,,,,,,,,,,,,,,,,,,,,,,,,
,,,,,,,,2023-08-16_08h31.38.506,HF_wild_card,2022.2.4,Win32,58.80623346,5bebf332cef79f00014d230c,64d2fd46c836a06233681665,64dc7b4573c0403a94b512ce,,,,,,,sngl,resources/Empty.png,resources/DY.BMP,WildCard_Ex,0.447777778,-0.041111111,1,0,0,0.5775,optionRight,45,9025,4,33,0,33,0,1,,,,,,,,,,,,,,,,,,,,,,,,,,,,,,,,,,,,,,,
,,,,,,,,2023-08-16_08h31.38.506,HF_wild_card,2022.2.4,Win32,58.80623346,5bebf332cef79f00014d230c,64d2fd46c836a06233681665,64dc7b4573c0403a94b512ce,,,,,,,decisionTrl,resources/DY.BMP,resources/DP.BMP,WildCard_Ex,-0.314444444,-0.025555556,1,0,0,0.962,optionLeft,55,9080,4,34,0,34,0,1,,,,,,,,,,,,,,,,,,,,,,,,,,,,,,,,,,,,,,,
,,,,,,,,2023-08-16_08h31.38.506,HF_wild_card,2022.2.4,Win32,58.80623346,5bebf332cef79f00014d230c,64d2fd46c836a06233681665,64dc7b4573c0403a94b512ce,,,,,,,decisionTrl,resources/DP.BMP,resources/DB.BMP,Door2,-0.412222222,-0.021111111,1,0,0,1.5955,optionLeft,20,9100,4,35,0,35,0,1,,,,,,,,,,,,,,,,,,,,,,,,,,,,,,,,,,,,,,,
,,,,,,,,2023-08-16_08h31.38.506,HF_wild_card,2022.2.4,Win32,58.80623346,5bebf332cef79f00014d230c,64d2fd46c836a06233681665,64dc7b4573c0403a94b512ce,,,,,,,sngl,resources/Empty.png,resources/DB.BMP,Door1,0.34,-0.03,1,0,0,0.5972,optionRight,30,9130,4,36,0,36,0,1,,,,,,,,,,,,,,,,,,,,,,,,,,,,,,,,,,,,,,,
,,,,,,,,2023-08-16_08h31.38.506,HF_wild_card,2022.2.4,Win32,58.80623346,5bebf332cef79f00014d230c,64d2fd46c836a06233681665,64dc7b4573c0403a94b512ce,,,,,,,decisionTrl,resources/DB.BMP,resources/DY.BMP,WildCard_Ex,0.316666667,-0.038888889,1,0,0,0.6962,optionRight,55,9185,4,37,0,37,0,1,,,,,,,,,,,,,,,,,,,,,,,,,,,,,,,,,,,,,,,
,,,,,,,,2023-08-16_08h31.38.506,HF_wild_card,2022.2.4,Win32,58.80623346,5bebf332cef79f00014d230c,64d2fd46c836a06233681665,64dc7b4573c0403a94b512ce,,,,,,,decisionTrl,resources/DR.BMP,resources/DBN.BMP,Door4,-0.321111111,-0.003333333,1,0,0,1.4932,optionLeft,60,9245,4,38,0,38,0,1,,,,,,,,,,,,,,,,,,,,,,,,,,,,,,,,,,,,,,,
,,,,,,,,2023-08-16_08h31.38.506,HF_wild_card,2022.2.4,Win32,58.80623346,5bebf332cef79f00014d230c,64d2fd46c836a06233681665,64dc7b4573c0403a94b512ce,,,,,,,decisionTrl,resources/DBN.BMP,resources/DR.BMP,Door3,-0.27,-0.012222222,1,0,0,0.6791,optionLeft,70,9315,4,39,0,39,0,1,,,,,,,,,,,,,,,,,,,,,,,,,,,,,,,,,,,,,,,
,,,,,,,,2023-08-16_08h31.38.506,HF_wild_card,2022.2.4,Win32,58.80623346,5bebf332cef79f00014d230c,64d2fd46c836a06233681665,64dc7b4573c0403a94b512ce,,,,,,,sngl,resources/DY.BMP,resources/Empty.png,WildCard_Ex,-0.265555556,-0.04,1,0,0,0.6101,optionLeft,45,9360,4,40,0,40,0,1,,,,,,,,,,,,,,,,,,,,,,,,,,,,,,,,,,,,,,,
,,,,,,,,2023-08-16_08h31.38.506,HF_wild_card,2022.2.4,Win32,58.80623346,5bebf332cef79f00014d230c,64d2fd46c836a06233681665,64dc7b4573c0403a94b512ce,,,,,,,decisionTrl,resources/DB.BMP,resources/DP.BMP,Door2,0.434444444,-0.001111111,1,0,0,1.1969,optionRight,40,9400,4,41,0,41,0,1,,,,,,,,,,,,,,,,,,,,,,,,,,,,,,,,,,,,,,,
,,,,,,,,2023-08-16_08h31.38.506,HF_wild_card,2022.2.4,Win32,58.80623346,5bebf332cef79f00014d230c,64d2fd46c836a06233681665,64dc7b4573c0403a94b512ce,,,,,,,ctch,resources/DBN.BMP,resources/DP.BMP,Door3,-0.333333333,-0.016666667,1,0,0,0.8463,optionLeft,70,9470,4,42,0,42,0,1,,,,,,,,,,,,,,,,,,,,,,,,,,,,,,,,,,,,,,,
,,,,,,,,2023-08-16_08h31.38.506,HF_wild_card,2022.2.4,Win32,58.80623346,5bebf332cef79f00014d230c,64d2fd46c836a06233681665,64dc7b4573c0403a94b512ce,,,,,,,ctch,resources/DR.BMP,resources/DB.BMP,Door4,-0.43,-0.04,1,0,0,1.0443,optionLeft,80,9550,4,43,0,43,0,1,,,,,,,,,,,,,,,,,,,,,,,,,,,,,,,,,,,,,,,
,,,,,,,,2023-08-16_08h31.38.506,HF_wild_card,2022.2.4,Win32,58.80623346,5bebf332cef79f00014d230c,64d2fd46c836a06233681665,64dc7b4573c0403a94b512ce,,,,,,,,,,,,,,,,,,,,,,,,,,3,0,3,0,1,,,,,,,,,,,,,,,,,,,,,,,,,,,,,,,,,,
,,,,,,,,2023-08-16_08h31.38.506,HF_wild_card,2022.2.4,Win32,58.80623346,5bebf332cef79f00014d230c,64d2fd46c836a06233681665,64dc7b4573c0403a94b512ce,,,,,,,decisionTrl,resources/DBN.BMP,resources/DR.BMP,Door3,-0.298888889,-0.02,1,0,0,0.9195,optionLeft,70,9620,5,0,0,0,0,1,,,,,,,,,,,,,,,,,,,,,,,,,,,,,,,,,,,,,,,
,,,,,,,,2023-08-16_08h31.38.506,HF_wild_card,2022.2.4,Win32,58.80623346,5bebf332cef79f00014d230c,64d2fd46c836a06233681665,64dc7b4573c0403a94b512ce,,,,,,,sngl,resources/DP.BMP,resources/Empty.png,Door2,-0.28,-0.032222222,1,0,0,0.7282,optionLeft,40,9660,5,1,0,1,0,1,,,,,,,,,,,,,,,,,,,,,,,,,,,,,,,,,,,,,,,
,,,,,,,,2023-08-16_08h31.38.506,HF_wild_card,2022.2.4,Win32,58.80623346,5bebf332cef79f00014d230c,64d2fd46c836a06233681665,64dc7b4573c0403a94b512ce,,,,,,,decisionTrl,resources/DY.BMP,resources/DP.BMP,WildCard_Ex,-0.317777778,-0.02,1,0,0,1.1096,optionLeft,45,9705,5,2,0,2,0,1,,,,,,,,,,,,,,,,,,,,,,,,,,,,,,,,,,,,,,,
,,,,,,,,2023-08-16_08h31.38.506,HF_wild_card,2022.2.4,Win32,58.80623346,5bebf332cef79f00014d230c,64d2fd46c836a06233681665,64dc7b4573c0403a94b512ce,,,,,,,ctch,resources/DB.BMP,resources/DR.BMP,Door4,0.388888889,0.007777778,1,0,0,1.1137,optionRight,80,9785,5,3,0,3,0,1,,,,,,,,,,,,,,,,,,,,,,,,,,,,,,,,,,,,,,,
,,,,,,,,2023-08-16_08h31.38.506,HF_wild_card,2022.2.4,Win32,58.80623346,5bebf332cef79f00014d230c,64d2fd46c836a06233681665,64dc7b4573c0403a94b512ce,,,,,,,decisionTrl,resources/DBN.BMP,resources/DY.BMP,Door3,-0.443333333,-0.032222222,1,0,0,0.9441,optionLeft,70,9855,5,4,0,4,0,1,,,,,,,,,,,,,,,,,,,,,,,,,,,,,,,,,,,,,,,
,,,,,,,,2023-08-16_08h31.38.506,HF_wild_card,2022.2.4,Win32,58.80623346,5bebf332cef79f00014d230c,64d2fd46c836a06233681665,64dc7b4573c0403a94b512ce,,,,,,,sngl,resources/DBN.BMP,resources/Empty.png,Door3,-0.437777778,-0.005555556,1,0,0,0.5801,optionLeft,70,9925,5,5,0,5,0,1,,,,,,,,,,,,,,,,,,,,,,,,,,,,,,,,,,,,,,,
,,,,,,,,2023-08-16_08h31.38.506,HF_wild_card,2022.2.4,Win32,58.80623346,5bebf332cef79f00014d230c,64d2fd46c836a06233681665,64dc7b4573c0403a94b512ce,,,,,,,decisionTrl,resources/DP.BMP,resources/DB.BMP,Door2,-0.343333333,-0.01,1,0,0,1.2445,optionLeft,40,9965,5,6,0,6,0,1,,,,,,,,,,,,,,,,,,,,,,,,,,,,,,,,,,,,,,,
,,,,,,,,2023-08-16_08h31.38.506,HF_wild_card,2022.2.4,Win32,58.80623346,5bebf332cef79f00014d230c,64d2fd46c836a06233681665,64dc7b4573c0403a94b512ce,,,,,,,decisionTrl,resources/DR.BMP,resources/DBN.BMP,Door4,-0.402222222,-0.003333333,1,0,0,1.411,optionLeft,80,10045,5,7,0,7,0,1,,,,,,,,,,,,,,,,,,,,,,,,,,,,,,,,,,,,,,,
,,,,,,,,2023-08-16_08h31.38.506,HF_wild_card,2022.2.4,Win32,58.80623346,5bebf332cef79f00014d230c,64d2fd46c836a06233681665,64dc7b4573c0403a94b512ce,,,,,,,ctch,resources/DB.BMP,resources/DR.BMP,Door4,0.29,-0.002222222,1,0,0,0.7284,optionRight,60,10105,5,8,0,8,0,1,,,,,,,,,,,,,,,,,,,,,,,,,,,,,,,,,,,,,,,
,,,,,,,,2023-08-16_08h31.38.506,HF_wild_card,2022.2.4,Win32,58.80623346,5bebf332cef79f00014d230c,64d2fd46c836a06233681665,64dc7b4573c0403a94b512ce,,,,,,,sngl,resources/Empty.png,resources/DY.BMP,WildCard_Ex,0.264444444,-0.013333333,1,0,0,0.6431,optionRight,55,10160,5,9,0,9,0,1,,,,,,,,,,,,,,,,,,,,,,,,,,,,,,,,,,,,,,,
,,,,,,,,2023-08-16_08h31.38.506,HF_wild_card,2022.2.4,Win32,58.80623346,5bebf332cef79f00014d230c,64d2fd46c836a06233681665,64dc7b4573c0403a94b512ce,,,,,,,ctch,resources/DR.BMP,resources/DB.BMP,Door4,-0.315555556,-0.026666667,1,0,0,0.7589,optionLeft,60,10220,5,10,0,10,0,1,,,,,,,,,,,,,,,,,,,,,,,,,,,,,,,,,,,,,,,
,,,,,,,,2023-08-16_08h31.38.506,HF_wild_card,2022.2.4,Win32,58.80623346,5bebf332cef79f00014d230c,64d2fd46c836a06233681665,64dc7b4573c0403a94b512ce,,,,,,,sngl,resources/Empty.png,resources/DY.BMP,WildCard_Ex,0.344444444,-0.015555556,1,0,0,0.6608,optionRight,45,10265,5,11,0,11,0,1,,,,,,,,,,,,,,,,,,,,,,,,,,,,,,,,,,,,,,,
,,,,,,,,2023-08-16_08h31.38.506,HF_wild_card,2022.2.4,Win32,58.80623346,5bebf332cef79f00014d230c,64d2fd46c836a06233681665,64dc7b4573c0403a94b512ce,,,,,,,sngl,resources/DR.BMP,resources/Empty.png,Door4,-0.387777778,-0.013333333,1,0,0,0.5965,optionLeft,80,10345,5,12,0,12,0,1,,,,,,,,,,,,,,,,,,,,,,,,,,,,,,,,,,,,,,,
,,,,,,,,2023-08-16_08h31.38.506,HF_wild_card,2022.2.4,Win32,58.80623346,5bebf332cef79f00014d230c,64d2fd46c836a06233681665,64dc7b4573c0403a94b512ce,,,,,,,decisionTrl,resources/DY.BMP,resources/DR.BMP,Door4,0.321111111,0.006666667,1,0,0,0.6797,optionRight,80,10425,5,13,0,13,0,1,,,,,,,,,,,,,,,,,,,,,,,,,,,,,,,,,,,,,,,
,,,,,,,,2023-08-16_08h31.38.506,HF_wild_card,2022.2.4,Win32,58.80623346,5bebf332cef79f00014d230c,64d2fd46c836a06233681665,64dc7b4573c0403a94b512ce,,,,,,,ctch,resources/DP.BMP,resources/DBN.BMP,Door3,0.346666667,0.002222222,1,0,0,0.8107,optionRight,70,10495,5,14,0,14,0,1,,,,,,,,,,,,,,,,,,,,,,,,,,,,,,,,,,,,,,,
,,,,,,,,2023-08-16_08h31.38.506,HF_wild_card,2022.2.4,Win32,58.80623346,5bebf332cef79f00014d230c,64d2fd46c836a06233681665,64dc7b4573c0403a94b512ce,,,,,,,decisionTrl,resources/DY.BMP,resources/DBN.BMP,Door3,0.245555556,0.001111111,1,0,0,0.7941,optionRight,70,10565,5,15,0,15,0,1,,,,,,,,,,,,,,,,,,,,,,,,,,,,,,,,,,,,,,,
,,,,,,,,2023-08-16_08h31.38.506,HF_wild_card,2022.2.4,Win32,58.80623346,5bebf332cef79f00014d230c,64d2fd46c836a06233681665,64dc7b4573c0403a94b512ce,,,,,,,sngl,resources/DB.BMP,resources/Empty.png,Door1,-0.403333333,-0.027777778,1,0,0,0.6623,optionLeft,30,10595,5,16,0,16,0,1,,,,,,,,,,,,,,,,,,,,,,,,,,,,,,,,,,,,,,,
,,,,,,,,2023-08-16_08h31.38.506,HF_wild_card,2022.2.4,Win32,58.80623346,5bebf332cef79f00014d230c,64d2fd46c836a06233681665,64dc7b4573c0403a94b512ce,,,,,,,decisionTrl,resources/DY.BMP,resources/DB.BMP,WildCard_Ex,-0.384444444,-0.01,1,0,0,1.1769,optionLeft,45,10640,5,17,0,17,0,1,,,,,,,,,,,,,,,,,,,,,,,,,,,,,,,,,,,,,,,
,,,,,,,,2023-08-16_08h31.38.506,HF_wild_card,2022.2.4,Win32,58.80623346,5bebf332cef79f00014d230c,64d2fd46c836a06233681665,64dc7b4573c0403a94b512ce,,,,,,,decisionTrl,resources/DR.BMP,resources/DBN.BMP,Door4,-0.508888889,-0.02,1,0,0,1.0236,optionLeft,80,10720,5,18,0,18,0,1,,,,,,,,,,,,,,,,,,,,,,,,,,,,,,,,,,,,,,,
,,,,,,,,2023-08-16_08h31.38.506,HF_wild_card,2022.2.4,Win32,58.80623346,5bebf332cef79f00014d230c,64d2fd46c836a06233681665,64dc7b4573c0403a94b512ce,,,,,,,decisionTrl,resources/DP.BMP,resources/DY.BMP,WildCard_Ex,0.278888889,-0.004444444,1,0,0,1.0773,optionRight,45,10765,5,19,0,19,0,1,,,,,,,,,,,,,,,,,,,,,,,,,,,,,,,,,,,,,,,
,,,,,,,,2023-08-16_08h31.38.506,HF_wild_card,2022.2.4,Win32,58.80623346,5bebf332cef79f00014d230c,64d2fd46c836a06233681665,64dc7b4573c0403a94b512ce,,,,,,,decisionTrl,resources/DP.BMP,resources/DB.BMP,Door2,-0.347777778,-0.011111111,1,0,0,1.168,optionLeft,40,10805,5,20,0,20,0,1,,,,,,,,,,,,,,,,,,,,,,,,,,,,,,,,,,,,,,,
,,,,,,,,2023-08-16_08h31.38.506,HF_wild_card,2022.2.4,Win32,58.80623346,5bebf332cef79f00014d230c,64d2fd46c836a06233681665,64dc7b4573c0403a94b512ce,,,,,,,decisionTrl,resources/DR.BMP,resources/DBN.BMP,Door4,-0.347777778,-0.025555556,1,0,0,0.9421,optionLeft,60,10865,5,21,0,21,0,1,,,,,,,,,,,,,,,,,,,,,,,,,,,,,,,,,,,,,,,
,,,,,,,,2023-08-16_08h31.38.506,HF_wild_card,2022.2.4,Win32,58.80623346,5bebf332cef79f00014d230c,64d2fd46c836a06233681665,64dc7b4573c0403a94b512ce,,,,,,,ctch,resources/DBN.BMP,resources/DP.BMP,Door3,-0.384444444,-0.008888889,1,0,0,0.6447,optionLeft,70,10935,5,22,0,22,0,1,,,,,,,,,,,,,,,,,,,,,,,,,,,,,,,,,,,,,,,
,,,,,,,,2023-08-16_08h31.38.506,HF_wild_card,2022.2.4,Win32,58.80623346,5bebf332cef79f00014d230c,64d2fd46c836a06233681665,64dc7b4573c0403a94b512ce,,,,,,,sngl,resources/DY.BMP,resources/Empty.png,WildCard_Ex,-0.347777778,-0.004444444,1,0,0,0.6105,optionLeft,45,10980,5,23,0,23,0,1,,,,,,,,,,,,,,,,,,,,,,,,,,,,,,,,,,,,,,,
,,,,,,,,2023-08-16_08h31.38.506,HF_wild_card,2022.2.4,Win32,58.80623346,5bebf332cef79f00014d230c,64d2fd46c836a06233681665,64dc7b4573c0403a94b512ce,,,,,,,sngl,resources/Empty.png,resources/DB.BMP,Door1,0.306666667,0.001111111,1,0,0,0.6117,optionRight,30,11010,5,24,0,24,0,1,,,,,,,,,,,,,,,,,,,,,,,,,,,,,,,,,,,,,,,
,,,,,,,,2023-08-16_08h31.38.506,HF_wild_card,2022.2.4,Win32,58.80623346,5bebf332cef79f00014d230c,64d2fd46c836a06233681665,64dc7b4573c0403a94b512ce,,,,,,,decisionTrl,resources/DB.BMP,resources/DY.BMP,WildCard_Ex,0.425555556,0.023333333,1,0,0,0.9437,optionRight,55,11065,5,25,0,25,0,1,,,,,,,,,,,,,,,,,,,,,,,,,,,,,,,,,,,,,,,
,,,,,,,,2023-08-16_08h31.38.506,HF_wild_card,2022.2.4,Win32,58.80623346,5bebf332cef79f00014d230c,64d2fd46c836a06233681665,64dc7b4573c0403a94b512ce,,,,,,,decisionTrl,resources/DR.BMP,resources/DY.BMP,Door4,-0.485555556,-0.017777778,1,0,0,0.8955,optionLeft,80,11145,5,26,0,26,0,1,,,,,,,,,,,,,,,,,,,,,,,,,,,,,,,,,,,,,,,
,,,,,,,,2023-08-16_08h31.38.506,HF_wild_card,2022.2.4,Win32,58.80623346,5bebf332cef79f00014d230c,64d2fd46c836a06233681665,64dc7b4573c0403a94b512ce,,,,,,,sngl,resources/DY.BMP,resources/Empty.png,WildCard_Ex,-0.346666667,-0.028888889,1,0,0,0.5632,optionLeft,55,11200,5,27,0,27,0,1,,,,,,,,,,,,,,,,,,,,,,,,,,,,,,,,,,,,,,,
,,,,,,,,2023-08-16_08h31.38.506,HF_wild_card,2022.2.4,Win32,58.80623346,5bebf332cef79f00014d230c,64d2fd46c836a06233681665,64dc7b4573c0403a94b512ce,,,,,,,decisionTrl,resources/DB.BMP,resources/DP.BMP,Door2,0.267777778,-0.022222222,1,0,0,1.2634,optionRight,20,11220,5,28,0,28,0,1,,,,,,,,,,,,,,,,,,,,,,,,,,,,,,,,,,,,,,,
,,,,,,,,2023-08-16_08h31.38.506,HF_wild_card,2022.2.4,Win32,58.80623346,5bebf332cef79f00014d230c,64d2fd46c836a06233681665,64dc7b4573c0403a94b512ce,,,,,,,sngl,resources/Empty.png,resources/DBN.BMP,Door3,0.466666667,-0.017777778,1,0,0,0.5804,optionRight,70,11290,5,29,0,29,0,1,,,,,,,,,,,,,,,,,,,,,,,,,,,,,,,,,,,,,,,
,,,,,,,,2023-08-16_08h31.38.506,HF_wild_card,2022.2.4,Win32,58.80623346,5bebf332cef79f00014d230c,64d2fd46c836a06233681665,64dc7b4573c0403a94b512ce,,,,,,,ctch,resources/DBN.BMP,resources/DP.BMP,Door3,-0.462222222,-0.011111111,1,0,0,0.6963,optionLeft,70,11360,5,30,0,30,0,1,,,,,,,,,,,,,,,,,,,,,,,,,,,,,,,,,,,,,,,
,,,,,,,,2023-08-16_08h31.38.506,HF_wild_card,2022.2.4,Win32,58.80623346,5bebf332cef79f00014d230c,64d2fd46c836a06233681665,64dc7b4573c0403a94b512ce,,,,,,,sngl,resources/Empty.png,resources/DP.BMP,Door2,0.448888889,-0.013333333,1,0,0,0.6287,optionRight,20,11380,5,31,0,31,0,1,,,,,,,,,,,,,,,,,,,,,,,,,,,,,,,,,,,,,,,
,,,,,,,,2023-08-16_08h31.38.506,HF_wild_card,2022.2.4,Win32,58.80623346,5bebf332cef79f00014d230c,64d2fd46c836a06233681665,64dc7b4573c0403a94b512ce,,,,,,,ctch,resources/DR.BMP,resources/DB.BMP,Door4,-0.395555556,-0.01,1,0,0,0.9081,optionLeft,80,11460,5,32,0,32,0,1,,,,,,,,,,,,,,,,,,,,,,,,,,,,,,,,,,,,,,,
,,,,,,,,2023-08-16_08h31.38.506,HF_wild_card,2022.2.4,Win32,58.80623346,5bebf332cef79f00014d230c,64d2fd46c836a06233681665,64dc7b4573c0403a94b512ce,,,,,,,decisionTrl,resources/DP.BMP,resources/DB.BMP,Door2,-0.353333333,-0.022222222,1,0,0,1.2931,optionLeft,20,11480,5,33,0,33,0,1,,,,,,,,,,,,,,,,,,,,,,,,,,,,,,,,,,,,,,,
,,,,,,,,2023-08-16_08h31.38.506,HF_wild_card,2022.2.4,Win32,58.80623346,5bebf332cef79f00014d230c,64d2fd46c836a06233681665,64dc7b4573c0403a94b512ce,,,,,,,decisionTrl,resources/DB.BMP,resources/DP.BMP,Door1,-0.371111111,-0.041111111,1,0,0,1.1616,optionLeft,30,11510,5,34,0,34,0,1,,,,,,,,,,,,,,,,,,,,,,,,,,,,,,,,,,,,,,,
,,,,,,,,2023-08-16_08h31.38.506,HF_wild_card,2022.2.4,Win32,58.80623346,5bebf332cef79f00014d230c,64d2fd46c836a06233681665,64dc7b4573c0403a94b512ce,,,,,,,ctch,resources/DP.BMP,resources/DBN.BMP,Door3,0.382222222,-0.006666667,1,0,0,0.8797,optionRight,70,11580,5,35,0,35,0,1,,,,,,,,,,,,,,,,,,,,,,,,,,,,,,,,,,,,,,,
,,,,,,,,2023-08-16_08h31.38.506,HF_wild_card,2022.2.4,Win32,58.80623346,5bebf332cef79f00014d230c,64d2fd46c836a06233681665,64dc7b4573c0403a94b512ce,,,,,,,decisionTrl,resources/DBN.BMP,resources/DR.BMP,Door4,0.425555556,0.015555556,1,0,0,1.6454,optionRight,60,11640,5,36,0,36,0,1,,,,,,,,,,,,,,,,,,,,,,,,,,,,,,,,,,,,,,,
,,,,,,,,2023-08-16_08h31.38.506,HF_wild_card,2022.2.4,Win32,58.80623346,5bebf332cef79f00014d230c,64d2fd46c836a06233681665,64dc7b4573c0403a94b512ce,,,,,,,decisionTrl,resources/DB.BMP,resources/DP.BMP,Door2,0.372222222,-0.008888889,1,0,0,1.244,optionRight,40,11680,5,37,0,37,0,1,,,,,,,,,,,,,,,,,,,,,,,,,,,,,,,,,,,,,,,
,,,,,,,,2023-08-16_08h31.38.506,HF_wild_card,2022.2.4,Win32,58.80623346,5bebf332cef79f00014d230c,64d2fd46c836a06233681665,64dc7b4573c0403a94b512ce,,,,,,,decisionTrl,resources/DP.BMP,resources/DB.BMP,Door2,-0.307777778,-0.014444444,1,0,0,1.2195,optionLeft,40,11720,5,38,0,38,0,1,,,,,,,,,,,,,,,,,,,,,,,,,,,,,,,,,,,,,,,
,,,,,,,,2023-08-16_08h31.38.506,HF_wild_card,2022.2.4,Win32,58.80623346,5bebf332cef79f00014d230c,64d2fd46c836a06233681665,64dc7b4573c0403a94b512ce,,,,,,,sngl,resources/Empty.png,resources/DR.BMP,Door4,0.344444444,0.004444444,1,0,0,0.6118,optionRight,60,11780,5,39,0,39,0,1,,,,,,,,,,,,,,,,,,,,,,,,,,,,,,,,,,,,,,,
,,,,,,,,2023-08-16_08h31.38.506,HF_wild_card,2022.2.4,Win32,58.80623346,5bebf332cef79f00014d230c,64d2fd46c836a06233681665,64dc7b4573c0403a94b512ce,,,,,,,decisionTrl,resources/DR.BMP,resources/DBN.BMP,Door4,-0.517777778,-0.01,1,0,0,1.3289,optionLeft,80,11860,5,40,0,40,0,1,,,,,,,,,,,,,,,,,,,,,,,,,,,,,,,,,,,,,,,
,,,,,,,,2023-08-16_08h31.38.506,HF_wild_card,2022.2.4,Win32,58.80623346,5bebf332cef79f00014d230c,64d2fd46c836a06233681665,64dc7b4573c0403a94b512ce,,,,,,,decisionTrl,resources/DBN.BMP,resources/DR.BMP,Door3,-0.274444444,0.003333333,1,0,0,1.477,optionLeft,70,11930,5,41,0,41,0,1,,,,,,,,,,,,,,,,,,,,,,,,,,,,,,,,,,,,,,,
,,,,,,,,2023-08-16_08h31.38.506,HF_wild_card,2022.2.4,Win32,58.80623346,5bebf332cef79f00014d230c,64d2fd46c836a06233681665,64dc7b4573c0403a94b512ce,,,,,,,decisionTrl,resources/DBN.BMP,resources/DR.BMP,Door3,-0.383333333,-0.012222222,1,0,0,1.0772,optionLeft,70,12000,5,42,0,42,0,1,,,,,,,,,,,,,,,,,,,,,,,,,,,,,,,,,,,,,,,
,,,,,,,,2023-08-16_08h31.38.506,HF_wild_card,2022.2.4,Win32,58.80623346,5bebf332cef79f00014d230c,64d2fd46c836a06233681665,64dc7b4573c0403a94b512ce,,,,,,,decisionTrl,resources/DB.BMP,resources/DP.BMP,Door2,0.243333333,-0.002222222,1,0,0,1.3435,optionRight,40,12040,5,43,0,43,0,1,,,,,,,,,,,,,,,,,,,,,,,,,,,,,,,,,,,,,,,
,,,,,,,,2023-08-16_08h31.38.506,HF_wild_card,2022.2.4,Win32,58.80623346,5bebf332cef79f00014d230c,64d2fd46c836a06233681665,64dc7b4573c0403a94b512ce,,,,,,,,,,,,,,,,,,,,,,,,,,4,0,4,0,1,,,,,,,,,,,,,,,,,,,,,,,,,,,,,,,,,,
,,,,,,,,2023-08-16_08h31.38.506,HF_wild_card,2022.2.4,Win32,58.80623346,5bebf332cef79f00014d230c,64d2fd46c836a06233681665,64dc7b4573c0403a94b512ce,,,,,,,decisionTrl,resources/DP.BMP,resources/DY.BMP,WildCard_Ex,0.398888889,-0.023333333,1,0,0,1.0871,optionRight,55,12095,6,0,0,0,0,1,,,,,,,,,,,,,,,,,,,,,,,,,,,,,,,,,,,,,,,
,,,,,,,,2023-08-16_08h31.38.506,HF_wild_card,2022.2.4,Win32,58.80623346,5bebf332cef79f00014d230c,64d2fd46c836a06233681665,64dc7b4573c0403a94b512ce,,,,,,,sngl,resources/DB.BMP,resources/Empty.png,Door1,-0.37,-0.002222222,1,0,0,0.5776,optionLeft,30,12125,6,1,0,1,0,1,,,,,,,,,,,,,,,,,,,,,,,,,,,,,,,,,,,,,,,
,,,,,,,,2023-08-16_08h31.38.506,HF_wild_card,2022.2.4,Win32,58.80623346,5bebf332cef79f00014d230c,64d2fd46c836a06233681665,64dc7b4573c0403a94b512ce,,,,,,,decisionTrl,resources/DY.BMP,resources/DP.BMP,WildCard_Ex,-0.442222222,-0.021111111,1,0,0,0.8151,optionLeft,55,12180,6,2,0,2,0,1,,,,,,,,,,,,,,,,,,,,,,,,,,,,,,,,,,,,,,,
,,,,,,,,2023-08-16_08h31.38.506,HF_wild_card,2022.2.4,Win32,58.80623346,5bebf332cef79f00014d230c,64d2fd46c836a06233681665,64dc7b4573c0403a94b512ce,,,,,,,decisionTrl,resources/DBN.BMP,resources/DR.BMP,Door4,0.348888889,0.01,1,0,0,1.6781,optionRight,60,12240,6,3,0,3,0,1,,,,,,,,,,,,,,,,,,,,,,,,,,,,,,,,,,,,,,,
,,,,,,,,2023-08-16_08h31.38.506,HF_wild_card,2022.2.4,Win32,58.80623346,5bebf332cef79f00014d230c,64d2fd46c836a06233681665,64dc7b4573c0403a94b512ce,,,,,,,decisionTrl,resources/DR.BMP,resources/DBN.BMP,Door4,-0.336666667,-0.005555556,1,0,0,0.8776,optionLeft,60,12300,6,4,0,4,0,1,,,,,,,,,,,,,,,,,,,,,,,,,,,,,,,,,,,,,,,
,,,,,,,,2023-08-16_08h31.38.506,HF_wild_card,2022.2.4,Win32,58.80623346,5bebf332cef79f00014d230c,64d2fd46c836a06233681665,64dc7b4573c0403a94b512ce,,,,,,,ctch,resources/DB.BMP,resources/DR.BMP,Door4,0.311111111,0.02,1,0,0,0.711,optionRight,80,12380,6,5,0,5,0,1,,,,,,,,,,,,,,,,,,,,,,,,,,,,,,,,,,,,,,,
,,,,,,,,2023-08-16_08h31.38.506,HF_wild_card,2022.2.4,Win32,58.80623346,5bebf332cef79f00014d230c,64d2fd46c836a06233681665,64dc7b4573c0403a94b512ce,,,,,,,decisionTrl,resources/DB.BMP,resources/DP.BMP,Door2,0.457777778,0.012222222,1,0,0,0.9282,optionRight,20,12400,6,6,0,6,0,1,,,,,,,,,,,,,,,,,,,,,,,,,,,,,,,,,,,,,,,
,,,,,,,,2023-08-16_08h31.38.506,HF_wild_card,2022.2.4,Win32,58.80623346,5bebf332cef79f00014d230c,64d2fd46c836a06233681665,64dc7b4573c0403a94b512ce,,,,,,,decisionTrl,resources/DB.BMP,resources/DP.BMP,Door1,-0.325555556,0,1,0,0,0.9128,optionLeft,30,12430,6,7,0,7,0,1,,,,,,,,,,,,,,,,,,,,,,,,,,,,,,,,,,,,,,,
,,,,,,,,2023-08-16_08h31.38.506,HF_wild_card,2022.2.4,Win32,58.80623346,5bebf332cef79f00014d230c,64d2fd46c836a06233681665,64dc7b4573c0403a94b512ce,,,,,,,decisionTrl,resources/DB.BMP,resources/DP.BMP,Door1,-0.32,-0.016666667,1,0,0,0.7119,optionLeft,30,12460,6,8,0,8,0,1,,,,,,,,,,,,,,,,,,,,,,,,,,,,,,,,,,,,,,,
,,,,,,,,2023-08-16_08h31.38.506,HF_wild_card,2022.2.4,Win32,58.80623346,5bebf332cef79f00014d230c,64d2fd46c836a06233681665,64dc7b4573c0403a94b512ce,,,,,,,decisionTrl,resources/DR.BMP,resources/DBN.BMP,Door3,0.363333333,0.032222222,1,0,0,0.9466,optionRight,70,12530,6,9,0,9,0,1,,,,,,,,,,,,,,,,,,,,,,,,,,,,,,,,,,,,,,,
,,,,,,,,2023-08-16_08h31.38.506,HF_wild_card,2022.2.4,Win32,58.80623346,5bebf332cef79f00014d230c,64d2fd46c836a06233681665,64dc7b4573c0403a94b512ce,,,,,,,sngl,resources/Empty.png,resources/DBN.BMP,Door3,0.474444444,0.03,1,0,0,0.6945,optionRight,70,12600,6,10,0,10,0,1,,,,,,,,,,,,,,,,,,,,,,,,,,,,,,,,,,,,,,,
,,,,,,,,2023-08-16_08h31.38.506,HF_wild_card,2022.2.4,Win32,58.80623346,5bebf332cef79f00014d230c,64d2fd46c836a06233681665,64dc7b4573c0403a94b512ce,,,,,,,decisionTrl,resources/DB.BMP,resources/DP.BMP,Door2,0.256666667,0.03,1,0,0,1.7437,optionRight,20,12620,6,11,0,11,0,1,,,,,,,,,,,,,,,,,,,,,,,,,,,,,,,,,,,,,,,
,,,,,,,,2023-08-16_08h31.38.506,HF_wild_card,2022.2.4,Win32,58.80623346,5bebf332cef79f00014d230c,64d2fd46c836a06233681665,64dc7b4573c0403a94b512ce,,,,,,,ctch,resources/DR.BMP,resources/DB.BMP,Door4,-0.408888889,-0.005555556,1,0,0,0.7944,optionLeft,80,12700,6,12,0,12,0,1,,,,,,,,,,,,,,,,,,,,,,,,,,,,,,,,,,,,,,,
,,,,,,,,2023-08-16_08h31.38.506,HF_wild_card,2022.2.4,Win32,58.80623346,5bebf332cef79f00014d230c,64d2fd46c836a06233681665,64dc7b4573c0403a94b512ce,,,,,,,decisionTrl,resources/DR.BMP,resources/DBN.BMP,Door3,0.415555556,0.028888889,1,0,0,1.1474,optionRight,70,12770,6,13,0,13,0,1,,,,,,,,,,,,,,,,,,,,,,,,,,,,,,,,,,,,,,,
,,,,,,,,2023-08-16_08h31.38.506,HF_wild_card,2022.2.4,Win32,58.80623346,5bebf332cef79f00014d230c,64d2fd46c836a06233681665,64dc7b4573c0403a94b512ce,,,,,,,decisionTrl,resources/DY.BMP,resources/DBN.BMP,Door3,0.485555556,0.044444444,1,0,0,0.6945,optionRight,70,12840,6,14,0,14,0,1,,,,,,,,,,,,,,,,,,,,,,,,,,,,,,,,,,,,,,,
,,,,,,,,2023-08-16_08h31.38.506,HF_wild_card,2022.2.4,Win32,58.80623346,5bebf332cef79f00014d230c,64d2fd46c836a06233681665,64dc7b4573c0403a94b512ce,,,,,,,decisionTrl,resources/DY.BMP,resources/DB.BMP,WildCard_Ex,-0.32,0,1,0,0,0.6944,optionLeft,55,12895,6,15,0,15,0,1,,,,,,,,,,,,,,,,,,,,,,,,,,,,,,,,,,,,,,,
,,,,,,,,2023-08-16_08h31.38.506,HF_wild_card,2022.2.4,Win32,58.80623346,5bebf332cef79f00014d230c,64d2fd46c836a06233681665,64dc7b4573c0403a94b512ce,,,,,,,decisionTrl,resources/DBN.BMP,resources/DR.BMP,Door4,0.472222222,0.031111111,1,0,0,1.8944,optionRight,80,12975,6,16,0,16,0,1,,,,,,,,,,,,,,,,,,,,,,,,,,,,,,,,,,,,,,,
,,,,,,,,2023-08-16_08h31.38.506,HF_wild_card,2022.2.4,Win32,58.80623346,5bebf332cef79f00014d230c,64d2fd46c836a06233681665,64dc7b4573c0403a94b512ce,,,,,,,ctch,resources/DBN.BMP,resources/DP.BMP,Door3,-0.357777778,0.012222222,1,0,0,0.8281,optionLeft,70,13045,6,17,0,17,0,1,,,,,,,,,,,,,,,,,,,,,,,,,,,,,,,,,,,,,,,
,,,,,,,,2023-08-16_08h31.38.506,HF_wild_card,2022.2.4,Win32,58.80623346,5bebf332cef79f00014d230c,64d2fd46c836a06233681665,64dc7b4573c0403a94b512ce,,,,,,,decisionTrl,resources/DBN.BMP,resources/DR.BMP,Door4,0.43,0.051111111,1,0,0,1.0106,optionRight,60,13105,6,18,0,18,0,1,,,,,,,,,,,,,,,,,,,,,,,,,,,,,,,,,,,,,,,
,,,,,,,,2023-08-16_08h31.38.506,HF_wild_card,2022.2.4,Win32,58.80623346,5bebf332cef79f00014d230c,64d2fd46c836a06233681665,64dc7b4573c0403a94b512ce,,,,,,,decisionTrl,resources/DBN.BMP,resources/DR.BMP,Door3,-0.417777778,0.012222222,1,0,0,1.1617,optionLeft,70,13175,6,19,0,19,0,1,,,,,,,,,,,,,,,,,,,,,,,,,,,,,,,,,,,,,,,
,,,,,,,,2023-08-16_08h31.38.506,HF_wild_card,2022.2.4,Win32,58.80623346,5bebf332cef79f00014d230c,64d2fd46c836a06233681665,64dc7b4573c0403a94b512ce,,,,,,,sngl,resources/Empty.png,resources/DP.BMP,Door2,0.306666667,0.005555556,1,0,0,0.6449,optionRight,40,13215,6,20,0,20,0,1,,,,,,,,,,,,,,,,,,,,,,,,,,,,,,,,,,,,,,,
,,,,,,,,2023-08-16_08h31.38.506,HF_wild_card,2022.2.4,Win32,58.80623346,5bebf332cef79f00014d230c,64d2fd46c836a06233681665,64dc7b4573c0403a94b512ce,,,,,,,ctch,resources/DR.BMP,resources/DB.BMP,Door4,-0.41,-0.007777778,1,0,0,1.2437,optionLeft,80,13295,6,21,0,21,0,1,,,,,,,,,,,,,,,,,,,,,,,,,,,,,,,,,,,,,,,
,,,,,,,,2023-08-16_08h31.38.506,HF_wild_card,2022.2.4,Win32,58.80623346,5bebf332cef79f00014d230c,64d2fd46c836a06233681665,64dc7b4573c0403a94b512ce,,,,,,,sngl,resources/Empty.png,resources/DR.BMP,Door4,0.333333333,0.002222222,1,0,0,0.5771,optionRight,80,13375,6,22,0,22,0,1,,,,,,,,,,,,,,,,,,,,,,,,,,,,,,,,,,,,,,,
,,,,,,,,2023-08-16_08h31.38.506,HF_wild_card,2022.2.4,Win32,58.80623346,5bebf332cef79f00014d230c,64d2fd46c836a06233681665,64dc7b4573c0403a94b512ce,,,,,,,decisionTrl,resources/DY.BMP,resources/DR.BMP,Door4,0.331111111,0.016666667,1,0,0,0.7458,optionRight,60,13435,6,23,0,23,0,1,,,,,,,,,,,,,,,,,,,,,,,,,,,,,,,,,,,,,,,
,,,,,,,,2023-08-16_08h31.38.506,HF_wild_card,2022.2.4,Win32,58.80623346,5bebf332cef79f00014d230c,64d2fd46c836a06233681665,64dc7b4573c0403a94b512ce,,,,,,,decisionTrl,resources/DB.BMP,resources/DY.BMP,WildCard_Ex,0.402222222,0.001111111,1,0,0,1.0294,optionRight,55,13490,6,24,0,24,0,1,,,,,,,,,,,,,,,,,,,,,,,,,,,,,,,,,,,,,,,
,,,,,,,,2023-08-16_08h31.38.506,HF_wild_card,2022.2.4,Win32,58.80623346,5bebf332cef79f00014d230c,64d2fd46c836a06233681665,64dc7b4573c0403a94b512ce,,,,,,,decisionTrl,resources/DP.BMP,resources/DB.BMP,Door2,-0.312222222,-0.008888889,1,0,0,1.4768,optionLeft,20,13510,6,25,0,25,0,1,,,,,,,,,,,,,,,,,,,,,,,,,,,,,,,,,,,,,,,
,,,,,,,,2023-08-16_08h31.38.506,HF_wild_card,2022.2.4,Win32,58.80623346,5bebf332cef79f00014d230c,64d2fd46c836a06233681665,64dc7b4573c0403a94b512ce,,,,,,,sngl,resources/DP.BMP,resources/Empty.png,Door2,-0.383333333,-0.023333333,1,0,0,0.6481,optionLeft,20,13530,6,26,0,26,0,1,,,,,,,,,,,,,,,,,,,,,,,,,,,,,,,,,,,,,,,
,,,,,,,,2023-08-16_08h31.38.506,HF_wild_card,2022.2.4,Win32,58.80623346,5bebf332cef79f00014d230c,64d2fd46c836a06233681665,64dc7b4573c0403a94b512ce,,,,,,,decisionTrl,resources/DP.BMP,resources/DB.BMP,Door1,0.422222222,0.022222222,1,0,0,0.6635,optionRight,30,13560,6,27,0,27,0,1,,,,,,,,,,,,,,,,,,,,,,,,,,,,,,,,,,,,,,,
,,,,,,,,2023-08-16_08h31.38.506,HF_wild_card,2022.2.4,Win32,58.80623346,5bebf332cef79f00014d230c,64d2fd46c836a06233681665,64dc7b4573c0403a94b512ce,,,,,,,sngl,resources/DY.BMP,resources/Empty.png,WildCard_Ex,-0.353333333,-0.032222222,1,0,0,0.6629,optionLeft,45,13605,6,28,0,28,0,1,,,,,,,,,,,,,,,,,,,,,,,,,,,,,,,,,,,,,,,
,,,,,,,,2023-08-16_08h31.38.506,HF_wild_card,2022.2.4,Win32,58.80623346,5bebf332cef79f00014d230c,64d2fd46c836a06233681665,64dc7b4573c0403a94b512ce,,,,,,,sngl,resources/Empty.png,resources/DY.BMP,WildCard_Ex,0.327777778,-0.017777778,1,0,0,0.5773,optionRight,45,13650,6,29,0,29,0,1,,,,,,,,,,,,,,,,,,,,,,,,,,,,,,,,,,,,,,,
,,,,,,,,2023-08-16_08h31.38.506,HF_wild_card,2022.2.4,Win32,58.80623346,5bebf332cef79f00014d230c,64d2fd46c836a06233681665,64dc7b4573c0403a94b512ce,,,,,,,sngl,resources/Empty.png,resources/DY.BMP,WildCard_Ex,0.431111111,-0.001111111,1,0,0,0.5619,optionRight,55,13705,6,30,0,30,0,1,,,,,,,,,,,,,,,,,,,,,,,,,,,,,,,,,,,,,,,
,,,,,,,,2023-08-16_08h31.38.506,HF_wild_card,2022.2.4,Win32,58.80623346,5bebf332cef79f00014d230c,64d2fd46c836a06233681665,64dc7b4573c0403a94b512ce,,,,,,,sngl,resources/Empty.png,resources/DB.BMP,Door1,0.395555556,-0.006666667,1,0,0,0.6281,optionRight,30,13735,6,31,0,31,0,1,,,,,,,,,,,,,,,,,,,,,,,,,,,,,,,,,,,,,,,
,,,,,,,,2023-08-16_08h31.38.506,HF_wild_card,2022.2.4,Win32,58.80623346,5bebf332cef79f00014d230c,64d2fd46c836a06233681665,64dc7b4573c0403a94b512ce,,,,,,,decisionTrl,resources/DR.BMP,resources/DY.BMP,Door4,-0.305555556,-0.017777778,1,0,0,0.8285,optionLeft,80,13815,6,32,0,32,0,1,,,,,,,,,,,,,,,,,,,,,,,,,,,,,,,,,,,,,,,
,,,,,,,,2023-08-16_08h31.38.506,HF_wild_card,2022.2.4,Win32,58.80623346,5bebf332cef79f00014d230c,64d2fd46c836a06233681665,64dc7b4573c0403a94b512ce,,,,,,,decisionTrl,resources/DR.BMP,resources/DBN.BMP,Door3,0.453333333,0.004444444,1,0,0,1.2944,optionRight,70,13885,6,33,0,33,0,1,,,,,,,,,,,,,,,,,,,,,,,,,,,,,,,,,,,,,,,
,,,,,,,,2023-08-16_08h31.38.506,HF_wild_card,2022.2.4,Win32,58.80623346,5bebf332cef79f00014d230c,64d2fd46c836a06233681665,64dc7b4573c0403a94b512ce,,,,,,,sngl,resources/DY.BMP,resources/Empty.png,WildCard_Ex,-0.35,-0.037777778,1,0,0,0.5613,optionLeft,55,13940,6,34,0,34,0,1,,,,,,,,,,,,,,,,,,,,,,,,,,,,,,,,,,,,,,,
,,,,,,,,2023-08-16_08h31.38.506,HF_wild_card,2022.2.4,Win32,58.80623346,5bebf332cef79f00014d230c,64d2fd46c836a06233681665,64dc7b4573c0403a94b512ce,,,,,,,sngl,resources/DBN.BMP,resources/Empty.png,Door3,-0.343333333,-0.034444444,1,0,0,0.5779,optionLeft,70,14010,6,35,0,35,0,1,,,,,,,,,,,,,,,,,,,,,,,,,,,,,,,,,,,,,,,
,,,,,,,,2023-08-16_08h31.38.506,HF_wild_card,2022.2.4,Win32,58.80623346,5bebf332cef79f00014d230c,64d2fd46c836a06233681665,64dc7b4573c0403a94b512ce,,,,,,,ctch,resources/DP.BMP,resources/DBN.BMP,Door3,0.377777778,0.008888889,1,0,0,0.7269,optionRight,70,14080,6,36,0,36,0,1,,,,,,,,,,,,,,,,,,,,,,,,,,,,,,,,,,,,,,,
,,,,,,,,2023-08-16_08h31.38.506,HF_wild_card,2022.2.4,Win32,58.80623346,5bebf332cef79f00014d230c,64d2fd46c836a06233681665,64dc7b4573c0403a94b512ce,,,,,,,decisionTrl,resources/DP.BMP,resources/DB.BMP,Door2,-0.427777778,-0.032222222,1,0,0,2.4147,optionLeft,40,14120,6,37,0,37,0,1,,,,,,,,,,,,,,,,,,,,,,,,,,,,,,,,,,,,,,,
,,,,,,,,2023-08-16_08h31.38.506,HF_wild_card,2022.2.4,Win32,58.80623346,5bebf332cef79f00014d230c,64d2fd46c836a06233681665,64dc7b4573c0403a94b512ce,,,,,,,ctch,resources/DP.BMP,resources/DBN.BMP,Door3,0.523333333,0.061111111,1,0,0,0.9453,optionRight,70,14190,6,38,0,38,0,1,,,,,,,,,,,,,,,,,,,,,,,,,,,,,,,,,,,,,,,
,,,,,,,,2023-08-16_08h31.38.506,HF_wild_card,2022.2.4,Win32,58.80623346,5bebf332cef79f00014d230c,64d2fd46c836a06233681665,64dc7b4573c0403a94b512ce,,,,,,,decisionTrl,resources/DP.BMP,resources/DB.BMP,Door2,-0.353333333,-0.017777778,1,0,0,0.8775,optionLeft,40,14230,6,39,0,39,0,1,,,,,,,,,,,,,,,,,,,,,,,,,,,,,,,,,,,,,,,
,,,,,,,,2023-08-16_08h31.38.506,HF_wild_card,2022.2.4,Win32,58.80623346,5bebf332cef79f00014d230c,64d2fd46c836a06233681665,64dc7b4573c0403a94b512ce,,,,,,,ctch,resources/DB.BMP,resources/DR.BMP,Door4,0.437777778,0.013333333,1,0,0,0.7139,optionRight,60,14290,6,40,0,40,0,1,,,,,,,,,,,,,,,,,,,,,,,,,,,,,,,,,,,,,,,
,,,,,,,,2023-08-16_08h31.38.506,HF_wild_card,2022.2.4,Win32,58.80623346,5bebf332cef79f00014d230c,64d2fd46c836a06233681665,64dc7b4573c0403a94b512ce,,,,,,,decisionTrl,resources/DBN.BMP,resources/DY.BMP,Door3,-0.272222222,-0.012222222,1,0,0,0.7102,optionLeft,70,14360,6,41,0,41,0,1,,,,,,,,,,,,,,,,,,,,,,,,,,,,,,,,,,,,,,,
,,,,,,,,2023-08-16_08h31.38.506,HF_wild_card,2022.2.4,Win32,58.80623346,5bebf332cef79f00014d230c,64d2fd46c836a06233681665,64dc7b4573c0403a94b512ce,,,,,,,ctch,resources/DBN.BMP,resources/DP.BMP,Door3,-0.382222222,-0.006666667,1,0,0,0.7139,optionLeft,70,14430,6,42,0,42,0,1,,,,,,,,,,,,,,,,,,,,,,,,,,,,,,,,,,,,,,,
,,,,,,,,2023-08-16_08h31.38.506,HF_wild_card,2022.2.4,Win32,58.80623346,5bebf332cef79f00014d230c,64d2fd46c836a06233681665,64dc7b4573c0403a94b512ce,,,,,,,sngl,resources/DR.BMP,resources/Empty.png,Door4,-0.265555556,-0.013333333,1,0,0,0.628,optionLeft,60,14490,6,43,0,43,0,1,,,,,,,,,,,,,,,,,,,,,,,,,,,,,,,,,,,,,,,
,,,,,,,,2023-08-16_08h31.38.506,HF_wild_card,2022.2.4,Win32,58.80623346,5bebf332cef79f00014d230c,64d2fd46c836a06233681665,64dc7b4573c0403a94b512ce,,,,,,,,,,,,,,,,,,,,,,,,,,5,0,5,0,1,,,,,,,,,,,,,,,,,,,,,,,,,,,,,,,,,,
,,,,,,,,2023-08-16_08h31.38.506,HF_wild_card,2022.2.4,Win32,58.80623346,5bebf332cef79f00014d230c,64d2fd46c836a06233681665,64dc7b4573c0403a94b512ce,,,,,,,decisionTrl,resources/DB.BMP,resources/DP.BMP,Door2,0.295555556,-0.072222222,1,0,0,1.4205,optionRight,40,14530,7,0,0,0,0,1,,,,,,,,,,,,,,,,,,,,,,,,,,,,,,,,,,,,,,,
,,,,,,,,2023-08-16_08h31.38.506,HF_wild_card,2022.2.4,Win32,58.80623346,5bebf332cef79f00014d230c,64d2fd46c836a06233681665,64dc7b4573c0403a94b512ce,,,,,,,ctch,resources/DB.BMP,resources/DR.BMP,Door4,0.413333333,0.002222222,1,0,0,0.9312,optionRight,60,14590,7,1,0,1,0,1,,,,,,,,,,,,,,,,,,,,,,,,,,,,,,,,,,,,,,,
,,,,,,,,2023-08-16_08h31.38.506,HF_wild_card,2022.2.4,Win32,58.80623346,5bebf332cef79f00014d230c,64d2fd46c836a06233681665,64dc7b4573c0403a94b512ce,,,,,,,decisionTrl,resources/DR.BMP,resources/DBN.BMP,Door3,0.521111111,0.034444444,1,0,0,0.9301,optionRight,70,14660,7,2,0,2,0,1,,,,,,,,,,,,,,,,,,,,,,,,,,,,,,,,,,,,,,,
,,,,,,,,2023-08-16_08h31.38.506,HF_wild_card,2022.2.4,Win32,58.80623346,5bebf332cef79f00014d230c,64d2fd46c836a06233681665,64dc7b4573c0403a94b512ce,,,,,,,ctch,resources/DBN.BMP,resources/DP.BMP,Door3,-0.376666667,-0.021111111,1,0,0,0.9318,optionLeft,70,14730,7,3,0,3,0,1,,,,,,,,,,,,,,,,,,,,,,,,,,,,,,,,,,,,,,,
,,,,,,,,2023-08-16_08h31.38.506,HF_wild_card,2022.2.4,Win32,58.80623346,5bebf332cef79f00014d230c,64d2fd46c836a06233681665,64dc7b4573c0403a94b512ce,,,,,,,ctch,resources/DR.BMP,resources/DB.BMP,Door4,-0.38,-0.02,1,0,0,1.2972,optionLeft,80,14810,7,4,0,4,0,1,,,,,,,,,,,,,,,,,,,,,,,,,,,,,,,,,,,,,,,
,,,,,,,,2023-08-16_08h31.38.506,HF_wild_card,2022.2.4,Win32,58.80623346,5bebf332cef79f00014d230c,64d2fd46c836a06233681665,64dc7b4573c0403a94b512ce,,,,,,,decisionTrl,resources/DP.BMP,resources/DB.BMP,Door2,-0.495555556,-0.035555556,1,0,0,1.3643,optionLeft,20,14830,7,5,0,5,0,1,,,,,,,,,,,,,,,,,,,,,,,,,,,,,,,,,,,,,,,
,,,,,,,,2023-08-16_08h31.38.506,HF_wild_card,2022.2.4,Win32,58.80623346,5bebf332cef79f00014d230c,64d2fd46c836a06233681665,64dc7b4573c0403a94b512ce,,,,,,,ctch,resources/DB.BMP,resources/DR.BMP,Door4,0.494444444,0.017777778,1,0,0,0.9798,optionRight,60,14890,7,6,0,6,0,1,,,,,,,,,,,,,,,,,,,,,,,,,,,,,,,,,,,,,,,
,,,,,,,,2023-08-16_08h31.38.506,HF_wild_card,2022.2.4,Win32,58.80623346,5bebf332cef79f00014d230c,64d2fd46c836a06233681665,64dc7b4573c0403a94b512ce,,,,,,,decisionTrl,resources/DBN.BMP,resources/DR.BMP,Door3,-0.423333333,0.004444444,1,0,0,1.0974,optionLeft,70,14960,7,7,0,7,0,1,,,,,,,,,,,,,,,,,,,,,,,,,,,,,,,,,,,,,,,
,,,,,,,,2023-08-16_08h31.38.506,HF_wild_card,2022.2.4,Win32,58.80623346,5bebf332cef79f00014d230c,64d2fd46c836a06233681665,64dc7b4573c0403a94b512ce,,,,,,,decisionTrl,resources/DB.BMP,resources/DP.BMP,Door2,0.39,-0.001111111,1,0,0,1.3156,optionRight,20,14980,7,8,0,8,0,1,,,,,,,,,,,,,,,,,,,,,,,,,,,,,,,,,,,,,,,
,,,,,,,,2023-08-16_08h31.38.506,HF_wild_card,2022.2.4,Win32,58.80623346,5bebf332cef79f00014d230c,64d2fd46c836a06233681665,64dc7b4573c0403a94b512ce,,,,,,,decisionTrl,resources/DP.BMP,resources/DB.BMP,Door2,-0.263333333,-0.026666667,1,0,0,1.0968,optionLeft,20,15000,7,9,0,9,0,1,,,,,,,,,,,,,,,,,,,,,,,,,,,,,,,,,,,,,,,
,,,,,,,,2023-08-16_08h31.38.506,HF_wild_card,2022.2.4,Win32,58.80623346,5bebf332cef79f00014d230c,64d2fd46c836a06233681665,64dc7b4573c0403a94b512ce,,,,,,,ctch,resources/DR.BMP,resources/DB.BMP,Door4,-0.374444444,-0.025555556,1,0,0,0.8469,optionLeft,80,15080,7,10,0,10,0,1,,,,,,,,,,,,,,,,,,,,,,,,,,,,,,,,,,,,,,,
,,,,,,,,2023-08-16_08h31.38.506,HF_wild_card,2022.2.4,Win32,58.80623346,5bebf332cef79f00014d230c,64d2fd46c836a06233681665,64dc7b4573c0403a94b512ce,,,,,,,decisionTrl,resources/DR.BMP,resources/DBN.BMP,Door3,0.334444444,0.006666667,1,0,0,0.8142,optionRight,70,15150,7,11,0,11,0,1,,,,,,,,,,,,,,,,,,,,,,,,,,,,,,,,,,,,,,,
,,,,,,,,2023-08-16_08h31.38.506,HF_wild_card,2022.2.4,Win32,58.80623346,5bebf332cef79f00014d230c,64d2fd46c836a06233681665,64dc7b4573c0403a94b512ce,,,,,,,decisionTrl,resources/DR.BMP,resources/DBN.BMP,Door3,0.428888889,0.018888889,1,0,0,0.7816,optionRight,70,15220,7,12,0,12,0,1,,,,,,,,,,,,,,,,,,,,,,,,,,,,,,,,,,,,,,,
,,,,,,,,2023-08-16_08h31.38.506,HF_wild_card,2022.2.4,Win32,58.80623346,5bebf332cef79f00014d230c,64d2fd46c836a06233681665,64dc7b4573c0403a94b512ce,,,,,,,ctch,resources/DBN.BMP,resources/DP.BMP,Door3,-0.507777778,-0.042222222,1,0,0,0.6307,optionLeft,70,15290,7,13,0,13,0,1,,,,,,,,,,,,,,,,,,,,,,,,,,,,,,,,,,,,,,,
,,,,,,,,2023-08-16_08h31.38.506,HF_wild_card,2022.2.4,Win32,58.80623346,5bebf332cef79f00014d230c,64d2fd46c836a06233681665,64dc7b4573c0403a94b512ce,,,,,,,decisionTrl,resources/DBN.BMP,resources/DR.BMP,Door3,-0.423333333,-0.005555556,1,0,0,0.7321,optionLeft,70,15360,7,14,0,14,0,1,,,,,,,,,,,,,,,,,,,,,,,,,,,,,,,,,,,,,,,
,,,,,,,,2023-08-16_08h31.38.506,HF_wild_card,2022.2.4,Win32,58.80623346,5bebf332cef79f00014d230c,64d2fd46c836a06233681665,64dc7b4573c0403a94b512ce,,,,,,,ctch,resources/DP.BMP,resources/DBN.BMP,Door3,0.424444444,0.014444444,1,0,0,0.6638,optionRight,70,15430,7,15,0,15,0,1,,,,,,,,,,,,,,,,,,,,,,,,,,,,,,,,,,,,,,,
,,,,,,,,2023-08-16_08h31.38.506,HF_wild_card,2022.2.4,Win32,58.80623346,5bebf332cef79f00014d230c,64d2fd46c836a06233681665,64dc7b4573c0403a94b512ce,,,,,,,ctch,resources/DB.BMP,resources/DR.BMP,Door4,0.523333333,0.008888889,1,0,0,0.7484,optionRight,60,15490,7,16,0,16,0,1,,,,,,,,,,,,,,,,,,,,,,,,,,,,,,,,,,,,,,,
,,,,,,,,2023-08-16_08h31.38.506,HF_wild_card,2022.2.4,Win32,58.80623346,5bebf332cef79f00014d230c,64d2fd46c836a06233681665,64dc7b4573c0403a94b512ce,,,,,,,decisionTrl,resources/DB.BMP,resources/DP.BMP,Door1,-0.411111111,-0.018888889,1,0,0,2.4473,optionLeft,30,15520,7,17,0,17,0,1,,,,,,,,,,,,,,,,,,,,,,,,,,,,,,,,,,,,,,,
,,,,,,,,2023-08-16_08h31.38.506,HF_wild_card,2022.2.4,Win32,58.80623346,5bebf332cef79f00014d230c,64d2fd46c836a06233681665,64dc7b4573c0403a94b512ce,,,,,,,ctch,resources/DP.BMP,resources/DBN.BMP,Door3,0.312222222,-0.001111111,1,0,0,0.6827,optionRight,70,15590,7,18,0,18,0,1,,,,,,,,,,,,,,,,,,,,,,,,,,,,,,,,,,,,,,,
,,,,,,,,2023-08-16_08h31.38.506,HF_wild_card,2022.2.4,Win32,58.80623346,5bebf332cef79f00014d230c,64d2fd46c836a06233681665,64dc7b4573c0403a94b512ce,,,,,,,decisionTrl,resources/DR.BMP,resources/DBN.BMP,Door3,0.235555556,0.007777778,1,0,0,1.1475,optionRight,70,15660,7,19,0,19,0,1,,,,,,,,,,,,,,,,,,,,,,,,,,,,,,,,,,,,,,,
,,,,,,,,2023-08-16_08h31.38.506,HF_wild_card,2022.2.4,Win32,58.80623346,5bebf332cef79f00014d230c,64d2fd46c836a06233681665,64dc7b4573c0403a94b512ce,,,,,,,decisionTrl,resources/DP.BMP,resources/DB.BMP,Door2,-0.344444444,-0.025555556,1,0,0,1.1969,optionLeft,20,15680,7,20,0,20,0,1,,,,,,,,,,,,,,,,,,,,,,,,,,,,,,,,,,,,,,,
,,,,,,,,2023-08-16_08h31.38.506,HF_wild_card,2022.2.4,Win32,58.80623346,5bebf332cef79f00014d230c,64d2fd46c836a06233681665,64dc7b4573c0403a94b512ce,,,,,,,decisionTrl,resources/DB.BMP,resources/DP.BMP,Door2,0.266666667,-0.01,1,0,0,0.9135,optionRight,40,15720,7,21,0,21,0,1,,,,,,,,,,,,,,,,,,,,,,,,,,,,,,,,,,,,,,,
,,,,,,,,2023-08-16_08h31.38.506,HF_wild_card,2022.2.4,Win32,58.80623346,5bebf332cef79f00014d230c,64d2fd46c836a06233681665,64dc7b4573c0403a94b512ce,,,,,,,decisionTrl,resources/DBN.BMP,resources/DR.BMP,Door4,0.501111111,0.026666667,1,0,0,1.1649,optionRight,60,15780,7,22,0,22,0,1,,,,,,,,,,,,,,,,,,,,,,,,,,,,,,,,,,,,,,,
,,,,,,,,2023-08-16_08h31.38.506,HF_wild_card,2022.2.4,Win32,58.80623346,5bebf332cef79f00014d230c,64d2fd46c836a06233681665,64dc7b4573c0403a94b512ce,,,,,,,decisionTrl,resources/DBN.BMP,resources/DR.BMP,Door4,0.486666667,0.013333333,1,0,0,0.6315,optionRight,60,15840,7,23,0,23,0,1,,,,,,,,,,,,,,,,,,,,,,,,,,,,,,,,,,,,,,,
,,,,,,,,2023-08-16_08h31.38.506,HF_wild_card,2022.2.4,Win32,58.80623346,5bebf332cef79f00014d230c,64d2fd46c836a06233681665,64dc7b4573c0403a94b512ce,,,,,,,decisionTrl,resources/DBN.BMP,resources/DR.BMP,Door4,0.337777778,0.011111111,1,0,0,0.6823,optionRight,80,15920,7,24,0,24,0,1,,,,,,,,,,,,,,,,,,,,,,,,,,,,,,,,,,,,,,,
,,,,,,,,2023-08-16_08h31.38.506,HF_wild_card,2022.2.4,Win32,58.80623346,5bebf332cef79f00014d230c,64d2fd46c836a06233681665,64dc7b4573c0403a94b512ce,,,,,,,ctch,resources/DBN.BMP,resources/DP.BMP,Door3,-0.404444444,0.01,1,0,0,0.6825,optionLeft,70,15990,7,25,0,25,0,1,,,,,,,,,,,,,,,,,,,,,,,,,,,,,,,,,,,,,,,
,,,,,,,,2023-08-16_08h31.38.506,HF_wild_card,2022.2.4,Win32,58.80623346,5bebf332cef79f00014d230c,64d2fd46c836a06233681665,64dc7b4573c0403a94b512ce,,,,,,,decisionTrl,resources/DP.BMP,resources/DB.BMP,Door2,-0.326666667,-0.01,1,0,0,1.247,optionLeft,20,16010,7,26,0,26,0,1,,,,,,,,,,,,,,,,,,,,,,,,,,,,,,,,,,,,,,,
,,,,,,,,2023-08-16_08h31.38.506,HF_wild_card,2022.2.4,Win32,58.80623346,5bebf332cef79f00014d230c,64d2fd46c836a06233681665,64dc7b4573c0403a94b512ce,,,,,,,ctch,resources/DP.BMP,resources/DBN.BMP,Door3,0.353333333,0.035555556,1,0,0,0.9626,optionRight,70,16080,7,27,0,27,0,1,,,,,,,,,,,,,,,,,,,,,,,,,,,,,,,,,,,,,,,
,,,,,,,,2023-08-16_08h31.38.506,HF_wild_card,2022.2.4,Win32,58.80623346,5bebf332cef79f00014d230c,64d2fd46c836a06233681665,64dc7b4573c0403a94b512ce,,,,,,,decisionTrl,resources/DR.BMP,resources/DBN.BMP,Door3,0.291111111,0.001111111,1,0,0,1.2144,optionRight,70,16150,7,28,0,28,0,1,,,,,,,,,,,,,,,,,,,,,,,,,,,,,,,,,,,,,,,
,,,,,,,,2023-08-16_08h31.38.506,HF_wild_card,2022.2.4,Win32,58.80623346,5bebf332cef79f00014d230c,64d2fd46c836a06233681665,64dc7b4573c0403a94b512ce,,,,,,,decisionTrl,resources/DP.BMP,resources/DB.BMP,Door2,-0.334444444,-0.033333333,1,0,0,1.1476,optionLeft,40,16190,7,29,0,29,0,1,,,,,,,,,,,,,,,,,,,,,,,,,,,,,,,,,,,,,,,
,,,,,,,,2023-08-16_08h31.38.506,HF_wild_card,2022.2.4,Win32,58.80623346,5bebf332cef79f00014d230c,64d2fd46c836a06233681665,64dc7b4573c0403a94b512ce,,,,,,,decisionTrl,resources/DB.BMP,resources/DP.BMP,Door2,0.365555556,0.015555556,1,0,0,0.8807,optionRight,40,16230,7,30,0,30,0,1,,,,,,,,,,,,,,,,,,,,,,,,,,,,,,,,,,,,,,,
,,,,,,,,2023-08-16_08h31.38.506,HF_wild_card,2022.2.4,Win32,58.80623346,5bebf332cef79f00014d230c,64d2fd46c836a06233681665,64dc7b4573c0403a94b512ce,,,,,,,decisionTrl,resources/DBN.BMP,resources/DR.BMP,Door4,0.434444444,0.004444444,1,0,0,1.1807,optionRight,80,16310,7,31,0,31,0,1,,,,,,,,,,,,,,,,,,,,,,,,,,,,,,,,,,,,,,,
,,,,,,,,2023-08-16_08h31.38.506,HF_wild_card,2022.2.4,Win32,58.80623346,5bebf332cef79f00014d230c,64d2fd46c836a06233681665,64dc7b4573c0403a94b512ce,,,,,,,decisionTrl,resources/DR.BMP,resources/DBN.BMP,Door3,0.381111111,0.073333333,1,0,0,0.8306,optionRight,70,16380,7,32,0,32,0,1,,,,,,,,,,,,,,,,,,,,,,,,,,,,,,,,,,,,,,,
,,,,,,,,2023-08-16_08h31.38.506,HF_wild_card,2022.2.4,Win32,58.80623346,5bebf332cef79f00014d230c,64d2fd46c836a06233681665,64dc7b4573c0403a94b512ce,,,,,,,ctch,resources/DR.BMP,resources/DB.BMP,Door4,-0.328888889,-0.032222222,1,0,0,0.9823,optionLeft,60,16440,7,33,0,33,0,1,,,,,,,,,,,,,,,,,,,,,,,,,,,,,,,,,,,,,,,
,,,,,,,,2023-08-16_08h31.38.506,HF_wild_card,2022.2.4,Win32,58.80623346,5bebf332cef79f00014d230c,64d2fd46c836a06233681665,64dc7b4573c0403a94b512ce,,,,,,,decisionTrl,resources/DP.BMP,resources/DB.BMP,Door1,0.341111111,0.003333333,1,0,0,1.1157,optionRight,30,16470,7,34,0,34,0,1,,,,,,,,,,,,,,,,,,,,,,,,,,,,,,,,,,,,,,,
,,,,,,,,2023-08-16_08h31.38.506,HF_wild_card,2022.2.4,Win32,58.80623346,5bebf332cef79f00014d230c,64d2fd46c836a06233681665,64dc7b4573c0403a94b512ce,,,,,,,decisionTrl,resources/DB.BMP,resources/DP.BMP,Door2,0.308888889,0.011111111,1,0,0,0.9463,optionRight,40,16510,7,35,0,35,0,1,,,,,,,,,,,,,,,,,,,,,,,,,,,,,,,,,,,,,,,
,,,,,,,,2023-08-16_08h31.38.506,HF_wild_card,2022.2.4,Win32,58.80623346,5bebf332cef79f00014d230c,64d2fd46c836a06233681665,64dc7b4573c0403a94b512ce,,,,,,,,,,,,,,,,,,,,,,,,,,6,0,6,0,1,,,,,,,,,,,,,,,,,,,,,,,,,,,,,,,,,,
,,,,,,,,2023-08-16_08h31.38.506,HF_wild_card,2022.2.4,Win32,58.80623346,5bebf332cef79f00014d230c,64d2fd46c836a06233681665,64dc7b4573c0403a94b512ce,,,,,,,,,,,,,,,,,,,,,,,,,,,,,,,4,,,,,,,,,,,,,,,,,,,,,,,,,,,,,,,,,
,,,,,,,,2023-08-16_08h31.38.506,HF_wild_card,2022.2.4,Win32,58.80623346,5bebf332cef79f00014d230c,64d2fd46c836a06233681665,64dc7b4573c0403a94b512ce,,,,,,,,,,,,,,,,,,,,,,,,,,,,,,,,,,,,,,,,,,,,,,,,,,,,,,,,,,,,,,,,
,,,,,,,,2023-08-16_08h31.38.506,HF_wild_card,2022.2.4,Win32,58.80623346,5bebf332cef79f00014d230c,64d2fd46c836a06233681665,64dc7b4573c0403a94b512ce,,,,,,,,,,,,,,,,,,,,,,,,,,,,,,,,20,Door1,resources/DB.BMP,0,0,0,0,1,,,,,,,,,,,,,,,,,,,,,,,,,
,,,,,,,,2023-08-16_08h31.38.506,HF_wild_card,2022.2.4,Win32,58.80623346,5bebf332cef79f00014d230c,64d2fd46c836a06233681665,64dc7b4573c0403a94b512ce,,,,,,,,,,,,,,,,,,,,,,,,,,,,,,,,30,Door2,resources/DP.BMP,1,0,1,0,1,,,,,,,,,,,,,,,,,,,,,,,,,
,,,,,,,,2023-08-16_08h31.38.506,HF_wild_card,2022.2.4,Win32,58.80623346,5bebf332cef79f00014d230c,64d2fd46c836a06233681665,64dc7b4573c0403a94b512ce,,,,,,,,,,,,,,,,,,,,,,,,,,,,,,,,70,Door3,resources/DBN.BMP,2,0,2,0,1,,,,,,,,,,,,,,,,,,,,,,,,,
,,,,,,,,2023-08-16_08h31.38.506,HF_wild_card,2022.2.4,Win32,58.80623346,5bebf332cef79f00014d230c,64d2fd46c836a06233681665,64dc7b4573c0403a94b512ce,,,,,,,,,,,,,,,,,,,,,,,,,,,,,,,,55,WC_extreme,resources/DY.BMP,3,0,3,0,1,,,,,,,,,,,,,,,,,,,,,,,,,
,,,,,,,,2023-08-16_08h31.38.506,HF_wild_card,2022.2.4,Win32,58.80623346,5bebf332cef79f00014d230c,64d2fd46c836a06233681665,64dc7b4573c0403a94b512ce,,,,,,,,,,,,,,,,,,,,,,,,,,,,,,,,60,Door4,resources/DR.BMP,4,0,4,0,1,,,,,,,,,,,,,,,,,,,,,,,,,
,,,,,,,,2023-08-16_08h31.38.506,HF_wild_card,2022.2.4,Win32,58.80623346,5bebf332cef79f00014d230c,64d2fd46c836a06233681665,64dc7b4573c0403a94b512ce,,,,,,,,,,,,,,,,,,,,,,,,,,,,,,,,55,WC_nonExtreme,resources/DG.BMP,5,0,5,0,1,,,,,,,,,,,,,,,,,,,,,,,,,
,,,,,,,,2023-08-16_08h31.38.506,HF_wild_card,2022.2.4,Win32,58.80623346,5bebf332cef79f00014d230c,64d2fd46c836a06233681665,64dc7b4573c0403a94b512ce,,,,,,,,,,,,,,,,,,,,,,,,,,,,,,,,,,,,,,,,,,,,,,,,,,,,,,,,,,,,,,,,
,,,,,,,,2023-08-16_08h31.38.506,HF_wild_card,2022.2.4,Win32,58.80623346,5bebf332cef79f00014d230c,64d2fd46c836a06233681665,64dc7b4573c0403a94b512ce,,,,,,,,,,,,,,,,,,,,,,,,,,,,,,,,,,,,,,,,0,0,0,0,1,,,,,,,,,,,,,,,,,,,,
,,,,,,,,2023-08-16_08h31.38.506,HF_wild_card,2022.2.4,Win32,58.80623346,5bebf332cef79f00014d230c,64d2fd46c836a06233681665,64dc7b4573c0403a94b512ce,,,,,,,,,,,,,,,,,,,,,,,,,,,,,,,,,,,,,,,,1,0,1,0,1,,,,,,,,,,,,,,,,,,,,
