Condition,Low fixed image (Door1),Low risky image (Door2),High fixed image (Door3),High risky image (Door4),Extreme Wild Card,NonExtreme Wild Card,,date,expName,psychopyVersion,OS,frameRate,PROLIFIC_PID,STUDY_ID,SESSION_ID,mouse_2.x,mouse_2.y,mouse_2.leftButton,mouse_2.midButton,mouse_2.rightButton,mouse_2.clicked_name,Trial Type,Left Option Image,Right Option Image,Chosen Door,mouse.x,mouse.y,mouse.leftButton,mouse.midButton,mouse.rightButton,mouse.time,mouse.clicked_name,Feedback,Cumulative Reward,Block,trial.thisRepN,trial.thisTrialN,trial.thisN,trial.thisIndex,trial.ran,blocks.thisRepN,blocks.thisTrialN,blocks.thisN,blocks.thisIndex,blocks.ran,Money conversion,First Outcome Reported,Shown Door (First Outcome),Displayed Image (First Outcome),outcomes.thisRepN,outcomes.thisTrialN,outcomes.thisN,outcomes.thisIndex,outcomes.ran,judgments.thisRepN,judgments.thisTrialN,judgments.thisN,judgments.thisIndex,judgments.ran,freqMouse.x,freqMouse.y,freqMouse.leftButton,freqMouse.midButton,freqMouse.rightButton,freqMouse.clicked_name,FQJ for first outcome,FQJ for second outcome,Shown Door,Displayed Image,trials.thisRepN,trials.thisTrialN,trials.thisN,trials.thisIndex,trials.ran,judgBlock.thisRepN,judgBlock.thisTrialN,judgBlock.thisN,judgBlock.thisIndex,judgBlock.ran
1,resources/DB.BMP,resources/DBN.BMP,resources/DR.BMP,resources/DP.BMP,resources/DG.BMP,resources/DY.BMP,,2023-08-16_08h32.23.828,HF_wild_card,2022.2.4,MacIntel,59.84082341,638a8c63c74f91261108cebf,64d2fd46c836a06233681665,64dc7b502356a55c9dfbb6dd,,,,,,,,,,,,,,,,,,,,,,,,,,,,,,,,,,,,,,,,,,,,,,,,,,,,,,,,,,,,,,,,
,,,,,,,,2023-08-16_08h32.23.828,HF_wild_card,2022.2.4,MacIntel,59.84082341,638a8c63c74f91261108cebf,64d2fd46c836a06233681665,64dc7b502356a55c9dfbb6dd,0.02109531,-0.423440416,1,0,0,agree,,,,,,,,,,,,,,,,,,,,,,,,,,,,,,,,,,,,,,,,,,,,,,,,,,,,,,,,,,
,,,,,,,,2023-08-16_08h32.23.828,HF_wild_card,2022.2.4,MacIntel,59.84082341,638a8c63c74f91261108cebf,64d2fd46c836a06233681665,64dc7b502356a55c9dfbb6dd,,,,,,,,,,,,,,,,,,,,,,,,,,,,,,,,,,,,,,,,,,,,,,,,,,,,,,,,,,,,,,,,
,,,,,,,,2023-08-16_08h32.23.828,HF_wild_card,2022.2.4,MacIntel,59.84082341,638a8c63c74f91261108cebf,64d2fd46c836a06233681665,64dc7b502356a55c9dfbb6dd,,,,,,,sngl,resources/DY.BMP,resources/Empty.png,WildCard_NonEx,-0.314401754,-0.11613878,1,0,0,3.4323,optionLeft,45,45,1,0,0,0,0,1,,,,,,,,,,,,,,,,,,,,,,,,,,,,,,,,,,,,,,,
,,,,,,,,2023-08-16_08h32.23.828,HF_wild_card,2022.2.4,MacIntel,59.84082341,638a8c63c74f91261108cebf,64d2fd46c836a06233681665,64dc7b502356a55c9dfbb6dd,,,,,,,decisionTrl,resources/DB.BMP,resources/DBN.BMP,Door1,-0.363511047,-0.070164524,1,0,0,1.596,optionLeft,30,75,1,1,0,1,0,1,,,,,,,,,,,,,,,,,,,,,,,,,,,,,,,,,,,,,,,
,,,,,,,,2023-08-16_08h32.23.828,HF_wild_card,2022.2.4,MacIntel,59.84082341,638a8c63c74f91261108cebf,64d2fd46c836a06233681665,64dc7b502356a55c9dfbb6dd,,,,,,,sngl,resources/DP.BMP,resources/Empty.png,Door4,-0.338521729,-0.073939006,1,0,0,0.8506,optionLeft,80,155,1,2,0,2,0,1,,,,,,,,,,,,,,,,,,,,,,,,,,,,,,,,,,,,,,,
,,,,,,,,2023-08-16_08h32.23.828,HF_wild_card,2022.2.4,MacIntel,59.84082341,638a8c63c74f91261108cebf,64d2fd46c836a06233681665,64dc7b502356a55c9dfbb6dd,,,,,,,decisionTrl,resources/DP.BMP,resources/DR.BMP,Door4,-0.326004333,-0.062065023,1,0,0,0.7621,optionLeft,60,215,1,3,0,3,0,1,,,,,,,,,,,,,,,,,,,,,,,,,,,,,,,,,,,,,,,
,,,,,,,,2023-08-16_08h32.23.828,HF_wild_card,2022.2.4,MacIntel,59.84082341,638a8c63c74f91261108cebf,64d2fd46c836a06233681665,64dc7b502356a55c9dfbb6dd,,,,,,,decisionTrl,resources/DBN.BMP,resources/DB.BMP,Door1,0.31585517,0.002343275,1,0,0,0.9809,optionRight,30,245,1,4,0,4,0,1,,,,,,,,,,,,,,,,,,,,,,,,,,,,,,,,,,,,,,,
,,,,,,,,2023-08-16_08h32.23.828,HF_wild_card,2022.2.4,MacIntel,59.84082341,638a8c63c74f91261108cebf,64d2fd46c836a06233681665,64dc7b502356a55c9dfbb6dd,,,,,,,decisionTrl,resources/DB.BMP,resources/DBN.BMP,Door1,-0.25981425,-0.063088786,1,0,0,0.9816,optionLeft,30,275,1,5,0,5,0,1,,,,,,,,,,,,,,,,,,,,,,,,,,,,,,,,,,,,,,,
,,,,,,,,2023-08-16_08h32.23.828,HF_wild_card,2022.2.4,MacIntel,59.84082341,638a8c63c74f91261108cebf,64d2fd46c836a06233681665,64dc7b502356a55c9dfbb6dd,,,,,,,decisionTrl,resources/DB.BMP,resources/DY.BMP,Door1,-0.330043335,-0.025788371,1,0,0,0.8652,optionLeft,30,305,1,6,0,6,0,1,,,,,,,,,,,,,,,,,,,,,,,,,,,,,,,,,,,,,,,
,,,,,,,,2023-08-16_08h32.23.828,HF_wild_card,2022.2.4,MacIntel,59.84082341,638a8c63c74f91261108cebf,64d2fd46c836a06233681665,64dc7b502356a55c9dfbb6dd,,,,,,,sngl,resources/Empty.png,resources/DB.BMP,Door1,0.198793742,-0.02498447,1,0,0,0.8471,optionRight,30,335,1,7,0,7,0,1,,,,,,,,,,,,,,,,,,,,,,,,,,,,,,,,,,,,,,,
,,,,,,,,2023-08-16_08h32.23.828,HF_wild_card,2022.2.4,MacIntel,59.84082341,638a8c63c74f91261108cebf,64d2fd46c836a06233681665,64dc7b502356a55c9dfbb6dd,,,,,,,decisionTrl,resources/DP.BMP,resources/DR.BMP,Door3,0.372867703,-0.034557563,1,0,0,1.048,optionRight,70,405,1,8,0,8,0,1,,,,,,,,,,,,,,,,,,,,,,,,,,,,,,,,,,,,,,,
,,,,,,,,2023-08-16_08h32.23.828,HF_wild_card,2022.2.4,MacIntel,59.84082341,638a8c63c74f91261108cebf,64d2fd46c836a06233681665,64dc7b502356a55c9dfbb6dd,,,,,,,ctch,resources/DB.BMP,resources/DP.BMP,Door4,0.333725179,0.014671631,1,0,0,1.3043,optionRight,60,465,1,9,0,9,0,1,,,,,,,,,,,,,,,,,,,,,,,,,,,,,,,,,,,,,,,
,,,,,,,,2023-08-16_08h32.23.828,HF_wild_card,2022.2.4,MacIntel,59.84082341,638a8c63c74f91261108cebf,64d2fd46c836a06233681665,64dc7b502356a55c9dfbb6dd,,,,,,,sngl,resources/DR.BMP,resources/Empty.png,Door3,-0.362373657,-0.042070652,1,0,0,0.9258,optionLeft,70,535,1,10,0,10,0,1,,,,,,,,,,,,,,,,,,,,,,,,,,,,,,,,,,,,,,,
,,,,,,,,2023-08-16_08h32.23.828,HF_wild_card,2022.2.4,MacIntel,59.84082341,638a8c63c74f91261108cebf,64d2fd46c836a06233681665,64dc7b502356a55c9dfbb6dd,,,,,,,sngl,resources/Empty.png,resources/DR.BMP,Door3,0.239131266,0.024118347,1,0,0,0.817,optionRight,70,605,1,11,0,11,0,1,,,,,,,,,,,,,,,,,,,,,,,,,,,,,,,,,,,,,,,
,,,,,,,,2023-08-16_08h32.23.828,HF_wild_card,2022.2.4,MacIntel,59.84082341,638a8c63c74f91261108cebf,64d2fd46c836a06233681665,64dc7b502356a55c9dfbb6dd,,,,,,,decisionTrl,resources/DR.BMP,resources/DP.BMP,Door3,-0.254181824,-0.022579278,1,0,0,0.8489,optionLeft,70,675,1,12,0,12,0,1,,,,,,,,,,,,,,,,,,,,,,,,,,,,,,,,,,,,,,,
,,,,,,,,2023-08-16_08h32.23.828,HF_wild_card,2022.2.4,MacIntel,59.84082341,638a8c63c74f91261108cebf,64d2fd46c836a06233681665,64dc7b502356a55c9dfbb6dd,,,,,,,decisionTrl,resources/DY.BMP,resources/DB.BMP,WildCard_NonEx,-0.306802029,0.005697598,1,0,0,0.8685,optionLeft,45,720,1,13,0,13,0,1,,,,,,,,,,,,,,,,,,,,,,,,,,,,,,,,,,,,,,,
,,,,,,,,2023-08-16_08h32.23.828,HF_wild_card,2022.2.4,MacIntel,59.84082341,638a8c63c74f91261108cebf,64d2fd46c836a06233681665,64dc7b502356a55c9dfbb6dd,,,,,,,decisionTrl,resources/DR.BMP,resources/DP.BMP,Door4,0.462707655,-0.014901123,1,0,0,0.6663,optionRight,60,780,1,14,0,14,0,1,,,,,,,,,,,,,,,,,,,,,,,,,,,,,,,,,,,,,,,
,,,,,,,,2023-08-16_08h32.23.828,HF_wild_card,2022.2.4,MacIntel,59.84082341,638a8c63c74f91261108cebf,64d2fd46c836a06233681665,64dc7b502356a55c9dfbb6dd,,,,,,,ctch,resources/DP.BMP,resources/DB.BMP,Door4,-0.356580471,0.020364787,1,0,0,0.7644,optionLeft,60,840,1,15,0,15,0,1,,,,,,,,,,,,,,,,,,,,,,,,,,,,,,,,,,,,,,,
,,,,,,,,2023-08-16_08h32.23.828,HF_wild_card,2022.2.4,MacIntel,59.84082341,638a8c63c74f91261108cebf,64d2fd46c836a06233681665,64dc7b502356a55c9dfbb6dd,,,,,,,ctch,resources/DB.BMP,resources/DP.BMP,Door4,0.290621067,0.002964715,1,0,0,0.7549,optionRight,60,900,1,16,0,16,0,1,,,,,,,,,,,,,,,,,,,,,,,,,,,,,,,,,,,,,,,
,,,,,,,,2023-08-16_08h32.23.828,HF_wild_card,2022.2.4,MacIntel,59.84082341,638a8c63c74f91261108cebf,64d2fd46c836a06233681665,64dc7b502356a55c9dfbb6dd,,,,,,,decisionTrl,resources/DP.BMP,resources/DY.BMP,Door4,-0.278278843,-0.020789795,1,0,0,0.7343,optionLeft,80,980,1,17,0,17,0,1,,,,,,,,,,,,,,,,,,,,,,,,,,,,,,,,,,,,,,,
,,,,,,,,2023-08-16_08h32.23.828,HF_wild_card,2022.2.4,MacIntel,59.84082341,638a8c63c74f91261108cebf,64d2fd46c836a06233681665,64dc7b502356a55c9dfbb6dd,,,,,,,ctch,resources/DBN.BMP,resources/DR.BMP,Door3,0.319721544,0.005009833,1,0,0,0.6634,optionRight,70,1050,1,18,0,18,0,1,,,,,,,,,,,,,,,,,,,,,,,,,,,,,,,,,,,,,,,
,,,,,,,,2023-08-16_08h32.23.828,HF_wild_card,2022.2.4,MacIntel,59.84082341,638a8c63c74f91261108cebf,64d2fd46c836a06233681665,64dc7b502356a55c9dfbb6dd,,,,,,,decisionTrl,resources/DBN.BMP,resources/DB.BMP,Door1,0.333660889,0.041261563,1,0,0,1.4332,optionRight,30,1080,1,19,0,19,0,1,,,,,,,,,,,,,,,,,,,,,,,,,,,,,,,,,,,,,,,
,,,,,,,,2023-08-16_08h32.23.828,HF_wild_card,2022.2.4,MacIntel,59.84082341,638a8c63c74f91261108cebf,64d2fd46c836a06233681665,64dc7b502356a55c9dfbb6dd,,,,,,,decisionTrl,resources/DB.BMP,resources/DBN.BMP,Door1,-0.326618483,0.015758124,1,0,0,0.7012,optionLeft,30,1110,1,20,0,20,0,1,,,,,,,,,,,,,,,,,,,,,,,,,,,,,,,,,,,,,,,
,,,,,,,,2023-08-16_08h32.23.828,HF_wild_card,2022.2.4,MacIntel,59.84082341,638a8c63c74f91261108cebf,64d2fd46c836a06233681665,64dc7b502356a55c9dfbb6dd,,,,,,,decisionTrl,resources/DP.BMP,resources/DR.BMP,Door3,0.353048638,0.00618554,1,0,0,0.5783,optionRight,70,1180,1,21,0,21,0,1,,,,,,,,,,,,,,,,,,,,,,,,,,,,,,,,,,,,,,,
,,,,,,,,2023-08-16_08h32.23.828,HF_wild_card,2022.2.4,MacIntel,59.84082341,638a8c63c74f91261108cebf,64d2fd46c836a06233681665,64dc7b502356a55c9dfbb6dd,,,,,,,ctch,resources/DR.BMP,resources/DBN.BMP,Door3,-0.279896715,0.031105313,1,0,0,0.832,optionLeft,70,1250,1,22,0,22,0,1,,,,,,,,,,,,,,,,,,,,,,,,,,,,,,,,,,,,,,,
,,,,,,,,2023-08-16_08h32.23.828,HF_wild_card,2022.2.4,MacIntel,59.84082341,638a8c63c74f91261108cebf,64d2fd46c836a06233681665,64dc7b502356a55c9dfbb6dd,,,,,,,ctch,resources/DR.BMP,resources/DBN.BMP,Door3,-0.30346049,0.029579332,1,0,0,0.9336,optionLeft,70,1320,1,23,0,23,0,1,,,,,,,,,,,,,,,,,,,,,,,,,,,,,,,,,,,,,,,
,,,,,,,,2023-08-16_08h32.23.828,HF_wild_card,2022.2.4,MacIntel,59.84082341,638a8c63c74f91261108cebf,64d2fd46c836a06233681665,64dc7b502356a55c9dfbb6dd,,,,,,,sngl,resources/DY.BMP,resources/Empty.png,WildCard_NonEx,-0.256818712,-0.00120202,1,0,0,1.2654,optionLeft,55,1375,1,24,0,24,0,1,,,,,,,,,,,,,,,,,,,,,,,,,,,,,,,,,,,,,,,
,,,,,,,,2023-08-16_08h32.23.828,HF_wild_card,2022.2.4,MacIntel,59.84082341,638a8c63c74f91261108cebf,64d2fd46c836a06233681665,64dc7b502356a55c9dfbb6dd,,,,,,,decisionTrl,resources/DR.BMP,resources/DP.BMP,Door3,-0.336877204,0.014930352,1,0,0,1.819,optionLeft,70,1445,1,25,0,25,0,1,,,,,,,,,,,,,,,,,,,,,,,,,,,,,,,,,,,,,,,
,,,,,,,,2023-08-16_08h32.23.828,HF_wild_card,2022.2.4,MacIntel,59.84082341,638a8c63c74f91261108cebf,64d2fd46c836a06233681665,64dc7b502356a55c9dfbb6dd,,,,,,,decisionTrl,resources/DR.BMP,resources/DP.BMP,Door3,-0.40619239,0.050835198,1,0,0,2.7705,optionLeft,70,1515,1,26,0,26,0,1,,,,,,,,,,,,,,,,,,,,,,,,,,,,,,,,,,,,,,,
,,,,,,,,2023-08-16_08h32.23.828,HF_wild_card,2022.2.4,MacIntel,59.84082341,638a8c63c74f91261108cebf,64d2fd46c836a06233681665,64dc7b502356a55c9dfbb6dd,,,,,,,ctch,resources/DBN.BMP,resources/DR.BMP,Door3,0.340071072,0.029024387,1,0,0,1.0771,optionRight,70,1585,1,27,0,27,0,1,,,,,,,,,,,,,,,,,,,,,,,,,,,,,,,,,,,,,,,
,,,,,,,,2023-08-16_08h32.23.828,HF_wild_card,2022.2.4,MacIntel,59.84082341,638a8c63c74f91261108cebf,64d2fd46c836a06233681665,64dc7b502356a55c9dfbb6dd,,,,,,,decisionTrl,resources/DB.BMP,resources/DBN.BMP,Door1,-0.359403212,-0.027663845,1,0,0,1.1166,optionLeft,30,1615,1,28,0,28,0,1,,,,,,,,,,,,,,,,,,,,,,,,,,,,,,,,,,,,,,,
,,,,,,,,2023-08-16_08h32.23.828,HF_wild_card,2022.2.4,MacIntel,59.84082341,638a8c63c74f91261108cebf,64d2fd46c836a06233681665,64dc7b502356a55c9dfbb6dd,,,,,,,sngl,resources/Empty.png,resources/DP.BMP,Door4,0.447128364,0.034423319,1,0,0,0.6169,optionRight,60,1675,1,29,0,29,0,1,,,,,,,,,,,,,,,,,,,,,,,,,,,,,,,,,,,,,,,
,,,,,,,,2023-08-16_08h32.23.828,HF_wild_card,2022.2.4,MacIntel,59.84082341,638a8c63c74f91261108cebf,64d2fd46c836a06233681665,64dc7b502356a55c9dfbb6dd,,,,,,,sngl,resources/Empty.png,resources/DY.BMP,WildCard_NonEx,0.289347941,0.019537218,1,0,0,0.8041,optionRight,45,1720,1,30,0,30,0,1,,,,,,,,,,,,,,,,,,,,,,,,,,,,,,,,,,,,,,,
,,,,,,,,2023-08-16_08h32.23.828,HF_wild_card,2022.2.4,MacIntel,59.84082341,638a8c63c74f91261108cebf,64d2fd46c836a06233681665,64dc7b502356a55c9dfbb6dd,,,,,,,ctch,resources/DP.BMP,resources/DB.BMP,Door4,-0.265173001,-0.010647786,1,0,0,0.8812,optionLeft,80,1800,1,31,0,31,0,1,,,,,,,,,,,,,,,,,,,,,,,,,,,,,,,,,,,,,,,
,,,,,,,,2023-08-16_08h32.23.828,HF_wild_card,2022.2.4,MacIntel,59.84082341,638a8c63c74f91261108cebf,64d2fd46c836a06233681665,64dc7b502356a55c9dfbb6dd,,,,,,,decisionTrl,resources/DY.BMP,resources/DBN.BMP,WildCard_NonEx,-0.229759318,0.024603136,1,0,0,0.918,optionLeft,45,1845,1,32,0,32,0,1,,,,,,,,,,,,,,,,,,,,,,,,,,,,,,,,,,,,,,,
,,,,,,,,2023-08-16_08h32.23.828,HF_wild_card,2022.2.4,MacIntel,59.84082341,638a8c63c74f91261108cebf,64d2fd46c836a06233681665,64dc7b502356a55c9dfbb6dd,,,,,,,decisionTrl,resources/DBN.BMP,resources/DB.BMP,Door1,0.264915636,0.020704888,1,0,0,0.7817,optionRight,30,1875,1,33,0,33,0,1,,,,,,,,,,,,,,,,,,,,,,,,,,,,,,,,,,,,,,,
,,,,,,,,2023-08-16_08h32.23.828,HF_wild_card,2022.2.4,MacIntel,59.84082341,638a8c63c74f91261108cebf,64d2fd46c836a06233681665,64dc7b502356a55c9dfbb6dd,,,,,,,decisionTrl,resources/DP.BMP,resources/DR.BMP,Door4,-0.278401625,0.04930481,1,0,0,0.635,optionLeft,60,1935,1,34,0,34,0,1,,,,,,,,,,,,,,,,,,,,,,,,,,,,,,,,,,,,,,,
,,,,,,,,2023-08-16_08h32.23.828,HF_wild_card,2022.2.4,MacIntel,59.84082341,638a8c63c74f91261108cebf,64d2fd46c836a06233681665,64dc7b502356a55c9dfbb6dd,,,,,,,sngl,resources/DBN.BMP,resources/Empty.png,Door2,-0.285761414,0.037678562,1,0,0,1.8527,optionLeft,40,1975,1,35,0,35,0,1,,,,,,,,,,,,,,,,,,,,,,,,,,,,,,,,,,,,,,,
,,,,,,,,2023-08-16_08h32.23.828,HF_wild_card,2022.2.4,MacIntel,59.84082341,638a8c63c74f91261108cebf,64d2fd46c836a06233681665,64dc7b502356a55c9dfbb6dd,,,,,,,sngl,resources/Empty.png,resources/DY.BMP,WildCard_NonEx,0.332997233,0.040677016,1,0,0,0.6513,optionRight,55,2030,1,36,0,36,0,1,,,,,,,,,,,,,,,,,,,,,,,,,,,,,,,,,,,,,,,
,,,,,,,,2023-08-16_08h32.23.828,HF_wild_card,2022.2.4,MacIntel,59.84082341,638a8c63c74f91261108cebf,64d2fd46c836a06233681665,64dc7b502356a55c9dfbb6dd,,,,,,,decisionTrl,resources/DR.BMP,resources/DY.BMP,Door3,-0.297007243,-0.004080946,1,0,0,0.9281,optionLeft,70,2100,1,37,0,37,0,1,,,,,,,,,,,,,,,,,,,,,,,,,,,,,,,,,,,,,,,
,,,,,,,,2023-08-16_08h32.23.828,HF_wild_card,2022.2.4,MacIntel,59.84082341,638a8c63c74f91261108cebf,64d2fd46c836a06233681665,64dc7b502356a55c9dfbb6dd,,,,,,,sngl,resources/DB.BMP,resources/Empty.png,Door1,-0.340676948,-0.028586155,1,0,0,0.7325,optionLeft,30,2130,1,38,0,38,0,1,,,,,,,,,,,,,,,,,,,,,,,,,,,,,,,,,,,,,,,
,,,,,,,,2023-08-16_08h32.23.828,HF_wild_card,2022.2.4,MacIntel,59.84082341,638a8c63c74f91261108cebf,64d2fd46c836a06233681665,64dc7b502356a55c9dfbb6dd,,,,,,,decisionTrl,resources/DBN.BMP,resources/DY.BMP,WildCard_NonEx,0.34473036,0.041968723,1,0,0,1.0432,optionRight,55,2185,1,39,0,39,0,1,,,,,,,,,,,,,,,,,,,,,,,,,,,,,,,,,,,,,,,
,,,,,,,,2023-08-16_08h32.23.828,HF_wild_card,2022.2.4,MacIntel,59.84082341,638a8c63c74f91261108cebf,64d2fd46c836a06233681665,64dc7b502356a55c9dfbb6dd,,,,,,,sngl,resources/Empty.png,resources/DBN.BMP,Door2,0.404772678,0.070752903,1,0,0,0.8505,optionRight,20,2205,1,40,0,40,0,1,,,,,,,,,,,,,,,,,,,,,,,,,,,,,,,,,,,,,,,
,,,,,,,,2023-08-16_08h32.23.828,HF_wild_card,2022.2.4,MacIntel,59.84082341,638a8c63c74f91261108cebf,64d2fd46c836a06233681665,64dc7b502356a55c9dfbb6dd,,,,,,,decisionTrl,resources/DY.BMP,resources/DP.BMP,Door4,0.317824978,0.08701416,1,0,0,1.1173,optionRight,60,2265,1,41,0,41,0,1,,,,,,,,,,,,,,,,,,,,,,,,,,,,,,,,,,,,,,,
,,,,,,,,2023-08-16_08h32.23.828,HF_wild_card,2022.2.4,MacIntel,59.84082341,638a8c63c74f91261108cebf,64d2fd46c836a06233681665,64dc7b502356a55c9dfbb6dd,,,,,,,decisionTrl,resources/DBN.BMP,resources/DB.BMP,Door1,0.331572944,0.013355984,1,0,0,1.135,optionRight,30,2295,1,42,0,42,0,1,,,,,,,,,,,,,,,,,,,,,,,,,,,,,,,,,,,,,,,
,,,,,,,,2023-08-16_08h32.23.828,HF_wild_card,2022.2.4,MacIntel,59.84082341,638a8c63c74f91261108cebf,64d2fd46c836a06233681665,64dc7b502356a55c9dfbb6dd,,,,,,,decisionTrl,resources/DY.BMP,resources/DR.BMP,WildCard_NonEx,-0.280000882,-0.001534492,1,0,0,2.4539,optionLeft,45,2340,1,43,0,43,0,1,,,,,,,,,,,,,,,,,,,,,,,,,,,,,,,,,,,,,,,
,,,,,,,,2023-08-16_08h32.23.828,HF_wild_card,2022.2.4,MacIntel,59.84082341,638a8c63c74f91261108cebf,64d2fd46c836a06233681665,64dc7b502356a55c9dfbb6dd,,,,,,,,,,,,,,,,,,,,,,,,,,0,0,0,0,1,,,,,,,,,,,,,,,,,,,,,,,,,,,,,,,,,,
,,,,,,,,2023-08-16_08h32.23.828,HF_wild_card,2022.2.4,MacIntel,59.84082341,638a8c63c74f91261108cebf,64d2fd46c836a06233681665,64dc7b502356a55c9dfbb6dd,,,,,,,sngl,resources/DY.BMP,resources/Empty.png,WildCard_NonEx,-0.346549004,-0.079723239,1,0,0,0.8381,optionLeft,45,2385,2,0,0,0,0,1,,,,,,,,,,,,,,,,,,,,,,,,,,,,,,,,,,,,,,,
,,,,,,,,2023-08-16_08h32.23.828,HF_wild_card,2022.2.4,MacIntel,59.84082341,638a8c63c74f91261108cebf,64d2fd46c836a06233681665,64dc7b502356a55c9dfbb6dd,,,,,,,sngl,resources/Empty.png,resources/DBN.BMP,Door2,0.307453952,-0.005384793,1,0,0,1.3653,optionRight,40,2425,2,1,0,1,0,1,,,,,,,,,,,,,,,,,,,,,,,,,,,,,,,,,,,,,,,
,,,,,,,,2023-08-16_08h32.23.828,HF_wild_card,2022.2.4,MacIntel,59.84082341,638a8c63c74f91261108cebf,64d2fd46c836a06233681665,64dc7b502356a55c9dfbb6dd,,,,,,,sngl,resources/DP.BMP,resources/Empty.png,Door4,-0.339166497,-0.022194248,1,0,0,0.6335,optionLeft,60,2485,2,2,0,2,0,1,,,,,,,,,,,,,,,,,,,,,,,,,,,,,,,,,,,,,,,
,,,,,,,,2023-08-16_08h32.23.828,HF_wild_card,2022.2.4,MacIntel,59.84082341,638a8c63c74f91261108cebf,64d2fd46c836a06233681665,64dc7b502356a55c9dfbb6dd,,,,,,,decisionTrl,resources/DR.BMP,resources/DY.BMP,WildCard_NonEx,0.295675863,0.024006042,1,0,0,1.3447,optionRight,45,2530,2,3,0,3,0,1,,,,,,,,,,,,,,,,,,,,,,,,,,,,,,,,,,,,,,,
,,,,,,,,2023-08-16_08h32.23.828,HF_wild_card,2022.2.4,MacIntel,59.84082341,638a8c63c74f91261108cebf,64d2fd46c836a06233681665,64dc7b502356a55c9dfbb6dd,,,,,,,decisionTrl,resources/DB.BMP,resources/DBN.BMP,Door1,-0.233863661,-0.035574036,1,0,0,1.0668,optionLeft,30,2560,2,4,0,4,0,1,,,,,,,,,,,,,,,,,,,,,,,,,,,,,,,,,,,,,,,
,,,,,,,,2023-08-16_08h32.23.828,HF_wild_card,2022.2.4,MacIntel,59.84082341,638a8c63c74f91261108cebf,64d2fd46c836a06233681665,64dc7b502356a55c9dfbb6dd,,,,,,,ctch,resources/DP.BMP,resources/DB.BMP,Door4,-0.310881721,-0.037683377,1,0,0,1.4489,optionLeft,80,2640,2,5,0,5,0,1,,,,,,,,,,,,,,,,,,,,,,,,,,,,,,,,,,,,,,,
,,,,,,,,2023-08-16_08h32.23.828,HF_wild_card,2022.2.4,MacIntel,59.84082341,638a8c63c74f91261108cebf,64d2fd46c836a06233681665,64dc7b502356a55c9dfbb6dd,,,,,,,ctch,resources/DP.BMP,resources/DB.BMP,Door4,-0.367972751,-0.027658556,1,0,0,0.7019,optionLeft,80,2720,2,6,0,6,0,1,,,,,,,,,,,,,,,,,,,,,,,,,,,,,,,,,,,,,,,
,,,,,,,,2023-08-16_08h32.23.828,HF_wild_card,2022.2.4,MacIntel,59.84082341,638a8c63c74f91261108cebf,64d2fd46c836a06233681665,64dc7b502356a55c9dfbb6dd,,,,,,,sngl,resources/DBN.BMP,resources/Empty.png,Door2,-0.253327094,0.008881836,1,0,0,1.0173,optionLeft,20,2740,2,7,0,7,0,1,,,,,,,,,,,,,,,,,,,,,,,,,,,,,,,,,,,,,,,
,,,,,,,,2023-08-16_08h32.23.828,HF_wild_card,2022.2.4,MacIntel,59.84082341,638a8c63c74f91261108cebf,64d2fd46c836a06233681665,64dc7b502356a55c9dfbb6dd,,,,,,,ctch,resources/DBN.BMP,resources/DR.BMP,Door3,0.296204291,0.036901109,1,0,0,1.0166,optionRight,70,2810,2,8,0,8,0,1,,,,,,,,,,,,,,,,,,,,,,,,,,,,,,,,,,,,,,,
,,,,,,,,2023-08-16_08h32.23.828,HF_wild_card,2022.2.4,MacIntel,59.84082341,638a8c63c74f91261108cebf,64d2fd46c836a06233681665,64dc7b502356a55c9dfbb6dd,,,,,,,decisionTrl,resources/DR.BMP,resources/DP.BMP,Door4,0.356579183,0.039861857,1,0,0,0.7638,optionRight,80,2890,2,9,0,9,0,1,,,,,,,,,,,,,,,,,,,,,,,,,,,,,,,,,,,,,,,
,,,,,,,,2023-08-16_08h32.23.828,HF_wild_card,2022.2.4,MacIntel,59.84082341,638a8c63c74f91261108cebf,64d2fd46c836a06233681665,64dc7b502356a55c9dfbb6dd,,,,,,,sngl,resources/Empty.png,resources/DY.BMP,WildCard_NonEx,0.354728054,0.034897054,1,0,0,0.865,optionRight,55,2945,2,10,0,10,0,1,,,,,,,,,,,,,,,,,,,,,,,,,,,,,,,,,,,,,,,
,,,,,,,,2023-08-16_08h32.23.828,HF_wild_card,2022.2.4,MacIntel,59.84082341,638a8c63c74f91261108cebf,64d2fd46c836a06233681665,64dc7b502356a55c9dfbb6dd,,,,,,,sngl,resources/DR.BMP,resources/Empty.png,Door3,-0.355550639,0.035084839,1,0,0,0.6177,optionLeft,70,3015,2,11,0,11,0,1,,,,,,,,,,,,,,,,,,,,,,,,,,,,,,,,,,,,,,,
,,,,,,,,2023-08-16_08h32.23.828,HF_wild_card,2022.2.4,MacIntel,59.84082341,638a8c63c74f91261108cebf,64d2fd46c836a06233681665,64dc7b502356a55c9dfbb6dd,,,,,,,decisionTrl,resources/DB.BMP,resources/DBN.BMP,Door1,-0.308212009,-0.021895481,1,0,0,1.1185,optionLeft,30,3045,2,12,0,12,0,1,,,,,,,,,,,,,,,,,,,,,,,,,,,,,,,,,,,,,,,
,,,,,,,,2023-08-16_08h32.23.828,HF_wild_card,2022.2.4,MacIntel,59.84082341,638a8c63c74f91261108cebf,64d2fd46c836a06233681665,64dc7b502356a55c9dfbb6dd,,,,,,,decisionTrl,resources/DR.BMP,resources/DP.BMP,Door4,0.373489583,0.07689487,1,0,0,0.6331,optionRight,60,3105,2,13,0,13,0,1,,,,,,,,,,,,,,,,,,,,,,,,,,,,,,,,,,,,,,,
,,,,,,,,2023-08-16_08h32.23.828,HF_wild_card,2022.2.4,MacIntel,59.84082341,638a8c63c74f91261108cebf,64d2fd46c836a06233681665,64dc7b502356a55c9dfbb6dd,,,,,,,decisionTrl,resources/DB.BMP,resources/DY.BMP,Door1,-0.287205878,-0.007583957,1,0,0,0.6824,optionLeft,30,3135,2,14,0,14,0,1,,,,,,,,,,,,,,,,,,,,,,,,,,,,,,,,,,,,,,,
,,,,,,,,2023-08-16_08h32.23.828,HF_wild_card,2022.2.4,MacIntel,59.84082341,638a8c63c74f91261108cebf,64d2fd46c836a06233681665,64dc7b502356a55c9dfbb6dd,,,,,,,decisionTrl,resources/DP.BMP,resources/DR.BMP,Door3,0.287275594,0.037206624,1,0,0,0.7821,optionRight,70,3205,2,15,0,15,0,1,,,,,,,,,,,,,,,,,,,,,,,,,,,,,,,,,,,,,,,
,,,,,,,,2023-08-16_08h32.23.828,HF_wild_card,2022.2.4,MacIntel,59.84082341,638a8c63c74f91261108cebf,64d2fd46c836a06233681665,64dc7b502356a55c9dfbb6dd,,,,,,,decisionTrl,resources/DR.BMP,resources/DP.BMP,Door4,0.377686361,0.04671563,1,0,0,1.1965,optionRight,80,3285,2,16,0,16,0,1,,,,,,,,,,,,,,,,,,,,,,,,,,,,,,,,,,,,,,,
,,,,,,,,2023-08-16_08h32.23.828,HF_wild_card,2022.2.4,MacIntel,59.84082341,638a8c63c74f91261108cebf,64d2fd46c836a06233681665,64dc7b502356a55c9dfbb6dd,,,,,,,ctch,resources/DR.BMP,resources/DBN.BMP,Door3,-0.342517632,0.018347168,1,0,0,1.301,optionLeft,70,3355,2,17,0,17,0,1,,,,,,,,,,,,,,,,,,,,,,,,,,,,,,,,,,,,,,,
,,,,,,,,2023-08-16_08h32.23.828,HF_wild_card,2022.2.4,MacIntel,59.84082341,638a8c63c74f91261108cebf,64d2fd46c836a06233681665,64dc7b502356a55c9dfbb6dd,,,,,,,decisionTrl,resources/DB.BMP,resources/DBN.BMP,Door2,0.278375787,0.047430623,1,0,0,0.7654,optionRight,40,3395,2,18,0,18,0,1,,,,,,,,,,,,,,,,,,,,,,,,,,,,,,,,,,,,,,,
,,,,,,,,2023-08-16_08h32.23.828,HF_wild_card,2022.2.4,MacIntel,59.84082341,638a8c63c74f91261108cebf,64d2fd46c836a06233681665,64dc7b502356a55c9dfbb6dd,,,,,,,sngl,resources/DY.BMP,resources/Empty.png,WildCard_NonEx,-0.266331516,-0.021307237,1,0,0,0.679,optionLeft,55,3450,2,19,0,19,0,1,,,,,,,,,,,,,,,,,,,,,,,,,,,,,,,,,,,,,,,
,,,,,,,,2023-08-16_08h32.23.828,HF_wild_card,2022.2.4,MacIntel,59.84082341,638a8c63c74f91261108cebf,64d2fd46c836a06233681665,64dc7b502356a55c9dfbb6dd,,,,,,,decisionTrl,resources/DP.BMP,resources/DR.BMP,Door4,-0.330226373,-0.023988342,1,0,0,1.2486,optionLeft,80,3530,2,20,0,20,0,1,,,,,,,,,,,,,,,,,,,,,,,,,,,,,,,,,,,,,,,
,,,,,,,,2023-08-16_08h32.23.828,HF_wild_card,2022.2.4,MacIntel,59.84082341,638a8c63c74f91261108cebf,64d2fd46c836a06233681665,64dc7b502356a55c9dfbb6dd,,,,,,,decisionTrl,resources/DP.BMP,resources/DY.BMP,Door4,-0.246737874,-0.0498762,1,0,0,0.7642,optionLeft,60,3590,2,21,0,21,0,1,,,,,,,,,,,,,,,,,,,,,,,,,,,,,,,,,,,,,,,
,,,,,,,,2023-08-16_08h32.23.828,HF_wild_card,2022.2.4,MacIntel,59.84082341,638a8c63c74f91261108cebf,64d2fd46c836a06233681665,64dc7b502356a55c9dfbb6dd,,,,,,,decisionTrl,resources/DBN.BMP,resources/DB.BMP,Door1,0.327294854,0.042600437,1,0,0,0.7169,optionRight,30,3620,2,22,0,22,0,1,,,,,,,,,,,,,,,,,,,,,,,,,,,,,,,,,,,,,,,
,,,,,,,,2023-08-16_08h32.23.828,HF_wild_card,2022.2.4,MacIntel,59.84082341,638a8c63c74f91261108cebf,64d2fd46c836a06233681665,64dc7b502356a55c9dfbb6dd,,,,,,,decisionTrl,resources/DBN.BMP,resources/DB.BMP,Door2,-0.252198385,0.022673543,1,0,0,0.8668,optionLeft,40,3660,2,23,0,23,0,1,,,,,,,,,,,,,,,,,,,,,,,,,,,,,,,,,,,,,,,
,,,,,,,,2023-08-16_08h32.23.828,HF_wild_card,2022.2.4,MacIntel,59.84082341,638a8c63c74f91261108cebf,64d2fd46c836a06233681665,64dc7b502356a55c9dfbb6dd,,,,,,,decisionTrl,resources/DY.BMP,resources/DR.BMP,WildCard_NonEx,-0.275597127,0.0060279,1,0,0,1.0686,optionLeft,55,3715,2,24,0,24,0,1,,,,,,,,,,,,,,,,,,,,,,,,,,,,,,,,,,,,,,,
,,,,,,,,2023-08-16_08h32.23.828,HF_wild_card,2022.2.4,MacIntel,59.84082341,638a8c63c74f91261108cebf,64d2fd46c836a06233681665,64dc7b502356a55c9dfbb6dd,,,,,,,decisionTrl,resources/DP.BMP,resources/DR.BMP,Door4,-0.273898553,-0.043036499,1,0,0,1.5171,optionLeft,80,3795,2,25,0,25,0,1,,,,,,,,,,,,,,,,,,,,,,,,,,,,,,,,,,,,,,,
,,,,,,,,2023-08-16_08h32.23.828,HF_wild_card,2022.2.4,MacIntel,59.84082341,638a8c63c74f91261108cebf,64d2fd46c836a06233681665,64dc7b502356a55c9dfbb6dd,,,,,,,ctch,resources/DBN.BMP,resources/DR.BMP,Door2,-0.289759861,0.017646484,1,0,0,1.4024,optionLeft,20,3815,2,26,0,26,0,1,,,,,,,,,,,,,,,,,,,,,,,,,,,,,,,,,,,,,,,
,,,,,,,,2023-08-16_08h32.23.828,HF_wild_card,2022.2.4,MacIntel,59.84082341,638a8c63c74f91261108cebf,64d2fd46c836a06233681665,64dc7b502356a55c9dfbb6dd,,,,,,,sngl,resources/DB.BMP,resources/Empty.png,Door1,-0.2766352,-0.020763075,1,0,0,0.8661,optionLeft,30,3845,2,27,0,27,0,1,,,,,,,,,,,,,,,,,,,,,,,,,,,,,,,,,,,,,,,
,,,,,,,,2023-08-16_08h32.23.828,HF_wild_card,2022.2.4,MacIntel,59.84082341,638a8c63c74f91261108cebf,64d2fd46c836a06233681665,64dc7b502356a55c9dfbb6dd,,,,,,,sngl,resources/Empty.png,resources/DY.BMP,WildCard_NonEx,0.322294447,0.023432414,1,0,0,0.7856,optionRight,45,3890,2,28,0,28,0,1,,,,,,,,,,,,,,,,,,,,,,,,,,,,,,,,,,,,,,,
,,,,,,,,2023-08-16_08h32.23.828,HF_wild_card,2022.2.4,MacIntel,59.84082341,638a8c63c74f91261108cebf,64d2fd46c836a06233681665,64dc7b502356a55c9dfbb6dd,,,,,,,sngl,resources/Empty.png,resources/DP.BMP,Door4,0.35532525,0.017266269,1,0,0,0.7824,optionRight,80,3970,2,29,0,29,0,1,,,,,,,,,,,,,,,,,,,,,,,,,,,,,,,,,,,,,,,
,,,,,,,,2023-08-16_08h32.23.828,HF_wild_card,2022.2.4,MacIntel,59.84082341,638a8c63c74f91261108cebf,64d2fd46c836a06233681665,64dc7b502356a55c9dfbb6dd,,,,,,,decisionTrl,resources/DBN.BMP,resources/DB.BMP,Door1,0.432880724,-0.022140978,1,0,0,1.8529,optionRight,30,4000,2,30,0,30,0,1,,,,,,,,,,,,,,,,,,,,,,,,,,,,,,,,,,,,,,,
,,,,,,,,2023-08-16_08h32.23.828,HF_wild_card,2022.2.4,MacIntel,59.84082341,638a8c63c74f91261108cebf,64d2fd46c836a06233681665,64dc7b502356a55c9dfbb6dd,,,,,,,sngl,resources/Empty.png,resources/DR.BMP,Door3,0.328622097,-0.044233466,1,0,0,0.8991,optionRight,70,4070,2,31,0,31,0,1,,,,,,,,,,,,,,,,,,,,,,,,,,,,,,,,,,,,,,,
,,,,,,,,2023-08-16_08h32.23.828,HF_wild_card,2022.2.4,MacIntel,59.84082341,638a8c63c74f91261108cebf,64d2fd46c836a06233681665,64dc7b502356a55c9dfbb6dd,,,,,,,ctch,resources/DB.BMP,resources/DP.BMP,Door4,0.342650418,0.036344604,1,0,0,1.1204,optionRight,60,4130,2,32,0,32,0,1,,,,,,,,,,,,,,,,,,,,,,,,,,,,,,,,,,,,,,,
,,,,,,,,2023-08-16_08h32.23.828,HF_wild_card,2022.2.4,MacIntel,59.84082341,638a8c63c74f91261108cebf,64d2fd46c836a06233681665,64dc7b502356a55c9dfbb6dd,,,,,,,sngl,resources/Empty.png,resources/DB.BMP,Door1,0.345518799,0.026248983,1,0,0,0.7158,optionRight,30,4160,2,33,0,33,0,1,,,,,,,,,,,,,,,,,,,,,,,,,,,,,,,,,,,,,,,
,,,,,,,,2023-08-16_08h32.23.828,HF_wild_card,2022.2.4,MacIntel,59.84082341,638a8c63c74f91261108cebf,64d2fd46c836a06233681665,64dc7b502356a55c9dfbb6dd,,,,,,,decisionTrl,resources/DB.BMP,resources/DBN.BMP,Door1,-0.346198866,0.008749864,1,0,0,3.1398,optionLeft,30,4190,2,34,0,34,0,1,,,,,,,,,,,,,,,,,,,,,,,,,,,,,,,,,,,,,,,
,,,,,,,,2023-08-16_08h32.23.828,HF_wild_card,2022.2.4,MacIntel,59.84082341,638a8c63c74f91261108cebf,64d2fd46c836a06233681665,64dc7b502356a55c9dfbb6dd,,,,,,,ctch,resources/DB.BMP,resources/DP.BMP,Door1,-0.289077928,-0.005840691,1,0,0,3.2566,optionLeft,30,4220,2,35,0,35,0,1,,,,,,,,,,,,,,,,,,,,,,,,,,,,,,,,,,,,,,,
,,,,,,,,2023-08-16_08h32.23.828,HF_wild_card,2022.2.4,MacIntel,59.84082341,638a8c63c74f91261108cebf,64d2fd46c836a06233681665,64dc7b502356a55c9dfbb6dd,,,,,,,decisionTrl,resources/DY.BMP,resources/DB.BMP,WildCard_NonEx,-0.319453464,-0.032268745,1,0,0,1.1531,optionLeft,55,4275,2,36,0,36,0,1,,,,,,,,,,,,,,,,,,,,,,,,,,,,,,,,,,,,,,,
,,,,,,,,2023-08-16_08h32.23.828,HF_wild_card,2022.2.4,MacIntel,59.84082341,638a8c63c74f91261108cebf,64d2fd46c836a06233681665,64dc7b502356a55c9dfbb6dd,,,,,,,decisionTrl,resources/DY.BMP,resources/DBN.BMP,WildCard_NonEx,-0.300697361,0.006051093,1,0,0,0.7481,optionLeft,45,4320,2,37,0,37,0,1,,,,,,,,,,,,,,,,,,,,,,,,,,,,,,,,,,,,,,,
,,,,,,,,2023-08-16_08h32.23.828,HF_wild_card,2022.2.4,MacIntel,59.84082341,638a8c63c74f91261108cebf,64d2fd46c836a06233681665,64dc7b502356a55c9dfbb6dd,,,,,,,decisionTrl,resources/DR.BMP,resources/DP.BMP,Door4,0.275356581,0.039749417,1,0,0,1.4184,optionRight,60,4380,2,38,0,38,0,1,,,,,,,,,,,,,,,,,,,,,,,,,,,,,,,,,,,,,,,
,,,,,,,,2023-08-16_08h32.23.828,HF_wild_card,2022.2.4,MacIntel,59.84082341,638a8c63c74f91261108cebf,64d2fd46c836a06233681665,64dc7b502356a55c9dfbb6dd,,,,,,,decisionTrl,resources/DBN.BMP,resources/DB.BMP,Door1,0.334292128,0.073293932,1,0,0,3.8903,optionRight,30,4410,2,39,0,39,0,1,,,,,,,,,,,,,,,,,,,,,,,,,,,,,,,,,,,,,,,
,,,,,,,,2023-08-16_08h32.23.828,HF_wild_card,2022.2.4,MacIntel,59.84082341,638a8c63c74f91261108cebf,64d2fd46c836a06233681665,64dc7b502356a55c9dfbb6dd,,,,,,,decisionTrl,resources/DP.BMP,resources/DR.BMP,Door4,-0.390690172,-0.004532606,1,0,0,2.5715,optionLeft,80,4490,2,40,0,40,0,1,,,,,,,,,,,,,,,,,,,,,,,,,,,,,,,,,,,,,,,
,,,,,,,,2023-08-16_08h32.23.828,HF_wild_card,2022.2.4,MacIntel,59.84082341,638a8c63c74f91261108cebf,64d2fd46c836a06233681665,64dc7b502356a55c9dfbb6dd,,,,,,,decisionTrl,resources/DY.BMP,resources/DP.BMP,Door4,0.345023872,0.01757114,1,0,0,1.3171,optionRight,60,4550,2,41,0,41,0,1,,,,,,,,,,,,,,,,,,,,,,,,,,,,,,,,,,,,,,,
,,,,,,,,2023-08-16_08h32.23.828,HF_wild_card,2022.2.4,MacIntel,59.84082341,638a8c63c74f91261108cebf,64d2fd46c836a06233681665,64dc7b502356a55c9dfbb6dd,,,,,,,decisionTrl,resources/DBN.BMP,resources/DY.BMP,WildCard_NonEx,0.321405775,0.070927192,1,0,0,1.2171,optionRight,55,4605,2,42,0,42,0,1,,,,,,,,,,,,,,,,,,,,,,,,,,,,,,,,,,,,,,,
,,,,,,,,2023-08-16_08h32.23.828,HF_wild_card,2022.2.4,MacIntel,59.84082341,638a8c63c74f91261108cebf,64d2fd46c836a06233681665,64dc7b502356a55c9dfbb6dd,,,,,,,ctch,resources/DR.BMP,resources/DBN.BMP,Door3,-0.354792209,-0.032445475,1,0,0,1.7705,optionLeft,70,4675,2,43,0,43,0,1,,,,,,,,,,,,,,,,,,,,,,,,,,,,,,,,,,,,,,,
,,,,,,,,2023-08-16_08h32.23.828,HF_wild_card,2022.2.4,MacIntel,59.84082341,638a8c63c74f91261108cebf,64d2fd46c836a06233681665,64dc7b502356a55c9dfbb6dd,,,,,,,,,,,,,,,,,,,,,,,,,,1,0,1,0,1,,,,,,,,,,,,,,,,,,,,,,,,,,,,,,,,,,
,,,,,,,,2023-08-16_08h32.23.828,HF_wild_card,2022.2.4,MacIntel,59.84082341,638a8c63c74f91261108cebf,64d2fd46c836a06233681665,64dc7b502356a55c9dfbb6dd,,,,,,,sngl,resources/Empty.png,resources/DY.BMP,WildCard_NonEx,0.301815932,0.180199856,1,0,0,0.6534,optionRight,45,4720,3,0,0,0,0,1,,,,,,,,,,,,,,,,,,,,,,,,,,,,,,,,,,,,,,,
,,,,,,,,2023-08-16_08h32.23.828,HF_wild_card,2022.2.4,MacIntel,59.84082341,638a8c63c74f91261108cebf,64d2fd46c836a06233681665,64dc7b502356a55c9dfbb6dd,,,,,,,sngl,resources/DBN.BMP,resources/Empty.png,Door2,-0.350301378,0.044376729,1,0,0,0.9154,optionLeft,40,4760,3,1,0,1,0,1,,,,,,,,,,,,,,,,,,,,,,,,,,,,,,,,,,,,,,,
,,,,,,,,2023-08-16_08h32.23.828,HF_wild_card,2022.2.4,MacIntel,59.84082341,638a8c63c74f91261108cebf,64d2fd46c836a06233681665,64dc7b502356a55c9dfbb6dd,,,,,,,decisionTrl,resources/DBN.BMP,resources/DB.BMP,Door2,-0.467109443,0.018093669,1,0,0,1.7709,optionLeft,20,4780,3,2,0,2,0,1,,,,,,,,,,,,,,,,,,,,,,,,,,,,,,,,,,,,,,,
,,,,,,,,2023-08-16_08h32.23.828,HF_wild_card,2022.2.4,MacIntel,59.84082341,638a8c63c74f91261108cebf,64d2fd46c836a06233681665,64dc7b502356a55c9dfbb6dd,,,,,,,sngl,resources/DB.BMP,resources/Empty.png,Door1,-0.312734477,-0.026937934,1,0,0,0.683,optionLeft,30,4810,3,3,0,3,0,1,,,,,,,,,,,,,,,,,,,,,,,,,,,,,,,,,,,,,,,
,,,,,,,,2023-08-16_08h32.23.828,HF_wild_card,2022.2.4,MacIntel,59.84082341,638a8c63c74f91261108cebf,64d2fd46c836a06233681665,64dc7b502356a55c9dfbb6dd,,,,,,,sngl,resources/DY.BMP,resources/Empty.png,WildCard_NonEx,-0.361341926,-0.008917169,1,0,0,0.6313,optionLeft,45,4855,3,4,0,4,0,1,,,,,,,,,,,,,,,,,,,,,,,,,,,,,,,,,,,,,,,
,,,,,,,,2023-08-16_08h32.23.828,HF_wild_card,2022.2.4,MacIntel,59.84082341,638a8c63c74f91261108cebf,64d2fd46c836a06233681665,64dc7b502356a55c9dfbb6dd,,,,,,,decisionTrl,resources/DP.BMP,resources/DY.BMP,Door4,-0.414136895,-0.033956333,1,0,0,1.6724,optionLeft,60,4915,3,5,0,5,0,1,,,,,,,,,,,,,,,,,,,,,,,,,,,,,,,,,,,,,,,
,,,,,,,,2023-08-16_08h32.23.828,HF_wild_card,2022.2.4,MacIntel,59.84082341,638a8c63c74f91261108cebf,64d2fd46c836a06233681665,64dc7b502356a55c9dfbb6dd,,,,,,,decisionTrl,resources/DB.BMP,resources/DBN.BMP,Door1,-0.261821967,-0.012196994,1,0,0,1.0014,optionLeft,30,4945,3,6,0,6,0,1,,,,,,,,,,,,,,,,,,,,,,,,,,,,,,,,,,,,,,,
,,,,,,,,2023-08-16_08h32.23.828,HF_wild_card,2022.2.4,MacIntel,59.84082341,638a8c63c74f91261108cebf,64d2fd46c836a06233681665,64dc7b502356a55c9dfbb6dd,,,,,,,sngl,resources/Empty.png,resources/DB.BMP,Door1,0.370706109,0.043453776,1,0,0,0.6476,optionRight,30,4975,3,7,0,7,0,1,,,,,,,,,,,,,,,,,,,,,,,,,,,,,,,,,,,,,,,
,,,,,,,,2023-08-16_08h32.23.828,HF_wild_card,2022.2.4,MacIntel,59.84082341,638a8c63c74f91261108cebf,64d2fd46c836a06233681665,64dc7b502356a55c9dfbb6dd,,,,,,,ctch,resources/DB.BMP,resources/DP.BMP,Door1,-0.272409261,-0.023985731,1,0,0,0.6945,optionLeft,30,5005,3,8,0,8,0,1,,,,,,,,,,,,,,,,,,,,,,,,,,,,,,,,,,,,,,,
,,,,,,,,2023-08-16_08h32.23.828,HF_wild_card,2022.2.4,MacIntel,59.84082341,638a8c63c74f91261108cebf,64d2fd46c836a06233681665,64dc7b502356a55c9dfbb6dd,,,,,,,sngl,resources/DP.BMP,resources/Empty.png,Door4,-0.314512566,-0.001809726,1,0,0,0.5291,optionLeft,80,5085,3,9,0,9,0,1,,,,,,,,,,,,,,,,,,,,,,,,,,,,,,,,,,,,,,,
,,,,,,,,2023-08-16_08h32.23.828,HF_wild_card,2022.2.4,MacIntel,59.84082341,638a8c63c74f91261108cebf,64d2fd46c836a06233681665,64dc7b502356a55c9dfbb6dd,,,,,,,decisionTrl,resources/DY.BMP,resources/DB.BMP,WildCard_NonEx,-0.297768419,-0.002405633,1,0,0,0.7337,optionLeft,55,5140,3,10,0,10,0,1,,,,,,,,,,,,,,,,,,,,,,,,,,,,,,,,,,,,,,,
,,,,,,,,2023-08-16_08h32.23.828,HF_wild_card,2022.2.4,MacIntel,59.84082341,638a8c63c74f91261108cebf,64d2fd46c836a06233681665,64dc7b502356a55c9dfbb6dd,,,,,,,decisionTrl,resources/DY.BMP,resources/DBN.BMP,WildCard_NonEx,-0.289562581,0.000952894,1,0,0,0.6979,optionLeft,45,5185,3,11,0,11,0,1,,,,,,,,,,,,,,,,,,,,,,,,,,,,,,,,,,,,,,,
,,,,,,,,2023-08-16_08h32.23.828,HF_wild_card,2022.2.4,MacIntel,59.84082341,638a8c63c74f91261108cebf,64d2fd46c836a06233681665,64dc7b502356a55c9dfbb6dd,,,,,,,ctch,resources/DBN.BMP,resources/DR.BMP,Door3,0.343351508,0.037414619,1,0,0,1.9353,optionRight,70,5255,3,12,0,12,0,1,,,,,,,,,,,,,,,,,,,,,,,,,,,,,,,,,,,,,,,
,,,,,,,,2023-08-16_08h32.23.828,HF_wild_card,2022.2.4,MacIntel,59.84082341,638a8c63c74f91261108cebf,64d2fd46c836a06233681665,64dc7b502356a55c9dfbb6dd,,,,,,,sngl,resources/Empty.png,resources/DR.BMP,Door3,0.307927992,0.046551514,1,0,0,0.6177,optionRight,70,5325,3,13,0,13,0,1,,,,,,,,,,,,,,,,,,,,,,,,,,,,,,,,,,,,,,,
,,,,,,,,2023-08-16_08h32.23.828,HF_wild_card,2022.2.4,MacIntel,59.84082341,638a8c63c74f91261108cebf,64d2fd46c836a06233681665,64dc7b502356a55c9dfbb6dd,,,,,,,sngl,resources/Empty.png,resources/DBN.BMP,Door2,0.311156345,0.029392361,1,0,0,1.195,optionRight,20,5345,3,14,0,14,0,1,,,,,,,,,,,,,,,,,,,,,,,,,,,,,,,,,,,,,,,
,,,,,,,,2023-08-16_08h32.23.828,HF_wild_card,2022.2.4,MacIntel,59.84082341,638a8c63c74f91261108cebf,64d2fd46c836a06233681665,64dc7b502356a55c9dfbb6dd,,,,,,,ctch,resources/DBN.BMP,resources/DR.BMP,Door3,0.3529206,0.039634332,1,0,0,0.9337,optionRight,70,5415,3,15,0,15,0,1,,,,,,,,,,,,,,,,,,,,,,,,,,,,,,,,,,,,,,,
,,,,,,,,2023-08-16_08h32.23.828,HF_wild_card,2022.2.4,MacIntel,59.84082341,638a8c63c74f91261108cebf,64d2fd46c836a06233681665,64dc7b502356a55c9dfbb6dd,,,,,,,decisionTrl,resources/DY.BMP,resources/DR.BMP,Door3,0.356675754,0.043964979,1,0,0,1.8695,optionRight,70,5485,3,16,0,16,0,1,,,,,,,,,,,,,,,,,,,,,,,,,,,,,,,,,,,,,,,
,,,,,,,,2023-08-16_08h32.23.828,HF_wild_card,2022.2.4,MacIntel,59.84082341,638a8c63c74f91261108cebf,64d2fd46c836a06233681665,64dc7b502356a55c9dfbb6dd,,,,,,,ctch,resources/DR.BMP,resources/DBN.BMP,Door3,-0.271205105,-0.007429335,1,0,0,0.9836,optionLeft,70,5555,3,17,0,17,0,1,,,,,,,,,,,,,,,,,,,,,,,,,,,,,,,,,,,,,,,
,,,,,,,,2023-08-16_08h32.23.828,HF_wild_card,2022.2.4,MacIntel,59.84082341,638a8c63c74f91261108cebf,64d2fd46c836a06233681665,64dc7b502356a55c9dfbb6dd,,,,,,,decisionTrl,resources/DP.BMP,resources/DR.BMP,Door3,0.387286648,0.059923842,1,0,0,0.6007,optionRight,70,5625,3,18,0,18,0,1,,,,,,,,,,,,,,,,,,,,,,,,,,,,,,,,,,,,,,,
,,,,,,,,2023-08-16_08h32.23.828,HF_wild_card,2022.2.4,MacIntel,59.84082341,638a8c63c74f91261108cebf,64d2fd46c836a06233681665,64dc7b502356a55c9dfbb6dd,,,,,,,decisionTrl,resources/DBN.BMP,resources/DB.BMP,Door1,0.286452501,0.042001648,1,0,0,0.9192,optionRight,30,5655,3,19,0,19,0,1,,,,,,,,,,,,,,,,,,,,,,,,,,,,,,,,,,,,,,,
,,,,,,,,2023-08-16_08h32.23.828,HF_wild_card,2022.2.4,MacIntel,59.84082341,638a8c63c74f91261108cebf,64d2fd46c836a06233681665,64dc7b502356a55c9dfbb6dd,,,,,,,decisionTrl,resources/DB.BMP,resources/DY.BMP,WildCard_NonEx,0.38739624,0.069860501,1,0,0,1.1675,optionRight,55,5710,3,20,0,20,0,1,,,,,,,,,,,,,,,,,,,,,,,,,,,,,,,,,,,,,,,
,,,,,,,,2023-08-16_08h32.23.828,HF_wild_card,2022.2.4,MacIntel,59.84082341,638a8c63c74f91261108cebf,64d2fd46c836a06233681665,64dc7b502356a55c9dfbb6dd,,,,,,,decisionTrl,resources/DR.BMP,resources/DP.BMP,Door3,-0.278073832,-0.010180868,1,0,0,1.4185,optionLeft,70,5780,3,21,0,21,0,1,,,,,,,,,,,,,,,,,,,,,,,,,,,,,,,,,,,,,,,
,,,,,,,,2023-08-16_08h32.23.828,HF_wild_card,2022.2.4,MacIntel,59.84082341,638a8c63c74f91261108cebf,64d2fd46c836a06233681665,64dc7b502356a55c9dfbb6dd,,,,,,,sngl,resources/DR.BMP,resources/Empty.png,Door3,-0.356081136,-0.049892307,1,0,0,0.6804,optionLeft,70,5850,3,22,0,22,0,1,,,,,,,,,,,,,,,,,,,,,,,,,,,,,,,,,,,,,,,
,,,,,,,,2023-08-16_08h32.23.828,HF_wild_card,2022.2.4,MacIntel,59.84082341,638a8c63c74f91261108cebf,64d2fd46c836a06233681665,64dc7b502356a55c9dfbb6dd,,,,,,,decisionTrl,resources/DB.BMP,resources/DBN.BMP,Door1,-0.250500149,0.032738308,1,0,0,0.9677,optionLeft,30,5880,3,23,0,23,0,1,,,,,,,,,,,,,,,,,,,,,,,,,,,,,,,,,,,,,,,
,,,,,,,,2023-08-16_08h32.23.828,HF_wild_card,2022.2.4,MacIntel,59.84082341,638a8c63c74f91261108cebf,64d2fd46c836a06233681665,64dc7b502356a55c9dfbb6dd,,,,,,,decisionTrl,resources/DR.BMP,resources/DP.BMP,Door3,-0.359218106,-0.008183153,1,0,0,1.3187,optionLeft,70,5950,3,24,0,24,0,1,,,,,,,,,,,,,,,,,,,,,,,,,,,,,,,,,,,,,,,
,,,,,,,,2023-08-16_08h32.23.828,HF_wild_card,2022.2.4,MacIntel,59.84082341,638a8c63c74f91261108cebf,64d2fd46c836a06233681665,64dc7b502356a55c9dfbb6dd,,,,,,,sngl,resources/Empty.png,resources/DP.BMP,Door4,0.265593804,0.024126451,1,0,0,0.5996,optionRight,60,6010,3,25,0,25,0,1,,,,,,,,,,,,,,,,,,,,,,,,,,,,,,,,,,,,,,,
,,,,,,,,2023-08-16_08h32.23.828,HF_wild_card,2022.2.4,MacIntel,59.84082341,638a8c63c74f91261108cebf,64d2fd46c836a06233681665,64dc7b502356a55c9dfbb6dd,,,,,,,decisionTrl,resources/DP.BMP,resources/DR.BMP,Door4,-0.238384399,-0.002243042,1,0,0,0.7831,optionLeft,60,6070,3,26,0,26,0,1,,,,,,,,,,,,,,,,,,,,,,,,,,,,,,,,,,,,,,,
,,,,,,,,2023-08-16_08h32.23.828,HF_wild_card,2022.2.4,MacIntel,59.84082341,638a8c63c74f91261108cebf,64d2fd46c836a06233681665,64dc7b502356a55c9dfbb6dd,,,,,,,decisionTrl,resources/DP.BMP,resources/DR.BMP,Door4,-0.252122871,0.00651279,1,0,0,0.8797,optionLeft,80,6150,3,27,0,27,0,1,,,,,,,,,,,,,,,,,,,,,,,,,,,,,,,,,,,,,,,
,,,,,,,,2023-08-16_08h32.23.828,HF_wild_card,2022.2.4,MacIntel,59.84082341,638a8c63c74f91261108cebf,64d2fd46c836a06233681665,64dc7b502356a55c9dfbb6dd,,,,,,,ctch,resources/DP.BMP,resources/DB.BMP,Door4,-0.235877245,0.020655857,1,0,0,0.7823,optionLeft,80,6230,3,28,0,28,0,1,,,,,,,,,,,,,,,,,,,,,,,,,,,,,,,,,,,,,,,
,,,,,,,,2023-08-16_08h32.23.828,HF_wild_card,2022.2.4,MacIntel,59.84082341,638a8c63c74f91261108cebf,64d2fd46c836a06233681665,64dc7b502356a55c9dfbb6dd,,,,,,,decisionTrl,resources/DBN.BMP,resources/DB.BMP,Door1,0.394891222,0.076848212,1,0,0,0.9008,optionRight,30,6260,3,29,0,29,0,1,,,,,,,,,,,,,,,,,,,,,,,,,,,,,,,,,,,,,,,
,,,,,,,,2023-08-16_08h32.23.828,HF_wild_card,2022.2.4,MacIntel,59.84082341,638a8c63c74f91261108cebf,64d2fd46c836a06233681665,64dc7b502356a55c9dfbb6dd,,,,,,,decisionTrl,resources/DR.BMP,resources/DP.BMP,Door4,0.388021105,0.065946927,1,0,0,0.8956,optionRight,80,6340,3,30,0,30,0,1,,,,,,,,,,,,,,,,,,,,,,,,,,,,,,,,,,,,,,,
,,,,,,,,2023-08-16_08h32.23.828,HF_wild_card,2022.2.4,MacIntel,59.84082341,638a8c63c74f91261108cebf,64d2fd46c836a06233681665,64dc7b502356a55c9dfbb6dd,,,,,,,decisionTrl,resources/DR.BMP,resources/DP.BMP,Door4,0.362571072,0.041472371,1,0,0,0.6314,optionRight,60,6400,3,31,0,31,0,1,,,,,,,,,,,,,,,,,,,,,,,,,,,,,,,,,,,,,,,
,,,,,,,,2023-08-16_08h32.23.828,HF_wild_card,2022.2.4,MacIntel,59.84082341,638a8c63c74f91261108cebf,64d2fd46c836a06233681665,64dc7b502356a55c9dfbb6dd,,,,,,,decisionTrl,resources/DBN.BMP,resources/DY.BMP,WildCard_NonEx,0.349613987,0.026472338,1,0,0,0.7957,optionRight,55,6455,3,32,0,32,0,1,,,,,,,,,,,,,,,,,,,,,,,,,,,,,,,,,,,,,,,
,,,,,,,,2023-08-16_08h32.23.828,HF_wild_card,2022.2.4,MacIntel,59.84082341,638a8c63c74f91261108cebf,64d2fd46c836a06233681665,64dc7b502356a55c9dfbb6dd,,,,,,,sngl,resources/DY.BMP,resources/Empty.png,WildCard_NonEx,-0.277396851,0.00466095,1,0,0,0.6481,optionLeft,55,6510,3,33,0,33,0,1,,,,,,,,,,,,,,,,,,,,,,,,,,,,,,,,,,,,,,,
,,,,,,,,2023-08-16_08h32.23.828,HF_wild_card,2022.2.4,MacIntel,59.84082341,638a8c63c74f91261108cebf,64d2fd46c836a06233681665,64dc7b502356a55c9dfbb6dd,,,,,,,ctch,resources/DR.BMP,resources/DBN.BMP,Door3,-0.323252428,-0.035427517,1,0,0,0.8648,optionLeft,70,6580,3,34,0,34,0,1,,,,,,,,,,,,,,,,,,,,,,,,,,,,,,,,,,,,,,,
,,,,,,,,2023-08-16_08h32.23.828,HF_wild_card,2022.2.4,MacIntel,59.84082341,638a8c63c74f91261108cebf,64d2fd46c836a06233681665,64dc7b502356a55c9dfbb6dd,,,,,,,decisionTrl,resources/DR.BMP,resources/DY.BMP,Door3,-0.391073846,-0.016709629,1,0,0,0.747,optionLeft,70,6650,3,35,0,35,0,1,,,,,,,,,,,,,,,,,,,,,,,,,,,,,,,,,,,,,,,
,,,,,,,,2023-08-16_08h32.23.828,HF_wild_card,2022.2.4,MacIntel,59.84082341,638a8c63c74f91261108cebf,64d2fd46c836a06233681665,64dc7b502356a55c9dfbb6dd,,,,,,,decisionTrl,resources/DB.BMP,resources/DBN.BMP,Door2,0.433396267,0.096953464,1,0,0,1.4624,optionRight,20,6670,3,36,0,36,0,1,,,,,,,,,,,,,,,,,,,,,,,,,,,,,,,,,,,,,,,
,,,,,,,,2023-08-16_08h32.23.828,HF_wild_card,2022.2.4,MacIntel,59.84082341,638a8c63c74f91261108cebf,64d2fd46c836a06233681665,64dc7b502356a55c9dfbb6dd,,,,,,,decisionTrl,resources/DP.BMP,resources/DR.BMP,Door4,-0.214758708,-0.026834344,1,0,0,0.7357,optionLeft,80,6750,3,37,0,37,0,1,,,,,,,,,,,,,,,,,,,,,,,,,,,,,,,,,,,,,,,
,,,,,,,,2023-08-16_08h32.23.828,HF_wild_card,2022.2.4,MacIntel,59.84082341,638a8c63c74f91261108cebf,64d2fd46c836a06233681665,64dc7b502356a55c9dfbb6dd,,,,,,,decisionTrl,resources/DY.BMP,resources/DP.BMP,Door4,0.344948188,0.026371121,1,0,0,0.8674,optionRight,80,6830,3,38,0,38,0,1,,,,,,,,,,,,,,,,,,,,,,,,,,,,,,,,,,,,,,,
,,,,,,,,2023-08-16_08h32.23.828,HF_wild_card,2022.2.4,MacIntel,59.84082341,638a8c63c74f91261108cebf,64d2fd46c836a06233681665,64dc7b502356a55c9dfbb6dd,,,,,,,decisionTrl,resources/DB.BMP,resources/DBN.BMP,Door1,-0.353583544,-0.021782159,1,0,0,0.895,optionLeft,30,6860,3,39,0,39,0,1,,,,,,,,,,,,,,,,,,,,,,,,,,,,,,,,,,,,,,,
,,,,,,,,2023-08-16_08h32.23.828,HF_wild_card,2022.2.4,MacIntel,59.84082341,638a8c63c74f91261108cebf,64d2fd46c836a06233681665,64dc7b502356a55c9dfbb6dd,,,,,,,decisionTrl,resources/DBN.BMP,resources/DB.BMP,Door1,0.342147895,0.068187561,1,0,0,0.7314,optionRight,30,6890,3,40,0,40,0,1,,,,,,,,,,,,,,,,,,,,,,,,,,,,,,,,,,,,,,,
,,,,,,,,2023-08-16_08h32.23.828,HF_wild_card,2022.2.4,MacIntel,59.84082341,638a8c63c74f91261108cebf,64d2fd46c836a06233681665,64dc7b502356a55c9dfbb6dd,,,,,,,ctch,resources/DP.BMP,resources/DB.BMP,Door4,-0.322944539,0.003621962,1,0,0,0.7119,optionLeft,60,6950,3,41,0,41,0,1,,,,,,,,,,,,,,,,,,,,,,,,,,,,,,,,,,,,,,,
,,,,,,,,2023-08-16_08h32.23.828,HF_wild_card,2022.2.4,MacIntel,59.84082341,638a8c63c74f91261108cebf,64d2fd46c836a06233681665,64dc7b502356a55c9dfbb6dd,,,,,,,sngl,resources/Empty.png,resources/DY.BMP,WildCard_NonEx,0.341051432,0.040527276,1,0,0,1.5672,optionRight,55,7005,3,42,0,42,0,1,,,,,,,,,,,,,,,,,,,,,,,,,,,,,,,,,,,,,,,
,,,,,,,,2023-08-16_08h32.23.828,HF_wild_card,2022.2.4,MacIntel,59.84082341,638a8c63c74f91261108cebf,64d2fd46c836a06233681665,64dc7b502356a55c9dfbb6dd,,,,,,,ctch,resources/DB.BMP,resources/DP.BMP,Door4,0.483598497,0.075597059,1,0,0,0.6687,optionRight,60,7065,3,43,0,43,0,1,,,,,,,,,,,,,,,,,,,,,,,,,,,,,,,,,,,,,,,
,,,,,,,,2023-08-16_08h32.23.828,HF_wild_card,2022.2.4,MacIntel,59.84082341,638a8c63c74f91261108cebf,64d2fd46c836a06233681665,64dc7b502356a55c9dfbb6dd,,,,,,,,,,,,,,,,,,,,,,,,,,2,0,2,0,1,,,,,,,,,,,,,,,,,,,,,,,,,,,,,,,,,,
,,,,,,,,2023-08-16_08h32.23.828,HF_wild_card,2022.2.4,MacIntel,59.84082341,638a8c63c74f91261108cebf,64d2fd46c836a06233681665,64dc7b502356a55c9dfbb6dd,,,,,,,decisionTrl,resources/DB.BMP,resources/DBN.BMP,Door1,-0.22992669,-0.073526679,1,0,0,0.8895,optionLeft,30,7095,4,0,0,0,0,1,,,,,,,,,,,,,,,,,,,,,,,,,,,,,,,,,,,,,,,
,,,,,,,,2023-08-16_08h32.23.828,HF_wild_card,2022.2.4,MacIntel,59.84082341,638a8c63c74f91261108cebf,64d2fd46c836a06233681665,64dc7b502356a55c9dfbb6dd,,,,,,,sngl,resources/DBN.BMP,resources/Empty.png,Door2,-0.234846124,-0.058048672,1,0,0,1.1344,optionLeft,20,7115,4,1,0,1,0,1,,,,,,,,,,,,,,,,,,,,,,,,,,,,,,,,,,,,,,,
,,,,,,,,2023-08-16_08h32.23.828,HF_wild_card,2022.2.4,MacIntel,59.84082341,638a8c63c74f91261108cebf,64d2fd46c836a06233681665,64dc7b502356a55c9dfbb6dd,,,,,,,decisionTrl,resources/DB.BMP,resources/DG.BMP,WildCard_Ex,0.406105279,0.008906453,1,0,0,1.2723,optionRight,95,7210,4,2,0,2,0,1,,,,,,,,,,,,,,,,,,,,,,,,,,,,,,,,,,,,,,,
,,,,,,,,2023-08-16_08h32.23.828,HF_wild_card,2022.2.4,MacIntel,59.84082341,638a8c63c74f91261108cebf,64d2fd46c836a06233681665,64dc7b502356a55c9dfbb6dd,,,,,,,sngl,resources/DP.BMP,resources/Empty.png,Door4,-0.404323188,-0.061728719,1,0,0,2.1026,optionLeft,60,7270,4,3,0,3,0,1,,,,,,,,,,,,,,,,,,,,,,,,,,,,,,,,,,,,,,,
,,,,,,,,2023-08-16_08h32.23.828,HF_wild_card,2022.2.4,MacIntel,59.84082341,638a8c63c74f91261108cebf,64d2fd46c836a06233681665,64dc7b502356a55c9dfbb6dd,,,,,,,ctch,resources/DB.BMP,resources/DP.BMP,Door4,0.462670627,0.043345642,1,0,0,1.0191,optionRight,60,7330,4,4,0,4,0,1,,,,,,,,,,,,,,,,,,,,,,,,,,,,,,,,,,,,,,,
,,,,,,,,2023-08-16_08h32.23.828,HF_wild_card,2022.2.4,MacIntel,59.84082341,638a8c63c74f91261108cebf,64d2fd46c836a06233681665,64dc7b502356a55c9dfbb6dd,,,,,,,decisionTrl,resources/DR.BMP,resources/DP.BMP,Door4,0.402641737,-0.053318481,1,0,0,3.7077,optionRight,80,7410,4,5,0,5,0,1,,,,,,,,,,,,,,,,,,,,,,,,,,,,,,,,,,,,,,,
,,,,,,,,2023-08-16_08h32.23.828,HF_wild_card,2022.2.4,MacIntel,59.84082341,638a8c63c74f91261108cebf,64d2fd46c836a06233681665,64dc7b502356a55c9dfbb6dd,,,,,,,decisionTrl,resources/DR.BMP,resources/DP.BMP,Door4,0.331597358,0.029198371,1,0,0,0.8025,optionRight,80,7490,4,6,0,6,0,1,,,,,,,,,,,,,,,,,,,,,,,,,,,,,,,,,,,,,,,
,,,,,,,,2023-08-16_08h32.23.828,HF_wild_card,2022.2.4,MacIntel,59.84082341,638a8c63c74f91261108cebf,64d2fd46c836a06233681665,64dc7b502356a55c9dfbb6dd,,,,,,,decisionTrl,resources/DR.BMP,resources/DP.BMP,Door4,0.392906359,0.055538534,1,0,0,0.6146,optionRight,80,7570,4,7,0,7,0,1,,,,,,,,,,,,,,,,,,,,,,,,,,,,,,,,,,,,,,,
,,,,,,,,2023-08-16_08h32.23.828,HF_wild_card,2022.2.4,MacIntel,59.84082341,638a8c63c74f91261108cebf,64d2fd46c836a06233681665,64dc7b502356a55c9dfbb6dd,,,,,,,decisionTrl,resources/DB.BMP,resources/DBN.BMP,Door1,-0.43319892,-0.019279853,1,0,0,1.0824,optionLeft,30,7600,4,8,0,8,0,1,,,,,,,,,,,,,,,,,,,,,,,,,,,,,,,,,,,,,,,
,,,,,,,,2023-08-16_08h32.23.828,HF_wild_card,2022.2.4,MacIntel,59.84082341,638a8c63c74f91261108cebf,64d2fd46c836a06233681665,64dc7b502356a55c9dfbb6dd,,,,,,,ctch,resources/DR.BMP,resources/DBN.BMP,Door3,-0.328539191,-0.019254727,1,0,0,1.2652,optionLeft,70,7670,4,9,0,9,0,1,,,,,,,,,,,,,,,,,,,,,,,,,,,,,,,,,,,,,,,
,,,,,,,,2023-08-16_08h32.23.828,HF_wild_card,2022.2.4,MacIntel,59.84082341,638a8c63c74f91261108cebf,64d2fd46c836a06233681665,64dc7b502356a55c9dfbb6dd,,,,,,,sngl,resources/DG.BMP,resources/Empty.png,WildCard_Ex,-0.309920315,-0.007859226,1,0,0,0.6643,optionLeft,95,7765,4,10,0,10,0,1,,,,,,,,,,,,,,,,,,,,,,,,,,,,,,,,,,,,,,,
,,,,,,,,2023-08-16_08h32.23.828,HF_wild_card,2022.2.4,MacIntel,59.84082341,638a8c63c74f91261108cebf,64d2fd46c836a06233681665,64dc7b502356a55c9dfbb6dd,,,,,,,decisionTrl,resources/DG.BMP,resources/DBN.BMP,WildCard_Ex,-0.273522949,0.010481703,1,0,0,0.5978,optionLeft,95,7860,4,11,0,11,0,1,,,,,,,,,,,,,,,,,,,,,,,,,,,,,,,,,,,,,,,
,,,,,,,,2023-08-16_08h32.23.828,HF_wild_card,2022.2.4,MacIntel,59.84082341,638a8c63c74f91261108cebf,64d2fd46c836a06233681665,64dc7b502356a55c9dfbb6dd,,,,,,,ctch,resources/DBN.BMP,resources/DR.BMP,Door3,0.36218316,0.015480889,1,0,0,2.0354,optionRight,70,7930,4,12,0,12,0,1,,,,,,,,,,,,,,,,,,,,,,,,,,,,,,,,,,,,,,,
,,,,,,,,2023-08-16_08h32.23.828,HF_wild_card,2022.2.4,MacIntel,59.84082341,638a8c63c74f91261108cebf,64d2fd46c836a06233681665,64dc7b502356a55c9dfbb6dd,,,,,,,decisionTrl,resources/DBN.BMP,resources/DB.BMP,Door1,0.276246202,-0.006487562,1,0,0,2.7714,optionRight,30,7960,4,13,0,13,0,1,,,,,,,,,,,,,,,,,,,,,,,,,,,,,,,,,,,,,,,
,,,,,,,,2023-08-16_08h32.23.828,HF_wild_card,2022.2.4,MacIntel,59.84082341,638a8c63c74f91261108cebf,64d2fd46c836a06233681665,64dc7b502356a55c9dfbb6dd,,,,,,,decisionTrl,resources/DBN.BMP,resources/DB.BMP,Door1,0.263163384,0.036961534,1,0,0,0.6318,optionRight,30,7990,4,14,0,14,0,1,,,,,,,,,,,,,,,,,,,,,,,,,,,,,,,,,,,,,,,
,,,,,,,,2023-08-16_08h32.23.828,HF_wild_card,2022.2.4,MacIntel,59.84082341,638a8c63c74f91261108cebf,64d2fd46c836a06233681665,64dc7b502356a55c9dfbb6dd,,,,,,,sngl,resources/Empty.png,resources/DR.BMP,Door3,0.325205417,0.051251662,1,0,0,0.5227,optionRight,70,8060,4,15,0,15,0,1,,,,,,,,,,,,,,,,,,,,,,,,,,,,,,,,,,,,,,,
,,,,,,,,2023-08-16_08h32.23.828,HF_wild_card,2022.2.4,MacIntel,59.84082341,638a8c63c74f91261108cebf,64d2fd46c836a06233681665,64dc7b502356a55c9dfbb6dd,,,,,,,sngl,resources/Empty.png,resources/DG.BMP,WildCard_Ex,0.353548584,0.014304572,1,0,0,0.6483,optionRight,95,8155,4,16,0,16,0,1,,,,,,,,,,,,,,,,,,,,,,,,,,,,,,,,,,,,,,,
,,,,,,,,2023-08-16_08h32.23.828,HF_wild_card,2022.2.4,MacIntel,59.84082341,638a8c63c74f91261108cebf,64d2fd46c836a06233681665,64dc7b502356a55c9dfbb6dd,,,,,,,sngl,resources/Empty.png,resources/DB.BMP,Door1,0.390997586,0.020185513,1,0,0,0.5317,optionRight,30,8185,4,17,0,17,0,1,,,,,,,,,,,,,,,,,,,,,,,,,,,,,,,,,,,,,,,
,,,,,,,,2023-08-16_08h32.23.828,HF_wild_card,2022.2.4,MacIntel,59.84082341,638a8c63c74f91261108cebf,64d2fd46c836a06233681665,64dc7b502356a55c9dfbb6dd,,,,,,,decisionTrl,resources/DBN.BMP,resources/DB.BMP,Door1,0.199876641,0.008764852,1,0,0,0.4668,optionRight,30,8215,4,18,0,18,0,1,,,,,,,,,,,,,,,,,,,,,,,,,,,,,,,,,,,,,,,
,,,,,,,,2023-08-16_08h32.23.828,HF_wild_card,2022.2.4,MacIntel,59.84082341,638a8c63c74f91261108cebf,64d2fd46c836a06233681665,64dc7b502356a55c9dfbb6dd,,,,,,,sngl,resources/DG.BMP,resources/Empty.png,WildCard_Ex,-0.315896674,-0.043317634,1,0,0,0.6871,optionLeft,5,8220,4,19,0,19,0,1,,,,,,,,,,,,,,,,,,,,,,,,,,,,,,,,,,,,,,,
,,,,,,,,2023-08-16_08h32.23.828,HF_wild_card,2022.2.4,MacIntel,59.84082341,638a8c63c74f91261108cebf,64d2fd46c836a06233681665,64dc7b502356a55c9dfbb6dd,,,,,,,ctch,resources/DBN.BMP,resources/DR.BMP,Door3,0.292543538,0.04271186,1,0,0,0.5829,optionRight,70,8290,4,20,0,20,0,1,,,,,,,,,,,,,,,,,,,,,,,,,,,,,,,,,,,,,,,
,,,,,,,,2023-08-16_08h32.23.828,HF_wild_card,2022.2.4,MacIntel,59.84082341,638a8c63c74f91261108cebf,64d2fd46c836a06233681665,64dc7b502356a55c9dfbb6dd,,,,,,,decisionTrl,resources/DP.BMP,resources/DR.BMP,Door4,-0.417062717,-0.051475898,1,0,0,2.0876,optionLeft,80,8370,4,21,0,21,0,1,,,,,,,,,,,,,,,,,,,,,,,,,,,,,,,,,,,,,,,
,,,,,,,,2023-08-16_08h32.23.828,HF_wild_card,2022.2.4,MacIntel,59.84082341,638a8c63c74f91261108cebf,64d2fd46c836a06233681665,64dc7b502356a55c9dfbb6dd,,,,,,,ctch,resources/DP.BMP,resources/DB.BMP,Door4,-0.285288459,-0.04048211,1,0,0,1.6875,optionLeft,80,8450,4,22,0,22,0,1,,,,,,,,,,,,,,,,,,,,,,,,,,,,,,,,,,,,,,,
,,,,,,,,2023-08-16_08h32.23.828,HF_wild_card,2022.2.4,MacIntel,59.84082341,638a8c63c74f91261108cebf,64d2fd46c836a06233681665,64dc7b502356a55c9dfbb6dd,,,,,,,decisionTrl,resources/DP.BMP,resources/DR.BMP,Door4,-0.271117689,0.057602539,1,0,0,0.6653,optionLeft,80,8530,4,23,0,23,0,1,,,,,,,,,,,,,,,,,,,,,,,,,,,,,,,,,,,,,,,
,,,,,,,,2023-08-16_08h32.23.828,HF_wild_card,2022.2.4,MacIntel,59.84082341,638a8c63c74f91261108cebf,64d2fd46c836a06233681665,64dc7b502356a55c9dfbb6dd,,,,,,,decisionTrl,resources/DR.BMP,resources/DP.BMP,Door4,0.326818373,0.055968628,1,0,0,0.7317,optionRight,80,8610,4,24,0,24,0,1,,,,,,,,,,,,,,,,,,,,,,,,,,,,,,,,,,,,,,,
,,,,,,,,2023-08-16_08h32.23.828,HF_wild_card,2022.2.4,MacIntel,59.84082341,638a8c63c74f91261108cebf,64d2fd46c836a06233681665,64dc7b502356a55c9dfbb6dd,,,,,,,decisionTrl,resources/DP.BMP,resources/DR.BMP,Door4,-0.272606812,-0.014657593,1,0,0,0.7477,optionLeft,80,8690,4,25,0,25,0,1,,,,,,,,,,,,,,,,,,,,,,,,,,,,,,,,,,,,,,,
,,,,,,,,2023-08-16_08h32.23.828,HF_wild_card,2022.2.4,MacIntel,59.84082341,638a8c63c74f91261108cebf,64d2fd46c836a06233681665,64dc7b502356a55c9dfbb6dd,,,,,,,decisionTrl,resources/DR.BMP,resources/DG.BMP,WildCard_Ex,0.326991102,0.029960937,1,0,0,0.7621,optionRight,95,8785,4,26,0,26,0,1,,,,,,,,,,,,,,,,,,,,,,,,,,,,,,,,,,,,,,,
,,,,,,,,2023-08-16_08h32.23.828,HF_wild_card,2022.2.4,MacIntel,59.84082341,638a8c63c74f91261108cebf,64d2fd46c836a06233681665,64dc7b502356a55c9dfbb6dd,,,,,,,decisionTrl,resources/DG.BMP,resources/DP.BMP,WildCard_Ex,-0.310648024,0.025306736,1,0,0,0.7304,optionLeft,95,8880,4,27,0,27,0,1,,,,,,,,,,,,,,,,,,,,,,,,,,,,,,,,,,,,,,,
,,,,,,,,2023-08-16_08h32.23.828,HF_wild_card,2022.2.4,MacIntel,59.84082341,638a8c63c74f91261108cebf,64d2fd46c836a06233681665,64dc7b502356a55c9dfbb6dd,,,,,,,sngl,resources/DR.BMP,resources/Empty.png,Door3,-0.327430827,-0.007469076,1,0,0,0.7165,optionLeft,70,8950,4,28,0,28,0,1,,,,,,,,,,,,,,,,,,,,,,,,,,,,,,,,,,,,,,,
,,,,,,,,2023-08-16_08h32.23.828,HF_wild_card,2022.2.4,MacIntel,59.84082341,638a8c63c74f91261108cebf,64d2fd46c836a06233681665,64dc7b502356a55c9dfbb6dd,,,,,,,decisionTrl,resources/DP.BMP,resources/DG.BMP,WildCard_Ex,0.345412869,0.051519368,1,0,0,0.8513,optionRight,95,9045,4,29,0,29,0,1,,,,,,,,,,,,,,,,,,,,,,,,,,,,,,,,,,,,,,,
,,,,,,,,2023-08-16_08h32.23.828,HF_wild_card,2022.2.4,MacIntel,59.84082341,638a8c63c74f91261108cebf,64d2fd46c836a06233681665,64dc7b502356a55c9dfbb6dd,,,,,,,decisionTrl,resources/DB.BMP,resources/DBN.BMP,Door1,-0.271987237,-0.030187174,1,0,0,0.8642,optionLeft,30,9075,4,30,0,30,0,1,,,,,,,,,,,,,,,,,,,,,,,,,,,,,,,,,,,,,,,
,,,,,,,,2023-08-16_08h32.23.828,HF_wild_card,2022.2.4,MacIntel,59.84082341,638a8c63c74f91261108cebf,64d2fd46c836a06233681665,64dc7b502356a55c9dfbb6dd,,,,,,,decisionTrl,resources/DG.BMP,resources/DB.BMP,WildCard_Ex,-0.31876241,0.000653415,1,0,0,0.8116,optionLeft,5,9080,4,31,0,31,0,1,,,,,,,,,,,,,,,,,,,,,,,,,,,,,,,,,,,,,,,
,,,,,,,,2023-08-16_08h32.23.828,HF_wild_card,2022.2.4,MacIntel,59.84082341,638a8c63c74f91261108cebf,64d2fd46c836a06233681665,64dc7b502356a55c9dfbb6dd,,,,,,,sngl,resources/Empty.png,resources/DG.BMP,WildCard_Ex,0.287289903,0.042055528,1,0,0,0.6325,optionRight,5,9085,4,32,0,32,0,1,,,,,,,,,,,,,,,,,,,,,,,,,,,,,,,,,,,,,,,
,,,,,,,,2023-08-16_08h32.23.828,HF_wild_card,2022.2.4,MacIntel,59.84082341,638a8c63c74f91261108cebf,64d2fd46c836a06233681665,64dc7b502356a55c9dfbb6dd,,,,,,,ctch,resources/DR.BMP,resources/DBN.BMP,Door3,-0.267213169,-0.000135973,1,0,0,0.9802,optionLeft,70,9155,4,33,0,33,0,1,,,,,,,,,,,,,,,,,,,,,,,,,,,,,,,,,,,,,,,
,,,,,,,,2023-08-16_08h32.23.828,HF_wild_card,2022.2.4,MacIntel,59.84082341,638a8c63c74f91261108cebf,64d2fd46c836a06233681665,64dc7b502356a55c9dfbb6dd,,,,,,,decisionTrl,resources/DG.BMP,resources/DR.BMP,WildCard_Ex,-0.242759976,-0.034216444,1,0,0,1.1709,optionLeft,5,9160,4,34,0,34,0,1,,,,,,,,,,,,,,,,,,,,,,,,,,,,,,,,,,,,,,,
,,,,,,,,2023-08-16_08h32.23.828,HF_wild_card,2022.2.4,MacIntel,59.84082341,638a8c63c74f91261108cebf,64d2fd46c836a06233681665,64dc7b502356a55c9dfbb6dd,,,,,,,decisionTrl,resources/DBN.BMP,resources/DG.BMP,WildCard_Ex,0.346881104,0.04974884,1,0,0,0.7164,optionRight,95,9255,4,35,0,35,0,1,,,,,,,,,,,,,,,,,,,,,,,,,,,,,,,,,,,,,,,
,,,,,,,,2023-08-16_08h32.23.828,HF_wild_card,2022.2.4,MacIntel,59.84082341,638a8c63c74f91261108cebf,64d2fd46c836a06233681665,64dc7b502356a55c9dfbb6dd,,,,,,,sngl,resources/DB.BMP,resources/Empty.png,Door1,-0.363405796,-0.009675056,1,0,0,0.6655,optionLeft,30,9285,4,36,0,36,0,1,,,,,,,,,,,,,,,,,,,,,,,,,,,,,,,,,,,,,,,
,,,,,,,,2023-08-16_08h32.23.828,HF_wild_card,2022.2.4,MacIntel,59.84082341,638a8c63c74f91261108cebf,64d2fd46c836a06233681665,64dc7b502356a55c9dfbb6dd,,,,,,,sngl,resources/Empty.png,resources/DBN.BMP,Door2,0.342378743,0.033499417,1,0,0,0.5516,optionRight,40,9325,4,37,0,37,0,1,,,,,,,,,,,,,,,,,,,,,,,,,,,,,,,,,,,,,,,
,,,,,,,,2023-08-16_08h32.23.828,HF_wild_card,2022.2.4,MacIntel,59.84082341,638a8c63c74f91261108cebf,64d2fd46c836a06233681665,64dc7b502356a55c9dfbb6dd,,,,,,,sngl,resources/Empty.png,resources/DP.BMP,Door4,0.35864936,0.006808573,1,0,0,0.7942,optionRight,80,9405,4,38,0,38,0,1,,,,,,,,,,,,,,,,,,,,,,,,,,,,,,,,,,,,,,,
,,,,,,,,2023-08-16_08h32.23.828,HF_wild_card,2022.2.4,MacIntel,59.84082341,638a8c63c74f91261108cebf,64d2fd46c836a06233681665,64dc7b502356a55c9dfbb6dd,,,,,,,decisionTrl,resources/DP.BMP,resources/DR.BMP,Door4,-0.292814128,-0.062830132,1,0,0,0.9831,optionLeft,80,9485,4,39,0,39,0,1,,,,,,,,,,,,,,,,,,,,,,,,,,,,,,,,,,,,,,,
,,,,,,,,2023-08-16_08h32.23.828,HF_wild_card,2022.2.4,MacIntel,59.84082341,638a8c63c74f91261108cebf,64d2fd46c836a06233681665,64dc7b502356a55c9dfbb6dd,,,,,,,ctch,resources/DB.BMP,resources/DP.BMP,Door4,0.362880859,-0.027817485,1,0,0,0.9774,optionRight,80,9565,4,40,0,40,0,1,,,,,,,,,,,,,,,,,,,,,,,,,,,,,,,,,,,,,,,
,,,,,,,,2023-08-16_08h32.23.828,HF_wild_card,2022.2.4,MacIntel,59.84082341,638a8c63c74f91261108cebf,64d2fd46c836a06233681665,64dc7b502356a55c9dfbb6dd,,,,,,,decisionTrl,resources/DB.BMP,resources/DBN.BMP,Door1,-0.325821567,-0.031769477,1,0,0,0.7163,optionLeft,30,9595,4,41,0,41,0,1,,,,,,,,,,,,,,,,,,,,,,,,,,,,,,,,,,,,,,,
,,,,,,,,2023-08-16_08h32.23.828,HF_wild_card,2022.2.4,MacIntel,59.84082341,638a8c63c74f91261108cebf,64d2fd46c836a06233681665,64dc7b502356a55c9dfbb6dd,,,,,,,decisionTrl,resources/DBN.BMP,resources/DB.BMP,Door1,0.29861952,0.042096625,1,0,0,0.8145,optionRight,30,9625,4,42,0,42,0,1,,,,,,,,,,,,,,,,,,,,,,,,,,,,,,,,,,,,,,,
,,,,,,,,2023-08-16_08h32.23.828,HF_wild_card,2022.2.4,MacIntel,59.84082341,638a8c63c74f91261108cebf,64d2fd46c836a06233681665,64dc7b502356a55c9dfbb6dd,,,,,,,ctch,resources/DP.BMP,resources/DB.BMP,Door4,-0.31820421,-0.05661126,1,0,0,0.6642,optionLeft,80,9705,4,43,0,43,0,1,,,,,,,,,,,,,,,,,,,,,,,,,,,,,,,,,,,,,,,
,,,,,,,,2023-08-16_08h32.23.828,HF_wild_card,2022.2.4,MacIntel,59.84082341,638a8c63c74f91261108cebf,64d2fd46c836a06233681665,64dc7b502356a55c9dfbb6dd,,,,,,,,,,,,,,,,,,,,,,,,,,3,0,3,0,1,,,,,,,,,,,,,,,,,,,,,,,,,,,,,,,,,,
,,,,,,,,2023-08-16_08h32.23.828,HF_wild_card,2022.2.4,MacIntel,59.84082341,638a8c63c74f91261108cebf,64d2fd46c836a06233681665,64dc7b502356a55c9dfbb6dd,,,,,,,sngl,resources/DB.BMP,resources/Empty.png,Door1,-0.277620443,-0.148953857,1,0,0,0.7405,optionLeft,30,9735,5,0,0,0,0,1,,,,,,,,,,,,,,,,,,,,,,,,,,,,,,,,,,,,,,,
,,,,,,,,2023-08-16_08h32.23.828,HF_wild_card,2022.2.4,MacIntel,59.84082341,638a8c63c74f91261108cebf,64d2fd46c836a06233681665,64dc7b502356a55c9dfbb6dd,,,,,,,decisionTrl,resources/DBN.BMP,resources/DB.BMP,Door1,0.324956529,-0.021129286,1,0,0,0.5292,optionRight,30,9765,5,1,0,1,0,1,,,,,,,,,,,,,,,,,,,,,,,,,,,,,,,,,,,,,,,
,,,,,,,,2023-08-16_08h32.23.828,HF_wild_card,2022.2.4,MacIntel,59.84082341,638a8c63c74f91261108cebf,64d2fd46c836a06233681665,64dc7b502356a55c9dfbb6dd,,,,,,,ctch,resources/DP.BMP,resources/DB.BMP,Door4,-0.322403429,-0.002324524,1,0,0,1.0027,optionLeft,60,9825,5,2,0,2,0,1,,,,,,,,,,,,,,,,,,,,,,,,,,,,,,,,,,,,,,,
,,,,,,,,2023-08-16_08h32.23.828,HF_wild_card,2022.2.4,MacIntel,59.84082341,638a8c63c74f91261108cebf,64d2fd46c836a06233681665,64dc7b502356a55c9dfbb6dd,,,,,,,sngl,resources/DG.BMP,resources/Empty.png,WildCard_Ex,-0.421721836,-0.081291843,1,0,0,0.6326,optionLeft,95,9920,5,3,0,3,0,1,,,,,,,,,,,,,,,,,,,,,,,,,,,,,,,,,,,,,,,
,,,,,,,,2023-08-16_08h32.23.828,HF_wild_card,2022.2.4,MacIntel,59.84082341,638a8c63c74f91261108cebf,64d2fd46c836a06233681665,64dc7b502356a55c9dfbb6dd,,,,,,,decisionTrl,resources/DB.BMP,resources/DBN.BMP,Door1,-0.300694885,-0.013397488,1,0,0,0.7639,optionLeft,30,9950,5,4,0,4,0,1,,,,,,,,,,,,,,,,,,,,,,,,,,,,,,,,,,,,,,,
,,,,,,,,2023-08-16_08h32.23.828,HF_wild_card,2022.2.4,MacIntel,59.84082341,638a8c63c74f91261108cebf,64d2fd46c836a06233681665,64dc7b502356a55c9dfbb6dd,,,,,,,decisionTrl,resources/DB.BMP,resources/DG.BMP,WildCard_Ex,0.411118164,0.031675686,1,0,0,1.1847,optionRight,5,9955,5,5,0,5,0,1,,,,,,,,,,,,,,,,,,,,,,,,,,,,,,,,,,,,,,,
,,,,,,,,2023-08-16_08h32.23.828,HF_wild_card,2022.2.4,MacIntel,59.84082341,638a8c63c74f91261108cebf,64d2fd46c836a06233681665,64dc7b502356a55c9dfbb6dd,,,,,,,decisionTrl,resources/DP.BMP,resources/DR.BMP,Door4,-0.328005642,-0.032617154,1,0,0,0.9154,optionLeft,80,10035,5,6,0,6,0,1,,,,,,,,,,,,,,,,,,,,,,,,,,,,,,,,,,,,,,,
,,,,,,,,2023-08-16_08h32.23.828,HF_wild_card,2022.2.4,MacIntel,59.84082341,638a8c63c74f91261108cebf,64d2fd46c836a06233681665,64dc7b502356a55c9dfbb6dd,,,,,,,sngl,resources/Empty.png,resources/DBN.BMP,Door2,0.482934435,0.024834629,1,0,0,0.6149,optionRight,20,10055,5,7,0,7,0,1,,,,,,,,,,,,,,,,,,,,,,,,,,,,,,,,,,,,,,,
,,,,,,,,2023-08-16_08h32.23.828,HF_wild_card,2022.2.4,MacIntel,59.84082341,638a8c63c74f91261108cebf,64d2fd46c836a06233681665,64dc7b502356a55c9dfbb6dd,,,,,,,decisionTrl,resources/DP.BMP,resources/DR.BMP,Door3,0.276702067,-0.002334391,1,0,0,1.47,optionRight,70,10125,5,8,0,8,0,1,,,,,,,,,,,,,,,,,,,,,,,,,,,,,,,,,,,,,,,
,,,,,,,,2023-08-16_08h32.23.828,HF_wild_card,2022.2.4,MacIntel,59.84082341,638a8c63c74f91261108cebf,64d2fd46c836a06233681665,64dc7b502356a55c9dfbb6dd,,,,,,,sngl,resources/DR.BMP,resources/Empty.png,Door3,-0.424118008,0.006953057,1,0,0,0.4978,optionLeft,70,10195,5,9,0,9,0,1,,,,,,,,,,,,,,,,,,,,,,,,,,,,,,,,,,,,,,,
,,,,,,,,2023-08-16_08h32.23.828,HF_wild_card,2022.2.4,MacIntel,59.84082341,638a8c63c74f91261108cebf,64d2fd46c836a06233681665,64dc7b502356a55c9dfbb6dd,,,,,,,decisionTrl,resources/DG.BMP,resources/DBN.BMP,WildCard_Ex,-0.365137058,0.049352078,1,0,0,0.5973,optionLeft,95,10290,5,10,0,10,0,1,,,,,,,,,,,,,,,,,,,,,,,,,,,,,,,,,,,,,,,
,,,,,,,,2023-08-16_08h32.23.828,HF_wild_card,2022.2.4,MacIntel,59.84082341,638a8c63c74f91261108cebf,64d2fd46c836a06233681665,64dc7b502356a55c9dfbb6dd,,,,,,,sngl,resources/DP.BMP,resources/Empty.png,Door4,-0.396047533,0.013737895,1,0,0,0.4967,optionLeft,80,10370,5,11,0,11,0,1,,,,,,,,,,,,,,,,,,,,,,,,,,,,,,,,,,,,,,,
,,,,,,,,2023-08-16_08h32.23.828,HF_wild_card,2022.2.4,MacIntel,59.84082341,638a8c63c74f91261108cebf,64d2fd46c836a06233681665,64dc7b502356a55c9dfbb6dd,,,,,,,decisionTrl,resources/DR.BMP,resources/DP.BMP,Door4,0.310003459,0.0364426,1,0,0,0.7473,optionRight,60,10430,5,12,0,12,0,1,,,,,,,,,,,,,,,,,,,,,,,,,,,,,,,,,,,,,,,
,,,,,,,,2023-08-16_08h32.23.828,HF_wild_card,2022.2.4,MacIntel,59.84082341,638a8c63c74f91261108cebf,64d2fd46c836a06233681665,64dc7b502356a55c9dfbb6dd,,,,,,,sngl,resources/DBN.BMP,resources/Empty.png,Door2,-0.231628859,-0.002487183,1,0,0,0.5161,optionLeft,40,10470,5,13,0,13,0,1,,,,,,,,,,,,,,,,,,,,,,,,,,,,,,,,,,,,,,,
,,,,,,,,2023-08-16_08h32.23.828,HF_wild_card,2022.2.4,MacIntel,59.84082341,638a8c63c74f91261108cebf,64d2fd46c836a06233681665,64dc7b502356a55c9dfbb6dd,,,,,,,sngl,resources/Empty.png,resources/DP.BMP,Door4,0.400878635,0.029003567,1,0,0,0.4803,optionRight,60,10530,5,14,0,14,0,1,,,,,,,,,,,,,,,,,,,,,,,,,,,,,,,,,,,,,,,
,,,,,,,,2023-08-16_08h32.23.828,HF_wild_card,2022.2.4,MacIntel,59.84082341,638a8c63c74f91261108cebf,64d2fd46c836a06233681665,64dc7b502356a55c9dfbb6dd,,,,,,,decisionTrl,resources/DG.BMP,resources/DR.BMP,WildCard_Ex,-0.27197659,0.000432129,1,0,0,0.6482,optionLeft,5,10535,5,15,0,15,0,1,,,,,,,,,,,,,,,,,,,,,,,,,,,,,,,,,,,,,,,
,,,,,,,,2023-08-16_08h32.23.828,HF_wild_card,2022.2.4,MacIntel,59.84082341,638a8c63c74f91261108cebf,64d2fd46c836a06233681665,64dc7b502356a55c9dfbb6dd,,,,,,,decisionTrl,resources/DR.BMP,resources/DG.BMP,WildCard_Ex,0.394849447,0.049704522,1,0,0,1.1344,optionRight,5,10540,5,16,0,16,0,1,,,,,,,,,,,,,,,,,,,,,,,,,,,,,,,,,,,,,,,
,,,,,,,,2023-08-16_08h32.23.828,HF_wild_card,2022.2.4,MacIntel,59.84082341,638a8c63c74f91261108cebf,64d2fd46c836a06233681665,64dc7b502356a55c9dfbb6dd,,,,,,,decisionTrl,resources/DP.BMP,resources/DG.BMP,WildCard_Ex,0.394053006,-0.021046821,1,0,0,0.5652,optionRight,5,10545,5,17,0,17,0,1,,,,,,,,,,,,,,,,,,,,,,,,,,,,,,,,,,,,,,,
,,,,,,,,2023-08-16_08h32.23.828,HF_wild_card,2022.2.4,MacIntel,59.84082341,638a8c63c74f91261108cebf,64d2fd46c836a06233681665,64dc7b502356a55c9dfbb6dd,,,,,,,decisionTrl,resources/DR.BMP,resources/DP.BMP,Door4,0.364485541,0.059461331,1,0,0,0.6969,optionRight,60,10605,5,18,0,18,0,1,,,,,,,,,,,,,,,,,,,,,,,,,,,,,,,,,,,,,,,
,,,,,,,,2023-08-16_08h32.23.828,HF_wild_card,2022.2.4,MacIntel,59.84082341,638a8c63c74f91261108cebf,64d2fd46c836a06233681665,64dc7b502356a55c9dfbb6dd,,,,,,,decisionTrl,resources/DB.BMP,resources/DBN.BMP,Door1,-0.220866631,-0.000858019,1,0,0,0.866,optionLeft,30,10635,5,19,0,19,0,1,,,,,,,,,,,,,,,,,,,,,,,,,,,,,,,,,,,,,,,
,,,,,,,,2023-08-16_08h32.23.828,HF_wild_card,2022.2.4,MacIntel,59.84082341,638a8c63c74f91261108cebf,64d2fd46c836a06233681665,64dc7b502356a55c9dfbb6dd,,,,,,,sngl,resources/Empty.png,resources/DB.BMP,Door1,0.389353706,0.032617866,1,0,0,0.4975,optionRight,30,10665,5,20,0,20,0,1,,,,,,,,,,,,,,,,,,,,,,,,,,,,,,,,,,,,,,,
,,,,,,,,2023-08-16_08h32.23.828,HF_wild_card,2022.2.4,MacIntel,59.84082341,638a8c63c74f91261108cebf,64d2fd46c836a06233681665,64dc7b502356a55c9dfbb6dd,,,,,,,ctch,resources/DBN.BMP,resources/DR.BMP,Door2,-0.209345703,0.013675605,1,0,0,0.6995,optionLeft,20,10685,5,21,0,21,0,1,,,,,,,,,,,,,,,,,,,,,,,,,,,,,,,,,,,,,,,
,,,,,,,,2023-08-16_08h32.23.828,HF_wild_card,2022.2.4,MacIntel,59.84082341,638a8c63c74f91261108cebf,64d2fd46c836a06233681665,64dc7b502356a55c9dfbb6dd,,,,,,,sngl,resources/Empty.png,resources/DR.BMP,Door3,0.242196859,0.009374864,1,0,0,0.5337,optionRight,70,10755,5,22,0,22,0,1,,,,,,,,,,,,,,,,,,,,,,,,,,,,,,,,,,,,,,,
,,,,,,,,2023-08-16_08h32.23.828,HF_wild_card,2022.2.4,MacIntel,59.84082341,638a8c63c74f91261108cebf,64d2fd46c836a06233681665,64dc7b502356a55c9dfbb6dd,,,,,,,decisionTrl,resources/DR.BMP,resources/DP.BMP,Door4,0.300367499,0.01136495,1,0,0,1.098,optionRight,60,10815,5,23,0,23,0,1,,,,,,,,,,,,,,,,,,,,,,,,,,,,,,,,,,,,,,,
,,,,,,,,2023-08-16_08h32.23.828,HF_wild_card,2022.2.4,MacIntel,59.84082341,638a8c63c74f91261108cebf,64d2fd46c836a06233681665,64dc7b502356a55c9dfbb6dd,,,,,,,decisionTrl,resources/DR.BMP,resources/DP.BMP,Door3,-0.252812771,0.019041206,1,0,0,0.6146,optionLeft,70,10885,5,24,0,24,0,1,,,,,,,,,,,,,,,,,,,,,,,,,,,,,,,,,,,,,,,
,,,,,,,,2023-08-16_08h32.23.828,HF_wild_card,2022.2.4,MacIntel,59.84082341,638a8c63c74f91261108cebf,64d2fd46c836a06233681665,64dc7b502356a55c9dfbb6dd,,,,,,,decisionTrl,resources/DP.BMP,resources/DR.BMP,Door3,0.299835612,-0.014449531,1,0,0,0.6143,optionRight,70,10955,5,25,0,25,0,1,,,,,,,,,,,,,,,,,,,,,,,,,,,,,,,,,,,,,,,
,,,,,,,,2023-08-16_08h32.23.828,HF_wild_card,2022.2.4,MacIntel,59.84082341,638a8c63c74f91261108cebf,64d2fd46c836a06233681665,64dc7b502356a55c9dfbb6dd,,,,,,,sngl,resources/Empty.png,resources/DG.BMP,WildCard_Ex,0.36843967,0.032549167,1,0,0,0.6156,optionRight,5,10960,5,26,0,26,0,1,,,,,,,,,,,,,,,,,,,,,,,,,,,,,,,,,,,,,,,
,,,,,,,,2023-08-16_08h32.23.828,HF_wild_card,2022.2.4,MacIntel,59.84082341,638a8c63c74f91261108cebf,64d2fd46c836a06233681665,64dc7b502356a55c9dfbb6dd,,,,,,,ctch,resources/DBN.BMP,resources/DR.BMP,Door3,0.45702162,0.084973687,1,0,0,0.7676,optionRight,70,11030,5,27,0,27,0,1,,,,,,,,,,,,,,,,,,,,,,,,,,,,,,,,,,,,,,,
,,,,,,,,2023-08-16_08h32.23.828,HF_wild_card,2022.2.4,MacIntel,59.84082341,638a8c63c74f91261108cebf,64d2fd46c836a06233681665,64dc7b502356a55c9dfbb6dd,,,,,,,decisionTrl,resources/DB.BMP,resources/DBN.BMP,Door1,-0.29304657,-0.033337674,1,0,0,0.8307,optionLeft,30,11060,5,28,0,28,0,1,,,,,,,,,,,,,,,,,,,,,,,,,,,,,,,,,,,,,,,
,,,,,,,,2023-08-16_08h32.23.828,HF_wild_card,2022.2.4,MacIntel,59.84082341,638a8c63c74f91261108cebf,64d2fd46c836a06233681665,64dc7b502356a55c9dfbb6dd,,,,,,,decisionTrl,resources/DBN.BMP,resources/DB.BMP,Door1,0.268324382,0.036479628,1,0,0,1.2661,optionRight,30,11090,5,29,0,29,0,1,,,,,,,,,,,,,,,,,,,,,,,,,,,,,,,,,,,,,,,
,,,,,,,,2023-08-16_08h32.23.828,HF_wild_card,2022.2.4,MacIntel,59.84082341,638a8c63c74f91261108cebf,64d2fd46c836a06233681665,64dc7b502356a55c9dfbb6dd,,,,,,,decisionTrl,resources/DBN.BMP,resources/DB.BMP,Door1,0.388948975,0.009883423,1,0,0,0.9688,optionRight,30,11120,5,30,0,30,0,1,,,,,,,,,,,,,,,,,,,,,,,,,,,,,,,,,,,,,,,
,,,,,,,,2023-08-16_08h32.23.828,HF_wild_card,2022.2.4,MacIntel,59.84082341,638a8c63c74f91261108cebf,64d2fd46c836a06233681665,64dc7b502356a55c9dfbb6dd,,,,,,,ctch,resources/DB.BMP,resources/DP.BMP,Door4,0.460205485,0.001674839,1,0,0,1.0165,optionRight,80,11200,5,31,0,31,0,1,,,,,,,,,,,,,,,,,,,,,,,,,,,,,,,,,,,,,,,
,,,,,,,,2023-08-16_08h32.23.828,HF_wild_card,2022.2.4,MacIntel,59.84082341,638a8c63c74f91261108cebf,64d2fd46c836a06233681665,64dc7b502356a55c9dfbb6dd,,,,,,,ctch,resources/DP.BMP,resources/DB.BMP,Door4,-0.282045424,-0.031085883,1,0,0,0.5298,optionLeft,60,11260,5,32,0,32,0,1,,,,,,,,,,,,,,,,,,,,,,,,,,,,,,,,,,,,,,,
,,,,,,,,2023-08-16_08h32.23.828,HF_wild_card,2022.2.4,MacIntel,59.84082341,638a8c63c74f91261108cebf,64d2fd46c836a06233681665,64dc7b502356a55c9dfbb6dd,,,,,,,decisionTrl,resources/DP.BMP,resources/DR.BMP,Door3,0.379100477,0.015831028,1,0,0,1.3846,optionRight,70,11330,5,33,0,33,0,1,,,,,,,,,,,,,,,,,,,,,,,,,,,,,,,,,,,,,,,
,,,,,,,,2023-08-16_08h32.23.828,HF_wild_card,2022.2.4,MacIntel,59.84082341,638a8c63c74f91261108cebf,64d2fd46c836a06233681665,64dc7b502356a55c9dfbb6dd,,,,,,,ctch,resources/DB.BMP,resources/DP.BMP,Door4,0.363731011,0.023316277,1,0,0,0.7158,optionRight,80,11410,5,34,0,34,0,1,,,,,,,,,,,,,,,,,,,,,,,,,,,,,,,,,,,,,,,
,,,,,,,,2023-08-16_08h32.23.828,HF_wild_card,2022.2.4,MacIntel,59.84082341,638a8c63c74f91261108cebf,64d2fd46c836a06233681665,64dc7b502356a55c9dfbb6dd,,,,,,,ctch,resources/DR.BMP,resources/DBN.BMP,Door3,-0.194190335,-0.00650533,1,0,0,0.6332,optionLeft,70,11480,5,35,0,35,0,1,,,,,,,,,,,,,,,,,,,,,,,,,,,,,,,,,,,,,,,
,,,,,,,,2023-08-16_08h32.23.828,HF_wild_card,2022.2.4,MacIntel,59.84082341,638a8c63c74f91261108cebf,64d2fd46c836a06233681665,64dc7b502356a55c9dfbb6dd,,,,,,,decisionTrl,resources/DBN.BMP,resources/DG.BMP,WildCard_Ex,0.288587036,-0.007561985,1,0,0,0.9322,optionRight,95,11575,5,36,0,36,0,1,,,,,,,,,,,,,,,,,,,,,,,,,,,,,,,,,,,,,,,
,,,,,,,,2023-08-16_08h32.23.828,HF_wild_card,2022.2.4,MacIntel,59.84082341,638a8c63c74f91261108cebf,64d2fd46c836a06233681665,64dc7b502356a55c9dfbb6dd,,,,,,,decisionTrl,resources/DG.BMP,resources/DP.BMP,WildCard_Ex,-0.219341295,0.008594937,1,0,0,0.8993,optionLeft,95,11670,5,37,0,37,0,1,,,,,,,,,,,,,,,,,,,,,,,,,,,,,,,,,,,,,,,
,,,,,,,,2023-08-16_08h32.23.828,HF_wild_card,2022.2.4,MacIntel,59.84082341,638a8c63c74f91261108cebf,64d2fd46c836a06233681665,64dc7b502356a55c9dfbb6dd,,,,,,,sngl,resources/DG.BMP,resources/Empty.png,WildCard_Ex,-0.220151503,-0.022671644,1,0,0,0.5622,optionLeft,5,11675,5,38,0,38,0,1,,,,,,,,,,,,,,,,,,,,,,,,,,,,,,,,,,,,,,,
,,,,,,,,2023-08-16_08h32.23.828,HF_wild_card,2022.2.4,MacIntel,59.84082341,638a8c63c74f91261108cebf,64d2fd46c836a06233681665,64dc7b502356a55c9dfbb6dd,,,,,,,decisionTrl,resources/DBN.BMP,resources/DB.BMP,Door1,0.336861776,0.00822659,1,0,0,0.5956,optionRight,30,11705,5,39,0,39,0,1,,,,,,,,,,,,,,,,,,,,,,,,,,,,,,,,,,,,,,,
,,,,,,,,2023-08-16_08h32.23.828,HF_wild_card,2022.2.4,MacIntel,59.84082341,638a8c63c74f91261108cebf,64d2fd46c836a06233681665,64dc7b502356a55c9dfbb6dd,,,,,,,decisionTrl,resources/DG.BMP,resources/DB.BMP,WildCard_Ex,-0.239699741,-0.070061103,1,0,0,0.7987,optionLeft,95,11800,5,40,0,40,0,1,,,,,,,,,,,,,,,,,,,,,,,,,,,,,,,,,,,,,,,
,,,,,,,,2023-08-16_08h32.23.828,HF_wild_card,2022.2.4,MacIntel,59.84082341,638a8c63c74f91261108cebf,64d2fd46c836a06233681665,64dc7b502356a55c9dfbb6dd,,,,,,,sngl,resources/Empty.png,resources/DG.BMP,WildCard_Ex,0.305961778,0.010026822,1,0,0,0.8167,optionRight,95,11895,5,41,0,41,0,1,,,,,,,,,,,,,,,,,,,,,,,,,,,,,,,,,,,,,,,
,,,,,,,,2023-08-16_08h32.23.828,HF_wild_card,2022.2.4,MacIntel,59.84082341,638a8c63c74f91261108cebf,64d2fd46c836a06233681665,64dc7b502356a55c9dfbb6dd,,,,,,,ctch,resources/DR.BMP,resources/DBN.BMP,Door3,-0.26508823,0.009141134,1,0,0,0.7307,optionLeft,70,11965,5,42,0,42,0,1,,,,,,,,,,,,,,,,,,,,,,,,,,,,,,,,,,,,,,,
,,,,,,,,2023-08-16_08h32.23.828,HF_wild_card,2022.2.4,MacIntel,59.84082341,638a8c63c74f91261108cebf,64d2fd46c836a06233681665,64dc7b502356a55c9dfbb6dd,,,,,,,decisionTrl,resources/DB.BMP,resources/DBN.BMP,Door1,-0.218590563,-0.013903198,1,0,0,1.0531,optionLeft,30,11995,5,43,0,43,0,1,,,,,,,,,,,,,,,,,,,,,,,,,,,,,,,,,,,,,,,
,,,,,,,,2023-08-16_08h32.23.828,HF_wild_card,2022.2.4,MacIntel,59.84082341,638a8c63c74f91261108cebf,64d2fd46c836a06233681665,64dc7b502356a55c9dfbb6dd,,,,,,,,,,,,,,,,,,,,,,,,,,4,0,4,0,1,,,,,,,,,,,,,,,,,,,,,,,,,,,,,,,,,,
,,,,,,,,2023-08-16_08h32.23.828,HF_wild_card,2022.2.4,MacIntel,59.84082341,638a8c63c74f91261108cebf,64d2fd46c836a06233681665,64dc7b502356a55c9dfbb6dd,,,,,,,ctch,resources/DR.BMP,resources/DBN.BMP,Door3,-0.442131992,0.193237135,1,0,0,2.1405,optionLeft,70,12065,6,0,0,0,0,1,,,,,,,,,,,,,,,,,,,,,,,,,,,,,,,,,,,,,,,
,,,,,,,,2023-08-16_08h32.23.828,HF_wild_card,2022.2.4,MacIntel,59.84082341,638a8c63c74f91261108cebf,64d2fd46c836a06233681665,64dc7b502356a55c9dfbb6dd,,,,,,,decisionTrl,resources/DG.BMP,resources/DP.BMP,WildCard_Ex,-0.257966071,0.000385912,1,0,0,0.8691,optionLeft,5,12070,6,1,0,1,0,1,,,,,,,,,,,,,,,,,,,,,,,,,,,,,,,,,,,,,,,
,,,,,,,,2023-08-16_08h32.23.828,HF_wild_card,2022.2.4,MacIntel,59.84082341,638a8c63c74f91261108cebf,64d2fd46c836a06233681665,64dc7b502356a55c9dfbb6dd,,,,,,,sngl,resources/DG.BMP,resources/Empty.png,WildCard_Ex,-0.327202725,0.027666151,1,0,0,0.4815,optionLeft,5,12075,6,2,0,2,0,1,,,,,,,,,,,,,,,,,,,,,,,,,,,,,,,,,,,,,,,
,,,,,,,,2023-08-16_08h32.23.828,HF_wild_card,2022.2.4,MacIntel,59.84082341,638a8c63c74f91261108cebf,64d2fd46c836a06233681665,64dc7b502356a55c9dfbb6dd,,,,,,,ctch,resources/DBN.BMP,resources/DR.BMP,Door3,0.307055122,0.032783373,1,0,0,0.7822,optionRight,70,12145,6,3,0,3,0,1,,,,,,,,,,,,,,,,,,,,,,,,,,,,,,,,,,,,,,,
,,,,,,,,2023-08-16_08h32.23.828,HF_wild_card,2022.2.4,MacIntel,59.84082341,638a8c63c74f91261108cebf,64d2fd46c836a06233681665,64dc7b502356a55c9dfbb6dd,,,,,,,decisionTrl,resources/DP.BMP,resources/DG.BMP,WildCard_Ex,0.519549696,0.007012973,1,0,0,0.8833,optionRight,95,12240,6,4,0,4,0,1,,,,,,,,,,,,,,,,,,,,,,,,,,,,,,,,,,,,,,,
,,,,,,,,2023-08-16_08h32.23.828,HF_wild_card,2022.2.4,MacIntel,59.84082341,638a8c63c74f91261108cebf,64d2fd46c836a06233681665,64dc7b502356a55c9dfbb6dd,,,,,,,sngl,resources/DB.BMP,resources/Empty.png,Door1,-0.27034807,-0.027830132,1,0,0,0.4998,optionLeft,30,12270,6,5,0,5,0,1,,,,,,,,,,,,,,,,,,,,,,,,,,,,,,,,,,,,,,,
,,,,,,,,2023-08-16_08h32.23.828,HF_wild_card,2022.2.4,MacIntel,59.84082341,638a8c63c74f91261108cebf,64d2fd46c836a06233681665,64dc7b502356a55c9dfbb6dd,,,,,,,ctch,resources/DR.BMP,resources/DBN.BMP,Door3,-0.273705377,-0.028364563,1,0,0,0.63,optionLeft,70,12340,6,6,0,6,0,1,,,,,,,,,,,,,,,,,,,,,,,,,,,,,,,,,,,,,,,
,,,,,,,,2023-08-16_08h32.23.828,HF_wild_card,2022.2.4,MacIntel,59.84082341,638a8c63c74f91261108cebf,64d2fd46c836a06233681665,64dc7b502356a55c9dfbb6dd,,,,,,,ctch,resources/DB.BMP,resources/DP.BMP,Door4,0.308181288,-0.012190348,1,0,0,0.6311,optionRight,60,12400,6,7,0,7,0,1,,,,,,,,,,,,,,,,,,,,,,,,,,,,,,,,,,,,,,,
,,,,,,,,2023-08-16_08h32.23.828,HF_wild_card,2022.2.4,MacIntel,59.84082341,638a8c63c74f91261108cebf,64d2fd46c836a06233681665,64dc7b502356a55c9dfbb6dd,,,,,,,decisionTrl,resources/DB.BMP,resources/DBN.BMP,Door1,-0.1895008,0.00162679,1,0,0,0.5749,optionLeft,30,12430,6,8,0,8,0,1,,,,,,,,,,,,,,,,,,,,,,,,,,,,,,,,,,,,,,,
,,,,,,,,2023-08-16_08h32.23.828,HF_wild_card,2022.2.4,MacIntel,59.84082341,638a8c63c74f91261108cebf,64d2fd46c836a06233681665,64dc7b502356a55c9dfbb6dd,,,,,,,decisionTrl,resources/DR.BMP,resources/DP.BMP,Door4,0.313842502,0.039930962,1,0,0,0.5164,optionRight,80,12510,6,9,0,9,0,1,,,,,,,,,,,,,,,,,,,,,,,,,,,,,,,,,,,,,,,
,,,,,,,,2023-08-16_08h32.23.828,HF_wild_card,2022.2.4,MacIntel,59.84082341,638a8c63c74f91261108cebf,64d2fd46c836a06233681665,64dc7b502356a55c9dfbb6dd,,,,,,,decisionTrl,resources/DP.BMP,resources/DR.BMP,Door4,-0.28702813,0.003433702,1,0,0,0.5646,optionLeft,80,12590,6,10,0,10,0,1,,,,,,,,,,,,,,,,,,,,,,,,,,,,,,,,,,,,,,,
,,,,,,,,2023-08-16_08h32.23.828,HF_wild_card,2022.2.4,MacIntel,59.84082341,638a8c63c74f91261108cebf,64d2fd46c836a06233681665,64dc7b502356a55c9dfbb6dd,,,,,,,decisionTrl,resources/DB.BMP,resources/DG.BMP,Door1,-0.338673469,0.00607527,1,0,0,0.5007,optionLeft,30,12620,6,11,0,11,0,1,,,,,,,,,,,,,,,,,,,,,,,,,,,,,,,,,,,,,,,
,,,,,,,,2023-08-16_08h32.23.828,HF_wild_card,2022.2.4,MacIntel,59.84082341,638a8c63c74f91261108cebf,64d2fd46c836a06233681665,64dc7b502356a55c9dfbb6dd,,,,,,,decisionTrl,resources/DG.BMP,resources/DB.BMP,WildCard_Ex,-0.237571275,0.052929484,1,0,0,0.548,optionLeft,5,12625,6,12,0,12,0,1,,,,,,,,,,,,,,,,,,,,,,,,,,,,,,,,,,,,,,,
,,,,,,,,2023-08-16_08h32.23.828,HF_wild_card,2022.2.4,MacIntel,59.84082341,638a8c63c74f91261108cebf,64d2fd46c836a06233681665,64dc7b502356a55c9dfbb6dd,,,,,,,sngl,resources/DR.BMP,resources/Empty.png,Door3,-0.256867438,0.014556953,1,0,0,0.4653,optionLeft,70,12695,6,13,0,13,0,1,,,,,,,,,,,,,,,,,,,,,,,,,,,,,,,,,,,,,,,
,,,,,,,,2023-08-16_08h32.23.828,HF_wild_card,2022.2.4,MacIntel,59.84082341,638a8c63c74f91261108cebf,64d2fd46c836a06233681665,64dc7b502356a55c9dfbb6dd,,,,,,,sngl,resources/DP.BMP,resources/Empty.png,Door4,-0.27053616,0.00462009,1,0,0,0.4833,optionLeft,60,12755,6,14,0,14,0,1,,,,,,,,,,,,,,,,,,,,,,,,,,,,,,,,,,,,,,,
,,,,,,,,2023-08-16_08h32.23.828,HF_wild_card,2022.2.4,MacIntel,59.84082341,638a8c63c74f91261108cebf,64d2fd46c836a06233681665,64dc7b502356a55c9dfbb6dd,,,,,,,decisionTrl,resources/DBN.BMP,resources/DB.BMP,Door1,0.499091797,0.023281453,1,0,0,0.683,optionRight,30,12785,6,15,0,15,0,1,,,,,,,,,,,,,,,,,,,,,,,,,,,,,,,,,,,,,,,
,,,,,,,,2023-08-16_08h32.23.828,HF_wild_card,2022.2.4,MacIntel,59.84082341,638a8c63c74f91261108cebf,64d2fd46c836a06233681665,64dc7b502356a55c9dfbb6dd,,,,,,,decisionTrl,resources/DBN.BMP,resources/DG.BMP,WildCard_Ex,0.318013102,0.040780233,1,0,0,0.6356,optionRight,95,12880,6,16,0,16,0,1,,,,,,,,,,,,,,,,,,,,,,,,,,,,,,,,,,,,,,,
,,,,,,,,2023-08-16_08h32.23.828,HF_wild_card,2022.2.4,MacIntel,59.84082341,638a8c63c74f91261108cebf,64d2fd46c836a06233681665,64dc7b502356a55c9dfbb6dd,,,,,,,sngl,resources/Empty.png,resources/DG.BMP,WildCard_Ex,0.379103326,-0.00366333,1,0,0,0.5331,optionRight,5,12885,6,17,0,17,0,1,,,,,,,,,,,,,,,,,,,,,,,,,,,,,,,,,,,,,,,
,,,,,,,,2023-08-16_08h32.23.828,HF_wild_card,2022.2.4,MacIntel,59.84082341,638a8c63c74f91261108cebf,64d2fd46c836a06233681665,64dc7b502356a55c9dfbb6dd,,,,,,,decisionTrl,resources/DG.BMP,resources/DR.BMP,WildCard_Ex,-0.226817627,0.049482456,1,0,0,0.6672,optionLeft,95,12980,6,18,0,18,0,1,,,,,,,,,,,,,,,,,,,,,,,,,,,,,,,,,,,,,,,
,,,,,,,,2023-08-16_08h32.23.828,HF_wild_card,2022.2.4,MacIntel,59.84082341,638a8c63c74f91261108cebf,64d2fd46c836a06233681665,64dc7b502356a55c9dfbb6dd,,,,,,,sngl,resources/Empty.png,resources/DBN.BMP,Door2,0.279763116,0.131573181,1,0,0,0.5294,optionRight,40,13020,6,19,0,19,0,1,,,,,,,,,,,,,,,,,,,,,,,,,,,,,,,,,,,,,,,
,,,,,,,,2023-08-16_08h32.23.828,HF_wild_card,2022.2.4,MacIntel,59.84082341,638a8c63c74f91261108cebf,64d2fd46c836a06233681665,64dc7b502356a55c9dfbb6dd,,,,,,,sngl,resources/Empty.png,resources/DB.BMP,Door1,0.33112698,0.038938565,1,0,0,0.5299,optionRight,30,13050,6,20,0,20,0,1,,,,,,,,,,,,,,,,,,,,,,,,,,,,,,,,,,,,,,,
,,,,,,,,2023-08-16_08h32.23.828,HF_wild_card,2022.2.4,MacIntel,59.84082341,638a8c63c74f91261108cebf,64d2fd46c836a06233681665,64dc7b502356a55c9dfbb6dd,,,,,,,decisionTrl,resources/DG.BMP,resources/DBN.BMP,WildCard_Ex,-0.185612522,-0.018743354,1,0,0,0.4984,optionLeft,95,13145,6,21,0,21,0,1,,,,,,,,,,,,,,,,,,,,,,,,,,,,,,,,,,,,,,,
,,,,,,,,2023-08-16_08h32.23.828,HF_wild_card,2022.2.4,MacIntel,59.84082341,638a8c63c74f91261108cebf,64d2fd46c836a06233681665,64dc7b502356a55c9dfbb6dd,,,,,,,decisionTrl,resources/DR.BMP,resources/DP.BMP,Door4,0.269160563,0.003172472,1,0,0,0.5288,optionRight,60,13205,6,22,0,22,0,1,,,,,,,,,,,,,,,,,,,,,,,,,,,,,,,,,,,,,,,
,,,,,,,,2023-08-16_08h32.23.828,HF_wild_card,2022.2.4,MacIntel,59.84082341,638a8c63c74f91261108cebf,64d2fd46c836a06233681665,64dc7b502356a55c9dfbb6dd,,,,,,,decisionTrl,resources/DB.BMP,resources/DBN.BMP,Door1,-0.201800808,-0.004279107,1,0,0,0.5784,optionLeft,30,13235,6,23,0,23,0,1,,,,,,,,,,,,,,,,,,,,,,,,,,,,,,,,,,,,,,,
,,,,,,,,2023-08-16_08h32.23.828,HF_wild_card,2022.2.4,MacIntel,59.84082341,638a8c63c74f91261108cebf,64d2fd46c836a06233681665,64dc7b502356a55c9dfbb6dd,,,,,,,decisionTrl,resources/DBN.BMP,resources/DB.BMP,Door1,0.288368327,0.014769694,1,0,0,0.4477,optionRight,30,13265,6,24,0,24,0,1,,,,,,,,,,,,,,,,,,,,,,,,,,,,,,,,,,,,,,,
,,,,,,,,2023-08-16_08h32.23.828,HF_wild_card,2022.2.4,MacIntel,59.84082341,638a8c63c74f91261108cebf,64d2fd46c836a06233681665,64dc7b502356a55c9dfbb6dd,,,,,,,sngl,resources/DBN.BMP,resources/Empty.png,Door2,-0.259241469,0.004468316,1,0,0,0.7311,optionLeft,20,13285,6,25,0,25,0,1,,,,,,,,,,,,,,,,,,,,,,,,,,,,,,,,,,,,,,,
,,,,,,,,2023-08-16_08h32.23.828,HF_wild_card,2022.2.4,MacIntel,59.84082341,638a8c63c74f91261108cebf,64d2fd46c836a06233681665,64dc7b502356a55c9dfbb6dd,,,,,,,ctch,resources/DP.BMP,resources/DB.BMP,Door1,0.240232747,0.021759372,1,0,0,0.7818,optionRight,30,13315,6,26,0,26,0,1,,,,,,,,,,,,,,,,,,,,,,,,,,,,,,,,,,,,,,,
,,,,,,,,2023-08-16_08h32.23.828,HF_wild_card,2022.2.4,MacIntel,59.84082341,638a8c63c74f91261108cebf,64d2fd46c836a06233681665,64dc7b502356a55c9dfbb6dd,,,,,,,decisionTrl,resources/DB.BMP,resources/DBN.BMP,Door1,-0.237726983,-0.02066586,1,0,0,0.5491,optionLeft,30,13345,6,27,0,27,0,1,,,,,,,,,,,,,,,,,,,,,,,,,,,,,,,,,,,,,,,
,,,,,,,,2023-08-16_08h32.23.828,HF_wild_card,2022.2.4,MacIntel,59.84082341,638a8c63c74f91261108cebf,64d2fd46c836a06233681665,64dc7b502356a55c9dfbb6dd,,,,,,,decisionTrl,resources/DR.BMP,resources/DG.BMP,WildCard_Ex,0.366360677,0.02067454,1,0,0,1.1682,optionRight,5,13350,6,28,0,28,0,1,,,,,,,,,,,,,,,,,,,,,,,,,,,,,,,,,,,,,,,
,,,,,,,,2023-08-16_08h32.23.828,HF_wild_card,2022.2.4,MacIntel,59.84082341,638a8c63c74f91261108cebf,64d2fd46c836a06233681665,64dc7b502356a55c9dfbb6dd,,,,,,,decisionTrl,resources/DP.BMP,resources/DR.BMP,Door4,-0.450496351,-0.048498671,1,0,0,1.3005,optionLeft,80,13430,6,29,0,29,0,1,,,,,,,,,,,,,,,,,,,,,,,,,,,,,,,,,,,,,,,
,,,,,,,,2023-08-16_08h32.23.828,HF_wild_card,2022.2.4,MacIntel,59.84082341,638a8c63c74f91261108cebf,64d2fd46c836a06233681665,64dc7b502356a55c9dfbb6dd,,,,,,,sngl,resources/Empty.png,resources/DR.BMP,Door3,0.427060954,0.077231174,1,0,0,0.5325,optionRight,70,13500,6,30,0,30,0,1,,,,,,,,,,,,,,,,,,,,,,,,,,,,,,,,,,,,,,,
,,,,,,,,2023-08-16_08h32.23.828,HF_wild_card,2022.2.4,MacIntel,59.84082341,638a8c63c74f91261108cebf,64d2fd46c836a06233681665,64dc7b502356a55c9dfbb6dd,,,,,,,sngl,resources/Empty.png,resources/DG.BMP,WildCard_Ex,0.339354519,0.040546468,1,0,0,0.516,optionRight,95,13595,6,31,0,31,0,1,,,,,,,,,,,,,,,,,,,,,,,,,,,,,,,,,,,,,,,
,,,,,,,,2023-08-16_08h32.23.828,HF_wild_card,2022.2.4,MacIntel,59.84082341,638a8c63c74f91261108cebf,64d2fd46c836a06233681665,64dc7b502356a55c9dfbb6dd,,,,,,,ctch,resources/DP.BMP,resources/DB.BMP,Door4,-0.213969659,-0.010509915,1,0,0,0.7288,optionLeft,80,13675,6,32,0,32,0,1,,,,,,,,,,,,,,,,,,,,,,,,,,,,,,,,,,,,,,,
,,,,,,,,2023-08-16_08h32.23.828,HF_wild_card,2022.2.4,MacIntel,59.84082341,638a8c63c74f91261108cebf,64d2fd46c836a06233681665,64dc7b502356a55c9dfbb6dd,,,,,,,decisionTrl,resources/DB.BMP,resources/DBN.BMP,Door1,-0.333819105,0.026092428,1,0,0,0.6331,optionLeft,30,13705,6,33,0,33,0,1,,,,,,,,,,,,,,,,,,,,,,,,,,,,,,,,,,,,,,,
,,,,,,,,2023-08-16_08h32.23.828,HF_wild_card,2022.2.4,MacIntel,59.84082341,638a8c63c74f91261108cebf,64d2fd46c836a06233681665,64dc7b502356a55c9dfbb6dd,,,,,,,sngl,resources/DG.BMP,resources/Empty.png,WildCard_Ex,-0.274258728,-0.024137777,1,0,0,0.5137,optionLeft,95,13800,6,34,0,34,0,1,,,,,,,,,,,,,,,,,,,,,,,,,,,,,,,,,,,,,,,
,,,,,,,,2023-08-16_08h32.23.828,HF_wild_card,2022.2.4,MacIntel,59.84082341,638a8c63c74f91261108cebf,64d2fd46c836a06233681665,64dc7b502356a55c9dfbb6dd,,,,,,,decisionTrl,resources/DR.BMP,resources/DP.BMP,Door4,0.25095364,0.007849189,1,0,0,1.1185,optionRight,60,13860,6,35,0,35,0,1,,,,,,,,,,,,,,,,,,,,,,,,,,,,,,,,,,,,,,,
,,,,,,,,2023-08-16_08h32.23.828,HF_wild_card,2022.2.4,MacIntel,59.84082341,638a8c63c74f91261108cebf,64d2fd46c836a06233681665,64dc7b502356a55c9dfbb6dd,,,,,,,decisionTrl,resources/DP.BMP,resources/DR.BMP,Door4,-0.213231472,-0.02004876,1,0,0,0.5556,optionLeft,80,13940,6,36,0,36,0,1,,,,,,,,,,,,,,,,,,,,,,,,,,,,,,,,,,,,,,,
,,,,,,,,2023-08-16_08h32.23.828,HF_wild_card,2022.2.4,MacIntel,59.84082341,638a8c63c74f91261108cebf,64d2fd46c836a06233681665,64dc7b502356a55c9dfbb6dd,,,,,,,decisionTrl,resources/DBN.BMP,resources/DB.BMP,Door1,0.258476359,-0.005929871,1,0,0,0.5654,optionRight,30,13970,6,37,0,37,0,1,,,,,,,,,,,,,,,,,,,,,,,,,,,,,,,,,,,,,,,
,,,,,,,,2023-08-16_08h32.23.828,HF_wild_card,2022.2.4,MacIntel,59.84082341,638a8c63c74f91261108cebf,64d2fd46c836a06233681665,64dc7b502356a55c9dfbb6dd,,,,,,,decisionTrl,resources/DP.BMP,resources/DR.BMP,Door4,-0.266676636,0.002705349,1,0,0,0.5349,optionLeft,80,14050,6,38,0,38,0,1,,,,,,,,,,,,,,,,,,,,,,,,,,,,,,,,,,,,,,,
,,,,,,,,2023-08-16_08h32.23.828,HF_wild_card,2022.2.4,MacIntel,59.84082341,638a8c63c74f91261108cebf,64d2fd46c836a06233681665,64dc7b502356a55c9dfbb6dd,,,,,,,sngl,resources/Empty.png,resources/DP.BMP,Door4,0.342860786,0.017104458,1,0,0,0.5119,optionRight,80,14130,6,39,0,39,0,1,,,,,,,,,,,,,,,,,,,,,,,,,,,,,,,,,,,,,,,
,,,,,,,,2023-08-16_08h32.23.828,HF_wild_card,2022.2.4,MacIntel,59.84082341,638a8c63c74f91261108cebf,64d2fd46c836a06233681665,64dc7b502356a55c9dfbb6dd,,,,,,,decisionTrl,resources/DR.BMP,resources/DP.BMP,Door4,0.426769477,0.038459676,1,0,0,0.6357,optionRight,80,14210,6,40,0,40,0,1,,,,,,,,,,,,,,,,,,,,,,,,,,,,,,,,,,,,,,,
,,,,,,,,2023-08-16_08h32.23.828,HF_wild_card,2022.2.4,MacIntel,59.84082341,638a8c63c74f91261108cebf,64d2fd46c836a06233681665,64dc7b502356a55c9dfbb6dd,,,,,,,ctch,resources/DB.BMP,resources/DP.BMP,Door4,0.388684489,0.086415643,1,0,0,0.5979,optionRight,60,14270,6,41,0,41,0,1,,,,,,,,,,,,,,,,,,,,,,,,,,,,,,,,,,,,,,,
,,,,,,,,2023-08-16_08h32.23.828,HF_wild_card,2022.2.4,MacIntel,59.84082341,638a8c63c74f91261108cebf,64d2fd46c836a06233681665,64dc7b502356a55c9dfbb6dd,,,,,,,ctch,resources/DBN.BMP,resources/DR.BMP,Door3,0.363336589,0.009785394,1,0,0,0.533,optionRight,70,14340,6,42,0,42,0,1,,,,,,,,,,,,,,,,,,,,,,,,,,,,,,,,,,,,,,,
,,,,,,,,2023-08-16_08h32.23.828,HF_wild_card,2022.2.4,MacIntel,59.84082341,638a8c63c74f91261108cebf,64d2fd46c836a06233681665,64dc7b502356a55c9dfbb6dd,,,,,,,decisionTrl,resources/DBN.BMP,resources/DB.BMP,Door1,0.379863553,0.025757785,1,0,0,0.5649,optionRight,30,14370,6,43,0,43,0,1,,,,,,,,,,,,,,,,,,,,,,,,,,,,,,,,,,,,,,,
,,,,,,,,2023-08-16_08h32.23.828,HF_wild_card,2022.2.4,MacIntel,59.84082341,638a8c63c74f91261108cebf,64d2fd46c836a06233681665,64dc7b502356a55c9dfbb6dd,,,,,,,,,,,,,,,,,,,,,,,,,,5,0,5,0,1,,,,,,,,,,,,,,,,,,,,,,,,,,,,,,,,,,
,,,,,,,,2023-08-16_08h32.23.828,HF_wild_card,2022.2.4,MacIntel,59.84082341,638a8c63c74f91261108cebf,64d2fd46c836a06233681665,64dc7b502356a55c9dfbb6dd,,,,,,,decisionTrl,resources/DP.BMP,resources/DR.BMP,Door4,-0.23925415,-0.061585897,1,0,0,0.6134,optionLeft,60,14430,7,0,0,0,0,1,,,,,,,,,,,,,,,,,,,,,,,,,,,,,,,,,,,,,,,
,,,,,,,,2023-08-16_08h32.23.828,HF_wild_card,2022.2.4,MacIntel,59.84082341,638a8c63c74f91261108cebf,64d2fd46c836a06233681665,64dc7b502356a55c9dfbb6dd,,,,,,,ctch,resources/DBN.BMP,resources/DR.BMP,Door3,0.389086643,-0.026515367,1,0,0,0.5674,optionRight,70,14500,7,1,0,1,0,1,,,,,,,,,,,,,,,,,,,,,,,,,,,,,,,,,,,,,,,
,,,,,,,,2023-08-16_08h32.23.828,HF_wild_card,2022.2.4,MacIntel,59.84082341,638a8c63c74f91261108cebf,64d2fd46c836a06233681665,64dc7b502356a55c9dfbb6dd,,,,,,,decisionTrl,resources/DB.BMP,resources/DBN.BMP,Door1,-0.306414693,-0.036834039,1,0,0,0.5349,optionLeft,30,14530,7,2,0,2,0,1,,,,,,,,,,,,,,,,,,,,,,,,,,,,,,,,,,,,,,,
,,,,,,,,2023-08-16_08h32.23.828,HF_wild_card,2022.2.4,MacIntel,59.84082341,638a8c63c74f91261108cebf,64d2fd46c836a06233681665,64dc7b502356a55c9dfbb6dd,,,,,,,decisionTrl,resources/DBN.BMP,resources/DB.BMP,Door1,0.25787991,0.007577549,1,0,0,0.5188,optionRight,30,14560,7,3,0,3,0,1,,,,,,,,,,,,,,,,,,,,,,,,,,,,,,,,,,,,,,,
,,,,,,,,2023-08-16_08h32.23.828,HF_wild_card,2022.2.4,MacIntel,59.84082341,638a8c63c74f91261108cebf,64d2fd46c836a06233681665,64dc7b502356a55c9dfbb6dd,,,,,,,decisionTrl,resources/DBN.BMP,resources/DB.BMP,Door1,0.296512994,0.002008667,1,0,0,0.5152,optionRight,30,14590,7,4,0,4,0,1,,,,,,,,,,,,,,,,,,,,,,,,,,,,,,,,,,,,,,,
,,,,,,,,2023-08-16_08h32.23.828,HF_wild_card,2022.2.4,MacIntel,59.84082341,638a8c63c74f91261108cebf,64d2fd46c836a06233681665,64dc7b502356a55c9dfbb6dd,,,,,,,decisionTrl,resources/DBN.BMP,resources/DB.BMP,Door1,0.273844944,0.0001867,1,0,0,0.3994,optionRight,30,14620,7,5,0,5,0,1,,,,,,,,,,,,,,,,,,,,,,,,,,,,,,,,,,,,,,,
,,,,,,,,2023-08-16_08h32.23.828,HF_wild_card,2022.2.4,MacIntel,59.84082341,638a8c63c74f91261108cebf,64d2fd46c836a06233681665,64dc7b502356a55c9dfbb6dd,,,,,,,decisionTrl,resources/DP.BMP,resources/DR.BMP,Door4,-0.322864516,-0.021223551,1,0,0,1.0499,optionLeft,60,14680,7,6,0,6,0,1,,,,,,,,,,,,,,,,,,,,,,,,,,,,,,,,,,,,,,,
,,,,,,,,2023-08-16_08h32.23.828,HF_wild_card,2022.2.4,MacIntel,59.84082341,638a8c63c74f91261108cebf,64d2fd46c836a06233681665,64dc7b502356a55c9dfbb6dd,,,,,,,ctch,resources/DR.BMP,resources/DBN.BMP,Door3,-0.231014472,-0.014109531,1,0,0,0.6489,optionLeft,70,14750,7,7,0,7,0,1,,,,,,,,,,,,,,,,,,,,,,,,,,,,,,,,,,,,,,,
,,,,,,,,2023-08-16_08h32.23.828,HF_wild_card,2022.2.4,MacIntel,59.84082341,638a8c63c74f91261108cebf,64d2fd46c836a06233681665,64dc7b502356a55c9dfbb6dd,,,,,,,ctch,resources/DB.BMP,resources/DP.BMP,Door4,0.320239665,-0.013668891,1,0,0,0.7161,optionRight,60,14810,7,8,0,8,0,1,,,,,,,,,,,,,,,,,,,,,,,,,,,,,,,,,,,,,,,
,,,,,,,,2023-08-16_08h32.23.828,HF_wild_card,2022.2.4,MacIntel,59.84082341,638a8c63c74f91261108cebf,64d2fd46c836a06233681665,64dc7b502356a55c9dfbb6dd,,,,,,,decisionTrl,resources/DR.BMP,resources/DP.BMP,Door4,0.333644952,0.024394328,1,0,0,0.7342,optionRight,60,14870,7,9,0,9,0,1,,,,,,,,,,,,,,,,,,,,,,,,,,,,,,,,,,,,,,,
,,,,,,,,2023-08-16_08h32.23.828,HF_wild_card,2022.2.4,MacIntel,59.84082341,638a8c63c74f91261108cebf,64d2fd46c836a06233681665,64dc7b502356a55c9dfbb6dd,,,,,,,decisionTrl,resources/DB.BMP,resources/DBN.BMP,Door1,-0.236613464,-0.005267843,1,0,0,0.6486,optionLeft,30,14900,7,10,0,10,0,1,,,,,,,,,,,,,,,,,,,,,,,,,,,,,,,,,,,,,,,
,,,,,,,,2023-08-16_08h32.23.828,HF_wild_card,2022.2.4,MacIntel,59.84082341,638a8c63c74f91261108cebf,64d2fd46c836a06233681665,64dc7b502356a55c9dfbb6dd,,,,,,,ctch,resources/DBN.BMP,resources/DR.BMP,Door3,0.368324517,0.011643304,1,0,0,0.5325,optionRight,70,14970,7,11,0,11,0,1,,,,,,,,,,,,,,,,,,,,,,,,,,,,,,,,,,,,,,,
,,,,,,,,2023-08-16_08h32.23.828,HF_wild_card,2022.2.4,MacIntel,59.84082341,638a8c63c74f91261108cebf,64d2fd46c836a06233681665,64dc7b502356a55c9dfbb6dd,,,,,,,decisionTrl,resources/DBN.BMP,resources/DB.BMP,Door1,0.275970595,0.020554776,1,0,0,0.5847,optionRight,30,15000,7,12,0,12,0,1,,,,,,,,,,,,,,,,,,,,,,,,,,,,,,,,,,,,,,,
,,,,,,,,2023-08-16_08h32.23.828,HF_wild_card,2022.2.4,MacIntel,59.84082341,638a8c63c74f91261108cebf,64d2fd46c836a06233681665,64dc7b502356a55c9dfbb6dd,,,,,,,decisionTrl,resources/DR.BMP,resources/DP.BMP,Door4,0.309440511,0.009906175,1,0,0,0.801,optionRight,80,15080,7,13,0,13,0,1,,,,,,,,,,,,,,,,,,,,,,,,,,,,,,,,,,,,,,,
,,,,,,,,2023-08-16_08h32.23.828,HF_wild_card,2022.2.4,MacIntel,59.84082341,638a8c63c74f91261108cebf,64d2fd46c836a06233681665,64dc7b502356a55c9dfbb6dd,,,,,,,decisionTrl,resources/DR.BMP,resources/DP.BMP,Door4,0.356322971,0.043259277,1,0,0,0.5505,optionRight,60,15140,7,14,0,14,0,1,,,,,,,,,,,,,,,,,,,,,,,,,,,,,,,,,,,,,,,
,,,,,,,,2023-08-16_08h32.23.828,HF_wild_card,2022.2.4,MacIntel,59.84082341,638a8c63c74f91261108cebf,64d2fd46c836a06233681665,64dc7b502356a55c9dfbb6dd,,,,,,,decisionTrl,resources/DB.BMP,resources/DBN.BMP,Door1,-0.21360277,0.010993042,1,0,0,0.631,optionLeft,30,15170,7,15,0,15,0,1,,,,,,,,,,,,,,,,,,,,,,,,,,,,,,,,,,,,,,,
,,,,,,,,2023-08-16_08h32.23.828,HF_wild_card,2022.2.4,MacIntel,59.84082341,638a8c63c74f91261108cebf,64d2fd46c836a06233681665,64dc7b502356a55c9dfbb6dd,,,,,,,ctch,resources/DP.BMP,resources/DB.BMP,Door4,-0.265423787,-0.041732042,1,0,0,1.0021,optionLeft,80,15250,7,16,0,16,0,1,,,,,,,,,,,,,,,,,,,,,,,,,,,,,,,,,,,,,,,
,,,,,,,,2023-08-16_08h32.23.828,HF_wild_card,2022.2.4,MacIntel,59.84082341,638a8c63c74f91261108cebf,64d2fd46c836a06233681665,64dc7b502356a55c9dfbb6dd,,,,,,,decisionTrl,resources/DR.BMP,resources/DP.BMP,Door4,0.335580377,-0.009239638,1,0,0,0.6846,optionRight,60,15310,7,17,0,17,0,1,,,,,,,,,,,,,,,,,,,,,,,,,,,,,,,,,,,,,,,
,,,,,,,,2023-08-16_08h32.23.828,HF_wild_card,2022.2.4,MacIntel,59.84082341,638a8c63c74f91261108cebf,64d2fd46c836a06233681665,64dc7b502356a55c9dfbb6dd,,,,,,,ctch,resources/DR.BMP,resources/DBN.BMP,Door3,-0.328682794,0.006165907,1,0,0,0.684,optionLeft,70,15380,7,18,0,18,0,1,,,,,,,,,,,,,,,,,,,,,,,,,,,,,,,,,,,,,,,
,,,,,,,,2023-08-16_08h32.23.828,HF_wild_card,2022.2.4,MacIntel,59.84082341,638a8c63c74f91261108cebf,64d2fd46c836a06233681665,64dc7b502356a55c9dfbb6dd,,,,,,,ctch,resources/DP.BMP,resources/DB.BMP,Door4,-0.334178535,-0.004792141,1,0,0,0.8701,optionLeft,80,15460,7,19,0,19,0,1,,,,,,,,,,,,,,,,,,,,,,,,,,,,,,,,,,,,,,,
,,,,,,,,2023-08-16_08h32.23.828,HF_wild_card,2022.2.4,MacIntel,59.84082341,638a8c63c74f91261108cebf,64d2fd46c836a06233681665,64dc7b502356a55c9dfbb6dd,,,,,,,ctch,resources/DB.BMP,resources/DP.BMP,Door4,0.362810059,-0.042350362,1,0,0,0.6001,optionRight,80,15540,7,20,0,20,0,1,,,,,,,,,,,,,,,,,,,,,,,,,,,,,,,,,,,,,,,
,,,,,,,,2023-08-16_08h32.23.828,HF_wild_card,2022.2.4,MacIntel,59.84082341,638a8c63c74f91261108cebf,64d2fd46c836a06233681665,64dc7b502356a55c9dfbb6dd,,,,,,,decisionTrl,resources/DB.BMP,resources/DBN.BMP,Door1,-0.338925442,0.020865004,1,0,0,0.5321,optionLeft,30,15570,7,21,0,21,0,1,,,,,,,,,,,,,,,,,,,,,,,,,,,,,,,,,,,,,,,
,,,,,,,,2023-08-16_08h32.23.828,HF_wild_card,2022.2.4,MacIntel,59.84082341,638a8c63c74f91261108cebf,64d2fd46c836a06233681665,64dc7b502356a55c9dfbb6dd,,,,,,,decisionTrl,resources/DR.BMP,resources/DP.BMP,Door4,0.368939887,0.020499742,1,0,0,0.551,optionRight,60,15630,7,22,0,22,0,1,,,,,,,,,,,,,,,,,,,,,,,,,,,,,,,,,,,,,,,
,,,,,,,,2023-08-16_08h32.23.828,HF_wild_card,2022.2.4,MacIntel,59.84082341,638a8c63c74f91261108cebf,64d2fd46c836a06233681665,64dc7b502356a55c9dfbb6dd,,,,,,,ctch,resources/DBN.BMP,resources/DR.BMP,Door3,0.320531074,-0.009033746,1,0,0,0.5826,optionRight,70,15700,7,23,0,23,0,1,,,,,,,,,,,,,,,,,,,,,,,,,,,,,,,,,,,,,,,
,,,,,,,,2023-08-16_08h32.23.828,HF_wild_card,2022.2.4,MacIntel,59.84082341,638a8c63c74f91261108cebf,64d2fd46c836a06233681665,64dc7b502356a55c9dfbb6dd,,,,,,,ctch,resources/DR.BMP,resources/DBN.BMP,Door3,-0.278885396,0.000792779,1,0,0,0.5168,optionLeft,70,15770,7,24,0,24,0,1,,,,,,,,,,,,,,,,,,,,,,,,,,,,,,,,,,,,,,,
,,,,,,,,2023-08-16_08h32.23.828,HF_wild_card,2022.2.4,MacIntel,59.84082341,638a8c63c74f91261108cebf,64d2fd46c836a06233681665,64dc7b502356a55c9dfbb6dd,,,,,,,ctch,resources/DP.BMP,resources/DB.BMP,Door4,-0.313338691,0.029657796,1,0,0,0.6988,optionLeft,80,15850,7,25,0,25,0,1,,,,,,,,,,,,,,,,,,,,,,,,,,,,,,,,,,,,,,,
,,,,,,,,2023-08-16_08h32.23.828,HF_wild_card,2022.2.4,MacIntel,59.84082341,638a8c63c74f91261108cebf,64d2fd46c836a06233681665,64dc7b502356a55c9dfbb6dd,,,,,,,decisionTrl,resources/DP.BMP,resources/DR.BMP,Door4,-0.397838677,0.07959215,1,0,0,0.783,optionLeft,80,15930,7,26,0,26,0,1,,,,,,,,,,,,,,,,,,,,,,,,,,,,,,,,,,,,,,,
,,,,,,,,2023-08-16_08h32.23.828,HF_wild_card,2022.2.4,MacIntel,59.84082341,638a8c63c74f91261108cebf,64d2fd46c836a06233681665,64dc7b502356a55c9dfbb6dd,,,,,,,decisionTrl,resources/DP.BMP,resources/DR.BMP,Door4,-0.310869276,0.004495036,1,0,0,0.7327,optionLeft,80,16010,7,27,0,27,0,1,,,,,,,,,,,,,,,,,,,,,,,,,,,,,,,,,,,,,,,
,,,,,,,,2023-08-16_08h32.23.828,HF_wild_card,2022.2.4,MacIntel,59.84082341,638a8c63c74f91261108cebf,64d2fd46c836a06233681665,64dc7b502356a55c9dfbb6dd,,,,,,,decisionTrl,resources/DB.BMP,resources/DBN.BMP,Door1,-0.279369778,0.010638733,1,0,0,0.551,optionLeft,30,16040,7,28,0,28,0,1,,,,,,,,,,,,,,,,,,,,,,,,,,,,,,,,,,,,,,,
,,,,,,,,2023-08-16_08h32.23.828,HF_wild_card,2022.2.4,MacIntel,59.84082341,638a8c63c74f91261108cebf,64d2fd46c836a06233681665,64dc7b502356a55c9dfbb6dd,,,,,,,decisionTrl,resources/DR.BMP,resources/DP.BMP,Door4,0.43879069,0.028083259,1,0,0,0.6153,optionRight,80,16120,7,29,0,29,0,1,,,,,,,,,,,,,,,,,,,,,,,,,,,,,,,,,,,,,,,
,,,,,,,,2023-08-16_08h32.23.828,HF_wild_card,2022.2.4,MacIntel,59.84082341,638a8c63c74f91261108cebf,64d2fd46c836a06233681665,64dc7b502356a55c9dfbb6dd,,,,,,,ctch,resources/DB.BMP,resources/DP.BMP,Door4,0.422518311,0.02546224,1,0,0,0.5815,optionRight,80,16200,7,30,0,30,0,1,,,,,,,,,,,,,,,,,,,,,,,,,,,,,,,,,,,,,,,
,,,,,,,,2023-08-16_08h32.23.828,HF_wild_card,2022.2.4,MacIntel,59.84082341,638a8c63c74f91261108cebf,64d2fd46c836a06233681665,64dc7b502356a55c9dfbb6dd,,,,,,,decisionTrl,resources/DBN.BMP,resources/DB.BMP,Door1,0.384474013,0.005221761,1,0,0,0.6353,optionRight,30,16230,7,31,0,31,0,1,,,,,,,,,,,,,,,,,,,,,,,,,,,,,,,,,,,,,,,
,,,,,,,,2023-08-16_08h32.23.828,HF_wild_card,2022.2.4,MacIntel,59.84082341,638a8c63c74f91261108cebf,64d2fd46c836a06233681665,64dc7b502356a55c9dfbb6dd,,,,,,,decisionTrl,resources/DP.BMP,resources/DR.BMP,Door4,-0.34637302,-0.026504144,1,0,0,0.6661,optionLeft,60,16290,7,32,0,32,0,1,,,,,,,,,,,,,,,,,,,,,,,,,,,,,,,,,,,,,,,
,,,,,,,,2023-08-16_08h32.23.828,HF_wild_card,2022.2.4,MacIntel,59.84082341,638a8c63c74f91261108cebf,64d2fd46c836a06233681665,64dc7b502356a55c9dfbb6dd,,,,,,,decisionTrl,resources/DBN.BMP,resources/DB.BMP,Door1,0.464723036,-0.011483256,1,0,0,0.5476,optionRight,30,16320,7,33,0,33,0,1,,,,,,,,,,,,,,,,,,,,,,,,,,,,,,,,,,,,,,,
,,,,,,,,2023-08-16_08h32.23.828,HF_wild_card,2022.2.4,MacIntel,59.84082341,638a8c63c74f91261108cebf,64d2fd46c836a06233681665,64dc7b502356a55c9dfbb6dd,,,,,,,decisionTrl,resources/DP.BMP,resources/DR.BMP,Door4,-0.282216593,-0.045854289,1,0,0,0.748,optionLeft,80,16400,7,34,0,34,0,1,,,,,,,,,,,,,,,,,,,,,,,,,,,,,,,,,,,,,,,
,,,,,,,,2023-08-16_08h32.23.828,HF_wild_card,2022.2.4,MacIntel,59.84082341,638a8c63c74f91261108cebf,64d2fd46c836a06233681665,64dc7b502356a55c9dfbb6dd,,,,,,,decisionTrl,resources/DB.BMP,resources/DBN.BMP,Door1,-0.366426392,-0.009463976,1,0,0,0.565,optionLeft,30,16430,7,35,0,35,0,1,,,,,,,,,,,,,,,,,,,,,,,,,,,,,,,,,,,,,,,
,,,,,,,,2023-08-16_08h32.23.828,HF_wild_card,2022.2.4,MacIntel,59.84082341,638a8c63c74f91261108cebf,64d2fd46c836a06233681665,64dc7b502356a55c9dfbb6dd,,,,,,,,,,,,,,,,,,,,,,,,,,6,0,6,0,1,,,,,,,,,,,,,,,,,,,,,,,,,,,,,,,,,,
,,,,,,,,2023-08-16_08h32.23.828,HF_wild_card,2022.2.4,MacIntel,59.84082341,638a8c63c74f91261108cebf,64d2fd46c836a06233681665,64dc7b502356a55c9dfbb6dd,,,,,,,,,,,,,,,,,,,,,,,,,,,,,,,4,,,,,,,,,,,,,,,,,,,,,,,,,,,,,,,,,
,,,,,,,,2023-08-16_08h32.23.828,HF_wild_card,2022.2.4,MacIntel,59.84082341,638a8c63c74f91261108cebf,64d2fd46c836a06233681665,64dc7b502356a55c9dfbb6dd,,,,,,,,,,,,,,,,,,,,,,,,,,,,,,,,,,,,,,,,,,,,,,,,,,,,,,,,,,,,,,,,
,,,,,,,,2023-08-16_08h32.23.828,HF_wild_card,2022.2.4,MacIntel,59.84082341,638a8c63c74f91261108cebf,64d2fd46c836a06233681665,64dc7b502356a55c9dfbb6dd,,,,,,,,,,,,,,,,,,,,,,,,,,,,,,,,80,Door4,resources/DP.BMP,0,0,0,0,1,,,,,,,,,,,,,,,,,,,,,,,,,
,,,,,,,,2023-08-16_08h32.23.828,HF_wild_card,2022.2.4,MacIntel,59.84082341,638a8c63c74f91261108cebf,64d2fd46c836a06233681665,64dc7b502356a55c9dfbb6dd,,,,,,,,,,,,,,,,,,,,,,,,,,,,,,,,70,WC_nonExtreme,resources/DY.BMP,1,0,1,0,1,,,,,,,,,,,,,,,,,,,,,,,,,
,,,,,,,,2023-08-16_08h32.23.828,HF_wild_card,2022.2.4,MacIntel,59.84082341,638a8c63c74f91261108cebf,64d2fd46c836a06233681665,64dc7b502356a55c9dfbb6dd,,,,,,,,,,,,,,,,,,,,,,,,,,,,,,,,95,WC_extreme,resources/DG.BMP,2,0,2,0,1,,,,,,,,,,,,,,,,,,,,,,,,,
