Condition,Low fixed image (Door1),Low risky image (Door2),High fixed image (Door3),High risky image (Door4),Extreme Wild Card,NonExtreme Wild Card,,date,expName,psychopyVersion,OS,frameRate,PROLIFIC_PID,STUDY_ID,SESSION_ID,mouse_2.x,mouse_2.y,mouse_2.leftButton,mouse_2.midButton,mouse_2.rightButton,mouse_2.clicked_name,Trial Type,Left Option Image,Right Option Image,Chosen Door,mouse.x,mouse.y,mouse.leftButton,mouse.midButton,mouse.rightButton,mouse.time,mouse.clicked_name,Feedback,Cumulative Reward,Block,trial.thisRepN,trial.thisTrialN,trial.thisN,trial.thisIndex,trial.ran,blocks.thisRepN,blocks.thisTrialN,blocks.thisN,blocks.thisIndex,blocks.ran
1,resources/DB.BMP,resources/DP.BMP,resources/DBN.BMP,resources/DG.BMP,resources/DR.BMP,resources/DY.BMP,,2023-08-16_09h25.14.724,HF_wild_card,2022.2.4,Linux armv81,120.3514262,63d650bb391dd8bb01d022ef,64d2fd46c836a06233681665,64dc79ccf9491dfdd0be8962,,,,,,,,,,,,,,,,,,,,,,,,,,,,,,
,,,,,,,,2023-08-16_09h25.14.724,HF_wild_card,2022.2.4,Linux armv81,120.3514262,63d650bb391dd8bb01d022ef,64d2fd46c836a06233681665,64dc79ccf9491dfdd0be8962,-0.019287149,-0.405843099,1,0,0,agree,,,,,,,,,,,,,,,,,,,,,,,,
,,,,,,,,2023-08-16_09h25.14.724,HF_wild_card,2022.2.4,Linux armv81,120.3514262,63d650bb391dd8bb01d022ef,64d2fd46c836a06233681665,64dc79ccf9491dfdd0be8962,,,,,,,,,,,,,,,,,,,,,,,,,,,,,,
,,,,,,,,2023-08-16_09h25.14.724,HF_wild_card,2022.2.4,Linux armv81,120.3514262,63d650bb391dd8bb01d022ef,64d2fd46c836a06233681665,64dc79ccf9491dfdd0be8962,,,,,,,sngl,resources/DG.BMP,resources/Empty.png,Door4,-0.268310547,-0.05559063,1,0,0,1.0117,optionLeft,80,80,1,0,0,0,0,1,,,,,
,,,,,,,,2023-08-16_09h25.14.724,HF_wild_card,2022.2.4,Linux armv81,120.3514262,63d650bb391dd8bb01d022ef,64d2fd46c836a06233681665,64dc79ccf9491dfdd0be8962,,,,,,,decisionTrl,resources/DP.BMP,resources/DB.BMP,Door2,-0.36352542,0.000428836,1,0,0,1.1848,optionLeft,20,100,1,1,0,1,0,1,,,,,
,,,,,,,,2023-08-16_09h25.14.724,HF_wild_card,2022.2.4,Linux armv81,120.3514262,63d650bb391dd8bb01d022ef,64d2fd46c836a06233681665,64dc79ccf9491dfdd0be8962,,,,,,,decisionTrl,resources/DY.BMP,resources/DP.BMP,Door2,0.357910156,0.00147589,1,0,0,0.5171,optionRight,40,140,1,2,0,2,0,1,,,,,
,,,,,,,,2023-08-16_09h25.14.724,HF_wild_card,2022.2.4,Linux armv81,120.3514262,63d650bb391dd8bb01d022ef,64d2fd46c836a06233681665,64dc79ccf9491dfdd0be8962,,,,,,,ctch,resources/DBN.BMP,resources/DP.BMP,Door3,-0.3984375,-0.001665354,1,0,0,0.4584,optionLeft,70,210,1,3,0,3,0,1,,,,,
,,,,,,,,2023-08-16_09h25.14.724,HF_wild_card,2022.2.4,Linux armv81,120.3514262,63d650bb391dd8bb01d022ef,64d2fd46c836a06233681665,64dc79ccf9491dfdd0be8962,,,,,,,decisionTrl,resources/DB.BMP,resources/DY.BMP,WildCard_NonEx,0.279785156,0.046500762,1,0,0,0.468,optionRight,45,255,1,4,0,4,0,1,,,,,
,,,,,,,,2023-08-16_09h25.14.724,HF_wild_card,2022.2.4,Linux armv81,120.3514262,63d650bb391dd8bb01d022ef,64d2fd46c836a06233681665,64dc79ccf9491dfdd0be8962,,,,,,,decisionTrl,resources/DY.BMP,resources/DBN.BMP,Door3,0.340332031,0.034459273,1,0,0,0.4913,optionRight,70,325,1,5,0,5,0,1,,,,,
,,,,,,,,2023-08-16_09h25.14.724,HF_wild_card,2022.2.4,Linux armv81,120.3514262,63d650bb391dd8bb01d022ef,64d2fd46c836a06233681665,64dc79ccf9491dfdd0be8962,,,,,,,decisionTrl,resources/DG.BMP,resources/DBN.BMP,Door4,-0.388916016,0.000952323,1,0,0,0.4941,optionLeft,60,385,1,6,0,6,0,1,,,,,
,,,,,,,,2023-08-16_09h25.14.724,HF_wild_card,2022.2.4,Linux armv81,120.3514262,63d650bb391dd8bb01d022ef,64d2fd46c836a06233681665,64dc79ccf9491dfdd0be8962,,,,,,,decisionTrl,resources/DP.BMP,resources/DB.BMP,Door1,0.314697266,0.031318029,1,0,0,0.4687,optionRight,30,415,1,7,0,7,0,1,,,,,
,,,,,,,,2023-08-16_09h25.14.724,HF_wild_card,2022.2.4,Linux armv81,120.3514262,63d650bb391dd8bb01d022ef,64d2fd46c836a06233681665,64dc79ccf9491dfdd0be8962,,,,,,,sngl,resources/Empty.png,resources/DY.BMP,WildCard_NonEx,0.289794922,-9.47316E-05,1,0,0,0.4695,optionRight,45,460,1,8,0,8,0,1,,,,,
,,,,,,,,2023-08-16_09h25.14.724,HF_wild_card,2022.2.4,Linux armv81,120.3514262,63d650bb391dd8bb01d022ef,64d2fd46c836a06233681665,64dc79ccf9491dfdd0be8962,,,,,,,sngl,resources/Empty.png,resources/DB.BMP,Door1,0.295410156,0.022941271,1,0,0,0.4014,optionRight,30,490,1,9,0,9,0,1,,,,,
,,,,,,,,2023-08-16_09h25.14.724,HF_wild_card,2022.2.4,Linux armv81,120.3514262,63d650bb391dd8bb01d022ef,64d2fd46c836a06233681665,64dc79ccf9491dfdd0be8962,,,,,,,sngl,resources/Empty.png,resources/DG.BMP,Door4,0.3125,-0.021036545,1,0,0,0.4515,optionRight,60,550,1,10,0,10,0,1,,,,,
,,,,,,,,2023-08-16_09h25.14.724,HF_wild_card,2022.2.4,Linux armv81,120.3514262,63d650bb391dd8bb01d022ef,64d2fd46c836a06233681665,64dc79ccf9491dfdd0be8962,,,,,,,decisionTrl,resources/DP.BMP,resources/DB.BMP,Door2,-0.374511729,-0.05349644,1,0,0,0.5375,optionLeft,20,570,1,11,0,11,0,1,,,,,
,,,,,,,,2023-08-16_09h25.14.724,HF_wild_card,2022.2.4,Linux armv81,120.3514262,63d650bb391dd8bb01d022ef,64d2fd46c836a06233681665,64dc79ccf9491dfdd0be8962,,,,,,,decisionTrl,resources/DG.BMP,resources/DY.BMP,WildCard_NonEx,0.330322266,0.032365084,1,0,0,0.3545,optionRight,55,625,1,12,0,12,0,1,,,,,
,,,,,,,,2023-08-16_09h25.14.724,HF_wild_card,2022.2.4,Linux armv81,120.3514262,63d650bb391dd8bb01d022ef,64d2fd46c836a06233681665,64dc79ccf9491dfdd0be8962,,,,,,,decisionTrl,resources/DBN.BMP,resources/DG.BMP,Door3,-0.366455108,-0.017371734,1,0,0,0.3368,optionLeft,70,695,1,13,0,13,0,1,,,,,
,,,,,,,,2023-08-16_09h25.14.724,HF_wild_card,2022.2.4,Linux armv81,120.3514262,63d650bb391dd8bb01d022ef,64d2fd46c836a06233681665,64dc79ccf9491dfdd0be8962,,,,,,,ctch,resources/DG.BMP,resources/DB.BMP,Door1,0.33984375,0.020323435,1,0,0,0.3191,optionRight,30,725,1,14,0,14,0,1,,,,,
,,,,,,,,2023-08-16_09h25.14.724,HF_wild_card,2022.2.4,Linux armv81,120.3514262,63d650bb391dd8bb01d022ef,64d2fd46c836a06233681665,64dc79ccf9491dfdd0be8962,,,,,,,decisionTrl,resources/DBN.BMP,resources/DG.BMP,Door3,-0.367431651,-0.033601681,1,0,0,0.333,optionLeft,70,795,1,15,0,15,0,1,,,,,
,,,,,,,,2023-08-16_09h25.14.724,HF_wild_card,2022.2.4,Linux armv81,120.3514262,63d650bb391dd8bb01d022ef,64d2fd46c836a06233681665,64dc79ccf9491dfdd0be8962,,,,,,,decisionTrl,resources/DB.BMP,resources/DP.BMP,Door2,0.319824219,0.042835951,1,0,0,0.3522,optionRight,40,835,1,16,0,16,0,1,,,,,
,,,,,,,,2023-08-16_09h25.14.724,HF_wild_card,2022.2.4,Linux armv81,120.3514262,63d650bb391dd8bb01d022ef,64d2fd46c836a06233681665,64dc79ccf9491dfdd0be8962,,,,,,,sngl,resources/Empty.png,resources/DBN.BMP,Door3,0.232666016,-0.003759543,1,0,0,0.576,optionRight,70,905,1,17,0,17,0,1,,,,,
,,,,,,,,2023-08-16_09h25.14.724,HF_wild_card,2022.2.4,Linux armv81,120.3514262,63d650bb391dd8bb01d022ef,64d2fd46c836a06233681665,64dc79ccf9491dfdd0be8962,,,,,,,sngl,resources/Empty.png,resources/DP.BMP,Door2,0.237792969,0.031318029,1,0,0,0.3155,optionRight,20,925,1,18,0,18,0,1,,,,,
,,,,,,,,2023-08-16_09h25.14.724,HF_wild_card,2022.2.4,Linux armv81,120.3514262,63d650bb391dd8bb01d022ef,64d2fd46c836a06233681665,64dc79ccf9491dfdd0be8962,,,,,,,decisionTrl,resources/DBN.BMP,resources/DG.BMP,Door3,-0.337646494,-0.072344065,1,0,0,0.4963,optionLeft,70,995,1,19,0,19,0,1,,,,,
,,,,,,,,2023-08-16_09h25.14.724,HF_wild_card,2022.2.4,Linux armv81,120.3514262,63d650bb391dd8bb01d022ef,64d2fd46c836a06233681665,64dc79ccf9491dfdd0be8962,,,,,,,ctch,resources/DB.BMP,resources/DG.BMP,Door4,0.228027344,0.046500762,1,0,0,0.3207,optionRight,60,1055,1,20,0,20,0,1,,,,,
,,,,,,,,2023-08-16_09h25.14.724,HF_wild_card,2022.2.4,Linux armv81,120.3514262,63d650bb391dd8bb01d022ef,64d2fd46c836a06233681665,64dc79ccf9491dfdd0be8962,,,,,,,decisionTrl,resources/DB.BMP,resources/DP.BMP,Door1,-0.383300781,0.021370649,1,0,0,0.3138,optionLeft,30,1085,1,21,0,21,0,1,,,,,
,,,,,,,,2023-08-16_09h25.14.724,HF_wild_card,2022.2.4,Linux armv81,120.3514262,63d650bb391dd8bb01d022ef,64d2fd46c836a06233681665,64dc79ccf9491dfdd0be8962,,,,,,,decisionTrl,resources/DP.BMP,resources/DY.BMP,WildCard_NonEx,0.318115234,-0.001665354,1,0,0,0.3931,optionRight,55,1140,1,22,0,22,0,1,,,,,
,,,,,,,,2023-08-16_09h25.14.724,HF_wild_card,2022.2.4,Linux armv81,120.3514262,63d650bb391dd8bb01d022ef,64d2fd46c836a06233681665,64dc79ccf9491dfdd0be8962,,,,,,,decisionTrl,resources/DG.BMP,resources/DBN.BMP,Door4,-0.370117197,0.003046513,1,0,0,0.4264,optionLeft,60,1200,1,23,0,23,0,1,,,,,
,,,,,,,,2023-08-16_09h25.14.724,HF_wild_card,2022.2.4,Linux armv81,120.3514262,63d650bb391dd8bb01d022ef,64d2fd46c836a06233681665,64dc79ccf9491dfdd0be8962,,,,,,,decisionTrl,resources/DBN.BMP,resources/DG.BMP,Door3,-0.373779307,0.01927646,1,0,0,0.4242,optionLeft,70,1270,1,24,0,24,0,1,,,,,
,,,,,,,,2023-08-16_09h25.14.724,HF_wild_card,2022.2.4,Linux armv81,120.3514262,63d650bb391dd8bb01d022ef,64d2fd46c836a06233681665,64dc79ccf9491dfdd0be8962,,,,,,,decisionTrl,resources/DY.BMP,resources/DG.BMP,WildCard_NonEx,-0.362060577,-0.015277545,1,0,0,0.7785,optionLeft,55,1325,1,25,0,25,0,1,,,,,
,,,,,,,,2023-08-16_09h25.14.724,HF_wild_card,2022.2.4,Linux armv81,120.3514262,63d650bb391dd8bb01d022ef,64d2fd46c836a06233681665,64dc79ccf9491dfdd0be8962,,,,,,,sngl,resources/DB.BMP,resources/Empty.png,Door1,-0.379882822,0.024511894,1,0,0,0.4756,optionLeft,30,1355,1,26,0,26,0,1,,,,,
,,,,,,,,2023-08-16_09h25.14.724,HF_wild_card,2022.2.4,Linux armv81,120.3514262,63d650bb391dd8bb01d022ef,64d2fd46c836a06233681665,64dc79ccf9491dfdd0be8962,,,,,,,ctch,resources/DBN.BMP,resources/DP.BMP,Door2,0.280029297,0.058542331,1,0,0,0.3678,optionRight,40,1395,1,27,0,27,0,1,,,,,
,,,,,,,,2023-08-16_09h25.14.724,HF_wild_card,2022.2.4,Linux armv81,120.3514262,63d650bb391dd8bb01d022ef,64d2fd46c836a06233681665,64dc79ccf9491dfdd0be8962,,,,,,,decisionTrl,resources/DB.BMP,resources/DP.BMP,Door1,-0.345214854,0.003046513,1,0,0,0.353,optionLeft,30,1425,1,28,0,28,0,1,,,,,
,,,,,,,,2023-08-16_09h25.14.724,HF_wild_card,2022.2.4,Linux armv81,120.3514262,63d650bb391dd8bb01d022ef,64d2fd46c836a06233681665,64dc79ccf9491dfdd0be8962,,,,,,,sngl,resources/DBN.BMP,resources/Empty.png,Door3,-0.360351592,0.005140702,1,0,0,0.355,optionLeft,70,1495,1,29,0,29,0,1,,,,,
,,,,,,,,2023-08-16_09h25.14.724,HF_wild_card,2022.2.4,Linux armv81,120.3514262,63d650bb391dd8bb01d022ef,64d2fd46c836a06233681665,64dc79ccf9491dfdd0be8962,,,,,,,sngl,resources/DP.BMP,resources/Empty.png,Door2,-0.344726572,-0.009518544,1,0,0,0.3846,optionLeft,40,1535,1,30,0,30,0,1,,,,,
,,,,,,,,2023-08-16_09h25.14.724,HF_wild_card,2022.2.4,Linux armv81,120.3514262,63d650bb391dd8bb01d022ef,64d2fd46c836a06233681665,64dc79ccf9491dfdd0be8962,,,,,,,decisionTrl,resources/DY.BMP,resources/DB.BMP,Door1,0.315673828,0.038647652,1,0,0,0.4868,optionRight,30,1565,1,31,0,31,0,1,,,,,
,,,,,,,,2023-08-16_09h25.14.724,HF_wild_card,2022.2.4,Linux armv81,120.3514262,63d650bb391dd8bb01d022ef,64d2fd46c836a06233681665,64dc79ccf9491dfdd0be8962,,,,,,,ctch,resources/DP.BMP,resources/DBN.BMP,Door2,-0.318847656,-0.05559063,1,0,0,0.3533,optionLeft,20,1585,1,32,0,32,0,1,,,,,
,,,,,,,,2023-08-16_09h25.14.724,HF_wild_card,2022.2.4,Linux armv81,120.3514262,63d650bb391dd8bb01d022ef,64d2fd46c836a06233681665,64dc79ccf9491dfdd0be8962,,,,,,,decisionTrl,resources/DG.BMP,resources/DBN.BMP,Door3,0.323974609,0.018752893,1,0,0,0.4601,optionRight,70,1655,1,33,0,33,0,1,,,,,
,,,,,,,,2023-08-16_09h25.14.724,HF_wild_card,2022.2.4,Linux armv81,120.3514262,63d650bb391dd8bb01d022ef,64d2fd46c836a06233681665,64dc79ccf9491dfdd0be8962,,,,,,,decisionTrl,resources/DB.BMP,resources/DP.BMP,Door2,0.270996094,0.014041026,1,0,0,0.444,optionRight,20,1675,1,34,0,34,0,1,,,,,
,,,,,,,,2023-08-16_09h25.14.724,HF_wild_card,2022.2.4,Linux armv81,120.3514262,63d650bb391dd8bb01d022ef,64d2fd46c836a06233681665,64dc79ccf9491dfdd0be8962,,,,,,,decisionTrl,resources/DBN.BMP,resources/DY.BMP,WildCard_NonEx,0.305908203,0.034459273,1,0,0,0.4038,optionRight,55,1730,1,35,0,35,0,1,,,,,
,,,,,,,,2023-08-16_09h25.14.724,HF_wild_card,2022.2.4,Linux armv81,120.3514262,63d650bb391dd8bb01d022ef,64d2fd46c836a06233681665,64dc79ccf9491dfdd0be8962,,,,,,,ctch,resources/DP.BMP,resources/DBN.BMP,Door3,0.350341797,0.019800027,1,0,0,0.4277,optionRight,70,1800,1,36,0,36,0,1,,,,,
,,,,,,,,2023-08-16_09h25.14.724,HF_wild_card,2022.2.4,Linux armv81,120.3514262,63d650bb391dd8bb01d022ef,64d2fd46c836a06233681665,64dc79ccf9491dfdd0be8962,,,,,,,sngl,resources/DY.BMP,resources/Empty.png,WildCard_NonEx,-0.375488291,-0.02208368,1,0,0,0.5598,optionLeft,45,1845,1,37,0,37,0,1,,,,,
,,,,,,,,2023-08-16_09h25.14.724,HF_wild_card,2022.2.4,Linux armv81,120.3514262,63d650bb391dd8bb01d022ef,64d2fd46c836a06233681665,64dc79ccf9491dfdd0be8962,,,,,,,ctch,resources/DG.BMP,resources/DB.BMP,Door4,-0.311035156,-0.049831629,1,0,0,0.51,optionLeft,60,1905,1,38,0,38,0,1,,,,,
,,,,,,,,2023-08-16_09h25.14.724,HF_wild_card,2022.2.4,Linux armv81,120.3514262,63d650bb391dd8bb01d022ef,64d2fd46c836a06233681665,64dc79ccf9491dfdd0be8962,,,,,,,ctch,resources/DB.BMP,resources/DG.BMP,Door4,0.326904297,-0.038837115,1,0,0,0.4776,optionRight,80,1985,1,39,0,39,0,1,,,,,
,,,,,,,,2023-08-16_09h25.14.724,HF_wild_card,2022.2.4,Linux armv81,120.3514262,63d650bb391dd8bb01d022ef,64d2fd46c836a06233681665,64dc79ccf9491dfdd0be8962,,,,,,,decisionTrl,resources/DP.BMP,resources/DB.BMP,Door2,-0.323730469,-0.048261007,1,0,0,0.383,optionLeft,20,2005,1,40,0,40,0,1,,,,,
,,,,,,,,2023-08-16_09h25.14.724,HF_wild_card,2022.2.4,Linux armv81,120.3514262,63d650bb391dd8bb01d022ef,64d2fd46c836a06233681665,64dc79ccf9491dfdd0be8962,,,,,,,decisionTrl,resources/DG.BMP,resources/DBN.BMP,Door3,0.268066406,0.036029816,1,0,0,0.3754,optionRight,70,2075,1,41,0,41,0,1,,,,,
,,,,,,,,2023-08-16_09h25.14.724,HF_wild_card,2022.2.4,Linux armv81,120.3514262,63d650bb391dd8bb01d022ef,64d2fd46c836a06233681665,64dc79ccf9491dfdd0be8962,,,,,,,sngl,resources/Empty.png,resources/DY.BMP,WildCard_NonEx,0.269042969,-0.011612733,1,0,0,0.5278,optionRight,55,2130,1,42,0,42,0,1,,,,,
,,,,,,,,2023-08-16_09h25.14.724,HF_wild_card,2022.2.4,Linux armv81,120.3514262,63d650bb391dd8bb01d022ef,64d2fd46c836a06233681665,64dc79ccf9491dfdd0be8962,,,,,,,sngl,resources/DY.BMP,resources/Empty.png,WildCard_NonEx,-0.364501983,-0.003759543,1,0,0,0.316,optionLeft,55,2185,1,43,0,43,0,1,,,,,
,,,,,,,,2023-08-16_09h25.14.724,HF_wild_card,2022.2.4,Linux armv81,120.3514262,63d650bb391dd8bb01d022ef,64d2fd46c836a06233681665,64dc79ccf9491dfdd0be8962,,,,,,,,,,,,,,,,,,,,,,,,,,0,0,0,0,1
,,,,,,,,2023-08-16_09h25.14.724,HF_wild_card,2022.2.4,Linux armv81,120.3514262,63d650bb391dd8bb01d022ef,64d2fd46c836a06233681665,64dc79ccf9491dfdd0be8962,,,,,,,sngl,resources/DY.BMP,resources/Empty.png,WildCard_NonEx,-0.268066406,-0.033601681,1,0,0,0.7617,optionLeft,55,2240,2,0,0,0,0,1,,,,,
,,,,,,,,2023-08-16_09h25.14.724,HF_wild_card,2022.2.4,Linux armv81,120.3514262,63d650bb391dd8bb01d022ef,64d2fd46c836a06233681665,64dc79ccf9491dfdd0be8962,,,,,,,decisionTrl,resources/DB.BMP,resources/DY.BMP,Door1,-0.374511729,0.008282026,1,0,0,0.5073,optionLeft,30,2270,2,1,0,1,0,1,,,,,
,,,,,,,,2023-08-16_09h25.14.724,HF_wild_card,2022.2.4,Linux armv81,120.3514262,63d650bb391dd8bb01d022ef,64d2fd46c836a06233681665,64dc79ccf9491dfdd0be8962,,,,,,,decisionTrl,resources/DB.BMP,resources/DP.BMP,Door2,0.110351523,-0.05349644,1,0,0,0.6084,optionRight,40,2310,2,2,0,2,0,1,,,,,
,,,,,,,,2023-08-16_09h25.14.724,HF_wild_card,2022.2.4,Linux armv81,120.3514262,63d650bb391dd8bb01d022ef,64d2fd46c836a06233681665,64dc79ccf9491dfdd0be8962,,,,,,,sngl,resources/DBN.BMP,resources/Empty.png,Door3,-0.311279297,-0.023654302,1,0,0,0.3938,optionLeft,70,2380,2,3,0,3,0,1,,,,,
,,,,,,,,2023-08-16_09h25.14.724,HF_wild_card,2022.2.4,Linux armv81,120.3514262,63d650bb391dd8bb01d022ef,64d2fd46c836a06233681665,64dc79ccf9491dfdd0be8962,,,,,,,decisionTrl,resources/DB.BMP,resources/DP.BMP,Door2,0.174560467,-0.019989491,1,0,0,0.4635,optionRight,20,2400,2,4,0,4,0,1,,,,,
,,,,,,,,2023-08-16_09h25.14.724,HF_wild_card,2022.2.4,Linux armv81,120.3514262,63d650bb391dd8bb01d022ef,64d2fd46c836a06233681665,64dc79ccf9491dfdd0be8962,,,,,,,ctch,resources/DG.BMP,resources/DB.BMP,Door1,0.248291016,-0.04564325,1,0,0,0.3583,optionRight,30,2430,2,5,0,5,0,1,,,,,
,,,,,,,,2023-08-16_09h25.14.724,HF_wild_card,2022.2.4,Linux armv81,120.3514262,63d650bb391dd8bb01d022ef,64d2fd46c836a06233681665,64dc79ccf9491dfdd0be8962,,,,,,,sngl,resources/DY.BMP,resources/Empty.png,WildCard_NonEx,-0.270507813,0.048071384,1,0,0,0.3364,optionLeft,45,2475,2,6,0,6,0,1,,,,,
,,,,,,,,2023-08-16_09h25.14.724,HF_wild_card,2022.2.4,Linux armv81,120.3514262,63d650bb391dd8bb01d022ef,64d2fd46c836a06233681665,64dc79ccf9491dfdd0be8962,,,,,,,sngl,resources/Empty.png,resources/DY.BMP,WildCard_NonEx,0.249755859,-0.059779008,1,0,0,0.4163,optionRight,55,2530,2,7,0,7,0,1,,,,,
,,,,,,,,2023-08-16_09h25.14.724,HF_wild_card,2022.2.4,Linux armv81,120.3514262,63d650bb391dd8bb01d022ef,64d2fd46c836a06233681665,64dc79ccf9491dfdd0be8962,,,,,,,decisionTrl,resources/DBN.BMP,resources/DG.BMP,Door3,-0.263671875,0.040218274,1,0,0,0.3748,optionLeft,70,2600,2,8,0,8,0,1,,,,,
,,,,,,,,2023-08-16_09h25.14.724,HF_wild_card,2022.2.4,Linux armv81,120.3514262,63d650bb391dd8bb01d022ef,64d2fd46c836a06233681665,64dc79ccf9491dfdd0be8962,,,,,,,sngl,resources/Empty.png,resources/DY.BMP,WildCard_NonEx,0.225830078,-0.017371734,1,0,0,0.4201,optionRight,45,2645,2,9,0,9,0,1,,,,,
,,,,,,,,2023-08-16_09h25.14.724,HF_wild_card,2022.2.4,Linux armv81,120.3514262,63d650bb391dd8bb01d022ef,64d2fd46c836a06233681665,64dc79ccf9491dfdd0be8962,,,,,,,sngl,resources/Empty.png,resources/DG.BMP,Door4,-0.274658203,0.052259763,1,0,0,0.3209,optionRight,80,2725,2,10,0,10,0,1,,,,,
,,,,,,,,2023-08-16_09h25.14.724,HF_wild_card,2022.2.4,Linux armv81,120.3514262,63d650bb391dd8bb01d022ef,64d2fd46c836a06233681665,64dc79ccf9491dfdd0be8962,,,,,,,ctch,resources/DBN.BMP,resources/DP.BMP,Door3,-0.256835957,0.069536765,1,0,0,0.37,optionLeft,70,2795,2,11,0,11,0,1,,,,,
,,,,,,,,2023-08-16_09h25.14.724,HF_wild_card,2022.2.4,Linux armv81,120.3514262,63d650bb391dd8bb01d022ef,64d2fd46c836a06233681665,64dc79ccf9491dfdd0be8962,,,,,,,sngl,resources/Empty.png,resources/DBN.BMP,Door3,0.242675781,-0.054020007,1,0,0,0.428,optionRight,70,2865,2,12,0,12,0,1,,,,,
,,,,,,,,2023-08-16_09h25.14.724,HF_wild_card,2022.2.4,Linux armv81,120.3514262,63d650bb391dd8bb01d022ef,64d2fd46c836a06233681665,64dc79ccf9491dfdd0be8962,,,,,,,decisionTrl,resources/DP.BMP,resources/DB.BMP,Door2,-0.303955078,0.051736196,1,0,0,0.3868,optionLeft,20,2885,2,13,0,13,0,1,,,,,
,,,,,,,,2023-08-16_09h25.14.724,HF_wild_card,2022.2.4,Linux armv81,120.3514262,63d650bb391dd8bb01d022ef,64d2fd46c836a06233681665,64dc79ccf9491dfdd0be8962,,,,,,,sngl,resources/DB.BMP,resources/Empty.png,Door1,-0.176269551,0.054353952,1,0,0,0.4483,optionLeft,30,2915,2,14,0,14,0,1,,,,,
,,,,,,,,2023-08-16_09h25.14.724,HF_wild_card,2022.2.4,Linux armv81,120.3514262,63d650bb391dd8bb01d022ef,64d2fd46c836a06233681665,64dc79ccf9491dfdd0be8962,,,,,,,decisionTrl,resources/DY.BMP,resources/DP.BMP,Door2,0.203125,-0.057161252,1,0,0,0.5043,optionRight,20,2935,2,15,0,15,0,1,,,,,
,,,,,,,,2023-08-16_09h25.14.724,HF_wild_card,2022.2.4,Linux armv81,120.3514262,63d650bb391dd8bb01d022ef,64d2fd46c836a06233681665,64dc79ccf9491dfdd0be8962,,,,,,,decisionTrl,resources/DBN.BMP,resources/DG.BMP,Door3,-0.350830088,0.100425959,1,0,0,0.3579,optionLeft,70,3005,2,16,0,16,0,1,,,,,
,,,,,,,,2023-08-16_09h25.14.724,HF_wild_card,2022.2.4,Linux armv81,120.3514262,63d650bb391dd8bb01d022ef,64d2fd46c836a06233681665,64dc79ccf9491dfdd0be8962,,,,,,,sngl,resources/Empty.png,resources/DB.BMP,Door1,0.187011639,-0.047737439,1,0,0,0.4546,optionRight,30,3035,2,17,0,17,0,1,,,,,
,,,,,,,,2023-08-16_09h25.14.724,HF_wild_card,2022.2.4,Linux armv81,120.3514262,63d650bb391dd8bb01d022ef,64d2fd46c836a06233681665,64dc79ccf9491dfdd0be8962,,,,,,,ctch,resources/DB.BMP,resources/DG.BMP,Door1,-0.239746114,0.03707703,1,0,0,0.361,optionLeft,30,3065,2,18,0,18,0,1,,,,,
,,,,,,,,2023-08-16_09h25.14.724,HF_wild_card,2022.2.4,Linux armv81,120.3514262,63d650bb391dd8bb01d022ef,64d2fd46c836a06233681665,64dc79ccf9491dfdd0be8962,,,,,,,decisionTrl,resources/DBN.BMP,resources/DG.BMP,Door4,0.174560467,-0.017371734,1,0,0,0.5104,optionRight,60,3125,2,19,0,19,0,1,,,,,
,,,,,,,,2023-08-16_09h25.14.724,HF_wild_card,2022.2.4,Linux armv81,120.3514262,63d650bb391dd8bb01d022ef,64d2fd46c836a06233681665,64dc79ccf9491dfdd0be8962,,,,,,,sngl,resources/Empty.png,resources/DP.BMP,Door2,0.169677655,-0.060826063,1,0,0,0.6541,optionRight,40,3165,2,20,0,20,0,1,,,,,
,,,,,,,,2023-08-16_09h25.14.724,HF_wild_card,2022.2.4,Linux armv81,120.3514262,63d650bb391dd8bb01d022ef,64d2fd46c836a06233681665,64dc79ccf9491dfdd0be8962,,,,,,,ctch,resources/DP.BMP,resources/DBN.BMP,Door2,-0.24609377,0.048594952,1,0,0,0.3537,optionLeft,20,3185,2,21,0,21,0,1,,,,,
,,,,,,,,2023-08-16_09h25.14.724,HF_wild_card,2022.2.4,Linux armv81,120.3514262,63d650bb391dd8bb01d022ef,64d2fd46c836a06233681665,64dc79ccf9491dfdd0be8962,,,,,,,ctch,resources/DP.BMP,resources/DBN.BMP,Door3,0.203613281,-0.080720822,1,0,0,0.4449,optionRight,70,3255,2,22,0,22,0,1,,,,,
,,,,,,,,2023-08-16_09h25.14.724,HF_wild_card,2022.2.4,Linux armv81,120.3514262,63d650bb391dd8bb01d022ef,64d2fd46c836a06233681665,64dc79ccf9491dfdd0be8962,,,,,,,decisionTrl,resources/DG.BMP,resources/DBN.BMP,Door4,-0.322998047,0.091525714,1,0,0,0.363,optionLeft,60,3315,2,23,0,23,0,1,,,,,
,,,,,,,,2023-08-16_09h25.14.724,HF_wild_card,2022.2.4,Linux armv81,120.3514262,63d650bb391dd8bb01d022ef,64d2fd46c836a06233681665,64dc79ccf9491dfdd0be8962,,,,,,,decisionTrl,resources/DY.BMP,resources/DBN.BMP,Door3,0.191894452,-0.048784494,1,0,0,0.4995,optionRight,70,3385,2,24,0,24,0,1,,,,,
,,,,,,,,2023-08-16_09h25.14.724,HF_wild_card,2022.2.4,Linux armv81,120.3514262,63d650bb391dd8bb01d022ef,64d2fd46c836a06233681665,64dc79ccf9491dfdd0be8962,,,,,,,decisionTrl,resources/DY.BMP,resources/DG.BMP,WildCard_NonEx,-0.312011719,0.087860902,1,0,0,0.3678,optionLeft,45,3430,2,25,0,25,0,1,,,,,
,,,,,,,,2023-08-16_09h25.14.724,HF_wild_card,2022.2.4,Linux armv81,120.3514262,63d650bb391dd8bb01d022ef,64d2fd46c836a06233681665,64dc79ccf9491dfdd0be8962,,,,,,,decisionTrl,resources/DP.BMP,resources/DB.BMP,Door2,-0.294677734,0.081054767,1,0,0,0.4968,optionLeft,20,3450,2,26,0,26,0,1,,,,,
,,,,,,,,2023-08-16_09h25.14.724,HF_wild_card,2022.2.4,Linux armv81,120.3514262,63d650bb391dd8bb01d022ef,64d2fd46c836a06233681665,64dc79ccf9491dfdd0be8962,,,,,,,decisionTrl,resources/DBN.BMP,resources/DY.BMP,Door3,-0.387451172,0.096761068,1,0,0,0.4523,optionLeft,70,3520,2,27,0,27,0,1,,,,,
,,,,,,,,2023-08-16_09h25.14.724,HF_wild_card,2022.2.4,Linux armv81,120.3514262,63d650bb391dd8bb01d022ef,64d2fd46c836a06233681665,64dc79ccf9491dfdd0be8962,,,,,,,decisionTrl,resources/DP.BMP,resources/DY.BMP,Door2,-0.255126973,0.063254197,1,0,0,0.3989,optionLeft,40,3560,2,28,0,28,0,1,,,,,
,,,,,,,,2023-08-16_09h25.14.724,HF_wild_card,2022.2.4,Linux armv81,120.3514262,63d650bb391dd8bb01d022ef,64d2fd46c836a06233681665,64dc79ccf9491dfdd0be8962,,,,,,,decisionTrl,resources/DP.BMP,resources/DB.BMP,Door2,-0.260498067,0.067442576,1,0,0,0.3435,optionLeft,20,3580,2,29,0,29,0,1,,,,,
,,,,,,,,2023-08-16_09h25.14.724,HF_wild_card,2022.2.4,Linux armv81,120.3514262,63d650bb391dd8bb01d022ef,64d2fd46c836a06233681665,64dc79ccf9491dfdd0be8962,,,,,,,sngl,resources/DP.BMP,resources/Empty.png,Door2,-0.331542989,0.098855337,1,0,0,0.3545,optionLeft,20,3600,2,30,0,30,0,1,,,,,
,,,,,,,,2023-08-16_09h25.14.724,HF_wild_card,2022.2.4,Linux armv81,120.3514262,63d650bb391dd8bb01d022ef,64d2fd46c836a06233681665,64dc79ccf9491dfdd0be8962,,,,,,,decisionTrl,resources/DY.BMP,resources/DB.BMP,WildCard_NonEx,-0.389648438,0.110373259,1,0,0,0.427,optionLeft,45,3645,2,31,0,31,0,1,,,,,
,,,,,,,,2023-08-16_09h25.14.724,HF_wild_card,2022.2.4,Linux armv81,120.3514262,63d650bb391dd8bb01d022ef,64d2fd46c836a06233681665,64dc79ccf9491dfdd0be8962,,,,,,,decisionTrl,resources/DG.BMP,resources/DBN.BMP,Door3,0.228027344,-0.041978439,1,0,0,0.398,optionRight,70,3715,2,32,0,32,0,1,,,,,
,,,,,,,,2023-08-16_09h25.14.724,HF_wild_card,2022.2.4,Linux armv81,120.3514262,63d650bb391dd8bb01d022ef,64d2fd46c836a06233681665,64dc79ccf9491dfdd0be8962,,,,,,,decisionTrl,resources/DG.BMP,resources/DBN.BMP,Door4,-0.374511729,0.061160008,1,0,0,0.4485,optionLeft,60,3775,2,33,0,33,0,1,,,,,
,,,,,,,,2023-08-16_09h25.14.724,HF_wild_card,2022.2.4,Linux armv81,120.3514262,63d650bb391dd8bb01d022ef,64d2fd46c836a06233681665,64dc79ccf9491dfdd0be8962,,,,,,,sngl,resources/DG.BMP,resources/Empty.png,Door4,-0.306396484,0.084196091,1,0,0,0.7055,optionLeft,60,3835,2,34,0,34,0,1,,,,,
,,,,,,,,2023-08-16_09h25.14.724,HF_wild_card,2022.2.4,Linux armv81,120.3514262,63d650bb391dd8bb01d022ef,64d2fd46c836a06233681665,64dc79ccf9491dfdd0be8962,,,,,,,decisionTrl,resources/DG.BMP,resources/DBN.BMP,Door3,0.200439453,-0.010565678,1,0,0,0.3524,optionRight,70,3905,2,35,0,35,0,1,,,,,
,,,,,,,,2023-08-16_09h25.14.724,HF_wild_card,2022.2.4,Linux armv81,120.3514262,63d650bb391dd8bb01d022ef,64d2fd46c836a06233681665,64dc79ccf9491dfdd0be8962,,,,,,,decisionTrl,resources/DP.BMP,resources/DB.BMP,Door2,-0.292480469,0.07267801,1,0,0,0.3039,optionLeft,40,3945,2,36,0,36,0,1,,,,,
,,,,,,,,2023-08-16_09h25.14.724,HF_wild_card,2022.2.4,Linux armv81,120.3514262,63d650bb391dd8bb01d022ef,64d2fd46c836a06233681665,64dc79ccf9491dfdd0be8962,,,,,,,ctch,resources/DBN.BMP,resources/DP.BMP,Door2,0.212890625,-0.039884249,1,0,0,0.4118,optionRight,20,3965,2,37,0,37,0,1,,,,,
,,,,,,,,2023-08-16_09h25.14.724,HF_wild_card,2022.2.4,Linux armv81,120.3514262,63d650bb391dd8bb01d022ef,64d2fd46c836a06233681665,64dc79ccf9491dfdd0be8962,,,,,,,ctch,resources/DG.BMP,resources/DB.BMP,Door4,-0.279785156,0.076866388,1,0,0,0.319,optionLeft,80,4045,2,38,0,38,0,1,,,,,
,,,,,,,,2023-08-16_09h25.14.724,HF_wild_card,2022.2.4,Linux armv81,120.3514262,63d650bb391dd8bb01d022ef,64d2fd46c836a06233681665,64dc79ccf9491dfdd0be8962,,,,,,,decisionTrl,resources/DB.BMP,resources/DP.BMP,Door2,0.21875,-0.02993687,1,0,0,0.35,optionRight,20,4065,2,39,0,39,0,1,,,,,
,,,,,,,,2023-08-16_09h25.14.724,HF_wild_card,2022.2.4,Linux armv81,120.3514262,63d650bb391dd8bb01d022ef,64d2fd46c836a06233681665,64dc79ccf9491dfdd0be8962,,,,,,,ctch,resources/DB.BMP,resources/DG.BMP,Door4,0.196533203,-0.018942515,1,0,0,0.3357,optionRight,80,4145,2,40,0,40,0,1,,,,,
,,,,,,,,2023-08-16_09h25.14.724,HF_wild_card,2022.2.4,Linux armv81,120.3514262,63d650bb391dd8bb01d022ef,64d2fd46c836a06233681665,64dc79ccf9491dfdd0be8962,,,,,,,decisionTrl,resources/DBN.BMP,resources/DG.BMP,Door3,-0.331298848,0.09623758,1,0,0,0.5044,optionLeft,70,4215,2,41,0,41,0,1,,,,,
,,,,,,,,2023-08-16_09h25.14.724,HF_wild_card,2022.2.4,Linux armv81,120.3514262,63d650bb391dd8bb01d022ef,64d2fd46c836a06233681665,64dc79ccf9491dfdd0be8962,,,,,,,decisionTrl,resources/DB.BMP,resources/DP.BMP,Door2,0.197753906,-0.007424355,1,0,0,0.433,optionRight,20,4235,2,42,0,42,0,1,,,,,
,,,,,,,,2023-08-16_09h25.14.724,HF_wild_card,2022.2.4,Linux armv81,120.3514262,63d650bb391dd8bb01d022ef,64d2fd46c836a06233681665,64dc79ccf9491dfdd0be8962,,,,,,,decisionTrl,resources/DG.BMP,resources/DY.BMP,Door4,-0.300048828,0.052259763,1,0,0,0.3138,optionLeft,80,4315,2,43,0,43,0,1,,,,,
