Condition,Low fixed image (Door1),Low risky image (Door2),High fixed image (Door3),High risky image (Door4),Extreme Wild Card,NonExtreme Wild Card,,date,expName,psychopyVersion,OS,frameRate,PROLIFIC_PID,STUDY_ID,SESSION_ID,mouse_2.x,mouse_2.y,mouse_2.leftButton,mouse_2.midButton,mouse_2.rightButton,mouse_2.clicked_name,Trial Type,Left Option Image,Right Option Image,Chosen Door,mouse.x,mouse.y,mouse.leftButton,mouse.midButton,mouse.rightButton,mouse.time,mouse.clicked_name,Feedback,Cumulative Reward,Block,trial.thisRepN,trial.thisTrialN,trial.thisN,trial.thisIndex,trial.ran,blocks.thisRepN,blocks.thisTrialN,blocks.thisN,blocks.thisIndex,blocks.ran,Money conversion,First Outcome Reported,Shown Door (First Outcome),Displayed Image (First Outcome),outcomes.thisRepN,outcomes.thisTrialN,outcomes.thisN,outcomes.thisIndex,outcomes.ran,judgments.thisRepN,judgments.thisTrialN,judgments.thisN,judgments.thisIndex,judgments.ran,freqMouse.x,freqMouse.y,freqMouse.leftButton,freqMouse.midButton,freqMouse.rightButton,freqMouse.clicked_name,FQJ for first outcome,FQJ for second outcome,Shown Door,Displayed Image,trials.thisRepN,trials.thisTrialN,trials.thisN,trials.thisIndex,trials.ran,judgBlock.thisRepN,judgBlock.thisTrialN,judgBlock.thisN,judgBlock.thisIndex,judgBlock.ran
0,resources/DR.BMP,resources/DBN.BMP,resources/DG.BMP,resources/DP.BMP,resources/DB.BMP,resources/DY.BMP,5f0f624774af6210bf4503e9,2023-08-16_08h48.20.932,HF_wild_card,2022.2.4,Win32,60.3682463,5f0f624774af6210bf4503e9,64d2fd46c836a06233681665,64dc7f1e3339f3b6f1864735,,,,,,,,,,,,,,,,,,,,,,,,,,,,,,,,,,,,,,,,,,,,,,,,,,,,,,,,,,,,,,,,
,,,,,,,5f0f624774af6210bf4503e9,2023-08-16_08h48.20.932,HF_wild_card,2022.2.4,Win32,60.3682463,5f0f624774af6210bf4503e9,64d2fd46c836a06233681665,64dc7f1e3339f3b6f1864735,0.008333333,-0.421296296,1,0,0,agree,,,,,,,,,,,,,,,,,,,,,,,,,,,,,,,,,,,,,,,,,,,,,,,,,,,,,,,,,,
,,,,,,,5f0f624774af6210bf4503e9,2023-08-16_08h48.20.932,HF_wild_card,2022.2.4,Win32,60.3682463,5f0f624774af6210bf4503e9,64d2fd46c836a06233681665,64dc7f1e3339f3b6f1864735,,,,,,,,,,,,,,,,,,,,,,,,,,,,,,,,,,,,,,,,,,,,,,,,,,,,,,,,,,,,,,,,
,,,,,,,5f0f624774af6210bf4503e9,2023-08-16_08h48.20.932,HF_wild_card,2022.2.4,Win32,60.3682463,5f0f624774af6210bf4503e9,64d2fd46c836a06233681665,64dc7f1e3339f3b6f1864735,,,,,,,decisionTrl,resources/DBN.BMP,resources/DR.BMP,Door1,0.293518519,-0.090740741,1,0,0,6.423,optionRight,30,30,1,0,0,0,0,1,,,,,,,,,,,,,,,,,,,,,,,,,,,,,,,,,,,,,,,
,,,,,,,5f0f624774af6210bf4503e9,2023-08-16_08h48.20.932,HF_wild_card,2022.2.4,Win32,60.3682463,5f0f624774af6210bf4503e9,64d2fd46c836a06233681665,64dc7f1e3339f3b6f1864735,,,,,,,ctch,resources/DP.BMP,resources/DR.BMP,Door1,0.35462963,-0.011111111,1,0,0,2.4911,optionRight,30,60,1,1,0,1,0,1,,,,,,,,,,,,,,,,,,,,,,,,,,,,,,,,,,,,,,,
,,,,,,,5f0f624774af6210bf4503e9,2023-08-16_08h48.20.932,HF_wild_card,2022.2.4,Win32,60.3682463,5f0f624774af6210bf4503e9,64d2fd46c836a06233681665,64dc7f1e3339f3b6f1864735,,,,,,,decisionTrl,resources/DR.BMP,resources/DBN.BMP,Door1,-0.383333333,-0.008333333,1,0,0,3.6873,optionLeft,30,90,1,2,0,2,0,1,,,,,,,,,,,,,,,,,,,,,,,,,,,,,,,,,,,,,,,
,,,,,,,5f0f624774af6210bf4503e9,2023-08-16_08h48.20.932,HF_wild_card,2022.2.4,Win32,60.3682463,5f0f624774af6210bf4503e9,64d2fd46c836a06233681665,64dc7f1e3339f3b6f1864735,,,,,,,decisionTrl,resources/DB.BMP,resources/DBN.BMP,Door2,0.250925926,-0.02962963,1,0,0,2.8418,optionRight,20,110,1,3,0,3,0,1,,,,,,,,,,,,,,,,,,,,,,,,,,,,,,,,,,,,,,,
,,,,,,,5f0f624774af6210bf4503e9,2023-08-16_08h48.20.932,HF_wild_card,2022.2.4,Win32,60.3682463,5f0f624774af6210bf4503e9,64d2fd46c836a06233681665,64dc7f1e3339f3b6f1864735,,,,,,,decisionTrl,resources/DR.BMP,resources/DBN.BMP,Door1,-0.362962963,-0.013888889,1,0,0,1.9923,optionLeft,30,140,1,4,0,4,0,1,,,,,,,,,,,,,,,,,,,,,,,,,,,,,,,,,,,,,,,
,,,,,,,5f0f624774af6210bf4503e9,2023-08-16_08h48.20.932,HF_wild_card,2022.2.4,Win32,60.3682463,5f0f624774af6210bf4503e9,64d2fd46c836a06233681665,64dc7f1e3339f3b6f1864735,,,,,,,ctch,resources/DP.BMP,resources/DR.BMP,Door1,0.416666667,-0.062962963,1,0,0,2.2448,optionRight,30,170,1,5,0,5,0,1,,,,,,,,,,,,,,,,,,,,,,,,,,,,,,,,,,,,,,,
,,,,,,,5f0f624774af6210bf4503e9,2023-08-16_08h48.20.932,HF_wild_card,2022.2.4,Win32,60.3682463,5f0f624774af6210bf4503e9,64d2fd46c836a06233681665,64dc7f1e3339f3b6f1864735,,,,,,,sngl,resources/Empty.png,resources/DB.BMP,WildCard_Ex,0.364814815,-0.002777778,1,0,0,2.4783,optionRight,95,265,1,6,0,6,0,1,,,,,,,,,,,,,,,,,,,,,,,,,,,,,,,,,,,,,,,
,,,,,,,5f0f624774af6210bf4503e9,2023-08-16_08h48.20.932,HF_wild_card,2022.2.4,Win32,60.3682463,5f0f624774af6210bf4503e9,64d2fd46c836a06233681665,64dc7f1e3339f3b6f1864735,,,,,,,ctch,resources/DR.BMP,resources/DP.BMP,Door4,0.25462963,0.044444444,1,0,0,6.4422,optionRight,80,345,1,7,0,7,0,1,,,,,,,,,,,,,,,,,,,,,,,,,,,,,,,,,,,,,,,
,,,,,,,5f0f624774af6210bf4503e9,2023-08-16_08h48.20.932,HF_wild_card,2022.2.4,Win32,60.3682463,5f0f624774af6210bf4503e9,64d2fd46c836a06233681665,64dc7f1e3339f3b6f1864735,,,,,,,ctch,resources/DG.BMP,resources/DBN.BMP,Door3,-0.328703704,-0.030555556,1,0,0,1.3928,optionLeft,70,415,1,8,0,8,0,1,,,,,,,,,,,,,,,,,,,,,,,,,,,,,,,,,,,,,,,
,,,,,,,5f0f624774af6210bf4503e9,2023-08-16_08h48.20.932,HF_wild_card,2022.2.4,Win32,60.3682463,5f0f624774af6210bf4503e9,64d2fd46c836a06233681665,64dc7f1e3339f3b6f1864735,,,,,,,ctch,resources/DR.BMP,resources/DP.BMP,Door4,0.460185185,-0.05,1,0,0,0.9089,optionRight,60,475,1,9,0,9,0,1,,,,,,,,,,,,,,,,,,,,,,,,,,,,,,,,,,,,,,,
,,,,,,,5f0f624774af6210bf4503e9,2023-08-16_08h48.20.932,HF_wild_card,2022.2.4,Win32,60.3682463,5f0f624774af6210bf4503e9,64d2fd46c836a06233681665,64dc7f1e3339f3b6f1864735,,,,,,,decisionTrl,resources/DG.BMP,resources/DP.BMP,Door4,0.366666667,-0.051851852,1,0,0,1.4426,optionRight,80,555,1,10,0,10,0,1,,,,,,,,,,,,,,,,,,,,,,,,,,,,,,,,,,,,,,,
,,,,,,,5f0f624774af6210bf4503e9,2023-08-16_08h48.20.932,HF_wild_card,2022.2.4,Win32,60.3682463,5f0f624774af6210bf4503e9,64d2fd46c836a06233681665,64dc7f1e3339f3b6f1864735,,,,,,,sngl,resources/DP.BMP,resources/Empty.png,Door4,-0.24537037,-0.035185185,1,0,0,0.9764,optionLeft,80,635,1,11,0,11,0,1,,,,,,,,,,,,,,,,,,,,,,,,,,,,,,,,,,,,,,,
,,,,,,,5f0f624774af6210bf4503e9,2023-08-16_08h48.20.932,HF_wild_card,2022.2.4,Win32,60.3682463,5f0f624774af6210bf4503e9,64d2fd46c836a06233681665,64dc7f1e3339f3b6f1864735,,,,,,,sngl,resources/DG.BMP,resources/Empty.png,Door3,-0.301851852,-0.02962963,1,0,0,0.8245,optionLeft,70,705,1,12,0,12,0,1,,,,,,,,,,,,,,,,,,,,,,,,,,,,,,,,,,,,,,,
,,,,,,,5f0f624774af6210bf4503e9,2023-08-16_08h48.20.932,HF_wild_card,2022.2.4,Win32,60.3682463,5f0f624774af6210bf4503e9,64d2fd46c836a06233681665,64dc7f1e3339f3b6f1864735,,,,,,,ctch,resources/DG.BMP,resources/DBN.BMP,Door3,-0.351851852,-0.030555556,1,0,0,1.2588,optionLeft,70,775,1,13,0,13,0,1,,,,,,,,,,,,,,,,,,,,,,,,,,,,,,,,,,,,,,,
,,,,,,,5f0f624774af6210bf4503e9,2023-08-16_08h48.20.932,HF_wild_card,2022.2.4,Win32,60.3682463,5f0f624774af6210bf4503e9,64d2fd46c836a06233681665,64dc7f1e3339f3b6f1864735,,,,,,,ctch,resources/DBN.BMP,resources/DG.BMP,Door3,0.3,-0.044444444,1,0,0,1.5763,optionRight,70,845,1,14,0,14,0,1,,,,,,,,,,,,,,,,,,,,,,,,,,,,,,,,,,,,,,,
,,,,,,,5f0f624774af6210bf4503e9,2023-08-16_08h48.20.932,HF_wild_card,2022.2.4,Win32,60.3682463,5f0f624774af6210bf4503e9,64d2fd46c836a06233681665,64dc7f1e3339f3b6f1864735,,,,,,,decisionTrl,resources/DBN.BMP,resources/DR.BMP,Door1,0.417592593,-0.055555556,1,0,0,1.476,optionRight,30,875,1,15,0,15,0,1,,,,,,,,,,,,,,,,,,,,,,,,,,,,,,,,,,,,,,,
,,,,,,,5f0f624774af6210bf4503e9,2023-08-16_08h48.20.932,HF_wild_card,2022.2.4,Win32,60.3682463,5f0f624774af6210bf4503e9,64d2fd46c836a06233681665,64dc7f1e3339f3b6f1864735,,,,,,,sngl,resources/Empty.png,resources/DP.BMP,Door4,0.330555556,-0.028703704,1,0,0,1.043,optionRight,60,935,1,16,0,16,0,1,,,,,,,,,,,,,,,,,,,,,,,,,,,,,,,,,,,,,,,
,,,,,,,5f0f624774af6210bf4503e9,2023-08-16_08h48.20.932,HF_wild_card,2022.2.4,Win32,60.3682463,5f0f624774af6210bf4503e9,64d2fd46c836a06233681665,64dc7f1e3339f3b6f1864735,,,,,,,decisionTrl,resources/DG.BMP,resources/DP.BMP,Door4,0.32037037,-0.034259259,1,0,0,1.3263,optionRight,60,995,1,17,0,17,0,1,,,,,,,,,,,,,,,,,,,,,,,,,,,,,,,,,,,,,,,
,,,,,,,5f0f624774af6210bf4503e9,2023-08-16_08h48.20.932,HF_wild_card,2022.2.4,Win32,60.3682463,5f0f624774af6210bf4503e9,64d2fd46c836a06233681665,64dc7f1e3339f3b6f1864735,,,,,,,decisionTrl,resources/DG.BMP,resources/DP.BMP,Door4,0.300925926,-0.023148148,1,0,0,2.5931,optionRight,60,1055,1,18,0,18,0,1,,,,,,,,,,,,,,,,,,,,,,,,,,,,,,,,,,,,,,,
,,,,,,,5f0f624774af6210bf4503e9,2023-08-16_08h48.20.932,HF_wild_card,2022.2.4,Win32,60.3682463,5f0f624774af6210bf4503e9,64d2fd46c836a06233681665,64dc7f1e3339f3b6f1864735,,,,,,,decisionTrl,resources/DR.BMP,resources/DBN.BMP,Door1,-0.251851852,-0.008333333,1,0,0,1.0918,optionLeft,30,1085,1,19,0,19,0,1,,,,,,,,,,,,,,,,,,,,,,,,,,,,,,,,,,,,,,,
,,,,,,,5f0f624774af6210bf4503e9,2023-08-16_08h48.20.932,HF_wild_card,2022.2.4,Win32,60.3682463,5f0f624774af6210bf4503e9,64d2fd46c836a06233681665,64dc7f1e3339f3b6f1864735,,,,,,,sngl,resources/DBN.BMP,resources/Empty.png,Door2,-0.273148148,-0.009259259,1,0,0,0.9259,optionLeft,40,1125,1,20,0,20,0,1,,,,,,,,,,,,,,,,,,,,,,,,,,,,,,,,,,,,,,,
,,,,,,,5f0f624774af6210bf4503e9,2023-08-16_08h48.20.932,HF_wild_card,2022.2.4,Win32,60.3682463,5f0f624774af6210bf4503e9,64d2fd46c836a06233681665,64dc7f1e3339f3b6f1864735,,,,,,,decisionTrl,resources/DB.BMP,resources/DG.BMP,WildCard_Ex,-0.249074074,-0.018518519,1,0,0,1.074,optionLeft,95,1220,1,21,0,21,0,1,,,,,,,,,,,,,,,,,,,,,,,,,,,,,,,,,,,,,,,
,,,,,,,5f0f624774af6210bf4503e9,2023-08-16_08h48.20.932,HF_wild_card,2022.2.4,Win32,60.3682463,5f0f624774af6210bf4503e9,64d2fd46c836a06233681665,64dc7f1e3339f3b6f1864735,,,,,,,decisionTrl,resources/DG.BMP,resources/DP.BMP,Door3,-0.237037037,-0.008333333,1,0,0,1.6596,optionLeft,70,1290,1,22,0,22,0,1,,,,,,,,,,,,,,,,,,,,,,,,,,,,,,,,,,,,,,,
,,,,,,,5f0f624774af6210bf4503e9,2023-08-16_08h48.20.932,HF_wild_card,2022.2.4,Win32,60.3682463,5f0f624774af6210bf4503e9,64d2fd46c836a06233681665,64dc7f1e3339f3b6f1864735,,,,,,,decisionTrl,resources/DP.BMP,resources/DG.BMP,Door4,-0.20462963,-0.009259259,1,0,0,1.0592,optionLeft,80,1370,1,23,0,23,0,1,,,,,,,,,,,,,,,,,,,,,,,,,,,,,,,,,,,,,,,
,,,,,,,5f0f624774af6210bf4503e9,2023-08-16_08h48.20.932,HF_wild_card,2022.2.4,Win32,60.3682463,5f0f624774af6210bf4503e9,64d2fd46c836a06233681665,64dc7f1e3339f3b6f1864735,,,,,,,decisionTrl,resources/DP.BMP,resources/DG.BMP,Door4,-0.286111111,-0.003703704,1,0,0,0.6095,optionLeft,80,1450,1,24,0,24,0,1,,,,,,,,,,,,,,,,,,,,,,,,,,,,,,,,,,,,,,,
,,,,,,,5f0f624774af6210bf4503e9,2023-08-16_08h48.20.932,HF_wild_card,2022.2.4,Win32,60.3682463,5f0f624774af6210bf4503e9,64d2fd46c836a06233681665,64dc7f1e3339f3b6f1864735,,,,,,,decisionTrl,resources/DBN.BMP,resources/DR.BMP,Door1,0.351851852,-0.053703704,1,0,0,0.9262,optionRight,30,1480,1,25,0,25,0,1,,,,,,,,,,,,,,,,,,,,,,,,,,,,,,,,,,,,,,,
,,,,,,,5f0f624774af6210bf4503e9,2023-08-16_08h48.20.932,HF_wild_card,2022.2.4,Win32,60.3682463,5f0f624774af6210bf4503e9,64d2fd46c836a06233681665,64dc7f1e3339f3b6f1864735,,,,,,,decisionTrl,resources/DB.BMP,resources/DR.BMP,WildCard_Ex,-0.305555556,-0.018518519,1,0,0,0.8763,optionLeft,5,1485,1,26,0,26,0,1,,,,,,,,,,,,,,,,,,,,,,,,,,,,,,,,,,,,,,,
,,,,,,,5f0f624774af6210bf4503e9,2023-08-16_08h48.20.932,HF_wild_card,2022.2.4,Win32,60.3682463,5f0f624774af6210bf4503e9,64d2fd46c836a06233681665,64dc7f1e3339f3b6f1864735,,,,,,,ctch,resources/DBN.BMP,resources/DG.BMP,Door3,0.293518519,-0.058333333,1,0,0,0.8088,optionRight,70,1555,1,27,0,27,0,1,,,,,,,,,,,,,,,,,,,,,,,,,,,,,,,,,,,,,,,
,,,,,,,5f0f624774af6210bf4503e9,2023-08-16_08h48.20.932,HF_wild_card,2022.2.4,Win32,60.3682463,5f0f624774af6210bf4503e9,64d2fd46c836a06233681665,64dc7f1e3339f3b6f1864735,,,,,,,sngl,resources/Empty.png,resources/DBN.BMP,Door2,0.446296296,-0.073148148,1,0,0,1.208,optionRight,20,1575,1,28,0,28,0,1,,,,,,,,,,,,,,,,,,,,,,,,,,,,,,,,,,,,,,,
,,,,,,,5f0f624774af6210bf4503e9,2023-08-16_08h48.20.932,HF_wild_card,2022.2.4,Win32,60.3682463,5f0f624774af6210bf4503e9,64d2fd46c836a06233681665,64dc7f1e3339f3b6f1864735,,,,,,,decisionTrl,resources/DB.BMP,resources/DP.BMP,WildCard_Ex,-0.262962963,-0.022222222,1,0,0,1.0092,optionLeft,95,1670,1,29,0,29,0,1,,,,,,,,,,,,,,,,,,,,,,,,,,,,,,,,,,,,,,,
,,,,,,,5f0f624774af6210bf4503e9,2023-08-16_08h48.20.932,HF_wild_card,2022.2.4,Win32,60.3682463,5f0f624774af6210bf4503e9,64d2fd46c836a06233681665,64dc7f1e3339f3b6f1864735,,,,,,,decisionTrl,resources/DP.BMP,resources/DB.BMP,WildCard_Ex,0.382407407,-0.056481481,1,0,0,0.6764,optionRight,5,1675,1,30,0,30,0,1,,,,,,,,,,,,,,,,,,,,,,,,,,,,,,,,,,,,,,,
,,,,,,,5f0f624774af6210bf4503e9,2023-08-16_08h48.20.932,HF_wild_card,2022.2.4,Win32,60.3682463,5f0f624774af6210bf4503e9,64d2fd46c836a06233681665,64dc7f1e3339f3b6f1864735,,,,,,,decisionTrl,resources/DP.BMP,resources/DG.BMP,Door3,0.208333333,-0.041666667,1,0,0,1.5098,optionRight,70,1745,1,31,0,31,0,1,,,,,,,,,,,,,,,,,,,,,,,,,,,,,,,,,,,,,,,
,,,,,,,5f0f624774af6210bf4503e9,2023-08-16_08h48.20.932,HF_wild_card,2022.2.4,Win32,60.3682463,5f0f624774af6210bf4503e9,64d2fd46c836a06233681665,64dc7f1e3339f3b6f1864735,,,,,,,decisionTrl,resources/DP.BMP,resources/DG.BMP,Door4,-0.165740741,-0.046296296,1,0,0,1.2262,optionLeft,80,1825,1,32,0,32,0,1,,,,,,,,,,,,,,,,,,,,,,,,,,,,,,,,,,,,,,,
,,,,,,,5f0f624774af6210bf4503e9,2023-08-16_08h48.20.932,HF_wild_card,2022.2.4,Win32,60.3682463,5f0f624774af6210bf4503e9,64d2fd46c836a06233681665,64dc7f1e3339f3b6f1864735,,,,,,,sngl,resources/Empty.png,resources/DR.BMP,Door1,0.330555556,-0.047222222,1,0,0,0.6088,optionRight,30,1855,1,33,0,33,0,1,,,,,,,,,,,,,,,,,,,,,,,,,,,,,,,,,,,,,,,
,,,,,,,5f0f624774af6210bf4503e9,2023-08-16_08h48.20.932,HF_wild_card,2022.2.4,Win32,60.3682463,5f0f624774af6210bf4503e9,64d2fd46c836a06233681665,64dc7f1e3339f3b6f1864735,,,,,,,decisionTrl,resources/DR.BMP,resources/DB.BMP,Door1,-0.17037037,-0.02037037,1,0,0,1.6415,optionLeft,30,1885,1,34,0,34,0,1,,,,,,,,,,,,,,,,,,,,,,,,,,,,,,,,,,,,,,,
,,,,,,,5f0f624774af6210bf4503e9,2023-08-16_08h48.20.932,HF_wild_card,2022.2.4,Win32,60.3682463,5f0f624774af6210bf4503e9,64d2fd46c836a06233681665,64dc7f1e3339f3b6f1864735,,,,,,,sngl,resources/DB.BMP,resources/Empty.png,WildCard_Ex,-0.255555556,-0.016666667,1,0,0,0.5592,optionLeft,5,1890,1,35,0,35,0,1,,,,,,,,,,,,,,,,,,,,,,,,,,,,,,,,,,,,,,,
,,,,,,,5f0f624774af6210bf4503e9,2023-08-16_08h48.20.932,HF_wild_card,2022.2.4,Win32,60.3682463,5f0f624774af6210bf4503e9,64d2fd46c836a06233681665,64dc7f1e3339f3b6f1864735,,,,,,,decisionTrl,resources/DBN.BMP,resources/DB.BMP,WildCard_Ex,0.311111111,-0.055555556,1,0,0,1.4089,optionRight,5,1895,1,36,0,36,0,1,,,,,,,,,,,,,,,,,,,,,,,,,,,,,,,,,,,,,,,
,,,,,,,5f0f624774af6210bf4503e9,2023-08-16_08h48.20.932,HF_wild_card,2022.2.4,Win32,60.3682463,5f0f624774af6210bf4503e9,64d2fd46c836a06233681665,64dc7f1e3339f3b6f1864735,,,,,,,sngl,resources/DR.BMP,resources/Empty.png,Door1,-0.198148148,-0.026851852,1,0,0,0.6423,optionLeft,30,1925,1,37,0,37,0,1,,,,,,,,,,,,,,,,,,,,,,,,,,,,,,,,,,,,,,,
,,,,,,,5f0f624774af6210bf4503e9,2023-08-16_08h48.20.932,HF_wild_card,2022.2.4,Win32,60.3682463,5f0f624774af6210bf4503e9,64d2fd46c836a06233681665,64dc7f1e3339f3b6f1864735,,,,,,,sngl,resources/DB.BMP,resources/Empty.png,WildCard_Ex,-0.288888889,-0.008333333,1,0,0,0.6402,optionLeft,95,2020,1,38,0,38,0,1,,,,,,,,,,,,,,,,,,,,,,,,,,,,,,,,,,,,,,,
,,,,,,,5f0f624774af6210bf4503e9,2023-08-16_08h48.20.932,HF_wild_card,2022.2.4,Win32,60.3682463,5f0f624774af6210bf4503e9,64d2fd46c836a06233681665,64dc7f1e3339f3b6f1864735,,,,,,,sngl,resources/Empty.png,resources/DB.BMP,WildCard_Ex,0.234259259,-0.036111111,1,0,0,0.5428,optionRight,5,2025,1,39,0,39,0,1,,,,,,,,,,,,,,,,,,,,,,,,,,,,,,,,,,,,,,,
,,,,,,,5f0f624774af6210bf4503e9,2023-08-16_08h48.20.932,HF_wild_card,2022.2.4,Win32,60.3682463,5f0f624774af6210bf4503e9,64d2fd46c836a06233681665,64dc7f1e3339f3b6f1864735,,,,,,,decisionTrl,resources/DG.BMP,resources/DB.BMP,WildCard_Ex,0.207407407,-0.019444444,1,0,0,4.1239,optionRight,95,2120,1,40,0,40,0,1,,,,,,,,,,,,,,,,,,,,,,,,,,,,,,,,,,,,,,,
,,,,,,,5f0f624774af6210bf4503e9,2023-08-16_08h48.20.932,HF_wild_card,2022.2.4,Win32,60.3682463,5f0f624774af6210bf4503e9,64d2fd46c836a06233681665,64dc7f1e3339f3b6f1864735,,,,,,,decisionTrl,resources/DBN.BMP,resources/DR.BMP,Door1,0.234259259,-0.051851852,1,0,0,1.3757,optionRight,30,2150,1,41,0,41,0,1,,,,,,,,,,,,,,,,,,,,,,,,,,,,,,,,,,,,,,,
,,,,,,,5f0f624774af6210bf4503e9,2023-08-16_08h48.20.932,HF_wild_card,2022.2.4,Win32,60.3682463,5f0f624774af6210bf4503e9,64d2fd46c836a06233681665,64dc7f1e3339f3b6f1864735,,,,,,,decisionTrl,resources/DR.BMP,resources/DBN.BMP,Door1,-0.284259259,-0.075925926,1,0,0,2.0734,optionLeft,30,2180,1,42,0,42,0,1,,,,,,,,,,,,,,,,,,,,,,,,,,,,,,,,,,,,,,,
,,,,,,,5f0f624774af6210bf4503e9,2023-08-16_08h48.20.932,HF_wild_card,2022.2.4,Win32,60.3682463,5f0f624774af6210bf4503e9,64d2fd46c836a06233681665,64dc7f1e3339f3b6f1864735,,,,,,,sngl,resources/Empty.png,resources/DG.BMP,Door3,0.167592593,-0.012962963,1,0,0,0.6597,optionRight,70,2250,1,43,0,43,0,1,,,,,,,,,,,,,,,,,,,,,,,,,,,,,,,,,,,,,,,
,,,,,,,5f0f624774af6210bf4503e9,2023-08-16_08h48.20.932,HF_wild_card,2022.2.4,Win32,60.3682463,5f0f624774af6210bf4503e9,64d2fd46c836a06233681665,64dc7f1e3339f3b6f1864735,,,,,,,,,,,,,,,,,,,,,,,,,,0,0,0,0,1,,,,,,,,,,,,,,,,,,,,,,,,,,,,,,,,,,
,,,,,,,5f0f624774af6210bf4503e9,2023-08-16_08h48.20.932,HF_wild_card,2022.2.4,Win32,60.3682463,5f0f624774af6210bf4503e9,64d2fd46c836a06233681665,64dc7f1e3339f3b6f1864735,,,,,,,decisionTrl,resources/DP.BMP,resources/DB.BMP,WildCard_Ex,0.276851852,-0.000925926,1,0,0,1.5031,optionRight,95,2345,2,0,0,0,0,1,,,,,,,,,,,,,,,,,,,,,,,,,,,,,,,,,,,,,,,
,,,,,,,5f0f624774af6210bf4503e9,2023-08-16_08h48.20.932,HF_wild_card,2022.2.4,Win32,60.3682463,5f0f624774af6210bf4503e9,64d2fd46c836a06233681665,64dc7f1e3339f3b6f1864735,,,,,,,sngl,resources/Empty.png,resources/DR.BMP,Door1,0.293518519,0.014814815,1,0,0,0.5478,optionRight,30,2375,2,1,0,1,0,1,,,,,,,,,,,,,,,,,,,,,,,,,,,,,,,,,,,,,,,
,,,,,,,5f0f624774af6210bf4503e9,2023-08-16_08h48.20.932,HF_wild_card,2022.2.4,Win32,60.3682463,5f0f624774af6210bf4503e9,64d2fd46c836a06233681665,64dc7f1e3339f3b6f1864735,,,,,,,decisionTrl,resources/DBN.BMP,resources/DR.BMP,Door1,0.19537037,-0.016666667,1,0,0,1.1596,optionRight,30,2405,2,2,0,2,0,1,,,,,,,,,,,,,,,,,,,,,,,,,,,,,,,,,,,,,,,
,,,,,,,5f0f624774af6210bf4503e9,2023-08-16_08h48.20.932,HF_wild_card,2022.2.4,Win32,60.3682463,5f0f624774af6210bf4503e9,64d2fd46c836a06233681665,64dc7f1e3339f3b6f1864735,,,,,,,ctch,resources/DBN.BMP,resources/DG.BMP,Door2,-0.147222222,-0.013888889,1,0,0,1.2755,optionLeft,20,2425,2,3,0,3,0,1,,,,,,,,,,,,,,,,,,,,,,,,,,,,,,,,,,,,,,,
,,,,,,,5f0f624774af6210bf4503e9,2023-08-16_08h48.20.932,HF_wild_card,2022.2.4,Win32,60.3682463,5f0f624774af6210bf4503e9,64d2fd46c836a06233681665,64dc7f1e3339f3b6f1864735,,,,,,,ctch,resources/DR.BMP,resources/DP.BMP,Door4,0.388888889,-0.025,1,0,0,2.5095,optionRight,80,2505,2,4,0,4,0,1,,,,,,,,,,,,,,,,,,,,,,,,,,,,,,,,,,,,,,,
,,,,,,,5f0f624774af6210bf4503e9,2023-08-16_08h48.20.932,HF_wild_card,2022.2.4,Win32,60.3682463,5f0f624774af6210bf4503e9,64d2fd46c836a06233681665,64dc7f1e3339f3b6f1864735,,,,,,,ctch,resources/DP.BMP,resources/DR.BMP,Door4,-0.289814815,-0.022222222,1,0,0,1.4094,optionLeft,80,2585,2,5,0,5,0,1,,,,,,,,,,,,,,,,,,,,,,,,,,,,,,,,,,,,,,,
,,,,,,,5f0f624774af6210bf4503e9,2023-08-16_08h48.20.932,HF_wild_card,2022.2.4,Win32,60.3682463,5f0f624774af6210bf4503e9,64d2fd46c836a06233681665,64dc7f1e3339f3b6f1864735,,,,,,,decisionTrl,resources/DBN.BMP,resources/DR.BMP,Door1,0.525,-0.02037037,1,0,0,0.7584,optionRight,30,2615,2,6,0,6,0,1,,,,,,,,,,,,,,,,,,,,,,,,,,,,,,,,,,,,,,,
,,,,,,,5f0f624774af6210bf4503e9,2023-08-16_08h48.20.932,HF_wild_card,2022.2.4,Win32,60.3682463,5f0f624774af6210bf4503e9,64d2fd46c836a06233681665,64dc7f1e3339f3b6f1864735,,,,,,,decisionTrl,resources/DR.BMP,resources/DBN.BMP,Door1,-0.203703704,-0.02037037,1,0,0,1.4417,optionLeft,30,2645,2,7,0,7,0,1,,,,,,,,,,,,,,,,,,,,,,,,,,,,,,,,,,,,,,,
,,,,,,,5f0f624774af6210bf4503e9,2023-08-16_08h48.20.932,HF_wild_card,2022.2.4,Win32,60.3682463,5f0f624774af6210bf4503e9,64d2fd46c836a06233681665,64dc7f1e3339f3b6f1864735,,,,,,,sngl,resources/Empty.png,resources/DB.BMP,WildCard_Ex,0.219444444,-0.010185185,1,0,0,0.6427,optionRight,95,2740,2,8,0,8,0,1,,,,,,,,,,,,,,,,,,,,,,,,,,,,,,,,,,,,,,,
,,,,,,,5f0f624774af6210bf4503e9,2023-08-16_08h48.20.932,HF_wild_card,2022.2.4,Win32,60.3682463,5f0f624774af6210bf4503e9,64d2fd46c836a06233681665,64dc7f1e3339f3b6f1864735,,,,,,,decisionTrl,resources/DBN.BMP,resources/DR.BMP,Door1,0.47037037,-0.025925926,1,0,0,0.709,optionRight,30,2770,2,9,0,9,0,1,,,,,,,,,,,,,,,,,,,,,,,,,,,,,,,,,,,,,,,
,,,,,,,5f0f624774af6210bf4503e9,2023-08-16_08h48.20.932,HF_wild_card,2022.2.4,Win32,60.3682463,5f0f624774af6210bf4503e9,64d2fd46c836a06233681665,64dc7f1e3339f3b6f1864735,,,,,,,ctch,resources/DG.BMP,resources/DBN.BMP,Door3,-0.227777778,-0.018518519,1,0,0,0.8939,optionLeft,70,2840,2,10,0,10,0,1,,,,,,,,,,,,,,,,,,,,,,,,,,,,,,,,,,,,,,,
,,,,,,,5f0f624774af6210bf4503e9,2023-08-16_08h48.20.932,HF_wild_card,2022.2.4,Win32,60.3682463,5f0f624774af6210bf4503e9,64d2fd46c836a06233681665,64dc7f1e3339f3b6f1864735,,,,,,,sngl,resources/Empty.png,resources/DB.BMP,WildCard_Ex,0.362962963,-0.005555556,1,0,0,0.9594,optionRight,5,2845,2,11,0,11,0,1,,,,,,,,,,,,,,,,,,,,,,,,,,,,,,,,,,,,,,,
,,,,,,,5f0f624774af6210bf4503e9,2023-08-16_08h48.20.932,HF_wild_card,2022.2.4,Win32,60.3682463,5f0f624774af6210bf4503e9,64d2fd46c836a06233681665,64dc7f1e3339f3b6f1864735,,,,,,,sngl,resources/Empty.png,resources/DBN.BMP,Door2,0.315740741,0.000925926,1,0,0,1.109,optionRight,40,2885,2,12,0,12,0,1,,,,,,,,,,,,,,,,,,,,,,,,,,,,,,,,,,,,,,,
,,,,,,,5f0f624774af6210bf4503e9,2023-08-16_08h48.20.932,HF_wild_card,2022.2.4,Win32,60.3682463,5f0f624774af6210bf4503e9,64d2fd46c836a06233681665,64dc7f1e3339f3b6f1864735,,,,,,,ctch,resources/DR.BMP,resources/DP.BMP,Door4,0.298148148,-0.027777778,1,0,0,0.7423,optionRight,60,2945,2,13,0,13,0,1,,,,,,,,,,,,,,,,,,,,,,,,,,,,,,,,,,,,,,,
,,,,,,,5f0f624774af6210bf4503e9,2023-08-16_08h48.20.932,HF_wild_card,2022.2.4,Win32,60.3682463,5f0f624774af6210bf4503e9,64d2fd46c836a06233681665,64dc7f1e3339f3b6f1864735,,,,,,,decisionTrl,resources/DBN.BMP,resources/DR.BMP,Door1,0.477777778,-0.034259259,1,0,0,0.9263,optionRight,30,2975,2,14,0,14,0,1,,,,,,,,,,,,,,,,,,,,,,,,,,,,,,,,,,,,,,,
,,,,,,,5f0f624774af6210bf4503e9,2023-08-16_08h48.20.932,HF_wild_card,2022.2.4,Win32,60.3682463,5f0f624774af6210bf4503e9,64d2fd46c836a06233681665,64dc7f1e3339f3b6f1864735,,,,,,,decisionTrl,resources/DG.BMP,resources/DP.BMP,Door4,0.27037037,-0.007407407,1,0,0,0.7593,optionRight,80,3055,2,15,0,15,0,1,,,,,,,,,,,,,,,,,,,,,,,,,,,,,,,,,,,,,,,
,,,,,,,5f0f624774af6210bf4503e9,2023-08-16_08h48.20.932,HF_wild_card,2022.2.4,Win32,60.3682463,5f0f624774af6210bf4503e9,64d2fd46c836a06233681665,64dc7f1e3339f3b6f1864735,,,,,,,decisionTrl,resources/DP.BMP,resources/DG.BMP,Door3,0.287037037,-0.010185185,1,0,0,1.7764,optionRight,70,3125,2,16,0,16,0,1,,,,,,,,,,,,,,,,,,,,,,,,,,,,,,,,,,,,,,,
,,,,,,,5f0f624774af6210bf4503e9,2023-08-16_08h48.20.932,HF_wild_card,2022.2.4,Win32,60.3682463,5f0f624774af6210bf4503e9,64d2fd46c836a06233681665,64dc7f1e3339f3b6f1864735,,,,,,,ctch,resources/DG.BMP,resources/DBN.BMP,Door2,0.285185185,-0.007407407,1,0,0,0.9759,optionRight,40,3165,2,17,0,17,0,1,,,,,,,,,,,,,,,,,,,,,,,,,,,,,,,,,,,,,,,
,,,,,,,5f0f624774af6210bf4503e9,2023-08-16_08h48.20.932,HF_wild_card,2022.2.4,Win32,60.3682463,5f0f624774af6210bf4503e9,64d2fd46c836a06233681665,64dc7f1e3339f3b6f1864735,,,,,,,ctch,resources/DP.BMP,resources/DR.BMP,Door4,-0.312962963,-0.049074074,1,0,0,1.0427,optionLeft,60,3225,2,18,0,18,0,1,,,,,,,,,,,,,,,,,,,,,,,,,,,,,,,,,,,,,,,
,,,,,,,5f0f624774af6210bf4503e9,2023-08-16_08h48.20.932,HF_wild_card,2022.2.4,Win32,60.3682463,5f0f624774af6210bf4503e9,64d2fd46c836a06233681665,64dc7f1e3339f3b6f1864735,,,,,,,sngl,resources/DB.BMP,resources/Empty.png,WildCard_Ex,-0.47962963,-0.019444444,1,0,0,0.5599,optionLeft,95,3320,2,19,0,19,0,1,,,,,,,,,,,,,,,,,,,,,,,,,,,,,,,,,,,,,,,
,,,,,,,5f0f624774af6210bf4503e9,2023-08-16_08h48.20.932,HF_wild_card,2022.2.4,Win32,60.3682463,5f0f624774af6210bf4503e9,64d2fd46c836a06233681665,64dc7f1e3339f3b6f1864735,,,,,,,ctch,resources/DBN.BMP,resources/DG.BMP,Door3,0.473148148,-0.017592593,1,0,0,0.6757,optionRight,70,3390,2,20,0,20,0,1,,,,,,,,,,,,,,,,,,,,,,,,,,,,,,,,,,,,,,,
,,,,,,,5f0f624774af6210bf4503e9,2023-08-16_08h48.20.932,HF_wild_card,2022.2.4,Win32,60.3682463,5f0f624774af6210bf4503e9,64d2fd46c836a06233681665,64dc7f1e3339f3b6f1864735,,,,,,,decisionTrl,resources/DB.BMP,resources/DR.BMP,WildCard_Ex,-0.268518519,-0.027777778,1,0,0,1.2263,optionLeft,95,3485,2,21,0,21,0,1,,,,,,,,,,,,,,,,,,,,,,,,,,,,,,,,,,,,,,,
,,,,,,,5f0f624774af6210bf4503e9,2023-08-16_08h48.20.932,HF_wild_card,2022.2.4,Win32,60.3682463,5f0f624774af6210bf4503e9,64d2fd46c836a06233681665,64dc7f1e3339f3b6f1864735,,,,,,,decisionTrl,resources/DBN.BMP,resources/DB.BMP,WildCard_Ex,0.206481481,-0.011111111,1,0,0,0.7425,optionRight,95,3580,2,22,0,22,0,1,,,,,,,,,,,,,,,,,,,,,,,,,,,,,,,,,,,,,,,
,,,,,,,5f0f624774af6210bf4503e9,2023-08-16_08h48.20.932,HF_wild_card,2022.2.4,Win32,60.3682463,5f0f624774af6210bf4503e9,64d2fd46c836a06233681665,64dc7f1e3339f3b6f1864735,,,,,,,decisionTrl,resources/DB.BMP,resources/DP.BMP,WildCard_Ex,-0.282407407,-0.042592593,1,0,0,0.8094,optionLeft,5,3585,2,23,0,23,0,1,,,,,,,,,,,,,,,,,,,,,,,,,,,,,,,,,,,,,,,
,,,,,,,5f0f624774af6210bf4503e9,2023-08-16_08h48.20.932,HF_wild_card,2022.2.4,Win32,60.3682463,5f0f624774af6210bf4503e9,64d2fd46c836a06233681665,64dc7f1e3339f3b6f1864735,,,,,,,decisionTrl,resources/DG.BMP,resources/DP.BMP,Door4,0.143518519,-0.015740741,1,0,0,1.542,optionRight,60,3645,2,24,0,24,0,1,,,,,,,,,,,,,,,,,,,,,,,,,,,,,,,,,,,,,,,
,,,,,,,5f0f624774af6210bf4503e9,2023-08-16_08h48.20.932,HF_wild_card,2022.2.4,Win32,60.3682463,5f0f624774af6210bf4503e9,64d2fd46c836a06233681665,64dc7f1e3339f3b6f1864735,,,,,,,decisionTrl,resources/DB.BMP,resources/DBN.BMP,WildCard_Ex,-0.240740741,-0.022222222,1,0,0,0.8261,optionLeft,5,3650,2,25,0,25,0,1,,,,,,,,,,,,,,,,,,,,,,,,,,,,,,,,,,,,,,,
,,,,,,,5f0f624774af6210bf4503e9,2023-08-16_08h48.20.932,HF_wild_card,2022.2.4,Win32,60.3682463,5f0f624774af6210bf4503e9,64d2fd46c836a06233681665,64dc7f1e3339f3b6f1864735,,,,,,,decisionTrl,resources/DG.BMP,resources/DP.BMP,Door4,0.269444444,-0.030555556,1,0,0,2.5428,optionRight,60,3710,2,26,0,26,0,1,,,,,,,,,,,,,,,,,,,,,,,,,,,,,,,,,,,,,,,
,,,,,,,5f0f624774af6210bf4503e9,2023-08-16_08h48.20.932,HF_wild_card,2022.2.4,Win32,60.3682463,5f0f624774af6210bf4503e9,64d2fd46c836a06233681665,64dc7f1e3339f3b6f1864735,,,,,,,decisionTrl,resources/DP.BMP,resources/DG.BMP,Door4,-0.228703704,-0.044444444,1,0,0,1.2091,optionLeft,80,3790,2,27,0,27,0,1,,,,,,,,,,,,,,,,,,,,,,,,,,,,,,,,,,,,,,,
,,,,,,,5f0f624774af6210bf4503e9,2023-08-16_08h48.20.932,HF_wild_card,2022.2.4,Win32,60.3682463,5f0f624774af6210bf4503e9,64d2fd46c836a06233681665,64dc7f1e3339f3b6f1864735,,,,,,,decisionTrl,resources/DG.BMP,resources/DB.BMP,WildCard_Ex,0.281481481,-0.002777778,1,0,0,0.8095,optionRight,95,3885,2,28,0,28,0,1,,,,,,,,,,,,,,,,,,,,,,,,,,,,,,,,,,,,,,,
,,,,,,,5f0f624774af6210bf4503e9,2023-08-16_08h48.20.932,HF_wild_card,2022.2.4,Win32,60.3682463,5f0f624774af6210bf4503e9,64d2fd46c836a06233681665,64dc7f1e3339f3b6f1864735,,,,,,,decisionTrl,resources/DR.BMP,resources/DBN.BMP,Door1,-0.286111111,-0.048148148,1,0,0,1.9763,optionLeft,30,3915,2,29,0,29,0,1,,,,,,,,,,,,,,,,,,,,,,,,,,,,,,,,,,,,,,,
,,,,,,,5f0f624774af6210bf4503e9,2023-08-16_08h48.20.932,HF_wild_card,2022.2.4,Win32,60.3682463,5f0f624774af6210bf4503e9,64d2fd46c836a06233681665,64dc7f1e3339f3b6f1864735,,,,,,,decisionTrl,resources/DG.BMP,resources/DP.BMP,Door4,0.249074074,0,1,0,0,0.6428,optionRight,60,3975,2,30,0,30,0,1,,,,,,,,,,,,,,,,,,,,,,,,,,,,,,,,,,,,,,,
,,,,,,,5f0f624774af6210bf4503e9,2023-08-16_08h48.20.932,HF_wild_card,2022.2.4,Win32,60.3682463,5f0f624774af6210bf4503e9,64d2fd46c836a06233681665,64dc7f1e3339f3b6f1864735,,,,,,,decisionTrl,resources/DB.BMP,resources/DG.BMP,WildCard_Ex,-0.259259259,-0.021296296,1,0,0,0.7257,optionLeft,5,3980,2,31,0,31,0,1,,,,,,,,,,,,,,,,,,,,,,,,,,,,,,,,,,,,,,,
,,,,,,,5f0f624774af6210bf4503e9,2023-08-16_08h48.20.932,HF_wild_card,2022.2.4,Win32,60.3682463,5f0f624774af6210bf4503e9,64d2fd46c836a06233681665,64dc7f1e3339f3b6f1864735,,,,,,,sngl,resources/DR.BMP,resources/Empty.png,Door1,-0.29537037,-0.027777778,1,0,0,0.4595,optionLeft,30,4010,2,32,0,32,0,1,,,,,,,,,,,,,,,,,,,,,,,,,,,,,,,,,,,,,,,
,,,,,,,5f0f624774af6210bf4503e9,2023-08-16_08h48.20.932,HF_wild_card,2022.2.4,Win32,60.3682463,5f0f624774af6210bf4503e9,64d2fd46c836a06233681665,64dc7f1e3339f3b6f1864735,,,,,,,decisionTrl,resources/DP.BMP,resources/DG.BMP,Door4,-0.275925926,-0.058333333,1,0,0,0.8303,optionLeft,60,4070,2,33,0,33,0,1,,,,,,,,,,,,,,,,,,,,,,,,,,,,,,,,,,,,,,,
,,,,,,,5f0f624774af6210bf4503e9,2023-08-16_08h48.20.932,HF_wild_card,2022.2.4,Win32,60.3682463,5f0f624774af6210bf4503e9,64d2fd46c836a06233681665,64dc7f1e3339f3b6f1864735,,,,,,,sngl,resources/DB.BMP,resources/Empty.png,WildCard_Ex,-0.298148148,-0.010185185,1,0,0,0.5431,optionLeft,5,4075,2,34,0,34,0,1,,,,,,,,,,,,,,,,,,,,,,,,,,,,,,,,,,,,,,,
,,,,,,,5f0f624774af6210bf4503e9,2023-08-16_08h48.20.932,HF_wild_card,2022.2.4,Win32,60.3682463,5f0f624774af6210bf4503e9,64d2fd46c836a06233681665,64dc7f1e3339f3b6f1864735,,,,,,,sngl,resources/Empty.png,resources/DP.BMP,Door4,0.162962963,-0.005555556,1,0,0,0.5923,optionRight,80,4155,2,35,0,35,0,1,,,,,,,,,,,,,,,,,,,,,,,,,,,,,,,,,,,,,,,
,,,,,,,5f0f624774af6210bf4503e9,2023-08-16_08h48.20.932,HF_wild_card,2022.2.4,Win32,60.3682463,5f0f624774af6210bf4503e9,64d2fd46c836a06233681665,64dc7f1e3339f3b6f1864735,,,,,,,sngl,resources/DP.BMP,resources/Empty.png,Door4,-0.174074074,-0.025925926,1,0,0,0.493,optionLeft,60,4215,2,36,0,36,0,1,,,,,,,,,,,,,,,,,,,,,,,,,,,,,,,,,,,,,,,
,,,,,,,5f0f624774af6210bf4503e9,2023-08-16_08h48.20.932,HF_wild_card,2022.2.4,Win32,60.3682463,5f0f624774af6210bf4503e9,64d2fd46c836a06233681665,64dc7f1e3339f3b6f1864735,,,,,,,sngl,resources/DG.BMP,resources/Empty.png,Door3,-0.171296296,-0.012962963,1,0,0,0.4459,optionLeft,70,4285,2,37,0,37,0,1,,,,,,,,,,,,,,,,,,,,,,,,,,,,,,,,,,,,,,,
,,,,,,,5f0f624774af6210bf4503e9,2023-08-16_08h48.20.932,HF_wild_card,2022.2.4,Win32,60.3682463,5f0f624774af6210bf4503e9,64d2fd46c836a06233681665,64dc7f1e3339f3b6f1864735,,,,,,,decisionTrl,resources/DR.BMP,resources/DBN.BMP,Door1,-0.287037037,-0.025,1,0,0,1.5451,optionLeft,30,4315,2,38,0,38,0,1,,,,,,,,,,,,,,,,,,,,,,,,,,,,,,,,,,,,,,,
,,,,,,,5f0f624774af6210bf4503e9,2023-08-16_08h48.20.932,HF_wild_card,2022.2.4,Win32,60.3682463,5f0f624774af6210bf4503e9,64d2fd46c836a06233681665,64dc7f1e3339f3b6f1864735,,,,,,,decisionTrl,resources/DR.BMP,resources/DB.BMP,WildCard_Ex,0.212037037,-0.00462963,1,0,0,0.9263,optionRight,95,4410,2,39,0,39,0,1,,,,,,,,,,,,,,,,,,,,,,,,,,,,,,,,,,,,,,,
,,,,,,,5f0f624774af6210bf4503e9,2023-08-16_08h48.20.932,HF_wild_card,2022.2.4,Win32,60.3682463,5f0f624774af6210bf4503e9,64d2fd46c836a06233681665,64dc7f1e3339f3b6f1864735,,,,,,,decisionTrl,resources/DP.BMP,resources/DG.BMP,Door3,0.272222222,-0.015740741,1,0,0,2.8096,optionRight,70,4480,2,40,0,40,0,1,,,,,,,,,,,,,,,,,,,,,,,,,,,,,,,,,,,,,,,
,,,,,,,5f0f624774af6210bf4503e9,2023-08-16_08h48.20.932,HF_wild_card,2022.2.4,Win32,60.3682463,5f0f624774af6210bf4503e9,64d2fd46c836a06233681665,64dc7f1e3339f3b6f1864735,,,,,,,sngl,resources/DBN.BMP,resources/Empty.png,Door2,-0.259259259,-0.025925926,1,0,0,0.8262,optionLeft,20,4500,2,41,0,41,0,1,,,,,,,,,,,,,,,,,,,,,,,,,,,,,,,,,,,,,,,
,,,,,,,5f0f624774af6210bf4503e9,2023-08-16_08h48.20.932,HF_wild_card,2022.2.4,Win32,60.3682463,5f0f624774af6210bf4503e9,64d2fd46c836a06233681665,64dc7f1e3339f3b6f1864735,,,,,,,sngl,resources/Empty.png,resources/DG.BMP,Door3,0.225,-0.005555556,1,0,0,0.6426,optionRight,70,4570,2,42,0,42,0,1,,,,,,,,,,,,,,,,,,,,,,,,,,,,,,,,,,,,,,,
,,,,,,,5f0f624774af6210bf4503e9,2023-08-16_08h48.20.932,HF_wild_card,2022.2.4,Win32,60.3682463,5f0f624774af6210bf4503e9,64d2fd46c836a06233681665,64dc7f1e3339f3b6f1864735,,,,,,,decisionTrl,resources/DR.BMP,resources/DBN.BMP,Door1,-0.231481481,-0.041666667,1,0,0,0.9267,optionLeft,30,4600,2,43,0,43,0,1,,,,,,,,,,,,,,,,,,,,,,,,,,,,,,,,,,,,,,,
,,,,,,,5f0f624774af6210bf4503e9,2023-08-16_08h48.20.932,HF_wild_card,2022.2.4,Win32,60.3682463,5f0f624774af6210bf4503e9,64d2fd46c836a06233681665,64dc7f1e3339f3b6f1864735,,,,,,,,,,,,,,,,,,,,,,,,,,1,0,1,0,1,,,,,,,,,,,,,,,,,,,,,,,,,,,,,,,,,,
,,,,,,,5f0f624774af6210bf4503e9,2023-08-16_08h48.20.932,HF_wild_card,2022.2.4,Win32,60.3682463,5f0f624774af6210bf4503e9,64d2fd46c836a06233681665,64dc7f1e3339f3b6f1864735,,,,,,,sngl,resources/Empty.png,resources/DB.BMP,WildCard_Ex,0.30462963,-0.084259259,1,0,0,1.018,optionRight,95,4695,3,0,0,0,0,1,,,,,,,,,,,,,,,,,,,,,,,,,,,,,,,,,,,,,,,
,,,,,,,5f0f624774af6210bf4503e9,2023-08-16_08h48.20.932,HF_wild_card,2022.2.4,Win32,60.3682463,5f0f624774af6210bf4503e9,64d2fd46c836a06233681665,64dc7f1e3339f3b6f1864735,,,,,,,decisionTrl,resources/DR.BMP,resources/DBN.BMP,Door1,-0.276851852,-0.024074074,1,0,0,0.7593,optionLeft,30,4725,3,1,0,1,0,1,,,,,,,,,,,,,,,,,,,,,,,,,,,,,,,,,,,,,,,
,,,,,,,5f0f624774af6210bf4503e9,2023-08-16_08h48.20.932,HF_wild_card,2022.2.4,Win32,60.3682463,5f0f624774af6210bf4503e9,64d2fd46c836a06233681665,64dc7f1e3339f3b6f1864735,,,,,,,decisionTrl,resources/DG.BMP,resources/DB.BMP,WildCard_Ex,0.350925926,-0.002777778,1,0,0,0.6592,optionRight,95,4820,3,2,0,2,0,1,,,,,,,,,,,,,,,,,,,,,,,,,,,,,,,,,,,,,,,
,,,,,,,5f0f624774af6210bf4503e9,2023-08-16_08h48.20.932,HF_wild_card,2022.2.4,Win32,60.3682463,5f0f624774af6210bf4503e9,64d2fd46c836a06233681665,64dc7f1e3339f3b6f1864735,,,,,,,ctch,resources/DBN.BMP,resources/DG.BMP,Door3,0.402777778,-0.010185185,1,0,0,0.7929,optionRight,70,4890,3,3,0,3,0,1,,,,,,,,,,,,,,,,,,,,,,,,,,,,,,,,,,,,,,,
,,,,,,,5f0f624774af6210bf4503e9,2023-08-16_08h48.20.932,HF_wild_card,2022.2.4,Win32,60.3682463,5f0f624774af6210bf4503e9,64d2fd46c836a06233681665,64dc7f1e3339f3b6f1864735,,,,,,,decisionTrl,resources/DBN.BMP,resources/DR.BMP,Door1,0.365740741,-0.021296296,1,0,0,0.8325,optionRight,30,4920,3,4,0,4,0,1,,,,,,,,,,,,,,,,,,,,,,,,,,,,,,,,,,,,,,,
,,,,,,,5f0f624774af6210bf4503e9,2023-08-16_08h48.20.932,HF_wild_card,2022.2.4,Win32,60.3682463,5f0f624774af6210bf4503e9,64d2fd46c836a06233681665,64dc7f1e3339f3b6f1864735,,,,,,,decisionTrl,resources/DBN.BMP,resources/DR.BMP,Door1,0.275925926,-0.005555556,1,0,0,0.8587,optionRight,30,4950,3,5,0,5,0,1,,,,,,,,,,,,,,,,,,,,,,,,,,,,,,,,,,,,,,,
,,,,,,,5f0f624774af6210bf4503e9,2023-08-16_08h48.20.932,HF_wild_card,2022.2.4,Win32,60.3682463,5f0f624774af6210bf4503e9,64d2fd46c836a06233681665,64dc7f1e3339f3b6f1864735,,,,,,,ctch,resources/DR.BMP,resources/DP.BMP,Door4,0.297222222,-0.022222222,1,0,0,0.9596,optionRight,60,5010,3,6,0,6,0,1,,,,,,,,,,,,,,,,,,,,,,,,,,,,,,,,,,,,,,,
,,,,,,,5f0f624774af6210bf4503e9,2023-08-16_08h48.20.932,HF_wild_card,2022.2.4,Win32,60.3682463,5f0f624774af6210bf4503e9,64d2fd46c836a06233681665,64dc7f1e3339f3b6f1864735,,,,,,,decisionTrl,resources/DR.BMP,resources/DBN.BMP,Door1,-0.186111111,-0.037962963,1,0,0,1.1928,optionLeft,30,5040,3,7,0,7,0,1,,,,,,,,,,,,,,,,,,,,,,,,,,,,,,,,,,,,,,,
,,,,,,,5f0f624774af6210bf4503e9,2023-08-16_08h48.20.932,HF_wild_card,2022.2.4,Win32,60.3682463,5f0f624774af6210bf4503e9,64d2fd46c836a06233681665,64dc7f1e3339f3b6f1864735,,,,,,,decisionTrl,resources/DG.BMP,resources/DP.BMP,Door4,0.528703704,-0.00462963,1,0,0,0.7093,optionRight,60,5100,3,8,0,8,0,1,,,,,,,,,,,,,,,,,,,,,,,,,,,,,,,,,,,,,,,
,,,,,,,5f0f624774af6210bf4503e9,2023-08-16_08h48.20.932,HF_wild_card,2022.2.4,Win32,60.3682463,5f0f624774af6210bf4503e9,64d2fd46c836a06233681665,64dc7f1e3339f3b6f1864735,,,,,,,decisionTrl,resources/DG.BMP,resources/DP.BMP,Door4,0.355555556,0.015740741,1,0,0,0.66,optionRight,60,5160,3,9,0,9,0,1,,,,,,,,,,,,,,,,,,,,,,,,,,,,,,,,,,,,,,,
,,,,,,,5f0f624774af6210bf4503e9,2023-08-16_08h48.20.932,HF_wild_card,2022.2.4,Win32,60.3682463,5f0f624774af6210bf4503e9,64d2fd46c836a06233681665,64dc7f1e3339f3b6f1864735,,,,,,,decisionTrl,resources/DR.BMP,resources/DBN.BMP,Door1,-0.197222222,-0.060185185,1,0,0,0.7239,optionLeft,30,5190,3,10,0,10,0,1,,,,,,,,,,,,,,,,,,,,,,,,,,,,,,,,,,,,,,,
,,,,,,,5f0f624774af6210bf4503e9,2023-08-16_08h48.20.932,HF_wild_card,2022.2.4,Win32,60.3682463,5f0f624774af6210bf4503e9,64d2fd46c836a06233681665,64dc7f1e3339f3b6f1864735,,,,,,,decisionTrl,resources/DP.BMP,resources/DG.BMP,Door4,-0.259259259,-0.031481481,1,0,0,0.7263,optionLeft,60,5250,3,11,0,11,0,1,,,,,,,,,,,,,,,,,,,,,,,,,,,,,,,,,,,,,,,
,,,,,,,5f0f624774af6210bf4503e9,2023-08-16_08h48.20.932,HF_wild_card,2022.2.4,Win32,60.3682463,5f0f624774af6210bf4503e9,64d2fd46c836a06233681665,64dc7f1e3339f3b6f1864735,,,,,,,decisionTrl,resources/DB.BMP,resources/DP.BMP,WildCard_Ex,-0.262037037,-0.040740741,1,0,0,1.0264,optionLeft,95,5345,3,12,0,12,0,1,,,,,,,,,,,,,,,,,,,,,,,,,,,,,,,,,,,,,,,
,,,,,,,5f0f624774af6210bf4503e9,2023-08-16_08h48.20.932,HF_wild_card,2022.2.4,Win32,60.3682463,5f0f624774af6210bf4503e9,64d2fd46c836a06233681665,64dc7f1e3339f3b6f1864735,,,,,,,sngl,resources/Empty.png,resources/DP.BMP,Door4,0.267592593,0.003703704,1,0,0,0.6592,optionRight,60,5405,3,13,0,13,0,1,,,,,,,,,,,,,,,,,,,,,,,,,,,,,,,,,,,,,,,
,,,,,,,5f0f624774af6210bf4503e9,2023-08-16_08h48.20.932,HF_wild_card,2022.2.4,Win32,60.3682463,5f0f624774af6210bf4503e9,64d2fd46c836a06233681665,64dc7f1e3339f3b6f1864735,,,,,,,decisionTrl,resources/DR.BMP,resources/DB.BMP,WildCard_Ex,0.318518519,0.000925926,1,0,0,0.4761,optionRight,5,5410,3,14,0,14,0,1,,,,,,,,,,,,,,,,,,,,,,,,,,,,,,,,,,,,,,,
,,,,,,,5f0f624774af6210bf4503e9,2023-08-16_08h48.20.932,HF_wild_card,2022.2.4,Win32,60.3682463,5f0f624774af6210bf4503e9,64d2fd46c836a06233681665,64dc7f1e3339f3b6f1864735,,,,,,,decisionTrl,resources/DB.BMP,resources/DBN.BMP,WildCard_Ex,-0.309259259,-0.005555556,1,0,0,0.4915,optionLeft,95,5505,3,15,0,15,0,1,,,,,,,,,,,,,,,,,,,,,,,,,,,,,,,,,,,,,,,
,,,,,,,5f0f624774af6210bf4503e9,2023-08-16_08h48.20.932,HF_wild_card,2022.2.4,Win32,60.3682463,5f0f624774af6210bf4503e9,64d2fd46c836a06233681665,64dc7f1e3339f3b6f1864735,,,,,,,ctch,resources/DP.BMP,resources/DR.BMP,Door4,-0.271296296,-0.000925926,1,0,0,1.1989,optionLeft,80,5585,3,16,0,16,0,1,,,,,,,,,,,,,,,,,,,,,,,,,,,,,,,,,,,,,,,
,,,,,,,5f0f624774af6210bf4503e9,2023-08-16_08h48.20.932,HF_wild_card,2022.2.4,Win32,60.3682463,5f0f624774af6210bf4503e9,64d2fd46c836a06233681665,64dc7f1e3339f3b6f1864735,,,,,,,decisionTrl,resources/DR.BMP,resources/DBN.BMP,Door1,-0.228703704,-0.012962963,1,0,0,0.7429,optionLeft,30,5615,3,17,0,17,0,1,,,,,,,,,,,,,,,,,,,,,,,,,,,,,,,,,,,,,,,
,,,,,,,5f0f624774af6210bf4503e9,2023-08-16_08h48.20.932,HF_wild_card,2022.2.4,Win32,60.3682463,5f0f624774af6210bf4503e9,64d2fd46c836a06233681665,64dc7f1e3339f3b6f1864735,,,,,,,ctch,resources/DG.BMP,resources/DBN.BMP,Door3,-0.15462963,-0.014814815,1,0,0,0.6761,optionLeft,70,5685,3,18,0,18,0,1,,,,,,,,,,,,,,,,,,,,,,,,,,,,,,,,,,,,,,,
,,,,,,,5f0f624774af6210bf4503e9,2023-08-16_08h48.20.932,HF_wild_card,2022.2.4,Win32,60.3682463,5f0f624774af6210bf4503e9,64d2fd46c836a06233681665,64dc7f1e3339f3b6f1864735,,,,,,,sngl,resources/Empty.png,resources/DBN.BMP,Door2,0.243518519,-0.012037037,1,0,0,0.6096,optionRight,20,5705,3,19,0,19,0,1,,,,,,,,,,,,,,,,,,,,,,,,,,,,,,,,,,,,,,,
,,,,,,,5f0f624774af6210bf4503e9,2023-08-16_08h48.20.932,HF_wild_card,2022.2.4,Win32,60.3682463,5f0f624774af6210bf4503e9,64d2fd46c836a06233681665,64dc7f1e3339f3b6f1864735,,,,,,,decisionTrl,resources/DP.BMP,resources/DB.BMP,WildCard_Ex,0.334259259,-0.010185185,1,0,0,0.5761,optionRight,5,5710,3,20,0,20,0,1,,,,,,,,,,,,,,,,,,,,,,,,,,,,,,,,,,,,,,,
,,,,,,,5f0f624774af6210bf4503e9,2023-08-16_08h48.20.932,HF_wild_card,2022.2.4,Win32,60.3682463,5f0f624774af6210bf4503e9,64d2fd46c836a06233681665,64dc7f1e3339f3b6f1864735,,,,,,,sngl,resources/DR.BMP,resources/Empty.png,Door1,-0.260185185,-0.015740741,1,0,0,0.5757,optionLeft,30,5740,3,21,0,21,0,1,,,,,,,,,,,,,,,,,,,,,,,,,,,,,,,,,,,,,,,
,,,,,,,5f0f624774af6210bf4503e9,2023-08-16_08h48.20.932,HF_wild_card,2022.2.4,Win32,60.3682463,5f0f624774af6210bf4503e9,64d2fd46c836a06233681665,64dc7f1e3339f3b6f1864735,,,,,,,decisionTrl,resources/DP.BMP,resources/DG.BMP,Door4,-0.278703704,-0.006481481,1,0,0,0.6991,optionLeft,80,5820,3,22,0,22,0,1,,,,,,,,,,,,,,,,,,,,,,,,,,,,,,,,,,,,,,,
,,,,,,,5f0f624774af6210bf4503e9,2023-08-16_08h48.20.932,HF_wild_card,2022.2.4,Win32,60.3682463,5f0f624774af6210bf4503e9,64d2fd46c836a06233681665,64dc7f1e3339f3b6f1864735,,,,,,,sngl,resources/DP.BMP,resources/Empty.png,Door4,-0.192592593,-0.013888889,1,0,0,0.4261,optionLeft,80,5900,3,23,0,23,0,1,,,,,,,,,,,,,,,,,,,,,,,,,,,,,,,,,,,,,,,
,,,,,,,5f0f624774af6210bf4503e9,2023-08-16_08h48.20.932,HF_wild_card,2022.2.4,Win32,60.3682463,5f0f624774af6210bf4503e9,64d2fd46c836a06233681665,64dc7f1e3339f3b6f1864735,,,,,,,sngl,resources/Empty.png,resources/DG.BMP,Door3,0.246296296,-0.007407407,1,0,0,0.5759,optionRight,70,5970,3,24,0,24,0,1,,,,,,,,,,,,,,,,,,,,,,,,,,,,,,,,,,,,,,,
,,,,,,,5f0f624774af6210bf4503e9,2023-08-16_08h48.20.932,HF_wild_card,2022.2.4,Win32,60.3682463,5f0f624774af6210bf4503e9,64d2fd46c836a06233681665,64dc7f1e3339f3b6f1864735,,,,,,,decisionTrl,resources/DBN.BMP,resources/DR.BMP,Door1,0.20462963,-0.021296296,1,0,0,1.1471,optionRight,30,6000,3,25,0,25,0,1,,,,,,,,,,,,,,,,,,,,,,,,,,,,,,,,,,,,,,,
,,,,,,,5f0f624774af6210bf4503e9,2023-08-16_08h48.20.932,HF_wild_card,2022.2.4,Win32,60.3682463,5f0f624774af6210bf4503e9,64d2fd46c836a06233681665,64dc7f1e3339f3b6f1864735,,,,,,,sngl,resources/Empty.png,resources/DR.BMP,Door1,0.211111111,0.00462963,1,0,0,0.5103,optionRight,30,6030,3,26,0,26,0,1,,,,,,,,,,,,,,,,,,,,,,,,,,,,,,,,,,,,,,,
,,,,,,,5f0f624774af6210bf4503e9,2023-08-16_08h48.20.932,HF_wild_card,2022.2.4,Win32,60.3682463,5f0f624774af6210bf4503e9,64d2fd46c836a06233681665,64dc7f1e3339f3b6f1864735,,,,,,,ctch,resources/DBN.BMP,resources/DG.BMP,Door3,0.19537037,0.00462963,1,0,0,0.6265,optionRight,70,6100,3,27,0,27,0,1,,,,,,,,,,,,,,,,,,,,,,,,,,,,,,,,,,,,,,,
,,,,,,,5f0f624774af6210bf4503e9,2023-08-16_08h48.20.932,HF_wild_card,2022.2.4,Win32,60.3682463,5f0f624774af6210bf4503e9,64d2fd46c836a06233681665,64dc7f1e3339f3b6f1864735,,,,,,,sngl,resources/Empty.png,resources/DB.BMP,WildCard_Ex,0.301851852,0.017592593,1,0,0,0.459,optionRight,5,6105,3,28,0,28,0,1,,,,,,,,,,,,,,,,,,,,,,,,,,,,,,,,,,,,,,,
,,,,,,,5f0f624774af6210bf4503e9,2023-08-16_08h48.20.932,HF_wild_card,2022.2.4,Win32,60.3682463,5f0f624774af6210bf4503e9,64d2fd46c836a06233681665,64dc7f1e3339f3b6f1864735,,,,,,,decisionTrl,resources/DP.BMP,resources/DG.BMP,Door3,0.230555556,-0.005555556,1,0,0,0.6594,optionRight,70,6175,3,29,0,29,0,1,,,,,,,,,,,,,,,,,,,,,,,,,,,,,,,,,,,,,,,
,,,,,,,5f0f624774af6210bf4503e9,2023-08-16_08h48.20.932,HF_wild_card,2022.2.4,Win32,60.3682463,5f0f624774af6210bf4503e9,64d2fd46c836a06233681665,64dc7f1e3339f3b6f1864735,,,,,,,decisionTrl,resources/DBN.BMP,resources/DR.BMP,Door1,0.355555556,-0.014814815,1,0,0,1.2096,optionRight,30,6205,3,30,0,30,0,1,,,,,,,,,,,,,,,,,,,,,,,,,,,,,,,,,,,,,,,
,,,,,,,5f0f624774af6210bf4503e9,2023-08-16_08h48.20.932,HF_wild_card,2022.2.4,Win32,60.3682463,5f0f624774af6210bf4503e9,64d2fd46c836a06233681665,64dc7f1e3339f3b6f1864735,,,,,,,ctch,resources/DG.BMP,resources/DBN.BMP,Door3,-0.158333333,-0.019444444,1,0,0,0.8926,optionLeft,70,6275,3,31,0,31,0,1,,,,,,,,,,,,,,,,,,,,,,,,,,,,,,,,,,,,,,,
,,,,,,,5f0f624774af6210bf4503e9,2023-08-16_08h48.20.932,HF_wild_card,2022.2.4,Win32,60.3682463,5f0f624774af6210bf4503e9,64d2fd46c836a06233681665,64dc7f1e3339f3b6f1864735,,,,,,,sngl,resources/DBN.BMP,resources/Empty.png,Door2,-0.173148148,-0.015740741,1,0,0,0.5788,optionLeft,40,6315,3,32,0,32,0,1,,,,,,,,,,,,,,,,,,,,,,,,,,,,,,,,,,,,,,,
,,,,,,,5f0f624774af6210bf4503e9,2023-08-16_08h48.20.932,HF_wild_card,2022.2.4,Win32,60.3682463,5f0f624774af6210bf4503e9,64d2fd46c836a06233681665,64dc7f1e3339f3b6f1864735,,,,,,,decisionTrl,resources/DBN.BMP,resources/DB.BMP,WildCard_Ex,0.335185185,-0.025925926,1,0,0,0.9762,optionRight,5,6320,3,33,0,33,0,1,,,,,,,,,,,,,,,,,,,,,,,,,,,,,,,,,,,,,,,
,,,,,,,5f0f624774af6210bf4503e9,2023-08-16_08h48.20.932,HF_wild_card,2022.2.4,Win32,60.3682463,5f0f624774af6210bf4503e9,64d2fd46c836a06233681665,64dc7f1e3339f3b6f1864735,,,,,,,decisionTrl,resources/DB.BMP,resources/DR.BMP,WildCard_Ex,-0.210185185,-0.02962963,1,0,0,0.6929,optionLeft,5,6325,3,34,0,34,0,1,,,,,,,,,,,,,,,,,,,,,,,,,,,,,,,,,,,,,,,
,,,,,,,5f0f624774af6210bf4503e9,2023-08-16_08h48.20.932,HF_wild_card,2022.2.4,Win32,60.3682463,5f0f624774af6210bf4503e9,64d2fd46c836a06233681665,64dc7f1e3339f3b6f1864735,,,,,,,ctch,resources/DR.BMP,resources/DP.BMP,Door1,-0.210185185,-0.040740741,1,0,0,1.3928,optionLeft,30,6355,3,35,0,35,0,1,,,,,,,,,,,,,,,,,,,,,,,,,,,,,,,,,,,,,,,
,,,,,,,5f0f624774af6210bf4503e9,2023-08-16_08h48.20.932,HF_wild_card,2022.2.4,Win32,60.3682463,5f0f624774af6210bf4503e9,64d2fd46c836a06233681665,64dc7f1e3339f3b6f1864735,,,,,,,sngl,resources/DB.BMP,resources/Empty.png,WildCard_Ex,-0.212037037,-0.033333333,1,0,0,0.476,optionLeft,95,6450,3,36,0,36,0,1,,,,,,,,,,,,,,,,,,,,,,,,,,,,,,,,,,,,,,,
,,,,,,,5f0f624774af6210bf4503e9,2023-08-16_08h48.20.932,HF_wild_card,2022.2.4,Win32,60.3682463,5f0f624774af6210bf4503e9,64d2fd46c836a06233681665,64dc7f1e3339f3b6f1864735,,,,,,,decisionTrl,resources/DP.BMP,resources/DG.BMP,Door4,-0.163888889,-0.032407407,1,0,0,0.6759,optionLeft,60,6510,3,37,0,37,0,1,,,,,,,,,,,,,,,,,,,,,,,,,,,,,,,,,,,,,,,
,,,,,,,5f0f624774af6210bf4503e9,2023-08-16_08h48.20.932,HF_wild_card,2022.2.4,Win32,60.3682463,5f0f624774af6210bf4503e9,64d2fd46c836a06233681665,64dc7f1e3339f3b6f1864735,,,,,,,sngl,resources/DB.BMP,resources/Empty.png,WildCard_Ex,-0.178703704,-0.018518519,1,0,0,0.4584,optionLeft,5,6515,3,38,0,38,0,1,,,,,,,,,,,,,,,,,,,,,,,,,,,,,,,,,,,,,,,
,,,,,,,5f0f624774af6210bf4503e9,2023-08-16_08h48.20.932,HF_wild_card,2022.2.4,Win32,60.3682463,5f0f624774af6210bf4503e9,64d2fd46c836a06233681665,64dc7f1e3339f3b6f1864735,,,,,,,ctch,resources/DP.BMP,resources/DR.BMP,Door4,-0.347222222,-0.032407407,1,0,0,1.3093,optionLeft,60,6575,3,39,0,39,0,1,,,,,,,,,,,,,,,,,,,,,,,,,,,,,,,,,,,,,,,
,,,,,,,5f0f624774af6210bf4503e9,2023-08-16_08h48.20.932,HF_wild_card,2022.2.4,Win32,60.3682463,5f0f624774af6210bf4503e9,64d2fd46c836a06233681665,64dc7f1e3339f3b6f1864735,,,,,,,decisionTrl,resources/DG.BMP,resources/DP.BMP,Door4,0.162037037,-0.026851852,1,0,0,0.7654,optionRight,60,6635,3,40,0,40,0,1,,,,,,,,,,,,,,,,,,,,,,,,,,,,,,,,,,,,,,,
,,,,,,,5f0f624774af6210bf4503e9,2023-08-16_08h48.20.932,HF_wild_card,2022.2.4,Win32,60.3682463,5f0f624774af6210bf4503e9,64d2fd46c836a06233681665,64dc7f1e3339f3b6f1864735,,,,,,,decisionTrl,resources/DB.BMP,resources/DG.BMP,WildCard_Ex,-0.186111111,-0.024074074,1,0,0,1.8763,optionLeft,5,6640,3,41,0,41,0,1,,,,,,,,,,,,,,,,,,,,,,,,,,,,,,,,,,,,,,,
,,,,,,,5f0f624774af6210bf4503e9,2023-08-16_08h48.20.932,HF_wild_card,2022.2.4,Win32,60.3682463,5f0f624774af6210bf4503e9,64d2fd46c836a06233681665,64dc7f1e3339f3b6f1864735,,,,,,,sngl,resources/DG.BMP,resources/Empty.png,Door3,-0.264814815,-0.028703704,1,0,0,0.5598,optionLeft,70,6710,3,42,0,42,0,1,,,,,,,,,,,,,,,,,,,,,,,,,,,,,,,,,,,,,,,
,,,,,,,5f0f624774af6210bf4503e9,2023-08-16_08h48.20.932,HF_wild_card,2022.2.4,Win32,60.3682463,5f0f624774af6210bf4503e9,64d2fd46c836a06233681665,64dc7f1e3339f3b6f1864735,,,,,,,decisionTrl,resources/DG.BMP,resources/DP.BMP,Door3,-0.171296296,-0.052777778,1,0,0,0.8595,optionLeft,70,6780,3,43,0,43,0,1,,,,,,,,,,,,,,,,,,,,,,,,,,,,,,,,,,,,,,,
,,,,,,,5f0f624774af6210bf4503e9,2023-08-16_08h48.20.932,HF_wild_card,2022.2.4,Win32,60.3682463,5f0f624774af6210bf4503e9,64d2fd46c836a06233681665,64dc7f1e3339f3b6f1864735,,,,,,,,,,,,,,,,,,,,,,,,,,2,0,2,0,1,,,,,,,,,,,,,,,,,,,,,,,,,,,,,,,,,,
,,,,,,,5f0f624774af6210bf4503e9,2023-08-16_08h48.20.932,HF_wild_card,2022.2.4,Win32,60.3682463,5f0f624774af6210bf4503e9,64d2fd46c836a06233681665,64dc7f1e3339f3b6f1864735,,,,,,,sngl,resources/DY.BMP,resources/Empty.png,WildCard_NonEx,-0.211111111,-0.062962963,1,0,0,0.9503,optionLeft,45,6825,4,0,0,0,0,1,,,,,,,,,,,,,,,,,,,,,,,,,,,,,,,,,,,,,,,
,,,,,,,5f0f624774af6210bf4503e9,2023-08-16_08h48.20.932,HF_wild_card,2022.2.4,Win32,60.3682463,5f0f624774af6210bf4503e9,64d2fd46c836a06233681665,64dc7f1e3339f3b6f1864735,,,,,,,sngl,resources/DP.BMP,resources/Empty.png,Door4,-0.341666667,0.003703704,1,0,0,0.6426,optionLeft,60,6885,4,1,0,1,0,1,,,,,,,,,,,,,,,,,,,,,,,,,,,,,,,,,,,,,,,
,,,,,,,5f0f624774af6210bf4503e9,2023-08-16_08h48.20.932,HF_wild_card,2022.2.4,Win32,60.3682463,5f0f624774af6210bf4503e9,64d2fd46c836a06233681665,64dc7f1e3339f3b6f1864735,,,,,,,sngl,resources/Empty.png,resources/DR.BMP,Door1,0.248148148,-0.025925926,1,0,0,0.9594,optionRight,30,6915,4,2,0,2,0,1,,,,,,,,,,,,,,,,,,,,,,,,,,,,,,,,,,,,,,,
,,,,,,,5f0f624774af6210bf4503e9,2023-08-16_08h48.20.932,HF_wild_card,2022.2.4,Win32,60.3682463,5f0f624774af6210bf4503e9,64d2fd46c836a06233681665,64dc7f1e3339f3b6f1864735,,,,,,,ctch,resources/DBN.BMP,resources/DG.BMP,Door3,0.241666667,0.003703704,1,0,0,0.8744,optionRight,70,6985,4,3,0,3,0,1,,,,,,,,,,,,,,,,,,,,,,,,,,,,,,,,,,,,,,,
,,,,,,,5f0f624774af6210bf4503e9,2023-08-16_08h48.20.932,HF_wild_card,2022.2.4,Win32,60.3682463,5f0f624774af6210bf4503e9,64d2fd46c836a06233681665,64dc7f1e3339f3b6f1864735,,,,,,,decisionTrl,resources/DR.BMP,resources/DBN.BMP,Door1,-0.212962963,-0.024074074,1,0,0,0.8591,optionLeft,30,7015,4,4,0,4,0,1,,,,,,,,,,,,,,,,,,,,,,,,,,,,,,,,,,,,,,,
,,,,,,,5f0f624774af6210bf4503e9,2023-08-16_08h48.20.932,HF_wild_card,2022.2.4,Win32,60.3682463,5f0f624774af6210bf4503e9,64d2fd46c836a06233681665,64dc7f1e3339f3b6f1864735,,,,,,,decisionTrl,resources/DBN.BMP,resources/DR.BMP,Door2,-0.307407407,-0.02962963,1,0,0,0.5657,optionLeft,20,7035,4,5,0,5,0,1,,,,,,,,,,,,,,,,,,,,,,,,,,,,,,,,,,,,,,,
,,,,,,,5f0f624774af6210bf4503e9,2023-08-16_08h48.20.932,HF_wild_card,2022.2.4,Win32,60.3682463,5f0f624774af6210bf4503e9,64d2fd46c836a06233681665,64dc7f1e3339f3b6f1864735,,,,,,,decisionTrl,resources/DBN.BMP,resources/DR.BMP,Door1,0.294444444,-0.02037037,1,0,0,0.5928,optionRight,30,7065,4,6,0,6,0,1,,,,,,,,,,,,,,,,,,,,,,,,,,,,,,,,,,,,,,,
,,,,,,,5f0f624774af6210bf4503e9,2023-08-16_08h48.20.932,HF_wild_card,2022.2.4,Win32,60.3682463,5f0f624774af6210bf4503e9,64d2fd46c836a06233681665,64dc7f1e3339f3b6f1864735,,,,,,,decisionTrl,resources/DR.BMP,resources/DBN.BMP,Door1,-0.219444444,-0.033333333,1,0,0,0.6931,optionLeft,30,7095,4,7,0,7,0,1,,,,,,,,,,,,,,,,,,,,,,,,,,,,,,,,,,,,,,,
,,,,,,,5f0f624774af6210bf4503e9,2023-08-16_08h48.20.932,HF_wild_card,2022.2.4,Win32,60.3682463,5f0f624774af6210bf4503e9,64d2fd46c836a06233681665,64dc7f1e3339f3b6f1864735,,,,,,,ctch,resources/DR.BMP,resources/DP.BMP,Door4,0.303703704,-0.001851852,1,0,0,2.2427,optionRight,80,7175,4,8,0,8,0,1,,,,,,,,,,,,,,,,,,,,,,,,,,,,,,,,,,,,,,,
,,,,,,,5f0f624774af6210bf4503e9,2023-08-16_08h48.20.932,HF_wild_card,2022.2.4,Win32,60.3682463,5f0f624774af6210bf4503e9,64d2fd46c836a06233681665,64dc7f1e3339f3b6f1864735,,,,,,,decisionTrl,resources/DBN.BMP,resources/DY.BMP,WildCard_NonEx,0.280555556,0.017592593,1,0,0,2.3262,optionRight,55,7230,4,9,0,9,0,1,,,,,,,,,,,,,,,,,,,,,,,,,,,,,,,,,,,,,,,
,,,,,,,5f0f624774af6210bf4503e9,2023-08-16_08h48.20.932,HF_wild_card,2022.2.4,Win32,60.3682463,5f0f624774af6210bf4503e9,64d2fd46c836a06233681665,64dc7f1e3339f3b6f1864735,,,,,,,sngl,resources/Empty.png,resources/DBN.BMP,Door2,0.37037037,0.001851852,1,0,0,0.7762,optionRight,40,7270,4,10,0,10,0,1,,,,,,,,,,,,,,,,,,,,,,,,,,,,,,,,,,,,,,,
,,,,,,,5f0f624774af6210bf4503e9,2023-08-16_08h48.20.932,HF_wild_card,2022.2.4,Win32,60.3682463,5f0f624774af6210bf4503e9,64d2fd46c836a06233681665,64dc7f1e3339f3b6f1864735,,,,,,,ctch,resources/DP.BMP,resources/DR.BMP,Door1,0.386111111,-0.050925926,1,0,0,0.8259,optionRight,30,7300,4,11,0,11,0,1,,,,,,,,,,,,,,,,,,,,,,,,,,,,,,,,,,,,,,,
,,,,,,,5f0f624774af6210bf4503e9,2023-08-16_08h48.20.932,HF_wild_card,2022.2.4,Win32,60.3682463,5f0f624774af6210bf4503e9,64d2fd46c836a06233681665,64dc7f1e3339f3b6f1864735,,,,,,,sngl,resources/Empty.png,resources/DY.BMP,WildCard_NonEx,0.435185185,-0.026851852,1,0,0,0.6096,optionRight,45,7345,4,12,0,12,0,1,,,,,,,,,,,,,,,,,,,,,,,,,,,,,,,,,,,,,,,
,,,,,,,5f0f624774af6210bf4503e9,2023-08-16_08h48.20.932,HF_wild_card,2022.2.4,Win32,60.3682463,5f0f624774af6210bf4503e9,64d2fd46c836a06233681665,64dc7f1e3339f3b6f1864735,,,,,,,decisionTrl,resources/DP.BMP,resources/DG.BMP,Door4,-0.380555556,-0.040740741,1,0,0,1.2096,optionLeft,60,7405,4,13,0,13,0,1,,,,,,,,,,,,,,,,,,,,,,,,,,,,,,,,,,,,,,,
,,,,,,,5f0f624774af6210bf4503e9,2023-08-16_08h48.20.932,HF_wild_card,2022.2.4,Win32,60.3682463,5f0f624774af6210bf4503e9,64d2fd46c836a06233681665,64dc7f1e3339f3b6f1864735,,,,,,,decisionTrl,resources/DY.BMP,resources/DR.BMP,WildCard_NonEx,-0.253703704,-0.046296296,1,0,0,2.3603,optionLeft,55,7460,4,14,0,14,0,1,,,,,,,,,,,,,,,,,,,,,,,,,,,,,,,,,,,,,,,
,,,,,,,5f0f624774af6210bf4503e9,2023-08-16_08h48.20.932,HF_wild_card,2022.2.4,Win32,60.3682463,5f0f624774af6210bf4503e9,64d2fd46c836a06233681665,64dc7f1e3339f3b6f1864735,,,,,,,sngl,resources/Empty.png,resources/DP.BMP,Door4,0.340740741,-0.022222222,1,0,0,0.6087,optionRight,80,7540,4,15,0,15,0,1,,,,,,,,,,,,,,,,,,,,,,,,,,,,,,,,,,,,,,,
,,,,,,,5f0f624774af6210bf4503e9,2023-08-16_08h48.20.932,HF_wild_card,2022.2.4,Win32,60.3682463,5f0f624774af6210bf4503e9,64d2fd46c836a06233681665,64dc7f1e3339f3b6f1864735,,,,,,,decisionTrl,resources/DG.BMP,resources/DP.BMP,Door4,0.277777778,0.007407407,1,0,0,0.6095,optionRight,80,7620,4,16,0,16,0,1,,,,,,,,,,,,,,,,,,,,,,,,,,,,,,,,,,,,,,,
,,,,,,,5f0f624774af6210bf4503e9,2023-08-16_08h48.20.932,HF_wild_card,2022.2.4,Win32,60.3682463,5f0f624774af6210bf4503e9,64d2fd46c836a06233681665,64dc7f1e3339f3b6f1864735,,,,,,,sngl,resources/DY.BMP,resources/Empty.png,WildCard_NonEx,-0.243518519,-0.024074074,1,0,0,0.576,optionLeft,55,7675,4,17,0,17,0,1,,,,,,,,,,,,,,,,,,,,,,,,,,,,,,,,,,,,,,,
,,,,,,,5f0f624774af6210bf4503e9,2023-08-16_08h48.20.932,HF_wild_card,2022.2.4,Win32,60.3682463,5f0f624774af6210bf4503e9,64d2fd46c836a06233681665,64dc7f1e3339f3b6f1864735,,,,,,,decisionTrl,resources/DP.BMP,resources/DY.BMP,Door4,-0.34537037,-0.034259259,1,0,0,3.5293,optionLeft,80,7755,4,18,0,18,0,1,,,,,,,,,,,,,,,,,,,,,,,,,,,,,,,,,,,,,,,
,,,,,,,5f0f624774af6210bf4503e9,2023-08-16_08h48.20.932,HF_wild_card,2022.2.4,Win32,60.3682463,5f0f624774af6210bf4503e9,64d2fd46c836a06233681665,64dc7f1e3339f3b6f1864735,,,,,,,ctch,resources/DR.BMP,resources/DP.BMP,Door4,0.237037037,0.022222222,1,0,0,0.9095,optionRight,60,7815,4,19,0,19,0,1,,,,,,,,,,,,,,,,,,,,,,,,,,,,,,,,,,,,,,,
,,,,,,,5f0f624774af6210bf4503e9,2023-08-16_08h48.20.932,HF_wild_card,2022.2.4,Win32,60.3682463,5f0f624774af6210bf4503e9,64d2fd46c836a06233681665,64dc7f1e3339f3b6f1864735,,,,,,,decisionTrl,resources/DG.BMP,resources/DP.BMP,Door4,0.292592593,-0.00462963,1,0,0,1.0925,optionRight,80,7895,4,20,0,20,0,1,,,,,,,,,,,,,,,,,,,,,,,,,,,,,,,,,,,,,,,
,,,,,,,5f0f624774af6210bf4503e9,2023-08-16_08h48.20.932,HF_wild_card,2022.2.4,Win32,60.3682463,5f0f624774af6210bf4503e9,64d2fd46c836a06233681665,64dc7f1e3339f3b6f1864735,,,,,,,decisionTrl,resources/DR.BMP,resources/DBN.BMP,Door1,-0.140740741,-0.025925926,1,0,0,0.8764,optionLeft,30,7925,4,21,0,21,0,1,,,,,,,,,,,,,,,,,,,,,,,,,,,,,,,,,,,,,,,
,,,,,,,5f0f624774af6210bf4503e9,2023-08-16_08h48.20.932,HF_wild_card,2022.2.4,Win32,60.3682463,5f0f624774af6210bf4503e9,64d2fd46c836a06233681665,64dc7f1e3339f3b6f1864735,,,,,,,sngl,resources/DBN.BMP,resources/Empty.png,Door2,-0.167592593,-0.012037037,1,0,0,0.7273,optionLeft,20,7945,4,22,0,22,0,1,,,,,,,,,,,,,,,,,,,,,,,,,,,,,,,,,,,,,,,
,,,,,,,5f0f624774af6210bf4503e9,2023-08-16_08h48.20.932,HF_wild_card,2022.2.4,Win32,60.3682463,5f0f624774af6210bf4503e9,64d2fd46c836a06233681665,64dc7f1e3339f3b6f1864735,,,,,,,ctch,resources/DG.BMP,resources/DBN.BMP,Door3,-0.171296296,-0.023148148,1,0,0,0.692,optionLeft,70,8015,4,23,0,23,0,1,,,,,,,,,,,,,,,,,,,,,,,,,,,,,,,,,,,,,,,
,,,,,,,5f0f624774af6210bf4503e9,2023-08-16_08h48.20.932,HF_wild_card,2022.2.4,Win32,60.3682463,5f0f624774af6210bf4503e9,64d2fd46c836a06233681665,64dc7f1e3339f3b6f1864735,,,,,,,decisionTrl,resources/DG.BMP,resources/DP.BMP,Door4,0.369444444,-0.036111111,1,0,0,1.0756,optionRight,80,8095,4,24,0,24,0,1,,,,,,,,,,,,,,,,,,,,,,,,,,,,,,,,,,,,,,,
,,,,,,,5f0f624774af6210bf4503e9,2023-08-16_08h48.20.932,HF_wild_card,2022.2.4,Win32,60.3682463,5f0f624774af6210bf4503e9,64d2fd46c836a06233681665,64dc7f1e3339f3b6f1864735,,,,,,,decisionTrl,resources/DBN.BMP,resources/DR.BMP,Door2,-0.410185185,-0.007407407,1,0,0,0.6754,optionLeft,20,8115,4,25,0,25,0,1,,,,,,,,,,,,,,,,,,,,,,,,,,,,,,,,,,,,,,,
,,,,,,,5f0f624774af6210bf4503e9,2023-08-16_08h48.20.932,HF_wild_card,2022.2.4,Win32,60.3682463,5f0f624774af6210bf4503e9,64d2fd46c836a06233681665,64dc7f1e3339f3b6f1864735,,,,,,,decisionTrl,resources/DY.BMP,resources/DBN.BMP,WildCard_NonEx,-0.268518519,-0.013888889,1,0,0,0.9258,optionLeft,55,8170,4,26,0,26,0,1,,,,,,,,,,,,,,,,,,,,,,,,,,,,,,,,,,,,,,,
,,,,,,,5f0f624774af6210bf4503e9,2023-08-16_08h48.20.932,HF_wild_card,2022.2.4,Win32,60.3682463,5f0f624774af6210bf4503e9,64d2fd46c836a06233681665,64dc7f1e3339f3b6f1864735,,,,,,,sngl,resources/DR.BMP,resources/Empty.png,Door1,-0.153703704,-0.027777778,1,0,0,0.5101,optionLeft,30,8200,4,27,0,27,0,1,,,,,,,,,,,,,,,,,,,,,,,,,,,,,,,,,,,,,,,
,,,,,,,5f0f624774af6210bf4503e9,2023-08-16_08h48.20.932,HF_wild_card,2022.2.4,Win32,60.3682463,5f0f624774af6210bf4503e9,64d2fd46c836a06233681665,64dc7f1e3339f3b6f1864735,,,,,,,sngl,resources/Empty.png,resources/DG.BMP,Door3,0.264814815,-0.000925926,1,0,0,0.9261,optionRight,70,8270,4,28,0,28,0,1,,,,,,,,,,,,,,,,,,,,,,,,,,,,,,,,,,,,,,,
,,,,,,,5f0f624774af6210bf4503e9,2023-08-16_08h48.20.932,HF_wild_card,2022.2.4,Win32,60.3682463,5f0f624774af6210bf4503e9,64d2fd46c836a06233681665,64dc7f1e3339f3b6f1864735,,,,,,,decisionTrl,resources/DR.BMP,resources/DY.BMP,WildCard_NonEx,0.298148148,0.012037037,1,0,0,0.9925,optionRight,55,8325,4,29,0,29,0,1,,,,,,,,,,,,,,,,,,,,,,,,,,,,,,,,,,,,,,,
,,,,,,,5f0f624774af6210bf4503e9,2023-08-16_08h48.20.932,HF_wild_card,2022.2.4,Win32,60.3682463,5f0f624774af6210bf4503e9,64d2fd46c836a06233681665,64dc7f1e3339f3b6f1864735,,,,,,,decisionTrl,resources/DBN.BMP,resources/DR.BMP,Door1,0.227777778,0.006481481,1,0,0,0.7261,optionRight,30,8355,4,30,0,30,0,1,,,,,,,,,,,,,,,,,,,,,,,,,,,,,,,,,,,,,,,
,,,,,,,5f0f624774af6210bf4503e9,2023-08-16_08h48.20.932,HF_wild_card,2022.2.4,Win32,60.3682463,5f0f624774af6210bf4503e9,64d2fd46c836a06233681665,64dc7f1e3339f3b6f1864735,,,,,,,ctch,resources/DP.BMP,resources/DR.BMP,Door4,-0.291666667,0.011111111,1,0,0,1.5588,optionLeft,80,8435,4,31,0,31,0,1,,,,,,,,,,,,,,,,,,,,,,,,,,,,,,,,,,,,,,,
,,,,,,,5f0f624774af6210bf4503e9,2023-08-16_08h48.20.932,HF_wild_card,2022.2.4,Win32,60.3682463,5f0f624774af6210bf4503e9,64d2fd46c836a06233681665,64dc7f1e3339f3b6f1864735,,,,,,,ctch,resources/DBN.BMP,resources/DG.BMP,Door3,0.369444444,-0.02037037,1,0,0,0.6811,optionRight,70,8505,4,32,0,32,0,1,,,,,,,,,,,,,,,,,,,,,,,,,,,,,,,,,,,,,,,
,,,,,,,5f0f624774af6210bf4503e9,2023-08-16_08h48.20.932,HF_wild_card,2022.2.4,Win32,60.3682463,5f0f624774af6210bf4503e9,64d2fd46c836a06233681665,64dc7f1e3339f3b6f1864735,,,,,,,decisionTrl,resources/DY.BMP,resources/DG.BMP,Door3,0.263888889,-0.012962963,1,0,0,0.7597,optionRight,70,8575,4,33,0,33,0,1,,,,,,,,,,,,,,,,,,,,,,,,,,,,,,,,,,,,,,,
,,,,,,,5f0f624774af6210bf4503e9,2023-08-16_08h48.20.932,HF_wild_card,2022.2.4,Win32,60.3682463,5f0f624774af6210bf4503e9,64d2fd46c836a06233681665,64dc7f1e3339f3b6f1864735,,,,,,,decisionTrl,resources/DG.BMP,resources/DP.BMP,Door4,0.203703704,-0.002777778,1,0,0,0.9596,optionRight,80,8655,4,34,0,34,0,1,,,,,,,,,,,,,,,,,,,,,,,,,,,,,,,,,,,,,,,
,,,,,,,5f0f624774af6210bf4503e9,2023-08-16_08h48.20.932,HF_wild_card,2022.2.4,Win32,60.3682463,5f0f624774af6210bf4503e9,64d2fd46c836a06233681665,64dc7f1e3339f3b6f1864735,,,,,,,ctch,resources/DG.BMP,resources/DBN.BMP,Door3,-0.282407407,-0.025,1,0,0,0.7271,optionLeft,70,8725,4,35,0,35,0,1,,,,,,,,,,,,,,,,,,,,,,,,,,,,,,,,,,,,,,,
,,,,,,,5f0f624774af6210bf4503e9,2023-08-16_08h48.20.932,HF_wild_card,2022.2.4,Win32,60.3682463,5f0f624774af6210bf4503e9,64d2fd46c836a06233681665,64dc7f1e3339f3b6f1864735,,,,,,,decisionTrl,resources/DP.BMP,resources/DG.BMP,Door4,-0.228703704,-0.041666667,1,0,0,1.7425,optionLeft,80,8805,4,36,0,36,0,1,,,,,,,,,,,,,,,,,,,,,,,,,,,,,,,,,,,,,,,
,,,,,,,5f0f624774af6210bf4503e9,2023-08-16_08h48.20.932,HF_wild_card,2022.2.4,Win32,60.3682463,5f0f624774af6210bf4503e9,64d2fd46c836a06233681665,64dc7f1e3339f3b6f1864735,,,,,,,decisionTrl,resources/DG.BMP,resources/DY.BMP,Door3,-0.203703704,-0.047222222,1,0,0,1.2928,optionLeft,70,8875,4,37,0,37,0,1,,,,,,,,,,,,,,,,,,,,,,,,,,,,,,,,,,,,,,,
,,,,,,,5f0f624774af6210bf4503e9,2023-08-16_08h48.20.932,HF_wild_card,2022.2.4,Win32,60.3682463,5f0f624774af6210bf4503e9,64d2fd46c836a06233681665,64dc7f1e3339f3b6f1864735,,,,,,,decisionTrl,resources/DP.BMP,resources/DG.BMP,Door4,-0.187962963,-0.043518519,1,0,0,0.8417,optionLeft,80,8955,4,38,0,38,0,1,,,,,,,,,,,,,,,,,,,,,,,,,,,,,,,,,,,,,,,
,,,,,,,5f0f624774af6210bf4503e9,2023-08-16_08h48.20.932,HF_wild_card,2022.2.4,Win32,60.3682463,5f0f624774af6210bf4503e9,64d2fd46c836a06233681665,64dc7f1e3339f3b6f1864735,,,,,,,sngl,resources/DG.BMP,resources/Empty.png,Door3,-0.225925926,-0.056481481,1,0,0,0.5101,optionLeft,70,9025,4,39,0,39,0,1,,,,,,,,,,,,,,,,,,,,,,,,,,,,,,,,,,,,,,,
,,,,,,,5f0f624774af6210bf4503e9,2023-08-16_08h48.20.932,HF_wild_card,2022.2.4,Win32,60.3682463,5f0f624774af6210bf4503e9,64d2fd46c836a06233681665,64dc7f1e3339f3b6f1864735,,,,,,,decisionTrl,resources/DY.BMP,resources/DP.BMP,Door4,0.237962963,-0.014814815,1,0,0,2.059,optionRight,60,9085,4,40,0,40,0,1,,,,,,,,,,,,,,,,,,,,,,,,,,,,,,,,,,,,,,,
,,,,,,,5f0f624774af6210bf4503e9,2023-08-16_08h48.20.932,HF_wild_card,2022.2.4,Win32,60.3682463,5f0f624774af6210bf4503e9,64d2fd46c836a06233681665,64dc7f1e3339f3b6f1864735,,,,,,,sngl,resources/Empty.png,resources/DY.BMP,WildCard_NonEx,0.159259259,0.003703704,1,0,0,0.6261,optionRight,55,9140,4,41,0,41,0,1,,,,,,,,,,,,,,,,,,,,,,,,,,,,,,,,,,,,,,,
,,,,,,,5f0f624774af6210bf4503e9,2023-08-16_08h48.20.932,HF_wild_card,2022.2.4,Win32,60.3682463,5f0f624774af6210bf4503e9,64d2fd46c836a06233681665,64dc7f1e3339f3b6f1864735,,,,,,,decisionTrl,resources/DR.BMP,resources/DBN.BMP,Door1,-0.316666667,-0.048148148,1,0,0,1.0268,optionLeft,30,9170,4,42,0,42,0,1,,,,,,,,,,,,,,,,,,,,,,,,,,,,,,,,,,,,,,,
,,,,,,,5f0f624774af6210bf4503e9,2023-08-16_08h48.20.932,HF_wild_card,2022.2.4,Win32,60.3682463,5f0f624774af6210bf4503e9,64d2fd46c836a06233681665,64dc7f1e3339f3b6f1864735,,,,,,,decisionTrl,resources/DP.BMP,resources/DG.BMP,Door4,-0.22962963,-0.017592593,1,0,0,1.3596,optionLeft,80,9250,4,43,0,43,0,1,,,,,,,,,,,,,,,,,,,,,,,,,,,,,,,,,,,,,,,
,,,,,,,5f0f624774af6210bf4503e9,2023-08-16_08h48.20.932,HF_wild_card,2022.2.4,Win32,60.3682463,5f0f624774af6210bf4503e9,64d2fd46c836a06233681665,64dc7f1e3339f3b6f1864735,,,,,,,,,,,,,,,,,,,,,,,,,,3,0,3,0,1,,,,,,,,,,,,,,,,,,,,,,,,,,,,,,,,,,
,,,,,,,5f0f624774af6210bf4503e9,2023-08-16_08h48.20.932,HF_wild_card,2022.2.4,Win32,60.3682463,5f0f624774af6210bf4503e9,64d2fd46c836a06233681665,64dc7f1e3339f3b6f1864735,,,,,,,sngl,resources/Empty.png,resources/DY.BMP,WildCard_NonEx,0.291666667,-0.028703704,1,0,0,0.6836,optionRight,55,9305,5,0,0,0,0,1,,,,,,,,,,,,,,,,,,,,,,,,,,,,,,,,,,,,,,,
,,,,,,,5f0f624774af6210bf4503e9,2023-08-16_08h48.20.932,HF_wild_card,2022.2.4,Win32,60.3682463,5f0f624774af6210bf4503e9,64d2fd46c836a06233681665,64dc7f1e3339f3b6f1864735,,,,,,,decisionTrl,resources/DR.BMP,resources/DBN.BMP,Door1,-0.311111111,-0.026851852,1,0,0,1.2987,optionLeft,30,9335,5,1,0,1,0,1,,,,,,,,,,,,,,,,,,,,,,,,,,,,,,,,,,,,,,,
,,,,,,,5f0f624774af6210bf4503e9,2023-08-16_08h48.20.932,HF_wild_card,2022.2.4,Win32,60.3682463,5f0f624774af6210bf4503e9,64d2fd46c836a06233681665,64dc7f1e3339f3b6f1864735,,,,,,,sngl,resources/Empty.png,resources/DBN.BMP,Door2,0.19537037,0.019444444,1,0,0,0.7825,optionRight,20,9355,5,2,0,2,0,1,,,,,,,,,,,,,,,,,,,,,,,,,,,,,,,,,,,,,,,
,,,,,,,5f0f624774af6210bf4503e9,2023-08-16_08h48.20.932,HF_wild_card,2022.2.4,Win32,60.3682463,5f0f624774af6210bf4503e9,64d2fd46c836a06233681665,64dc7f1e3339f3b6f1864735,,,,,,,decisionTrl,resources/DR.BMP,resources/DBN.BMP,Door1,-0.27037037,-0.006481481,1,0,0,0.8737,optionLeft,30,9385,5,3,0,3,0,1,,,,,,,,,,,,,,,,,,,,,,,,,,,,,,,,,,,,,,,
,,,,,,,5f0f624774af6210bf4503e9,2023-08-16_08h48.20.932,HF_wild_card,2022.2.4,Win32,60.3682463,5f0f624774af6210bf4503e9,64d2fd46c836a06233681665,64dc7f1e3339f3b6f1864735,,,,,,,ctch,resources/DBN.BMP,resources/DG.BMP,Door3,0.342592593,-0.015740741,1,0,0,0.6993,optionRight,70,9455,5,4,0,4,0,1,,,,,,,,,,,,,,,,,,,,,,,,,,,,,,,,,,,,,,,
,,,,,,,5f0f624774af6210bf4503e9,2023-08-16_08h48.20.932,HF_wild_card,2022.2.4,Win32,60.3682463,5f0f624774af6210bf4503e9,64d2fd46c836a06233681665,64dc7f1e3339f3b6f1864735,,,,,,,decisionTrl,resources/DBN.BMP,resources/DR.BMP,Door1,0.375925926,-0.019444444,1,0,0,0.7993,optionRight,30,9485,5,5,0,5,0,1,,,,,,,,,,,,,,,,,,,,,,,,,,,,,,,,,,,,,,,
,,,,,,,5f0f624774af6210bf4503e9,2023-08-16_08h48.20.932,HF_wild_card,2022.2.4,Win32,60.3682463,5f0f624774af6210bf4503e9,64d2fd46c836a06233681665,64dc7f1e3339f3b6f1864735,,,,,,,decisionTrl,resources/DBN.BMP,resources/DR.BMP,Door1,0.265740741,0.002777778,1,0,0,1.1485,optionRight,30,9515,5,6,0,6,0,1,,,,,,,,,,,,,,,,,,,,,,,,,,,,,,,,,,,,,,,
,,,,,,,5f0f624774af6210bf4503e9,2023-08-16_08h48.20.932,HF_wild_card,2022.2.4,Win32,60.3682463,5f0f624774af6210bf4503e9,64d2fd46c836a06233681665,64dc7f1e3339f3b6f1864735,,,,,,,ctch,resources/DBN.BMP,resources/DG.BMP,Door3,0.277777778,0.001851852,1,0,0,0.7435,optionRight,70,9585,5,7,0,7,0,1,,,,,,,,,,,,,,,,,,,,,,,,,,,,,,,,,,,,,,,
,,,,,,,5f0f624774af6210bf4503e9,2023-08-16_08h48.20.932,HF_wild_card,2022.2.4,Win32,60.3682463,5f0f624774af6210bf4503e9,64d2fd46c836a06233681665,64dc7f1e3339f3b6f1864735,,,,,,,ctch,resources/DR.BMP,resources/DP.BMP,Door1,-0.246296296,-0.032407407,1,0,0,1.3307,optionLeft,30,9615,5,8,0,8,0,1,,,,,,,,,,,,,,,,,,,,,,,,,,,,,,,,,,,,,,,
,,,,,,,5f0f624774af6210bf4503e9,2023-08-16_08h48.20.932,HF_wild_card,2022.2.4,Win32,60.3682463,5f0f624774af6210bf4503e9,64d2fd46c836a06233681665,64dc7f1e3339f3b6f1864735,,,,,,,sngl,resources/Empty.png,resources/DR.BMP,Door1,0.207407407,0.007407407,1,0,0,0.6653,optionRight,30,9645,5,9,0,9,0,1,,,,,,,,,,,,,,,,,,,,,,,,,,,,,,,,,,,,,,,
,,,,,,,5f0f624774af6210bf4503e9,2023-08-16_08h48.20.932,HF_wild_card,2022.2.4,Win32,60.3682463,5f0f624774af6210bf4503e9,64d2fd46c836a06233681665,64dc7f1e3339f3b6f1864735,,,,,,,decisionTrl,resources/DP.BMP,resources/DG.BMP,Door4,-0.262037037,-0.021296296,1,0,0,0.8973,optionLeft,80,9725,5,10,0,10,0,1,,,,,,,,,,,,,,,,,,,,,,,,,,,,,,,,,,,,,,,
,,,,,,,5f0f624774af6210bf4503e9,2023-08-16_08h48.20.932,HF_wild_card,2022.2.4,Win32,60.3682463,5f0f624774af6210bf4503e9,64d2fd46c836a06233681665,64dc7f1e3339f3b6f1864735,,,,,,,decisionTrl,resources/DG.BMP,resources/DY.BMP,WildCard_NonEx,0.310185185,-0.023148148,1,0,0,0.907,optionRight,55,9780,5,11,0,11,0,1,,,,,,,,,,,,,,,,,,,,,,,,,,,,,,,,,,,,,,,
,,,,,,,5f0f624774af6210bf4503e9,2023-08-16_08h48.20.932,HF_wild_card,2022.2.4,Win32,60.3682463,5f0f624774af6210bf4503e9,64d2fd46c836a06233681665,64dc7f1e3339f3b6f1864735,,,,,,,decisionTrl,resources/DG.BMP,resources/DP.BMP,Door4,0.251851852,-0.002777778,1,0,0,0.6389,optionRight,80,9860,5,12,0,12,0,1,,,,,,,,,,,,,,,,,,,,,,,,,,,,,,,,,,,,,,,
,,,,,,,5f0f624774af6210bf4503e9,2023-08-16_08h48.20.932,HF_wild_card,2022.2.4,Win32,60.3682463,5f0f624774af6210bf4503e9,64d2fd46c836a06233681665,64dc7f1e3339f3b6f1864735,,,,,,,decisionTrl,resources/DR.BMP,resources/DBN.BMP,Door1,-0.194444444,-0.034259259,1,0,0,1.1525,optionLeft,30,9890,5,13,0,13,0,1,,,,,,,,,,,,,,,,,,,,,,,,,,,,,,,,,,,,,,,
,,,,,,,5f0f624774af6210bf4503e9,2023-08-16_08h48.20.932,HF_wild_card,2022.2.4,Win32,60.3682463,5f0f624774af6210bf4503e9,64d2fd46c836a06233681665,64dc7f1e3339f3b6f1864735,,,,,,,decisionTrl,resources/DY.BMP,resources/DR.BMP,WildCard_NonEx,-0.2,-0.018518519,1,0,0,0.8654,optionLeft,55,9945,5,14,0,14,0,1,,,,,,,,,,,,,,,,,,,,,,,,,,,,,,,,,,,,,,,
,,,,,,,5f0f624774af6210bf4503e9,2023-08-16_08h48.20.932,HF_wild_card,2022.2.4,Win32,60.3682463,5f0f624774af6210bf4503e9,64d2fd46c836a06233681665,64dc7f1e3339f3b6f1864735,,,,,,,decisionTrl,resources/DP.BMP,resources/DY.BMP,Door4,-0.233333333,-0.016666667,1,0,0,0.6557,optionLeft,80,10025,5,15,0,15,0,1,,,,,,,,,,,,,,,,,,,,,,,,,,,,,,,,,,,,,,,
,,,,,,,5f0f624774af6210bf4503e9,2023-08-16_08h48.20.932,HF_wild_card,2022.2.4,Win32,60.3682463,5f0f624774af6210bf4503e9,64d2fd46c836a06233681665,64dc7f1e3339f3b6f1864735,,,,,,,ctch,resources/DG.BMP,resources/DBN.BMP,Door3,-0.186111111,-0.026851852,1,0,0,0.7645,optionLeft,70,10095,5,16,0,16,0,1,,,,,,,,,,,,,,,,,,,,,,,,,,,,,,,,,,,,,,,
,,,,,,,5f0f624774af6210bf4503e9,2023-08-16_08h48.20.932,HF_wild_card,2022.2.4,Win32,60.3682463,5f0f624774af6210bf4503e9,64d2fd46c836a06233681665,64dc7f1e3339f3b6f1864735,,,,,,,decisionTrl,resources/DG.BMP,resources/DP.BMP,Door4,0.440740741,-0.025925926,1,0,0,1.7155,optionRight,80,10175,5,17,0,17,0,1,,,,,,,,,,,,,,,,,,,,,,,,,,,,,,,,,,,,,,,
,,,,,,,5f0f624774af6210bf4503e9,2023-08-16_08h48.20.932,HF_wild_card,2022.2.4,Win32,60.3682463,5f0f624774af6210bf4503e9,64d2fd46c836a06233681665,64dc7f1e3339f3b6f1864735,,,,,,,decisionTrl,resources/DP.BMP,resources/DG.BMP,Door4,-0.242592593,-0.033333333,1,0,0,0.7977,optionLeft,60,10235,5,18,0,18,0,1,,,,,,,,,,,,,,,,,,,,,,,,,,,,,,,,,,,,,,,
,,,,,,,5f0f624774af6210bf4503e9,2023-08-16_08h48.20.932,HF_wild_card,2022.2.4,Win32,60.3682463,5f0f624774af6210bf4503e9,64d2fd46c836a06233681665,64dc7f1e3339f3b6f1864735,,,,,,,ctch,resources/DP.BMP,resources/DR.BMP,Door4,-0.147222222,-0.023148148,1,0,0,0.6151,optionLeft,80,10315,5,19,0,19,0,1,,,,,,,,,,,,,,,,,,,,,,,,,,,,,,,,,,,,,,,
,,,,,,,5f0f624774af6210bf4503e9,2023-08-16_08h48.20.932,HF_wild_card,2022.2.4,Win32,60.3682463,5f0f624774af6210bf4503e9,64d2fd46c836a06233681665,64dc7f1e3339f3b6f1864735,,,,,,,decisionTrl,resources/DR.BMP,resources/DY.BMP,WildCard_NonEx,0.441666667,-0.021296296,1,0,0,1.011,optionRight,55,10370,5,20,0,20,0,1,,,,,,,,,,,,,,,,,,,,,,,,,,,,,,,,,,,,,,,
,,,,,,,5f0f624774af6210bf4503e9,2023-08-16_08h48.20.932,HF_wild_card,2022.2.4,Win32,60.3682463,5f0f624774af6210bf4503e9,64d2fd46c836a06233681665,64dc7f1e3339f3b6f1864735,,,,,,,sngl,resources/DP.BMP,resources/Empty.png,Door4,-0.189814815,-0.056481481,1,0,0,0.5652,optionLeft,80,10450,5,21,0,21,0,1,,,,,,,,,,,,,,,,,,,,,,,,,,,,,,,,,,,,,,,
,,,,,,,5f0f624774af6210bf4503e9,2023-08-16_08h48.20.932,HF_wild_card,2022.2.4,Win32,60.3682463,5f0f624774af6210bf4503e9,64d2fd46c836a06233681665,64dc7f1e3339f3b6f1864735,,,,,,,decisionTrl,resources/DY.BMP,resources/DBN.BMP,WildCard_NonEx,-0.252777778,-0.016666667,1,0,0,0.7865,optionLeft,55,10505,5,22,0,22,0,1,,,,,,,,,,,,,,,,,,,,,,,,,,,,,,,,,,,,,,,
,,,,,,,5f0f624774af6210bf4503e9,2023-08-16_08h48.20.932,HF_wild_card,2022.2.4,Win32,60.3682463,5f0f624774af6210bf4503e9,64d2fd46c836a06233681665,64dc7f1e3339f3b6f1864735,,,,,,,decisionTrl,resources/DBN.BMP,resources/DR.BMP,Door1,0.232407407,0,1,0,0,0.8135,optionRight,30,10535,5,23,0,23,0,1,,,,,,,,,,,,,,,,,,,,,,,,,,,,,,,,,,,,,,,
,,,,,,,5f0f624774af6210bf4503e9,2023-08-16_08h48.20.932,HF_wild_card,2022.2.4,Win32,60.3682463,5f0f624774af6210bf4503e9,64d2fd46c836a06233681665,64dc7f1e3339f3b6f1864735,,,,,,,ctch,resources/DR.BMP,resources/DP.BMP,Door4,0.198148148,-0.02037037,1,0,0,2.2182,optionRight,60,10595,5,24,0,24,0,1,,,,,,,,,,,,,,,,,,,,,,,,,,,,,,,,,,,,,,,
,,,,,,,5f0f624774af6210bf4503e9,2023-08-16_08h48.20.932,HF_wild_card,2022.2.4,Win32,60.3682463,5f0f624774af6210bf4503e9,64d2fd46c836a06233681665,64dc7f1e3339f3b6f1864735,,,,,,,decisionTrl,resources/DP.BMP,resources/DG.BMP,Door4,-0.29537037,-0.037962963,1,0,0,1.0332,optionLeft,60,10655,5,25,0,25,0,1,,,,,,,,,,,,,,,,,,,,,,,,,,,,,,,,,,,,,,,
,,,,,,,5f0f624774af6210bf4503e9,2023-08-16_08h48.20.932,HF_wild_card,2022.2.4,Win32,60.3682463,5f0f624774af6210bf4503e9,64d2fd46c836a06233681665,64dc7f1e3339f3b6f1864735,,,,,,,decisionTrl,resources/DG.BMP,resources/DP.BMP,Door3,-0.235185185,-0.024074074,1,0,0,0.8482,optionLeft,70,10725,5,26,0,26,0,1,,,,,,,,,,,,,,,,,,,,,,,,,,,,,,,,,,,,,,,
,,,,,,,5f0f624774af6210bf4503e9,2023-08-16_08h48.20.932,HF_wild_card,2022.2.4,Win32,60.3682463,5f0f624774af6210bf4503e9,64d2fd46c836a06233681665,64dc7f1e3339f3b6f1864735,,,,,,,sngl,resources/DY.BMP,resources/Empty.png,WildCard_NonEx,-0.194444444,-0.030555556,1,0,0,0.5797,optionLeft,45,10770,5,27,0,27,0,1,,,,,,,,,,,,,,,,,,,,,,,,,,,,,,,,,,,,,,,
,,,,,,,5f0f624774af6210bf4503e9,2023-08-16_08h48.20.932,HF_wild_card,2022.2.4,Win32,60.3682463,5f0f624774af6210bf4503e9,64d2fd46c836a06233681665,64dc7f1e3339f3b6f1864735,,,,,,,decisionTrl,resources/DG.BMP,resources/DP.BMP,Door4,0.294444444,-0.030555556,1,0,0,1.0727,optionRight,80,10850,5,28,0,28,0,1,,,,,,,,,,,,,,,,,,,,,,,,,,,,,,,,,,,,,,,
,,,,,,,5f0f624774af6210bf4503e9,2023-08-16_08h48.20.932,HF_wild_card,2022.2.4,Win32,60.3682463,5f0f624774af6210bf4503e9,64d2fd46c836a06233681665,64dc7f1e3339f3b6f1864735,,,,,,,decisionTrl,resources/DBN.BMP,resources/DY.BMP,WildCard_NonEx,0.310185185,-0.016666667,1,0,0,0.7317,optionRight,45,10895,5,29,0,29,0,1,,,,,,,,,,,,,,,,,,,,,,,,,,,,,,,,,,,,,,,
,,,,,,,5f0f624774af6210bf4503e9,2023-08-16_08h48.20.932,HF_wild_card,2022.2.4,Win32,60.3682463,5f0f624774af6210bf4503e9,64d2fd46c836a06233681665,64dc7f1e3339f3b6f1864735,,,,,,,decisionTrl,resources/DBN.BMP,resources/DR.BMP,Door1,0.231481481,-0.00462963,1,0,0,0.9362,optionRight,30,10925,5,30,0,30,0,1,,,,,,,,,,,,,,,,,,,,,,,,,,,,,,,,,,,,,,,
,,,,,,,5f0f624774af6210bf4503e9,2023-08-16_08h48.20.932,HF_wild_card,2022.2.4,Win32,60.3682463,5f0f624774af6210bf4503e9,64d2fd46c836a06233681665,64dc7f1e3339f3b6f1864735,,,,,,,sngl,resources/DY.BMP,resources/Empty.png,WildCard_NonEx,-0.273148148,-0.037962963,1,0,0,0.5658,optionLeft,55,10980,5,31,0,31,0,1,,,,,,,,,,,,,,,,,,,,,,,,,,,,,,,,,,,,,,,
,,,,,,,5f0f624774af6210bf4503e9,2023-08-16_08h48.20.932,HF_wild_card,2022.2.4,Win32,60.3682463,5f0f624774af6210bf4503e9,64d2fd46c836a06233681665,64dc7f1e3339f3b6f1864735,,,,,,,decisionTrl,resources/DP.BMP,resources/DG.BMP,Door4,-0.297222222,-0.060185185,1,0,0,2.1159,optionLeft,60,11040,5,32,0,32,0,1,,,,,,,,,,,,,,,,,,,,,,,,,,,,,,,,,,,,,,,
,,,,,,,5f0f624774af6210bf4503e9,2023-08-16_08h48.20.932,HF_wild_card,2022.2.4,Win32,60.3682463,5f0f624774af6210bf4503e9,64d2fd46c836a06233681665,64dc7f1e3339f3b6f1864735,,,,,,,decisionTrl,resources/DR.BMP,resources/DBN.BMP,Door1,-0.362037037,-0.044444444,1,0,0,0.6132,optionLeft,30,11070,5,33,0,33,0,1,,,,,,,,,,,,,,,,,,,,,,,,,,,,,,,,,,,,,,,
,,,,,,,5f0f624774af6210bf4503e9,2023-08-16_08h48.20.932,HF_wild_card,2022.2.4,Win32,60.3682463,5f0f624774af6210bf4503e9,64d2fd46c836a06233681665,64dc7f1e3339f3b6f1864735,,,,,,,sngl,resources/Empty.png,resources/DG.BMP,Door3,0.389814815,-0.012037037,1,0,0,0.5846,optionRight,70,11140,5,34,0,34,0,1,,,,,,,,,,,,,,,,,,,,,,,,,,,,,,,,,,,,,,,
,,,,,,,5f0f624774af6210bf4503e9,2023-08-16_08h48.20.932,HF_wild_card,2022.2.4,Win32,60.3682463,5f0f624774af6210bf4503e9,64d2fd46c836a06233681665,64dc7f1e3339f3b6f1864735,,,,,,,sngl,resources/Empty.png,resources/DY.BMP,WildCard_NonEx,0.243518519,-0.006481481,1,0,0,0.5066,optionRight,45,11185,5,35,0,35,0,1,,,,,,,,,,,,,,,,,,,,,,,,,,,,,,,,,,,,,,,
,,,,,,,5f0f624774af6210bf4503e9,2023-08-16_08h48.20.932,HF_wild_card,2022.2.4,Win32,60.3682463,5f0f624774af6210bf4503e9,64d2fd46c836a06233681665,64dc7f1e3339f3b6f1864735,,,,,,,ctch,resources/DP.BMP,resources/DR.BMP,Door4,-0.285185185,-0.037037037,1,0,0,0.8322,optionLeft,80,11265,5,36,0,36,0,1,,,,,,,,,,,,,,,,,,,,,,,,,,,,,,,,,,,,,,,
,,,,,,,5f0f624774af6210bf4503e9,2023-08-16_08h48.20.932,HF_wild_card,2022.2.4,Win32,60.3682463,5f0f624774af6210bf4503e9,64d2fd46c836a06233681665,64dc7f1e3339f3b6f1864735,,,,,,,decisionTrl,resources/DY.BMP,resources/DG.BMP,WildCard_NonEx,-0.369444444,-0.047222222,1,0,0,0.8669,optionLeft,45,11310,5,37,0,37,0,1,,,,,,,,,,,,,,,,,,,,,,,,,,,,,,,,,,,,,,,
,,,,,,,5f0f624774af6210bf4503e9,2023-08-16_08h48.20.932,HF_wild_card,2022.2.4,Win32,60.3682463,5f0f624774af6210bf4503e9,64d2fd46c836a06233681665,64dc7f1e3339f3b6f1864735,,,,,,,sngl,resources/DR.BMP,resources/Empty.png,Door1,-0.242592593,-0.006481481,1,0,0,0.5802,optionLeft,30,11340,5,38,0,38,0,1,,,,,,,,,,,,,,,,,,,,,,,,,,,,,,,,,,,,,,,
,,,,,,,5f0f624774af6210bf4503e9,2023-08-16_08h48.20.932,HF_wild_card,2022.2.4,Win32,60.3682463,5f0f624774af6210bf4503e9,64d2fd46c836a06233681665,64dc7f1e3339f3b6f1864735,,,,,,,sngl,resources/DBN.BMP,resources/Empty.png,Door2,-0.212037037,-0.017592593,1,0,0,1.0025,optionLeft,40,11380,5,39,0,39,0,1,,,,,,,,,,,,,,,,,,,,,,,,,,,,,,,,,,,,,,,
,,,,,,,5f0f624774af6210bf4503e9,2023-08-16_08h48.20.932,HF_wild_card,2022.2.4,Win32,60.3682463,5f0f624774af6210bf4503e9,64d2fd46c836a06233681665,64dc7f1e3339f3b6f1864735,,,,,,,decisionTrl,resources/DY.BMP,resources/DP.BMP,Door4,0.209259259,-0.017592593,1,0,0,1.6598,optionRight,60,11440,5,40,0,40,0,1,,,,,,,,,,,,,,,,,,,,,,,,,,,,,,,,,,,,,,,
,,,,,,,5f0f624774af6210bf4503e9,2023-08-16_08h48.20.932,HF_wild_card,2022.2.4,Win32,60.3682463,5f0f624774af6210bf4503e9,64d2fd46c836a06233681665,64dc7f1e3339f3b6f1864735,,,,,,,sngl,resources/Empty.png,resources/DP.BMP,Door4,0.290740741,-0.024074074,1,0,0,0.5487,optionRight,60,11500,5,41,0,41,0,1,,,,,,,,,,,,,,,,,,,,,,,,,,,,,,,,,,,,,,,
,,,,,,,5f0f624774af6210bf4503e9,2023-08-16_08h48.20.932,HF_wild_card,2022.2.4,Win32,60.3682463,5f0f624774af6210bf4503e9,64d2fd46c836a06233681665,64dc7f1e3339f3b6f1864735,,,,,,,sngl,resources/DG.BMP,resources/Empty.png,Door3,-0.122222222,-0.023148148,1,0,0,0.5509,optionLeft,70,11570,5,42,0,42,0,1,,,,,,,,,,,,,,,,,,,,,,,,,,,,,,,,,,,,,,,
,,,,,,,5f0f624774af6210bf4503e9,2023-08-16_08h48.20.932,HF_wild_card,2022.2.4,Win32,60.3682463,5f0f624774af6210bf4503e9,64d2fd46c836a06233681665,64dc7f1e3339f3b6f1864735,,,,,,,ctch,resources/DG.BMP,resources/DBN.BMP,Door3,-0.186111111,-0.044444444,1,0,0,0.6167,optionLeft,70,11640,5,43,0,43,0,1,,,,,,,,,,,,,,,,,,,,,,,,,,,,,,,,,,,,,,,
,,,,,,,5f0f624774af6210bf4503e9,2023-08-16_08h48.20.932,HF_wild_card,2022.2.4,Win32,60.3682463,5f0f624774af6210bf4503e9,64d2fd46c836a06233681665,64dc7f1e3339f3b6f1864735,,,,,,,,,,,,,,,,,,,,,,,,,,4,0,4,0,1,,,,,,,,,,,,,,,,,,,,,,,,,,,,,,,,,,
,,,,,,,5f0f624774af6210bf4503e9,2023-08-16_08h48.20.932,HF_wild_card,2022.2.4,Win32,60.3682463,5f0f624774af6210bf4503e9,64d2fd46c836a06233681665,64dc7f1e3339f3b6f1864735,,,,,,,decisionTrl,resources/DG.BMP,resources/DP.BMP,Door3,-0.208333333,-0.136111111,1,0,0,1.241,optionLeft,70,11710,6,0,0,0,0,1,,,,,,,,,,,,,,,,,,,,,,,,,,,,,,,,,,,,,,,
,,,,,,,5f0f624774af6210bf4503e9,2023-08-16_08h48.20.932,HF_wild_card,2022.2.4,Win32,60.3682463,5f0f624774af6210bf4503e9,64d2fd46c836a06233681665,64dc7f1e3339f3b6f1864735,,,,,,,decisionTrl,resources/DBN.BMP,resources/DR.BMP,Door1,0.380555556,-0.018518519,1,0,0,0.6261,optionRight,30,11740,6,1,0,1,0,1,,,,,,,,,,,,,,,,,,,,,,,,,,,,,,,,,,,,,,,
,,,,,,,5f0f624774af6210bf4503e9,2023-08-16_08h48.20.932,HF_wild_card,2022.2.4,Win32,60.3682463,5f0f624774af6210bf4503e9,64d2fd46c836a06233681665,64dc7f1e3339f3b6f1864735,,,,,,,sngl,resources/Empty.png,resources/DR.BMP,Door1,0.311111111,0.014814815,1,0,0,0.5431,optionRight,30,11770,6,2,0,2,0,1,,,,,,,,,,,,,,,,,,,,,,,,,,,,,,,,,,,,,,,
,,,,,,,5f0f624774af6210bf4503e9,2023-08-16_08h48.20.932,HF_wild_card,2022.2.4,Win32,60.3682463,5f0f624774af6210bf4503e9,64d2fd46c836a06233681665,64dc7f1e3339f3b6f1864735,,,,,,,sngl,resources/DY.BMP,resources/Empty.png,WildCard_NonEx,-0.25,-0.000925926,1,0,0,0.6097,optionLeft,45,11815,6,3,0,3,0,1,,,,,,,,,,,,,,,,,,,,,,,,,,,,,,,,,,,,,,,
,,,,,,,5f0f624774af6210bf4503e9,2023-08-16_08h48.20.932,HF_wild_card,2022.2.4,Win32,60.3682463,5f0f624774af6210bf4503e9,64d2fd46c836a06233681665,64dc7f1e3339f3b6f1864735,,,,,,,decisionTrl,resources/DG.BMP,resources/DP.BMP,Door3,-0.175925926,-0.011111111,1,0,0,1.4264,optionLeft,70,11885,6,4,0,4,0,1,,,,,,,,,,,,,,,,,,,,,,,,,,,,,,,,,,,,,,,
,,,,,,,5f0f624774af6210bf4503e9,2023-08-16_08h48.20.932,HF_wild_card,2022.2.4,Win32,60.3682463,5f0f624774af6210bf4503e9,64d2fd46c836a06233681665,64dc7f1e3339f3b6f1864735,,,,,,,decisionTrl,resources/DR.BMP,resources/DY.BMP,WildCard_NonEx,0.221296296,0.006481481,1,0,0,1.1928,optionRight,45,11930,6,5,0,5,0,1,,,,,,,,,,,,,,,,,,,,,,,,,,,,,,,,,,,,,,,
,,,,,,,5f0f624774af6210bf4503e9,2023-08-16_08h48.20.932,HF_wild_card,2022.2.4,Win32,60.3682463,5f0f624774af6210bf4503e9,64d2fd46c836a06233681665,64dc7f1e3339f3b6f1864735,,,,,,,decisionTrl,resources/DP.BMP,resources/DG.BMP,Door3,0.387037037,-0.00462963,1,0,0,1.2927,optionRight,70,12000,6,6,0,6,0,1,,,,,,,,,,,,,,,,,,,,,,,,,,,,,,,,,,,,,,,
,,,,,,,5f0f624774af6210bf4503e9,2023-08-16_08h48.20.932,HF_wild_card,2022.2.4,Win32,60.3682463,5f0f624774af6210bf4503e9,64d2fd46c836a06233681665,64dc7f1e3339f3b6f1864735,,,,,,,decisionTrl,resources/DY.BMP,resources/DP.BMP,Door4,0.333333333,-0.011111111,1,0,0,0.6816,optionRight,80,12080,6,7,0,7,0,1,,,,,,,,,,,,,,,,,,,,,,,,,,,,,,,,,,,,,,,
,,,,,,,5f0f624774af6210bf4503e9,2023-08-16_08h48.20.932,HF_wild_card,2022.2.4,Win32,60.3682463,5f0f624774af6210bf4503e9,64d2fd46c836a06233681665,64dc7f1e3339f3b6f1864735,,,,,,,ctch,resources/DR.BMP,resources/DP.BMP,Door4,0.458333333,0.013888889,1,0,0,0.5094,optionRight,60,12140,6,8,0,8,0,1,,,,,,,,,,,,,,,,,,,,,,,,,,,,,,,,,,,,,,,
,,,,,,,5f0f624774af6210bf4503e9,2023-08-16_08h48.20.932,HF_wild_card,2022.2.4,Win32,60.3682463,5f0f624774af6210bf4503e9,64d2fd46c836a06233681665,64dc7f1e3339f3b6f1864735,,,,,,,decisionTrl,resources/DBN.BMP,resources/DR.BMP,Door1,0.249074074,-0.000925926,1,0,0,0.676,optionRight,30,12170,6,9,0,9,0,1,,,,,,,,,,,,,,,,,,,,,,,,,,,,,,,,,,,,,,,
,,,,,,,5f0f624774af6210bf4503e9,2023-08-16_08h48.20.932,HF_wild_card,2022.2.4,Win32,60.3682463,5f0f624774af6210bf4503e9,64d2fd46c836a06233681665,64dc7f1e3339f3b6f1864735,,,,,,,sngl,resources/DY.BMP,resources/Empty.png,WildCard_NonEx,-0.19537037,0.000925926,1,0,0,0.7091,optionLeft,55,12225,6,10,0,10,0,1,,,,,,,,,,,,,,,,,,,,,,,,,,,,,,,,,,,,,,,
,,,,,,,5f0f624774af6210bf4503e9,2023-08-16_08h48.20.932,HF_wild_card,2022.2.4,Win32,60.3682463,5f0f624774af6210bf4503e9,64d2fd46c836a06233681665,64dc7f1e3339f3b6f1864735,,,,,,,decisionTrl,resources/DG.BMP,resources/DY.BMP,Door3,-0.19537037,-0.012962963,1,0,0,0.7913,optionLeft,70,12295,6,11,0,11,0,1,,,,,,,,,,,,,,,,,,,,,,,,,,,,,,,,,,,,,,,
,,,,,,,5f0f624774af6210bf4503e9,2023-08-16_08h48.20.932,HF_wild_card,2022.2.4,Win32,60.3682463,5f0f624774af6210bf4503e9,64d2fd46c836a06233681665,64dc7f1e3339f3b6f1864735,,,,,,,ctch,resources/DP.BMP,resources/DR.BMP,Door4,-0.199074074,-0.014814815,1,0,0,0.7546,optionLeft,60,12355,6,12,0,12,0,1,,,,,,,,,,,,,,,,,,,,,,,,,,,,,,,,,,,,,,,
,,,,,,,5f0f624774af6210bf4503e9,2023-08-16_08h48.20.932,HF_wild_card,2022.2.4,Win32,60.3682463,5f0f624774af6210bf4503e9,64d2fd46c836a06233681665,64dc7f1e3339f3b6f1864735,,,,,,,decisionTrl,resources/DY.BMP,resources/DR.BMP,WildCard_NonEx,-0.22962963,0.005555556,1,0,0,0.7726,optionLeft,55,12410,6,13,0,13,0,1,,,,,,,,,,,,,,,,,,,,,,,,,,,,,,,,,,,,,,,
,,,,,,,5f0f624774af6210bf4503e9,2023-08-16_08h48.20.932,HF_wild_card,2022.2.4,Win32,60.3682463,5f0f624774af6210bf4503e9,64d2fd46c836a06233681665,64dc7f1e3339f3b6f1864735,,,,,,,decisionTrl,resources/DP.BMP,resources/DG.BMP,Door4,-0.268518519,-0.033333333,1,0,0,0.9372,optionLeft,60,12470,6,14,0,14,0,1,,,,,,,,,,,,,,,,,,,,,,,,,,,,,,,,,,,,,,,
,,,,,,,5f0f624774af6210bf4503e9,2023-08-16_08h48.20.932,HF_wild_card,2022.2.4,Win32,60.3682463,5f0f624774af6210bf4503e9,64d2fd46c836a06233681665,64dc7f1e3339f3b6f1864735,,,,,,,sngl,resources/DR.BMP,resources/Empty.png,Door1,-0.206481481,-0.025,1,0,0,0.493,optionLeft,30,12500,6,15,0,15,0,1,,,,,,,,,,,,,,,,,,,,,,,,,,,,,,,,,,,,,,,
,,,,,,,5f0f624774af6210bf4503e9,2023-08-16_08h48.20.932,HF_wild_card,2022.2.4,Win32,60.3682463,5f0f624774af6210bf4503e9,64d2fd46c836a06233681665,64dc7f1e3339f3b6f1864735,,,,,,,ctch,resources/DBN.BMP,resources/DG.BMP,Door3,0.244444444,0.022222222,1,0,0,0.4758,optionRight,70,12570,6,16,0,16,0,1,,,,,,,,,,,,,,,,,,,,,,,,,,,,,,,,,,,,,,,
,,,,,,,5f0f624774af6210bf4503e9,2023-08-16_08h48.20.932,HF_wild_card,2022.2.4,Win32,60.3682463,5f0f624774af6210bf4503e9,64d2fd46c836a06233681665,64dc7f1e3339f3b6f1864735,,,,,,,sngl,resources/DG.BMP,resources/Empty.png,Door3,-0.219444444,0,1,0,0,0.4937,optionLeft,70,12640,6,17,0,17,0,1,,,,,,,,,,,,,,,,,,,,,,,,,,,,,,,,,,,,,,,
,,,,,,,5f0f624774af6210bf4503e9,2023-08-16_08h48.20.932,HF_wild_card,2022.2.4,Win32,60.3682463,5f0f624774af6210bf4503e9,64d2fd46c836a06233681665,64dc7f1e3339f3b6f1864735,,,,,,,decisionTrl,resources/DR.BMP,resources/DBN.BMP,Door1,-0.29537037,-0.025,1,0,0,0.6596,optionLeft,30,12670,6,18,0,18,0,1,,,,,,,,,,,,,,,,,,,,,,,,,,,,,,,,,,,,,,,
,,,,,,,5f0f624774af6210bf4503e9,2023-08-16_08h48.20.932,HF_wild_card,2022.2.4,Win32,60.3682463,5f0f624774af6210bf4503e9,64d2fd46c836a06233681665,64dc7f1e3339f3b6f1864735,,,,,,,sngl,resources/Empty.png,resources/DBN.BMP,Door2,0.243518519,-0.007407407,1,0,0,0.4927,optionRight,40,12710,6,19,0,19,0,1,,,,,,,,,,,,,,,,,,,,,,,,,,,,,,,,,,,,,,,
,,,,,,,5f0f624774af6210bf4503e9,2023-08-16_08h48.20.932,HF_wild_card,2022.2.4,Win32,60.3682463,5f0f624774af6210bf4503e9,64d2fd46c836a06233681665,64dc7f1e3339f3b6f1864735,,,,,,,sngl,resources/DBN.BMP,resources/Empty.png,Door2,-0.230555556,-0.014814815,1,0,0,0.7425,optionLeft,20,12730,6,20,0,20,0,1,,,,,,,,,,,,,,,,,,,,,,,,,,,,,,,,,,,,,,,
,,,,,,,5f0f624774af6210bf4503e9,2023-08-16_08h48.20.932,HF_wild_card,2022.2.4,Win32,60.3682463,5f0f624774af6210bf4503e9,64d2fd46c836a06233681665,64dc7f1e3339f3b6f1864735,,,,,,,sngl,resources/Empty.png,resources/DP.BMP,Door4,0.262037037,0.007407407,1,0,0,0.5093,optionRight,80,12810,6,21,0,21,0,1,,,,,,,,,,,,,,,,,,,,,,,,,,,,,,,,,,,,,,,
,,,,,,,5f0f624774af6210bf4503e9,2023-08-16_08h48.20.932,HF_wild_card,2022.2.4,Win32,60.3682463,5f0f624774af6210bf4503e9,64d2fd46c836a06233681665,64dc7f1e3339f3b6f1864735,,,,,,,sngl,resources/Empty.png,resources/DG.BMP,Door3,0.249074074,0.006481481,1,0,0,0.5098,optionRight,70,12880,6,22,0,22,0,1,,,,,,,,,,,,,,,,,,,,,,,,,,,,,,,,,,,,,,,
,,,,,,,5f0f624774af6210bf4503e9,2023-08-16_08h48.20.932,HF_wild_card,2022.2.4,Win32,60.3682463,5f0f624774af6210bf4503e9,64d2fd46c836a06233681665,64dc7f1e3339f3b6f1864735,,,,,,,decisionTrl,resources/DY.BMP,resources/DG.BMP,Door3,0.213888889,0.006481481,1,0,0,0.8654,optionRight,70,12950,6,23,0,23,0,1,,,,,,,,,,,,,,,,,,,,,,,,,,,,,,,,,,,,,,,
,,,,,,,5f0f624774af6210bf4503e9,2023-08-16_08h48.20.932,HF_wild_card,2022.2.4,Win32,60.3682463,5f0f624774af6210bf4503e9,64d2fd46c836a06233681665,64dc7f1e3339f3b6f1864735,,,,,,,decisionTrl,resources/DR.BMP,resources/DBN.BMP,Door1,-0.213888889,-0.025925926,1,0,0,0.5422,optionLeft,30,12980,6,24,0,24,0,1,,,,,,,,,,,,,,,,,,,,,,,,,,,,,,,,,,,,,,,
,,,,,,,5f0f624774af6210bf4503e9,2023-08-16_08h48.20.932,HF_wild_card,2022.2.4,Win32,60.3682463,5f0f624774af6210bf4503e9,64d2fd46c836a06233681665,64dc7f1e3339f3b6f1864735,,,,,,,decisionTrl,resources/DP.BMP,resources/DG.BMP,Door4,-0.162037037,-0.040740741,1,0,0,0.5096,optionLeft,80,13060,6,25,0,25,0,1,,,,,,,,,,,,,,,,,,,,,,,,,,,,,,,,,,,,,,,
,,,,,,,5f0f624774af6210bf4503e9,2023-08-16_08h48.20.932,HF_wild_card,2022.2.4,Win32,60.3682463,5f0f624774af6210bf4503e9,64d2fd46c836a06233681665,64dc7f1e3339f3b6f1864735,,,,,,,decisionTrl,resources/DG.BMP,resources/DP.BMP,Door4,0.188888889,0.001851852,1,0,0,0.5263,optionRight,60,13120,6,26,0,26,0,1,,,,,,,,,,,,,,,,,,,,,,,,,,,,,,,,,,,,,,,
,,,,,,,5f0f624774af6210bf4503e9,2023-08-16_08h48.20.932,HF_wild_card,2022.2.4,Win32,60.3682463,5f0f624774af6210bf4503e9,64d2fd46c836a06233681665,64dc7f1e3339f3b6f1864735,,,,,,,decisionTrl,resources/DBN.BMP,resources/DR.BMP,Door1,0.357407407,-0.002777778,1,0,0,0.843,optionRight,30,13150,6,27,0,27,0,1,,,,,,,,,,,,,,,,,,,,,,,,,,,,,,,,,,,,,,,
,,,,,,,5f0f624774af6210bf4503e9,2023-08-16_08h48.20.932,HF_wild_card,2022.2.4,Win32,60.3682463,5f0f624774af6210bf4503e9,64d2fd46c836a06233681665,64dc7f1e3339f3b6f1864735,,,,,,,decisionTrl,resources/DBN.BMP,resources/DR.BMP,Door1,0.282407407,-0.019444444,1,0,0,0.8097,optionRight,30,13180,6,28,0,28,0,1,,,,,,,,,,,,,,,,,,,,,,,,,,,,,,,,,,,,,,,
,,,,,,,5f0f624774af6210bf4503e9,2023-08-16_08h48.20.932,HF_wild_card,2022.2.4,Win32,60.3682463,5f0f624774af6210bf4503e9,64d2fd46c836a06233681665,64dc7f1e3339f3b6f1864735,,,,,,,sngl,resources/DP.BMP,resources/Empty.png,Door4,-0.206481481,-0.025925926,1,0,0,0.5763,optionLeft,60,13240,6,29,0,29,0,1,,,,,,,,,,,,,,,,,,,,,,,,,,,,,,,,,,,,,,,
,,,,,,,5f0f624774af6210bf4503e9,2023-08-16_08h48.20.932,HF_wild_card,2022.2.4,Win32,60.3682463,5f0f624774af6210bf4503e9,64d2fd46c836a06233681665,64dc7f1e3339f3b6f1864735,,,,,,,decisionTrl,resources/DP.BMP,resources/DY.BMP,Door4,-0.225925926,-0.037037037,1,0,0,0.6087,optionLeft,60,13300,6,30,0,30,0,1,,,,,,,,,,,,,,,,,,,,,,,,,,,,,,,,,,,,,,,
,,,,,,,5f0f624774af6210bf4503e9,2023-08-16_08h48.20.932,HF_wild_card,2022.2.4,Win32,60.3682463,5f0f624774af6210bf4503e9,64d2fd46c836a06233681665,64dc7f1e3339f3b6f1864735,,,,,,,decisionTrl,resources/DG.BMP,resources/DP.BMP,Door4,0.412962963,-0.027777778,1,0,0,0.6095,optionRight,80,13380,6,31,0,31,0,1,,,,,,,,,,,,,,,,,,,,,,,,,,,,,,,,,,,,,,,
,,,,,,,5f0f624774af6210bf4503e9,2023-08-16_08h48.20.932,HF_wild_card,2022.2.4,Win32,60.3682463,5f0f624774af6210bf4503e9,64d2fd46c836a06233681665,64dc7f1e3339f3b6f1864735,,,,,,,ctch,resources/DR.BMP,resources/DP.BMP,Door4,0.29537037,-0.011111111,1,0,0,0.4928,optionRight,80,13460,6,32,0,32,0,1,,,,,,,,,,,,,,,,,,,,,,,,,,,,,,,,,,,,,,,
,,,,,,,5f0f624774af6210bf4503e9,2023-08-16_08h48.20.932,HF_wild_card,2022.2.4,Win32,60.3682463,5f0f624774af6210bf4503e9,64d2fd46c836a06233681665,64dc7f1e3339f3b6f1864735,,,,,,,ctch,resources/DP.BMP,resources/DR.BMP,Door4,-0.281481481,-0.015740741,1,0,0,0.5095,optionLeft,60,13520,6,33,0,33,0,1,,,,,,,,,,,,,,,,,,,,,,,,,,,,,,,,,,,,,,,
,,,,,,,5f0f624774af6210bf4503e9,2023-08-16_08h48.20.932,HF_wild_card,2022.2.4,Win32,60.3682463,5f0f624774af6210bf4503e9,64d2fd46c836a06233681665,64dc7f1e3339f3b6f1864735,,,,,,,decisionTrl,resources/DR.BMP,resources/DBN.BMP,Door1,-0.234259259,-0.018518519,1,0,0,0.5928,optionLeft,30,13550,6,34,0,34,0,1,,,,,,,,,,,,,,,,,,,,,,,,,,,,,,,,,,,,,,,
,,,,,,,5f0f624774af6210bf4503e9,2023-08-16_08h48.20.932,HF_wild_card,2022.2.4,Win32,60.3682463,5f0f624774af6210bf4503e9,64d2fd46c836a06233681665,64dc7f1e3339f3b6f1864735,,,,,,,decisionTrl,resources/DY.BMP,resources/DBN.BMP,WildCard_NonEx,-0.213888889,-0.018518519,1,0,0,0.6766,optionLeft,45,13595,6,35,0,35,0,1,,,,,,,,,,,,,,,,,,,,,,,,,,,,,,,,,,,,,,,
,,,,,,,5f0f624774af6210bf4503e9,2023-08-16_08h48.20.932,HF_wild_card,2022.2.4,Win32,60.3682463,5f0f624774af6210bf4503e9,64d2fd46c836a06233681665,64dc7f1e3339f3b6f1864735,,,,,,,ctch,resources/DBN.BMP,resources/DG.BMP,Door3,0.275925926,0.012962963,1,0,0,0.6594,optionRight,70,13665,6,36,0,36,0,1,,,,,,,,,,,,,,,,,,,,,,,,,,,,,,,,,,,,,,,
,,,,,,,5f0f624774af6210bf4503e9,2023-08-16_08h48.20.932,HF_wild_card,2022.2.4,Win32,60.3682463,5f0f624774af6210bf4503e9,64d2fd46c836a06233681665,64dc7f1e3339f3b6f1864735,,,,,,,decisionTrl,resources/DBN.BMP,resources/DY.BMP,WildCard_NonEx,0.409259259,-0.009259259,1,0,0,0.576,optionRight,55,13720,6,37,0,37,0,1,,,,,,,,,,,,,,,,,,,,,,,,,,,,,,,,,,,,,,,
,,,,,,,5f0f624774af6210bf4503e9,2023-08-16_08h48.20.932,HF_wild_card,2022.2.4,Win32,60.3682463,5f0f624774af6210bf4503e9,64d2fd46c836a06233681665,64dc7f1e3339f3b6f1864735,,,,,,,sngl,resources/Empty.png,resources/DY.BMP,WildCard_NonEx,0.428703704,-0.039814815,1,0,0,0.476,optionRight,55,13775,6,38,0,38,0,1,,,,,,,,,,,,,,,,,,,,,,,,,,,,,,,,,,,,,,,
,,,,,,,5f0f624774af6210bf4503e9,2023-08-16_08h48.20.932,HF_wild_card,2022.2.4,Win32,60.3682463,5f0f624774af6210bf4503e9,64d2fd46c836a06233681665,64dc7f1e3339f3b6f1864735,,,,,,,ctch,resources/DG.BMP,resources/DBN.BMP,Door3,-0.135185185,-0.04537037,1,0,0,0.8253,optionLeft,70,13845,6,39,0,39,0,1,,,,,,,,,,,,,,,,,,,,,,,,,,,,,,,,,,,,,,,
,,,,,,,5f0f624774af6210bf4503e9,2023-08-16_08h48.20.932,HF_wild_card,2022.2.4,Win32,60.3682463,5f0f624774af6210bf4503e9,64d2fd46c836a06233681665,64dc7f1e3339f3b6f1864735,,,,,,,ctch,resources/DG.BMP,resources/DBN.BMP,Door3,-0.262037037,-0.027777778,1,0,0,0.4762,optionLeft,70,13915,6,40,0,40,0,1,,,,,,,,,,,,,,,,,,,,,,,,,,,,,,,,,,,,,,,
,,,,,,,5f0f624774af6210bf4503e9,2023-08-16_08h48.20.932,HF_wild_card,2022.2.4,Win32,60.3682463,5f0f624774af6210bf4503e9,64d2fd46c836a06233681665,64dc7f1e3339f3b6f1864735,,,,,,,decisionTrl,resources/DP.BMP,resources/DG.BMP,Door4,-0.385185185,-0.183333333,1,0,0,0.6392,optionLeft,80,13995,6,41,0,41,0,1,,,,,,,,,,,,,,,,,,,,,,,,,,,,,,,,,,,,,,,
,,,,,,,5f0f624774af6210bf4503e9,2023-08-16_08h48.20.932,HF_wild_card,2022.2.4,Win32,60.3682463,5f0f624774af6210bf4503e9,64d2fd46c836a06233681665,64dc7f1e3339f3b6f1864735,,,,,,,sngl,resources/Empty.png,resources/DY.BMP,WildCard_NonEx,0.507407407,-0.060185185,1,0,0,0.5113,optionRight,45,14040,6,42,0,42,0,1,,,,,,,,,,,,,,,,,,,,,,,,,,,,,,,,,,,,,,,
,,,,,,,5f0f624774af6210bf4503e9,2023-08-16_08h48.20.932,HF_wild_card,2022.2.4,Win32,60.3682463,5f0f624774af6210bf4503e9,64d2fd46c836a06233681665,64dc7f1e3339f3b6f1864735,,,,,,,decisionTrl,resources/DR.BMP,resources/DBN.BMP,Door1,-0.217592593,-0.028703704,1,0,0,0.6155,optionLeft,30,14070,6,43,0,43,0,1,,,,,,,,,,,,,,,,,,,,,,,,,,,,,,,,,,,,,,,
,,,,,,,5f0f624774af6210bf4503e9,2023-08-16_08h48.20.932,HF_wild_card,2022.2.4,Win32,60.3682463,5f0f624774af6210bf4503e9,64d2fd46c836a06233681665,64dc7f1e3339f3b6f1864735,,,,,,,,,,,,,,,,,,,,,,,,,,5,0,5,0,1,,,,,,,,,,,,,,,,,,,,,,,,,,,,,,,,,,
,,,,,,,5f0f624774af6210bf4503e9,2023-08-16_08h48.20.932,HF_wild_card,2022.2.4,Win32,60.3682463,5f0f624774af6210bf4503e9,64d2fd46c836a06233681665,64dc7f1e3339f3b6f1864735,,,,,,,ctch,resources/DG.BMP,resources/DBN.BMP,Door3,-0.332407407,0.013888889,1,0,0,1.0674,optionLeft,70,14140,7,0,0,0,0,1,,,,,,,,,,,,,,,,,,,,,,,,,,,,,,,,,,,,,,,
,,,,,,,5f0f624774af6210bf4503e9,2023-08-16_08h48.20.932,HF_wild_card,2022.2.4,Win32,60.3682463,5f0f624774af6210bf4503e9,64d2fd46c836a06233681665,64dc7f1e3339f3b6f1864735,,,,,,,decisionTrl,resources/DR.BMP,resources/DBN.BMP,Door1,-0.328703704,0.007407407,1,0,0,0.7937,optionLeft,30,14170,7,1,0,1,0,1,,,,,,,,,,,,,,,,,,,,,,,,,,,,,,,,,,,,,,,
,,,,,,,5f0f624774af6210bf4503e9,2023-08-16_08h48.20.932,HF_wild_card,2022.2.4,Win32,60.3682463,5f0f624774af6210bf4503e9,64d2fd46c836a06233681665,64dc7f1e3339f3b6f1864735,,,,,,,decisionTrl,resources/DG.BMP,resources/DP.BMP,Door4,0.42962963,0,1,0,0,1.9436,optionRight,80,14250,7,2,0,2,0,1,,,,,,,,,,,,,,,,,,,,,,,,,,,,,,,,,,,,,,,
,,,,,,,5f0f624774af6210bf4503e9,2023-08-16_08h48.20.932,HF_wild_card,2022.2.4,Win32,60.3682463,5f0f624774af6210bf4503e9,64d2fd46c836a06233681665,64dc7f1e3339f3b6f1864735,,,,,,,decisionTrl,resources/DP.BMP,resources/DG.BMP,Door4,-0.208333333,-0.016666667,1,0,0,0.9764,optionLeft,60,14310,7,3,0,3,0,1,,,,,,,,,,,,,,,,,,,,,,,,,,,,,,,,,,,,,,,
,,,,,,,5f0f624774af6210bf4503e9,2023-08-16_08h48.20.932,HF_wild_card,2022.2.4,Win32,60.3682463,5f0f624774af6210bf4503e9,64d2fd46c836a06233681665,64dc7f1e3339f3b6f1864735,,,,,,,decisionTrl,resources/DBN.BMP,resources/DR.BMP,Door1,0.458333333,-0.026851852,1,0,0,0.7766,optionRight,30,14340,7,4,0,4,0,1,,,,,,,,,,,,,,,,,,,,,,,,,,,,,,,,,,,,,,,
,,,,,,,5f0f624774af6210bf4503e9,2023-08-16_08h48.20.932,HF_wild_card,2022.2.4,Win32,60.3682463,5f0f624774af6210bf4503e9,64d2fd46c836a06233681665,64dc7f1e3339f3b6f1864735,,,,,,,decisionTrl,resources/DP.BMP,resources/DG.BMP,Door4,-0.22037037,-0.026851852,1,0,0,1.0274,optionLeft,60,14400,7,5,0,5,0,1,,,,,,,,,,,,,,,,,,,,,,,,,,,,,,,,,,,,,,,
,,,,,,,5f0f624774af6210bf4503e9,2023-08-16_08h48.20.932,HF_wild_card,2022.2.4,Win32,60.3682463,5f0f624774af6210bf4503e9,64d2fd46c836a06233681665,64dc7f1e3339f3b6f1864735,,,,,,,decisionTrl,resources/DP.BMP,resources/DG.BMP,Door4,-0.236111111,-0.021296296,1,0,0,0.5944,optionLeft,60,14460,7,6,0,6,0,1,,,,,,,,,,,,,,,,,,,,,,,,,,,,,,,,,,,,,,,
,,,,,,,5f0f624774af6210bf4503e9,2023-08-16_08h48.20.932,HF_wild_card,2022.2.4,Win32,60.3682463,5f0f624774af6210bf4503e9,64d2fd46c836a06233681665,64dc7f1e3339f3b6f1864735,,,,,,,decisionTrl,resources/DG.BMP,resources/DP.BMP,Door4,0.353703704,-0.024074074,1,0,0,0.5604,optionRight,60,14520,7,7,0,7,0,1,,,,,,,,,,,,,,,,,,,,,,,,,,,,,,,,,,,,,,,
,,,,,,,5f0f624774af6210bf4503e9,2023-08-16_08h48.20.932,HF_wild_card,2022.2.4,Win32,60.3682463,5f0f624774af6210bf4503e9,64d2fd46c836a06233681665,64dc7f1e3339f3b6f1864735,,,,,,,decisionTrl,resources/DR.BMP,resources/DBN.BMP,Door1,-0.241666667,-0.027777778,1,0,0,0.6605,optionLeft,30,14550,7,8,0,8,0,1,,,,,,,,,,,,,,,,,,,,,,,,,,,,,,,,,,,,,,,
,,,,,,,5f0f624774af6210bf4503e9,2023-08-16_08h48.20.932,HF_wild_card,2022.2.4,Win32,60.3682463,5f0f624774af6210bf4503e9,64d2fd46c836a06233681665,64dc7f1e3339f3b6f1864735,,,,,,,decisionTrl,resources/DG.BMP,resources/DP.BMP,Door4,0.264814815,-0.027777778,1,0,0,0.9103,optionRight,60,14610,7,9,0,9,0,1,,,,,,,,,,,,,,,,,,,,,,,,,,,,,,,,,,,,,,,
,,,,,,,5f0f624774af6210bf4503e9,2023-08-16_08h48.20.932,HF_wild_card,2022.2.4,Win32,60.3682463,5f0f624774af6210bf4503e9,64d2fd46c836a06233681665,64dc7f1e3339f3b6f1864735,,,,,,,decisionTrl,resources/DG.BMP,resources/DP.BMP,Door4,0.323148148,-0.014814815,1,0,0,0.5274,optionRight,80,14690,7,10,0,10,0,1,,,,,,,,,,,,,,,,,,,,,,,,,,,,,,,,,,,,,,,
,,,,,,,5f0f624774af6210bf4503e9,2023-08-16_08h48.20.932,HF_wild_card,2022.2.4,Win32,60.3682463,5f0f624774af6210bf4503e9,64d2fd46c836a06233681665,64dc7f1e3339f3b6f1864735,,,,,,,decisionTrl,resources/DP.BMP,resources/DG.BMP,Door3,0.285185185,-0.024074074,1,0,0,0.5439,optionRight,70,14760,7,11,0,11,0,1,,,,,,,,,,,,,,,,,,,,,,,,,,,,,,,,,,,,,,,
,,,,,,,5f0f624774af6210bf4503e9,2023-08-16_08h48.20.932,HF_wild_card,2022.2.4,Win32,60.3682463,5f0f624774af6210bf4503e9,64d2fd46c836a06233681665,64dc7f1e3339f3b6f1864735,,,,,,,decisionTrl,resources/DR.BMP,resources/DBN.BMP,Door1,-0.201851852,-0.019444444,1,0,0,0.5771,optionLeft,30,14790,7,12,0,12,0,1,,,,,,,,,,,,,,,,,,,,,,,,,,,,,,,,,,,,,,,
,,,,,,,5f0f624774af6210bf4503e9,2023-08-16_08h48.20.932,HF_wild_card,2022.2.4,Win32,60.3682463,5f0f624774af6210bf4503e9,64d2fd46c836a06233681665,64dc7f1e3339f3b6f1864735,,,,,,,decisionTrl,resources/DBN.BMP,resources/DR.BMP,Door1,0.449074074,-0.026851852,1,0,0,0.5598,optionRight,30,14820,7,13,0,13,0,1,,,,,,,,,,,,,,,,,,,,,,,,,,,,,,,,,,,,,,,
,,,,,,,5f0f624774af6210bf4503e9,2023-08-16_08h48.20.932,HF_wild_card,2022.2.4,Win32,60.3682463,5f0f624774af6210bf4503e9,64d2fd46c836a06233681665,64dc7f1e3339f3b6f1864735,,,,,,,ctch,resources/DR.BMP,resources/DP.BMP,Door4,0.302777778,-0.000925926,1,0,0,0.6272,optionRight,80,14900,7,14,0,14,0,1,,,,,,,,,,,,,,,,,,,,,,,,,,,,,,,,,,,,,,,
,,,,,,,5f0f624774af6210bf4503e9,2023-08-16_08h48.20.932,HF_wild_card,2022.2.4,Win32,60.3682463,5f0f624774af6210bf4503e9,64d2fd46c836a06233681665,64dc7f1e3339f3b6f1864735,,,,,,,decisionTrl,resources/DBN.BMP,resources/DR.BMP,Door1,0.227777778,0.025925926,1,0,0,0.6763,optionRight,30,14930,7,15,0,15,0,1,,,,,,,,,,,,,,,,,,,,,,,,,,,,,,,,,,,,,,,
,,,,,,,5f0f624774af6210bf4503e9,2023-08-16_08h48.20.932,HF_wild_card,2022.2.4,Win32,60.3682463,5f0f624774af6210bf4503e9,64d2fd46c836a06233681665,64dc7f1e3339f3b6f1864735,,,,,,,ctch,resources/DR.BMP,resources/DP.BMP,Door4,0.346296296,0.017592593,1,0,0,0.4761,optionRight,80,15010,7,16,0,16,0,1,,,,,,,,,,,,,,,,,,,,,,,,,,,,,,,,,,,,,,,
,,,,,,,5f0f624774af6210bf4503e9,2023-08-16_08h48.20.932,HF_wild_card,2022.2.4,Win32,60.3682463,5f0f624774af6210bf4503e9,64d2fd46c836a06233681665,64dc7f1e3339f3b6f1864735,,,,,,,ctch,resources/DG.BMP,resources/DBN.BMP,Door3,-0.12037037,0.015740741,1,0,0,0.7766,optionLeft,70,15080,7,17,0,17,0,1,,,,,,,,,,,,,,,,,,,,,,,,,,,,,,,,,,,,,,,
,,,,,,,5f0f624774af6210bf4503e9,2023-08-16_08h48.20.932,HF_wild_card,2022.2.4,Win32,60.3682463,5f0f624774af6210bf4503e9,64d2fd46c836a06233681665,64dc7f1e3339f3b6f1864735,,,,,,,decisionTrl,resources/DP.BMP,resources/DG.BMP,Door4,-0.268518519,0.001851852,1,0,0,1.0604,optionLeft,60,15140,7,18,0,18,0,1,,,,,,,,,,,,,,,,,,,,,,,,,,,,,,,,,,,,,,,
,,,,,,,5f0f624774af6210bf4503e9,2023-08-16_08h48.20.932,HF_wild_card,2022.2.4,Win32,60.3682463,5f0f624774af6210bf4503e9,64d2fd46c836a06233681665,64dc7f1e3339f3b6f1864735,,,,,,,ctch,resources/DBN.BMP,resources/DG.BMP,Door3,0.283333333,0.007407407,1,0,0,0.5303,optionRight,70,15210,7,19,0,19,0,1,,,,,,,,,,,,,,,,,,,,,,,,,,,,,,,,,,,,,,,
,,,,,,,5f0f624774af6210bf4503e9,2023-08-16_08h48.20.932,HF_wild_card,2022.2.4,Win32,60.3682463,5f0f624774af6210bf4503e9,64d2fd46c836a06233681665,64dc7f1e3339f3b6f1864735,,,,,,,decisionTrl,resources/DBN.BMP,resources/DR.BMP,Door1,0.349074074,0.008333333,1,0,0,0.6105,optionRight,30,15240,7,20,0,20,0,1,,,,,,,,,,,,,,,,,,,,,,,,,,,,,,,,,,,,,,,
