Condition,Low fixed image (Door1),Low risky image (Door2),High fixed image (Door3),High risky image (Door4),Extreme Wild Card,NonExtreme Wild Card,,date,expName,psychopyVersion,OS,frameRate,PROLIFIC_PID,STUDY_ID,SESSION_ID,mouse_2.x,mouse_2.y,mouse_2.leftButton,mouse_2.midButton,mouse_2.rightButton,mouse_2.clicked_name,Trial Type,Left Option Image,Right Option Image,Chosen Door,mouse.x,mouse.y,mouse.leftButton,mouse.midButton,mouse.rightButton,mouse.time,mouse.clicked_name,Feedback,Cumulative Reward,Block,trial.thisRepN,trial.thisTrialN,trial.thisN,trial.thisIndex,trial.ran,blocks.thisRepN,blocks.thisTrialN,blocks.thisN,blocks.thisIndex,blocks.ran,Money conversion,First Outcome Reported,Shown Door (First Outcome),Displayed Image (First Outcome),outcomes.thisRepN,outcomes.thisTrialN,outcomes.thisN,outcomes.thisIndex,outcomes.ran,judgments.thisRepN,judgments.thisTrialN,judgments.thisN,judgments.thisIndex,judgments.ran,freqMouse.x,freqMouse.y,freqMouse.leftButton,freqMouse.midButton,freqMouse.rightButton,freqMouse.clicked_name,FQJ for first outcome,FQJ for second outcome,Shown Door,Displayed Image,trials.thisRepN,trials.thisTrialN,trials.thisN,trials.thisIndex,trials.ran,judgBlock.thisRepN,judgBlock.thisTrialN,judgBlock.thisN,judgBlock.thisIndex,judgBlock.ran
0,resources/DG.BMP,resources/DBN.BMP,resources/DR.BMP,resources/DY.BMP,resources/DB.BMP,resources/DP.BMP,,2023-08-16_08h38.24.091,HF_wild_card,2022.2.4,Win32,59.93766483,61070ee93bf05ad543b51759,64d2fd46c836a06233681665,64dc7ce27ecbf1e2d286475a,,,,,,,,,,,,,,,,,,,,,,,,,,,,,,,,,,,,,,,,,,,,,,,,,,,,,,,,,,,,,,,,
,,,,,,,,2023-08-16_08h38.24.091,HF_wild_card,2022.2.4,Win32,59.93766483,61070ee93bf05ad543b51759,64d2fd46c836a06233681665,64dc7ce27ecbf1e2d286475a,0.005317422,-0.413924912,1,0,0,agree,,,,,,,,,,,,,,,,,,,,,,,,,,,,,,,,,,,,,,,,,,,,,,,,,,,,,,,,,,
,,,,,,,,2023-08-16_08h38.24.091,HF_wild_card,2022.2.4,Win32,59.93766483,61070ee93bf05ad543b51759,64d2fd46c836a06233681665,64dc7ce27ecbf1e2d286475a,,,,,,,,,,,,,,,,,,,,,,,,,,,,,,,,,,,,,,,,,,,,,,,,,,,,,,,,,,,,,,,,
,,,,,,,,2023-08-16_08h38.24.091,HF_wild_card,2022.2.4,Win32,59.93766483,61070ee93bf05ad543b51759,64d2fd46c836a06233681665,64dc7ce27ecbf1e2d286475a,,,,,,,decisionTrl,resources/DY.BMP,resources/DR.BMP,Door3,0.368228688,-0.0569957,1,0,0,1.2513,optionRight,70,70,1,0,0,0,0,1,,,,,,,,,,,,,,,,,,,,,,,,,,,,,,,,,,,,,,,
,,,,,,,,2023-08-16_08h38.24.091,HF_wild_card,2022.2.4,Win32,59.93766483,61070ee93bf05ad543b51759,64d2fd46c836a06233681665,64dc7ce27ecbf1e2d286475a,,,,,,,decisionTrl,resources/DBN.BMP,resources/DG.BMP,Door2,-0.374875374,-0.044366899,1,0,0,1.2916,optionLeft,40,110,1,1,0,1,0,1,,,,,,,,,,,,,,,,,,,,,,,,,,,,,,,,,,,,,,,
,,,,,,,,2023-08-16_08h38.24.091,HF_wild_card,2022.2.4,Win32,59.93766483,61070ee93bf05ad543b51759,64d2fd46c836a06233681665,64dc7ce27ecbf1e2d286475a,,,,,,,ctch,resources/DBN.BMP,resources/DR.BMP,Door2,-0.34629443,-0.010468594,1,0,0,0.9678,optionLeft,40,150,1,2,0,2,0,1,,,,,,,,,,,,,,,,,,,,,,,,,,,,,,,,,,,,,,,
,,,,,,,,2023-08-16_08h38.24.091,HF_wild_card,2022.2.4,Win32,59.93766483,61070ee93bf05ad543b51759,64d2fd46c836a06233681665,64dc7ce27ecbf1e2d286475a,,,,,,,sngl,resources/DB.BMP,resources/Empty.png,WildCard_Ex,-0.334330322,-0.075606554,1,0,0,1.3227,optionLeft,5,155,1,3,0,3,0,1,,,,,,,,,,,,,,,,,,,,,,,,,,,,,,,,,,,,,,,
,,,,,,,,2023-08-16_08h38.24.091,HF_wild_card,2022.2.4,Win32,59.93766483,61070ee93bf05ad543b51759,64d2fd46c836a06233681665,64dc7ce27ecbf1e2d286475a,,,,,,,decisionTrl,resources/DR.BMP,resources/DY.BMP,Door4,0.344300473,0.012130266,1,0,0,2.1849,optionRight,60,215,1,4,0,4,0,1,,,,,,,,,,,,,,,,,,,,,,,,,,,,,,,,,,,,,,,
,,,,,,,,2023-08-16_08h38.24.091,HF_wild_card,2022.2.4,Win32,59.93766483,61070ee93bf05ad543b51759,64d2fd46c836a06233681665,64dc7ce27ecbf1e2d286475a,,,,,,,decisionTrl,resources/DB.BMP,resources/DY.BMP,Door4,0.235958811,0.022100355,1,0,0,1.6508,optionRight,60,275,1,5,0,5,0,1,,,,,,,,,,,,,,,,,,,,,,,,,,,,,,,,,,,,,,,
,,,,,,,,2023-08-16_08h38.24.091,HF_wild_card,2022.2.4,Win32,59.93766483,61070ee93bf05ad543b51759,64d2fd46c836a06233681665,64dc7ce27ecbf1e2d286475a,,,,,,,sngl,resources/Empty.png,resources/DB.BMP,WildCard_Ex,0.328348329,-0.01179798,1,0,0,0.8442,optionRight,5,280,1,6,0,6,0,1,,,,,,,,,,,,,,,,,,,,,,,,,,,,,,,,,,,,,,,
,,,,,,,,2023-08-16_08h38.24.091,HF_wild_card,2022.2.4,Win32,59.93766483,61070ee93bf05ad543b51759,64d2fd46c836a06233681665,64dc7ce27ecbf1e2d286475a,,,,,,,sngl,resources/DR.BMP,resources/Empty.png,Door3,-0.342306394,-0.018444666,1,0,0,0.7948,optionLeft,70,350,1,7,0,7,0,1,,,,,,,,,,,,,,,,,,,,,,,,,,,,,,,,,,,,,,,
,,,,,,,,2023-08-16_08h38.24.091,HF_wild_card,2022.2.4,Win32,59.93766483,61070ee93bf05ad543b51759,64d2fd46c836a06233681665,64dc7ce27ecbf1e2d286475a,,,,,,,sngl,resources/Empty.png,resources/DG.BMP,Door1,0.331671733,-0.005151233,1,0,0,0.8394,optionRight,30,380,1,8,0,8,0,1,,,,,,,,,,,,,,,,,,,,,,,,,,,,,,,,,,,,,,,
,,,,,,,,2023-08-16_08h38.24.091,HF_wild_card,2022.2.4,Win32,59.93766483,61070ee93bf05ad543b51759,64d2fd46c836a06233681665,64dc7ce27ecbf1e2d286475a,,,,,,,decisionTrl,resources/DR.BMP,resources/DY.BMP,Door3,-0.386839482,-0.007145251,1,0,0,1.5919,optionLeft,70,450,1,9,0,9,0,1,,,,,,,,,,,,,,,,,,,,,,,,,,,,,,,,,,,,,,,
,,,,,,,,2023-08-16_08h38.24.091,HF_wild_card,2022.2.4,Win32,59.93766483,61070ee93bf05ad543b51759,64d2fd46c836a06233681665,64dc7ce27ecbf1e2d286475a,,,,,,,decisionTrl,resources/DG.BMP,resources/DB.BMP,Door1,-0.490528415,-0.022432702,1,0,0,1.8717,optionLeft,30,480,1,10,0,10,0,1,,,,,,,,,,,,,,,,,,,,,,,,,,,,,,,,,,,,,,,
,,,,,,,,2023-08-16_08h38.24.091,HF_wild_card,2022.2.4,Win32,59.93766483,61070ee93bf05ad543b51759,64d2fd46c836a06233681665,64dc7ce27ecbf1e2d286475a,,,,,,,sngl,resources/DBN.BMP,resources/Empty.png,Door2,-0.32369557,-0.020438684,1,0,0,0.9293,optionLeft,40,520,1,11,0,11,0,1,,,,,,,,,,,,,,,,,,,,,,,,,,,,,,,,,,,,,,,
,,,,,,,,2023-08-16_08h38.24.091,HF_wild_card,2022.2.4,Win32,59.93766483,61070ee93bf05ad543b51759,64d2fd46c836a06233681665,64dc7ce27ecbf1e2d286475a,,,,,,,ctch,resources/DBN.BMP,resources/DR.BMP,Door2,-0.448654038,-0.00448654,1,0,0,1.4293,optionLeft,40,560,1,12,0,12,0,1,,,,,,,,,,,,,,,,,,,,,,,,,,,,,,,,,,,,,,,
,,,,,,,,2023-08-16_08h38.24.091,HF_wild_card,2022.2.4,Win32,59.93766483,61070ee93bf05ad543b51759,64d2fd46c836a06233681665,64dc7ce27ecbf1e2d286475a,,,,,,,decisionTrl,resources/DBN.BMP,resources/DG.BMP,Door1,0.348953141,0.112495826,1,0,0,1.9559,optionRight,30,590,1,13,0,13,0,1,,,,,,,,,,,,,,,,,,,,,,,,,,,,,,,,,,,,,,,
,,,,,,,,2023-08-16_08h38.24.091,HF_wild_card,2022.2.4,Win32,59.93766483,61070ee93bf05ad543b51759,64d2fd46c836a06233681665,64dc7ce27ecbf1e2d286475a,,,,,,,decisionTrl,resources/DB.BMP,resources/DBN.BMP,Door2,0.279162512,0.040711179,1,0,0,0.869,optionRight,20,610,1,14,0,14,0,1,,,,,,,,,,,,,,,,,,,,,,,,,,,,,,,,,,,,,,,
,,,,,,,,2023-08-16_08h38.24.091,HF_wild_card,2022.2.4,Win32,59.93766483,61070ee93bf05ad543b51759,64d2fd46c836a06233681665,64dc7ce27ecbf1e2d286475a,,,,,,,decisionTrl,resources/DY.BMP,resources/DB.BMP,Door4,-0.342306394,0.016782964,1,0,0,1.4025,optionLeft,60,670,1,15,0,15,0,1,,,,,,,,,,,,,,,,,,,,,,,,,,,,,,,,,,,,,,,
,,,,,,,,2023-08-16_08h38.24.091,HF_wild_card,2022.2.4,Win32,59.93766483,61070ee93bf05ad543b51759,64d2fd46c836a06233681665,64dc7ce27ecbf1e2d286475a,,,,,,,decisionTrl,resources/DY.BMP,resources/DR.BMP,Door4,-0.360917248,0.046693233,1,0,0,0.7786,optionLeft,80,750,1,16,0,16,0,1,,,,,,,,,,,,,,,,,,,,,,,,,,,,,,,,,,,,,,,
,,,,,,,,2023-08-16_08h38.24.091,HF_wild_card,2022.2.4,Win32,59.93766483,61070ee93bf05ad543b51759,64d2fd46c836a06233681665,64dc7ce27ecbf1e2d286475a,,,,,,,ctch,resources/DY.BMP,resources/DG.BMP,Door4,-0.227318046,-0.045696285,1,0,0,0.6521,optionLeft,60,810,1,17,0,17,0,1,,,,,,,,,,,,,,,,,,,,,,,,,,,,,,,,,,,,,,,
,,,,,,,,2023-08-16_08h38.24.091,HF_wild_card,2022.2.4,Win32,59.93766483,61070ee93bf05ad543b51759,64d2fd46c836a06233681665,64dc7ce27ecbf1e2d286475a,,,,,,,decisionTrl,resources/DY.BMP,resources/DR.BMP,Door4,-0.346959123,0.020106337,1,0,0,0.5612,optionLeft,80,890,1,18,0,18,0,1,,,,,,,,,,,,,,,,,,,,,,,,,,,,,,,,,,,,,,,
,,,,,,,,2023-08-16_08h38.24.091,HF_wild_card,2022.2.4,Win32,59.93766483,61070ee93bf05ad543b51759,64d2fd46c836a06233681665,64dc7ce27ecbf1e2d286475a,,,,,,,decisionTrl,resources/DBN.BMP,resources/DB.BMP,WildCard_Ex,0.36623467,-0.023762088,1,0,0,0.6288,optionRight,95,985,1,19,0,19,0,1,,,,,,,,,,,,,,,,,,,,,,,,,,,,,,,,,,,,,,,
,,,,,,,,2023-08-16_08h38.24.091,HF_wild_card,2022.2.4,Win32,59.93766483,61070ee93bf05ad543b51759,64d2fd46c836a06233681665,64dc7ce27ecbf1e2d286475a,,,,,,,ctch,resources/DR.BMP,resources/DBN.BMP,Door2,0.271186441,0.08590893,1,0,0,1.3956,optionRight,40,1025,1,20,0,20,0,1,,,,,,,,,,,,,,,,,,,,,,,,,,,,,,,,,,,,,,,
,,,,,,,,2023-08-16_08h38.24.091,HF_wild_card,2022.2.4,Win32,59.93766483,61070ee93bf05ad543b51759,64d2fd46c836a06233681665,64dc7ce27ecbf1e2d286475a,,,,,,,sngl,resources/DB.BMP,resources/Empty.png,WildCard_Ex,-0.384845464,-0.010468594,1,0,0,0.3959,optionLeft,95,1120,1,21,0,21,0,1,,,,,,,,,,,,,,,,,,,,,,,,,,,,,,,,,,,,,,,
,,,,,,,,2023-08-16_08h38.24.091,HF_wild_card,2022.2.4,Win32,59.93766483,61070ee93bf05ad543b51759,64d2fd46c836a06233681665,64dc7ce27ecbf1e2d286475a,,,,,,,decisionTrl,resources/DG.BMP,resources/DBN.BMP,Door2,0.369558074,0.114489843,1,0,0,0.8954,optionRight,20,1140,1,22,0,22,0,1,,,,,,,,,,,,,,,,,,,,,,,,,,,,,,,,,,,,,,,
,,,,,,,,2023-08-16_08h38.24.091,HF_wild_card,2022.2.4,Win32,59.93766483,61070ee93bf05ad543b51759,64d2fd46c836a06233681665,64dc7ce27ecbf1e2d286475a,,,,,,,decisionTrl,resources/DR.BMP,resources/DY.BMP,Door3,-0.290461927,-0.027085431,1,0,0,0.6464,optionLeft,70,1210,1,23,0,23,0,1,,,,,,,,,,,,,,,,,,,,,,,,,,,,,,,,,,,,,,,
,,,,,,,,2023-08-16_08h38.24.091,HF_wild_card,2022.2.4,Win32,59.93766483,61070ee93bf05ad543b51759,64d2fd46c836a06233681665,64dc7ce27ecbf1e2d286475a,,,,,,,decisionTrl,resources/DBN.BMP,resources/DG.BMP,Door1,0.289797356,0.020771,1,0,0,0.527,optionRight,30,1240,1,24,0,24,0,1,,,,,,,,,,,,,,,,,,,,,,,,,,,,,,,,,,,,,,,
,,,,,,,,2023-08-16_08h38.24.091,HF_wild_card,2022.2.4,Win32,59.93766483,61070ee93bf05ad543b51759,64d2fd46c836a06233681665,64dc7ce27ecbf1e2d286475a,,,,,,,ctch,resources/DG.BMP,resources/DY.BMP,Door1,-0.3110668,0.042705197,1,0,0,0.6117,optionLeft,30,1270,1,25,0,25,0,1,,,,,,,,,,,,,,,,,,,,,,,,,,,,,,,,,,,,,,,
,,,,,,,,2023-08-16_08h38.24.091,HF_wild_card,2022.2.4,Win32,59.93766483,61070ee93bf05ad543b51759,64d2fd46c836a06233681665,64dc7ce27ecbf1e2d286475a,,,,,,,ctch,resources/DR.BMP,resources/DBN.BMP,Door2,0.240611539,0.030076427,1,0,0,0.4134,optionRight,20,1290,1,26,0,26,0,1,,,,,,,,,,,,,,,,,,,,,,,,,,,,,,,,,,,,,,,
,,,,,,,,2023-08-16_08h38.24.091,HF_wild_card,2022.2.4,Win32,59.93766483,61070ee93bf05ad543b51759,64d2fd46c836a06233681665,64dc7ce27ecbf1e2d286475a,,,,,,,sngl,resources/Empty.png,resources/DR.BMP,Door3,0.20073118,0.038052499,1,0,0,0.6798,optionRight,70,1360,1,27,0,27,0,1,,,,,,,,,,,,,,,,,,,,,,,,,,,,,,,,,,,,,,,
,,,,,,,,2023-08-16_08h38.24.091,HF_wild_card,2022.2.4,Win32,59.93766483,61070ee93bf05ad543b51759,64d2fd46c836a06233681665,64dc7ce27ecbf1e2d286475a,,,,,,,sngl,resources/DY.BMP,resources/Empty.png,Door4,-0.244599514,-0.005815896,1,0,0,0.5532,optionLeft,80,1440,1,28,0,28,0,1,,,,,,,,,,,,,,,,,,,,,,,,,,,,,,,,,,,,,,,
,,,,,,,,2023-08-16_08h38.24.091,HF_wild_card,2022.2.4,Win32,59.93766483,61070ee93bf05ad543b51759,64d2fd46c836a06233681665,64dc7ce27ecbf1e2d286475a,,,,,,,decisionTrl,resources/DR.BMP,resources/DB.BMP,WildCard_Ex,0.352941176,0.016782964,1,0,0,1.024,optionRight,5,1445,1,29,0,29,0,1,,,,,,,,,,,,,,,,,,,,,,,,,,,,,,,,,,,,,,,
,,,,,,,,2023-08-16_08h38.24.091,HF_wild_card,2022.2.4,Win32,59.93766483,61070ee93bf05ad543b51759,64d2fd46c836a06233681665,64dc7ce27ecbf1e2d286475a,,,,,,,ctch,resources/DG.BMP,resources/DY.BMP,Door1,-0.340312376,0.025423729,1,0,0,0.4946,optionLeft,30,1475,1,30,0,30,0,1,,,,,,,,,,,,,,,,,,,,,,,,,,,,,,,,,,,,,,,
,,,,,,,,2023-08-16_08h38.24.091,HF_wild_card,2022.2.4,Win32,59.93766483,61070ee93bf05ad543b51759,64d2fd46c836a06233681665,64dc7ce27ecbf1e2d286475a,,,,,,,sngl,resources/DG.BMP,resources/Empty.png,Door1,-0.251910924,0.046693233,1,0,0,0.7301,optionLeft,30,1505,1,31,0,31,0,1,,,,,,,,,,,,,,,,,,,,,,,,,,,,,,,,,,,,,,,
,,,,,,,,2023-08-16_08h38.24.091,HF_wild_card,2022.2.4,Win32,59.93766483,61070ee93bf05ad543b51759,64d2fd46c836a06233681665,64dc7ce27ecbf1e2d286475a,,,,,,,decisionTrl,resources/DG.BMP,resources/DBN.BMP,Door2,0.315054835,-0.009139269,1,0,0,0.4464,optionRight,40,1545,1,32,0,32,0,1,,,,,,,,,,,,,,,,,,,,,,,,,,,,,,,,,,,,,,,
,,,,,,,,2023-08-16_08h38.24.091,HF_wild_card,2022.2.4,Win32,59.93766483,61070ee93bf05ad543b51759,64d2fd46c836a06233681665,64dc7ce27ecbf1e2d286475a,,,,,,,decisionTrl,resources/DG.BMP,resources/DBN.BMP,Door1,-0.273180459,-0.02442672,1,0,0,0.613,optionLeft,30,1575,1,33,0,33,0,1,,,,,,,,,,,,,,,,,,,,,,,,,,,,,,,,,,,,,,,
,,,,,,,,2023-08-16_08h38.24.091,HF_wild_card,2022.2.4,Win32,59.93766483,61070ee93bf05ad543b51759,64d2fd46c836a06233681665,64dc7ce27ecbf1e2d286475a,,,,,,,decisionTrl,resources/DB.BMP,resources/DR.BMP,Door3,0.29577941,-0.016450648,1,0,0,0.4635,optionRight,70,1645,1,34,0,34,0,1,,,,,,,,,,,,,,,,,,,,,,,,,,,,,,,,,,,,,,,
,,,,,,,,2023-08-16_08h38.24.091,HF_wild_card,2022.2.4,Win32,59.93766483,61070ee93bf05ad543b51759,64d2fd46c836a06233681665,64dc7ce27ecbf1e2d286475a,,,,,,,ctch,resources/DY.BMP,resources/DG.BMP,Door4,-0.340977069,0.004818856,1,0,0,0.4799,optionLeft,80,1725,1,35,0,35,0,1,,,,,,,,,,,,,,,,,,,,,,,,,,,,,,,,,,,,,,,
,,,,,,,,2023-08-16_08h38.24.091,HF_wild_card,2022.2.4,Win32,59.93766483,61070ee93bf05ad543b51759,64d2fd46c836a06233681665,64dc7ce27ecbf1e2d286475a,,,,,,,sngl,resources/Empty.png,resources/DB.BMP,WildCard_Ex,0.255234297,-0.041708249,1,0,0,0.577,optionRight,95,1820,1,36,0,36,0,1,,,,,,,,,,,,,,,,,,,,,,,,,,,,,,,,,,,,,,,
,,,,,,,,2023-08-16_08h38.24.091,HF_wild_card,2022.2.4,Win32,59.93766483,61070ee93bf05ad543b51759,64d2fd46c836a06233681665,64dc7ce27ecbf1e2d286475a,,,,,,,decisionTrl,resources/DR.BMP,resources/DY.BMP,Door3,-0.191425723,-0.033067485,1,0,0,0.7282,optionLeft,70,1890,1,37,0,37,0,1,,,,,,,,,,,,,,,,,,,,,,,,,,,,,,,,,,,,,,,
,,,,,,,,2023-08-16_08h38.24.091,HF_wild_card,2022.2.4,Win32,59.93766483,61070ee93bf05ad543b51759,64d2fd46c836a06233681665,64dc7ce27ecbf1e2d286475a,,,,,,,sngl,resources/Empty.png,resources/DY.BMP,Door4,0.156862786,0.000166158,1,0,0,0.593,optionRight,60,1950,1,38,0,38,0,1,,,,,,,,,,,,,,,,,,,,,,,,,,,,,,,,,,,,,,,
,,,,,,,,2023-08-16_08h38.24.091,HF_wild_card,2022.2.4,Win32,59.93766483,61070ee93bf05ad543b51759,64d2fd46c836a06233681665,64dc7ce27ecbf1e2d286475a,,,,,,,sngl,resources/Empty.png,resources/DBN.BMP,Door2,0.267198405,0.032735108,1,0,0,0.6133,optionRight,20,1970,1,39,0,39,0,1,,,,,,,,,,,,,,,,,,,,,,,,,,,,,,,,,,,,,,,
,,,,,,,,2023-08-16_08h38.24.091,HF_wild_card,2022.2.4,Win32,59.93766483,61070ee93bf05ad543b51759,64d2fd46c836a06233681665,64dc7ce27ecbf1e2d286475a,,,,,,,decisionTrl,resources/DG.BMP,resources/DBN.BMP,Door2,0.153539382,0.009471585,1,0,0,0.8135,optionRight,40,2010,1,40,0,40,0,1,,,,,,,,,,,,,,,,,,,,,,,,,,,,,,,,,,,,,,,
,,,,,,,,2023-08-16_08h38.24.091,HF_wild_card,2022.2.4,Win32,59.93766483,61070ee93bf05ad543b51759,64d2fd46c836a06233681665,64dc7ce27ecbf1e2d286475a,,,,,,,decisionTrl,resources/DY.BMP,resources/DR.BMP,Door4,-0.392156842,-0.016450648,1,0,0,0.6132,optionLeft,80,2090,1,41,0,41,0,1,,,,,,,,,,,,,,,,,,,,,,,,,,,,,,,,,,,,,,,
,,,,,,,,2023-08-16_08h38.24.091,HF_wild_card,2022.2.4,Win32,59.93766483,61070ee93bf05ad543b51759,64d2fd46c836a06233681665,64dc7ce27ecbf1e2d286475a,,,,,,,decisionTrl,resources/DBN.BMP,resources/DG.BMP,Door2,-0.164838797,-0.008474576,1,0,0,0.4954,optionLeft,20,2110,1,42,0,42,0,1,,,,,,,,,,,,,,,,,,,,,,,,,,,,,,,,,,,,,,,
,,,,,,,,2023-08-16_08h38.24.091,HF_wild_card,2022.2.4,Win32,59.93766483,61070ee93bf05ad543b51759,64d2fd46c836a06233681665,64dc7ce27ecbf1e2d286475a,,,,,,,decisionTrl,resources/DB.BMP,resources/DG.BMP,Door1,0.249252243,0.009471585,1,0,0,0.6958,optionRight,30,2140,1,43,0,43,0,1,,,,,,,,,,,,,,,,,,,,,,,,,,,,,,,,,,,,,,,
,,,,,,,,2023-08-16_08h38.24.091,HF_wild_card,2022.2.4,Win32,59.93766483,61070ee93bf05ad543b51759,64d2fd46c836a06233681665,64dc7ce27ecbf1e2d286475a,,,,,,,,,,,,,,,,,,,,,,,,,,0,0,0,0,1,,,,,,,,,,,,,,,,,,,,,,,,,,,,,,,,,,
,,,,,,,,2023-08-16_08h38.24.091,HF_wild_card,2022.2.4,Win32,59.93766483,61070ee93bf05ad543b51759,64d2fd46c836a06233681665,64dc7ce27ecbf1e2d286475a,,,,,,,ctch,resources/DR.BMP,resources/DBN.BMP,Door3,-0.273845121,-0.122798292,1,0,0,0.6816,optionLeft,70,2210,2,0,0,0,0,1,,,,,,,,,,,,,,,,,,,,,,,,,,,,,,,,,,,,,,,
,,,,,,,,2023-08-16_08h38.24.091,HF_wild_card,2022.2.4,Win32,59.93766483,61070ee93bf05ad543b51759,64d2fd46c836a06233681665,64dc7ce27ecbf1e2d286475a,,,,,,,decisionTrl,resources/DBN.BMP,resources/DG.BMP,Door1,0.350947159,-0.03173816,1,0,0,0.744,optionRight,30,2240,2,1,0,1,0,1,,,,,,,,,,,,,,,,,,,,,,,,,,,,,,,,,,,,,,,
,,,,,,,,2023-08-16_08h38.24.091,HF_wild_card,2022.2.4,Win32,59.93766483,61070ee93bf05ad543b51759,64d2fd46c836a06233681665,64dc7ce27ecbf1e2d286475a,,,,,,,decisionTrl,resources/DR.BMP,resources/DY.BMP,Door4,0.263875062,-0.005151233,1,0,0,0.8459,optionRight,80,2320,2,2,0,2,0,1,,,,,,,,,,,,,,,,,,,,,,,,,,,,,,,,,,,,,,,
,,,,,,,,2023-08-16_08h38.24.091,HF_wild_card,2022.2.4,Win32,59.93766483,61070ee93bf05ad543b51759,64d2fd46c836a06233681665,64dc7ce27ecbf1e2d286475a,,,,,,,ctch,resources/DBN.BMP,resources/DR.BMP,Door2,-0.387504144,-0.074941861,1,0,0,0.9294,optionLeft,20,2340,2,3,0,3,0,1,,,,,,,,,,,,,,,,,,,,,,,,,,,,,,,,,,,,,,,
,,,,,,,,2023-08-16_08h38.24.091,HF_wild_card,2022.2.4,Win32,59.93766483,61070ee93bf05ad543b51759,64d2fd46c836a06233681665,64dc7ce27ecbf1e2d286475a,,,,,,,decisionTrl,resources/DY.BMP,resources/DR.BMP,Door4,-0.319707534,0.112495826,1,0,0,0.7564,optionLeft,80,2420,2,4,0,4,0,1,,,,,,,,,,,,,,,,,,,,,,,,,,,,,,,,,,,,,,,
,,,,,,,,2023-08-16_08h38.24.091,HF_wild_card,2022.2.4,Win32,59.93766483,61070ee93bf05ad543b51759,64d2fd46c836a06233681665,64dc7ce27ecbf1e2d286475a,,,,,,,decisionTrl,resources/DY.BMP,resources/DR.BMP,Door3,0.239946846,0.046693233,1,0,0,1.4788,optionRight,70,2490,2,5,0,5,0,1,,,,,,,,,,,,,,,,,,,,,,,,,,,,,,,,,,,,,,,
,,,,,,,,2023-08-16_08h38.24.091,HF_wild_card,2022.2.4,Win32,59.93766483,61070ee93bf05ad543b51759,64d2fd46c836a06233681665,64dc7ce27ecbf1e2d286475a,,,,,,,sngl,resources/Empty.png,resources/DG.BMP,Door1,0.25589899,0.010136248,1,0,0,0.6623,optionRight,30,2520,2,6,0,6,0,1,,,,,,,,,,,,,,,,,,,,,,,,,,,,,,,,,,,,,,,
,,,,,,,,2023-08-16_08h38.24.091,HF_wild_card,2022.2.4,Win32,59.93766483,61070ee93bf05ad543b51759,64d2fd46c836a06233681665,64dc7ce27ecbf1e2d286475a,,,,,,,sngl,resources/Empty.png,resources/DBN.BMP,Door2,0.247922918,0.059322034,1,0,0,0.629,optionRight,40,2560,2,7,0,7,0,1,,,,,,,,,,,,,,,,,,,,,,,,,,,,,,,,,,,,,,,
,,,,,,,,2023-08-16_08h38.24.091,HF_wild_card,2022.2.4,Win32,59.93766483,61070ee93bf05ad543b51759,64d2fd46c836a06233681665,64dc7ce27ecbf1e2d286475a,,,,,,,decisionTrl,resources/DBN.BMP,resources/DG.BMP,Door2,-0.25589896,0.038052499,1,0,0,0.5276,optionLeft,40,2600,2,8,0,8,0,1,,,,,,,,,,,,,,,,,,,,,,,,,,,,,,,,,,,,,,,
,,,,,,,,2023-08-16_08h38.24.091,HF_wild_card,2022.2.4,Win32,59.93766483,61070ee93bf05ad543b51759,64d2fd46c836a06233681665,64dc7ce27ecbf1e2d286475a,,,,,,,decisionTrl,resources/DY.BMP,resources/DR.BMP,Door3,0.28580932,-0.050348953,1,0,0,0.4294,optionRight,70,2670,2,9,0,9,0,1,,,,,,,,,,,,,,,,,,,,,,,,,,,,,,,,,,,,,,,
,,,,,,,,2023-08-16_08h38.24.091,HF_wild_card,2022.2.4,Win32,59.93766483,61070ee93bf05ad543b51759,64d2fd46c836a06233681665,64dc7ce27ecbf1e2d286475a,,,,,,,sngl,resources/Empty.png,resources/DB.BMP,WildCard_Ex,0.194084434,0.005483549,1,0,0,0.4792,optionRight,5,2675,2,10,0,10,0,1,,,,,,,,,,,,,,,,,,,,,,,,,,,,,,,,,,,,,,,
,,,,,,,,2023-08-16_08h38.24.091,HF_wild_card,2022.2.4,Win32,59.93766483,61070ee93bf05ad543b51759,64d2fd46c836a06233681665,64dc7ce27ecbf1e2d286475a,,,,,,,ctch,resources/DY.BMP,resources/DG.BMP,Door4,-0.255234297,0.036058481,1,0,0,0.4299,optionLeft,60,2735,2,11,0,11,0,1,,,,,,,,,,,,,,,,,,,,,,,,,,,,,,,,,,,,,,,
,,,,,,,,2023-08-16_08h38.24.091,HF_wild_card,2022.2.4,Win32,59.93766483,61070ee93bf05ad543b51759,64d2fd46c836a06233681665,64dc7ce27ecbf1e2d286475a,,,,,,,decisionTrl,resources/DB.BMP,resources/DR.BMP,Door3,0.319042871,-0.022432702,1,0,0,0.4451,optionRight,70,2805,2,12,0,12,0,1,,,,,,,,,,,,,,,,,,,,,,,,,,,,,,,,,,,,,,,
,,,,,,,,2023-08-16_08h38.24.091,HF_wild_card,2022.2.4,Win32,59.93766483,61070ee93bf05ad543b51759,64d2fd46c836a06233681665,64dc7ce27ecbf1e2d286475a,,,,,,,decisionTrl,resources/DG.BMP,resources/DBN.BMP,Door1,-0.302426035,0.05333998,1,0,0,0.4128,optionLeft,30,2835,2,13,0,13,0,1,,,,,,,,,,,,,,,,,,,,,,,,,,,,,,,,,,,,,,,
,,,,,,,,2023-08-16_08h38.24.091,HF_wild_card,2022.2.4,Win32,59.93766483,61070ee93bf05ad543b51759,64d2fd46c836a06233681665,64dc7ce27ecbf1e2d286475a,,,,,,,sngl,resources/DG.BMP,resources/Empty.png,Door1,0.170820911,-0.03173816,1,0,0,0.3789,optionLeft,30,2865,2,14,0,14,0,1,,,,,,,,,,,,,,,,,,,,,,,,,,,,,,,,,,,,,,,
,,,,,,,,2023-08-16_08h38.24.091,HF_wild_card,2022.2.4,Win32,59.93766483,61070ee93bf05ad543b51759,64d2fd46c836a06233681665,64dc7ce27ecbf1e2d286475a,,,,,,,decisionTrl,resources/DG.BMP,resources/DBN.BMP,Door2,0.189431705,-0.029744142,1,0,0,0.3618,optionRight,40,2905,2,15,0,15,0,1,,,,,,,,,,,,,,,,,,,,,,,,,,,,,,,,,,,,,,,
,,,,,,,,2023-08-16_08h38.24.091,HF_wild_card,2022.2.4,Win32,59.93766483,61070ee93bf05ad543b51759,64d2fd46c836a06233681665,64dc7ce27ecbf1e2d286475a,,,,,,,decisionTrl,resources/DR.BMP,resources/DB.BMP,WildCard_Ex,0.386839482,-0.015121323,1,0,0,1.8466,optionRight,95,3000,2,16,0,16,0,1,,,,,,,,,,,,,,,,,,,,,,,,,,,,,,,,,,,,,,,
,,,,,,,,2023-08-16_08h38.24.091,HF_wild_card,2022.2.4,Win32,59.93766483,61070ee93bf05ad543b51759,64d2fd46c836a06233681665,64dc7ce27ecbf1e2d286475a,,,,,,,decisionTrl,resources/DY.BMP,resources/DR.BMP,Door4,-0.297773336,0.026088391,1,0,0,2.895,optionLeft,60,3060,2,17,0,17,0,1,,,,,,,,,,,,,,,,,,,,,,,,,,,,,,,,,,,,,,,
,,,,,,,,2023-08-16_08h38.24.091,HF_wild_card,2022.2.4,Win32,59.93766483,61070ee93bf05ad543b51759,64d2fd46c836a06233681665,64dc7ce27ecbf1e2d286475a,,,,,,,sngl,resources/Empty.png,resources/DR.BMP,Door3,0.317713607,0.00814223,1,0,0,0.5381,optionRight,70,3130,2,18,0,18,0,1,,,,,,,,,,,,,,,,,,,,,,,,,,,,,,,,,,,,,,,
,,,,,,,,2023-08-16_08h38.24.091,HF_wild_card,2022.2.4,Win32,59.93766483,61070ee93bf05ad543b51759,64d2fd46c836a06233681665,64dc7ce27ecbf1e2d286475a,,,,,,,decisionTrl,resources/DY.BMP,resources/DB.BMP,Door4,-0.345629767,0.048687251,1,0,0,0.4304,optionLeft,60,3190,2,19,0,19,0,1,,,,,,,,,,,,,,,,,,,,,,,,,,,,,,,,,,,,,,,
,,,,,,,,2023-08-16_08h38.24.091,HF_wild_card,2022.2.4,Win32,59.93766483,61070ee93bf05ad543b51759,64d2fd46c836a06233681665,64dc7ce27ecbf1e2d286475a,,,,,,,ctch,resources/DBN.BMP,resources/DR.BMP,Door3,0.364905284,-0.013791998,1,0,0,0.4453,optionRight,70,3260,2,20,0,20,0,1,,,,,,,,,,,,,,,,,,,,,,,,,,,,,,,,,,,,,,,
,,,,,,,,2023-08-16_08h38.24.091,HF_wild_card,2022.2.4,Win32,59.93766483,61070ee93bf05ad543b51759,64d2fd46c836a06233681665,64dc7ce27ecbf1e2d286475a,,,,,,,decisionTrl,resources/DBN.BMP,resources/DB.BMP,WildCard_Ex,0.297108674,0.04336989,1,0,0,0.6849,optionRight,5,3265,2,21,0,21,0,1,,,,,,,,,,,,,,,,,,,,,,,,,,,,,,,,,,,,,,,
,,,,,,,,2023-08-16_08h38.24.091,HF_wild_card,2022.2.4,Win32,59.93766483,61070ee93bf05ad543b51759,64d2fd46c836a06233681665,64dc7ce27ecbf1e2d286475a,,,,,,,sngl,resources/DB.BMP,resources/Empty.png,WildCard_Ex,-0.250581568,0.112495826,1,0,0,0.5212,optionLeft,95,3360,2,22,0,22,0,1,,,,,,,,,,,,,,,,,,,,,,,,,,,,,,,,,,,,,,,
,,,,,,,,2023-08-16_08h38.24.091,HF_wild_card,2022.2.4,Win32,59.93766483,61070ee93bf05ad543b51759,64d2fd46c836a06233681665,64dc7ce27ecbf1e2d286475a,,,,,,,decisionTrl,resources/DB.BMP,resources/DG.BMP,WildCard_Ex,-0.184114283,0.091226321,1,0,0,0.6532,optionLeft,95,3455,2,23,0,23,0,1,,,,,,,,,,,,,,,,,,,,,,,,,,,,,,,,,,,,,,,
,,,,,,,,2023-08-16_08h38.24.091,HF_wild_card,2022.2.4,Win32,59.93766483,61070ee93bf05ad543b51759,64d2fd46c836a06233681665,64dc7ce27ecbf1e2d286475a,,,,,,,sngl,resources/Empty.png,resources/DY.BMP,Door4,0.244599575,0.008806892,1,0,0,0.63,optionRight,80,3535,2,24,0,24,0,1,,,,,,,,,,,,,,,,,,,,,,,,,,,,,,,,,,,,,,,
,,,,,,,,2023-08-16_08h38.24.091,HF_wild_card,2022.2.4,Win32,59.93766483,61070ee93bf05ad543b51759,64d2fd46c836a06233681665,64dc7ce27ecbf1e2d286475a,,,,,,,ctch,resources/DY.BMP,resources/DG.BMP,Door4,-0.182120265,0.048687251,1,0,0,0.486,optionLeft,60,3595,2,25,0,25,0,1,,,,,,,,,,,,,,,,,,,,,,,,,,,,,,,,,,,,,,,
,,,,,,,,2023-08-16_08h38.24.091,HF_wild_card,2022.2.4,Win32,59.93766483,61070ee93bf05ad543b51759,64d2fd46c836a06233681665,64dc7ce27ecbf1e2d286475a,,,,,,,decisionTrl,resources/DBN.BMP,resources/DG.BMP,Door1,0.220006667,0.048687251,1,0,0,1.0023,optionRight,30,3625,2,26,0,26,0,1,,,,,,,,,,,,,,,,,,,,,,,,,,,,,,,,,,,,,,,
,,,,,,,,2023-08-16_08h38.24.091,HF_wild_card,2022.2.4,Win32,59.93766483,61070ee93bf05ad543b51759,64d2fd46c836a06233681665,64dc7ce27ecbf1e2d286475a,,,,,,,decisionTrl,resources/DG.BMP,resources/DBN.BMP,Door1,-0.150215978,0.079926876,1,0,0,0.4402,optionLeft,30,3655,2,27,0,27,0,1,,,,,,,,,,,,,,,,,,,,,,,,,,,,,,,,,,,,,,,
,,,,,,,,2023-08-16_08h38.24.091,HF_wild_card,2022.2.4,Win32,59.93766483,61070ee93bf05ad543b51759,64d2fd46c836a06233681665,64dc7ce27ecbf1e2d286475a,,,,,,,decisionTrl,resources/DR.BMP,resources/DY.BMP,Door3,-0.193419741,0.019441675,1,0,0,0.6699,optionLeft,70,3725,2,28,0,28,0,1,,,,,,,,,,,,,,,,,,,,,,,,,,,,,,,,,,,,,,,
,,,,,,,,2023-08-16_08h38.24.091,HF_wild_card,2022.2.4,Win32,59.93766483,61070ee93bf05ad543b51759,64d2fd46c836a06233681665,64dc7ce27ecbf1e2d286475a,,,,,,,decisionTrl,resources/DG.BMP,resources/DBN.BMP,Door2,0.233964793,0.055998661,1,0,0,0.7749,optionRight,20,3745,2,29,0,29,0,1,,,,,,,,,,,,,,,,,,,,,,,,,,,,,,,,,,,,,,,
,,,,,,,,2023-08-16_08h38.24.091,HF_wild_card,2022.2.4,Win32,59.93766483,61070ee93bf05ad543b51759,64d2fd46c836a06233681665,64dc7ce27ecbf1e2d286475a,,,,,,,sngl,resources/DB.BMP,resources/Empty.png,WildCard_Ex,-0.19076103,0.101861073,1,0,0,0.49,optionLeft,5,3750,2,30,0,30,0,1,,,,,,,,,,,,,,,,,,,,,,,,,,,,,,,,,,,,,,,
,,,,,,,,2023-08-16_08h38.24.091,HF_wild_card,2022.2.4,Win32,59.93766483,61070ee93bf05ad543b51759,64d2fd46c836a06233681665,64dc7ce27ecbf1e2d286475a,,,,,,,decisionTrl,resources/DG.BMP,resources/DB.BMP,WildCard_Ex,0.000664693,-0.001163197,1,0,0,2.7461,optionRight,95,3845,2,31,0,31,0,1,,,,,,,,,,,,,,,,,,,,,,,,,,,,,,,,,,,,,,,
,,,,,,,,2023-08-16_08h38.24.091,HF_wild_card,2022.2.4,Win32,59.93766483,61070ee93bf05ad543b51759,64d2fd46c836a06233681665,64dc7ce27ecbf1e2d286475a,,,,,,,decisionTrl,resources/DR.BMP,resources/DY.BMP,Door3,-0.207377866,0.025423729,1,0,0,1.5621,optionLeft,70,3915,2,32,0,32,0,1,,,,,,,,,,,,,,,,,,,,,,,,,,,,,,,,,,,,,,,
,,,,,,,,2023-08-16_08h38.24.091,HF_wild_card,2022.2.4,Win32,59.93766483,61070ee93bf05ad543b51759,64d2fd46c836a06233681665,64dc7ce27ecbf1e2d286475a,,,,,,,sngl,resources/Empty.png,resources/DB.BMP,WildCard_Ex,0.28846797,-0.023762088,1,0,0,0.653,optionRight,95,4010,2,33,0,33,0,1,,,,,,,,,,,,,,,,,,,,,,,,,,,,,,,,,,,,,,,
,,,,,,,,2023-08-16_08h38.24.091,HF_wild_card,2022.2.4,Win32,59.93766483,61070ee93bf05ad543b51759,64d2fd46c836a06233681665,64dc7ce27ecbf1e2d286475a,,,,,,,ctch,resources/DR.BMP,resources/DBN.BMP,Door2,0.444666002,0.117148554,1,0,0,0.9571,optionRight,40,4050,2,34,0,34,0,1,,,,,,,,,,,,,,,,,,,,,,,,,,,,,,,,,,,,,,,
,,,,,,,,2023-08-16_08h38.24.091,HF_wild_card,2022.2.4,Win32,59.93766483,61070ee93bf05ad543b51759,64d2fd46c836a06233681665,64dc7ce27ecbf1e2d286475a,,,,,,,decisionTrl,resources/DB.BMP,resources/DBN.BMP,WildCard_Ex,-0.279827175,0.056663323,1,0,0,0.4481,optionLeft,5,4055,2,35,0,35,0,1,,,,,,,,,,,,,,,,,,,,,,,,,,,,,,,,,,,,,,,
,,,,,,,,2023-08-16_08h38.24.091,HF_wild_card,2022.2.4,Win32,59.93766483,61070ee93bf05ad543b51759,64d2fd46c836a06233681665,64dc7ce27ecbf1e2d286475a,,,,,,,decisionTrl,resources/DR.BMP,resources/DY.BMP,Door4,0.22067136,0.016118302,1,0,0,0.4852,optionRight,80,4135,2,36,0,36,0,1,,,,,,,,,,,,,,,,,,,,,,,,,,,,,,,,,,,,,,,
,,,,,,,,2023-08-16_08h38.24.091,HF_wild_card,2022.2.4,Win32,59.93766483,61070ee93bf05ad543b51759,64d2fd46c836a06233681665,64dc7ce27ecbf1e2d286475a,,,,,,,ctch,resources/DG.BMP,resources/DY.BMP,Door4,0.379528164,0.003489531,1,0,0,0.746,optionRight,80,4215,2,37,0,37,0,1,,,,,,,,,,,,,,,,,,,,,,,,,,,,,,,,,,,,,,,
,,,,,,,,2023-08-16_08h38.24.091,HF_wild_card,2022.2.4,Win32,59.93766483,61070ee93bf05ad543b51759,64d2fd46c836a06233681665,64dc7ce27ecbf1e2d286475a,,,,,,,sngl,resources/DR.BMP,resources/Empty.png,Door3,-0.321036889,0.114489843,1,0,0,0.6606,optionLeft,70,4285,2,38,0,38,0,1,,,,,,,,,,,,,,,,,,,,,,,,,,,,,,,,,,,,,,,
,,,,,,,,2023-08-16_08h38.24.091,HF_wild_card,2022.2.4,Win32,59.93766483,61070ee93bf05ad543b51759,64d2fd46c836a06233681665,64dc7ce27ecbf1e2d286475a,,,,,,,decisionTrl,resources/DBN.BMP,resources/DG.BMP,Door1,0.263210369,-0.009803932,1,0,0,1.2126,optionRight,30,4315,2,39,0,39,0,1,,,,,,,,,,,,,,,,,,,,,,,,,,,,,,,,,,,,,,,
,,,,,,,,2023-08-16_08h38.24.091,HF_wild_card,2022.2.4,Win32,59.93766483,61070ee93bf05ad543b51759,64d2fd46c836a06233681665,64dc7ce27ecbf1e2d286475a,,,,,,,sngl,resources/DBN.BMP,resources/Empty.png,Door2,-0.013958126,0.007477567,1,0,0,3.9107,optionLeft,20,4335,2,40,0,40,0,1,,,,,,,,,,,,,,,,,,,,,,,,,,,,,,,,,,,,,,,
,,,,,,,,2023-08-16_08h38.24.091,HF_wild_card,2022.2.4,Win32,59.93766483,61070ee93bf05ad543b51759,64d2fd46c836a06233681665,64dc7ce27ecbf1e2d286475a,,,,,,,ctch,resources/DG.BMP,resources/DY.BMP,Door1,-0.228647371,0.067298106,1,0,0,3.035,optionLeft,30,4365,2,41,0,41,0,1,,,,,,,,,,,,,,,,,,,,,,,,,,,,,,,,,,,,,,,
,,,,,,,,2023-08-16_08h38.24.091,HF_wild_card,2022.2.4,Win32,59.93766483,61070ee93bf05ad543b51759,64d2fd46c836a06233681665,64dc7ce27ecbf1e2d286475a,,,,,,,decisionTrl,resources/DB.BMP,resources/DY.BMP,Door4,0.28846797,-0.035726195,1,0,0,0.7291,optionRight,80,4445,2,42,0,42,0,1,,,,,,,,,,,,,,,,,,,,,,,,,,,,,,,,,,,,,,,
,,,,,,,,2023-08-16_08h38.24.091,HF_wild_card,2022.2.4,Win32,59.93766483,61070ee93bf05ad543b51759,64d2fd46c836a06233681665,64dc7ce27ecbf1e2d286475a,,,,,,,sngl,resources/DY.BMP,resources/Empty.png,Door4,-0.259886996,0.036058481,1,0,0,0.7748,optionLeft,60,4505,2,43,0,43,0,1,,,,,,,,,,,,,,,,,,,,,,,,,,,,,,,,,,,,,,,
,,,,,,,,2023-08-16_08h38.24.091,HF_wild_card,2022.2.4,Win32,59.93766483,61070ee93bf05ad543b51759,64d2fd46c836a06233681665,64dc7ce27ecbf1e2d286475a,,,,,,,,,,,,,,,,,,,,,,,,,,1,0,1,0,1,,,,,,,,,,,,,,,,,,,,,,,,,,,,,,,,,,
,,,,,,,,2023-08-16_08h38.24.091,HF_wild_card,2022.2.4,Win32,59.93766483,61070ee93bf05ad543b51759,64d2fd46c836a06233681665,64dc7ce27ecbf1e2d286475a,,,,,,,decisionTrl,resources/DBN.BMP,resources/DB.BMP,Door2,-0.321701552,0.020106337,1,0,0,0.6531,optionLeft,40,4545,3,0,0,0,0,1,,,,,,,,,,,,,,,,,,,,,,,,,,,,,,,,,,,,,,,
,,,,,,,,2023-08-16_08h38.24.091,HF_wild_card,2022.2.4,Win32,59.93766483,61070ee93bf05ad543b51759,64d2fd46c836a06233681665,64dc7ce27ecbf1e2d286475a,,,,,,,ctch,resources/DBN.BMP,resources/DR.BMP,Door3,0.300432078,0.032735108,1,0,0,0.7631,optionRight,70,4615,3,1,0,1,0,1,,,,,,,,,,,,,,,,,,,,,,,,,,,,,,,,,,,,,,,
,,,,,,,,2023-08-16_08h38.24.091,HF_wild_card,2022.2.4,Win32,59.93766483,61070ee93bf05ad543b51759,64d2fd46c836a06233681665,64dc7ce27ecbf1e2d286475a,,,,,,,decisionTrl,resources/DG.BMP,resources/DBN.BMP,Door1,-0.280491837,0.038052499,1,0,0,0.4689,optionLeft,30,4645,3,2,0,2,0,1,,,,,,,,,,,,,,,,,,,,,,,,,,,,,,,,,,,,,,,
,,,,,,,,2023-08-16_08h38.24.091,HF_wild_card,2022.2.4,Win32,59.93766483,61070ee93bf05ad543b51759,64d2fd46c836a06233681665,64dc7ce27ecbf1e2d286475a,,,,,,,decisionTrl,resources/DBN.BMP,resources/DG.BMP,Door1,0.317713607,0.024094373,1,0,0,0.486,optionRight,30,4675,3,3,0,3,0,1,,,,,,,,,,,,,,,,,,,,,,,,,,,,,,,,,,,,,,,
,,,,,,,,2023-08-16_08h38.24.091,HF_wild_card,2022.2.4,Win32,59.93766483,61070ee93bf05ad543b51759,64d2fd46c836a06233681665,64dc7ce27ecbf1e2d286475a,,,,,,,ctch,resources/DBN.BMP,resources/DR.BMP,Door2,-0.205383848,0.109837145,1,0,0,0.4048,optionLeft,40,4715,3,4,0,4,0,1,,,,,,,,,,,,,,,,,,,,,,,,,,,,,,,,,,,,,,,
,,,,,,,,2023-08-16_08h38.24.091,HF_wild_card,2022.2.4,Win32,59.93766483,61070ee93bf05ad543b51759,64d2fd46c836a06233681665,64dc7ce27ecbf1e2d286475a,,,,,,,sngl,resources/DBN.BMP,resources/Empty.png,Door2,-0.340312376,0.16367563,1,0,0,0.5242,optionLeft,40,4755,3,5,0,5,0,1,,,,,,,,,,,,,,,,,,,,,,,,,,,,,,,,,,,,,,,
,,,,,,,,2023-08-16_08h38.24.091,HF_wild_card,2022.2.4,Win32,59.93766483,61070ee93bf05ad543b51759,64d2fd46c836a06233681665,64dc7ce27ecbf1e2d286475a,,,,,,,sngl,resources/DY.BMP,resources/Empty.png,Door4,-0.22598866,-0.025091413,1,0,0,0.5475,optionLeft,80,4835,3,6,0,6,0,1,,,,,,,,,,,,,,,,,,,,,,,,,,,,,,,,,,,,,,,
,,,,,,,,2023-08-16_08h38.24.091,HF_wild_card,2022.2.4,Win32,59.93766483,61070ee93bf05ad543b51759,64d2fd46c836a06233681665,64dc7ce27ecbf1e2d286475a,,,,,,,sngl,resources/Empty.png,resources/DY.BMP,Door4,0.211365902,0.019441675,1,0,0,0.7207,optionRight,60,4895,3,7,0,7,0,1,,,,,,,,,,,,,,,,,,,,,,,,,,,,,,,,,,,,,,,
,,,,,,,,2023-08-16_08h38.24.091,HF_wild_card,2022.2.4,Win32,59.93766483,61070ee93bf05ad543b51759,64d2fd46c836a06233681665,64dc7ce27ecbf1e2d286475a,,,,,,,decisionTrl,resources/DG.BMP,resources/DBN.BMP,Door2,0.247258225,0.054004643,1,0,0,0.98,optionRight,20,4915,3,8,0,8,0,1,,,,,,,,,,,,,,,,,,,,,,,,,,,,,,,,,,,,,,,
,,,,,,,,2023-08-16_08h38.24.091,HF_wild_card,2022.2.4,Win32,59.93766483,61070ee93bf05ad543b51759,64d2fd46c836a06233681665,64dc7ce27ecbf1e2d286475a,,,,,,,sngl,resources/Empty.png,resources/DBN.BMP,Door2,0.123629113,0.037387836,1,0,0,0.6296,optionRight,20,4935,3,9,0,9,0,1,,,,,,,,,,,,,,,,,,,,,,,,,,,,,,,,,,,,,,,
,,,,,,,,2023-08-16_08h38.24.091,HF_wild_card,2022.2.4,Win32,59.93766483,61070ee93bf05ad543b51759,64d2fd46c836a06233681665,64dc7ce27ecbf1e2d286475a,,,,,,,decisionTrl,resources/DG.BMP,resources/DB.BMP,Door1,-0.229312064,0.062645377,1,0,0,0.647,optionLeft,30,4965,3,10,0,10,0,1,,,,,,,,,,,,,,,,,,,,,,,,,,,,,,,,,,,,,,,
,,,,,,,,2023-08-16_08h38.24.091,HF_wild_card,2022.2.4,Win32,59.93766483,61070ee93bf05ad543b51759,64d2fd46c836a06233681665,64dc7ce27ecbf1e2d286475a,,,,,,,decisionTrl,resources/DBN.BMP,resources/DG.BMP,Door1,0.196078452,0.027417747,1,0,0,0.5208,optionRight,30,4995,3,11,0,11,0,1,,,,,,,,,,,,,,,,,,,,,,,,,,,,,,,,,,,,,,,
,,,,,,,,2023-08-16_08h38.24.091,HF_wild_card,2022.2.4,Win32,59.93766483,61070ee93bf05ad543b51759,64d2fd46c836a06233681665,64dc7ce27ecbf1e2d286475a,,,,,,,decisionTrl,resources/DY.BMP,resources/DR.BMP,Door4,-0.211365902,0.059986696,1,0,0,0.6297,optionLeft,80,5075,3,12,0,12,0,1,,,,,,,,,,,,,,,,,,,,,,,,,,,,,,,,,,,,,,,
,,,,,,,,2023-08-16_08h38.24.091,HF_wild_card,2022.2.4,Win32,59.93766483,61070ee93bf05ad543b51759,64d2fd46c836a06233681665,64dc7ce27ecbf1e2d286475a,,,,,,,decisionTrl,resources/DB.BMP,resources/DG.BMP,Door1,0.26586908,0.004154194,1,0,0,0.5131,optionRight,30,5105,3,13,0,13,0,1,,,,,,,,,,,,,,,,,,,,,,,,,,,,,,,,,,,,,,,
,,,,,,,,2023-08-16_08h38.24.091,HF_wild_card,2022.2.4,Win32,59.93766483,61070ee93bf05ad543b51759,64d2fd46c836a06233681665,64dc7ce27ecbf1e2d286475a,,,,,,,decisionTrl,resources/DR.BMP,resources/DY.BMP,Door3,-0.241940834,-0.009139269,1,0,0,0.5872,optionLeft,70,5175,3,14,0,14,0,1,,,,,,,,,,,,,,,,,,,,,,,,,,,,,,,,,,,,,,,
,,,,,,,,2023-08-16_08h38.24.091,HF_wild_card,2022.2.4,Win32,59.93766483,61070ee93bf05ad543b51759,64d2fd46c836a06233681665,64dc7ce27ecbf1e2d286475a,,,,,,,sngl,resources/Empty.png,resources/DR.BMP,Door3,0.224659396,-0.005815896,1,0,0,0.5125,optionRight,70,5245,3,15,0,15,0,1,,,,,,,,,,,,,,,,,,,,,,,,,,,,,,,,,,,,,,,
,,,,,,,,2023-08-16_08h38.24.091,HF_wild_card,2022.2.4,Win32,59.93766483,61070ee93bf05ad543b51759,64d2fd46c836a06233681665,64dc7ce27ecbf1e2d286475a,,,,,,,sngl,resources/DR.BMP,resources/Empty.png,Door3,-0.252575586,0.040711179,1,0,0,0.5034,optionLeft,70,5315,3,16,0,16,0,1,,,,,,,,,,,,,,,,,,,,,,,,,,,,,,,,,,,,,,,
,,,,,,,,2023-08-16_08h38.24.091,HF_wild_card,2022.2.4,Win32,59.93766483,61070ee93bf05ad543b51759,64d2fd46c836a06233681665,64dc7ce27ecbf1e2d286475a,,,,,,,ctch,resources/DY.BMP,resources/DG.BMP,Door1,0.224659396,-0.023097395,1,0,0,0.4467,optionRight,30,5345,3,17,0,17,0,1,,,,,,,,,,,,,,,,,,,,,,,,,,,,,,,,,,,,,,,
,,,,,,,,2023-08-16_08h38.24.091,HF_wild_card,2022.2.4,Win32,59.93766483,61070ee93bf05ad543b51759,64d2fd46c836a06233681665,64dc7ce27ecbf1e2d286475a,,,,,,,decisionTrl,resources/DR.BMP,resources/DY.BMP,Door3,-0.290461927,0.069292124,1,0,0,0.513,optionLeft,70,5415,3,18,0,18,0,1,,,,,,,,,,,,,,,,,,,,,,,,,,,,,,,,,,,,,,,
,,,,,,,,2023-08-16_08h38.24.091,HF_wild_card,2022.2.4,Win32,59.93766483,61070ee93bf05ad543b51759,64d2fd46c836a06233681665,64dc7ce27ecbf1e2d286475a,,,,,,,sngl,resources/Empty.png,resources/DB.BMP,WildCard_Ex,0.290461988,-0.039714231,1,0,0,0.5131,optionRight,5,5420,3,19,0,19,0,1,,,,,,,,,,,,,,,,,,,,,,,,,,,,,,,,,,,,,,,
,,,,,,,,2023-08-16_08h38.24.091,HF_wild_card,2022.2.4,Win32,59.93766483,61070ee93bf05ad543b51759,64d2fd46c836a06233681665,64dc7ce27ecbf1e2d286475a,,,,,,,ctch,resources/DG.BMP,resources/DY.BMP,Door1,-0.22598866,0.126453951,1,0,0,0.5635,optionLeft,30,5450,3,20,0,20,0,1,,,,,,,,,,,,,,,,,,,,,,,,,,,,,,,,,,,,,,,
,,,,,,,,2023-08-16_08h38.24.091,HF_wild_card,2022.2.4,Win32,59.93766483,61070ee93bf05ad543b51759,64d2fd46c836a06233681665,64dc7ce27ecbf1e2d286475a,,,,,,,ctch,resources/DR.BMP,resources/DBN.BMP,Door2,0.197407777,0.039381854,1,0,0,0.431,optionRight,40,5490,3,21,0,21,0,1,,,,,,,,,,,,,,,,,,,,,,,,,,,,,,,,,,,,,,,
,,,,,,,,2023-08-16_08h38.24.091,HF_wild_card,2022.2.4,Win32,59.93766483,61070ee93bf05ad543b51759,64d2fd46c836a06233681665,64dc7ce27ecbf1e2d286475a,,,,,,,sngl,resources/DB.BMP,resources/Empty.png,WildCard_Ex,-0.221335992,0.10850779,1,0,0,0.3468,optionLeft,95,5585,3,22,0,22,0,1,,,,,,,,,,,,,,,,,,,,,,,,,,,,,,,,,,,,,,,
,,,,,,,,2023-08-16_08h38.24.091,HF_wild_card,2022.2.4,Win32,59.93766483,61070ee93bf05ad543b51759,64d2fd46c836a06233681665,64dc7ce27ecbf1e2d286475a,,,,,,,decisionTrl,resources/DR.BMP,resources/DY.BMP,Door4,0.178796983,0.044034553,1,0,0,0.4469,optionRight,80,5665,3,23,0,23,0,1,,,,,,,,,,,,,,,,,,,,,,,,,,,,,,,,,,,,,,,
,,,,,,,,2023-08-16_08h38.24.091,HF_wild_card,2022.2.4,Win32,59.93766483,61070ee93bf05ad543b51759,64d2fd46c836a06233681665,64dc7ce27ecbf1e2d286475a,,,,,,,decisionTrl,resources/DY.BMP,resources/DR.BMP,Door4,-0.004652668,0.020106337,1,0,0,0.2465,optionLeft,80,5745,3,24,0,24,0,1,,,,,,,,,,,,,,,,,,,,,,,,,,,,,,,,,,,,,,,
,,,,,,,,2023-08-16_08h38.24.091,HF_wild_card,2022.2.4,Win32,59.93766483,61070ee93bf05ad543b51759,64d2fd46c836a06233681665,64dc7ce27ecbf1e2d286475a,,,,,,,decisionTrl,resources/DG.BMP,resources/DBN.BMP,Door2,0.201395813,0.00814223,1,0,0,0.4445,optionRight,40,5785,3,25,0,25,0,1,,,,,,,,,,,,,,,,,,,,,,,,,,,,,,,,,,,,,,,
,,,,,,,,2023-08-16_08h38.24.091,HF_wild_card,2022.2.4,Win32,59.93766483,61070ee93bf05ad543b51759,64d2fd46c836a06233681665,64dc7ce27ecbf1e2d286475a,,,,,,,decisionTrl,resources/DB.BMP,resources/DR.BMP,WildCard_Ex,-0.111000312,0.040046517,1,0,0,0.3813,optionLeft,95,5880,3,26,0,26,0,1,,,,,,,,,,,,,,,,,,,,,,,,,,,,,,,,,,,,,,,
,,,,,,,,2023-08-16_08h38.24.091,HF_wild_card,2022.2.4,Win32,59.93766483,61070ee93bf05ad543b51759,64d2fd46c836a06233681665,64dc7ce27ecbf1e2d286475a,,,,,,,sngl,resources/DB.BMP,resources/Empty.png,WildCard_Ex,-0.271851103,0.07593884,1,0,0,0.4307,optionLeft,5,5885,3,27,0,27,0,1,,,,,,,,,,,,,,,,,,,,,,,,,,,,,,,,,,,,,,,
,,,,,,,,2023-08-16_08h38.24.091,HF_wild_card,2022.2.4,Win32,59.93766483,61070ee93bf05ad543b51759,64d2fd46c836a06233681665,64dc7ce27ecbf1e2d286475a,,,,,,,decisionTrl,resources/DB.BMP,resources/DY.BMP,WildCard_Ex,-0.253240279,0.065304088,1,0,0,0.4484,optionLeft,5,5890,3,28,0,28,0,1,,,,,,,,,,,,,,,,,,,,,,,,,,,,,,,,,,,,,,,
,,,,,,,,2023-08-16_08h38.24.091,HF_wild_card,2022.2.4,Win32,59.93766483,61070ee93bf05ad543b51759,64d2fd46c836a06233681665,64dc7ce27ecbf1e2d286475a,,,,,,,decisionTrl,resources/DR.BMP,resources/DB.BMP,Door3,-0.136257852,-0.054336989,1,0,0,0.6638,optionLeft,70,5960,3,29,0,29,0,1,,,,,,,,,,,,,,,,,,,,,,,,,,,,,,,,,,,,,,,
,,,,,,,,2023-08-16_08h38.24.091,HF_wild_card,2022.2.4,Win32,59.93766483,61070ee93bf05ad543b51759,64d2fd46c836a06233681665,64dc7ce27ecbf1e2d286475a,,,,,,,decisionTrl,resources/DR.BMP,resources/DY.BMP,Door3,-0.238617461,0.097208375,1,0,0,0.4475,optionLeft,70,6030,3,30,0,30,0,1,,,,,,,,,,,,,,,,,,,,,,,,,,,,,,,,,,,,,,,
,,,,,,,,2023-08-16_08h38.24.091,HF_wild_card,2022.2.4,Win32,59.93766483,61070ee93bf05ad543b51759,64d2fd46c836a06233681665,64dc7ce27ecbf1e2d286475a,,,,,,,decisionTrl,resources/DG.BMP,resources/DBN.BMP,Door2,0.267198405,-0.020438684,1,0,0,0.4648,optionRight,20,6050,3,31,0,31,0,1,,,,,,,,,,,,,,,,,,,,,,,,,,,,,,,,,,,,,,,
,,,,,,,,2023-08-16_08h38.24.091,HF_wild_card,2022.2.4,Win32,59.93766483,61070ee93bf05ad543b51759,64d2fd46c836a06233681665,64dc7ce27ecbf1e2d286475a,,,,,,,ctch,resources/DR.BMP,resources/DBN.BMP,Door3,-0.236623443,0.012794928,1,0,0,0.563,optionLeft,70,6120,3,32,0,32,0,1,,,,,,,,,,,,,,,,,,,,,,,,,,,,,,,,,,,,,,,
,,,,,,,,2023-08-16_08h38.24.091,HF_wild_card,2022.2.4,Win32,59.93766483,61070ee93bf05ad543b51759,64d2fd46c836a06233681665,64dc7ce27ecbf1e2d286475a,,,,,,,ctch,resources/DY.BMP,resources/DG.BMP,Door4,-0.214024552,0.095879019,1,0,0,0.3637,optionLeft,80,6200,3,33,0,33,0,1,,,,,,,,,,,,,,,,,,,,,,,,,,,,,,,,,,,,,,,
,,,,,,,,2023-08-16_08h38.24.091,HF_wild_card,2022.2.4,Win32,59.93766483,61070ee93bf05ad543b51759,64d2fd46c836a06233681665,64dc7ce27ecbf1e2d286475a,,,,,,,decisionTrl,resources/DY.BMP,resources/DR.BMP,Door4,-0.26852773,0.208208687,1,0,0,0.5814,optionLeft,80,6280,3,34,0,34,0,1,,,,,,,,,,,,,,,,,,,,,,,,,,,,,,,,,,,,,,,
,,,,,,,,2023-08-16_08h38.24.091,HF_wild_card,2022.2.4,Win32,59.93766483,61070ee93bf05ad543b51759,64d2fd46c836a06233681665,64dc7ce27ecbf1e2d286475a,,,,,,,ctch,resources/DG.BMP,resources/DY.BMP,Door1,-0.283150548,0.117148554,1,0,0,0.3979,optionLeft,30,6310,3,35,0,35,0,1,,,,,,,,,,,,,,,,,,,,,,,,,,,,,,,,,,,,,,,
,,,,,,,,2023-08-16_08h38.24.091,HF_wild_card,2022.2.4,Win32,59.93766483,61070ee93bf05ad543b51759,64d2fd46c836a06233681665,64dc7ce27ecbf1e2d286475a,,,,,,,sngl,resources/Empty.png,resources/DB.BMP,WildCard_Ex,0.267863098,0.025423729,1,0,0,0.4129,optionRight,95,6405,3,36,0,36,0,1,,,,,,,,,,,,,,,,,,,,,,,,,,,,,,,,,,,,,,,
,,,,,,,,2023-08-16_08h38.24.091,HF_wild_card,2022.2.4,Win32,59.93766483,61070ee93bf05ad543b51759,64d2fd46c836a06233681665,64dc7ce27ecbf1e2d286475a,,,,,,,decisionTrl,resources/DBN.BMP,resources/DG.BMP,Door1,0.219341974,-0.007145251,1,0,0,0.4973,optionRight,30,6435,3,37,0,37,0,1,,,,,,,,,,,,,,,,,,,,,,,,,,,,,,,,,,,,,,,
,,,,,,,,2023-08-16_08h38.24.091,HF_wild_card,2022.2.4,Win32,59.93766483,61070ee93bf05ad543b51759,64d2fd46c836a06233681665,64dc7ce27ecbf1e2d286475a,,,,,,,sngl,resources/DG.BMP,resources/Empty.png,Door1,-0.220006606,0.083250249,1,0,0,0.43,optionLeft,30,6465,3,38,0,38,0,1,,,,,,,,,,,,,,,,,,,,,,,,,,,,,,,,,,,,,,,
,,,,,,,,2023-08-16_08h38.24.091,HF_wild_card,2022.2.4,Win32,59.93766483,61070ee93bf05ad543b51759,64d2fd46c836a06233681665,64dc7ce27ecbf1e2d286475a,,,,,,,sngl,resources/Empty.png,resources/DG.BMP,Door1,0.227982739,0.085244267,1,0,0,0.5624,optionRight,30,6495,3,39,0,39,0,1,,,,,,,,,,,,,,,,,,,,,,,,,,,,,,,,,,,,,,,
,,,,,,,,2023-08-16_08h38.24.091,HF_wild_card,2022.2.4,Win32,59.93766483,61070ee93bf05ad543b51759,64d2fd46c836a06233681665,64dc7ce27ecbf1e2d286475a,,,,,,,decisionTrl,resources/DY.BMP,resources/DB.BMP,Door4,-0.178796922,0.056663323,1,0,0,0.5302,optionLeft,60,6555,3,40,0,40,0,1,,,,,,,,,,,,,,,,,,,,,,,,,,,,,,,,,,,,,,,
,,,,,,,,2023-08-16_08h38.24.091,HF_wild_card,2022.2.4,Win32,59.93766483,61070ee93bf05ad543b51759,64d2fd46c836a06233681665,64dc7ce27ecbf1e2d286475a,,,,,,,decisionTrl,resources/DB.BMP,resources/DBN.BMP,Door2,0.216683324,-0.017115341,1,0,0,0.3718,optionRight,20,6575,3,41,0,41,0,1,,,,,,,,,,,,,,,,,,,,,,,,,,,,,,,,,,,,,,,
,,,,,,,,2023-08-16_08h38.24.091,HF_wild_card,2022.2.4,Win32,59.93766483,61070ee93bf05ad543b51759,64d2fd46c836a06233681665,64dc7ce27ecbf1e2d286475a,,,,,,,decisionTrl,resources/DBN.BMP,resources/DG.BMP,Door2,-0.202060445,0.037387836,1,0,0,0.3533,optionLeft,20,6595,3,42,0,42,0,1,,,,,,,,,,,,,,,,,,,,,,,,,,,,,,,,,,,,,,,
,,,,,,,,2023-08-16_08h38.24.091,HF_wild_card,2022.2.4,Win32,59.93766483,61070ee93bf05ad543b51759,64d2fd46c836a06233681665,64dc7ce27ecbf1e2d286475a,,,,,,,decisionTrl,resources/DY.BMP,resources/DR.BMP,Door3,0.231970775,-0.009139269,1,0,0,0.4146,optionRight,70,6665,3,43,0,43,0,1,,,,,,,,,,,,,,,,,,,,,,,,,,,,,,,,,,,,,,,
,,,,,,,,2023-08-16_08h38.24.091,HF_wild_card,2022.2.4,Win32,59.93766483,61070ee93bf05ad543b51759,64d2fd46c836a06233681665,64dc7ce27ecbf1e2d286475a,,,,,,,,,,,,,,,,,,,,,,,,,,2,0,2,0,1,,,,,,,,,,,,,,,,,,,,,,,,,,,,,,,,,,
,,,,,,,,2023-08-16_08h38.24.091,HF_wild_card,2022.2.4,Win32,59.93766483,61070ee93bf05ad543b51759,64d2fd46c836a06233681665,64dc7ce27ecbf1e2d286475a,,,,,,,decisionTrl,resources/DG.BMP,resources/DBN.BMP,Door1,-0.301761372,-0.045031592,1,0,0,0.6437,optionLeft,30,6695,4,0,0,0,0,1,,,,,,,,,,,,,,,,,,,,,,,,,,,,,,,,,,,,,,,
,,,,,,,,2023-08-16_08h38.24.091,HF_wild_card,2022.2.4,Win32,59.93766483,61070ee93bf05ad543b51759,64d2fd46c836a06233681665,64dc7ce27ecbf1e2d286475a,,,,,,,decisionTrl,resources/DP.BMP,resources/DR.BMP,Door3,0.283150548,0.012130266,1,0,0,0.3785,optionRight,70,6765,4,1,0,1,0,1,,,,,,,,,,,,,,,,,,,,,,,,,,,,,,,,,,,,,,,
,,,,,,,,2023-08-16_08h38.24.091,HF_wild_card,2022.2.4,Win32,59.93766483,61070ee93bf05ad543b51759,64d2fd46c836a06233681665,64dc7ce27ecbf1e2d286475a,,,,,,,sngl,resources/DP.BMP,resources/Empty.png,WildCard_NonEx,-0.28115653,0.036058481,1,0,0,0.3865,optionLeft,45,6810,4,2,0,2,0,1,,,,,,,,,,,,,,,,,,,,,,,,,,,,,,,,,,,,,,,
,,,,,,,,2023-08-16_08h38.24.091,HF_wild_card,2022.2.4,Win32,59.93766483,61070ee93bf05ad543b51759,64d2fd46c836a06233681665,64dc7ce27ecbf1e2d286475a,,,,,,,decisionTrl,resources/DG.BMP,resources/DP.BMP,Door1,-0.339647713,0.102525736,1,0,0,0.3456,optionLeft,30,6840,4,3,0,3,0,1,,,,,,,,,,,,,,,,,,,,,,,,,,,,,,,,,,,,,,,
,,,,,,,,2023-08-16_08h38.24.091,HF_wild_card,2022.2.4,Win32,59.93766483,61070ee93bf05ad543b51759,64d2fd46c836a06233681665,64dc7ce27ecbf1e2d286475a,,,,,,,decisionTrl,resources/DR.BMP,resources/DY.BMP,Door4,0.199401795,0.021435693,1,0,0,0.3128,optionRight,60,6900,4,4,0,4,0,1,,,,,,,,,,,,,,,,,,,,,,,,,,,,,,,,,,,,,,,
,,,,,,,,2023-08-16_08h38.24.091,HF_wild_card,2022.2.4,Win32,59.93766483,61070ee93bf05ad543b51759,64d2fd46c836a06233681665,64dc7ce27ecbf1e2d286475a,,,,,,,decisionTrl,resources/DBN.BMP,resources/DP.BMP,Door2,-0.33366566,0.110501808,1,0,0,0.3528,optionLeft,20,6920,4,5,0,5,0,1,,,,,,,,,,,,,,,,,,,,,,,,,,,,,,,,,,,,,,,
,,,,,,,,2023-08-16_08h38.24.091,HF_wild_card,2022.2.4,Win32,59.93766483,61070ee93bf05ad543b51759,64d2fd46c836a06233681665,64dc7ce27ecbf1e2d286475a,,,,,,,sngl,resources/DY.BMP,resources/Empty.png,Door4,0.180791001,0.054004643,1,0,0,0.4044,optionLeft,60,6980,4,6,0,6,0,1,,,,,,,,,,,,,,,,,,,,,,,,,,,,,,,,,,,,,,,
,,,,,,,,2023-08-16_08h38.24.091,HF_wild_card,2022.2.4,Win32,59.93766483,61070ee93bf05ad543b51759,64d2fd46c836a06233681665,64dc7ce27ecbf1e2d286475a,,,,,,,sngl,resources/Empty.png,resources/DBN.BMP,Door2,0.182120326,0.022765018,1,0,0,0.4787,optionRight,40,7020,4,7,0,7,0,1,,,,,,,,,,,,,,,,,,,,,,,,,,,,,,,,,,,,,,,
,,,,,,,,2023-08-16_08h38.24.091,HF_wild_card,2022.2.4,Win32,59.93766483,61070ee93bf05ad543b51759,64d2fd46c836a06233681665,64dc7ce27ecbf1e2d286475a,,,,,,,decisionTrl,resources/DY.BMP,resources/DR.BMP,Door3,0.223994703,0.033399801,1,0,0,0.4634,optionRight,70,7090,4,8,0,8,0,1,,,,,,,,,,,,,,,,,,,,,,,,,,,,,,,,,,,,,,,
,,,,,,,,2023-08-16_08h38.24.091,HF_wild_card,2022.2.4,Win32,59.93766483,61070ee93bf05ad543b51759,64d2fd46c836a06233681665,64dc7ce27ecbf1e2d286475a,,,,,,,ctch,resources/DR.BMP,resources/DBN.BMP,Door3,-0.22598866,0.067962768,1,0,0,0.4625,optionLeft,70,7160,4,9,0,9,0,1,,,,,,,,,,,,,,,,,,,,,,,,,,,,,,,,,,,,,,,
,,,,,,,,2023-08-16_08h38.24.091,HF_wild_card,2022.2.4,Win32,59.93766483,61070ee93bf05ad543b51759,64d2fd46c836a06233681665,64dc7ce27ecbf1e2d286475a,,,,,,,decisionTrl,resources/DR.BMP,resources/DY.BMP,Door4,0.221335992,0.019441675,1,0,0,0.6306,optionRight,60,7220,4,10,0,10,0,1,,,,,,,,,,,,,,,,,,,,,,,,,,,,,,,,,,,,,,,
,,,,,,,,2023-08-16_08h38.24.091,HF_wild_card,2022.2.4,Win32,59.93766483,61070ee93bf05ad543b51759,64d2fd46c836a06233681665,64dc7ce27ecbf1e2d286475a,,,,,,,decisionTrl,resources/DR.BMP,resources/DY.BMP,Door3,-0.273845121,0.047357926,1,0,0,0.5038,optionLeft,70,7290,4,11,0,11,0,1,,,,,,,,,,,,,,,,,,,,,,,,,,,,,,,,,,,,,,,
,,,,,,,,2023-08-16_08h38.24.091,HF_wild_card,2022.2.4,Win32,59.93766483,61070ee93bf05ad543b51759,64d2fd46c836a06233681665,64dc7ce27ecbf1e2d286475a,,,,,,,decisionTrl,resources/DY.BMP,resources/DR.BMP,Door3,0.160186129,-0.033732177,1,0,0,0.3724,optionRight,70,7360,4,12,0,12,0,1,,,,,,,,,,,,,,,,,,,,,,,,,,,,,,,,,,,,,,,
,,,,,,,,2023-08-16_08h38.24.091,HF_wild_card,2022.2.4,Win32,59.93766483,61070ee93bf05ad543b51759,64d2fd46c836a06233681665,64dc7ce27ecbf1e2d286475a,,,,,,,decisionTrl,resources/DP.BMP,resources/DY.BMP,WildCard_NonEx,-0.194084373,0.015453639,1,0,0,0.3858,optionLeft,45,7405,4,13,0,13,0,1,,,,,,,,,,,,,,,,,,,,,,,,,,,,,,,,,,,,,,,
,,,,,,,,2023-08-16_08h38.24.091,HF_wild_card,2022.2.4,Win32,59.93766483,61070ee93bf05ad543b51759,64d2fd46c836a06233681665,64dc7ce27ecbf1e2d286475a,,,,,,,sngl,resources/Empty.png,resources/DP.BMP,WildCard_NonEx,0.160186129,-0.008474576,1,0,0,0.3643,optionRight,55,7460,4,14,0,14,0,1,,,,,,,,,,,,,,,,,,,,,,,,,,,,,,,,,,,,,,,
,,,,,,,,2023-08-16_08h38.24.091,HF_wild_card,2022.2.4,Win32,59.93766483,61070ee93bf05ad543b51759,64d2fd46c836a06233681665,64dc7ce27ecbf1e2d286475a,,,,,,,ctch,resources/DG.BMP,resources/DY.BMP,Door4,0.237952829,0.001495513,1,0,0,0.4465,optionRight,60,7520,4,15,0,15,0,1,,,,,,,,,,,,,,,,,,,,,,,,,,,,,,,,,,,,,,,
,,,,,,,,2023-08-16_08h38.24.091,HF_wild_card,2022.2.4,Win32,59.93766483,61070ee93bf05ad543b51759,64d2fd46c836a06233681665,64dc7ce27ecbf1e2d286475a,,,,,,,ctch,resources/DG.BMP,resources/DY.BMP,Door1,-0.329012961,0.142406095,1,0,0,0.3803,optionLeft,30,7550,4,16,0,16,0,1,,,,,,,,,,,,,,,,,,,,,,,,,,,,,,,,,,,,,,,
,,,,,,,,2023-08-16_08h38.24.091,HF_wild_card,2022.2.4,Win32,59.93766483,61070ee93bf05ad543b51759,64d2fd46c836a06233681665,64dc7ce27ecbf1e2d286475a,,,,,,,ctch,resources/DBN.BMP,resources/DR.BMP,Door3,0.290461988,-0.028414756,1,0,0,0.395,optionRight,70,7620,4,17,0,17,0,1,,,,,,,,,,,,,,,,,,,,,,,,,,,,,,,,,,,,,,,
,,,,,,,,2023-08-16_08h38.24.091,HF_wild_card,2022.2.4,Win32,59.93766483,61070ee93bf05ad543b51759,64d2fd46c836a06233681665,64dc7ce27ecbf1e2d286475a,,,,,,,sngl,resources/Empty.png,resources/DP.BMP,WildCard_NonEx,0.226653414,-0.036390828,1,0,0,0.6121,optionRight,45,7665,4,18,0,18,0,1,,,,,,,,,,,,,,,,,,,,,,,,,,,,,,,,,,,,,,,
,,,,,,,,2023-08-16_08h38.24.091,HF_wild_card,2022.2.4,Win32,59.93766483,61070ee93bf05ad543b51759,64d2fd46c836a06233681665,64dc7ce27ecbf1e2d286475a,,,,,,,decisionTrl,resources/DY.BMP,resources/DR.BMP,Door3,0.148886714,-0.010468594,1,0,0,0.5651,optionRight,70,7735,4,19,0,19,0,1,,,,,,,,,,,,,,,,,,,,,,,,,,,,,,,,,,,,,,,
,,,,,,,,2023-08-16_08h38.24.091,HF_wild_card,2022.2.4,Win32,59.93766483,61070ee93bf05ad543b51759,64d2fd46c836a06233681665,64dc7ce27ecbf1e2d286475a,,,,,,,decisionTrl,resources/DG.BMP,resources/DBN.BMP,Door1,-0.336989033,0.16633431,1,0,0,0.3971,optionLeft,30,7765,4,20,0,20,0,1,,,,,,,,,,,,,,,,,,,,,,,,,,,,,,,,,,,,,,,
,,,,,,,,2023-08-16_08h38.24.091,HF_wild_card,2022.2.4,Win32,59.93766483,61070ee93bf05ad543b51759,64d2fd46c836a06233681665,64dc7ce27ecbf1e2d286475a,,,,,,,sngl,resources/DG.BMP,resources/Empty.png,Door1,0.166832875,0.004154194,1,0,0,0.4453,optionLeft,30,7795,4,21,0,21,0,1,,,,,,,,,,,,,,,,,,,,,,,,,,,,,,,,,,,,,,,
,,,,,,,,2023-08-16_08h38.24.091,HF_wild_card,2022.2.4,Win32,59.93766483,61070ee93bf05ad543b51759,64d2fd46c836a06233681665,64dc7ce27ecbf1e2d286475a,,,,,,,decisionTrl,resources/DBN.BMP,resources/DG.BMP,Door2,-0.227982678,0.121801253,1,0,0,0.5124,optionLeft,20,7815,4,22,0,22,0,1,,,,,,,,,,,,,,,,,,,,,,,,,,,,,,,,,,,,,,,
,,,,,,,,2023-08-16_08h38.24.091,HF_wild_card,2022.2.4,Win32,59.93766483,61070ee93bf05ad543b51759,64d2fd46c836a06233681665,64dc7ce27ecbf1e2d286475a,,,,,,,decisionTrl,resources/DR.BMP,resources/DP.BMP,WildCard_NonEx,0.255234297,-0.073612536,1,0,0,0.5973,optionRight,55,7870,4,23,0,23,0,1,,,,,,,,,,,,,,,,,,,,,,,,,,,,,,,,,,,,,,,
,,,,,,,,2023-08-16_08h38.24.091,HF_wild_card,2022.2.4,Win32,59.93766483,61070ee93bf05ad543b51759,64d2fd46c836a06233681665,64dc7ce27ecbf1e2d286475a,,,,,,,decisionTrl,resources/DY.BMP,resources/DP.BMP,WildCard_NonEx,0.237952829,0.03074109,1,0,0,1.1628,optionRight,55,7925,4,24,0,24,0,1,,,,,,,,,,,,,,,,,,,,,,,,,,,,,,,,,,,,,,,
,,,,,,,,2023-08-16_08h38.24.091,HF_wild_card,2022.2.4,Win32,59.93766483,61070ee93bf05ad543b51759,64d2fd46c836a06233681665,64dc7ce27ecbf1e2d286475a,,,,,,,sngl,resources/Empty.png,resources/DY.BMP,Door4,0.207377866,-0.092888023,1,0,0,0.9137,optionRight,80,8005,4,25,0,25,0,1,,,,,,,,,,,,,,,,,,,,,,,,,,,,,,,,,,,,,,,
,,,,,,,,2023-08-16_08h38.24.091,HF_wild_card,2022.2.4,Win32,59.93766483,61070ee93bf05ad543b51759,64d2fd46c836a06233681665,64dc7ce27ecbf1e2d286475a,,,,,,,decisionTrl,resources/DP.BMP,resources/DG.BMP,WildCard_NonEx,-0.197407777,0.10850779,1,0,0,1.0302,optionLeft,45,8050,4,26,0,26,0,1,,,,,,,,,,,,,,,,,,,,,,,,,,,,,,,,,,,,,,,
,,,,,,,,2023-08-16_08h38.24.091,HF_wild_card,2022.2.4,Win32,59.93766483,61070ee93bf05ad543b51759,64d2fd46c836a06233681665,64dc7ce27ecbf1e2d286475a,,,,,,,decisionTrl,resources/DG.BMP,resources/DBN.BMP,Door2,0.253240279,-0.00448654,1,0,0,0.3786,optionRight,20,8070,4,27,0,27,0,1,,,,,,,,,,,,,,,,,,,,,,,,,,,,,,,,,,,,,,,
,,,,,,,,2023-08-16_08h38.24.091,HF_wild_card,2022.2.4,Win32,59.93766483,61070ee93bf05ad543b51759,64d2fd46c836a06233681665,64dc7ce27ecbf1e2d286475a,,,,,,,decisionTrl,resources/DR.BMP,resources/DY.BMP,Door3,-0.279827175,0.125124626,1,0,0,0.37,optionLeft,70,8140,4,28,0,28,0,1,,,,,,,,,,,,,,,,,,,,,,,,,,,,,,,,,,,,,,,
,,,,,,,,2023-08-16_08h38.24.091,HF_wild_card,2022.2.4,Win32,59.93766483,61070ee93bf05ad543b51759,64d2fd46c836a06233681665,64dc7ce27ecbf1e2d286475a,,,,,,,decisionTrl,resources/DBN.BMP,resources/DG.BMP,Door2,-0.313060818,0.094549664,1,0,0,0.397,optionLeft,40,8180,4,29,0,29,0,1,,,,,,,,,,,,,,,,,,,,,,,,,,,,,,,,,,,,,,,
,,,,,,,,2023-08-16_08h38.24.091,HF_wild_card,2022.2.4,Win32,59.93766483,61070ee93bf05ad543b51759,64d2fd46c836a06233681665,64dc7ce27ecbf1e2d286475a,,,,,,,decisionTrl,resources/DBN.BMP,resources/DG.BMP,Door1,0.206048541,-0.032402792,1,0,0,0.3703,optionRight,30,8210,4,30,0,30,0,1,,,,,,,,,,,,,,,,,,,,,,,,,,,,,,,,,,,,,,,
,,,,,,,,2023-08-16_08h38.24.091,HF_wild_card,2022.2.4,Win32,59.93766483,61070ee93bf05ad543b51759,64d2fd46c836a06233681665,64dc7ce27ecbf1e2d286475a,,,,,,,sngl,resources/DBN.BMP,resources/Empty.png,Door2,-0.235294118,0.100531718,1,0,0,0.4789,optionLeft,20,8230,4,31,0,31,0,1,,,,,,,,,,,,,,,,,,,,,,,,,,,,,,,,,,,,,,,
,,,,,,,,2023-08-16_08h38.24.091,HF_wild_card,2022.2.4,Win32,59.93766483,61070ee93bf05ad543b51759,64d2fd46c836a06233681665,64dc7ce27ecbf1e2d286475a,,,,,,,decisionTrl,resources/DP.BMP,resources/DBN.BMP,WildCard_NonEx,-0.246593532,0.161681612,1,0,0,0.5624,optionLeft,55,8285,4,32,0,32,0,1,,,,,,,,,,,,,,,,,,,,,,,,,,,,,,,,,,,,,,,
,,,,,,,,2023-08-16_08h38.24.091,HF_wild_card,2022.2.4,Win32,59.93766483,61070ee93bf05ad543b51759,64d2fd46c836a06233681665,64dc7ce27ecbf1e2d286475a,,,,,,,decisionTrl,resources/DY.BMP,resources/DR.BMP,Door3,0.211365902,-0.01179798,1,0,0,0.4747,optionRight,70,8355,4,33,0,33,0,1,,,,,,,,,,,,,,,,,,,,,,,,,,,,,,,,,,,,,,,
,,,,,,,,2023-08-16_08h38.24.091,HF_wild_card,2022.2.4,Win32,59.93766483,61070ee93bf05ad543b51759,64d2fd46c836a06233681665,64dc7ce27ecbf1e2d286475a,,,,,,,ctch,resources/DY.BMP,resources/DG.BMP,Door4,-0.339647713,0.117813217,1,0,0,0.4851,optionLeft,80,8435,4,34,0,34,0,1,,,,,,,,,,,,,,,,,,,,,,,,,,,,,,,,,,,,,,,
,,,,,,,,2023-08-16_08h38.24.091,HF_wild_card,2022.2.4,Win32,59.93766483,61070ee93bf05ad543b51759,64d2fd46c836a06233681665,64dc7ce27ecbf1e2d286475a,,,,,,,decisionTrl,resources/DG.BMP,resources/DBN.BMP,Door1,-0.121635095,0.016118302,1,0,0,0.4787,optionLeft,30,8465,4,35,0,35,0,1,,,,,,,,,,,,,,,,,,,,,,,,,,,,,,,,,,,,,,,
,,,,,,,,2023-08-16_08h38.24.091,HF_wild_card,2022.2.4,Win32,59.93766483,61070ee93bf05ad543b51759,64d2fd46c836a06233681665,64dc7ce27ecbf1e2d286475a,,,,,,,sngl,resources/DP.BMP,resources/Empty.png,WildCard_NonEx,-0.397474234,0.061980714,1,0,0,0.3646,optionLeft,55,8520,4,36,0,36,0,1,,,,,,,,,,,,,,,,,,,,,,,,,,,,,,,,,,,,,,,
,,,,,,,,2023-08-16_08h38.24.091,HF_wild_card,2022.2.4,Win32,59.93766483,61070ee93bf05ad543b51759,64d2fd46c836a06233681665,64dc7ce27ecbf1e2d286475a,,,,,,,sngl,resources/Empty.png,resources/DR.BMP,Door3,0.236623504,0.025423729,1,0,0,0.637,optionRight,70,8590,4,37,0,37,0,1,,,,,,,,,,,,,,,,,,,,,,,,,,,,,,,,,,,,,,,
,,,,,,,,2023-08-16_08h38.24.091,HF_wild_card,2022.2.4,Win32,59.93766483,61070ee93bf05ad543b51759,64d2fd46c836a06233681665,64dc7ce27ecbf1e2d286475a,,,,,,,decisionTrl,resources/DBN.BMP,resources/DG.BMP,Door1,0.3110668,-0.03705552,1,0,0,0.5233,optionRight,30,8620,4,38,0,38,0,1,,,,,,,,,,,,,,,,,,,,,,,,,,,,,,,,,,,,,,,
,,,,,,,,2023-08-16_08h38.24.091,HF_wild_card,2022.2.4,Win32,59.93766483,61070ee93bf05ad543b51759,64d2fd46c836a06233681665,64dc7ce27ecbf1e2d286475a,,,,,,,ctch,resources/DBN.BMP,resources/DR.BMP,Door2,-0.284479873,0.097873037,1,0,0,0.5464,optionLeft,20,8640,4,39,0,39,0,1,,,,,,,,,,,,,,,,,,,,,,,,,,,,,,,,,,,,,,,
,,,,,,,,2023-08-16_08h38.24.091,HF_wild_card,2022.2.4,Win32,59.93766483,61070ee93bf05ad543b51759,64d2fd46c836a06233681665,64dc7ce27ecbf1e2d286475a,,,,,,,ctch,resources/DR.BMP,resources/DBN.BMP,Door2,0.210036577,-0.067630483,1,0,0,0.3294,optionRight,20,8660,4,40,0,40,0,1,,,,,,,,,,,,,,,,,,,,,,,,,,,,,,,,,,,,,,,
,,,,,,,,2023-08-16_08h38.24.091,HF_wild_card,2022.2.4,Win32,59.93766483,61070ee93bf05ad543b51759,64d2fd46c836a06233681665,64dc7ce27ecbf1e2d286475a,,,,,,,sngl,resources/Empty.png,resources/DG.BMP,Door1,0.22067136,0.01080091,1,0,0,0.6235,optionRight,30,8690,4,41,0,41,0,1,,,,,,,,,,,,,,,,,,,,,,,,,,,,,,,,,,,,,,,
,,,,,,,,2023-08-16_08h38.24.091,HF_wild_card,2022.2.4,Win32,59.93766483,61070ee93bf05ad543b51759,64d2fd46c836a06233681665,64dc7ce27ecbf1e2d286475a,,,,,,,ctch,resources/DY.BMP,resources/DG.BMP,Door4,-0.264539694,0.032070445,1,0,0,0.4914,optionLeft,60,8750,4,42,0,42,0,1,,,,,,,,,,,,,,,,,,,,,,,,,,,,,,,,,,,,,,,
,,,,,,,,2023-08-16_08h38.24.091,HF_wild_card,2022.2.4,Win32,59.93766483,61070ee93bf05ad543b51759,64d2fd46c836a06233681665,64dc7ce27ecbf1e2d286475a,,,,,,,sngl,resources/DR.BMP,resources/Empty.png,Door3,-0.293120638,0.103190429,1,0,0,0.3741,optionLeft,70,8820,4,43,0,43,0,1,,,,,,,,,,,,,,,,,,,,,,,,,,,,,,,,,,,,,,,
,,,,,,,,2023-08-16_08h38.24.091,HF_wild_card,2022.2.4,Win32,59.93766483,61070ee93bf05ad543b51759,64d2fd46c836a06233681665,64dc7ce27ecbf1e2d286475a,,,,,,,,,,,,,,,,,,,,,,,,,,3,0,3,0,1,,,,,,,,,,,,,,,,,,,,,,,,,,,,,,,,,,
,,,,,,,,2023-08-16_08h38.24.091,HF_wild_card,2022.2.4,Win32,59.93766483,61070ee93bf05ad543b51759,64d2fd46c836a06233681665,64dc7ce27ecbf1e2d286475a,,,,,,,decisionTrl,resources/DG.BMP,resources/DBN.BMP,Door1,-0.300432017,0.010136248,1,0,0,0.6571,optionLeft,30,8850,5,0,0,0,0,1,,,,,,,,,,,,,,,,,,,,,,,,,,,,,,,,,,,,,,,
,,,,,,,,2023-08-16_08h38.24.091,HF_wild_card,2022.2.4,Win32,59.93766483,61070ee93bf05ad543b51759,64d2fd46c836a06233681665,64dc7ce27ecbf1e2d286475a,,,,,,,ctch,resources/DG.BMP,resources/DY.BMP,Door1,-0.262545676,-0.00448654,1,0,0,0.3198,optionLeft,30,8880,5,1,0,1,0,1,,,,,,,,,,,,,,,,,,,,,,,,,,,,,,,,,,,,,,,
,,,,,,,,2023-08-16_08h38.24.091,HF_wild_card,2022.2.4,Win32,59.93766483,61070ee93bf05ad543b51759,64d2fd46c836a06233681665,64dc7ce27ecbf1e2d286475a,,,,,,,decisionTrl,resources/DY.BMP,resources/DR.BMP,Door3,0.275174477,-0.028414756,1,0,0,0.3411,optionRight,70,8950,5,2,0,2,0,1,,,,,,,,,,,,,,,,,,,,,,,,,,,,,,,,,,,,,,,
,,,,,,,,2023-08-16_08h38.24.091,HF_wild_card,2022.2.4,Win32,59.93766483,61070ee93bf05ad543b51759,64d2fd46c836a06233681665,64dc7ce27ecbf1e2d286475a,,,,,,,ctch,resources/DBN.BMP,resources/DR.BMP,Door2,-0.315719498,0.157693576,1,0,0,0.3448,optionLeft,40,8990,5,3,0,3,0,1,,,,,,,,,,,,,,,,,,,,,,,,,,,,,,,,,,,,,,,
,,,,,,,,2023-08-16_08h38.24.091,HF_wild_card,2022.2.4,Win32,59.93766483,61070ee93bf05ad543b51759,64d2fd46c836a06233681665,64dc7ce27ecbf1e2d286475a,,,,,,,ctch,resources/DY.BMP,resources/DG.BMP,Door1,0.289797356,-0.00448654,1,0,0,0.2959,optionRight,30,9020,5,4,0,4,0,1,,,,,,,,,,,,,,,,,,,,,,,,,,,,,,,,,,,,,,,
,,,,,,,,2023-08-16_08h38.24.091,HF_wild_card,2022.2.4,Win32,59.93766483,61070ee93bf05ad543b51759,64d2fd46c836a06233681665,64dc7ce27ecbf1e2d286475a,,,,,,,decisionTrl,resources/DP.BMP,resources/DY.BMP,WildCard_NonEx,-0.202060445,0.103855091,1,0,0,0.2961,optionLeft,55,9075,5,5,0,5,0,1,,,,,,,,,,,,,,,,,,,,,,,,,,,,,,,,,,,,,,,
,,,,,,,,2023-08-16_08h38.24.091,HF_wild_card,2022.2.4,Win32,59.93766483,61070ee93bf05ad543b51759,64d2fd46c836a06233681665,64dc7ce27ecbf1e2d286475a,,,,,,,decisionTrl,resources/DR.BMP,resources/DY.BMP,Door3,-0.261881013,0.147723486,1,0,0,0.4306,optionLeft,70,9145,5,6,0,6,0,1,,,,,,,,,,,,,,,,,,,,,,,,,,,,,,,,,,,,,,,
,,,,,,,,2023-08-16_08h38.24.091,HF_wild_card,2022.2.4,Win32,59.93766483,61070ee93bf05ad543b51759,64d2fd46c836a06233681665,64dc7ce27ecbf1e2d286475a,,,,,,,decisionTrl,resources/DG.BMP,resources/DBN.BMP,Door1,-0.295114656,0.092555646,1,0,0,0.3788,optionLeft,30,9175,5,7,0,7,0,1,,,,,,,,,,,,,,,,,,,,,,,,,,,,,,,,,,,,,,,
,,,,,,,,2023-08-16_08h38.24.091,HF_wild_card,2022.2.4,Win32,59.93766483,61070ee93bf05ad543b51759,64d2fd46c836a06233681665,64dc7ce27ecbf1e2d286475a,,,,,,,decisionTrl,resources/DBN.BMP,resources/DG.BMP,Door1,0.212695288,-0.0569957,1,0,0,0.3521,optionRight,30,9205,5,8,0,8,0,1,,,,,,,,,,,,,,,,,,,,,,,,,,,,,,,,,,,,,,,
,,,,,,,,2023-08-16_08h38.24.091,HF_wild_card,2022.2.4,Win32,59.93766483,61070ee93bf05ad543b51759,64d2fd46c836a06233681665,64dc7ce27ecbf1e2d286475a,,,,,,,decisionTrl,resources/DY.BMP,resources/DR.BMP,Door4,-0.303090728,0.038052499,1,0,0,0.4962,optionLeft,80,9285,5,9,0,9,0,1,,,,,,,,,,,,,,,,,,,,,,,,,,,,,,,,,,,,,,,
,,,,,,,,2023-08-16_08h38.24.091,HF_wild_card,2022.2.4,Win32,59.93766483,61070ee93bf05ad543b51759,64d2fd46c836a06233681665,64dc7ce27ecbf1e2d286475a,,,,,,,sngl,resources/Empty.png,resources/DBN.BMP,Door2,-0.140245888,0.055333998,1,0,0,0.5319,optionRight,20,9305,5,10,0,10,0,1,,,,,,,,,,,,,,,,,,,,,,,,,,,,,,,,,,,,,,,
,,,,,,,,2023-08-16_08h38.24.091,HF_wild_card,2022.2.4,Win32,59.93766483,61070ee93bf05ad543b51759,64d2fd46c836a06233681665,64dc7ce27ecbf1e2d286475a,,,,,,,decisionTrl,resources/DY.BMP,resources/DP.BMP,Door4,-0.288467909,0.028082409,1,0,0,0.4124,optionLeft,80,9385,5,11,0,11,0,1,,,,,,,,,,,,,,,,,,,,,,,,,,,,,,,,,,,,,,,
,,,,,,,,2023-08-16_08h38.24.091,HF_wild_card,2022.2.4,Win32,59.93766483,61070ee93bf05ad543b51759,64d2fd46c836a06233681665,64dc7ce27ecbf1e2d286475a,,,,,,,decisionTrl,resources/DR.BMP,resources/DY.BMP,Door3,-0.340977069,0.034064463,1,0,0,0.4629,optionLeft,70,9455,5,12,0,12,0,1,,,,,,,,,,,,,,,,,,,,,,,,,,,,,,,,,,,,,,,
,,,,,,,,2023-08-16_08h38.24.091,HF_wild_card,2022.2.4,Win32,59.93766483,61070ee93bf05ad543b51759,64d2fd46c836a06233681665,64dc7ce27ecbf1e2d286475a,,,,,,,decisionTrl,resources/DY.BMP,resources/DR.BMP,Door4,-0.27849782,0.076603502,1,0,0,0.4629,optionLeft,60,9515,5,13,0,13,0,1,,,,,,,,,,,,,,,,,,,,,,,,,,,,,,,,,,,,,,,
,,,,,,,,2023-08-16_08h38.24.091,HF_wild_card,2022.2.4,Win32,59.93766483,61070ee93bf05ad543b51759,64d2fd46c836a06233681665,64dc7ce27ecbf1e2d286475a,,,,,,,decisionTrl,resources/DY.BMP,resources/DR.BMP,Door3,0.25589899,0.00814223,1,0,0,0.2956,optionRight,70,9585,5,14,0,14,0,1,,,,,,,,,,,,,,,,,,,,,,,,,,,,,,,,,,,,,,,
,,,,,,,,2023-08-16_08h38.24.091,HF_wild_card,2022.2.4,Win32,59.93766483,61070ee93bf05ad543b51759,64d2fd46c836a06233681665,64dc7ce27ecbf1e2d286475a,,,,,,,ctch,resources/DG.BMP,resources/DY.BMP,Door4,0.237288136,-0.029079449,1,0,0,0.394,optionRight,60,9645,5,15,0,15,0,1,,,,,,,,,,,,,,,,,,,,,,,,,,,,,,,,,,,,,,,
,,,,,,,,2023-08-16_08h38.24.091,HF_wild_card,2022.2.4,Win32,59.93766483,61070ee93bf05ad543b51759,64d2fd46c836a06233681665,64dc7ce27ecbf1e2d286475a,,,,,,,decisionTrl,resources/DP.BMP,resources/DBN.BMP,WildCard_NonEx,-0.209371884,0.038717162,1,0,0,0.5367,optionLeft,55,9700,5,16,0,16,0,1,,,,,,,,,,,,,,,,,,,,,,,,,,,,,,,,,,,,,,,
,,,,,,,,2023-08-16_08h38.24.091,HF_wild_card,2022.2.4,Win32,59.93766483,61070ee93bf05ad543b51759,64d2fd46c836a06233681665,64dc7ce27ecbf1e2d286475a,,,,,,,decisionTrl,resources/DR.BMP,resources/DY.BMP,Door4,0.166832875,0.020771,1,0,0,0.386,optionRight,60,9760,5,17,0,17,0,1,,,,,,,,,,,,,,,,,,,,,,,,,,,,,,,,,,,,,,,
,,,,,,,,2023-08-16_08h38.24.091,HF_wild_card,2022.2.4,Win32,59.93766483,61070ee93bf05ad543b51759,64d2fd46c836a06233681665,64dc7ce27ecbf1e2d286475a,,,,,,,sngl,resources/Empty.png,resources/DP.BMP,WildCard_NonEx,-0.203389831,0.083250249,1,0,0,0.3627,optionRight,45,9805,5,18,0,18,0,1,,,,,,,,,,,,,,,,,,,,,,,,,,,,,,,,,,,,,,,
,,,,,,,,2023-08-16_08h38.24.091,HF_wild_card,2022.2.4,Win32,59.93766483,61070ee93bf05ad543b51759,64d2fd46c836a06233681665,64dc7ce27ecbf1e2d286475a,,,,,,,decisionTrl,resources/DBN.BMP,resources/DG.BMP,Door2,-0.216683263,-0.058325025,1,0,0,0.5635,optionLeft,40,9845,5,19,0,19,0,1,,,,,,,,,,,,,,,,,,,,,,,,,,,,,,,,,,,,,,,
,,,,,,,,2023-08-16_08h38.24.091,HF_wild_card,2022.2.4,Win32,59.93766483,61070ee93bf05ad543b51759,64d2fd46c836a06233681665,64dc7ce27ecbf1e2d286475a,,,,,,,sngl,resources/DBN.BMP,resources/Empty.png,Door2,-0.247258225,-0.049684321,1,0,0,0.5636,optionLeft,40,9885,5,20,0,20,0,1,,,,,,,,,,,,,,,,,,,,,,,,,,,,,,,,,,,,,,,
,,,,,,,,2023-08-16_08h38.24.091,HF_wild_card,2022.2.4,Win32,59.93766483,61070ee93bf05ad543b51759,64d2fd46c836a06233681665,64dc7ce27ecbf1e2d286475a,,,,,,,sngl,resources/Empty.png,resources/DR.BMP,Door3,0.219341974,-0.020438684,1,0,0,0.5967,optionRight,70,9955,5,21,0,21,0,1,,,,,,,,,,,,,,,,,,,,,,,,,,,,,,,,,,,,,,,
,,,,,,,,2023-08-16_08h38.24.091,HF_wild_card,2022.2.4,Win32,59.93766483,61070ee93bf05ad543b51759,64d2fd46c836a06233681665,64dc7ce27ecbf1e2d286475a,,,,,,,sngl,resources/DG.BMP,resources/Empty.png,Door1,-0.174144193,0.040711179,1,0,0,0.3974,optionLeft,30,9985,5,22,0,22,0,1,,,,,,,,,,,,,,,,,,,,,,,,,,,,,,,,,,,,,,,
,,,,,,,,2023-08-16_08h38.24.091,HF_wild_card,2022.2.4,Win32,59.93766483,61070ee93bf05ad543b51759,64d2fd46c836a06233681665,64dc7ce27ecbf1e2d286475a,,,,,,,sngl,resources/Empty.png,resources/DG.BMP,Door1,0.327018943,-0.015121323,1,0,0,0.5399,optionRight,30,10015,5,23,0,23,0,1,,,,,,,,,,,,,,,,,,,,,,,,,,,,,,,,,,,,,,,
,,,,,,,,2023-08-16_08h38.24.091,HF_wild_card,2022.2.4,Win32,59.93766483,61070ee93bf05ad543b51759,64d2fd46c836a06233681665,64dc7ce27ecbf1e2d286475a,,,,,,,sngl,resources/DP.BMP,resources/Empty.png,WildCard_NonEx,-0.175473579,0.028082409,1,0,0,0.3762,optionLeft,55,10070,5,24,0,24,0,1,,,,,,,,,,,,,,,,,,,,,,,,,,,,,,,,,,,,,,,
,,,,,,,,2023-08-16_08h38.24.091,HF_wild_card,2022.2.4,Win32,59.93766483,61070ee93bf05ad543b51759,64d2fd46c836a06233681665,64dc7ce27ecbf1e2d286475a,,,,,,,decisionTrl,resources/DR.BMP,resources/DP.BMP,WildCard_NonEx,0.284479934,-0.067630483,1,0,0,0.6468,optionRight,45,10115,5,25,0,25,0,1,,,,,,,,,,,,,,,,,,,,,,,,,,,,,,,,,,,,,,,
,,,,,,,,2023-08-16_08h38.24.091,HF_wild_card,2022.2.4,Win32,59.93766483,61070ee93bf05ad543b51759,64d2fd46c836a06233681665,64dc7ce27ecbf1e2d286475a,,,,,,,decisionTrl,resources/DBN.BMP,resources/DG.BMP,Door2,-0.265204387,0.077932858,1,0,0,0.3402,optionLeft,20,10135,5,26,0,26,0,1,,,,,,,,,,,,,,,,,,,,,,,,,,,,,,,,,,,,,,,
,,,,,,,,2023-08-16_08h38.24.091,HF_wild_card,2022.2.4,Win32,59.93766483,61070ee93bf05ad543b51759,64d2fd46c836a06233681665,64dc7ce27ecbf1e2d286475a,,,,,,,sngl,resources/DR.BMP,resources/Empty.png,Door3,0.196743145,-0.003157215,1,0,0,0.3448,optionLeft,70,10205,5,27,0,27,0,1,,,,,,,,,,,,,,,,,,,,,,,,,,,,,,,,,,,,,,,
,,,,,,,,2023-08-16_08h38.24.091,HF_wild_card,2022.2.4,Win32,59.93766483,61070ee93bf05ad543b51759,64d2fd46c836a06233681665,64dc7ce27ecbf1e2d286475a,,,,,,,ctch,resources/DR.BMP,resources/DBN.BMP,Door3,-0.228647371,0.062645377,1,0,0,0.3916,optionLeft,70,10275,5,28,0,28,0,1,,,,,,,,,,,,,,,,,,,,,,,,,,,,,,,,,,,,,,,
,,,,,,,,2023-08-16_08h38.24.091,HF_wild_card,2022.2.4,Win32,59.93766483,61070ee93bf05ad543b51759,64d2fd46c836a06233681665,64dc7ce27ecbf1e2d286475a,,,,,,,decisionTrl,resources/DP.BMP,resources/DR.BMP,WildCard_NonEx,-0.279162512,0.087902948,1,0,0,0.3352,optionLeft,55,10330,5,29,0,29,0,1,,,,,,,,,,,,,,,,,,,,,,,,,,,,,,,,,,,,,,,
,,,,,,,,2023-08-16_08h38.24.091,HF_wild_card,2022.2.4,Win32,59.93766483,61070ee93bf05ad543b51759,64d2fd46c836a06233681665,64dc7ce27ecbf1e2d286475a,,,,,,,decisionTrl,resources/DG.BMP,resources/DBN.BMP,Door2,0.346959123,-0.011133287,1,0,0,0.3809,optionRight,20,10350,5,30,0,30,0,1,,,,,,,,,,,,,,,,,,,,,,,,,,,,,,,,,,,,,,,
,,,,,,,,2023-08-16_08h38.24.091,HF_wild_card,2022.2.4,Win32,59.93766483,61070ee93bf05ad543b51759,64d2fd46c836a06233681665,64dc7ce27ecbf1e2d286475a,,,,,,,decisionTrl,resources/DR.BMP,resources/DY.BMP,Door3,-0.240611479,0.07859752,1,0,0,0.4279,optionLeft,70,10420,5,31,0,31,0,1,,,,,,,,,,,,,,,,,,,,,,,,,,,,,,,,,,,,,,,
,,,,,,,,2023-08-16_08h38.24.091,HF_wild_card,2022.2.4,Win32,59.93766483,61070ee93bf05ad543b51759,64d2fd46c836a06233681665,64dc7ce27ecbf1e2d286475a,,,,,,,sngl,resources/DY.BMP,resources/Empty.png,Door4,-0.158856743,0.040711179,1,0,0,0.298,optionLeft,80,10500,5,32,0,32,0,1,,,,,,,,,,,,,,,,,,,,,,,,,,,,,,,,,,,,,,,
,,,,,,,,2023-08-16_08h38.24.091,HF_wild_card,2022.2.4,Win32,59.93766483,61070ee93bf05ad543b51759,64d2fd46c836a06233681665,64dc7ce27ecbf1e2d286475a,,,,,,,decisionTrl,resources/DG.BMP,resources/DP.BMP,Door1,-0.207377866,0.112495826,1,0,0,0.3415,optionLeft,30,10530,5,33,0,33,0,1,,,,,,,,,,,,,,,,,,,,,,,,,,,,,,,,,,,,,,,
,,,,,,,,2023-08-16_08h38.24.091,HF_wild_card,2022.2.4,Win32,59.93766483,61070ee93bf05ad543b51759,64d2fd46c836a06233681665,64dc7ce27ecbf1e2d286475a,,,,,,,ctch,resources/DR.BMP,resources/DBN.BMP,Door3,-0.222665317,0.061316052,1,0,0,0.3021,optionLeft,70,10600,5,34,0,34,0,1,,,,,,,,,,,,,,,,,,,,,,,,,,,,,,,,,,,,,,,
,,,,,,,,2023-08-16_08h38.24.091,HF_wild_card,2022.2.4,Win32,59.93766483,61070ee93bf05ad543b51759,64d2fd46c836a06233681665,64dc7ce27ecbf1e2d286475a,,,,,,,ctch,resources/DY.BMP,resources/DG.BMP,Door4,-0.256563622,0.101861073,1,0,0,0.2463,optionLeft,60,10660,5,35,0,35,0,1,,,,,,,,,,,,,,,,,,,,,,,,,,,,,,,,,,,,,,,
,,,,,,,,2023-08-16_08h38.24.091,HF_wild_card,2022.2.4,Win32,59.93766483,61070ee93bf05ad543b51759,64d2fd46c836a06233681665,64dc7ce27ecbf1e2d286475a,,,,,,,decisionTrl,resources/DBN.BMP,resources/DG.BMP,Door1,0.310402168,0.051345962,1,0,0,0.2806,optionRight,30,10690,5,36,0,36,0,1,,,,,,,,,,,,,,,,,,,,,,,,,,,,,,,,,,,,,,,
,,,,,,,,2023-08-16_08h38.24.091,HF_wild_card,2022.2.4,Win32,59.93766483,61070ee93bf05ad543b51759,64d2fd46c836a06233681665,64dc7ce27ecbf1e2d286475a,,,,,,,decisionTrl,resources/DBN.BMP,resources/DP.BMP,Door2,-0.131605184,0.023429711,1,0,0,0.2686,optionLeft,40,10730,5,37,0,37,0,1,,,,,,,,,,,,,,,,,,,,,,,,,,,,,,,,,,,,,,,
,,,,,,,,2023-08-16_08h38.24.091,HF_wild_card,2022.2.4,Win32,59.93766483,61070ee93bf05ad543b51759,64d2fd46c836a06233681665,64dc7ce27ecbf1e2d286475a,,,,,,,decisionTrl,resources/DP.BMP,resources/DG.BMP,WildCard_NonEx,-0.162844779,0.025423729,1,0,0,0.4296,optionLeft,55,10785,5,38,0,38,0,1,,,,,,,,,,,,,,,,,,,,,,,,,,,,,,,,,,,,,,,
,,,,,,,,2023-08-16_08h38.24.091,HF_wild_card,2022.2.4,Win32,59.93766483,61070ee93bf05ad543b51759,64d2fd46c836a06233681665,64dc7ce27ecbf1e2d286475a,,,,,,,sngl,resources/DP.BMP,resources/Empty.png,WildCard_NonEx,-0.242605496,0.044699215,1,0,0,0.289,optionLeft,45,10830,5,39,0,39,0,1,,,,,,,,,,,,,,,,,,,,,,,,,,,,,,,,,,,,,,,
,,,,,,,,2023-08-16_08h38.24.091,HF_wild_card,2022.2.4,Win32,59.93766483,61070ee93bf05ad543b51759,64d2fd46c836a06233681665,64dc7ce27ecbf1e2d286475a,,,,,,,sngl,resources/Empty.png,resources/DP.BMP,WildCard_NonEx,-0.277168495,0.024094373,1,0,0,0.2278,optionRight,55,10885,5,40,0,40,0,1,,,,,,,,,,,,,,,,,,,,,,,,,,,,,,,,,,,,,,,
,,,,,,,,2023-08-16_08h38.24.091,HF_wild_card,2022.2.4,Win32,59.93766483,61070ee93bf05ad543b51759,64d2fd46c836a06233681665,64dc7ce27ecbf1e2d286475a,,,,,,,decisionTrl,resources/DG.BMP,resources/DBN.BMP,Door1,-0.247258225,0.097208375,1,0,0,0.2557,optionLeft,30,10915,5,41,0,41,0,1,,,,,,,,,,,,,,,,,,,,,,,,,,,,,,,,,,,,,,,
,,,,,,,,2023-08-16_08h38.24.091,HF_wild_card,2022.2.4,Win32,59.93766483,61070ee93bf05ad543b51759,64d2fd46c836a06233681665,64dc7ce27ecbf1e2d286475a,,,,,,,sngl,resources/Empty.png,resources/DY.BMP,Door4,0.260551719,0.011465603,1,0,0,0.3294,optionRight,60,10975,5,42,0,42,0,1,,,,,,,,,,,,,,,,,,,,,,,,,,,,,,,,,,,,,,,
,,,,,,,,2023-08-16_08h38.24.091,HF_wild_card,2022.2.4,Win32,59.93766483,61070ee93bf05ad543b51759,64d2fd46c836a06233681665,64dc7ce27ecbf1e2d286475a,,,,,,,ctch,resources/DBN.BMP,resources/DR.BMP,Door3,0.332336365,0.024094373,1,0,0,0.3913,optionRight,70,11045,5,43,0,43,0,1,,,,,,,,,,,,,,,,,,,,,,,,,,,,,,,,,,,,,,,
,,,,,,,,2023-08-16_08h38.24.091,HF_wild_card,2022.2.4,Win32,59.93766483,61070ee93bf05ad543b51759,64d2fd46c836a06233681665,64dc7ce27ecbf1e2d286475a,,,,,,,,,,,,,,,,,,,,,,,,,,4,0,4,0,1,,,,,,,,,,,,,,,,,,,,,,,,,,,,,,,,,,
,,,,,,,,2023-08-16_08h38.24.091,HF_wild_card,2022.2.4,Win32,59.93766483,61070ee93bf05ad543b51759,64d2fd46c836a06233681665,64dc7ce27ecbf1e2d286475a,,,,,,,sngl,resources/DR.BMP,resources/Empty.png,Door3,-0.386174789,0.073944822,1,0,0,0.9592,optionLeft,70,11115,6,0,0,0,0,1,,,,,,,,,,,,,,,,,,,,,,,,,,,,,,,,,,,,,,,
,,,,,,,,2023-08-16_08h38.24.091,HF_wild_card,2022.2.4,Win32,59.93766483,61070ee93bf05ad543b51759,64d2fd46c836a06233681665,64dc7ce27ecbf1e2d286475a,,,,,,,sngl,resources/Empty.png,resources/DR.BMP,Door3,0.190761091,0.048022589,1,0,0,0.4054,optionRight,70,11185,6,1,0,1,0,1,,,,,,,,,,,,,,,,,,,,,,,,,,,,,,,,,,,,,,,
,,,,,,,,2023-08-16_08h38.24.091,HF_wild_card,2022.2.4,Win32,59.93766483,61070ee93bf05ad543b51759,64d2fd46c836a06233681665,64dc7ce27ecbf1e2d286475a,,,,,,,ctch,resources/DR.BMP,resources/DBN.BMP,Door3,-0.390162825,-0.021103377,1,0,0,0.447,optionLeft,70,11255,6,2,0,2,0,1,,,,,,,,,,,,,,,,,,,,,,,,,,,,,,,,,,,,,,,
,,,,,,,,2023-08-16_08h38.24.091,HF_wild_card,2022.2.4,Win32,59.93766483,61070ee93bf05ad543b51759,64d2fd46c836a06233681665,64dc7ce27ecbf1e2d286475a,,,,,,,sngl,resources/DBN.BMP,resources/Empty.png,Door2,-0.237952768,-0.008474576,1,0,0,0.4796,optionLeft,20,11275,6,3,0,3,0,1,,,,,,,,,,,,,,,,,,,,,,,,,,,,,,,,,,,,,,,
,,,,,,,,2023-08-16_08h38.24.091,HF_wild_card,2022.2.4,Win32,59.93766483,61070ee93bf05ad543b51759,64d2fd46c836a06233681665,64dc7ce27ecbf1e2d286475a,,,,,,,decisionTrl,resources/DG.BMP,resources/DBN.BMP,Door2,0.17813229,-0.029079449,1,0,0,1.3538,optionRight,40,11315,6,4,0,4,0,1,,,,,,,,,,,,,,,,,,,,,,,,,,,,,,,,,,,,,,,
,,,,,,,,2023-08-16_08h38.24.091,HF_wild_card,2022.2.4,Win32,59.93766483,61070ee93bf05ad543b51759,64d2fd46c836a06233681665,64dc7ce27ecbf1e2d286475a,,,,,,,decisionTrl,resources/DP.BMP,resources/DBN.BMP,WildCard_NonEx,-0.199401795,0.080591538,1,0,0,0.3188,optionLeft,55,11370,6,5,0,5,0,1,,,,,,,,,,,,,,,,,,,,,,,,,,,,,,,,,,,,,,,
,,,,,,,,2023-08-16_08h38.24.091,HF_wild_card,2022.2.4,Win32,59.93766483,61070ee93bf05ad543b51759,64d2fd46c836a06233681665,64dc7ce27ecbf1e2d286475a,,,,,,,ctch,resources/DG.BMP,resources/DY.BMP,Door1,-0.196743084,0.004818856,1,0,0,0.5472,optionLeft,30,11400,6,6,0,6,0,1,,,,,,,,,,,,,,,,,,,,,,,,,,,,,,,,,,,,,,,
,,,,,,,,2023-08-16_08h38.24.091,HF_wild_card,2022.2.4,Win32,59.93766483,61070ee93bf05ad543b51759,64d2fd46c836a06233681665,64dc7ce27ecbf1e2d286475a,,,,,,,decisionTrl,resources/DR.BMP,resources/DY.BMP,Door4,0.215353938,-0.036390828,1,0,0,0.3416,optionRight,80,11480,6,7,0,7,0,1,,,,,,,,,,,,,,,,,,,,,,,,,,,,,,,,,,,,,,,
,,,,,,,,2023-08-16_08h38.24.091,HF_wild_card,2022.2.4,Win32,59.93766483,61070ee93bf05ad543b51759,64d2fd46c836a06233681665,64dc7ce27ecbf1e2d286475a,,,,,,,decisionTrl,resources/DBN.BMP,resources/DG.BMP,Door2,-0.386174789,0.122465915,1,0,0,0.4308,optionLeft,20,11500,6,8,0,8,0,1,,,,,,,,,,,,,,,,,,,,,,,,,,,,,,,,,,,,,,,
,,,,,,,,2023-08-16_08h38.24.091,HF_wild_card,2022.2.4,Win32,59.93766483,61070ee93bf05ad543b51759,64d2fd46c836a06233681665,64dc7ce27ecbf1e2d286475a,,,,,,,decisionTrl,resources/DY.BMP,resources/DP.BMP,Door4,-0.298437999,0.040046517,1,0,0,0.4737,optionLeft,80,11580,6,9,0,9,0,1,,,,,,,,,,,,,,,,,,,,,,,,,,,,,,,,,,,,,,,
,,,,,,,,2023-08-16_08h38.24.091,HF_wild_card,2022.2.4,Win32,59.93766483,61070ee93bf05ad543b51759,64d2fd46c836a06233681665,64dc7ce27ecbf1e2d286475a,,,,,,,decisionTrl,resources/DP.BMP,resources/DR.BMP,WildCard_NonEx,-0.239946816,0.069292124,1,0,0,0.3462,optionLeft,55,11635,6,10,0,10,0,1,,,,,,,,,,,,,,,,,,,,,,,,,,,,,,,,,,,,,,,
,,,,,,,,2023-08-16_08h38.24.091,HF_wild_card,2022.2.4,Win32,59.93766483,61070ee93bf05ad543b51759,64d2fd46c836a06233681665,64dc7ce27ecbf1e2d286475a,,,,,,,ctch,resources/DBN.BMP,resources/DR.BMP,Door2,-0.259222333,0.042705197,1,0,0,0.2698,optionLeft,40,11675,6,11,0,11,0,1,,,,,,,,,,,,,,,,,,,,,,,,,,,,,,,,,,,,,,,
,,,,,,,,2023-08-16_08h38.24.091,HF_wild_card,2022.2.4,Win32,59.93766483,61070ee93bf05ad543b51759,64d2fd46c836a06233681665,64dc7ce27ecbf1e2d286475a,,,,,,,decisionTrl,resources/DBN.BMP,resources/DG.BMP,Door2,-0.249252243,0.029411765,1,0,0,0.2558,optionLeft,20,11695,6,12,0,12,0,1,,,,,,,,,,,,,,,,,,,,,,,,,,,,,,,,,,,,,,,
,,,,,,,,2023-08-16_08h38.24.091,HF_wild_card,2022.2.4,Win32,59.93766483,61070ee93bf05ad543b51759,64d2fd46c836a06233681665,64dc7ce27ecbf1e2d286475a,,,,,,,ctch,resources/DR.BMP,resources/DBN.BMP,Door2,0.283815302,-0.03439681,1,0,0,0.2619,optionRight,40,11735,6,13,0,13,0,1,,,,,,,,,,,,,,,,,,,,,,,,,,,,,,,,,,,,,,,
,,,,,,,,2023-08-16_08h38.24.091,HF_wild_card,2022.2.4,Win32,59.93766483,61070ee93bf05ad543b51759,64d2fd46c836a06233681665,64dc7ce27ecbf1e2d286475a,,,,,,,decisionTrl,resources/DBN.BMP,resources/DG.BMP,Door2,-0.241276171,0.044034553,1,0,0,0.3184,optionLeft,40,11775,6,14,0,14,0,1,,,,,,,,,,,,,,,,,,,,,,,,,,,,,,,,,,,,,,,
,,,,,,,,2023-08-16_08h38.24.091,HF_wild_card,2022.2.4,Win32,59.93766483,61070ee93bf05ad543b51759,64d2fd46c836a06233681665,64dc7ce27ecbf1e2d286475a,,,,,,,decisionTrl,resources/DY.BMP,resources/DR.BMP,Door4,-0.286473891,0.049351944,1,0,0,0.3183,optionLeft,80,11855,6,15,0,15,0,1,,,,,,,,,,,,,,,,,,,,,,,,,,,,,,,,,,,,,,,
,,,,,,,,2023-08-16_08h38.24.091,HF_wild_card,2022.2.4,Win32,59.93766483,61070ee93bf05ad543b51759,64d2fd46c836a06233681665,64dc7ce27ecbf1e2d286475a,,,,,,,ctch,resources/DBN.BMP,resources/DR.BMP,Door2,-0.28115653,0.064639395,1,0,0,0.2611,optionLeft,20,11875,6,16,0,16,0,1,,,,,,,,,,,,,,,,,,,,,,,,,,,,,,,,,,,,,,,
,,,,,,,,2023-08-16_08h38.24.091,HF_wild_card,2022.2.4,Win32,59.93766483,61070ee93bf05ad543b51759,64d2fd46c836a06233681665,64dc7ce27ecbf1e2d286475a,,,,,,,decisionTrl,resources/DR.BMP,resources/DY.BMP,Door4,0.234629486,-0.039714231,1,0,0,0.2798,optionRight,60,11935,6,17,0,17,0,1,,,,,,,,,,,,,,,,,,,,,,,,,,,,,,,,,,,,,,,
,,,,,,,,2023-08-16_08h38.24.091,HF_wild_card,2022.2.4,Win32,59.93766483,61070ee93bf05ad543b51759,64d2fd46c836a06233681665,64dc7ce27ecbf1e2d286475a,,,,,,,decisionTrl,resources/DBN.BMP,resources/DG.BMP,Door1,0.22333001,0.01080091,1,0,0,0.3027,optionRight,30,11965,6,18,0,18,0,1,,,,,,,,,,,,,,,,,,,,,,,,,,,,,,,,,,,,,,,
,,,,,,,,2023-08-16_08h38.24.091,HF_wild_card,2022.2.4,Win32,59.93766483,61070ee93bf05ad543b51759,64d2fd46c836a06233681665,64dc7ce27ecbf1e2d286475a,,,,,,,ctch,resources/DY.BMP,resources/DG.BMP,Door4,-0.324360232,0.081920894,1,0,0,0.3361,optionLeft,60,12025,6,19,0,19,0,1,,,,,,,,,,,,,,,,,,,,,,,,,,,,,,,,,,,,,,,
,,,,,,,,2023-08-16_08h38.24.091,HF_wild_card,2022.2.4,Win32,59.93766483,61070ee93bf05ad543b51759,64d2fd46c836a06233681665,64dc7ce27ecbf1e2d286475a,,,,,,,decisionTrl,resources/DP.BMP,resources/DG.BMP,WildCard_NonEx,-0.201395813,0.057328016,1,0,0,0.5795,optionLeft,55,12080,6,20,0,20,0,1,,,,,,,,,,,,,,,,,,,,,,,,,,,,,,,,,,,,,,,
,,,,,,,,2023-08-16_08h38.24.091,HF_wild_card,2022.2.4,Win32,59.93766483,61070ee93bf05ad543b51759,64d2fd46c836a06233681665,64dc7ce27ecbf1e2d286475a,,,,,,,sngl,resources/DY.BMP,resources/Empty.png,Door4,-0.200066427,0.080591538,1,0,0,0.4543,optionLeft,60,12140,6,21,0,21,0,1,,,,,,,,,,,,,,,,,,,,,,,,,,,,,,,,,,,,,,,
,,,,,,,,2023-08-16_08h38.24.091,HF_wild_card,2022.2.4,Win32,59.93766483,61070ee93bf05ad543b51759,64d2fd46c836a06233681665,64dc7ce27ecbf1e2d286475a,,,,,,,sngl,resources/DG.BMP,resources/Empty.png,Door1,-0.198737102,0.059986696,1,0,0,0.3461,optionLeft,30,12170,6,22,0,22,0,1,,,,,,,,,,,,,,,,,,,,,,,,,,,,,,,,,,,,,,,
,,,,,,,,2023-08-16_08h38.24.091,HF_wild_card,2022.2.4,Win32,59.93766483,61070ee93bf05ad543b51759,64d2fd46c836a06233681665,64dc7ce27ecbf1e2d286475a,,,,,,,decisionTrl,resources/DR.BMP,resources/DY.BMP,Door3,-0.192755048,0.03074109,1,0,0,0.3958,optionLeft,70,12240,6,23,0,23,0,1,,,,,,,,,,,,,,,,,,,,,,,,,,,,,,,,,,,,,,,
,,,,,,,,2023-08-16_08h38.24.091,HF_wild_card,2022.2.4,Win32,59.93766483,61070ee93bf05ad543b51759,64d2fd46c836a06233681665,64dc7ce27ecbf1e2d286475a,,,,,,,decisionTrl,resources/DY.BMP,resources/DR.BMP,Door3,0.303755482,-0.008474576,1,0,0,0.6467,optionRight,70,12310,6,24,0,24,0,1,,,,,,,,,,,,,,,,,,,,,,,,,,,,,,,,,,,,,,,
,,,,,,,,2023-08-16_08h38.24.091,HF_wild_card,2022.2.4,Win32,59.93766483,61070ee93bf05ad543b51759,64d2fd46c836a06233681665,64dc7ce27ecbf1e2d286475a,,,,,,,sngl,resources/Empty.png,resources/DP.BMP,WildCard_NonEx,0.212030595,0.002160176,1,0,0,0.6632,optionRight,45,12355,6,25,0,25,0,1,,,,,,,,,,,,,,,,,,,,,,,,,,,,,,,,,,,,,,,
,,,,,,,,2023-08-16_08h38.24.091,HF_wild_card,2022.2.4,Win32,59.93766483,61070ee93bf05ad543b51759,64d2fd46c836a06233681665,64dc7ce27ecbf1e2d286475a,,,,,,,ctch,resources/DY.BMP,resources/DG.BMP,Door4,-0.196078391,0.064639395,1,0,0,0.429,optionLeft,60,12415,6,26,0,26,0,1,,,,,,,,,,,,,,,,,,,,,,,,,,,,,,,,,,,,,,,
,,,,,,,,2023-08-16_08h38.24.091,HF_wild_card,2022.2.4,Win32,59.93766483,61070ee93bf05ad543b51759,64d2fd46c836a06233681665,64dc7ce27ecbf1e2d286475a,,,,,,,sngl,resources/Empty.png,resources/DBN.BMP,Door2,0.244599575,-0.005815896,1,0,0,0.263,optionRight,40,12455,6,27,0,27,0,1,,,,,,,,,,,,,,,,,,,,,,,,,,,,,,,,,,,,,,,
,,,,,,,,2023-08-16_08h38.24.091,HF_wild_card,2022.2.4,Win32,59.93766483,61070ee93bf05ad543b51759,64d2fd46c836a06233681665,64dc7ce27ecbf1e2d286475a,,,,,,,decisionTrl,resources/DBN.BMP,resources/DP.BMP,Door2,-0.163509472,0.08590893,1,0,0,0.2781,optionLeft,40,12495,6,28,0,28,0,1,,,,,,,,,,,,,,,,,,,,,,,,,,,,,,,,,,,,,,,
,,,,,,,,2023-08-16_08h38.24.091,HF_wild_card,2022.2.4,Win32,59.93766483,61070ee93bf05ad543b51759,64d2fd46c836a06233681665,64dc7ce27ecbf1e2d286475a,,,,,,,sngl,resources/Empty.png,resources/DY.BMP,Door4,0.281821284,0.051345962,1,0,0,0.4613,optionRight,80,12575,6,29,0,29,0,1,,,,,,,,,,,,,,,,,,,,,,,,,,,,,,,,,,,,,,,
,,,,,,,,2023-08-16_08h38.24.091,HF_wild_card,2022.2.4,Win32,59.93766483,61070ee93bf05ad543b51759,64d2fd46c836a06233681665,64dc7ce27ecbf1e2d286475a,,,,,,,sngl,resources/Empty.png,resources/DP.BMP,WildCard_NonEx,0.16550349,-0.005151233,1,0,0,0.7308,optionRight,55,12630,6,30,0,30,0,1,,,,,,,,,,,,,,,,,,,,,,,,,,,,,,,,,,,,,,,
,,,,,,,,2023-08-16_08h38.24.091,HF_wild_card,2022.2.4,Win32,59.93766483,61070ee93bf05ad543b51759,64d2fd46c836a06233681665,64dc7ce27ecbf1e2d286475a,,,,,,,decisionTrl,resources/DY.BMP,resources/DR.BMP,Door4,-0.305749408,0.091226321,1,0,0,1.1312,optionLeft,80,12710,6,31,0,31,0,1,,,,,,,,,,,,,,,,,,,,,,,,,,,,,,,,,,,,,,,
,,,,,,,,2023-08-16_08h38.24.091,HF_wild_card,2022.2.4,Win32,59.93766483,61070ee93bf05ad543b51759,64d2fd46c836a06233681665,64dc7ce27ecbf1e2d286475a,,,,,,,decisionTrl,resources/DP.BMP,resources/DY.BMP,WildCard_NonEx,-0.164838797,0.024759036,1,0,0,0.2959,optionLeft,45,12755,6,32,0,32,0,1,,,,,,,,,,,,,,,,,,,,,,,,,,,,,,,,,,,,,,,
,,,,,,,,2023-08-16_08h38.24.091,HF_wild_card,2022.2.4,Win32,59.93766483,61070ee93bf05ad543b51759,64d2fd46c836a06233681665,64dc7ce27ecbf1e2d286475a,,,,,,,decisionTrl,resources/DG.BMP,resources/DBN.BMP,Door1,-0.315719498,0.021435693,1,0,0,0.5116,optionLeft,30,12785,6,33,0,33,0,1,,,,,,,,,,,,,,,,,,,,,,,,,,,,,,,,,,,,,,,
,,,,,,,,2023-08-16_08h38.24.091,HF_wild_card,2022.2.4,Win32,59.93766483,61070ee93bf05ad543b51759,64d2fd46c836a06233681665,64dc7ce27ecbf1e2d286475a,,,,,,,decisionTrl,resources/DR.BMP,resources/DY.BMP,Door4,0.273845212,-0.02176807,1,0,0,0.2964,optionRight,60,12845,6,34,0,34,0,1,,,,,,,,,,,,,,,,,,,,,,,,,,,,,,,,,,,,,,,
,,,,,,,,2023-08-16_08h38.24.091,HF_wild_card,2022.2.4,Win32,59.93766483,61070ee93bf05ad543b51759,64d2fd46c836a06233681665,64dc7ce27ecbf1e2d286475a,,,,,,,decisionTrl,resources/DR.BMP,resources/DP.BMP,WildCard_NonEx,0.255234297,-0.03173816,1,0,0,0.4133,optionRight,55,12900,6,35,0,35,0,1,,,,,,,,,,,,,,,,,,,,,,,,,,,,,,,,,,,,,,,
,,,,,,,,2023-08-16_08h38.24.091,HF_wild_card,2022.2.4,Win32,59.93766483,61070ee93bf05ad543b51759,64d2fd46c836a06233681665,64dc7ce27ecbf1e2d286475a,,,,,,,ctch,resources/DG.BMP,resources/DY.BMP,Door4,0.359587984,-0.040378863,1,0,0,0.4446,optionRight,60,12960,6,36,0,36,0,1,,,,,,,,,,,,,,,,,,,,,,,,,,,,,,,,,,,,,,,
,,,,,,,,2023-08-16_08h38.24.091,HF_wild_card,2022.2.4,Win32,59.93766483,61070ee93bf05ad543b51759,64d2fd46c836a06233681665,64dc7ce27ecbf1e2d286475a,,,,,,,decisionTrl,resources/DG.BMP,resources/DP.BMP,WildCard_NonEx,0.247258225,-0.010468594,1,0,0,0.5467,optionRight,45,13005,6,37,0,37,0,1,,,,,,,,,,,,,,,,,,,,,,,,,,,,,,,,,,,,,,,
,,,,,,,,2023-08-16_08h38.24.091,HF_wild_card,2022.2.4,Win32,59.93766483,61070ee93bf05ad543b51759,64d2fd46c836a06233681665,64dc7ce27ecbf1e2d286475a,,,,,,,decisionTrl,resources/DY.BMP,resources/DR.BMP,Door4,-0.017281469,-0.009803932,1,0,0,0.7466,optionLeft,80,13085,6,38,0,38,0,1,,,,,,,,,,,,,,,,,,,,,,,,,,,,,,,,,,,,,,,
,,,,,,,,2023-08-16_08h38.24.091,HF_wild_card,2022.2.4,Win32,59.93766483,61070ee93bf05ad543b51759,64d2fd46c836a06233681665,64dc7ce27ecbf1e2d286475a,,,,,,,sngl,resources/Empty.png,resources/DG.BMP,Door1,0.237952829,0.004818856,1,0,0,0.5125,optionRight,30,13115,6,39,0,39,0,1,,,,,,,,,,,,,,,,,,,,,,,,,,,,,,,,,,,,,,,
,,,,,,,,2023-08-16_08h38.24.091,HF_wild_card,2022.2.4,Win32,59.93766483,61070ee93bf05ad543b51759,64d2fd46c836a06233681665,64dc7ce27ecbf1e2d286475a,,,,,,,sngl,resources/DP.BMP,resources/Empty.png,WildCard_NonEx,-0.310402107,0.026753054,1,0,0,0.3457,optionLeft,45,13160,6,40,0,40,0,1,,,,,,,,,,,,,,,,,,,,,,,,,,,,,,,,,,,,,,,
,,,,,,,,2023-08-16_08h38.24.091,HF_wild_card,2022.2.4,Win32,59.93766483,61070ee93bf05ad543b51759,64d2fd46c836a06233681665,64dc7ce27ecbf1e2d286475a,,,,,,,decisionTrl,resources/DG.BMP,resources/DBN.BMP,Door2,0.29843806,-0.058325025,1,0,0,0.7955,optionRight,40,13200,6,41,0,41,0,1,,,,,,,,,,,,,,,,,,,,,,,,,,,,,,,,,,,,,,,
,,,,,,,,2023-08-16_08h38.24.091,HF_wild_card,2022.2.4,Win32,59.93766483,61070ee93bf05ad543b51759,64d2fd46c836a06233681665,64dc7ce27ecbf1e2d286475a,,,,,,,sngl,resources/DP.BMP,resources/Empty.png,WildCard_NonEx,-0.384845464,0.07328016,1,0,0,0.2959,optionLeft,55,13255,6,42,0,42,0,1,,,,,,,,,,,,,,,,,,,,,,,,,,,,,,,,,,,,,,,
,,,,,,,,2023-08-16_08h38.24.091,HF_wild_card,2022.2.4,Win32,59.93766483,61070ee93bf05ad543b51759,64d2fd46c836a06233681665,64dc7ce27ecbf1e2d286475a,,,,,,,decisionTrl,resources/DG.BMP,resources/DBN.BMP,Door1,-0.257892978,0.121801253,1,0,0,0.461,optionLeft,30,13285,6,43,0,43,0,1,,,,,,,,,,,,,,,,,,,,,,,,,,,,,,,,,,,,,,,
,,,,,,,,2023-08-16_08h38.24.091,HF_wild_card,2022.2.4,Win32,59.93766483,61070ee93bf05ad543b51759,64d2fd46c836a06233681665,64dc7ce27ecbf1e2d286475a,,,,,,,,,,,,,,,,,,,,,,,,,,5,0,5,0,1,,,,,,,,,,,,,,,,,,,,,,,,,,,,,,,,,,
,,,,,,,,2023-08-16_08h38.24.091,HF_wild_card,2022.2.4,Win32,59.93766483,61070ee93bf05ad543b51759,64d2fd46c836a06233681665,64dc7ce27ecbf1e2d286475a,,,,,,,ctch,resources/DR.BMP,resources/DBN.BMP,Door3,-0.39415086,0.064639395,1,0,0,1.3054,optionLeft,70,13355,7,0,0,0,0,1,,,,,,,,,,,,,,,,,,,,,,,,,,,,,,,,,,,,,,,
,,,,,,,,2023-08-16_08h38.24.091,HF_wild_card,2022.2.4,Win32,59.93766483,61070ee93bf05ad543b51759,64d2fd46c836a06233681665,64dc7ce27ecbf1e2d286475a,,,,,,,decisionTrl,resources/DR.BMP,resources/DY.BMP,Door4,0.229312064,0.017447657,1,0,0,1.8654,optionRight,80,13435,7,1,0,1,0,1,,,,,,,,,,,,,,,,,,,,,,,,,,,,,,,,,,,,,,,
,,,,,,,,2023-08-16_08h38.24.091,HF_wild_card,2022.2.4,Win32,59.93766483,61070ee93bf05ad543b51759,64d2fd46c836a06233681665,64dc7ce27ecbf1e2d286475a,,,,,,,decisionTrl,resources/DR.BMP,resources/DY.BMP,Door4,0.346959123,0.00814223,1,0,0,0.4485,optionRight,80,13515,7,2,0,2,0,1,,,,,,,,,,,,,,,,,,,,,,,,,,,,,,,,,,,,,,,
,,,,,,,,2023-08-16_08h38.24.091,HF_wild_card,2022.2.4,Win32,59.93766483,61070ee93bf05ad543b51759,64d2fd46c836a06233681665,64dc7ce27ecbf1e2d286475a,,,,,,,decisionTrl,resources/DY.BMP,resources/DR.BMP,Door4,-0.358258537,0.113825181,1,0,0,0.6318,optionLeft,60,13575,7,3,0,3,0,1,,,,,,,,,,,,,,,,,,,,,,,,,,,,,,,,,,,,,,,
,,,,,,,,2023-08-16_08h38.24.091,HF_wild_card,2022.2.4,Win32,59.93766483,61070ee93bf05ad543b51759,64d2fd46c836a06233681665,64dc7ce27ecbf1e2d286475a,,,,,,,decisionTrl,resources/DG.BMP,resources/DBN.BMP,Door2,0.29843806,-0.053007664,1,0,0,0.5613,optionRight,40,13615,7,4,0,4,0,1,,,,,,,,,,,,,,,,,,,,,,,,,,,,,,,,,,,,,,,
,,,,,,,,2023-08-16_08h38.24.091,HF_wild_card,2022.2.4,Win32,59.93766483,61070ee93bf05ad543b51759,64d2fd46c836a06233681665,64dc7ce27ecbf1e2d286475a,,,,,,,ctch,resources/DY.BMP,resources/DG.BMP,Door4,-0.220671299,0.077932858,1,0,0,0.39,optionLeft,60,13675,7,5,0,5,0,1,,,,,,,,,,,,,,,,,,,,,,,,,,,,,,,,,,,,,,,
,,,,,,,,2023-08-16_08h38.24.091,HF_wild_card,2022.2.4,Win32,59.93766483,61070ee93bf05ad543b51759,64d2fd46c836a06233681665,64dc7ce27ecbf1e2d286475a,,,,,,,decisionTrl,resources/DBN.BMP,resources/DG.BMP,Door2,-0.194084373,0.080591538,1,0,0,0.292,optionLeft,20,13695,7,6,0,6,0,1,,,,,,,,,,,,,,,,,,,,,,,,,,,,,,,,,,,,,,,
,,,,,,,,2023-08-16_08h38.24.091,HF_wild_card,2022.2.4,Win32,59.93766483,61070ee93bf05ad543b51759,64d2fd46c836a06233681665,64dc7ce27ecbf1e2d286475a,,,,,,,ctch,resources/DR.BMP,resources/DBN.BMP,Door3,-0.355599857,0.028082409,1,0,0,2.0258,optionLeft,70,13765,7,7,0,7,0,1,,,,,,,,,,,,,,,,,,,,,,,,,,,,,,,,,,,,,,,
,,,,,,,,2023-08-16_08h38.24.091,HF_wild_card,2022.2.4,Win32,59.93766483,61070ee93bf05ad543b51759,64d2fd46c836a06233681665,64dc7ce27ecbf1e2d286475a,,,,,,,decisionTrl,resources/DG.BMP,resources/DBN.BMP,Door2,0.334995015,0.120471897,1,0,0,1.1324,optionRight,20,13785,7,8,0,8,0,1,,,,,,,,,,,,,,,,,,,,,,,,,,,,,,,,,,,,,,,
,,,,,,,,2023-08-16_08h38.24.091,HF_wild_card,2022.2.4,Win32,59.93766483,61070ee93bf05ad543b51759,64d2fd46c836a06233681665,64dc7ce27ecbf1e2d286475a,,,,,,,decisionTrl,resources/DBN.BMP,resources/DG.BMP,Door2,-0.328348268,0.103855091,1,0,0,1.0693,optionLeft,20,13805,7,9,0,9,0,1,,,,,,,,,,,,,,,,,,,,,,,,,,,,,,,,,,,,,,,
,,,,,,,,2023-08-16_08h38.24.091,HF_wild_card,2022.2.4,Win32,59.93766483,61070ee93bf05ad543b51759,64d2fd46c836a06233681665,64dc7ce27ecbf1e2d286475a,,,,,,,ctch,resources/DBN.BMP,resources/DR.BMP,Door3,0.277168495,-0.009139269,1,0,0,1.064,optionRight,70,13875,7,10,0,10,0,1,,,,,,,,,,,,,,,,,,,,,,,,,,,,,,,,,,,,,,,
,,,,,,,,2023-08-16_08h38.24.091,HF_wild_card,2022.2.4,Win32,59.93766483,61070ee93bf05ad543b51759,64d2fd46c836a06233681665,64dc7ce27ecbf1e2d286475a,,,,,,,decisionTrl,resources/DBN.BMP,resources/DG.BMP,Door2,-0.292455945,0.12113659,1,0,0,1.3707,optionLeft,20,13895,7,11,0,11,0,1,,,,,,,,,,,,,,,,,,,,,,,,,,,,,,,,,,,,,,,
,,,,,,,,2023-08-16_08h38.24.091,HF_wild_card,2022.2.4,Win32,59.93766483,61070ee93bf05ad543b51759,64d2fd46c836a06233681665,64dc7ce27ecbf1e2d286475a,,,,,,,decisionTrl,resources/DY.BMP,resources/DR.BMP,Door4,-0.349617803,0.13376536,1,0,0,1.115,optionLeft,80,13975,7,12,0,12,0,1,,,,,,,,,,,,,,,,,,,,,,,,,,,,,,,,,,,,,,,
,,,,,,,,2023-08-16_08h38.24.091,HF_wild_card,2022.2.4,Win32,59.93766483,61070ee93bf05ad543b51759,64d2fd46c836a06233681665,64dc7ce27ecbf1e2d286475a,,,,,,,ctch,resources/DG.BMP,resources/DY.BMP,Door4,0.245264207,0.062645377,1,0,0,0.649,optionRight,80,14055,7,13,0,13,0,1,,,,,,,,,,,,,,,,,,,,,,,,,,,,,,,,,,,,,,,
,,,,,,,,2023-08-16_08h38.24.091,HF_wild_card,2022.2.4,Win32,59.93766483,61070ee93bf05ad543b51759,64d2fd46c836a06233681665,64dc7ce27ecbf1e2d286475a,,,,,,,ctch,resources/DY.BMP,resources/DG.BMP,Door4,-0.245264207,0.064639395,1,0,0,0.5672,optionLeft,60,14115,7,14,0,14,0,1,,,,,,,,,,,,,,,,,,,,,,,,,,,,,,,,,,,,,,,
,,,,,,,,2023-08-16_08h38.24.091,HF_wild_card,2022.2.4,Win32,59.93766483,61070ee93bf05ad543b51759,64d2fd46c836a06233681665,64dc7ce27ecbf1e2d286475a,,,,,,,decisionTrl,resources/DY.BMP,resources/DR.BMP,Door4,-0.223994642,0.017447657,1,0,0,0.4697,optionLeft,60,14175,7,15,0,15,0,1,,,,,,,,,,,,,,,,,,,,,,,,,,,,,,,,,,,,,,,
,,,,,,,,2023-08-16_08h38.24.091,HF_wild_card,2022.2.4,Win32,59.93766483,61070ee93bf05ad543b51759,64d2fd46c836a06233681665,64dc7ce27ecbf1e2d286475a,,,,,,,decisionTrl,resources/DG.BMP,resources/DBN.BMP,Door2,0.256563683,-0.135427093,1,0,0,1.1821,optionRight,20,14195,7,16,0,16,0,1,,,,,,,,,,,,,,,,,,,,,,,,,,,,,,,,,,,,,,,
,,,,,,,,2023-08-16_08h38.24.091,HF_wild_card,2022.2.4,Win32,59.93766483,61070ee93bf05ad543b51759,64d2fd46c836a06233681665,64dc7ce27ecbf1e2d286475a,,,,,,,decisionTrl,resources/DR.BMP,resources/DY.BMP,Door3,-0.286473891,0.117813217,1,0,0,0.4633,optionLeft,70,14265,7,17,0,17,0,1,,,,,,,,,,,,,,,,,,,,,,,,,,,,,,,,,,,,,,,
,,,,,,,,2023-08-16_08h38.24.091,HF_wild_card,2022.2.4,Win32,59.93766483,61070ee93bf05ad543b51759,64d2fd46c836a06233681665,64dc7ce27ecbf1e2d286475a,,,,,,,ctch,resources/DG.BMP,resources/DY.BMP,Door4,0.305084746,-0.009803932,1,0,0,0.6047,optionRight,60,14325,7,18,0,18,0,1,,,,,,,,,,,,,,,,,,,,,,,,,,,,,,,,,,,,,,,
,,,,,,,,2023-08-16_08h38.24.091,HF_wild_card,2022.2.4,Win32,59.93766483,61070ee93bf05ad543b51759,64d2fd46c836a06233681665,64dc7ce27ecbf1e2d286475a,,,,,,,ctch,resources/DR.BMP,resources/DBN.BMP,Door3,-0.245264207,0.072615467,1,0,0,0.5433,optionLeft,70,14395,7,19,0,19,0,1,,,,,,,,,,,,,,,,,,,,,,,,,,,,,,,,,,,,,,,
,,,,,,,,2023-08-16_08h38.24.091,HF_wild_card,2022.2.4,Win32,59.93766483,61070ee93bf05ad543b51759,64d2fd46c836a06233681665,64dc7ce27ecbf1e2d286475a,,,,,,,ctch,resources/DBN.BMP,resources/DR.BMP,Door3,0.148886714,0.056663323,1,0,0,0.5223,optionRight,70,14465,7,20,0,20,0,1,,,,,,,,,,,,,,,,,,,,,,,,,,,,,,,,,,,,,,,
,,,,,,,,2023-08-16_08h38.24.091,HF_wild_card,2022.2.4,Win32,59.93766483,61070ee93bf05ad543b51759,64d2fd46c836a06233681665,64dc7ce27ecbf1e2d286475a,,,,,,,ctch,resources/DBN.BMP,resources/DR.BMP,Door2,-0.22333001,0.085244267,1,0,0,0.4647,optionLeft,40,14505,7,21,0,21,0,1,,,,,,,,,,,,,,,,,,,,,,,,,,,,,,,,,,,,,,,
,,,,,,,,2023-08-16_08h38.24.091,HF_wild_card,2022.2.4,Win32,59.93766483,61070ee93bf05ad543b51759,64d2fd46c836a06233681665,64dc7ce27ecbf1e2d286475a,,,,,,,ctch,resources/DG.BMP,resources/DY.BMP,Door1,-0.227318046,0.094549664,1,0,0,0.3302,optionLeft,30,14535,7,22,0,22,0,1,,,,,,,,,,,,,,,,,,,,,,,,,,,,,,,,,,,,,,,
,,,,,,,,2023-08-16_08h38.24.091,HF_wild_card,2022.2.4,Win32,59.93766483,61070ee93bf05ad543b51759,64d2fd46c836a06233681665,64dc7ce27ecbf1e2d286475a,,,,,,,decisionTrl,resources/DBN.BMP,resources/DG.BMP,Door2,-0.162180086,0.073944822,1,0,0,0.2871,optionLeft,20,14555,7,23,0,23,0,1,,,,,,,,,,,,,,,,,,,,,,,,,,,,,,,,,,,,,,,
,,,,,,,,2023-08-16_08h38.24.091,HF_wild_card,2022.2.4,Win32,59.93766483,61070ee93bf05ad543b51759,64d2fd46c836a06233681665,64dc7ce27ecbf1e2d286475a,,,,,,,decisionTrl,resources/DY.BMP,resources/DR.BMP,Door3,0.237952829,0.048687251,1,0,0,0.3924,optionRight,70,14625,7,24,0,24,0,1,,,,,,,,,,,,,,,,,,,,,,,,,,,,,,,,,,,,,,,
,,,,,,,,2023-08-16_08h38.24.091,HF_wild_card,2022.2.4,Win32,59.93766483,61070ee93bf05ad543b51759,64d2fd46c836a06233681665,64dc7ce27ecbf1e2d286475a,,,,,,,decisionTrl,resources/DR.BMP,resources/DY.BMP,Door3,-0.178796922,0.095879019,1,0,0,0.3415,optionLeft,70,14695,7,25,0,25,0,1,,,,,,,,,,,,,,,,,,,,,,,,,,,,,,,,,,,,,,,
,,,,,,,,2023-08-16_08h38.24.091,HF_wild_card,2022.2.4,Win32,59.93766483,61070ee93bf05ad543b51759,64d2fd46c836a06233681665,64dc7ce27ecbf1e2d286475a,,,,,,,decisionTrl,resources/DY.BMP,resources/DR.BMP,Door4,-0.289797265,0.15636422,1,0,0,0.3435,optionLeft,60,14755,7,26,0,26,0,1,,,,,,,,,,,,,,,,,,,,,,,,,,,,,,,,,,,,,,,
,,,,,,,,2023-08-16_08h38.24.091,HF_wild_card,2022.2.4,Win32,59.93766483,61070ee93bf05ad543b51759,64d2fd46c836a06233681665,64dc7ce27ecbf1e2d286475a,,,,,,,decisionTrl,resources/DR.BMP,resources/DY.BMP,Door3,-0.157527418,0.059322034,1,0,0,0.4159,optionLeft,70,14825,7,27,0,27,0,1,,,,,,,,,,,,,,,,,,,,,,,,,,,,,,,,,,,,,,,
,,,,,,,,2023-08-16_08h38.24.091,HF_wild_card,2022.2.4,Win32,59.93766483,61070ee93bf05ad543b51759,64d2fd46c836a06233681665,64dc7ce27ecbf1e2d286475a,,,,,,,decisionTrl,resources/DG.BMP,resources/DBN.BMP,Door1,-0.251246261,0.101861073,1,0,0,0.4711,optionLeft,30,14855,7,28,0,28,0,1,,,,,,,,,,,,,,,,,,,,,,,,,,,,,,,,,,,,,,,
,,,,,,,,2023-08-16_08h38.24.091,HF_wild_card,2022.2.4,Win32,59.93766483,61070ee93bf05ad543b51759,64d2fd46c836a06233681665,64dc7ce27ecbf1e2d286475a,,,,,,,decisionTrl,resources/DBN.BMP,resources/DG.BMP,Door2,-0.251246261,0.055333998,1,0,0,0.3258,optionLeft,20,14875,7,29,0,29,0,1,,,,,,,,,,,,,,,,,,,,,,,,,,,,,,,,,,,,,,,
,,,,,,,,2023-08-16_08h38.24.091,HF_wild_card,2022.2.4,Win32,59.93766483,61070ee93bf05ad543b51759,64d2fd46c836a06233681665,64dc7ce27ecbf1e2d286475a,,,,,,,decisionTrl,resources/DR.BMP,resources/DY.BMP,Door3,-0.191425723,0.032070445,1,0,0,0.2626,optionLeft,70,14945,7,30,0,30,0,1,,,,,,,,,,,,,,,,,,,,,,,,,,,,,,,,,,,,,,,
,,,,,,,,2023-08-16_08h38.24.091,HF_wild_card,2022.2.4,Win32,59.93766483,61070ee93bf05ad543b51759,64d2fd46c836a06233681665,64dc7ce27ecbf1e2d286475a,,,,,,,decisionTrl,resources/DG.BMP,resources/DBN.BMP,Door1,-0.179461615,0.032735108,1,0,0,0.2584,optionLeft,30,14975,7,31,0,31,0,1,,,,,,,,,,,,,,,,,,,,,,,,,,,,,,,,,,,,,,,
,,,,,,,,2023-08-16_08h38.24.091,HF_wild_card,2022.2.4,Win32,59.93766483,61070ee93bf05ad543b51759,64d2fd46c836a06233681665,64dc7ce27ecbf1e2d286475a,,,,,,,decisionTrl,resources/DY.BMP,resources/DR.BMP,Door4,-0.175473579,0.010136248,1,0,0,0.3158,optionLeft,80,15055,7,32,0,32,0,1,,,,,,,,,,,,,,,,,,,,,,,,,,,,,,,,,,,,,,,
,,,,,,,,2023-08-16_08h38.24.091,HF_wild_card,2022.2.4,Win32,59.93766483,61070ee93bf05ad543b51759,64d2fd46c836a06233681665,64dc7ce27ecbf1e2d286475a,,,,,,,decisionTrl,resources/DBN.BMP,resources/DG.BMP,Door2,-0.20073112,0.061980714,1,0,0,0.3378,optionLeft,20,15075,7,33,0,33,0,1,,,,,,,,,,,,,,,,,,,,,,,,,,,,,,,,,,,,,,,
,,,,,,,,2023-08-16_08h38.24.091,HF_wild_card,2022.2.4,Win32,59.93766483,61070ee93bf05ad543b51759,64d2fd46c836a06233681665,64dc7ce27ecbf1e2d286475a,,,,,,,decisionTrl,resources/DG.BMP,resources/DBN.BMP,Door1,-0.25855764,0.060651359,1,0,0,0.2643,optionLeft,30,15105,7,34,0,34,0,1,,,,,,,,,,,,,,,,,,,,,,,,,,,,,,,,,,,,,,,
,,,,,,,,2023-08-16_08h38.24.091,HF_wild_card,2022.2.4,Win32,59.93766483,61070ee93bf05ad543b51759,64d2fd46c836a06233681665,64dc7ce27ecbf1e2d286475a,,,,,,,ctch,resources/DY.BMP,resources/DG.BMP,Door4,-0.231970714,0.041375872,1,0,0,0.5699,optionLeft,80,15185,7,35,0,35,0,1,,,,,,,,,,,,,,,,,,,,,,,,,,,,,,,,,,,,,,,
,,,,,,,,2023-08-16_08h38.24.091,HF_wild_card,2022.2.4,Win32,59.93766483,61070ee93bf05ad543b51759,64d2fd46c836a06233681665,64dc7ce27ecbf1e2d286475a,,,,,,,,,,,,,,,,,,,,,,,,,,6,0,6,0,1,,,,,,,,,,,,,,,,,,,,,,,,,,,,,,,,,,
,,,,,,,,2023-08-16_08h38.24.091,HF_wild_card,2022.2.4,Win32,59.93766483,61070ee93bf05ad543b51759,64d2fd46c836a06233681665,64dc7ce27ecbf1e2d286475a,,,,,,,,,,,,,,,,,,,,,,,,,,,,,,,3,,,,,,,,,,,,,,,,,,,,,,,,,,,,,,,,,
,,,,,,,,2023-08-16_08h38.24.091,HF_wild_card,2022.2.4,Win32,59.93766483,61070ee93bf05ad543b51759,64d2fd46c836a06233681665,64dc7ce27ecbf1e2d286475a,,,,,,,,,,,,,,,,,,,,,,,,,,,,,,,,,,,,,,,,,,,,,,,,,,,,,,,,,,,,,,,,
,,,,,,,,2023-08-16_08h38.24.091,HF_wild_card,2022.2.4,Win32,59.93766483,61070ee93bf05ad543b51759,64d2fd46c836a06233681665,64dc7ce27ecbf1e2d286475a,,,,,,,,,,,,,,,,,,,,,,,,,,,,,,,,30,Door1,resources/DG.BMP,0,0,0,0,1,,,,,,,,,,,,,,,,,,,,,,,,,
,,,,,,,,2023-08-16_08h38.24.091,HF_wild_card,2022.2.4,Win32,59.93766483,61070ee93bf05ad543b51759,64d2fd46c836a06233681665,64dc7ce27ecbf1e2d286475a,,,,,,,,,,,,,,,,,,,,,,,,,,,,,,,,80,Door4,resources/DY.BMP,1,0,1,0,1,,,,,,,,,,,,,,,,,,,,,,,,,
,,,,,,,,2023-08-16_08h38.24.091,HF_wild_card,2022.2.4,Win32,59.93766483,61070ee93bf05ad543b51759,64d2fd46c836a06233681665,64dc7ce27ecbf1e2d286475a,,,,,,,,,,,,,,,,,,,,,,,,,,,,,,,,55,Door3,resources/DR.BMP,2,0,2,0,1,,,,,,,,,,,,,,,,,,,,,,,,,
,,,,,,,,2023-08-16_08h38.24.091,HF_wild_card,2022.2.4,Win32,59.93766483,61070ee93bf05ad543b51759,64d2fd46c836a06233681665,64dc7ce27ecbf1e2d286475a,,,,,,,,,,,,,,,,,,,,,,,,,,,,,,,,5,WC_extreme,resources/DB.BMP,3,0,3,0,1,,,,,,,,,,,,,,,,,,,,,,,,,
,,,,,,,,2023-08-16_08h38.24.091,HF_wild_card,2022.2.4,Win32,59.93766483,61070ee93bf05ad543b51759,64d2fd46c836a06233681665,64dc7ce27ecbf1e2d286475a,,,,,,,,,,,,,,,,,,,,,,,,,,,,,,,,40,Door2,resources/DBN.BMP,4,0,4,0,1,,,,,,,,,,,,,,,,,,,,,,,,,
,,,,,,,,2023-08-16_08h38.24.091,HF_wild_card,2022.2.4,Win32,59.93766483,61070ee93bf05ad543b51759,64d2fd46c836a06233681665,64dc7ce27ecbf1e2d286475a,,,,,,,,,,,,,,,,,,,,,,,,,,,,,,,,55,WC_nonExtreme,resources/DP.BMP,5,0,5,0,1,,,,,,,,,,,,,,,,,,,,,,,,,
,,,,,,,,2023-08-16_08h38.24.091,HF_wild_card,2022.2.4,Win32,59.93766483,61070ee93bf05ad543b51759,64d2fd46c836a06233681665,64dc7ce27ecbf1e2d286475a,,,,,,,,,,,,,,,,,,,,,,,,,,,,,,,,,,,,,,,,,,,,,,,,,,,,,,,,,,,,,,,,
