Condition,Low fixed image (Door1),Low risky image (Door2),High fixed image (Door3),High risky image (Door4),Extreme Wild Card,NonExtreme Wild Card,,date,expName,psychopyVersion,OS,frameRate,PROLIFIC_PID,STUDY_ID,SESSION_ID,mouse_2.x,mouse_2.y,mouse_2.leftButton,mouse_2.midButton,mouse_2.rightButton,mouse_2.clicked_name,Trial Type,Left Option Image,Right Option Image,Chosen Door,mouse.x,mouse.y,mouse.leftButton,mouse.midButton,mouse.rightButton,mouse.time,mouse.clicked_name,Feedback,Cumulative Reward,Block,trial.thisRepN,trial.thisTrialN,trial.thisN,trial.thisIndex,trial.ran,blocks.thisRepN,blocks.thisTrialN,blocks.thisN,blocks.thisIndex,blocks.ran,Money conversion,First Outcome Reported,Shown Door (First Outcome),Displayed Image (First Outcome),outcomes.thisRepN,outcomes.thisTrialN,outcomes.thisN,outcomes.thisIndex,outcomes.ran,judgments.thisRepN,judgments.thisTrialN,judgments.thisN,judgments.thisIndex,judgments.ran,freqMouse.x,freqMouse.y,freqMouse.leftButton,freqMouse.midButton,freqMouse.rightButton,freqMouse.clicked_name,FQJ for first outcome,FQJ for second outcome,Shown Door,Displayed Image,trials.thisRepN,trials.thisTrialN,trials.thisN,trials.thisIndex,trials.ran,judgBlock.thisRepN,judgBlock.thisTrialN,judgBlock.thisN,judgBlock.thisIndex,judgBlock.ran
0,resources/DB.BMP,resources/DY.BMP,resources/DG.BMP,resources/DBN.BMP,resources/DR.BMP,resources/DP.BMP,,2023-08-16_08h48.16.487,HF_wild_card,2022.2.4,Win32,59.60541217,611f672bc947518ca8b25524,64d2fd46c836a06233681665,64dc7f2a4469f04705c86d21,,,,,,,,,,,,,,,,,,,,,,,,,,,,,,,,,,,,,,,,,,,,,,,,,,,,,,,,,,,,,,,,
,,,,,,,,2023-08-16_08h48.16.487,HF_wild_card,2022.2.4,Win32,59.60541217,611f672bc947518ca8b25524,64d2fd46c836a06233681665,64dc7f2a4469f04705c86d21,0.024017467,-0.411572052,1,0,0,agree,,,,,,,,,,,,,,,,,,,,,,,,,,,,,,,,,,,,,,,,,,,,,,,,,,,,,,,,,,
,,,,,,,,2023-08-16_08h48.16.487,HF_wild_card,2022.2.4,Win32,59.60541217,611f672bc947518ca8b25524,64d2fd46c836a06233681665,64dc7f2a4469f04705c86d21,,,,,,,,,,,,,,,,,,,,,,,,,,,,,,,,,,,,,,,,,,,,,,,,,,,,,,,,,,,,,,,,
,,,,,,,,2023-08-16_08h48.16.487,HF_wild_card,2022.2.4,Win32,59.60541217,611f672bc947518ca8b25524,64d2fd46c836a06233681665,64dc7f2a4469f04705c86d21,,,,,,,decisionTrl,resources/DR.BMP,resources/DB.BMP,Door1,0.286026201,-0.104803493,1,0,0,1.5874,optionRight,30,30,1,0,0,0,0,1,,,,,,,,,,,,,,,,,,,,,,,,,,,,,,,,,,,,,,,
,,,,,,,,2023-08-16_08h48.16.487,HF_wild_card,2022.2.4,Win32,59.60541217,611f672bc947518ca8b25524,64d2fd46c836a06233681665,64dc7f2a4469f04705c86d21,,,,,,,ctch,resources/DG.BMP,resources/DY.BMP,Door2,0.211790393,-0.004366812,1,0,0,1.4471,optionRight,40,70,1,1,0,1,0,1,,,,,,,,,,,,,,,,,,,,,,,,,,,,,,,,,,,,,,,
,,,,,,,,2023-08-16_08h48.16.487,HF_wild_card,2022.2.4,Win32,59.60541217,611f672bc947518ca8b25524,64d2fd46c836a06233681665,64dc7f2a4469f04705c86d21,,,,,,,decisionTrl,resources/DY.BMP,resources/DB.BMP,Door1,0.253275109,-0.057860262,1,0,0,0.4781,optionRight,30,100,1,2,0,2,0,1,,,,,,,,,,,,,,,,,,,,,,,,,,,,,,,,,,,,,,,
,,,,,,,,2023-08-16_08h48.16.487,HF_wild_card,2022.2.4,Win32,59.60541217,611f672bc947518ca8b25524,64d2fd46c836a06233681665,64dc7f2a4469f04705c86d21,,,,,,,decisionTrl,resources/DB.BMP,resources/DY.BMP,Door2,0.306768559,-0.022925764,1,0,0,0.9461,optionRight,20,120,1,3,0,3,0,1,,,,,,,,,,,,,,,,,,,,,,,,,,,,,,,,,,,,,,,
,,,,,,,,2023-08-16_08h48.16.487,HF_wild_card,2022.2.4,Win32,59.60541217,611f672bc947518ca8b25524,64d2fd46c836a06233681665,64dc7f2a4469f04705c86d21,,,,,,,ctch,resources/DY.BMP,resources/DG.BMP,Door3,0.385371179,-0.040393013,1,0,0,0.8291,optionRight,70,190,1,4,0,4,0,1,,,,,,,,,,,,,,,,,,,,,,,,,,,,,,,,,,,,,,,
,,,,,,,,2023-08-16_08h48.16.487,HF_wild_card,2022.2.4,Win32,59.60541217,611f672bc947518ca8b25524,64d2fd46c836a06233681665,64dc7f2a4469f04705c86d21,,,,,,,decisionTrl,resources/DB.BMP,resources/DR.BMP,WildCard_Ex,0.418122271,-0.043668122,1,0,0,1.3949,optionRight,5,195,1,5,0,5,0,1,,,,,,,,,,,,,,,,,,,,,,,,,,,,,,,,,,,,,,,
,,,,,,,,2023-08-16_08h48.16.487,HF_wild_card,2022.2.4,Win32,59.60541217,611f672bc947518ca8b25524,64d2fd46c836a06233681665,64dc7f2a4469f04705c86d21,,,,,,,sngl,resources/Empty.png,resources/DR.BMP,WildCard_Ex,-0.299126638,0.027292576,1,0,0,1.9229,optionRight,5,200,1,6,0,6,0,1,,,,,,,,,,,,,,,,,,,,,,,,,,,,,,,,,,,,,,,
,,,,,,,,2023-08-16_08h48.16.487,HF_wild_card,2022.2.4,Win32,59.60541217,611f672bc947518ca8b25524,64d2fd46c836a06233681665,64dc7f2a4469f04705c86d21,,,,,,,sngl,resources/DB.BMP,resources/Empty.png,Door1,0.554585153,-0.015283843,1,0,0,1.6093,optionLeft,30,230,1,7,0,7,0,1,,,,,,,,,,,,,,,,,,,,,,,,,,,,,,,,,,,,,,,
,,,,,,,,2023-08-16_08h48.16.487,HF_wild_card,2022.2.4,Win32,59.60541217,611f672bc947518ca8b25524,64d2fd46c836a06233681665,64dc7f2a4469f04705c86d21,,,,,,,decisionTrl,resources/DBN.BMP,resources/DR.BMP,Door4,-0.230349345,0.004366812,1,0,0,0.831,optionLeft,60,290,1,8,0,8,0,1,,,,,,,,,,,,,,,,,,,,,,,,,,,,,,,,,,,,,,,
,,,,,,,,2023-08-16_08h48.16.487,HF_wild_card,2022.2.4,Win32,59.60541217,611f672bc947518ca8b25524,64d2fd46c836a06233681665,64dc7f2a4469f04705c86d21,,,,,,,decisionTrl,resources/DB.BMP,resources/DY.BMP,Door1,-0.229257642,-0.004366812,1,0,0,0.8295,optionLeft,30,320,1,9,0,9,0,1,,,,,,,,,,,,,,,,,,,,,,,,,,,,,,,,,,,,,,,
,,,,,,,,2023-08-16_08h48.16.487,HF_wild_card,2022.2.4,Win32,59.60541217,611f672bc947518ca8b25524,64d2fd46c836a06233681665,64dc7f2a4469f04705c86d21,,,,,,,sngl,resources/DR.BMP,resources/Empty.png,WildCard_Ex,-0.228165939,0.020742358,1,0,0,1.1643,optionLeft,5,325,1,10,0,10,0,1,,,,,,,,,,,,,,,,,,,,,,,,,,,,,,,,,,,,,,,
,,,,,,,,2023-08-16_08h48.16.487,HF_wild_card,2022.2.4,Win32,59.60541217,611f672bc947518ca8b25524,64d2fd46c836a06233681665,64dc7f2a4469f04705c86d21,,,,,,,sngl,resources/Empty.png,resources/DY.BMP,Door2,0.266375546,-0.013100437,1,0,0,0.5632,optionRight,20,345,1,11,0,11,0,1,,,,,,,,,,,,,,,,,,,,,,,,,,,,,,,,,,,,,,,
,,,,,,,,2023-08-16_08h48.16.487,HF_wild_card,2022.2.4,Win32,59.60541217,611f672bc947518ca8b25524,64d2fd46c836a06233681665,64dc7f2a4469f04705c86d21,,,,,,,decisionTrl,resources/DG.BMP,resources/DBN.BMP,Door3,-0.161572052,0.016375546,1,0,0,2.0514,optionLeft,70,415,1,12,0,12,0,1,,,,,,,,,,,,,,,,,,,,,,,,,,,,,,,,,,,,,,,
,,,,,,,,2023-08-16_08h48.16.487,HF_wild_card,2022.2.4,Win32,59.60541217,611f672bc947518ca8b25524,64d2fd46c836a06233681665,64dc7f2a4469f04705c86d21,,,,,,,decisionTrl,resources/DBN.BMP,resources/DG.BMP,Door3,0.194323144,-0.02510917,1,0,0,1.9975,optionRight,70,485,1,13,0,13,0,1,,,,,,,,,,,,,,,,,,,,,,,,,,,,,,,,,,,,,,,
,,,,,,,,2023-08-16_08h48.16.487,HF_wild_card,2022.2.4,Win32,59.60541217,611f672bc947518ca8b25524,64d2fd46c836a06233681665,64dc7f2a4469f04705c86d21,,,,,,,decisionTrl,resources/DY.BMP,resources/DR.BMP,Door2,-0.274017467,-0.004366812,1,0,0,1.3694,optionLeft,20,505,1,14,0,14,0,1,,,,,,,,,,,,,,,,,,,,,,,,,,,,,,,,,,,,,,,
,,,,,,,,2023-08-16_08h48.16.487,HF_wild_card,2022.2.4,Win32,59.60541217,611f672bc947518ca8b25524,64d2fd46c836a06233681665,64dc7f2a4469f04705c86d21,,,,,,,decisionTrl,resources/DR.BMP,resources/DBN.BMP,Door4,0.151746725,-0.009825328,1,0,0,2.2271,optionRight,80,585,1,15,0,15,0,1,,,,,,,,,,,,,,,,,,,,,,,,,,,,,,,,,,,,,,,
,,,,,,,,2023-08-16_08h48.16.487,HF_wild_card,2022.2.4,Win32,59.60541217,611f672bc947518ca8b25524,64d2fd46c836a06233681665,64dc7f2a4469f04705c86d21,,,,,,,sngl,resources/Empty.png,resources/DG.BMP,Door3,0.183406114,-0.007641921,1,0,0,0.7127,optionRight,70,655,1,16,0,16,0,1,,,,,,,,,,,,,,,,,,,,,,,,,,,,,,,,,,,,,,,
,,,,,,,,2023-08-16_08h48.16.487,HF_wild_card,2022.2.4,Win32,59.60541217,611f672bc947518ca8b25524,64d2fd46c836a06233681665,64dc7f2a4469f04705c86d21,,,,,,,decisionTrl,resources/DG.BMP,resources/DBN.BMP,Door4,0.279475983,-0.008733624,1,0,0,0.5709,optionRight,60,715,1,17,0,17,0,1,,,,,,,,,,,,,,,,,,,,,,,,,,,,,,,,,,,,,,,
,,,,,,,,2023-08-16_08h48.16.487,HF_wild_card,2022.2.4,Win32,59.60541217,611f672bc947518ca8b25524,64d2fd46c836a06233681665,64dc7f2a4469f04705c86d21,,,,,,,decisionTrl,resources/DR.BMP,resources/DG.BMP,Door3,0.242358079,-0.027292576,1,0,0,0.8479,optionRight,70,785,1,18,0,18,0,1,,,,,,,,,,,,,,,,,,,,,,,,,,,,,,,,,,,,,,,
,,,,,,,,2023-08-16_08h48.16.487,HF_wild_card,2022.2.4,Win32,59.60541217,611f672bc947518ca8b25524,64d2fd46c836a06233681665,64dc7f2a4469f04705c86d21,,,,,,,decisionTrl,resources/DB.BMP,resources/DY.BMP,Door1,-0.210526316,-0.030701754,1,0,0,1.4588,optionLeft,30,815,1,19,0,19,0,1,,,,,,,,,,,,,,,,,,,,,,,,,,,,,,,,,,,,,,,
,,,,,,,,2023-08-16_08h48.16.487,HF_wild_card,2022.2.4,Win32,59.60541217,611f672bc947518ca8b25524,64d2fd46c836a06233681665,64dc7f2a4469f04705c86d21,,,,,,,decisionTrl,resources/DBN.BMP,resources/DG.BMP,Door3,0.355263158,0.027777778,1,0,0,0.9728,optionRight,70,885,1,20,0,20,0,1,,,,,,,,,,,,,,,,,,,,,,,,,,,,,,,,,,,,,,,
,,,,,,,,2023-08-16_08h48.16.487,HF_wild_card,2022.2.4,Win32,59.60541217,611f672bc947518ca8b25524,64d2fd46c836a06233681665,64dc7f2a4469f04705c86d21,,,,,,,sngl,resources/DY.BMP,resources/Empty.png,Door2,-0.210526316,0.002923977,1,0,0,0.4966,optionLeft,40,925,1,21,0,21,0,1,,,,,,,,,,,,,,,,,,,,,,,,,,,,,,,,,,,,,,,
,,,,,,,,2023-08-16_08h48.16.487,HF_wild_card,2022.2.4,Win32,59.60541217,611f672bc947518ca8b25524,64d2fd46c836a06233681665,64dc7f2a4469f04705c86d21,,,,,,,decisionTrl,resources/DB.BMP,resources/DY.BMP,Door1,-0.213450292,0.013157895,1,0,0,0.645,optionLeft,30,955,1,22,0,22,0,1,,,,,,,,,,,,,,,,,,,,,,,,,,,,,,,,,,,,,,,
,,,,,,,,2023-08-16_08h48.16.487,HF_wild_card,2022.2.4,Win32,59.60541217,611f672bc947518ca8b25524,64d2fd46c836a06233681665,64dc7f2a4469f04705c86d21,,,,,,,sngl,resources/DG.BMP,resources/Empty.png,Door3,-0.226608187,-0.00877193,1,0,0,0.5342,optionLeft,70,1025,1,23,0,23,0,1,,,,,,,,,,,,,,,,,,,,,,,,,,,,,,,,,,,,,,,
,,,,,,,,2023-08-16_08h48.16.487,HF_wild_card,2022.2.4,Win32,59.60541217,611f672bc947518ca8b25524,64d2fd46c836a06233681665,64dc7f2a4469f04705c86d21,,,,,,,decisionTrl,resources/DY.BMP,resources/DB.BMP,Door1,0.228070175,-0.011695906,1,0,0,0.6122,optionRight,30,1055,1,24,0,24,0,1,,,,,,,,,,,,,,,,,,,,,,,,,,,,,,,,,,,,,,,
,,,,,,,,2023-08-16_08h48.16.487,HF_wild_card,2022.2.4,Win32,59.60541217,611f672bc947518ca8b25524,64d2fd46c836a06233681665,64dc7f2a4469f04705c86d21,,,,,,,decisionTrl,resources/DG.BMP,resources/DBN.BMP,Door4,0.175438596,0,1,0,0,1.2629,optionRight,80,1135,1,25,0,25,0,1,,,,,,,,,,,,,,,,,,,,,,,,,,,,,,,,,,,,,,,
,,,,,,,,2023-08-16_08h48.16.487,HF_wild_card,2022.2.4,Win32,59.60541217,611f672bc947518ca8b25524,64d2fd46c836a06233681665,64dc7f2a4469f04705c86d21,,,,,,,ctch,resources/DB.BMP,resources/DBN.BMP,Door4,0.192982456,0.016081871,1,0,0,0.8288,optionRight,60,1195,1,26,0,26,0,1,,,,,,,,,,,,,,,,,,,,,,,,,,,,,,,,,,,,,,,
,,,,,,,,2023-08-16_08h48.16.487,HF_wild_card,2022.2.4,Win32,59.60541217,611f672bc947518ca8b25524,64d2fd46c836a06233681665,64dc7f2a4469f04705c86d21,,,,,,,decisionTrl,resources/DBN.BMP,resources/DG.BMP,Door4,-0.225146199,0.013157895,1,0,0,0.7838,optionLeft,80,1275,1,27,0,27,0,1,,,,,,,,,,,,,,,,,,,,,,,,,,,,,,,,,,,,,,,
,,,,,,,,2023-08-16_08h48.16.487,HF_wild_card,2022.2.4,Win32,59.60541217,611f672bc947518ca8b25524,64d2fd46c836a06233681665,64dc7f2a4469f04705c86d21,,,,,,,decisionTrl,resources/DY.BMP,resources/DB.BMP,Door1,0.238304094,-0.019005848,1,0,0,0.8755,optionRight,30,1305,1,28,0,28,0,1,,,,,,,,,,,,,,,,,,,,,,,,,,,,,,,,,,,,,,,
,,,,,,,,2023-08-16_08h48.16.487,HF_wild_card,2022.2.4,Win32,59.60541217,611f672bc947518ca8b25524,64d2fd46c836a06233681665,64dc7f2a4469f04705c86d21,,,,,,,decisionTrl,resources/DR.BMP,resources/DY.BMP,Door2,0.257309942,-0.023391813,1,0,0,0.7451,optionRight,20,1325,1,29,0,29,0,1,,,,,,,,,,,,,,,,,,,,,,,,,,,,,,,,,,,,,,,
,,,,,,,,2023-08-16_08h48.16.487,HF_wild_card,2022.2.4,Win32,59.60541217,611f672bc947518ca8b25524,64d2fd46c836a06233681665,64dc7f2a4469f04705c86d21,,,,,,,ctch,resources/DBN.BMP,resources/DB.BMP,Door4,-0.143274854,0.019005848,1,0,0,0.8586,optionLeft,60,1385,1,30,0,30,0,1,,,,,,,,,,,,,,,,,,,,,,,,,,,,,,,,,,,,,,,
,,,,,,,,2023-08-16_08h48.16.487,HF_wild_card,2022.2.4,Win32,59.60541217,611f672bc947518ca8b25524,64d2fd46c836a06233681665,64dc7f2a4469f04705c86d21,,,,,,,decisionTrl,resources/DG.BMP,resources/DR.BMP,Door3,-0.127192982,0.007309942,1,0,0,1.3131,optionLeft,70,1455,1,31,0,31,0,1,,,,,,,,,,,,,,,,,,,,,,,,,,,,,,,,,,,,,,,
,,,,,,,,2023-08-16_08h48.16.487,HF_wild_card,2022.2.4,Win32,59.60541217,611f672bc947518ca8b25524,64d2fd46c836a06233681665,64dc7f2a4469f04705c86d21,,,,,,,ctch,resources/DBN.BMP,resources/DB.BMP,Door4,-0.175438596,0.001461988,1,0,0,0.7958,optionLeft,80,1535,1,32,0,32,0,1,,,,,,,,,,,,,,,,,,,,,,,,,,,,,,,,,,,,,,,
,,,,,,,,2023-08-16_08h48.16.487,HF_wild_card,2022.2.4,Win32,59.60541217,611f672bc947518ca8b25524,64d2fd46c836a06233681665,64dc7f2a4469f04705c86d21,,,,,,,decisionTrl,resources/DG.BMP,resources/DBN.BMP,Door4,0.134502924,-0.004385965,1,0,0,0.7618,optionRight,60,1595,1,33,0,33,0,1,,,,,,,,,,,,,,,,,,,,,,,,,,,,,,,,,,,,,,,
,,,,,,,,2023-08-16_08h48.16.487,HF_wild_card,2022.2.4,Win32,59.60541217,611f672bc947518ca8b25524,64d2fd46c836a06233681665,64dc7f2a4469f04705c86d21,,,,,,,ctch,resources/DB.BMP,resources/DBN.BMP,Door4,0.264619883,-0.005847953,1,0,0,0.5312,optionRight,80,1675,1,34,0,34,0,1,,,,,,,,,,,,,,,,,,,,,,,,,,,,,,,,,,,,,,,
,,,,,,,,2023-08-16_08h48.16.487,HF_wild_card,2022.2.4,Win32,59.60541217,611f672bc947518ca8b25524,64d2fd46c836a06233681665,64dc7f2a4469f04705c86d21,,,,,,,sngl,resources/Empty.png,resources/DB.BMP,Door1,0.187134503,-0.029239766,1,0,0,1.0039,optionRight,30,1705,1,35,0,35,0,1,,,,,,,,,,,,,,,,,,,,,,,,,,,,,,,,,,,,,,,
,,,,,,,,2023-08-16_08h48.16.487,HF_wild_card,2022.2.4,Win32,59.60541217,611f672bc947518ca8b25524,64d2fd46c836a06233681665,64dc7f2a4469f04705c86d21,,,,,,,sngl,resources/DBN.BMP,resources/Empty.png,Door4,-0.222222222,0.010233918,1,0,0,0.798,optionLeft,80,1785,1,36,0,36,0,1,,,,,,,,,,,,,,,,,,,,,,,,,,,,,,,,,,,,,,,
,,,,,,,,2023-08-16_08h48.16.487,HF_wild_card,2022.2.4,Win32,59.60541217,611f672bc947518ca8b25524,64d2fd46c836a06233681665,64dc7f2a4469f04705c86d21,,,,,,,ctch,resources/DG.BMP,resources/DY.BMP,Door3,-0.242690058,-0.013157895,1,0,0,1.2965,optionLeft,70,1855,1,37,0,37,0,1,,,,,,,,,,,,,,,,,,,,,,,,,,,,,,,,,,,,,,,
,,,,,,,,2023-08-16_08h48.16.487,HF_wild_card,2022.2.4,Win32,59.60541217,611f672bc947518ca8b25524,64d2fd46c836a06233681665,64dc7f2a4469f04705c86d21,,,,,,,decisionTrl,resources/DBN.BMP,resources/DG.BMP,Door4,-0.244152047,0.021929825,1,0,0,0.6296,optionLeft,60,1915,1,38,0,38,0,1,,,,,,,,,,,,,,,,,,,,,,,,,,,,,,,,,,,,,,,
,,,,,,,,2023-08-16_08h48.16.487,HF_wild_card,2022.2.4,Win32,59.60541217,611f672bc947518ca8b25524,64d2fd46c836a06233681665,64dc7f2a4469f04705c86d21,,,,,,,ctch,resources/DY.BMP,resources/DG.BMP,Door3,0.18128655,-0.011695906,1,0,0,0.6628,optionRight,70,1985,1,39,0,39,0,1,,,,,,,,,,,,,,,,,,,,,,,,,,,,,,,,,,,,,,,
,,,,,,,,2023-08-16_08h48.16.487,HF_wild_card,2022.2.4,Win32,59.60541217,611f672bc947518ca8b25524,64d2fd46c836a06233681665,64dc7f2a4469f04705c86d21,,,,,,,sngl,resources/DR.BMP,resources/Empty.png,WildCard_Ex,-0.203216374,0.013157895,1,0,0,0.8958,optionLeft,95,2080,1,40,0,40,0,1,,,,,,,,,,,,,,,,,,,,,,,,,,,,,,,,,,,,,,,
,,,,,,,,2023-08-16_08h48.16.487,HF_wild_card,2022.2.4,Win32,59.60541217,611f672bc947518ca8b25524,64d2fd46c836a06233681665,64dc7f2a4469f04705c86d21,,,,,,,sngl,resources/Empty.png,resources/DBN.BMP,Door4,0.337719298,-0.040935673,1,0,0,0.5137,optionRight,60,2140,1,41,0,41,0,1,,,,,,,,,,,,,,,,,,,,,,,,,,,,,,,,,,,,,,,
,,,,,,,,2023-08-16_08h48.16.487,HF_wild_card,2022.2.4,Win32,59.60541217,611f672bc947518ca8b25524,64d2fd46c836a06233681665,64dc7f2a4469f04705c86d21,,,,,,,sngl,resources/Empty.png,resources/DR.BMP,WildCard_Ex,0.33625731,-0.033625731,1,0,0,0.5115,optionRight,95,2235,1,42,0,42,0,1,,,,,,,,,,,,,,,,,,,,,,,,,,,,,,,,,,,,,,,
,,,,,,,,2023-08-16_08h48.16.487,HF_wild_card,2022.2.4,Win32,59.60541217,611f672bc947518ca8b25524,64d2fd46c836a06233681665,64dc7f2a4469f04705c86d21,,,,,,,decisionTrl,resources/DY.BMP,resources/DB.BMP,Door1,0.252923977,-0.016081871,1,0,0,0.9266,optionRight,30,2265,1,43,0,43,0,1,,,,,,,,,,,,,,,,,,,,,,,,,,,,,,,,,,,,,,,
,,,,,,,,2023-08-16_08h48.16.487,HF_wild_card,2022.2.4,Win32,59.60541217,611f672bc947518ca8b25524,64d2fd46c836a06233681665,64dc7f2a4469f04705c86d21,,,,,,,,,,,,,,,,,,,,,,,,,,0,0,0,0,1,,,,,,,,,,,,,,,,,,,,,,,,,,,,,,,,,,
,,,,,,,,2023-08-16_08h48.16.487,HF_wild_card,2022.2.4,Win32,59.60541217,611f672bc947518ca8b25524,64d2fd46c836a06233681665,64dc7f2a4469f04705c86d21,,,,,,,decisionTrl,resources/DB.BMP,resources/DR.BMP,WildCard_Ex,0.317251462,-0.054093567,1,0,0,1.1234,optionRight,5,2270,2,0,0,0,0,1,,,,,,,,,,,,,,,,,,,,,,,,,,,,,,,,,,,,,,,
,,,,,,,,2023-08-16_08h48.16.487,HF_wild_card,2022.2.4,Win32,59.60541217,611f672bc947518ca8b25524,64d2fd46c836a06233681665,64dc7f2a4469f04705c86d21,,,,,,,sngl,resources/DG.BMP,resources/Empty.png,Door3,-0.26754386,-0.036549708,1,0,0,0.4471,optionLeft,70,2340,2,1,0,1,0,1,,,,,,,,,,,,,,,,,,,,,,,,,,,,,,,,,,,,,,,
,,,,,,,,2023-08-16_08h48.16.487,HF_wild_card,2022.2.4,Win32,59.60541217,611f672bc947518ca8b25524,64d2fd46c836a06233681665,64dc7f2a4469f04705c86d21,,,,,,,decisionTrl,resources/DBN.BMP,resources/DG.BMP,Door4,-0.307017544,-0.055555556,1,0,0,0.7825,optionLeft,80,2420,2,2,0,2,0,1,,,,,,,,,,,,,,,,,,,,,,,,,,,,,,,,,,,,,,,
,,,,,,,,2023-08-16_08h48.16.487,HF_wild_card,2022.2.4,Win32,59.60541217,611f672bc947518ca8b25524,64d2fd46c836a06233681665,64dc7f2a4469f04705c86d21,,,,,,,decisionTrl,resources/DG.BMP,resources/DBN.BMP,Door4,0.450292398,-0.064327485,1,0,0,0.4601,optionRight,60,2480,2,3,0,3,0,1,,,,,,,,,,,,,,,,,,,,,,,,,,,,,,,,,,,,,,,
,,,,,,,,2023-08-16_08h48.16.487,HF_wild_card,2022.2.4,Win32,59.60541217,611f672bc947518ca8b25524,64d2fd46c836a06233681665,64dc7f2a4469f04705c86d21,,,,,,,decisionTrl,resources/DG.BMP,resources/DR.BMP,Door3,-0.197368421,-0.002923977,1,0,0,0.563,optionLeft,70,2550,2,4,0,4,0,1,,,,,,,,,,,,,,,,,,,,,,,,,,,,,,,,,,,,,,,
,,,,,,,,2023-08-16_08h48.16.487,HF_wild_card,2022.2.4,Win32,59.60541217,611f672bc947518ca8b25524,64d2fd46c836a06233681665,64dc7f2a4469f04705c86d21,,,,,,,decisionTrl,resources/DR.BMP,resources/DY.BMP,Door2,0.198830409,0,1,0,0,1.1588,optionRight,20,2570,2,5,0,5,0,1,,,,,,,,,,,,,,,,,,,,,,,,,,,,,,,,,,,,,,,
,,,,,,,,2023-08-16_08h48.16.487,HF_wild_card,2022.2.4,Win32,59.60541217,611f672bc947518ca8b25524,64d2fd46c836a06233681665,64dc7f2a4469f04705c86d21,,,,,,,sngl,resources/Empty.png,resources/DR.BMP,WildCard_Ex,0.290935673,-0.002923977,1,0,0,0.5274,optionRight,95,2665,2,6,0,6,0,1,,,,,,,,,,,,,,,,,,,,,,,,,,,,,,,,,,,,,,,
,,,,,,,,2023-08-16_08h48.16.487,HF_wild_card,2022.2.4,Win32,59.60541217,611f672bc947518ca8b25524,64d2fd46c836a06233681665,64dc7f2a4469f04705c86d21,,,,,,,decisionTrl,resources/DG.BMP,resources/DBN.BMP,Door4,0.187134503,-0.002923977,1,0,0,0.8162,optionRight,80,2745,2,7,0,7,0,1,,,,,,,,,,,,,,,,,,,,,,,,,,,,,,,,,,,,,,,
,,,,,,,,2023-08-16_08h48.16.487,HF_wild_card,2022.2.4,Win32,59.60541217,611f672bc947518ca8b25524,64d2fd46c836a06233681665,64dc7f2a4469f04705c86d21,,,,,,,ctch,resources/DG.BMP,resources/DY.BMP,Door3,-0.166666667,0.007309942,1,0,0,0.6796,optionLeft,70,2815,2,8,0,8,0,1,,,,,,,,,,,,,,,,,,,,,,,,,,,,,,,,,,,,,,,
,,,,,,,,2023-08-16_08h48.16.487,HF_wild_card,2022.2.4,Win32,59.60541217,611f672bc947518ca8b25524,64d2fd46c836a06233681665,64dc7f2a4469f04705c86d21,,,,,,,sngl,resources/Empty.png,resources/DBN.BMP,Door4,0.239766082,0.004385965,1,0,0,0.564,optionRight,80,2895,2,9,0,9,0,1,,,,,,,,,,,,,,,,,,,,,,,,,,,,,,,,,,,,,,,
,,,,,,,,2023-08-16_08h48.16.487,HF_wild_card,2022.2.4,Win32,59.60541217,611f672bc947518ca8b25524,64d2fd46c836a06233681665,64dc7f2a4469f04705c86d21,,,,,,,decisionTrl,resources/DBN.BMP,resources/DG.BMP,Door4,-0.230994152,0.005847953,1,0,0,0.5635,optionLeft,80,2975,2,10,0,10,0,1,,,,,,,,,,,,,,,,,,,,,,,,,,,,,,,,,,,,,,,
,,,,,,,,2023-08-16_08h48.16.487,HF_wild_card,2022.2.4,Win32,59.60541217,611f672bc947518ca8b25524,64d2fd46c836a06233681665,64dc7f2a4469f04705c86d21,,,,,,,sngl,resources/Empty.png,resources/DG.BMP,Door3,0.206140351,-0.014619883,1,0,0,0.5597,optionRight,70,3045,2,11,0,11,0,1,,,,,,,,,,,,,,,,,,,,,,,,,,,,,,,,,,,,,,,
,,,,,,,,2023-08-16_08h48.16.487,HF_wild_card,2022.2.4,Win32,59.60541217,611f672bc947518ca8b25524,64d2fd46c836a06233681665,64dc7f2a4469f04705c86d21,,,,,,,decisionTrl,resources/DB.BMP,resources/DY.BMP,Door1,-0.159356725,-0.011695906,1,0,0,0.8311,optionLeft,30,3075,2,12,0,12,0,1,,,,,,,,,,,,,,,,,,,,,,,,,,,,,,,,,,,,,,,
,,,,,,,,2023-08-16_08h48.16.487,HF_wild_card,2022.2.4,Win32,59.60541217,611f672bc947518ca8b25524,64d2fd46c836a06233681665,64dc7f2a4469f04705c86d21,,,,,,,sngl,resources/DR.BMP,resources/Empty.png,WildCard_Ex,-0.204678363,0,1,0,0,0.531,optionLeft,95,3170,2,13,0,13,0,1,,,,,,,,,,,,,,,,,,,,,,,,,,,,,,,,,,,,,,,
,,,,,,,,2023-08-16_08h48.16.487,HF_wild_card,2022.2.4,Win32,59.60541217,611f672bc947518ca8b25524,64d2fd46c836a06233681665,64dc7f2a4469f04705c86d21,,,,,,,decisionTrl,resources/DR.BMP,resources/DG.BMP,WildCard_Ex,-0.194444444,0.002923977,1,0,0,0.4847,optionLeft,5,3175,2,14,0,14,0,1,,,,,,,,,,,,,,,,,,,,,,,,,,,,,,,,,,,,,,,
,,,,,,,,2023-08-16_08h48.16.487,HF_wild_card,2022.2.4,Win32,59.60541217,611f672bc947518ca8b25524,64d2fd46c836a06233681665,64dc7f2a4469f04705c86d21,,,,,,,decisionTrl,resources/DG.BMP,resources/DBN.BMP,Door4,0.203216374,-0.004385965,1,0,0,0.8129,optionRight,80,3255,2,15,0,15,0,1,,,,,,,,,,,,,,,,,,,,,,,,,,,,,,,,,,,,,,,
,,,,,,,,2023-08-16_08h48.16.487,HF_wild_card,2022.2.4,Win32,59.60541217,611f672bc947518ca8b25524,64d2fd46c836a06233681665,64dc7f2a4469f04705c86d21,,,,,,,decisionTrl,resources/DY.BMP,resources/DB.BMP,Door1,0.175438596,-0.004385965,1,0,0,1.5631,optionRight,30,3285,2,16,0,16,0,1,,,,,,,,,,,,,,,,,,,,,,,,,,,,,,,,,,,,,,,
,,,,,,,,2023-08-16_08h48.16.487,HF_wild_card,2022.2.4,Win32,59.60541217,611f672bc947518ca8b25524,64d2fd46c836a06233681665,64dc7f2a4469f04705c86d21,,,,,,,sngl,resources/DR.BMP,resources/Empty.png,WildCard_Ex,-0.159356725,0.01754386,1,0,0,0.7191,optionLeft,5,3290,2,17,0,17,0,1,,,,,,,,,,,,,,,,,,,,,,,,,,,,,,,,,,,,,,,
,,,,,,,,2023-08-16_08h48.16.487,HF_wild_card,2022.2.4,Win32,59.60541217,611f672bc947518ca8b25524,64d2fd46c836a06233681665,64dc7f2a4469f04705c86d21,,,,,,,decisionTrl,resources/DY.BMP,resources/DB.BMP,Door2,-0.14619883,-0.005847953,1,0,0,1.4478,optionLeft,40,3330,2,18,0,18,0,1,,,,,,,,,,,,,,,,,,,,,,,,,,,,,,,,,,,,,,,
,,,,,,,,2023-08-16_08h48.16.487,HF_wild_card,2022.2.4,Win32,59.60541217,611f672bc947518ca8b25524,64d2fd46c836a06233681665,64dc7f2a4469f04705c86d21,,,,,,,decisionTrl,resources/DY.BMP,resources/DB.BMP,Door2,-0.144736842,0.005847953,1,0,0,0.5124,optionLeft,20,3350,2,19,0,19,0,1,,,,,,,,,,,,,,,,,,,,,,,,,,,,,,,,,,,,,,,
,,,,,,,,2023-08-16_08h48.16.487,HF_wild_card,2022.2.4,Win32,59.60541217,611f672bc947518ca8b25524,64d2fd46c836a06233681665,64dc7f2a4469f04705c86d21,,,,,,,decisionTrl,resources/DBN.BMP,resources/DR.BMP,Door4,-0.229532164,0.024853801,1,0,0,0.6873,optionLeft,80,3430,2,20,0,20,0,1,,,,,,,,,,,,,,,,,,,,,,,,,,,,,,,,,,,,,,,
,,,,,,,,2023-08-16_08h48.16.487,HF_wild_card,2022.2.4,Win32,59.60541217,611f672bc947518ca8b25524,64d2fd46c836a06233681665,64dc7f2a4469f04705c86d21,,,,,,,decisionTrl,resources/DR.BMP,resources/DB.BMP,WildCard_Ex,-0.141812865,0.001461988,1,0,0,0.7132,optionLeft,95,3525,2,21,0,21,0,1,,,,,,,,,,,,,,,,,,,,,,,,,,,,,,,,,,,,,,,
,,,,,,,,2023-08-16_08h48.16.487,HF_wild_card,2022.2.4,Win32,59.60541217,611f672bc947518ca8b25524,64d2fd46c836a06233681665,64dc7f2a4469f04705c86d21,,,,,,,decisionTrl,resources/DR.BMP,resources/DBN.BMP,WildCard_Ex,-0.179824561,0.019005848,1,0,0,0.5273,optionLeft,5,3530,2,22,0,22,0,1,,,,,,,,,,,,,,,,,,,,,,,,,,,,,,,,,,,,,,,
,,,,,,,,2023-08-16_08h48.16.487,HF_wild_card,2022.2.4,Win32,59.60541217,611f672bc947518ca8b25524,64d2fd46c836a06233681665,64dc7f2a4469f04705c86d21,,,,,,,ctch,resources/DY.BMP,resources/DG.BMP,Door3,0.320175439,-0.040935673,1,0,0,0.779,optionRight,70,3600,2,23,0,23,0,1,,,,,,,,,,,,,,,,,,,,,,,,,,,,,,,,,,,,,,,
,,,,,,,,2023-08-16_08h48.16.487,HF_wild_card,2022.2.4,Win32,59.60541217,611f672bc947518ca8b25524,64d2fd46c836a06233681665,64dc7f2a4469f04705c86d21,,,,,,,decisionTrl,resources/DBN.BMP,resources/DG.BMP,Door4,-0.156432749,0.004385965,1,0,0,0.663,optionLeft,80,3680,2,24,0,24,0,1,,,,,,,,,,,,,,,,,,,,,,,,,,,,,,,,,,,,,,,
,,,,,,,,2023-08-16_08h48.16.487,HF_wild_card,2022.2.4,Win32,59.60541217,611f672bc947518ca8b25524,64d2fd46c836a06233681665,64dc7f2a4469f04705c86d21,,,,,,,sngl,resources/DB.BMP,resources/Empty.png,Door1,-0.18128655,0.010233918,1,0,0,0.5129,optionLeft,30,3710,2,25,0,25,0,1,,,,,,,,,,,,,,,,,,,,,,,,,,,,,,,,,,,,,,,
,,,,,,,,2023-08-16_08h48.16.487,HF_wild_card,2022.2.4,Win32,59.60541217,611f672bc947518ca8b25524,64d2fd46c836a06233681665,64dc7f2a4469f04705c86d21,,,,,,,ctch,resources/DY.BMP,resources/DG.BMP,Door3,0.176900585,0.002923977,1,0,0,0.8957,optionRight,70,3780,2,26,0,26,0,1,,,,,,,,,,,,,,,,,,,,,,,,,,,,,,,,,,,,,,,
,,,,,,,,2023-08-16_08h48.16.487,HF_wild_card,2022.2.4,Win32,59.60541217,611f672bc947518ca8b25524,64d2fd46c836a06233681665,64dc7f2a4469f04705c86d21,,,,,,,sngl,resources/Empty.png,resources/DY.BMP,Door2,0.242690058,-0.005847953,1,0,0,0.5674,optionRight,40,3820,2,27,0,27,0,1,,,,,,,,,,,,,,,,,,,,,,,,,,,,,,,,,,,,,,,
,,,,,,,,2023-08-16_08h48.16.487,HF_wild_card,2022.2.4,Win32,59.60541217,611f672bc947518ca8b25524,64d2fd46c836a06233681665,64dc7f2a4469f04705c86d21,,,,,,,decisionTrl,resources/DY.BMP,resources/DR.BMP,WildCard_Ex,0.299707602,-0.032163743,1,0,0,1.798,optionRight,95,3915,2,28,0,28,0,1,,,,,,,,,,,,,,,,,,,,,,,,,,,,,,,,,,,,,,,
,,,,,,,,2023-08-16_08h48.16.487,HF_wild_card,2022.2.4,Win32,59.60541217,611f672bc947518ca8b25524,64d2fd46c836a06233681665,64dc7f2a4469f04705c86d21,,,,,,,sngl,resources/Empty.png,resources/DR.BMP,WildCard_Ex,0.304093567,-0.011695906,1,0,0,0.467,optionRight,5,3920,2,29,0,29,0,1,,,,,,,,,,,,,,,,,,,,,,,,,,,,,,,,,,,,,,,
,,,,,,,,2023-08-16_08h48.16.487,HF_wild_card,2022.2.4,Win32,59.60541217,611f672bc947518ca8b25524,64d2fd46c836a06233681665,64dc7f2a4469f04705c86d21,,,,,,,sngl,resources/Empty.png,resources/DB.BMP,Door1,0.244152047,-0.021929825,1,0,0,0.5246,optionRight,30,3950,2,30,0,30,0,1,,,,,,,,,,,,,,,,,,,,,,,,,,,,,,,,,,,,,,,
,,,,,,,,2023-08-16_08h48.16.487,HF_wild_card,2022.2.4,Win32,59.60541217,611f672bc947518ca8b25524,64d2fd46c836a06233681665,64dc7f2a4469f04705c86d21,,,,,,,ctch,resources/DB.BMP,resources/DBN.BMP,Door4,0.168128655,0.01754386,1,0,0,0.8464,optionRight,60,4010,2,31,0,31,0,1,,,,,,,,,,,,,,,,,,,,,,,,,,,,,,,,,,,,,,,
,,,,,,,,2023-08-16_08h48.16.487,HF_wild_card,2022.2.4,Win32,59.60541217,611f672bc947518ca8b25524,64d2fd46c836a06233681665,64dc7f2a4469f04705c86d21,,,,,,,ctch,resources/DBN.BMP,resources/DB.BMP,Door4,-0.194444444,-0.00877193,1,0,0,0.6342,optionLeft,80,4090,2,32,0,32,0,1,,,,,,,,,,,,,,,,,,,,,,,,,,,,,,,,,,,,,,,
,,,,,,,,2023-08-16_08h48.16.487,HF_wild_card,2022.2.4,Win32,59.60541217,611f672bc947518ca8b25524,64d2fd46c836a06233681665,64dc7f2a4469f04705c86d21,,,,,,,decisionTrl,resources/DB.BMP,resources/DY.BMP,Door1,-0.116959064,0.00877193,1,0,0,0.9956,optionLeft,30,4120,2,33,0,33,0,1,,,,,,,,,,,,,,,,,,,,,,,,,,,,,,,,,,,,,,,
,,,,,,,,2023-08-16_08h48.16.487,HF_wild_card,2022.2.4,Win32,59.60541217,611f672bc947518ca8b25524,64d2fd46c836a06233681665,64dc7f2a4469f04705c86d21,,,,,,,decisionTrl,resources/DY.BMP,resources/DB.BMP,Door1,0.214912281,-0.016081871,1,0,0,0.6631,optionRight,30,4150,2,34,0,34,0,1,,,,,,,,,,,,,,,,,,,,,,,,,,,,,,,,,,,,,,,
,,,,,,,,2023-08-16_08h48.16.487,HF_wild_card,2022.2.4,Win32,59.60541217,611f672bc947518ca8b25524,64d2fd46c836a06233681665,64dc7f2a4469f04705c86d21,,,,,,,sngl,resources/DBN.BMP,resources/Empty.png,Door4,-0.219298246,0.016081871,1,0,0,0.4993,optionLeft,60,4210,2,35,0,35,0,1,,,,,,,,,,,,,,,,,,,,,,,,,,,,,,,,,,,,,,,
,,,,,,,,2023-08-16_08h48.16.487,HF_wild_card,2022.2.4,Win32,59.60541217,611f672bc947518ca8b25524,64d2fd46c836a06233681665,64dc7f2a4469f04705c86d21,,,,,,,decisionTrl,resources/DBN.BMP,resources/DG.BMP,Door4,-0.217836257,-0.00877193,1,0,0,0.5789,optionLeft,80,4290,2,36,0,36,0,1,,,,,,,,,,,,,,,,,,,,,,,,,,,,,,,,,,,,,,,
,,,,,,,,2023-08-16_08h48.16.487,HF_wild_card,2022.2.4,Win32,59.60541217,611f672bc947518ca8b25524,64d2fd46c836a06233681665,64dc7f2a4469f04705c86d21,,,,,,,decisionTrl,resources/DG.BMP,resources/DBN.BMP,Door4,0.39619883,-0.043859649,1,0,0,0.531,optionRight,80,4370,2,37,0,37,0,1,,,,,,,,,,,,,,,,,,,,,,,,,,,,,,,,,,,,,,,
,,,,,,,,2023-08-16_08h48.16.487,HF_wild_card,2022.2.4,Win32,59.60541217,611f672bc947518ca8b25524,64d2fd46c836a06233681665,64dc7f2a4469f04705c86d21,,,,,,,ctch,resources/DBN.BMP,resources/DB.BMP,Door4,-0.160818713,-0.00877193,1,0,0,0.5146,optionLeft,60,4430,2,38,0,38,0,1,,,,,,,,,,,,,,,,,,,,,,,,,,,,,,,,,,,,,,,
,,,,,,,,2023-08-16_08h48.16.487,HF_wild_card,2022.2.4,Win32,59.60541217,611f672bc947518ca8b25524,64d2fd46c836a06233681665,64dc7f2a4469f04705c86d21,,,,,,,ctch,resources/DB.BMP,resources/DBN.BMP,Door4,0.330409357,-0.023391813,1,0,0,0.5286,optionRight,80,4510,2,39,0,39,0,1,,,,,,,,,,,,,,,,,,,,,,,,,,,,,,,,,,,,,,,
,,,,,,,,2023-08-16_08h48.16.487,HF_wild_card,2022.2.4,Win32,59.60541217,611f672bc947518ca8b25524,64d2fd46c836a06233681665,64dc7f2a4469f04705c86d21,,,,,,,sngl,resources/DY.BMP,resources/Empty.png,Door2,-0.187134503,0.002923977,1,0,0,0.6653,optionLeft,20,4530,2,40,0,40,0,1,,,,,,,,,,,,,,,,,,,,,,,,,,,,,,,,,,,,,,,
,,,,,,,,2023-08-16_08h48.16.487,HF_wild_card,2022.2.4,Win32,59.60541217,611f672bc947518ca8b25524,64d2fd46c836a06233681665,64dc7f2a4469f04705c86d21,,,,,,,decisionTrl,resources/DB.BMP,resources/DY.BMP,Door1,-0.133040936,-0.004385965,1,0,0,0.8295,optionLeft,30,4560,2,41,0,41,0,1,,,,,,,,,,,,,,,,,,,,,,,,,,,,,,,,,,,,,,,
,,,,,,,,2023-08-16_08h48.16.487,HF_wild_card,2022.2.4,Win32,59.60541217,611f672bc947518ca8b25524,64d2fd46c836a06233681665,64dc7f2a4469f04705c86d21,,,,,,,decisionTrl,resources/DB.BMP,resources/DY.BMP,Door1,-0.14619883,-0.004385965,1,0,0,0.8652,optionLeft,30,4590,2,42,0,42,0,1,,,,,,,,,,,,,,,,,,,,,,,,,,,,,,,,,,,,,,,
,,,,,,,,2023-08-16_08h48.16.487,HF_wild_card,2022.2.4,Win32,59.60541217,611f672bc947518ca8b25524,64d2fd46c836a06233681665,64dc7f2a4469f04705c86d21,,,,,,,ctch,resources/DG.BMP,resources/DY.BMP,Door3,-0.153508772,0.001461988,1,0,0,0.5951,optionLeft,70,4660,2,43,0,43,0,1,,,,,,,,,,,,,,,,,,,,,,,,,,,,,,,,,,,,,,,
,,,,,,,,2023-08-16_08h48.16.487,HF_wild_card,2022.2.4,Win32,59.60541217,611f672bc947518ca8b25524,64d2fd46c836a06233681665,64dc7f2a4469f04705c86d21,,,,,,,,,,,,,,,,,,,,,,,,,,1,0,1,0,1,,,,,,,,,,,,,,,,,,,,,,,,,,,,,,,,,,
,,,,,,,,2023-08-16_08h48.16.487,HF_wild_card,2022.2.4,Win32,59.60541217,611f672bc947518ca8b25524,64d2fd46c836a06233681665,64dc7f2a4469f04705c86d21,,,,,,,sngl,resources/DB.BMP,resources/Empty.png,Door1,-0.25877193,-0.160818713,1,0,0,0.8021,optionLeft,30,4690,3,0,0,0,0,1,,,,,,,,,,,,,,,,,,,,,,,,,,,,,,,,,,,,,,,
,,,,,,,,2023-08-16_08h48.16.487,HF_wild_card,2022.2.4,Win32,59.60541217,611f672bc947518ca8b25524,64d2fd46c836a06233681665,64dc7f2a4469f04705c86d21,,,,,,,ctch,resources/DY.BMP,resources/DG.BMP,Door3,0.282163743,0.00877193,1,0,0,0.9041,optionRight,70,4760,3,1,0,1,0,1,,,,,,,,,,,,,,,,,,,,,,,,,,,,,,,,,,,,,,,
,,,,,,,,2023-08-16_08h48.16.487,HF_wild_card,2022.2.4,Win32,59.60541217,611f672bc947518ca8b25524,64d2fd46c836a06233681665,64dc7f2a4469f04705c86d21,,,,,,,ctch,resources/DB.BMP,resources/DBN.BMP,Door4,0.248538012,0.023391813,1,0,0,0.597,optionRight,80,4840,3,2,0,2,0,1,,,,,,,,,,,,,,,,,,,,,,,,,,,,,,,,,,,,,,,
,,,,,,,,2023-08-16_08h48.16.487,HF_wild_card,2022.2.4,Win32,59.60541217,611f672bc947518ca8b25524,64d2fd46c836a06233681665,64dc7f2a4469f04705c86d21,,,,,,,ctch,resources/DY.BMP,resources/DG.BMP,Door3,0.198830409,-0.007309942,1,0,0,0.6623,optionRight,70,4910,3,3,0,3,0,1,,,,,,,,,,,,,,,,,,,,,,,,,,,,,,,,,,,,,,,
,,,,,,,,2023-08-16_08h48.16.487,HF_wild_card,2022.2.4,Win32,59.60541217,611f672bc947518ca8b25524,64d2fd46c836a06233681665,64dc7f2a4469f04705c86d21,,,,,,,decisionTrl,resources/DY.BMP,resources/DR.BMP,WildCard_Ex,0.213450292,0.002923977,1,0,0,0.7276,optionRight,5,4915,3,4,0,4,0,1,,,,,,,,,,,,,,,,,,,,,,,,,,,,,,,,,,,,,,,
,,,,,,,,2023-08-16_08h48.16.487,HF_wild_card,2022.2.4,Win32,59.60541217,611f672bc947518ca8b25524,64d2fd46c836a06233681665,64dc7f2a4469f04705c86d21,,,,,,,decisionTrl,resources/DR.BMP,resources/DB.BMP,WildCard_Ex,-0.173976608,-0.005847953,1,0,0,0.4782,optionLeft,95,5010,3,5,0,5,0,1,,,,,,,,,,,,,,,,,,,,,,,,,,,,,,,,,,,,,,,
,,,,,,,,2023-08-16_08h48.16.487,HF_wild_card,2022.2.4,Win32,59.60541217,611f672bc947518ca8b25524,64d2fd46c836a06233681665,64dc7f2a4469f04705c86d21,,,,,,,sngl,resources/DR.BMP,resources/Empty.png,WildCard_Ex,-0.191520468,0.016081871,1,0,0,0.4604,optionLeft,95,5105,3,6,0,6,0,1,,,,,,,,,,,,,,,,,,,,,,,,,,,,,,,,,,,,,,,
,,,,,,,,2023-08-16_08h48.16.487,HF_wild_card,2022.2.4,Win32,59.60541217,611f672bc947518ca8b25524,64d2fd46c836a06233681665,64dc7f2a4469f04705c86d21,,,,,,,decisionTrl,resources/DR.BMP,resources/DBN.BMP,WildCard_Ex,-0.204678363,0,1,0,0,0.4802,optionLeft,95,5200,3,7,0,7,0,1,,,,,,,,,,,,,,,,,,,,,,,,,,,,,,,,,,,,,,,
,,,,,,,,2023-08-16_08h48.16.487,HF_wild_card,2022.2.4,Win32,59.60541217,611f672bc947518ca8b25524,64d2fd46c836a06233681665,64dc7f2a4469f04705c86d21,,,,,,,sngl,resources/DR.BMP,resources/Empty.png,WildCard_Ex,-0.198830409,-0.011695906,1,0,0,0.4628,optionLeft,5,5205,3,8,0,8,0,1,,,,,,,,,,,,,,,,,,,,,,,,,,,,,,,,,,,,,,,
,,,,,,,,2023-08-16_08h48.16.487,HF_wild_card,2022.2.4,Win32,59.60541217,611f672bc947518ca8b25524,64d2fd46c836a06233681665,64dc7f2a4469f04705c86d21,,,,,,,decisionTrl,resources/DY.BMP,resources/DB.BMP,Door1,0.257309942,-0.026315789,1,0,0,0.7011,optionRight,30,5235,3,9,0,9,0,1,,,,,,,,,,,,,,,,,,,,,,,,,,,,,,,,,,,,,,,
,,,,,,,,2023-08-16_08h48.16.487,HF_wild_card,2022.2.4,Win32,59.60541217,611f672bc947518ca8b25524,64d2fd46c836a06233681665,64dc7f2a4469f04705c86d21,,,,,,,decisionTrl,resources/DG.BMP,resources/DBN.BMP,Door4,0.254385965,-0.007309942,1,0,0,0.5299,optionRight,60,5295,3,10,0,10,0,1,,,,,,,,,,,,,,,,,,,,,,,,,,,,,,,,,,,,,,,
,,,,,,,,2023-08-16_08h48.16.487,HF_wild_card,2022.2.4,Win32,59.60541217,611f672bc947518ca8b25524,64d2fd46c836a06233681665,64dc7f2a4469f04705c86d21,,,,,,,sngl,resources/Empty.png,resources/DY.BMP,Door2,0.263157895,0.005847953,1,0,0,0.5672,optionRight,20,5315,3,11,0,11,0,1,,,,,,,,,,,,,,,,,,,,,,,,,,,,,,,,,,,,,,,
,,,,,,,,2023-08-16_08h48.16.487,HF_wild_card,2022.2.4,Win32,59.60541217,611f672bc947518ca8b25524,64d2fd46c836a06233681665,64dc7f2a4469f04705c86d21,,,,,,,sngl,resources/Empty.png,resources/DR.BMP,WildCard_Ex,0.25,-0.002923977,1,0,0,0.5282,optionRight,95,5410,3,12,0,12,0,1,,,,,,,,,,,,,,,,,,,,,,,,,,,,,,,,,,,,,,,
,,,,,,,,2023-08-16_08h48.16.487,HF_wild_card,2022.2.4,Win32,59.60541217,611f672bc947518ca8b25524,64d2fd46c836a06233681665,64dc7f2a4469f04705c86d21,,,,,,,decisionTrl,resources/DB.BMP,resources/DR.BMP,WildCard_Ex,0.285087719,0.005847953,1,0,0,0.4619,optionRight,5,5415,3,13,0,13,0,1,,,,,,,,,,,,,,,,,,,,,,,,,,,,,,,,,,,,,,,
,,,,,,,,2023-08-16_08h48.16.487,HF_wild_card,2022.2.4,Win32,59.60541217,611f672bc947518ca8b25524,64d2fd46c836a06233681665,64dc7f2a4469f04705c86d21,,,,,,,decisionTrl,resources/DG.BMP,resources/DBN.BMP,Door4,0.222222222,-0.002923977,1,0,0,0.5288,optionRight,60,5475,3,14,0,14,0,1,,,,,,,,,,,,,,,,,,,,,,,,,,,,,,,,,,,,,,,
,,,,,,,,2023-08-16_08h48.16.487,HF_wild_card,2022.2.4,Win32,59.60541217,611f672bc947518ca8b25524,64d2fd46c836a06233681665,64dc7f2a4469f04705c86d21,,,,,,,decisionTrl,resources/DBN.BMP,resources/DG.BMP,Door4,-0.251461988,0.039473684,1,0,0,0.5623,optionLeft,80,5555,3,15,0,15,0,1,,,,,,,,,,,,,,,,,,,,,,,,,,,,,,,,,,,,,,,
,,,,,,,,2023-08-16_08h48.16.487,HF_wild_card,2022.2.4,Win32,59.60541217,611f672bc947518ca8b25524,64d2fd46c836a06233681665,64dc7f2a4469f04705c86d21,,,,,,,decisionTrl,resources/DG.BMP,resources/DR.BMP,Door3,-0.277777778,0.019005848,1,0,0,0.4819,optionLeft,70,5625,3,16,0,16,0,1,,,,,,,,,,,,,,,,,,,,,,,,,,,,,,,,,,,,,,,
,,,,,,,,2023-08-16_08h48.16.487,HF_wild_card,2022.2.4,Win32,59.60541217,611f672bc947518ca8b25524,64d2fd46c836a06233681665,64dc7f2a4469f04705c86d21,,,,,,,sngl,resources/Empty.png,resources/DR.BMP,WildCard_Ex,0.197368421,-0.007309942,1,0,0,0.4785,optionRight,5,5630,3,17,0,17,0,1,,,,,,,,,,,,,,,,,,,,,,,,,,,,,,,,,,,,,,,
,,,,,,,,2023-08-16_08h48.16.487,HF_wild_card,2022.2.4,Win32,59.60541217,611f672bc947518ca8b25524,64d2fd46c836a06233681665,64dc7f2a4469f04705c86d21,,,,,,,ctch,resources/DBN.BMP,resources/DB.BMP,Door4,-0.195906433,0,1,0,0,0.496,optionLeft,80,5710,3,18,0,18,0,1,,,,,,,,,,,,,,,,,,,,,,,,,,,,,,,,,,,,,,,
,,,,,,,,2023-08-16_08h48.16.487,HF_wild_card,2022.2.4,Win32,59.60541217,611f672bc947518ca8b25524,64d2fd46c836a06233681665,64dc7f2a4469f04705c86d21,,,,,,,decisionTrl,resources/DB.BMP,resources/DY.BMP,Door1,-0.254385965,0.021929825,1,0,0,0.5611,optionLeft,30,5740,3,19,0,19,0,1,,,,,,,,,,,,,,,,,,,,,,,,,,,,,,,,,,,,,,,
,,,,,,,,2023-08-16_08h48.16.487,HF_wild_card,2022.2.4,Win32,59.60541217,611f672bc947518ca8b25524,64d2fd46c836a06233681665,64dc7f2a4469f04705c86d21,,,,,,,decisionTrl,resources/DG.BMP,resources/DBN.BMP,Door4,0.235380117,-0.011695906,1,0,0,0.5135,optionRight,60,5800,3,20,0,20,0,1,,,,,,,,,,,,,,,,,,,,,,,,,,,,,,,,,,,,,,,
,,,,,,,,2023-08-16_08h48.16.487,HF_wild_card,2022.2.4,Win32,59.60541217,611f672bc947518ca8b25524,64d2fd46c836a06233681665,64dc7f2a4469f04705c86d21,,,,,,,sngl,resources/Empty.png,resources/DG.BMP,Door3,0.222222222,-0.004385965,1,0,0,0.4958,optionRight,70,5870,3,21,0,21,0,1,,,,,,,,,,,,,,,,,,,,,,,,,,,,,,,,,,,,,,,
,,,,,,,,2023-08-16_08h48.16.487,HF_wild_card,2022.2.4,Win32,59.60541217,611f672bc947518ca8b25524,64d2fd46c836a06233681665,64dc7f2a4469f04705c86d21,,,,,,,decisionTrl,resources/DBN.BMP,resources/DR.BMP,Door4,-0.239766082,0.001461988,1,0,0,0.513,optionLeft,80,5950,3,22,0,22,0,1,,,,,,,,,,,,,,,,,,,,,,,,,,,,,,,,,,,,,,,
,,,,,,,,2023-08-16_08h48.16.487,HF_wild_card,2022.2.4,Win32,59.60541217,611f672bc947518ca8b25524,64d2fd46c836a06233681665,64dc7f2a4469f04705c86d21,,,,,,,decisionTrl,resources/DB.BMP,resources/DY.BMP,Door1,-0.201754386,0.004385965,1,0,0,0.4844,optionLeft,30,5980,3,23,0,23,0,1,,,,,,,,,,,,,,,,,,,,,,,,,,,,,,,,,,,,,,,
,,,,,,,,2023-08-16_08h48.16.487,HF_wild_card,2022.2.4,Win32,59.60541217,611f672bc947518ca8b25524,64d2fd46c836a06233681665,64dc7f2a4469f04705c86d21,,,,,,,decisionTrl,resources/DBN.BMP,resources/DG.BMP,Door4,-0.19005848,-0.001461988,1,0,0,0.4799,optionLeft,60,6040,3,24,0,24,0,1,,,,,,,,,,,,,,,,,,,,,,,,,,,,,,,,,,,,,,,
,,,,,,,,2023-08-16_08h48.16.487,HF_wild_card,2022.2.4,Win32,59.60541217,611f672bc947518ca8b25524,64d2fd46c836a06233681665,64dc7f2a4469f04705c86d21,,,,,,,ctch,resources/DG.BMP,resources/DY.BMP,Door3,-0.187134503,-0.005847953,1,0,0,0.5128,optionLeft,70,6110,3,25,0,25,0,1,,,,,,,,,,,,,,,,,,,,,,,,,,,,,,,,,,,,,,,
,,,,,,,,2023-08-16_08h48.16.487,HF_wild_card,2022.2.4,Win32,59.60541217,611f672bc947518ca8b25524,64d2fd46c836a06233681665,64dc7f2a4469f04705c86d21,,,,,,,ctch,resources/DBN.BMP,resources/DB.BMP,Door4,-0.162280702,0.001461988,1,0,0,0.5463,optionLeft,80,6190,3,26,0,26,0,1,,,,,,,,,,,,,,,,,,,,,,,,,,,,,,,,,,,,,,,
,,,,,,,,2023-08-16_08h48.16.487,HF_wild_card,2022.2.4,Win32,59.60541217,611f672bc947518ca8b25524,64d2fd46c836a06233681665,64dc7f2a4469f04705c86d21,,,,,,,sngl,resources/DBN.BMP,resources/Empty.png,Door4,-0.18128655,0.002923977,1,0,0,0.4115,optionLeft,80,6270,3,27,0,27,0,1,,,,,,,,,,,,,,,,,,,,,,,,,,,,,,,,,,,,,,,
,,,,,,,,2023-08-16_08h48.16.487,HF_wild_card,2022.2.4,Win32,59.60541217,611f672bc947518ca8b25524,64d2fd46c836a06233681665,64dc7f2a4469f04705c86d21,,,,,,,sngl,resources/DY.BMP,resources/Empty.png,Door2,-0.19005848,0.019005848,1,0,0,0.4796,optionLeft,40,6310,3,28,0,28,0,1,,,,,,,,,,,,,,,,,,,,,,,,,,,,,,,,,,,,,,,
,,,,,,,,2023-08-16_08h48.16.487,HF_wild_card,2022.2.4,Win32,59.60541217,611f672bc947518ca8b25524,64d2fd46c836a06233681665,64dc7f2a4469f04705c86d21,,,,,,,ctch,resources/DG.BMP,resources/DY.BMP,Door3,-0.135964912,0.005847953,1,0,0,0.5636,optionLeft,70,6380,3,29,0,29,0,1,,,,,,,,,,,,,,,,,,,,,,,,,,,,,,,,,,,,,,,
,,,,,,,,2023-08-16_08h48.16.487,HF_wild_card,2022.2.4,Win32,59.60541217,611f672bc947518ca8b25524,64d2fd46c836a06233681665,64dc7f2a4469f04705c86d21,,,,,,,decisionTrl,resources/DG.BMP,resources/DBN.BMP,Door4,0.152046784,-0.00877193,1,0,0,0.5942,optionRight,60,6440,3,30,0,30,0,1,,,,,,,,,,,,,,,,,,,,,,,,,,,,,,,,,,,,,,,
,,,,,,,,2023-08-16_08h48.16.487,HF_wild_card,2022.2.4,Win32,59.60541217,611f672bc947518ca8b25524,64d2fd46c836a06233681665,64dc7f2a4469f04705c86d21,,,,,,,sngl,resources/Empty.png,resources/DBN.BMP,Door4,0.226608187,0.001461988,1,0,0,0.4952,optionRight,60,6500,3,31,0,31,0,1,,,,,,,,,,,,,,,,,,,,,,,,,,,,,,,,,,,,,,,
,,,,,,,,2023-08-16_08h48.16.487,HF_wild_card,2022.2.4,Win32,59.60541217,611f672bc947518ca8b25524,64d2fd46c836a06233681665,64dc7f2a4469f04705c86d21,,,,,,,sngl,resources/DG.BMP,resources/Empty.png,Door3,-0.204678363,-0.005847953,1,0,0,0.4461,optionLeft,70,6570,3,32,0,32,0,1,,,,,,,,,,,,,,,,,,,,,,,,,,,,,,,,,,,,,,,
,,,,,,,,2023-08-16_08h48.16.487,HF_wild_card,2022.2.4,Win32,59.60541217,611f672bc947518ca8b25524,64d2fd46c836a06233681665,64dc7f2a4469f04705c86d21,,,,,,,decisionTrl,resources/DBN.BMP,resources/DG.BMP,Door4,-0.25,0.004385965,1,0,0,0.5513,optionLeft,60,6630,3,33,0,33,0,1,,,,,,,,,,,,,,,,,,,,,,,,,,,,,,,,,,,,,,,
,,,,,,,,2023-08-16_08h48.16.487,HF_wild_card,2022.2.4,Win32,59.60541217,611f672bc947518ca8b25524,64d2fd46c836a06233681665,64dc7f2a4469f04705c86d21,,,,,,,decisionTrl,resources/DBN.BMP,resources/DG.BMP,Door4,-0.238304094,-0.001461988,1,0,0,0.6169,optionLeft,60,6690,3,34,0,34,0,1,,,,,,,,,,,,,,,,,,,,,,,,,,,,,,,,,,,,,,,
,,,,,,,,2023-08-16_08h48.16.487,HF_wild_card,2022.2.4,Win32,59.60541217,611f672bc947518ca8b25524,64d2fd46c836a06233681665,64dc7f2a4469f04705c86d21,,,,,,,ctch,resources/DB.BMP,resources/DBN.BMP,Door4,0.188596491,0.016081871,1,0,0,0.5322,optionRight,60,6750,3,35,0,35,0,1,,,,,,,,,,,,,,,,,,,,,,,,,,,,,,,,,,,,,,,
,,,,,,,,2023-08-16_08h48.16.487,HF_wild_card,2022.2.4,Win32,59.60541217,611f672bc947518ca8b25524,64d2fd46c836a06233681665,64dc7f2a4469f04705c86d21,,,,,,,sngl,resources/Empty.png,resources/DB.BMP,Door1,0.257309942,-0.004385965,1,0,0,0.4408,optionRight,30,6780,3,36,0,36,0,1,,,,,,,,,,,,,,,,,,,,,,,,,,,,,,,,,,,,,,,
,,,,,,,,2023-08-16_08h48.16.487,HF_wild_card,2022.2.4,Win32,59.60541217,611f672bc947518ca8b25524,64d2fd46c836a06233681665,64dc7f2a4469f04705c86d21,,,,,,,decisionTrl,resources/DB.BMP,resources/DY.BMP,Door1,-0.203216374,-0.007309942,1,0,0,0.477,optionLeft,30,6810,3,37,0,37,0,1,,,,,,,,,,,,,,,,,,,,,,,,,,,,,,,,,,,,,,,
,,,,,,,,2023-08-16_08h48.16.487,HF_wild_card,2022.2.4,Win32,59.60541217,611f672bc947518ca8b25524,64d2fd46c836a06233681665,64dc7f2a4469f04705c86d21,,,,,,,decisionTrl,resources/DR.BMP,resources/DY.BMP,WildCard_Ex,-0.264619883,0.014619883,1,0,0,0.4973,optionLeft,5,6815,3,38,0,38,0,1,,,,,,,,,,,,,,,,,,,,,,,,,,,,,,,,,,,,,,,
,,,,,,,,2023-08-16_08h48.16.487,HF_wild_card,2022.2.4,Win32,59.60541217,611f672bc947518ca8b25524,64d2fd46c836a06233681665,64dc7f2a4469f04705c86d21,,,,,,,decisionTrl,resources/DY.BMP,resources/DB.BMP,Door1,0.257309942,-0.030701754,1,0,0,0.7834,optionRight,30,6845,3,39,0,39,0,1,,,,,,,,,,,,,,,,,,,,,,,,,,,,,,,,,,,,,,,
,,,,,,,,2023-08-16_08h48.16.487,HF_wild_card,2022.2.4,Win32,59.60541217,611f672bc947518ca8b25524,64d2fd46c836a06233681665,64dc7f2a4469f04705c86d21,,,,,,,decisionTrl,resources/DB.BMP,resources/DY.BMP,Door1,-0.220760234,0.005847953,1,0,0,0.5257,optionLeft,30,6875,3,40,0,40,0,1,,,,,,,,,,,,,,,,,,,,,,,,,,,,,,,,,,,,,,,
,,,,,,,,2023-08-16_08h48.16.487,HF_wild_card,2022.2.4,Win32,59.60541217,611f672bc947518ca8b25524,64d2fd46c836a06233681665,64dc7f2a4469f04705c86d21,,,,,,,decisionTrl,resources/DY.BMP,resources/DB.BMP,Door1,0.229532164,-0.010233918,1,0,0,0.4787,optionRight,30,6905,3,41,0,41,0,1,,,,,,,,,,,,,,,,,,,,,,,,,,,,,,,,,,,,,,,
,,,,,,,,2023-08-16_08h48.16.487,HF_wild_card,2022.2.4,Win32,59.60541217,611f672bc947518ca8b25524,64d2fd46c836a06233681665,64dc7f2a4469f04705c86d21,,,,,,,decisionTrl,resources/DY.BMP,resources/DB.BMP,Door1,0.255847953,-0.014619883,1,0,0,0.4761,optionRight,30,6935,3,42,0,42,0,1,,,,,,,,,,,,,,,,,,,,,,,,,,,,,,,,,,,,,,,
,,,,,,,,2023-08-16_08h48.16.487,HF_wild_card,2022.2.4,Win32,59.60541217,611f672bc947518ca8b25524,64d2fd46c836a06233681665,64dc7f2a4469f04705c86d21,,,,,,,decisionTrl,resources/DR.BMP,resources/DG.BMP,WildCard_Ex,-0.166666667,-0.027777778,1,0,0,3.3304,optionLeft,95,7030,3,43,0,43,0,1,,,,,,,,,,,,,,,,,,,,,,,,,,,,,,,,,,,,,,,
,,,,,,,,2023-08-16_08h48.16.487,HF_wild_card,2022.2.4,Win32,59.60541217,611f672bc947518ca8b25524,64d2fd46c836a06233681665,64dc7f2a4469f04705c86d21,,,,,,,,,,,,,,,,,,,,,,,,,,2,0,2,0,1,,,,,,,,,,,,,,,,,,,,,,,,,,,,,,,,,,
,,,,,,,,2023-08-16_08h48.16.487,HF_wild_card,2022.2.4,Win32,59.60541217,611f672bc947518ca8b25524,64d2fd46c836a06233681665,64dc7f2a4469f04705c86d21,,,,,,,sngl,resources/Empty.png,resources/DBN.BMP,Door4,0.46069869,-0.054585153,1,0,0,0.7287,optionRight,80,7110,4,0,0,0,0,1,,,,,,,,,,,,,,,,,,,,,,,,,,,,,,,,,,,,,,,
,,,,,,,,2023-08-16_08h48.16.487,HF_wild_card,2022.2.4,Win32,59.60541217,611f672bc947518ca8b25524,64d2fd46c836a06233681665,64dc7f2a4469f04705c86d21,,,,,,,ctch,resources/DG.BMP,resources/DY.BMP,Door3,-0.183406114,0.020742358,1,0,0,0.7363,optionLeft,70,7180,4,1,0,1,0,1,,,,,,,,,,,,,,,,,,,,,,,,,,,,,,,,,,,,,,,
,,,,,,,,2023-08-16_08h48.16.487,HF_wild_card,2022.2.4,Win32,59.60541217,611f672bc947518ca8b25524,64d2fd46c836a06233681665,64dc7f2a4469f04705c86d21,,,,,,,decisionTrl,resources/DB.BMP,resources/DP.BMP,WildCard_NonEx,0.278384279,-0.002183406,1,0,0,1.0313,optionRight,45,7225,4,2,0,2,0,1,,,,,,,,,,,,,,,,,,,,,,,,,,,,,,,,,,,,,,,
,,,,,,,,2023-08-16_08h48.16.487,HF_wild_card,2022.2.4,Win32,59.60541217,611f672bc947518ca8b25524,64d2fd46c836a06233681665,64dc7f2a4469f04705c86d21,,,,,,,decisionTrl,resources/DBN.BMP,resources/DG.BMP,Door4,-0.280567686,0.055676856,1,0,0,0.6683,optionLeft,80,7305,4,3,0,3,0,1,,,,,,,,,,,,,,,,,,,,,,,,,,,,,,,,,,,,,,,
,,,,,,,,2023-08-16_08h48.16.487,HF_wild_card,2022.2.4,Win32,59.60541217,611f672bc947518ca8b25524,64d2fd46c836a06233681665,64dc7f2a4469f04705c86d21,,,,,,,decisionTrl,resources/DBN.BMP,resources/DP.BMP,Door4,-0.259825328,0.005458515,1,0,0,0.8279,optionLeft,80,7385,4,4,0,4,0,1,,,,,,,,,,,,,,,,,,,,,,,,,,,,,,,,,,,,,,,
,,,,,,,,2023-08-16_08h48.16.487,HF_wild_card,2022.2.4,Win32,59.60541217,611f672bc947518ca8b25524,64d2fd46c836a06233681665,64dc7f2a4469f04705c86d21,,,,,,,decisionTrl,resources/DG.BMP,resources/DBN.BMP,Door4,0.299126638,-0.061135371,1,0,0,0.6075,optionRight,60,7445,4,5,0,5,0,1,,,,,,,,,,,,,,,,,,,,,,,,,,,,,,,,,,,,,,,
,,,,,,,,2023-08-16_08h48.16.487,HF_wild_card,2022.2.4,Win32,59.60541217,611f672bc947518ca8b25524,64d2fd46c836a06233681665,64dc7f2a4469f04705c86d21,,,,,,,ctch,resources/DB.BMP,resources/DBN.BMP,Door4,0.30349345,-0.037117904,1,0,0,0.5736,optionRight,80,7525,4,6,0,6,0,1,,,,,,,,,,,,,,,,,,,,,,,,,,,,,,,,,,,,,,,
,,,,,,,,2023-08-16_08h48.16.487,HF_wild_card,2022.2.4,Win32,59.60541217,611f672bc947518ca8b25524,64d2fd46c836a06233681665,64dc7f2a4469f04705c86d21,,,,,,,decisionTrl,resources/DB.BMP,resources/DY.BMP,Door1,-0.246724891,0.018558952,1,0,0,1.4638,optionLeft,30,7555,4,7,0,7,0,1,,,,,,,,,,,,,,,,,,,,,,,,,,,,,,,,,,,,,,,
,,,,,,,,2023-08-16_08h48.16.487,HF_wild_card,2022.2.4,Win32,59.60541217,611f672bc947518ca8b25524,64d2fd46c836a06233681665,64dc7f2a4469f04705c86d21,,,,,,,decisionTrl,resources/DP.BMP,resources/DG.BMP,WildCard_NonEx,-0.227074236,-0.001091703,1,0,0,0.8977,optionLeft,45,7600,4,8,0,8,0,1,,,,,,,,,,,,,,,,,,,,,,,,,,,,,,,,,,,,,,,
,,,,,,,,2023-08-16_08h48.16.487,HF_wild_card,2022.2.4,Win32,59.60541217,611f672bc947518ca8b25524,64d2fd46c836a06233681665,64dc7f2a4469f04705c86d21,,,,,,,decisionTrl,resources/DBN.BMP,resources/DG.BMP,Door4,-0.129912664,-0.001091703,1,0,0,0.699,optionLeft,80,7680,4,9,0,9,0,1,,,,,,,,,,,,,,,,,,,,,,,,,,,,,,,,,,,,,,,
,,,,,,,,2023-08-16_08h48.16.487,HF_wild_card,2022.2.4,Win32,59.60541217,611f672bc947518ca8b25524,64d2fd46c836a06233681665,64dc7f2a4469f04705c86d21,,,,,,,decisionTrl,resources/DB.BMP,resources/DY.BMP,Door1,-0.266375546,0.01419214,1,0,0,0.8141,optionLeft,30,7710,4,10,0,10,0,1,,,,,,,,,,,,,,,,,,,,,,,,,,,,,,,,,,,,,,,
,,,,,,,,2023-08-16_08h48.16.487,HF_wild_card,2022.2.4,Win32,59.60541217,611f672bc947518ca8b25524,64d2fd46c836a06233681665,64dc7f2a4469f04705c86d21,,,,,,,decisionTrl,resources/DG.BMP,resources/DP.BMP,Door3,-0.203056769,0.024017467,1,0,0,1.7403,optionLeft,70,7780,4,11,0,11,0,1,,,,,,,,,,,,,,,,,,,,,,,,,,,,,,,,,,,,,,,
,,,,,,,,2023-08-16_08h48.16.487,HF_wild_card,2022.2.4,Win32,59.60541217,611f672bc947518ca8b25524,64d2fd46c836a06233681665,64dc7f2a4469f04705c86d21,,,,,,,decisionTrl,resources/DY.BMP,resources/DB.BMP,Door1,0.306768559,-0.006550218,1,0,0,0.7464,optionRight,30,7810,4,12,0,12,0,1,,,,,,,,,,,,,,,,,,,,,,,,,,,,,,,,,,,,,,,
,,,,,,,,2023-08-16_08h48.16.487,HF_wild_card,2022.2.4,Win32,59.60541217,611f672bc947518ca8b25524,64d2fd46c836a06233681665,64dc7f2a4469f04705c86d21,,,,,,,decisionTrl,resources/DP.BMP,resources/DY.BMP,WildCard_NonEx,-0.115720524,0.013100437,1,0,0,0.8203,optionLeft,55,7865,4,13,0,13,0,1,,,,,,,,,,,,,,,,,,,,,,,,,,,,,,,,,,,,,,,
,,,,,,,,2023-08-16_08h48.16.487,HF_wild_card,2022.2.4,Win32,59.60541217,611f672bc947518ca8b25524,64d2fd46c836a06233681665,64dc7f2a4469f04705c86d21,,,,,,,sngl,resources/DP.BMP,resources/Empty.png,WildCard_NonEx,-0.131004367,0.016375546,1,0,0,0.4632,optionLeft,55,7920,4,14,0,14,0,1,,,,,,,,,,,,,,,,,,,,,,,,,,,,,,,,,,,,,,,
,,,,,,,,2023-08-16_08h48.16.487,HF_wild_card,2022.2.4,Win32,59.60541217,611f672bc947518ca8b25524,64d2fd46c836a06233681665,64dc7f2a4469f04705c86d21,,,,,,,ctch,resources/DBN.BMP,resources/DB.BMP,Door4,-0.170305677,0.012008734,1,0,0,0.9093,optionLeft,60,7980,4,15,0,15,0,1,,,,,,,,,,,,,,,,,,,,,,,,,,,,,,,,,,,,,,,
,,,,,,,,2023-08-16_08h48.16.487,HF_wild_card,2022.2.4,Win32,59.60541217,611f672bc947518ca8b25524,64d2fd46c836a06233681665,64dc7f2a4469f04705c86d21,,,,,,,ctch,resources/DG.BMP,resources/DY.BMP,Door3,-0.147379913,-0.001091703,1,0,0,1.0904,optionLeft,70,8050,4,16,0,16,0,1,,,,,,,,,,,,,,,,,,,,,,,,,,,,,,,,,,,,,,,
,,,,,,,,2023-08-16_08h48.16.487,HF_wild_card,2022.2.4,Win32,59.60541217,611f672bc947518ca8b25524,64d2fd46c836a06233681665,64dc7f2a4469f04705c86d21,,,,,,,ctch,resources/DBN.BMP,resources/DB.BMP,Door4,-0.184497817,0.008733624,1,0,0,0.8308,optionLeft,80,8130,4,17,0,17,0,1,,,,,,,,,,,,,,,,,,,,,,,,,,,,,,,,,,,,,,,
,,,,,,,,2023-08-16_08h48.16.487,HF_wild_card,2022.2.4,Win32,59.60541217,611f672bc947518ca8b25524,64d2fd46c836a06233681665,64dc7f2a4469f04705c86d21,,,,,,,sngl,resources/DBN.BMP,resources/Empty.png,Door4,-0.21069869,0.033842795,1,0,0,0.4884,optionLeft,60,8190,4,18,0,18,0,1,,,,,,,,,,,,,,,,,,,,,,,,,,,,,,,,,,,,,,,
,,,,,,,,2023-08-16_08h48.16.487,HF_wild_card,2022.2.4,Win32,59.60541217,611f672bc947518ca8b25524,64d2fd46c836a06233681665,64dc7f2a4469f04705c86d21,,,,,,,ctch,resources/DB.BMP,resources/DBN.BMP,Door4,0.315502183,-0.052401747,1,0,0,0.5462,optionRight,80,8270,4,19,0,19,0,1,,,,,,,,,,,,,,,,,,,,,,,,,,,,,,,,,,,,,,,
,,,,,,,,2023-08-16_08h48.16.487,HF_wild_card,2022.2.4,Win32,59.60541217,611f672bc947518ca8b25524,64d2fd46c836a06233681665,64dc7f2a4469f04705c86d21,,,,,,,decisionTrl,resources/DG.BMP,resources/DBN.BMP,Door4,0.25,-0.022925764,1,0,0,0.5782,optionRight,80,8350,4,20,0,20,0,1,,,,,,,,,,,,,,,,,,,,,,,,,,,,,,,,,,,,,,,
,,,,,,,,2023-08-16_08h48.16.487,HF_wild_card,2022.2.4,Win32,59.60541217,611f672bc947518ca8b25524,64d2fd46c836a06233681665,64dc7f2a4469f04705c86d21,,,,,,,decisionTrl,resources/DG.BMP,resources/DBN.BMP,Door4,0.260917031,-0.029475983,1,0,0,0.4836,optionRight,60,8410,4,21,0,21,0,1,,,,,,,,,,,,,,,,,,,,,,,,,,,,,,,,,,,,,,,
,,,,,,,,2023-08-16_08h48.16.487,HF_wild_card,2022.2.4,Win32,59.60541217,611f672bc947518ca8b25524,64d2fd46c836a06233681665,64dc7f2a4469f04705c86d21,,,,,,,decisionTrl,resources/DY.BMP,resources/DB.BMP,Door1,0.208515284,-0.012008734,1,0,0,0.6203,optionRight,30,8440,4,22,0,22,0,1,,,,,,,,,,,,,,,,,,,,,,,,,,,,,,,,,,,,,,,
,,,,,,,,2023-08-16_08h48.16.487,HF_wild_card,2022.2.4,Win32,59.60541217,611f672bc947518ca8b25524,64d2fd46c836a06233681665,64dc7f2a4469f04705c86d21,,,,,,,decisionTrl,resources/DB.BMP,resources/DY.BMP,Door1,-0.173580786,-0.007641921,1,0,0,0.5789,optionLeft,30,8470,4,23,0,23,0,1,,,,,,,,,,,,,,,,,,,,,,,,,,,,,,,,,,,,,,,
,,,,,,,,2023-08-16_08h48.16.487,HF_wild_card,2022.2.4,Win32,59.60541217,611f672bc947518ca8b25524,64d2fd46c836a06233681665,64dc7f2a4469f04705c86d21,,,,,,,decisionTrl,resources/DP.BMP,resources/DBN.BMP,Door4,0.203056769,-0.030567686,1,0,0,0.6631,optionRight,80,8550,4,24,0,24,0,1,,,,,,,,,,,,,,,,,,,,,,,,,,,,,,,,,,,,,,,
,,,,,,,,2023-08-16_08h48.16.487,HF_wild_card,2022.2.4,Win32,59.60541217,611f672bc947518ca8b25524,64d2fd46c836a06233681665,64dc7f2a4469f04705c86d21,,,,,,,sngl,resources/DG.BMP,resources/Empty.png,Door3,-0.18558952,-0.001091703,1,0,0,0.4284,optionLeft,70,8620,4,25,0,25,0,1,,,,,,,,,,,,,,,,,,,,,,,,,,,,,,,,,,,,,,,
,,,,,,,,2023-08-16_08h48.16.487,HF_wild_card,2022.2.4,Win32,59.60541217,611f672bc947518ca8b25524,64d2fd46c836a06233681665,64dc7f2a4469f04705c86d21,,,,,,,sngl,resources/DY.BMP,resources/Empty.png,Door2,-0.233624454,-0.004366812,1,0,0,0.569,optionLeft,20,8640,4,26,0,26,0,1,,,,,,,,,,,,,,,,,,,,,,,,,,,,,,,,,,,,,,,
,,,,,,,,2023-08-16_08h48.16.487,HF_wild_card,2022.2.4,Win32,59.60541217,611f672bc947518ca8b25524,64d2fd46c836a06233681665,64dc7f2a4469f04705c86d21,,,,,,,decisionTrl,resources/DBN.BMP,resources/DG.BMP,Door4,-0.162663755,-0.015283843,1,0,0,0.5968,optionLeft,80,8720,4,27,0,27,0,1,,,,,,,,,,,,,,,,,,,,,,,,,,,,,,,,,,,,,,,
,,,,,,,,2023-08-16_08h48.16.487,HF_wild_card,2022.2.4,Win32,59.60541217,611f672bc947518ca8b25524,64d2fd46c836a06233681665,64dc7f2a4469f04705c86d21,,,,,,,decisionTrl,resources/DB.BMP,resources/DY.BMP,Door1,-0.269650655,0.007641921,1,0,0,0.9035,optionLeft,30,8750,4,28,0,28,0,1,,,,,,,,,,,,,,,,,,,,,,,,,,,,,,,,,,,,,,,
,,,,,,,,2023-08-16_08h48.16.487,HF_wild_card,2022.2.4,Win32,59.60541217,611f672bc947518ca8b25524,64d2fd46c836a06233681665,64dc7f2a4469f04705c86d21,,,,,,,ctch,resources/DY.BMP,resources/DG.BMP,Door3,0.156113537,-0.007641921,1,0,0,0.6648,optionRight,70,8820,4,29,0,29,0,1,,,,,,,,,,,,,,,,,,,,,,,,,,,,,,,,,,,,,,,
,,,,,,,,2023-08-16_08h48.16.487,HF_wild_card,2022.2.4,Win32,59.60541217,611f672bc947518ca8b25524,64d2fd46c836a06233681665,64dc7f2a4469f04705c86d21,,,,,,,decisionTrl,resources/DY.BMP,resources/DB.BMP,Door1,0.217248908,0.008733624,1,0,0,0.6867,optionRight,30,8850,4,30,0,30,0,1,,,,,,,,,,,,,,,,,,,,,,,,,,,,,,,,,,,,,,,
,,,,,,,,2023-08-16_08h48.16.487,HF_wild_card,2022.2.4,Win32,59.60541217,611f672bc947518ca8b25524,64d2fd46c836a06233681665,64dc7f2a4469f04705c86d21,,,,,,,ctch,resources/DY.BMP,resources/DG.BMP,Door3,0.19650655,0.006550218,1,0,0,0.5967,optionRight,70,8920,4,31,0,31,0,1,,,,,,,,,,,,,,,,,,,,,,,,,,,,,,,,,,,,,,,
,,,,,,,,2023-08-16_08h48.16.487,HF_wild_card,2022.2.4,Win32,59.60541217,611f672bc947518ca8b25524,64d2fd46c836a06233681665,64dc7f2a4469f04705c86d21,,,,,,,sngl,resources/Empty.png,resources/DG.BMP,Door3,0.257641921,-0.002183406,1,0,0,0.4851,optionRight,70,8990,4,32,0,32,0,1,,,,,,,,,,,,,,,,,,,,,,,,,,,,,,,,,,,,,,,
,,,,,,,,2023-08-16_08h48.16.487,HF_wild_card,2022.2.4,Win32,59.60541217,611f672bc947518ca8b25524,64d2fd46c836a06233681665,64dc7f2a4469f04705c86d21,,,,,,,sngl,resources/DB.BMP,resources/Empty.png,Door1,-0.201965066,-0.008733624,1,0,0,0.4646,optionLeft,30,9020,4,33,0,33,0,1,,,,,,,,,,,,,,,,,,,,,,,,,,,,,,,,,,,,,,,
,,,,,,,,2023-08-16_08h48.16.487,HF_wild_card,2022.2.4,Win32,59.60541217,611f672bc947518ca8b25524,64d2fd46c836a06233681665,64dc7f2a4469f04705c86d21,,,,,,,decisionTrl,resources/DP.BMP,resources/DB.BMP,WildCard_NonEx,-0.175764192,-0.001091703,1,0,0,0.7301,optionLeft,55,9075,4,34,0,34,0,1,,,,,,,,,,,,,,,,,,,,,,,,,,,,,,,,,,,,,,,
,,,,,,,,2023-08-16_08h48.16.487,HF_wild_card,2022.2.4,Win32,59.60541217,611f672bc947518ca8b25524,64d2fd46c836a06233681665,64dc7f2a4469f04705c86d21,,,,,,,decisionTrl,resources/DY.BMP,resources/DP.BMP,WildCard_NonEx,0.175764192,0.002183406,1,0,0,0.8461,optionRight,55,9130,4,35,0,35,0,1,,,,,,,,,,,,,,,,,,,,,,,,,,,,,,,,,,,,,,,
,,,,,,,,2023-08-16_08h48.16.487,HF_wild_card,2022.2.4,Win32,59.60541217,611f672bc947518ca8b25524,64d2fd46c836a06233681665,64dc7f2a4469f04705c86d21,,,,,,,sngl,resources/Empty.png,resources/DY.BMP,Door2,0.288209607,-0.002183406,1,0,0,0.4676,optionRight,40,9170,4,36,0,36,0,1,,,,,,,,,,,,,,,,,,,,,,,,,,,,,,,,,,,,,,,
,,,,,,,,2023-08-16_08h48.16.487,HF_wild_card,2022.2.4,Win32,59.60541217,611f672bc947518ca8b25524,64d2fd46c836a06233681665,64dc7f2a4469f04705c86d21,,,,,,,sngl,resources/Empty.png,resources/DP.BMP,WildCard_NonEx,0.260917031,-0.009825328,1,0,0,0.447,optionRight,55,9225,4,37,0,37,0,1,,,,,,,,,,,,,,,,,,,,,,,,,,,,,,,,,,,,,,,
,,,,,,,,2023-08-16_08h48.16.487,HF_wild_card,2022.2.4,Win32,59.60541217,611f672bc947518ca8b25524,64d2fd46c836a06233681665,64dc7f2a4469f04705c86d21,,,,,,,sngl,resources/Empty.png,resources/DP.BMP,WildCard_NonEx,0.312227074,0.01419214,1,0,0,0.3868,optionRight,45,9270,4,38,0,38,0,1,,,,,,,,,,,,,,,,,,,,,,,,,,,,,,,,,,,,,,,
,,,,,,,,2023-08-16_08h48.16.487,HF_wild_card,2022.2.4,Win32,59.60541217,611f672bc947518ca8b25524,64d2fd46c836a06233681665,64dc7f2a4469f04705c86d21,,,,,,,decisionTrl,resources/DY.BMP,resources/DB.BMP,Door1,0.236899563,-0.001091703,1,0,0,0.6971,optionRight,30,9300,4,39,0,39,0,1,,,,,,,,,,,,,,,,,,,,,,,,,,,,,,,,,,,,,,,
,,,,,,,,2023-08-16_08h48.16.487,HF_wild_card,2022.2.4,Win32,59.60541217,611f672bc947518ca8b25524,64d2fd46c836a06233681665,64dc7f2a4469f04705c86d21,,,,,,,decisionTrl,resources/DG.BMP,resources/DBN.BMP,Door4,0.136462882,0.004366812,1,0,0,0.7551,optionRight,80,9380,4,40,0,40,0,1,,,,,,,,,,,,,,,,,,,,,,,,,,,,,,,,,,,,,,,
,,,,,,,,2023-08-16_08h48.16.487,HF_wild_card,2022.2.4,Win32,59.60541217,611f672bc947518ca8b25524,64d2fd46c836a06233681665,64dc7f2a4469f04705c86d21,,,,,,,sngl,resources/Empty.png,resources/DB.BMP,Door1,0.198689956,-0.007641921,1,0,0,0.4982,optionRight,30,9410,4,41,0,41,0,1,,,,,,,,,,,,,,,,,,,,,,,,,,,,,,,,,,,,,,,
,,,,,,,,2023-08-16_08h48.16.487,HF_wild_card,2022.2.4,Win32,59.60541217,611f672bc947518ca8b25524,64d2fd46c836a06233681665,64dc7f2a4469f04705c86d21,,,,,,,decisionTrl,resources/DBN.BMP,resources/DG.BMP,Door4,-0.173580786,-0.030567686,1,0,0,0.7574,optionLeft,80,9490,4,42,0,42,0,1,,,,,,,,,,,,,,,,,,,,,,,,,,,,,,,,,,,,,,,
,,,,,,,,2023-08-16_08h48.16.487,HF_wild_card,2022.2.4,Win32,59.60541217,611f672bc947518ca8b25524,64d2fd46c836a06233681665,64dc7f2a4469f04705c86d21,,,,,,,sngl,resources/DP.BMP,resources/Empty.png,WildCard_NonEx,-0.181222707,0.009825328,1,0,0,0.4656,optionLeft,45,9535,4,43,0,43,0,1,,,,,,,,,,,,,,,,,,,,,,,,,,,,,,,,,,,,,,,
,,,,,,,,2023-08-16_08h48.16.487,HF_wild_card,2022.2.4,Win32,59.60541217,611f672bc947518ca8b25524,64d2fd46c836a06233681665,64dc7f2a4469f04705c86d21,,,,,,,,,,,,,,,,,,,,,,,,,,3,0,3,0,1,,,,,,,,,,,,,,,,,,,,,,,,,,,,,,,,,,
,,,,,,,,2023-08-16_08h48.16.487,HF_wild_card,2022.2.4,Win32,59.60541217,611f672bc947518ca8b25524,64d2fd46c836a06233681665,64dc7f2a4469f04705c86d21,,,,,,,decisionTrl,resources/DY.BMP,resources/DB.BMP,Door1,0.248908297,-0.079694323,1,0,0,1.9257,optionRight,30,9565,5,0,0,0,0,1,,,,,,,,,,,,,,,,,,,,,,,,,,,,,,,,,,,,,,,
,,,,,,,,2023-08-16_08h48.16.487,HF_wild_card,2022.2.4,Win32,59.60541217,611f672bc947518ca8b25524,64d2fd46c836a06233681665,64dc7f2a4469f04705c86d21,,,,,,,decisionTrl,resources/DP.BMP,resources/DG.BMP,Door3,0.27510917,0.038209607,1,0,0,1.1862,optionRight,70,9635,5,1,0,1,0,1,,,,,,,,,,,,,,,,,,,,,,,,,,,,,,,,,,,,,,,
,,,,,,,,2023-08-16_08h48.16.487,HF_wild_card,2022.2.4,Win32,59.60541217,611f672bc947518ca8b25524,64d2fd46c836a06233681665,64dc7f2a4469f04705c86d21,,,,,,,decisionTrl,resources/DY.BMP,resources/DP.BMP,WildCard_NonEx,0.183406114,-0.009825328,1,0,0,0.5782,optionRight,45,9680,5,2,0,2,0,1,,,,,,,,,,,,,,,,,,,,,,,,,,,,,,,,,,,,,,,
,,,,,,,,2023-08-16_08h48.16.487,HF_wild_card,2022.2.4,Win32,59.60541217,611f672bc947518ca8b25524,64d2fd46c836a06233681665,64dc7f2a4469f04705c86d21,,,,,,,sngl,resources/Empty.png,resources/DP.BMP,WildCard_NonEx,0.291484716,-0.026200873,1,0,0,0.4688,optionRight,45,9725,5,3,0,3,0,1,,,,,,,,,,,,,,,,,,,,,,,,,,,,,,,,,,,,,,,
,,,,,,,,2023-08-16_08h48.16.487,HF_wild_card,2022.2.4,Win32,59.60541217,611f672bc947518ca8b25524,64d2fd46c836a06233681665,64dc7f2a4469f04705c86d21,,,,,,,decisionTrl,resources/DY.BMP,resources/DB.BMP,Door1,0.245633188,-0.018558952,1,0,0,0.6068,optionRight,30,9755,5,4,0,4,0,1,,,,,,,,,,,,,,,,,,,,,,,,,,,,,,,,,,,,,,,
,,,,,,,,2023-08-16_08h48.16.487,HF_wild_card,2022.2.4,Win32,59.60541217,611f672bc947518ca8b25524,64d2fd46c836a06233681665,64dc7f2a4469f04705c86d21,,,,,,,decisionTrl,resources/DBN.BMP,resources/DG.BMP,Door4,-0.225982533,0.008733624,1,0,0,0.5096,optionLeft,80,9835,5,5,0,5,0,1,,,,,,,,,,,,,,,,,,,,,,,,,,,,,,,,,,,,,,,
,,,,,,,,2023-08-16_08h48.16.487,HF_wild_card,2022.2.4,Win32,59.60541217,611f672bc947518ca8b25524,64d2fd46c836a06233681665,64dc7f2a4469f04705c86d21,,,,,,,ctch,resources/DB.BMP,resources/DBN.BMP,Door4,0.381004367,-0.03930131,1,0,0,0.5447,optionRight,80,9915,5,6,0,6,0,1,,,,,,,,,,,,,,,,,,,,,,,,,,,,,,,,,,,,,,,
,,,,,,,,2023-08-16_08h48.16.487,HF_wild_card,2022.2.4,Win32,59.60541217,611f672bc947518ca8b25524,64d2fd46c836a06233681665,64dc7f2a4469f04705c86d21,,,,,,,sngl,resources/DB.BMP,resources/Empty.png,Door1,-0.198689956,0.005458515,1,0,0,0.4461,optionLeft,30,9945,5,7,0,7,0,1,,,,,,,,,,,,,,,,,,,,,,,,,,,,,,,,,,,,,,,
,,,,,,,,2023-08-16_08h48.16.487,HF_wild_card,2022.2.4,Win32,59.60541217,611f672bc947518ca8b25524,64d2fd46c836a06233681665,64dc7f2a4469f04705c86d21,,,,,,,sngl,resources/Empty.png,resources/DB.BMP,Door1,0.234716157,-0.01419214,1,0,0,0.5045,optionRight,30,9975,5,8,0,8,0,1,,,,,,,,,,,,,,,,,,,,,,,,,,,,,,,,,,,,,,,
,,,,,,,,2023-08-16_08h48.16.487,HF_wild_card,2022.2.4,Win32,59.60541217,611f672bc947518ca8b25524,64d2fd46c836a06233681665,64dc7f2a4469f04705c86d21,,,,,,,ctch,resources/DB.BMP,resources/DBN.BMP,Door4,0.332969432,-0.055676856,1,0,0,0.6527,optionRight,60,10035,5,9,0,9,0,1,,,,,,,,,,,,,,,,,,,,,,,,,,,,,,,,,,,,,,,
,,,,,,,,2023-08-16_08h48.16.487,HF_wild_card,2022.2.4,Win32,59.60541217,611f672bc947518ca8b25524,64d2fd46c836a06233681665,64dc7f2a4469f04705c86d21,,,,,,,ctch,resources/DY.BMP,resources/DG.BMP,Door3,0.283842795,-0.007641921,1,0,0,0.6228,optionRight,70,10105,5,10,0,10,0,1,,,,,,,,,,,,,,,,,,,,,,,,,,,,,,,,,,,,,,,
,,,,,,,,2023-08-16_08h48.16.487,HF_wild_card,2022.2.4,Win32,59.60541217,611f672bc947518ca8b25524,64d2fd46c836a06233681665,64dc7f2a4469f04705c86d21,,,,,,,sngl,resources/DP.BMP,resources/Empty.png,WildCard_NonEx,-0.188864629,0.001091703,1,0,0,0.4511,optionLeft,55,10160,5,11,0,11,0,1,,,,,,,,,,,,,,,,,,,,,,,,,,,,,,,,,,,,,,,
,,,,,,,,2023-08-16_08h48.16.487,HF_wild_card,2022.2.4,Win32,59.60541217,611f672bc947518ca8b25524,64d2fd46c836a06233681665,64dc7f2a4469f04705c86d21,,,,,,,sngl,resources/DY.BMP,resources/Empty.png,Door2,-0.108078603,0.004366812,1,0,0,0.6143,optionLeft,40,10200,5,12,0,12,0,1,,,,,,,,,,,,,,,,,,,,,,,,,,,,,,,,,,,,,,,
,,,,,,,,2023-08-16_08h48.16.487,HF_wild_card,2022.2.4,Win32,59.60541217,611f672bc947518ca8b25524,64d2fd46c836a06233681665,64dc7f2a4469f04705c86d21,,,,,,,sngl,resources/Empty.png,resources/DG.BMP,Door3,0.268558952,-0.015283843,1,0,0,0.4132,optionRight,70,10270,5,13,0,13,0,1,,,,,,,,,,,,,,,,,,,,,,,,,,,,,,,,,,,,,,,
,,,,,,,,2023-08-16_08h48.16.487,HF_wild_card,2022.2.4,Win32,59.60541217,611f672bc947518ca8b25524,64d2fd46c836a06233681665,64dc7f2a4469f04705c86d21,,,,,,,decisionTrl,resources/DG.BMP,resources/DBN.BMP,Door4,0.194323144,-0.012008734,1,0,0,0.5348,optionRight,80,10350,5,14,0,14,0,1,,,,,,,,,,,,,,,,,,,,,,,,,,,,,,,,,,,,,,,
,,,,,,,,2023-08-16_08h48.16.487,HF_wild_card,2022.2.4,Win32,59.60541217,611f672bc947518ca8b25524,64d2fd46c836a06233681665,64dc7f2a4469f04705c86d21,,,,,,,decisionTrl,resources/DB.BMP,resources/DY.BMP,Door1,-0.122270742,-0.015283843,1,0,0,0.5702,optionLeft,30,10380,5,15,0,15,0,1,,,,,,,,,,,,,,,,,,,,,,,,,,,,,,,,,,,,,,,
,,,,,,,,2023-08-16_08h48.16.487,HF_wild_card,2022.2.4,Win32,59.60541217,611f672bc947518ca8b25524,64d2fd46c836a06233681665,64dc7f2a4469f04705c86d21,,,,,,,decisionTrl,resources/DG.BMP,resources/DBN.BMP,Door4,0.25,-0.026200873,1,0,0,0.4857,optionRight,60,10440,5,16,0,16,0,1,,,,,,,,,,,,,,,,,,,,,,,,,,,,,,,,,,,,,,,
,,,,,,,,2023-08-16_08h48.16.487,HF_wild_card,2022.2.4,Win32,59.60541217,611f672bc947518ca8b25524,64d2fd46c836a06233681665,64dc7f2a4469f04705c86d21,,,,,,,decisionTrl,resources/DY.BMP,resources/DB.BMP,Door1,0.306768559,-0.009825328,1,0,0,0.63,optionRight,30,10470,5,17,0,17,0,1,,,,,,,,,,,,,,,,,,,,,,,,,,,,,,,,,,,,,,,
,,,,,,,,2023-08-16_08h48.16.487,HF_wild_card,2022.2.4,Win32,59.60541217,611f672bc947518ca8b25524,64d2fd46c836a06233681665,64dc7f2a4469f04705c86d21,,,,,,,decisionTrl,resources/DG.BMP,resources/DBN.BMP,Door4,0.270742358,0,1,0,0,0.4536,optionRight,60,10530,5,18,0,18,0,1,,,,,,,,,,,,,,,,,,,,,,,,,,,,,,,,,,,,,,,
,,,,,,,,2023-08-16_08h48.16.487,HF_wild_card,2022.2.4,Win32,59.60541217,611f672bc947518ca8b25524,64d2fd46c836a06233681665,64dc7f2a4469f04705c86d21,,,,,,,decisionTrl,resources/DY.BMP,resources/DB.BMP,Door1,0.288209607,-0.046943231,1,0,0,0.5796,optionRight,30,10560,5,19,0,19,0,1,,,,,,,,,,,,,,,,,,,,,,,,,,,,,,,,,,,,,,,
,,,,,,,,2023-08-16_08h48.16.487,HF_wild_card,2022.2.4,Win32,59.60541217,611f672bc947518ca8b25524,64d2fd46c836a06233681665,64dc7f2a4469f04705c86d21,,,,,,,sngl,resources/DBN.BMP,resources/Empty.png,Door4,-0.152838428,0,1,0,0,0.4287,optionLeft,80,10640,5,20,0,20,0,1,,,,,,,,,,,,,,,,,,,,,,,,,,,,,,,,,,,,,,,
,,,,,,,,2023-08-16_08h48.16.487,HF_wild_card,2022.2.4,Win32,59.60541217,611f672bc947518ca8b25524,64d2fd46c836a06233681665,64dc7f2a4469f04705c86d21,,,,,,,decisionTrl,resources/DB.BMP,resources/DY.BMP,Door1,-0.164847162,-0.005458515,1,0,0,0.5851,optionLeft,30,10670,5,21,0,21,0,1,,,,,,,,,,,,,,,,,,,,,,,,,,,,,,,,,,,,,,,
,,,,,,,,2023-08-16_08h48.16.487,HF_wild_card,2022.2.4,Win32,59.60541217,611f672bc947518ca8b25524,64d2fd46c836a06233681665,64dc7f2a4469f04705c86d21,,,,,,,decisionTrl,resources/DB.BMP,resources/DY.BMP,Door1,-0.149563319,-0.021834061,1,0,0,0.4973,optionLeft,30,10700,5,22,0,22,0,1,,,,,,,,,,,,,,,,,,,,,,,,,,,,,,,,,,,,,,,
,,,,,,,,2023-08-16_08h48.16.487,HF_wild_card,2022.2.4,Win32,59.60541217,611f672bc947518ca8b25524,64d2fd46c836a06233681665,64dc7f2a4469f04705c86d21,,,,,,,sngl,resources/Empty.png,resources/DBN.BMP,Door4,0.359170306,-0.022925764,1,0,0,0.4449,optionRight,60,10760,5,23,0,23,0,1,,,,,,,,,,,,,,,,,,,,,,,,,,,,,,,,,,,,,,,
,,,,,,,,2023-08-16_08h48.16.487,HF_wild_card,2022.2.4,Win32,59.60541217,611f672bc947518ca8b25524,64d2fd46c836a06233681665,64dc7f2a4469f04705c86d21,,,,,,,sngl,resources/DG.BMP,resources/Empty.png,Door3,-0.123362445,-0.024017467,1,0,0,0.407,optionLeft,70,10830,5,24,0,24,0,1,,,,,,,,,,,,,,,,,,,,,,,,,,,,,,,,,,,,,,,
,,,,,,,,2023-08-16_08h48.16.487,HF_wild_card,2022.2.4,Win32,59.60541217,611f672bc947518ca8b25524,64d2fd46c836a06233681665,64dc7f2a4469f04705c86d21,,,,,,,ctch,resources/DBN.BMP,resources/DB.BMP,Door4,-0.173580786,-0.003275109,1,0,0,0.7621,optionLeft,60,10890,5,25,0,25,0,1,,,,,,,,,,,,,,,,,,,,,,,,,,,,,,,,,,,,,,,
,,,,,,,,2023-08-16_08h48.16.487,HF_wild_card,2022.2.4,Win32,59.60541217,611f672bc947518ca8b25524,64d2fd46c836a06233681665,64dc7f2a4469f04705c86d21,,,,,,,sngl,resources/DP.BMP,resources/Empty.png,WildCard_NonEx,-0.168122271,-0.018558952,1,0,0,0.4228,optionLeft,45,10935,5,26,0,26,0,1,,,,,,,,,,,,,,,,,,,,,,,,,,,,,,,,,,,,,,,
,,,,,,,,2023-08-16_08h48.16.487,HF_wild_card,2022.2.4,Win32,59.60541217,611f672bc947518ca8b25524,64d2fd46c836a06233681665,64dc7f2a4469f04705c86d21,,,,,,,ctch,resources/DG.BMP,resources/DY.BMP,Door3,-0.1430131,-0.009825328,1,0,0,0.5535,optionLeft,70,11005,5,27,0,27,0,1,,,,,,,,,,,,,,,,,,,,,,,,,,,,,,,,,,,,,,,
,,,,,,,,2023-08-16_08h48.16.487,HF_wild_card,2022.2.4,Win32,59.60541217,611f672bc947518ca8b25524,64d2fd46c836a06233681665,64dc7f2a4469f04705c86d21,,,,,,,decisionTrl,resources/DBN.BMP,resources/DG.BMP,Door4,-0.173580786,-0.006550218,1,0,0,0.6289,optionLeft,80,11085,5,28,0,28,0,1,,,,,,,,,,,,,,,,,,,,,,,,,,,,,,,,,,,,,,,
,,,,,,,,2023-08-16_08h48.16.487,HF_wild_card,2022.2.4,Win32,59.60541217,611f672bc947518ca8b25524,64d2fd46c836a06233681665,64dc7f2a4469f04705c86d21,,,,,,,decisionTrl,resources/DBN.BMP,resources/DP.BMP,Door4,-0.168122271,-0.008733624,1,0,0,0.4685,optionLeft,80,11165,5,29,0,29,0,1,,,,,,,,,,,,,,,,,,,,,,,,,,,,,,,,,,,,,,,
,,,,,,,,2023-08-16_08h48.16.487,HF_wild_card,2022.2.4,Win32,59.60541217,611f672bc947518ca8b25524,64d2fd46c836a06233681665,64dc7f2a4469f04705c86d21,,,,,,,sngl,resources/Empty.png,resources/DP.BMP,WildCard_NonEx,0.195414847,-0.033842795,1,0,0,0.4365,optionRight,55,11220,5,30,0,30,0,1,,,,,,,,,,,,,,,,,,,,,,,,,,,,,,,,,,,,,,,
,,,,,,,,2023-08-16_08h48.16.487,HF_wild_card,2022.2.4,Win32,59.60541217,611f672bc947518ca8b25524,64d2fd46c836a06233681665,64dc7f2a4469f04705c86d21,,,,,,,decisionTrl,resources/DG.BMP,resources/DP.BMP,Door3,-0.124454148,0.004366812,1,0,0,0.478,optionLeft,70,11290,5,31,0,31,0,1,,,,,,,,,,,,,,,,,,,,,,,,,,,,,,,,,,,,,,,
,,,,,,,,2023-08-16_08h48.16.487,HF_wild_card,2022.2.4,Win32,59.60541217,611f672bc947518ca8b25524,64d2fd46c836a06233681665,64dc7f2a4469f04705c86d21,,,,,,,decisionTrl,resources/DB.BMP,resources/DP.BMP,WildCard_NonEx,0.207423581,-0.016375546,1,0,0,0.6068,optionRight,45,11335,5,32,0,32,0,1,,,,,,,,,,,,,,,,,,,,,,,,,,,,,,,,,,,,,,,
,,,,,,,,2023-08-16_08h48.16.487,HF_wild_card,2022.2.4,Win32,59.60541217,611f672bc947518ca8b25524,64d2fd46c836a06233681665,64dc7f2a4469f04705c86d21,,,,,,,decisionTrl,resources/DP.BMP,resources/DY.BMP,WildCard_NonEx,-0.18231441,-0.010917031,1,0,0,0.553,optionLeft,45,11380,5,33,0,33,0,1,,,,,,,,,,,,,,,,,,,,,,,,,,,,,,,,,,,,,,,
,,,,,,,,2023-08-16_08h48.16.487,HF_wild_card,2022.2.4,Win32,59.60541217,611f672bc947518ca8b25524,64d2fd46c836a06233681665,64dc7f2a4469f04705c86d21,,,,,,,sngl,resources/Empty.png,resources/DY.BMP,Door2,0.116812227,-0.006550218,1,0,0,0.4561,optionRight,20,11400,5,34,0,34,0,1,,,,,,,,,,,,,,,,,,,,,,,,,,,,,,,,,,,,,,,
,,,,,,,,2023-08-16_08h48.16.487,HF_wild_card,2022.2.4,Win32,59.60541217,611f672bc947518ca8b25524,64d2fd46c836a06233681665,64dc7f2a4469f04705c86d21,,,,,,,decisionTrl,resources/DBN.BMP,resources/DG.BMP,Door4,-0.195414847,-0.008733624,1,0,0,0.4838,optionLeft,60,11460,5,35,0,35,0,1,,,,,,,,,,,,,,,,,,,,,,,,,,,,,,,,,,,,,,,
,,,,,,,,2023-08-16_08h48.16.487,HF_wild_card,2022.2.4,Win32,59.60541217,611f672bc947518ca8b25524,64d2fd46c836a06233681665,64dc7f2a4469f04705c86d21,,,,,,,decisionTrl,resources/DP.BMP,resources/DBN.BMP,Door4,0.239082969,-0.032751092,1,0,0,0.5399,optionRight,80,11540,5,36,0,36,0,1,,,,,,,,,,,,,,,,,,,,,,,,,,,,,,,,,,,,,,,
,,,,,,,,2023-08-16_08h48.16.487,HF_wild_card,2022.2.4,Win32,59.60541217,611f672bc947518ca8b25524,64d2fd46c836a06233681665,64dc7f2a4469f04705c86d21,,,,,,,ctch,resources/DBN.BMP,resources/DB.BMP,Door4,-0.147379913,-0.003275109,1,0,0,0.4515,optionLeft,80,11620,5,37,0,37,0,1,,,,,,,,,,,,,,,,,,,,,,,,,,,,,,,,,,,,,,,
,,,,,,,,2023-08-16_08h48.16.487,HF_wild_card,2022.2.4,Win32,59.60541217,611f672bc947518ca8b25524,64d2fd46c836a06233681665,64dc7f2a4469f04705c86d21,,,,,,,decisionTrl,resources/DG.BMP,resources/DBN.BMP,Door4,0.200873362,-0.019650655,1,0,0,0.4989,optionRight,80,11700,5,38,0,38,0,1,,,,,,,,,,,,,,,,,,,,,,,,,,,,,,,,,,,,,,,
,,,,,,,,2023-08-16_08h48.16.487,HF_wild_card,2022.2.4,Win32,59.60541217,611f672bc947518ca8b25524,64d2fd46c836a06233681665,64dc7f2a4469f04705c86d21,,,,,,,ctch,resources/DG.BMP,resources/DY.BMP,Door3,-0.167030568,-0.010917031,1,0,0,0.5134,optionLeft,70,11770,5,39,0,39,0,1,,,,,,,,,,,,,,,,,,,,,,,,,,,,,,,,,,,,,,,
,,,,,,,,2023-08-16_08h48.16.487,HF_wild_card,2022.2.4,Win32,59.60541217,611f672bc947518ca8b25524,64d2fd46c836a06233681665,64dc7f2a4469f04705c86d21,,,,,,,ctch,resources/DY.BMP,resources/DG.BMP,Door3,0.159388646,0.029475983,1,0,0,0.5238,optionRight,70,11840,5,40,0,40,0,1,,,,,,,,,,,,,,,,,,,,,,,,,,,,,,,,,,,,,,,
,,,,,,,,2023-08-16_08h48.16.487,HF_wild_card,2022.2.4,Win32,59.60541217,611f672bc947518ca8b25524,64d2fd46c836a06233681665,64dc7f2a4469f04705c86d21,,,,,,,decisionTrl,resources/DB.BMP,resources/DY.BMP,Door1,-0.105895197,-0.002183406,1,0,0,0.5451,optionLeft,30,11870,5,41,0,41,0,1,,,,,,,,,,,,,,,,,,,,,,,,,,,,,,,,,,,,,,,
,,,,,,,,2023-08-16_08h48.16.487,HF_wild_card,2022.2.4,Win32,59.60541217,611f672bc947518ca8b25524,64d2fd46c836a06233681665,64dc7f2a4469f04705c86d21,,,,,,,decisionTrl,resources/DP.BMP,resources/DB.BMP,Door1,0.133187773,0.009825328,1,0,0,0.563,optionRight,30,11900,5,42,0,42,0,1,,,,,,,,,,,,,,,,,,,,,,,,,,,,,,,,,,,,,,,
,,,,,,,,2023-08-16_08h48.16.487,HF_wild_card,2022.2.4,Win32,59.60541217,611f672bc947518ca8b25524,64d2fd46c836a06233681665,64dc7f2a4469f04705c86d21,,,,,,,decisionTrl,resources/DBN.BMP,resources/DG.BMP,Door4,-0.126637555,-0.012008734,1,0,0,0.512,optionLeft,80,11980,5,43,0,43,0,1,,,,,,,,,,,,,,,,,,,,,,,,,,,,,,,,,,,,,,,
,,,,,,,,2023-08-16_08h48.16.487,HF_wild_card,2022.2.4,Win32,59.60541217,611f672bc947518ca8b25524,64d2fd46c836a06233681665,64dc7f2a4469f04705c86d21,,,,,,,,,,,,,,,,,,,,,,,,,,4,0,4,0,1,,,,,,,,,,,,,,,,,,,,,,,,,,,,,,,,,,
,,,,,,,,2023-08-16_08h48.16.487,HF_wild_card,2022.2.4,Win32,59.60541217,611f672bc947518ca8b25524,64d2fd46c836a06233681665,64dc7f2a4469f04705c86d21,,,,,,,decisionTrl,resources/DB.BMP,resources/DY.BMP,Door1,-0.173580786,-0.050218341,1,0,0,0.5751,optionLeft,30,12010,6,0,0,0,0,1,,,,,,,,,,,,,,,,,,,,,,,,,,,,,,,,,,,,,,,
,,,,,,,,2023-08-16_08h48.16.487,HF_wild_card,2022.2.4,Win32,59.60541217,611f672bc947518ca8b25524,64d2fd46c836a06233681665,64dc7f2a4469f04705c86d21,,,,,,,sngl,resources/Empty.png,resources/DG.BMP,Door3,0.242358079,-0.008733624,1,0,0,0.3845,optionRight,70,12080,6,1,0,1,0,1,,,,,,,,,,,,,,,,,,,,,,,,,,,,,,,,,,,,,,,
,,,,,,,,2023-08-16_08h48.16.487,HF_wild_card,2022.2.4,Win32,59.60541217,611f672bc947518ca8b25524,64d2fd46c836a06233681665,64dc7f2a4469f04705c86d21,,,,,,,decisionTrl,resources/DP.BMP,resources/DG.BMP,WildCard_NonEx,-0.155021834,0.013100437,1,0,0,0.4081,optionLeft,45,12125,6,2,0,2,0,1,,,,,,,,,,,,,,,,,,,,,,,,,,,,,,,,,,,,,,,
,,,,,,,,2023-08-16_08h48.16.487,HF_wild_card,2022.2.4,Win32,59.60541217,611f672bc947518ca8b25524,64d2fd46c836a06233681665,64dc7f2a4469f04705c86d21,,,,,,,sngl,resources/DP.BMP,resources/Empty.png,WildCard_NonEx,-0.181222707,-0.008733624,1,0,0,0.413,optionLeft,55,12180,6,3,0,3,0,1,,,,,,,,,,,,,,,,,,,,,,,,,,,,,,,,,,,,,,,
,,,,,,,,2023-08-16_08h48.16.487,HF_wild_card,2022.2.4,Win32,59.60541217,611f672bc947518ca8b25524,64d2fd46c836a06233681665,64dc7f2a4469f04705c86d21,,,,,,,decisionTrl,resources/DP.BMP,resources/DY.BMP,WildCard_NonEx,-0.227074236,0.003275109,1,0,0,0.6635,optionLeft,45,12225,6,4,0,4,0,1,,,,,,,,,,,,,,,,,,,,,,,,,,,,,,,,,,,,,,,
,,,,,,,,2023-08-16_08h48.16.487,HF_wild_card,2022.2.4,Win32,59.60541217,611f672bc947518ca8b25524,64d2fd46c836a06233681665,64dc7f2a4469f04705c86d21,,,,,,,decisionTrl,resources/DG.BMP,resources/DP.BMP,Door3,-0.153930131,-0.010917031,1,0,0,0.5487,optionLeft,70,12295,6,5,0,5,0,1,,,,,,,,,,,,,,,,,,,,,,,,,,,,,,,,,,,,,,,
,,,,,,,,2023-08-16_08h48.16.487,HF_wild_card,2022.2.4,Win32,59.60541217,611f672bc947518ca8b25524,64d2fd46c836a06233681665,64dc7f2a4469f04705c86d21,,,,,,,ctch,resources/DBN.BMP,resources/DB.BMP,Door4,-0.193231441,-0.004366812,1,0,0,0.5461,optionLeft,80,12375,6,6,0,6,0,1,,,,,,,,,,,,,,,,,,,,,,,,,,,,,,,,,,,,,,,
,,,,,,,,2023-08-16_08h48.16.487,HF_wild_card,2022.2.4,Win32,59.60541217,611f672bc947518ca8b25524,64d2fd46c836a06233681665,64dc7f2a4469f04705c86d21,,,,,,,decisionTrl,resources/DBN.BMP,resources/DP.BMP,Door4,-0.181222707,0.008733624,1,0,0,0.402,optionLeft,80,12455,6,7,0,7,0,1,,,,,,,,,,,,,,,,,,,,,,,,,,,,,,,,,,,,,,,
,,,,,,,,2023-08-16_08h48.16.487,HF_wild_card,2022.2.4,Win32,59.60541217,611f672bc947518ca8b25524,64d2fd46c836a06233681665,64dc7f2a4469f04705c86d21,,,,,,,decisionTrl,resources/DG.BMP,resources/DBN.BMP,Door4,0.331877729,-0.038209607,1,0,0,0.4817,optionRight,60,12515,6,8,0,8,0,1,,,,,,,,,,,,,,,,,,,,,,,,,,,,,,,,,,,,,,,
,,,,,,,,2023-08-16_08h48.16.487,HF_wild_card,2022.2.4,Win32,59.60541217,611f672bc947518ca8b25524,64d2fd46c836a06233681665,64dc7f2a4469f04705c86d21,,,,,,,sngl,resources/DBN.BMP,resources/Empty.png,Door4,-0.165938865,-0.012008734,1,0,0,0.4137,optionLeft,60,12575,6,9,0,9,0,1,,,,,,,,,,,,,,,,,,,,,,,,,,,,,,,,,,,,,,,
,,,,,,,,2023-08-16_08h48.16.487,HF_wild_card,2022.2.4,Win32,59.60541217,611f672bc947518ca8b25524,64d2fd46c836a06233681665,64dc7f2a4469f04705c86d21,,,,,,,decisionTrl,resources/DY.BMP,resources/DB.BMP,Door1,0.221615721,-0.03930131,1,0,0,0.5538,optionRight,30,12605,6,10,0,10,0,1,,,,,,,,,,,,,,,,,,,,,,,,,,,,,,,,,,,,,,,
,,,,,,,,2023-08-16_08h48.16.487,HF_wild_card,2022.2.4,Win32,59.60541217,611f672bc947518ca8b25524,64d2fd46c836a06233681665,64dc7f2a4469f04705c86d21,,,,,,,ctch,resources/DBN.BMP,resources/DB.BMP,Door4,-0.141921397,-0.003275109,1,0,0,0.5022,optionLeft,60,12665,6,11,0,11,0,1,,,,,,,,,,,,,,,,,,,,,,,,,,,,,,,,,,,,,,,
,,,,,,,,2023-08-16_08h48.16.487,HF_wild_card,2022.2.4,Win32,59.60541217,611f672bc947518ca8b25524,64d2fd46c836a06233681665,64dc7f2a4469f04705c86d21,,,,,,,sngl,resources/Empty.png,resources/DP.BMP,WildCard_NonEx,0.338427948,-0.016375546,1,0,0,0.4189,optionRight,55,12720,6,12,0,12,0,1,,,,,,,,,,,,,,,,,,,,,,,,,,,,,,,,,,,,,,,
,,,,,,,,2023-08-16_08h48.16.487,HF_wild_card,2022.2.4,Win32,59.60541217,611f672bc947518ca8b25524,64d2fd46c836a06233681665,64dc7f2a4469f04705c86d21,,,,,,,sngl,resources/Empty.png,resources/DY.BMP,Door2,0.168122271,0.004366812,1,0,0,0.4062,optionRight,40,12760,6,13,0,13,0,1,,,,,,,,,,,,,,,,,,,,,,,,,,,,,,,,,,,,,,,
,,,,,,,,2023-08-16_08h48.16.487,HF_wild_card,2022.2.4,Win32,59.60541217,611f672bc947518ca8b25524,64d2fd46c836a06233681665,64dc7f2a4469f04705c86d21,,,,,,,decisionTrl,resources/DG.BMP,resources/DBN.BMP,Door4,0.218340611,0.010917031,1,0,0,0.7377,optionRight,60,12820,6,14,0,14,0,1,,,,,,,,,,,,,,,,,,,,,,,,,,,,,,,,,,,,,,,
,,,,,,,,2023-08-16_08h48.16.487,HF_wild_card,2022.2.4,Win32,59.60541217,611f672bc947518ca8b25524,64d2fd46c836a06233681665,64dc7f2a4469f04705c86d21,,,,,,,ctch,resources/DG.BMP,resources/DY.BMP,Door3,-0.147379913,-0.004366812,1,0,0,0.4783,optionLeft,70,12890,6,15,0,15,0,1,,,,,,,,,,,,,,,,,,,,,,,,,,,,,,,,,,,,,,,
,,,,,,,,2023-08-16_08h48.16.487,HF_wild_card,2022.2.4,Win32,59.60541217,611f672bc947518ca8b25524,64d2fd46c836a06233681665,64dc7f2a4469f04705c86d21,,,,,,,ctch,resources/DY.BMP,resources/DG.BMP,Door3,0.225982533,0.001091703,1,0,0,0.452,optionRight,70,12960,6,16,0,16,0,1,,,,,,,,,,,,,,,,,,,,,,,,,,,,,,,,,,,,,,,
,,,,,,,,2023-08-16_08h48.16.487,HF_wild_card,2022.2.4,Win32,59.60541217,611f672bc947518ca8b25524,64d2fd46c836a06233681665,64dc7f2a4469f04705c86d21,,,,,,,sngl,resources/DP.BMP,resources/Empty.png,WildCard_NonEx,-0.215065502,0.006550218,1,0,0,0.429,optionLeft,45,13005,6,17,0,17,0,1,,,,,,,,,,,,,,,,,,,,,,,,,,,,,,,,,,,,,,,
,,,,,,,,2023-08-16_08h48.16.487,HF_wild_card,2022.2.4,Win32,59.60541217,611f672bc947518ca8b25524,64d2fd46c836a06233681665,64dc7f2a4469f04705c86d21,,,,,,,decisionTrl,resources/DB.BMP,resources/DY.BMP,Door1,-0.170305677,0.010917031,1,0,0,0.4885,optionLeft,30,13035,6,18,0,18,0,1,,,,,,,,,,,,,,,,,,,,,,,,,,,,,,,,,,,,,,,
,,,,,,,,2023-08-16_08h48.16.487,HF_wild_card,2022.2.4,Win32,59.60541217,611f672bc947518ca8b25524,64d2fd46c836a06233681665,64dc7f2a4469f04705c86d21,,,,,,,decisionTrl,resources/DP.BMP,resources/DBN.BMP,Door4,0.286026201,-0.027292576,1,0,0,0.5031,optionRight,60,13095,6,19,0,19,0,1,,,,,,,,,,,,,,,,,,,,,,,,,,,,,,,,,,,,,,,
,,,,,,,,2023-08-16_08h48.16.487,HF_wild_card,2022.2.4,Win32,59.60541217,611f672bc947518ca8b25524,64d2fd46c836a06233681665,64dc7f2a4469f04705c86d21,,,,,,,sngl,resources/Empty.png,resources/DB.BMP,Door1,0.262008734,-0.026200873,1,0,0,0.4436,optionRight,30,13125,6,20,0,20,0,1,,,,,,,,,,,,,,,,,,,,,,,,,,,,,,,,,,,,,,,
,,,,,,,,2023-08-16_08h48.16.487,HF_wild_card,2022.2.4,Win32,59.60541217,611f672bc947518ca8b25524,64d2fd46c836a06233681665,64dc7f2a4469f04705c86d21,,,,,,,sngl,resources/DY.BMP,resources/Empty.png,Door2,-0.176855895,-0.009825328,1,0,0,0.4528,optionLeft,20,13145,6,21,0,21,0,1,,,,,,,,,,,,,,,,,,,,,,,,,,,,,,,,,,,,,,,
,,,,,,,,2023-08-16_08h48.16.487,HF_wild_card,2022.2.4,Win32,59.60541217,611f672bc947518ca8b25524,64d2fd46c836a06233681665,64dc7f2a4469f04705c86d21,,,,,,,decisionTrl,resources/DB.BMP,resources/DY.BMP,Door1,-0.194323144,-0.009825328,1,0,0,0.6192,optionLeft,30,13175,6,22,0,22,0,1,,,,,,,,,,,,,,,,,,,,,,,,,,,,,,,,,,,,,,,
,,,,,,,,2023-08-16_08h48.16.487,HF_wild_card,2022.2.4,Win32,59.60541217,611f672bc947518ca8b25524,64d2fd46c836a06233681665,64dc7f2a4469f04705c86d21,,,,,,,sngl,resources/Empty.png,resources/DP.BMP,WildCard_NonEx,0.184497817,-0.009825328,1,0,0,0.4618,optionRight,45,13220,6,23,0,23,0,1,,,,,,,,,,,,,,,,,,,,,,,,,,,,,,,,,,,,,,,
,,,,,,,,2023-08-16_08h48.16.487,HF_wild_card,2022.2.4,Win32,59.60541217,611f672bc947518ca8b25524,64d2fd46c836a06233681665,64dc7f2a4469f04705c86d21,,,,,,,sngl,resources/DG.BMP,resources/Empty.png,Door3,-0.180131004,0.006550218,1,0,0,0.4296,optionLeft,70,13290,6,24,0,24,0,1,,,,,,,,,,,,,,,,,,,,,,,,,,,,,,,,,,,,,,,
,,,,,,,,2023-08-16_08h48.16.487,HF_wild_card,2022.2.4,Win32,59.60541217,611f672bc947518ca8b25524,64d2fd46c836a06233681665,64dc7f2a4469f04705c86d21,,,,,,,decisionTrl,resources/DBN.BMP,resources/DG.BMP,Door3,0.216157205,-0.010917031,1,0,0,0.4464,optionRight,70,13360,6,25,0,25,0,1,,,,,,,,,,,,,,,,,,,,,,,,,,,,,,,,,,,,,,,
,,,,,,,,2023-08-16_08h48.16.487,HF_wild_card,2022.2.4,Win32,59.60541217,611f672bc947518ca8b25524,64d2fd46c836a06233681665,64dc7f2a4469f04705c86d21,,,,,,,sngl,resources/Empty.png,resources/DBN.BMP,Door4,0.195414847,0.005458515,1,0,0,0.4544,optionRight,80,13440,6,26,0,26,0,1,,,,,,,,,,,,,,,,,,,,,,,,,,,,,,,,,,,,,,,
,,,,,,,,2023-08-16_08h48.16.487,HF_wild_card,2022.2.4,Win32,59.60541217,611f672bc947518ca8b25524,64d2fd46c836a06233681665,64dc7f2a4469f04705c86d21,,,,,,,decisionTrl,resources/DY.BMP,resources/DB.BMP,Door1,0.208515284,0.001091703,1,0,0,0.8013,optionRight,30,13470,6,27,0,27,0,1,,,,,,,,,,,,,,,,,,,,,,,,,,,,,,,,,,,,,,,
,,,,,,,,2023-08-16_08h48.16.487,HF_wild_card,2022.2.4,Win32,59.60541217,611f672bc947518ca8b25524,64d2fd46c836a06233681665,64dc7f2a4469f04705c86d21,,,,,,,decisionTrl,resources/DB.BMP,resources/DP.BMP,WildCard_NonEx,0.1430131,0.005458515,1,0,0,0.7713,optionRight,55,13525,6,28,0,28,0,1,,,,,,,,,,,,,,,,,,,,,,,,,,,,,,,,,,,,,,,
,,,,,,,,2023-08-16_08h48.16.487,HF_wild_card,2022.2.4,Win32,59.60541217,611f672bc947518ca8b25524,64d2fd46c836a06233681665,64dc7f2a4469f04705c86d21,,,,,,,sngl,resources/DB.BMP,resources/Empty.png,Door1,-0.150655022,-0.006550218,1,0,0,0.4552,optionLeft,30,13555,6,29,0,29,0,1,,,,,,,,,,,,,,,,,,,,,,,,,,,,,,,,,,,,,,,
,,,,,,,,2023-08-16_08h48.16.487,HF_wild_card,2022.2.4,Win32,59.60541217,611f672bc947518ca8b25524,64d2fd46c836a06233681665,64dc7f2a4469f04705c86d21,,,,,,,decisionTrl,resources/DY.BMP,resources/DB.BMP,Door1,0.223799127,0,1,0,0,0.4528,optionRight,30,13585,6,30,0,30,0,1,,,,,,,,,,,,,,,,,,,,,,,,,,,,,,,,,,,,,,,
,,,,,,,,2023-08-16_08h48.16.487,HF_wild_card,2022.2.4,Win32,59.60541217,611f672bc947518ca8b25524,64d2fd46c836a06233681665,64dc7f2a4469f04705c86d21,,,,,,,decisionTrl,resources/DBN.BMP,resources/DG.BMP,Door4,-0.140829694,-0.010917031,1,0,0,0.7099,optionLeft,80,13665,6,31,0,31,0,1,,,,,,,,,,,,,,,,,,,,,,,,,,,,,,,,,,,,,,,
,,,,,,,,2023-08-16_08h48.16.487,HF_wild_card,2022.2.4,Win32,59.60541217,611f672bc947518ca8b25524,64d2fd46c836a06233681665,64dc7f2a4469f04705c86d21,,,,,,,decisionTrl,resources/DY.BMP,resources/DP.BMP,WildCard_NonEx,0.183406114,-0.01419214,1,0,0,0.4834,optionRight,55,13720,6,32,0,32,0,1,,,,,,,,,,,,,,,,,,,,,,,,,,,,,,,,,,,,,,,
,,,,,,,,2023-08-16_08h48.16.487,HF_wild_card,2022.2.4,Win32,59.60541217,611f672bc947518ca8b25524,64d2fd46c836a06233681665,64dc7f2a4469f04705c86d21,,,,,,,decisionTrl,resources/DB.BMP,resources/DY.BMP,Door1,-0.123362445,-0.006550218,1,0,0,0.4464,optionLeft,30,13750,6,33,0,33,0,1,,,,,,,,,,,,,,,,,,,,,,,,,,,,,,,,,,,,,,,
,,,,,,,,2023-08-16_08h48.16.487,HF_wild_card,2022.2.4,Win32,59.60541217,611f672bc947518ca8b25524,64d2fd46c836a06233681665,64dc7f2a4469f04705c86d21,,,,,,,decisionTrl,resources/DY.BMP,resources/DB.BMP,Door1,0.170305677,0.005458515,1,0,0,0.4316,optionRight,30,13780,6,34,0,34,0,1,,,,,,,,,,,,,,,,,,,,,,,,,,,,,,,,,,,,,,,
,,,,,,,,2023-08-16_08h48.16.487,HF_wild_card,2022.2.4,Win32,59.60541217,611f672bc947518ca8b25524,64d2fd46c836a06233681665,64dc7f2a4469f04705c86d21,,,,,,,decisionTrl,resources/DG.BMP,resources/DBN.BMP,Door4,0.159388646,-0.003275109,1,0,0,0.4814,optionRight,80,13860,6,35,0,35,0,1,,,,,,,,,,,,,,,,,,,,,,,,,,,,,,,,,,,,,,,
,,,,,,,,2023-08-16_08h48.16.487,HF_wild_card,2022.2.4,Win32,59.60541217,611f672bc947518ca8b25524,64d2fd46c836a06233681665,64dc7f2a4469f04705c86d21,,,,,,,ctch,resources/DG.BMP,resources/DY.BMP,Door3,-0.248908297,-0.037117904,1,0,0,0.6306,optionLeft,70,13930,6,36,0,36,0,1,,,,,,,,,,,,,,,,,,,,,,,,,,,,,,,,,,,,,,,
,,,,,,,,2023-08-16_08h48.16.487,HF_wild_card,2022.2.4,Win32,59.60541217,611f672bc947518ca8b25524,64d2fd46c836a06233681665,64dc7f2a4469f04705c86d21,,,,,,,decisionTrl,resources/DP.BMP,resources/DB.BMP,Door1,0.133187773,-0.003275109,1,0,0,0.4808,optionRight,30,13960,6,37,0,37,0,1,,,,,,,,,,,,,,,,,,,,,,,,,,,,,,,,,,,,,,,
,,,,,,,,2023-08-16_08h48.16.487,HF_wild_card,2022.2.4,Win32,59.60541217,611f672bc947518ca8b25524,64d2fd46c836a06233681665,64dc7f2a4469f04705c86d21,,,,,,,ctch,resources/DB.BMP,resources/DBN.BMP,Door1,-0.172489083,-0.001091703,1,0,0,0.4389,optionLeft,30,13990,6,38,0,38,0,1,,,,,,,,,,,,,,,,,,,,,,,,,,,,,,,,,,,,,,,
,,,,,,,,2023-08-16_08h48.16.487,HF_wild_card,2022.2.4,Win32,59.60541217,611f672bc947518ca8b25524,64d2fd46c836a06233681665,64dc7f2a4469f04705c86d21,,,,,,,ctch,resources/DB.BMP,resources/DBN.BMP,Door4,0.199781659,0.010917031,1,0,0,0.4144,optionRight,80,14070,6,39,0,39,0,1,,,,,,,,,,,,,,,,,,,,,,,,,,,,,,,,,,,,,,,
,,,,,,,,2023-08-16_08h48.16.487,HF_wild_card,2022.2.4,Win32,59.60541217,611f672bc947518ca8b25524,64d2fd46c836a06233681665,64dc7f2a4469f04705c86d21,,,,,,,ctch,resources/DY.BMP,resources/DG.BMP,Door2,-0.137554585,-0.019650655,1,0,0,0.4575,optionLeft,20,14090,6,40,0,40,0,1,,,,,,,,,,,,,,,,,,,,,,,,,,,,,,,,,,,,,,,
,,,,,,,,2023-08-16_08h48.16.487,HF_wild_card,2022.2.4,Win32,59.60541217,611f672bc947518ca8b25524,64d2fd46c836a06233681665,64dc7f2a4469f04705c86d21,,,,,,,decisionTrl,resources/DBN.BMP,resources/DG.BMP,Door4,-0.135371179,-0.008733624,1,0,0,0.4969,optionLeft,60,14150,6,41,0,41,0,1,,,,,,,,,,,,,,,,,,,,,,,,,,,,,,,,,,,,,,,
,,,,,,,,2023-08-16_08h48.16.487,HF_wild_card,2022.2.4,Win32,59.60541217,611f672bc947518ca8b25524,64d2fd46c836a06233681665,64dc7f2a4469f04705c86d21,,,,,,,decisionTrl,resources/DG.BMP,resources/DBN.BMP,Door4,0.18558952,-0.006550218,1,0,0,0.4688,optionRight,80,14230,6,42,0,42,0,1,,,,,,,,,,,,,,,,,,,,,,,,,,,,,,,,,,,,,,,
,,,,,,,,2023-08-16_08h48.16.487,HF_wild_card,2022.2.4,Win32,59.60541217,611f672bc947518ca8b25524,64d2fd46c836a06233681665,64dc7f2a4469f04705c86d21,,,,,,,decisionTrl,resources/DBN.BMP,resources/DG.BMP,Door4,-0.162663755,0.002183406,1,0,0,0.4375,optionLeft,80,14310,6,43,0,43,0,1,,,,,,,,,,,,,,,,,,,,,,,,,,,,,,,,,,,,,,,
,,,,,,,,2023-08-16_08h48.16.487,HF_wild_card,2022.2.4,Win32,59.60541217,611f672bc947518ca8b25524,64d2fd46c836a06233681665,64dc7f2a4469f04705c86d21,,,,,,,,,,,,,,,,,,,,,,,,,,5,0,5,0,1,,,,,,,,,,,,,,,,,,,,,,,,,,,,,,,,,,
,,,,,,,,2023-08-16_08h48.16.487,HF_wild_card,2022.2.4,Win32,59.60541217,611f672bc947518ca8b25524,64d2fd46c836a06233681665,64dc7f2a4469f04705c86d21,,,,,,,ctch,resources/DG.BMP,resources/DY.BMP,Door3,-0.121179039,-0.096069869,1,0,0,0.7182,optionLeft,70,14380,7,0,0,0,0,1,,,,,,,,,,,,,,,,,,,,,,,,,,,,,,,,,,,,,,,
,,,,,,,,2023-08-16_08h48.16.487,HF_wild_card,2022.2.4,Win32,59.60541217,611f672bc947518ca8b25524,64d2fd46c836a06233681665,64dc7f2a4469f04705c86d21,,,,,,,decisionTrl,resources/DB.BMP,resources/DY.BMP,Door1,-0.14628821,0.018558952,1,0,0,0.9462,optionLeft,30,14410,7,1,0,1,0,1,,,,,,,,,,,,,,,,,,,,,,,,,,,,,,,,,,,,,,,
,,,,,,,,2023-08-16_08h48.16.487,HF_wild_card,2022.2.4,Win32,59.60541217,611f672bc947518ca8b25524,64d2fd46c836a06233681665,64dc7f2a4469f04705c86d21,,,,,,,decisionTrl,resources/DBN.BMP,resources/DG.BMP,Door4,-0.147379913,-0.016375546,1,0,0,0.4951,optionLeft,60,14470,7,2,0,2,0,1,,,,,,,,,,,,,,,,,,,,,,,,,,,,,,,,,,,,,,,
,,,,,,,,2023-08-16_08h48.16.487,HF_wild_card,2022.2.4,Win32,59.60541217,611f672bc947518ca8b25524,64d2fd46c836a06233681665,64dc7f2a4469f04705c86d21,,,,,,,ctch,resources/DY.BMP,resources/DG.BMP,Door3,0.188864629,-0.013100437,1,0,0,0.549,optionRight,70,14540,7,3,0,3,0,1,,,,,,,,,,,,,,,,,,,,,,,,,,,,,,,,,,,,,,,
,,,,,,,,2023-08-16_08h48.16.487,HF_wild_card,2022.2.4,Win32,59.60541217,611f672bc947518ca8b25524,64d2fd46c836a06233681665,64dc7f2a4469f04705c86d21,,,,,,,decisionTrl,resources/DG.BMP,resources/DBN.BMP,Door4,0.262008734,-0.031659389,1,0,0,0.4372,optionRight,60,14600,7,4,0,4,0,1,,,,,,,,,,,,,,,,,,,,,,,,,,,,,,,,,,,,,,,
,,,,,,,,2023-08-16_08h48.16.487,HF_wild_card,2022.2.4,Win32,59.60541217,611f672bc947518ca8b25524,64d2fd46c836a06233681665,64dc7f2a4469f04705c86d21,,,,,,,decisionTrl,resources/DY.BMP,resources/DB.BMP,Door1,0.187772926,-0.018558952,1,0,0,0.7137,optionRight,30,14630,7,5,0,5,0,1,,,,,,,,,,,,,,,,,,,,,,,,,,,,,,,,,,,,,,,
,,,,,,,,2023-08-16_08h48.16.487,HF_wild_card,2022.2.4,Win32,59.60541217,611f672bc947518ca8b25524,64d2fd46c836a06233681665,64dc7f2a4469f04705c86d21,,,,,,,ctch,resources/DB.BMP,resources/DBN.BMP,Door4,0.295851528,-0.027292576,1,0,0,0.56,optionRight,80,14710,7,6,0,6,0,1,,,,,,,,,,,,,,,,,,,,,,,,,,,,,,,,,,,,,,,
,,,,,,,,2023-08-16_08h48.16.487,HF_wild_card,2022.2.4,Win32,59.60541217,611f672bc947518ca8b25524,64d2fd46c836a06233681665,64dc7f2a4469f04705c86d21,,,,,,,decisionTrl,resources/DB.BMP,resources/DY.BMP,Door1,-0.121179039,-0.010917031,1,0,0,0.4415,optionLeft,30,14740,7,7,0,7,0,1,,,,,,,,,,,,,,,,,,,,,,,,,,,,,,,,,,,,,,,
,,,,,,,,2023-08-16_08h48.16.487,HF_wild_card,2022.2.4,Win32,59.60541217,611f672bc947518ca8b25524,64d2fd46c836a06233681665,64dc7f2a4469f04705c86d21,,,,,,,ctch,resources/DB.BMP,resources/DBN.BMP,Door4,0.254366812,-0.009825328,1,0,0,0.4273,optionRight,80,14820,7,8,0,8,0,1,,,,,,,,,,,,,,,,,,,,,,,,,,,,,,,,,,,,,,,
,,,,,,,,2023-08-16_08h48.16.487,HF_wild_card,2022.2.4,Win32,59.60541217,611f672bc947518ca8b25524,64d2fd46c836a06233681665,64dc7f2a4469f04705c86d21,,,,,,,decisionTrl,resources/DY.BMP,resources/DB.BMP,Door1,0.26419214,0.006550218,1,0,0,0.5812,optionRight,30,14850,7,9,0,9,0,1,,,,,,,,,,,,,,,,,,,,,,,,,,,,,,,,,,,,,,,
,,,,,,,,2023-08-16_08h48.16.487,HF_wild_card,2022.2.4,Win32,59.60541217,611f672bc947518ca8b25524,64d2fd46c836a06233681665,64dc7f2a4469f04705c86d21,,,,,,,decisionTrl,resources/DY.BMP,resources/DB.BMP,Door1,0.186681223,-0.026200873,1,0,0,0.4168,optionRight,30,14880,7,10,0,10,0,1,,,,,,,,,,,,,,,,,,,,,,,,,,,,,,,,,,,,,,,
,,,,,,,,2023-08-16_08h48.16.487,HF_wild_card,2022.2.4,Win32,59.60541217,611f672bc947518ca8b25524,64d2fd46c836a06233681665,64dc7f2a4469f04705c86d21,,,,,,,decisionTrl,resources/DB.BMP,resources/DY.BMP,Door1,-0.168122271,-0.013100437,1,0,0,0.4305,optionLeft,30,14910,7,11,0,11,0,1,,,,,,,,,,,,,,,,,,,,,,,,,,,,,,,,,,,,,,,
,,,,,,,,2023-08-16_08h48.16.487,HF_wild_card,2022.2.4,Win32,59.60541217,611f672bc947518ca8b25524,64d2fd46c836a06233681665,64dc7f2a4469f04705c86d21,,,,,,,ctch,resources/DBN.BMP,resources/DB.BMP,Door4,-0.176855895,0.012008734,1,0,0,0.6811,optionLeft,80,14990,7,12,0,12,0,1,,,,,,,,,,,,,,,,,,,,,,,,,,,,,,,,,,,,,,,
,,,,,,,,2023-08-16_08h48.16.487,HF_wild_card,2022.2.4,Win32,59.60541217,611f672bc947518ca8b25524,64d2fd46c836a06233681665,64dc7f2a4469f04705c86d21,,,,,,,ctch,resources/DY.BMP,resources/DG.BMP,Door3,0.165938865,-0.028384279,1,0,0,0.5143,optionRight,70,15060,7,13,0,13,0,1,,,,,,,,,,,,,,,,,,,,,,,,,,,,,,,,,,,,,,,
,,,,,,,,2023-08-16_08h48.16.487,HF_wild_card,2022.2.4,Win32,59.60541217,611f672bc947518ca8b25524,64d2fd46c836a06233681665,64dc7f2a4469f04705c86d21,,,,,,,ctch,resources/DB.BMP,resources/DBN.BMP,Door4,0.176855895,-0.002183406,1,0,0,0.4982,optionRight,60,15120,7,14,0,14,0,1,,,,,,,,,,,,,,,,,,,,,,,,,,,,,,,,,,,,,,,
,,,,,,,,2023-08-16_08h48.16.487,HF_wild_card,2022.2.4,Win32,59.60541217,611f672bc947518ca8b25524,64d2fd46c836a06233681665,64dc7f2a4469f04705c86d21,,,,,,,decisionTrl,resources/DG.BMP,resources/DBN.BMP,Door4,0.176855895,-0.028384279,1,0,0,0.4308,optionRight,60,15180,7,15,0,15,0,1,,,,,,,,,,,,,,,,,,,,,,,,,,,,,,,,,,,,,,,
,,,,,,,,2023-08-16_08h48.16.487,HF_wild_card,2022.2.4,Win32,59.60541217,611f672bc947518ca8b25524,64d2fd46c836a06233681665,64dc7f2a4469f04705c86d21,,,,,,,decisionTrl,resources/DG.BMP,resources/DBN.BMP,Door4,0.159388646,-0.040393013,1,0,0,0.4598,optionRight,60,15240,7,16,0,16,0,1,,,,,,,,,,,,,,,,,,,,,,,,,,,,,,,,,,,,,,,
,,,,,,,,2023-08-16_08h48.16.487,HF_wild_card,2022.2.4,Win32,59.60541217,611f672bc947518ca8b25524,64d2fd46c836a06233681665,64dc7f2a4469f04705c86d21,,,,,,,ctch,resources/DG.BMP,resources/DY.BMP,Door3,-0.248908297,0.013100437,1,0,0,0.5416,optionLeft,70,15310,7,17,0,17,0,1,,,,,,,,,,,,,,,,,,,,,,,,,,,,,,,,,,,,,,,
,,,,,,,,2023-08-16_08h48.16.487,HF_wild_card,2022.2.4,Win32,59.60541217,611f672bc947518ca8b25524,64d2fd46c836a06233681665,64dc7f2a4469f04705c86d21,,,,,,,decisionTrl,resources/DBN.BMP,resources/DG.BMP,Door4,-0.164847162,-0.001091703,1,0,0,0.5376,optionLeft,60,15370,7,18,0,18,0,1,,,,,,,,,,,,,,,,,,,,,,,,,,,,,,,,,,,,,,,
,,,,,,,,2023-08-16_08h48.16.487,HF_wild_card,2022.2.4,Win32,59.60541217,611f672bc947518ca8b25524,64d2fd46c836a06233681665,64dc7f2a4469f04705c86d21,,,,,,,ctch,resources/DBN.BMP,resources/DB.BMP,Door4,-0.172489083,0.019650655,1,0,0,0.5483,optionLeft,80,15450,7,19,0,19,0,1,,,,,,,,,,,,,,,,,,,,,,,,,,,,,,,,,,,,,,,
,,,,,,,,2023-08-16_08h48.16.487,HF_wild_card,2022.2.4,Win32,59.60541217,611f672bc947518ca8b25524,64d2fd46c836a06233681665,64dc7f2a4469f04705c86d21,,,,,,,decisionTrl,resources/DY.BMP,resources/DB.BMP,Door1,0.177947598,-0.002183406,1,0,0,0.5591,optionRight,30,15480,7,20,0,20,0,1,,,,,,,,,,,,,,,,,,,,,,,,,,,,,,,,,,,,,,,
,,,,,,,,2023-08-16_08h48.16.487,HF_wild_card,2022.2.4,Win32,59.60541217,611f672bc947518ca8b25524,64d2fd46c836a06233681665,64dc7f2a4469f04705c86d21,,,,,,,decisionTrl,resources/DG.BMP,resources/DBN.BMP,Door4,0.136462882,-0.079694323,1,0,0,0.4536,optionRight,60,15540,7,21,0,21,0,1,,,,,,,,,,,,,,,,,,,,,,,,,,,,,,,,,,,,,,,
,,,,,,,,2023-08-16_08h48.16.487,HF_wild_card,2022.2.4,Win32,59.60541217,611f672bc947518ca8b25524,64d2fd46c836a06233681665,64dc7f2a4469f04705c86d21,,,,,,,decisionTrl,resources/DBN.BMP,resources/DG.BMP,Door4,-0.125545852,-0.026200873,1,0,0,0.4665,optionLeft,80,15620,7,22,0,22,0,1,,,,,,,,,,,,,,,,,,,,,,,,,,,,,,,,,,,,,,,
,,,,,,,,2023-08-16_08h48.16.487,HF_wild_card,2022.2.4,Win32,59.60541217,611f672bc947518ca8b25524,64d2fd46c836a06233681665,64dc7f2a4469f04705c86d21,,,,,,,decisionTrl,resources/DY.BMP,resources/DB.BMP,Door1,0.173580786,-0.002183406,1,0,0,0.5201,optionRight,30,15650,7,23,0,23,0,1,,,,,,,,,,,,,,,,,,,,,,,,,,,,,,,,,,,,,,,
,,,,,,,,2023-08-16_08h48.16.487,HF_wild_card,2022.2.4,Win32,59.60541217,611f672bc947518ca8b25524,64d2fd46c836a06233681665,64dc7f2a4469f04705c86d21,,,,,,,ctch,resources/DY.BMP,resources/DG.BMP,Door3,0.209606987,-0.010917031,1,0,0,0.5974,optionRight,70,15720,7,24,0,24,0,1,,,,,,,,,,,,,,,,,,,,,,,,,,,,,,,,,,,,,,,
,,,,,,,,2023-08-16_08h48.16.487,HF_wild_card,2022.2.4,Win32,59.60541217,611f672bc947518ca8b25524,64d2fd46c836a06233681665,64dc7f2a4469f04705c86d21,,,,,,,decisionTrl,resources/DB.BMP,resources/DY.BMP,Door1,-0.099344978,-0.021834061,1,0,0,0.991,optionLeft,30,15750,7,25,0,25,0,1,,,,,,,,,,,,,,,,,,,,,,,,,,,,,,,,,,,,,,,
,,,,,,,,2023-08-16_08h48.16.487,HF_wild_card,2022.2.4,Win32,59.60541217,611f672bc947518ca8b25524,64d2fd46c836a06233681665,64dc7f2a4469f04705c86d21,,,,,,,decisionTrl,resources/DBN.BMP,resources/DG.BMP,Door4,-0.167030568,0.002183406,1,0,0,0.4712,optionLeft,80,15830,7,26,0,26,0,1,,,,,,,,,,,,,,,,,,,,,,,,,,,,,,,,,,,,,,,
,,,,,,,,2023-08-16_08h48.16.487,HF_wild_card,2022.2.4,Win32,59.60541217,611f672bc947518ca8b25524,64d2fd46c836a06233681665,64dc7f2a4469f04705c86d21,,,,,,,decisionTrl,resources/DG.BMP,resources/DBN.BMP,Door4,0.207423581,-0.019650655,1,0,0,0.5044,optionRight,60,15890,7,27,0,27,0,1,,,,,,,,,,,,,,,,,,,,,,,,,,,,,,,,,,,,,,,
,,,,,,,,2023-08-16_08h48.16.487,HF_wild_card,2022.2.4,Win32,59.60541217,611f672bc947518ca8b25524,64d2fd46c836a06233681665,64dc7f2a4469f04705c86d21,,,,,,,decisionTrl,resources/DB.BMP,resources/DY.BMP,Door1,-0.1069869,0.001091703,1,0,0,0.5822,optionLeft,30,15920,7,28,0,28,0,1,,,,,,,,,,,,,,,,,,,,,,,,,,,,,,,,,,,,,,,
,,,,,,,,2023-08-16_08h48.16.487,HF_wild_card,2022.2.4,Win32,59.60541217,611f672bc947518ca8b25524,64d2fd46c836a06233681665,64dc7f2a4469f04705c86d21,,,,,,,decisionTrl,resources/DG.BMP,resources/DBN.BMP,Door4,0.197598253,-0.017467249,1,0,0,0.4909,optionRight,80,16000,7,29,0,29,0,1,,,,,,,,,,,,,,,,,,,,,,,,,,,,,,,,,,,,,,,
,,,,,,,,2023-08-16_08h48.16.487,HF_wild_card,2022.2.4,Win32,59.60541217,611f672bc947518ca8b25524,64d2fd46c836a06233681665,64dc7f2a4469f04705c86d21,,,,,,,decisionTrl,resources/DBN.BMP,resources/DG.BMP,Door4,-0.183406114,0.009825328,1,0,0,0.4579,optionLeft,80,16080,7,30,0,30,0,1,,,,,,,,,,,,,,,,,,,,,,,,,,,,,,,,,,,,,,,
,,,,,,,,2023-08-16_08h48.16.487,HF_wild_card,2022.2.4,Win32,59.60541217,611f672bc947518ca8b25524,64d2fd46c836a06233681665,64dc7f2a4469f04705c86d21,,,,,,,decisionTrl,resources/DBN.BMP,resources/DG.BMP,Door4,-0.173580786,-0.010917031,1,0,0,0.4644,optionLeft,80,16160,7,31,0,31,0,1,,,,,,,,,,,,,,,,,,,,,,,,,,,,,,,,,,,,,,,
,,,,,,,,2023-08-16_08h48.16.487,HF_wild_card,2022.2.4,Win32,59.60541217,611f672bc947518ca8b25524,64d2fd46c836a06233681665,64dc7f2a4469f04705c86d21,,,,,,,ctch,resources/DG.BMP,resources/DY.BMP,Door3,-0.135371179,0.006550218,1,0,0,0.5714,optionLeft,70,16230,7,32,0,32,0,1,,,,,,,,,,,,,,,,,,,,,,,,,,,,,,,,,,,,,,,
,,,,,,,,2023-08-16_08h48.16.487,HF_wild_card,2022.2.4,Win32,59.60541217,611f672bc947518ca8b25524,64d2fd46c836a06233681665,64dc7f2a4469f04705c86d21,,,,,,,decisionTrl,resources/DB.BMP,resources/DY.BMP,Door1,-0.131004367,-0.002183406,1,0,0,0.5544,optionLeft,30,16260,7,33,0,33,0,1,,,,,,,,,,,,,,,,,,,,,,,,,,,,,,,,,,,,,,,
,,,,,,,,2023-08-16_08h48.16.487,HF_wild_card,2022.2.4,Win32,59.60541217,611f672bc947518ca8b25524,64d2fd46c836a06233681665,64dc7f2a4469f04705c86d21,,,,,,,decisionTrl,resources/DY.BMP,resources/DB.BMP,Door1,0.168122271,0.001091703,1,0,0,0.5033,optionRight,30,16290,7,34,0,34,0,1,,,,,,,,,,,,,,,,,,,,,,,,,,,,,,,,,,,,,,,
,,,,,,,,2023-08-16_08h48.16.487,HF_wild_card,2022.2.4,Win32,59.60541217,611f672bc947518ca8b25524,64d2fd46c836a06233681665,64dc7f2a4469f04705c86d21,,,,,,,ctch,resources/DBN.BMP,resources/DB.BMP,Door4,-0.189956332,-0.01419214,1,0,0,0.4756,optionLeft,60,16350,7,35,0,35,0,1,,,,,,,,,,,,,,,,,,,,,,,,,,,,,,,,,,,,,,,
,,,,,,,,2023-08-16_08h48.16.487,HF_wild_card,2022.2.4,Win32,59.60541217,611f672bc947518ca8b25524,64d2fd46c836a06233681665,64dc7f2a4469f04705c86d21,,,,,,,,,,,,,,,,,,,,,,,,,,6,0,6,0,1,,,,,,,,,,,,,,,,,,,,,,,,,,,,,,,,,,
,,,,,,,,2023-08-16_08h48.16.487,HF_wild_card,2022.2.4,Win32,59.60541217,611f672bc947518ca8b25524,64d2fd46c836a06233681665,64dc7f2a4469f04705c86d21,,,,,,,,,,,,,,,,,,,,,,,,,,,,,,,4,,,,,,,,,,,,,,,,,,,,,,,,,,,,,,,,,
,,,,,,,,2023-08-16_08h48.16.487,HF_wild_card,2022.2.4,Win32,59.60541217,611f672bc947518ca8b25524,64d2fd46c836a06233681665,64dc7f2a4469f04705c86d21,,,,,,,,,,,,,,,,,,,,,,,,,,,,,,,,,,,,,,,,,,,,,,,,,,,,,,,,,,,,,,,,
,,,,,,,,2023-08-16_08h48.16.487,HF_wild_card,2022.2.4,Win32,59.60541217,611f672bc947518ca8b25524,64d2fd46c836a06233681665,64dc7f2a4469f04705c86d21,,,,,,,,,,,,,,,,,,,,,,,,,,,,,,,,30,Door1,resources/DB.BMP,0,0,0,0,1,,,,,,,,,,,,,,,,,,,,,,,,,
,,,,,,,,2023-08-16_08h48.16.487,HF_wild_card,2022.2.4,Win32,59.60541217,611f672bc947518ca8b25524,64d2fd46c836a06233681665,64dc7f2a4469f04705c86d21,,,,,,,,,,,,,,,,,,,,,,,,,,,,,,,,5,WC_extreme,resources/DR.BMP,1,0,1,0,1,,,,,,,,,,,,,,,,,,,,,,,,,
,,,,,,,,2023-08-16_08h48.16.487,HF_wild_card,2022.2.4,Win32,59.60541217,611f672bc947518ca8b25524,64d2fd46c836a06233681665,64dc7f2a4469f04705c86d21,,,,,,,,,,,,,,,,,,,,,,,,,,,,,,,,55,WC_nonExtreme,resources/DP.BMP,2,0,2,0,1,,,,,,,,,,,,,,,,,,,,,,,,,
,,,,,,,,2023-08-16_08h48.16.487,HF_wild_card,2022.2.4,Win32,59.60541217,611f672bc947518ca8b25524,64d2fd46c836a06233681665,64dc7f2a4469f04705c86d21,,,,,,,,,,,,,,,,,,,,,,,,,,,,,,,,60,Door3,resources/DG.BMP,3,0,3,0,1,,,,,,,,,,,,,,,,,,,,,,,,,
,,,,,,,,2023-08-16_08h48.16.487,HF_wild_card,2022.2.4,Win32,59.60541217,611f672bc947518ca8b25524,64d2fd46c836a06233681665,64dc7f2a4469f04705c86d21,,,,,,,,,,,,,,,,,,,,,,,,,,,,,,,,20,Door2,resources/DY.BMP,4,0,4,0,1,,,,,,,,,,,,,,,,,,,,,,,,,
,,,,,,,,2023-08-16_08h48.16.487,HF_wild_card,2022.2.4,Win32,59.60541217,611f672bc947518ca8b25524,64d2fd46c836a06233681665,64dc7f2a4469f04705c86d21,,,,,,,,,,,,,,,,,,,,,,,,,,,,,,,,80,Door4,resources/DBN.BMP,5,0,5,0,1,,,,,,,,,,,,,,,,,,,,,,,,,
,,,,,,,,2023-08-16_08h48.16.487,HF_wild_card,2022.2.4,Win32,59.60541217,611f672bc947518ca8b25524,64d2fd46c836a06233681665,64dc7f2a4469f04705c86d21,,,,,,,,,,,,,,,,,,,,,,,,,,,,,,,,,,,,,,,,,,,,,,,,,,,,,,,,,,,,,,,,
