Condition,Low fixed image (Door1),Low risky image (Door2),High fixed image (Door3),High risky image (Door4),Extreme Wild Card,NonExtreme Wild Card,,date,expName,psychopyVersion,OS,frameRate,PROLIFIC_PID,STUDY_ID,SESSION_ID,mouse_2.x,mouse_2.y,mouse_2.leftButton,mouse_2.midButton,mouse_2.rightButton,mouse_2.clicked_name,Trial Type,Left Option Image,Right Option Image,Chosen Door,mouse.x,mouse.y,mouse.leftButton,mouse.midButton,mouse.rightButton,mouse.time,mouse.clicked_name,Feedback,Cumulative Reward,Block,trial.thisRepN,trial.thisTrialN,trial.thisN,trial.thisIndex,trial.ran,blocks.thisRepN,blocks.thisTrialN,blocks.thisN,blocks.thisIndex,blocks.ran,Money conversion,First Outcome Reported,Shown Door (First Outcome),Displayed Image (First Outcome),outcomes.thisRepN,outcomes.thisTrialN,outcomes.thisN,outcomes.thisIndex,outcomes.ran,judgments.thisRepN,judgments.thisTrialN,judgments.thisN,judgments.thisIndex,judgments.ran,freqMouse.x,freqMouse.y,freqMouse.leftButton,freqMouse.midButton,freqMouse.rightButton,freqMouse.clicked_name,FQJ for first outcome,FQJ for second outcome,Shown Door,Displayed Image,trials.thisRepN,trials.thisTrialN,trials.thisN,trials.thisIndex,trials.ran,judgBlock.thisRepN,judgBlock.thisTrialN,judgBlock.thisN,judgBlock.thisIndex,judgBlock.ran
1,resources/DP.BMP,resources/DY.BMP,resources/DG.BMP,resources/DR.BMP,resources/DBN.BMP,resources/DB.BMP,,2023-08-16_08h22.12.214,HF_wild_card,2022.2.4,Win32,59.92329818,62aa1fefabb116cb465a45fc,64d2fd46c836a06233681665,64dc7912c14b8ef70886de5e,,,,,,,,,,,,,,,,,,,,,,,,,,,,,,,,,,,,,,,,,,,,,,,,,,,,,,,,,,,,,,,,
,,,,,,,,2023-08-16_08h22.12.214,HF_wild_card,2022.2.4,Win32,59.92329818,62aa1fefabb116cb465a45fc,64d2fd46c836a06233681665,64dc7912c14b8ef70886de5e,-0.001666641,-0.415,1,0,0,agree,,,,,,,,,,,,,,,,,,,,,,,,,,,,,,,,,,,,,,,,,,,,,,,,,,,,,,,,,,
,,,,,,,,2023-08-16_08h22.12.214,HF_wild_card,2022.2.4,Win32,59.92329818,62aa1fefabb116cb465a45fc,64d2fd46c836a06233681665,64dc7912c14b8ef70886de5e,,,,,,,,,,,,,,,,,,,,,,,,,,,,,,,,,,,,,,,,,,,,,,,,,,,,,,,,,,,,,,,,
,,,,,,,,2023-08-16_08h22.12.214,HF_wild_card,2022.2.4,Win32,59.92329818,62aa1fefabb116cb465a45fc,64d2fd46c836a06233681665,64dc7912c14b8ef70886de5e,,,,,,,sngl,resources/Empty.png,resources/DP.BMP,Door1,0.39,-0.175833359,1,0,0,3.7886,optionRight,30,30,1,0,0,0,0,1,,,,,,,,,,,,,,,,,,,,,,,,,,,,,,,,,,,,,,,
,,,,,,,,2023-08-16_08h22.12.214,HF_wild_card,2022.2.4,Win32,59.92329818,62aa1fefabb116cb465a45fc,64d2fd46c836a06233681665,64dc7912c14b8ef70886de5e,,,,,,,sngl,resources/Empty.png,resources/DB.BMP,WildCard_NonEx,0.271666718,-0.03,1,0,0,1.3474,optionRight,45,75,1,1,0,1,0,1,,,,,,,,,,,,,,,,,,,,,,,,,,,,,,,,,,,,,,,
,,,,,,,,2023-08-16_08h22.12.214,HF_wild_card,2022.2.4,Win32,59.92329818,62aa1fefabb116cb465a45fc,64d2fd46c836a06233681665,64dc7912c14b8ef70886de5e,,,,,,,decisionTrl,resources/DG.BMP,resources/DR.BMP,Door3,-0.263333321,-0.054166679,1,0,0,1.9004,optionLeft,70,145,1,2,0,2,0,1,,,,,,,,,,,,,,,,,,,,,,,,,,,,,,,,,,,,,,,
,,,,,,,,2023-08-16_08h22.12.214,HF_wild_card,2022.2.4,Win32,59.92329818,62aa1fefabb116cb465a45fc,64d2fd46c836a06233681665,64dc7912c14b8ef70886de5e,,,,,,,ctch,resources/DP.BMP,resources/DR.BMP,Door1,-0.35,-0.021666679,1,0,0,1.2156,optionLeft,30,175,1,3,0,3,0,1,,,,,,,,,,,,,,,,,,,,,,,,,,,,,,,,,,,,,,,
,,,,,,,,2023-08-16_08h22.12.214,HF_wild_card,2022.2.4,Win32,59.92329818,62aa1fefabb116cb465a45fc,64d2fd46c836a06233681665,64dc7912c14b8ef70886de5e,,,,,,,decisionTrl,resources/DY.BMP,resources/DP.BMP,Door1,0.280833359,-0.04,1,0,0,0.8656,optionRight,30,205,1,4,0,4,0,1,,,,,,,,,,,,,,,,,,,,,,,,,,,,,,,,,,,,,,,
,,,,,,,,2023-08-16_08h22.12.214,HF_wild_card,2022.2.4,Win32,59.92329818,62aa1fefabb116cb465a45fc,64d2fd46c836a06233681665,64dc7912c14b8ef70886de5e,,,,,,,sngl,resources/DY.BMP,resources/Empty.png,Door2,-0.27,-0.031666679,1,0,0,0.7477,optionLeft,40,245,1,5,0,5,0,1,,,,,,,,,,,,,,,,,,,,,,,,,,,,,,,,,,,,,,,
,,,,,,,,2023-08-16_08h22.12.214,HF_wild_card,2022.2.4,Win32,59.92329818,62aa1fefabb116cb465a45fc,64d2fd46c836a06233681665,64dc7912c14b8ef70886de5e,,,,,,,decisionTrl,resources/DP.BMP,resources/DY.BMP,Door2,0.325,0.006666641,1,0,0,1.2321,optionRight,20,265,1,6,0,6,0,1,,,,,,,,,,,,,,,,,,,,,,,,,,,,,,,,,,,,,,,
,,,,,,,,2023-08-16_08h22.12.214,HF_wild_card,2022.2.4,Win32,59.92329818,62aa1fefabb116cb465a45fc,64d2fd46c836a06233681665,64dc7912c14b8ef70886de5e,,,,,,,decisionTrl,resources/DR.BMP,resources/DG.BMP,Door4,-0.340833321,-0.005833359,1,0,0,1.3818,optionLeft,60,325,1,7,0,7,0,1,,,,,,,,,,,,,,,,,,,,,,,,,,,,,,,,,,,,,,,
,,,,,,,,2023-08-16_08h22.12.214,HF_wild_card,2022.2.4,Win32,59.92329818,62aa1fefabb116cb465a45fc,64d2fd46c836a06233681665,64dc7912c14b8ef70886de5e,,,,,,,decisionTrl,resources/DR.BMP,resources/DB.BMP,Door4,-0.326666641,-0.0675,1,0,0,1.1997,optionLeft,80,405,1,8,0,8,0,1,,,,,,,,,,,,,,,,,,,,,,,,,,,,,,,,,,,,,,,
,,,,,,,,2023-08-16_08h22.12.214,HF_wild_card,2022.2.4,Win32,59.92329818,62aa1fefabb116cb465a45fc,64d2fd46c836a06233681665,64dc7912c14b8ef70886de5e,,,,,,,sngl,resources/Empty.png,resources/DB.BMP,WildCard_NonEx,0.263333359,-0.144166718,1,0,0,0.9501,optionRight,55,460,1,9,0,9,0,1,,,,,,,,,,,,,,,,,,,,,,,,,,,,,,,,,,,,,,,
,,,,,,,,2023-08-16_08h22.12.214,HF_wild_card,2022.2.4,Win32,59.92329818,62aa1fefabb116cb465a45fc,64d2fd46c836a06233681665,64dc7912c14b8ef70886de5e,,,,,,,decisionTrl,resources/DB.BMP,resources/DP.BMP,Door1,0.310833359,-0.1675,1,0,0,0.8471,optionRight,30,490,1,10,0,10,0,1,,,,,,,,,,,,,,,,,,,,,,,,,,,,,,,,,,,,,,,
,,,,,,,,2023-08-16_08h22.12.214,HF_wild_card,2022.2.4,Win32,59.92329818,62aa1fefabb116cb465a45fc,64d2fd46c836a06233681665,64dc7912c14b8ef70886de5e,,,,,,,ctch,resources/DG.BMP,resources/DY.BMP,Door3,-0.49916666,-0.093333359,1,0,0,0.7474,optionLeft,70,560,1,11,0,11,0,1,,,,,,,,,,,,,,,,,,,,,,,,,,,,,,,,,,,,,,,
,,,,,,,,2023-08-16_08h22.12.214,HF_wild_card,2022.2.4,Win32,59.92329818,62aa1fefabb116cb465a45fc,64d2fd46c836a06233681665,64dc7912c14b8ef70886de5e,,,,,,,decisionTrl,resources/DR.BMP,resources/DG.BMP,Door4,-0.254166641,-0.028333359,1,0,0,0.7319,optionLeft,80,640,1,12,0,12,0,1,,,,,,,,,,,,,,,,,,,,,,,,,,,,,,,,,,,,,,,
,,,,,,,,2023-08-16_08h22.12.214,HF_wild_card,2022.2.4,Win32,59.92329818,62aa1fefabb116cb465a45fc,64d2fd46c836a06233681665,64dc7912c14b8ef70886de5e,,,,,,,decisionTrl,resources/DP.BMP,resources/DY.BMP,Door1,-0.381666641,-0.0125,1,0,0,1.0667,optionLeft,30,670,1,13,0,13,0,1,,,,,,,,,,,,,,,,,,,,,,,,,,,,,,,,,,,,,,,
,,,,,,,,2023-08-16_08h22.12.214,HF_wild_card,2022.2.4,Win32,59.92329818,62aa1fefabb116cb465a45fc,64d2fd46c836a06233681665,64dc7912c14b8ef70886de5e,,,,,,,decisionTrl,resources/DY.BMP,resources/DP.BMP,Door1,0.195,-0.0125,1,0,0,0.9987,optionRight,30,700,1,14,0,14,0,1,,,,,,,,,,,,,,,,,,,,,,,,,,,,,,,,,,,,,,,
,,,,,,,,2023-08-16_08h22.12.214,HF_wild_card,2022.2.4,Win32,59.92329818,62aa1fefabb116cb465a45fc,64d2fd46c836a06233681665,64dc7912c14b8ef70886de5e,,,,,,,decisionTrl,resources/DP.BMP,resources/DY.BMP,Door2,0.251666718,0.001666641,1,0,0,1.2323,optionRight,20,720,1,15,0,15,0,1,,,,,,,,,,,,,,,,,,,,,,,,,,,,,,,,,,,,,,,
,,,,,,,,2023-08-16_08h22.12.214,HF_wild_card,2022.2.4,Win32,59.92329818,62aa1fefabb116cb465a45fc,64d2fd46c836a06233681665,64dc7912c14b8ef70886de5e,,,,,,,decisionTrl,resources/DP.BMP,resources/DY.BMP,Door2,0.3225,0.05,1,0,0,0.8998,optionRight,40,760,1,16,0,16,0,1,,,,,,,,,,,,,,,,,,,,,,,,,,,,,,,,,,,,,,,
,,,,,,,,2023-08-16_08h22.12.214,HF_wild_card,2022.2.4,Win32,59.92329818,62aa1fefabb116cb465a45fc,64d2fd46c836a06233681665,64dc7912c14b8ef70886de5e,,,,,,,sngl,resources/DR.BMP,resources/Empty.png,Door4,-0.0025,0.015,1,0,0,0.2481,optionLeft,80,840,1,17,0,17,0,1,,,,,,,,,,,,,,,,,,,,,,,,,,,,,,,,,,,,,,,
,,,,,,,,2023-08-16_08h22.12.214,HF_wild_card,2022.2.4,Win32,59.92329818,62aa1fefabb116cb465a45fc,64d2fd46c836a06233681665,64dc7912c14b8ef70886de5e,,,,,,,decisionTrl,resources/DG.BMP,resources/DR.BMP,Door4,0.186666718,0.045,1,0,0,1.0319,optionRight,80,920,1,18,0,18,0,1,,,,,,,,,,,,,,,,,,,,,,,,,,,,,,,,,,,,,,,
,,,,,,,,2023-08-16_08h22.12.214,HF_wild_card,2022.2.4,Win32,59.92329818,62aa1fefabb116cb465a45fc,64d2fd46c836a06233681665,64dc7912c14b8ef70886de5e,,,,,,,decisionTrl,resources/DY.BMP,resources/DP.BMP,Door2,-0.290833321,-0.023333359,1,0,0,1.1491,optionLeft,20,940,1,19,0,19,0,1,,,,,,,,,,,,,,,,,,,,,,,,,,,,,,,,,,,,,,,
,,,,,,,,2023-08-16_08h22.12.214,HF_wild_card,2022.2.4,Win32,59.92329818,62aa1fefabb116cb465a45fc,64d2fd46c836a06233681665,64dc7912c14b8ef70886de5e,,,,,,,decisionTrl,resources/DY.BMP,resources/DP.BMP,Door2,-0.129166641,-0.010833359,1,0,0,1.1223,optionLeft,20,960,1,20,0,20,0,1,,,,,,,,,,,,,,,,,,,,,,,,,,,,,,,,,,,,,,,
,,,,,,,,2023-08-16_08h22.12.214,HF_wild_card,2022.2.4,Win32,59.92329818,62aa1fefabb116cb465a45fc,64d2fd46c836a06233681665,64dc7912c14b8ef70886de5e,,,,,,,sngl,resources/Empty.png,resources/DG.BMP,Door3,0.320833359,-0.005833359,1,0,0,0.8814,optionRight,70,1030,1,21,0,21,0,1,,,,,,,,,,,,,,,,,,,,,,,,,,,,,,,,,,,,,,,
,,,,,,,,2023-08-16_08h22.12.214,HF_wild_card,2022.2.4,Win32,59.92329818,62aa1fefabb116cb465a45fc,64d2fd46c836a06233681665,64dc7912c14b8ef70886de5e,,,,,,,decisionTrl,resources/DP.BMP,resources/DB.BMP,WildCard_NonEx,0.304166718,0.046666641,1,0,0,2.2665,optionRight,45,1075,1,22,0,22,0,1,,,,,,,,,,,,,,,,,,,,,,,,,,,,,,,,,,,,,,,
,,,,,,,,2023-08-16_08h22.12.214,HF_wild_card,2022.2.4,Win32,59.92329818,62aa1fefabb116cb465a45fc,64d2fd46c836a06233681665,64dc7912c14b8ef70886de5e,,,,,,,ctch,resources/DP.BMP,resources/DR.BMP,Door4,0.256666718,0.006666641,1,0,0,0.8659,optionRight,80,1155,1,23,0,23,0,1,,,,,,,,,,,,,,,,,,,,,,,,,,,,,,,,,,,,,,,
,,,,,,,,2023-08-16_08h22.12.214,HF_wild_card,2022.2.4,Win32,59.92329818,62aa1fefabb116cb465a45fc,64d2fd46c836a06233681665,64dc7912c14b8ef70886de5e,,,,,,,decisionTrl,resources/DG.BMP,resources/DR.BMP,Door4,0.276666718,-0.004166679,1,0,0,0.7825,optionRight,60,1215,1,24,0,24,0,1,,,,,,,,,,,,,,,,,,,,,,,,,,,,,,,,,,,,,,,
,,,,,,,,2023-08-16_08h22.12.214,HF_wild_card,2022.2.4,Win32,59.92329818,62aa1fefabb116cb465a45fc,64d2fd46c836a06233681665,64dc7912c14b8ef70886de5e,,,,,,,sngl,resources/DP.BMP,resources/Empty.png,Door1,-0.203333321,0,1,0,0,0.9496,optionLeft,30,1245,1,25,0,25,0,1,,,,,,,,,,,,,,,,,,,,,,,,,,,,,,,,,,,,,,,
,,,,,,,,2023-08-16_08h22.12.214,HF_wild_card,2022.2.4,Win32,59.92329818,62aa1fefabb116cb465a45fc,64d2fd46c836a06233681665,64dc7912c14b8ef70886de5e,,,,,,,sngl,resources/Empty.png,resources/DY.BMP,Door2,0.124166718,-0.0075,1,0,0,0.8142,optionRight,20,1265,1,26,0,26,0,1,,,,,,,,,,,,,,,,,,,,,,,,,,,,,,,,,,,,,,,
,,,,,,,,2023-08-16_08h22.12.214,HF_wild_card,2022.2.4,Win32,59.92329818,62aa1fefabb116cb465a45fc,64d2fd46c836a06233681665,64dc7912c14b8ef70886de5e,,,,,,,ctch,resources/DG.BMP,resources/DY.BMP,Door3,-0.195,-0.02,1,0,0,0.9156,optionLeft,70,1335,1,27,0,27,0,1,,,,,,,,,,,,,,,,,,,,,,,,,,,,,,,,,,,,,,,
,,,,,,,,2023-08-16_08h22.12.214,HF_wild_card,2022.2.4,Win32,59.92329818,62aa1fefabb116cb465a45fc,64d2fd46c836a06233681665,64dc7912c14b8ef70886de5e,,,,,,,sngl,resources/DB.BMP,resources/Empty.png,WildCard_NonEx,-0.180833321,-0.004166679,1,0,0,0.9813,optionLeft,55,1390,1,28,0,28,0,1,,,,,,,,,,,,,,,,,,,,,,,,,,,,,,,,,,,,,,,
,,,,,,,,2023-08-16_08h22.12.214,HF_wild_card,2022.2.4,Win32,59.92329818,62aa1fefabb116cb465a45fc,64d2fd46c836a06233681665,64dc7912c14b8ef70886de5e,,,,,,,ctch,resources/DR.BMP,resources/DP.BMP,Door4,-0.275,-0.08,1,0,0,1.2064,optionLeft,60,1450,1,29,0,29,0,1,,,,,,,,,,,,,,,,,,,,,,,,,,,,,,,,,,,,,,,
,,,,,,,,2023-08-16_08h22.12.214,HF_wild_card,2022.2.4,Win32,59.92329818,62aa1fefabb116cb465a45fc,64d2fd46c836a06233681665,64dc7912c14b8ef70886de5e,,,,,,,sngl,resources/DB.BMP,resources/Empty.png,WildCard_NonEx,-0.16,-0.016666679,1,0,0,0.7492,optionLeft,45,1495,1,30,0,30,0,1,,,,,,,,,,,,,,,,,,,,,,,,,,,,,,,,,,,,,,,
,,,,,,,,2023-08-16_08h22.12.214,HF_wild_card,2022.2.4,Win32,59.92329818,62aa1fefabb116cb465a45fc,64d2fd46c836a06233681665,64dc7912c14b8ef70886de5e,,,,,,,decisionTrl,resources/DG.BMP,resources/DR.BMP,Door3,-0.209166641,-0.054166679,1,0,0,0.716,optionLeft,70,1565,1,31,0,31,0,1,,,,,,,,,,,,,,,,,,,,,,,,,,,,,,,,,,,,,,,
,,,,,,,,2023-08-16_08h22.12.214,HF_wild_card,2022.2.4,Win32,59.92329818,62aa1fefabb116cb465a45fc,64d2fd46c836a06233681665,64dc7912c14b8ef70886de5e,,,,,,,decisionTrl,resources/DB.BMP,resources/DY.BMP,WildCard_NonEx,-0.32,0.023333321,1,0,0,0.8206,optionLeft,45,1610,1,32,0,32,0,1,,,,,,,,,,,,,,,,,,,,,,,,,,,,,,,,,,,,,,,
,,,,,,,,2023-08-16_08h22.12.214,HF_wild_card,2022.2.4,Win32,59.92329818,62aa1fefabb116cb465a45fc,64d2fd46c836a06233681665,64dc7912c14b8ef70886de5e,,,,,,,decisionTrl,resources/DR.BMP,resources/DG.BMP,Door3,0.208333359,-0.018333359,1,0,0,0.3824,optionRight,70,1680,1,33,0,33,0,1,,,,,,,,,,,,,,,,,,,,,,,,,,,,,,,,,,,,,,,
,,,,,,,,2023-08-16_08h22.12.214,HF_wild_card,2022.2.4,Win32,59.92329818,62aa1fefabb116cb465a45fc,64d2fd46c836a06233681665,64dc7912c14b8ef70886de5e,,,,,,,sngl,resources/Empty.png,resources/DR.BMP,Door4,0.163333359,-0.0175,1,0,0,0.5491,optionRight,60,1740,1,34,0,34,0,1,,,,,,,,,,,,,,,,,,,,,,,,,,,,,,,,,,,,,,,
,,,,,,,,2023-08-16_08h22.12.214,HF_wild_card,2022.2.4,Win32,59.92329818,62aa1fefabb116cb465a45fc,64d2fd46c836a06233681665,64dc7912c14b8ef70886de5e,,,,,,,decisionTrl,resources/DB.BMP,resources/DG.BMP,WildCard_NonEx,-0.3525,0.026666641,1,0,0,0.7298,optionLeft,45,1785,1,35,0,35,0,1,,,,,,,,,,,,,,,,,,,,,,,,,,,,,,,,,,,,,,,
,,,,,,,,2023-08-16_08h22.12.214,HF_wild_card,2022.2.4,Win32,59.92329818,62aa1fefabb116cb465a45fc,64d2fd46c836a06233681665,64dc7912c14b8ef70886de5e,,,,,,,ctch,resources/DY.BMP,resources/DG.BMP,Door2,-0.240833321,-0.07,1,0,0,0.5671,optionLeft,40,1825,1,36,0,36,0,1,,,,,,,,,,,,,,,,,,,,,,,,,,,,,,,,,,,,,,,
,,,,,,,,2023-08-16_08h22.12.214,HF_wild_card,2022.2.4,Win32,59.92329818,62aa1fefabb116cb465a45fc,64d2fd46c836a06233681665,64dc7912c14b8ef70886de5e,,,,,,,ctch,resources/DY.BMP,resources/DG.BMP,Door3,0.305833359,-0.040833359,1,0,0,1.2245,optionRight,70,1895,1,37,0,37,0,1,,,,,,,,,,,,,,,,,,,,,,,,,,,,,,,,,,,,,,,
,,,,,,,,2023-08-16_08h22.12.214,HF_wild_card,2022.2.4,Win32,59.92329818,62aa1fefabb116cb465a45fc,64d2fd46c836a06233681665,64dc7912c14b8ef70886de5e,,,,,,,ctch,resources/DR.BMP,resources/DP.BMP,Door4,-0.3275,-0.008333359,1,0,0,1.0827,optionLeft,80,1975,1,38,0,38,0,1,,,,,,,,,,,,,,,,,,,,,,,,,,,,,,,,,,,,,,,
,,,,,,,,2023-08-16_08h22.12.214,HF_wild_card,2022.2.4,Win32,59.92329818,62aa1fefabb116cb465a45fc,64d2fd46c836a06233681665,64dc7912c14b8ef70886de5e,,,,,,,decisionTrl,resources/DB.BMP,resources/DR.BMP,Door4,0.245833359,-0.031666679,1,0,0,0.732,optionRight,80,2055,1,39,0,39,0,1,,,,,,,,,,,,,,,,,,,,,,,,,,,,,,,,,,,,,,,
,,,,,,,,2023-08-16_08h22.12.214,HF_wild_card,2022.2.4,Win32,59.92329818,62aa1fefabb116cb465a45fc,64d2fd46c836a06233681665,64dc7912c14b8ef70886de5e,,,,,,,decisionTrl,resources/DR.BMP,resources/DG.BMP,Door4,-0.239166641,-0.014166679,1,0,0,0.6336,optionLeft,60,2115,1,40,0,40,0,1,,,,,,,,,,,,,,,,,,,,,,,,,,,,,,,,,,,,,,,
,,,,,,,,2023-08-16_08h22.12.214,HF_wild_card,2022.2.4,Win32,59.92329818,62aa1fefabb116cb465a45fc,64d2fd46c836a06233681665,64dc7912c14b8ef70886de5e,,,,,,,sngl,resources/DG.BMP,resources/Empty.png,Door3,-0.22,0.01,1,0,0,0.5152,optionLeft,70,2185,1,41,0,41,0,1,,,,,,,,,,,,,,,,,,,,,,,,,,,,,,,,,,,,,,,
,,,,,,,,2023-08-16_08h22.12.214,HF_wild_card,2022.2.4,Win32,59.92329818,62aa1fefabb116cb465a45fc,64d2fd46c836a06233681665,64dc7912c14b8ef70886de5e,,,,,,,decisionTrl,resources/DG.BMP,resources/DB.BMP,Door3,-0.37,0.0625,1,0,0,0.5653,optionLeft,70,2255,1,42,0,42,0,1,,,,,,,,,,,,,,,,,,,,,,,,,,,,,,,,,,,,,,,
,,,,,,,,2023-08-16_08h22.12.214,HF_wild_card,2022.2.4,Win32,59.92329818,62aa1fefabb116cb465a45fc,64d2fd46c836a06233681665,64dc7912c14b8ef70886de5e,,,,,,,decisionTrl,resources/DY.BMP,resources/DB.BMP,WildCard_NonEx,0.2725,-0.003333359,1,0,0,0.6998,optionRight,45,2300,1,43,0,43,0,1,,,,,,,,,,,,,,,,,,,,,,,,,,,,,,,,,,,,,,,
,,,,,,,,2023-08-16_08h22.12.214,HF_wild_card,2022.2.4,Win32,59.92329818,62aa1fefabb116cb465a45fc,64d2fd46c836a06233681665,64dc7912c14b8ef70886de5e,,,,,,,,,,,,,,,,,,,,,,,,,,0,0,0,0,1,,,,,,,,,,,,,,,,,,,,,,,,,,,,,,,,,,
,,,,,,,,2023-08-16_08h22.12.214,HF_wild_card,2022.2.4,Win32,59.92329818,62aa1fefabb116cb465a45fc,64d2fd46c836a06233681665,64dc7912c14b8ef70886de5e,,,,,,,ctch,resources/DY.BMP,resources/DG.BMP,Door2,-0.533333321,-0.018333359,1,0,0,1.4604,optionLeft,40,2340,2,0,0,0,0,1,,,,,,,,,,,,,,,,,,,,,,,,,,,,,,,,,,,,,,,
,,,,,,,,2023-08-16_08h22.12.214,HF_wild_card,2022.2.4,Win32,59.92329818,62aa1fefabb116cb465a45fc,64d2fd46c836a06233681665,64dc7912c14b8ef70886de5e,,,,,,,decisionTrl,resources/DB.BMP,resources/DP.BMP,WildCard_NonEx,-0.180833321,-0.004166679,1,0,0,0.4809,optionLeft,55,2395,2,1,0,1,0,1,,,,,,,,,,,,,,,,,,,,,,,,,,,,,,,,,,,,,,,
,,,,,,,,2023-08-16_08h22.12.214,HF_wild_card,2022.2.4,Win32,59.92329818,62aa1fefabb116cb465a45fc,64d2fd46c836a06233681665,64dc7912c14b8ef70886de5e,,,,,,,decisionTrl,resources/DP.BMP,resources/DY.BMP,Door2,0.248333359,-0.0075,1,0,0,0.4157,optionRight,20,2415,2,2,0,2,0,1,,,,,,,,,,,,,,,,,,,,,,,,,,,,,,,,,,,,,,,
,,,,,,,,2023-08-16_08h22.12.214,HF_wild_card,2022.2.4,Win32,59.92329818,62aa1fefabb116cb465a45fc,64d2fd46c836a06233681665,64dc7912c14b8ef70886de5e,,,,,,,decisionTrl,resources/DR.BMP,resources/DG.BMP,Door4,-0.229166641,-0.004166679,1,0,0,0.8987,optionLeft,80,2495,2,3,0,3,0,1,,,,,,,,,,,,,,,,,,,,,,,,,,,,,,,,,,,,,,,
,,,,,,,,2023-08-16_08h22.12.214,HF_wild_card,2022.2.4,Win32,59.92329818,62aa1fefabb116cb465a45fc,64d2fd46c836a06233681665,64dc7912c14b8ef70886de5e,,,,,,,decisionTrl,resources/DR.BMP,resources/DG.BMP,Door4,-0.336666641,0.0525,1,0,0,0.4486,optionLeft,80,2575,2,4,0,4,0,1,,,,,,,,,,,,,,,,,,,,,,,,,,,,,,,,,,,,,,,
,,,,,,,,2023-08-16_08h22.12.214,HF_wild_card,2022.2.4,Win32,59.92329818,62aa1fefabb116cb465a45fc,64d2fd46c836a06233681665,64dc7912c14b8ef70886de5e,,,,,,,sngl,resources/Empty.png,resources/DP.BMP,Door1,0.32,-0.010833359,1,0,0,0.5475,optionRight,30,2605,2,5,0,5,0,1,,,,,,,,,,,,,,,,,,,,,,,,,,,,,,,,,,,,,,,
,,,,,,,,2023-08-16_08h22.12.214,HF_wild_card,2022.2.4,Win32,59.92329818,62aa1fefabb116cb465a45fc,64d2fd46c836a06233681665,64dc7912c14b8ef70886de5e,,,,,,,decisionTrl,resources/DB.BMP,resources/DG.BMP,WildCard_NonEx,-0.3425,0.075,1,0,0,0.4156,optionLeft,45,2650,2,6,0,6,0,1,,,,,,,,,,,,,,,,,,,,,,,,,,,,,,,,,,,,,,,
,,,,,,,,2023-08-16_08h22.12.214,HF_wild_card,2022.2.4,Win32,59.92329818,62aa1fefabb116cb465a45fc,64d2fd46c836a06233681665,64dc7912c14b8ef70886de5e,,,,,,,decisionTrl,resources/DR.BMP,resources/DB.BMP,Door4,-0.284166641,0.015,1,0,0,0.3807,optionLeft,80,2730,2,7,0,7,0,1,,,,,,,,,,,,,,,,,,,,,,,,,,,,,,,,,,,,,,,
,,,,,,,,2023-08-16_08h22.12.214,HF_wild_card,2022.2.4,Win32,59.92329818,62aa1fefabb116cb465a45fc,64d2fd46c836a06233681665,64dc7912c14b8ef70886de5e,,,,,,,decisionTrl,resources/DP.BMP,resources/DY.BMP,Door1,-0.235833321,-0.000833359,1,0,0,0.449,optionLeft,30,2760,2,8,0,8,0,1,,,,,,,,,,,,,,,,,,,,,,,,,,,,,,,,,,,,,,,
,,,,,,,,2023-08-16_08h22.12.214,HF_wild_card,2022.2.4,Win32,59.92329818,62aa1fefabb116cb465a45fc,64d2fd46c836a06233681665,64dc7912c14b8ef70886de5e,,,,,,,ctch,resources/DP.BMP,resources/DR.BMP,Door4,0.323333359,-0.031666679,1,0,0,0.5149,optionRight,60,2820,2,9,0,9,0,1,,,,,,,,,,,,,,,,,,,,,,,,,,,,,,,,,,,,,,,
,,,,,,,,2023-08-16_08h22.12.214,HF_wild_card,2022.2.4,Win32,59.92329818,62aa1fefabb116cb465a45fc,64d2fd46c836a06233681665,64dc7912c14b8ef70886de5e,,,,,,,ctch,resources/DR.BMP,resources/DP.BMP,Door4,-0.3725,0.011666641,1,0,0,0.3975,optionLeft,80,2900,2,10,0,10,0,1,,,,,,,,,,,,,,,,,,,,,,,,,,,,,,,,,,,,,,,
,,,,,,,,2023-08-16_08h22.12.214,HF_wild_card,2022.2.4,Win32,59.92329818,62aa1fefabb116cb465a45fc,64d2fd46c836a06233681665,64dc7912c14b8ef70886de5e,,,,,,,decisionTrl,resources/DP.BMP,resources/DY.BMP,Door2,0.211666718,-0.028333359,1,0,0,0.3827,optionRight,20,2920,2,11,0,11,0,1,,,,,,,,,,,,,,,,,,,,,,,,,,,,,,,,,,,,,,,
,,,,,,,,2023-08-16_08h22.12.214,HF_wild_card,2022.2.4,Win32,59.92329818,62aa1fefabb116cb465a45fc,64d2fd46c836a06233681665,64dc7912c14b8ef70886de5e,,,,,,,decisionTrl,resources/DY.BMP,resources/DP.BMP,Door1,0.355,-0.069166679,1,0,0,0.5822,optionRight,30,2950,2,12,0,12,0,1,,,,,,,,,,,,,,,,,,,,,,,,,,,,,,,,,,,,,,,
,,,,,,,,2023-08-16_08h22.12.214,HF_wild_card,2022.2.4,Win32,59.92329818,62aa1fefabb116cb465a45fc,64d2fd46c836a06233681665,64dc7912c14b8ef70886de5e,,,,,,,ctch,resources/DG.BMP,resources/DY.BMP,Door2,0.4525,-0.086666679,1,0,0,0.4477,optionRight,20,2970,2,13,0,13,0,1,,,,,,,,,,,,,,,,,,,,,,,,,,,,,,,,,,,,,,,
,,,,,,,,2023-08-16_08h22.12.214,HF_wild_card,2022.2.4,Win32,59.92329818,62aa1fefabb116cb465a45fc,64d2fd46c836a06233681665,64dc7912c14b8ef70886de5e,,,,,,,decisionTrl,resources/DB.BMP,resources/DR.BMP,WildCard_NonEx,-0.354166641,-0.018333359,1,0,0,0.6146,optionLeft,45,3015,2,14,0,14,0,1,,,,,,,,,,,,,,,,,,,,,,,,,,,,,,,,,,,,,,,
,,,,,,,,2023-08-16_08h22.12.214,HF_wild_card,2022.2.4,Win32,59.92329818,62aa1fefabb116cb465a45fc,64d2fd46c836a06233681665,64dc7912c14b8ef70886de5e,,,,,,,decisionTrl,resources/DP.BMP,resources/DY.BMP,Door1,-0.343333321,-0.0075,1,0,0,0.6164,optionLeft,30,3045,2,15,0,15,0,1,,,,,,,,,,,,,,,,,,,,,,,,,,,,,,,,,,,,,,,
,,,,,,,,2023-08-16_08h22.12.214,HF_wild_card,2022.2.4,Win32,59.92329818,62aa1fefabb116cb465a45fc,64d2fd46c836a06233681665,64dc7912c14b8ef70886de5e,,,,,,,sngl,resources/Empty.png,resources/DB.BMP,WildCard_NonEx,0.303333359,-0.04,1,0,0,0.5486,optionRight,45,3090,2,16,0,16,0,1,,,,,,,,,,,,,,,,,,,,,,,,,,,,,,,,,,,,,,,
,,,,,,,,2023-08-16_08h22.12.214,HF_wild_card,2022.2.4,Win32,59.92329818,62aa1fefabb116cb465a45fc,64d2fd46c836a06233681665,64dc7912c14b8ef70886de5e,,,,,,,ctch,resources/DG.BMP,resources/DY.BMP,Door3,-0.2975,0,1,0,0,1.0159,optionLeft,70,3160,2,17,0,17,0,1,,,,,,,,,,,,,,,,,,,,,,,,,,,,,,,,,,,,,,,
,,,,,,,,2023-08-16_08h22.12.214,HF_wild_card,2022.2.4,Win32,59.92329818,62aa1fefabb116cb465a45fc,64d2fd46c836a06233681665,64dc7912c14b8ef70886de5e,,,,,,,sngl,resources/DG.BMP,resources/Empty.png,Door3,-0.254166641,0.005833321,1,0,0,0.4991,optionLeft,70,3230,2,18,0,18,0,1,,,,,,,,,,,,,,,,,,,,,,,,,,,,,,,,,,,,,,,
,,,,,,,,2023-08-16_08h22.12.214,HF_wild_card,2022.2.4,Win32,59.92329818,62aa1fefabb116cb465a45fc,64d2fd46c836a06233681665,64dc7912c14b8ef70886de5e,,,,,,,ctch,resources/DR.BMP,resources/DP.BMP,Door4,-0.169166641,0.003333321,1,0,0,0.6481,optionLeft,60,3290,2,19,0,19,0,1,,,,,,,,,,,,,,,,,,,,,,,,,,,,,,,,,,,,,,,
,,,,,,,,2023-08-16_08h22.12.214,HF_wild_card,2022.2.4,Win32,59.92329818,62aa1fefabb116cb465a45fc,64d2fd46c836a06233681665,64dc7912c14b8ef70886de5e,,,,,,,decisionTrl,resources/DY.BMP,resources/DP.BMP,Door2,-0.1925,-0.0175,1,0,0,1.6162,optionLeft,20,3310,2,20,0,20,0,1,,,,,,,,,,,,,,,,,,,,,,,,,,,,,,,,,,,,,,,
,,,,,,,,2023-08-16_08h22.12.214,HF_wild_card,2022.2.4,Win32,59.92329818,62aa1fefabb116cb465a45fc,64d2fd46c836a06233681665,64dc7912c14b8ef70886de5e,,,,,,,decisionTrl,resources/DY.BMP,resources/DP.BMP,Door1,0.31,-0.0275,1,0,0,0.599,optionRight,30,3340,2,21,0,21,0,1,,,,,,,,,,,,,,,,,,,,,,,,,,,,,,,,,,,,,,,
,,,,,,,,2023-08-16_08h22.12.214,HF_wild_card,2022.2.4,Win32,59.92329818,62aa1fefabb116cb465a45fc,64d2fd46c836a06233681665,64dc7912c14b8ef70886de5e,,,,,,,decisionTrl,resources/DR.BMP,resources/DG.BMP,Door4,-0.304166641,-0.018333359,1,0,0,0.9326,optionLeft,80,3420,2,22,0,22,0,1,,,,,,,,,,,,,,,,,,,,,,,,,,,,,,,,,,,,,,,
,,,,,,,,2023-08-16_08h22.12.214,HF_wild_card,2022.2.4,Win32,59.92329818,62aa1fefabb116cb465a45fc,64d2fd46c836a06233681665,64dc7912c14b8ef70886de5e,,,,,,,sngl,resources/DR.BMP,resources/Empty.png,Door4,-0.351666641,-0.0125,1,0,0,0.4488,optionLeft,60,3480,2,23,0,23,0,1,,,,,,,,,,,,,,,,,,,,,,,,,,,,,,,,,,,,,,,
,,,,,,,,2023-08-16_08h22.12.214,HF_wild_card,2022.2.4,Win32,59.92329818,62aa1fefabb116cb465a45fc,64d2fd46c836a06233681665,64dc7912c14b8ef70886de5e,,,,,,,decisionTrl,resources/DG.BMP,resources/DR.BMP,Door4,0.239166718,-0.026666679,1,0,0,0.4977,optionRight,60,3540,2,24,0,24,0,1,,,,,,,,,,,,,,,,,,,,,,,,,,,,,,,,,,,,,,,
,,,,,,,,2023-08-16_08h22.12.214,HF_wild_card,2022.2.4,Win32,59.92329818,62aa1fefabb116cb465a45fc,64d2fd46c836a06233681665,64dc7912c14b8ef70886de5e,,,,,,,ctch,resources/DY.BMP,resources/DG.BMP,Door3,0.300833359,-0.060833359,1,0,0,1.0498,optionRight,70,3610,2,25,0,25,0,1,,,,,,,,,,,,,,,,,,,,,,,,,,,,,,,,,,,,,,,
,,,,,,,,2023-08-16_08h22.12.214,HF_wild_card,2022.2.4,Win32,59.92329818,62aa1fefabb116cb465a45fc,64d2fd46c836a06233681665,64dc7912c14b8ef70886de5e,,,,,,,decisionTrl,resources/DR.BMP,resources/DG.BMP,Door4,-0.358333321,-0.015833359,1,0,0,0.6824,optionLeft,60,3670,2,26,0,26,0,1,,,,,,,,,,,,,,,,,,,,,,,,,,,,,,,,,,,,,,,
,,,,,,,,2023-08-16_08h22.12.214,HF_wild_card,2022.2.4,Win32,59.92329818,62aa1fefabb116cb465a45fc,64d2fd46c836a06233681665,64dc7912c14b8ef70886de5e,,,,,,,sngl,resources/DY.BMP,resources/Empty.png,Door2,-0.253333321,0.011666641,1,0,0,0.766,optionLeft,20,3690,2,27,0,27,0,1,,,,,,,,,,,,,,,,,,,,,,,,,,,,,,,,,,,,,,,
,,,,,,,,2023-08-16_08h22.12.214,HF_wild_card,2022.2.4,Win32,59.92329818,62aa1fefabb116cb465a45fc,64d2fd46c836a06233681665,64dc7912c14b8ef70886de5e,,,,,,,decisionTrl,resources/DG.BMP,resources/DB.BMP,Door3,-0.3575,0.0175,1,0,0,0.899,optionLeft,70,3760,2,28,0,28,0,1,,,,,,,,,,,,,,,,,,,,,,,,,,,,,,,,,,,,,,,
,,,,,,,,2023-08-16_08h22.12.214,HF_wild_card,2022.2.4,Win32,59.92329818,62aa1fefabb116cb465a45fc,64d2fd46c836a06233681665,64dc7912c14b8ef70886de5e,,,,,,,decisionTrl,resources/DY.BMP,resources/DP.BMP,Door1,0.265,-0.015,1,0,0,0.8997,optionRight,30,3790,2,29,0,29,0,1,,,,,,,,,,,,,,,,,,,,,,,,,,,,,,,,,,,,,,,
,,,,,,,,2023-08-16_08h22.12.214,HF_wild_card,2022.2.4,Win32,59.92329818,62aa1fefabb116cb465a45fc,64d2fd46c836a06233681665,64dc7912c14b8ef70886de5e,,,,,,,sngl,resources/Empty.png,resources/DR.BMP,Door4,0.194166718,0.001666641,1,0,0,0.6319,optionRight,80,3870,2,30,0,30,0,1,,,,,,,,,,,,,,,,,,,,,,,,,,,,,,,,,,,,,,,
,,,,,,,,2023-08-16_08h22.12.214,HF_wild_card,2022.2.4,Win32,59.92329818,62aa1fefabb116cb465a45fc,64d2fd46c836a06233681665,64dc7912c14b8ef70886de5e,,,,,,,decisionTrl,resources/DG.BMP,resources/DR.BMP,Door3,-0.189166641,-0.005,1,0,0,1.0498,optionLeft,70,3940,2,31,0,31,0,1,,,,,,,,,,,,,,,,,,,,,,,,,,,,,,,,,,,,,,,
,,,,,,,,2023-08-16_08h22.12.214,HF_wild_card,2022.2.4,Win32,59.92329818,62aa1fefabb116cb465a45fc,64d2fd46c836a06233681665,64dc7912c14b8ef70886de5e,,,,,,,decisionTrl,resources/DG.BMP,resources/DR.BMP,Door4,0.273333359,-0.0125,1,0,0,0.5323,optionRight,60,4000,2,32,0,32,0,1,,,,,,,,,,,,,,,,,,,,,,,,,,,,,,,,,,,,,,,
,,,,,,,,2023-08-16_08h22.12.214,HF_wild_card,2022.2.4,Win32,59.92329818,62aa1fefabb116cb465a45fc,64d2fd46c836a06233681665,64dc7912c14b8ef70886de5e,,,,,,,sngl,resources/Empty.png,resources/DG.BMP,Door3,0.360833359,-0.0375,1,0,0,0.4657,optionRight,70,4070,2,33,0,33,0,1,,,,,,,,,,,,,,,,,,,,,,,,,,,,,,,,,,,,,,,
,,,,,,,,2023-08-16_08h22.12.214,HF_wild_card,2022.2.4,Win32,59.92329818,62aa1fefabb116cb465a45fc,64d2fd46c836a06233681665,64dc7912c14b8ef70886de5e,,,,,,,decisionTrl,resources/DY.BMP,resources/DB.BMP,WildCard_NonEx,0.205,-0.005833359,1,0,0,0.9823,optionRight,55,4125,2,34,0,34,0,1,,,,,,,,,,,,,,,,,,,,,,,,,,,,,,,,,,,,,,,
,,,,,,,,2023-08-16_08h22.12.214,HF_wild_card,2022.2.4,Win32,59.92329818,62aa1fefabb116cb465a45fc,64d2fd46c836a06233681665,64dc7912c14b8ef70886de5e,,,,,,,decisionTrl,resources/DB.BMP,resources/DY.BMP,WildCard_NonEx,-0.336666641,0.004166641,1,0,0,0.6322,optionLeft,45,4170,2,35,0,35,0,1,,,,,,,,,,,,,,,,,,,,,,,,,,,,,,,,,,,,,,,
,,,,,,,,2023-08-16_08h22.12.214,HF_wild_card,2022.2.4,Win32,59.92329818,62aa1fefabb116cb465a45fc,64d2fd46c836a06233681665,64dc7912c14b8ef70886de5e,,,,,,,sngl,resources/DB.BMP,resources/Empty.png,WildCard_NonEx,-0.365833321,0.013333321,1,0,0,0.4994,optionLeft,55,4225,2,36,0,36,0,1,,,,,,,,,,,,,,,,,,,,,,,,,,,,,,,,,,,,,,,
,,,,,,,,2023-08-16_08h22.12.214,HF_wild_card,2022.2.4,Win32,59.92329818,62aa1fefabb116cb465a45fc,64d2fd46c836a06233681665,64dc7912c14b8ef70886de5e,,,,,,,sngl,resources/Empty.png,resources/DB.BMP,WildCard_NonEx,0.2725,-0.006666679,1,0,0,0.4985,optionRight,55,4280,2,37,0,37,0,1,,,,,,,,,,,,,,,,,,,,,,,,,,,,,,,,,,,,,,,
,,,,,,,,2023-08-16_08h22.12.214,HF_wild_card,2022.2.4,Win32,59.92329818,62aa1fefabb116cb465a45fc,64d2fd46c836a06233681665,64dc7912c14b8ef70886de5e,,,,,,,sngl,resources/Empty.png,resources/DY.BMP,Door2,0.278333359,-0.01,1,0,0,0.4475,optionRight,40,4320,2,38,0,38,0,1,,,,,,,,,,,,,,,,,,,,,,,,,,,,,,,,,,,,,,,
,,,,,,,,2023-08-16_08h22.12.214,HF_wild_card,2022.2.4,Win32,59.92329818,62aa1fefabb116cb465a45fc,64d2fd46c836a06233681665,64dc7912c14b8ef70886de5e,,,,,,,sngl,resources/DP.BMP,resources/Empty.png,Door1,-0.314166641,-0.009166679,1,0,0,0.4489,optionLeft,30,4350,2,39,0,39,0,1,,,,,,,,,,,,,,,,,,,,,,,,,,,,,,,,,,,,,,,
,,,,,,,,2023-08-16_08h22.12.214,HF_wild_card,2022.2.4,Win32,59.92329818,62aa1fefabb116cb465a45fc,64d2fd46c836a06233681665,64dc7912c14b8ef70886de5e,,,,,,,decisionTrl,resources/DP.BMP,resources/DB.BMP,Door1,-0.358333321,0.0225,1,0,0,0.5316,optionLeft,30,4380,2,40,0,40,0,1,,,,,,,,,,,,,,,,,,,,,,,,,,,,,,,,,,,,,,,
,,,,,,,,2023-08-16_08h22.12.214,HF_wild_card,2022.2.4,Win32,59.92329818,62aa1fefabb116cb465a45fc,64d2fd46c836a06233681665,64dc7912c14b8ef70886de5e,,,,,,,decisionTrl,resources/DG.BMP,resources/DR.BMP,Door4,0.298333359,-0.01,1,0,0,0.9995,optionRight,60,4440,2,41,0,41,0,1,,,,,,,,,,,,,,,,,,,,,,,,,,,,,,,,,,,,,,,
,,,,,,,,2023-08-16_08h22.12.214,HF_wild_card,2022.2.4,Win32,59.92329818,62aa1fefabb116cb465a45fc,64d2fd46c836a06233681665,64dc7912c14b8ef70886de5e,,,,,,,sngl,resources/DB.BMP,resources/Empty.png,WildCard_NonEx,-0.2625,0.014166641,1,0,0,0.5153,optionLeft,45,4485,2,42,0,42,0,1,,,,,,,,,,,,,,,,,,,,,,,,,,,,,,,,,,,,,,,
,,,,,,,,2023-08-16_08h22.12.214,HF_wild_card,2022.2.4,Win32,59.92329818,62aa1fefabb116cb465a45fc,64d2fd46c836a06233681665,64dc7912c14b8ef70886de5e,,,,,,,ctch,resources/DP.BMP,resources/DR.BMP,Door4,0.21,-0.001666679,1,0,0,0.8992,optionRight,80,4565,2,43,0,43,0,1,,,,,,,,,,,,,,,,,,,,,,,,,,,,,,,,,,,,,,,
,,,,,,,,2023-08-16_08h22.12.214,HF_wild_card,2022.2.4,Win32,59.92329818,62aa1fefabb116cb465a45fc,64d2fd46c836a06233681665,64dc7912c14b8ef70886de5e,,,,,,,,,,,,,,,,,,,,,,,,,,1,0,1,0,1,,,,,,,,,,,,,,,,,,,,,,,,,,,,,,,,,,
,,,,,,,,2023-08-16_08h22.12.214,HF_wild_card,2022.2.4,Win32,59.92329818,62aa1fefabb116cb465a45fc,64d2fd46c836a06233681665,64dc7912c14b8ef70886de5e,,,,,,,decisionTrl,resources/DY.BMP,resources/DB.BMP,Door2,-0.195,-0.131666679,1,0,0,1.6541,optionLeft,40,4605,3,0,0,0,0,1,,,,,,,,,,,,,,,,,,,,,,,,,,,,,,,,,,,,,,,
,,,,,,,,2023-08-16_08h22.12.214,HF_wild_card,2022.2.4,Win32,59.92329818,62aa1fefabb116cb465a45fc,64d2fd46c836a06233681665,64dc7912c14b8ef70886de5e,,,,,,,decisionTrl,resources/DP.BMP,resources/DY.BMP,Door1,-0.2275,-0.004166679,1,0,0,0.4815,optionLeft,30,4635,3,1,0,1,0,1,,,,,,,,,,,,,,,,,,,,,,,,,,,,,,,,,,,,,,,
,,,,,,,,2023-08-16_08h22.12.214,HF_wild_card,2022.2.4,Win32,59.92329818,62aa1fefabb116cb465a45fc,64d2fd46c836a06233681665,64dc7912c14b8ef70886de5e,,,,,,,decisionTrl,resources/DG.BMP,resources/DR.BMP,Door4,0.303333359,-0.023333359,1,0,0,0.4637,optionRight,80,4715,3,2,0,2,0,1,,,,,,,,,,,,,,,,,,,,,,,,,,,,,,,,,,,,,,,
,,,,,,,,2023-08-16_08h22.12.214,HF_wild_card,2022.2.4,Win32,59.92329818,62aa1fefabb116cb465a45fc,64d2fd46c836a06233681665,64dc7912c14b8ef70886de5e,,,,,,,sngl,resources/DP.BMP,resources/Empty.png,Door1,-0.174166641,-0.01,1,0,0,0.4981,optionLeft,30,4745,3,3,0,3,0,1,,,,,,,,,,,,,,,,,,,,,,,,,,,,,,,,,,,,,,,
,,,,,,,,2023-08-16_08h22.12.214,HF_wild_card,2022.2.4,Win32,59.92329818,62aa1fefabb116cb465a45fc,64d2fd46c836a06233681665,64dc7912c14b8ef70886de5e,,,,,,,decisionTrl,resources/DR.BMP,resources/DG.BMP,Door4,-0.258333321,0.006666641,1,0,0,0.7823,optionLeft,80,4825,3,4,0,4,0,1,,,,,,,,,,,,,,,,,,,,,,,,,,,,,,,,,,,,,,,
,,,,,,,,2023-08-16_08h22.12.214,HF_wild_card,2022.2.4,Win32,59.92329818,62aa1fefabb116cb465a45fc,64d2fd46c836a06233681665,64dc7912c14b8ef70886de5e,,,,,,,ctch,resources/DP.BMP,resources/DR.BMP,Door4,0.3175,-0.056666679,1,0,0,0.5823,optionRight,60,4885,3,5,0,5,0,1,,,,,,,,,,,,,,,,,,,,,,,,,,,,,,,,,,,,,,,
,,,,,,,,2023-08-16_08h22.12.214,HF_wild_card,2022.2.4,Win32,59.92329818,62aa1fefabb116cb465a45fc,64d2fd46c836a06233681665,64dc7912c14b8ef70886de5e,,,,,,,decisionTrl,resources/DB.BMP,resources/DG.BMP,WildCard_NonEx,-0.193333321,-0.01,1,0,0,0.6158,optionLeft,55,4940,3,6,0,6,0,1,,,,,,,,,,,,,,,,,,,,,,,,,,,,,,,,,,,,,,,
,,,,,,,,2023-08-16_08h22.12.214,HF_wild_card,2022.2.4,Win32,59.92329818,62aa1fefabb116cb465a45fc,64d2fd46c836a06233681665,64dc7912c14b8ef70886de5e,,,,,,,decisionTrl,resources/DB.BMP,resources/DP.BMP,Door1,0.298333359,-0.028333359,1,0,0,0.3994,optionRight,30,4970,3,7,0,7,0,1,,,,,,,,,,,,,,,,,,,,,,,,,,,,,,,,,,,,,,,
,,,,,,,,2023-08-16_08h22.12.214,HF_wild_card,2022.2.4,Win32,59.92329818,62aa1fefabb116cb465a45fc,64d2fd46c836a06233681665,64dc7912c14b8ef70886de5e,,,,,,,decisionTrl,resources/DY.BMP,resources/DP.BMP,Door1,0.1425,-0.015833359,1,0,0,0.5654,optionRight,30,5000,3,8,0,8,0,1,,,,,,,,,,,,,,,,,,,,,,,,,,,,,,,,,,,,,,,
,,,,,,,,2023-08-16_08h22.12.214,HF_wild_card,2022.2.4,Win32,59.92329818,62aa1fefabb116cb465a45fc,64d2fd46c836a06233681665,64dc7912c14b8ef70886de5e,,,,,,,sngl,resources/Empty.png,resources/DG.BMP,Door3,0.166666718,-0.008333359,1,0,0,0.5321,optionRight,70,5070,3,9,0,9,0,1,,,,,,,,,,,,,,,,,,,,,,,,,,,,,,,,,,,,,,,
,,,,,,,,2023-08-16_08h22.12.214,HF_wild_card,2022.2.4,Win32,59.92329818,62aa1fefabb116cb465a45fc,64d2fd46c836a06233681665,64dc7912c14b8ef70886de5e,,,,,,,decisionTrl,resources/DY.BMP,resources/DP.BMP,Door2,-0.213333321,0.001666641,1,0,0,0.899,optionLeft,40,5110,3,10,0,10,0,1,,,,,,,,,,,,,,,,,,,,,,,,,,,,,,,,,,,,,,,
,,,,,,,,2023-08-16_08h22.12.214,HF_wild_card,2022.2.4,Win32,59.92329818,62aa1fefabb116cb465a45fc,64d2fd46c836a06233681665,64dc7912c14b8ef70886de5e,,,,,,,ctch,resources/DY.BMP,resources/DG.BMP,Door2,-0.205833321,0.010833321,1,0,0,0.5823,optionLeft,40,5150,3,11,0,11,0,1,,,,,,,,,,,,,,,,,,,,,,,,,,,,,,,,,,,,,,,
,,,,,,,,2023-08-16_08h22.12.214,HF_wild_card,2022.2.4,Win32,59.92329818,62aa1fefabb116cb465a45fc,64d2fd46c836a06233681665,64dc7912c14b8ef70886de5e,,,,,,,ctch,resources/DY.BMP,resources/DG.BMP,Door3,0.4425,-0.056666679,1,0,0,0.5314,optionRight,70,5220,3,12,0,12,0,1,,,,,,,,,,,,,,,,,,,,,,,,,,,,,,,,,,,,,,,
,,,,,,,,2023-08-16_08h22.12.214,HF_wild_card,2022.2.4,Win32,59.92329818,62aa1fefabb116cb465a45fc,64d2fd46c836a06233681665,64dc7912c14b8ef70886de5e,,,,,,,ctch,resources/DG.BMP,resources/DY.BMP,Door3,-0.2225,-0.04,1,0,0,0.5321,optionLeft,70,5290,3,13,0,13,0,1,,,,,,,,,,,,,,,,,,,,,,,,,,,,,,,,,,,,,,,
,,,,,,,,2023-08-16_08h22.12.214,HF_wild_card,2022.2.4,Win32,59.92329818,62aa1fefabb116cb465a45fc,64d2fd46c836a06233681665,64dc7912c14b8ef70886de5e,,,,,,,decisionTrl,resources/DP.BMP,resources/DY.BMP,Door1,-0.180833321,-0.015,1,0,0,0.9483,optionLeft,30,5320,3,14,0,14,0,1,,,,,,,,,,,,,,,,,,,,,,,,,,,,,,,,,,,,,,,
,,,,,,,,2023-08-16_08h22.12.214,HF_wild_card,2022.2.4,Win32,59.92329818,62aa1fefabb116cb465a45fc,64d2fd46c836a06233681665,64dc7912c14b8ef70886de5e,,,,,,,sngl,resources/Empty.png,resources/DR.BMP,Door4,0.2275,-0.000833359,1,0,0,0.5486,optionRight,60,5380,3,15,0,15,0,1,,,,,,,,,,,,,,,,,,,,,,,,,,,,,,,,,,,,,,,
,,,,,,,,2023-08-16_08h22.12.214,HF_wild_card,2022.2.4,Win32,59.92329818,62aa1fefabb116cb465a45fc,64d2fd46c836a06233681665,64dc7912c14b8ef70886de5e,,,,,,,sngl,resources/DY.BMP,resources/Empty.png,Door2,-0.150833282,0,1,0,0,0.4654,optionLeft,40,5420,3,16,0,16,0,1,,,,,,,,,,,,,,,,,,,,,,,,,,,,,,,,,,,,,,,
,,,,,,,,2023-08-16_08h22.12.214,HF_wild_card,2022.2.4,Win32,59.92329818,62aa1fefabb116cb465a45fc,64d2fd46c836a06233681665,64dc7912c14b8ef70886de5e,,,,,,,sngl,resources/Empty.png,resources/DB.BMP,WildCard_NonEx,0.3075,-0.034166679,1,0,0,0.5327,optionRight,55,5475,3,17,0,17,0,1,,,,,,,,,,,,,,,,,,,,,,,,,,,,,,,,,,,,,,,
,,,,,,,,2023-08-16_08h22.12.214,HF_wild_card,2022.2.4,Win32,59.92329818,62aa1fefabb116cb465a45fc,64d2fd46c836a06233681665,64dc7912c14b8ef70886de5e,,,,,,,decisionTrl,resources/DR.BMP,resources/DG.BMP,Door4,-0.326666641,0.015833321,1,0,0,1.0993,optionLeft,60,5535,3,18,0,18,0,1,,,,,,,,,,,,,,,,,,,,,,,,,,,,,,,,,,,,,,,
,,,,,,,,2023-08-16_08h22.12.214,HF_wild_card,2022.2.4,Win32,59.92329818,62aa1fefabb116cb465a45fc,64d2fd46c836a06233681665,64dc7912c14b8ef70886de5e,,,,,,,sngl,resources/DB.BMP,resources/Empty.png,WildCard_NonEx,-0.198333321,-0.009166679,1,0,0,0.4664,optionLeft,45,5580,3,19,0,19,0,1,,,,,,,,,,,,,,,,,,,,,,,,,,,,,,,,,,,,,,,
,,,,,,,,2023-08-16_08h22.12.214,HF_wild_card,2022.2.4,Win32,59.92329818,62aa1fefabb116cb465a45fc,64d2fd46c836a06233681665,64dc7912c14b8ef70886de5e,,,,,,,decisionTrl,resources/DP.BMP,resources/DY.BMP,Door1,-0.139166641,-0.015833359,1,0,0,0.4997,optionLeft,30,5610,3,20,0,20,0,1,,,,,,,,,,,,,,,,,,,,,,,,,,,,,,,,,,,,,,,
,,,,,,,,2023-08-16_08h22.12.214,HF_wild_card,2022.2.4,Win32,59.92329818,62aa1fefabb116cb465a45fc,64d2fd46c836a06233681665,64dc7912c14b8ef70886de5e,,,,,,,decisionTrl,resources/DB.BMP,resources/DR.BMP,Door4,0.2175,-0.008333359,1,0,0,0.6839,optionRight,60,5670,3,21,0,21,0,1,,,,,,,,,,,,,,,,,,,,,,,,,,,,,,,,,,,,,,,
,,,,,,,,2023-08-16_08h22.12.214,HF_wild_card,2022.2.4,Win32,59.92329818,62aa1fefabb116cb465a45fc,64d2fd46c836a06233681665,64dc7912c14b8ef70886de5e,,,,,,,sngl,resources/Empty.png,resources/DP.BMP,Door1,0.1975,-0.024166679,1,0,0,0.4646,optionRight,30,5700,3,22,0,22,0,1,,,,,,,,,,,,,,,,,,,,,,,,,,,,,,,,,,,,,,,
,,,,,,,,2023-08-16_08h22.12.214,HF_wild_card,2022.2.4,Win32,59.92329818,62aa1fefabb116cb465a45fc,64d2fd46c836a06233681665,64dc7912c14b8ef70886de5e,,,,,,,decisionTrl,resources/DR.BMP,resources/DG.BMP,Door4,-0.230833321,-0.025833359,1,0,0,0.4828,optionLeft,80,5780,3,23,0,23,0,1,,,,,,,,,,,,,,,,,,,,,,,,,,,,,,,,,,,,,,,
,,,,,,,,2023-08-16_08h22.12.214,HF_wild_card,2022.2.4,Win32,59.92329818,62aa1fefabb116cb465a45fc,64d2fd46c836a06233681665,64dc7912c14b8ef70886de5e,,,,,,,decisionTrl,resources/DR.BMP,resources/DG.BMP,Door4,-0.144166641,-0.0225,1,0,0,0.6151,optionLeft,80,5860,3,24,0,24,0,1,,,,,,,,,,,,,,,,,,,,,,,,,,,,,,,,,,,,,,,
,,,,,,,,2023-08-16_08h22.12.214,HF_wild_card,2022.2.4,Win32,59.92329818,62aa1fefabb116cb465a45fc,64d2fd46c836a06233681665,64dc7912c14b8ef70886de5e,,,,,,,sngl,resources/DR.BMP,resources/Empty.png,Door4,-0.175833321,-0.019166679,1,0,0,0.4155,optionLeft,80,5940,3,25,0,25,0,1,,,,,,,,,,,,,,,,,,,,,,,,,,,,,,,,,,,,,,,
,,,,,,,,2023-08-16_08h22.12.214,HF_wild_card,2022.2.4,Win32,59.92329818,62aa1fefabb116cb465a45fc,64d2fd46c836a06233681665,64dc7912c14b8ef70886de5e,,,,,,,decisionTrl,resources/DY.BMP,resources/DP.BMP,Door2,-0.140833282,-0.045833359,1,0,0,0.8828,optionLeft,20,5960,3,26,0,26,0,1,,,,,,,,,,,,,,,,,,,,,,,,,,,,,,,,,,,,,,,
,,,,,,,,2023-08-16_08h22.12.214,HF_wild_card,2022.2.4,Win32,59.92329818,62aa1fefabb116cb465a45fc,64d2fd46c836a06233681665,64dc7912c14b8ef70886de5e,,,,,,,sngl,resources/DG.BMP,resources/Empty.png,Door3,-0.141666641,-0.0175,1,0,0,0.5484,optionLeft,70,6030,3,27,0,27,0,1,,,,,,,,,,,,,,,,,,,,,,,,,,,,,,,,,,,,,,,
,,,,,,,,2023-08-16_08h22.12.214,HF_wild_card,2022.2.4,Win32,59.92329818,62aa1fefabb116cb465a45fc,64d2fd46c836a06233681665,64dc7912c14b8ef70886de5e,,,,,,,sngl,resources/Empty.png,resources/DB.BMP,WildCard_NonEx,0.189166718,-0.029166679,1,0,0,0.3814,optionRight,45,6075,3,28,0,28,0,1,,,,,,,,,,,,,,,,,,,,,,,,,,,,,,,,,,,,,,,
,,,,,,,,2023-08-16_08h22.12.214,HF_wild_card,2022.2.4,Win32,59.92329818,62aa1fefabb116cb465a45fc,64d2fd46c836a06233681665,64dc7912c14b8ef70886de5e,,,,,,,decisionTrl,resources/DP.BMP,resources/DY.BMP,Door1,-0.148333282,-0.030833359,1,0,0,0.882,optionLeft,30,6105,3,29,0,29,0,1,,,,,,,,,,,,,,,,,,,,,,,,,,,,,,,,,,,,,,,
,,,,,,,,2023-08-16_08h22.12.214,HF_wild_card,2022.2.4,Win32,59.92329818,62aa1fefabb116cb465a45fc,64d2fd46c836a06233681665,64dc7912c14b8ef70886de5e,,,,,,,sngl,resources/DB.BMP,resources/Empty.png,WildCard_NonEx,-0.185,-0.0225,1,0,0,0.4483,optionLeft,55,6160,3,30,0,30,0,1,,,,,,,,,,,,,,,,,,,,,,,,,,,,,,,,,,,,,,,
,,,,,,,,2023-08-16_08h22.12.214,HF_wild_card,2022.2.4,Win32,59.92329818,62aa1fefabb116cb465a45fc,64d2fd46c836a06233681665,64dc7912c14b8ef70886de5e,,,,,,,ctch,resources/DP.BMP,resources/DR.BMP,Door4,0.159166718,-0.010833359,1,0,0,0.682,optionRight,80,6240,3,31,0,31,0,1,,,,,,,,,,,,,,,,,,,,,,,,,,,,,,,,,,,,,,,
,,,,,,,,2023-08-16_08h22.12.214,HF_wild_card,2022.2.4,Win32,59.92329818,62aa1fefabb116cb465a45fc,64d2fd46c836a06233681665,64dc7912c14b8ef70886de5e,,,,,,,sngl,resources/Empty.png,resources/DY.BMP,Door2,0.218333359,-0.0075,1,0,0,0.4985,optionRight,20,6260,3,32,0,32,0,1,,,,,,,,,,,,,,,,,,,,,,,,,,,,,,,,,,,,,,,
,,,,,,,,2023-08-16_08h22.12.214,HF_wild_card,2022.2.4,Win32,59.92329818,62aa1fefabb116cb465a45fc,64d2fd46c836a06233681665,64dc7912c14b8ef70886de5e,,,,,,,ctch,resources/DR.BMP,resources/DP.BMP,Door4,-0.175,-0.004166679,1,0,0,0.5468,optionLeft,60,6320,3,33,0,33,0,1,,,,,,,,,,,,,,,,,,,,,,,,,,,,,,,,,,,,,,,
,,,,,,,,2023-08-16_08h22.12.214,HF_wild_card,2022.2.4,Win32,59.92329818,62aa1fefabb116cb465a45fc,64d2fd46c836a06233681665,64dc7912c14b8ef70886de5e,,,,,,,decisionTrl,resources/DY.BMP,resources/DP.BMP,Door2,-0.208333321,0.01,1,0,0,0.8461,optionLeft,20,6340,3,34,0,34,0,1,,,,,,,,,,,,,,,,,,,,,,,,,,,,,,,,,,,,,,,
,,,,,,,,2023-08-16_08h22.12.214,HF_wild_card,2022.2.4,Win32,59.92329818,62aa1fefabb116cb465a45fc,64d2fd46c836a06233681665,64dc7912c14b8ef70886de5e,,,,,,,decisionTrl,resources/DP.BMP,resources/DB.BMP,WildCard_NonEx,0.2175,-0.008333359,1,0,0,0.6141,optionRight,45,6385,3,35,0,35,0,1,,,,,,,,,,,,,,,,,,,,,,,,,,,,,,,,,,,,,,,
,,,,,,,,2023-08-16_08h22.12.214,HF_wild_card,2022.2.4,Win32,59.92329818,62aa1fefabb116cb465a45fc,64d2fd46c836a06233681665,64dc7912c14b8ef70886de5e,,,,,,,ctch,resources/DG.BMP,resources/DY.BMP,Door3,-0.204166641,-0.008333359,1,0,0,0.5661,optionLeft,70,6455,3,36,0,36,0,1,,,,,,,,,,,,,,,,,,,,,,,,,,,,,,,,,,,,,,,
,,,,,,,,2023-08-16_08h22.12.214,HF_wild_card,2022.2.4,Win32,59.92329818,62aa1fefabb116cb465a45fc,64d2fd46c836a06233681665,64dc7912c14b8ef70886de5e,,,,,,,decisionTrl,resources/DR.BMP,resources/DB.BMP,Door4,-0.2125,-0.0025,1,0,0,0.5152,optionLeft,60,6515,3,37,0,37,0,1,,,,,,,,,,,,,,,,,,,,,,,,,,,,,,,,,,,,,,,
,,,,,,,,2023-08-16_08h22.12.214,HF_wild_card,2022.2.4,Win32,59.92329818,62aa1fefabb116cb465a45fc,64d2fd46c836a06233681665,64dc7912c14b8ef70886de5e,,,,,,,decisionTrl,resources/DG.BMP,resources/DR.BMP,Door4,0.155833359,-0.0025,1,0,0,0.4483,optionRight,60,6575,3,38,0,38,0,1,,,,,,,,,,,,,,,,,,,,,,,,,,,,,,,,,,,,,,,
,,,,,,,,2023-08-16_08h22.12.214,HF_wild_card,2022.2.4,Win32,59.92329818,62aa1fefabb116cb465a45fc,64d2fd46c836a06233681665,64dc7912c14b8ef70886de5e,,,,,,,decisionTrl,resources/DG.BMP,resources/DB.BMP,Door3,-0.235,-0.010833359,1,0,0,0.5151,optionLeft,70,6645,3,39,0,39,0,1,,,,,,,,,,,,,,,,,,,,,,,,,,,,,,,,,,,,,,,
,,,,,,,,2023-08-16_08h22.12.214,HF_wild_card,2022.2.4,Win32,59.92329818,62aa1fefabb116cb465a45fc,64d2fd46c836a06233681665,64dc7912c14b8ef70886de5e,,,,,,,ctch,resources/DR.BMP,resources/DP.BMP,Door4,-0.35,-0.018333359,1,0,0,0.7152,optionLeft,60,6705,3,40,0,40,0,1,,,,,,,,,,,,,,,,,,,,,,,,,,,,,,,,,,,,,,,
,,,,,,,,2023-08-16_08h22.12.214,HF_wild_card,2022.2.4,Win32,59.92329818,62aa1fefabb116cb465a45fc,64d2fd46c836a06233681665,64dc7912c14b8ef70886de5e,,,,,,,decisionTrl,resources/DB.BMP,resources/DY.BMP,WildCard_NonEx,-0.221666641,-0.006666679,1,0,0,0.4656,optionLeft,45,6750,3,41,0,41,0,1,,,,,,,,,,,,,,,,,,,,,,,,,,,,,,,,,,,,,,,
,,,,,,,,2023-08-16_08h22.12.214,HF_wild_card,2022.2.4,Win32,59.92329818,62aa1fefabb116cb465a45fc,64d2fd46c836a06233681665,64dc7912c14b8ef70886de5e,,,,,,,decisionTrl,resources/DG.BMP,resources/DR.BMP,Door4,0.249166718,-0.005833359,1,0,0,0.4983,optionRight,80,6830,3,42,0,42,0,1,,,,,,,,,,,,,,,,,,,,,,,,,,,,,,,,,,,,,,,
,,,,,,,,2023-08-16_08h22.12.214,HF_wild_card,2022.2.4,Win32,59.92329818,62aa1fefabb116cb465a45fc,64d2fd46c836a06233681665,64dc7912c14b8ef70886de5e,,,,,,,decisionTrl,resources/DG.BMP,resources/DR.BMP,Door4,0.309166718,-0.0325,1,0,0,0.483,optionRight,60,6890,3,43,0,43,0,1,,,,,,,,,,,,,,,,,,,,,,,,,,,,,,,,,,,,,,,
,,,,,,,,2023-08-16_08h22.12.214,HF_wild_card,2022.2.4,Win32,59.92329818,62aa1fefabb116cb465a45fc,64d2fd46c836a06233681665,64dc7912c14b8ef70886de5e,,,,,,,,,,,,,,,,,,,,,,,,,,2,0,2,0,1,,,,,,,,,,,,,,,,,,,,,,,,,,,,,,,,,,
,,,,,,,,2023-08-16_08h22.12.214,HF_wild_card,2022.2.4,Win32,59.92329818,62aa1fefabb116cb465a45fc,64d2fd46c836a06233681665,64dc7912c14b8ef70886de5e,,,,,,,sngl,resources/DBN.BMP,resources/Empty.png,WildCard_Ex,-0.12,-0.124166679,1,0,0,1.1222,optionLeft,95,6985,4,0,0,0,0,1,,,,,,,,,,,,,,,,,,,,,,,,,,,,,,,,,,,,,,,
,,,,,,,,2023-08-16_08h22.12.214,HF_wild_card,2022.2.4,Win32,59.92329818,62aa1fefabb116cb465a45fc,64d2fd46c836a06233681665,64dc7912c14b8ef70886de5e,,,,,,,sngl,resources/DBN.BMP,resources/Empty.png,WildCard_Ex,-0.230833321,-0.011666679,1,0,0,0.4987,optionLeft,5,6990,4,1,0,1,0,1,,,,,,,,,,,,,,,,,,,,,,,,,,,,,,,,,,,,,,,
,,,,,,,,2023-08-16_08h22.12.214,HF_wild_card,2022.2.4,Win32,59.92329818,62aa1fefabb116cb465a45fc,64d2fd46c836a06233681665,64dc7912c14b8ef70886de5e,,,,,,,ctch,resources/DG.BMP,resources/DY.BMP,Door3,-0.285833321,0.0825,1,0,0,1.382,optionLeft,70,7060,4,2,0,2,0,1,,,,,,,,,,,,,,,,,,,,,,,,,,,,,,,,,,,,,,,
,,,,,,,,2023-08-16_08h22.12.214,HF_wild_card,2022.2.4,Win32,59.92329818,62aa1fefabb116cb465a45fc,64d2fd46c836a06233681665,64dc7912c14b8ef70886de5e,,,,,,,decisionTrl,resources/DBN.BMP,resources/DG.BMP,WildCard_Ex,-0.1275,0.005833321,1,0,0,0.6326,optionLeft,5,7065,4,3,0,3,0,1,,,,,,,,,,,,,,,,,,,,,,,,,,,,,,,,,,,,,,,
,,,,,,,,2023-08-16_08h22.12.214,HF_wild_card,2022.2.4,Win32,59.92329818,62aa1fefabb116cb465a45fc,64d2fd46c836a06233681665,64dc7912c14b8ef70886de5e,,,,,,,sngl,resources/Empty.png,resources/DR.BMP,Door4,0.1525,0.015,1,0,0,0.4829,optionRight,80,7145,4,4,0,4,0,1,,,,,,,,,,,,,,,,,,,,,,,,,,,,,,,,,,,,,,,
,,,,,,,,2023-08-16_08h22.12.214,HF_wild_card,2022.2.4,Win32,59.92329818,62aa1fefabb116cb465a45fc,64d2fd46c836a06233681665,64dc7912c14b8ef70886de5e,,,,,,,ctch,resources/DR.BMP,resources/DP.BMP,Door4,-0.188333321,-0.005,1,0,0,0.5988,optionLeft,60,7205,4,5,0,5,0,1,,,,,,,,,,,,,,,,,,,,,,,,,,,,,,,,,,,,,,,
,,,,,,,,2023-08-16_08h22.12.214,HF_wild_card,2022.2.4,Win32,59.92329818,62aa1fefabb116cb465a45fc,64d2fd46c836a06233681665,64dc7912c14b8ef70886de5e,,,,,,,decisionTrl,resources/DR.BMP,resources/DG.BMP,Door4,-0.165,-0.011666679,1,0,0,0.5311,optionLeft,60,7265,4,6,0,6,0,1,,,,,,,,,,,,,,,,,,,,,,,,,,,,,,,,,,,,,,,
,,,,,,,,2023-08-16_08h22.12.214,HF_wild_card,2022.2.4,Win32,59.92329818,62aa1fefabb116cb465a45fc,64d2fd46c836a06233681665,64dc7912c14b8ef70886de5e,,,,,,,sngl,resources/Empty.png,resources/DY.BMP,Door2,0.151666718,-0.003333359,1,0,0,0.649,optionRight,40,7305,4,7,0,7,0,1,,,,,,,,,,,,,,,,,,,,,,,,,,,,,,,,,,,,,,,
,,,,,,,,2023-08-16_08h22.12.214,HF_wild_card,2022.2.4,Win32,59.92329818,62aa1fefabb116cb465a45fc,64d2fd46c836a06233681665,64dc7912c14b8ef70886de5e,,,,,,,sngl,resources/Empty.png,resources/DBN.BMP,WildCard_Ex,0.2025,-0.01,1,0,0,0.5314,optionRight,5,7310,4,8,0,8,0,1,,,,,,,,,,,,,,,,,,,,,,,,,,,,,,,,,,,,,,,
,,,,,,,,2023-08-16_08h22.12.214,HF_wild_card,2022.2.4,Win32,59.92329818,62aa1fefabb116cb465a45fc,64d2fd46c836a06233681665,64dc7912c14b8ef70886de5e,,,,,,,decisionTrl,resources/DR.BMP,resources/DG.BMP,Door4,-0.208333321,0.025833321,1,0,0,0.5321,optionLeft,60,7370,4,9,0,9,0,1,,,,,,,,,,,,,,,,,,,,,,,,,,,,,,,,,,,,,,,
,,,,,,,,2023-08-16_08h22.12.214,HF_wild_card,2022.2.4,Win32,59.92329818,62aa1fefabb116cb465a45fc,64d2fd46c836a06233681665,64dc7912c14b8ef70886de5e,,,,,,,decisionTrl,resources/DP.BMP,resources/DY.BMP,Door1,-0.255,0.040833321,1,0,0,0.8647,optionLeft,30,7400,4,10,0,10,0,1,,,,,,,,,,,,,,,,,,,,,,,,,,,,,,,,,,,,,,,
,,,,,,,,2023-08-16_08h22.12.214,HF_wild_card,2022.2.4,Win32,59.92329818,62aa1fefabb116cb465a45fc,64d2fd46c836a06233681665,64dc7912c14b8ef70886de5e,,,,,,,decisionTrl,resources/DP.BMP,resources/DY.BMP,Door2,0.170833359,0.034166641,1,0,0,0.6325,optionRight,20,7420,4,11,0,11,0,1,,,,,,,,,,,,,,,,,,,,,,,,,,,,,,,,,,,,,,,
,,,,,,,,2023-08-16_08h22.12.214,HF_wild_card,2022.2.4,Win32,59.92329818,62aa1fefabb116cb465a45fc,64d2fd46c836a06233681665,64dc7912c14b8ef70886de5e,,,,,,,decisionTrl,resources/DR.BMP,resources/DG.BMP,Door4,-0.155,0.008333321,1,0,0,0.5462,optionLeft,60,7480,4,12,0,12,0,1,,,,,,,,,,,,,,,,,,,,,,,,,,,,,,,,,,,,,,,
,,,,,,,,2023-08-16_08h22.12.214,HF_wild_card,2022.2.4,Win32,59.92329818,62aa1fefabb116cb465a45fc,64d2fd46c836a06233681665,64dc7912c14b8ef70886de5e,,,,,,,ctch,resources/DY.BMP,resources/DG.BMP,Door3,0.1925,0.013333321,1,0,0,0.466,optionRight,70,7550,4,13,0,13,0,1,,,,,,,,,,,,,,,,,,,,,,,,,,,,,,,,,,,,,,,
,,,,,,,,2023-08-16_08h22.12.214,HF_wild_card,2022.2.4,Win32,59.92329818,62aa1fefabb116cb465a45fc,64d2fd46c836a06233681665,64dc7912c14b8ef70886de5e,,,,,,,decisionTrl,resources/DG.BMP,resources/DR.BMP,Door3,-0.156666641,-0.005833359,1,0,0,0.5311,optionLeft,70,7620,4,14,0,14,0,1,,,,,,,,,,,,,,,,,,,,,,,,,,,,,,,,,,,,,,,
,,,,,,,,2023-08-16_08h22.12.214,HF_wild_card,2022.2.4,Win32,59.92329818,62aa1fefabb116cb465a45fc,64d2fd46c836a06233681665,64dc7912c14b8ef70886de5e,,,,,,,decisionTrl,resources/DY.BMP,resources/DP.BMP,Door2,-0.339166641,0.020833321,1,0,0,1.3665,optionLeft,40,7660,4,15,0,15,0,1,,,,,,,,,,,,,,,,,,,,,,,,,,,,,,,,,,,,,,,
,,,,,,,,2023-08-16_08h22.12.214,HF_wild_card,2022.2.4,Win32,59.92329818,62aa1fefabb116cb465a45fc,64d2fd46c836a06233681665,64dc7912c14b8ef70886de5e,,,,,,,decisionTrl,resources/DR.BMP,resources/DG.BMP,Door4,-0.2175,0.000833321,1,0,0,0.5816,optionLeft,80,7740,4,16,0,16,0,1,,,,,,,,,,,,,,,,,,,,,,,,,,,,,,,,,,,,,,,
,,,,,,,,2023-08-16_08h22.12.214,HF_wild_card,2022.2.4,Win32,59.92329818,62aa1fefabb116cb465a45fc,64d2fd46c836a06233681665,64dc7912c14b8ef70886de5e,,,,,,,decisionTrl,resources/DG.BMP,resources/DR.BMP,Door4,0.213333359,-0.0225,1,0,0,1.048,optionRight,60,7800,4,17,0,17,0,1,,,,,,,,,,,,,,,,,,,,,,,,,,,,,,,,,,,,,,,
,,,,,,,,2023-08-16_08h22.12.214,HF_wild_card,2022.2.4,Win32,59.92329818,62aa1fefabb116cb465a45fc,64d2fd46c836a06233681665,64dc7912c14b8ef70886de5e,,,,,,,decisionTrl,resources/DY.BMP,resources/DBN.BMP,Door2,-0.143333282,0,1,0,0,0.5164,optionLeft,20,7820,4,18,0,18,0,1,,,,,,,,,,,,,,,,,,,,,,,,,,,,,,,,,,,,,,,
,,,,,,,,2023-08-16_08h22.12.214,HF_wild_card,2022.2.4,Win32,59.92329818,62aa1fefabb116cb465a45fc,64d2fd46c836a06233681665,64dc7912c14b8ef70886de5e,,,,,,,sngl,resources/DP.BMP,resources/Empty.png,Door1,-0.139166641,-0.015,1,0,0,0.5315,optionLeft,30,7850,4,19,0,19,0,1,,,,,,,,,,,,,,,,,,,,,,,,,,,,,,,,,,,,,,,
,,,,,,,,2023-08-16_08h22.12.214,HF_wild_card,2022.2.4,Win32,59.92329818,62aa1fefabb116cb465a45fc,64d2fd46c836a06233681665,64dc7912c14b8ef70886de5e,,,,,,,ctch,resources/DP.BMP,resources/DR.BMP,Door4,0.09,0.009166641,1,0,0,0.8478,optionRight,80,7930,4,20,0,20,0,1,,,,,,,,,,,,,,,,,,,,,,,,,,,,,,,,,,,,,,,
,,,,,,,,2023-08-16_08h22.12.214,HF_wild_card,2022.2.4,Win32,59.92329818,62aa1fefabb116cb465a45fc,64d2fd46c836a06233681665,64dc7912c14b8ef70886de5e,,,,,,,sngl,resources/Empty.png,resources/DP.BMP,Door1,0.139166718,0.024166641,1,0,0,0.5159,optionRight,30,7960,4,21,0,21,0,1,,,,,,,,,,,,,,,,,,,,,,,,,,,,,,,,,,,,,,,
,,,,,,,,2023-08-16_08h22.12.214,HF_wild_card,2022.2.4,Win32,59.92329818,62aa1fefabb116cb465a45fc,64d2fd46c836a06233681665,64dc7912c14b8ef70886de5e,,,,,,,decisionTrl,resources/DP.BMP,resources/DBN.BMP,WildCard_Ex,0.16,-0.026666679,1,0,0,0.8322,optionRight,5,7965,4,22,0,22,0,1,,,,,,,,,,,,,,,,,,,,,,,,,,,,,,,,,,,,,,,
,,,,,,,,2023-08-16_08h22.12.214,HF_wild_card,2022.2.4,Win32,59.92329818,62aa1fefabb116cb465a45fc,64d2fd46c836a06233681665,64dc7912c14b8ef70886de5e,,,,,,,decisionTrl,resources/DG.BMP,resources/DBN.BMP,WildCard_Ex,0.42,-0.095833359,1,0,0,0.4826,optionRight,5,7970,4,23,0,23,0,1,,,,,,,,,,,,,,,,,,,,,,,,,,,,,,,,,,,,,,,
,,,,,,,,2023-08-16_08h22.12.214,HF_wild_card,2022.2.4,Win32,59.92329818,62aa1fefabb116cb465a45fc,64d2fd46c836a06233681665,64dc7912c14b8ef70886de5e,,,,,,,decisionTrl,resources/DP.BMP,resources/DY.BMP,Door1,-0.109166641,-0.010833359,1,0,0,1.3308,optionLeft,30,8000,4,24,0,24,0,1,,,,,,,,,,,,,,,,,,,,,,,,,,,,,,,,,,,,,,,
,,,,,,,,2023-08-16_08h22.12.214,HF_wild_card,2022.2.4,Win32,59.92329818,62aa1fefabb116cb465a45fc,64d2fd46c836a06233681665,64dc7912c14b8ef70886de5e,,,,,,,decisionTrl,resources/DP.BMP,resources/DY.BMP,Door1,-0.185833321,-0.0325,1,0,0,0.5158,optionLeft,30,8030,4,25,0,25,0,1,,,,,,,,,,,,,,,,,,,,,,,,,,,,,,,,,,,,,,,
,,,,,,,,2023-08-16_08h22.12.214,HF_wild_card,2022.2.4,Win32,59.92329818,62aa1fefabb116cb465a45fc,64d2fd46c836a06233681665,64dc7912c14b8ef70886de5e,,,,,,,sngl,resources/Empty.png,resources/DG.BMP,Door3,0.1375,0.008333321,1,0,0,0.4808,optionRight,70,8100,4,26,0,26,0,1,,,,,,,,,,,,,,,,,,,,,,,,,,,,,,,,,,,,,,,
,,,,,,,,2023-08-16_08h22.12.214,HF_wild_card,2022.2.4,Win32,59.92329818,62aa1fefabb116cb465a45fc,64d2fd46c836a06233681665,64dc7912c14b8ef70886de5e,,,,,,,sngl,resources/Empty.png,resources/DBN.BMP,WildCard_Ex,0.336666718,0.001666641,1,0,0,0.5326,optionRight,95,8195,4,27,0,27,0,1,,,,,,,,,,,,,,,,,,,,,,,,,,,,,,,,,,,,,,,
,,,,,,,,2023-08-16_08h22.12.214,HF_wild_card,2022.2.4,Win32,59.92329818,62aa1fefabb116cb465a45fc,64d2fd46c836a06233681665,64dc7912c14b8ef70886de5e,,,,,,,decisionTrl,resources/DY.BMP,resources/DP.BMP,Door2,-0.223333321,0.004166641,1,0,0,0.4977,optionLeft,20,8215,4,28,0,28,0,1,,,,,,,,,,,,,,,,,,,,,,,,,,,,,,,,,,,,,,,
,,,,,,,,2023-08-16_08h22.12.214,HF_wild_card,2022.2.4,Win32,59.92329818,62aa1fefabb116cb465a45fc,64d2fd46c836a06233681665,64dc7912c14b8ef70886de5e,,,,,,,decisionTrl,resources/DY.BMP,resources/DP.BMP,Door1,0.215833359,0,1,0,0,0.4161,optionRight,30,8245,4,29,0,29,0,1,,,,,,,,,,,,,,,,,,,,,,,,,,,,,,,,,,,,,,,
,,,,,,,,2023-08-16_08h22.12.214,HF_wild_card,2022.2.4,Win32,59.92329818,62aa1fefabb116cb465a45fc,64d2fd46c836a06233681665,64dc7912c14b8ef70886de5e,,,,,,,sngl,resources/DG.BMP,resources/Empty.png,Door3,-0.189166641,-0.008333359,1,0,0,0.4652,optionLeft,70,8315,4,30,0,30,0,1,,,,,,,,,,,,,,,,,,,,,,,,,,,,,,,,,,,,,,,
,,,,,,,,2023-08-16_08h22.12.214,HF_wild_card,2022.2.4,Win32,59.92329818,62aa1fefabb116cb465a45fc,64d2fd46c836a06233681665,64dc7912c14b8ef70886de5e,,,,,,,decisionTrl,resources/DR.BMP,resources/DBN.BMP,WildCard_Ex,0.255,0,1,0,0,0.5493,optionRight,95,8410,4,31,0,31,0,1,,,,,,,,,,,,,,,,,,,,,,,,,,,,,,,,,,,,,,,
,,,,,,,,2023-08-16_08h22.12.214,HF_wild_card,2022.2.4,Win32,59.92329818,62aa1fefabb116cb465a45fc,64d2fd46c836a06233681665,64dc7912c14b8ef70886de5e,,,,,,,decisionTrl,resources/DY.BMP,resources/DP.BMP,Door2,-0.206666641,-0.015,1,0,0,0.5313,optionLeft,20,8430,4,32,0,32,0,1,,,,,,,,,,,,,,,,,,,,,,,,,,,,,,,,,,,,,,,
,,,,,,,,2023-08-16_08h22.12.214,HF_wild_card,2022.2.4,Win32,59.92329818,62aa1fefabb116cb465a45fc,64d2fd46c836a06233681665,64dc7912c14b8ef70886de5e,,,,,,,ctch,resources/DR.BMP,resources/DP.BMP,Door4,-0.200833321,0,1,0,0,0.6658,optionLeft,80,8510,4,33,0,33,0,1,,,,,,,,,,,,,,,,,,,,,,,,,,,,,,,,,,,,,,,
,,,,,,,,2023-08-16_08h22.12.214,HF_wild_card,2022.2.4,Win32,59.92329818,62aa1fefabb116cb465a45fc,64d2fd46c836a06233681665,64dc7912c14b8ef70886de5e,,,,,,,ctch,resources/DP.BMP,resources/DR.BMP,Door4,0.200833359,-0.008333359,1,0,0,0.5308,optionRight,80,8590,4,34,0,34,0,1,,,,,,,,,,,,,,,,,,,,,,,,,,,,,,,,,,,,,,,
,,,,,,,,2023-08-16_08h22.12.214,HF_wild_card,2022.2.4,Win32,59.92329818,62aa1fefabb116cb465a45fc,64d2fd46c836a06233681665,64dc7912c14b8ef70886de5e,,,,,,,sngl,resources/DY.BMP,resources/Empty.png,Door2,-0.124166641,-0.01,1,0,0,0.465,optionLeft,20,8610,4,35,0,35,0,1,,,,,,,,,,,,,,,,,,,,,,,,,,,,,,,,,,,,,,,
,,,,,,,,2023-08-16_08h22.12.214,HF_wild_card,2022.2.4,Win32,59.92329818,62aa1fefabb116cb465a45fc,64d2fd46c836a06233681665,64dc7912c14b8ef70886de5e,,,,,,,decisionTrl,resources/DG.BMP,resources/DR.BMP,Door4,0.193333359,-0.019166679,1,0,0,0.7487,optionRight,80,8690,4,36,0,36,0,1,,,,,,,,,,,,,,,,,,,,,,,,,,,,,,,,,,,,,,,
,,,,,,,,2023-08-16_08h22.12.214,HF_wild_card,2022.2.4,Win32,59.92329818,62aa1fefabb116cb465a45fc,64d2fd46c836a06233681665,64dc7912c14b8ef70886de5e,,,,,,,ctch,resources/DY.BMP,resources/DG.BMP,Door2,-0.210833321,0.019166641,1,0,0,0.4985,optionLeft,40,8730,4,37,0,37,0,1,,,,,,,,,,,,,,,,,,,,,,,,,,,,,,,,,,,,,,,
,,,,,,,,2023-08-16_08h22.12.214,HF_wild_card,2022.2.4,Win32,59.92329818,62aa1fefabb116cb465a45fc,64d2fd46c836a06233681665,64dc7912c14b8ef70886de5e,,,,,,,decisionTrl,resources/DBN.BMP,resources/DR.BMP,WildCard_Ex,-0.2375,0.005,1,0,0,0.6303,optionLeft,5,8735,4,38,0,38,0,1,,,,,,,,,,,,,,,,,,,,,,,,,,,,,,,,,,,,,,,
,,,,,,,,2023-08-16_08h22.12.214,HF_wild_card,2022.2.4,Win32,59.92329818,62aa1fefabb116cb465a45fc,64d2fd46c836a06233681665,64dc7912c14b8ef70886de5e,,,,,,,decisionTrl,resources/DBN.BMP,resources/DY.BMP,WildCard_Ex,-0.205,0.003333321,1,0,0,0.5661,optionLeft,5,8740,4,39,0,39,0,1,,,,,,,,,,,,,,,,,,,,,,,,,,,,,,,,,,,,,,,
,,,,,,,,2023-08-16_08h22.12.214,HF_wild_card,2022.2.4,Win32,59.92329818,62aa1fefabb116cb465a45fc,64d2fd46c836a06233681665,64dc7912c14b8ef70886de5e,,,,,,,decisionTrl,resources/DBN.BMP,resources/DP.BMP,WildCard_Ex,-0.245,0.030833321,1,0,0,0.6469,optionLeft,5,8745,4,40,0,40,0,1,,,,,,,,,,,,,,,,,,,,,,,,,,,,,,,,,,,,,,,
,,,,,,,,2023-08-16_08h22.12.214,HF_wild_card,2022.2.4,Win32,59.92329818,62aa1fefabb116cb465a45fc,64d2fd46c836a06233681665,64dc7912c14b8ef70886de5e,,,,,,,ctch,resources/DG.BMP,resources/DY.BMP,Door3,-0.2125,0.009166641,1,0,0,0.8004,optionLeft,70,8815,4,41,0,41,0,1,,,,,,,,,,,,,,,,,,,,,,,,,,,,,,,,,,,,,,,
,,,,,,,,2023-08-16_08h22.12.214,HF_wild_card,2022.2.4,Win32,59.92329818,62aa1fefabb116cb465a45fc,64d2fd46c836a06233681665,64dc7912c14b8ef70886de5e,,,,,,,decisionTrl,resources/DG.BMP,resources/DR.BMP,Door4,0.2925,-0.013333359,1,0,0,0.882,optionRight,80,8895,4,42,0,42,0,1,,,,,,,,,,,,,,,,,,,,,,,,,,,,,,,,,,,,,,,
,,,,,,,,2023-08-16_08h22.12.214,HF_wild_card,2022.2.4,Win32,59.92329818,62aa1fefabb116cb465a45fc,64d2fd46c836a06233681665,64dc7912c14b8ef70886de5e,,,,,,,sngl,resources/DR.BMP,resources/Empty.png,Door4,-0.224166641,0.005833321,1,0,0,0.6229,optionLeft,60,8955,4,43,0,43,0,1,,,,,,,,,,,,,,,,,,,,,,,,,,,,,,,,,,,,,,,
,,,,,,,,2023-08-16_08h22.12.214,HF_wild_card,2022.2.4,Win32,59.92329818,62aa1fefabb116cb465a45fc,64d2fd46c836a06233681665,64dc7912c14b8ef70886de5e,,,,,,,,,,,,,,,,,,,,,,,,,,3,0,3,0,1,,,,,,,,,,,,,,,,,,,,,,,,,,,,,,,,,,
,,,,,,,,2023-08-16_08h22.12.214,HF_wild_card,2022.2.4,Win32,59.92329818,62aa1fefabb116cb465a45fc,64d2fd46c836a06233681665,64dc7912c14b8ef70886de5e,,,,,,,ctch,resources/DG.BMP,resources/DY.BMP,Door3,-0.419166641,-0.059166679,1,0,0,1.838,optionLeft,70,9025,5,0,0,0,0,1,,,,,,,,,,,,,,,,,,,,,,,,,,,,,,,,,,,,,,,
,,,,,,,,2023-08-16_08h22.12.214,HF_wild_card,2022.2.4,Win32,59.92329818,62aa1fefabb116cb465a45fc,64d2fd46c836a06233681665,64dc7912c14b8ef70886de5e,,,,,,,decisionTrl,resources/DG.BMP,resources/DR.BMP,Door3,-0.233333321,0.013333321,1,0,0,0.6808,optionLeft,70,9095,5,1,0,1,0,1,,,,,,,,,,,,,,,,,,,,,,,,,,,,,,,,,,,,,,,
,,,,,,,,2023-08-16_08h22.12.214,HF_wild_card,2022.2.4,Win32,59.92329818,62aa1fefabb116cb465a45fc,64d2fd46c836a06233681665,64dc7912c14b8ef70886de5e,,,,,,,decisionTrl,resources/DBN.BMP,resources/DY.BMP,WildCard_Ex,-0.31,0.045,1,0,0,0.5997,optionLeft,5,9100,5,2,0,2,0,1,,,,,,,,,,,,,,,,,,,,,,,,,,,,,,,,,,,,,,,
,,,,,,,,2023-08-16_08h22.12.214,HF_wild_card,2022.2.4,Win32,59.92329818,62aa1fefabb116cb465a45fc,64d2fd46c836a06233681665,64dc7912c14b8ef70886de5e,,,,,,,decisionTrl,resources/DR.BMP,resources/DG.BMP,Door4,-0.255833321,-0.015833359,1,0,0,0.582,optionLeft,60,9160,5,3,0,3,0,1,,,,,,,,,,,,,,,,,,,,,,,,,,,,,,,,,,,,,,,
,,,,,,,,2023-08-16_08h22.12.214,HF_wild_card,2022.2.4,Win32,59.92329818,62aa1fefabb116cb465a45fc,64d2fd46c836a06233681665,64dc7912c14b8ef70886de5e,,,,,,,sngl,resources/Empty.png,resources/DP.BMP,Door1,0.318333359,-0.02,1,0,0,0.4639,optionRight,30,9190,5,4,0,4,0,1,,,,,,,,,,,,,,,,,,,,,,,,,,,,,,,,,,,,,,,
,,,,,,,,2023-08-16_08h22.12.214,HF_wild_card,2022.2.4,Win32,59.92329818,62aa1fefabb116cb465a45fc,64d2fd46c836a06233681665,64dc7912c14b8ef70886de5e,,,,,,,decisionTrl,resources/DR.BMP,resources/DG.BMP,Door4,-0.1825,-0.004166679,1,0,0,0.5978,optionLeft,60,9250,5,5,0,5,0,1,,,,,,,,,,,,,,,,,,,,,,,,,,,,,,,,,,,,,,,
,,,,,,,,2023-08-16_08h22.12.214,HF_wild_card,2022.2.4,Win32,59.92329818,62aa1fefabb116cb465a45fc,64d2fd46c836a06233681665,64dc7912c14b8ef70886de5e,,,,,,,decisionTrl,resources/DP.BMP,resources/DY.BMP,Door1,-0.323333321,0.028333321,1,0,0,0.4495,optionLeft,30,9280,5,6,0,6,0,1,,,,,,,,,,,,,,,,,,,,,,,,,,,,,,,,,,,,,,,
,,,,,,,,2023-08-16_08h22.12.214,HF_wild_card,2022.2.4,Win32,59.92329818,62aa1fefabb116cb465a45fc,64d2fd46c836a06233681665,64dc7912c14b8ef70886de5e,,,,,,,ctch,resources/DP.BMP,resources/DR.BMP,Door4,0.266666718,-0.014166679,1,0,0,0.4995,optionRight,60,9340,5,7,0,7,0,1,,,,,,,,,,,,,,,,,,,,,,,,,,,,,,,,,,,,,,,
,,,,,,,,2023-08-16_08h22.12.214,HF_wild_card,2022.2.4,Win32,59.92329818,62aa1fefabb116cb465a45fc,64d2fd46c836a06233681665,64dc7912c14b8ef70886de5e,,,,,,,sngl,resources/DY.BMP,resources/Empty.png,Door2,-0.165,-0.015,1,0,0,0.4812,optionLeft,40,9380,5,8,0,8,0,1,,,,,,,,,,,,,,,,,,,,,,,,,,,,,,,,,,,,,,,
,,,,,,,,2023-08-16_08h22.12.214,HF_wild_card,2022.2.4,Win32,59.92329818,62aa1fefabb116cb465a45fc,64d2fd46c836a06233681665,64dc7912c14b8ef70886de5e,,,,,,,decisionTrl,resources/DG.BMP,resources/DBN.BMP,Door3,-0.271666641,0.018333321,1,0,0,0.6566,optionLeft,70,9450,5,9,0,9,0,1,,,,,,,,,,,,,,,,,,,,,,,,,,,,,,,,,,,,,,,
,,,,,,,,2023-08-16_08h22.12.214,HF_wild_card,2022.2.4,Win32,59.92329818,62aa1fefabb116cb465a45fc,64d2fd46c836a06233681665,64dc7912c14b8ef70886de5e,,,,,,,ctch,resources/DR.BMP,resources/DP.BMP,Door4,-0.1925,0.018333321,1,0,0,0.5155,optionLeft,80,9530,5,10,0,10,0,1,,,,,,,,,,,,,,,,,,,,,,,,,,,,,,,,,,,,,,,
,,,,,,,,2023-08-16_08h22.12.214,HF_wild_card,2022.2.4,Win32,59.92329818,62aa1fefabb116cb465a45fc,64d2fd46c836a06233681665,64dc7912c14b8ef70886de5e,,,,,,,decisionTrl,resources/DG.BMP,resources/DR.BMP,Door4,0.356666718,-0.059166679,1,0,0,0.699,optionRight,60,9590,5,11,0,11,0,1,,,,,,,,,,,,,,,,,,,,,,,,,,,,,,,,,,,,,,,
,,,,,,,,2023-08-16_08h22.12.214,HF_wild_card,2022.2.4,Win32,59.92329818,62aa1fefabb116cb465a45fc,64d2fd46c836a06233681665,64dc7912c14b8ef70886de5e,,,,,,,decisionTrl,resources/DR.BMP,resources/DG.BMP,Door4,-0.4,0.034166641,1,0,0,0.4156,optionLeft,60,9650,5,12,0,12,0,1,,,,,,,,,,,,,,,,,,,,,,,,,,,,,,,,,,,,,,,
,,,,,,,,2023-08-16_08h22.12.214,HF_wild_card,2022.2.4,Win32,59.92329818,62aa1fefabb116cb465a45fc,64d2fd46c836a06233681665,64dc7912c14b8ef70886de5e,,,,,,,sngl,resources/Empty.png,resources/DR.BMP,Door4,0.386666718,-0.0475,1,0,0,0.4654,optionRight,60,9710,5,13,0,13,0,1,,,,,,,,,,,,,,,,,,,,,,,,,,,,,,,,,,,,,,,
,,,,,,,,2023-08-16_08h22.12.214,HF_wild_card,2022.2.4,Win32,59.92329818,62aa1fefabb116cb465a45fc,64d2fd46c836a06233681665,64dc7912c14b8ef70886de5e,,,,,,,ctch,resources/DY.BMP,resources/DG.BMP,Door2,-0.220833321,0.025,1,0,0,0.4986,optionLeft,20,9730,5,14,0,14,0,1,,,,,,,,,,,,,,,,,,,,,,,,,,,,,,,,,,,,,,,
,,,,,,,,2023-08-16_08h22.12.214,HF_wild_card,2022.2.4,Win32,59.92329818,62aa1fefabb116cb465a45fc,64d2fd46c836a06233681665,64dc7912c14b8ef70886de5e,,,,,,,sngl,resources/Empty.png,resources/DY.BMP,Door2,0.174166718,0.015,1,0,0,0.5485,optionRight,20,9750,5,15,0,15,0,1,,,,,,,,,,,,,,,,,,,,,,,,,,,,,,,,,,,,,,,
,,,,,,,,2023-08-16_08h22.12.214,HF_wild_card,2022.2.4,Win32,59.92329818,62aa1fefabb116cb465a45fc,64d2fd46c836a06233681665,64dc7912c14b8ef70886de5e,,,,,,,sngl,resources/Empty.png,resources/DG.BMP,Door3,0.180833359,-0.009166679,1,0,0,0.7487,optionRight,70,9820,5,16,0,16,0,1,,,,,,,,,,,,,,,,,,,,,,,,,,,,,,,,,,,,,,,
,,,,,,,,2023-08-16_08h22.12.214,HF_wild_card,2022.2.4,Win32,59.92329818,62aa1fefabb116cb465a45fc,64d2fd46c836a06233681665,64dc7912c14b8ef70886de5e,,,,,,,decisionTrl,resources/DY.BMP,resources/DBN.BMP,Door2,-0.249166641,0.035,1,0,0,0.8283,optionLeft,40,9860,5,17,0,17,0,1,,,,,,,,,,,,,,,,,,,,,,,,,,,,,,,,,,,,,,,
,,,,,,,,2023-08-16_08h22.12.214,HF_wild_card,2022.2.4,Win32,59.92329818,62aa1fefabb116cb465a45fc,64d2fd46c836a06233681665,64dc7912c14b8ef70886de5e,,,,,,,decisionTrl,resources/DY.BMP,resources/DP.BMP,Door1,0.235833359,-0.019166679,1,0,0,0.7325,optionRight,30,9890,5,18,0,18,0,1,,,,,,,,,,,,,,,,,,,,,,,,,,,,,,,,,,,,,,,
,,,,,,,,2023-08-16_08h22.12.214,HF_wild_card,2022.2.4,Win32,59.92329818,62aa1fefabb116cb465a45fc,64d2fd46c836a06233681665,64dc7912c14b8ef70886de5e,,,,,,,decisionTrl,resources/DY.BMP,resources/DP.BMP,Door2,-0.205,0.0125,1,0,0,0.649,optionLeft,20,9910,5,19,0,19,0,1,,,,,,,,,,,,,,,,,,,,,,,,,,,,,,,,,,,,,,,
,,,,,,,,2023-08-16_08h22.12.214,HF_wild_card,2022.2.4,Win32,59.92329818,62aa1fefabb116cb465a45fc,64d2fd46c836a06233681665,64dc7912c14b8ef70886de5e,,,,,,,decisionTrl,resources/DBN.BMP,resources/DG.BMP,WildCard_Ex,-0.265833321,0.030833321,1,0,0,0.8821,optionLeft,5,9915,5,20,0,20,0,1,,,,,,,,,,,,,,,,,,,,,,,,,,,,,,,,,,,,,,,
,,,,,,,,2023-08-16_08h22.12.214,HF_wild_card,2022.2.4,Win32,59.92329818,62aa1fefabb116cb465a45fc,64d2fd46c836a06233681665,64dc7912c14b8ef70886de5e,,,,,,,decisionTrl,resources/DP.BMP,resources/DY.BMP,Door1,-0.215,0.011666641,1,0,0,0.498,optionLeft,30,9945,5,21,0,21,0,1,,,,,,,,,,,,,,,,,,,,,,,,,,,,,,,,,,,,,,,
,,,,,,,,2023-08-16_08h22.12.214,HF_wild_card,2022.2.4,Win32,59.92329818,62aa1fefabb116cb465a45fc,64d2fd46c836a06233681665,64dc7912c14b8ef70886de5e,,,,,,,sngl,resources/DP.BMP,resources/Empty.png,Door1,-0.258333321,0.001666641,1,0,0,0.4489,optionLeft,30,9975,5,22,0,22,0,1,,,,,,,,,,,,,,,,,,,,,,,,,,,,,,,,,,,,,,,
,,,,,,,,2023-08-16_08h22.12.214,HF_wild_card,2022.2.4,Win32,59.92329818,62aa1fefabb116cb465a45fc,64d2fd46c836a06233681665,64dc7912c14b8ef70886de5e,,,,,,,sngl,resources/Empty.png,resources/DBN.BMP,WildCard_Ex,0.2175,0.003333321,1,0,0,0.6823,optionRight,95,10070,5,23,0,23,0,1,,,,,,,,,,,,,,,,,,,,,,,,,,,,,,,,,,,,,,,
,,,,,,,,2023-08-16_08h22.12.214,HF_wild_card,2022.2.4,Win32,59.92329818,62aa1fefabb116cb465a45fc,64d2fd46c836a06233681665,64dc7912c14b8ef70886de5e,,,,,,,ctch,resources/DY.BMP,resources/DG.BMP,Door3,0.220833359,-0.003333359,1,0,0,0.8991,optionRight,70,10140,5,24,0,24,0,1,,,,,,,,,,,,,,,,,,,,,,,,,,,,,,,,,,,,,,,
,,,,,,,,2023-08-16_08h22.12.214,HF_wild_card,2022.2.4,Win32,59.92329818,62aa1fefabb116cb465a45fc,64d2fd46c836a06233681665,64dc7912c14b8ef70886de5e,,,,,,,sngl,resources/DBN.BMP,resources/Empty.png,WildCard_Ex,-0.076666641,0.000833321,1,0,0,0.6818,optionLeft,95,10235,5,25,0,25,0,1,,,,,,,,,,,,,,,,,,,,,,,,,,,,,,,,,,,,,,,
,,,,,,,,2023-08-16_08h22.12.214,HF_wild_card,2022.2.4,Win32,59.92329818,62aa1fefabb116cb465a45fc,64d2fd46c836a06233681665,64dc7912c14b8ef70886de5e,,,,,,,sngl,resources/Empty.png,resources/DBN.BMP,WildCard_Ex,0.2675,0.000833321,1,0,0,0.4482,optionRight,5,10240,5,26,0,26,0,1,,,,,,,,,,,,,,,,,,,,,,,,,,,,,,,,,,,,,,,
,,,,,,,,2023-08-16_08h22.12.214,HF_wild_card,2022.2.4,Win32,59.92329818,62aa1fefabb116cb465a45fc,64d2fd46c836a06233681665,64dc7912c14b8ef70886de5e,,,,,,,sngl,resources/DBN.BMP,resources/Empty.png,WildCard_Ex,-0.246666641,0.013333321,1,0,0,0.5155,optionLeft,5,10245,5,27,0,27,0,1,,,,,,,,,,,,,,,,,,,,,,,,,,,,,,,,,,,,,,,
,,,,,,,,2023-08-16_08h22.12.214,HF_wild_card,2022.2.4,Win32,59.92329818,62aa1fefabb116cb465a45fc,64d2fd46c836a06233681665,64dc7912c14b8ef70886de5e,,,,,,,decisionTrl,resources/DG.BMP,resources/DR.BMP,Door4,0.2175,0.01,1,0,0,1.0319,optionRight,60,10305,5,28,0,28,0,1,,,,,,,,,,,,,,,,,,,,,,,,,,,,,,,,,,,,,,,
,,,,,,,,2023-08-16_08h22.12.214,HF_wild_card,2022.2.4,Win32,59.92329818,62aa1fefabb116cb465a45fc,64d2fd46c836a06233681665,64dc7912c14b8ef70886de5e,,,,,,,sngl,resources/DG.BMP,resources/Empty.png,Door3,-0.148333282,0.013333321,1,0,0,0.4497,optionLeft,70,10375,5,29,0,29,0,1,,,,,,,,,,,,,,,,,,,,,,,,,,,,,,,,,,,,,,,
,,,,,,,,2023-08-16_08h22.12.214,HF_wild_card,2022.2.4,Win32,59.92329818,62aa1fefabb116cb465a45fc,64d2fd46c836a06233681665,64dc7912c14b8ef70886de5e,,,,,,,ctch,resources/DR.BMP,resources/DP.BMP,Door4,-0.249166641,0.0075,1,0,0,0.582,optionLeft,60,10435,5,30,0,30,0,1,,,,,,,,,,,,,,,,,,,,,,,,,,,,,,,,,,,,,,,
,,,,,,,,2023-08-16_08h22.12.214,HF_wild_card,2022.2.4,Win32,59.92329818,62aa1fefabb116cb465a45fc,64d2fd46c836a06233681665,64dc7912c14b8ef70886de5e,,,,,,,decisionTrl,resources/DBN.BMP,resources/DR.BMP,Door4,0.155,0,1,0,0,0.5823,optionRight,80,10515,5,31,0,31,0,1,,,,,,,,,,,,,,,,,,,,,,,,,,,,,,,,,,,,,,,
,,,,,,,,2023-08-16_08h22.12.214,HF_wild_card,2022.2.4,Win32,59.92329818,62aa1fefabb116cb465a45fc,64d2fd46c836a06233681665,64dc7912c14b8ef70886de5e,,,,,,,ctch,resources/DG.BMP,resources/DY.BMP,Door3,-0.204166641,0.016666641,1,0,0,0.4321,optionLeft,70,10585,5,32,0,32,0,1,,,,,,,,,,,,,,,,,,,,,,,,,,,,,,,,,,,,,,,
,,,,,,,,2023-08-16_08h22.12.214,HF_wild_card,2022.2.4,Win32,59.92329818,62aa1fefabb116cb465a45fc,64d2fd46c836a06233681665,64dc7912c14b8ef70886de5e,,,,,,,decisionTrl,resources/DG.BMP,resources/DR.BMP,Door4,0.3175,-0.029166679,1,0,0,0.7325,optionRight,80,10665,5,33,0,33,0,1,,,,,,,,,,,,,,,,,,,,,,,,,,,,,,,,,,,,,,,
,,,,,,,,2023-08-16_08h22.12.214,HF_wild_card,2022.2.4,Win32,59.92329818,62aa1fefabb116cb465a45fc,64d2fd46c836a06233681665,64dc7912c14b8ef70886de5e,,,,,,,decisionTrl,resources/DBN.BMP,resources/DP.BMP,WildCard_Ex,-0.2825,0.011666641,1,0,0,0.449,optionLeft,5,10670,5,34,0,34,0,1,,,,,,,,,,,,,,,,,,,,,,,,,,,,,,,,,,,,,,,
,,,,,,,,2023-08-16_08h22.12.214,HF_wild_card,2022.2.4,Win32,59.92329818,62aa1fefabb116cb465a45fc,64d2fd46c836a06233681665,64dc7912c14b8ef70886de5e,,,,,,,decisionTrl,resources/DP.BMP,resources/DBN.BMP,Door1,-0.155,-0.014166679,1,0,0,0.5997,optionLeft,30,10700,5,35,0,35,0,1,,,,,,,,,,,,,,,,,,,,,,,,,,,,,,,,,,,,,,,
,,,,,,,,2023-08-16_08h22.12.214,HF_wild_card,2022.2.4,Win32,59.92329818,62aa1fefabb116cb465a45fc,64d2fd46c836a06233681665,64dc7912c14b8ef70886de5e,,,,,,,sngl,resources/DR.BMP,resources/Empty.png,Door4,-0.199166641,0.01,1,0,0,0.4985,optionLeft,80,10780,5,36,0,36,0,1,,,,,,,,,,,,,,,,,,,,,,,,,,,,,,,,,,,,,,,
,,,,,,,,2023-08-16_08h22.12.214,HF_wild_card,2022.2.4,Win32,59.92329818,62aa1fefabb116cb465a45fc,64d2fd46c836a06233681665,64dc7912c14b8ef70886de5e,,,,,,,ctch,resources/DP.BMP,resources/DR.BMP,Door4,0.18,0.010833321,1,0,0,0.4826,optionRight,80,10860,5,37,0,37,0,1,,,,,,,,,,,,,,,,,,,,,,,,,,,,,,,,,,,,,,,
,,,,,,,,2023-08-16_08h22.12.214,HF_wild_card,2022.2.4,Win32,59.92329818,62aa1fefabb116cb465a45fc,64d2fd46c836a06233681665,64dc7912c14b8ef70886de5e,,,,,,,decisionTrl,resources/DY.BMP,resources/DP.BMP,Door2,-0.240833321,-0.015,1,0,0,0.3811,optionLeft,20,10880,5,38,0,38,0,1,,,,,,,,,,,,,,,,,,,,,,,,,,,,,,,,,,,,,,,
,,,,,,,,2023-08-16_08h22.12.214,HF_wild_card,2022.2.4,Win32,59.92329818,62aa1fefabb116cb465a45fc,64d2fd46c836a06233681665,64dc7912c14b8ef70886de5e,,,,,,,decisionTrl,resources/DY.BMP,resources/DP.BMP,Door1,0.275,-0.0125,1,0,0,0.4329,optionRight,30,10910,5,39,0,39,0,1,,,,,,,,,,,,,,,,,,,,,,,,,,,,,,,,,,,,,,,
,,,,,,,,2023-08-16_08h22.12.214,HF_wild_card,2022.2.4,Win32,59.92329818,62aa1fefabb116cb465a45fc,64d2fd46c836a06233681665,64dc7912c14b8ef70886de5e,,,,,,,decisionTrl,resources/DR.BMP,resources/DG.BMP,Door4,-0.175,-0.0025,1,0,0,0.3815,optionLeft,80,10990,5,40,0,40,0,1,,,,,,,,,,,,,,,,,,,,,,,,,,,,,,,,,,,,,,,
,,,,,,,,2023-08-16_08h22.12.214,HF_wild_card,2022.2.4,Win32,59.92329818,62aa1fefabb116cb465a45fc,64d2fd46c836a06233681665,64dc7912c14b8ef70886de5e,,,,,,,decisionTrl,resources/DP.BMP,resources/DY.BMP,Door1,-0.218333321,0.008333321,1,0,0,0.5495,optionLeft,30,11020,5,41,0,41,0,1,,,,,,,,,,,,,,,,,,,,,,,,,,,,,,,,,,,,,,,
,,,,,,,,2023-08-16_08h22.12.214,HF_wild_card,2022.2.4,Win32,59.92329818,62aa1fefabb116cb465a45fc,64d2fd46c836a06233681665,64dc7912c14b8ef70886de5e,,,,,,,decisionTrl,resources/DR.BMP,resources/DBN.BMP,WildCard_Ex,0.156666718,-0.025833359,1,0,0,0.5822,optionRight,5,11025,5,42,0,42,0,1,,,,,,,,,,,,,,,,,,,,,,,,,,,,,,,,,,,,,,,
,,,,,,,,2023-08-16_08h22.12.214,HF_wild_card,2022.2.4,Win32,59.92329818,62aa1fefabb116cb465a45fc,64d2fd46c836a06233681665,64dc7912c14b8ef70886de5e,,,,,,,decisionTrl,resources/DP.BMP,resources/DY.BMP,Door2,0.221666718,0.01,1,0,0,0.7991,optionRight,40,11065,5,43,0,43,0,1,,,,,,,,,,,,,,,,,,,,,,,,,,,,,,,,,,,,,,,
,,,,,,,,2023-08-16_08h22.12.214,HF_wild_card,2022.2.4,Win32,59.92329818,62aa1fefabb116cb465a45fc,64d2fd46c836a06233681665,64dc7912c14b8ef70886de5e,,,,,,,,,,,,,,,,,,,,,,,,,,4,0,4,0,1,,,,,,,,,,,,,,,,,,,,,,,,,,,,,,,,,,
,,,,,,,,2023-08-16_08h22.12.214,HF_wild_card,2022.2.4,Win32,59.92329818,62aa1fefabb116cb465a45fc,64d2fd46c836a06233681665,64dc7912c14b8ef70886de5e,,,,,,,sngl,resources/DBN.BMP,resources/Empty.png,WildCard_Ex,-0.47,-0.064166679,1,0,0,0.7582,optionLeft,5,11070,6,0,0,0,0,1,,,,,,,,,,,,,,,,,,,,,,,,,,,,,,,,,,,,,,,
,,,,,,,,2023-08-16_08h22.12.214,HF_wild_card,2022.2.4,Win32,59.92329818,62aa1fefabb116cb465a45fc,64d2fd46c836a06233681665,64dc7912c14b8ef70886de5e,,,,,,,ctch,resources/DR.BMP,resources/DP.BMP,Door4,-0.244166641,0.006666641,1,0,0,1.2151,optionLeft,80,11150,6,1,0,1,0,1,,,,,,,,,,,,,,,,,,,,,,,,,,,,,,,,,,,,,,,
,,,,,,,,2023-08-16_08h22.12.214,HF_wild_card,2022.2.4,Win32,59.92329818,62aa1fefabb116cb465a45fc,64d2fd46c836a06233681665,64dc7912c14b8ef70886de5e,,,,,,,decisionTrl,resources/DY.BMP,resources/DP.BMP,Door2,-0.153333282,-0.0425,1,0,0,0.5975,optionLeft,40,11190,6,2,0,2,0,1,,,,,,,,,,,,,,,,,,,,,,,,,,,,,,,,,,,,,,,
,,,,,,,,2023-08-16_08h22.12.214,HF_wild_card,2022.2.4,Win32,59.92329818,62aa1fefabb116cb465a45fc,64d2fd46c836a06233681665,64dc7912c14b8ef70886de5e,,,,,,,decisionTrl,resources/DP.BMP,resources/DY.BMP,Door1,-0.1325,-0.043333359,1,0,0,0.5822,optionLeft,30,11220,6,3,0,3,0,1,,,,,,,,,,,,,,,,,,,,,,,,,,,,,,,,,,,,,,,
,,,,,,,,2023-08-16_08h22.12.214,HF_wild_card,2022.2.4,Win32,59.92329818,62aa1fefabb116cb465a45fc,64d2fd46c836a06233681665,64dc7912c14b8ef70886de5e,,,,,,,sngl,resources/Empty.png,resources/DG.BMP,Door3,0.1825,-0.0125,1,0,0,0.531,optionRight,70,11290,6,4,0,4,0,1,,,,,,,,,,,,,,,,,,,,,,,,,,,,,,,,,,,,,,,
,,,,,,,,2023-08-16_08h22.12.214,HF_wild_card,2022.2.4,Win32,59.92329818,62aa1fefabb116cb465a45fc,64d2fd46c836a06233681665,64dc7912c14b8ef70886de5e,,,,,,,decisionTrl,resources/DR.BMP,resources/DG.BMP,Door4,-0.279166641,-0.076666679,1,0,0,0.9502,optionLeft,80,11370,6,5,0,5,0,1,,,,,,,,,,,,,,,,,,,,,,,,,,,,,,,,,,,,,,,
,,,,,,,,2023-08-16_08h22.12.214,HF_wild_card,2022.2.4,Win32,59.92329818,62aa1fefabb116cb465a45fc,64d2fd46c836a06233681665,64dc7912c14b8ef70886de5e,,,,,,,decisionTrl,resources/DG.BMP,resources/DR.BMP,Door4,0.203333359,0.028333321,1,0,0,0.698,optionRight,80,11450,6,6,0,6,0,1,,,,,,,,,,,,,,,,,,,,,,,,,,,,,,,,,,,,,,,
,,,,,,,,2023-08-16_08h22.12.214,HF_wild_card,2022.2.4,Win32,59.92329818,62aa1fefabb116cb465a45fc,64d2fd46c836a06233681665,64dc7912c14b8ef70886de5e,,,,,,,decisionTrl,resources/DR.BMP,resources/DG.BMP,Door4,-0.261666641,-0.069166679,1,0,0,0.6497,optionLeft,60,11510,6,7,0,7,0,1,,,,,,,,,,,,,,,,,,,,,,,,,,,,,,,,,,,,,,,
,,,,,,,,2023-08-16_08h22.12.214,HF_wild_card,2022.2.4,Win32,59.92329818,62aa1fefabb116cb465a45fc,64d2fd46c836a06233681665,64dc7912c14b8ef70886de5e,,,,,,,decisionTrl,resources/DP.BMP,resources/DY.BMP,Door1,-0.235833321,-0.070833359,1,0,0,0.6997,optionLeft,30,11540,6,8,0,8,0,1,,,,,,,,,,,,,,,,,,,,,,,,,,,,,,,,,,,,,,,
,,,,,,,,2023-08-16_08h22.12.214,HF_wild_card,2022.2.4,Win32,59.92329818,62aa1fefabb116cb465a45fc,64d2fd46c836a06233681665,64dc7912c14b8ef70886de5e,,,,,,,decisionTrl,resources/DR.BMP,resources/DG.BMP,Door3,0.13,0.015,1,0,0,0.6647,optionRight,70,11610,6,9,0,9,0,1,,,,,,,,,,,,,,,,,,,,,,,,,,,,,,,,,,,,,,,
,,,,,,,,2023-08-16_08h22.12.214,HF_wild_card,2022.2.4,Win32,59.92329818,62aa1fefabb116cb465a45fc,64d2fd46c836a06233681665,64dc7912c14b8ef70886de5e,,,,,,,ctch,resources/DR.BMP,resources/DP.BMP,Door4,-0.195,-0.033333359,1,0,0,0.6314,optionLeft,80,11690,6,10,0,10,0,1,,,,,,,,,,,,,,,,,,,,,,,,,,,,,,,,,,,,,,,
,,,,,,,,2023-08-16_08h22.12.214,HF_wild_card,2022.2.4,Win32,59.92329818,62aa1fefabb116cb465a45fc,64d2fd46c836a06233681665,64dc7912c14b8ef70886de5e,,,,,,,sngl,resources/Empty.png,resources/DBN.BMP,WildCard_Ex,0.175833359,0,1,0,0,0.6812,optionRight,95,11785,6,11,0,11,0,1,,,,,,,,,,,,,,,,,,,,,,,,,,,,,,,,,,,,,,,
,,,,,,,,2023-08-16_08h22.12.214,HF_wild_card,2022.2.4,Win32,59.92329818,62aa1fefabb116cb465a45fc,64d2fd46c836a06233681665,64dc7912c14b8ef70886de5e,,,,,,,sngl,resources/DY.BMP,resources/Empty.png,Door2,-0.1725,-0.019166679,1,0,0,0.6315,optionLeft,20,11805,6,12,0,12,0,1,,,,,,,,,,,,,,,,,,,,,,,,,,,,,,,,,,,,,,,
,,,,,,,,2023-08-16_08h22.12.214,HF_wild_card,2022.2.4,Win32,59.92329818,62aa1fefabb116cb465a45fc,64d2fd46c836a06233681665,64dc7912c14b8ef70886de5e,,,,,,,decisionTrl,resources/DR.BMP,resources/DBN.BMP,WildCard_Ex,0.265,0.014166641,1,0,0,0.7493,optionRight,5,11810,6,13,0,13,0,1,,,,,,,,,,,,,,,,,,,,,,,,,,,,,,,,,,,,,,,
,,,,,,,,2023-08-16_08h22.12.214,HF_wild_card,2022.2.4,Win32,59.92329818,62aa1fefabb116cb465a45fc,64d2fd46c836a06233681665,64dc7912c14b8ef70886de5e,,,,,,,decisionTrl,resources/DBN.BMP,resources/DP.BMP,Door1,0.178333359,0.034166641,1,0,0,0.9657,optionRight,30,11840,6,14,0,14,0,1,,,,,,,,,,,,,,,,,,,,,,,,,,,,,,,,,,,,,,,
,,,,,,,,2023-08-16_08h22.12.214,HF_wild_card,2022.2.4,Win32,59.92329818,62aa1fefabb116cb465a45fc,64d2fd46c836a06233681665,64dc7912c14b8ef70886de5e,,,,,,,decisionTrl,resources/DP.BMP,resources/DY.BMP,Door1,-0.219166641,-0.020833359,1,0,0,0.7822,optionLeft,30,11870,6,15,0,15,0,1,,,,,,,,,,,,,,,,,,,,,,,,,,,,,,,,,,,,,,,
,,,,,,,,2023-08-16_08h22.12.214,HF_wild_card,2022.2.4,Win32,59.92329818,62aa1fefabb116cb465a45fc,64d2fd46c836a06233681665,64dc7912c14b8ef70886de5e,,,,,,,decisionTrl,resources/DY.BMP,resources/DP.BMP,Door2,-0.2125,-0.003333359,1,0,0,0.8163,optionLeft,40,11910,6,16,0,16,0,1,,,,,,,,,,,,,,,,,,,,,,,,,,,,,,,,,,,,,,,
,,,,,,,,2023-08-16_08h22.12.214,HF_wild_card,2022.2.4,Win32,59.92329818,62aa1fefabb116cb465a45fc,64d2fd46c836a06233681665,64dc7912c14b8ef70886de5e,,,,,,,decisionTrl,resources/DG.BMP,resources/DR.BMP,Door4,0.159166718,0.0075,1,0,0,1.2831,optionRight,80,11990,6,17,0,17,0,1,,,,,,,,,,,,,,,,,,,,,,,,,,,,,,,,,,,,,,,
,,,,,,,,2023-08-16_08h22.12.214,HF_wild_card,2022.2.4,Win32,59.92329818,62aa1fefabb116cb465a45fc,64d2fd46c836a06233681665,64dc7912c14b8ef70886de5e,,,,,,,ctch,resources/DY.BMP,resources/DG.BMP,Door3,0.255833359,0.0375,1,0,0,1.0819,optionRight,70,12060,6,18,0,18,0,1,,,,,,,,,,,,,,,,,,,,,,,,,,,,,,,,,,,,,,,
,,,,,,,,2023-08-16_08h22.12.214,HF_wild_card,2022.2.4,Win32,59.92329818,62aa1fefabb116cb465a45fc,64d2fd46c836a06233681665,64dc7912c14b8ef70886de5e,,,,,,,ctch,resources/DG.BMP,resources/DY.BMP,Door3,-0.1525,-0.0275,1,0,0,0.7472,optionLeft,70,12130,6,19,0,19,0,1,,,,,,,,,,,,,,,,,,,,,,,,,,,,,,,,,,,,,,,
,,,,,,,,2023-08-16_08h22.12.214,HF_wild_card,2022.2.4,Win32,59.92329818,62aa1fefabb116cb465a45fc,64d2fd46c836a06233681665,64dc7912c14b8ef70886de5e,,,,,,,decisionTrl,resources/DBN.BMP,resources/DG.BMP,Door3,0.164166718,0.016666641,1,0,0,0.9205,optionRight,70,12200,6,20,0,20,0,1,,,,,,,,,,,,,,,,,,,,,,,,,,,,,,,,,,,,,,,
,,,,,,,,2023-08-16_08h22.12.214,HF_wild_card,2022.2.4,Win32,59.92329818,62aa1fefabb116cb465a45fc,64d2fd46c836a06233681665,64dc7912c14b8ef70886de5e,,,,,,,decisionTrl,resources/DG.BMP,resources/DBN.BMP,Door3,-0.2675,-0.046666679,1,0,0,0.7634,optionLeft,70,12270,6,21,0,21,0,1,,,,,,,,,,,,,,,,,,,,,,,,,,,,,,,,,,,,,,,
,,,,,,,,2023-08-16_08h22.12.214,HF_wild_card,2022.2.4,Win32,59.92329818,62aa1fefabb116cb465a45fc,64d2fd46c836a06233681665,64dc7912c14b8ef70886de5e,,,,,,,sngl,resources/DR.BMP,resources/Empty.png,Door4,-0.136666641,-0.0175,1,0,0,0.7327,optionLeft,60,12330,6,22,0,22,0,1,,,,,,,,,,,,,,,,,,,,,,,,,,,,,,,,,,,,,,,
,,,,,,,,2023-08-16_08h22.12.214,HF_wild_card,2022.2.4,Win32,59.92329818,62aa1fefabb116cb465a45fc,64d2fd46c836a06233681665,64dc7912c14b8ef70886de5e,,,,,,,decisionTrl,resources/DP.BMP,resources/DBN.BMP,Door1,-0.154166641,-0.033333359,1,0,0,0.8319,optionLeft,30,12360,6,23,0,23,0,1,,,,,,,,,,,,,,,,,,,,,,,,,,,,,,,,,,,,,,,
,,,,,,,,2023-08-16_08h22.12.214,HF_wild_card,2022.2.4,Win32,59.92329818,62aa1fefabb116cb465a45fc,64d2fd46c836a06233681665,64dc7912c14b8ef70886de5e,,,,,,,sngl,resources/DG.BMP,resources/Empty.png,Door3,-0.153333282,-0.0075,1,0,0,0.8166,optionLeft,70,12430,6,24,0,24,0,1,,,,,,,,,,,,,,,,,,,,,,,,,,,,,,,,,,,,,,,
,,,,,,,,2023-08-16_08h22.12.214,HF_wild_card,2022.2.4,Win32,59.92329818,62aa1fefabb116cb465a45fc,64d2fd46c836a06233681665,64dc7912c14b8ef70886de5e,,,,,,,decisionTrl,resources/DY.BMP,resources/DP.BMP,Door1,0.1425,-0.011666679,1,0,0,0.9975,optionRight,30,12460,6,25,0,25,0,1,,,,,,,,,,,,,,,,,,,,,,,,,,,,,,,,,,,,,,,
,,,,,,,,2023-08-16_08h22.12.214,HF_wild_card,2022.2.4,Win32,59.92329818,62aa1fefabb116cb465a45fc,64d2fd46c836a06233681665,64dc7912c14b8ef70886de5e,,,,,,,decisionTrl,resources/DG.BMP,resources/DR.BMP,Door4,0.145,0.008333321,1,0,0,1.7329,optionRight,80,12540,6,26,0,26,0,1,,,,,,,,,,,,,,,,,,,,,,,,,,,,,,,,,,,,,,,
,,,,,,,,2023-08-16_08h22.12.214,HF_wild_card,2022.2.4,Win32,59.92329818,62aa1fefabb116cb465a45fc,64d2fd46c836a06233681665,64dc7912c14b8ef70886de5e,,,,,,,decisionTrl,resources/DBN.BMP,resources/DY.BMP,Door2,0.138333359,0.014166641,1,0,0,0.9816,optionRight,20,12560,6,27,0,27,0,1,,,,,,,,,,,,,,,,,,,,,,,,,,,,,,,,,,,,,,,
,,,,,,,,2023-08-16_08h22.12.214,HF_wild_card,2022.2.4,Win32,59.92329818,62aa1fefabb116cb465a45fc,64d2fd46c836a06233681665,64dc7912c14b8ef70886de5e,,,,,,,ctch,resources/DP.BMP,resources/DR.BMP,Door4,0.185,-0.005,1,0,0,1.5498,optionRight,60,12620,6,28,0,28,0,1,,,,,,,,,,,,,,,,,,,,,,,,,,,,,,,,,,,,,,,
,,,,,,,,2023-08-16_08h22.12.214,HF_wild_card,2022.2.4,Win32,59.92329818,62aa1fefabb116cb465a45fc,64d2fd46c836a06233681665,64dc7912c14b8ef70886de5e,,,,,,,decisionTrl,resources/DG.BMP,resources/DR.BMP,Door4,0.131666718,0,1,0,0,0.8989,optionRight,60,12680,6,29,0,29,0,1,,,,,,,,,,,,,,,,,,,,,,,,,,,,,,,,,,,,,,,
,,,,,,,,2023-08-16_08h22.12.214,HF_wild_card,2022.2.4,Win32,59.92329818,62aa1fefabb116cb465a45fc,64d2fd46c836a06233681665,64dc7912c14b8ef70886de5e,,,,,,,sngl,resources/Empty.png,resources/DR.BMP,Door4,0.224166718,0.0375,1,0,0,0.766,optionRight,80,12760,6,30,0,30,0,1,,,,,,,,,,,,,,,,,,,,,,,,,,,,,,,,,,,,,,,
,,,,,,,,2023-08-16_08h22.12.214,HF_wild_card,2022.2.4,Win32,59.92329818,62aa1fefabb116cb465a45fc,64d2fd46c836a06233681665,64dc7912c14b8ef70886de5e,,,,,,,decisionTrl,resources/DBN.BMP,resources/DR.BMP,Door4,0.121666718,0.016666641,1,0,0,1.0837,optionRight,80,12840,6,31,0,31,0,1,,,,,,,,,,,,,,,,,,,,,,,,,,,,,,,,,,,,,,,
,,,,,,,,2023-08-16_08h22.12.214,HF_wild_card,2022.2.4,Win32,59.92329818,62aa1fefabb116cb465a45fc,64d2fd46c836a06233681665,64dc7912c14b8ef70886de5e,,,,,,,ctch,resources/DG.BMP,resources/DY.BMP,Door3,-0.166666641,-0.018333359,1,0,0,1.0995,optionLeft,70,12910,6,32,0,32,0,1,,,,,,,,,,,,,,,,,,,,,,,,,,,,,,,,,,,,,,,
,,,,,,,,2023-08-16_08h22.12.214,HF_wild_card,2022.2.4,Win32,59.92329818,62aa1fefabb116cb465a45fc,64d2fd46c836a06233681665,64dc7912c14b8ef70886de5e,,,,,,,sngl,resources/Empty.png,resources/DBN.BMP,WildCard_Ex,0.13,0.013333321,1,0,0,0.7136,optionRight,5,12915,6,33,0,33,0,1,,,,,,,,,,,,,,,,,,,,,,,,,,,,,,,,,,,,,,,
,,,,,,,,2023-08-16_08h22.12.214,HF_wild_card,2022.2.4,Win32,59.92329818,62aa1fefabb116cb465a45fc,64d2fd46c836a06233681665,64dc7912c14b8ef70886de5e,,,,,,,decisionTrl,resources/DY.BMP,resources/DBN.BMP,WildCard_Ex,0.179166718,0.053333321,1,0,0,2.0604,optionRight,5,12920,6,34,0,34,0,1,,,,,,,,,,,,,,,,,,,,,,,,,,,,,,,,,,,,,,,
,,,,,,,,2023-08-16_08h22.12.214,HF_wild_card,2022.2.4,Win32,59.92329818,62aa1fefabb116cb465a45fc,64d2fd46c836a06233681665,64dc7912c14b8ef70886de5e,,,,,,,decisionTrl,resources/DP.BMP,resources/DY.BMP,Door1,-0.24,-0.0725,1,0,0,1.5811,optionLeft,30,12950,6,35,0,35,0,1,,,,,,,,,,,,,,,,,,,,,,,,,,,,,,,,,,,,,,,
,,,,,,,,2023-08-16_08h22.12.214,HF_wild_card,2022.2.4,Win32,59.92329818,62aa1fefabb116cb465a45fc,64d2fd46c836a06233681665,64dc7912c14b8ef70886de5e,,,,,,,decisionTrl,resources/DR.BMP,resources/DG.BMP,Door4,-0.126666641,0.000833321,1,0,0,1.0662,optionLeft,60,13010,6,36,0,36,0,1,,,,,,,,,,,,,,,,,,,,,,,,,,,,,,,,,,,,,,,
,,,,,,,,2023-08-16_08h22.12.214,HF_wild_card,2022.2.4,Win32,59.92329818,62aa1fefabb116cb465a45fc,64d2fd46c836a06233681665,64dc7912c14b8ef70886de5e,,,,,,,sngl,resources/Empty.png,resources/DP.BMP,Door1,0.150833359,0.010833321,1,0,0,0.899,optionRight,30,13040,6,37,0,37,0,1,,,,,,,,,,,,,,,,,,,,,,,,,,,,,,,,,,,,,,,
,,,,,,,,2023-08-16_08h22.12.214,HF_wild_card,2022.2.4,Win32,59.92329818,62aa1fefabb116cb465a45fc,64d2fd46c836a06233681665,64dc7912c14b8ef70886de5e,,,,,,,sngl,resources/Empty.png,resources/DY.BMP,Door2,0.156666718,0.016666641,1,0,0,0.8311,optionRight,40,13080,6,38,0,38,0,1,,,,,,,,,,,,,,,,,,,,,,,,,,,,,,,,,,,,,,,
,,,,,,,,2023-08-16_08h22.12.214,HF_wild_card,2022.2.4,Win32,59.92329818,62aa1fefabb116cb465a45fc,64d2fd46c836a06233681665,64dc7912c14b8ef70886de5e,,,,,,,ctch,resources/DY.BMP,resources/DG.BMP,Door3,0.178333359,0.034166641,1,0,0,1.0153,optionRight,70,13150,6,39,0,39,0,1,,,,,,,,,,,,,,,,,,,,,,,,,,,,,,,,,,,,,,,
,,,,,,,,2023-08-16_08h22.12.214,HF_wild_card,2022.2.4,Win32,59.92329818,62aa1fefabb116cb465a45fc,64d2fd46c836a06233681665,64dc7912c14b8ef70886de5e,,,,,,,sngl,resources/DP.BMP,resources/Empty.png,Door1,-0.130833282,-0.0075,1,0,0,0.7802,optionLeft,30,13180,6,40,0,40,0,1,,,,,,,,,,,,,,,,,,,,,,,,,,,,,,,,,,,,,,,
,,,,,,,,2023-08-16_08h22.12.214,HF_wild_card,2022.2.4,Win32,59.92329818,62aa1fefabb116cb465a45fc,64d2fd46c836a06233681665,64dc7912c14b8ef70886de5e,,,,,,,decisionTrl,resources/DY.BMP,resources/DP.BMP,Door1,0.1175,-0.019166679,1,0,0,5.2363,optionRight,30,13210,6,41,0,41,0,1,,,,,,,,,,,,,,,,,,,,,,,,,,,,,,,,,,,,,,,
,,,,,,,,2023-08-16_08h22.12.214,HF_wild_card,2022.2.4,Win32,59.92329818,62aa1fefabb116cb465a45fc,64d2fd46c836a06233681665,64dc7912c14b8ef70886de5e,,,,,,,ctch,resources/DP.BMP,resources/DR.BMP,Door4,0.13,0.0025,1,0,0,1.0586,optionRight,80,13290,6,42,0,42,0,1,,,,,,,,,,,,,,,,,,,,,,,,,,,,,,,,,,,,,,,
,,,,,,,,2023-08-16_08h22.12.214,HF_wild_card,2022.2.4,Win32,59.92329818,62aa1fefabb116cb465a45fc,64d2fd46c836a06233681665,64dc7912c14b8ef70886de5e,,,,,,,sngl,resources/DBN.BMP,resources/Empty.png,WildCard_Ex,-0.1525,-0.018333359,1,0,0,0.8989,optionLeft,95,13385,6,43,0,43,0,1,,,,,,,,,,,,,,,,,,,,,,,,,,,,,,,,,,,,,,,
,,,,,,,,2023-08-16_08h22.12.214,HF_wild_card,2022.2.4,Win32,59.92329818,62aa1fefabb116cb465a45fc,64d2fd46c836a06233681665,64dc7912c14b8ef70886de5e,,,,,,,,,,,,,,,,,,,,,,,,,,5,0,5,0,1,,,,,,,,,,,,,,,,,,,,,,,,,,,,,,,,,,
,,,,,,,,2023-08-16_08h22.12.214,HF_wild_card,2022.2.4,Win32,59.92329818,62aa1fefabb116cb465a45fc,64d2fd46c836a06233681665,64dc7912c14b8ef70886de5e,,,,,,,decisionTrl,resources/DP.BMP,resources/DY.BMP,Door1,-0.173333321,0.056666641,1,0,0,1.0905,optionLeft,30,13415,7,0,0,0,0,1,,,,,,,,,,,,,,,,,,,,,,,,,,,,,,,,,,,,,,,
,,,,,,,,2023-08-16_08h22.12.214,HF_wild_card,2022.2.4,Win32,59.92329818,62aa1fefabb116cb465a45fc,64d2fd46c836a06233681665,64dc7912c14b8ef70886de5e,,,,,,,decisionTrl,resources/DY.BMP,resources/DP.BMP,Door1,0.2,-0.0325,1,0,0,0.6992,optionRight,30,13445,7,1,0,1,0,1,,,,,,,,,,,,,,,,,,,,,,,,,,,,,,,,,,,,,,,
,,,,,,,,2023-08-16_08h22.12.214,HF_wild_card,2022.2.4,Win32,59.92329818,62aa1fefabb116cb465a45fc,64d2fd46c836a06233681665,64dc7912c14b8ef70886de5e,,,,,,,decisionTrl,resources/DP.BMP,resources/DY.BMP,Door1,-0.245,-0.0225,1,0,0,0.6327,optionLeft,30,13475,7,2,0,2,0,1,,,,,,,,,,,,,,,,,,,,,,,,,,,,,,,,,,,,,,,
,,,,,,,,2023-08-16_08h22.12.214,HF_wild_card,2022.2.4,Win32,59.92329818,62aa1fefabb116cb465a45fc,64d2fd46c836a06233681665,64dc7912c14b8ef70886de5e,,,,,,,decisionTrl,resources/DP.BMP,resources/DY.BMP,Door2,0.29,-0.044166679,1,0,0,0.5821,optionRight,20,13495,7,3,0,3,0,1,,,,,,,,,,,,,,,,,,,,,,,,,,,,,,,,,,,,,,,
,,,,,,,,2023-08-16_08h22.12.214,HF_wild_card,2022.2.4,Win32,59.92329818,62aa1fefabb116cb465a45fc,64d2fd46c836a06233681665,64dc7912c14b8ef70886de5e,,,,,,,ctch,resources/DG.BMP,resources/DY.BMP,Door3,-0.243333321,-0.005,1,0,0,0.5995,optionLeft,70,13565,7,4,0,4,0,1,,,,,,,,,,,,,,,,,,,,,,,,,,,,,,,,,,,,,,,
,,,,,,,,2023-08-16_08h22.12.214,HF_wild_card,2022.2.4,Win32,59.92329818,62aa1fefabb116cb465a45fc,64d2fd46c836a06233681665,64dc7912c14b8ef70886de5e,,,,,,,decisionTrl,resources/DR.BMP,resources/DG.BMP,Door4,-0.114166641,-0.005833359,1,0,0,0.617,optionLeft,80,13645,7,5,0,5,0,1,,,,,,,,,,,,,,,,,,,,,,,,,,,,,,,,,,,,,,,
,,,,,,,,2023-08-16_08h22.12.214,HF_wild_card,2022.2.4,Win32,59.92329818,62aa1fefabb116cb465a45fc,64d2fd46c836a06233681665,64dc7912c14b8ef70886de5e,,,,,,,decisionTrl,resources/DR.BMP,resources/DG.BMP,Door4,-0.114166641,0.000833321,1,0,0,0.4167,optionLeft,60,13705,7,6,0,6,0,1,,,,,,,,,,,,,,,,,,,,,,,,,,,,,,,,,,,,,,,
,,,,,,,,2023-08-16_08h22.12.214,HF_wild_card,2022.2.4,Win32,59.92329818,62aa1fefabb116cb465a45fc,64d2fd46c836a06233681665,64dc7912c14b8ef70886de5e,,,,,,,ctch,resources/DP.BMP,resources/DR.BMP,Door4,0.22,-0.029166679,1,0,0,0.6493,optionRight,60,13765,7,7,0,7,0,1,,,,,,,,,,,,,,,,,,,,,,,,,,,,,,,,,,,,,,,
,,,,,,,,2023-08-16_08h22.12.214,HF_wild_card,2022.2.4,Win32,59.92329818,62aa1fefabb116cb465a45fc,64d2fd46c836a06233681665,64dc7912c14b8ef70886de5e,,,,,,,ctch,resources/DY.BMP,resources/DG.BMP,Door3,0.123333359,-0.008333359,1,0,0,0.7164,optionRight,70,13835,7,8,0,8,0,1,,,,,,,,,,,,,,,,,,,,,,,,,,,,,,,,,,,,,,,
,,,,,,,,2023-08-16_08h22.12.214,HF_wild_card,2022.2.4,Win32,59.92329818,62aa1fefabb116cb465a45fc,64d2fd46c836a06233681665,64dc7912c14b8ef70886de5e,,,,,,,ctch,resources/DR.BMP,resources/DP.BMP,Door4,-0.175,-0.0125,1,0,0,0.5667,optionLeft,60,13895,7,9,0,9,0,1,,,,,,,,,,,,,,,,,,,,,,,,,,,,,,,,,,,,,,,
,,,,,,,,2023-08-16_08h22.12.214,HF_wild_card,2022.2.4,Win32,59.92329818,62aa1fefabb116cb465a45fc,64d2fd46c836a06233681665,64dc7912c14b8ef70886de5e,,,,,,,ctch,resources/DY.BMP,resources/DG.BMP,Door3,0.113333359,-0.0175,1,0,0,0.5497,optionRight,70,13965,7,10,0,10,0,1,,,,,,,,,,,,,,,,,,,,,,,,,,,,,,,,,,,,,,,
,,,,,,,,2023-08-16_08h22.12.214,HF_wild_card,2022.2.4,Win32,59.92329818,62aa1fefabb116cb465a45fc,64d2fd46c836a06233681665,64dc7912c14b8ef70886de5e,,,,,,,decisionTrl,resources/DY.BMP,resources/DP.BMP,Door1,0.11,-0.015,1,0,0,0.6156,optionRight,30,13995,7,11,0,11,0,1,,,,,,,,,,,,,,,,,,,,,,,,,,,,,,,,,,,,,,,
,,,,,,,,2023-08-16_08h22.12.214,HF_wild_card,2022.2.4,Win32,59.92329818,62aa1fefabb116cb465a45fc,64d2fd46c836a06233681665,64dc7912c14b8ef70886de5e,,,,,,,decisionTrl,resources/DG.BMP,resources/DR.BMP,Door4,0.285833359,-0.0675,1,0,0,1.1168,optionRight,60,14055,7,12,0,12,0,1,,,,,,,,,,,,,,,,,,,,,,,,,,,,,,,,,,,,,,,
,,,,,,,,2023-08-16_08h22.12.214,HF_wild_card,2022.2.4,Win32,59.92329818,62aa1fefabb116cb465a45fc,64d2fd46c836a06233681665,64dc7912c14b8ef70886de5e,,,,,,,decisionTrl,resources/DR.BMP,resources/DG.BMP,Door4,-0.170833321,-0.080833359,1,0,0,0.5823,optionLeft,80,14135,7,13,0,13,0,1,,,,,,,,,,,,,,,,,,,,,,,,,,,,,,,,,,,,,,,
,,,,,,,,2023-08-16_08h22.12.214,HF_wild_card,2022.2.4,Win32,59.92329818,62aa1fefabb116cb465a45fc,64d2fd46c836a06233681665,64dc7912c14b8ef70886de5e,,,,,,,decisionTrl,resources/DG.BMP,resources/DR.BMP,Door4,0.201666718,-0.0125,1,0,0,0.4995,optionRight,60,14195,7,14,0,14,0,1,,,,,,,,,,,,,,,,,,,,,,,,,,,,,,,,,,,,,,,
,,,,,,,,2023-08-16_08h22.12.214,HF_wild_card,2022.2.4,Win32,59.92329818,62aa1fefabb116cb465a45fc,64d2fd46c836a06233681665,64dc7912c14b8ef70886de5e,,,,,,,decisionTrl,resources/DR.BMP,resources/DG.BMP,Door4,-0.223333321,-0.003333359,1,0,0,0.8494,optionLeft,80,14275,7,15,0,15,0,1,,,,,,,,,,,,,,,,,,,,,,,,,,,,,,,,,,,,,,,
,,,,,,,,2023-08-16_08h22.12.214,HF_wild_card,2022.2.4,Win32,59.92329818,62aa1fefabb116cb465a45fc,64d2fd46c836a06233681665,64dc7912c14b8ef70886de5e,,,,,,,decisionTrl,resources/DP.BMP,resources/DY.BMP,Door1,-0.173333321,0.024166641,1,0,0,0.8997,optionLeft,30,14305,7,16,0,16,0,1,,,,,,,,,,,,,,,,,,,,,,,,,,,,,,,,,,,,,,,
,,,,,,,,2023-08-16_08h22.12.214,HF_wild_card,2022.2.4,Win32,59.92329818,62aa1fefabb116cb465a45fc,64d2fd46c836a06233681665,64dc7912c14b8ef70886de5e,,,,,,,decisionTrl,resources/DY.BMP,resources/DP.BMP,Door1,0.156666718,-0.0275,1,0,0,0.7164,optionRight,30,14335,7,17,0,17,0,1,,,,,,,,,,,,,,,,,,,,,,,,,,,,,,,,,,,,,,,
,,,,,,,,2023-08-16_08h22.12.214,HF_wild_card,2022.2.4,Win32,59.92329818,62aa1fefabb116cb465a45fc,64d2fd46c836a06233681665,64dc7912c14b8ef70886de5e,,,,,,,ctch,resources/DP.BMP,resources/DR.BMP,Door4,0.121666718,-0.021666679,1,0,0,0.7329,optionRight,80,14415,7,18,0,18,0,1,,,,,,,,,,,,,,,,,,,,,,,,,,,,,,,,,,,,,,,
,,,,,,,,2023-08-16_08h22.12.214,HF_wild_card,2022.2.4,Win32,59.92329818,62aa1fefabb116cb465a45fc,64d2fd46c836a06233681665,64dc7912c14b8ef70886de5e,,,,,,,ctch,resources/DY.BMP,resources/DG.BMP,Door3,0.1225,-0.0125,1,0,0,0.7155,optionRight,70,14485,7,19,0,19,0,1,,,,,,,,,,,,,,,,,,,,,,,,,,,,,,,,,,,,,,,
,,,,,,,,2023-08-16_08h22.12.214,HF_wild_card,2022.2.4,Win32,59.92329818,62aa1fefabb116cb465a45fc,64d2fd46c836a06233681665,64dc7912c14b8ef70886de5e,,,,,,,decisionTrl,resources/DG.BMP,resources/DR.BMP,Door4,0.121666718,-0.045833359,1,0,0,0.8174,optionRight,60,14545,7,20,0,20,0,1,,,,,,,,,,,,,,,,,,,,,,,,,,,,,,,,,,,,,,,
,,,,,,,,2023-08-16_08h22.12.214,HF_wild_card,2022.2.4,Win32,59.92329818,62aa1fefabb116cb465a45fc,64d2fd46c836a06233681665,64dc7912c14b8ef70886de5e,,,,,,,decisionTrl,resources/DR.BMP,resources/DG.BMP,Door4,-0.193333321,-0.003333359,1,0,0,0.6666,optionLeft,80,14625,7,21,0,21,0,1,,,,,,,,,,,,,,,,,,,,,,,,,,,,,,,,,,,,,,,
,,,,,,,,2023-08-16_08h22.12.214,HF_wild_card,2022.2.4,Win32,59.92329818,62aa1fefabb116cb465a45fc,64d2fd46c836a06233681665,64dc7912c14b8ef70886de5e,,,,,,,decisionTrl,resources/DP.BMP,resources/DY.BMP,Door2,0.14,-0.030833359,1,0,0,0.767,optionRight,40,14665,7,22,0,22,0,1,,,,,,,,,,,,,,,,,,,,,,,,,,,,,,,,,,,,,,,
,,,,,,,,2023-08-16_08h22.12.214,HF_wild_card,2022.2.4,Win32,59.92329818,62aa1fefabb116cb465a45fc,64d2fd46c836a06233681665,64dc7912c14b8ef70886de5e,,,,,,,ctch,resources/DG.BMP,resources/DY.BMP,Door3,-0.141666641,0.005,1,0,0,0.6319,optionLeft,70,14735,7,23,0,23,0,1,,,,,,,,,,,,,,,,,,,,,,,,,,,,,,,,,,,,,,,
,,,,,,,,2023-08-16_08h22.12.214,HF_wild_card,2022.2.4,Win32,59.92329818,62aa1fefabb116cb465a45fc,64d2fd46c836a06233681665,64dc7912c14b8ef70886de5e,,,,,,,ctch,resources/DR.BMP,resources/DP.BMP,Door4,-0.114166641,0.0025,1,0,0,1.0161,optionLeft,80,14815,7,24,0,24,0,1,,,,,,,,,,,,,,,,,,,,,,,,,,,,,,,,,,,,,,,
,,,,,,,,2023-08-16_08h22.12.214,HF_wild_card,2022.2.4,Win32,59.92329818,62aa1fefabb116cb465a45fc,64d2fd46c836a06233681665,64dc7912c14b8ef70886de5e,,,,,,,decisionTrl,resources/DR.BMP,resources/DG.BMP,Door4,-0.173333321,0.0025,1,0,0,0.5998,optionLeft,60,14875,7,25,0,25,0,1,,,,,,,,,,,,,,,,,,,,,,,,,,,,,,,,,,,,,,,
,,,,,,,,2023-08-16_08h22.12.214,HF_wild_card,2022.2.4,Win32,59.92329818,62aa1fefabb116cb465a45fc,64d2fd46c836a06233681665,64dc7912c14b8ef70886de5e,,,,,,,decisionTrl,resources/DG.BMP,resources/DR.BMP,Door4,0.1525,-0.040833359,1,0,0,0.5828,optionRight,60,14935,7,26,0,26,0,1,,,,,,,,,,,,,,,,,,,,,,,,,,,,,,,,,,,,,,,
,,,,,,,,2023-08-16_08h22.12.214,HF_wild_card,2022.2.4,Win32,59.92329818,62aa1fefabb116cb465a45fc,64d2fd46c836a06233681665,64dc7912c14b8ef70886de5e,,,,,,,decisionTrl,resources/DY.BMP,resources/DP.BMP,Door1,0.1525,-0.009166679,1,0,0,0.7328,optionRight,30,14965,7,27,0,27,0,1,,,,,,,,,,,,,,,,,,,,,,,,,,,,,,,,,,,,,,,
,,,,,,,,2023-08-16_08h22.12.214,HF_wild_card,2022.2.4,Win32,59.92329818,62aa1fefabb116cb465a45fc,64d2fd46c836a06233681665,64dc7912c14b8ef70886de5e,,,,,,,decisionTrl,resources/DY.BMP,resources/DP.BMP,Door1,0.2025,-0.0525,1,0,0,0.534,optionRight,30,14995,7,28,0,28,0,1,,,,,,,,,,,,,,,,,,,,,,,,,,,,,,,,,,,,,,,
,,,,,,,,2023-08-16_08h22.12.214,HF_wild_card,2022.2.4,Win32,59.92329818,62aa1fefabb116cb465a45fc,64d2fd46c836a06233681665,64dc7912c14b8ef70886de5e,,,,,,,decisionTrl,resources/DG.BMP,resources/DR.BMP,Door4,0.149166718,-0.0375,1,0,0,0.765,optionRight,60,15055,7,29,0,29,0,1,,,,,,,,,,,,,,,,,,,,,,,,,,,,,,,,,,,,,,,
,,,,,,,,2023-08-16_08h22.12.214,HF_wild_card,2022.2.4,Win32,59.92329818,62aa1fefabb116cb465a45fc,64d2fd46c836a06233681665,64dc7912c14b8ef70886de5e,,,,,,,ctch,resources/DR.BMP,resources/DP.BMP,Door4,-0.16,0.0475,1,0,0,1.4843,optionLeft,80,15135,7,30,0,30,0,1,,,,,,,,,,,,,,,,,,,,,,,,,,,,,,,,,,,,,,,
,,,,,,,,2023-08-16_08h22.12.214,HF_wild_card,2022.2.4,Win32,59.92329818,62aa1fefabb116cb465a45fc,64d2fd46c836a06233681665,64dc7912c14b8ef70886de5e,,,,,,,decisionTrl,resources/DY.BMP,resources/DP.BMP,Door1,0.114166718,-0.003333359,1,0,0,0.9676,optionRight,30,15165,7,31,0,31,0,1,,,,,,,,,,,,,,,,,,,,,,,,,,,,,,,,,,,,,,,
,,,,,,,,2023-08-16_08h22.12.214,HF_wild_card,2022.2.4,Win32,59.92329818,62aa1fefabb116cb465a45fc,64d2fd46c836a06233681665,64dc7912c14b8ef70886de5e,,,,,,,decisionTrl,resources/DG.BMP,resources/DR.BMP,Door4,0.080833359,0.0275,1,0,0,1.3505,optionRight,60,15225,7,32,0,32,0,1,,,,,,,,,,,,,,,,,,,,,,,,,,,,,,,,,,,,,,,
,,,,,,,,2023-08-16_08h22.12.214,HF_wild_card,2022.2.4,Win32,59.92329818,62aa1fefabb116cb465a45fc,64d2fd46c836a06233681665,64dc7912c14b8ef70886de5e,,,,,,,decisionTrl,resources/DP.BMP,resources/DY.BMP,Door1,-0.190833321,-0.024166679,1,0,0,1.1829,optionLeft,30,15255,7,33,0,33,0,1,,,,,,,,,,,,,,,,,,,,,,,,,,,,,,,,,,,,,,,
,,,,,,,,2023-08-16_08h22.12.214,HF_wild_card,2022.2.4,Win32,59.92329818,62aa1fefabb116cb465a45fc,64d2fd46c836a06233681665,64dc7912c14b8ef70886de5e,,,,,,,ctch,resources/DP.BMP,resources/DR.BMP,Door4,0.195833359,0.019166641,1,0,0,0.8171,optionRight,80,15335,7,34,0,34,0,1,,,,,,,,,,,,,,,,,,,,,,,,,,,,,,,,,,,,,,,
,,,,,,,,2023-08-16_08h22.12.214,HF_wild_card,2022.2.4,Win32,59.92329818,62aa1fefabb116cb465a45fc,64d2fd46c836a06233681665,64dc7912c14b8ef70886de5e,,,,,,,ctch,resources/DG.BMP,resources/DY.BMP,Door3,-0.140833282,0.0175,1,0,0,0.8992,optionLeft,70,15405,7,35,0,35,0,1,,,,,,,,,,,,,,,,,,,,,,,,,,,,,,,,,,,,,,,
,,,,,,,,2023-08-16_08h22.12.214,HF_wild_card,2022.2.4,Win32,59.92329818,62aa1fefabb116cb465a45fc,64d2fd46c836a06233681665,64dc7912c14b8ef70886de5e,,,,,,,,,,,,,,,,,,,,,,,,,,6,0,6,0,1,,,,,,,,,,,,,,,,,,,,,,,,,,,,,,,,,,
,,,,,,,,2023-08-16_08h22.12.214,HF_wild_card,2022.2.4,Win32,59.92329818,62aa1fefabb116cb465a45fc,64d2fd46c836a06233681665,64dc7912c14b8ef70886de5e,,,,,,,,,,,,,,,,,,,,,,,,,,,,,,,3,,,,,,,,,,,,,,,,,,,,,,,,,,,,,,,,,
,,,,,,,,2023-08-16_08h22.12.214,HF_wild_card,2022.2.4,Win32,59.92329818,62aa1fefabb116cb465a45fc,64d2fd46c836a06233681665,64dc7912c14b8ef70886de5e,,,,,,,,,,,,,,,,,,,,,,,,,,,,,,,,,,,,,,,,,,,,,,,,,,,,,,,,,,,,,,,,
,,,,,,,,2023-08-16_08h22.12.214,HF_wild_card,2022.2.4,Win32,59.92329818,62aa1fefabb116cb465a45fc,64d2fd46c836a06233681665,64dc7912c14b8ef70886de5e,,,,,,,,,,,,,,,,,,,,,,,,,,,,,,,,80,Door4,resources/DR.BMP,0,0,0,0,1,,,,,,,,,,,,,,,,,,,,,,,,,
,,,,,,,,2023-08-16_08h22.12.214,HF_wild_card,2022.2.4,Win32,59.92329818,62aa1fefabb116cb465a45fc,64d2fd46c836a06233681665,64dc7912c14b8ef70886de5e,,,,,,,,,,,,,,,,,,,,,,,,,,,,,,,,30,WC_nonExtreme,resources/DB.BMP,1,0,1,0,1,,,,,,,,,,,,,,,,,,,,,,,,,
,,,,,,,,2023-08-16_08h22.12.214,HF_wild_card,2022.2.4,Win32,59.92329818,62aa1fefabb116cb465a45fc,64d2fd46c836a06233681665,64dc7912c14b8ef70886de5e,,,,,,,,,,,,,,,,,,,,,,,,,,,,,,,,5,WC_extreme,resources/DBN.BMP,2,0,2,0,1,,,,,,,,,,,,,,,,,,,,,,,,,
,,,,,,,,2023-08-16_08h22.12.214,HF_wild_card,2022.2.4,Win32,59.92329818,62aa1fefabb116cb465a45fc,64d2fd46c836a06233681665,64dc7912c14b8ef70886de5e,,,,,,,,,,,,,,,,,,,,,,,,,,,,,,,,30,Door2,resources/DY.BMP,3,0,3,0,1,,,,,,,,,,,,,,,,,,,,,,,,,
,,,,,,,,2023-08-16_08h22.12.214,HF_wild_card,2022.2.4,Win32,59.92329818,62aa1fefabb116cb465a45fc,64d2fd46c836a06233681665,64dc7912c14b8ef70886de5e,,,,,,,,,,,,,,,,,,,,,,,,,,,,,,,,70,Door3,resources/DG.BMP,4,0,4,0,1,,,,,,,,,,,,,,,,,,,,,,,,,
,,,,,,,,2023-08-16_08h22.12.214,HF_wild_card,2022.2.4,Win32,59.92329818,62aa1fefabb116cb465a45fc,64d2fd46c836a06233681665,64dc7912c14b8ef70886de5e,,,,,,,,,,,,,,,,,,,,,,,,,,,,,,,,40,Door1,resources/DP.BMP,5,0,5,0,1,,,,,,,,,,,,,,,,,,,,,,,,,
,,,,,,,,2023-08-16_08h22.12.214,HF_wild_card,2022.2.4,Win32,59.92329818,62aa1fefabb116cb465a45fc,64d2fd46c836a06233681665,64dc7912c14b8ef70886de5e,,,,,,,,,,,,,,,,,,,,,,,,,,,,,,,,,,,,,,,,,,,,,,,,,,,,,,,,,,,,,,,,
,,,,,,,,2023-08-16_08h22.12.214,HF_wild_card,2022.2.4,Win32,59.92329818,62aa1fefabb116cb465a45fc,64d2fd46c836a06233681665,64dc7912c14b8ef70886de5e,,,,,,,,,,,,,,,,,,,,,,,,,,,,,,,,,,,,,,,,0,0,0,0,1,,,,,,,,,,,,,,,,,,,,
,,,,,,,,2023-08-16_08h22.12.214,HF_wild_card,2022.2.4,Win32,59.92329818,62aa1fefabb116cb465a45fc,64d2fd46c836a06233681665,64dc7912c14b8ef70886de5e,,,,,,,,,,,,,,,,,,,,,,,,,,,,,,,,,,,,,,,,1,0,1,0,1,,,,,,,,,,,,,,,,,,,,
,,,,,,,,2023-08-16_08h22.12.214,HF_wild_card,2022.2.4,Win32,59.92329818,62aa1fefabb116cb465a45fc,64d2fd46c836a06233681665,64dc7912c14b8ef70886de5e,,,,,,,,,,,,,,,,,,,,,,,,,,,,,,,,,,,,,,,,,,,,,-0.2425,-0.38,1,0,0,yes,050%,50%,Door2,resources/DY.BMP,0,0,0,0,1,,,,,
,,,,,,,,2023-08-16_08h22.12.214,HF_wild_card,2022.2.4,Win32,59.92329818,62aa1fefabb116cb465a45fc,64d2fd46c836a06233681665,64dc7912c14b8ef70886de5e,,,,,,,,,,,,,,,,,,,,,,,,,,,,,,,,,,,,,,,,,,,,,,,,,,,,,,,,,,,,0,0,0,0,1
,,,,,,,,2023-08-16_08h22.12.214,HF_wild_card,2022.2.4,Win32,59.92329818,62aa1fefabb116cb465a45fc,64d2fd46c836a06233681665,64dc7912c14b8ef70886de5e,,,,,,,,,,,,,,,,,,,,,,,,,,,,,,,,,,,,,,,,0,0,0,0,1,,,,,,,,,,,,,,,,,,,,
,,,,,,,,2023-08-16_08h22.12.214,HF_wild_card,2022.2.4,Win32,59.92329818,62aa1fefabb116cb465a45fc,64d2fd46c836a06233681665,64dc7912c14b8ef70886de5e,,,,,,,,,,,,,,,,,,,,,,,,,,,,,,,,,,,,,,,,1,0,1,0,1,,,,,,,,,,,,,,,,,,,,
