Condition,Low fixed image (Door1),Low risky image (Door2),High fixed image (Door3),High risky image (Door4),NonExtreme Wild Card 1,NonExtreme Wild Card 2,,date,expName,psychopyVersion,OS,frameRate,PROLIFIC_PID,STUDY_ID,SESSION_ID,mouse_2.x,mouse_2.y,mouse_2.leftButton,mouse_2.midButton,mouse_2.rightButton,mouse_2.clicked_name,Trial Type,Left Option Image,Right Option Image,Chosen Door,mouse.x,mouse.y,mouse.leftButton,mouse.midButton,mouse.rightButton,mouse.time,mouse.clicked_name,Feedback,Cumulative Reward,Block,trial.thisRepN,trial.thisTrialN,trial.thisN,trial.thisIndex,trial.ran,blocks.thisRepN,blocks.thisTrialN,blocks.thisN,blocks.thisIndex,blocks.ran,Money conversion,First Outcome Reported,Shown Door (First Outcome),Displayed Image (First Outcome),outcomes.thisRepN,outcomes.thisTrialN,outcomes.thisN,outcomes.thisIndex,outcomes.ran,judgments.thisRepN,judgments.thisTrialN,judgments.thisN,judgments.thisIndex,judgments.ran,freqMouse.x,freqMouse.y,freqMouse.leftButton,freqMouse.midButton,freqMouse.rightButton,freqMouse.clicked_name,FQJ for first outcome,FQJ for second outcome,Shown Door,Displayed Image,trials.thisRepN,trials.thisTrialN,trials.thisN,trials.thisIndex,trials.ran,judgBlock.thisRepN,judgBlock.thisTrialN,judgBlock.thisN,judgBlock.thisIndex,judgBlock.ran
2,resources/DG.BMP,resources/DY.BMP,resources/DR.BMP,resources/DBN.BMP,resources/DP.BMP,resources/DB.BMP,,2023-08-16_08h49.09.164,HF_wild_card,2022.2.4,Win32,59.9880024,5a6b6b34d5d4cb0001d64b8f,64d2fd46c836a06233681665,64dc7f5c229413211ce6c0d7,,,,,,,,,,,,,,,,,,,,,,,,,,,,,,,,,,,,,,,,,,,,,,,,,,,,,,,,,,,,,,,,
,,,,,,,,2023-08-16_08h49.09.164,HF_wild_card,2022.2.4,Win32,59.9880024,5a6b6b34d5d4cb0001d64b8f,64d2fd46c836a06233681665,64dc7f5c229413211ce6c0d7,0.005672609,-0.417341977,1,0,0,agree,,,,,,,,,,,,,,,,,,,,,,,,,,,,,,,,,,,,,,,,,,,,,,,,,,,,,,,,,,
,,,,,,,,2023-08-16_08h49.09.164,HF_wild_card,2022.2.4,Win32,59.9880024,5a6b6b34d5d4cb0001d64b8f,64d2fd46c836a06233681665,64dc7f5c229413211ce6c0d7,,,,,,,,,,,,,,,,,,,,,,,,,,,,,,,,,,,,,,,,,,,,,,,,,,,,,,,,,,,,,,,,
,,,,,,,,2023-08-16_08h49.09.164,HF_wild_card,2022.2.4,Win32,59.9880024,5a6b6b34d5d4cb0001d64b8f,64d2fd46c836a06233681665,64dc7f5c229413211ce6c0d7,,,,,,,sngl,resources/Empty.png,resources/DB.BMP,WildCard_NonEx,0.328200972,-0.104538088,1,0,0,3.6639,optionRight,55,55,1,0,0,0,0,1,,,,,,,,,,,,,,,,,,,,,,,,,,,,,,,,,,,,,,,
,,,,,,,,2023-08-16_08h49.09.164,HF_wild_card,2022.2.4,Win32,59.9880024,5a6b6b34d5d4cb0001d64b8f,64d2fd46c836a06233681665,64dc7f5c229413211ce6c0d7,,,,,,,decisionTrl,resources/DR.BMP,resources/DB.BMP,WildCard_NonEx,0.331442464,-0.099675851,1,0,0,2.1459,optionRight,45,100,1,1,0,1,0,1,,,,,,,,,,,,,,,,,,,,,,,,,,,,,,,,,,,,,,,
,,,,,,,,2023-08-16_08h49.09.164,HF_wild_card,2022.2.4,Win32,59.9880024,5a6b6b34d5d4cb0001d64b8f,64d2fd46c836a06233681665,64dc7f5c229413211ce6c0d7,,,,,,,decisionTrl,resources/DY.BMP,resources/DG.BMP,Door2,-0.341166937,-0.099675851,1,0,0,0.6899,optionLeft,20,120,1,2,0,2,0,1,,,,,,,,,,,,,,,,,,,,,,,,,,,,,,,,,,,,,,,
,,,,,,,,2023-08-16_08h49.09.164,HF_wild_card,2022.2.4,Win32,59.9880024,5a6b6b34d5d4cb0001d64b8f,64d2fd46c836a06233681665,64dc7f5c229413211ce6c0d7,,,,,,,sngl,resources/Empty.png,resources/DBN.BMP,Door4,0.287682334,-0.051053485,1,0,0,0.626,optionRight,60,180,1,3,0,3,0,1,,,,,,,,,,,,,,,,,,,,,,,,,,,,,,,,,,,,,,,
,,,,,,,,2023-08-16_08h49.09.164,HF_wild_card,2022.2.4,Win32,59.9880024,5a6b6b34d5d4cb0001d64b8f,64d2fd46c836a06233681665,64dc7f5c229413211ce6c0d7,,,,,,,decisionTrl,resources/DB.BMP,resources/DBN.BMP,Door4,0.300648298,-0.060777958,1,0,0,1.3415,optionRight,60,240,1,4,0,4,0,1,,,,,,,,,,,,,,,,,,,,,,,,,,,,,,,,,,,,,,,
,,,,,,,,2023-08-16_08h49.09.164,HF_wild_card,2022.2.4,Win32,59.9880024,5a6b6b34d5d4cb0001d64b8f,64d2fd46c836a06233681665,64dc7f5c229413211ce6c0d7,,,,,,,decisionTrl,resources/DR.BMP,resources/DBN.BMP,Door4,0.363857374,-0.046191248,1,0,0,0.7371,optionRight,60,300,1,5,0,5,0,1,,,,,,,,,,,,,,,,,,,,,,,,,,,,,,,,,,,,,,,
,,,,,,,,2023-08-16_08h49.09.164,HF_wild_card,2022.2.4,Win32,59.9880024,5a6b6b34d5d4cb0001d64b8f,64d2fd46c836a06233681665,64dc7f5c229413211ce6c0d7,,,,,,,decisionTrl,resources/DY.BMP,resources/DB.BMP,Door2,-0.234197731,-0.06726094,1,0,0,1.6432,optionLeft,20,320,1,6,0,6,0,1,,,,,,,,,,,,,,,,,,,,,,,,,,,,,,,,,,,,,,,
,,,,,,,,2023-08-16_08h49.09.164,HF_wild_card,2022.2.4,Win32,59.9880024,5a6b6b34d5d4cb0001d64b8f,64d2fd46c836a06233681665,64dc7f5c229413211ce6c0d7,,,,,,,decisionTrl,resources/DBN.BMP,resources/DB.BMP,Door4,-0.261750405,-0.029983793,1,0,0,1.0774,optionLeft,60,380,1,7,0,7,0,1,,,,,,,,,,,,,,,,,,,,,,,,,,,,,,,,,,,,,,,
,,,,,,,,2023-08-16_08h49.09.164,HF_wild_card,2022.2.4,Win32,59.9880024,5a6b6b34d5d4cb0001d64b8f,64d2fd46c836a06233681665,64dc7f5c229413211ce6c0d7,,,,,,,ctch,resources/DR.BMP,resources/DY.BMP,Door3,-0.38006483,-0.033225284,1,0,0,1.388,optionLeft,70,450,1,8,0,8,0,1,,,,,,,,,,,,,,,,,,,,,,,,,,,,,,,,,,,,,,,
,,,,,,,,2023-08-16_08h49.09.164,HF_wild_card,2022.2.4,Win32,59.9880024,5a6b6b34d5d4cb0001d64b8f,64d2fd46c836a06233681665,64dc7f5c229413211ce6c0d7,,,,,,,decisionTrl,resources/DG.BMP,resources/DY.BMP,Door1,-0.286061588,-0.013776337,1,0,0,1.2802,optionLeft,30,480,1,9,0,9,0,1,,,,,,,,,,,,,,,,,,,,,,,,,,,,,,,,,,,,,,,
,,,,,,,,2023-08-16_08h49.09.164,HF_wild_card,2022.2.4,Win32,59.9880024,5a6b6b34d5d4cb0001d64b8f,64d2fd46c836a06233681665,64dc7f5c229413211ce6c0d7,,,,,,,decisionTrl,resources/DBN.BMP,resources/DR.BMP,Door3,0.250405186,-0.002431118,1,0,0,0.8877,optionRight,70,550,1,10,0,10,0,1,,,,,,,,,,,,,,,,,,,,,,,,,,,,,,,,,,,,,,,
,,,,,,,,2023-08-16_08h49.09.164,HF_wild_card,2022.2.4,Win32,59.9880024,5a6b6b34d5d4cb0001d64b8f,64d2fd46c836a06233681665,64dc7f5c229413211ce6c0d7,,,,,,,sngl,resources/DB.BMP,resources/Empty.png,WildCard_NonEx,-0.193679092,-0.018638574,1,0,0,0.8257,optionLeft,45,595,1,11,0,11,0,1,,,,,,,,,,,,,,,,,,,,,,,,,,,,,,,,,,,,,,,
,,,,,,,,2023-08-16_08h49.09.164,HF_wild_card,2022.2.4,Win32,59.9880024,5a6b6b34d5d4cb0001d64b8f,64d2fd46c836a06233681665,64dc7f5c229413211ce6c0d7,,,,,,,decisionTrl,resources/DB.BMP,resources/DY.BMP,Door2,0.320097245,0.002431118,1,0,0,0.9416,optionRight,40,635,1,12,0,12,0,1,,,,,,,,,,,,,,,,,,,,,,,,,,,,,,,,,,,,,,,
,,,,,,,,2023-08-16_08h49.09.164,HF_wild_card,2022.2.4,Win32,59.9880024,5a6b6b34d5d4cb0001d64b8f,64d2fd46c836a06233681665,64dc7f5c229413211ce6c0d7,,,,,,,ctch,resources/DY.BMP,resources/DR.BMP,Door2,-0.221231767,-0.012155592,1,0,0,0.8262,optionLeft,20,655,1,13,0,13,0,1,,,,,,,,,,,,,,,,,,,,,,,,,,,,,,,,,,,,,,,
,,,,,,,,2023-08-16_08h49.09.164,HF_wild_card,2022.2.4,Win32,59.9880024,5a6b6b34d5d4cb0001d64b8f,64d2fd46c836a06233681665,64dc7f5c229413211ce6c0d7,,,,,,,sngl,resources/DG.BMP,resources/Empty.png,Door1,-0.240680713,-0.033225284,1,0,0,0.7271,optionLeft,30,685,1,14,0,14,0,1,,,,,,,,,,,,,,,,,,,,,,,,,,,,,,,,,,,,,,,
,,,,,,,,2023-08-16_08h49.09.164,HF_wild_card,2022.2.4,Win32,59.9880024,5a6b6b34d5d4cb0001d64b8f,64d2fd46c836a06233681665,64dc7f5c229413211ce6c0d7,,,,,,,ctch,resources/DR.BMP,resources/DY.BMP,Door2,0.323338736,-0.033225284,1,0,0,0.7607,optionRight,40,725,1,15,0,15,0,1,,,,,,,,,,,,,,,,,,,,,,,,,,,,,,,,,,,,,,,
,,,,,,,,2023-08-16_08h49.09.164,HF_wild_card,2022.2.4,Win32,59.9880024,5a6b6b34d5d4cb0001d64b8f,64d2fd46c836a06233681665,64dc7f5c229413211ce6c0d7,,,,,,,decisionTrl,resources/DY.BMP,resources/DG.BMP,Door1,0.396272285,-0.013776337,1,0,0,0.5391,optionRight,30,755,1,16,0,16,0,1,,,,,,,,,,,,,,,,,,,,,,,,,,,,,,,,,,,,,,,
,,,,,,,,2023-08-16_08h49.09.164,HF_wild_card,2022.2.4,Win32,59.9880024,5a6b6b34d5d4cb0001d64b8f,64d2fd46c836a06233681665,64dc7f5c229413211ce6c0d7,,,,,,,ctch,resources/DG.BMP,resources/DBN.BMP,Door4,0.302269044,-0.029983793,1,0,0,0.4785,optionRight,60,815,1,17,0,17,0,1,,,,,,,,,,,,,,,,,,,,,,,,,,,,,,,,,,,,,,,
,,,,,,,,2023-08-16_08h49.09.164,HF_wild_card,2022.2.4,Win32,59.9880024,5a6b6b34d5d4cb0001d64b8f,64d2fd46c836a06233681665,64dc7f5c229413211ce6c0d7,,,,,,,decisionTrl,resources/DY.BMP,resources/DG.BMP,Door1,0.337925446,-0.026742301,1,0,0,0.5588,optionRight,30,845,1,18,0,18,0,1,,,,,,,,,,,,,,,,,,,,,,,,,,,,,,,,,,,,,,,
,,,,,,,,2023-08-16_08h49.09.164,HF_wild_card,2022.2.4,Win32,59.9880024,5a6b6b34d5d4cb0001d64b8f,64d2fd46c836a06233681665,64dc7f5c229413211ce6c0d7,,,,,,,ctch,resources/DG.BMP,resources/DBN.BMP,Door4,0.331442464,-0.025121556,1,0,0,0.7473,optionRight,60,905,1,19,0,19,0,1,,,,,,,,,,,,,,,,,,,,,,,,,,,,,,,,,,,,,,,
,,,,,,,,2023-08-16_08h49.09.164,HF_wild_card,2022.2.4,Win32,59.9880024,5a6b6b34d5d4cb0001d64b8f,64d2fd46c836a06233681665,64dc7f5c229413211ce6c0d7,,,,,,,decisionTrl,resources/DG.BMP,resources/DY.BMP,Door1,-0.219611021,-0.064019449,1,0,0,0.6981,optionLeft,30,935,1,20,0,20,0,1,,,,,,,,,,,,,,,,,,,,,,,,,,,,,,,,,,,,,,,
,,,,,,,,2023-08-16_08h49.09.164,HF_wild_card,2022.2.4,Win32,59.9880024,5a6b6b34d5d4cb0001d64b8f,64d2fd46c836a06233681665,64dc7f5c229413211ce6c0d7,,,,,,,sngl,resources/DB.BMP,resources/Empty.png,WildCard_NonEx,-0.35089141,-0.039708266,1,0,0,0.7021,optionLeft,55,990,1,21,0,21,0,1,,,,,,,,,,,,,,,,,,,,,,,,,,,,,,,,,,,,,,,
,,,,,,,,2023-08-16_08h49.09.164,HF_wild_card,2022.2.4,Win32,59.9880024,5a6b6b34d5d4cb0001d64b8f,64d2fd46c836a06233681665,64dc7f5c229413211ce6c0d7,,,,,,,decisionTrl,resources/DB.BMP,resources/DR.BMP,Door3,0.342787682,-0.007293355,1,0,0,0.5269,optionRight,70,1060,1,22,0,22,0,1,,,,,,,,,,,,,,,,,,,,,,,,,,,,,,,,,,,,,,,
,,,,,,,,2023-08-16_08h49.09.164,HF_wild_card,2022.2.4,Win32,59.9880024,5a6b6b34d5d4cb0001d64b8f,64d2fd46c836a06233681665,64dc7f5c229413211ce6c0d7,,,,,,,ctch,resources/DY.BMP,resources/DR.BMP,Door3,0.289303079,-0.034846029,1,0,0,0.5966,optionRight,70,1130,1,23,0,23,0,1,,,,,,,,,,,,,,,,,,,,,,,,,,,,,,,,,,,,,,,
,,,,,,,,2023-08-16_08h49.09.164,HF_wild_card,2022.2.4,Win32,59.9880024,5a6b6b34d5d4cb0001d64b8f,64d2fd46c836a06233681665,64dc7f5c229413211ce6c0d7,,,,,,,decisionTrl,resources/DR.BMP,resources/DBN.BMP,Door3,-0.318476499,-0.017017828,1,0,0,0.741,optionLeft,70,1200,1,24,0,24,0,1,,,,,,,,,,,,,,,,,,,,,,,,,,,,,,,,,,,,,,,
,,,,,,,,2023-08-16_08h49.09.164,HF_wild_card,2022.2.4,Win32,59.9880024,5a6b6b34d5d4cb0001d64b8f,64d2fd46c836a06233681665,64dc7f5c229413211ce6c0d7,,,,,,,sngl,resources/DBN.BMP,resources/Empty.png,Door4,-0.316855754,-0.002431118,1,0,0,0.6126,optionLeft,80,1280,1,25,0,25,0,1,,,,,,,,,,,,,,,,,,,,,,,,,,,,,,,,,,,,,,,
,,,,,,,,2023-08-16_08h49.09.164,HF_wild_card,2022.2.4,Win32,59.9880024,5a6b6b34d5d4cb0001d64b8f,64d2fd46c836a06233681665,64dc7f5c229413211ce6c0d7,,,,,,,sngl,resources/Empty.png,resources/DR.BMP,Door3,0.323338736,-0.012155592,1,0,0,0.923,optionRight,70,1350,1,26,0,26,0,1,,,,,,,,,,,,,,,,,,,,,,,,,,,,,,,,,,,,,,,
,,,,,,,,2023-08-16_08h49.09.164,HF_wild_card,2022.2.4,Win32,59.9880024,5a6b6b34d5d4cb0001d64b8f,64d2fd46c836a06233681665,64dc7f5c229413211ce6c0d7,,,,,,,decisionTrl,resources/DG.BMP,resources/DY.BMP,Door2,0.266612642,-0.031604538,1,0,0,1.2549,optionRight,20,1370,1,27,0,27,0,1,,,,,,,,,,,,,,,,,,,,,,,,,,,,,,,,,,,,,,,
,,,,,,,,2023-08-16_08h49.09.164,HF_wild_card,2022.2.4,Win32,59.9880024,5a6b6b34d5d4cb0001d64b8f,64d2fd46c836a06233681665,64dc7f5c229413211ce6c0d7,,,,,,,decisionTrl,resources/DY.BMP,resources/DG.BMP,Door1,0.329821718,-0.02350081,1,0,0,0.8125,optionRight,30,1400,1,28,0,28,0,1,,,,,,,,,,,,,,,,,,,,,,,,,,,,,,,,,,,,,,,
,,,,,,,,2023-08-16_08h49.09.164,HF_wild_card,2022.2.4,Win32,59.9880024,5a6b6b34d5d4cb0001d64b8f,64d2fd46c836a06233681665,64dc7f5c229413211ce6c0d7,,,,,,,decisionTrl,resources/DG.BMP,resources/DY.BMP,Door1,-0.277957861,-0.025121556,1,0,0,1.1399,optionLeft,30,1430,1,29,0,29,0,1,,,,,,,,,,,,,,,,,,,,,,,,,,,,,,,,,,,,,,,
,,,,,,,,2023-08-16_08h49.09.164,HF_wild_card,2022.2.4,Win32,59.9880024,5a6b6b34d5d4cb0001d64b8f,64d2fd46c836a06233681665,64dc7f5c229413211ce6c0d7,,,,,,,sngl,resources/Empty.png,resources/DB.BMP,WildCard_NonEx,0.21636953,-0.013776337,1,0,0,0.9258,optionRight,45,1475,1,30,0,30,0,1,,,,,,,,,,,,,,,,,,,,,,,,,,,,,,,,,,,,,,,
,,,,,,,,2023-08-16_08h49.09.164,HF_wild_card,2022.2.4,Win32,59.9880024,5a6b6b34d5d4cb0001d64b8f,64d2fd46c836a06233681665,64dc7f5c229413211ce6c0d7,,,,,,,decisionTrl,resources/DBN.BMP,resources/DR.BMP,Door4,-0.381685575,-0.002431118,1,0,0,0.8303,optionLeft,80,1555,1,31,0,31,0,1,,,,,,,,,,,,,,,,,,,,,,,,,,,,,,,,,,,,,,,
,,,,,,,,2023-08-16_08h49.09.164,HF_wild_card,2022.2.4,Win32,59.9880024,5a6b6b34d5d4cb0001d64b8f,64d2fd46c836a06233681665,64dc7f5c229413211ce6c0d7,,,,,,,sngl,resources/Empty.png,resources/DG.BMP,Door1,0.422204214,-0.018638574,1,0,0,1.3307,optionRight,30,1585,1,32,0,32,0,1,,,,,,,,,,,,,,,,,,,,,,,,,,,,,,,,,,,,,,,
,,,,,,,,2023-08-16_08h49.09.164,HF_wild_card,2022.2.4,Win32,59.9880024,5a6b6b34d5d4cb0001d64b8f,64d2fd46c836a06233681665,64dc7f5c229413211ce6c0d7,,,,,,,decisionTrl,resources/DG.BMP,resources/DB.BMP,Door1,-0.433549433,-0.029983793,1,0,0,0.9389,optionLeft,30,1615,1,33,0,33,0,1,,,,,,,,,,,,,,,,,,,,,,,,,,,,,,,,,,,,,,,
,,,,,,,,2023-08-16_08h49.09.164,HF_wild_card,2022.2.4,Win32,59.9880024,5a6b6b34d5d4cb0001d64b8f,64d2fd46c836a06233681665,64dc7f5c229413211ce6c0d7,,,,,,,decisionTrl,resources/DR.BMP,resources/DBN.BMP,Door4,0.40923825,-0.122366288,1,0,0,0.5229,optionRight,80,1695,1,34,0,34,0,1,,,,,,,,,,,,,,,,,,,,,,,,,,,,,,,,,,,,,,,
,,,,,,,,2023-08-16_08h49.09.164,HF_wild_card,2022.2.4,Win32,59.9880024,5a6b6b34d5d4cb0001d64b8f,64d2fd46c836a06233681665,64dc7f5c229413211ce6c0d7,,,,,,,sngl,resources/DR.BMP,resources/Empty.png,Door3,-0.276337115,-0.02350081,1,0,0,0.5456,optionLeft,70,1765,1,35,0,35,0,1,,,,,,,,,,,,,,,,,,,,,,,,,,,,,,,,,,,,,,,
,,,,,,,,2023-08-16_08h49.09.164,HF_wild_card,2022.2.4,Win32,59.9880024,5a6b6b34d5d4cb0001d64b8f,64d2fd46c836a06233681665,64dc7f5c229413211ce6c0d7,,,,,,,decisionTrl,resources/DBN.BMP,resources/DR.BMP,Door4,-0.227714749,-0.02350081,1,0,0,0.8508,optionLeft,80,1845,1,36,0,36,0,1,,,,,,,,,,,,,,,,,,,,,,,,,,,,,,,,,,,,,,,
,,,,,,,,2023-08-16_08h49.09.164,HF_wild_card,2022.2.4,Win32,59.9880024,5a6b6b34d5d4cb0001d64b8f,64d2fd46c836a06233681665,64dc7f5c229413211ce6c0d7,,,,,,,decisionTrl,resources/DR.BMP,resources/DBN.BMP,Door4,0.399513776,-0.072123177,1,0,0,0.4956,optionRight,60,1905,1,37,0,37,0,1,,,,,,,,,,,,,,,,,,,,,,,,,,,,,,,,,,,,,,,
,,,,,,,,2023-08-16_08h49.09.164,HF_wild_card,2022.2.4,Win32,59.9880024,5a6b6b34d5d4cb0001d64b8f,64d2fd46c836a06233681665,64dc7f5c229413211ce6c0d7,,,,,,,ctch,resources/DBN.BMP,resources/DG.BMP,Door4,-0.331442464,-0.005672609,1,0,0,0.6128,optionLeft,80,1985,1,38,0,38,0,1,,,,,,,,,,,,,,,,,,,,,,,,,,,,,,,,,,,,,,,
,,,,,,,,2023-08-16_08h49.09.164,HF_wild_card,2022.2.4,Win32,59.9880024,5a6b6b34d5d4cb0001d64b8f,64d2fd46c836a06233681665,64dc7f5c229413211ce6c0d7,,,,,,,decisionTrl,resources/DB.BMP,resources/DG.BMP,Door1,0.271474878,-0.036466775,1,0,0,0.776,optionRight,30,2015,1,39,0,39,0,1,,,,,,,,,,,,,,,,,,,,,,,,,,,,,,,,,,,,,,,
,,,,,,,,2023-08-16_08h49.09.164,HF_wild_card,2022.2.4,Win32,59.9880024,5a6b6b34d5d4cb0001d64b8f,64d2fd46c836a06233681665,64dc7f5c229413211ce6c0d7,,,,,,,sngl,resources/DY.BMP,resources/Empty.png,Door2,-0.402755267,-0.093192869,1,0,0,0.6885,optionLeft,40,2055,1,40,0,40,0,1,,,,,,,,,,,,,,,,,,,,,,,,,,,,,,,,,,,,,,,
,,,,,,,,2023-08-16_08h49.09.164,HF_wild_card,2022.2.4,Win32,59.9880024,5a6b6b34d5d4cb0001d64b8f,64d2fd46c836a06233681665,64dc7f5c229413211ce6c0d7,,,,,,,ctch,resources/DBN.BMP,resources/DG.BMP,Door4,-0.384927066,-0.012155592,1,0,0,0.9589,optionLeft,80,2135,1,41,0,41,0,1,,,,,,,,,,,,,,,,,,,,,,,,,,,,,,,,,,,,,,,
,,,,,,,,2023-08-16_08h49.09.164,HF_wild_card,2022.2.4,Win32,59.9880024,5a6b6b34d5d4cb0001d64b8f,64d2fd46c836a06233681665,64dc7f5c229413211ce6c0d7,,,,,,,decisionTrl,resources/DBN.BMP,resources/DR.BMP,Door4,-0.412479741,-0.002431118,1,0,0,0.5115,optionLeft,80,2215,1,42,0,42,0,1,,,,,,,,,,,,,,,,,,,,,,,,,,,,,,,,,,,,,,,
,,,,,,,,2023-08-16_08h49.09.164,HF_wild_card,2022.2.4,Win32,59.9880024,5a6b6b34d5d4cb0001d64b8f,64d2fd46c836a06233681665,64dc7f5c229413211ce6c0d7,,,,,,,sngl,resources/Empty.png,resources/DY.BMP,Door2,0.498379254,-0.182333874,1,0,0,0.6218,optionRight,20,2235,1,43,0,43,0,1,,,,,,,,,,,,,,,,,,,,,,,,,,,,,,,,,,,,,,,
,,,,,,,,2023-08-16_08h49.09.164,HF_wild_card,2022.2.4,Win32,59.9880024,5a6b6b34d5d4cb0001d64b8f,64d2fd46c836a06233681665,64dc7f5c229413211ce6c0d7,,,,,,,,,,,,,,,,,,,,,,,,,,0,0,0,0,1,,,,,,,,,,,,,,,,,,,,,,,,,,,,,,,,,,
,,,,,,,,2023-08-16_08h49.09.164,HF_wild_card,2022.2.4,Win32,59.9880024,5a6b6b34d5d4cb0001d64b8f,64d2fd46c836a06233681665,64dc7f5c229413211ce6c0d7,,,,,,,sngl,resources/Empty.png,resources/DR.BMP,Door3,0.362236629,0.013776337,1,0,0,1.3598,optionRight,70,2305,2,0,0,0,0,1,,,,,,,,,,,,,,,,,,,,,,,,,,,,,,,,,,,,,,,
,,,,,,,,2023-08-16_08h49.09.164,HF_wild_card,2022.2.4,Win32,59.9880024,5a6b6b34d5d4cb0001d64b8f,64d2fd46c836a06233681665,64dc7f5c229413211ce6c0d7,,,,,,,sngl,resources/DR.BMP,resources/Empty.png,Door3,-0.310372771,0.012155592,1,0,0,0.4588,optionLeft,70,2375,2,1,0,1,0,1,,,,,,,,,,,,,,,,,,,,,,,,,,,,,,,,,,,,,,,
,,,,,,,,2023-08-16_08h49.09.164,HF_wild_card,2022.2.4,Win32,59.9880024,5a6b6b34d5d4cb0001d64b8f,64d2fd46c836a06233681665,64dc7f5c229413211ce6c0d7,,,,,,,decisionTrl,resources/DBN.BMP,resources/DR.BMP,Door4,-0.315235008,-0.062398703,1,0,0,0.5415,optionLeft,80,2455,2,2,0,2,0,1,,,,,,,,,,,,,,,,,,,,,,,,,,,,,,,,,,,,,,,
,,,,,,,,2023-08-16_08h49.09.164,HF_wild_card,2022.2.4,Win32,59.9880024,5a6b6b34d5d4cb0001d64b8f,64d2fd46c836a06233681665,64dc7f5c229413211ce6c0d7,,,,,,,ctch,resources/DG.BMP,resources/DBN.BMP,Door4,0.287682334,-0.031604538,1,0,0,0.8421,optionRight,60,2515,2,3,0,3,0,1,,,,,,,,,,,,,,,,,,,,,,,,,,,,,,,,,,,,,,,
,,,,,,,,2023-08-16_08h49.09.164,HF_wild_card,2022.2.4,Win32,59.9880024,5a6b6b34d5d4cb0001d64b8f,64d2fd46c836a06233681665,64dc7f5c229413211ce6c0d7,,,,,,,ctch,resources/DG.BMP,resources/DBN.BMP,Door4,0.427066451,-0.109400324,1,0,0,0.6499,optionRight,80,2595,2,4,0,4,0,1,,,,,,,,,,,,,,,,,,,,,,,,,,,,,,,,,,,,,,,
,,,,,,,,2023-08-16_08h49.09.164,HF_wild_card,2022.2.4,Win32,59.9880024,5a6b6b34d5d4cb0001d64b8f,64d2fd46c836a06233681665,64dc7f5c229413211ce6c0d7,,,,,,,decisionTrl,resources/DG.BMP,resources/DY.BMP,Door2,0.305510535,-0.051053485,1,0,0,0.4576,optionRight,20,2615,2,5,0,5,0,1,,,,,,,,,,,,,,,,,,,,,,,,,,,,,,,,,,,,,,,
,,,,,,,,2023-08-16_08h49.09.164,HF_wild_card,2022.2.4,Win32,59.9880024,5a6b6b34d5d4cb0001d64b8f,64d2fd46c836a06233681665,64dc7f5c229413211ce6c0d7,,,,,,,decisionTrl,resources/DBN.BMP,resources/DR.BMP,Door4,-0.342787682,-0.026742301,1,0,0,0.5405,optionLeft,80,2695,2,6,0,6,0,1,,,,,,,,,,,,,,,,,,,,,,,,,,,,,,,,,,,,,,,
,,,,,,,,2023-08-16_08h49.09.164,HF_wild_card,2022.2.4,Win32,59.9880024,5a6b6b34d5d4cb0001d64b8f,64d2fd46c836a06233681665,64dc7f5c229413211ce6c0d7,,,,,,,ctch,resources/DR.BMP,resources/DY.BMP,Door3,-0.542139384,-0.039708266,1,0,0,0.6253,optionLeft,70,2765,2,7,0,7,0,1,,,,,,,,,,,,,,,,,,,,,,,,,,,,,,,,,,,,,,,
,,,,,,,,2023-08-16_08h49.09.164,HF_wild_card,2022.2.4,Win32,59.9880024,5a6b6b34d5d4cb0001d64b8f,64d2fd46c836a06233681665,64dc7f5c229413211ce6c0d7,,,,,,,decisionTrl,resources/DY.BMP,resources/DG.BMP,Door1,0.45623987,-0.06726094,1,0,0,0.609,optionRight,30,2795,2,8,0,8,0,1,,,,,,,,,,,,,,,,,,,,,,,,,,,,,,,,,,,,,,,
,,,,,,,,2023-08-16_08h49.09.164,HF_wild_card,2022.2.4,Win32,59.9880024,5a6b6b34d5d4cb0001d64b8f,64d2fd46c836a06233681665,64dc7f5c229413211ce6c0d7,,,,,,,decisionTrl,resources/DY.BMP,resources/DG.BMP,Door1,0.334683955,-0.03808752,1,0,0,0.7804,optionRight,30,2825,2,9,0,9,0,1,,,,,,,,,,,,,,,,,,,,,,,,,,,,,,,,,,,,,,,
,,,,,,,,2023-08-16_08h49.09.164,HF_wild_card,2022.2.4,Win32,59.9880024,5a6b6b34d5d4cb0001d64b8f,64d2fd46c836a06233681665,64dc7f5c229413211ce6c0d7,,,,,,,decisionTrl,resources/DBN.BMP,resources/DR.BMP,Door4,-0.451377634,-0.026742301,1,0,0,0.6324,optionLeft,60,2885,2,10,0,10,0,1,,,,,,,,,,,,,,,,,,,,,,,,,,,,,,,,,,,,,,,
,,,,,,,,2023-08-16_08h49.09.164,HF_wild_card,2022.2.4,Win32,59.9880024,5a6b6b34d5d4cb0001d64b8f,64d2fd46c836a06233681665,64dc7f5c229413211ce6c0d7,,,,,,,decisionTrl,resources/DB.BMP,resources/DR.BMP,Door3,0.290923825,-0.065640194,1,0,0,0.6016,optionRight,70,2955,2,11,0,11,0,1,,,,,,,,,,,,,,,,,,,,,,,,,,,,,,,,,,,,,,,
,,,,,,,,2023-08-16_08h49.09.164,HF_wild_card,2022.2.4,Win32,59.9880024,5a6b6b34d5d4cb0001d64b8f,64d2fd46c836a06233681665,64dc7f5c229413211ce6c0d7,,,,,,,sngl,resources/Empty.png,resources/DG.BMP,Door1,0.305510535,-0.033225284,1,0,0,0.5941,optionRight,30,2985,2,12,0,12,0,1,,,,,,,,,,,,,,,,,,,,,,,,,,,,,,,,,,,,,,,
,,,,,,,,2023-08-16_08h49.09.164,HF_wild_card,2022.2.4,Win32,59.9880024,5a6b6b34d5d4cb0001d64b8f,64d2fd46c836a06233681665,64dc7f5c229413211ce6c0d7,,,,,,,sngl,resources/DG.BMP,resources/Empty.png,Door1,-0.331442464,-0.010534846,1,0,0,0.6273,optionLeft,30,3015,2,13,0,13,0,1,,,,,,,,,,,,,,,,,,,,,,,,,,,,,,,,,,,,,,,
,,,,,,,,2023-08-16_08h49.09.164,HF_wild_card,2022.2.4,Win32,59.9880024,5a6b6b34d5d4cb0001d64b8f,64d2fd46c836a06233681665,64dc7f5c229413211ce6c0d7,,,,,,,decisionTrl,resources/DG.BMP,resources/DB.BMP,WildCard_NonEx,0.243922204,-0.034846029,1,0,0,0.5102,optionRight,45,3060,2,14,0,14,0,1,,,,,,,,,,,,,,,,,,,,,,,,,,,,,,,,,,,,,,,
,,,,,,,,2023-08-16_08h49.09.164,HF_wild_card,2022.2.4,Win32,59.9880024,5a6b6b34d5d4cb0001d64b8f,64d2fd46c836a06233681665,64dc7f5c229413211ce6c0d7,,,,,,,decisionTrl,resources/DG.BMP,resources/DY.BMP,Door1,-0.300648298,0.002431118,1,0,0,1.3732,optionLeft,30,3090,2,15,0,15,0,1,,,,,,,,,,,,,,,,,,,,,,,,,,,,,,,,,,,,,,,
,,,,,,,,2023-08-16_08h49.09.164,HF_wild_card,2022.2.4,Win32,59.9880024,5a6b6b34d5d4cb0001d64b8f,64d2fd46c836a06233681665,64dc7f5c229413211ce6c0d7,,,,,,,ctch,resources/DY.BMP,resources/DR.BMP,Door3,0.162884927,-0.010534846,1,0,0,1.0595,optionRight,70,3160,2,16,0,16,0,1,,,,,,,,,,,,,,,,,,,,,,,,,,,,,,,,,,,,,,,
,,,,,,,,2023-08-16_08h49.09.164,HF_wild_card,2022.2.4,Win32,59.9880024,5a6b6b34d5d4cb0001d64b8f,64d2fd46c836a06233681665,64dc7f5c229413211ce6c0d7,,,,,,,decisionTrl,resources/DY.BMP,resources/DG.BMP,Door2,-0.266612642,-0.029983793,1,0,0,0.589,optionLeft,20,3180,2,17,0,17,0,1,,,,,,,,,,,,,,,,,,,,,,,,,,,,,,,,,,,,,,,
,,,,,,,,2023-08-16_08h49.09.164,HF_wild_card,2022.2.4,Win32,59.9880024,5a6b6b34d5d4cb0001d64b8f,64d2fd46c836a06233681665,64dc7f5c229413211ce6c0d7,,,,,,,sngl,resources/DB.BMP,resources/Empty.png,WildCard_NonEx,-0.213128039,0.0089141,1,0,0,0.5836,optionLeft,55,3235,2,18,0,18,0,1,,,,,,,,,,,,,,,,,,,,,,,,,,,,,,,,,,,,,,,
,,,,,,,,2023-08-16_08h49.09.164,HF_wild_card,2022.2.4,Win32,59.9880024,5a6b6b34d5d4cb0001d64b8f,64d2fd46c836a06233681665,64dc7f5c229413211ce6c0d7,,,,,,,sngl,resources/Empty.png,resources/DBN.BMP,Door4,0.289303079,-0.026742301,1,0,0,0.5242,optionRight,80,3315,2,19,0,19,0,1,,,,,,,,,,,,,,,,,,,,,,,,,,,,,,,,,,,,,,,
,,,,,,,,2023-08-16_08h49.09.164,HF_wild_card,2022.2.4,Win32,59.9880024,5a6b6b34d5d4cb0001d64b8f,64d2fd46c836a06233681665,64dc7f5c229413211ce6c0d7,,,,,,,ctch,resources/DR.BMP,resources/DY.BMP,Door2,0.299027553,-0.041329011,1,0,0,0.6136,optionRight,40,3355,2,20,0,20,0,1,,,,,,,,,,,,,,,,,,,,,,,,,,,,,,,,,,,,,,,
,,,,,,,,2023-08-16_08h49.09.164,HF_wild_card,2022.2.4,Win32,59.9880024,5a6b6b34d5d4cb0001d64b8f,64d2fd46c836a06233681665,64dc7f5c229413211ce6c0d7,,,,,,,decisionTrl,resources/DB.BMP,resources/DY.BMP,WildCard_NonEx,-0.316855754,-0.000810373,1,0,0,1.2423,optionLeft,55,3410,2,21,0,21,0,1,,,,,,,,,,,,,,,,,,,,,,,,,,,,,,,,,,,,,,,
,,,,,,,,2023-08-16_08h49.09.164,HF_wild_card,2022.2.4,Win32,59.9880024,5a6b6b34d5d4cb0001d64b8f,64d2fd46c836a06233681665,64dc7f5c229413211ce6c0d7,,,,,,,decisionTrl,resources/DB.BMP,resources/DG.BMP,Door1,0.467585089,-0.086709887,1,0,0,0.5766,optionRight,30,3440,2,22,0,22,0,1,,,,,,,,,,,,,,,,,,,,,,,,,,,,,,,,,,,,,,,
,,,,,,,,2023-08-16_08h49.09.164,HF_wild_card,2022.2.4,Win32,59.9880024,5a6b6b34d5d4cb0001d64b8f,64d2fd46c836a06233681665,64dc7f5c229413211ce6c0d7,,,,,,,sngl,resources/Empty.png,resources/DB.BMP,WildCard_NonEx,0.295786062,-0.026742301,1,0,0,0.9633,optionRight,45,3485,2,23,0,23,0,1,,,,,,,,,,,,,,,,,,,,,,,,,,,,,,,,,,,,,,,
,,,,,,,,2023-08-16_08h49.09.164,HF_wild_card,2022.2.4,Win32,59.9880024,5a6b6b34d5d4cb0001d64b8f,64d2fd46c836a06233681665,64dc7f5c229413211ce6c0d7,,,,,,,decisionTrl,resources/DR.BMP,resources/DBN.BMP,Door4,0.373581848,-0.046191248,1,0,0,1.1379,optionRight,80,3565,2,24,0,24,0,1,,,,,,,,,,,,,,,,,,,,,,,,,,,,,,,,,,,,,,,
,,,,,,,,2023-08-16_08h49.09.164,HF_wild_card,2022.2.4,Win32,59.9880024,5a6b6b34d5d4cb0001d64b8f,64d2fd46c836a06233681665,64dc7f5c229413211ce6c0d7,,,,,,,decisionTrl,resources/DG.BMP,resources/DY.BMP,Door1,-0.232576985,-0.03808752,1,0,0,1.3796,optionLeft,30,3595,2,25,0,25,0,1,,,,,,,,,,,,,,,,,,,,,,,,,,,,,,,,,,,,,,,
,,,,,,,,2023-08-16_08h49.09.164,HF_wild_card,2022.2.4,Win32,59.9880024,5a6b6b34d5d4cb0001d64b8f,64d2fd46c836a06233681665,64dc7f5c229413211ce6c0d7,,,,,,,decisionTrl,resources/DBN.BMP,resources/DB.BMP,Door4,-0.347649919,-0.007293355,1,0,0,0.9751,optionLeft,60,3655,2,26,0,26,0,1,,,,,,,,,,,,,,,,,,,,,,,,,,,,,,,,,,,,,,,
,,,,,,,,2023-08-16_08h49.09.164,HF_wild_card,2022.2.4,Win32,59.9880024,5a6b6b34d5d4cb0001d64b8f,64d2fd46c836a06233681665,64dc7f5c229413211ce6c0d7,,,,,,,decisionTrl,resources/DR.BMP,resources/DBN.BMP,Door4,0.303889789,-0.059157212,1,0,0,0.615,optionRight,80,3735,2,27,0,27,0,1,,,,,,,,,,,,,,,,,,,,,,,,,,,,,,,,,,,,,,,
,,,,,,,,2023-08-16_08h49.09.164,HF_wild_card,2022.2.4,Win32,59.9880024,5a6b6b34d5d4cb0001d64b8f,64d2fd46c836a06233681665,64dc7f5c229413211ce6c0d7,,,,,,,sngl,resources/DY.BMP,resources/Empty.png,Door2,-0.503241491,0.005672609,1,0,0,0.6076,optionLeft,20,3755,2,28,0,28,0,1,,,,,,,,,,,,,,,,,,,,,,,,,,,,,,,,,,,,,,,
,,,,,,,,2023-08-16_08h49.09.164,HF_wild_card,2022.2.4,Win32,59.9880024,5a6b6b34d5d4cb0001d64b8f,64d2fd46c836a06233681665,64dc7f5c229413211ce6c0d7,,,,,,,sngl,resources/Empty.png,resources/DB.BMP,WildCard_NonEx,0.235818476,-0.062398703,1,0,0,0.5409,optionRight,55,3810,2,29,0,29,0,1,,,,,,,,,,,,,,,,,,,,,,,,,,,,,,,,,,,,,,,
,,,,,,,,2023-08-16_08h49.09.164,HF_wild_card,2022.2.4,Win32,59.9880024,5a6b6b34d5d4cb0001d64b8f,64d2fd46c836a06233681665,64dc7f5c229413211ce6c0d7,,,,,,,decisionTrl,resources/DB.BMP,resources/DBN.BMP,Door4,0.355753647,-0.059157212,1,0,0,0.6325,optionRight,80,3890,2,30,0,30,0,1,,,,,,,,,,,,,,,,,,,,,,,,,,,,,,,,,,,,,,,
,,,,,,,,2023-08-16_08h49.09.164,HF_wild_card,2022.2.4,Win32,59.9880024,5a6b6b34d5d4cb0001d64b8f,64d2fd46c836a06233681665,64dc7f5c229413211ce6c0d7,,,,,,,sngl,resources/DB.BMP,resources/Empty.png,WildCard_NonEx,-0.425445705,0.015397083,1,0,0,0.52,optionLeft,45,3935,2,31,0,31,0,1,,,,,,,,,,,,,,,,,,,,,,,,,,,,,,,,,,,,,,,
,,,,,,,,2023-08-16_08h49.09.164,HF_wild_card,2022.2.4,Win32,59.9880024,5a6b6b34d5d4cb0001d64b8f,64d2fd46c836a06233681665,64dc7f5c229413211ce6c0d7,,,,,,,decisionTrl,resources/DY.BMP,resources/DB.BMP,WildCard_NonEx,0.326580227,-0.034846029,1,0,0,0.545,optionRight,55,3990,2,32,0,32,0,1,,,,,,,,,,,,,,,,,,,,,,,,,,,,,,,,,,,,,,,
,,,,,,,,2023-08-16_08h49.09.164,HF_wild_card,2022.2.4,Win32,59.9880024,5a6b6b34d5d4cb0001d64b8f,64d2fd46c836a06233681665,64dc7f5c229413211ce6c0d7,,,,,,,ctch,resources/DBN.BMP,resources/DG.BMP,Door4,-0.255267423,-0.002431118,1,0,0,0.4704,optionLeft,60,4050,2,33,0,33,0,1,,,,,,,,,,,,,,,,,,,,,,,,,,,,,,,,,,,,,,,
,,,,,,,,2023-08-16_08h49.09.164,HF_wild_card,2022.2.4,Win32,59.9880024,5a6b6b34d5d4cb0001d64b8f,64d2fd46c836a06233681665,64dc7f5c229413211ce6c0d7,,,,,,,sngl,resources/Empty.png,resources/DY.BMP,Door2,0.305510535,-0.091572123,1,0,0,0.5842,optionRight,40,4090,2,34,0,34,0,1,,,,,,,,,,,,,,,,,,,,,,,,,,,,,,,,,,,,,,,
,,,,,,,,2023-08-16_08h49.09.164,HF_wild_card,2022.2.4,Win32,59.9880024,5a6b6b34d5d4cb0001d64b8f,64d2fd46c836a06233681665,64dc7f5c229413211ce6c0d7,,,,,,,decisionTrl,resources/DG.BMP,resources/DY.BMP,Door2,0.323338736,-0.047811994,1,0,0,0.6542,optionRight,20,4110,2,35,0,35,0,1,,,,,,,,,,,,,,,,,,,,,,,,,,,,,,,,,,,,,,,
,,,,,,,,2023-08-16_08h49.09.164,HF_wild_card,2022.2.4,Win32,59.9880024,5a6b6b34d5d4cb0001d64b8f,64d2fd46c836a06233681665,64dc7f5c229413211ce6c0d7,,,,,,,sngl,resources/DBN.BMP,resources/Empty.png,Door4,-0.302269044,-0.070502431,1,0,0,0.5486,optionLeft,60,4170,2,36,0,36,0,1,,,,,,,,,,,,,,,,,,,,,,,,,,,,,,,,,,,,,,,
,,,,,,,,2023-08-16_08h49.09.164,HF_wild_card,2022.2.4,Win32,59.9880024,5a6b6b34d5d4cb0001d64b8f,64d2fd46c836a06233681665,64dc7f5c229413211ce6c0d7,,,,,,,ctch,resources/DBN.BMP,resources/DG.BMP,Door4,-0.428687196,-0.000810373,1,0,0,0.9455,optionLeft,60,4230,2,37,0,37,0,1,,,,,,,,,,,,,,,,,,,,,,,,,,,,,,,,,,,,,,,
,,,,,,,,2023-08-16_08h49.09.164,HF_wild_card,2022.2.4,Win32,59.9880024,5a6b6b34d5d4cb0001d64b8f,64d2fd46c836a06233681665,64dc7f5c229413211ce6c0d7,,,,,,,decisionTrl,resources/DR.BMP,resources/DB.BMP,WildCard_NonEx,0.237439222,-0.06726094,1,0,0,0.5589,optionRight,45,4275,2,38,0,38,0,1,,,,,,,,,,,,,,,,,,,,,,,,,,,,,,,,,,,,,,,
,,,,,,,,2023-08-16_08h49.09.164,HF_wild_card,2022.2.4,Win32,59.9880024,5a6b6b34d5d4cb0001d64b8f,64d2fd46c836a06233681665,64dc7f5c229413211ce6c0d7,,,,,,,decisionTrl,resources/DR.BMP,resources/DBN.BMP,Door4,0.279578606,-0.021880065,1,0,0,1.0288,optionRight,80,4355,2,39,0,39,0,1,,,,,,,,,,,,,,,,,,,,,,,,,,,,,,,,,,,,,,,
,,,,,,,,2023-08-16_08h49.09.164,HF_wild_card,2022.2.4,Win32,59.9880024,5a6b6b34d5d4cb0001d64b8f,64d2fd46c836a06233681665,64dc7f5c229413211ce6c0d7,,,,,,,decisionTrl,resources/DBN.BMP,resources/DR.BMP,Door4,-0.357374392,-0.025121556,1,0,0,1.4717,optionLeft,60,4415,2,40,0,40,0,1,,,,,,,,,,,,,,,,,,,,,,,,,,,,,,,,,,,,,,,
,,,,,,,,2023-08-16_08h49.09.164,HF_wild_card,2022.2.4,Win32,59.9880024,5a6b6b34d5d4cb0001d64b8f,64d2fd46c836a06233681665,64dc7f5c229413211ce6c0d7,,,,,,,decisionTrl,resources/DR.BMP,resources/DBN.BMP,Door4,0.300648298,-0.044570502,1,0,0,0.5434,optionRight,60,4475,2,41,0,41,0,1,,,,,,,,,,,,,,,,,,,,,,,,,,,,,,,,,,,,,,,
,,,,,,,,2023-08-16_08h49.09.164,HF_wild_card,2022.2.4,Win32,59.9880024,5a6b6b34d5d4cb0001d64b8f,64d2fd46c836a06233681665,64dc7f5c229413211ce6c0d7,,,,,,,ctch,resources/DY.BMP,resources/DR.BMP,Door2,-0.331442464,0.010534846,1,0,0,0.5736,optionLeft,20,4495,2,42,0,42,0,1,,,,,,,,,,,,,,,,,,,,,,,,,,,,,,,,,,,,,,,
,,,,,,,,2023-08-16_08h49.09.164,HF_wild_card,2022.2.4,Win32,59.9880024,5a6b6b34d5d4cb0001d64b8f,64d2fd46c836a06233681665,64dc7f5c229413211ce6c0d7,,,,,,,decisionTrl,resources/DY.BMP,resources/DG.BMP,Door1,0.235818476,-0.017017828,1,0,0,0.4726,optionRight,30,4525,2,43,0,43,0,1,,,,,,,,,,,,,,,,,,,,,,,,,,,,,,,,,,,,,,,
,,,,,,,,2023-08-16_08h49.09.164,HF_wild_card,2022.2.4,Win32,59.9880024,5a6b6b34d5d4cb0001d64b8f,64d2fd46c836a06233681665,64dc7f5c229413211ce6c0d7,,,,,,,,,,,,,,,,,,,,,,,,,,1,0,1,0,1,,,,,,,,,,,,,,,,,,,,,,,,,,,,,,,,,,
,,,,,,,,2023-08-16_08h49.09.164,HF_wild_card,2022.2.4,Win32,59.9880024,5a6b6b34d5d4cb0001d64b8f,64d2fd46c836a06233681665,64dc7f5c229413211ce6c0d7,,,,,,,decisionTrl,resources/DY.BMP,resources/DG.BMP,Door2,-0.397893031,-0.042949757,1,0,0,1.1968,optionLeft,20,4545,3,0,0,0,0,1,,,,,,,,,,,,,,,,,,,,,,,,,,,,,,,,,,,,,,,
,,,,,,,,2023-08-16_08h49.09.164,HF_wild_card,2022.2.4,Win32,59.9880024,5a6b6b34d5d4cb0001d64b8f,64d2fd46c836a06233681665,64dc7f5c229413211ce6c0d7,,,,,,,decisionTrl,resources/DB.BMP,resources/DR.BMP,Door3,0.213128039,-0.073743922,1,0,0,0.6104,optionRight,70,4615,3,1,0,1,0,1,,,,,,,,,,,,,,,,,,,,,,,,,,,,,,,,,,,,,,,
,,,,,,,,2023-08-16_08h49.09.164,HF_wild_card,2022.2.4,Win32,59.9880024,5a6b6b34d5d4cb0001d64b8f,64d2fd46c836a06233681665,64dc7f5c229413211ce6c0d7,,,,,,,decisionTrl,resources/DY.BMP,resources/DG.BMP,Door2,-0.252025932,-0.004051864,1,0,0,0.539,optionLeft,20,4635,3,2,0,2,0,1,,,,,,,,,,,,,,,,,,,,,,,,,,,,,,,,,,,,,,,
,,,,,,,,2023-08-16_08h49.09.164,HF_wild_card,2022.2.4,Win32,59.9880024,5a6b6b34d5d4cb0001d64b8f,64d2fd46c836a06233681665,64dc7f5c229413211ce6c0d7,,,,,,,decisionTrl,resources/DB.BMP,resources/DY.BMP,Door2,0.27471637,-0.054294976,1,0,0,0.5394,optionRight,40,4675,3,3,0,3,0,1,,,,,,,,,,,,,,,,,,,,,,,,,,,,,,,,,,,,,,,
,,,,,,,,2023-08-16_08h49.09.164,HF_wild_card,2022.2.4,Win32,59.9880024,5a6b6b34d5d4cb0001d64b8f,64d2fd46c836a06233681665,64dc7f5c229413211ce6c0d7,,,,,,,decisionTrl,resources/DY.BMP,resources/DG.BMP,Door1,0.205024311,-0.03808752,1,0,0,0.6933,optionRight,30,4705,3,4,0,4,0,1,,,,,,,,,,,,,,,,,,,,,,,,,,,,,,,,,,,,,,,
,,,,,,,,2023-08-16_08h49.09.164,HF_wild_card,2022.2.4,Win32,59.9880024,5a6b6b34d5d4cb0001d64b8f,64d2fd46c836a06233681665,64dc7f5c229413211ce6c0d7,,,,,,,decisionTrl,resources/DBN.BMP,resources/DB.BMP,Door4,-0.273095624,-0.057536467,1,0,0,0.9687,optionLeft,80,4785,3,5,0,5,0,1,,,,,,,,,,,,,,,,,,,,,,,,,,,,,,,,,,,,,,,
,,,,,,,,2023-08-16_08h49.09.164,HF_wild_card,2022.2.4,Win32,59.9880024,5a6b6b34d5d4cb0001d64b8f,64d2fd46c836a06233681665,64dc7f5c229413211ce6c0d7,,,,,,,ctch,resources/DY.BMP,resources/DR.BMP,Door3,0.294165316,-0.051053485,1,0,0,0.729,optionRight,70,4855,3,6,0,6,0,1,,,,,,,,,,,,,,,,,,,,,,,,,,,,,,,,,,,,,,,
,,,,,,,,2023-08-16_08h49.09.164,HF_wild_card,2022.2.4,Win32,59.9880024,5a6b6b34d5d4cb0001d64b8f,64d2fd46c836a06233681665,64dc7f5c229413211ce6c0d7,,,,,,,decisionTrl,resources/DB.BMP,resources/DBN.BMP,Door4,0.276337115,-0.041329011,1,0,0,0.7889,optionRight,80,4935,3,7,0,7,0,1,,,,,,,,,,,,,,,,,,,,,,,,,,,,,,,,,,,,,,,
,,,,,,,,2023-08-16_08h49.09.164,HF_wild_card,2022.2.4,Win32,59.9880024,5a6b6b34d5d4cb0001d64b8f,64d2fd46c836a06233681665,64dc7f5c229413211ce6c0d7,,,,,,,decisionTrl,resources/DR.BMP,resources/DBN.BMP,Door4,0.32171799,-0.041329011,1,0,0,0.5926,optionRight,60,4995,3,8,0,8,0,1,,,,,,,,,,,,,,,,,,,,,,,,,,,,,,,,,,,,,,,
,,,,,,,,2023-08-16_08h49.09.164,HF_wild_card,2022.2.4,Win32,59.9880024,5a6b6b34d5d4cb0001d64b8f,64d2fd46c836a06233681665,64dc7f5c229413211ce6c0d7,,,,,,,sngl,resources/Empty.png,resources/DR.BMP,Door3,0.247163695,-0.085089141,1,0,0,0.578,optionRight,70,5065,3,9,0,9,0,1,,,,,,,,,,,,,,,,,,,,,,,,,,,,,,,,,,,,,,,
,,,,,,,,2023-08-16_08h49.09.164,HF_wild_card,2022.2.4,Win32,59.9880024,5a6b6b34d5d4cb0001d64b8f,64d2fd46c836a06233681665,64dc7f5c229413211ce6c0d7,,,,,,,sngl,resources/Empty.png,resources/DG.BMP,Door1,0.38006483,-0.12560778,1,0,0,0.5219,optionRight,30,5095,3,10,0,10,0,1,,,,,,,,,,,,,,,,,,,,,,,,,,,,,,,,,,,,,,,
,,,,,,,,2023-08-16_08h49.09.164,HF_wild_card,2022.2.4,Win32,59.9880024,5a6b6b34d5d4cb0001d64b8f,64d2fd46c836a06233681665,64dc7f5c229413211ce6c0d7,,,,,,,sngl,resources/Empty.png,resources/DBN.BMP,Door4,0.211507293,-0.039708266,1,0,0,0.4817,optionRight,60,5155,3,11,0,11,0,1,,,,,,,,,,,,,,,,,,,,,,,,,,,,,,,,,,,,,,,
,,,,,,,,2023-08-16_08h49.09.164,HF_wild_card,2022.2.4,Win32,59.9880024,5a6b6b34d5d4cb0001d64b8f,64d2fd46c836a06233681665,64dc7f5c229413211ce6c0d7,,,,,,,decisionTrl,resources/DR.BMP,resources/DBN.BMP,Door4,0.27471637,-0.062398703,1,0,0,0.4791,optionRight,80,5235,3,12,0,12,0,1,,,,,,,,,,,,,,,,,,,,,,,,,,,,,,,,,,,,,,,
,,,,,,,,2023-08-16_08h49.09.164,HF_wild_card,2022.2.4,Win32,59.9880024,5a6b6b34d5d4cb0001d64b8f,64d2fd46c836a06233681665,64dc7f5c229413211ce6c0d7,,,,,,,ctch,resources/DG.BMP,resources/DBN.BMP,Door4,0.271474878,-0.135332253,1,0,0,0.4772,optionRight,80,5315,3,13,0,13,0,1,,,,,,,,,,,,,,,,,,,,,,,,,,,,,,,,,,,,,,,
,,,,,,,,2023-08-16_08h49.09.164,HF_wild_card,2022.2.4,Win32,59.9880024,5a6b6b34d5d4cb0001d64b8f,64d2fd46c836a06233681665,64dc7f5c229413211ce6c0d7,,,,,,,decisionTrl,resources/DG.BMP,resources/DY.BMP,Door2,0.195299838,-0.021880065,1,0,0,0.5093,optionRight,40,5355,3,14,0,14,0,1,,,,,,,,,,,,,,,,,,,,,,,,,,,,,,,,,,,,,,,
,,,,,,,,2023-08-16_08h49.09.164,HF_wild_card,2022.2.4,Win32,59.9880024,5a6b6b34d5d4cb0001d64b8f,64d2fd46c836a06233681665,64dc7f5c229413211ce6c0d7,,,,,,,ctch,resources/DR.BMP,resources/DY.BMP,Door3,-0.300648298,-0.047811994,1,0,0,1.0058,optionLeft,70,5425,3,15,0,15,0,1,,,,,,,,,,,,,,,,,,,,,,,,,,,,,,,,,,,,,,,
,,,,,,,,2023-08-16_08h49.09.164,HF_wild_card,2022.2.4,Win32,59.9880024,5a6b6b34d5d4cb0001d64b8f,64d2fd46c836a06233681665,64dc7f5c229413211ce6c0d7,,,,,,,ctch,resources/DY.BMP,resources/DR.BMP,Door3,0.271474878,-0.06726094,1,0,0,0.5225,optionRight,70,5495,3,16,0,16,0,1,,,,,,,,,,,,,,,,,,,,,,,,,,,,,,,,,,,,,,,
,,,,,,,,2023-08-16_08h49.09.164,HF_wild_card,2022.2.4,Win32,59.9880024,5a6b6b34d5d4cb0001d64b8f,64d2fd46c836a06233681665,64dc7f5c229413211ce6c0d7,,,,,,,decisionTrl,resources/DR.BMP,resources/DBN.BMP,Door4,0.277957861,-0.099675851,1,0,0,0.6069,optionRight,60,5555,3,17,0,17,0,1,,,,,,,,,,,,,,,,,,,,,,,,,,,,,,,,,,,,,,,
,,,,,,,,2023-08-16_08h49.09.164,HF_wild_card,2022.2.4,Win32,59.9880024,5a6b6b34d5d4cb0001d64b8f,64d2fd46c836a06233681665,64dc7f5c229413211ce6c0d7,,,,,,,decisionTrl,resources/DR.BMP,resources/DB.BMP,Door3,-0.525931929,0.054294976,1,0,0,1.0153,optionLeft,70,5625,3,18,0,18,0,1,,,,,,,,,,,,,,,,,,,,,,,,,,,,,,,,,,,,,,,
,,,,,,,,2023-08-16_08h49.09.164,HF_wild_card,2022.2.4,Win32,59.9880024,5a6b6b34d5d4cb0001d64b8f,64d2fd46c836a06233681665,64dc7f5c229413211ce6c0d7,,,,,,,decisionTrl,resources/DY.BMP,resources/DB.BMP,WildCard_NonEx,0.30713128,-0.098055105,1,0,0,0.943,optionRight,45,5670,3,19,0,19,0,1,,,,,,,,,,,,,,,,,,,,,,,,,,,,,,,,,,,,,,,
,,,,,,,,2023-08-16_08h49.09.164,HF_wild_card,2022.2.4,Win32,59.9880024,5a6b6b34d5d4cb0001d64b8f,64d2fd46c836a06233681665,64dc7f5c229413211ce6c0d7,,,,,,,decisionTrl,resources/DR.BMP,resources/DBN.BMP,Door4,0.448136143,-0.036466775,1,0,0,0.8595,optionRight,80,5750,3,20,0,20,0,1,,,,,,,,,,,,,,,,,,,,,,,,,,,,,,,,,,,,,,,
,,,,,,,,2023-08-16_08h49.09.164,HF_wild_card,2022.2.4,Win32,59.9880024,5a6b6b34d5d4cb0001d64b8f,64d2fd46c836a06233681665,64dc7f5c229413211ce6c0d7,,,,,,,ctch,resources/DG.BMP,resources/DBN.BMP,Door4,0.263371151,-0.033225284,1,0,0,0.5086,optionRight,80,5830,3,21,0,21,0,1,,,,,,,,,,,,,,,,,,,,,,,,,,,,,,,,,,,,,,,
,,,,,,,,2023-08-16_08h49.09.164,HF_wild_card,2022.2.4,Win32,59.9880024,5a6b6b34d5d4cb0001d64b8f,64d2fd46c836a06233681665,64dc7f5c229413211ce6c0d7,,,,,,,decisionTrl,resources/DG.BMP,resources/DY.BMP,Door1,-0.39465154,-0.017017828,1,0,0,0.8575,optionLeft,30,5860,3,22,0,22,0,1,,,,,,,,,,,,,,,,,,,,,,,,,,,,,,,,,,,,,,,
,,,,,,,,2023-08-16_08h49.09.164,HF_wild_card,2022.2.4,Win32,59.9880024,5a6b6b34d5d4cb0001d64b8f,64d2fd46c836a06233681665,64dc7f5c229413211ce6c0d7,,,,,,,sngl,resources/Empty.png,resources/DY.BMP,Door2,0.451377634,-0.046191248,1,0,0,0.6284,optionRight,20,5880,3,23,0,23,0,1,,,,,,,,,,,,,,,,,,,,,,,,,,,,,,,,,,,,,,,
,,,,,,,,2023-08-16_08h49.09.164,HF_wild_card,2022.2.4,Win32,59.9880024,5a6b6b34d5d4cb0001d64b8f,64d2fd46c836a06233681665,64dc7f5c229413211ce6c0d7,,,,,,,sngl,resources/DB.BMP,resources/Empty.png,WildCard_NonEx,-0.347649919,-0.000810373,1,0,0,0.7081,optionLeft,45,5925,3,24,0,24,0,1,,,,,,,,,,,,,,,,,,,,,,,,,,,,,,,,,,,,,,,
,,,,,,,,2023-08-16_08h49.09.164,HF_wild_card,2022.2.4,Win32,59.9880024,5a6b6b34d5d4cb0001d64b8f,64d2fd46c836a06233681665,64dc7f5c229413211ce6c0d7,,,,,,,decisionTrl,resources/DBN.BMP,resources/DR.BMP,Door4,-0.258508914,-0.010534846,1,0,0,0.8739,optionLeft,60,5985,3,25,0,25,0,1,,,,,,,,,,,,,,,,,,,,,,,,,,,,,,,,,,,,,,,
,,,,,,,,2023-08-16_08h49.09.164,HF_wild_card,2022.2.4,Win32,59.9880024,5a6b6b34d5d4cb0001d64b8f,64d2fd46c836a06233681665,64dc7f5c229413211ce6c0d7,,,,,,,decisionTrl,resources/DG.BMP,resources/DB.BMP,WildCard_NonEx,0.331442464,0.025121556,1,0,0,1.5233,optionRight,55,6040,3,26,0,26,0,1,,,,,,,,,,,,,,,,,,,,,,,,,,,,,,,,,,,,,,,
,,,,,,,,2023-08-16_08h49.09.164,HF_wild_card,2022.2.4,Win32,59.9880024,5a6b6b34d5d4cb0001d64b8f,64d2fd46c836a06233681665,64dc7f5c229413211ce6c0d7,,,,,,,ctch,resources/DBN.BMP,resources/DG.BMP,Door4,-0.414100486,-0.020259319,1,0,0,0.7567,optionLeft,60,6100,3,27,0,27,0,1,,,,,,,,,,,,,,,,,,,,,,,,,,,,,,,,,,,,,,,
,,,,,,,,2023-08-16_08h49.09.164,HF_wild_card,2022.2.4,Win32,59.9880024,5a6b6b34d5d4cb0001d64b8f,64d2fd46c836a06233681665,64dc7f5c229413211ce6c0d7,,,,,,,sngl,resources/Empty.png,resources/DB.BMP,WildCard_NonEx,0.483792545,-0.057536467,1,0,0,0.4931,optionRight,55,6155,3,28,0,28,0,1,,,,,,,,,,,,,,,,,,,,,,,,,,,,,,,,,,,,,,,
,,,,,,,,2023-08-16_08h49.09.164,HF_wild_card,2022.2.4,Win32,59.9880024,5a6b6b34d5d4cb0001d64b8f,64d2fd46c836a06233681665,64dc7f5c229413211ce6c0d7,,,,,,,sngl,resources/DG.BMP,resources/Empty.png,Door1,-0.443273906,-0.060777958,1,0,0,0.7013,optionLeft,30,6185,3,29,0,29,0,1,,,,,,,,,,,,,,,,,,,,,,,,,,,,,,,,,,,,,,,
,,,,,,,,2023-08-16_08h49.09.164,HF_wild_card,2022.2.4,Win32,59.9880024,5a6b6b34d5d4cb0001d64b8f,64d2fd46c836a06233681665,64dc7f5c229413211ce6c0d7,,,,,,,sngl,resources/DY.BMP,resources/Empty.png,Door2,-0.488654781,-0.015397083,1,0,0,0.6816,optionLeft,40,6225,3,30,0,30,0,1,,,,,,,,,,,,,,,,,,,,,,,,,,,,,,,,,,,,,,,
,,,,,,,,2023-08-16_08h49.09.164,HF_wild_card,2022.2.4,Win32,59.9880024,5a6b6b34d5d4cb0001d64b8f,64d2fd46c836a06233681665,64dc7f5c229413211ce6c0d7,,,,,,,decisionTrl,resources/DG.BMP,resources/DY.BMP,Door2,0.310372771,-0.026742301,1,0,0,0.4936,optionRight,20,6245,3,31,0,31,0,1,,,,,,,,,,,,,,,,,,,,,,,,,,,,,,,,,,,,,,,
,,,,,,,,2023-08-16_08h49.09.164,HF_wild_card,2022.2.4,Win32,59.9880024,5a6b6b34d5d4cb0001d64b8f,64d2fd46c836a06233681665,64dc7f5c229413211ce6c0d7,,,,,,,sngl,resources/DB.BMP,resources/Empty.png,WildCard_NonEx,-0.253646677,0.0089141,1,0,0,0.5592,optionLeft,55,6300,3,32,0,32,0,1,,,,,,,,,,,,,,,,,,,,,,,,,,,,,,,,,,,,,,,
,,,,,,,,2023-08-16_08h49.09.164,HF_wild_card,2022.2.4,Win32,59.9880024,5a6b6b34d5d4cb0001d64b8f,64d2fd46c836a06233681665,64dc7f5c229413211ce6c0d7,,,,,,,decisionTrl,resources/DY.BMP,resources/DG.BMP,Door1,0.346029173,-0.02350081,1,0,0,0.9735,optionRight,30,6330,3,33,0,33,0,1,,,,,,,,,,,,,,,,,,,,,,,,,,,,,,,,,,,,,,,
,,,,,,,,2023-08-16_08h49.09.164,HF_wild_card,2022.2.4,Win32,59.9880024,5a6b6b34d5d4cb0001d64b8f,64d2fd46c836a06233681665,64dc7f5c229413211ce6c0d7,,,,,,,decisionTrl,resources/DBN.BMP,resources/DR.BMP,Door4,-0.352512156,0.017017828,1,0,0,0.8141,optionLeft,80,6410,3,34,0,34,0,1,,,,,,,,,,,,,,,,,,,,,,,,,,,,,,,,,,,,,,,
,,,,,,,,2023-08-16_08h49.09.164,HF_wild_card,2022.2.4,Win32,59.9880024,5a6b6b34d5d4cb0001d64b8f,64d2fd46c836a06233681665,64dc7f5c229413211ce6c0d7,,,,,,,decisionTrl,resources/DG.BMP,resources/DY.BMP,Door1,-0.397893031,0.010534846,1,0,0,1.2329,optionLeft,30,6440,3,35,0,35,0,1,,,,,,,,,,,,,,,,,,,,,,,,,,,,,,,,,,,,,,,
,,,,,,,,2023-08-16_08h49.09.164,HF_wild_card,2022.2.4,Win32,59.9880024,5a6b6b34d5d4cb0001d64b8f,64d2fd46c836a06233681665,64dc7f5c229413211ce6c0d7,,,,,,,ctch,resources/DBN.BMP,resources/DG.BMP,Door4,-0.323338736,0.015397083,1,0,0,0.772,optionLeft,60,6500,3,36,0,36,0,1,,,,,,,,,,,,,,,,,,,,,,,,,,,,,,,,,,,,,,,
,,,,,,,,2023-08-16_08h49.09.164,HF_wild_card,2022.2.4,Win32,59.9880024,5a6b6b34d5d4cb0001d64b8f,64d2fd46c836a06233681665,64dc7f5c229413211ce6c0d7,,,,,,,decisionTrl,resources/DBN.BMP,resources/DR.BMP,Door4,-0.396272285,-0.0089141,1,0,0,0.6743,optionLeft,60,6560,3,37,0,37,0,1,,,,,,,,,,,,,,,,,,,,,,,,,,,,,,,,,,,,,,,
,,,,,,,,2023-08-16_08h49.09.164,HF_wild_card,2022.2.4,Win32,59.9880024,5a6b6b34d5d4cb0001d64b8f,64d2fd46c836a06233681665,64dc7f5c229413211ce6c0d7,,,,,,,decisionTrl,resources/DBN.BMP,resources/DR.BMP,Door4,-0.410858995,-0.018638574,1,0,0,1.1369,optionLeft,60,6620,3,38,0,38,0,1,,,,,,,,,,,,,,,,,,,,,,,,,,,,,,,,,,,,,,,
,,,,,,,,2023-08-16_08h49.09.164,HF_wild_card,2022.2.4,Win32,59.9880024,5a6b6b34d5d4cb0001d64b8f,64d2fd46c836a06233681665,64dc7f5c229413211ce6c0d7,,,,,,,sngl,resources/Empty.png,resources/DB.BMP,WildCard_NonEx,0.279578606,-0.135332253,1,0,0,1.5263,optionRight,45,6665,3,39,0,39,0,1,,,,,,,,,,,,,,,,,,,,,,,,,,,,,,,,,,,,,,,
,,,,,,,,2023-08-16_08h49.09.164,HF_wild_card,2022.2.4,Win32,59.9880024,5a6b6b34d5d4cb0001d64b8f,64d2fd46c836a06233681665,64dc7f5c229413211ce6c0d7,,,,,,,sngl,resources/DBN.BMP,resources/Empty.png,Door4,-0.438411669,-0.138573744,1,0,0,0.6136,optionLeft,80,6745,3,40,0,40,0,1,,,,,,,,,,,,,,,,,,,,,,,,,,,,,,,,,,,,,,,
,,,,,,,,2023-08-16_08h49.09.164,HF_wild_card,2022.2.4,Win32,59.9880024,5a6b6b34d5d4cb0001d64b8f,64d2fd46c836a06233681665,64dc7f5c229413211ce6c0d7,,,,,,,sngl,resources/DR.BMP,resources/Empty.png,Door3,-0.535656402,0.033225284,1,0,0,0.5716,optionLeft,70,6815,3,41,0,41,0,1,,,,,,,,,,,,,,,,,,,,,,,,,,,,,,,,,,,,,,,
,,,,,,,,2023-08-16_08h49.09.164,HF_wild_card,2022.2.4,Win32,59.9880024,5a6b6b34d5d4cb0001d64b8f,64d2fd46c836a06233681665,64dc7f5c229413211ce6c0d7,,,,,,,decisionTrl,resources/DB.BMP,resources/DG.BMP,Door1,0.367098865,-0.06726094,1,0,0,1.1226,optionRight,30,6845,3,42,0,42,0,1,,,,,,,,,,,,,,,,,,,,,,,,,,,,,,,,,,,,,,,
,,,,,,,,2023-08-16_08h49.09.164,HF_wild_card,2022.2.4,Win32,59.9880024,5a6b6b34d5d4cb0001d64b8f,64d2fd46c836a06233681665,64dc7f5c229413211ce6c0d7,,,,,,,ctch,resources/DR.BMP,resources/DY.BMP,Door3,-0.347649919,-0.029983793,1,0,0,0.8444,optionLeft,70,6915,3,43,0,43,0,1,,,,,,,,,,,,,,,,,,,,,,,,,,,,,,,,,,,,,,,
,,,,,,,,2023-08-16_08h49.09.164,HF_wild_card,2022.2.4,Win32,59.9880024,5a6b6b34d5d4cb0001d64b8f,64d2fd46c836a06233681665,64dc7f5c229413211ce6c0d7,,,,,,,,,,,,,,,,,,,,,,,,,,2,0,2,0,1,,,,,,,,,,,,,,,,,,,,,,,,,,,,,,,,,,
,,,,,,,,2023-08-16_08h49.09.164,HF_wild_card,2022.2.4,Win32,59.9880024,5a6b6b34d5d4cb0001d64b8f,64d2fd46c836a06233681665,64dc7f5c229413211ce6c0d7,,,,,,,sngl,resources/DR.BMP,resources/Empty.png,Door3,-0.331442464,-0.093192869,1,0,0,0.8184,optionLeft,70,6985,4,0,0,0,0,1,,,,,,,,,,,,,,,,,,,,,,,,,,,,,,,,,,,,,,,
,,,,,,,,2023-08-16_08h49.09.164,HF_wild_card,2022.2.4,Win32,59.9880024,5a6b6b34d5d4cb0001d64b8f,64d2fd46c836a06233681665,64dc7f5c229413211ce6c0d7,,,,,,,decisionTrl,resources/DY.BMP,resources/DG.BMP,Door1,0.32171799,-0.145056726,1,0,0,0.5848,optionRight,30,7015,4,1,0,1,0,1,,,,,,,,,,,,,,,,,,,,,,,,,,,,,,,,,,,,,,,
,,,,,,,,2023-08-16_08h49.09.164,HF_wild_card,2022.2.4,Win32,59.9880024,5a6b6b34d5d4cb0001d64b8f,64d2fd46c836a06233681665,64dc7f5c229413211ce6c0d7,,,,,,,decisionTrl,resources/DG.BMP,resources/DY.BMP,Door1,-0.30713128,-0.072123177,1,0,0,0.592,optionLeft,30,7045,4,2,0,2,0,1,,,,,,,,,,,,,,,,,,,,,,,,,,,,,,,,,,,,,,,
,,,,,,,,2023-08-16_08h49.09.164,HF_wild_card,2022.2.4,Win32,59.9880024,5a6b6b34d5d4cb0001d64b8f,64d2fd46c836a06233681665,64dc7f5c229413211ce6c0d7,,,,,,,sngl,resources/Empty.png,resources/DR.BMP,Door3,0.35089141,-0.080226904,1,0,0,0.5116,optionRight,70,7115,4,3,0,3,0,1,,,,,,,,,,,,,,,,,,,,,,,,,,,,,,,,,,,,,,,
,,,,,,,,2023-08-16_08h49.09.164,HF_wild_card,2022.2.4,Win32,59.9880024,5a6b6b34d5d4cb0001d64b8f,64d2fd46c836a06233681665,64dc7f5c229413211ce6c0d7,,,,,,,decisionTrl,resources/DP.BMP,resources/DY.BMP,WildCard_Ex,-0.264991896,-0.086709887,1,0,0,0.7389,optionLeft,55,7170,4,4,0,4,0,1,,,,,,,,,,,,,,,,,,,,,,,,,,,,,,,,,,,,,,,
,,,,,,,,2023-08-16_08h49.09.164,HF_wild_card,2022.2.4,Win32,59.9880024,5a6b6b34d5d4cb0001d64b8f,64d2fd46c836a06233681665,64dc7f5c229413211ce6c0d7,,,,,,,decisionTrl,resources/DBN.BMP,resources/DR.BMP,Door4,-0.326580227,-0.091572123,1,0,0,0.9613,optionLeft,60,7230,4,5,0,5,0,1,,,,,,,,,,,,,,,,,,,,,,,,,,,,,,,,,,,,,,,
,,,,,,,,2023-08-16_08h49.09.164,HF_wild_card,2022.2.4,Win32,59.9880024,5a6b6b34d5d4cb0001d64b8f,64d2fd46c836a06233681665,64dc7f5c229413211ce6c0d7,,,,,,,sngl,resources/DY.BMP,resources/Empty.png,Door2,-0.12560778,-0.18719611,1,0,0,0.8499,optionLeft,20,7250,4,6,0,6,0,1,,,,,,,,,,,,,,,,,,,,,,,,,,,,,,,,,,,,,,,
,,,,,,,,2023-08-16_08h49.09.164,HF_wild_card,2022.2.4,Win32,59.9880024,5a6b6b34d5d4cb0001d64b8f,64d2fd46c836a06233681665,64dc7f5c229413211ce6c0d7,,,,,,,ctch,resources/DR.BMP,resources/DY.BMP,Door3,-0.320097245,-0.085089141,1,0,0,0.6303,optionLeft,70,7320,4,7,0,7,0,1,,,,,,,,,,,,,,,,,,,,,,,,,,,,,,,,,,,,,,,
,,,,,,,,2023-08-16_08h49.09.164,HF_wild_card,2022.2.4,Win32,59.9880024,5a6b6b34d5d4cb0001d64b8f,64d2fd46c836a06233681665,64dc7f5c229413211ce6c0d7,,,,,,,ctch,resources/DBN.BMP,resources/DG.BMP,Door4,-0.286061588,-0.054294976,1,0,0,0.7666,optionLeft,60,7380,4,8,0,8,0,1,,,,,,,,,,,,,,,,,,,,,,,,,,,,,,,,,,,,,,,
,,,,,,,,2023-08-16_08h49.09.164,HF_wild_card,2022.2.4,Win32,59.9880024,5a6b6b34d5d4cb0001d64b8f,64d2fd46c836a06233681665,64dc7f5c229413211ce6c0d7,,,,,,,sngl,resources/Empty.png,resources/DP.BMP,WildCard_Ex,0.35089141,-0.041329011,1,0,0,0.4914,optionRight,45,7425,4,9,0,9,0,1,,,,,,,,,,,,,,,,,,,,,,,,,,,,,,,,,,,,,,,
,,,,,,,,2023-08-16_08h49.09.164,HF_wild_card,2022.2.4,Win32,59.9880024,5a6b6b34d5d4cb0001d64b8f,64d2fd46c836a06233681665,64dc7f5c229413211ce6c0d7,,,,,,,decisionTrl,resources/DG.BMP,resources/DP.BMP,Door1,-0.214748784,-0.060777958,1,0,0,0.5851,optionLeft,30,7455,4,10,0,10,0,1,,,,,,,,,,,,,,,,,,,,,,,,,,,,,,,,,,,,,,,
,,,,,,,,2023-08-16_08h49.09.164,HF_wild_card,2022.2.4,Win32,59.9880024,5a6b6b34d5d4cb0001d64b8f,64d2fd46c836a06233681665,64dc7f5c229413211ce6c0d7,,,,,,,ctch,resources/DG.BMP,resources/DBN.BMP,Door4,0.268233387,-0.02350081,1,0,0,0.4777,optionRight,80,7535,4,11,0,11,0,1,,,,,,,,,,,,,,,,,,,,,,,,,,,,,,,,,,,,,,,
,,,,,,,,2023-08-16_08h49.09.164,HF_wild_card,2022.2.4,Win32,59.9880024,5a6b6b34d5d4cb0001d64b8f,64d2fd46c836a06233681665,64dc7f5c229413211ce6c0d7,,,,,,,decisionTrl,resources/DR.BMP,resources/DBN.BMP,Door4,0.177471637,-0.051053485,1,0,0,0.5891,optionRight,80,7615,4,12,0,12,0,1,,,,,,,,,,,,,,,,,,,,,,,,,,,,,,,,,,,,,,,
,,,,,,,,2023-08-16_08h49.09.164,HF_wild_card,2022.2.4,Win32,59.9880024,5a6b6b34d5d4cb0001d64b8f,64d2fd46c836a06233681665,64dc7f5c229413211ce6c0d7,,,,,,,sngl,resources/DP.BMP,resources/Empty.png,WildCard_Ex,-0.428687196,-0.08184765,1,0,0,0.8242,optionLeft,45,7660,4,13,0,13,0,1,,,,,,,,,,,,,,,,,,,,,,,,,,,,,,,,,,,,,,,
,,,,,,,,2023-08-16_08h49.09.164,HF_wild_card,2022.2.4,Win32,59.9880024,5a6b6b34d5d4cb0001d64b8f,64d2fd46c836a06233681665,64dc7f5c229413211ce6c0d7,,,,,,,sngl,resources/Empty.png,resources/DG.BMP,Door1,0.247163695,-0.013776337,1,0,0,0.7285,optionRight,30,7690,4,14,0,14,0,1,,,,,,,,,,,,,,,,,,,,,,,,,,,,,,,,,,,,,,,
,,,,,,,,2023-08-16_08h49.09.164,HF_wild_card,2022.2.4,Win32,59.9880024,5a6b6b34d5d4cb0001d64b8f,64d2fd46c836a06233681665,64dc7f5c229413211ce6c0d7,,,,,,,decisionTrl,resources/DBN.BMP,resources/DP.BMP,Door4,-0.404376013,-0.064019449,1,0,0,1.0463,optionLeft,80,7770,4,15,0,15,0,1,,,,,,,,,,,,,,,,,,,,,,,,,,,,,,,,,,,,,,,
,,,,,,,,2023-08-16_08h49.09.164,HF_wild_card,2022.2.4,Win32,59.9880024,5a6b6b34d5d4cb0001d64b8f,64d2fd46c836a06233681665,64dc7f5c229413211ce6c0d7,,,,,,,sngl,resources/DBN.BMP,resources/Empty.png,Door4,-0.51458671,0.012155592,1,0,0,0.5935,optionLeft,60,7830,4,16,0,16,0,1,,,,,,,,,,,,,,,,,,,,,,,,,,,,,,,,,,,,,,,
,,,,,,,,2023-08-16_08h49.09.164,HF_wild_card,2022.2.4,Win32,59.9880024,5a6b6b34d5d4cb0001d64b8f,64d2fd46c836a06233681665,64dc7f5c229413211ce6c0d7,,,,,,,decisionTrl,resources/DY.BMP,resources/DG.BMP,Door1,0.358995138,-0.020259319,1,0,0,1.2208,optionRight,30,7860,4,17,0,17,0,1,,,,,,,,,,,,,,,,,,,,,,,,,,,,,,,,,,,,,,,
,,,,,,,,2023-08-16_08h49.09.164,HF_wild_card,2022.2.4,Win32,59.9880024,5a6b6b34d5d4cb0001d64b8f,64d2fd46c836a06233681665,64dc7f5c229413211ce6c0d7,,,,,,,decisionTrl,resources/DY.BMP,resources/DG.BMP,Door2,-0.371961102,-0.031604538,1,0,0,0.628,optionLeft,20,7880,4,18,0,18,0,1,,,,,,,,,,,,,,,,,,,,,,,,,,,,,,,,,,,,,,,
,,,,,,,,2023-08-16_08h49.09.164,HF_wild_card,2022.2.4,Win32,59.9880024,5a6b6b34d5d4cb0001d64b8f,64d2fd46c836a06233681665,64dc7f5c229413211ce6c0d7,,,,,,,decisionTrl,resources/DY.BMP,resources/DG.BMP,Door1,0.404376013,-0.034846029,1,0,0,0.5289,optionRight,30,7910,4,19,0,19,0,1,,,,,,,,,,,,,,,,,,,,,,,,,,,,,,,,,,,,,,,
,,,,,,,,2023-08-16_08h49.09.164,HF_wild_card,2022.2.4,Win32,59.9880024,5a6b6b34d5d4cb0001d64b8f,64d2fd46c836a06233681665,64dc7f5c229413211ce6c0d7,,,,,,,decisionTrl,resources/DR.BMP,resources/DBN.BMP,Door4,0.222852512,-0.033225284,1,0,0,0.7216,optionRight,80,7990,4,20,0,20,0,1,,,,,,,,,,,,,,,,,,,,,,,,,,,,,,,,,,,,,,,
,,,,,,,,2023-08-16_08h49.09.164,HF_wild_card,2022.2.4,Win32,59.9880024,5a6b6b34d5d4cb0001d64b8f,64d2fd46c836a06233681665,64dc7f5c229413211ce6c0d7,,,,,,,sngl,resources/DP.BMP,resources/Empty.png,WildCard_Ex,-0.354132901,-0.076985413,1,0,0,1.1761,optionLeft,55,8045,4,21,0,21,0,1,,,,,,,,,,,,,,,,,,,,,,,,,,,,,,,,,,,,,,,
,,,,,,,,2023-08-16_08h49.09.164,HF_wild_card,2022.2.4,Win32,59.9880024,5a6b6b34d5d4cb0001d64b8f,64d2fd46c836a06233681665,64dc7f5c229413211ce6c0d7,,,,,,,decisionTrl,resources/DY.BMP,resources/DP.BMP,WildCard_Ex,0.302269044,-0.080226904,1,0,0,0.7593,optionRight,55,8100,4,22,0,22,0,1,,,,,,,,,,,,,,,,,,,,,,,,,,,,,,,,,,,,,,,
,,,,,,,,2023-08-16_08h49.09.164,HF_wild_card,2022.2.4,Win32,59.9880024,5a6b6b34d5d4cb0001d64b8f,64d2fd46c836a06233681665,64dc7f5c229413211ce6c0d7,,,,,,,ctch,resources/DY.BMP,resources/DR.BMP,Door2,-0.35089141,-0.044570502,1,0,0,0.6063,optionLeft,40,8140,4,23,0,23,0,1,,,,,,,,,,,,,,,,,,,,,,,,,,,,,,,,,,,,,,,
,,,,,,,,2023-08-16_08h49.09.164,HF_wild_card,2022.2.4,Win32,59.9880024,5a6b6b34d5d4cb0001d64b8f,64d2fd46c836a06233681665,64dc7f5c229413211ce6c0d7,,,,,,,sngl,resources/Empty.png,resources/DBN.BMP,Door4,0.299027553,-0.06726094,1,0,0,0.477,optionRight,80,8220,4,24,0,24,0,1,,,,,,,,,,,,,,,,,,,,,,,,,,,,,,,,,,,,,,,
,,,,,,,,2023-08-16_08h49.09.164,HF_wild_card,2022.2.4,Win32,59.9880024,5a6b6b34d5d4cb0001d64b8f,64d2fd46c836a06233681665,64dc7f5c229413211ce6c0d7,,,,,,,ctch,resources/DY.BMP,resources/DR.BMP,Door3,0.417341977,-0.06726094,1,0,0,1.1084,optionRight,70,8290,4,25,0,25,0,1,,,,,,,,,,,,,,,,,,,,,,,,,,,,,,,,,,,,,,,
,,,,,,,,2023-08-16_08h49.09.164,HF_wild_card,2022.2.4,Win32,59.9880024,5a6b6b34d5d4cb0001d64b8f,64d2fd46c836a06233681665,64dc7f5c229413211ce6c0d7,,,,,,,decisionTrl,resources/DG.BMP,resources/DY.BMP,Door1,-0.311993517,-0.06726094,1,0,0,0.8375,optionLeft,30,8320,4,26,0,26,0,1,,,,,,,,,,,,,,,,,,,,,,,,,,,,,,,,,,,,,,,
,,,,,,,,2023-08-16_08h49.09.164,HF_wild_card,2022.2.4,Win32,59.9880024,5a6b6b34d5d4cb0001d64b8f,64d2fd46c836a06233681665,64dc7f5c229413211ce6c0d7,,,,,,,decisionTrl,resources/DG.BMP,resources/DY.BMP,Door1,-0.255267423,-0.09643436,1,0,0,0.6279,optionLeft,30,8350,4,27,0,27,0,1,,,,,,,,,,,,,,,,,,,,,,,,,,,,,,,,,,,,,,,
,,,,,,,,2023-08-16_08h49.09.164,HF_wild_card,2022.2.4,Win32,59.9880024,5a6b6b34d5d4cb0001d64b8f,64d2fd46c836a06233681665,64dc7f5c229413211ce6c0d7,,,,,,,ctch,resources/DBN.BMP,resources/DG.BMP,Door4,-0.388168558,-0.036466775,1,0,0,0.7902,optionLeft,60,8410,4,28,0,28,0,1,,,,,,,,,,,,,,,,,,,,,,,,,,,,,,,,,,,,,,,
,,,,,,,,2023-08-16_08h49.09.164,HF_wild_card,2022.2.4,Win32,59.9880024,5a6b6b34d5d4cb0001d64b8f,64d2fd46c836a06233681665,64dc7f5c229413211ce6c0d7,,,,,,,sngl,resources/DG.BMP,resources/Empty.png,Door1,-0.104538088,-0.109400324,1,0,0,0.6473,optionLeft,30,8440,4,29,0,29,0,1,,,,,,,,,,,,,,,,,,,,,,,,,,,,,,,,,,,,,,,
,,,,,,,,2023-08-16_08h49.09.164,HF_wild_card,2022.2.4,Win32,59.9880024,5a6b6b34d5d4cb0001d64b8f,64d2fd46c836a06233681665,64dc7f5c229413211ce6c0d7,,,,,,,decisionTrl,resources/DP.BMP,resources/DR.BMP,WildCard_Ex,-0.368719611,-0.065640194,1,0,0,0.9119,optionLeft,45,8485,4,30,0,30,0,1,,,,,,,,,,,,,,,,,,,,,,,,,,,,,,,,,,,,,,,
,,,,,,,,2023-08-16_08h49.09.164,HF_wild_card,2022.2.4,Win32,59.9880024,5a6b6b34d5d4cb0001d64b8f,64d2fd46c836a06233681665,64dc7f5c229413211ce6c0d7,,,,,,,decisionTrl,resources/DG.BMP,resources/DY.BMP,Door1,-0.219611021,-0.029983793,1,0,0,0.9621,optionLeft,30,8515,4,31,0,31,0,1,,,,,,,,,,,,,,,,,,,,,,,,,,,,,,,,,,,,,,,
,,,,,,,,2023-08-16_08h49.09.164,HF_wild_card,2022.2.4,Win32,59.9880024,5a6b6b34d5d4cb0001d64b8f,64d2fd46c836a06233681665,64dc7f5c229413211ce6c0d7,,,,,,,decisionTrl,resources/DR.BMP,resources/DP.BMP,WildCard_Ex,0.389789303,-0.057536467,1,0,0,1.1105,optionRight,45,8560,4,32,0,32,0,1,,,,,,,,,,,,,,,,,,,,,,,,,,,,,,,,,,,,,,,
,,,,,,,,2023-08-16_08h49.09.164,HF_wild_card,2022.2.4,Win32,59.9880024,5a6b6b34d5d4cb0001d64b8f,64d2fd46c836a06233681665,64dc7f5c229413211ce6c0d7,,,,,,,ctch,resources/DR.BMP,resources/DY.BMP,Door3,-0.295786062,-0.057536467,1,0,0,0.7064,optionLeft,70,8630,4,33,0,33,0,1,,,,,,,,,,,,,,,,,,,,,,,,,,,,,,,,,,,,,,,
,,,,,,,,2023-08-16_08h49.09.164,HF_wild_card,2022.2.4,Win32,59.9880024,5a6b6b34d5d4cb0001d64b8f,64d2fd46c836a06233681665,64dc7f5c229413211ce6c0d7,,,,,,,decisionTrl,resources/DBN.BMP,resources/DR.BMP,Door4,-0.289303079,-0.042949757,1,0,0,0.6758,optionLeft,60,8690,4,34,0,34,0,1,,,,,,,,,,,,,,,,,,,,,,,,,,,,,,,,,,,,,,,
,,,,,,,,2023-08-16_08h49.09.164,HF_wild_card,2022.2.4,Win32,59.9880024,5a6b6b34d5d4cb0001d64b8f,64d2fd46c836a06233681665,64dc7f5c229413211ce6c0d7,,,,,,,sngl,resources/Empty.png,resources/DP.BMP,WildCard_Ex,0.242301459,-0.018638574,1,0,0,0.663,optionRight,55,8745,4,35,0,35,0,1,,,,,,,,,,,,,,,,,,,,,,,,,,,,,,,,,,,,,,,
,,,,,,,,2023-08-16_08h49.09.164,HF_wild_card,2022.2.4,Win32,59.9880024,5a6b6b34d5d4cb0001d64b8f,64d2fd46c836a06233681665,64dc7f5c229413211ce6c0d7,,,,,,,decisionTrl,resources/DP.BMP,resources/DG.BMP,WildCard_Ex,-0.287682334,-0.076985413,1,0,0,0.563,optionLeft,45,8790,4,36,0,36,0,1,,,,,,,,,,,,,,,,,,,,,,,,,,,,,,,,,,,,,,,
,,,,,,,,2023-08-16_08h49.09.164,HF_wild_card,2022.2.4,Win32,59.9880024,5a6b6b34d5d4cb0001d64b8f,64d2fd46c836a06233681665,64dc7f5c229413211ce6c0d7,,,,,,,decisionTrl,resources/DR.BMP,resources/DBN.BMP,Door4,0.302269044,0.047811994,1,0,0,0.8112,optionRight,60,8850,4,37,0,37,0,1,,,,,,,,,,,,,,,,,,,,,,,,,,,,,,,,,,,,,,,
,,,,,,,,2023-08-16_08h49.09.164,HF_wild_card,2022.2.4,Win32,59.9880024,5a6b6b34d5d4cb0001d64b8f,64d2fd46c836a06233681665,64dc7f5c229413211ce6c0d7,,,,,,,decisionTrl,resources/DP.BMP,resources/DBN.BMP,Door4,0.467585089,-0.051053485,1,0,0,0.8542,optionRight,60,8910,4,38,0,38,0,1,,,,,,,,,,,,,,,,,,,,,,,,,,,,,,,,,,,,,,,
,,,,,,,,2023-08-16_08h49.09.164,HF_wild_card,2022.2.4,Win32,59.9880024,5a6b6b34d5d4cb0001d64b8f,64d2fd46c836a06233681665,64dc7f5c229413211ce6c0d7,,,,,,,ctch,resources/DG.BMP,resources/DBN.BMP,Door4,0.279578606,-0.041329011,1,0,0,0.6046,optionRight,60,8970,4,39,0,39,0,1,,,,,,,,,,,,,,,,,,,,,,,,,,,,,,,,,,,,,,,
,,,,,,,,2023-08-16_08h49.09.164,HF_wild_card,2022.2.4,Win32,59.9880024,5a6b6b34d5d4cb0001d64b8f,64d2fd46c836a06233681665,64dc7f5c229413211ce6c0d7,,,,,,,decisionTrl,resources/DBN.BMP,resources/DR.BMP,Door4,-0.297406807,-0.039708266,1,0,0,0.6012,optionLeft,80,9050,4,40,0,40,0,1,,,,,,,,,,,,,,,,,,,,,,,,,,,,,,,,,,,,,,,
,,,,,,,,2023-08-16_08h49.09.164,HF_wild_card,2022.2.4,Win32,59.9880024,5a6b6b34d5d4cb0001d64b8f,64d2fd46c836a06233681665,64dc7f5c229413211ce6c0d7,,,,,,,decisionTrl,resources/DR.BMP,resources/DBN.BMP,Door4,0.315235008,-0.033225284,1,0,0,0.6432,optionRight,80,9130,4,41,0,41,0,1,,,,,,,,,,,,,,,,,,,,,,,,,,,,,,,,,,,,,,,
,,,,,,,,2023-08-16_08h49.09.164,HF_wild_card,2022.2.4,Win32,59.9880024,5a6b6b34d5d4cb0001d64b8f,64d2fd46c836a06233681665,64dc7f5c229413211ce6c0d7,,,,,,,decisionTrl,resources/DBN.BMP,resources/DR.BMP,Door4,-0.324959481,-0.007293355,1,0,0,0.6931,optionLeft,60,9190,4,42,0,42,0,1,,,,,,,,,,,,,,,,,,,,,,,,,,,,,,,,,,,,,,,
,,,,,,,,2023-08-16_08h49.09.164,HF_wild_card,2022.2.4,Win32,59.9880024,5a6b6b34d5d4cb0001d64b8f,64d2fd46c836a06233681665,64dc7f5c229413211ce6c0d7,,,,,,,sngl,resources/Empty.png,resources/DY.BMP,Door2,0.266612642,-0.042949757,1,0,0,0.5745,optionRight,40,9230,4,43,0,43,0,1,,,,,,,,,,,,,,,,,,,,,,,,,,,,,,,,,,,,,,,
,,,,,,,,2023-08-16_08h49.09.164,HF_wild_card,2022.2.4,Win32,59.9880024,5a6b6b34d5d4cb0001d64b8f,64d2fd46c836a06233681665,64dc7f5c229413211ce6c0d7,,,,,,,,,,,,,,,,,,,,,,,,,,3,0,3,0,1,,,,,,,,,,,,,,,,,,,,,,,,,,,,,,,,,,
,,,,,,,,2023-08-16_08h49.09.164,HF_wild_card,2022.2.4,Win32,59.9880024,5a6b6b34d5d4cb0001d64b8f,64d2fd46c836a06233681665,64dc7f5c229413211ce6c0d7,,,,,,,ctch,resources/DBN.BMP,resources/DG.BMP,Door1,0.229335494,-0.122366288,1,0,0,0.8784,optionRight,30,9260,5,0,0,0,0,1,,,,,,,,,,,,,,,,,,,,,,,,,,,,,,,,,,,,,,,
,,,,,,,,2023-08-16_08h49.09.164,HF_wild_card,2022.2.4,Win32,59.9880024,5a6b6b34d5d4cb0001d64b8f,64d2fd46c836a06233681665,64dc7f5c229413211ce6c0d7,,,,,,,decisionTrl,resources/DBN.BMP,resources/DR.BMP,Door4,-0.263371151,-0.013776337,1,0,0,0.7242,optionLeft,60,9320,5,1,0,1,0,1,,,,,,,,,,,,,,,,,,,,,,,,,,,,,,,,,,,,,,,
,,,,,,,,2023-08-16_08h49.09.164,HF_wild_card,2022.2.4,Win32,59.9880024,5a6b6b34d5d4cb0001d64b8f,64d2fd46c836a06233681665,64dc7f5c229413211ce6c0d7,,,,,,,decisionTrl,resources/DG.BMP,resources/DY.BMP,Door1,-0.36547812,-0.109400324,1,0,0,0.7573,optionLeft,30,9350,5,2,0,2,0,1,,,,,,,,,,,,,,,,,,,,,,,,,,,,,,,,,,,,,,,
,,,,,,,,2023-08-16_08h49.09.164,HF_wild_card,2022.2.4,Win32,59.9880024,5a6b6b34d5d4cb0001d64b8f,64d2fd46c836a06233681665,64dc7f5c229413211ce6c0d7,,,,,,,sngl,resources/Empty.png,resources/DG.BMP,Door1,0.281199352,-0.089951378,1,0,0,0.509,optionRight,30,9380,5,3,0,3,0,1,,,,,,,,,,,,,,,,,,,,,,,,,,,,,,,,,,,,,,,
,,,,,,,,2023-08-16_08h49.09.164,HF_wild_card,2022.2.4,Win32,59.9880024,5a6b6b34d5d4cb0001d64b8f,64d2fd46c836a06233681665,64dc7f5c229413211ce6c0d7,,,,,,,decisionTrl,resources/DY.BMP,resources/DG.BMP,Door1,0.195299838,-0.057536467,1,0,0,0.5963,optionRight,30,9410,5,4,0,4,0,1,,,,,,,,,,,,,,,,,,,,,,,,,,,,,,,,,,,,,,,
,,,,,,,,2023-08-16_08h49.09.164,HF_wild_card,2022.2.4,Win32,59.9880024,5a6b6b34d5d4cb0001d64b8f,64d2fd46c836a06233681665,64dc7f5c229413211ce6c0d7,,,,,,,decisionTrl,resources/DY.BMP,resources/DG.BMP,Door1,0.273095624,-0.026742301,1,0,0,0.6175,optionRight,30,9440,5,5,0,5,0,1,,,,,,,,,,,,,,,,,,,,,,,,,,,,,,,,,,,,,,,
,,,,,,,,2023-08-16_08h49.09.164,HF_wild_card,2022.2.4,Win32,59.9880024,5a6b6b34d5d4cb0001d64b8f,64d2fd46c836a06233681665,64dc7f5c229413211ce6c0d7,,,,,,,ctch,resources/DBN.BMP,resources/DG.BMP,Door4,-0.414100486,-0.002431118,1,0,0,0.6909,optionLeft,80,9520,5,6,0,6,0,1,,,,,,,,,,,,,,,,,,,,,,,,,,,,,,,,,,,,,,,
,,,,,,,,2023-08-16_08h49.09.164,HF_wild_card,2022.2.4,Win32,59.9880024,5a6b6b34d5d4cb0001d64b8f,64d2fd46c836a06233681665,64dc7f5c229413211ce6c0d7,,,,,,,ctch,resources/DY.BMP,resources/DR.BMP,Door3,0.376823339,-0.015397083,1,0,0,1.0445,optionRight,70,9590,5,7,0,7,0,1,,,,,,,,,,,,,,,,,,,,,,,,,,,,,,,,,,,,,,,
,,,,,,,,2023-08-16_08h49.09.164,HF_wild_card,2022.2.4,Win32,59.9880024,5a6b6b34d5d4cb0001d64b8f,64d2fd46c836a06233681665,64dc7f5c229413211ce6c0d7,,,,,,,decisionTrl,resources/DR.BMP,resources/DP.BMP,Door3,-0.341166937,-0.059157212,1,0,0,0.6452,optionLeft,70,9660,5,8,0,8,0,1,,,,,,,,,,,,,,,,,,,,,,,,,,,,,,,,,,,,,,,
,,,,,,,,2023-08-16_08h49.09.164,HF_wild_card,2022.2.4,Win32,59.9880024,5a6b6b34d5d4cb0001d64b8f,64d2fd46c836a06233681665,64dc7f5c229413211ce6c0d7,,,,,,,decisionTrl,resources/DR.BMP,resources/DBN.BMP,Door4,0.299027553,-0.039708266,1,0,0,0.8814,optionRight,60,9720,5,9,0,9,0,1,,,,,,,,,,,,,,,,,,,,,,,,,,,,,,,,,,,,,,,
,,,,,,,,2023-08-16_08h49.09.164,HF_wild_card,2022.2.4,Win32,59.9880024,5a6b6b34d5d4cb0001d64b8f,64d2fd46c836a06233681665,64dc7f5c229413211ce6c0d7,,,,,,,sngl,resources/DR.BMP,resources/Empty.png,Door3,-0.386547812,-0.02350081,1,0,0,0.6096,optionLeft,70,9790,5,10,0,10,0,1,,,,,,,,,,,,,,,,,,,,,,,,,,,,,,,,,,,,,,,
,,,,,,,,2023-08-16_08h49.09.164,HF_wild_card,2022.2.4,Win32,59.9880024,5a6b6b34d5d4cb0001d64b8f,64d2fd46c836a06233681665,64dc7f5c229413211ce6c0d7,,,,,,,decisionTrl,resources/DY.BMP,resources/DG.BMP,Door1,0.397893031,-0.02350081,1,0,0,0.8448,optionRight,30,9820,5,11,0,11,0,1,,,,,,,,,,,,,,,,,,,,,,,,,,,,,,,,,,,,,,,
,,,,,,,,2023-08-16_08h49.09.164,HF_wild_card,2022.2.4,Win32,59.9880024,5a6b6b34d5d4cb0001d64b8f,64d2fd46c836a06233681665,64dc7f5c229413211ce6c0d7,,,,,,,decisionTrl,resources/DP.BMP,resources/DY.BMP,WildCard_Ex,-0.277957861,-0.049432739,1,0,0,1.2432,optionLeft,55,9875,5,12,0,12,0,1,,,,,,,,,,,,,,,,,,,,,,,,,,,,,,,,,,,,,,,
,,,,,,,,2023-08-16_08h49.09.164,HF_wild_card,2022.2.4,Win32,59.9880024,5a6b6b34d5d4cb0001d64b8f,64d2fd46c836a06233681665,64dc7f5c229413211ce6c0d7,,,,,,,decisionTrl,resources/DBN.BMP,resources/DR.BMP,Door4,-0.352512156,0.015397083,1,0,0,0.8087,optionLeft,80,9955,5,13,0,13,0,1,,,,,,,,,,,,,,,,,,,,,,,,,,,,,,,,,,,,,,,
,,,,,,,,2023-08-16_08h49.09.164,HF_wild_card,2022.2.4,Win32,59.9880024,5a6b6b34d5d4cb0001d64b8f,64d2fd46c836a06233681665,64dc7f5c229413211ce6c0d7,,,,,,,decisionTrl,resources/DBN.BMP,resources/DP.BMP,Door4,-0.417341977,-0.033225284,1,0,0,0.6664,optionLeft,80,10035,5,14,0,14,0,1,,,,,,,,,,,,,,,,,,,,,,,,,,,,,,,,,,,,,,,
,,,,,,,,2023-08-16_08h49.09.164,HF_wild_card,2022.2.4,Win32,59.9880024,5a6b6b34d5d4cb0001d64b8f,64d2fd46c836a06233681665,64dc7f5c229413211ce6c0d7,,,,,,,decisionTrl,resources/DR.BMP,resources/DBN.BMP,Door4,0.375202593,0.064019449,1,0,0,1.0135,optionRight,60,10095,5,15,0,15,0,1,,,,,,,,,,,,,,,,,,,,,,,,,,,,,,,,,,,,,,,
,,,,,,,,2023-08-16_08h49.09.164,HF_wild_card,2022.2.4,Win32,59.9880024,5a6b6b34d5d4cb0001d64b8f,64d2fd46c836a06233681665,64dc7f5c229413211ce6c0d7,,,,,,,decisionTrl,resources/DY.BMP,resources/DG.BMP,Door1,0.295786062,-0.039708266,1,0,0,0.7903,optionRight,30,10125,5,16,0,16,0,1,,,,,,,,,,,,,,,,,,,,,,,,,,,,,,,,,,,,,,,
,,,,,,,,2023-08-16_08h49.09.164,HF_wild_card,2022.2.4,Win32,59.9880024,5a6b6b34d5d4cb0001d64b8f,64d2fd46c836a06233681665,64dc7f5c229413211ce6c0d7,,,,,,,decisionTrl,resources/DG.BMP,resources/DY.BMP,Door1,-0.420583468,-0.064019449,1,0,0,1.7245,optionLeft,30,10155,5,17,0,17,0,1,,,,,,,,,,,,,,,,,,,,,,,,,,,,,,,,,,,,,,,
,,,,,,,,2023-08-16_08h49.09.164,HF_wild_card,2022.2.4,Win32,59.9880024,5a6b6b34d5d4cb0001d64b8f,64d2fd46c836a06233681665,64dc7f5c229413211ce6c0d7,,,,,,,sngl,resources/DY.BMP,resources/Empty.png,Door2,-0.436790924,-0.025121556,1,0,0,0.5715,optionLeft,40,10195,5,18,0,18,0,1,,,,,,,,,,,,,,,,,,,,,,,,,,,,,,,,,,,,,,,
,,,,,,,,2023-08-16_08h49.09.164,HF_wild_card,2022.2.4,Win32,59.9880024,5a6b6b34d5d4cb0001d64b8f,64d2fd46c836a06233681665,64dc7f5c229413211ce6c0d7,,,,,,,decisionTrl,resources/DR.BMP,resources/DBN.BMP,Door4,0.474068071,0.012155592,1,0,0,0.6365,optionRight,80,10275,5,19,0,19,0,1,,,,,,,,,,,,,,,,,,,,,,,,,,,,,,,,,,,,,,,
,,,,,,,,2023-08-16_08h49.09.164,HF_wild_card,2022.2.4,Win32,59.9880024,5a6b6b34d5d4cb0001d64b8f,64d2fd46c836a06233681665,64dc7f5c229413211ce6c0d7,,,,,,,decisionTrl,resources/DP.BMP,resources/DBN.BMP,Door4,0.299027553,0.005672609,1,0,0,1.0574,optionRight,80,10355,5,20,0,20,0,1,,,,,,,,,,,,,,,,,,,,,,,,,,,,,,,,,,,,,,,
,,,,,,,,2023-08-16_08h49.09.164,HF_wild_card,2022.2.4,Win32,59.9880024,5a6b6b34d5d4cb0001d64b8f,64d2fd46c836a06233681665,64dc7f5c229413211ce6c0d7,,,,,,,decisionTrl,resources/DY.BMP,resources/DP.BMP,WildCard_Ex,0.295786062,-0.012155592,1,0,0,1.1893,optionRight,45,10400,5,21,0,21,0,1,,,,,,,,,,,,,,,,,,,,,,,,,,,,,,,,,,,,,,,
,,,,,,,,2023-08-16_08h49.09.164,HF_wild_card,2022.2.4,Win32,59.9880024,5a6b6b34d5d4cb0001d64b8f,64d2fd46c836a06233681665,64dc7f5c229413211ce6c0d7,,,,,,,ctch,resources/DG.BMP,resources/DBN.BMP,Door4,0.308752026,0.0089141,1,0,0,0.5671,optionRight,80,10480,5,22,0,22,0,1,,,,,,,,,,,,,,,,,,,,,,,,,,,,,,,,,,,,,,,
,,,,,,,,2023-08-16_08h49.09.164,HF_wild_card,2022.2.4,Win32,59.9880024,5a6b6b34d5d4cb0001d64b8f,64d2fd46c836a06233681665,64dc7f5c229413211ce6c0d7,,,,,,,sngl,resources/Empty.png,resources/DP.BMP,WildCard_Ex,0.405996759,-0.010534846,1,0,0,0.5076,optionRight,55,10535,5,23,0,23,0,1,,,,,,,,,,,,,,,,,,,,,,,,,,,,,,,,,,,,,,,
,,,,,,,,2023-08-16_08h49.09.164,HF_wild_card,2022.2.4,Win32,59.9880024,5a6b6b34d5d4cb0001d64b8f,64d2fd46c836a06233681665,64dc7f5c229413211ce6c0d7,,,,,,,decisionTrl,resources/DP.BMP,resources/DR.BMP,Door3,0.378444084,-0.010534846,1,0,0,0.5263,optionRight,70,10605,5,24,0,24,0,1,,,,,,,,,,,,,,,,,,,,,,,,,,,,,,,,,,,,,,,
,,,,,,,,2023-08-16_08h49.09.164,HF_wild_card,2022.2.4,Win32,59.9880024,5a6b6b34d5d4cb0001d64b8f,64d2fd46c836a06233681665,64dc7f5c229413211ce6c0d7,,,,,,,decisionTrl,resources/DP.BMP,resources/DG.BMP,WildCard_Ex,-0.318476499,-0.036466775,1,0,0,1.1722,optionLeft,45,10650,5,25,0,25,0,1,,,,,,,,,,,,,,,,,,,,,,,,,,,,,,,,,,,,,,,
,,,,,,,,2023-08-16_08h49.09.164,HF_wild_card,2022.2.4,Win32,59.9880024,5a6b6b34d5d4cb0001d64b8f,64d2fd46c836a06233681665,64dc7f5c229413211ce6c0d7,,,,,,,ctch,resources/DG.BMP,resources/DBN.BMP,Door4,0.376823339,-0.021880065,1,0,0,0.5773,optionRight,60,10710,5,26,0,26,0,1,,,,,,,,,,,,,,,,,,,,,,,,,,,,,,,,,,,,,,,
,,,,,,,,2023-08-16_08h49.09.164,HF_wild_card,2022.2.4,Win32,59.9880024,5a6b6b34d5d4cb0001d64b8f,64d2fd46c836a06233681665,64dc7f5c229413211ce6c0d7,,,,,,,sngl,resources/Empty.png,resources/DBN.BMP,Door4,0.391410049,-0.013776337,1,0,0,0.5525,optionRight,60,10770,5,27,0,27,0,1,,,,,,,,,,,,,,,,,,,,,,,,,,,,,,,,,,,,,,,
,,,,,,,,2023-08-16_08h49.09.164,HF_wild_card,2022.2.4,Win32,59.9880024,5a6b6b34d5d4cb0001d64b8f,64d2fd46c836a06233681665,64dc7f5c229413211ce6c0d7,,,,,,,sngl,resources/Empty.png,resources/DR.BMP,Door3,0.35089141,-0.012155592,1,0,0,0.5793,optionRight,70,10840,5,28,0,28,0,1,,,,,,,,,,,,,,,,,,,,,,,,,,,,,,,,,,,,,,,
,,,,,,,,2023-08-16_08h49.09.164,HF_wild_card,2022.2.4,Win32,59.9880024,5a6b6b34d5d4cb0001d64b8f,64d2fd46c836a06233681665,64dc7f5c229413211ce6c0d7,,,,,,,sngl,resources/DP.BMP,resources/Empty.png,WildCard_Ex,-0.420583468,-0.018638574,1,0,0,0.5977,optionLeft,45,10885,5,29,0,29,0,1,,,,,,,,,,,,,,,,,,,,,,,,,,,,,,,,,,,,,,,
,,,,,,,,2023-08-16_08h49.09.164,HF_wild_card,2022.2.4,Win32,59.9880024,5a6b6b34d5d4cb0001d64b8f,64d2fd46c836a06233681665,64dc7f5c229413211ce6c0d7,,,,,,,decisionTrl,resources/DG.BMP,resources/DP.BMP,WildCard_Ex,0.266612642,-0.004051864,1,0,0,1.4818,optionRight,55,10940,5,30,0,30,0,1,,,,,,,,,,,,,,,,,,,,,,,,,,,,,,,,,,,,,,,
,,,,,,,,2023-08-16_08h49.09.164,HF_wild_card,2022.2.4,Win32,59.9880024,5a6b6b34d5d4cb0001d64b8f,64d2fd46c836a06233681665,64dc7f5c229413211ce6c0d7,,,,,,,ctch,resources/DR.BMP,resources/DY.BMP,Door3,-0.477309562,-0.033225284,1,0,0,1.6891,optionLeft,70,11010,5,31,0,31,0,1,,,,,,,,,,,,,,,,,,,,,,,,,,,,,,,,,,,,,,,
,,,,,,,,2023-08-16_08h49.09.164,HF_wild_card,2022.2.4,Win32,59.9880024,5a6b6b34d5d4cb0001d64b8f,64d2fd46c836a06233681665,64dc7f5c229413211ce6c0d7,,,,,,,sngl,resources/Empty.png,resources/DY.BMP,Door2,0.302269044,-0.075364668,1,0,0,0.6292,optionRight,20,11030,5,32,0,32,0,1,,,,,,,,,,,,,,,,,,,,,,,,,,,,,,,,,,,,,,,
,,,,,,,,2023-08-16_08h49.09.164,HF_wild_card,2022.2.4,Win32,59.9880024,5a6b6b34d5d4cb0001d64b8f,64d2fd46c836a06233681665,64dc7f5c229413211ce6c0d7,,,,,,,decisionTrl,resources/DBN.BMP,resources/DR.BMP,Door4,-0.404376013,-0.002431118,1,0,0,0.6223,optionLeft,60,11090,5,33,0,33,0,1,,,,,,,,,,,,,,,,,,,,,,,,,,,,,,,,,,,,,,,
,,,,,,,,2023-08-16_08h49.09.164,HF_wild_card,2022.2.4,Win32,59.9880024,5a6b6b34d5d4cb0001d64b8f,64d2fd46c836a06233681665,64dc7f5c229413211ce6c0d7,,,,,,,decisionTrl,resources/DG.BMP,resources/DY.BMP,Door1,-0.35089141,-0.047811994,1,0,0,1.0676,optionLeft,30,11120,5,34,0,34,0,1,,,,,,,,,,,,,,,,,,,,,,,,,,,,,,,,,,,,,,,
,,,,,,,,2023-08-16_08h49.09.164,HF_wild_card,2022.2.4,Win32,59.9880024,5a6b6b34d5d4cb0001d64b8f,64d2fd46c836a06233681665,64dc7f5c229413211ce6c0d7,,,,,,,ctch,resources/DY.BMP,resources/DR.BMP,Door3,0.48541329,-0.010534846,1,0,0,1.3132,optionRight,70,11190,5,35,0,35,0,1,,,,,,,,,,,,,,,,,,,,,,,,,,,,,,,,,,,,,,,
,,,,,,,,2023-08-16_08h49.09.164,HF_wild_card,2022.2.4,Win32,59.9880024,5a6b6b34d5d4cb0001d64b8f,64d2fd46c836a06233681665,64dc7f5c229413211ce6c0d7,,,,,,,sngl,resources/DP.BMP,resources/Empty.png,WildCard_Ex,-0.589141005,-0.017017828,1,0,0,0.5134,optionLeft,55,11245,5,36,0,36,0,1,,,,,,,,,,,,,,,,,,,,,,,,,,,,,,,,,,,,,,,
,,,,,,,,2023-08-16_08h49.09.164,HF_wild_card,2022.2.4,Win32,59.9880024,5a6b6b34d5d4cb0001d64b8f,64d2fd46c836a06233681665,64dc7f5c229413211ce6c0d7,,,,,,,sngl,resources/DBN.BMP,resources/Empty.png,Door4,-0.243922204,-0.026742301,1,0,0,0.5255,optionLeft,80,11325,5,37,0,37,0,1,,,,,,,,,,,,,,,,,,,,,,,,,,,,,,,,,,,,,,,
,,,,,,,,2023-08-16_08h49.09.164,HF_wild_card,2022.2.4,Win32,59.9880024,5a6b6b34d5d4cb0001d64b8f,64d2fd46c836a06233681665,64dc7f5c229413211ce6c0d7,,,,,,,sngl,resources/DG.BMP,resources/Empty.png,Door1,-0.315235008,-0.026742301,1,0,0,0.5093,optionLeft,30,11355,5,38,0,38,0,1,,,,,,,,,,,,,,,,,,,,,,,,,,,,,,,,,,,,,,,
,,,,,,,,2023-08-16_08h49.09.164,HF_wild_card,2022.2.4,Win32,59.9880024,5a6b6b34d5d4cb0001d64b8f,64d2fd46c836a06233681665,64dc7f5c229413211ce6c0d7,,,,,,,ctch,resources/DR.BMP,resources/DY.BMP,Door3,-0.334683955,-0.059157212,1,0,0,1.4782,optionLeft,70,11425,5,39,0,39,0,1,,,,,,,,,,,,,,,,,,,,,,,,,,,,,,,,,,,,,,,
,,,,,,,,2023-08-16_08h49.09.164,HF_wild_card,2022.2.4,Win32,59.9880024,5a6b6b34d5d4cb0001d64b8f,64d2fd46c836a06233681665,64dc7f5c229413211ce6c0d7,,,,,,,sngl,resources/Empty.png,resources/DP.BMP,WildCard_Ex,0.24554295,-0.086709887,1,0,0,0.6394,optionRight,45,11470,5,40,0,40,0,1,,,,,,,,,,,,,,,,,,,,,,,,,,,,,,,,,,,,,,,
,,,,,,,,2023-08-16_08h49.09.164,HF_wild_card,2022.2.4,Win32,59.9880024,5a6b6b34d5d4cb0001d64b8f,64d2fd46c836a06233681665,64dc7f5c229413211ce6c0d7,,,,,,,decisionTrl,resources/DG.BMP,resources/DY.BMP,Door1,-0.305510535,-0.017017828,1,0,0,0.9845,optionLeft,30,11500,5,41,0,41,0,1,,,,,,,,,,,,,,,,,,,,,,,,,,,,,,,,,,,,,,,
,,,,,,,,2023-08-16_08h49.09.164,HF_wild_card,2022.2.4,Win32,59.9880024,5a6b6b34d5d4cb0001d64b8f,64d2fd46c836a06233681665,64dc7f5c229413211ce6c0d7,,,,,,,decisionTrl,resources/DBN.BMP,resources/DR.BMP,Door4,-0.32171799,-0.017017828,1,0,0,0.8047,optionLeft,80,11580,5,42,0,42,0,1,,,,,,,,,,,,,,,,,,,,,,,,,,,,,,,,,,,,,,,
,,,,,,,,2023-08-16_08h49.09.164,HF_wild_card,2022.2.4,Win32,59.9880024,5a6b6b34d5d4cb0001d64b8f,64d2fd46c836a06233681665,64dc7f5c229413211ce6c0d7,,,,,,,decisionTrl,resources/DR.BMP,resources/DBN.BMP,Door4,0.209886548,-0.078606159,1,0,0,0.6045,optionRight,80,11660,5,43,0,43,0,1,,,,,,,,,,,,,,,,,,,,,,,,,,,,,,,,,,,,,,,
,,,,,,,,2023-08-16_08h49.09.164,HF_wild_card,2022.2.4,Win32,59.9880024,5a6b6b34d5d4cb0001d64b8f,64d2fd46c836a06233681665,64dc7f5c229413211ce6c0d7,,,,,,,,,,,,,,,,,,,,,,,,,,4,0,4,0,1,,,,,,,,,,,,,,,,,,,,,,,,,,,,,,,,,,
,,,,,,,,2023-08-16_08h49.09.164,HF_wild_card,2022.2.4,Win32,59.9880024,5a6b6b34d5d4cb0001d64b8f,64d2fd46c836a06233681665,64dc7f5c229413211ce6c0d7,,,,,,,decisionTrl,resources/DR.BMP,resources/DP.BMP,Door3,-0.346029173,-0.017017828,1,0,0,1.3542,optionLeft,70,11730,6,0,0,0,0,1,,,,,,,,,,,,,,,,,,,,,,,,,,,,,,,,,,,,,,,
,,,,,,,,2023-08-16_08h49.09.164,HF_wild_card,2022.2.4,Win32,59.9880024,5a6b6b34d5d4cb0001d64b8f,64d2fd46c836a06233681665,64dc7f5c229413211ce6c0d7,,,,,,,decisionTrl,resources/DY.BMP,resources/DG.BMP,Door1,0.256888169,-0.033225284,1,0,0,0.9076,optionRight,30,11760,6,1,0,1,0,1,,,,,,,,,,,,,,,,,,,,,,,,,,,,,,,,,,,,,,,
,,,,,,,,2023-08-16_08h49.09.164,HF_wild_card,2022.2.4,Win32,59.9880024,5a6b6b34d5d4cb0001d64b8f,64d2fd46c836a06233681665,64dc7f5c229413211ce6c0d7,,,,,,,decisionTrl,resources/DG.BMP,resources/DY.BMP,Door1,-0.248784441,0.013776337,1,0,0,0.5054,optionLeft,30,11790,6,2,0,2,0,1,,,,,,,,,,,,,,,,,,,,,,,,,,,,,,,,,,,,,,,
,,,,,,,,2023-08-16_08h49.09.164,HF_wild_card,2022.2.4,Win32,59.9880024,5a6b6b34d5d4cb0001d64b8f,64d2fd46c836a06233681665,64dc7f5c229413211ce6c0d7,,,,,,,sngl,resources/DP.BMP,resources/Empty.png,WildCard_Ex,-0.237439222,-0.031604538,1,0,0,0.5229,optionLeft,55,11845,6,3,0,3,0,1,,,,,,,,,,,,,,,,,,,,,,,,,,,,,,,,,,,,,,,
,,,,,,,,2023-08-16_08h49.09.164,HF_wild_card,2022.2.4,Win32,59.9880024,5a6b6b34d5d4cb0001d64b8f,64d2fd46c836a06233681665,64dc7f5c229413211ce6c0d7,,,,,,,ctch,resources/DBN.BMP,resources/DG.BMP,Door4,-0.341166937,-0.007293355,1,0,0,0.8372,optionLeft,60,11905,6,4,0,4,0,1,,,,,,,,,,,,,,,,,,,,,,,,,,,,,,,,,,,,,,,
,,,,,,,,2023-08-16_08h49.09.164,HF_wild_card,2022.2.4,Win32,59.9880024,5a6b6b34d5d4cb0001d64b8f,64d2fd46c836a06233681665,64dc7f5c229413211ce6c0d7,,,,,,,sngl,resources/Empty.png,resources/DG.BMP,Door1,0.211507293,-0.083468395,1,0,0,0.5251,optionRight,30,11935,6,5,0,5,0,1,,,,,,,,,,,,,,,,,,,,,,,,,,,,,,,,,,,,,,,
,,,,,,,,2023-08-16_08h49.09.164,HF_wild_card,2022.2.4,Win32,59.9880024,5a6b6b34d5d4cb0001d64b8f,64d2fd46c836a06233681665,64dc7f5c229413211ce6c0d7,,,,,,,decisionTrl,resources/DBN.BMP,resources/DR.BMP,Door4,-0.443273906,-0.047811994,1,0,0,0.6407,optionLeft,60,11995,6,6,0,6,0,1,,,,,,,,,,,,,,,,,,,,,,,,,,,,,,,,,,,,,,,
,,,,,,,,2023-08-16_08h49.09.164,HF_wild_card,2022.2.4,Win32,59.9880024,5a6b6b34d5d4cb0001d64b8f,64d2fd46c836a06233681665,64dc7f5c229413211ce6c0d7,,,,,,,ctch,resources/DR.BMP,resources/DY.BMP,Door3,-0.315235008,-0.039708266,1,0,0,1.9555,optionLeft,70,12065,6,7,0,7,0,1,,,,,,,,,,,,,,,,,,,,,,,,,,,,,,,,,,,,,,,
,,,,,,,,2023-08-16_08h49.09.164,HF_wild_card,2022.2.4,Win32,59.9880024,5a6b6b34d5d4cb0001d64b8f,64d2fd46c836a06233681665,64dc7f5c229413211ce6c0d7,,,,,,,decisionTrl,resources/DP.BMP,resources/DBN.BMP,Door4,0.299027553,-0.086709887,1,0,0,1.4267,optionRight,80,12145,6,8,0,8,0,1,,,,,,,,,,,,,,,,,,,,,,,,,,,,,,,,,,,,,,,
,,,,,,,,2023-08-16_08h49.09.164,HF_wild_card,2022.2.4,Win32,59.9880024,5a6b6b34d5d4cb0001d64b8f,64d2fd46c836a06233681665,64dc7f5c229413211ce6c0d7,,,,,,,decisionTrl,resources/DY.BMP,resources/DG.BMP,Door1,0.247163695,-0.029983793,1,0,0,0.754,optionRight,30,12175,6,9,0,9,0,1,,,,,,,,,,,,,,,,,,,,,,,,,,,,,,,,,,,,,,,
,,,,,,,,2023-08-16_08h49.09.164,HF_wild_card,2022.2.4,Win32,59.9880024,5a6b6b34d5d4cb0001d64b8f,64d2fd46c836a06233681665,64dc7f5c229413211ce6c0d7,,,,,,,ctch,resources/DY.BMP,resources/DR.BMP,Door3,0.302269044,-0.012155592,1,0,0,0.8281,optionRight,70,12245,6,10,0,10,0,1,,,,,,,,,,,,,,,,,,,,,,,,,,,,,,,,,,,,,,,
,,,,,,,,2023-08-16_08h49.09.164,HF_wild_card,2022.2.4,Win32,59.9880024,5a6b6b34d5d4cb0001d64b8f,64d2fd46c836a06233681665,64dc7f5c229413211ce6c0d7,,,,,,,sngl,resources/DY.BMP,resources/Empty.png,Door2,-0.310372771,-0.028363047,1,0,0,0.5058,optionLeft,20,12265,6,11,0,11,0,1,,,,,,,,,,,,,,,,,,,,,,,,,,,,,,,,,,,,,,,
,,,,,,,,2023-08-16_08h49.09.164,HF_wild_card,2022.2.4,Win32,59.9880024,5a6b6b34d5d4cb0001d64b8f,64d2fd46c836a06233681665,64dc7f5c229413211ce6c0d7,,,,,,,decisionTrl,resources/DR.BMP,resources/DBN.BMP,Door4,0.299027553,-0.0089141,1,0,0,0.7582,optionRight,80,12345,6,12,0,12,0,1,,,,,,,,,,,,,,,,,,,,,,,,,,,,,,,,,,,,,,,
,,,,,,,,2023-08-16_08h49.09.164,HF_wild_card,2022.2.4,Win32,59.9880024,5a6b6b34d5d4cb0001d64b8f,64d2fd46c836a06233681665,64dc7f5c229413211ce6c0d7,,,,,,,decisionTrl,resources/DG.BMP,resources/DY.BMP,Door2,0.431928687,0.010534846,1,0,0,0.4753,optionRight,40,12385,6,13,0,13,0,1,,,,,,,,,,,,,,,,,,,,,,,,,,,,,,,,,,,,,,,
,,,,,,,,2023-08-16_08h49.09.164,HF_wild_card,2022.2.4,Win32,59.9880024,5a6b6b34d5d4cb0001d64b8f,64d2fd46c836a06233681665,64dc7f5c229413211ce6c0d7,,,,,,,sngl,resources/Empty.png,resources/DY.BMP,Door2,0.422204214,-0.127228525,1,0,0,0.5077,optionRight,40,12425,6,14,0,14,0,1,,,,,,,,,,,,,,,,,,,,,,,,,,,,,,,,,,,,,,,
,,,,,,,,2023-08-16_08h49.09.164,HF_wild_card,2022.2.4,Win32,59.9880024,5a6b6b34d5d4cb0001d64b8f,64d2fd46c836a06233681665,64dc7f5c229413211ce6c0d7,,,,,,,decisionTrl,resources/DY.BMP,resources/DG.BMP,Door2,-0.35089141,0.0089141,1,0,0,0.823,optionLeft,40,12465,6,15,0,15,0,1,,,,,,,,,,,,,,,,,,,,,,,,,,,,,,,,,,,,,,,
,,,,,,,,2023-08-16_08h49.09.164,HF_wild_card,2022.2.4,Win32,59.9880024,5a6b6b34d5d4cb0001d64b8f,64d2fd46c836a06233681665,64dc7f5c229413211ce6c0d7,,,,,,,decisionTrl,resources/DP.BMP,resources/DR.BMP,Door3,0.339546191,-0.013776337,1,0,0,1.0091,optionRight,70,12535,6,16,0,16,0,1,,,,,,,,,,,,,,,,,,,,,,,,,,,,,,,,,,,,,,,
,,,,,,,,2023-08-16_08h49.09.164,HF_wild_card,2022.2.4,Win32,59.9880024,5a6b6b34d5d4cb0001d64b8f,64d2fd46c836a06233681665,64dc7f5c229413211ce6c0d7,,,,,,,decisionTrl,resources/DBN.BMP,resources/DP.BMP,Door4,-0.35089141,-0.02350081,1,0,0,0.7556,optionLeft,80,12615,6,17,0,17,0,1,,,,,,,,,,,,,,,,,,,,,,,,,,,,,,,,,,,,,,,
,,,,,,,,2023-08-16_08h49.09.164,HF_wild_card,2022.2.4,Win32,59.9880024,5a6b6b34d5d4cb0001d64b8f,64d2fd46c836a06233681665,64dc7f5c229413211ce6c0d7,,,,,,,ctch,resources/DG.BMP,resources/DBN.BMP,Door4,0.261750405,-0.033225284,1,0,0,0.4787,optionRight,60,12675,6,18,0,18,0,1,,,,,,,,,,,,,,,,,,,,,,,,,,,,,,,,,,,,,,,
,,,,,,,,2023-08-16_08h49.09.164,HF_wild_card,2022.2.4,Win32,59.9880024,5a6b6b34d5d4cb0001d64b8f,64d2fd46c836a06233681665,64dc7f5c229413211ce6c0d7,,,,,,,decisionTrl,resources/DP.BMP,resources/DG.BMP,Door1,0.239059968,-0.0089141,1,0,0,1.2292,optionRight,30,12705,6,19,0,19,0,1,,,,,,,,,,,,,,,,,,,,,,,,,,,,,,,,,,,,,,,
,,,,,,,,2023-08-16_08h49.09.164,HF_wild_card,2022.2.4,Win32,59.9880024,5a6b6b34d5d4cb0001d64b8f,64d2fd46c836a06233681665,64dc7f5c229413211ce6c0d7,,,,,,,sngl,resources/Empty.png,resources/DP.BMP,WildCard_Ex,0.300648298,-0.054294976,1,0,0,0.493,optionRight,45,12750,6,20,0,20,0,1,,,,,,,,,,,,,,,,,,,,,,,,,,,,,,,,,,,,,,,
,,,,,,,,2023-08-16_08h49.09.164,HF_wild_card,2022.2.4,Win32,59.9880024,5a6b6b34d5d4cb0001d64b8f,64d2fd46c836a06233681665,64dc7f5c229413211ce6c0d7,,,,,,,decisionTrl,resources/DP.BMP,resources/DY.BMP,WildCard_Ex,-0.219611021,-0.007293355,1,0,0,0.7731,optionLeft,45,12795,6,21,0,21,0,1,,,,,,,,,,,,,,,,,,,,,,,,,,,,,,,,,,,,,,,
,,,,,,,,2023-08-16_08h49.09.164,HF_wild_card,2022.2.4,Win32,59.9880024,5a6b6b34d5d4cb0001d64b8f,64d2fd46c836a06233681665,64dc7f5c229413211ce6c0d7,,,,,,,sngl,resources/Empty.png,resources/DR.BMP,Door3,0.286061588,-0.117504052,1,0,0,0.6276,optionRight,70,12865,6,22,0,22,0,1,,,,,,,,,,,,,,,,,,,,,,,,,,,,,,,,,,,,,,,
,,,,,,,,2023-08-16_08h49.09.164,HF_wild_card,2022.2.4,Win32,59.9880024,5a6b6b34d5d4cb0001d64b8f,64d2fd46c836a06233681665,64dc7f5c229413211ce6c0d7,,,,,,,ctch,resources/DG.BMP,resources/DBN.BMP,Door4,0.258508914,-0.018638574,1,0,0,0.7744,optionRight,80,12945,6,23,0,23,0,1,,,,,,,,,,,,,,,,,,,,,,,,,,,,,,,,,,,,,,,
,,,,,,,,2023-08-16_08h49.09.164,HF_wild_card,2022.2.4,Win32,59.9880024,5a6b6b34d5d4cb0001d64b8f,64d2fd46c836a06233681665,64dc7f5c229413211ce6c0d7,,,,,,,sngl,resources/Empty.png,resources/DBN.BMP,Door4,0.258508914,-0.002431118,1,0,0,0.5743,optionRight,80,13025,6,24,0,24,0,1,,,,,,,,,,,,,,,,,,,,,,,,,,,,,,,,,,,,,,,
,,,,,,,,2023-08-16_08h49.09.164,HF_wild_card,2022.2.4,Win32,59.9880024,5a6b6b34d5d4cb0001d64b8f,64d2fd46c836a06233681665,64dc7f5c229413211ce6c0d7,,,,,,,sngl,resources/DP.BMP,resources/Empty.png,WildCard_Ex,-0.205024311,-0.057536467,1,0,0,0.5299,optionLeft,45,13070,6,25,0,25,0,1,,,,,,,,,,,,,,,,,,,,,,,,,,,,,,,,,,,,,,,
,,,,,,,,2023-08-16_08h49.09.164,HF_wild_card,2022.2.4,Win32,59.9880024,5a6b6b34d5d4cb0001d64b8f,64d2fd46c836a06233681665,64dc7f5c229413211ce6c0d7,,,,,,,sngl,resources/DG.BMP,resources/Empty.png,Door1,-0.243922204,-0.021880065,1,0,0,0.6913,optionLeft,30,13100,6,26,0,26,0,1,,,,,,,,,,,,,,,,,,,,,,,,,,,,,,,,,,,,,,,
,,,,,,,,2023-08-16_08h49.09.164,HF_wild_card,2022.2.4,Win32,59.9880024,5a6b6b34d5d4cb0001d64b8f,64d2fd46c836a06233681665,64dc7f5c229413211ce6c0d7,,,,,,,decisionTrl,resources/DR.BMP,resources/DBN.BMP,Door4,0.222852512,0.002431118,1,0,0,0.5458,optionRight,60,13160,6,27,0,27,0,1,,,,,,,,,,,,,,,,,,,,,,,,,,,,,,,,,,,,,,,
,,,,,,,,2023-08-16_08h49.09.164,HF_wild_card,2022.2.4,Win32,59.9880024,5a6b6b34d5d4cb0001d64b8f,64d2fd46c836a06233681665,64dc7f5c229413211ce6c0d7,,,,,,,decisionTrl,resources/DG.BMP,resources/DY.BMP,Door2,0.32171799,-0.033225284,1,0,0,0.7041,optionRight,20,13180,6,28,0,28,0,1,,,,,,,,,,,,,,,,,,,,,,,,,,,,,,,,,,,,,,,
,,,,,,,,2023-08-16_08h49.09.164,HF_wild_card,2022.2.4,Win32,59.9880024,5a6b6b34d5d4cb0001d64b8f,64d2fd46c836a06233681665,64dc7f5c229413211ce6c0d7,,,,,,,decisionTrl,resources/DR.BMP,resources/DBN.BMP,Door3,-0.367098865,0.010534846,1,0,0,0.428,optionLeft,70,13250,6,29,0,29,0,1,,,,,,,,,,,,,,,,,,,,,,,,,,,,,,,,,,,,,,,
,,,,,,,,2023-08-16_08h49.09.164,HF_wild_card,2022.2.4,Win32,59.9880024,5a6b6b34d5d4cb0001d64b8f,64d2fd46c836a06233681665,64dc7f5c229413211ce6c0d7,,,,,,,ctch,resources/DY.BMP,resources/DR.BMP,Door3,0.192058347,-0.013776337,1,0,0,0.9195,optionRight,70,13320,6,30,0,30,0,1,,,,,,,,,,,,,,,,,,,,,,,,,,,,,,,,,,,,,,,
,,,,,,,,2023-08-16_08h49.09.164,HF_wild_card,2022.2.4,Win32,59.9880024,5a6b6b34d5d4cb0001d64b8f,64d2fd46c836a06233681665,64dc7f5c229413211ce6c0d7,,,,,,,decisionTrl,resources/DBN.BMP,resources/DR.BMP,Door3,0.407617504,-0.047811994,1,0,0,0.9272,optionRight,70,13390,6,31,0,31,0,1,,,,,,,,,,,,,,,,,,,,,,,,,,,,,,,,,,,,,,,
,,,,,,,,2023-08-16_08h49.09.164,HF_wild_card,2022.2.4,Win32,59.9880024,5a6b6b34d5d4cb0001d64b8f,64d2fd46c836a06233681665,64dc7f5c229413211ce6c0d7,,,,,,,sngl,resources/DBN.BMP,resources/Empty.png,Door4,-0.273095624,-0.017017828,1,0,0,0.4573,optionLeft,60,13450,6,32,0,32,0,1,,,,,,,,,,,,,,,,,,,,,,,,,,,,,,,,,,,,,,,
,,,,,,,,2023-08-16_08h49.09.164,HF_wild_card,2022.2.4,Win32,59.9880024,5a6b6b34d5d4cb0001d64b8f,64d2fd46c836a06233681665,64dc7f5c229413211ce6c0d7,,,,,,,ctch,resources/DBN.BMP,resources/DG.BMP,Door4,-0.452998379,0.028363047,1,0,0,0.6445,optionLeft,60,13510,6,33,0,33,0,1,,,,,,,,,,,,,,,,,,,,,,,,,,,,,,,,,,,,,,,
,,,,,,,,2023-08-16_08h49.09.164,HF_wild_card,2022.2.4,Win32,59.9880024,5a6b6b34d5d4cb0001d64b8f,64d2fd46c836a06233681665,64dc7f5c229413211ce6c0d7,,,,,,,decisionTrl,resources/DG.BMP,resources/DY.BMP,Door2,0.224473258,-0.046191248,1,0,0,0.3916,optionRight,40,13550,6,34,0,34,0,1,,,,,,,,,,,,,,,,,,,,,,,,,,,,,,,,,,,,,,,
,,,,,,,,2023-08-16_08h49.09.164,HF_wild_card,2022.2.4,Win32,59.9880024,5a6b6b34d5d4cb0001d64b8f,64d2fd46c836a06233681665,64dc7f5c229413211ce6c0d7,,,,,,,decisionTrl,resources/DY.BMP,resources/DP.BMP,Door2,-0.44165316,-0.002431118,1,0,0,0.4727,optionLeft,40,13590,6,35,0,35,0,1,,,,,,,,,,,,,,,,,,,,,,,,,,,,,,,,,,,,,,,
,,,,,,,,2023-08-16_08h49.09.164,HF_wild_card,2022.2.4,Win32,59.9880024,5a6b6b34d5d4cb0001d64b8f,64d2fd46c836a06233681665,64dc7f5c229413211ce6c0d7,,,,,,,decisionTrl,resources/DG.BMP,resources/DP.BMP,WildCard_Ex,0.383306321,-0.054294976,1,0,0,0.4583,optionRight,45,13635,6,36,0,36,0,1,,,,,,,,,,,,,,,,,,,,,,,,,,,,,,,,,,,,,,,
,,,,,,,,2023-08-16_08h49.09.164,HF_wild_card,2022.2.4,Win32,59.9880024,5a6b6b34d5d4cb0001d64b8f,64d2fd46c836a06233681665,64dc7f5c229413211ce6c0d7,,,,,,,decisionTrl,resources/DR.BMP,resources/DBN.BMP,Door4,0.341166937,-0.002431118,1,0,0,0.8427,optionRight,60,13695,6,37,0,37,0,1,,,,,,,,,,,,,,,,,,,,,,,,,,,,,,,,,,,,,,,
,,,,,,,,2023-08-16_08h49.09.164,HF_wild_card,2022.2.4,Win32,59.9880024,5a6b6b34d5d4cb0001d64b8f,64d2fd46c836a06233681665,64dc7f5c229413211ce6c0d7,,,,,,,decisionTrl,resources/DY.BMP,resources/DG.BMP,Door1,0.256888169,-0.018638574,1,0,0,0.7658,optionRight,30,13725,6,38,0,38,0,1,,,,,,,,,,,,,,,,,,,,,,,,,,,,,,,,,,,,,,,
,,,,,,,,2023-08-16_08h49.09.164,HF_wild_card,2022.2.4,Win32,59.9880024,5a6b6b34d5d4cb0001d64b8f,64d2fd46c836a06233681665,64dc7f5c229413211ce6c0d7,,,,,,,decisionTrl,resources/DBN.BMP,resources/DR.BMP,Door4,-0.284440843,-0.018638574,1,0,0,0.7934,optionLeft,60,13785,6,39,0,39,0,1,,,,,,,,,,,,,,,,,,,,,,,,,,,,,,,,,,,,,,,
,,,,,,,,2023-08-16_08h49.09.164,HF_wild_card,2022.2.4,Win32,59.9880024,5a6b6b34d5d4cb0001d64b8f,64d2fd46c836a06233681665,64dc7f5c229413211ce6c0d7,,,,,,,ctch,resources/DR.BMP,resources/DY.BMP,Door3,-0.21636953,0.034846029,1,0,0,0.55,optionLeft,70,13855,6,40,0,40,0,1,,,,,,,,,,,,,,,,,,,,,,,,,,,,,,,,,,,,,,,
,,,,,,,,2023-08-16_08h49.09.164,HF_wild_card,2022.2.4,Win32,59.9880024,5a6b6b34d5d4cb0001d64b8f,64d2fd46c836a06233681665,64dc7f5c229413211ce6c0d7,,,,,,,decisionTrl,resources/DBN.BMP,resources/DR.BMP,Door3,0.39465154,-0.068881686,1,0,0,0.5117,optionRight,70,13925,6,41,0,41,0,1,,,,,,,,,,,,,,,,,,,,,,,,,,,,,,,,,,,,,,,
,,,,,,,,2023-08-16_08h49.09.164,HF_wild_card,2022.2.4,Win32,59.9880024,5a6b6b34d5d4cb0001d64b8f,64d2fd46c836a06233681665,64dc7f5c229413211ce6c0d7,,,,,,,sngl,resources/Empty.png,resources/DP.BMP,WildCard_Ex,0.269854133,-0.020259319,1,0,0,0.6057,optionRight,55,13980,6,42,0,42,0,1,,,,,,,,,,,,,,,,,,,,,,,,,,,,,,,,,,,,,,,
,,,,,,,,2023-08-16_08h49.09.164,HF_wild_card,2022.2.4,Win32,59.9880024,5a6b6b34d5d4cb0001d64b8f,64d2fd46c836a06233681665,64dc7f5c229413211ce6c0d7,,,,,,,sngl,resources/DR.BMP,resources/Empty.png,Door3,-0.363857374,-0.010534846,1,0,0,0.5381,optionLeft,70,14050,6,43,0,43,0,1,,,,,,,,,,,,,,,,,,,,,,,,,,,,,,,,,,,,,,,
,,,,,,,,2023-08-16_08h49.09.164,HF_wild_card,2022.2.4,Win32,59.9880024,5a6b6b34d5d4cb0001d64b8f,64d2fd46c836a06233681665,64dc7f5c229413211ce6c0d7,,,,,,,,,,,,,,,,,,,,,,,,,,5,0,5,0,1,,,,,,,,,,,,,,,,,,,,,,,,,,,,,,,,,,
,,,,,,,,2023-08-16_08h49.09.164,HF_wild_card,2022.2.4,Win32,59.9880024,5a6b6b34d5d4cb0001d64b8f,64d2fd46c836a06233681665,64dc7f5c229413211ce6c0d7,,,,,,,decisionTrl,resources/DR.BMP,resources/DBN.BMP,Door3,-0.305510535,-0.057536467,1,0,0,1.1119,optionLeft,70,14120,7,0,0,0,0,1,,,,,,,,,,,,,,,,,,,,,,,,,,,,,,,,,,,,,,,
,,,,,,,,2023-08-16_08h49.09.164,HF_wild_card,2022.2.4,Win32,59.9880024,5a6b6b34d5d4cb0001d64b8f,64d2fd46c836a06233681665,64dc7f5c229413211ce6c0d7,,,,,,,decisionTrl,resources/DY.BMP,resources/DG.BMP,Door2,-0.568071313,0.062398703,1,0,0,1.2771,optionLeft,40,14160,7,1,0,1,0,1,,,,,,,,,,,,,,,,,,,,,,,,,,,,,,,,,,,,,,,
,,,,,,,,2023-08-16_08h49.09.164,HF_wild_card,2022.2.4,Win32,59.9880024,5a6b6b34d5d4cb0001d64b8f,64d2fd46c836a06233681665,64dc7f5c229413211ce6c0d7,,,,,,,decisionTrl,resources/DR.BMP,resources/DBN.BMP,Door4,0.268233387,-0.049432739,1,0,0,0.5626,optionRight,80,14240,7,2,0,2,0,1,,,,,,,,,,,,,,,,,,,,,,,,,,,,,,,,,,,,,,,
,,,,,,,,2023-08-16_08h49.09.164,HF_wild_card,2022.2.4,Win32,59.9880024,5a6b6b34d5d4cb0001d64b8f,64d2fd46c836a06233681665,64dc7f5c229413211ce6c0d7,,,,,,,decisionTrl,resources/DR.BMP,resources/DBN.BMP,Door3,-0.39465154,0.0089141,1,0,0,0.5178,optionLeft,70,14310,7,3,0,3,0,1,,,,,,,,,,,,,,,,,,,,,,,,,,,,,,,,,,,,,,,
,,,,,,,,2023-08-16_08h49.09.164,HF_wild_card,2022.2.4,Win32,59.9880024,5a6b6b34d5d4cb0001d64b8f,64d2fd46c836a06233681665,64dc7f5c229413211ce6c0d7,,,,,,,decisionTrl,resources/DR.BMP,resources/DBN.BMP,Door3,-0.247163695,-0.031604538,1,0,0,0.5181,optionLeft,70,14380,7,4,0,4,0,1,,,,,,,,,,,,,,,,,,,,,,,,,,,,,,,,,,,,,,,
,,,,,,,,2023-08-16_08h49.09.164,HF_wild_card,2022.2.4,Win32,59.9880024,5a6b6b34d5d4cb0001d64b8f,64d2fd46c836a06233681665,64dc7f5c229413211ce6c0d7,,,,,,,ctch,resources/DG.BMP,resources/DBN.BMP,Door4,0.310372771,-0.064019449,1,0,0,0.5408,optionRight,60,14440,7,5,0,5,0,1,,,,,,,,,,,,,,,,,,,,,,,,,,,,,,,,,,,,,,,
,,,,,,,,2023-08-16_08h49.09.164,HF_wild_card,2022.2.4,Win32,59.9880024,5a6b6b34d5d4cb0001d64b8f,64d2fd46c836a06233681665,64dc7f5c229413211ce6c0d7,,,,,,,decisionTrl,resources/DG.BMP,resources/DY.BMP,Door2,0.190437601,-0.047811994,1,0,0,0.5498,optionRight,40,14480,7,6,0,6,0,1,,,,,,,,,,,,,,,,,,,,,,,,,,,,,,,,,,,,,,,
,,,,,,,,2023-08-16_08h49.09.164,HF_wild_card,2022.2.4,Win32,59.9880024,5a6b6b34d5d4cb0001d64b8f,64d2fd46c836a06233681665,64dc7f5c229413211ce6c0d7,,,,,,,ctch,resources/DY.BMP,resources/DR.BMP,Door3,0.313614263,-0.057536467,1,0,0,0.6526,optionRight,70,14550,7,7,0,7,0,1,,,,,,,,,,,,,,,,,,,,,,,,,,,,,,,,,,,,,,,
,,,,,,,,2023-08-16_08h49.09.164,HF_wild_card,2022.2.4,Win32,59.9880024,5a6b6b34d5d4cb0001d64b8f,64d2fd46c836a06233681665,64dc7f5c229413211ce6c0d7,,,,,,,ctch,resources/DR.BMP,resources/DY.BMP,Door3,-0.303889789,-0.044570502,1,0,0,0.7147,optionLeft,70,14620,7,8,0,8,0,1,,,,,,,,,,,,,,,,,,,,,,,,,,,,,,,,,,,,,,,
,,,,,,,,2023-08-16_08h49.09.164,HF_wild_card,2022.2.4,Win32,59.9880024,5a6b6b34d5d4cb0001d64b8f,64d2fd46c836a06233681665,64dc7f5c229413211ce6c0d7,,,,,,,decisionTrl,resources/DBN.BMP,resources/DR.BMP,Door3,0.276337115,-0.051053485,1,0,0,0.8429,optionRight,70,14690,7,9,0,9,0,1,,,,,,,,,,,,,,,,,,,,,,,,,,,,,,,,,,,,,,,
,,,,,,,,2023-08-16_08h49.09.164,HF_wild_card,2022.2.4,Win32,59.9880024,5a6b6b34d5d4cb0001d64b8f,64d2fd46c836a06233681665,64dc7f5c229413211ce6c0d7,,,,,,,decisionTrl,resources/DG.BMP,resources/DY.BMP,Door2,0.311993517,-0.044570502,1,0,0,1.0442,optionRight,40,14730,7,10,0,10,0,1,,,,,,,,,,,,,,,,,,,,,,,,,,,,,,,,,,,,,,,
,,,,,,,,2023-08-16_08h49.09.164,HF_wild_card,2022.2.4,Win32,59.9880024,5a6b6b34d5d4cb0001d64b8f,64d2fd46c836a06233681665,64dc7f5c229413211ce6c0d7,,,,,,,ctch,resources/DBN.BMP,resources/DG.BMP,Door4,-0.282820097,0.000810373,1,0,0,1.3297,optionLeft,80,14810,7,11,0,11,0,1,,,,,,,,,,,,,,,,,,,,,,,,,,,,,,,,,,,,,,,
,,,,,,,,2023-08-16_08h49.09.164,HF_wild_card,2022.2.4,Win32,59.9880024,5a6b6b34d5d4cb0001d64b8f,64d2fd46c836a06233681665,64dc7f5c229413211ce6c0d7,,,,,,,ctch,resources/DG.BMP,resources/DBN.BMP,Door4,0.337925446,-0.036466775,1,0,0,0.6282,optionRight,80,14890,7,12,0,12,0,1,,,,,,,,,,,,,,,,,,,,,,,,,,,,,,,,,,,,,,,
,,,,,,,,2023-08-16_08h49.09.164,HF_wild_card,2022.2.4,Win32,59.9880024,5a6b6b34d5d4cb0001d64b8f,64d2fd46c836a06233681665,64dc7f5c229413211ce6c0d7,,,,,,,decisionTrl,resources/DY.BMP,resources/DG.BMP,Door2,-0.423824959,-0.005672609,1,0,0,0.7245,optionLeft,40,14930,7,13,0,13,0,1,,,,,,,,,,,,,,,,,,,,,,,,,,,,,,,,,,,,,,,
,,,,,,,,2023-08-16_08h49.09.164,HF_wild_card,2022.2.4,Win32,59.9880024,5a6b6b34d5d4cb0001d64b8f,64d2fd46c836a06233681665,64dc7f5c229413211ce6c0d7,,,,,,,decisionTrl,resources/DR.BMP,resources/DBN.BMP,Door3,-0.294165316,0.007293355,1,0,0,0.9955,optionLeft,70,15000,7,14,0,14,0,1,,,,,,,,,,,,,,,,,,,,,,,,,,,,,,,,,,,,,,,
,,,,,,,,2023-08-16_08h49.09.164,HF_wild_card,2022.2.4,Win32,59.9880024,5a6b6b34d5d4cb0001d64b8f,64d2fd46c836a06233681665,64dc7f5c229413211ce6c0d7,,,,,,,decisionTrl,resources/DG.BMP,resources/DY.BMP,Door2,0.284440843,-0.057536467,1,0,0,1.4908,optionRight,20,15020,7,15,0,15,0,1,,,,,,,,,,,,,,,,,,,,,,,,,,,,,,,,,,,,,,,
,,,,,,,,2023-08-16_08h49.09.164,HF_wild_card,2022.2.4,Win32,59.9880024,5a6b6b34d5d4cb0001d64b8f,64d2fd46c836a06233681665,64dc7f5c229413211ce6c0d7,,,,,,,decisionTrl,resources/DY.BMP,resources/DG.BMP,Door2,-0.247163695,-0.010534846,1,0,0,0.7193,optionLeft,40,15060,7,16,0,16,0,1,,,,,,,,,,,,,,,,,,,,,,,,,,,,,,,,,,,,,,,
,,,,,,,,2023-08-16_08h49.09.164,HF_wild_card,2022.2.4,Win32,59.9880024,5a6b6b34d5d4cb0001d64b8f,64d2fd46c836a06233681665,64dc7f5c229413211ce6c0d7,,,,,,,decisionTrl,resources/DY.BMP,resources/DG.BMP,Door2,-0.208265802,0.007293355,1,0,0,0.7494,optionLeft,20,15080,7,17,0,17,0,1,,,,,,,,,,,,,,,,,,,,,,,,,,,,,,,,,,,,,,,
,,,,,,,,2023-08-16_08h49.09.164,HF_wild_card,2022.2.4,Win32,59.9880024,5a6b6b34d5d4cb0001d64b8f,64d2fd46c836a06233681665,64dc7f5c229413211ce6c0d7,,,,,,,decisionTrl,resources/DR.BMP,resources/DBN.BMP,Door3,-0.311993517,0.02350081,1,0,0,0.9699,optionLeft,70,15150,7,18,0,18,0,1,,,,,,,,,,,,,,,,,,,,,,,,,,,,,,,,,,,,,,,
,,,,,,,,2023-08-16_08h49.09.164,HF_wild_card,2022.2.4,Win32,59.9880024,5a6b6b34d5d4cb0001d64b8f,64d2fd46c836a06233681665,64dc7f5c229413211ce6c0d7,,,,,,,decisionTrl,resources/DBN.BMP,resources/DR.BMP,Door3,0.294165316,-0.026742301,1,0,0,0.592,optionRight,70,15220,7,19,0,19,0,1,,,,,,,,,,,,,,,,,,,,,,,,,,,,,,,,,,,,,,,
,,,,,,,,2023-08-16_08h49.09.164,HF_wild_card,2022.2.4,Win32,59.9880024,5a6b6b34d5d4cb0001d64b8f,64d2fd46c836a06233681665,64dc7f5c229413211ce6c0d7,,,,,,,decisionTrl,resources/DG.BMP,resources/DY.BMP,Door1,-0.412479741,-0.046191248,1,0,0,0.645,optionLeft,30,15250,7,20,0,20,0,1,,,,,,,,,,,,,,,,,,,,,,,,,,,,,,,,,,,,,,,
,,,,,,,,2023-08-16_08h49.09.164,HF_wild_card,2022.2.4,Win32,59.9880024,5a6b6b34d5d4cb0001d64b8f,64d2fd46c836a06233681665,64dc7f5c229413211ce6c0d7,,,,,,,ctch,resources/DY.BMP,resources/DR.BMP,Door3,0.404376013,-0.057536467,1,0,0,1.1896,optionRight,70,15320,7,21,0,21,0,1,,,,,,,,,,,,,,,,,,,,,,,,,,,,,,,,,,,,,,,
,,,,,,,,2023-08-16_08h49.09.164,HF_wild_card,2022.2.4,Win32,59.9880024,5a6b6b34d5d4cb0001d64b8f,64d2fd46c836a06233681665,64dc7f5c229413211ce6c0d7,,,,,,,ctch,resources/DBN.BMP,resources/DG.BMP,Door4,-0.282820097,0.03808752,1,0,0,1.5462,optionLeft,80,15400,7,22,0,22,0,1,,,,,,,,,,,,,,,,,,,,,,,,,,,,,,,,,,,,,,,
,,,,,,,,2023-08-16_08h49.09.164,HF_wild_card,2022.2.4,Win32,59.9880024,5a6b6b34d5d4cb0001d64b8f,64d2fd46c836a06233681665,64dc7f5c229413211ce6c0d7,,,,,,,decisionTrl,resources/DBN.BMP,resources/DR.BMP,Door3,0.490275527,-0.086709887,1,0,0,1.0604,optionRight,70,15470,7,23,0,23,0,1,,,,,,,,,,,,,,,,,,,,,,,,,,,,,,,,,,,,,,,
,,,,,,,,2023-08-16_08h49.09.164,HF_wild_card,2022.2.4,Win32,59.9880024,5a6b6b34d5d4cb0001d64b8f,64d2fd46c836a06233681665,64dc7f5c229413211ce6c0d7,,,,,,,decisionTrl,resources/DBN.BMP,resources/DR.BMP,Door3,0.229335494,-0.068881686,1,0,0,0.75,optionRight,70,15540,7,24,0,24,0,1,,,,,,,,,,,,,,,,,,,,,,,,,,,,,,,,,,,,,,,
,,,,,,,,2023-08-16_08h49.09.164,HF_wild_card,2022.2.4,Win32,59.9880024,5a6b6b34d5d4cb0001d64b8f,64d2fd46c836a06233681665,64dc7f5c229413211ce6c0d7,,,,,,,ctch,resources/DG.BMP,resources/DBN.BMP,Door4,0.357374392,-0.057536467,1,0,0,0.6939,optionRight,80,15620,7,25,0,25,0,1,,,,,,,,,,,,,,,,,,,,,,,,,,,,,,,,,,,,,,,
,,,,,,,,2023-08-16_08h49.09.164,HF_wild_card,2022.2.4,Win32,59.9880024,5a6b6b34d5d4cb0001d64b8f,64d2fd46c836a06233681665,64dc7f5c229413211ce6c0d7,,,,,,,ctch,resources/DBN.BMP,resources/DG.BMP,Door4,-0.425445705,-0.05267423,1,0,0,0.7438,optionLeft,60,15680,7,26,0,26,0,1,,,,,,,,,,,,,,,,,,,,,,,,,,,,,,,,,,,,,,,
,,,,,,,,2023-08-16_08h49.09.164,HF_wild_card,2022.2.4,Win32,59.9880024,5a6b6b34d5d4cb0001d64b8f,64d2fd46c836a06233681665,64dc7f5c229413211ce6c0d7,,,,,,,decisionTrl,resources/DG.BMP,resources/DY.BMP,Door2,0.162884927,-0.039708266,1,0,0,0.743,optionRight,40,15720,7,27,0,27,0,1,,,,,,,,,,,,,,,,,,,,,,,,,,,,,,,,,,,,,,,
,,,,,,,,2023-08-16_08h49.09.164,HF_wild_card,2022.2.4,Win32,59.9880024,5a6b6b34d5d4cb0001d64b8f,64d2fd46c836a06233681665,64dc7f5c229413211ce6c0d7,,,,,,,decisionTrl,resources/DY.BMP,resources/DG.BMP,Door2,-0.347649919,-0.068881686,1,0,0,0.7795,optionLeft,40,15760,7,28,0,28,0,1,,,,,,,,,,,,,,,,,,,,,,,,,,,,,,,,,,,,,,,
,,,,,,,,2023-08-16_08h49.09.164,HF_wild_card,2022.2.4,Win32,59.9880024,5a6b6b34d5d4cb0001d64b8f,64d2fd46c836a06233681665,64dc7f5c229413211ce6c0d7,,,,,,,decisionTrl,resources/DBN.BMP,resources/DR.BMP,Door3,0.255267423,-0.007293355,1,0,0,0.9275,optionRight,70,15830,7,29,0,29,0,1,,,,,,,,,,,,,,,,,,,,,,,,,,,,,,,,,,,,,,,
,,,,,,,,2023-08-16_08h49.09.164,HF_wild_card,2022.2.4,Win32,59.9880024,5a6b6b34d5d4cb0001d64b8f,64d2fd46c836a06233681665,64dc7f5c229413211ce6c0d7,,,,,,,ctch,resources/DY.BMP,resources/DR.BMP,Door3,0.27471637,-0.05267423,1,0,0,0.5416,optionRight,70,15900,7,30,0,30,0,1,,,,,,,,,,,,,,,,,,,,,,,,,,,,,,,,,,,,,,,
,,,,,,,,2023-08-16_08h49.09.164,HF_wild_card,2022.2.4,Win32,59.9880024,5a6b6b34d5d4cb0001d64b8f,64d2fd46c836a06233681665,64dc7f5c229413211ce6c0d7,,,,,,,decisionTrl,resources/DG.BMP,resources/DY.BMP,Door1,-0.206645057,-0.047811994,1,0,0,3.447,optionLeft,30,15930,7,31,0,31,0,1,,,,,,,,,,,,,,,,,,,,,,,,,,,,,,,,,,,,,,,
,,,,,,,,2023-08-16_08h49.09.164,HF_wild_card,2022.2.4,Win32,59.9880024,5a6b6b34d5d4cb0001d64b8f,64d2fd46c836a06233681665,64dc7f5c229413211ce6c0d7,,,,,,,decisionTrl,resources/DBN.BMP,resources/DR.BMP,Door3,0.412479741,-0.010534846,1,0,0,0.8923,optionRight,70,16000,7,32,0,32,0,1,,,,,,,,,,,,,,,,,,,,,,,,,,,,,,,,,,,,,,,
,,,,,,,,2023-08-16_08h49.09.164,HF_wild_card,2022.2.4,Win32,59.9880024,5a6b6b34d5d4cb0001d64b8f,64d2fd46c836a06233681665,64dc7f5c229413211ce6c0d7,,,,,,,decisionTrl,resources/DY.BMP,resources/DG.BMP,Door2,-0.303889789,-0.034846029,1,0,0,0.9764,optionLeft,40,16040,7,33,0,33,0,1,,,,,,,,,,,,,,,,,,,,,,,,,,,,,,,,,,,,,,,
,,,,,,,,2023-08-16_08h49.09.164,HF_wild_card,2022.2.4,Win32,59.9880024,5a6b6b34d5d4cb0001d64b8f,64d2fd46c836a06233681665,64dc7f5c229413211ce6c0d7,,,,,,,ctch,resources/DR.BMP,resources/DY.BMP,Door2,0.407617504,-0.089951378,1,0,0,0.6301,optionRight,20,16060,7,34,0,34,0,1,,,,,,,,,,,,,,,,,,,,,,,,,,,,,,,,,,,,,,,
,,,,,,,,2023-08-16_08h49.09.164,HF_wild_card,2022.2.4,Win32,59.9880024,5a6b6b34d5d4cb0001d64b8f,64d2fd46c836a06233681665,64dc7f5c229413211ce6c0d7,,,,,,,ctch,resources/DR.BMP,resources/DY.BMP,Door3,-0.27471637,-0.03808752,1,0,0,0.4753,optionLeft,70,16130,7,35,0,35,0,1,,,,,,,,,,,,,,,,,,,,,,,,,,,,,,,,,,,,,,,
,,,,,,,,2023-08-16_08h49.09.164,HF_wild_card,2022.2.4,Win32,59.9880024,5a6b6b34d5d4cb0001d64b8f,64d2fd46c836a06233681665,64dc7f5c229413211ce6c0d7,,,,,,,,,,,,,,,,,,,,,,,,,,6,0,6,0,1,,,,,,,,,,,,,,,,,,,,,,,,,,,,,,,,,,
,,,,,,,,2023-08-16_08h49.09.164,HF_wild_card,2022.2.4,Win32,59.9880024,5a6b6b34d5d4cb0001d64b8f,64d2fd46c836a06233681665,64dc7f5c229413211ce6c0d7,,,,,,,,,,,,,,,,,,,,,,,,,,,,,,,4,,,,,,,,,,,,,,,,,,,,,,,,,,,,,,,,,
,,,,,,,,2023-08-16_08h49.09.164,HF_wild_card,2022.2.4,Win32,59.9880024,5a6b6b34d5d4cb0001d64b8f,64d2fd46c836a06233681665,64dc7f5c229413211ce6c0d7,,,,,,,,,,,,,,,,,,,,,,,,,,,,,,,,,,,,,,,,,,,,,,,,,,,,,,,,,,,,,,,,
,,,,,,,,2023-08-16_08h49.09.164,HF_wild_card,2022.2.4,Win32,59.9880024,5a6b6b34d5d4cb0001d64b8f,64d2fd46c836a06233681665,64dc7f5c229413211ce6c0d7,,,,,,,,,,,,,,,,,,,,,,,,,,,,,,,,40,Door2,resources/DY.BMP,0,0,0,0,1,,,,,,,,,,,,,,,,,,,,,,,,,
,,,,,,,,2023-08-16_08h49.09.164,HF_wild_card,2022.2.4,Win32,59.9880024,5a6b6b34d5d4cb0001d64b8f,64d2fd46c836a06233681665,64dc7f5c229413211ce6c0d7,,,,,,,,,,,,,,,,,,,,,,,,,,,,,,,,30,Door1,resources/DG.BMP,1,0,1,0,1,,,,,,,,,,,,,,,,,,,,,,,,,
,,,,,,,,2023-08-16_08h49.09.164,HF_wild_card,2022.2.4,Win32,59.9880024,5a6b6b34d5d4cb0001d64b8f,64d2fd46c836a06233681665,64dc7f5c229413211ce6c0d7,,,,,,,,,,,,,,,,,,,,,,,,,,,,,,,,60,Door4,resources/DBN.BMP,2,0,2,0,1,,,,,,,,,,,,,,,,,,,,,,,,,
,,,,,,,,2023-08-16_08h49.09.164,HF_wild_card,2022.2.4,Win32,59.9880024,5a6b6b34d5d4cb0001d64b8f,64d2fd46c836a06233681665,64dc7f5c229413211ce6c0d7,,,,,,,,,,,,,,,,,,,,,,,,,,,,,,,,70,Door3,resources/DR.BMP,3,0,3,0,1,,,,,,,,,,,,,,,,,,,,,,,,,
,,,,,,,,2023-08-16_08h49.09.164,HF_wild_card,2022.2.4,Win32,59.9880024,5a6b6b34d5d4cb0001d64b8f,64d2fd46c836a06233681665,64dc7f5c229413211ce6c0d7,,,,,,,,,,,,,,,,,,,,,,,,,,,,,,,,45,WC_nonExtreme,resources/DB.BMP,4,0,4,0,1,,,,,,,,,,,,,,,,,,,,,,,,,
,,,,,,,,2023-08-16_08h49.09.164,HF_wild_card,2022.2.4,Win32,59.9880024,5a6b6b34d5d4cb0001d64b8f,64d2fd46c836a06233681665,64dc7f5c229413211ce6c0d7,,,,,,,,,,,,,,,,,,,,,,,,,,,,,,,,40,WC_extreme,resources/DP.BMP,5,0,5,0,1,,,,,,,,,,,,,,,,,,,,,,,,,
,,,,,,,,2023-08-16_08h49.09.164,HF_wild_card,2022.2.4,Win32,59.9880024,5a6b6b34d5d4cb0001d64b8f,64d2fd46c836a06233681665,64dc7f5c229413211ce6c0d7,,,,,,,,,,,,,,,,,,,,,,,,,,,,,,,,,,,,,,,,,,,,,,,,,,,,,,,,,,,,,,,,
,,,,,,,,2023-08-16_08h49.09.164,HF_wild_card,2022.2.4,Win32,59.9880024,5a6b6b34d5d4cb0001d64b8f,64d2fd46c836a06233681665,64dc7f5c229413211ce6c0d7,,,,,,,,,,,,,,,,,,,,,,,,,,,,,,,,,,,,,,,,0,0,0,0,1,,,,,,,,,,,,,,,,,,,,
