Condition,Low fixed image (Door1),Low risky image (Door2),High fixed image (Door3),High risky image (Door4),Extreme Wild Card,NonExtreme Wild Card,,date,expName,psychopyVersion,OS,frameRate,PROLIFIC_PID,STUDY_ID,SESSION_ID,mouse_2.x,mouse_2.y,mouse_2.leftButton,mouse_2.midButton,mouse_2.rightButton,mouse_2.clicked_name,Trial Type,Left Option Image,Right Option Image,Chosen Door,mouse.x,mouse.y,mouse.leftButton,mouse.midButton,mouse.rightButton,mouse.time,mouse.clicked_name,Feedback,Cumulative Reward,Block,trial.thisRepN,trial.thisTrialN,trial.thisN,trial.thisIndex,trial.ran,blocks.thisRepN,blocks.thisTrialN,blocks.thisN,blocks.thisIndex,blocks.ran,Money conversion,First Outcome Reported,Shown Door (First Outcome),Displayed Image (First Outcome),outcomes.thisRepN,outcomes.thisTrialN,outcomes.thisN,outcomes.thisIndex,outcomes.ran,judgments.thisRepN,judgments.thisTrialN,judgments.thisN,judgments.thisIndex,judgments.ran,freqMouse.x,freqMouse.y,freqMouse.leftButton,freqMouse.midButton,freqMouse.rightButton,freqMouse.clicked_name,FQJ for first outcome,FQJ for second outcome,Shown Door,Displayed Image,trials.thisRepN,trials.thisTrialN,trials.thisN,trials.thisIndex,trials.ran,judgBlock.thisRepN,judgBlock.thisTrialN,judgBlock.thisN,judgBlock.thisIndex,judgBlock.ran
1,resources/DBN.BMP,resources/DY.BMP,resources/DG.BMP,resources/DB.BMP,resources/DP.BMP,resources/DR.BMP,,2023-08-16_10h45.24.072,HF_wild_card,2022.2.4,Win32,60.0240096,6318ec19888839dfc0b4d5c8,64d2fd46c836a06233681665,64dc9aa6318c5b88f6d3ce32,,,,,,,,,,,,,,,,,,,,,,,,,,,,,,,,,,,,,,,,,,,,,,,,,,,,,,,,,,,,,,,,
,,,,,,,,2023-08-16_10h45.24.072,HF_wild_card,2022.2.4,Win32,60.0240096,6318ec19888839dfc0b4d5c8,64d2fd46c836a06233681665,64dc9aa6318c5b88f6d3ce32,0.008333333,-0.412962963,1,0,0,agree,,,,,,,,,,,,,,,,,,,,,,,,,,,,,,,,,,,,,,,,,,,,,,,,,,,,,,,,,,
,,,,,,,,2023-08-16_10h45.24.072,HF_wild_card,2022.2.4,Win32,60.0240096,6318ec19888839dfc0b4d5c8,64d2fd46c836a06233681665,64dc9aa6318c5b88f6d3ce32,,,,,,,,,,,,,,,,,,,,,,,,,,,,,,,,,,,,,,,,,,,,,,,,,,,,,,,,,,,,,,,,
,,,,,,,,2023-08-16_10h45.24.072,HF_wild_card,2022.2.4,Win32,60.0240096,6318ec19888839dfc0b4d5c8,64d2fd46c836a06233681665,64dc9aa6318c5b88f6d3ce32,,,,,,,decisionTrl,resources/DB.BMP,resources/DG.BMP,Door4,-0.387962963,-0.135185185,1,0,0,2.96,optionLeft,60,60,1,0,0,0,0,1,,,,,,,,,,,,,,,,,,,,,,,,,,,,,,,,,,,,,,,
,,,,,,,,2023-08-16_10h45.24.072,HF_wild_card,2022.2.4,Win32,60.0240096,6318ec19888839dfc0b4d5c8,64d2fd46c836a06233681665,64dc9aa6318c5b88f6d3ce32,,,,,,,decisionTrl,resources/DBN.BMP,resources/DY.BMP,Door2,0.318518519,-0.082407407,1,0,0,1.764,optionRight,40,100,1,1,0,1,0,1,,,,,,,,,,,,,,,,,,,,,,,,,,,,,,,,,,,,,,,
,,,,,,,,2023-08-16_10h45.24.072,HF_wild_card,2022.2.4,Win32,60.0240096,6318ec19888839dfc0b4d5c8,64d2fd46c836a06233681665,64dc9aa6318c5b88f6d3ce32,,,,,,,decisionTrl,resources/DB.BMP,resources/DG.BMP,Door4,-0.42037037,-0.009259259,1,0,0,1.248,optionLeft,80,180,1,2,0,2,0,1,,,,,,,,,,,,,,,,,,,,,,,,,,,,,,,,,,,,,,,
,,,,,,,,2023-08-16_10h45.24.072,HF_wild_card,2022.2.4,Win32,60.0240096,6318ec19888839dfc0b4d5c8,64d2fd46c836a06233681665,64dc9aa6318c5b88f6d3ce32,,,,,,,decisionTrl,resources/DY.BMP,resources/DBN.BMP,Door2,-0.338888889,-0.034259259,1,0,0,0.864,optionLeft,40,220,1,3,0,3,0,1,,,,,,,,,,,,,,,,,,,,,,,,,,,,,,,,,,,,,,,
,,,,,,,,2023-08-16_10h45.24.072,HF_wild_card,2022.2.4,Win32,60.0240096,6318ec19888839dfc0b4d5c8,64d2fd46c836a06233681665,64dc9aa6318c5b88f6d3ce32,,,,,,,ctch,resources/DB.BMP,resources/DBN.BMP,Door1,0.253703704,-0.051851852,1,0,0,1.798,optionRight,30,250,1,4,0,4,0,1,,,,,,,,,,,,,,,,,,,,,,,,,,,,,,,,,,,,,,,
,,,,,,,,2023-08-16_10h45.24.072,HF_wild_card,2022.2.4,Win32,60.0240096,6318ec19888839dfc0b4d5c8,64d2fd46c836a06233681665,64dc9aa6318c5b88f6d3ce32,,,,,,,ctch,resources/DY.BMP,resources/DG.BMP,Door2,-0.349074074,-0.049074074,1,0,0,0.498,optionLeft,20,270,1,5,0,5,0,1,,,,,,,,,,,,,,,,,,,,,,,,,,,,,,,,,,,,,,,
,,,,,,,,2023-08-16_10h45.24.072,HF_wild_card,2022.2.4,Win32,60.0240096,6318ec19888839dfc0b4d5c8,64d2fd46c836a06233681665,64dc9aa6318c5b88f6d3ce32,,,,,,,ctch,resources/DY.BMP,resources/DG.BMP,Door3,0.30462963,-0.012037037,1,0,0,0.514,optionRight,70,340,1,6,0,6,0,1,,,,,,,,,,,,,,,,,,,,,,,,,,,,,,,,,,,,,,,
,,,,,,,,2023-08-16_10h45.24.072,HF_wild_card,2022.2.4,Win32,60.0240096,6318ec19888839dfc0b4d5c8,64d2fd46c836a06233681665,64dc9aa6318c5b88f6d3ce32,,,,,,,decisionTrl,resources/DG.BMP,resources/DB.BMP,Door3,-0.489814815,-0.011111111,1,0,0,2.231,optionLeft,70,410,1,7,0,7,0,1,,,,,,,,,,,,,,,,,,,,,,,,,,,,,,,,,,,,,,,
,,,,,,,,2023-08-16_10h45.24.072,HF_wild_card,2022.2.4,Win32,60.0240096,6318ec19888839dfc0b4d5c8,64d2fd46c836a06233681665,64dc9aa6318c5b88f6d3ce32,,,,,,,ctch,resources/DB.BMP,resources/DBN.BMP,Door1,0.267592593,-0.013888889,1,0,0,0.864,optionRight,30,440,1,8,0,8,0,1,,,,,,,,,,,,,,,,,,,,,,,,,,,,,,,,,,,,,,,
,,,,,,,,2023-08-16_10h45.24.072,HF_wild_card,2022.2.4,Win32,60.0240096,6318ec19888839dfc0b4d5c8,64d2fd46c836a06233681665,64dc9aa6318c5b88f6d3ce32,,,,,,,ctch,resources/DG.BMP,resources/DY.BMP,Door3,-0.230555556,-0.063888889,1,0,0,0.546,optionLeft,70,510,1,9,0,9,0,1,,,,,,,,,,,,,,,,,,,,,,,,,,,,,,,,,,,,,,,
,,,,,,,,2023-08-16_10h45.24.072,HF_wild_card,2022.2.4,Win32,60.0240096,6318ec19888839dfc0b4d5c8,64d2fd46c836a06233681665,64dc9aa6318c5b88f6d3ce32,,,,,,,decisionTrl,resources/DG.BMP,resources/DB.BMP,Door4,0.235185185,-0.025925926,1,0,0,0.464,optionRight,80,590,1,10,0,10,0,1,,,,,,,,,,,,,,,,,,,,,,,,,,,,,,,,,,,,,,,
,,,,,,,,2023-08-16_10h45.24.072,HF_wild_card,2022.2.4,Win32,60.0240096,6318ec19888839dfc0b4d5c8,64d2fd46c836a06233681665,64dc9aa6318c5b88f6d3ce32,,,,,,,sngl,resources/DR.BMP,resources/Empty.png,WildCard_NonEx,-0.317592593,-0.017592593,1,0,0,1.514,optionLeft,55,645,1,11,0,11,0,1,,,,,,,,,,,,,,,,,,,,,,,,,,,,,,,,,,,,,,,
,,,,,,,,2023-08-16_10h45.24.072,HF_wild_card,2022.2.4,Win32,60.0240096,6318ec19888839dfc0b4d5c8,64d2fd46c836a06233681665,64dc9aa6318c5b88f6d3ce32,,,,,,,sngl,resources/DY.BMP,resources/Empty.png,Door2,-0.257407407,-0.034259259,1,0,0,0.516,optionLeft,40,685,1,12,0,12,0,1,,,,,,,,,,,,,,,,,,,,,,,,,,,,,,,,,,,,,,,
,,,,,,,,2023-08-16_10h45.24.072,HF_wild_card,2022.2.4,Win32,60.0240096,6318ec19888839dfc0b4d5c8,64d2fd46c836a06233681665,64dc9aa6318c5b88f6d3ce32,,,,,,,sngl,resources/DB.BMP,resources/Empty.png,Door4,0.177777778,-0.006481481,1,0,0,0.465,optionLeft,80,765,1,13,0,13,0,1,,,,,,,,,,,,,,,,,,,,,,,,,,,,,,,,,,,,,,,
,,,,,,,,2023-08-16_10h45.24.072,HF_wild_card,2022.2.4,Win32,60.0240096,6318ec19888839dfc0b4d5c8,64d2fd46c836a06233681665,64dc9aa6318c5b88f6d3ce32,,,,,,,decisionTrl,resources/DR.BMP,resources/DB.BMP,Door4,0.353703704,-0.059259259,1,0,0,0.648,optionRight,80,845,1,14,0,14,0,1,,,,,,,,,,,,,,,,,,,,,,,,,,,,,,,,,,,,,,,
,,,,,,,,2023-08-16_10h45.24.072,HF_wild_card,2022.2.4,Win32,60.0240096,6318ec19888839dfc0b4d5c8,64d2fd46c836a06233681665,64dc9aa6318c5b88f6d3ce32,,,,,,,sngl,resources/Empty.png,resources/DB.BMP,Door4,0.272222222,-0.038888889,1,0,0,0.716,optionRight,60,905,1,15,0,15,0,1,,,,,,,,,,,,,,,,,,,,,,,,,,,,,,,,,,,,,,,
,,,,,,,,2023-08-16_10h45.24.072,HF_wild_card,2022.2.4,Win32,60.0240096,6318ec19888839dfc0b4d5c8,64d2fd46c836a06233681665,64dc9aa6318c5b88f6d3ce32,,,,,,,ctch,resources/DG.BMP,resources/DY.BMP,Door2,0.274074074,-0.042592593,1,0,0,0.664,optionRight,20,925,1,16,0,16,0,1,,,,,,,,,,,,,,,,,,,,,,,,,,,,,,,,,,,,,,,
,,,,,,,,2023-08-16_10h45.24.072,HF_wild_card,2022.2.4,Win32,60.0240096,6318ec19888839dfc0b4d5c8,64d2fd46c836a06233681665,64dc9aa6318c5b88f6d3ce32,,,,,,,sngl,resources/DBN.BMP,resources/Empty.png,Door1,-0.27962963,-0.007407407,1,0,0,0.399,optionLeft,30,955,1,17,0,17,0,1,,,,,,,,,,,,,,,,,,,,,,,,,,,,,,,,,,,,,,,
,,,,,,,,2023-08-16_10h45.24.072,HF_wild_card,2022.2.4,Win32,60.0240096,6318ec19888839dfc0b4d5c8,64d2fd46c836a06233681665,64dc9aa6318c5b88f6d3ce32,,,,,,,decisionTrl,resources/DY.BMP,resources/DBN.BMP,Door1,0.342592593,-0.044444444,1,0,0,0.782,optionRight,30,985,1,18,0,18,0,1,,,,,,,,,,,,,,,,,,,,,,,,,,,,,,,,,,,,,,,
,,,,,,,,2023-08-16_10h45.24.072,HF_wild_card,2022.2.4,Win32,60.0240096,6318ec19888839dfc0b4d5c8,64d2fd46c836a06233681665,64dc9aa6318c5b88f6d3ce32,,,,,,,sngl,resources/DR.BMP,resources/Empty.png,WildCard_NonEx,-0.282407407,-0.016666667,1,0,0,0.465,optionLeft,45,1030,1,19,0,19,0,1,,,,,,,,,,,,,,,,,,,,,,,,,,,,,,,,,,,,,,,
,,,,,,,,2023-08-16_10h45.24.072,HF_wild_card,2022.2.4,Win32,60.0240096,6318ec19888839dfc0b4d5c8,64d2fd46c836a06233681665,64dc9aa6318c5b88f6d3ce32,,,,,,,ctch,resources/DBN.BMP,resources/DB.BMP,Door1,-0.409259259,0,1,0,0,0.897,optionLeft,30,1060,1,20,0,20,0,1,,,,,,,,,,,,,,,,,,,,,,,,,,,,,,,,,,,,,,,
,,,,,,,,2023-08-16_10h45.24.072,HF_wild_card,2022.2.4,Win32,60.0240096,6318ec19888839dfc0b4d5c8,64d2fd46c836a06233681665,64dc9aa6318c5b88f6d3ce32,,,,,,,decisionTrl,resources/DBN.BMP,resources/DR.BMP,WildCard_NonEx,0.278703704,-0.025925926,1,0,0,0.448,optionRight,45,1105,1,21,0,21,0,1,,,,,,,,,,,,,,,,,,,,,,,,,,,,,,,,,,,,,,,
,,,,,,,,2023-08-16_10h45.24.072,HF_wild_card,2022.2.4,Win32,60.0240096,6318ec19888839dfc0b4d5c8,64d2fd46c836a06233681665,64dc9aa6318c5b88f6d3ce32,,,,,,,ctch,resources/DBN.BMP,resources/DB.BMP,Door1,-0.358333333,0.002777778,1,0,0,0.815,optionLeft,30,1135,1,22,0,22,0,1,,,,,,,,,,,,,,,,,,,,,,,,,,,,,,,,,,,,,,,
,,,,,,,,2023-08-16_10h45.24.072,HF_wild_card,2022.2.4,Win32,60.0240096,6318ec19888839dfc0b4d5c8,64d2fd46c836a06233681665,64dc9aa6318c5b88f6d3ce32,,,,,,,decisionTrl,resources/DR.BMP,resources/DBN.BMP,Door1,0.249074074,-0.012037037,1,0,0,0.549,optionRight,30,1165,1,23,0,23,0,1,,,,,,,,,,,,,,,,,,,,,,,,,,,,,,,,,,,,,,,
,,,,,,,,2023-08-16_10h45.24.072,HF_wild_card,2022.2.4,Win32,60.0240096,6318ec19888839dfc0b4d5c8,64d2fd46c836a06233681665,64dc9aa6318c5b88f6d3ce32,,,,,,,decisionTrl,resources/DG.BMP,resources/DR.BMP,WildCard_NonEx,0.27962963,-0.012037037,1,0,0,0.727,optionRight,55,1220,1,24,0,24,0,1,,,,,,,,,,,,,,,,,,,,,,,,,,,,,,,,,,,,,,,
,,,,,,,,2023-08-16_10h45.24.072,HF_wild_card,2022.2.4,Win32,60.0240096,6318ec19888839dfc0b4d5c8,64d2fd46c836a06233681665,64dc9aa6318c5b88f6d3ce32,,,,,,,decisionTrl,resources/DG.BMP,resources/DB.BMP,Door4,0.281481481,-0.027777778,1,0,0,0.631,optionRight,80,1300,1,25,0,25,0,1,,,,,,,,,,,,,,,,,,,,,,,,,,,,,,,,,,,,,,,
,,,,,,,,2023-08-16_10h45.24.072,HF_wild_card,2022.2.4,Win32,60.0240096,6318ec19888839dfc0b4d5c8,64d2fd46c836a06233681665,64dc9aa6318c5b88f6d3ce32,,,,,,,decisionTrl,resources/DR.BMP,resources/DY.BMP,Door2,0.348148148,-0.021296296,1,0,0,0.832,optionRight,40,1340,1,26,0,26,0,1,,,,,,,,,,,,,,,,,,,,,,,,,,,,,,,,,,,,,,,
,,,,,,,,2023-08-16_10h45.24.072,HF_wild_card,2022.2.4,Win32,60.0240096,6318ec19888839dfc0b4d5c8,64d2fd46c836a06233681665,64dc9aa6318c5b88f6d3ce32,,,,,,,sngl,resources/DG.BMP,resources/Empty.png,Door3,-0.239814815,-0.039814815,1,0,0,0.523,optionLeft,70,1410,1,27,0,27,0,1,,,,,,,,,,,,,,,,,,,,,,,,,,,,,,,,,,,,,,,
,,,,,,,,2023-08-16_10h45.24.072,HF_wild_card,2022.2.4,Win32,60.0240096,6318ec19888839dfc0b4d5c8,64d2fd46c836a06233681665,64dc9aa6318c5b88f6d3ce32,,,,,,,sngl,resources/Empty.png,resources/DG.BMP,Door3,0.275,-0.037037037,1,0,0,0.398,optionRight,70,1480,1,28,0,28,0,1,,,,,,,,,,,,,,,,,,,,,,,,,,,,,,,,,,,,,,,
,,,,,,,,2023-08-16_10h45.24.072,HF_wild_card,2022.2.4,Win32,60.0240096,6318ec19888839dfc0b4d5c8,64d2fd46c836a06233681665,64dc9aa6318c5b88f6d3ce32,,,,,,,sngl,resources/Empty.png,resources/DY.BMP,Door2,0.326851852,-0.032407407,1,0,0,0.447,optionRight,20,1500,1,29,0,29,0,1,,,,,,,,,,,,,,,,,,,,,,,,,,,,,,,,,,,,,,,
,,,,,,,,2023-08-16_10h45.24.072,HF_wild_card,2022.2.4,Win32,60.0240096,6318ec19888839dfc0b4d5c8,64d2fd46c836a06233681665,64dc9aa6318c5b88f6d3ce32,,,,,,,sngl,resources/Empty.png,resources/DBN.BMP,Door1,0.29537037,-0.038888889,1,0,0,0.43,optionRight,30,1530,1,30,0,30,0,1,,,,,,,,,,,,,,,,,,,,,,,,,,,,,,,,,,,,,,,
,,,,,,,,2023-08-16_10h45.24.072,HF_wild_card,2022.2.4,Win32,60.0240096,6318ec19888839dfc0b4d5c8,64d2fd46c836a06233681665,64dc9aa6318c5b88f6d3ce32,,,,,,,decisionTrl,resources/DB.BMP,resources/DG.BMP,Door4,-0.257407407,-0.042592593,1,0,0,0.515,optionLeft,80,1610,1,31,0,31,0,1,,,,,,,,,,,,,,,,,,,,,,,,,,,,,,,,,,,,,,,
,,,,,,,,2023-08-16_10h45.24.072,HF_wild_card,2022.2.4,Win32,60.0240096,6318ec19888839dfc0b4d5c8,64d2fd46c836a06233681665,64dc9aa6318c5b88f6d3ce32,,,,,,,sngl,resources/Empty.png,resources/DR.BMP,WildCard_NonEx,0.288888889,-0.031481481,1,0,0,0.399,optionRight,55,1665,1,32,0,32,0,1,,,,,,,,,,,,,,,,,,,,,,,,,,,,,,,,,,,,,,,
,,,,,,,,2023-08-16_10h45.24.072,HF_wild_card,2022.2.4,Win32,60.0240096,6318ec19888839dfc0b4d5c8,64d2fd46c836a06233681665,64dc9aa6318c5b88f6d3ce32,,,,,,,decisionTrl,resources/DB.BMP,resources/DR.BMP,WildCard_NonEx,0.348148148,-0.031481481,1,0,0,0.514,optionRight,55,1720,1,33,0,33,0,1,,,,,,,,,,,,,,,,,,,,,,,,,,,,,,,,,,,,,,,
,,,,,,,,2023-08-16_10h45.24.072,HF_wild_card,2022.2.4,Win32,60.0240096,6318ec19888839dfc0b4d5c8,64d2fd46c836a06233681665,64dc9aa6318c5b88f6d3ce32,,,,,,,decisionTrl,resources/DBN.BMP,resources/DY.BMP,Door2,0.340740741,-0.037037037,1,0,0,0.413,optionRight,40,1760,1,34,0,34,0,1,,,,,,,,,,,,,,,,,,,,,,,,,,,,,,,,,,,,,,,
,,,,,,,,2023-08-16_10h45.24.072,HF_wild_card,2022.2.4,Win32,60.0240096,6318ec19888839dfc0b4d5c8,64d2fd46c836a06233681665,64dc9aa6318c5b88f6d3ce32,,,,,,,decisionTrl,resources/DR.BMP,resources/DG.BMP,WildCard_NonEx,-0.434259259,-0.02037037,1,0,0,0.449,optionLeft,45,1805,1,35,0,35,0,1,,,,,,,,,,,,,,,,,,,,,,,,,,,,,,,,,,,,,,,
,,,,,,,,2023-08-16_10h45.24.072,HF_wild_card,2022.2.4,Win32,60.0240096,6318ec19888839dfc0b4d5c8,64d2fd46c836a06233681665,64dc9aa6318c5b88f6d3ce32,,,,,,,decisionTrl,resources/DBN.BMP,resources/DY.BMP,Door2,0.240740741,0.012037037,1,0,0,0.382,optionRight,40,1845,1,36,0,36,0,1,,,,,,,,,,,,,,,,,,,,,,,,,,,,,,,,,,,,,,,
,,,,,,,,2023-08-16_10h45.24.072,HF_wild_card,2022.2.4,Win32,60.0240096,6318ec19888839dfc0b4d5c8,64d2fd46c836a06233681665,64dc9aa6318c5b88f6d3ce32,,,,,,,decisionTrl,resources/DY.BMP,resources/DR.BMP,WildCard_NonEx,0.251851852,-0.037962963,1,0,0,0.515,optionRight,45,1890,1,37,0,37,0,1,,,,,,,,,,,,,,,,,,,,,,,,,,,,,,,,,,,,,,,
,,,,,,,,2023-08-16_10h45.24.072,HF_wild_card,2022.2.4,Win32,60.0240096,6318ec19888839dfc0b4d5c8,64d2fd46c836a06233681665,64dc9aa6318c5b88f6d3ce32,,,,,,,decisionTrl,resources/DY.BMP,resources/DBN.BMP,Door1,0.286111111,0.008333333,1,0,0,0.564,optionRight,30,1920,1,38,0,38,0,1,,,,,,,,,,,,,,,,,,,,,,,,,,,,,,,,,,,,,,,
,,,,,,,,2023-08-16_10h45.24.072,HF_wild_card,2022.2.4,Win32,60.0240096,6318ec19888839dfc0b4d5c8,64d2fd46c836a06233681665,64dc9aa6318c5b88f6d3ce32,,,,,,,decisionTrl,resources/DY.BMP,resources/DBN.BMP,Door2,-0.174074074,-0.040740741,1,0,0,0.544,optionLeft,20,1940,1,39,0,39,0,1,,,,,,,,,,,,,,,,,,,,,,,,,,,,,,,,,,,,,,,
,,,,,,,,2023-08-16_10h45.24.072,HF_wild_card,2022.2.4,Win32,60.0240096,6318ec19888839dfc0b4d5c8,64d2fd46c836a06233681665,64dc9aa6318c5b88f6d3ce32,,,,,,,decisionTrl,resources/DBN.BMP,resources/DY.BMP,Door2,0.337037037,0.009259259,1,0,0,0.398,optionRight,40,1980,1,40,0,40,0,1,,,,,,,,,,,,,,,,,,,,,,,,,,,,,,,,,,,,,,,
,,,,,,,,2023-08-16_10h45.24.072,HF_wild_card,2022.2.4,Win32,60.0240096,6318ec19888839dfc0b4d5c8,64d2fd46c836a06233681665,64dc9aa6318c5b88f6d3ce32,,,,,,,sngl,resources/Empty.png,resources/DR.BMP,WildCard_NonEx,0.301851852,-0.047222222,1,0,0,0.448,optionRight,45,2025,1,41,0,41,0,1,,,,,,,,,,,,,,,,,,,,,,,,,,,,,,,,,,,,,,,
,,,,,,,,2023-08-16_10h45.24.072,HF_wild_card,2022.2.4,Win32,60.0240096,6318ec19888839dfc0b4d5c8,64d2fd46c836a06233681665,64dc9aa6318c5b88f6d3ce32,,,,,,,decisionTrl,resources/DG.BMP,resources/DB.BMP,Door3,-0.258333333,0.00462963,1,0,0,1.379,optionLeft,70,2095,1,42,0,42,0,1,,,,,,,,,,,,,,,,,,,,,,,,,,,,,,,,,,,,,,,
,,,,,,,,2023-08-16_10h45.24.072,HF_wild_card,2022.2.4,Win32,60.0240096,6318ec19888839dfc0b4d5c8,64d2fd46c836a06233681665,64dc9aa6318c5b88f6d3ce32,,,,,,,decisionTrl,resources/DB.BMP,resources/DG.BMP,Door3,0.491666667,-0.087037037,1,0,0,22.448,optionRight,70,2165,1,43,0,43,0,1,,,,,,,,,,,,,,,,,,,,,,,,,,,,,,,,,,,,,,,
,,,,,,,,2023-08-16_10h45.24.072,HF_wild_card,2022.2.4,Win32,60.0240096,6318ec19888839dfc0b4d5c8,64d2fd46c836a06233681665,64dc9aa6318c5b88f6d3ce32,,,,,,,,,,,,,,,,,,,,,,,,,,0,0,0,0,1,,,,,,,,,,,,,,,,,,,,,,,,,,,,,,,,,,
,,,,,,,,2023-08-16_10h45.24.072,HF_wild_card,2022.2.4,Win32,60.0240096,6318ec19888839dfc0b4d5c8,64d2fd46c836a06233681665,64dc9aa6318c5b88f6d3ce32,,,,,,,decisionTrl,resources/DY.BMP,resources/DBN.BMP,Door2,-0.232407407,-0.191666667,1,0,0,0.824,optionLeft,40,2205,2,0,0,0,0,1,,,,,,,,,,,,,,,,,,,,,,,,,,,,,,,,,,,,,,,
,,,,,,,,2023-08-16_10h45.24.072,HF_wild_card,2022.2.4,Win32,60.0240096,6318ec19888839dfc0b4d5c8,64d2fd46c836a06233681665,64dc9aa6318c5b88f6d3ce32,,,,,,,decisionTrl,resources/DG.BMP,resources/DB.BMP,Door4,0.246296296,0.012037037,1,0,0,0.348,optionRight,60,2265,2,1,0,1,0,1,,,,,,,,,,,,,,,,,,,,,,,,,,,,,,,,,,,,,,,
,,,,,,,,2023-08-16_10h45.24.072,HF_wild_card,2022.2.4,Win32,60.0240096,6318ec19888839dfc0b4d5c8,64d2fd46c836a06233681665,64dc9aa6318c5b88f6d3ce32,,,,,,,ctch,resources/DBN.BMP,resources/DB.BMP,Door1,-0.246296296,-0.000925926,1,0,0,0.331,optionLeft,30,2295,2,2,0,2,0,1,,,,,,,,,,,,,,,,,,,,,,,,,,,,,,,,,,,,,,,
,,,,,,,,2023-08-16_10h45.24.072,HF_wild_card,2022.2.4,Win32,60.0240096,6318ec19888839dfc0b4d5c8,64d2fd46c836a06233681665,64dc9aa6318c5b88f6d3ce32,,,,,,,decisionTrl,resources/DR.BMP,resources/DBN.BMP,Door1,0.297222222,-0.001851852,1,0,0,0.448,optionRight,30,2325,2,3,0,3,0,1,,,,,,,,,,,,,,,,,,,,,,,,,,,,,,,,,,,,,,,
,,,,,,,,2023-08-16_10h45.24.072,HF_wild_card,2022.2.4,Win32,60.0240096,6318ec19888839dfc0b4d5c8,64d2fd46c836a06233681665,64dc9aa6318c5b88f6d3ce32,,,,,,,decisionTrl,resources/DY.BMP,resources/DBN.BMP,Door1,0.259259259,0.008333333,1,0,0,0.494,optionRight,30,2355,2,4,0,4,0,1,,,,,,,,,,,,,,,,,,,,,,,,,,,,,,,,,,,,,,,
,,,,,,,,2023-08-16_10h45.24.072,HF_wild_card,2022.2.4,Win32,60.0240096,6318ec19888839dfc0b4d5c8,64d2fd46c836a06233681665,64dc9aa6318c5b88f6d3ce32,,,,,,,decisionTrl,resources/DB.BMP,resources/DR.BMP,Door4,-0.307407407,0.012037037,1,0,0,0.665,optionLeft,80,2435,2,5,0,5,0,1,,,,,,,,,,,,,,,,,,,,,,,,,,,,,,,,,,,,,,,
,,,,,,,,2023-08-16_10h45.24.072,HF_wild_card,2022.2.4,Win32,60.0240096,6318ec19888839dfc0b4d5c8,64d2fd46c836a06233681665,64dc9aa6318c5b88f6d3ce32,,,,,,,sngl,resources/Empty.png,resources/DY.BMP,Door2,0.296296296,-0.010185185,1,0,0,0.515,optionRight,40,2475,2,6,0,6,0,1,,,,,,,,,,,,,,,,,,,,,,,,,,,,,,,,,,,,,,,
,,,,,,,,2023-08-16_10h45.24.072,HF_wild_card,2022.2.4,Win32,60.0240096,6318ec19888839dfc0b4d5c8,64d2fd46c836a06233681665,64dc9aa6318c5b88f6d3ce32,,,,,,,decisionTrl,resources/DY.BMP,resources/DR.BMP,Door2,-0.278703704,-0.002777778,1,0,0,0.565,optionLeft,40,2515,2,7,0,7,0,1,,,,,,,,,,,,,,,,,,,,,,,,,,,,,,,,,,,,,,,
,,,,,,,,2023-08-16_10h45.24.072,HF_wild_card,2022.2.4,Win32,60.0240096,6318ec19888839dfc0b4d5c8,64d2fd46c836a06233681665,64dc9aa6318c5b88f6d3ce32,,,,,,,ctch,resources/DG.BMP,resources/DY.BMP,Door2,0.431481481,-0.016666667,1,0,0,0.532,optionRight,20,2535,2,8,0,8,0,1,,,,,,,,,,,,,,,,,,,,,,,,,,,,,,,,,,,,,,,
,,,,,,,,2023-08-16_10h45.24.072,HF_wild_card,2022.2.4,Win32,60.0240096,6318ec19888839dfc0b4d5c8,64d2fd46c836a06233681665,64dc9aa6318c5b88f6d3ce32,,,,,,,sngl,resources/DR.BMP,resources/Empty.png,WildCard_NonEx,-0.246296296,-0.027777778,1,0,0,0.648,optionLeft,45,2580,2,9,0,9,0,1,,,,,,,,,,,,,,,,,,,,,,,,,,,,,,,,,,,,,,,
,,,,,,,,2023-08-16_10h45.24.072,HF_wild_card,2022.2.4,Win32,60.0240096,6318ec19888839dfc0b4d5c8,64d2fd46c836a06233681665,64dc9aa6318c5b88f6d3ce32,,,,,,,sngl,resources/Empty.png,resources/DB.BMP,Door4,0.309259259,-0.012037037,1,0,0,0.681,optionRight,80,2660,2,10,0,10,0,1,,,,,,,,,,,,,,,,,,,,,,,,,,,,,,,,,,,,,,,
,,,,,,,,2023-08-16_10h45.24.072,HF_wild_card,2022.2.4,Win32,60.0240096,6318ec19888839dfc0b4d5c8,64d2fd46c836a06233681665,64dc9aa6318c5b88f6d3ce32,,,,,,,sngl,resources/Empty.png,resources/DBN.BMP,Door1,0.324074074,0.012037037,1,0,0,1.665,optionRight,30,2690,2,11,0,11,0,1,,,,,,,,,,,,,,,,,,,,,,,,,,,,,,,,,,,,,,,
,,,,,,,,2023-08-16_10h45.24.072,HF_wild_card,2022.2.4,Win32,60.0240096,6318ec19888839dfc0b4d5c8,64d2fd46c836a06233681665,64dc9aa6318c5b88f6d3ce32,,,,,,,ctch,resources/DY.BMP,resources/DG.BMP,Door2,-0.157407407,-0.17037037,1,0,0,2.428,optionLeft,20,2710,2,12,0,12,0,1,,,,,,,,,,,,,,,,,,,,,,,,,,,,,,,,,,,,,,,
,,,,,,,,2023-08-16_10h45.24.072,HF_wild_card,2022.2.4,Win32,60.0240096,6318ec19888839dfc0b4d5c8,64d2fd46c836a06233681665,64dc9aa6318c5b88f6d3ce32,,,,,,,sngl,resources/DB.BMP,resources/Empty.png,Door4,-0.282407407,-0.016666667,1,0,0,0.515,optionLeft,60,2770,2,13,0,13,0,1,,,,,,,,,,,,,,,,,,,,,,,,,,,,,,,,,,,,,,,
,,,,,,,,2023-08-16_10h45.24.072,HF_wild_card,2022.2.4,Win32,60.0240096,6318ec19888839dfc0b4d5c8,64d2fd46c836a06233681665,64dc9aa6318c5b88f6d3ce32,,,,,,,decisionTrl,resources/DR.BMP,resources/DG.BMP,Door3,0.262962963,0.053703704,1,0,0,0.398,optionRight,70,2840,2,14,0,14,0,1,,,,,,,,,,,,,,,,,,,,,,,,,,,,,,,,,,,,,,,
,,,,,,,,2023-08-16_10h45.24.072,HF_wild_card,2022.2.4,Win32,60.0240096,6318ec19888839dfc0b4d5c8,64d2fd46c836a06233681665,64dc9aa6318c5b88f6d3ce32,,,,,,,decisionTrl,resources/DBN.BMP,resources/DY.BMP,Door1,-0.271296296,0.011111111,1,0,0,0.281,optionLeft,30,2870,2,15,0,15,0,1,,,,,,,,,,,,,,,,,,,,,,,,,,,,,,,,,,,,,,,
,,,,,,,,2023-08-16_10h45.24.072,HF_wild_card,2022.2.4,Win32,60.0240096,6318ec19888839dfc0b4d5c8,64d2fd46c836a06233681665,64dc9aa6318c5b88f6d3ce32,,,,,,,decisionTrl,resources/DB.BMP,resources/DG.BMP,Door3,0.252777778,-0.037962963,1,0,0,0.398,optionRight,70,2940,2,16,0,16,0,1,,,,,,,,,,,,,,,,,,,,,,,,,,,,,,,,,,,,,,,
,,,,,,,,2023-08-16_10h45.24.072,HF_wild_card,2022.2.4,Win32,60.0240096,6318ec19888839dfc0b4d5c8,64d2fd46c836a06233681665,64dc9aa6318c5b88f6d3ce32,,,,,,,decisionTrl,resources/DG.BMP,resources/DB.BMP,Door3,-0.188888889,-0.011111111,1,0,0,0.416,optionLeft,70,3010,2,17,0,17,0,1,,,,,,,,,,,,,,,,,,,,,,,,,,,,,,,,,,,,,,,
,,,,,,,,2023-08-16_10h45.24.072,HF_wild_card,2022.2.4,Win32,60.0240096,6318ec19888839dfc0b4d5c8,64d2fd46c836a06233681665,64dc9aa6318c5b88f6d3ce32,,,,,,,decisionTrl,resources/DG.BMP,resources/DR.BMP,WildCard_NonEx,0.357407407,-0.07962963,1,0,0,0.549,optionRight,45,3055,2,18,0,18,0,1,,,,,,,,,,,,,,,,,,,,,,,,,,,,,,,,,,,,,,,
,,,,,,,,2023-08-16_10h45.24.072,HF_wild_card,2022.2.4,Win32,60.0240096,6318ec19888839dfc0b4d5c8,64d2fd46c836a06233681665,64dc9aa6318c5b88f6d3ce32,,,,,,,decisionTrl,resources/DY.BMP,resources/DBN.BMP,Door2,-0.189814815,0.013888889,1,0,0,0.416,optionLeft,40,3095,2,19,0,19,0,1,,,,,,,,,,,,,,,,,,,,,,,,,,,,,,,,,,,,,,,
,,,,,,,,2023-08-16_10h45.24.072,HF_wild_card,2022.2.4,Win32,60.0240096,6318ec19888839dfc0b4d5c8,64d2fd46c836a06233681665,64dc9aa6318c5b88f6d3ce32,,,,,,,sngl,resources/Empty.png,resources/DG.BMP,Door3,-0.325,0.025,1,0,0,0.315,optionRight,70,3165,2,20,0,20,0,1,,,,,,,,,,,,,,,,,,,,,,,,,,,,,,,,,,,,,,,
,,,,,,,,2023-08-16_10h45.24.072,HF_wild_card,2022.2.4,Win32,60.0240096,6318ec19888839dfc0b4d5c8,64d2fd46c836a06233681665,64dc9aa6318c5b88f6d3ce32,,,,,,,decisionTrl,resources/DB.BMP,resources/DG.BMP,Door4,-0.144444444,-0.028703704,1,0,0,0.648,optionLeft,60,3225,2,21,0,21,0,1,,,,,,,,,,,,,,,,,,,,,,,,,,,,,,,,,,,,,,,
,,,,,,,,2023-08-16_10h45.24.072,HF_wild_card,2022.2.4,Win32,60.0240096,6318ec19888839dfc0b4d5c8,64d2fd46c836a06233681665,64dc9aa6318c5b88f6d3ce32,,,,,,,sngl,resources/DG.BMP,resources/Empty.png,Door3,-0.151851852,-0.041666667,1,0,0,0.41,optionLeft,70,3295,2,22,0,22,0,1,,,,,,,,,,,,,,,,,,,,,,,,,,,,,,,,,,,,,,,
,,,,,,,,2023-08-16_10h45.24.072,HF_wild_card,2022.2.4,Win32,60.0240096,6318ec19888839dfc0b4d5c8,64d2fd46c836a06233681665,64dc9aa6318c5b88f6d3ce32,,,,,,,decisionTrl,resources/DR.BMP,resources/DB.BMP,Door4,0.216666667,-0.025925926,1,0,0,0.432,optionRight,80,3375,2,23,0,23,0,1,,,,,,,,,,,,,,,,,,,,,,,,,,,,,,,,,,,,,,,
,,,,,,,,2023-08-16_10h45.24.072,HF_wild_card,2022.2.4,Win32,60.0240096,6318ec19888839dfc0b4d5c8,64d2fd46c836a06233681665,64dc9aa6318c5b88f6d3ce32,,,,,,,ctch,resources/DB.BMP,resources/DBN.BMP,Door4,-0.325925926,-0.007407407,1,0,0,0.415,optionLeft,80,3455,2,24,0,24,0,1,,,,,,,,,,,,,,,,,,,,,,,,,,,,,,,,,,,,,,,
,,,,,,,,2023-08-16_10h45.24.072,HF_wild_card,2022.2.4,Win32,60.0240096,6318ec19888839dfc0b4d5c8,64d2fd46c836a06233681665,64dc9aa6318c5b88f6d3ce32,,,,,,,ctch,resources/DG.BMP,resources/DY.BMP,Door2,0.262962963,-0.005555556,1,0,0,0.347,optionRight,40,3495,2,25,0,25,0,1,,,,,,,,,,,,,,,,,,,,,,,,,,,,,,,,,,,,,,,
,,,,,,,,2023-08-16_10h45.24.072,HF_wild_card,2022.2.4,Win32,60.0240096,6318ec19888839dfc0b4d5c8,64d2fd46c836a06233681665,64dc9aa6318c5b88f6d3ce32,,,,,,,ctch,resources/DBN.BMP,resources/DB.BMP,Door1,-0.262037037,-0.02037037,1,0,0,0.381,optionLeft,30,3525,2,26,0,26,0,1,,,,,,,,,,,,,,,,,,,,,,,,,,,,,,,,,,,,,,,
,,,,,,,,2023-08-16_10h45.24.072,HF_wild_card,2022.2.4,Win32,60.0240096,6318ec19888839dfc0b4d5c8,64d2fd46c836a06233681665,64dc9aa6318c5b88f6d3ce32,,,,,,,decisionTrl,resources/DR.BMP,resources/DY.BMP,Door2,0.297222222,0.009259259,1,0,0,0.265,optionRight,40,3565,2,27,0,27,0,1,,,,,,,,,,,,,,,,,,,,,,,,,,,,,,,,,,,,,,,
,,,,,,,,2023-08-16_10h45.24.072,HF_wild_card,2022.2.4,Win32,60.0240096,6318ec19888839dfc0b4d5c8,64d2fd46c836a06233681665,64dc9aa6318c5b88f6d3ce32,,,,,,,sngl,resources/Empty.png,resources/DR.BMP,WildCard_NonEx,0.27962963,-0.005555556,1,0,0,0.466,optionRight,45,3610,2,28,0,28,0,1,,,,,,,,,,,,,,,,,,,,,,,,,,,,,,,,,,,,,,,
,,,,,,,,2023-08-16_10h45.24.072,HF_wild_card,2022.2.4,Win32,60.0240096,6318ec19888839dfc0b4d5c8,64d2fd46c836a06233681665,64dc9aa6318c5b88f6d3ce32,,,,,,,ctch,resources/DY.BMP,resources/DG.BMP,Door2,-0.322222222,-0.007407407,1,0,0,0.515,optionLeft,40,3650,2,29,0,29,0,1,,,,,,,,,,,,,,,,,,,,,,,,,,,,,,,,,,,,,,,
,,,,,,,,2023-08-16_10h45.24.072,HF_wild_card,2022.2.4,Win32,60.0240096,6318ec19888839dfc0b4d5c8,64d2fd46c836a06233681665,64dc9aa6318c5b88f6d3ce32,,,,,,,decisionTrl,resources/DG.BMP,resources/DB.BMP,Door3,-0.348148148,0.024074074,1,0,0,0.665,optionLeft,70,3720,2,30,0,30,0,1,,,,,,,,,,,,,,,,,,,,,,,,,,,,,,,,,,,,,,,
,,,,,,,,2023-08-16_10h45.24.072,HF_wild_card,2022.2.4,Win32,60.0240096,6318ec19888839dfc0b4d5c8,64d2fd46c836a06233681665,64dc9aa6318c5b88f6d3ce32,,,,,,,decisionTrl,resources/DBN.BMP,resources/DY.BMP,Door2,0.215740741,0.025925926,1,0,0,0.281,optionRight,40,3760,2,31,0,31,0,1,,,,,,,,,,,,,,,,,,,,,,,,,,,,,,,,,,,,,,,
,,,,,,,,2023-08-16_10h45.24.072,HF_wild_card,2022.2.4,Win32,60.0240096,6318ec19888839dfc0b4d5c8,64d2fd46c836a06233681665,64dc9aa6318c5b88f6d3ce32,,,,,,,decisionTrl,resources/DG.BMP,resources/DB.BMP,Door3,-0.27037037,0.022222222,1,0,0,0.297,optionLeft,70,3830,2,32,0,32,0,1,,,,,,,,,,,,,,,,,,,,,,,,,,,,,,,,,,,,,,,
,,,,,,,,2023-08-16_10h45.24.072,HF_wild_card,2022.2.4,Win32,60.0240096,6318ec19888839dfc0b4d5c8,64d2fd46c836a06233681665,64dc9aa6318c5b88f6d3ce32,,,,,,,sngl,resources/DR.BMP,resources/Empty.png,WildCard_NonEx,-0.251851852,-0.016666667,1,0,0,0.515,optionLeft,55,3885,2,33,0,33,0,1,,,,,,,,,,,,,,,,,,,,,,,,,,,,,,,,,,,,,,,
,,,,,,,,2023-08-16_10h45.24.072,HF_wild_card,2022.2.4,Win32,60.0240096,6318ec19888839dfc0b4d5c8,64d2fd46c836a06233681665,64dc9aa6318c5b88f6d3ce32,,,,,,,decisionTrl,resources/DY.BMP,resources/DBN.BMP,Door2,-0.358333333,0.061111111,1,0,0,0.932,optionLeft,20,3905,2,34,0,34,0,1,,,,,,,,,,,,,,,,,,,,,,,,,,,,,,,,,,,,,,,
,,,,,,,,2023-08-16_10h45.24.072,HF_wild_card,2022.2.4,Win32,60.0240096,6318ec19888839dfc0b4d5c8,64d2fd46c836a06233681665,64dc9aa6318c5b88f6d3ce32,,,,,,,sngl,resources/Empty.png,resources/DR.BMP,WildCard_NonEx,0.282407407,0,1,0,0,0.381,optionRight,55,3960,2,35,0,35,0,1,,,,,,,,,,,,,,,,,,,,,,,,,,,,,,,,,,,,,,,
,,,,,,,,2023-08-16_10h45.24.072,HF_wild_card,2022.2.4,Win32,60.0240096,6318ec19888839dfc0b4d5c8,64d2fd46c836a06233681665,64dc9aa6318c5b88f6d3ce32,,,,,,,ctch,resources/DB.BMP,resources/DBN.BMP,Door4,-0.422222222,-0.008333333,1,0,0,0.831,optionLeft,80,4040,2,36,0,36,0,1,,,,,,,,,,,,,,,,,,,,,,,,,,,,,,,,,,,,,,,
,,,,,,,,2023-08-16_10h45.24.072,HF_wild_card,2022.2.4,Win32,60.0240096,6318ec19888839dfc0b4d5c8,64d2fd46c836a06233681665,64dc9aa6318c5b88f6d3ce32,,,,,,,sngl,resources/DBN.BMP,resources/Empty.png,Door1,-0.360185185,0.011111111,1,0,0,0.649,optionLeft,30,4070,2,37,0,37,0,1,,,,,,,,,,,,,,,,,,,,,,,,,,,,,,,,,,,,,,,
,,,,,,,,2023-08-16_10h45.24.072,HF_wild_card,2022.2.4,Win32,60.0240096,6318ec19888839dfc0b4d5c8,64d2fd46c836a06233681665,64dc9aa6318c5b88f6d3ce32,,,,,,,decisionTrl,resources/DB.BMP,resources/DG.BMP,Door3,0.378703704,-0.022222222,1,0,0,1.014,optionRight,70,4140,2,38,0,38,0,1,,,,,,,,,,,,,,,,,,,,,,,,,,,,,,,,,,,,,,,
,,,,,,,,2023-08-16_10h45.24.072,HF_wild_card,2022.2.4,Win32,60.0240096,6318ec19888839dfc0b4d5c8,64d2fd46c836a06233681665,64dc9aa6318c5b88f6d3ce32,,,,,,,sngl,resources/DY.BMP,resources/Empty.png,Door2,-0.30462963,0.009259259,1,0,0,0.345,optionLeft,20,4160,2,39,0,39,0,1,,,,,,,,,,,,,,,,,,,,,,,,,,,,,,,,,,,,,,,
,,,,,,,,2023-08-16_10h45.24.072,HF_wild_card,2022.2.4,Win32,60.0240096,6318ec19888839dfc0b4d5c8,64d2fd46c836a06233681665,64dc9aa6318c5b88f6d3ce32,,,,,,,decisionTrl,resources/DB.BMP,resources/DG.BMP,Door3,0.199074074,-0.012962963,1,0,0,0.649,optionRight,70,4230,2,40,0,40,0,1,,,,,,,,,,,,,,,,,,,,,,,,,,,,,,,,,,,,,,,
,,,,,,,,2023-08-16_10h45.24.072,HF_wild_card,2022.2.4,Win32,60.0240096,6318ec19888839dfc0b4d5c8,64d2fd46c836a06233681665,64dc9aa6318c5b88f6d3ce32,,,,,,,decisionTrl,resources/DBN.BMP,resources/DY.BMP,Door1,-0.236111111,-0.017592593,1,0,0,0.398,optionLeft,30,4260,2,41,0,41,0,1,,,,,,,,,,,,,,,,,,,,,,,,,,,,,,,,,,,,,,,
,,,,,,,,2023-08-16_10h45.24.072,HF_wild_card,2022.2.4,Win32,60.0240096,6318ec19888839dfc0b4d5c8,64d2fd46c836a06233681665,64dc9aa6318c5b88f6d3ce32,,,,,,,decisionTrl,resources/DBN.BMP,resources/DY.BMP,Door1,-0.235185185,-0.008333333,1,0,0,0.482,optionLeft,30,4290,2,42,0,42,0,1,,,,,,,,,,,,,,,,,,,,,,,,,,,,,,,,,,,,,,,
,,,,,,,,2023-08-16_10h45.24.072,HF_wild_card,2022.2.4,Win32,60.0240096,6318ec19888839dfc0b4d5c8,64d2fd46c836a06233681665,64dc9aa6318c5b88f6d3ce32,,,,,,,decisionTrl,resources/DBN.BMP,resources/DR.BMP,WildCard_NonEx,0.297222222,-0.046296296,1,0,0,0.432,optionRight,45,4335,2,43,0,43,0,1,,,,,,,,,,,,,,,,,,,,,,,,,,,,,,,,,,,,,,,
,,,,,,,,2023-08-16_10h45.24.072,HF_wild_card,2022.2.4,Win32,60.0240096,6318ec19888839dfc0b4d5c8,64d2fd46c836a06233681665,64dc9aa6318c5b88f6d3ce32,,,,,,,,,,,,,,,,,,,,,,,,,,1,0,1,0,1,,,,,,,,,,,,,,,,,,,,,,,,,,,,,,,,,,
,,,,,,,,2023-08-16_10h45.24.072,HF_wild_card,2022.2.4,Win32,60.0240096,6318ec19888839dfc0b4d5c8,64d2fd46c836a06233681665,64dc9aa6318c5b88f6d3ce32,,,,,,,ctch,resources/DBN.BMP,resources/DB.BMP,Door1,-0.312037037,-0.043518519,1,0,0,0.447,optionLeft,30,4365,3,0,0,0,0,1,,,,,,,,,,,,,,,,,,,,,,,,,,,,,,,,,,,,,,,
,,,,,,,,2023-08-16_10h45.24.072,HF_wild_card,2022.2.4,Win32,60.0240096,6318ec19888839dfc0b4d5c8,64d2fd46c836a06233681665,64dc9aa6318c5b88f6d3ce32,,,,,,,ctch,resources/DB.BMP,resources/DBN.BMP,Door1,0.263888889,0.016666667,1,0,0,0.297,optionRight,30,4395,3,1,0,1,0,1,,,,,,,,,,,,,,,,,,,,,,,,,,,,,,,,,,,,,,,
,,,,,,,,2023-08-16_10h45.24.072,HF_wild_card,2022.2.4,Win32,60.0240096,6318ec19888839dfc0b4d5c8,64d2fd46c836a06233681665,64dc9aa6318c5b88f6d3ce32,,,,,,,decisionTrl,resources/DY.BMP,resources/DR.BMP,Door2,-0.241666667,-0.008333333,1,0,0,0.294,optionLeft,20,4415,3,2,0,2,0,1,,,,,,,,,,,,,,,,,,,,,,,,,,,,,,,,,,,,,,,
,,,,,,,,2023-08-16_10h45.24.072,HF_wild_card,2022.2.4,Win32,60.0240096,6318ec19888839dfc0b4d5c8,64d2fd46c836a06233681665,64dc9aa6318c5b88f6d3ce32,,,,,,,ctch,resources/DG.BMP,resources/DY.BMP,Door2,0.2,0.017592593,1,0,0,0.282,optionRight,40,4455,3,3,0,3,0,1,,,,,,,,,,,,,,,,,,,,,,,,,,,,,,,,,,,,,,,
,,,,,,,,2023-08-16_10h45.24.072,HF_wild_card,2022.2.4,Win32,60.0240096,6318ec19888839dfc0b4d5c8,64d2fd46c836a06233681665,64dc9aa6318c5b88f6d3ce32,,,,,,,decisionTrl,resources/DG.BMP,resources/DB.BMP,Door3,-0.231481481,-0.001851852,1,0,0,0.465,optionLeft,70,4525,3,4,0,4,0,1,,,,,,,,,,,,,,,,,,,,,,,,,,,,,,,,,,,,,,,
,,,,,,,,2023-08-16_10h45.24.072,HF_wild_card,2022.2.4,Win32,60.0240096,6318ec19888839dfc0b4d5c8,64d2fd46c836a06233681665,64dc9aa6318c5b88f6d3ce32,,,,,,,sngl,resources/Empty.png,resources/DBN.BMP,Door1,0.214814815,-0.011111111,1,0,0,0.482,optionRight,30,4555,3,5,0,5,0,1,,,,,,,,,,,,,,,,,,,,,,,,,,,,,,,,,,,,,,,
,,,,,,,,2023-08-16_10h45.24.072,HF_wild_card,2022.2.4,Win32,60.0240096,6318ec19888839dfc0b4d5c8,64d2fd46c836a06233681665,64dc9aa6318c5b88f6d3ce32,,,,,,,decisionTrl,resources/DY.BMP,resources/DBN.BMP,Door1,0.419444444,-0.023148148,1,0,0,0.714,optionRight,30,4585,3,6,0,6,0,1,,,,,,,,,,,,,,,,,,,,,,,,,,,,,,,,,,,,,,,
,,,,,,,,2023-08-16_10h45.24.072,HF_wild_card,2022.2.4,Win32,60.0240096,6318ec19888839dfc0b4d5c8,64d2fd46c836a06233681665,64dc9aa6318c5b88f6d3ce32,,,,,,,decisionTrl,resources/DG.BMP,resources/DB.BMP,Door3,-0.302777778,-0.012037037,1,0,0,0.831,optionLeft,70,4655,3,7,0,7,0,1,,,,,,,,,,,,,,,,,,,,,,,,,,,,,,,,,,,,,,,
,,,,,,,,2023-08-16_10h45.24.072,HF_wild_card,2022.2.4,Win32,60.0240096,6318ec19888839dfc0b4d5c8,64d2fd46c836a06233681665,64dc9aa6318c5b88f6d3ce32,,,,,,,decisionTrl,resources/DG.BMP,resources/DR.BMP,Door3,-0.240740741,-0.018518519,1,0,0,0.531,optionLeft,70,4725,3,8,0,8,0,1,,,,,,,,,,,,,,,,,,,,,,,,,,,,,,,,,,,,,,,
,,,,,,,,2023-08-16_10h45.24.072,HF_wild_card,2022.2.4,Win32,60.0240096,6318ec19888839dfc0b4d5c8,64d2fd46c836a06233681665,64dc9aa6318c5b88f6d3ce32,,,,,,,decisionTrl,resources/DBN.BMP,resources/DY.BMP,Door2,0.32962963,-0.008333333,1,0,0,0.615,optionRight,20,4745,3,9,0,9,0,1,,,,,,,,,,,,,,,,,,,,,,,,,,,,,,,,,,,,,,,
,,,,,,,,2023-08-16_10h45.24.072,HF_wild_card,2022.2.4,Win32,60.0240096,6318ec19888839dfc0b4d5c8,64d2fd46c836a06233681665,64dc9aa6318c5b88f6d3ce32,,,,,,,sngl,resources/DB.BMP,resources/Empty.png,Door4,-0.316666667,-0.001851852,1,0,0,0.415,optionLeft,80,4825,3,10,0,10,0,1,,,,,,,,,,,,,,,,,,,,,,,,,,,,,,,,,,,,,,,
,,,,,,,,2023-08-16_10h45.24.072,HF_wild_card,2022.2.4,Win32,60.0240096,6318ec19888839dfc0b4d5c8,64d2fd46c836a06233681665,64dc9aa6318c5b88f6d3ce32,,,,,,,sngl,resources/DBN.BMP,resources/Empty.png,Door1,-0.283333333,0,1,0,0,0.382,optionLeft,30,4855,3,11,0,11,0,1,,,,,,,,,,,,,,,,,,,,,,,,,,,,,,,,,,,,,,,
,,,,,,,,2023-08-16_10h45.24.072,HF_wild_card,2022.2.4,Win32,60.0240096,6318ec19888839dfc0b4d5c8,64d2fd46c836a06233681665,64dc9aa6318c5b88f6d3ce32,,,,,,,ctch,resources/DY.BMP,resources/DG.BMP,Door3,0.233333333,0.006481481,1,0,0,0.415,optionRight,70,4925,3,12,0,12,0,1,,,,,,,,,,,,,,,,,,,,,,,,,,,,,,,,,,,,,,,
,,,,,,,,2023-08-16_10h45.24.072,HF_wild_card,2022.2.4,Win32,60.0240096,6318ec19888839dfc0b4d5c8,64d2fd46c836a06233681665,64dc9aa6318c5b88f6d3ce32,,,,,,,decisionTrl,resources/DY.BMP,resources/DBN.BMP,Door2,-0.280555556,-0.005555556,1,0,0,0.48,optionLeft,40,4965,3,13,0,13,0,1,,,,,,,,,,,,,,,,,,,,,,,,,,,,,,,,,,,,,,,
,,,,,,,,2023-08-16_10h45.24.072,HF_wild_card,2022.2.4,Win32,60.0240096,6318ec19888839dfc0b4d5c8,64d2fd46c836a06233681665,64dc9aa6318c5b88f6d3ce32,,,,,,,ctch,resources/DY.BMP,resources/DG.BMP,Door3,0.294444444,-0.010185185,1,0,0,0.399,optionRight,70,5035,3,14,0,14,0,1,,,,,,,,,,,,,,,,,,,,,,,,,,,,,,,,,,,,,,,
,,,,,,,,2023-08-16_10h45.24.072,HF_wild_card,2022.2.4,Win32,60.0240096,6318ec19888839dfc0b4d5c8,64d2fd46c836a06233681665,64dc9aa6318c5b88f6d3ce32,,,,,,,ctch,resources/DB.BMP,resources/DBN.BMP,Door4,-0.296296296,-0.015740741,1,0,0,0.549,optionLeft,60,5095,3,15,0,15,0,1,,,,,,,,,,,,,,,,,,,,,,,,,,,,,,,,,,,,,,,
,,,,,,,,2023-08-16_10h45.24.072,HF_wild_card,2022.2.4,Win32,60.0240096,6318ec19888839dfc0b4d5c8,64d2fd46c836a06233681665,64dc9aa6318c5b88f6d3ce32,,,,,,,decisionTrl,resources/DG.BMP,resources/DB.BMP,Door3,-0.311111111,0.017592593,1,0,0,0.698,optionLeft,70,5165,3,16,0,16,0,1,,,,,,,,,,,,,,,,,,,,,,,,,,,,,,,,,,,,,,,
,,,,,,,,2023-08-16_10h45.24.072,HF_wild_card,2022.2.4,Win32,60.0240096,6318ec19888839dfc0b4d5c8,64d2fd46c836a06233681665,64dc9aa6318c5b88f6d3ce32,,,,,,,decisionTrl,resources/DBN.BMP,resources/DY.BMP,Door1,-0.251851852,-0.007407407,1,0,0,0.615,optionLeft,30,5195,3,17,0,17,0,1,,,,,,,,,,,,,,,,,,,,,,,,,,,,,,,,,,,,,,,
,,,,,,,,2023-08-16_10h45.24.072,HF_wild_card,2022.2.4,Win32,60.0240096,6318ec19888839dfc0b4d5c8,64d2fd46c836a06233681665,64dc9aa6318c5b88f6d3ce32,,,,,,,decisionTrl,resources/DR.BMP,resources/DB.BMP,Door4,0.241666667,0.023148148,1,0,0,0.915,optionRight,60,5255,3,18,0,18,0,1,,,,,,,,,,,,,,,,,,,,,,,,,,,,,,,,,,,,,,,
,,,,,,,,2023-08-16_10h45.24.072,HF_wild_card,2022.2.4,Win32,60.0240096,6318ec19888839dfc0b4d5c8,64d2fd46c836a06233681665,64dc9aa6318c5b88f6d3ce32,,,,,,,sngl,resources/DR.BMP,resources/Empty.png,WildCard_NonEx,-0.257407407,-0.010185185,1,0,0,0.447,optionLeft,45,5300,3,19,0,19,0,1,,,,,,,,,,,,,,,,,,,,,,,,,,,,,,,,,,,,,,,
,,,,,,,,2023-08-16_10h45.24.072,HF_wild_card,2022.2.4,Win32,60.0240096,6318ec19888839dfc0b4d5c8,64d2fd46c836a06233681665,64dc9aa6318c5b88f6d3ce32,,,,,,,decisionTrl,resources/DB.BMP,resources/DG.BMP,Door3,0.260185185,-0.009259259,1,0,0,0.614,optionRight,70,5370,3,20,0,20,0,1,,,,,,,,,,,,,,,,,,,,,,,,,,,,,,,,,,,,,,,
,,,,,,,,2023-08-16_10h45.24.072,HF_wild_card,2022.2.4,Win32,60.0240096,6318ec19888839dfc0b4d5c8,64d2fd46c836a06233681665,64dc9aa6318c5b88f6d3ce32,,,,,,,ctch,resources/DBN.BMP,resources/DB.BMP,Door1,-0.425,-0.008333333,1,0,0,0.814,optionLeft,30,5400,3,21,0,21,0,1,,,,,,,,,,,,,,,,,,,,,,,,,,,,,,,,,,,,,,,
,,,,,,,,2023-08-16_10h45.24.072,HF_wild_card,2022.2.4,Win32,60.0240096,6318ec19888839dfc0b4d5c8,64d2fd46c836a06233681665,64dc9aa6318c5b88f6d3ce32,,,,,,,decisionTrl,resources/DB.BMP,resources/DG.BMP,Door3,0.264814815,0.005555556,1,0,0,0.414,optionRight,70,5470,3,22,0,22,0,1,,,,,,,,,,,,,,,,,,,,,,,,,,,,,,,,,,,,,,,
,,,,,,,,2023-08-16_10h45.24.072,HF_wild_card,2022.2.4,Win32,60.0240096,6318ec19888839dfc0b4d5c8,64d2fd46c836a06233681665,64dc9aa6318c5b88f6d3ce32,,,,,,,decisionTrl,resources/DB.BMP,resources/DG.BMP,Door3,0.287037037,-0.026851852,1,0,0,0.466,optionRight,70,5540,3,23,0,23,0,1,,,,,,,,,,,,,,,,,,,,,,,,,,,,,,,,,,,,,,,
,,,,,,,,2023-08-16_10h45.24.072,HF_wild_card,2022.2.4,Win32,60.0240096,6318ec19888839dfc0b4d5c8,64d2fd46c836a06233681665,64dc9aa6318c5b88f6d3ce32,,,,,,,sngl,resources/Empty.png,resources/DY.BMP,Door2,0.253703704,-0.018518519,1,0,0,0.447,optionRight,20,5560,3,24,0,24,0,1,,,,,,,,,,,,,,,,,,,,,,,,,,,,,,,,,,,,,,,
,,,,,,,,2023-08-16_10h45.24.072,HF_wild_card,2022.2.4,Win32,60.0240096,6318ec19888839dfc0b4d5c8,64d2fd46c836a06233681665,64dc9aa6318c5b88f6d3ce32,,,,,,,decisionTrl,resources/DBN.BMP,resources/DY.BMP,Door2,0.312962963,-0.02037037,1,0,0,0.881,optionRight,40,5600,3,25,0,25,0,1,,,,,,,,,,,,,,,,,,,,,,,,,,,,,,,,,,,,,,,
,,,,,,,,2023-08-16_10h45.24.072,HF_wild_card,2022.2.4,Win32,60.0240096,6318ec19888839dfc0b4d5c8,64d2fd46c836a06233681665,64dc9aa6318c5b88f6d3ce32,,,,,,,decisionTrl,resources/DG.BMP,resources/DB.BMP,Door3,-0.312037037,-0.000925926,1,0,0,0.614,optionLeft,70,5670,3,26,0,26,0,1,,,,,,,,,,,,,,,,,,,,,,,,,,,,,,,,,,,,,,,
,,,,,,,,2023-08-16_10h45.24.072,HF_wild_card,2022.2.4,Win32,60.0240096,6318ec19888839dfc0b4d5c8,64d2fd46c836a06233681665,64dc9aa6318c5b88f6d3ce32,,,,,,,decisionTrl,resources/DR.BMP,resources/DY.BMP,Door2,0.269444444,0.002777778,1,0,0,0.515,optionRight,40,5710,3,27,0,27,0,1,,,,,,,,,,,,,,,,,,,,,,,,,,,,,,,,,,,,,,,
,,,,,,,,2023-08-16_10h45.24.072,HF_wild_card,2022.2.4,Win32,60.0240096,6318ec19888839dfc0b4d5c8,64d2fd46c836a06233681665,64dc9aa6318c5b88f6d3ce32,,,,,,,sngl,resources/Empty.png,resources/DR.BMP,WildCard_NonEx,0.275925926,-0.006481481,1,0,0,0.531,optionRight,55,5765,3,28,0,28,0,1,,,,,,,,,,,,,,,,,,,,,,,,,,,,,,,,,,,,,,,
,,,,,,,,2023-08-16_10h45.24.072,HF_wild_card,2022.2.4,Win32,60.0240096,6318ec19888839dfc0b4d5c8,64d2fd46c836a06233681665,64dc9aa6318c5b88f6d3ce32,,,,,,,sngl,resources/DG.BMP,resources/Empty.png,Door3,-0.286111111,0.024074074,1,0,0,0.448,optionLeft,70,5835,3,29,0,29,0,1,,,,,,,,,,,,,,,,,,,,,,,,,,,,,,,,,,,,,,,
,,,,,,,,2023-08-16_10h45.24.072,HF_wild_card,2022.2.4,Win32,60.0240096,6318ec19888839dfc0b4d5c8,64d2fd46c836a06233681665,64dc9aa6318c5b88f6d3ce32,,,,,,,decisionTrl,resources/DBN.BMP,resources/DR.BMP,WildCard_NonEx,0.269444444,0.012037037,1,0,0,0.499,optionRight,55,5890,3,30,0,30,0,1,,,,,,,,,,,,,,,,,,,,,,,,,,,,,,,,,,,,,,,
,,,,,,,,2023-08-16_10h45.24.072,HF_wild_card,2022.2.4,Win32,60.0240096,6318ec19888839dfc0b4d5c8,64d2fd46c836a06233681665,64dc9aa6318c5b88f6d3ce32,,,,,,,decisionTrl,resources/DY.BMP,resources/DBN.BMP,Door2,-0.349074074,0.018518519,1,0,0,0.498,optionLeft,20,5910,3,31,0,31,0,1,,,,,,,,,,,,,,,,,,,,,,,,,,,,,,,,,,,,,,,
,,,,,,,,2023-08-16_10h45.24.072,HF_wild_card,2022.2.4,Win32,60.0240096,6318ec19888839dfc0b4d5c8,64d2fd46c836a06233681665,64dc9aa6318c5b88f6d3ce32,,,,,,,sngl,resources/Empty.png,resources/DR.BMP,WildCard_NonEx,0.251851852,0,1,0,0,0.447,optionRight,45,5955,3,32,0,32,0,1,,,,,,,,,,,,,,,,,,,,,,,,,,,,,,,,,,,,,,,
,,,,,,,,2023-08-16_10h45.24.072,HF_wild_card,2022.2.4,Win32,60.0240096,6318ec19888839dfc0b4d5c8,64d2fd46c836a06233681665,64dc9aa6318c5b88f6d3ce32,,,,,,,decisionTrl,resources/DBN.BMP,resources/DY.BMP,Door1,-0.352777778,0.041666667,1,0,0,0.714,optionLeft,30,5985,3,33,0,33,0,1,,,,,,,,,,,,,,,,,,,,,,,,,,,,,,,,,,,,,,,
,,,,,,,,2023-08-16_10h45.24.072,HF_wild_card,2022.2.4,Win32,60.0240096,6318ec19888839dfc0b4d5c8,64d2fd46c836a06233681665,64dc9aa6318c5b88f6d3ce32,,,,,,,decisionTrl,resources/DR.BMP,resources/DG.BMP,Door3,0.235185185,-0.006481481,1,0,0,0.497,optionRight,70,6055,3,34,0,34,0,1,,,,,,,,,,,,,,,,,,,,,,,,,,,,,,,,,,,,,,,
,,,,,,,,2023-08-16_10h45.24.072,HF_wild_card,2022.2.4,Win32,60.0240096,6318ec19888839dfc0b4d5c8,64d2fd46c836a06233681665,64dc9aa6318c5b88f6d3ce32,,,,,,,sngl,resources/DR.BMP,resources/Empty.png,WildCard_NonEx,-0.212962963,-0.009259259,1,0,0,0.444,optionLeft,55,6110,3,35,0,35,0,1,,,,,,,,,,,,,,,,,,,,,,,,,,,,,,,,,,,,,,,
,,,,,,,,2023-08-16_10h45.24.072,HF_wild_card,2022.2.4,Win32,60.0240096,6318ec19888839dfc0b4d5c8,64d2fd46c836a06233681665,64dc9aa6318c5b88f6d3ce32,,,,,,,decisionTrl,resources/DR.BMP,resources/DBN.BMP,WildCard_NonEx,-0.212962963,0.017592593,1,0,0,0.448,optionLeft,55,6165,3,36,0,36,0,1,,,,,,,,,,,,,,,,,,,,,,,,,,,,,,,,,,,,,,,
,,,,,,,,2023-08-16_10h45.24.072,HF_wild_card,2022.2.4,Win32,60.0240096,6318ec19888839dfc0b4d5c8,64d2fd46c836a06233681665,64dc9aa6318c5b88f6d3ce32,,,,,,,sngl,resources/Empty.png,resources/DG.BMP,Door3,0.277777778,-0.00462963,1,0,0,0.498,optionRight,70,6235,3,37,0,37,0,1,,,,,,,,,,,,,,,,,,,,,,,,,,,,,,,,,,,,,,,
,,,,,,,,2023-08-16_10h45.24.072,HF_wild_card,2022.2.4,Win32,60.0240096,6318ec19888839dfc0b4d5c8,64d2fd46c836a06233681665,64dc9aa6318c5b88f6d3ce32,,,,,,,decisionTrl,resources/DB.BMP,resources/DR.BMP,WildCard_NonEx,0.310185185,-0.019444444,1,0,0,0.499,optionRight,45,6280,3,38,0,38,0,1,,,,,,,,,,,,,,,,,,,,,,,,,,,,,,,,,,,,,,,
,,,,,,,,2023-08-16_10h45.24.072,HF_wild_card,2022.2.4,Win32,60.0240096,6318ec19888839dfc0b4d5c8,64d2fd46c836a06233681665,64dc9aa6318c5b88f6d3ce32,,,,,,,decisionTrl,resources/DB.BMP,resources/DG.BMP,Door3,0.225925926,-0.00462963,1,0,0,0.547,optionRight,70,6350,3,39,0,39,0,1,,,,,,,,,,,,,,,,,,,,,,,,,,,,,,,,,,,,,,,
,,,,,,,,2023-08-16_10h45.24.072,HF_wild_card,2022.2.4,Win32,60.0240096,6318ec19888839dfc0b4d5c8,64d2fd46c836a06233681665,64dc9aa6318c5b88f6d3ce32,,,,,,,decisionTrl,resources/DY.BMP,resources/DBN.BMP,Door2,-0.221296296,-0.012037037,1,0,0,0.749,optionLeft,40,6390,3,40,0,40,0,1,,,,,,,,,,,,,,,,,,,,,,,,,,,,,,,,,,,,,,,
,,,,,,,,2023-08-16_10h45.24.072,HF_wild_card,2022.2.4,Win32,60.0240096,6318ec19888839dfc0b4d5c8,64d2fd46c836a06233681665,64dc9aa6318c5b88f6d3ce32,,,,,,,sngl,resources/Empty.png,resources/DB.BMP,Door4,0.398148148,-0.033333333,1,0,0,0.431,optionRight,60,6450,3,41,0,41,0,1,,,,,,,,,,,,,,,,,,,,,,,,,,,,,,,,,,,,,,,
,,,,,,,,2023-08-16_10h45.24.072,HF_wild_card,2022.2.4,Win32,60.0240096,6318ec19888839dfc0b4d5c8,64d2fd46c836a06233681665,64dc9aa6318c5b88f6d3ce32,,,,,,,ctch,resources/DG.BMP,resources/DY.BMP,Door2,0.349074074,-0.003703704,1,0,0,0.482,optionRight,20,6470,3,42,0,42,0,1,,,,,,,,,,,,,,,,,,,,,,,,,,,,,,,,,,,,,,,
,,,,,,,,2023-08-16_10h45.24.072,HF_wild_card,2022.2.4,Win32,60.0240096,6318ec19888839dfc0b4d5c8,64d2fd46c836a06233681665,64dc9aa6318c5b88f6d3ce32,,,,,,,sngl,resources/DY.BMP,resources/Empty.png,Door2,-0.328703704,-0.037037037,1,0,0,0.398,optionLeft,40,6510,3,43,0,43,0,1,,,,,,,,,,,,,,,,,,,,,,,,,,,,,,,,,,,,,,,
,,,,,,,,2023-08-16_10h45.24.072,HF_wild_card,2022.2.4,Win32,60.0240096,6318ec19888839dfc0b4d5c8,64d2fd46c836a06233681665,64dc9aa6318c5b88f6d3ce32,,,,,,,,,,,,,,,,,,,,,,,,,,2,0,2,0,1,,,,,,,,,,,,,,,,,,,,,,,,,,,,,,,,,,
,,,,,,,,2023-08-16_10h45.24.072,HF_wild_card,2022.2.4,Win32,60.0240096,6318ec19888839dfc0b4d5c8,64d2fd46c836a06233681665,64dc9aa6318c5b88f6d3ce32,,,,,,,decisionTrl,resources/DY.BMP,resources/DBN.BMP,Door2,-0.192592593,-0.065740741,1,0,0,0.781,optionLeft,20,6530,4,0,0,0,0,1,,,,,,,,,,,,,,,,,,,,,,,,,,,,,,,,,,,,,,,
,,,,,,,,2023-08-16_10h45.24.072,HF_wild_card,2022.2.4,Win32,60.0240096,6318ec19888839dfc0b4d5c8,64d2fd46c836a06233681665,64dc9aa6318c5b88f6d3ce32,,,,,,,sngl,resources/Empty.png,resources/DP.BMP,WildCard_Ex,0.252777778,-0.011111111,1,0,0,0.432,optionRight,95,6625,4,1,0,1,0,1,,,,,,,,,,,,,,,,,,,,,,,,,,,,,,,,,,,,,,,
,,,,,,,,2023-08-16_10h45.24.072,HF_wild_card,2022.2.4,Win32,60.0240096,6318ec19888839dfc0b4d5c8,64d2fd46c836a06233681665,64dc9aa6318c5b88f6d3ce32,,,,,,,sngl,resources/Empty.png,resources/DP.BMP,WildCard_Ex,0.307407407,-0.010185185,1,0,0,0.399,optionRight,5,6630,4,2,0,2,0,1,,,,,,,,,,,,,,,,,,,,,,,,,,,,,,,,,,,,,,,
,,,,,,,,2023-08-16_10h45.24.072,HF_wild_card,2022.2.4,Win32,60.0240096,6318ec19888839dfc0b4d5c8,64d2fd46c836a06233681665,64dc9aa6318c5b88f6d3ce32,,,,,,,decisionTrl,resources/DY.BMP,resources/DBN.BMP,Door2,-0.281481481,-0.036111111,1,0,0,0.548,optionLeft,40,6670,4,3,0,3,0,1,,,,,,,,,,,,,,,,,,,,,,,,,,,,,,,,,,,,,,,
,,,,,,,,2023-08-16_10h45.24.072,HF_wild_card,2022.2.4,Win32,60.0240096,6318ec19888839dfc0b4d5c8,64d2fd46c836a06233681665,64dc9aa6318c5b88f6d3ce32,,,,,,,sngl,resources/DG.BMP,resources/Empty.png,Door3,-0.224074074,-0.015740741,1,0,0,0.449,optionLeft,70,6740,4,4,0,4,0,1,,,,,,,,,,,,,,,,,,,,,,,,,,,,,,,,,,,,,,,
,,,,,,,,2023-08-16_10h45.24.072,HF_wild_card,2022.2.4,Win32,60.0240096,6318ec19888839dfc0b4d5c8,64d2fd46c836a06233681665,64dc9aa6318c5b88f6d3ce32,,,,,,,ctch,resources/DBN.BMP,resources/DB.BMP,Door4,0.256481481,-0.001851852,1,0,0,0.798,optionRight,80,6820,4,5,0,5,0,1,,,,,,,,,,,,,,,,,,,,,,,,,,,,,,,,,,,,,,,
,,,,,,,,2023-08-16_10h45.24.072,HF_wild_card,2022.2.4,Win32,60.0240096,6318ec19888839dfc0b4d5c8,64d2fd46c836a06233681665,64dc9aa6318c5b88f6d3ce32,,,,,,,decisionTrl,resources/DB.BMP,resources/DG.BMP,Door3,0.384259259,0.005555556,1,0,0,0.61,optionRight,70,6890,4,6,0,6,0,1,,,,,,,,,,,,,,,,,,,,,,,,,,,,,,,,,,,,,,,
,,,,,,,,2023-08-16_10h45.24.072,HF_wild_card,2022.2.4,Win32,60.0240096,6318ec19888839dfc0b4d5c8,64d2fd46c836a06233681665,64dc9aa6318c5b88f6d3ce32,,,,,,,decisionTrl,resources/DY.BMP,resources/DP.BMP,WildCard_Ex,0.440740741,0.003703704,1,0,0,1.046,optionRight,5,6895,4,7,0,7,0,1,,,,,,,,,,,,,,,,,,,,,,,,,,,,,,,,,,,,,,,
,,,,,,,,2023-08-16_10h45.24.072,HF_wild_card,2022.2.4,Win32,60.0240096,6318ec19888839dfc0b4d5c8,64d2fd46c836a06233681665,64dc9aa6318c5b88f6d3ce32,,,,,,,ctch,resources/DB.BMP,resources/DBN.BMP,Door4,-0.249074074,-0.035185185,1,0,0,0.998,optionLeft,80,6975,4,8,0,8,0,1,,,,,,,,,,,,,,,,,,,,,,,,,,,,,,,,,,,,,,,
,,,,,,,,2023-08-16_10h45.24.072,HF_wild_card,2022.2.4,Win32,60.0240096,6318ec19888839dfc0b4d5c8,64d2fd46c836a06233681665,64dc9aa6318c5b88f6d3ce32,,,,,,,decisionTrl,resources/DB.BMP,resources/DG.BMP,Door3,0.318518519,0.021296296,1,0,0,0.415,optionRight,70,7045,4,9,0,9,0,1,,,,,,,,,,,,,,,,,,,,,,,,,,,,,,,,,,,,,,,
,,,,,,,,2023-08-16_10h45.24.072,HF_wild_card,2022.2.4,Win32,60.0240096,6318ec19888839dfc0b4d5c8,64d2fd46c836a06233681665,64dc9aa6318c5b88f6d3ce32,,,,,,,sngl,resources/DB.BMP,resources/Empty.png,Door4,-0.392592593,0.002777778,1,0,0,0.681,optionLeft,60,7105,4,10,0,10,0,1,,,,,,,,,,,,,,,,,,,,,,,,,,,,,,,,,,,,,,,
,,,,,,,,2023-08-16_10h45.24.072,HF_wild_card,2022.2.4,Win32,60.0240096,6318ec19888839dfc0b4d5c8,64d2fd46c836a06233681665,64dc9aa6318c5b88f6d3ce32,,,,,,,decisionTrl,resources/DP.BMP,resources/DB.BMP,WildCard_Ex,-0.462037037,-0.005555556,1,0,0,0.799,optionLeft,5,7110,4,11,0,11,0,1,,,,,,,,,,,,,,,,,,,,,,,,,,,,,,,,,,,,,,,
,,,,,,,,2023-08-16_10h45.24.072,HF_wild_card,2022.2.4,Win32,60.0240096,6318ec19888839dfc0b4d5c8,64d2fd46c836a06233681665,64dc9aa6318c5b88f6d3ce32,,,,,,,decisionTrl,resources/DY.BMP,resources/DBN.BMP,Door1,0.272222222,0.010185185,1,0,0,0.365,optionRight,30,7140,4,12,0,12,0,1,,,,,,,,,,,,,,,,,,,,,,,,,,,,,,,,,,,,,,,
,,,,,,,,2023-08-16_10h45.24.072,HF_wild_card,2022.2.4,Win32,60.0240096,6318ec19888839dfc0b4d5c8,64d2fd46c836a06233681665,64dc9aa6318c5b88f6d3ce32,,,,,,,decisionTrl,resources/DB.BMP,resources/DG.BMP,Door3,0.397222222,-0.010185185,1,0,0,0.832,optionRight,70,7210,4,13,0,13,0,1,,,,,,,,,,,,,,,,,,,,,,,,,,,,,,,,,,,,,,,
,,,,,,,,2023-08-16_10h45.24.072,HF_wild_card,2022.2.4,Win32,60.0240096,6318ec19888839dfc0b4d5c8,64d2fd46c836a06233681665,64dc9aa6318c5b88f6d3ce32,,,,,,,sngl,resources/DY.BMP,resources/Empty.png,Door2,-0.172222222,-0.010185185,1,0,0,0.731,optionLeft,20,7230,4,14,0,14,0,1,,,,,,,,,,,,,,,,,,,,,,,,,,,,,,,,,,,,,,,
,,,,,,,,2023-08-16_10h45.24.072,HF_wild_card,2022.2.4,Win32,60.0240096,6318ec19888839dfc0b4d5c8,64d2fd46c836a06233681665,64dc9aa6318c5b88f6d3ce32,,,,,,,sngl,resources/DBN.BMP,resources/Empty.png,Door1,-0.225,-0.012962963,1,0,0,0.583,optionLeft,30,7260,4,15,0,15,0,1,,,,,,,,,,,,,,,,,,,,,,,,,,,,,,,,,,,,,,,
,,,,,,,,2023-08-16_10h45.24.072,HF_wild_card,2022.2.4,Win32,60.0240096,6318ec19888839dfc0b4d5c8,64d2fd46c836a06233681665,64dc9aa6318c5b88f6d3ce32,,,,,,,decisionTrl,resources/DBN.BMP,resources/DY.BMP,Door2,0.4,0.012037037,1,0,0,1.349,optionRight,20,7280,4,16,0,16,0,1,,,,,,,,,,,,,,,,,,,,,,,,,,,,,,,,,,,,,,,
,,,,,,,,2023-08-16_10h45.24.072,HF_wild_card,2022.2.4,Win32,60.0240096,6318ec19888839dfc0b4d5c8,64d2fd46c836a06233681665,64dc9aa6318c5b88f6d3ce32,,,,,,,decisionTrl,resources/DP.BMP,resources/DG.BMP,Door3,0.306481481,-0.00462963,1,0,0,2.383,optionRight,70,7350,4,17,0,17,0,1,,,,,,,,,,,,,,,,,,,,,,,,,,,,,,,,,,,,,,,
,,,,,,,,2023-08-16_10h45.24.072,HF_wild_card,2022.2.4,Win32,60.0240096,6318ec19888839dfc0b4d5c8,64d2fd46c836a06233681665,64dc9aa6318c5b88f6d3ce32,,,,,,,ctch,resources/DG.BMP,resources/DY.BMP,Door3,-0.302777778,-0.009259259,1,0,0,0.631,optionLeft,70,7420,4,18,0,18,0,1,,,,,,,,,,,,,,,,,,,,,,,,,,,,,,,,,,,,,,,
,,,,,,,,2023-08-16_10h45.24.072,HF_wild_card,2022.2.4,Win32,60.0240096,6318ec19888839dfc0b4d5c8,64d2fd46c836a06233681665,64dc9aa6318c5b88f6d3ce32,,,,,,,ctch,resources/DBN.BMP,resources/DB.BMP,Door1,-0.316666667,-0.023148148,1,0,0,1.082,optionLeft,30,7450,4,19,0,19,0,1,,,,,,,,,,,,,,,,,,,,,,,,,,,,,,,,,,,,,,,
,,,,,,,,2023-08-16_10h45.24.072,HF_wild_card,2022.2.4,Win32,60.0240096,6318ec19888839dfc0b4d5c8,64d2fd46c836a06233681665,64dc9aa6318c5b88f6d3ce32,,,,,,,decisionTrl,resources/DG.BMP,resources/DB.BMP,Door4,0.235185185,-0.012037037,1,0,0,0.429,optionRight,60,7510,4,20,0,20,0,1,,,,,,,,,,,,,,,,,,,,,,,,,,,,,,,,,,,,,,,
,,,,,,,,2023-08-16_10h45.24.072,HF_wild_card,2022.2.4,Win32,60.0240096,6318ec19888839dfc0b4d5c8,64d2fd46c836a06233681665,64dc9aa6318c5b88f6d3ce32,,,,,,,decisionTrl,resources/DG.BMP,resources/DP.BMP,Door3,-0.182407407,-0.016666667,1,0,0,0.448,optionLeft,70,7580,4,21,0,21,0,1,,,,,,,,,,,,,,,,,,,,,,,,,,,,,,,,,,,,,,,
,,,,,,,,2023-08-16_10h45.24.072,HF_wild_card,2022.2.4,Win32,60.0240096,6318ec19888839dfc0b4d5c8,64d2fd46c836a06233681665,64dc9aa6318c5b88f6d3ce32,,,,,,,ctch,resources/DG.BMP,resources/DY.BMP,Door3,-0.214814815,-0.002777778,1,0,0,0.565,optionLeft,70,7650,4,22,0,22,0,1,,,,,,,,,,,,,,,,,,,,,,,,,,,,,,,,,,,,,,,
,,,,,,,,2023-08-16_10h45.24.072,HF_wild_card,2022.2.4,Win32,60.0240096,6318ec19888839dfc0b4d5c8,64d2fd46c836a06233681665,64dc9aa6318c5b88f6d3ce32,,,,,,,decisionTrl,resources/DG.BMP,resources/DB.BMP,Door3,-0.200925926,-0.007407407,1,0,0,0.414,optionLeft,70,7720,4,23,0,23,0,1,,,,,,,,,,,,,,,,,,,,,,,,,,,,,,,,,,,,,,,
,,,,,,,,2023-08-16_10h45.24.072,HF_wild_card,2022.2.4,Win32,60.0240096,6318ec19888839dfc0b4d5c8,64d2fd46c836a06233681665,64dc9aa6318c5b88f6d3ce32,,,,,,,sngl,resources/DP.BMP,resources/Empty.png,WildCard_Ex,-0.237962963,-0.027777778,1,0,0,0.598,optionLeft,95,7815,4,24,0,24,0,1,,,,,,,,,,,,,,,,,,,,,,,,,,,,,,,,,,,,,,,
,,,,,,,,2023-08-16_10h45.24.072,HF_wild_card,2022.2.4,Win32,60.0240096,6318ec19888839dfc0b4d5c8,64d2fd46c836a06233681665,64dc9aa6318c5b88f6d3ce32,,,,,,,sngl,resources/Empty.png,resources/DBN.BMP,Door1,0.280555556,-0.034259259,1,0,0,0.782,optionRight,30,7845,4,25,0,25,0,1,,,,,,,,,,,,,,,,,,,,,,,,,,,,,,,,,,,,,,,
,,,,,,,,2023-08-16_10h45.24.072,HF_wild_card,2022.2.4,Win32,60.0240096,6318ec19888839dfc0b4d5c8,64d2fd46c836a06233681665,64dc9aa6318c5b88f6d3ce32,,,,,,,ctch,resources/DB.BMP,resources/DBN.BMP,Door4,-0.248148148,-0.031481481,1,0,0,1.931,optionLeft,80,7925,4,26,0,26,0,1,,,,,,,,,,,,,,,,,,,,,,,,,,,,,,,,,,,,,,,
,,,,,,,,2023-08-16_10h45.24.072,HF_wild_card,2022.2.4,Win32,60.0240096,6318ec19888839dfc0b4d5c8,64d2fd46c836a06233681665,64dc9aa6318c5b88f6d3ce32,,,,,,,ctch,resources/DY.BMP,resources/DG.BMP,Door3,0.308333333,-0.010185185,1,0,0,0.914,optionRight,70,7995,4,27,0,27,0,1,,,,,,,,,,,,,,,,,,,,,,,,,,,,,,,,,,,,,,,
,,,,,,,,2023-08-16_10h45.24.072,HF_wild_card,2022.2.4,Win32,60.0240096,6318ec19888839dfc0b4d5c8,64d2fd46c836a06233681665,64dc9aa6318c5b88f6d3ce32,,,,,,,decisionTrl,resources/DB.BMP,resources/DP.BMP,Door4,-0.338888889,-0.032407407,1,0,0,1.631,optionLeft,80,8075,4,28,0,28,0,1,,,,,,,,,,,,,,,,,,,,,,,,,,,,,,,,,,,,,,,
,,,,,,,,2023-08-16_10h45.24.072,HF_wild_card,2022.2.4,Win32,60.0240096,6318ec19888839dfc0b4d5c8,64d2fd46c836a06233681665,64dc9aa6318c5b88f6d3ce32,,,,,,,decisionTrl,resources/DP.BMP,resources/DY.BMP,Door2,0.290740741,-0.026851852,1,0,0,0.831,optionRight,40,8115,4,29,0,29,0,1,,,,,,,,,,,,,,,,,,,,,,,,,,,,,,,,,,,,,,,
,,,,,,,,2023-08-16_10h45.24.072,HF_wild_card,2022.2.4,Win32,60.0240096,6318ec19888839dfc0b4d5c8,64d2fd46c836a06233681665,64dc9aa6318c5b88f6d3ce32,,,,,,,decisionTrl,resources/DBN.BMP,resources/DY.BMP,Door2,0.313888889,-0.000925926,1,0,0,0.965,optionRight,20,8135,4,30,0,30,0,1,,,,,,,,,,,,,,,,,,,,,,,,,,,,,,,,,,,,,,,
,,,,,,,,2023-08-16_10h45.24.072,HF_wild_card,2022.2.4,Win32,60.0240096,6318ec19888839dfc0b4d5c8,64d2fd46c836a06233681665,64dc9aa6318c5b88f6d3ce32,,,,,,,decisionTrl,resources/DB.BMP,resources/DG.BMP,Door3,0.388888889,0.00462963,1,0,0,0.73,optionRight,70,8205,4,31,0,31,0,1,,,,,,,,,,,,,,,,,,,,,,,,,,,,,,,,,,,,,,,
,,,,,,,,2023-08-16_10h45.24.072,HF_wild_card,2022.2.4,Win32,60.0240096,6318ec19888839dfc0b4d5c8,64d2fd46c836a06233681665,64dc9aa6318c5b88f6d3ce32,,,,,,,decisionTrl,resources/DBN.BMP,resources/DY.BMP,Door2,0.501851852,-0.011111111,1,0,0,2.232,optionRight,40,8245,4,32,0,32,0,1,,,,,,,,,,,,,,,,,,,,,,,,,,,,,,,,,,,,,,,
,,,,,,,,2023-08-16_10h45.24.072,HF_wild_card,2022.2.4,Win32,60.0240096,6318ec19888839dfc0b4d5c8,64d2fd46c836a06233681665,64dc9aa6318c5b88f6d3ce32,,,,,,,sngl,resources/Empty.png,resources/DG.BMP,Door3,0.213888889,-0.000925926,1,0,0,0.432,optionRight,70,8315,4,33,0,33,0,1,,,,,,,,,,,,,,,,,,,,,,,,,,,,,,,,,,,,,,,
,,,,,,,,2023-08-16_10h45.24.072,HF_wild_card,2022.2.4,Win32,60.0240096,6318ec19888839dfc0b4d5c8,64d2fd46c836a06233681665,64dc9aa6318c5b88f6d3ce32,,,,,,,sngl,resources/DP.BMP,resources/Empty.png,WildCard_Ex,-0.343518519,-0.017592593,1,0,0,0.611,optionLeft,5,8320,4,34,0,34,0,1,,,,,,,,,,,,,,,,,,,,,,,,,,,,,,,,,,,,,,,
,,,,,,,,2023-08-16_10h45.24.072,HF_wild_card,2022.2.4,Win32,60.0240096,6318ec19888839dfc0b4d5c8,64d2fd46c836a06233681665,64dc9aa6318c5b88f6d3ce32,,,,,,,decisionTrl,resources/DY.BMP,resources/DBN.BMP,Door2,-0.334259259,0.027777778,1,0,0,0.831,optionLeft,20,8340,4,35,0,35,0,1,,,,,,,,,,,,,,,,,,,,,,,,,,,,,,,,,,,,,,,
,,,,,,,,2023-08-16_10h45.24.072,HF_wild_card,2022.2.4,Win32,60.0240096,6318ec19888839dfc0b4d5c8,64d2fd46c836a06233681665,64dc9aa6318c5b88f6d3ce32,,,,,,,decisionTrl,resources/DG.BMP,resources/DB.BMP,Door3,-0.276851852,-0.00462963,1,0,0,0.882,optionLeft,70,8410,4,36,0,36,0,1,,,,,,,,,,,,,,,,,,,,,,,,,,,,,,,,,,,,,,,
,,,,,,,,2023-08-16_10h45.24.072,HF_wild_card,2022.2.4,Win32,60.0240096,6318ec19888839dfc0b4d5c8,64d2fd46c836a06233681665,64dc9aa6318c5b88f6d3ce32,,,,,,,sngl,resources/Empty.png,resources/DB.BMP,Door4,0.434259259,0.059259259,1,0,0,16.617,optionRight,80,8490,4,37,0,37,0,1,,,,,,,,,,,,,,,,,,,,,,,,,,,,,,,,,,,,,,,
,,,,,,,,2023-08-16_10h45.24.072,HF_wild_card,2022.2.4,Win32,60.0240096,6318ec19888839dfc0b4d5c8,64d2fd46c836a06233681665,64dc9aa6318c5b88f6d3ce32,,,,,,,ctch,resources/DY.BMP,resources/DG.BMP,Door2,-0.453703704,-0.041666667,1,0,0,0.981,optionLeft,40,8530,4,38,0,38,0,1,,,,,,,,,,,,,,,,,,,,,,,,,,,,,,,,,,,,,,,
,,,,,,,,2023-08-16_10h45.24.072,HF_wild_card,2022.2.4,Win32,60.0240096,6318ec19888839dfc0b4d5c8,64d2fd46c836a06233681665,64dc9aa6318c5b88f6d3ce32,,,,,,,decisionTrl,resources/DBN.BMP,resources/DY.BMP,Door2,0.323148148,-0.075925926,1,0,0,0.882,optionRight,20,8550,4,39,0,39,0,1,,,,,,,,,,,,,,,,,,,,,,,,,,,,,,,,,,,,,,,
,,,,,,,,2023-08-16_10h45.24.072,HF_wild_card,2022.2.4,Win32,60.0240096,6318ec19888839dfc0b4d5c8,64d2fd46c836a06233681665,64dc9aa6318c5b88f6d3ce32,,,,,,,decisionTrl,resources/DBN.BMP,resources/DP.BMP,WildCard_Ex,0.468518519,-0.02037037,1,0,0,1.081,optionRight,95,8645,4,40,0,40,0,1,,,,,,,,,,,,,,,,,,,,,,,,,,,,,,,,,,,,,,,
,,,,,,,,2023-08-16_10h45.24.072,HF_wild_card,2022.2.4,Win32,60.0240096,6318ec19888839dfc0b4d5c8,64d2fd46c836a06233681665,64dc9aa6318c5b88f6d3ce32,,,,,,,sngl,resources/Empty.png,resources/DY.BMP,Door2,0.202777778,-0.018518519,1,0,0,1.282,optionRight,40,8685,4,41,0,41,0,1,,,,,,,,,,,,,,,,,,,,,,,,,,,,,,,,,,,,,,,
,,,,,,,,2023-08-16_10h45.24.072,HF_wild_card,2022.2.4,Win32,60.0240096,6318ec19888839dfc0b4d5c8,64d2fd46c836a06233681665,64dc9aa6318c5b88f6d3ce32,,,,,,,decisionTrl,resources/DP.BMP,resources/DBN.BMP,WildCard_Ex,-0.334259259,-0.043518519,1,0,0,0.862,optionLeft,95,8780,4,42,0,42,0,1,,,,,,,,,,,,,,,,,,,,,,,,,,,,,,,,,,,,,,,
,,,,,,,,2023-08-16_10h45.24.072,HF_wild_card,2022.2.4,Win32,60.0240096,6318ec19888839dfc0b4d5c8,64d2fd46c836a06233681665,64dc9aa6318c5b88f6d3ce32,,,,,,,decisionTrl,resources/DG.BMP,resources/DB.BMP,Door3,-0.371296296,-0.062962963,1,0,0,1.163,optionLeft,70,8850,4,43,0,43,0,1,,,,,,,,,,,,,,,,,,,,,,,,,,,,,,,,,,,,,,,
,,,,,,,,2023-08-16_10h45.24.072,HF_wild_card,2022.2.4,Win32,60.0240096,6318ec19888839dfc0b4d5c8,64d2fd46c836a06233681665,64dc9aa6318c5b88f6d3ce32,,,,,,,,,,,,,,,,,,,,,,,,,,3,0,3,0,1,,,,,,,,,,,,,,,,,,,,,,,,,,,,,,,,,,
,,,,,,,,2023-08-16_10h45.24.072,HF_wild_card,2022.2.4,Win32,60.0240096,6318ec19888839dfc0b4d5c8,64d2fd46c836a06233681665,64dc9aa6318c5b88f6d3ce32,,,,,,,decisionTrl,resources/DG.BMP,resources/DB.BMP,Door3,-0.317592593,-0.1,1,0,0,0.747,optionLeft,70,8920,5,0,0,0,0,1,,,,,,,,,,,,,,,,,,,,,,,,,,,,,,,,,,,,,,,
,,,,,,,,2023-08-16_10h45.24.072,HF_wild_card,2022.2.4,Win32,60.0240096,6318ec19888839dfc0b4d5c8,64d2fd46c836a06233681665,64dc9aa6318c5b88f6d3ce32,,,,,,,sngl,resources/Empty.png,resources/DP.BMP,WildCard_Ex,0.275,-0.008333333,1,0,0,0.597,optionRight,95,9015,5,1,0,1,0,1,,,,,,,,,,,,,,,,,,,,,,,,,,,,,,,,,,,,,,,
,,,,,,,,2023-08-16_10h45.24.072,HF_wild_card,2022.2.4,Win32,60.0240096,6318ec19888839dfc0b4d5c8,64d2fd46c836a06233681665,64dc9aa6318c5b88f6d3ce32,,,,,,,decisionTrl,resources/DBN.BMP,resources/DY.BMP,Door2,0.333333333,-0.037962963,1,0,0,0.747,optionRight,40,9055,5,2,0,2,0,1,,,,,,,,,,,,,,,,,,,,,,,,,,,,,,,,,,,,,,,
,,,,,,,,2023-08-16_10h45.24.072,HF_wild_card,2022.2.4,Win32,60.0240096,6318ec19888839dfc0b4d5c8,64d2fd46c836a06233681665,64dc9aa6318c5b88f6d3ce32,,,,,,,decisionTrl,resources/DG.BMP,resources/DB.BMP,Door3,-0.325925926,-0.05,1,0,0,0.678,optionLeft,70,9125,5,3,0,3,0,1,,,,,,,,,,,,,,,,,,,,,,,,,,,,,,,,,,,,,,,
,,,,,,,,2023-08-16_10h45.24.072,HF_wild_card,2022.2.4,Win32,60.0240096,6318ec19888839dfc0b4d5c8,64d2fd46c836a06233681665,64dc9aa6318c5b88f6d3ce32,,,,,,,decisionTrl,resources/DY.BMP,resources/DBN.BMP,Door2,-0.289814815,-0.001851852,1,0,0,0.715,optionLeft,20,9145,5,4,0,4,0,1,,,,,,,,,,,,,,,,,,,,,,,,,,,,,,,,,,,,,,,
,,,,,,,,2023-08-16_10h45.24.072,HF_wild_card,2022.2.4,Win32,60.0240096,6318ec19888839dfc0b4d5c8,64d2fd46c836a06233681665,64dc9aa6318c5b88f6d3ce32,,,,,,,decisionTrl,resources/DY.BMP,resources/DBN.BMP,Door2,-0.315740741,-0.028703704,1,0,0,0.696,optionLeft,20,9165,5,5,0,5,0,1,,,,,,,,,,,,,,,,,,,,,,,,,,,,,,,,,,,,,,,
,,,,,,,,2023-08-16_10h45.24.072,HF_wild_card,2022.2.4,Win32,60.0240096,6318ec19888839dfc0b4d5c8,64d2fd46c836a06233681665,64dc9aa6318c5b88f6d3ce32,,,,,,,sngl,resources/Empty.png,resources/DBN.BMP,Door1,0.163888889,-0.036111111,1,0,0,0.48,optionRight,30,9195,5,6,0,6,0,1,,,,,,,,,,,,,,,,,,,,,,,,,,,,,,,,,,,,,,,
,,,,,,,,2023-08-16_10h45.24.072,HF_wild_card,2022.2.4,Win32,60.0240096,6318ec19888839dfc0b4d5c8,64d2fd46c836a06233681665,64dc9aa6318c5b88f6d3ce32,,,,,,,sngl,resources/DG.BMP,resources/Empty.png,Door3,-0.227777778,0.006481481,1,0,0,0.514,optionLeft,70,9265,5,7,0,7,0,1,,,,,,,,,,,,,,,,,,,,,,,,,,,,,,,,,,,,,,,
,,,,,,,,2023-08-16_10h45.24.072,HF_wild_card,2022.2.4,Win32,60.0240096,6318ec19888839dfc0b4d5c8,64d2fd46c836a06233681665,64dc9aa6318c5b88f6d3ce32,,,,,,,decisionTrl,resources/DB.BMP,resources/DG.BMP,Door4,-0.416666667,-0.00462963,1,0,0,0.915,optionLeft,60,9325,5,8,0,8,0,1,,,,,,,,,,,,,,,,,,,,,,,,,,,,,,,,,,,,,,,
,,,,,,,,2023-08-16_10h45.24.072,HF_wild_card,2022.2.4,Win32,60.0240096,6318ec19888839dfc0b4d5c8,64d2fd46c836a06233681665,64dc9aa6318c5b88f6d3ce32,,,,,,,sngl,resources/DY.BMP,resources/Empty.png,Door2,-0.387037037,-0.082407407,1,0,0,0.48,optionLeft,40,9365,5,9,0,9,0,1,,,,,,,,,,,,,,,,,,,,,,,,,,,,,,,,,,,,,,,
,,,,,,,,2023-08-16_10h45.24.072,HF_wild_card,2022.2.4,Win32,60.0240096,6318ec19888839dfc0b4d5c8,64d2fd46c836a06233681665,64dc9aa6318c5b88f6d3ce32,,,,,,,decisionTrl,resources/DB.BMP,resources/DG.BMP,Door3,0.362037037,-0.021296296,1,0,0,1.182,optionRight,70,9435,5,10,0,10,0,1,,,,,,,,,,,,,,,,,,,,,,,,,,,,,,,,,,,,,,,
,,,,,,,,2023-08-16_10h45.24.072,HF_wild_card,2022.2.4,Win32,60.0240096,6318ec19888839dfc0b4d5c8,64d2fd46c836a06233681665,64dc9aa6318c5b88f6d3ce32,,,,,,,decisionTrl,resources/DG.BMP,resources/DB.BMP,Door3,-0.298148148,0.037962963,1,0,0,1.098,optionLeft,70,9505,5,11,0,11,0,1,,,,,,,,,,,,,,,,,,,,,,,,,,,,,,,,,,,,,,,
,,,,,,,,2023-08-16_10h45.24.072,HF_wild_card,2022.2.4,Win32,60.0240096,6318ec19888839dfc0b4d5c8,64d2fd46c836a06233681665,64dc9aa6318c5b88f6d3ce32,,,,,,,decisionTrl,resources/DBN.BMP,resources/DY.BMP,Door2,0.316666667,-0.014814815,1,0,0,0.828,optionRight,40,9545,5,12,0,12,0,1,,,,,,,,,,,,,,,,,,,,,,,,,,,,,,,,,,,,,,,
,,,,,,,,2023-08-16_10h45.24.072,HF_wild_card,2022.2.4,Win32,60.0240096,6318ec19888839dfc0b4d5c8,64d2fd46c836a06233681665,64dc9aa6318c5b88f6d3ce32,,,,,,,sngl,resources/Empty.png,resources/DG.BMP,Door3,0.251851852,-0.00462963,1,0,0,0.661,optionRight,70,9615,5,13,0,13,0,1,,,,,,,,,,,,,,,,,,,,,,,,,,,,,,,,,,,,,,,
,,,,,,,,2023-08-16_10h45.24.072,HF_wild_card,2022.2.4,Win32,60.0240096,6318ec19888839dfc0b4d5c8,64d2fd46c836a06233681665,64dc9aa6318c5b88f6d3ce32,,,,,,,decisionTrl,resources/DB.BMP,resources/DG.BMP,Door3,0.2,-0.049074074,1,0,0,1.048,optionRight,70,9685,5,14,0,14,0,1,,,,,,,,,,,,,,,,,,,,,,,,,,,,,,,,,,,,,,,
,,,,,,,,2023-08-16_10h45.24.072,HF_wild_card,2022.2.4,Win32,60.0240096,6318ec19888839dfc0b4d5c8,64d2fd46c836a06233681665,64dc9aa6318c5b88f6d3ce32,,,,,,,decisionTrl,resources/DY.BMP,resources/DP.BMP,WildCard_Ex,0.398148148,-0.037037037,1,0,0,0.915,optionRight,5,9690,5,15,0,15,0,1,,,,,,,,,,,,,,,,,,,,,,,,,,,,,,,,,,,,,,,
,,,,,,,,2023-08-16_10h45.24.072,HF_wild_card,2022.2.4,Win32,60.0240096,6318ec19888839dfc0b4d5c8,64d2fd46c836a06233681665,64dc9aa6318c5b88f6d3ce32,,,,,,,sngl,resources/Empty.png,resources/DP.BMP,WildCard_Ex,0.343518519,-0.032407407,1,0,0,0.682,optionRight,5,9695,5,16,0,16,0,1,,,,,,,,,,,,,,,,,,,,,,,,,,,,,,,,,,,,,,,
,,,,,,,,2023-08-16_10h45.24.072,HF_wild_card,2022.2.4,Win32,60.0240096,6318ec19888839dfc0b4d5c8,64d2fd46c836a06233681665,64dc9aa6318c5b88f6d3ce32,,,,,,,decisionTrl,resources/DB.BMP,resources/DG.BMP,Door3,0.326851852,-0.041666667,1,0,0,0.798,optionRight,70,9765,5,17,0,17,0,1,,,,,,,,,,,,,,,,,,,,,,,,,,,,,,,,,,,,,,,
,,,,,,,,2023-08-16_10h45.24.072,HF_wild_card,2022.2.4,Win32,60.0240096,6318ec19888839dfc0b4d5c8,64d2fd46c836a06233681665,64dc9aa6318c5b88f6d3ce32,,,,,,,ctch,resources/DBN.BMP,resources/DB.BMP,Door4,0.287962963,-0.035185185,1,0,0,0.898,optionRight,80,9845,5,18,0,18,0,1,,,,,,,,,,,,,,,,,,,,,,,,,,,,,,,,,,,,,,,
,,,,,,,,2023-08-16_10h45.24.072,HF_wild_card,2022.2.4,Win32,60.0240096,6318ec19888839dfc0b4d5c8,64d2fd46c836a06233681665,64dc9aa6318c5b88f6d3ce32,,,,,,,ctch,resources/DB.BMP,resources/DBN.BMP,Door4,-0.17962963,-0.051851852,1,0,0,1.461,optionLeft,60,9905,5,19,0,19,0,1,,,,,,,,,,,,,,,,,,,,,,,,,,,,,,,,,,,,,,,
,,,,,,,,2023-08-16_10h45.24.072,HF_wild_card,2022.2.4,Win32,60.0240096,6318ec19888839dfc0b4d5c8,64d2fd46c836a06233681665,64dc9aa6318c5b88f6d3ce32,,,,,,,ctch,resources/DG.BMP,resources/DY.BMP,Door3,-0.402777778,-0.040740741,1,0,0,2.763,optionLeft,70,9975,5,20,0,20,0,1,,,,,,,,,,,,,,,,,,,,,,,,,,,,,,,,,,,,,,,
,,,,,,,,2023-08-16_10h45.24.072,HF_wild_card,2022.2.4,Win32,60.0240096,6318ec19888839dfc0b4d5c8,64d2fd46c836a06233681665,64dc9aa6318c5b88f6d3ce32,,,,,,,decisionTrl,resources/DP.BMP,resources/DG.BMP,Door3,0.407407407,-0.027777778,1,0,0,0.931,optionRight,70,10045,5,21,0,21,0,1,,,,,,,,,,,,,,,,,,,,,,,,,,,,,,,,,,,,,,,
,,,,,,,,2023-08-16_10h45.24.072,HF_wild_card,2022.2.4,Win32,60.0240096,6318ec19888839dfc0b4d5c8,64d2fd46c836a06233681665,64dc9aa6318c5b88f6d3ce32,,,,,,,decisionTrl,resources/DP.BMP,resources/DB.BMP,WildCard_Ex,-0.280555556,-0.022222222,1,0,0,0.45,optionLeft,5,10050,5,22,0,22,0,1,,,,,,,,,,,,,,,,,,,,,,,,,,,,,,,,,,,,,,,
,,,,,,,,2023-08-16_10h45.24.072,HF_wild_card,2022.2.4,Win32,60.0240096,6318ec19888839dfc0b4d5c8,64d2fd46c836a06233681665,64dc9aa6318c5b88f6d3ce32,,,,,,,decisionTrl,resources/DBN.BMP,resources/DP.BMP,WildCard_Ex,0.290740741,-0.006481481,1,0,0,0.564,optionRight,5,10055,5,23,0,23,0,1,,,,,,,,,,,,,,,,,,,,,,,,,,,,,,,,,,,,,,,
,,,,,,,,2023-08-16_10h45.24.072,HF_wild_card,2022.2.4,Win32,60.0240096,6318ec19888839dfc0b4d5c8,64d2fd46c836a06233681665,64dc9aa6318c5b88f6d3ce32,,,,,,,sngl,resources/Empty.png,resources/DY.BMP,Door2,0.22037037,-0.007407407,1,0,0,0.482,optionRight,20,10075,5,24,0,24,0,1,,,,,,,,,,,,,,,,,,,,,,,,,,,,,,,,,,,,,,,
,,,,,,,,2023-08-16_10h45.24.072,HF_wild_card,2022.2.4,Win32,60.0240096,6318ec19888839dfc0b4d5c8,64d2fd46c836a06233681665,64dc9aa6318c5b88f6d3ce32,,,,,,,decisionTrl,resources/DB.BMP,resources/DP.BMP,WildCard_Ex,0.306481481,-0.02037037,1,0,0,1.114,optionRight,95,10170,5,25,0,25,0,1,,,,,,,,,,,,,,,,,,,,,,,,,,,,,,,,,,,,,,,
,,,,,,,,2023-08-16_10h45.24.072,HF_wild_card,2022.2.4,Win32,60.0240096,6318ec19888839dfc0b4d5c8,64d2fd46c836a06233681665,64dc9aa6318c5b88f6d3ce32,,,,,,,decisionTrl,resources/DY.BMP,resources/DBN.BMP,Door2,-0.300925926,-0.012037037,1,0,0,0.764,optionLeft,40,10210,5,26,0,26,0,1,,,,,,,,,,,,,,,,,,,,,,,,,,,,,,,,,,,,,,,
,,,,,,,,2023-08-16_10h45.24.072,HF_wild_card,2022.2.4,Win32,60.0240096,6318ec19888839dfc0b4d5c8,64d2fd46c836a06233681665,64dc9aa6318c5b88f6d3ce32,,,,,,,ctch,resources/DY.BMP,resources/DG.BMP,Door2,-0.25462963,-0.016666667,1,0,0,0.465,optionLeft,20,10230,5,27,0,27,0,1,,,,,,,,,,,,,,,,,,,,,,,,,,,,,,,,,,,,,,,
,,,,,,,,2023-08-16_10h45.24.072,HF_wild_card,2022.2.4,Win32,60.0240096,6318ec19888839dfc0b4d5c8,64d2fd46c836a06233681665,64dc9aa6318c5b88f6d3ce32,,,,,,,sngl,resources/DB.BMP,resources/Empty.png,Door4,-0.341666667,0.037037037,1,0,0,8.249,optionLeft,80,10310,5,28,0,28,0,1,,,,,,,,,,,,,,,,,,,,,,,,,,,,,,,,,,,,,,,
,,,,,,,,2023-08-16_10h45.24.072,HF_wild_card,2022.2.4,Win32,60.0240096,6318ec19888839dfc0b4d5c8,64d2fd46c836a06233681665,64dc9aa6318c5b88f6d3ce32,,,,,,,sngl,resources/DBN.BMP,resources/Empty.png,Door1,-0.249074074,-0.005555556,1,0,0,0.415,optionLeft,30,10340,5,29,0,29,0,1,,,,,,,,,,,,,,,,,,,,,,,,,,,,,,,,,,,,,,,
,,,,,,,,2023-08-16_10h45.24.072,HF_wild_card,2022.2.4,Win32,60.0240096,6318ec19888839dfc0b4d5c8,64d2fd46c836a06233681665,64dc9aa6318c5b88f6d3ce32,,,,,,,decisionTrl,resources/DBN.BMP,resources/DY.BMP,Door2,0.287962963,-0.018518519,1,0,0,0.448,optionRight,20,10360,5,30,0,30,0,1,,,,,,,,,,,,,,,,,,,,,,,,,,,,,,,,,,,,,,,
,,,,,,,,2023-08-16_10h45.24.072,HF_wild_card,2022.2.4,Win32,60.0240096,6318ec19888839dfc0b4d5c8,64d2fd46c836a06233681665,64dc9aa6318c5b88f6d3ce32,,,,,,,sngl,resources/DP.BMP,resources/Empty.png,WildCard_Ex,-0.253703704,-0.093518519,1,0,0,0.549,optionLeft,95,10455,5,31,0,31,0,1,,,,,,,,,,,,,,,,,,,,,,,,,,,,,,,,,,,,,,,
,,,,,,,,2023-08-16_10h45.24.072,HF_wild_card,2022.2.4,Win32,60.0240096,6318ec19888839dfc0b4d5c8,64d2fd46c836a06233681665,64dc9aa6318c5b88f6d3ce32,,,,,,,decisionTrl,resources/DG.BMP,resources/DP.BMP,WildCard_Ex,0.340740741,-0.009259259,1,0,0,0.515,optionRight,5,10460,5,32,0,32,0,1,,,,,,,,,,,,,,,,,,,,,,,,,,,,,,,,,,,,,,,
,,,,,,,,2023-08-16_10h45.24.072,HF_wild_card,2022.2.4,Win32,60.0240096,6318ec19888839dfc0b4d5c8,64d2fd46c836a06233681665,64dc9aa6318c5b88f6d3ce32,,,,,,,decisionTrl,resources/DY.BMP,resources/DBN.BMP,Door2,-0.271296296,-0.049074074,1,0,0,0.564,optionLeft,20,10480,5,33,0,33,0,1,,,,,,,,,,,,,,,,,,,,,,,,,,,,,,,,,,,,,,,
,,,,,,,,2023-08-16_10h45.24.072,HF_wild_card,2022.2.4,Win32,60.0240096,6318ec19888839dfc0b4d5c8,64d2fd46c836a06233681665,64dc9aa6318c5b88f6d3ce32,,,,,,,ctch,resources/DY.BMP,resources/DG.BMP,Door3,0.161111111,0.027777778,1,0,0,0.465,optionRight,70,10550,5,34,0,34,0,1,,,,,,,,,,,,,,,,,,,,,,,,,,,,,,,,,,,,,,,
,,,,,,,,2023-08-16_10h45.24.072,HF_wild_card,2022.2.4,Win32,60.0240096,6318ec19888839dfc0b4d5c8,64d2fd46c836a06233681665,64dc9aa6318c5b88f6d3ce32,,,,,,,sngl,resources/Empty.png,resources/DB.BMP,Door4,0.239814815,-0.007407407,1,0,0,0.477,optionRight,60,10610,5,35,0,35,0,1,,,,,,,,,,,,,,,,,,,,,,,,,,,,,,,,,,,,,,,
,,,,,,,,2023-08-16_10h45.24.072,HF_wild_card,2022.2.4,Win32,60.0240096,6318ec19888839dfc0b4d5c8,64d2fd46c836a06233681665,64dc9aa6318c5b88f6d3ce32,,,,,,,ctch,resources/DB.BMP,resources/DBN.BMP,Door4,-0.40462963,0.1,1,0,0,3.677,optionLeft,80,10690,5,36,0,36,0,1,,,,,,,,,,,,,,,,,,,,,,,,,,,,,,,,,,,,,,,
,,,,,,,,2023-08-16_10h45.24.072,HF_wild_card,2022.2.4,Win32,60.0240096,6318ec19888839dfc0b4d5c8,64d2fd46c836a06233681665,64dc9aa6318c5b88f6d3ce32,,,,,,,ctch,resources/DG.BMP,resources/DY.BMP,Door3,-0.4,-0.060185185,1,0,0,0.831,optionLeft,70,10760,5,37,0,37,0,1,,,,,,,,,,,,,,,,,,,,,,,,,,,,,,,,,,,,,,,
,,,,,,,,2023-08-16_10h45.24.072,HF_wild_card,2022.2.4,Win32,60.0240096,6318ec19888839dfc0b4d5c8,64d2fd46c836a06233681665,64dc9aa6318c5b88f6d3ce32,,,,,,,decisionTrl,resources/DBN.BMP,resources/DY.BMP,Door2,0.425,0.008333333,1,0,0,0.715,optionRight,40,10800,5,38,0,38,0,1,,,,,,,,,,,,,,,,,,,,,,,,,,,,,,,,,,,,,,,
,,,,,,,,2023-08-16_10h45.24.072,HF_wild_card,2022.2.4,Win32,60.0240096,6318ec19888839dfc0b4d5c8,64d2fd46c836a06233681665,64dc9aa6318c5b88f6d3ce32,,,,,,,ctch,resources/DBN.BMP,resources/DB.BMP,Door4,0.318518519,-0.02962963,1,0,0,1.181,optionRight,60,10860,5,39,0,39,0,1,,,,,,,,,,,,,,,,,,,,,,,,,,,,,,,,,,,,,,,
,,,,,,,,2023-08-16_10h45.24.072,HF_wild_card,2022.2.4,Win32,60.0240096,6318ec19888839dfc0b4d5c8,64d2fd46c836a06233681665,64dc9aa6318c5b88f6d3ce32,,,,,,,decisionTrl,resources/DG.BMP,resources/DB.BMP,Door3,-0.344444444,-0.085185185,1,0,0,0.696,optionLeft,70,10930,5,40,0,40,0,1,,,,,,,,,,,,,,,,,,,,,,,,,,,,,,,,,,,,,,,
,,,,,,,,2023-08-16_10h45.24.072,HF_wild_card,2022.2.4,Win32,60.0240096,6318ec19888839dfc0b4d5c8,64d2fd46c836a06233681665,64dc9aa6318c5b88f6d3ce32,,,,,,,decisionTrl,resources/DP.BMP,resources/DBN.BMP,WildCard_Ex,-0.224074074,-0.002777778,1,0,0,1.048,optionLeft,5,10935,5,41,0,41,0,1,,,,,,,,,,,,,,,,,,,,,,,,,,,,,,,,,,,,,,,
,,,,,,,,2023-08-16_10h45.24.072,HF_wild_card,2022.2.4,Win32,60.0240096,6318ec19888839dfc0b4d5c8,64d2fd46c836a06233681665,64dc9aa6318c5b88f6d3ce32,,,,,,,sngl,resources/DP.BMP,resources/Empty.png,WildCard_Ex,-0.272222222,-0.02962963,1,0,0,0.382,optionLeft,5,10940,5,42,0,42,0,1,,,,,,,,,,,,,,,,,,,,,,,,,,,,,,,,,,,,,,,
,,,,,,,,2023-08-16_10h45.24.072,HF_wild_card,2022.2.4,Win32,60.0240096,6318ec19888839dfc0b4d5c8,64d2fd46c836a06233681665,64dc9aa6318c5b88f6d3ce32,,,,,,,decisionTrl,resources/DP.BMP,resources/DY.BMP,WildCard_Ex,-0.22962963,-0.043518519,1,0,0,0.415,optionLeft,95,11035,5,43,0,43,0,1,,,,,,,,,,,,,,,,,,,,,,,,,,,,,,,,,,,,,,,
,,,,,,,,2023-08-16_10h45.24.072,HF_wild_card,2022.2.4,Win32,60.0240096,6318ec19888839dfc0b4d5c8,64d2fd46c836a06233681665,64dc9aa6318c5b88f6d3ce32,,,,,,,,,,,,,,,,,,,,,,,,,,4,0,4,0,1,,,,,,,,,,,,,,,,,,,,,,,,,,,,,,,,,,
,,,,,,,,2023-08-16_10h45.24.072,HF_wild_card,2022.2.4,Win32,60.0240096,6318ec19888839dfc0b4d5c8,64d2fd46c836a06233681665,64dc9aa6318c5b88f6d3ce32,,,,,,,decisionTrl,resources/DBN.BMP,resources/DY.BMP,Door2,0.433333333,-0.063888889,1,0,0,0.848,optionRight,40,11075,6,0,0,0,0,1,,,,,,,,,,,,,,,,,,,,,,,,,,,,,,,,,,,,,,,
,,,,,,,,2023-08-16_10h45.24.072,HF_wild_card,2022.2.4,Win32,60.0240096,6318ec19888839dfc0b4d5c8,64d2fd46c836a06233681665,64dc9aa6318c5b88f6d3ce32,,,,,,,sngl,resources/DG.BMP,resources/Empty.png,Door3,-0.271296296,-0.047222222,1,0,0,0.431,optionLeft,70,11145,6,1,0,1,0,1,,,,,,,,,,,,,,,,,,,,,,,,,,,,,,,,,,,,,,,
,,,,,,,,2023-08-16_10h45.24.072,HF_wild_card,2022.2.4,Win32,60.0240096,6318ec19888839dfc0b4d5c8,64d2fd46c836a06233681665,64dc9aa6318c5b88f6d3ce32,,,,,,,ctch,resources/DY.BMP,resources/DG.BMP,Door3,0.197222222,-0.030555556,1,0,0,0.45,optionRight,70,11215,6,2,0,2,0,1,,,,,,,,,,,,,,,,,,,,,,,,,,,,,,,,,,,,,,,
,,,,,,,,2023-08-16_10h45.24.072,HF_wild_card,2022.2.4,Win32,60.0240096,6318ec19888839dfc0b4d5c8,64d2fd46c836a06233681665,64dc9aa6318c5b88f6d3ce32,,,,,,,ctch,resources/DB.BMP,resources/DBN.BMP,Door4,-0.417592593,-0.067592593,1,0,0,0.694,optionLeft,60,11275,6,3,0,3,0,1,,,,,,,,,,,,,,,,,,,,,,,,,,,,,,,,,,,,,,,
,,,,,,,,2023-08-16_10h45.24.072,HF_wild_card,2022.2.4,Win32,60.0240096,6318ec19888839dfc0b4d5c8,64d2fd46c836a06233681665,64dc9aa6318c5b88f6d3ce32,,,,,,,decisionTrl,resources/DG.BMP,resources/DB.BMP,Door3,-0.264814815,-0.075925926,1,0,0,0.514,optionLeft,70,11345,6,4,0,4,0,1,,,,,,,,,,,,,,,,,,,,,,,,,,,,,,,,,,,,,,,
,,,,,,,,2023-08-16_10h45.24.072,HF_wild_card,2022.2.4,Win32,60.0240096,6318ec19888839dfc0b4d5c8,64d2fd46c836a06233681665,64dc9aa6318c5b88f6d3ce32,,,,,,,sngl,resources/Empty.png,resources/DBN.BMP,Door1,-0.012962963,-0.074074074,1,0,0,0.532,optionRight,30,11375,6,5,0,5,0,1,,,,,,,,,,,,,,,,,,,,,,,,,,,,,,,,,,,,,,,
,,,,,,,,2023-08-16_10h45.24.072,HF_wild_card,2022.2.4,Win32,60.0240096,6318ec19888839dfc0b4d5c8,64d2fd46c836a06233681665,64dc9aa6318c5b88f6d3ce32,,,,,,,decisionTrl,resources/DP.BMP,resources/DG.BMP,Door3,0.174074074,0.012037037,1,0,0,0.564,optionRight,70,11445,6,6,0,6,0,1,,,,,,,,,,,,,,,,,,,,,,,,,,,,,,,,,,,,,,,
,,,,,,,,2023-08-16_10h45.24.072,HF_wild_card,2022.2.4,Win32,60.0240096,6318ec19888839dfc0b4d5c8,64d2fd46c836a06233681665,64dc9aa6318c5b88f6d3ce32,,,,,,,decisionTrl,resources/DB.BMP,resources/DG.BMP,Door3,0.24537037,0.006481481,1,0,0,0.481,optionRight,70,11515,6,7,0,7,0,1,,,,,,,,,,,,,,,,,,,,,,,,,,,,,,,,,,,,,,,
,,,,,,,,2023-08-16_10h45.24.072,HF_wild_card,2022.2.4,Win32,60.0240096,6318ec19888839dfc0b4d5c8,64d2fd46c836a06233681665,64dc9aa6318c5b88f6d3ce32,,,,,,,decisionTrl,resources/DB.BMP,resources/DG.BMP,Door3,0.256481481,-0.011111111,1,0,0,0.364,optionRight,70,11585,6,8,0,8,0,1,,,,,,,,,,,,,,,,,,,,,,,,,,,,,,,,,,,,,,,
,,,,,,,,2023-08-16_10h45.24.072,HF_wild_card,2022.2.4,Win32,60.0240096,6318ec19888839dfc0b4d5c8,64d2fd46c836a06233681665,64dc9aa6318c5b88f6d3ce32,,,,,,,sngl,resources/Empty.png,resources/DY.BMP,Door2,0.313888889,-0.02962963,1,0,0,0.432,optionRight,40,11625,6,9,0,9,0,1,,,,,,,,,,,,,,,,,,,,,,,,,,,,,,,,,,,,,,,
,,,,,,,,2023-08-16_10h45.24.072,HF_wild_card,2022.2.4,Win32,60.0240096,6318ec19888839dfc0b4d5c8,64d2fd46c836a06233681665,64dc9aa6318c5b88f6d3ce32,,,,,,,decisionTrl,resources/DBN.BMP,resources/DP.BMP,Door1,-0.216666667,-0.039814815,1,0,0,0.464,optionLeft,30,11655,6,10,0,10,0,1,,,,,,,,,,,,,,,,,,,,,,,,,,,,,,,,,,,,,,,
,,,,,,,,2023-08-16_10h45.24.072,HF_wild_card,2022.2.4,Win32,60.0240096,6318ec19888839dfc0b4d5c8,64d2fd46c836a06233681665,64dc9aa6318c5b88f6d3ce32,,,,,,,sngl,resources/Empty.png,resources/DG.BMP,Door3,0.236111111,-0.00462963,1,0,0,0.398,optionRight,70,11725,6,11,0,11,0,1,,,,,,,,,,,,,,,,,,,,,,,,,,,,,,,,,,,,,,,
,,,,,,,,2023-08-16_10h45.24.072,HF_wild_card,2022.2.4,Win32,60.0240096,6318ec19888839dfc0b4d5c8,64d2fd46c836a06233681665,64dc9aa6318c5b88f6d3ce32,,,,,,,decisionTrl,resources/DY.BMP,resources/DBN.BMP,Door2,-0.244444444,-0.013888889,1,0,0,0.549,optionLeft,40,11765,6,12,0,12,0,1,,,,,,,,,,,,,,,,,,,,,,,,,,,,,,,,,,,,,,,
,,,,,,,,2023-08-16_10h45.24.072,HF_wild_card,2022.2.4,Win32,60.0240096,6318ec19888839dfc0b4d5c8,64d2fd46c836a06233681665,64dc9aa6318c5b88f6d3ce32,,,,,,,decisionTrl,resources/DP.BMP,resources/DB.BMP,WildCard_Ex,-0.216666667,0.017592593,1,0,0,0.664,optionLeft,95,11860,6,13,0,13,0,1,,,,,,,,,,,,,,,,,,,,,,,,,,,,,,,,,,,,,,,
,,,,,,,,2023-08-16_10h45.24.072,HF_wild_card,2022.2.4,Win32,60.0240096,6318ec19888839dfc0b4d5c8,64d2fd46c836a06233681665,64dc9aa6318c5b88f6d3ce32,,,,,,,sngl,resources/Empty.png,resources/DP.BMP,WildCard_Ex,0.290740741,-0.001851852,1,0,0,0.681,optionRight,95,11955,6,14,0,14,0,1,,,,,,,,,,,,,,,,,,,,,,,,,,,,,,,,,,,,,,,
,,,,,,,,2023-08-16_10h45.24.072,HF_wild_card,2022.2.4,Win32,60.0240096,6318ec19888839dfc0b4d5c8,64d2fd46c836a06233681665,64dc9aa6318c5b88f6d3ce32,,,,,,,sngl,resources/DP.BMP,resources/Empty.png,WildCard_Ex,-0.224074074,-0.011111111,1,0,0,0.548,optionLeft,95,12050,6,15,0,15,0,1,,,,,,,,,,,,,,,,,,,,,,,,,,,,,,,,,,,,,,,
,,,,,,,,2023-08-16_10h45.24.072,HF_wild_card,2022.2.4,Win32,60.0240096,6318ec19888839dfc0b4d5c8,64d2fd46c836a06233681665,64dc9aa6318c5b88f6d3ce32,,,,,,,decisionTrl,resources/DY.BMP,resources/DP.BMP,WildCard_Ex,0.302777778,-0.013888889,1,0,0,0.413,optionRight,95,12145,6,16,0,16,0,1,,,,,,,,,,,,,,,,,,,,,,,,,,,,,,,,,,,,,,,
,,,,,,,,2023-08-16_10h45.24.072,HF_wild_card,2022.2.4,Win32,60.0240096,6318ec19888839dfc0b4d5c8,64d2fd46c836a06233681665,64dc9aa6318c5b88f6d3ce32,,,,,,,ctch,resources/DG.BMP,resources/DY.BMP,Door3,-0.293518519,-0.008333333,1,0,0,0.598,optionLeft,70,12215,6,17,0,17,0,1,,,,,,,,,,,,,,,,,,,,,,,,,,,,,,,,,,,,,,,
,,,,,,,,2023-08-16_10h45.24.072,HF_wild_card,2022.2.4,Win32,60.0240096,6318ec19888839dfc0b4d5c8,64d2fd46c836a06233681665,64dc9aa6318c5b88f6d3ce32,,,,,,,ctch,resources/DG.BMP,resources/DY.BMP,Door3,-0.343518519,-0.030555556,1,0,0,0.832,optionLeft,70,12285,6,18,0,18,0,1,,,,,,,,,,,,,,,,,,,,,,,,,,,,,,,,,,,,,,,
,,,,,,,,2023-08-16_10h45.24.072,HF_wild_card,2022.2.4,Win32,60.0240096,6318ec19888839dfc0b4d5c8,64d2fd46c836a06233681665,64dc9aa6318c5b88f6d3ce32,,,,,,,sngl,resources/Empty.png,resources/DP.BMP,WildCard_Ex,0.200925926,-0.053703704,1,0,0,0.447,optionRight,5,12290,6,19,0,19,0,1,,,,,,,,,,,,,,,,,,,,,,,,,,,,,,,,,,,,,,,
,,,,,,,,2023-08-16_10h45.24.072,HF_wild_card,2022.2.4,Win32,60.0240096,6318ec19888839dfc0b4d5c8,64d2fd46c836a06233681665,64dc9aa6318c5b88f6d3ce32,,,,,,,decisionTrl,resources/DG.BMP,resources/DB.BMP,Door3,-0.316666667,-0.050925926,1,0,0,0.611,optionLeft,70,12360,6,20,0,20,0,1,,,,,,,,,,,,,,,,,,,,,,,,,,,,,,,,,,,,,,,
,,,,,,,,2023-08-16_10h45.24.072,HF_wild_card,2022.2.4,Win32,60.0240096,6318ec19888839dfc0b4d5c8,64d2fd46c836a06233681665,64dc9aa6318c5b88f6d3ce32,,,,,,,sngl,resources/Empty.png,resources/DB.BMP,Door4,0.213888889,-0.030555556,1,0,0,0.465,optionRight,80,12440,6,21,0,21,0,1,,,,,,,,,,,,,,,,,,,,,,,,,,,,,,,,,,,,,,,
,,,,,,,,2023-08-16_10h45.24.072,HF_wild_card,2022.2.4,Win32,60.0240096,6318ec19888839dfc0b4d5c8,64d2fd46c836a06233681665,64dc9aa6318c5b88f6d3ce32,,,,,,,decisionTrl,resources/DP.BMP,resources/DY.BMP,WildCard_Ex,-0.273148148,-0.033333333,1,0,0,0.748,optionLeft,95,12535,6,22,0,22,0,1,,,,,,,,,,,,,,,,,,,,,,,,,,,,,,,,,,,,,,,
,,,,,,,,2023-08-16_10h45.24.072,HF_wild_card,2022.2.4,Win32,60.0240096,6318ec19888839dfc0b4d5c8,64d2fd46c836a06233681665,64dc9aa6318c5b88f6d3ce32,,,,,,,decisionTrl,resources/DG.BMP,resources/DB.BMP,Door3,-0.298148148,-0.031481481,1,0,0,0.665,optionLeft,70,12605,6,23,0,23,0,1,,,,,,,,,,,,,,,,,,,,,,,,,,,,,,,,,,,,,,,
,,,,,,,,2023-08-16_10h45.24.072,HF_wild_card,2022.2.4,Win32,60.0240096,6318ec19888839dfc0b4d5c8,64d2fd46c836a06233681665,64dc9aa6318c5b88f6d3ce32,,,,,,,decisionTrl,resources/DB.BMP,resources/DG.BMP,Door3,0.375,-0.008333333,1,0,0,0.731,optionRight,70,12675,6,24,0,24,0,1,,,,,,,,,,,,,,,,,,,,,,,,,,,,,,,,,,,,,,,
,,,,,,,,2023-08-16_10h45.24.072,HF_wild_card,2022.2.4,Win32,60.0240096,6318ec19888839dfc0b4d5c8,64d2fd46c836a06233681665,64dc9aa6318c5b88f6d3ce32,,,,,,,sngl,resources/DY.BMP,resources/Empty.png,Door2,-0.257407407,-0.050925926,1,0,0,0.598,optionLeft,20,12695,6,25,0,25,0,1,,,,,,,,,,,,,,,,,,,,,,,,,,,,,,,,,,,,,,,
,,,,,,,,2023-08-16_10h45.24.072,HF_wild_card,2022.2.4,Win32,60.0240096,6318ec19888839dfc0b4d5c8,64d2fd46c836a06233681665,64dc9aa6318c5b88f6d3ce32,,,,,,,decisionTrl,resources/DY.BMP,resources/DBN.BMP,Door2,-0.269444444,-0.007407407,1,0,0,0.531,optionLeft,20,12715,6,26,0,26,0,1,,,,,,,,,,,,,,,,,,,,,,,,,,,,,,,,,,,,,,,
,,,,,,,,2023-08-16_10h45.24.072,HF_wild_card,2022.2.4,Win32,60.0240096,6318ec19888839dfc0b4d5c8,64d2fd46c836a06233681665,64dc9aa6318c5b88f6d3ce32,,,,,,,decisionTrl,resources/DG.BMP,resources/DP.BMP,WildCard_Ex,0.35,-0.025,1,0,0,0.483,optionRight,5,12720,6,27,0,27,0,1,,,,,,,,,,,,,,,,,,,,,,,,,,,,,,,,,,,,,,,
,,,,,,,,2023-08-16_10h45.24.072,HF_wild_card,2022.2.4,Win32,60.0240096,6318ec19888839dfc0b4d5c8,64d2fd46c836a06233681665,64dc9aa6318c5b88f6d3ce32,,,,,,,decisionTrl,resources/DY.BMP,resources/DBN.BMP,Door2,-0.216666667,-0.037962963,1,0,0,0.531,optionLeft,40,12760,6,28,0,28,0,1,,,,,,,,,,,,,,,,,,,,,,,,,,,,,,,,,,,,,,,
,,,,,,,,2023-08-16_10h45.24.072,HF_wild_card,2022.2.4,Win32,60.0240096,6318ec19888839dfc0b4d5c8,64d2fd46c836a06233681665,64dc9aa6318c5b88f6d3ce32,,,,,,,decisionTrl,resources/DY.BMP,resources/DBN.BMP,Door2,-0.339814815,-0.011111111,1,0,0,0.597,optionLeft,20,12780,6,29,0,29,0,1,,,,,,,,,,,,,,,,,,,,,,,,,,,,,,,,,,,,,,,
,,,,,,,,2023-08-16_10h45.24.072,HF_wild_card,2022.2.4,Win32,60.0240096,6318ec19888839dfc0b4d5c8,64d2fd46c836a06233681665,64dc9aa6318c5b88f6d3ce32,,,,,,,sngl,resources/DBN.BMP,resources/Empty.png,Door1,-0.289814815,-0.014814815,1,0,0,0.682,optionLeft,30,12810,6,30,0,30,0,1,,,,,,,,,,,,,,,,,,,,,,,,,,,,,,,,,,,,,,,
,,,,,,,,2023-08-16_10h45.24.072,HF_wild_card,2022.2.4,Win32,60.0240096,6318ec19888839dfc0b4d5c8,64d2fd46c836a06233681665,64dc9aa6318c5b88f6d3ce32,,,,,,,ctch,resources/DBN.BMP,resources/DB.BMP,Door4,0.266666667,-0.042592593,1,0,0,0.666,optionRight,80,12890,6,31,0,31,0,1,,,,,,,,,,,,,,,,,,,,,,,,,,,,,,,,,,,,,,,
,,,,,,,,2023-08-16_10h45.24.072,HF_wild_card,2022.2.4,Win32,60.0240096,6318ec19888839dfc0b4d5c8,64d2fd46c836a06233681665,64dc9aa6318c5b88f6d3ce32,,,,,,,decisionTrl,resources/DB.BMP,resources/DP.BMP,WildCard_Ex,0.39537037,-0.019444444,1,0,0,0.849,optionRight,95,12985,6,32,0,32,0,1,,,,,,,,,,,,,,,,,,,,,,,,,,,,,,,,,,,,,,,
,,,,,,,,2023-08-16_10h45.24.072,HF_wild_card,2022.2.4,Win32,60.0240096,6318ec19888839dfc0b4d5c8,64d2fd46c836a06233681665,64dc9aa6318c5b88f6d3ce32,,,,,,,decisionTrl,resources/DB.BMP,resources/DG.BMP,Door4,-0.293518519,-0.017592593,1,0,0,0.616,optionLeft,60,13045,6,33,0,33,0,1,,,,,,,,,,,,,,,,,,,,,,,,,,,,,,,,,,,,,,,
,,,,,,,,2023-08-16_10h45.24.072,HF_wild_card,2022.2.4,Win32,60.0240096,6318ec19888839dfc0b4d5c8,64d2fd46c836a06233681665,64dc9aa6318c5b88f6d3ce32,,,,,,,ctch,resources/DBN.BMP,resources/DB.BMP,Door4,0.391666667,-0.003703704,1,0,0,0.744,optionRight,80,13125,6,34,0,34,0,1,,,,,,,,,,,,,,,,,,,,,,,,,,,,,,,,,,,,,,,
,,,,,,,,2023-08-16_10h45.24.072,HF_wild_card,2022.2.4,Win32,60.0240096,6318ec19888839dfc0b4d5c8,64d2fd46c836a06233681665,64dc9aa6318c5b88f6d3ce32,,,,,,,decisionTrl,resources/DBN.BMP,resources/DY.BMP,Door2,0.203703704,0.002777778,1,0,0,0.68,optionRight,20,13145,6,35,0,35,0,1,,,,,,,,,,,,,,,,,,,,,,,,,,,,,,,,,,,,,,,
,,,,,,,,2023-08-16_10h45.24.072,HF_wild_card,2022.2.4,Win32,60.0240096,6318ec19888839dfc0b4d5c8,64d2fd46c836a06233681665,64dc9aa6318c5b88f6d3ce32,,,,,,,decisionTrl,resources/DG.BMP,resources/DB.BMP,Door3,-0.283333333,-0.006481481,1,0,0,0.413,optionLeft,70,13215,6,36,0,36,0,1,,,,,,,,,,,,,,,,,,,,,,,,,,,,,,,,,,,,,,,
,,,,,,,,2023-08-16_10h45.24.072,HF_wild_card,2022.2.4,Win32,60.0240096,6318ec19888839dfc0b4d5c8,64d2fd46c836a06233681665,64dc9aa6318c5b88f6d3ce32,,,,,,,decisionTrl,resources/DP.BMP,resources/DBN.BMP,WildCard_Ex,-0.323148148,0.002777778,1,0,0,0.463,optionLeft,95,13310,6,37,0,37,0,1,,,,,,,,,,,,,,,,,,,,,,,,,,,,,,,,,,,,,,,
,,,,,,,,2023-08-16_10h45.24.072,HF_wild_card,2022.2.4,Win32,60.0240096,6318ec19888839dfc0b4d5c8,64d2fd46c836a06233681665,64dc9aa6318c5b88f6d3ce32,,,,,,,decisionTrl,resources/DBN.BMP,resources/DY.BMP,Door2,0.366666667,0.005555556,1,0,0,0.93,optionRight,40,13350,6,38,0,38,0,1,,,,,,,,,,,,,,,,,,,,,,,,,,,,,,,,,,,,,,,
,,,,,,,,2023-08-16_10h45.24.072,HF_wild_card,2022.2.4,Win32,60.0240096,6318ec19888839dfc0b4d5c8,64d2fd46c836a06233681665,64dc9aa6318c5b88f6d3ce32,,,,,,,sngl,resources/DB.BMP,resources/Empty.png,Door4,-0.257407407,-0.033333333,1,0,0,0.447,optionLeft,60,13410,6,39,0,39,0,1,,,,,,,,,,,,,,,,,,,,,,,,,,,,,,,,,,,,,,,
,,,,,,,,2023-08-16_10h45.24.072,HF_wild_card,2022.2.4,Win32,60.0240096,6318ec19888839dfc0b4d5c8,64d2fd46c836a06233681665,64dc9aa6318c5b88f6d3ce32,,,,,,,ctch,resources/DY.BMP,resources/DG.BMP,Door3,0.335185185,-0.02962963,1,0,0,0.515,optionRight,70,13480,6,40,0,40,0,1,,,,,,,,,,,,,,,,,,,,,,,,,,,,,,,,,,,,,,,
,,,,,,,,2023-08-16_10h45.24.072,HF_wild_card,2022.2.4,Win32,60.0240096,6318ec19888839dfc0b4d5c8,64d2fd46c836a06233681665,64dc9aa6318c5b88f6d3ce32,,,,,,,decisionTrl,resources/DBN.BMP,resources/DY.BMP,Door2,0.286111111,-0.02037037,1,0,0,0.682,optionRight,40,13520,6,41,0,41,0,1,,,,,,,,,,,,,,,,,,,,,,,,,,,,,,,,,,,,,,,
,,,,,,,,2023-08-16_10h45.24.072,HF_wild_card,2022.2.4,Win32,60.0240096,6318ec19888839dfc0b4d5c8,64d2fd46c836a06233681665,64dc9aa6318c5b88f6d3ce32,,,,,,,ctch,resources/DB.BMP,resources/DBN.BMP,Door4,-0.286111111,-0.021296296,1,0,0,0.481,optionLeft,80,13600,6,42,0,42,0,1,,,,,,,,,,,,,,,,,,,,,,,,,,,,,,,,,,,,,,,
,,,,,,,,2023-08-16_10h45.24.072,HF_wild_card,2022.2.4,Win32,60.0240096,6318ec19888839dfc0b4d5c8,64d2fd46c836a06233681665,64dc9aa6318c5b88f6d3ce32,,,,,,,sngl,resources/DP.BMP,resources/Empty.png,WildCard_Ex,-0.275,-0.006481481,1,0,0,0.482,optionLeft,5,13605,6,43,0,43,0,1,,,,,,,,,,,,,,,,,,,,,,,,,,,,,,,,,,,,,,,
,,,,,,,,2023-08-16_10h45.24.072,HF_wild_card,2022.2.4,Win32,60.0240096,6318ec19888839dfc0b4d5c8,64d2fd46c836a06233681665,64dc9aa6318c5b88f6d3ce32,,,,,,,,,,,,,,,,,,,,,,,,,,5,0,5,0,1,,,,,,,,,,,,,,,,,,,,,,,,,,,,,,,,,,
,,,,,,,,2023-08-16_10h45.24.072,HF_wild_card,2022.2.4,Win32,60.0240096,6318ec19888839dfc0b4d5c8,64d2fd46c836a06233681665,64dc9aa6318c5b88f6d3ce32,,,,,,,decisionTrl,resources/DBN.BMP,resources/DY.BMP,Door2,0.262037037,-0.089814815,1,0,0,0.897,optionRight,40,13645,7,0,0,0,0,1,,,,,,,,,,,,,,,,,,,,,,,,,,,,,,,,,,,,,,,
,,,,,,,,2023-08-16_10h45.24.072,HF_wild_card,2022.2.4,Win32,60.0240096,6318ec19888839dfc0b4d5c8,64d2fd46c836a06233681665,64dc9aa6318c5b88f6d3ce32,,,,,,,ctch,resources/DBN.BMP,resources/DB.BMP,Door4,0.272222222,-0.010185185,1,0,0,0.747,optionRight,80,13725,7,1,0,1,0,1,,,,,,,,,,,,,,,,,,,,,,,,,,,,,,,,,,,,,,,
,,,,,,,,2023-08-16_10h45.24.072,HF_wild_card,2022.2.4,Win32,60.0240096,6318ec19888839dfc0b4d5c8,64d2fd46c836a06233681665,64dc9aa6318c5b88f6d3ce32,,,,,,,decisionTrl,resources/DG.BMP,resources/DB.BMP,Door3,-0.307407407,-0.008333333,1,0,0,0.449,optionLeft,70,13795,7,2,0,2,0,1,,,,,,,,,,,,,,,,,,,,,,,,,,,,,,,,,,,,,,,
,,,,,,,,2023-08-16_10h45.24.072,HF_wild_card,2022.2.4,Win32,60.0240096,6318ec19888839dfc0b4d5c8,64d2fd46c836a06233681665,64dc9aa6318c5b88f6d3ce32,,,,,,,decisionTrl,resources/DBN.BMP,resources/DY.BMP,Door2,0.355555556,-0.010185185,1,0,0,0.549,optionRight,40,13835,7,3,0,3,0,1,,,,,,,,,,,,,,,,,,,,,,,,,,,,,,,,,,,,,,,
,,,,,,,,2023-08-16_10h45.24.072,HF_wild_card,2022.2.4,Win32,60.0240096,6318ec19888839dfc0b4d5c8,64d2fd46c836a06233681665,64dc9aa6318c5b88f6d3ce32,,,,,,,ctch,resources/DY.BMP,resources/DG.BMP,Door3,0.209259259,-0.00462963,1,0,0,0.498,optionRight,70,13905,7,4,0,4,0,1,,,,,,,,,,,,,,,,,,,,,,,,,,,,,,,,,,,,,,,
,,,,,,,,2023-08-16_10h45.24.072,HF_wild_card,2022.2.4,Win32,60.0240096,6318ec19888839dfc0b4d5c8,64d2fd46c836a06233681665,64dc9aa6318c5b88f6d3ce32,,,,,,,decisionTrl,resources/DY.BMP,resources/DBN.BMP,Door2,-0.233333333,-0.040740741,1,0,0,0.499,optionLeft,20,13925,7,5,0,5,0,1,,,,,,,,,,,,,,,,,,,,,,,,,,,,,,,,,,,,,,,
,,,,,,,,2023-08-16_10h45.24.072,HF_wild_card,2022.2.4,Win32,60.0240096,6318ec19888839dfc0b4d5c8,64d2fd46c836a06233681665,64dc9aa6318c5b88f6d3ce32,,,,,,,decisionTrl,resources/DBN.BMP,resources/DY.BMP,Door2,0.283333333,0.003703704,1,0,0,0.533,optionRight,20,13945,7,6,0,6,0,1,,,,,,,,,,,,,,,,,,,,,,,,,,,,,,,,,,,,,,,
,,,,,,,,2023-08-16_10h45.24.072,HF_wild_card,2022.2.4,Win32,60.0240096,6318ec19888839dfc0b4d5c8,64d2fd46c836a06233681665,64dc9aa6318c5b88f6d3ce32,,,,,,,ctch,resources/DY.BMP,resources/DG.BMP,Door3,0.337037037,-0.011111111,1,0,0,0.548,optionRight,70,14015,7,7,0,7,0,1,,,,,,,,,,,,,,,,,,,,,,,,,,,,,,,,,,,,,,,
,,,,,,,,2023-08-16_10h45.24.072,HF_wild_card,2022.2.4,Win32,60.0240096,6318ec19888839dfc0b4d5c8,64d2fd46c836a06233681665,64dc9aa6318c5b88f6d3ce32,,,,,,,decisionTrl,resources/DB.BMP,resources/DG.BMP,Door3,0.496296296,-0.006481481,1,0,0,0.682,optionRight,70,14085,7,8,0,8,0,1,,,,,,,,,,,,,,,,,,,,,,,,,,,,,,,,,,,,,,,
,,,,,,,,2023-08-16_10h45.24.072,HF_wild_card,2022.2.4,Win32,60.0240096,6318ec19888839dfc0b4d5c8,64d2fd46c836a06233681665,64dc9aa6318c5b88f6d3ce32,,,,,,,decisionTrl,resources/DB.BMP,resources/DG.BMP,Door3,0.211111111,0.013888889,1,0,0,0.383,optionRight,70,14155,7,9,0,9,0,1,,,,,,,,,,,,,,,,,,,,,,,,,,,,,,,,,,,,,,,
,,,,,,,,2023-08-16_10h45.24.072,HF_wild_card,2022.2.4,Win32,60.0240096,6318ec19888839dfc0b4d5c8,64d2fd46c836a06233681665,64dc9aa6318c5b88f6d3ce32,,,,,,,decisionTrl,resources/DG.BMP,resources/DB.BMP,Door3,-0.315740741,-0.016666667,1,0,0,0.449,optionLeft,70,14225,7,10,0,10,0,1,,,,,,,,,,,,,,,,,,,,,,,,,,,,,,,,,,,,,,,
,,,,,,,,2023-08-16_10h45.24.072,HF_wild_card,2022.2.4,Win32,60.0240096,6318ec19888839dfc0b4d5c8,64d2fd46c836a06233681665,64dc9aa6318c5b88f6d3ce32,,,,,,,decisionTrl,resources/DB.BMP,resources/DG.BMP,Door3,0.380555556,-0.005555556,1,0,0,0.533,optionRight,70,14295,7,11,0,11,0,1,,,,,,,,,,,,,,,,,,,,,,,,,,,,,,,,,,,,,,,
,,,,,,,,2023-08-16_10h45.24.072,HF_wild_card,2022.2.4,Win32,60.0240096,6318ec19888839dfc0b4d5c8,64d2fd46c836a06233681665,64dc9aa6318c5b88f6d3ce32,,,,,,,decisionTrl,resources/DB.BMP,resources/DG.BMP,Door3,0.37037037,0.002777778,1,0,0,0.399,optionRight,70,14365,7,12,0,12,0,1,,,,,,,,,,,,,,,,,,,,,,,,,,,,,,,,,,,,,,,
,,,,,,,,2023-08-16_10h45.24.072,HF_wild_card,2022.2.4,Win32,60.0240096,6318ec19888839dfc0b4d5c8,64d2fd46c836a06233681665,64dc9aa6318c5b88f6d3ce32,,,,,,,ctch,resources/DY.BMP,resources/DG.BMP,Door3,0.262037037,0.022222222,1,0,0,0.448,optionRight,70,14435,7,13,0,13,0,1,,,,,,,,,,,,,,,,,,,,,,,,,,,,,,,,,,,,,,,
,,,,,,,,2023-08-16_10h45.24.072,HF_wild_card,2022.2.4,Win32,60.0240096,6318ec19888839dfc0b4d5c8,64d2fd46c836a06233681665,64dc9aa6318c5b88f6d3ce32,,,,,,,decisionTrl,resources/DG.BMP,resources/DB.BMP,Door3,-0.214814815,-0.023148148,1,0,0,0.433,optionLeft,70,14505,7,14,0,14,0,1,,,,,,,,,,,,,,,,,,,,,,,,,,,,,,,,,,,,,,,
,,,,,,,,2023-08-16_10h45.24.072,HF_wild_card,2022.2.4,Win32,60.0240096,6318ec19888839dfc0b4d5c8,64d2fd46c836a06233681665,64dc9aa6318c5b88f6d3ce32,,,,,,,decisionTrl,resources/DG.BMP,resources/DB.BMP,Door3,-0.278703704,-0.028703704,1,0,0,0.433,optionLeft,70,14575,7,15,0,15,0,1,,,,,,,,,,,,,,,,,,,,,,,,,,,,,,,,,,,,,,,
,,,,,,,,2023-08-16_10h45.24.072,HF_wild_card,2022.2.4,Win32,60.0240096,6318ec19888839dfc0b4d5c8,64d2fd46c836a06233681665,64dc9aa6318c5b88f6d3ce32,,,,,,,decisionTrl,resources/DBN.BMP,resources/DY.BMP,Door2,0.322222222,0.006481481,1,0,0,0.601,optionRight,20,14595,7,16,0,16,0,1,,,,,,,,,,,,,,,,,,,,,,,,,,,,,,,,,,,,,,,
,,,,,,,,2023-08-16_10h45.24.072,HF_wild_card,2022.2.4,Win32,60.0240096,6318ec19888839dfc0b4d5c8,64d2fd46c836a06233681665,64dc9aa6318c5b88f6d3ce32,,,,,,,decisionTrl,resources/DY.BMP,resources/DBN.BMP,Door2,-0.266666667,-0.017592593,1,0,0,0.515,optionLeft,40,14635,7,17,0,17,0,1,,,,,,,,,,,,,,,,,,,,,,,,,,,,,,,,,,,,,,,
,,,,,,,,2023-08-16_10h45.24.072,HF_wild_card,2022.2.4,Win32,60.0240096,6318ec19888839dfc0b4d5c8,64d2fd46c836a06233681665,64dc9aa6318c5b88f6d3ce32,,,,,,,ctch,resources/DB.BMP,resources/DBN.BMP,Door4,-0.375925926,-0.023148148,1,0,0,0.482,optionLeft,60,14695,7,18,0,18,0,1,,,,,,,,,,,,,,,,,,,,,,,,,,,,,,,,,,,,,,,
,,,,,,,,2023-08-16_10h45.24.072,HF_wild_card,2022.2.4,Win32,60.0240096,6318ec19888839dfc0b4d5c8,64d2fd46c836a06233681665,64dc9aa6318c5b88f6d3ce32,,,,,,,ctch,resources/DG.BMP,resources/DY.BMP,Door2,0.200925926,0.007407407,1,0,0,0.499,optionRight,40,14735,7,19,0,19,0,1,,,,,,,,,,,,,,,,,,,,,,,,,,,,,,,,,,,,,,,
,,,,,,,,2023-08-16_10h45.24.072,HF_wild_card,2022.2.4,Win32,60.0240096,6318ec19888839dfc0b4d5c8,64d2fd46c836a06233681665,64dc9aa6318c5b88f6d3ce32,,,,,,,decisionTrl,resources/DY.BMP,resources/DBN.BMP,Door2,-0.25462963,-0.02037037,1,0,0,0.48,optionLeft,20,14755,7,20,0,20,0,1,,,,,,,,,,,,,,,,,,,,,,,,,,,,,,,,,,,,,,,
,,,,,,,,2023-08-16_10h45.24.072,HF_wild_card,2022.2.4,Win32,60.0240096,6318ec19888839dfc0b4d5c8,64d2fd46c836a06233681665,64dc9aa6318c5b88f6d3ce32,,,,,,,decisionTrl,resources/DY.BMP,resources/DBN.BMP,Door2,-0.273148148,-0.021296296,1,0,0,0.483,optionLeft,20,14775,7,21,0,21,0,1,,,,,,,,,,,,,,,,,,,,,,,,,,,,,,,,,,,,,,,
,,,,,,,,2023-08-16_10h45.24.072,HF_wild_card,2022.2.4,Win32,60.0240096,6318ec19888839dfc0b4d5c8,64d2fd46c836a06233681665,64dc9aa6318c5b88f6d3ce32,,,,,,,decisionTrl,resources/DB.BMP,resources/DG.BMP,Door3,0.356481481,-0.015740741,1,0,0,0.732,optionRight,70,14845,7,22,0,22,0,1,,,,,,,,,,,,,,,,,,,,,,,,,,,,,,,,,,,,,,,
,,,,,,,,2023-08-16_10h45.24.072,HF_wild_card,2022.2.4,Win32,60.0240096,6318ec19888839dfc0b4d5c8,64d2fd46c836a06233681665,64dc9aa6318c5b88f6d3ce32,,,,,,,ctch,resources/DBN.BMP,resources/DB.BMP,Door4,0.223148148,-0.040740741,1,0,0,0.7,optionRight,80,14925,7,23,0,23,0,1,,,,,,,,,,,,,,,,,,,,,,,,,,,,,,,,,,,,,,,
,,,,,,,,2023-08-16_10h45.24.072,HF_wild_card,2022.2.4,Win32,60.0240096,6318ec19888839dfc0b4d5c8,64d2fd46c836a06233681665,64dc9aa6318c5b88f6d3ce32,,,,,,,decisionTrl,resources/DY.BMP,resources/DBN.BMP,Door2,-0.280555556,-0.02962963,1,0,0,0.566,optionLeft,40,14965,7,24,0,24,0,1,,,,,,,,,,,,,,,,,,,,,,,,,,,,,,,,,,,,,,,
,,,,,,,,2023-08-16_10h45.24.072,HF_wild_card,2022.2.4,Win32,60.0240096,6318ec19888839dfc0b4d5c8,64d2fd46c836a06233681665,64dc9aa6318c5b88f6d3ce32,,,,,,,decisionTrl,resources/DBN.BMP,resources/DY.BMP,Door2,0.235185185,-0.002777778,1,0,0,0.566,optionRight,40,15005,7,25,0,25,0,1,,,,,,,,,,,,,,,,,,,,,,,,,,,,,,,,,,,,,,,
,,,,,,,,2023-08-16_10h45.24.072,HF_wild_card,2022.2.4,Win32,60.0240096,6318ec19888839dfc0b4d5c8,64d2fd46c836a06233681665,64dc9aa6318c5b88f6d3ce32,,,,,,,ctch,resources/DBN.BMP,resources/DB.BMP,Door4,0.234259259,-0.028703704,1,0,0,0.716,optionRight,60,15065,7,26,0,26,0,1,,,,,,,,,,,,,,,,,,,,,,,,,,,,,,,,,,,,,,,
,,,,,,,,2023-08-16_10h45.24.072,HF_wild_card,2022.2.4,Win32,60.0240096,6318ec19888839dfc0b4d5c8,64d2fd46c836a06233681665,64dc9aa6318c5b88f6d3ce32,,,,,,,ctch,resources/DB.BMP,resources/DBN.BMP,Door4,-0.287037037,-0.031481481,1,0,0,0.45,optionLeft,80,15145,7,27,0,27,0,1,,,,,,,,,,,,,,,,,,,,,,,,,,,,,,,,,,,,,,,
,,,,,,,,2023-08-16_10h45.24.072,HF_wild_card,2022.2.4,Win32,60.0240096,6318ec19888839dfc0b4d5c8,64d2fd46c836a06233681665,64dc9aa6318c5b88f6d3ce32,,,,,,,ctch,resources/DG.BMP,resources/DY.BMP,Door3,-0.400925926,-0.005555556,1,0,0,0.75,optionLeft,70,15215,7,28,0,28,0,1,,,,,,,,,,,,,,,,,,,,,,,,,,,,,,,,,,,,,,,
,,,,,,,,2023-08-16_10h45.24.072,HF_wild_card,2022.2.4,Win32,60.0240096,6318ec19888839dfc0b4d5c8,64d2fd46c836a06233681665,64dc9aa6318c5b88f6d3ce32,,,,,,,ctch,resources/DB.BMP,resources/DBN.BMP,Door4,-0.292592593,-0.025925926,1,0,0,0.481,optionLeft,80,15295,7,29,0,29,0,1,,,,,,,,,,,,,,,,,,,,,,,,,,,,,,,,,,,,,,,
,,,,,,,,2023-08-16_10h45.24.072,HF_wild_card,2022.2.4,Win32,60.0240096,6318ec19888839dfc0b4d5c8,64d2fd46c836a06233681665,64dc9aa6318c5b88f6d3ce32,,,,,,,ctch,resources/DG.BMP,resources/DY.BMP,Door3,-0.276851852,-0.043518519,1,0,0,0.515,optionLeft,70,15365,7,30,0,30,0,1,,,,,,,,,,,,,,,,,,,,,,,,,,,,,,,,,,,,,,,
,,,,,,,,2023-08-16_10h45.24.072,HF_wild_card,2022.2.4,Win32,60.0240096,6318ec19888839dfc0b4d5c8,64d2fd46c836a06233681665,64dc9aa6318c5b88f6d3ce32,,,,,,,decisionTrl,resources/DG.BMP,resources/DB.BMP,Door3,-0.235185185,-0.008333333,1,0,0,0.616,optionLeft,70,15435,7,31,0,31,0,1,,,,,,,,,,,,,,,,,,,,,,,,,,,,,,,,,,,,,,,
,,,,,,,,2023-08-16_10h45.24.072,HF_wild_card,2022.2.4,Win32,60.0240096,6318ec19888839dfc0b4d5c8,64d2fd46c836a06233681665,64dc9aa6318c5b88f6d3ce32,,,,,,,decisionTrl,resources/DBN.BMP,resources/DY.BMP,Door2,0.378703704,-0.005555556,1,0,0,0.732,optionRight,20,15455,7,32,0,32,0,1,,,,,,,,,,,,,,,,,,,,,,,,,,,,,,,,,,,,,,,
,,,,,,,,2023-08-16_10h45.24.072,HF_wild_card,2022.2.4,Win32,60.0240096,6318ec19888839dfc0b4d5c8,64d2fd46c836a06233681665,64dc9aa6318c5b88f6d3ce32,,,,,,,decisionTrl,resources/DB.BMP,resources/DG.BMP,Door3,0.366666667,0.091666667,1,0,0,0.897,optionRight,70,15525,7,33,0,33,0,1,,,,,,,,,,,,,,,,,,,,,,,,,,,,,,,,,,,,,,,
,,,,,,,,2023-08-16_10h45.24.072,HF_wild_card,2022.2.4,Win32,60.0240096,6318ec19888839dfc0b4d5c8,64d2fd46c836a06233681665,64dc9aa6318c5b88f6d3ce32,,,,,,,decisionTrl,resources/DY.BMP,resources/DBN.BMP,Door2,-0.210185185,-0.057407407,1,0,0,0.484,optionLeft,40,15565,7,34,0,34,0,1,,,,,,,,,,,,,,,,,,,,,,,,,,,,,,,,,,,,,,,
,,,,,,,,2023-08-16_10h45.24.072,HF_wild_card,2022.2.4,Win32,60.0240096,6318ec19888839dfc0b4d5c8,64d2fd46c836a06233681665,64dc9aa6318c5b88f6d3ce32,,,,,,,decisionTrl,resources/DG.BMP,resources/DB.BMP,Door3,-0.248148148,-0.031481481,1,0,0,0.548,optionLeft,70,15635,7,35,0,35,0,1,,,,,,,,,,,,,,,,,,,,,,,,,,,,,,,,,,,,,,,
,,,,,,,,2023-08-16_10h45.24.072,HF_wild_card,2022.2.4,Win32,60.0240096,6318ec19888839dfc0b4d5c8,64d2fd46c836a06233681665,64dc9aa6318c5b88f6d3ce32,,,,,,,,,,,,,,,,,,,,,,,,,,6,0,6,0,1,,,,,,,,,,,,,,,,,,,,,,,,,,,,,,,,,,
,,,,,,,,2023-08-16_10h45.24.072,HF_wild_card,2022.2.4,Win32,60.0240096,6318ec19888839dfc0b4d5c8,64d2fd46c836a06233681665,64dc9aa6318c5b88f6d3ce32,,,,,,,,,,,,,,,,,,,,,,,,,,,,,,,3,,,,,,,,,,,,,,,,,,,,,,,,,,,,,,,,,
,,,,,,,,2023-08-16_10h45.24.072,HF_wild_card,2022.2.4,Win32,60.0240096,6318ec19888839dfc0b4d5c8,64d2fd46c836a06233681665,64dc9aa6318c5b88f6d3ce32,,,,,,,,,,,,,,,,,,,,,,,,,,,,,,,,,,,,,,,,,,,,,,,,,,,,,,,,,,,,,,,,
,,,,,,,,2023-08-16_10h45.24.072,HF_wild_card,2022.2.4,Win32,60.0240096,6318ec19888839dfc0b4d5c8,64d2fd46c836a06233681665,64dc9aa6318c5b88f6d3ce32,,,,,,,,,,,,,,,,,,,,,,,,,,,,,,,,9,WC_extreme,resources/DP.BMP,0,0,0,0,1,,,,,,,,,,,,,,,,,,,,,,,,,
,,,,,,,,2023-08-16_10h45.24.072,HF_wild_card,2022.2.4,Win32,60.0240096,6318ec19888839dfc0b4d5c8,64d2fd46c836a06233681665,64dc9aa6318c5b88f6d3ce32,,,,,,,,,,,,,,,,,,,,,,,,,,,,,,,,1,WC_nonExtreme,resources/DR.BMP,1,0,1,0,1,,,,,,,,,,,,,,,,,,,,,,,,,
,,,,,,,,2023-08-16_10h45.24.072,HF_wild_card,2022.2.4,Win32,60.0240096,6318ec19888839dfc0b4d5c8,64d2fd46c836a06233681665,64dc9aa6318c5b88f6d3ce32,,,,,,,,,,,,,,,,,,,,,,,,,,,,,,,,80,Door4,resources/DB.BMP,2,0,2,0,1,,,,,,,,,,,,,,,,,,,,,,,,,
,,,,,,,,2023-08-16_10h45.24.072,HF_wild_card,2022.2.4,Win32,60.0240096,6318ec19888839dfc0b4d5c8,64d2fd46c836a06233681665,64dc9aa6318c5b88f6d3ce32,,,,,,,,,,,,,,,,,,,,,,,,,,,,,,,,60,Door2,resources/DY.BMP,3,0,3,0,1,,,,,,,,,,,,,,,,,,,,,,,,,
,,,,,,,,2023-08-16_10h45.24.072,HF_wild_card,2022.2.4,Win32,60.0240096,6318ec19888839dfc0b4d5c8,64d2fd46c836a06233681665,64dc9aa6318c5b88f6d3ce32,,,,,,,,,,,,,,,,,,,,,,,,,,,,,,,,70,Door3,resources/DG.BMP,4,0,4,0,1,,,,,,,,,,,,,,,,,,,,,,,,,
,,,,,,,,2023-08-16_10h45.24.072,HF_wild_card,2022.2.4,Win32,60.0240096,6318ec19888839dfc0b4d5c8,64d2fd46c836a06233681665,64dc9aa6318c5b88f6d3ce32,,,,,,,,,,,,,,,,,,,,,,,,,,,,,,,,20,Door1,resources/DBN.BMP,5,0,5,0,1,,,,,,,,,,,,,,,,,,,,,,,,,
,,,,,,,,2023-08-16_10h45.24.072,HF_wild_card,2022.2.4,Win32,60.0240096,6318ec19888839dfc0b4d5c8,64d2fd46c836a06233681665,64dc9aa6318c5b88f6d3ce32,,,,,,,,,,,,,,,,,,,,,,,,,,,,,,,,,,,,,,,,,,,,,,,,,,,,,,,,,,,,,,,,
,,,,,,,,2023-08-16_10h45.24.072,HF_wild_card,2022.2.4,Win32,60.0240096,6318ec19888839dfc0b4d5c8,64d2fd46c836a06233681665,64dc9aa6318c5b88f6d3ce32,,,,,,,,,,,,,,,,,,,,,,,,,,,,,,,,,,,,,,,,0,0,0,0,1,,,,,,,,,,,,,,,,,,,,
,,,,,,,,2023-08-16_10h45.24.072,HF_wild_card,2022.2.4,Win32,60.0240096,6318ec19888839dfc0b4d5c8,64d2fd46c836a06233681665,64dc9aa6318c5b88f6d3ce32,,,,,,,,,,,,,,,,,,,,,,,,,,,,,,,,,,,,,,,,1,0,1,0,1,,,,,,,,,,,,,,,,,,,,
,,,,,,,,2023-08-16_10h45.24.072,HF_wild_card,2022.2.4,Win32,60.0240096,6318ec19888839dfc0b4d5c8,64d2fd46c836a06233681665,64dc9aa6318c5b88f6d3ce32,,,,,,,,,,,,,,,,,,,,,,,,,,,,,,,,,,,,,,,,,,,,,-0.27962963,-0.394444444,1,0,0,yes,0%,30%,Door1,resources/DBN.BMP,0,0,0,0,1,,,,,
