Condition,Low fixed image (Door1),Low risky image (Door2),High fixed image (Door3),High risky image (Door4),NonExtreme Wild Card 1,NonExtreme Wild Card 2,,date,expName,psychopyVersion,OS,frameRate,PROLIFIC_PID,STUDY_ID,SESSION_ID,mouse_2.x,mouse_2.y,mouse_2.leftButton,mouse_2.midButton,mouse_2.rightButton,mouse_2.clicked_name,Trial Type,Left Option Image,Right Option Image,Chosen Door,mouse.x,mouse.y,mouse.leftButton,mouse.midButton,mouse.rightButton,mouse.time,mouse.clicked_name,Feedback,Cumulative Reward,Block,trial.thisRepN,trial.thisTrialN,trial.thisN,trial.thisIndex,trial.ran,blocks.thisRepN,blocks.thisTrialN,blocks.thisN,blocks.thisIndex,blocks.ran,Money conversion,First Outcome Reported,Shown Door (First Outcome),Displayed Image (First Outcome),outcomes.thisRepN,outcomes.thisTrialN,outcomes.thisN,outcomes.thisIndex,outcomes.ran,judgments.thisRepN,judgments.thisTrialN,judgments.thisN,judgments.thisIndex,judgments.ran,freqMouse.x,freqMouse.y,freqMouse.leftButton,freqMouse.midButton,freqMouse.rightButton,freqMouse.clicked_name,trials.thisRepN,trials.thisTrialN,trials.thisN,trials.thisIndex,trials.ran,FQJ for first outcome,FQJ for second outcome,Shown Door,Displayed Image,judgBlock.thisRepN,judgBlock.thisTrialN,judgBlock.thisN,judgBlock.thisIndex,judgBlock.ran
2,resources/DP.BMP,resources/DY.BMP,resources/DR.BMP,resources/DBN.BMP,resources/DG.BMP,resources/DB.BMP,,2023-08-16_08h44.01.012,HF_wild_card,2022.2.4,MacIntel,55.55555556,56e59ae1b2093a000c4f138d,64d2fd46c836a06233681665,64dc7e2f11ceb89b77a08da3,,,,,,,,,,,,,,,,,,,,,,,,,,,,,,,,,,,,,,,,,,,,,,,,,,,,,,,,,,,,,,,,
,,,,,,,,2023-08-16_08h44.01.012,HF_wild_card,2022.2.4,MacIntel,55.55555556,56e59ae1b2093a000c4f138d,64d2fd46c836a06233681665,64dc7e2f11ceb89b77a08da3,0.014444444,-0.417777778,1,0,0,agree,,,,,,,,,,,,,,,,,,,,,,,,,,,,,,,,,,,,,,,,,,,,,,,,,,,,,,,,,,
,,,,,,,,2023-08-16_08h44.01.012,HF_wild_card,2022.2.4,MacIntel,55.55555556,56e59ae1b2093a000c4f138d,64d2fd46c836a06233681665,64dc7e2f11ceb89b77a08da3,,,,,,,,,,,,,,,,,,,,,,,,,,,,,,,,,,,,,,,,,,,,,,,,,,,,,,,,,,,,,,,,
,,,,,,,,2023-08-16_08h44.01.012,HF_wild_card,2022.2.4,MacIntel,55.55555556,56e59ae1b2093a000c4f138d,64d2fd46c836a06233681665,64dc7e2f11ceb89b77a08da3,,,,,,,sngl,resources/DR.BMP,resources/Empty.png,Door3,-0.33,-0.19,1,0,0,3.348,optionLeft,70,70,1,0,0,0,0,1,,,,,,,,,,,,,,,,,,,,,,,,,,,,,,,,,,,,,,,
,,,,,,,,2023-08-16_08h44.01.012,HF_wild_card,2022.2.4,MacIntel,55.55555556,56e59ae1b2093a000c4f138d,64d2fd46c836a06233681665,64dc7e2f11ceb89b77a08da3,,,,,,,decisionTrl,resources/DY.BMP,resources/DP.BMP,Door1,0.406666667,0.038888889,1,0,0,1.755,optionRight,30,100,1,1,0,1,0,1,,,,,,,,,,,,,,,,,,,,,,,,,,,,,,,,,,,,,,,
,,,,,,,,2023-08-16_08h44.01.012,HF_wild_card,2022.2.4,MacIntel,55.55555556,56e59ae1b2093a000c4f138d,64d2fd46c836a06233681665,64dc7e2f11ceb89b77a08da3,,,,,,,ctch,resources/DR.BMP,resources/DY.BMP,Door3,-0.193333333,-0.024444444,1,0,0,0.941,optionLeft,70,170,1,2,0,2,0,1,,,,,,,,,,,,,,,,,,,,,,,,,,,,,,,,,,,,,,,
,,,,,,,,2023-08-16_08h44.01.012,HF_wild_card,2022.2.4,MacIntel,55.55555556,56e59ae1b2093a000c4f138d,64d2fd46c836a06233681665,64dc7e2f11ceb89b77a08da3,,,,,,,decisionTrl,resources/DP.BMP,resources/DY.BMP,Door2,0.255555556,0.026666667,1,0,0,1.062,optionRight,40,210,1,3,0,3,0,1,,,,,,,,,,,,,,,,,,,,,,,,,,,,,,,,,,,,,,,
,,,,,,,,2023-08-16_08h44.01.012,HF_wild_card,2022.2.4,MacIntel,55.55555556,56e59ae1b2093a000c4f138d,64d2fd46c836a06233681665,64dc7e2f11ceb89b77a08da3,,,,,,,sngl,resources/DB.BMP,resources/Empty.png,WildCard_NonEx,-0.243333333,-0.114444444,1,0,0,0.676,optionLeft,55,265,1,4,0,4,0,1,,,,,,,,,,,,,,,,,,,,,,,,,,,,,,,,,,,,,,,
,,,,,,,,2023-08-16_08h44.01.012,HF_wild_card,2022.2.4,MacIntel,55.55555556,56e59ae1b2093a000c4f138d,64d2fd46c836a06233681665,64dc7e2f11ceb89b77a08da3,,,,,,,decisionTrl,resources/DR.BMP,resources/DBN.BMP,Door3,-0.244444444,-0.04,1,0,0,0.837,optionLeft,70,335,1,5,0,5,0,1,,,,,,,,,,,,,,,,,,,,,,,,,,,,,,,,,,,,,,,
,,,,,,,,2023-08-16_08h44.01.012,HF_wild_card,2022.2.4,MacIntel,55.55555556,56e59ae1b2093a000c4f138d,64d2fd46c836a06233681665,64dc7e2f11ceb89b77a08da3,,,,,,,sngl,resources/DP.BMP,resources/Empty.png,Door1,-0.267777778,-0.041111111,1,0,0,0.766,optionLeft,30,365,1,6,0,6,0,1,,,,,,,,,,,,,,,,,,,,,,,,,,,,,,,,,,,,,,,
,,,,,,,,2023-08-16_08h44.01.012,HF_wild_card,2022.2.4,MacIntel,55.55555556,56e59ae1b2093a000c4f138d,64d2fd46c836a06233681665,64dc7e2f11ceb89b77a08da3,,,,,,,ctch,resources/DY.BMP,resources/DR.BMP,Door2,-0.144444444,-0.093333333,1,0,0,0.993,optionLeft,20,385,1,7,0,7,0,1,,,,,,,,,,,,,,,,,,,,,,,,,,,,,,,,,,,,,,,
,,,,,,,,2023-08-16_08h44.01.012,HF_wild_card,2022.2.4,MacIntel,55.55555556,56e59ae1b2093a000c4f138d,64d2fd46c836a06233681665,64dc7e2f11ceb89b77a08da3,,,,,,,decisionTrl,resources/DR.BMP,resources/DBN.BMP,Door3,-0.327777778,-0.026666667,1,0,0,0.756,optionLeft,70,455,1,8,0,8,0,1,,,,,,,,,,,,,,,,,,,,,,,,,,,,,,,,,,,,,,,
,,,,,,,,2023-08-16_08h44.01.012,HF_wild_card,2022.2.4,MacIntel,55.55555556,56e59ae1b2093a000c4f138d,64d2fd46c836a06233681665,64dc7e2f11ceb89b77a08da3,,,,,,,ctch,resources/DY.BMP,resources/DR.BMP,Door2,-0.284444444,-0.053333333,1,0,0,0.762,optionLeft,40,495,1,9,0,9,0,1,,,,,,,,,,,,,,,,,,,,,,,,,,,,,,,,,,,,,,,
,,,,,,,,2023-08-16_08h44.01.012,HF_wild_card,2022.2.4,MacIntel,55.55555556,56e59ae1b2093a000c4f138d,64d2fd46c836a06233681665,64dc7e2f11ceb89b77a08da3,,,,,,,decisionTrl,resources/DY.BMP,resources/DP.BMP,Door2,-0.195555556,-0.056666667,1,0,0,0.921,optionLeft,40,535,1,10,0,10,0,1,,,,,,,,,,,,,,,,,,,,,,,,,,,,,,,,,,,,,,,
,,,,,,,,2023-08-16_08h44.01.012,HF_wild_card,2022.2.4,MacIntel,55.55555556,56e59ae1b2093a000c4f138d,64d2fd46c836a06233681665,64dc7e2f11ceb89b77a08da3,,,,,,,sngl,resources/Empty.png,resources/DY.BMP,Door2,0.183333333,0.033333333,1,0,0,0.81,optionRight,20,555,1,11,0,11,0,1,,,,,,,,,,,,,,,,,,,,,,,,,,,,,,,,,,,,,,,
,,,,,,,,2023-08-16_08h44.01.012,HF_wild_card,2022.2.4,MacIntel,55.55555556,56e59ae1b2093a000c4f138d,64d2fd46c836a06233681665,64dc7e2f11ceb89b77a08da3,,,,,,,decisionTrl,resources/DR.BMP,resources/DBN.BMP,Door3,-0.31,-0.037777778,1,0,0,0.744,optionLeft,70,625,1,12,0,12,0,1,,,,,,,,,,,,,,,,,,,,,,,,,,,,,,,,,,,,,,,
,,,,,,,,2023-08-16_08h44.01.012,HF_wild_card,2022.2.4,MacIntel,55.55555556,56e59ae1b2093a000c4f138d,64d2fd46c836a06233681665,64dc7e2f11ceb89b77a08da3,,,,,,,sngl,resources/Empty.png,resources/DR.BMP,Door3,0.16,0.002222222,1,0,0,0.728,optionRight,70,695,1,13,0,13,0,1,,,,,,,,,,,,,,,,,,,,,,,,,,,,,,,,,,,,,,,
,,,,,,,,2023-08-16_08h44.01.012,HF_wild_card,2022.2.4,MacIntel,55.55555556,56e59ae1b2093a000c4f138d,64d2fd46c836a06233681665,64dc7e2f11ceb89b77a08da3,,,,,,,decisionTrl,resources/DY.BMP,resources/DP.BMP,Door1,0.008888889,0.003333333,1,0,0,0.492,optionRight,30,725,1,14,0,14,0,1,,,,,,,,,,,,,,,,,,,,,,,,,,,,,,,,,,,,,,,
,,,,,,,,2023-08-16_08h44.01.012,HF_wild_card,2022.2.4,MacIntel,55.55555556,56e59ae1b2093a000c4f138d,64d2fd46c836a06233681665,64dc7e2f11ceb89b77a08da3,,,,,,,ctch,resources/DP.BMP,resources/DBN.BMP,Door1,-0.308888889,-0.023333333,1,0,0,0.584,optionLeft,30,755,1,15,0,15,0,1,,,,,,,,,,,,,,,,,,,,,,,,,,,,,,,,,,,,,,,
,,,,,,,,2023-08-16_08h44.01.012,HF_wild_card,2022.2.4,MacIntel,55.55555556,56e59ae1b2093a000c4f138d,64d2fd46c836a06233681665,64dc7e2f11ceb89b77a08da3,,,,,,,decisionTrl,resources/DB.BMP,resources/DY.BMP,WildCard_NonEx,-0.277777778,-0.075555556,1,0,0,0.743,optionLeft,45,800,1,16,0,16,0,1,,,,,,,,,,,,,,,,,,,,,,,,,,,,,,,,,,,,,,,
,,,,,,,,2023-08-16_08h44.01.012,HF_wild_card,2022.2.4,MacIntel,55.55555556,56e59ae1b2093a000c4f138d,64d2fd46c836a06233681665,64dc7e2f11ceb89b77a08da3,,,,,,,decisionTrl,resources/DB.BMP,resources/DP.BMP,Door1,0.167777778,-0.04,1,0,0,0.753,optionRight,30,830,1,17,0,17,0,1,,,,,,,,,,,,,,,,,,,,,,,,,,,,,,,,,,,,,,,
,,,,,,,,2023-08-16_08h44.01.012,HF_wild_card,2022.2.4,MacIntel,55.55555556,56e59ae1b2093a000c4f138d,64d2fd46c836a06233681665,64dc7e2f11ceb89b77a08da3,,,,,,,decisionTrl,resources/DY.BMP,resources/DB.BMP,Door2,-0.277777778,0.018888889,1,0,0,1.359,optionLeft,40,870,1,18,0,18,0,1,,,,,,,,,,,,,,,,,,,,,,,,,,,,,,,,,,,,,,,
,,,,,,,,2023-08-16_08h44.01.012,HF_wild_card,2022.2.4,MacIntel,55.55555556,56e59ae1b2093a000c4f138d,64d2fd46c836a06233681665,64dc7e2f11ceb89b77a08da3,,,,,,,ctch,resources/DP.BMP,resources/DBN.BMP,Door4,0.266666667,0.062222222,1,0,0,0.856,optionRight,60,930,1,19,0,19,0,1,,,,,,,,,,,,,,,,,,,,,,,,,,,,,,,,,,,,,,,
,,,,,,,,2023-08-16_08h44.01.012,HF_wild_card,2022.2.4,MacIntel,55.55555556,56e59ae1b2093a000c4f138d,64d2fd46c836a06233681665,64dc7e2f11ceb89b77a08da3,,,,,,,decisionTrl,resources/DR.BMP,resources/DB.BMP,Door3,-0.28,-0.006666667,1,0,0,0.692,optionLeft,70,1000,1,20,0,20,0,1,,,,,,,,,,,,,,,,,,,,,,,,,,,,,,,,,,,,,,,
,,,,,,,,2023-08-16_08h44.01.012,HF_wild_card,2022.2.4,MacIntel,55.55555556,56e59ae1b2093a000c4f138d,64d2fd46c836a06233681665,64dc7e2f11ceb89b77a08da3,,,,,,,sngl,resources/DB.BMP,resources/Empty.png,WildCard_NonEx,-0.145555556,-0.057777778,1,0,0,0.702,optionLeft,45,1045,1,21,0,21,0,1,,,,,,,,,,,,,,,,,,,,,,,,,,,,,,,,,,,,,,,
,,,,,,,,2023-08-16_08h44.01.012,HF_wild_card,2022.2.4,MacIntel,55.55555556,56e59ae1b2093a000c4f138d,64d2fd46c836a06233681665,64dc7e2f11ceb89b77a08da3,,,,,,,decisionTrl,resources/DBN.BMP,resources/DR.BMP,Door4,-0.324444444,-0.113333333,1,0,0,0.629,optionLeft,60,1105,1,22,0,22,0,1,,,,,,,,,,,,,,,,,,,,,,,,,,,,,,,,,,,,,,,
,,,,,,,,2023-08-16_08h44.01.012,HF_wild_card,2022.2.4,MacIntel,55.55555556,56e59ae1b2093a000c4f138d,64d2fd46c836a06233681665,64dc7e2f11ceb89b77a08da3,,,,,,,decisionTrl,resources/DBN.BMP,resources/DR.BMP,Door4,-0.227777778,-0.094444444,1,0,0,0.842,optionLeft,80,1185,1,23,0,23,0,1,,,,,,,,,,,,,,,,,,,,,,,,,,,,,,,,,,,,,,,
,,,,,,,,2023-08-16_08h44.01.012,HF_wild_card,2022.2.4,MacIntel,55.55555556,56e59ae1b2093a000c4f138d,64d2fd46c836a06233681665,64dc7e2f11ceb89b77a08da3,,,,,,,decisionTrl,resources/DP.BMP,resources/DY.BMP,Door1,-0.276666667,-0.066666667,1,0,0,0.878,optionLeft,30,1215,1,24,0,24,0,1,,,,,,,,,,,,,,,,,,,,,,,,,,,,,,,,,,,,,,,
,,,,,,,,2023-08-16_08h44.01.012,HF_wild_card,2022.2.4,MacIntel,55.55555556,56e59ae1b2093a000c4f138d,64d2fd46c836a06233681665,64dc7e2f11ceb89b77a08da3,,,,,,,decisionTrl,resources/DP.BMP,resources/DB.BMP,Door1,-0.336666667,-0.015555556,1,0,0,0.629,optionLeft,30,1245,1,25,0,25,0,1,,,,,,,,,,,,,,,,,,,,,,,,,,,,,,,,,,,,,,,
,,,,,,,,2023-08-16_08h44.01.012,HF_wild_card,2022.2.4,MacIntel,55.55555556,56e59ae1b2093a000c4f138d,64d2fd46c836a06233681665,64dc7e2f11ceb89b77a08da3,,,,,,,decisionTrl,resources/DB.BMP,resources/DBN.BMP,WildCard_NonEx,-0.201111111,-0.042222222,1,0,0,0.874,optionLeft,55,1300,1,26,0,26,0,1,,,,,,,,,,,,,,,,,,,,,,,,,,,,,,,,,,,,,,,
,,,,,,,,2023-08-16_08h44.01.012,HF_wild_card,2022.2.4,MacIntel,55.55555556,56e59ae1b2093a000c4f138d,64d2fd46c836a06233681665,64dc7e2f11ceb89b77a08da3,,,,,,,decisionTrl,resources/DY.BMP,resources/DP.BMP,Door2,-0.174444444,-0.087777778,1,0,0,0.611,optionLeft,40,1340,1,27,0,27,0,1,,,,,,,,,,,,,,,,,,,,,,,,,,,,,,,,,,,,,,,
,,,,,,,,2023-08-16_08h44.01.012,HF_wild_card,2022.2.4,MacIntel,55.55555556,56e59ae1b2093a000c4f138d,64d2fd46c836a06233681665,64dc7e2f11ceb89b77a08da3,,,,,,,decisionTrl,resources/DBN.BMP,resources/DB.BMP,Door4,-0.33,-0.004444444,1,0,0,0.624,optionLeft,80,1420,1,28,0,28,0,1,,,,,,,,,,,,,,,,,,,,,,,,,,,,,,,,,,,,,,,
,,,,,,,,2023-08-16_08h44.01.012,HF_wild_card,2022.2.4,MacIntel,55.55555556,56e59ae1b2093a000c4f138d,64d2fd46c836a06233681665,64dc7e2f11ceb89b77a08da3,,,,,,,decisionTrl,resources/DB.BMP,resources/DR.BMP,WildCard_NonEx,-0.293333333,-0.042222222,1,0,0,0.528,optionLeft,55,1475,1,29,0,29,0,1,,,,,,,,,,,,,,,,,,,,,,,,,,,,,,,,,,,,,,,
,,,,,,,,2023-08-16_08h44.01.012,HF_wild_card,2022.2.4,MacIntel,55.55555556,56e59ae1b2093a000c4f138d,64d2fd46c836a06233681665,64dc7e2f11ceb89b77a08da3,,,,,,,ctch,resources/DR.BMP,resources/DY.BMP,Door3,-0.337777778,0.012222222,1,0,0,0.463,optionLeft,70,1545,1,30,0,30,0,1,,,,,,,,,,,,,,,,,,,,,,,,,,,,,,,,,,,,,,,
,,,,,,,,2023-08-16_08h44.01.012,HF_wild_card,2022.2.4,MacIntel,55.55555556,56e59ae1b2093a000c4f138d,64d2fd46c836a06233681665,64dc7e2f11ceb89b77a08da3,,,,,,,sngl,resources/Empty.png,resources/DB.BMP,WildCard_NonEx,0.364444444,0.028888889,1,0,0,0.906,optionRight,55,1600,1,31,0,31,0,1,,,,,,,,,,,,,,,,,,,,,,,,,,,,,,,,,,,,,,,
,,,,,,,,2023-08-16_08h44.01.012,HF_wild_card,2022.2.4,MacIntel,55.55555556,56e59ae1b2093a000c4f138d,64d2fd46c836a06233681665,64dc7e2f11ceb89b77a08da3,,,,,,,sngl,resources/DY.BMP,resources/Empty.png,Door2,-0.244444444,-0.065555556,1,0,0,0.504,optionLeft,40,1640,1,32,0,32,0,1,,,,,,,,,,,,,,,,,,,,,,,,,,,,,,,,,,,,,,,
,,,,,,,,2023-08-16_08h44.01.012,HF_wild_card,2022.2.4,MacIntel,55.55555556,56e59ae1b2093a000c4f138d,64d2fd46c836a06233681665,64dc7e2f11ceb89b77a08da3,,,,,,,decisionTrl,resources/DP.BMP,resources/DY.BMP,Door1,-0.303333333,-0.107777778,1,0,0,0.498,optionLeft,30,1670,1,33,0,33,0,1,,,,,,,,,,,,,,,,,,,,,,,,,,,,,,,,,,,,,,,
,,,,,,,,2023-08-16_08h44.01.012,HF_wild_card,2022.2.4,MacIntel,55.55555556,56e59ae1b2093a000c4f138d,64d2fd46c836a06233681665,64dc7e2f11ceb89b77a08da3,,,,,,,sngl,resources/Empty.png,resources/DP.BMP,Door1,0.261111111,-0.061111111,1,0,0,0.713,optionRight,30,1700,1,34,0,34,0,1,,,,,,,,,,,,,,,,,,,,,,,,,,,,,,,,,,,,,,,
,,,,,,,,2023-08-16_08h44.01.012,HF_wild_card,2022.2.4,MacIntel,55.55555556,56e59ae1b2093a000c4f138d,64d2fd46c836a06233681665,64dc7e2f11ceb89b77a08da3,,,,,,,decisionTrl,resources/DBN.BMP,resources/DR.BMP,Door4,-0.27,-0.081111111,1,0,0,0.466,optionLeft,80,1780,1,35,0,35,0,1,,,,,,,,,,,,,,,,,,,,,,,,,,,,,,,,,,,,,,,
,,,,,,,,2023-08-16_08h44.01.012,HF_wild_card,2022.2.4,MacIntel,55.55555556,56e59ae1b2093a000c4f138d,64d2fd46c836a06233681665,64dc7e2f11ceb89b77a08da3,,,,,,,sngl,resources/Empty.png,resources/DB.BMP,WildCard_NonEx,0.233333333,-0.075555556,1,0,0,0.538,optionRight,45,1825,1,36,0,36,0,1,,,,,,,,,,,,,,,,,,,,,,,,,,,,,,,,,,,,,,,
,,,,,,,,2023-08-16_08h44.01.012,HF_wild_card,2022.2.4,MacIntel,55.55555556,56e59ae1b2093a000c4f138d,64d2fd46c836a06233681665,64dc7e2f11ceb89b77a08da3,,,,,,,sngl,resources/DBN.BMP,resources/Empty.png,Door4,-0.221111111,-0.055555556,1,0,0,0.546,optionLeft,80,1905,1,37,0,37,0,1,,,,,,,,,,,,,,,,,,,,,,,,,,,,,,,,,,,,,,,
,,,,,,,,2023-08-16_08h44.01.012,HF_wild_card,2022.2.4,MacIntel,55.55555556,56e59ae1b2093a000c4f138d,64d2fd46c836a06233681665,64dc7e2f11ceb89b77a08da3,,,,,,,decisionTrl,resources/DR.BMP,resources/DBN.BMP,Door4,0.261111111,0.008888889,1,0,0,0.593,optionRight,60,1965,1,38,0,38,0,1,,,,,,,,,,,,,,,,,,,,,,,,,,,,,,,,,,,,,,,
,,,,,,,,2023-08-16_08h44.01.012,HF_wild_card,2022.2.4,MacIntel,55.55555556,56e59ae1b2093a000c4f138d,64d2fd46c836a06233681665,64dc7e2f11ceb89b77a08da3,,,,,,,ctch,resources/DBN.BMP,resources/DP.BMP,Door4,-0.202222222,-0.087777778,1,0,0,0.672,optionLeft,80,2045,1,39,0,39,0,1,,,,,,,,,,,,,,,,,,,,,,,,,,,,,,,,,,,,,,,
,,,,,,,,2023-08-16_08h44.01.012,HF_wild_card,2022.2.4,MacIntel,55.55555556,56e59ae1b2093a000c4f138d,64d2fd46c836a06233681665,64dc7e2f11ceb89b77a08da3,,,,,,,decisionTrl,resources/DBN.BMP,resources/DR.BMP,Door4,-0.253333333,-0.11,1,0,0,0.627,optionLeft,60,2105,1,40,0,40,0,1,,,,,,,,,,,,,,,,,,,,,,,,,,,,,,,,,,,,,,,
,,,,,,,,2023-08-16_08h44.01.012,HF_wild_card,2022.2.4,MacIntel,55.55555556,56e59ae1b2093a000c4f138d,64d2fd46c836a06233681665,64dc7e2f11ceb89b77a08da3,,,,,,,ctch,resources/DBN.BMP,resources/DP.BMP,Door4,-0.124444444,-0.051111111,1,0,0,0.611,optionLeft,80,2185,1,41,0,41,0,1,,,,,,,,,,,,,,,,,,,,,,,,,,,,,,,,,,,,,,,
,,,,,,,,2023-08-16_08h44.01.012,HF_wild_card,2022.2.4,MacIntel,55.55555556,56e59ae1b2093a000c4f138d,64d2fd46c836a06233681665,64dc7e2f11ceb89b77a08da3,,,,,,,decisionTrl,resources/DP.BMP,resources/DY.BMP,Door1,-0.291111111,-0.122222222,1,0,0,0.558,optionLeft,30,2215,1,42,0,42,0,1,,,,,,,,,,,,,,,,,,,,,,,,,,,,,,,,,,,,,,,
,,,,,,,,2023-08-16_08h44.01.012,HF_wild_card,2022.2.4,MacIntel,55.55555556,56e59ae1b2093a000c4f138d,64d2fd46c836a06233681665,64dc7e2f11ceb89b77a08da3,,,,,,,sngl,resources/Empty.png,resources/DBN.BMP,Door4,0.232222222,0.081111111,1,0,0,0.681,optionRight,60,2275,1,43,0,43,0,1,,,,,,,,,,,,,,,,,,,,,,,,,,,,,,,,,,,,,,,
,,,,,,,,2023-08-16_08h44.01.012,HF_wild_card,2022.2.4,MacIntel,55.55555556,56e59ae1b2093a000c4f138d,64d2fd46c836a06233681665,64dc7e2f11ceb89b77a08da3,,,,,,,,,,,,,,,,,,,,,,,,,,0,0,0,0,1,,,,,,,,,,,,,,,,,,,,,,,,,,,,,,,,,,
,,,,,,,,2023-08-16_08h44.01.012,HF_wild_card,2022.2.4,MacIntel,55.55555556,56e59ae1b2093a000c4f138d,64d2fd46c836a06233681665,64dc7e2f11ceb89b77a08da3,,,,,,,ctch,resources/DBN.BMP,resources/DP.BMP,Door4,-0.292222222,-0.091111111,1,0,0,0.594,optionLeft,80,2355,2,0,0,0,0,1,,,,,,,,,,,,,,,,,,,,,,,,,,,,,,,,,,,,,,,
,,,,,,,,2023-08-16_08h44.01.012,HF_wild_card,2022.2.4,MacIntel,55.55555556,56e59ae1b2093a000c4f138d,64d2fd46c836a06233681665,64dc7e2f11ceb89b77a08da3,,,,,,,decisionTrl,resources/DR.BMP,resources/DBN.BMP,Door3,-0.206666667,-0.092222222,1,0,0,0.592,optionLeft,70,2425,2,1,0,1,0,1,,,,,,,,,,,,,,,,,,,,,,,,,,,,,,,,,,,,,,,
,,,,,,,,2023-08-16_08h44.01.012,HF_wild_card,2022.2.4,MacIntel,55.55555556,56e59ae1b2093a000c4f138d,64d2fd46c836a06233681665,64dc7e2f11ceb89b77a08da3,,,,,,,sngl,resources/Empty.png,resources/DP.BMP,Door1,0.206666667,-0.131111111,1,0,0,0.689,optionRight,30,2455,2,2,0,2,0,1,,,,,,,,,,,,,,,,,,,,,,,,,,,,,,,,,,,,,,,
,,,,,,,,2023-08-16_08h44.01.012,HF_wild_card,2022.2.4,MacIntel,55.55555556,56e59ae1b2093a000c4f138d,64d2fd46c836a06233681665,64dc7e2f11ceb89b77a08da3,,,,,,,decisionTrl,resources/DBN.BMP,resources/DR.BMP,Door4,-0.247777778,-0.047777778,1,0,0,0.54,optionLeft,80,2535,2,3,0,3,0,1,,,,,,,,,,,,,,,,,,,,,,,,,,,,,,,,,,,,,,,
,,,,,,,,2023-08-16_08h44.01.012,HF_wild_card,2022.2.4,MacIntel,55.55555556,56e59ae1b2093a000c4f138d,64d2fd46c836a06233681665,64dc7e2f11ceb89b77a08da3,,,,,,,decisionTrl,resources/DP.BMP,resources/DB.BMP,Door1,-0.254444444,-0.081111111,1,0,0,0.632,optionLeft,30,2565,2,4,0,4,0,1,,,,,,,,,,,,,,,,,,,,,,,,,,,,,,,,,,,,,,,
,,,,,,,,2023-08-16_08h44.01.012,HF_wild_card,2022.2.4,MacIntel,55.55555556,56e59ae1b2093a000c4f138d,64d2fd46c836a06233681665,64dc7e2f11ceb89b77a08da3,,,,,,,decisionTrl,resources/DY.BMP,resources/DB.BMP,WildCard_NonEx,0.168888889,-0.028888889,1,0,0,0.664,optionRight,45,2610,2,5,0,5,0,1,,,,,,,,,,,,,,,,,,,,,,,,,,,,,,,,,,,,,,,
,,,,,,,,2023-08-16_08h44.01.012,HF_wild_card,2022.2.4,MacIntel,55.55555556,56e59ae1b2093a000c4f138d,64d2fd46c836a06233681665,64dc7e2f11ceb89b77a08da3,,,,,,,ctch,resources/DR.BMP,resources/DY.BMP,Door3,-0.231111111,-0.09,1,0,0,0.487,optionLeft,70,2680,2,6,0,6,0,1,,,,,,,,,,,,,,,,,,,,,,,,,,,,,,,,,,,,,,,
,,,,,,,,2023-08-16_08h44.01.012,HF_wild_card,2022.2.4,MacIntel,55.55555556,56e59ae1b2093a000c4f138d,64d2fd46c836a06233681665,64dc7e2f11ceb89b77a08da3,,,,,,,decisionTrl,resources/DP.BMP,resources/DY.BMP,Door1,-0.24,-0.091111111,1,0,0,0.544,optionLeft,30,2710,2,7,0,7,0,1,,,,,,,,,,,,,,,,,,,,,,,,,,,,,,,,,,,,,,,
,,,,,,,,2023-08-16_08h44.01.012,HF_wild_card,2022.2.4,MacIntel,55.55555556,56e59ae1b2093a000c4f138d,64d2fd46c836a06233681665,64dc7e2f11ceb89b77a08da3,,,,,,,sngl,resources/Empty.png,resources/DBN.BMP,Door4,0.204444444,-0.016666667,1,0,0,0.539,optionRight,80,2790,2,8,0,8,0,1,,,,,,,,,,,,,,,,,,,,,,,,,,,,,,,,,,,,,,,
,,,,,,,,2023-08-16_08h44.01.012,HF_wild_card,2022.2.4,MacIntel,55.55555556,56e59ae1b2093a000c4f138d,64d2fd46c836a06233681665,64dc7e2f11ceb89b77a08da3,,,,,,,decisionTrl,resources/DP.BMP,resources/DY.BMP,Door1,-0.296666667,-0.1,1,0,0,0.65,optionLeft,30,2820,2,9,0,9,0,1,,,,,,,,,,,,,,,,,,,,,,,,,,,,,,,,,,,,,,,
,,,,,,,,2023-08-16_08h44.01.012,HF_wild_card,2022.2.4,MacIntel,55.55555556,56e59ae1b2093a000c4f138d,64d2fd46c836a06233681665,64dc7e2f11ceb89b77a08da3,,,,,,,sngl,resources/Empty.png,resources/DR.BMP,Door3,0.306666667,-0.03,1,0,0,0.825,optionRight,70,2890,2,10,0,10,0,1,,,,,,,,,,,,,,,,,,,,,,,,,,,,,,,,,,,,,,,
,,,,,,,,2023-08-16_08h44.01.012,HF_wild_card,2022.2.4,MacIntel,55.55555556,56e59ae1b2093a000c4f138d,64d2fd46c836a06233681665,64dc7e2f11ceb89b77a08da3,,,,,,,decisionTrl,resources/DR.BMP,resources/DBN.BMP,Door3,-0.198888889,-0.041111111,1,0,0,0.594,optionLeft,70,2960,2,11,0,11,0,1,,,,,,,,,,,,,,,,,,,,,,,,,,,,,,,,,,,,,,,
,,,,,,,,2023-08-16_08h44.01.012,HF_wild_card,2022.2.4,MacIntel,55.55555556,56e59ae1b2093a000c4f138d,64d2fd46c836a06233681665,64dc7e2f11ceb89b77a08da3,,,,,,,decisionTrl,resources/DBN.BMP,resources/DB.BMP,Door4,-0.216666667,-0.085555556,1,0,0,0.686,optionLeft,60,3020,2,12,0,12,0,1,,,,,,,,,,,,,,,,,,,,,,,,,,,,,,,,,,,,,,,
,,,,,,,,2023-08-16_08h44.01.012,HF_wild_card,2022.2.4,MacIntel,55.55555556,56e59ae1b2093a000c4f138d,64d2fd46c836a06233681665,64dc7e2f11ceb89b77a08da3,,,,,,,decisionTrl,resources/DB.BMP,resources/DP.BMP,WildCard_NonEx,-0.294444444,-0.082222222,1,0,0,0.537,optionLeft,55,3075,2,13,0,13,0,1,,,,,,,,,,,,,,,,,,,,,,,,,,,,,,,,,,,,,,,
,,,,,,,,2023-08-16_08h44.01.012,HF_wild_card,2022.2.4,MacIntel,55.55555556,56e59ae1b2093a000c4f138d,64d2fd46c836a06233681665,64dc7e2f11ceb89b77a08da3,,,,,,,decisionTrl,resources/DY.BMP,resources/DP.BMP,Door2,-0.202222222,-0.088888889,1,0,0,0.677,optionLeft,40,3115,2,14,0,14,0,1,,,,,,,,,,,,,,,,,,,,,,,,,,,,,,,,,,,,,,,
,,,,,,,,2023-08-16_08h44.01.012,HF_wild_card,2022.2.4,MacIntel,55.55555556,56e59ae1b2093a000c4f138d,64d2fd46c836a06233681665,64dc7e2f11ceb89b77a08da3,,,,,,,decisionTrl,resources/DP.BMP,resources/DY.BMP,Door1,-0.303333333,-0.093333333,1,0,0,0.609,optionLeft,30,3145,2,15,0,15,0,1,,,,,,,,,,,,,,,,,,,,,,,,,,,,,,,,,,,,,,,
,,,,,,,,2023-08-16_08h44.01.012,HF_wild_card,2022.2.4,MacIntel,55.55555556,56e59ae1b2093a000c4f138d,64d2fd46c836a06233681665,64dc7e2f11ceb89b77a08da3,,,,,,,decisionTrl,resources/DB.BMP,resources/DBN.BMP,WildCard_NonEx,-0.325555556,-0.124444444,1,0,0,0.512,optionLeft,55,3200,2,16,0,16,0,1,,,,,,,,,,,,,,,,,,,,,,,,,,,,,,,,,,,,,,,
,,,,,,,,2023-08-16_08h44.01.012,HF_wild_card,2022.2.4,MacIntel,55.55555556,56e59ae1b2093a000c4f138d,64d2fd46c836a06233681665,64dc7e2f11ceb89b77a08da3,,,,,,,decisionTrl,resources/DY.BMP,resources/DP.BMP,Door2,-0.113333333,-0.065555556,1,0,0,0.573,optionLeft,40,3240,2,17,0,17,0,1,,,,,,,,,,,,,,,,,,,,,,,,,,,,,,,,,,,,,,,
,,,,,,,,2023-08-16_08h44.01.012,HF_wild_card,2022.2.4,MacIntel,55.55555556,56e59ae1b2093a000c4f138d,64d2fd46c836a06233681665,64dc7e2f11ceb89b77a08da3,,,,,,,ctch,resources/DP.BMP,resources/DBN.BMP,Door1,-0.281111111,-0.047777778,1,0,0,0.639,optionLeft,30,3270,2,18,0,18,0,1,,,,,,,,,,,,,,,,,,,,,,,,,,,,,,,,,,,,,,,
,,,,,,,,2023-08-16_08h44.01.012,HF_wild_card,2022.2.4,MacIntel,55.55555556,56e59ae1b2093a000c4f138d,64d2fd46c836a06233681665,64dc7e2f11ceb89b77a08da3,,,,,,,sngl,resources/Empty.png,resources/DB.BMP,WildCard_NonEx,0.251111111,-0.002222222,1,0,0,0.995,optionRight,45,3315,2,19,0,19,0,1,,,,,,,,,,,,,,,,,,,,,,,,,,,,,,,,,,,,,,,
,,,,,,,,2023-08-16_08h44.01.012,HF_wild_card,2022.2.4,MacIntel,55.55555556,56e59ae1b2093a000c4f138d,64d2fd46c836a06233681665,64dc7e2f11ceb89b77a08da3,,,,,,,sngl,resources/Empty.png,resources/DY.BMP,Door2,0.276666667,0.004444444,1,0,0,0.78,optionRight,40,3355,2,20,0,20,0,1,,,,,,,,,,,,,,,,,,,,,,,,,,,,,,,,,,,,,,,
,,,,,,,,2023-08-16_08h44.01.012,HF_wild_card,2022.2.4,MacIntel,55.55555556,56e59ae1b2093a000c4f138d,64d2fd46c836a06233681665,64dc7e2f11ceb89b77a08da3,,,,,,,sngl,resources/DY.BMP,resources/Empty.png,Door2,-0.382222222,-0.02,1,0,0,0.592,optionLeft,20,3375,2,21,0,21,0,1,,,,,,,,,,,,,,,,,,,,,,,,,,,,,,,,,,,,,,,
,,,,,,,,2023-08-16_08h44.01.012,HF_wild_card,2022.2.4,MacIntel,55.55555556,56e59ae1b2093a000c4f138d,64d2fd46c836a06233681665,64dc7e2f11ceb89b77a08da3,,,,,,,decisionTrl,resources/DY.BMP,resources/DP.BMP,Door2,-0.176666667,-0.008888889,1,0,0,0.686,optionLeft,40,3415,2,22,0,22,0,1,,,,,,,,,,,,,,,,,,,,,,,,,,,,,,,,,,,,,,,
,,,,,,,,2023-08-16_08h44.01.012,HF_wild_card,2022.2.4,MacIntel,55.55555556,56e59ae1b2093a000c4f138d,64d2fd46c836a06233681665,64dc7e2f11ceb89b77a08da3,,,,,,,decisionTrl,resources/DY.BMP,resources/DP.BMP,Door2,-0.346666667,-0.068888889,1,0,0,0.615,optionLeft,40,3455,2,23,0,23,0,1,,,,,,,,,,,,,,,,,,,,,,,,,,,,,,,,,,,,,,,
,,,,,,,,2023-08-16_08h44.01.012,HF_wild_card,2022.2.4,MacIntel,55.55555556,56e59ae1b2093a000c4f138d,64d2fd46c836a06233681665,64dc7e2f11ceb89b77a08da3,,,,,,,sngl,resources/DBN.BMP,resources/Empty.png,Door4,-0.324444444,0,1,0,0,0.569,optionLeft,60,3515,2,24,0,24,0,1,,,,,,,,,,,,,,,,,,,,,,,,,,,,,,,,,,,,,,,
,,,,,,,,2023-08-16_08h44.01.012,HF_wild_card,2022.2.4,MacIntel,55.55555556,56e59ae1b2093a000c4f138d,64d2fd46c836a06233681665,64dc7e2f11ceb89b77a08da3,,,,,,,ctch,resources/DR.BMP,resources/DY.BMP,Door3,-0.316666667,-0.003333333,1,0,0,0.521,optionLeft,70,3585,2,25,0,25,0,1,,,,,,,,,,,,,,,,,,,,,,,,,,,,,,,,,,,,,,,
,,,,,,,,2023-08-16_08h44.01.012,HF_wild_card,2022.2.4,MacIntel,55.55555556,56e59ae1b2093a000c4f138d,64d2fd46c836a06233681665,64dc7e2f11ceb89b77a08da3,,,,,,,sngl,resources/DB.BMP,resources/Empty.png,WildCard_NonEx,-0.251111111,-0.025555556,1,0,0,0.573,optionLeft,55,3640,2,26,0,26,0,1,,,,,,,,,,,,,,,,,,,,,,,,,,,,,,,,,,,,,,,
,,,,,,,,2023-08-16_08h44.01.012,HF_wild_card,2022.2.4,MacIntel,55.55555556,56e59ae1b2093a000c4f138d,64d2fd46c836a06233681665,64dc7e2f11ceb89b77a08da3,,,,,,,sngl,resources/DP.BMP,resources/Empty.png,Door1,-0.247777778,-0.108888889,1,0,0,1.367,optionLeft,30,3670,2,27,0,27,0,1,,,,,,,,,,,,,,,,,,,,,,,,,,,,,,,,,,,,,,,
,,,,,,,,2023-08-16_08h44.01.012,HF_wild_card,2022.2.4,MacIntel,55.55555556,56e59ae1b2093a000c4f138d,64d2fd46c836a06233681665,64dc7e2f11ceb89b77a08da3,,,,,,,sngl,resources/DB.BMP,resources/Empty.png,WildCard_NonEx,-0.216666667,-0.05,1,0,0,1.476,optionLeft,45,3715,2,28,0,28,0,1,,,,,,,,,,,,,,,,,,,,,,,,,,,,,,,,,,,,,,,
,,,,,,,,2023-08-16_08h44.01.012,HF_wild_card,2022.2.4,MacIntel,55.55555556,56e59ae1b2093a000c4f138d,64d2fd46c836a06233681665,64dc7e2f11ceb89b77a08da3,,,,,,,ctch,resources/DY.BMP,resources/DR.BMP,Door2,-0.173333333,-0.038888889,1,0,0,0.659,optionLeft,40,3755,2,29,0,29,0,1,,,,,,,,,,,,,,,,,,,,,,,,,,,,,,,,,,,,,,,
,,,,,,,,2023-08-16_08h44.01.012,HF_wild_card,2022.2.4,MacIntel,55.55555556,56e59ae1b2093a000c4f138d,64d2fd46c836a06233681665,64dc7e2f11ceb89b77a08da3,,,,,,,decisionTrl,resources/DB.BMP,resources/DY.BMP,WildCard_NonEx,-0.33,0.001111111,1,0,0,1.817,optionLeft,55,3810,2,30,0,30,0,1,,,,,,,,,,,,,,,,,,,,,,,,,,,,,,,,,,,,,,,
,,,,,,,,2023-08-16_08h44.01.012,HF_wild_card,2022.2.4,MacIntel,55.55555556,56e59ae1b2093a000c4f138d,64d2fd46c836a06233681665,64dc7e2f11ceb89b77a08da3,,,,,,,decisionTrl,resources/DBN.BMP,resources/DR.BMP,Door4,-0.315555556,-0.134444444,1,0,0,0.626,optionLeft,80,3890,2,31,0,31,0,1,,,,,,,,,,,,,,,,,,,,,,,,,,,,,,,,,,,,,,,
,,,,,,,,2023-08-16_08h44.01.012,HF_wild_card,2022.2.4,MacIntel,55.55555556,56e59ae1b2093a000c4f138d,64d2fd46c836a06233681665,64dc7e2f11ceb89b77a08da3,,,,,,,decisionTrl,resources/DP.BMP,resources/DY.BMP,Door1,-0.37,-0.161111111,1,0,0,0.477,optionLeft,30,3920,2,32,0,32,0,1,,,,,,,,,,,,,,,,,,,,,,,,,,,,,,,,,,,,,,,
,,,,,,,,2023-08-16_08h44.01.012,HF_wild_card,2022.2.4,MacIntel,55.55555556,56e59ae1b2093a000c4f138d,64d2fd46c836a06233681665,64dc7e2f11ceb89b77a08da3,,,,,,,ctch,resources/DBN.BMP,resources/DP.BMP,Door4,-0.316666667,-0.082222222,1,0,0,0.49,optionLeft,60,3980,2,33,0,33,0,1,,,,,,,,,,,,,,,,,,,,,,,,,,,,,,,,,,,,,,,
,,,,,,,,2023-08-16_08h44.01.012,HF_wild_card,2022.2.4,MacIntel,55.55555556,56e59ae1b2093a000c4f138d,64d2fd46c836a06233681665,64dc7e2f11ceb89b77a08da3,,,,,,,decisionTrl,resources/DB.BMP,resources/DR.BMP,WildCard_NonEx,-0.34,-0.097777778,1,0,0,0.476,optionLeft,45,4025,2,34,0,34,0,1,,,,,,,,,,,,,,,,,,,,,,,,,,,,,,,,,,,,,,,
,,,,,,,,2023-08-16_08h44.01.012,HF_wild_card,2022.2.4,MacIntel,55.55555556,56e59ae1b2093a000c4f138d,64d2fd46c836a06233681665,64dc7e2f11ceb89b77a08da3,,,,,,,decisionTrl,resources/DR.BMP,resources/DB.BMP,Door3,-0.207777778,-0.065555556,1,0,0,0.416,optionLeft,70,4095,2,35,0,35,0,1,,,,,,,,,,,,,,,,,,,,,,,,,,,,,,,,,,,,,,,
,,,,,,,,2023-08-16_08h44.01.012,HF_wild_card,2022.2.4,MacIntel,55.55555556,56e59ae1b2093a000c4f138d,64d2fd46c836a06233681665,64dc7e2f11ceb89b77a08da3,,,,,,,decisionTrl,resources/DR.BMP,resources/DBN.BMP,Door3,-0.235555556,-0.071111111,1,0,0,0.549,optionLeft,70,4165,2,36,0,36,0,1,,,,,,,,,,,,,,,,,,,,,,,,,,,,,,,,,,,,,,,
,,,,,,,,2023-08-16_08h44.01.012,HF_wild_card,2022.2.4,MacIntel,55.55555556,56e59ae1b2093a000c4f138d,64d2fd46c836a06233681665,64dc7e2f11ceb89b77a08da3,,,,,,,sngl,resources/Empty.png,resources/DB.BMP,WildCard_NonEx,0.344444444,-0.04,1,0,0,0.81,optionRight,55,4220,2,37,0,37,0,1,,,,,,,,,,,,,,,,,,,,,,,,,,,,,,,,,,,,,,,
,,,,,,,,2023-08-16_08h44.01.012,HF_wild_card,2022.2.4,MacIntel,55.55555556,56e59ae1b2093a000c4f138d,64d2fd46c836a06233681665,64dc7e2f11ceb89b77a08da3,,,,,,,ctch,resources/DP.BMP,resources/DBN.BMP,Door1,-0.408888889,-0.181111111,1,0,0,0.481,optionLeft,30,4250,2,38,0,38,0,1,,,,,,,,,,,,,,,,,,,,,,,,,,,,,,,,,,,,,,,
,,,,,,,,2023-08-16_08h44.01.012,HF_wild_card,2022.2.4,MacIntel,55.55555556,56e59ae1b2093a000c4f138d,64d2fd46c836a06233681665,64dc7e2f11ceb89b77a08da3,,,,,,,sngl,resources/DR.BMP,resources/Empty.png,Door3,-0.354444444,-0.05,1,0,0,0.5,optionLeft,70,4320,2,39,0,39,0,1,,,,,,,,,,,,,,,,,,,,,,,,,,,,,,,,,,,,,,,
,,,,,,,,2023-08-16_08h44.01.012,HF_wild_card,2022.2.4,MacIntel,55.55555556,56e59ae1b2093a000c4f138d,64d2fd46c836a06233681665,64dc7e2f11ceb89b77a08da3,,,,,,,decisionTrl,resources/DBN.BMP,resources/DR.BMP,Door4,-0.252222222,-0.016666667,1,0,0,0.515,optionLeft,60,4380,2,40,0,40,0,1,,,,,,,,,,,,,,,,,,,,,,,,,,,,,,,,,,,,,,,
,,,,,,,,2023-08-16_08h44.01.012,HF_wild_card,2022.2.4,MacIntel,55.55555556,56e59ae1b2093a000c4f138d,64d2fd46c836a06233681665,64dc7e2f11ceb89b77a08da3,,,,,,,decisionTrl,resources/DBN.BMP,resources/DR.BMP,Door4,-0.271111111,-0.052222222,1,0,0,0.409,optionLeft,80,4460,2,41,0,41,0,1,,,,,,,,,,,,,,,,,,,,,,,,,,,,,,,,,,,,,,,
,,,,,,,,2023-08-16_08h44.01.012,HF_wild_card,2022.2.4,MacIntel,55.55555556,56e59ae1b2093a000c4f138d,64d2fd46c836a06233681665,64dc7e2f11ceb89b77a08da3,,,,,,,ctch,resources/DY.BMP,resources/DR.BMP,Door2,-0.276666667,-0.092222222,1,0,0,0.467,optionLeft,20,4480,2,42,0,42,0,1,,,,,,,,,,,,,,,,,,,,,,,,,,,,,,,,,,,,,,,
,,,,,,,,2023-08-16_08h44.01.012,HF_wild_card,2022.2.4,MacIntel,55.55555556,56e59ae1b2093a000c4f138d,64d2fd46c836a06233681665,64dc7e2f11ceb89b77a08da3,,,,,,,decisionTrl,resources/DR.BMP,resources/DBN.BMP,Door3,-0.363333333,-0.118888889,1,0,0,0.472,optionLeft,70,4550,2,43,0,43,0,1,,,,,,,,,,,,,,,,,,,,,,,,,,,,,,,,,,,,,,,
,,,,,,,,2023-08-16_08h44.01.012,HF_wild_card,2022.2.4,MacIntel,55.55555556,56e59ae1b2093a000c4f138d,64d2fd46c836a06233681665,64dc7e2f11ceb89b77a08da3,,,,,,,,,,,,,,,,,,,,,,,,,,1,0,1,0,1,,,,,,,,,,,,,,,,,,,,,,,,,,,,,,,,,,
,,,,,,,,2023-08-16_08h44.01.012,HF_wild_card,2022.2.4,MacIntel,55.55555556,56e59ae1b2093a000c4f138d,64d2fd46c836a06233681665,64dc7e2f11ceb89b77a08da3,,,,,,,ctch,resources/DP.BMP,resources/DBN.BMP,Door1,-0.202222222,-0.141111111,1,0,0,1.05,optionLeft,30,4580,3,0,0,0,0,1,,,,,,,,,,,,,,,,,,,,,,,,,,,,,,,,,,,,,,,
,,,,,,,,2023-08-16_08h44.01.012,HF_wild_card,2022.2.4,MacIntel,55.55555556,56e59ae1b2093a000c4f138d,64d2fd46c836a06233681665,64dc7e2f11ceb89b77a08da3,,,,,,,sngl,resources/Empty.png,resources/DBN.BMP,Door4,0.222222222,-0.006666667,1,0,0,0.481,optionRight,60,4640,3,1,0,1,0,1,,,,,,,,,,,,,,,,,,,,,,,,,,,,,,,,,,,,,,,
,,,,,,,,2023-08-16_08h44.01.012,HF_wild_card,2022.2.4,MacIntel,55.55555556,56e59ae1b2093a000c4f138d,64d2fd46c836a06233681665,64dc7e2f11ceb89b77a08da3,,,,,,,decisionTrl,resources/DY.BMP,resources/DP.BMP,Door2,-0.207777778,-0.075555556,1,0,0,0.524,optionLeft,20,4660,3,2,0,2,0,1,,,,,,,,,,,,,,,,,,,,,,,,,,,,,,,,,,,,,,,
,,,,,,,,2023-08-16_08h44.01.012,HF_wild_card,2022.2.4,MacIntel,55.55555556,56e59ae1b2093a000c4f138d,64d2fd46c836a06233681665,64dc7e2f11ceb89b77a08da3,,,,,,,sngl,resources/Empty.png,resources/DB.BMP,WildCard_NonEx,0.227777778,-0.042222222,1,0,0,0.488,optionRight,55,4715,3,3,0,3,0,1,,,,,,,,,,,,,,,,,,,,,,,,,,,,,,,,,,,,,,,
,,,,,,,,2023-08-16_08h44.01.012,HF_wild_card,2022.2.4,MacIntel,55.55555556,56e59ae1b2093a000c4f138d,64d2fd46c836a06233681665,64dc7e2f11ceb89b77a08da3,,,,,,,decisionTrl,resources/DR.BMP,resources/DBN.BMP,Door3,-0.185555556,-0.085555556,1,0,0,0.448,optionLeft,70,4785,3,4,0,4,0,1,,,,,,,,,,,,,,,,,,,,,,,,,,,,,,,,,,,,,,,
,,,,,,,,2023-08-16_08h44.01.012,HF_wild_card,2022.2.4,MacIntel,55.55555556,56e59ae1b2093a000c4f138d,64d2fd46c836a06233681665,64dc7e2f11ceb89b77a08da3,,,,,,,decisionTrl,resources/DR.BMP,resources/DBN.BMP,Door3,-0.316666667,-0.092222222,1,0,0,0.533,optionLeft,70,4855,3,5,0,5,0,1,,,,,,,,,,,,,,,,,,,,,,,,,,,,,,,,,,,,,,,
,,,,,,,,2023-08-16_08h44.01.012,HF_wild_card,2022.2.4,MacIntel,55.55555556,56e59ae1b2093a000c4f138d,64d2fd46c836a06233681665,64dc7e2f11ceb89b77a08da3,,,,,,,ctch,resources/DBN.BMP,resources/DP.BMP,Door4,-0.217777778,-0.06,1,0,0,0.436,optionLeft,80,4935,3,6,0,6,0,1,,,,,,,,,,,,,,,,,,,,,,,,,,,,,,,,,,,,,,,
,,,,,,,,2023-08-16_08h44.01.012,HF_wild_card,2022.2.4,MacIntel,55.55555556,56e59ae1b2093a000c4f138d,64d2fd46c836a06233681665,64dc7e2f11ceb89b77a08da3,,,,,,,ctch,resources/DBN.BMP,resources/DP.BMP,Door4,-0.312222222,-0.026666667,1,0,0,0.539,optionLeft,60,4995,3,7,0,7,0,1,,,,,,,,,,,,,,,,,,,,,,,,,,,,,,,,,,,,,,,
,,,,,,,,2023-08-16_08h44.01.012,HF_wild_card,2022.2.4,MacIntel,55.55555556,56e59ae1b2093a000c4f138d,64d2fd46c836a06233681665,64dc7e2f11ceb89b77a08da3,,,,,,,ctch,resources/DY.BMP,resources/DR.BMP,Door2,-0.254444444,-0.002222222,1,0,0,0.56,optionLeft,40,5035,3,8,0,8,0,1,,,,,,,,,,,,,,,,,,,,,,,,,,,,,,,,,,,,,,,
,,,,,,,,2023-08-16_08h44.01.012,HF_wild_card,2022.2.4,MacIntel,55.55555556,56e59ae1b2093a000c4f138d,64d2fd46c836a06233681665,64dc7e2f11ceb89b77a08da3,,,,,,,decisionTrl,resources/DR.BMP,resources/DB.BMP,Door3,-0.318888889,-0.112222222,1,0,0,0.605,optionLeft,70,5105,3,9,0,9,0,1,,,,,,,,,,,,,,,,,,,,,,,,,,,,,,,,,,,,,,,
,,,,,,,,2023-08-16_08h44.01.012,HF_wild_card,2022.2.4,MacIntel,55.55555556,56e59ae1b2093a000c4f138d,64d2fd46c836a06233681665,64dc7e2f11ceb89b77a08da3,,,,,,,sngl,resources/Empty.png,resources/DB.BMP,WildCard_NonEx,0.107777778,-0.018888889,1,0,0,0.773,optionRight,45,5150,3,10,0,10,0,1,,,,,,,,,,,,,,,,,,,,,,,,,,,,,,,,,,,,,,,
,,,,,,,,2023-08-16_08h44.01.012,HF_wild_card,2022.2.4,MacIntel,55.55555556,56e59ae1b2093a000c4f138d,64d2fd46c836a06233681665,64dc7e2f11ceb89b77a08da3,,,,,,,decisionTrl,resources/DBN.BMP,resources/DR.BMP,Door4,-0.346666667,-0.021111111,1,0,0,0.603,optionLeft,60,5210,3,11,0,11,0,1,,,,,,,,,,,,,,,,,,,,,,,,,,,,,,,,,,,,,,,
,,,,,,,,2023-08-16_08h44.01.012,HF_wild_card,2022.2.4,MacIntel,55.55555556,56e59ae1b2093a000c4f138d,64d2fd46c836a06233681665,64dc7e2f11ceb89b77a08da3,,,,,,,decisionTrl,resources/DR.BMP,resources/DBN.BMP,Door3,-0.215555556,-0.044444444,1,0,0,0.494,optionLeft,70,5280,3,12,0,12,0,1,,,,,,,,,,,,,,,,,,,,,,,,,,,,,,,,,,,,,,,
,,,,,,,,2023-08-16_08h44.01.012,HF_wild_card,2022.2.4,MacIntel,55.55555556,56e59ae1b2093a000c4f138d,64d2fd46c836a06233681665,64dc7e2f11ceb89b77a08da3,,,,,,,decisionTrl,resources/DB.BMP,resources/DBN.BMP,WildCard_NonEx,-0.242222222,-0.003333333,1,0,0,0.485,optionLeft,45,5325,3,13,0,13,0,1,,,,,,,,,,,,,,,,,,,,,,,,,,,,,,,,,,,,,,,
,,,,,,,,2023-08-16_08h44.01.012,HF_wild_card,2022.2.4,MacIntel,55.55555556,56e59ae1b2093a000c4f138d,64d2fd46c836a06233681665,64dc7e2f11ceb89b77a08da3,,,,,,,decisionTrl,resources/DP.BMP,resources/DY.BMP,Door1,-0.267777778,-0.047777778,1,0,0,0.555,optionLeft,30,5355,3,14,0,14,0,1,,,,,,,,,,,,,,,,,,,,,,,,,,,,,,,,,,,,,,,
,,,,,,,,2023-08-16_08h44.01.012,HF_wild_card,2022.2.4,MacIntel,55.55555556,56e59ae1b2093a000c4f138d,64d2fd46c836a06233681665,64dc7e2f11ceb89b77a08da3,,,,,,,decisionTrl,resources/DBN.BMP,resources/DR.BMP,Door4,-0.323333333,-0.04,1,0,0,0.53,optionLeft,60,5415,3,15,0,15,0,1,,,,,,,,,,,,,,,,,,,,,,,,,,,,,,,,,,,,,,,
,,,,,,,,2023-08-16_08h44.01.012,HF_wild_card,2022.2.4,MacIntel,55.55555556,56e59ae1b2093a000c4f138d,64d2fd46c836a06233681665,64dc7e2f11ceb89b77a08da3,,,,,,,decisionTrl,resources/DBN.BMP,resources/DB.BMP,Door4,-0.288888889,-0.054444444,1,0,0,1.051,optionLeft,80,5495,3,16,0,16,0,1,,,,,,,,,,,,,,,,,,,,,,,,,,,,,,,,,,,,,,,
,,,,,,,,2023-08-16_08h44.01.012,HF_wild_card,2022.2.4,MacIntel,55.55555556,56e59ae1b2093a000c4f138d,64d2fd46c836a06233681665,64dc7e2f11ceb89b77a08da3,,,,,,,sngl,resources/Empty.png,resources/DY.BMP,Door2,0.183333333,0.04,1,0,0,6.896,optionRight,20,5515,3,17,0,17,0,1,,,,,,,,,,,,,,,,,,,,,,,,,,,,,,,,,,,,,,,
,,,,,,,,2023-08-16_08h44.01.012,HF_wild_card,2022.2.4,MacIntel,55.55555556,56e59ae1b2093a000c4f138d,64d2fd46c836a06233681665,64dc7e2f11ceb89b77a08da3,,,,,,,decisionTrl,resources/DP.BMP,resources/DB.BMP,Door1,-0.296666667,-0.095555556,1,0,0,0.453,optionLeft,30,5545,3,18,0,18,0,1,,,,,,,,,,,,,,,,,,,,,,,,,,,,,,,,,,,,,,,
,,,,,,,,2023-08-16_08h44.01.012,HF_wild_card,2022.2.4,MacIntel,55.55555556,56e59ae1b2093a000c4f138d,64d2fd46c836a06233681665,64dc7e2f11ceb89b77a08da3,,,,,,,sngl,resources/DP.BMP,resources/Empty.png,Door1,-0.342222222,-0.054444444,1,0,0,0.448,optionLeft,30,5575,3,19,0,19,0,1,,,,,,,,,,,,,,,,,,,,,,,,,,,,,,,,,,,,,,,
,,,,,,,,2023-08-16_08h44.01.012,HF_wild_card,2022.2.4,MacIntel,55.55555556,56e59ae1b2093a000c4f138d,64d2fd46c836a06233681665,64dc7e2f11ceb89b77a08da3,,,,,,,decisionTrl,resources/DBN.BMP,resources/DR.BMP,Door4,-0.222222222,-0.112222222,1,0,0,0.441,optionLeft,80,5655,3,20,0,20,0,1,,,,,,,,,,,,,,,,,,,,,,,,,,,,,,,,,,,,,,,
,,,,,,,,2023-08-16_08h44.01.012,HF_wild_card,2022.2.4,MacIntel,55.55555556,56e59ae1b2093a000c4f138d,64d2fd46c836a06233681665,64dc7e2f11ceb89b77a08da3,,,,,,,sngl,resources/DB.BMP,resources/Empty.png,WildCard_NonEx,-0.302222222,-0.098888889,1,0,0,1.209,optionLeft,55,5710,3,21,0,21,0,1,,,,,,,,,,,,,,,,,,,,,,,,,,,,,,,,,,,,,,,
,,,,,,,,2023-08-16_08h44.01.012,HF_wild_card,2022.2.4,MacIntel,55.55555556,56e59ae1b2093a000c4f138d,64d2fd46c836a06233681665,64dc7e2f11ceb89b77a08da3,,,,,,,decisionTrl,resources/DP.BMP,resources/DY.BMP,Door1,-0.24,-0.041111111,1,0,0,1.526,optionLeft,30,5740,3,22,0,22,0,1,,,,,,,,,,,,,,,,,,,,,,,,,,,,,,,,,,,,,,,
,,,,,,,,2023-08-16_08h44.01.012,HF_wild_card,2022.2.4,MacIntel,55.55555556,56e59ae1b2093a000c4f138d,64d2fd46c836a06233681665,64dc7e2f11ceb89b77a08da3,,,,,,,sngl,resources/Empty.png,resources/DP.BMP,Door1,0.226666667,0.037777778,1,0,0,4.075,optionRight,30,5770,3,23,0,23,0,1,,,,,,,,,,,,,,,,,,,,,,,,,,,,,,,,,,,,,,,
,,,,,,,,2023-08-16_08h44.01.012,HF_wild_card,2022.2.4,MacIntel,55.55555556,56e59ae1b2093a000c4f138d,64d2fd46c836a06233681665,64dc7e2f11ceb89b77a08da3,,,,,,,decisionTrl,resources/DY.BMP,resources/DP.BMP,Door2,-0.275555556,-0.093333333,1,0,0,6.065,optionLeft,40,5810,3,24,0,24,0,1,,,,,,,,,,,,,,,,,,,,,,,,,,,,,,,,,,,,,,,
,,,,,,,,2023-08-16_08h44.01.012,HF_wild_card,2022.2.4,MacIntel,55.55555556,56e59ae1b2093a000c4f138d,64d2fd46c836a06233681665,64dc7e2f11ceb89b77a08da3,,,,,,,decisionTrl,resources/DB.BMP,resources/DY.BMP,WildCard_NonEx,-0.324444444,-0.076666667,1,0,0,3.545,optionLeft,45,5855,3,25,0,25,0,1,,,,,,,,,,,,,,,,,,,,,,,,,,,,,,,,,,,,,,,
,,,,,,,,2023-08-16_08h44.01.012,HF_wild_card,2022.2.4,MacIntel,55.55555556,56e59ae1b2093a000c4f138d,64d2fd46c836a06233681665,64dc7e2f11ceb89b77a08da3,,,,,,,ctch,resources/DR.BMP,resources/DY.BMP,Door3,-0.325555556,-0.066666667,1,0,0,0.426,optionLeft,70,5925,3,26,0,26,0,1,,,,,,,,,,,,,,,,,,,,,,,,,,,,,,,,,,,,,,,
,,,,,,,,2023-08-16_08h44.01.012,HF_wild_card,2022.2.4,MacIntel,55.55555556,56e59ae1b2093a000c4f138d,64d2fd46c836a06233681665,64dc7e2f11ceb89b77a08da3,,,,,,,decisionTrl,resources/DY.BMP,resources/DP.BMP,Door2,-0.238888889,-0.042222222,1,0,0,0.487,optionLeft,20,5945,3,27,0,27,0,1,,,,,,,,,,,,,,,,,,,,,,,,,,,,,,,,,,,,,,,
,,,,,,,,2023-08-16_08h44.01.012,HF_wild_card,2022.2.4,MacIntel,55.55555556,56e59ae1b2093a000c4f138d,64d2fd46c836a06233681665,64dc7e2f11ceb89b77a08da3,,,,,,,sngl,resources/DR.BMP,resources/Empty.png,Door3,-0.21,-0.068888889,1,0,0,0.468,optionLeft,70,6015,3,28,0,28,0,1,,,,,,,,,,,,,,,,,,,,,,,,,,,,,,,,,,,,,,,
,,,,,,,,2023-08-16_08h44.01.012,HF_wild_card,2022.2.4,MacIntel,55.55555556,56e59ae1b2093a000c4f138d,64d2fd46c836a06233681665,64dc7e2f11ceb89b77a08da3,,,,,,,decisionTrl,resources/DP.BMP,resources/DY.BMP,Door1,-0.398888889,-0.115555556,1,0,0,2.499,optionLeft,30,6045,3,29,0,29,0,1,,,,,,,,,,,,,,,,,,,,,,,,,,,,,,,,,,,,,,,
,,,,,,,,2023-08-16_08h44.01.012,HF_wild_card,2022.2.4,MacIntel,55.55555556,56e59ae1b2093a000c4f138d,64d2fd46c836a06233681665,64dc7e2f11ceb89b77a08da3,,,,,,,decisionTrl,resources/DB.BMP,resources/DR.BMP,WildCard_NonEx,-0.184444444,-0.058888889,1,0,0,2.176,optionLeft,55,6100,3,30,0,30,0,1,,,,,,,,,,,,,,,,,,,,,,,,,,,,,,,,,,,,,,,
,,,,,,,,2023-08-16_08h44.01.012,HF_wild_card,2022.2.4,MacIntel,55.55555556,56e59ae1b2093a000c4f138d,64d2fd46c836a06233681665,64dc7e2f11ceb89b77a08da3,,,,,,,ctch,resources/DP.BMP,resources/DBN.BMP,Door1,-0.351111111,-0.122222222,1,0,0,0.464,optionLeft,30,6130,3,31,0,31,0,1,,,,,,,,,,,,,,,,,,,,,,,,,,,,,,,,,,,,,,,
,,,,,,,,2023-08-16_08h44.01.012,HF_wild_card,2022.2.4,MacIntel,55.55555556,56e59ae1b2093a000c4f138d,64d2fd46c836a06233681665,64dc7e2f11ceb89b77a08da3,,,,,,,ctch,resources/DR.BMP,resources/DY.BMP,Door3,-0.311111111,-0.142222222,1,0,0,0.452,optionLeft,70,6200,3,32,0,32,0,1,,,,,,,,,,,,,,,,,,,,,,,,,,,,,,,,,,,,,,,
,,,,,,,,2023-08-16_08h44.01.012,HF_wild_card,2022.2.4,MacIntel,55.55555556,56e59ae1b2093a000c4f138d,64d2fd46c836a06233681665,64dc7e2f11ceb89b77a08da3,,,,,,,sngl,resources/DY.BMP,resources/Empty.png,Door2,-0.23,-0.066666667,1,0,0,0.789,optionLeft,40,6240,3,33,0,33,0,1,,,,,,,,,,,,,,,,,,,,,,,,,,,,,,,,,,,,,,,
,,,,,,,,2023-08-16_08h44.01.012,HF_wild_card,2022.2.4,MacIntel,55.55555556,56e59ae1b2093a000c4f138d,64d2fd46c836a06233681665,64dc7e2f11ceb89b77a08da3,,,,,,,sngl,resources/DBN.BMP,resources/Empty.png,Door4,-0.323333333,-0.064444444,1,0,0,0.494,optionLeft,80,6320,3,34,0,34,0,1,,,,,,,,,,,,,,,,,,,,,,,,,,,,,,,,,,,,,,,
,,,,,,,,2023-08-16_08h44.01.012,HF_wild_card,2022.2.4,MacIntel,55.55555556,56e59ae1b2093a000c4f138d,64d2fd46c836a06233681665,64dc7e2f11ceb89b77a08da3,,,,,,,ctch,resources/DY.BMP,resources/DR.BMP,Door3,0.328888889,-0.004444444,1,0,0,0.931,optionRight,70,6390,3,35,0,35,0,1,,,,,,,,,,,,,,,,,,,,,,,,,,,,,,,,,,,,,,,
,,,,,,,,2023-08-16_08h44.01.012,HF_wild_card,2022.2.4,MacIntel,55.55555556,56e59ae1b2093a000c4f138d,64d2fd46c836a06233681665,64dc7e2f11ceb89b77a08da3,,,,,,,decisionTrl,resources/DP.BMP,resources/DY.BMP,Door2,0.142222222,-0.01,1,0,0,0.625,optionRight,20,6410,3,36,0,36,0,1,,,,,,,,,,,,,,,,,,,,,,,,,,,,,,,,,,,,,,,
,,,,,,,,2023-08-16_08h44.01.012,HF_wild_card,2022.2.4,MacIntel,55.55555556,56e59ae1b2093a000c4f138d,64d2fd46c836a06233681665,64dc7e2f11ceb89b77a08da3,,,,,,,decisionTrl,resources/DBN.BMP,resources/DR.BMP,Door4,-0.232222222,-0.101111111,1,0,0,0.635,optionLeft,80,6490,3,37,0,37,0,1,,,,,,,,,,,,,,,,,,,,,,,,,,,,,,,,,,,,,,,
,,,,,,,,2023-08-16_08h44.01.012,HF_wild_card,2022.2.4,MacIntel,55.55555556,56e59ae1b2093a000c4f138d,64d2fd46c836a06233681665,64dc7e2f11ceb89b77a08da3,,,,,,,sngl,resources/DB.BMP,resources/Empty.png,WildCard_NonEx,-0.252222222,-0.066666667,1,0,0,0.497,optionLeft,45,6535,3,38,0,38,0,1,,,,,,,,,,,,,,,,,,,,,,,,,,,,,,,,,,,,,,,
,,,,,,,,2023-08-16_08h44.01.012,HF_wild_card,2022.2.4,MacIntel,55.55555556,56e59ae1b2093a000c4f138d,64d2fd46c836a06233681665,64dc7e2f11ceb89b77a08da3,,,,,,,decisionTrl,resources/DY.BMP,resources/DB.BMP,Door2,-0.241111111,-0.044444444,1,0,0,0.495,optionLeft,40,6575,3,39,0,39,0,1,,,,,,,,,,,,,,,,,,,,,,,,,,,,,,,,,,,,,,,
,,,,,,,,2023-08-16_08h44.01.012,HF_wild_card,2022.2.4,MacIntel,55.55555556,56e59ae1b2093a000c4f138d,64d2fd46c836a06233681665,64dc7e2f11ceb89b77a08da3,,,,,,,decisionTrl,resources/DR.BMP,resources/DBN.BMP,Door3,-0.237777778,-0.042222222,1,0,0,1.482,optionLeft,70,6645,3,40,0,40,0,1,,,,,,,,,,,,,,,,,,,,,,,,,,,,,,,,,,,,,,,
,,,,,,,,2023-08-16_08h44.01.012,HF_wild_card,2022.2.4,MacIntel,55.55555556,56e59ae1b2093a000c4f138d,64d2fd46c836a06233681665,64dc7e2f11ceb89b77a08da3,,,,,,,decisionTrl,resources/DY.BMP,resources/DP.BMP,Door2,-0.251111111,0.003333333,1,0,0,0.483,optionLeft,20,6665,3,41,0,41,0,1,,,,,,,,,,,,,,,,,,,,,,,,,,,,,,,,,,,,,,,
,,,,,,,,2023-08-16_08h44.01.012,HF_wild_card,2022.2.4,MacIntel,55.55555556,56e59ae1b2093a000c4f138d,64d2fd46c836a06233681665,64dc7e2f11ceb89b77a08da3,,,,,,,decisionTrl,resources/DB.BMP,resources/DP.BMP,Door1,0.312222222,0.056666667,1,0,0,0.607,optionRight,30,6695,3,42,0,42,0,1,,,,,,,,,,,,,,,,,,,,,,,,,,,,,,,,,,,,,,,
,,,,,,,,2023-08-16_08h44.01.012,HF_wild_card,2022.2.4,MacIntel,55.55555556,56e59ae1b2093a000c4f138d,64d2fd46c836a06233681665,64dc7e2f11ceb89b77a08da3,,,,,,,sngl,resources/Empty.png,resources/DR.BMP,Door3,0.278888889,-0.022222222,1,0,0,0.678,optionRight,70,6765,3,43,0,43,0,1,,,,,,,,,,,,,,,,,,,,,,,,,,,,,,,,,,,,,,,
,,,,,,,,2023-08-16_08h44.01.012,HF_wild_card,2022.2.4,MacIntel,55.55555556,56e59ae1b2093a000c4f138d,64d2fd46c836a06233681665,64dc7e2f11ceb89b77a08da3,,,,,,,,,,,,,,,,,,,,,,,,,,2,0,2,0,1,,,,,,,,,,,,,,,,,,,,,,,,,,,,,,,,,,
,,,,,,,,2023-08-16_08h44.01.012,HF_wild_card,2022.2.4,MacIntel,55.55555556,56e59ae1b2093a000c4f138d,64d2fd46c836a06233681665,64dc7e2f11ceb89b77a08da3,,,,,,,ctch,resources/DBN.BMP,resources/DP.BMP,Door4,-0.222222222,-0.171111111,1,0,0,1.221,optionLeft,60,6825,4,0,0,0,0,1,,,,,,,,,,,,,,,,,,,,,,,,,,,,,,,,,,,,,,,
,,,,,,,,2023-08-16_08h44.01.012,HF_wild_card,2022.2.4,MacIntel,55.55555556,56e59ae1b2093a000c4f138d,64d2fd46c836a06233681665,64dc7e2f11ceb89b77a08da3,,,,,,,decisionTrl,resources/DR.BMP,resources/DBN.BMP,Door4,0.245555556,0.055555556,1,0,0,0.507,optionRight,80,6905,4,1,0,1,0,1,,,,,,,,,,,,,,,,,,,,,,,,,,,,,,,,,,,,,,,
,,,,,,,,2023-08-16_08h44.01.012,HF_wild_card,2022.2.4,MacIntel,55.55555556,56e59ae1b2093a000c4f138d,64d2fd46c836a06233681665,64dc7e2f11ceb89b77a08da3,,,,,,,decisionTrl,resources/DY.BMP,resources/DG.BMP,Door2,-0.21,-0.108888889,1,0,0,0.592,optionLeft,40,6945,4,2,0,2,0,1,,,,,,,,,,,,,,,,,,,,,,,,,,,,,,,,,,,,,,,
,,,,,,,,2023-08-16_08h44.01.012,HF_wild_card,2022.2.4,MacIntel,55.55555556,56e59ae1b2093a000c4f138d,64d2fd46c836a06233681665,64dc7e2f11ceb89b77a08da3,,,,,,,sngl,resources/DBN.BMP,resources/Empty.png,Door4,-0.314444444,0.012222222,1,0,0,0.552,optionLeft,60,7005,4,3,0,3,0,1,,,,,,,,,,,,,,,,,,,,,,,,,,,,,,,,,,,,,,,
,,,,,,,,2023-08-16_08h44.01.012,HF_wild_card,2022.2.4,MacIntel,55.55555556,56e59ae1b2093a000c4f138d,64d2fd46c836a06233681665,64dc7e2f11ceb89b77a08da3,,,,,,,decisionTrl,resources/DY.BMP,resources/DP.BMP,Door2,-0.333333333,-0.031111111,1,0,0,0.591,optionLeft,40,7045,4,4,0,4,0,1,,,,,,,,,,,,,,,,,,,,,,,,,,,,,,,,,,,,,,,
,,,,,,,,2023-08-16_08h44.01.012,HF_wild_card,2022.2.4,MacIntel,55.55555556,56e59ae1b2093a000c4f138d,64d2fd46c836a06233681665,64dc7e2f11ceb89b77a08da3,,,,,,,decisionTrl,resources/DP.BMP,resources/DY.BMP,Door1,-0.372222222,0.02,1,0,0,0.694,optionLeft,30,7075,4,5,0,5,0,1,,,,,,,,,,,,,,,,,,,,,,,,,,,,,,,,,,,,,,,
,,,,,,,,2023-08-16_08h44.01.012,HF_wild_card,2022.2.4,MacIntel,55.55555556,56e59ae1b2093a000c4f138d,64d2fd46c836a06233681665,64dc7e2f11ceb89b77a08da3,,,,,,,decisionTrl,resources/DG.BMP,resources/DBN.BMP,WildCard_Ex,-0.316666667,-0.117777778,1,0,0,0.498,optionLeft,55,7130,4,6,0,6,0,1,,,,,,,,,,,,,,,,,,,,,,,,,,,,,,,,,,,,,,,
,,,,,,,,2023-08-16_08h44.01.012,HF_wild_card,2022.2.4,MacIntel,55.55555556,56e59ae1b2093a000c4f138d,64d2fd46c836a06233681665,64dc7e2f11ceb89b77a08da3,,,,,,,sngl,resources/Empty.png,resources/DG.BMP,WildCard_Ex,0.196666667,-0.087777778,1,0,0,1.178,optionRight,55,7185,4,7,0,7,0,1,,,,,,,,,,,,,,,,,,,,,,,,,,,,,,,,,,,,,,,
,,,,,,,,2023-08-16_08h44.01.012,HF_wild_card,2022.2.4,MacIntel,55.55555556,56e59ae1b2093a000c4f138d,64d2fd46c836a06233681665,64dc7e2f11ceb89b77a08da3,,,,,,,decisionTrl,resources/DBN.BMP,resources/DR.BMP,Door4,-0.311111111,-0.085555556,1,0,0,0.497,optionLeft,60,7245,4,8,0,8,0,1,,,,,,,,,,,,,,,,,,,,,,,,,,,,,,,,,,,,,,,
,,,,,,,,2023-08-16_08h44.01.012,HF_wild_card,2022.2.4,MacIntel,55.55555556,56e59ae1b2093a000c4f138d,64d2fd46c836a06233681665,64dc7e2f11ceb89b77a08da3,,,,,,,decisionTrl,resources/DY.BMP,resources/DP.BMP,Door2,-0.302222222,-0.067777778,1,0,0,0.598,optionLeft,20,7265,4,9,0,9,0,1,,,,,,,,,,,,,,,,,,,,,,,,,,,,,,,,,,,,,,,
,,,,,,,,2023-08-16_08h44.01.012,HF_wild_card,2022.2.4,MacIntel,55.55555556,56e59ae1b2093a000c4f138d,64d2fd46c836a06233681665,64dc7e2f11ceb89b77a08da3,,,,,,,decisionTrl,resources/DY.BMP,resources/DP.BMP,Door2,-0.313333333,-0.06,1,0,0,0.544,optionLeft,20,7285,4,10,0,10,0,1,,,,,,,,,,,,,,,,,,,,,,,,,,,,,,,,,,,,,,,
,,,,,,,,2023-08-16_08h44.01.012,HF_wild_card,2022.2.4,MacIntel,55.55555556,56e59ae1b2093a000c4f138d,64d2fd46c836a06233681665,64dc7e2f11ceb89b77a08da3,,,,,,,decisionTrl,resources/DBN.BMP,resources/DR.BMP,Door4,-0.257777778,-0.068888889,1,0,0,0.491,optionLeft,80,7365,4,11,0,11,0,1,,,,,,,,,,,,,,,,,,,,,,,,,,,,,,,,,,,,,,,
,,,,,,,,2023-08-16_08h44.01.012,HF_wild_card,2022.2.4,MacIntel,55.55555556,56e59ae1b2093a000c4f138d,64d2fd46c836a06233681665,64dc7e2f11ceb89b77a08da3,,,,,,,decisionTrl,resources/DY.BMP,resources/DP.BMP,Door2,-0.337777778,-0.09,1,0,0,0.857,optionLeft,40,7405,4,12,0,12,0,1,,,,,,,,,,,,,,,,,,,,,,,,,,,,,,,,,,,,,,,
,,,,,,,,2023-08-16_08h44.01.012,HF_wild_card,2022.2.4,MacIntel,55.55555556,56e59ae1b2093a000c4f138d,64d2fd46c836a06233681665,64dc7e2f11ceb89b77a08da3,,,,,,,decisionTrl,resources/DP.BMP,resources/DY.BMP,Door1,-0.461111111,-0.024444444,1,0,0,4.727,optionLeft,30,7435,4,13,0,13,0,1,,,,,,,,,,,,,,,,,,,,,,,,,,,,,,,,,,,,,,,
,,,,,,,,2023-08-16_08h44.01.012,HF_wild_card,2022.2.4,MacIntel,55.55555556,56e59ae1b2093a000c4f138d,64d2fd46c836a06233681665,64dc7e2f11ceb89b77a08da3,,,,,,,sngl,resources/DY.BMP,resources/Empty.png,Door2,-0.363333333,-0.084444444,1,0,0,2.113,optionLeft,20,7455,4,14,0,14,0,1,,,,,,,,,,,,,,,,,,,,,,,,,,,,,,,,,,,,,,,
,,,,,,,,2023-08-16_08h44.01.012,HF_wild_card,2022.2.4,MacIntel,55.55555556,56e59ae1b2093a000c4f138d,64d2fd46c836a06233681665,64dc7e2f11ceb89b77a08da3,,,,,,,sngl,resources/Empty.png,resources/DY.BMP,Door2,0.18,0.053333333,1,0,0,6.955,optionRight,40,7495,4,15,0,15,0,1,,,,,,,,,,,,,,,,,,,,,,,,,,,,,,,,,,,,,,,
,,,,,,,,2023-08-16_08h44.01.012,HF_wild_card,2022.2.4,MacIntel,55.55555556,56e59ae1b2093a000c4f138d,64d2fd46c836a06233681665,64dc7e2f11ceb89b77a08da3,,,,,,,sngl,resources/Empty.png,resources/DP.BMP,Door1,0.333333333,-0.011111111,1,0,0,0.588,optionRight,30,7525,4,16,0,16,0,1,,,,,,,,,,,,,,,,,,,,,,,,,,,,,,,,,,,,,,,
,,,,,,,,2023-08-16_08h44.01.012,HF_wild_card,2022.2.4,MacIntel,55.55555556,56e59ae1b2093a000c4f138d,64d2fd46c836a06233681665,64dc7e2f11ceb89b77a08da3,,,,,,,ctch,resources/DR.BMP,resources/DY.BMP,Door3,-0.207777778,-0.095555556,1,0,0,0.596,optionLeft,70,7595,4,17,0,17,0,1,,,,,,,,,,,,,,,,,,,,,,,,,,,,,,,,,,,,,,,
,,,,,,,,2023-08-16_08h44.01.012,HF_wild_card,2022.2.4,MacIntel,55.55555556,56e59ae1b2093a000c4f138d,64d2fd46c836a06233681665,64dc7e2f11ceb89b77a08da3,,,,,,,decisionTrl,resources/DBN.BMP,resources/DG.BMP,WildCard_Ex,0.343333333,0.004444444,1,0,0,0.635,optionRight,55,7650,4,18,0,18,0,1,,,,,,,,,,,,,,,,,,,,,,,,,,,,,,,,,,,,,,,
,,,,,,,,2023-08-16_08h44.01.012,HF_wild_card,2022.2.4,MacIntel,55.55555556,56e59ae1b2093a000c4f138d,64d2fd46c836a06233681665,64dc7e2f11ceb89b77a08da3,,,,,,,decisionTrl,resources/DP.BMP,resources/DG.BMP,WildCard_Ex,0.317777778,0.053333333,1,0,0,0.632,optionRight,55,7705,4,19,0,19,0,1,,,,,,,,,,,,,,,,,,,,,,,,,,,,,,,,,,,,,,,
,,,,,,,,2023-08-16_08h44.01.012,HF_wild_card,2022.2.4,MacIntel,55.55555556,56e59ae1b2093a000c4f138d,64d2fd46c836a06233681665,64dc7e2f11ceb89b77a08da3,,,,,,,decisionTrl,resources/DG.BMP,resources/DR.BMP,WildCard_Ex,-0.266666667,-0.108888889,1,0,0,1.476,optionLeft,45,7750,4,20,0,20,0,1,,,,,,,,,,,,,,,,,,,,,,,,,,,,,,,,,,,,,,,
,,,,,,,,2023-08-16_08h44.01.012,HF_wild_card,2022.2.4,MacIntel,55.55555556,56e59ae1b2093a000c4f138d,64d2fd46c836a06233681665,64dc7e2f11ceb89b77a08da3,,,,,,,ctch,resources/DP.BMP,resources/DBN.BMP,Door4,0.427777778,0.116666667,1,0,0,0.569,optionRight,60,7810,4,21,0,21,0,1,,,,,,,,,,,,,,,,,,,,,,,,,,,,,,,,,,,,,,,
,,,,,,,,2023-08-16_08h44.01.012,HF_wild_card,2022.2.4,MacIntel,55.55555556,56e59ae1b2093a000c4f138d,64d2fd46c836a06233681665,64dc7e2f11ceb89b77a08da3,,,,,,,decisionTrl,resources/DG.BMP,resources/DP.BMP,Door1,0.267777778,0.118888889,1,0,0,25.724,optionRight,30,7840,4,22,0,22,0,1,,,,,,,,,,,,,,,,,,,,,,,,,,,,,,,,,,,,,,,
,,,,,,,,2023-08-16_08h44.01.012,HF_wild_card,2022.2.4,MacIntel,55.55555556,56e59ae1b2093a000c4f138d,64d2fd46c836a06233681665,64dc7e2f11ceb89b77a08da3,,,,,,,decisionTrl,resources/DBN.BMP,resources/DR.BMP,Door4,-0.445555556,0.024444444,1,0,0,1.645,optionLeft,60,7900,4,23,0,23,0,1,,,,,,,,,,,,,,,,,,,,,,,,,,,,,,,,,,,,,,,
,,,,,,,,2023-08-16_08h44.01.012,HF_wild_card,2022.2.4,MacIntel,55.55555556,56e59ae1b2093a000c4f138d,64d2fd46c836a06233681665,64dc7e2f11ceb89b77a08da3,,,,,,,sngl,resources/Empty.png,resources/DG.BMP,WildCard_Ex,0.29,-0.015555556,1,0,0,2.703,optionRight,45,7945,4,24,0,24,0,1,,,,,,,,,,,,,,,,,,,,,,,,,,,,,,,,,,,,,,,
,,,,,,,,2023-08-16_08h44.01.012,HF_wild_card,2022.2.4,MacIntel,55.55555556,56e59ae1b2093a000c4f138d,64d2fd46c836a06233681665,64dc7e2f11ceb89b77a08da3,,,,,,,sngl,resources/Empty.png,resources/DBN.BMP,Door4,0.254444444,-0.004444444,1,0,0,4.7,optionRight,80,8025,4,25,0,25,0,1,,,,,,,,,,,,,,,,,,,,,,,,,,,,,,,,,,,,,,,
,,,,,,,,2023-08-16_08h44.01.012,HF_wild_card,2022.2.4,MacIntel,55.55555556,56e59ae1b2093a000c4f138d,64d2fd46c836a06233681665,64dc7e2f11ceb89b77a08da3,,,,,,,decisionTrl,resources/DR.BMP,resources/DBN.BMP,Door3,-0.287777778,-0.082222222,1,0,0,0.648,optionLeft,70,8095,4,26,0,26,0,1,,,,,,,,,,,,,,,,,,,,,,,,,,,,,,,,,,,,,,,
,,,,,,,,2023-08-16_08h44.01.012,HF_wild_card,2022.2.4,MacIntel,55.55555556,56e59ae1b2093a000c4f138d,64d2fd46c836a06233681665,64dc7e2f11ceb89b77a08da3,,,,,,,sngl,resources/DG.BMP,resources/Empty.png,WildCard_Ex,-0.392222222,-0.061111111,1,0,0,0.662,optionLeft,45,8140,4,27,0,27,0,1,,,,,,,,,,,,,,,,,,,,,,,,,,,,,,,,,,,,,,,
,,,,,,,,2023-08-16_08h44.01.012,HF_wild_card,2022.2.4,MacIntel,55.55555556,56e59ae1b2093a000c4f138d,64d2fd46c836a06233681665,64dc7e2f11ceb89b77a08da3,,,,,,,decisionTrl,resources/DR.BMP,resources/DBN.BMP,Door3,-0.427777778,0.011111111,1,0,0,0.544,optionLeft,70,8210,4,28,0,28,0,1,,,,,,,,,,,,,,,,,,,,,,,,,,,,,,,,,,,,,,,
,,,,,,,,2023-08-16_08h44.01.012,HF_wild_card,2022.2.4,MacIntel,55.55555556,56e59ae1b2093a000c4f138d,64d2fd46c836a06233681665,64dc7e2f11ceb89b77a08da3,,,,,,,decisionTrl,resources/DP.BMP,resources/DY.BMP,Door1,-0.325555556,-0.043333333,1,0,0,0.512,optionLeft,30,8240,4,29,0,29,0,1,,,,,,,,,,,,,,,,,,,,,,,,,,,,,,,,,,,,,,,
,,,,,,,,2023-08-16_08h44.01.012,HF_wild_card,2022.2.4,MacIntel,55.55555556,56e59ae1b2093a000c4f138d,64d2fd46c836a06233681665,64dc7e2f11ceb89b77a08da3,,,,,,,ctch,resources/DBN.BMP,resources/DP.BMP,Door4,-0.328888889,-0.071111111,1,0,0,0.465,optionLeft,60,8300,4,30,0,30,0,1,,,,,,,,,,,,,,,,,,,,,,,,,,,,,,,,,,,,,,,
,,,,,,,,2023-08-16_08h44.01.012,HF_wild_card,2022.2.4,MacIntel,55.55555556,56e59ae1b2093a000c4f138d,64d2fd46c836a06233681665,64dc7e2f11ceb89b77a08da3,,,,,,,ctch,resources/DR.BMP,resources/DY.BMP,Door3,-0.277777778,-0.045555556,1,0,0,0.515,optionLeft,70,8370,4,31,0,31,0,1,,,,,,,,,,,,,,,,,,,,,,,,,,,,,,,,,,,,,,,
,,,,,,,,2023-08-16_08h44.01.012,HF_wild_card,2022.2.4,MacIntel,55.55555556,56e59ae1b2093a000c4f138d,64d2fd46c836a06233681665,64dc7e2f11ceb89b77a08da3,,,,,,,sngl,resources/Empty.png,resources/DR.BMP,Door3,0.265555556,-0.017777778,1,0,0,0.826,optionRight,70,8440,4,32,0,32,0,1,,,,,,,,,,,,,,,,,,,,,,,,,,,,,,,,,,,,,,,
,,,,,,,,2023-08-16_08h44.01.012,HF_wild_card,2022.2.4,MacIntel,55.55555556,56e59ae1b2093a000c4f138d,64d2fd46c836a06233681665,64dc7e2f11ceb89b77a08da3,,,,,,,decisionTrl,resources/DBN.BMP,resources/DR.BMP,Door4,-0.226666667,-0.121111111,1,0,0,0.544,optionLeft,80,8520,4,33,0,33,0,1,,,,,,,,,,,,,,,,,,,,,,,,,,,,,,,,,,,,,,,
,,,,,,,,2023-08-16_08h44.01.012,HF_wild_card,2022.2.4,MacIntel,55.55555556,56e59ae1b2093a000c4f138d,64d2fd46c836a06233681665,64dc7e2f11ceb89b77a08da3,,,,,,,ctch,resources/DY.BMP,resources/DR.BMP,Door3,0.287777778,-0.078888889,1,0,0,0.54,optionRight,70,8590,4,34,0,34,0,1,,,,,,,,,,,,,,,,,,,,,,,,,,,,,,,,,,,,,,,
,,,,,,,,2023-08-16_08h44.01.012,HF_wild_card,2022.2.4,MacIntel,55.55555556,56e59ae1b2093a000c4f138d,64d2fd46c836a06233681665,64dc7e2f11ceb89b77a08da3,,,,,,,decisionTrl,resources/DG.BMP,resources/DY.BMP,WildCard_Ex,-0.196666667,-0.063333333,1,0,0,0.449,optionLeft,55,8645,4,35,0,35,0,1,,,,,,,,,,,,,,,,,,,,,,,,,,,,,,,,,,,,,,,
,,,,,,,,2023-08-16_08h44.01.012,HF_wild_card,2022.2.4,MacIntel,55.55555556,56e59ae1b2093a000c4f138d,64d2fd46c836a06233681665,64dc7e2f11ceb89b77a08da3,,,,,,,decisionTrl,resources/DP.BMP,resources/DY.BMP,Door1,-0.338888889,-0.027777778,1,0,0,0.582,optionLeft,30,8675,4,36,0,36,0,1,,,,,,,,,,,,,,,,,,,,,,,,,,,,,,,,,,,,,,,
,,,,,,,,2023-08-16_08h44.01.012,HF_wild_card,2022.2.4,MacIntel,55.55555556,56e59ae1b2093a000c4f138d,64d2fd46c836a06233681665,64dc7e2f11ceb89b77a08da3,,,,,,,decisionTrl,resources/DR.BMP,resources/DBN.BMP,Door3,-0.443333333,-0.018888889,1,0,0,0.541,optionLeft,70,8745,4,37,0,37,0,1,,,,,,,,,,,,,,,,,,,,,,,,,,,,,,,,,,,,,,,
,,,,,,,,2023-08-16_08h44.01.012,HF_wild_card,2022.2.4,MacIntel,55.55555556,56e59ae1b2093a000c4f138d,64d2fd46c836a06233681665,64dc7e2f11ceb89b77a08da3,,,,,,,ctch,resources/DY.BMP,resources/DR.BMP,Door2,-0.278888889,-0.023333333,1,0,0,0.476,optionLeft,20,8765,4,38,0,38,0,1,,,,,,,,,,,,,,,,,,,,,,,,,,,,,,,,,,,,,,,
,,,,,,,,2023-08-16_08h44.01.012,HF_wild_card,2022.2.4,MacIntel,55.55555556,56e59ae1b2093a000c4f138d,64d2fd46c836a06233681665,64dc7e2f11ceb89b77a08da3,,,,,,,ctch,resources/DP.BMP,resources/DBN.BMP,Door1,-0.234444444,-0.04,1,0,0,0.563,optionLeft,30,8795,4,39,0,39,0,1,,,,,,,,,,,,,,,,,,,,,,,,,,,,,,,,,,,,,,,
,,,,,,,,2023-08-16_08h44.01.012,HF_wild_card,2022.2.4,MacIntel,55.55555556,56e59ae1b2093a000c4f138d,64d2fd46c836a06233681665,64dc7e2f11ceb89b77a08da3,,,,,,,decisionTrl,resources/DR.BMP,resources/DG.BMP,Door3,-0.336666667,0.007777778,1,0,0,1.493,optionLeft,70,8865,4,40,0,40,0,1,,,,,,,,,,,,,,,,,,,,,,,,,,,,,,,,,,,,,,,
,,,,,,,,2023-08-16_08h44.01.012,HF_wild_card,2022.2.4,MacIntel,55.55555556,56e59ae1b2093a000c4f138d,64d2fd46c836a06233681665,64dc7e2f11ceb89b77a08da3,,,,,,,sngl,resources/DG.BMP,resources/Empty.png,WildCard_Ex,-0.273333333,-0.032222222,1,0,0,0.574,optionLeft,55,8920,4,41,0,41,0,1,,,,,,,,,,,,,,,,,,,,,,,,,,,,,,,,,,,,,,,
,,,,,,,,2023-08-16_08h44.01.012,HF_wild_card,2022.2.4,MacIntel,55.55555556,56e59ae1b2093a000c4f138d,64d2fd46c836a06233681665,64dc7e2f11ceb89b77a08da3,,,,,,,sngl,resources/DR.BMP,resources/Empty.png,Door3,-0.201111111,-0.05,1,0,0,0.491,optionLeft,70,8990,4,42,0,42,0,1,,,,,,,,,,,,,,,,,,,,,,,,,,,,,,,,,,,,,,,
,,,,,,,,2023-08-16_08h44.01.012,HF_wild_card,2022.2.4,MacIntel,55.55555556,56e59ae1b2093a000c4f138d,64d2fd46c836a06233681665,64dc7e2f11ceb89b77a08da3,,,,,,,sngl,resources/DP.BMP,resources/Empty.png,Door1,-0.236666667,-0.052222222,1,0,0,0.514,optionLeft,30,9020,4,43,0,43,0,1,,,,,,,,,,,,,,,,,,,,,,,,,,,,,,,,,,,,,,,
,,,,,,,,2023-08-16_08h44.01.012,HF_wild_card,2022.2.4,MacIntel,55.55555556,56e59ae1b2093a000c4f138d,64d2fd46c836a06233681665,64dc7e2f11ceb89b77a08da3,,,,,,,,,,,,,,,,,,,,,,,,,,3,0,3,0,1,,,,,,,,,,,,,,,,,,,,,,,,,,,,,,,,,,
,,,,,,,,2023-08-16_08h44.01.012,HF_wild_card,2022.2.4,MacIntel,55.55555556,56e59ae1b2093a000c4f138d,64d2fd46c836a06233681665,64dc7e2f11ceb89b77a08da3,,,,,,,decisionTrl,resources/DR.BMP,resources/DG.BMP,Door3,-0.185555556,-0.083333333,1,0,0,0.717,optionLeft,70,9090,5,0,0,0,0,1,,,,,,,,,,,,,,,,,,,,,,,,,,,,,,,,,,,,,,,
,,,,,,,,2023-08-16_08h44.01.012,HF_wild_card,2022.2.4,MacIntel,55.55555556,56e59ae1b2093a000c4f138d,64d2fd46c836a06233681665,64dc7e2f11ceb89b77a08da3,,,,,,,decisionTrl,resources/DBN.BMP,resources/DR.BMP,Door4,-0.237777778,-0.043333333,1,0,0,0.487,optionLeft,80,9170,5,1,0,1,0,1,,,,,,,,,,,,,,,,,,,,,,,,,,,,,,,,,,,,,,,
,,,,,,,,2023-08-16_08h44.01.012,HF_wild_card,2022.2.4,MacIntel,55.55555556,56e59ae1b2093a000c4f138d,64d2fd46c836a06233681665,64dc7e2f11ceb89b77a08da3,,,,,,,sngl,resources/DR.BMP,resources/Empty.png,Door3,-0.277777778,-0.043333333,1,0,0,0.47,optionLeft,70,9240,5,2,0,2,0,1,,,,,,,,,,,,,,,,,,,,,,,,,,,,,,,,,,,,,,,
,,,,,,,,2023-08-16_08h44.01.012,HF_wild_card,2022.2.4,MacIntel,55.55555556,56e59ae1b2093a000c4f138d,64d2fd46c836a06233681665,64dc7e2f11ceb89b77a08da3,,,,,,,decisionTrl,resources/DG.BMP,resources/DY.BMP,WildCard_Ex,-0.316666667,-0.105555556,1,0,0,0.553,optionLeft,45,9285,5,3,0,3,0,1,,,,,,,,,,,,,,,,,,,,,,,,,,,,,,,,,,,,,,,
,,,,,,,,2023-08-16_08h44.01.012,HF_wild_card,2022.2.4,MacIntel,55.55555556,56e59ae1b2093a000c4f138d,64d2fd46c836a06233681665,64dc7e2f11ceb89b77a08da3,,,,,,,sngl,resources/Empty.png,resources/DG.BMP,WildCard_Ex,0.352222222,0.026666667,1,0,0,0.913,optionRight,45,9330,5,4,0,4,0,1,,,,,,,,,,,,,,,,,,,,,,,,,,,,,,,,,,,,,,,
,,,,,,,,2023-08-16_08h44.01.012,HF_wild_card,2022.2.4,MacIntel,55.55555556,56e59ae1b2093a000c4f138d,64d2fd46c836a06233681665,64dc7e2f11ceb89b77a08da3,,,,,,,ctch,resources/DP.BMP,resources/DBN.BMP,Door1,-0.258888889,-0.052222222,1,0,0,0.507,optionLeft,30,9360,5,5,0,5,0,1,,,,,,,,,,,,,,,,,,,,,,,,,,,,,,,,,,,,,,,
,,,,,,,,2023-08-16_08h44.01.012,HF_wild_card,2022.2.4,MacIntel,55.55555556,56e59ae1b2093a000c4f138d,64d2fd46c836a06233681665,64dc7e2f11ceb89b77a08da3,,,,,,,decisionTrl,resources/DG.BMP,resources/DP.BMP,WildCard_Ex,-0.214444444,-0.098888889,1,0,0,0.529,optionLeft,55,9415,5,6,0,6,0,1,,,,,,,,,,,,,,,,,,,,,,,,,,,,,,,,,,,,,,,
,,,,,,,,2023-08-16_08h44.01.012,HF_wild_card,2022.2.4,MacIntel,55.55555556,56e59ae1b2093a000c4f138d,64d2fd46c836a06233681665,64dc7e2f11ceb89b77a08da3,,,,,,,sngl,resources/DP.BMP,resources/Empty.png,Door1,-0.316666667,-0.084444444,1,0,0,0.509,optionLeft,30,9445,5,7,0,7,0,1,,,,,,,,,,,,,,,,,,,,,,,,,,,,,,,,,,,,,,,
,,,,,,,,2023-08-16_08h44.01.012,HF_wild_card,2022.2.4,MacIntel,55.55555556,56e59ae1b2093a000c4f138d,64d2fd46c836a06233681665,64dc7e2f11ceb89b77a08da3,,,,,,,decisionTrl,resources/DBN.BMP,resources/DR.BMP,Door4,-0.276666667,-0.045555556,1,0,0,0.523,optionLeft,60,9505,5,8,0,8,0,1,,,,,,,,,,,,,,,,,,,,,,,,,,,,,,,,,,,,,,,
,,,,,,,,2023-08-16_08h44.01.012,HF_wild_card,2022.2.4,MacIntel,55.55555556,56e59ae1b2093a000c4f138d,64d2fd46c836a06233681665,64dc7e2f11ceb89b77a08da3,,,,,,,decisionTrl,resources/DR.BMP,resources/DBN.BMP,Door3,-0.277777778,-0.035555556,1,0,0,0.492,optionLeft,70,9575,5,9,0,9,0,1,,,,,,,,,,,,,,,,,,,,,,,,,,,,,,,,,,,,,,,
,,,,,,,,2023-08-16_08h44.01.012,HF_wild_card,2022.2.4,MacIntel,55.55555556,56e59ae1b2093a000c4f138d,64d2fd46c836a06233681665,64dc7e2f11ceb89b77a08da3,,,,,,,decisionTrl,resources/DR.BMP,resources/DBN.BMP,Door3,-0.292222222,-0.018888889,1,0,0,0.595,optionLeft,70,9645,5,10,0,10,0,1,,,,,,,,,,,,,,,,,,,,,,,,,,,,,,,,,,,,,,,
,,,,,,,,2023-08-16_08h44.01.012,HF_wild_card,2022.2.4,MacIntel,55.55555556,56e59ae1b2093a000c4f138d,64d2fd46c836a06233681665,64dc7e2f11ceb89b77a08da3,,,,,,,decisionTrl,resources/DP.BMP,resources/DY.BMP,Door1,-0.446666667,-0.055555556,1,0,0,0.553,optionLeft,30,9675,5,11,0,11,0,1,,,,,,,,,,,,,,,,,,,,,,,,,,,,,,,,,,,,,,,
,,,,,,,,2023-08-16_08h44.01.012,HF_wild_card,2022.2.4,MacIntel,55.55555556,56e59ae1b2093a000c4f138d,64d2fd46c836a06233681665,64dc7e2f11ceb89b77a08da3,,,,,,,sngl,resources/Empty.png,resources/DP.BMP,Door1,0.254444444,0.047777778,1,0,0,2.286,optionRight,30,9705,5,12,0,12,0,1,,,,,,,,,,,,,,,,,,,,,,,,,,,,,,,,,,,,,,,
,,,,,,,,2023-08-16_08h44.01.012,HF_wild_card,2022.2.4,MacIntel,55.55555556,56e59ae1b2093a000c4f138d,64d2fd46c836a06233681665,64dc7e2f11ceb89b77a08da3,,,,,,,ctch,resources/DY.BMP,resources/DR.BMP,Door2,-0.322222222,0.033333333,1,0,0,0.554,optionLeft,20,9725,5,13,0,13,0,1,,,,,,,,,,,,,,,,,,,,,,,,,,,,,,,,,,,,,,,
,,,,,,,,2023-08-16_08h44.01.012,HF_wild_card,2022.2.4,MacIntel,55.55555556,56e59ae1b2093a000c4f138d,64d2fd46c836a06233681665,64dc7e2f11ceb89b77a08da3,,,,,,,ctch,resources/DY.BMP,resources/DR.BMP,Door2,-0.307777778,-0.017777778,1,0,0,0.67,optionLeft,20,9745,5,14,0,14,0,1,,,,,,,,,,,,,,,,,,,,,,,,,,,,,,,,,,,,,,,
,,,,,,,,2023-08-16_08h44.01.012,HF_wild_card,2022.2.4,MacIntel,55.55555556,56e59ae1b2093a000c4f138d,64d2fd46c836a06233681665,64dc7e2f11ceb89b77a08da3,,,,,,,decisionTrl,resources/DP.BMP,resources/DY.BMP,Door1,-0.257777778,0.027777778,1,0,0,0.58,optionLeft,30,9775,5,15,0,15,0,1,,,,,,,,,,,,,,,,,,,,,,,,,,,,,,,,,,,,,,,
,,,,,,,,2023-08-16_08h44.01.012,HF_wild_card,2022.2.4,MacIntel,55.55555556,56e59ae1b2093a000c4f138d,64d2fd46c836a06233681665,64dc7e2f11ceb89b77a08da3,,,,,,,decisionTrl,resources/DBN.BMP,resources/DR.BMP,Door4,-0.326666667,-0.001111111,1,0,0,1.003,optionLeft,60,9835,5,16,0,16,0,1,,,,,,,,,,,,,,,,,,,,,,,,,,,,,,,,,,,,,,,
,,,,,,,,2023-08-16_08h44.01.012,HF_wild_card,2022.2.4,MacIntel,55.55555556,56e59ae1b2093a000c4f138d,64d2fd46c836a06233681665,64dc7e2f11ceb89b77a08da3,,,,,,,ctch,resources/DR.BMP,resources/DY.BMP,Door3,-0.335555556,-0.063333333,1,0,0,6.872,optionLeft,70,9905,5,17,0,17,0,1,,,,,,,,,,,,,,,,,,,,,,,,,,,,,,,,,,,,,,,
,,,,,,,,2023-08-16_08h44.01.012,HF_wild_card,2022.2.4,MacIntel,55.55555556,56e59ae1b2093a000c4f138d,64d2fd46c836a06233681665,64dc7e2f11ceb89b77a08da3,,,,,,,decisionTrl,resources/DBN.BMP,resources/DR.BMP,Door4,-0.206666667,-0.053333333,1,0,0,7.485,optionLeft,80,9985,5,18,0,18,0,1,,,,,,,,,,,,,,,,,,,,,,,,,,,,,,,,,,,,,,,
,,,,,,,,2023-08-16_08h44.01.012,HF_wild_card,2022.2.4,MacIntel,55.55555556,56e59ae1b2093a000c4f138d,64d2fd46c836a06233681665,64dc7e2f11ceb89b77a08da3,,,,,,,ctch,resources/DP.BMP,resources/DBN.BMP,Door1,-0.246666667,-0.078888889,1,0,0,2.259,optionLeft,30,10015,5,19,0,19,0,1,,,,,,,,,,,,,,,,,,,,,,,,,,,,,,,,,,,,,,,
,,,,,,,,2023-08-16_08h44.01.012,HF_wild_card,2022.2.4,MacIntel,55.55555556,56e59ae1b2093a000c4f138d,64d2fd46c836a06233681665,64dc7e2f11ceb89b77a08da3,,,,,,,decisionTrl,resources/DP.BMP,resources/DY.BMP,Door1,-0.197777778,-0.053333333,1,0,0,20.782,optionLeft,30,10045,5,20,0,20,0,1,,,,,,,,,,,,,,,,,,,,,,,,,,,,,,,,,,,,,,,
,,,,,,,,2023-08-16_08h44.01.012,HF_wild_card,2022.2.4,MacIntel,55.55555556,56e59ae1b2093a000c4f138d,64d2fd46c836a06233681665,64dc7e2f11ceb89b77a08da3,,,,,,,decisionTrl,resources/DP.BMP,resources/DG.BMP,Door1,-0.213333333,-0.052222222,1,0,0,0.617,optionLeft,30,10075,5,21,0,21,0,1,,,,,,,,,,,,,,,,,,,,,,,,,,,,,,,,,,,,,,,
,,,,,,,,2023-08-16_08h44.01.012,HF_wild_card,2022.2.4,MacIntel,55.55555556,56e59ae1b2093a000c4f138d,64d2fd46c836a06233681665,64dc7e2f11ceb89b77a08da3,,,,,,,decisionTrl,resources/DR.BMP,resources/DBN.BMP,Door3,-0.337777778,-0.044444444,1,0,0,0.741,optionLeft,70,10145,5,22,0,22,0,1,,,,,,,,,,,,,,,,,,,,,,,,,,,,,,,,,,,,,,,
,,,,,,,,2023-08-16_08h44.01.012,HF_wild_card,2022.2.4,MacIntel,55.55555556,56e59ae1b2093a000c4f138d,64d2fd46c836a06233681665,64dc7e2f11ceb89b77a08da3,,,,,,,decisionTrl,resources/DY.BMP,resources/DP.BMP,Door2,-0.291111111,-0.052222222,1,0,0,0.455,optionLeft,20,10165,5,23,0,23,0,1,,,,,,,,,,,,,,,,,,,,,,,,,,,,,,,,,,,,,,,
,,,,,,,,2023-08-16_08h44.01.012,HF_wild_card,2022.2.4,MacIntel,55.55555556,56e59ae1b2093a000c4f138d,64d2fd46c836a06233681665,64dc7e2f11ceb89b77a08da3,,,,,,,decisionTrl,resources/DY.BMP,resources/DP.BMP,Door2,-0.316666667,-0.037777778,1,0,0,0.456,optionLeft,40,10205,5,24,0,24,0,1,,,,,,,,,,,,,,,,,,,,,,,,,,,,,,,,,,,,,,,
,,,,,,,,2023-08-16_08h44.01.012,HF_wild_card,2022.2.4,MacIntel,55.55555556,56e59ae1b2093a000c4f138d,64d2fd46c836a06233681665,64dc7e2f11ceb89b77a08da3,,,,,,,ctch,resources/DR.BMP,resources/DY.BMP,Door3,-0.312222222,-0.073333333,1,0,0,0.517,optionLeft,70,10275,5,25,0,25,0,1,,,,,,,,,,,,,,,,,,,,,,,,,,,,,,,,,,,,,,,
,,,,,,,,2023-08-16_08h44.01.012,HF_wild_card,2022.2.4,MacIntel,55.55555556,56e59ae1b2093a000c4f138d,64d2fd46c836a06233681665,64dc7e2f11ceb89b77a08da3,,,,,,,decisionTrl,resources/DY.BMP,resources/DP.BMP,Door2,-0.371111111,-0.026666667,1,0,0,0.452,optionLeft,20,10295,5,26,0,26,0,1,,,,,,,,,,,,,,,,,,,,,,,,,,,,,,,,,,,,,,,
,,,,,,,,2023-08-16_08h44.01.012,HF_wild_card,2022.2.4,MacIntel,55.55555556,56e59ae1b2093a000c4f138d,64d2fd46c836a06233681665,64dc7e2f11ceb89b77a08da3,,,,,,,ctch,resources/DBN.BMP,resources/DP.BMP,Door4,-0.263333333,-0.062222222,1,0,0,0.489,optionLeft,60,10355,5,27,0,27,0,1,,,,,,,,,,,,,,,,,,,,,,,,,,,,,,,,,,,,,,,
,,,,,,,,2023-08-16_08h44.01.012,HF_wild_card,2022.2.4,MacIntel,55.55555556,56e59ae1b2093a000c4f138d,64d2fd46c836a06233681665,64dc7e2f11ceb89b77a08da3,,,,,,,decisionTrl,resources/DG.BMP,resources/DBN.BMP,WildCard_Ex,-0.278888889,-0.043333333,1,0,0,0.487,optionLeft,55,10410,5,28,0,28,0,1,,,,,,,,,,,,,,,,,,,,,,,,,,,,,,,,,,,,,,,
,,,,,,,,2023-08-16_08h44.01.012,HF_wild_card,2022.2.4,MacIntel,55.55555556,56e59ae1b2093a000c4f138d,64d2fd46c836a06233681665,64dc7e2f11ceb89b77a08da3,,,,,,,decisionTrl,resources/DP.BMP,resources/DY.BMP,Door1,-0.321111111,-0.062222222,1,0,0,0.462,optionLeft,30,10440,5,29,0,29,0,1,,,,,,,,,,,,,,,,,,,,,,,,,,,,,,,,,,,,,,,
,,,,,,,,2023-08-16_08h44.01.012,HF_wild_card,2022.2.4,MacIntel,55.55555556,56e59ae1b2093a000c4f138d,64d2fd46c836a06233681665,64dc7e2f11ceb89b77a08da3,,,,,,,decisionTrl,resources/DY.BMP,resources/DP.BMP,Door2,-0.275555556,-0.042222222,1,0,0,0.568,optionLeft,40,10480,5,30,0,30,0,1,,,,,,,,,,,,,,,,,,,,,,,,,,,,,,,,,,,,,,,
,,,,,,,,2023-08-16_08h44.01.012,HF_wild_card,2022.2.4,MacIntel,55.55555556,56e59ae1b2093a000c4f138d,64d2fd46c836a06233681665,64dc7e2f11ceb89b77a08da3,,,,,,,sngl,resources/Empty.png,resources/DG.BMP,WildCard_Ex,0.265555556,0.073333333,1,0,0,0.975,optionRight,55,10535,5,31,0,31,0,1,,,,,,,,,,,,,,,,,,,,,,,,,,,,,,,,,,,,,,,
,,,,,,,,2023-08-16_08h44.01.012,HF_wild_card,2022.2.4,MacIntel,55.55555556,56e59ae1b2093a000c4f138d,64d2fd46c836a06233681665,64dc7e2f11ceb89b77a08da3,,,,,,,sngl,resources/Empty.png,resources/DBN.BMP,Door4,0.336666667,-0.074444444,1,0,0,0.626,optionRight,60,10595,5,32,0,32,0,1,,,,,,,,,,,,,,,,,,,,,,,,,,,,,,,,,,,,,,,
,,,,,,,,2023-08-16_08h44.01.012,HF_wild_card,2022.2.4,MacIntel,55.55555556,56e59ae1b2093a000c4f138d,64d2fd46c836a06233681665,64dc7e2f11ceb89b77a08da3,,,,,,,sngl,resources/DBN.BMP,resources/Empty.png,Door4,-0.437777778,-0.147777778,1,0,0,0.546,optionLeft,80,10675,5,33,0,33,0,1,,,,,,,,,,,,,,,,,,,,,,,,,,,,,,,,,,,,,,,
,,,,,,,,2023-08-16_08h44.01.012,HF_wild_card,2022.2.4,MacIntel,55.55555556,56e59ae1b2093a000c4f138d,64d2fd46c836a06233681665,64dc7e2f11ceb89b77a08da3,,,,,,,ctch,resources/DBN.BMP,resources/DP.BMP,Door1,0.407777778,0.051111111,1,0,0,0.593,optionRight,30,10705,5,34,0,34,0,1,,,,,,,,,,,,,,,,,,,,,,,,,,,,,,,,,,,,,,,
,,,,,,,,2023-08-16_08h44.01.012,HF_wild_card,2022.2.4,MacIntel,55.55555556,56e59ae1b2093a000c4f138d,64d2fd46c836a06233681665,64dc7e2f11ceb89b77a08da3,,,,,,,decisionTrl,resources/DR.BMP,resources/DBN.BMP,Door3,-0.283333333,-0.01,1,0,0,0.444,optionLeft,70,10775,5,35,0,35,0,1,,,,,,,,,,,,,,,,,,,,,,,,,,,,,,,,,,,,,,,
,,,,,,,,2023-08-16_08h44.01.012,HF_wild_card,2022.2.4,MacIntel,55.55555556,56e59ae1b2093a000c4f138d,64d2fd46c836a06233681665,64dc7e2f11ceb89b77a08da3,,,,,,,sngl,resources/Empty.png,resources/DR.BMP,Door3,0.23,-0.033333333,1,0,0,0.588,optionRight,70,10845,5,36,0,36,0,1,,,,,,,,,,,,,,,,,,,,,,,,,,,,,,,,,,,,,,,
,,,,,,,,2023-08-16_08h44.01.012,HF_wild_card,2022.2.4,MacIntel,55.55555556,56e59ae1b2093a000c4f138d,64d2fd46c836a06233681665,64dc7e2f11ceb89b77a08da3,,,,,,,sngl,resources/DG.BMP,resources/Empty.png,WildCard_Ex,-0.33,-0.023333333,1,0,0,0.493,optionLeft,45,10890,5,37,0,37,0,1,,,,,,,,,,,,,,,,,,,,,,,,,,,,,,,,,,,,,,,
,,,,,,,,2023-08-16_08h44.01.012,HF_wild_card,2022.2.4,MacIntel,55.55555556,56e59ae1b2093a000c4f138d,64d2fd46c836a06233681665,64dc7e2f11ceb89b77a08da3,,,,,,,decisionTrl,resources/DG.BMP,resources/DR.BMP,Door3,0.308888889,-0.045555556,1,0,0,0.492,optionRight,70,10960,5,38,0,38,0,1,,,,,,,,,,,,,,,,,,,,,,,,,,,,,,,,,,,,,,,
,,,,,,,,2023-08-16_08h44.01.012,HF_wild_card,2022.2.4,MacIntel,55.55555556,56e59ae1b2093a000c4f138d,64d2fd46c836a06233681665,64dc7e2f11ceb89b77a08da3,,,,,,,sngl,resources/DY.BMP,resources/Empty.png,Door2,-0.331111111,-0.008888889,1,0,0,0.412,optionLeft,40,11000,5,39,0,39,0,1,,,,,,,,,,,,,,,,,,,,,,,,,,,,,,,,,,,,,,,
,,,,,,,,2023-08-16_08h44.01.012,HF_wild_card,2022.2.4,MacIntel,55.55555556,56e59ae1b2093a000c4f138d,64d2fd46c836a06233681665,64dc7e2f11ceb89b77a08da3,,,,,,,sngl,resources/Empty.png,resources/DY.BMP,Door2,0.326666667,-0.01,1,0,0,0.493,optionRight,20,11020,5,40,0,40,0,1,,,,,,,,,,,,,,,,,,,,,,,,,,,,,,,,,,,,,,,
,,,,,,,,2023-08-16_08h44.01.012,HF_wild_card,2022.2.4,MacIntel,55.55555556,56e59ae1b2093a000c4f138d,64d2fd46c836a06233681665,64dc7e2f11ceb89b77a08da3,,,,,,,sngl,resources/DG.BMP,resources/Empty.png,WildCard_Ex,-0.22,-0.028888889,1,0,0,0.471,optionLeft,55,11075,5,41,0,41,0,1,,,,,,,,,,,,,,,,,,,,,,,,,,,,,,,,,,,,,,,
,,,,,,,,2023-08-16_08h44.01.012,HF_wild_card,2022.2.4,MacIntel,55.55555556,56e59ae1b2093a000c4f138d,64d2fd46c836a06233681665,64dc7e2f11ceb89b77a08da3,,,,,,,decisionTrl,resources/DY.BMP,resources/DG.BMP,WildCard_Ex,0.305555556,-0.03,1,0,0,0.548,optionRight,45,11120,5,42,0,42,0,1,,,,,,,,,,,,,,,,,,,,,,,,,,,,,,,,,,,,,,,
,,,,,,,,2023-08-16_08h44.01.012,HF_wild_card,2022.2.4,MacIntel,55.55555556,56e59ae1b2093a000c4f138d,64d2fd46c836a06233681665,64dc7e2f11ceb89b77a08da3,,,,,,,decisionTrl,resources/DBN.BMP,resources/DG.BMP,Door4,-0.26,0.017777778,1,0,0,0.522,optionLeft,60,11180,5,43,0,43,0,1,,,,,,,,,,,,,,,,,,,,,,,,,,,,,,,,,,,,,,,
,,,,,,,,2023-08-16_08h44.01.012,HF_wild_card,2022.2.4,MacIntel,55.55555556,56e59ae1b2093a000c4f138d,64d2fd46c836a06233681665,64dc7e2f11ceb89b77a08da3,,,,,,,,,,,,,,,,,,,,,,,,,,4,0,4,0,1,,,,,,,,,,,,,,,,,,,,,,,,,,,,,,,,,,
,,,,,,,,2023-08-16_08h44.01.012,HF_wild_card,2022.2.4,MacIntel,55.55555556,56e59ae1b2093a000c4f138d,64d2fd46c836a06233681665,64dc7e2f11ceb89b77a08da3,,,,,,,decisionTrl,resources/DG.BMP,resources/DR.BMP,WildCard_Ex,-0.222222222,-0.016666667,1,0,0,0.654,optionLeft,45,11225,6,0,0,0,0,1,,,,,,,,,,,,,,,,,,,,,,,,,,,,,,,,,,,,,,,
,,,,,,,,2023-08-16_08h44.01.012,HF_wild_card,2022.2.4,MacIntel,55.55555556,56e59ae1b2093a000c4f138d,64d2fd46c836a06233681665,64dc7e2f11ceb89b77a08da3,,,,,,,ctch,resources/DP.BMP,resources/DBN.BMP,Door1,-0.203333333,-0.005555556,1,0,0,0.454,optionLeft,30,11255,6,1,0,1,0,1,,,,,,,,,,,,,,,,,,,,,,,,,,,,,,,,,,,,,,,
,,,,,,,,2023-08-16_08h44.01.012,HF_wild_card,2022.2.4,MacIntel,55.55555556,56e59ae1b2093a000c4f138d,64d2fd46c836a06233681665,64dc7e2f11ceb89b77a08da3,,,,,,,ctch,resources/DBN.BMP,resources/DP.BMP,Door4,-0.333333333,-0.1,1,0,0,0.447,optionLeft,60,11315,6,2,0,2,0,1,,,,,,,,,,,,,,,,,,,,,,,,,,,,,,,,,,,,,,,
,,,,,,,,2023-08-16_08h44.01.012,HF_wild_card,2022.2.4,MacIntel,55.55555556,56e59ae1b2093a000c4f138d,64d2fd46c836a06233681665,64dc7e2f11ceb89b77a08da3,,,,,,,sngl,resources/Empty.png,resources/DG.BMP,WildCard_Ex,0.181111111,0.018888889,1,0,0,0.681,optionRight,55,11370,6,3,0,3,0,1,,,,,,,,,,,,,,,,,,,,,,,,,,,,,,,,,,,,,,,
,,,,,,,,2023-08-16_08h44.01.012,HF_wild_card,2022.2.4,MacIntel,55.55555556,56e59ae1b2093a000c4f138d,64d2fd46c836a06233681665,64dc7e2f11ceb89b77a08da3,,,,,,,decisionTrl,resources/DG.BMP,resources/DY.BMP,WildCard_Ex,-0.237777778,-0.015555556,1,0,0,3.063,optionLeft,55,11425,6,4,0,4,0,1,,,,,,,,,,,,,,,,,,,,,,,,,,,,,,,,,,,,,,,
,,,,,,,,2023-08-16_08h44.01.012,HF_wild_card,2022.2.4,MacIntel,55.55555556,56e59ae1b2093a000c4f138d,64d2fd46c836a06233681665,64dc7e2f11ceb89b77a08da3,,,,,,,decisionTrl,resources/DP.BMP,resources/DY.BMP,Door1,-0.233333333,-0.002222222,1,0,0,0.497,optionLeft,30,11455,6,5,0,5,0,1,,,,,,,,,,,,,,,,,,,,,,,,,,,,,,,,,,,,,,,
,,,,,,,,2023-08-16_08h44.01.012,HF_wild_card,2022.2.4,MacIntel,55.55555556,56e59ae1b2093a000c4f138d,64d2fd46c836a06233681665,64dc7e2f11ceb89b77a08da3,,,,,,,sngl,resources/Empty.png,resources/DBN.BMP,Door4,0.09,0.001111111,1,0,0,0.777,optionRight,80,11535,6,6,0,6,0,1,,,,,,,,,,,,,,,,,,,,,,,,,,,,,,,,,,,,,,,
,,,,,,,,2023-08-16_08h44.01.012,HF_wild_card,2022.2.4,MacIntel,55.55555556,56e59ae1b2093a000c4f138d,64d2fd46c836a06233681665,64dc7e2f11ceb89b77a08da3,,,,,,,decisionTrl,resources/DP.BMP,resources/DG.BMP,Door1,-0.34,-0.03,1,0,0,1.014,optionLeft,30,11565,6,7,0,7,0,1,,,,,,,,,,,,,,,,,,,,,,,,,,,,,,,,,,,,,,,
,,,,,,,,2023-08-16_08h44.01.012,HF_wild_card,2022.2.4,MacIntel,55.55555556,56e59ae1b2093a000c4f138d,64d2fd46c836a06233681665,64dc7e2f11ceb89b77a08da3,,,,,,,decisionTrl,resources/DG.BMP,resources/DP.BMP,Door1,0.272222222,0.09,1,0,0,12.394,optionRight,30,11595,6,8,0,8,0,1,,,,,,,,,,,,,,,,,,,,,,,,,,,,,,,,,,,,,,,
,,,,,,,,2023-08-16_08h44.01.012,HF_wild_card,2022.2.4,MacIntel,55.55555556,56e59ae1b2093a000c4f138d,64d2fd46c836a06233681665,64dc7e2f11ceb89b77a08da3,,,,,,,sngl,resources/DG.BMP,resources/Empty.png,WildCard_Ex,-0.343333333,-0.004444444,1,0,0,0.559,optionLeft,45,11640,6,9,0,9,0,1,,,,,,,,,,,,,,,,,,,,,,,,,,,,,,,,,,,,,,,
,,,,,,,,2023-08-16_08h44.01.012,HF_wild_card,2022.2.4,MacIntel,55.55555556,56e59ae1b2093a000c4f138d,64d2fd46c836a06233681665,64dc7e2f11ceb89b77a08da3,,,,,,,sngl,resources/DBN.BMP,resources/Empty.png,Door4,-0.297777778,0.02,1,0,0,0.435,optionLeft,60,11700,6,10,0,10,0,1,,,,,,,,,,,,,,,,,,,,,,,,,,,,,,,,,,,,,,,
,,,,,,,,2023-08-16_08h44.01.012,HF_wild_card,2022.2.4,MacIntel,55.55555556,56e59ae1b2093a000c4f138d,64d2fd46c836a06233681665,64dc7e2f11ceb89b77a08da3,,,,,,,decisionTrl,resources/DR.BMP,resources/DBN.BMP,Door3,-0.261111111,-0.066666667,1,0,0,0.45,optionLeft,70,11770,6,11,0,11,0,1,,,,,,,,,,,,,,,,,,,,,,,,,,,,,,,,,,,,,,,
,,,,,,,,2023-08-16_08h44.01.012,HF_wild_card,2022.2.4,MacIntel,55.55555556,56e59ae1b2093a000c4f138d,64d2fd46c836a06233681665,64dc7e2f11ceb89b77a08da3,,,,,,,sngl,resources/DY.BMP,resources/Empty.png,Door2,-0.292222222,-0.066666667,1,0,0,0.453,optionLeft,20,11790,6,12,0,12,0,1,,,,,,,,,,,,,,,,,,,,,,,,,,,,,,,,,,,,,,,
,,,,,,,,2023-08-16_08h44.01.012,HF_wild_card,2022.2.4,MacIntel,55.55555556,56e59ae1b2093a000c4f138d,64d2fd46c836a06233681665,64dc7e2f11ceb89b77a08da3,,,,,,,decisionTrl,resources/DP.BMP,resources/DY.BMP,Door2,0.252222222,-0.065555556,1,0,0,0.577,optionRight,40,11830,6,13,0,13,0,1,,,,,,,,,,,,,,,,,,,,,,,,,,,,,,,,,,,,,,,
,,,,,,,,2023-08-16_08h44.01.012,HF_wild_card,2022.2.4,MacIntel,55.55555556,56e59ae1b2093a000c4f138d,64d2fd46c836a06233681665,64dc7e2f11ceb89b77a08da3,,,,,,,decisionTrl,resources/DBN.BMP,resources/DG.BMP,Door4,-0.298888889,-0.026666667,1,0,0,0.504,optionLeft,80,11910,6,14,0,14,0,1,,,,,,,,,,,,,,,,,,,,,,,,,,,,,,,,,,,,,,,
,,,,,,,,2023-08-16_08h44.01.012,HF_wild_card,2022.2.4,MacIntel,55.55555556,56e59ae1b2093a000c4f138d,64d2fd46c836a06233681665,64dc7e2f11ceb89b77a08da3,,,,,,,sngl,resources/Empty.png,resources/DP.BMP,Door1,0.284444444,0.004444444,1,0,0,0.476,optionRight,30,11940,6,15,0,15,0,1,,,,,,,,,,,,,,,,,,,,,,,,,,,,,,,,,,,,,,,
,,,,,,,,2023-08-16_08h44.01.012,HF_wild_card,2022.2.4,MacIntel,55.55555556,56e59ae1b2093a000c4f138d,64d2fd46c836a06233681665,64dc7e2f11ceb89b77a08da3,,,,,,,sngl,resources/Empty.png,resources/DG.BMP,WildCard_Ex,-0.26,-0.02,1,0,0,0.514,optionRight,45,11985,6,16,0,16,0,1,,,,,,,,,,,,,,,,,,,,,,,,,,,,,,,,,,,,,,,
,,,,,,,,2023-08-16_08h44.01.012,HF_wild_card,2022.2.4,MacIntel,55.55555556,56e59ae1b2093a000c4f138d,64d2fd46c836a06233681665,64dc7e2f11ceb89b77a08da3,,,,,,,ctch,resources/DP.BMP,resources/DBN.BMP,Door1,-0.205555556,0.012222222,1,0,0,0.999,optionLeft,30,12015,6,17,0,17,0,1,,,,,,,,,,,,,,,,,,,,,,,,,,,,,,,,,,,,,,,
,,,,,,,,2023-08-16_08h44.01.012,HF_wild_card,2022.2.4,MacIntel,55.55555556,56e59ae1b2093a000c4f138d,64d2fd46c836a06233681665,64dc7e2f11ceb89b77a08da3,,,,,,,sngl,resources/DR.BMP,resources/Empty.png,Door3,-0.112222222,-0.03,1,0,0,0.624,optionLeft,70,12085,6,18,0,18,0,1,,,,,,,,,,,,,,,,,,,,,,,,,,,,,,,,,,,,,,,
,,,,,,,,2023-08-16_08h44.01.012,HF_wild_card,2022.2.4,MacIntel,55.55555556,56e59ae1b2093a000c4f138d,64d2fd46c836a06233681665,64dc7e2f11ceb89b77a08da3,,,,,,,decisionTrl,resources/DR.BMP,resources/DBN.BMP,Door3,-0.281111111,-0.055555556,1,0,0,0.572,optionLeft,70,12155,6,19,0,19,0,1,,,,,,,,,,,,,,,,,,,,,,,,,,,,,,,,,,,,,,,
,,,,,,,,2023-08-16_08h44.01.012,HF_wild_card,2022.2.4,MacIntel,55.55555556,56e59ae1b2093a000c4f138d,64d2fd46c836a06233681665,64dc7e2f11ceb89b77a08da3,,,,,,,decisionTrl,resources/DP.BMP,resources/DY.BMP,Door1,-0.236666667,-0.08,1,0,0,0.473,optionLeft,30,12185,6,20,0,20,0,1,,,,,,,,,,,,,,,,,,,,,,,,,,,,,,,,,,,,,,,
,,,,,,,,2023-08-16_08h44.01.012,HF_wild_card,2022.2.4,MacIntel,55.55555556,56e59ae1b2093a000c4f138d,64d2fd46c836a06233681665,64dc7e2f11ceb89b77a08da3,,,,,,,decisionTrl,resources/DBN.BMP,resources/DR.BMP,Door4,-0.325555556,-0.07,1,0,0,0.531,optionLeft,80,12265,6,21,0,21,0,1,,,,,,,,,,,,,,,,,,,,,,,,,,,,,,,,,,,,,,,
,,,,,,,,2023-08-16_08h44.01.012,HF_wild_card,2022.2.4,MacIntel,55.55555556,56e59ae1b2093a000c4f138d,64d2fd46c836a06233681665,64dc7e2f11ceb89b77a08da3,,,,,,,ctch,resources/DY.BMP,resources/DR.BMP,Door2,-0.242222222,-0.036666667,1,0,0,0.522,optionLeft,20,12285,6,22,0,22,0,1,,,,,,,,,,,,,,,,,,,,,,,,,,,,,,,,,,,,,,,
,,,,,,,,2023-08-16_08h44.01.012,HF_wild_card,2022.2.4,MacIntel,55.55555556,56e59ae1b2093a000c4f138d,64d2fd46c836a06233681665,64dc7e2f11ceb89b77a08da3,,,,,,,decisionTrl,resources/DP.BMP,resources/DY.BMP,Door1,-0.316666667,-0.026666667,1,0,0,0.912,optionLeft,30,12315,6,23,0,23,0,1,,,,,,,,,,,,,,,,,,,,,,,,,,,,,,,,,,,,,,,
,,,,,,,,2023-08-16_08h44.01.012,HF_wild_card,2022.2.4,MacIntel,55.55555556,56e59ae1b2093a000c4f138d,64d2fd46c836a06233681665,64dc7e2f11ceb89b77a08da3,,,,,,,decisionTrl,resources/DBN.BMP,resources/DR.BMP,Door4,-0.414444444,-0.111111111,1,0,0,1.239,optionLeft,80,12395,6,24,0,24,0,1,,,,,,,,,,,,,,,,,,,,,,,,,,,,,,,,,,,,,,,
,,,,,,,,2023-08-16_08h44.01.012,HF_wild_card,2022.2.4,MacIntel,55.55555556,56e59ae1b2093a000c4f138d,64d2fd46c836a06233681665,64dc7e2f11ceb89b77a08da3,,,,,,,decisionTrl,resources/DY.BMP,resources/DP.BMP,Door2,-0.467777778,-0.022222222,1,0,0,0.675,optionLeft,20,12415,6,25,0,25,0,1,,,,,,,,,,,,,,,,,,,,,,,,,,,,,,,,,,,,,,,
,,,,,,,,2023-08-16_08h44.01.012,HF_wild_card,2022.2.4,MacIntel,55.55555556,56e59ae1b2093a000c4f138d,64d2fd46c836a06233681665,64dc7e2f11ceb89b77a08da3,,,,,,,decisionTrl,resources/DG.BMP,resources/DBN.BMP,WildCard_Ex,-0.391111111,0.01,1,0,0,1.042,optionLeft,45,12460,6,26,0,26,0,1,,,,,,,,,,,,,,,,,,,,,,,,,,,,,,,,,,,,,,,
,,,,,,,,2023-08-16_08h44.01.012,HF_wild_card,2022.2.4,MacIntel,55.55555556,56e59ae1b2093a000c4f138d,64d2fd46c836a06233681665,64dc7e2f11ceb89b77a08da3,,,,,,,decisionTrl,resources/DY.BMP,resources/DP.BMP,Door2,-0.244444444,-0.022222222,1,0,0,0.564,optionLeft,40,12500,6,27,0,27,0,1,,,,,,,,,,,,,,,,,,,,,,,,,,,,,,,,,,,,,,,
,,,,,,,,2023-08-16_08h44.01.012,HF_wild_card,2022.2.4,MacIntel,55.55555556,56e59ae1b2093a000c4f138d,64d2fd46c836a06233681665,64dc7e2f11ceb89b77a08da3,,,,,,,ctch,resources/DR.BMP,resources/DY.BMP,Door3,-0.242222222,0.037777778,1,0,0,0.762,optionLeft,70,12570,6,28,0,28,0,1,,,,,,,,,,,,,,,,,,,,,,,,,,,,,,,,,,,,,,,
,,,,,,,,2023-08-16_08h44.01.012,HF_wild_card,2022.2.4,MacIntel,55.55555556,56e59ae1b2093a000c4f138d,64d2fd46c836a06233681665,64dc7e2f11ceb89b77a08da3,,,,,,,decisionTrl,resources/DR.BMP,resources/DBN.BMP,Door3,-0.264444444,0.02,1,0,0,0.468,optionLeft,70,12640,6,29,0,29,0,1,,,,,,,,,,,,,,,,,,,,,,,,,,,,,,,,,,,,,,,
,,,,,,,,2023-08-16_08h44.01.012,HF_wild_card,2022.2.4,MacIntel,55.55555556,56e59ae1b2093a000c4f138d,64d2fd46c836a06233681665,64dc7e2f11ceb89b77a08da3,,,,,,,decisionTrl,resources/DY.BMP,resources/DP.BMP,Door2,-0.267777778,-0.015555556,1,0,0,0.585,optionLeft,40,12680,6,30,0,30,0,1,,,,,,,,,,,,,,,,,,,,,,,,,,,,,,,,,,,,,,,
,,,,,,,,2023-08-16_08h44.01.012,HF_wild_card,2022.2.4,MacIntel,55.55555556,56e59ae1b2093a000c4f138d,64d2fd46c836a06233681665,64dc7e2f11ceb89b77a08da3,,,,,,,sngl,resources/DG.BMP,resources/Empty.png,WildCard_Ex,-0.303333333,-0.051111111,1,0,0,0.44,optionLeft,55,12735,6,31,0,31,0,1,,,,,,,,,,,,,,,,,,,,,,,,,,,,,,,,,,,,,,,
,,,,,,,,2023-08-16_08h44.01.012,HF_wild_card,2022.2.4,MacIntel,55.55555556,56e59ae1b2093a000c4f138d,64d2fd46c836a06233681665,64dc7e2f11ceb89b77a08da3,,,,,,,sngl,resources/DP.BMP,resources/Empty.png,Door1,-0.254444444,-0.075555556,1,0,0,0.418,optionLeft,30,12765,6,32,0,32,0,1,,,,,,,,,,,,,,,,,,,,,,,,,,,,,,,,,,,,,,,
,,,,,,,,2023-08-16_08h44.01.012,HF_wild_card,2022.2.4,MacIntel,55.55555556,56e59ae1b2093a000c4f138d,64d2fd46c836a06233681665,64dc7e2f11ceb89b77a08da3,,,,,,,ctch,resources/DY.BMP,resources/DR.BMP,Door3,0.315555556,-0.011111111,1,0,0,0.447,optionRight,70,12835,6,33,0,33,0,1,,,,,,,,,,,,,,,,,,,,,,,,,,,,,,,,,,,,,,,
,,,,,,,,2023-08-16_08h44.01.012,HF_wild_card,2022.2.4,MacIntel,55.55555556,56e59ae1b2093a000c4f138d,64d2fd46c836a06233681665,64dc7e2f11ceb89b77a08da3,,,,,,,decisionTrl,resources/DBN.BMP,resources/DR.BMP,Door4,-0.157777778,-0.043333333,1,0,0,0.448,optionLeft,80,12915,6,34,0,34,0,1,,,,,,,,,,,,,,,,,,,,,,,,,,,,,,,,,,,,,,,
,,,,,,,,2023-08-16_08h44.01.012,HF_wild_card,2022.2.4,MacIntel,55.55555556,56e59ae1b2093a000c4f138d,64d2fd46c836a06233681665,64dc7e2f11ceb89b77a08da3,,,,,,,ctch,resources/DR.BMP,resources/DY.BMP,Door2,0.251111111,0.012222222,1,0,0,0.493,optionRight,40,12955,6,35,0,35,0,1,,,,,,,,,,,,,,,,,,,,,,,,,,,,,,,,,,,,,,,
,,,,,,,,2023-08-16_08h44.01.012,HF_wild_card,2022.2.4,MacIntel,55.55555556,56e59ae1b2093a000c4f138d,64d2fd46c836a06233681665,64dc7e2f11ceb89b77a08da3,,,,,,,sngl,resources/Empty.png,resources/DR.BMP,Door3,0.104444444,0.027777778,1,0,0,0.651,optionRight,70,13025,6,36,0,36,0,1,,,,,,,,,,,,,,,,,,,,,,,,,,,,,,,,,,,,,,,
,,,,,,,,2023-08-16_08h44.01.012,HF_wild_card,2022.2.4,MacIntel,55.55555556,56e59ae1b2093a000c4f138d,64d2fd46c836a06233681665,64dc7e2f11ceb89b77a08da3,,,,,,,ctch,resources/DBN.BMP,resources/DP.BMP,Door4,-0.264444444,-0.058888889,1,0,0,0.598,optionLeft,80,13105,6,37,0,37,0,1,,,,,,,,,,,,,,,,,,,,,,,,,,,,,,,,,,,,,,,
,,,,,,,,2023-08-16_08h44.01.012,HF_wild_card,2022.2.4,MacIntel,55.55555556,56e59ae1b2093a000c4f138d,64d2fd46c836a06233681665,64dc7e2f11ceb89b77a08da3,,,,,,,decisionTrl,resources/DY.BMP,resources/DG.BMP,WildCard_Ex,0.281111111,-0.035555556,1,0,0,0.502,optionRight,45,13150,6,38,0,38,0,1,,,,,,,,,,,,,,,,,,,,,,,,,,,,,,,,,,,,,,,
,,,,,,,,2023-08-16_08h44.01.012,HF_wild_card,2022.2.4,MacIntel,55.55555556,56e59ae1b2093a000c4f138d,64d2fd46c836a06233681665,64dc7e2f11ceb89b77a08da3,,,,,,,sngl,resources/Empty.png,resources/DY.BMP,Door2,-0.168888889,0.006666667,1,0,0,0.437,optionRight,40,13190,6,39,0,39,0,1,,,,,,,,,,,,,,,,,,,,,,,,,,,,,,,,,,,,,,,
,,,,,,,,2023-08-16_08h44.01.012,HF_wild_card,2022.2.4,MacIntel,55.55555556,56e59ae1b2093a000c4f138d,64d2fd46c836a06233681665,64dc7e2f11ceb89b77a08da3,,,,,,,decisionTrl,resources/DBN.BMP,resources/DR.BMP,Door4,-0.293333333,-0.024444444,1,0,0,0.538,optionLeft,60,13250,6,40,0,40,0,1,,,,,,,,,,,,,,,,,,,,,,,,,,,,,,,,,,,,,,,
,,,,,,,,2023-08-16_08h44.01.012,HF_wild_card,2022.2.4,MacIntel,55.55555556,56e59ae1b2093a000c4f138d,64d2fd46c836a06233681665,64dc7e2f11ceb89b77a08da3,,,,,,,decisionTrl,resources/DR.BMP,resources/DBN.BMP,Door4,0.334444444,-0.025555556,1,0,0,0.589,optionRight,60,13310,6,41,0,41,0,1,,,,,,,,,,,,,,,,,,,,,,,,,,,,,,,,,,,,,,,
,,,,,,,,2023-08-16_08h44.01.012,HF_wild_card,2022.2.4,MacIntel,55.55555556,56e59ae1b2093a000c4f138d,64d2fd46c836a06233681665,64dc7e2f11ceb89b77a08da3,,,,,,,decisionTrl,resources/DR.BMP,resources/DG.BMP,Door3,-0.232222222,-0.003333333,1,0,0,1.117,optionLeft,70,13380,6,42,0,42,0,1,,,,,,,,,,,,,,,,,,,,,,,,,,,,,,,,,,,,,,,
,,,,,,,,2023-08-16_08h44.01.012,HF_wild_card,2022.2.4,MacIntel,55.55555556,56e59ae1b2093a000c4f138d,64d2fd46c836a06233681665,64dc7e2f11ceb89b77a08da3,,,,,,,decisionTrl,resources/DY.BMP,resources/DP.BMP,Door2,-0.267777778,-0.103333333,1,0,0,0.45,optionLeft,40,13420,6,43,0,43,0,1,,,,,,,,,,,,,,,,,,,,,,,,,,,,,,,,,,,,,,,
,,,,,,,,2023-08-16_08h44.01.012,HF_wild_card,2022.2.4,MacIntel,55.55555556,56e59ae1b2093a000c4f138d,64d2fd46c836a06233681665,64dc7e2f11ceb89b77a08da3,,,,,,,,,,,,,,,,,,,,,,,,,,5,0,5,0,1,,,,,,,,,,,,,,,,,,,,,,,,,,,,,,,,,,
,,,,,,,,2023-08-16_08h44.01.012,HF_wild_card,2022.2.4,MacIntel,55.55555556,56e59ae1b2093a000c4f138d,64d2fd46c836a06233681665,64dc7e2f11ceb89b77a08da3,,,,,,,ctch,resources/DP.BMP,resources/DBN.BMP,Door1,-0.385555556,-0.096666667,1,0,0,0.677,optionLeft,30,13450,7,0,0,0,0,1,,,,,,,,,,,,,,,,,,,,,,,,,,,,,,,,,,,,,,,
,,,,,,,,2023-08-16_08h44.01.012,HF_wild_card,2022.2.4,MacIntel,55.55555556,56e59ae1b2093a000c4f138d,64d2fd46c836a06233681665,64dc7e2f11ceb89b77a08da3,,,,,,,decisionTrl,resources/DP.BMP,resources/DY.BMP,Door2,0.188888889,-0.006666667,1,0,0,0.576,optionRight,20,13470,7,1,0,1,0,1,,,,,,,,,,,,,,,,,,,,,,,,,,,,,,,,,,,,,,,
,,,,,,,,2023-08-16_08h44.01.012,HF_wild_card,2022.2.4,MacIntel,55.55555556,56e59ae1b2093a000c4f138d,64d2fd46c836a06233681665,64dc7e2f11ceb89b77a08da3,,,,,,,decisionTrl,resources/DY.BMP,resources/DP.BMP,Door1,0.213333333,0.046666667,1,0,0,0.516,optionRight,30,13500,7,2,0,2,0,1,,,,,,,,,,,,,,,,,,,,,,,,,,,,,,,,,,,,,,,
,,,,,,,,2023-08-16_08h44.01.012,HF_wild_card,2022.2.4,MacIntel,55.55555556,56e59ae1b2093a000c4f138d,64d2fd46c836a06233681665,64dc7e2f11ceb89b77a08da3,,,,,,,ctch,resources/DP.BMP,resources/DBN.BMP,Door4,0.226666667,0.025555556,1,0,0,0.416,optionRight,80,13580,7,3,0,3,0,1,,,,,,,,,,,,,,,,,,,,,,,,,,,,,,,,,,,,,,,
,,,,,,,,2023-08-16_08h44.01.012,HF_wild_card,2022.2.4,MacIntel,55.55555556,56e59ae1b2093a000c4f138d,64d2fd46c836a06233681665,64dc7e2f11ceb89b77a08da3,,,,,,,ctch,resources/DR.BMP,resources/DY.BMP,Door3,-0.194444444,-0.088888889,1,0,0,0.667,optionLeft,70,13650,7,4,0,4,0,1,,,,,,,,,,,,,,,,,,,,,,,,,,,,,,,,,,,,,,,
,,,,,,,,2023-08-16_08h44.01.012,HF_wild_card,2022.2.4,MacIntel,55.55555556,56e59ae1b2093a000c4f138d,64d2fd46c836a06233681665,64dc7e2f11ceb89b77a08da3,,,,,,,ctch,resources/DP.BMP,resources/DBN.BMP,Door1,-0.217777778,-0.071111111,1,0,0,1.098,optionLeft,30,13680,7,5,0,5,0,1,,,,,,,,,,,,,,,,,,,,,,,,,,,,,,,,,,,,,,,
,,,,,,,,2023-08-16_08h44.01.012,HF_wild_card,2022.2.4,MacIntel,55.55555556,56e59ae1b2093a000c4f138d,64d2fd46c836a06233681665,64dc7e2f11ceb89b77a08da3,,,,,,,decisionTrl,resources/DBN.BMP,resources/DR.BMP,Door4,-0.287777778,-0.081111111,1,0,0,0.598,optionLeft,80,13760,7,6,0,6,0,1,,,,,,,,,,,,,,,,,,,,,,,,,,,,,,,,,,,,,,,
,,,,,,,,2023-08-16_08h44.01.012,HF_wild_card,2022.2.4,MacIntel,55.55555556,56e59ae1b2093a000c4f138d,64d2fd46c836a06233681665,64dc7e2f11ceb89b77a08da3,,,,,,,ctch,resources/DY.BMP,resources/DR.BMP,Door3,0.234444444,-0.027777778,1,0,0,0.509,optionRight,70,13830,7,7,0,7,0,1,,,,,,,,,,,,,,,,,,,,,,,,,,,,,,,,,,,,,,,
,,,,,,,,2023-08-16_08h44.01.012,HF_wild_card,2022.2.4,MacIntel,55.55555556,56e59ae1b2093a000c4f138d,64d2fd46c836a06233681665,64dc7e2f11ceb89b77a08da3,,,,,,,decisionTrl,resources/DP.BMP,resources/DY.BMP,Door1,-0.272222222,-0.052222222,1,0,0,0.483,optionLeft,30,13860,7,8,0,8,0,1,,,,,,,,,,,,,,,,,,,,,,,,,,,,,,,,,,,,,,,
,,,,,,,,2023-08-16_08h44.01.012,HF_wild_card,2022.2.4,MacIntel,55.55555556,56e59ae1b2093a000c4f138d,64d2fd46c836a06233681665,64dc7e2f11ceb89b77a08da3,,,,,,,decisionTrl,resources/DP.BMP,resources/DY.BMP,Door1,-0.335555556,-0.067777778,1,0,0,0.502,optionLeft,30,13890,7,9,0,9,0,1,,,,,,,,,,,,,,,,,,,,,,,,,,,,,,,,,,,,,,,
,,,,,,,,2023-08-16_08h44.01.012,HF_wild_card,2022.2.4,MacIntel,55.55555556,56e59ae1b2093a000c4f138d,64d2fd46c836a06233681665,64dc7e2f11ceb89b77a08da3,,,,,,,decisionTrl,resources/DY.BMP,resources/DP.BMP,Door2,-0.327777778,-0.048888889,1,0,0,0.468,optionLeft,20,13910,7,10,0,10,0,1,,,,,,,,,,,,,,,,,,,,,,,,,,,,,,,,,,,,,,,
,,,,,,,,2023-08-16_08h44.01.012,HF_wild_card,2022.2.4,MacIntel,55.55555556,56e59ae1b2093a000c4f138d,64d2fd46c836a06233681665,64dc7e2f11ceb89b77a08da3,,,,,,,decisionTrl,resources/DY.BMP,resources/DP.BMP,Door2,-0.182222222,-0.056666667,1,0,0,0.376,optionLeft,20,13930,7,11,0,11,0,1,,,,,,,,,,,,,,,,,,,,,,,,,,,,,,,,,,,,,,,
,,,,,,,,2023-08-16_08h44.01.012,HF_wild_card,2022.2.4,MacIntel,55.55555556,56e59ae1b2093a000c4f138d,64d2fd46c836a06233681665,64dc7e2f11ceb89b77a08da3,,,,,,,decisionTrl,resources/DY.BMP,resources/DP.BMP,Door1,0.308888889,0.058888889,1,0,0,0.533,optionRight,30,13960,7,12,0,12,0,1,,,,,,,,,,,,,,,,,,,,,,,,,,,,,,,,,,,,,,,
,,,,,,,,2023-08-16_08h44.01.012,HF_wild_card,2022.2.4,MacIntel,55.55555556,56e59ae1b2093a000c4f138d,64d2fd46c836a06233681665,64dc7e2f11ceb89b77a08da3,,,,,,,decisionTrl,resources/DR.BMP,resources/DBN.BMP,Door3,-0.213333333,-0.028888889,1,0,0,0.483,optionLeft,70,14030,7,13,0,13,0,1,,,,,,,,,,,,,,,,,,,,,,,,,,,,,,,,,,,,,,,
,,,,,,,,2023-08-16_08h44.01.012,HF_wild_card,2022.2.4,MacIntel,55.55555556,56e59ae1b2093a000c4f138d,64d2fd46c836a06233681665,64dc7e2f11ceb89b77a08da3,,,,,,,ctch,resources/DBN.BMP,resources/DP.BMP,Door1,0.321111111,0.098888889,1,0,0,0.495,optionRight,30,14060,7,14,0,14,0,1,,,,,,,,,,,,,,,,,,,,,,,,,,,,,,,,,,,,,,,
,,,,,,,,2023-08-16_08h44.01.012,HF_wild_card,2022.2.4,MacIntel,55.55555556,56e59ae1b2093a000c4f138d,64d2fd46c836a06233681665,64dc7e2f11ceb89b77a08da3,,,,,,,decisionTrl,resources/DR.BMP,resources/DBN.BMP,Door4,0.186666667,0.024444444,1,0,0,0.458,optionRight,60,14120,7,15,0,15,0,1,,,,,,,,,,,,,,,,,,,,,,,,,,,,,,,,,,,,,,,
,,,,,,,,2023-08-16_08h44.01.012,HF_wild_card,2022.2.4,MacIntel,55.55555556,56e59ae1b2093a000c4f138d,64d2fd46c836a06233681665,64dc7e2f11ceb89b77a08da3,,,,,,,decisionTrl,resources/DP.BMP,resources/DY.BMP,Door2,0.25,0.001111111,1,0,0,0.456,optionRight,20,14140,7,16,0,16,0,1,,,,,,,,,,,,,,,,,,,,,,,,,,,,,,,,,,,,,,,
,,,,,,,,2023-08-16_08h44.01.012,HF_wild_card,2022.2.4,MacIntel,55.55555556,56e59ae1b2093a000c4f138d,64d2fd46c836a06233681665,64dc7e2f11ceb89b77a08da3,,,,,,,decisionTrl,resources/DR.BMP,resources/DBN.BMP,Door3,-0.255555556,-0.004444444,1,0,0,0.481,optionLeft,70,14210,7,17,0,17,0,1,,,,,,,,,,,,,,,,,,,,,,,,,,,,,,,,,,,,,,,
,,,,,,,,2023-08-16_08h44.01.012,HF_wild_card,2022.2.4,MacIntel,55.55555556,56e59ae1b2093a000c4f138d,64d2fd46c836a06233681665,64dc7e2f11ceb89b77a08da3,,,,,,,ctch,resources/DBN.BMP,resources/DP.BMP,Door4,-0.224444444,-0.055555556,1,0,0,0.608,optionLeft,80,14290,7,18,0,18,0,1,,,,,,,,,,,,,,,,,,,,,,,,,,,,,,,,,,,,,,,
,,,,,,,,2023-08-16_08h44.01.012,HF_wild_card,2022.2.4,MacIntel,55.55555556,56e59ae1b2093a000c4f138d,64d2fd46c836a06233681665,64dc7e2f11ceb89b77a08da3,,,,,,,decisionTrl,resources/DBN.BMP,resources/DR.BMP,Door4,-0.326666667,-0.082222222,1,0,0,0.655,optionLeft,80,14370,7,19,0,19,0,1,,,,,,,,,,,,,,,,,,,,,,,,,,,,,,,,,,,,,,,
,,,,,,,,2023-08-16_08h44.01.012,HF_wild_card,2022.2.4,MacIntel,55.55555556,56e59ae1b2093a000c4f138d,64d2fd46c836a06233681665,64dc7e2f11ceb89b77a08da3,,,,,,,decisionTrl,resources/DY.BMP,resources/DP.BMP,Door2,-0.224444444,-0.08,1,0,0,0.466,optionLeft,20,14390,7,20,0,20,0,1,,,,,,,,,,,,,,,,,,,,,,,,,,,,,,,,,,,,,,,
,,,,,,,,2023-08-16_08h44.01.012,HF_wild_card,2022.2.4,MacIntel,55.55555556,56e59ae1b2093a000c4f138d,64d2fd46c836a06233681665,64dc7e2f11ceb89b77a08da3,,,,,,,decisionTrl,resources/DBN.BMP,resources/DR.BMP,Door4,-0.172222222,-0.056666667,1,0,0,1.349,optionLeft,80,14470,7,21,0,21,0,1,,,,,,,,,,,,,,,,,,,,,,,,,,,,,,,,,,,,,,,
,,,,,,,,2023-08-16_08h44.01.012,HF_wild_card,2022.2.4,MacIntel,55.55555556,56e59ae1b2093a000c4f138d,64d2fd46c836a06233681665,64dc7e2f11ceb89b77a08da3,,,,,,,ctch,resources/DR.BMP,resources/DY.BMP,Door2,0.183333333,-0.045555556,1,0,0,0.547,optionRight,20,14490,7,22,0,22,0,1,,,,,,,,,,,,,,,,,,,,,,,,,,,,,,,,,,,,,,,
,,,,,,,,2023-08-16_08h44.01.012,HF_wild_card,2022.2.4,MacIntel,55.55555556,56e59ae1b2093a000c4f138d,64d2fd46c836a06233681665,64dc7e2f11ceb89b77a08da3,,,,,,,decisionTrl,resources/DR.BMP,resources/DBN.BMP,Door3,-0.232222222,-0.034444444,1,0,0,1.966,optionLeft,70,14560,7,23,0,23,0,1,,,,,,,,,,,,,,,,,,,,,,,,,,,,,,,,,,,,,,,
,,,,,,,,2023-08-16_08h44.01.012,HF_wild_card,2022.2.4,MacIntel,55.55555556,56e59ae1b2093a000c4f138d,64d2fd46c836a06233681665,64dc7e2f11ceb89b77a08da3,,,,,,,decisionTrl,resources/DR.BMP,resources/DBN.BMP,Door3,-0.191111111,-0.041111111,1,0,0,3.084,optionLeft,70,14630,7,24,0,24,0,1,,,,,,,,,,,,,,,,,,,,,,,,,,,,,,,,,,,,,,,
,,,,,,,,2023-08-16_08h44.01.012,HF_wild_card,2022.2.4,MacIntel,55.55555556,56e59ae1b2093a000c4f138d,64d2fd46c836a06233681665,64dc7e2f11ceb89b77a08da3,,,,,,,ctch,resources/DY.BMP,resources/DR.BMP,Door2,-0.223333333,-0.022222222,1,0,0,1.955,optionLeft,40,14670,7,25,0,25,0,1,,,,,,,,,,,,,,,,,,,,,,,,,,,,,,,,,,,,,,,
,,,,,,,,2023-08-16_08h44.01.012,HF_wild_card,2022.2.4,MacIntel,55.55555556,56e59ae1b2093a000c4f138d,64d2fd46c836a06233681665,64dc7e2f11ceb89b77a08da3,,,,,,,decisionTrl,resources/DP.BMP,resources/DY.BMP,Door1,-0.214444444,-0.028888889,1,0,0,2.814,optionLeft,30,14700,7,26,0,26,0,1,,,,,,,,,,,,,,,,,,,,,,,,,,,,,,,,,,,,,,,
,,,,,,,,2023-08-16_08h44.01.012,HF_wild_card,2022.2.4,MacIntel,55.55555556,56e59ae1b2093a000c4f138d,64d2fd46c836a06233681665,64dc7e2f11ceb89b77a08da3,,,,,,,decisionTrl,resources/DBN.BMP,resources/DR.BMP,Door4,-0.247777778,-0.096666667,1,0,0,4.016,optionLeft,80,14780,7,27,0,27,0,1,,,,,,,,,,,,,,,,,,,,,,,,,,,,,,,,,,,,,,,
,,,,,,,,2023-08-16_08h44.01.012,HF_wild_card,2022.2.4,MacIntel,55.55555556,56e59ae1b2093a000c4f138d,64d2fd46c836a06233681665,64dc7e2f11ceb89b77a08da3,,,,,,,decisionTrl,resources/DR.BMP,resources/DBN.BMP,Door3,-0.267777778,-0.055555556,1,0,0,1.007,optionLeft,70,14850,7,28,0,28,0,1,,,,,,,,,,,,,,,,,,,,,,,,,,,,,,,,,,,,,,,
,,,,,,,,2023-08-16_08h44.01.012,HF_wild_card,2022.2.4,MacIntel,55.55555556,56e59ae1b2093a000c4f138d,64d2fd46c836a06233681665,64dc7e2f11ceb89b77a08da3,,,,,,,decisionTrl,resources/DY.BMP,resources/DP.BMP,Door2,-0.281111111,-0.065555556,1,0,0,2.739,optionLeft,20,14870,7,29,0,29,0,1,,,,,,,,,,,,,,,,,,,,,,,,,,,,,,,,,,,,,,,
,,,,,,,,2023-08-16_08h44.01.012,HF_wild_card,2022.2.4,MacIntel,55.55555556,56e59ae1b2093a000c4f138d,64d2fd46c836a06233681665,64dc7e2f11ceb89b77a08da3,,,,,,,ctch,resources/DY.BMP,resources/DR.BMP,Door2,-0.407777778,-0.023333333,1,0,0,3.498,optionLeft,40,14910,7,30,0,30,0,1,,,,,,,,,,,,,,,,,,,,,,,,,,,,,,,,,,,,,,,
,,,,,,,,2023-08-16_08h44.01.012,HF_wild_card,2022.2.4,MacIntel,55.55555556,56e59ae1b2093a000c4f138d,64d2fd46c836a06233681665,64dc7e2f11ceb89b77a08da3,,,,,,,ctch,resources/DBN.BMP,resources/DP.BMP,Door4,-0.3,-0.02,1,0,0,0.536,optionLeft,60,14970,7,31,0,31,0,1,,,,,,,,,,,,,,,,,,,,,,,,,,,,,,,,,,,,,,,
,,,,,,,,2023-08-16_08h44.01.012,HF_wild_card,2022.2.4,MacIntel,55.55555556,56e59ae1b2093a000c4f138d,64d2fd46c836a06233681665,64dc7e2f11ceb89b77a08da3,,,,,,,decisionTrl,resources/DP.BMP,resources/DY.BMP,Door1,-0.302222222,-0.023333333,1,0,0,0.534,optionLeft,30,15000,7,32,0,32,0,1,,,,,,,,,,,,,,,,,,,,,,,,,,,,,,,,,,,,,,,
,,,,,,,,2023-08-16_08h44.01.012,HF_wild_card,2022.2.4,MacIntel,55.55555556,56e59ae1b2093a000c4f138d,64d2fd46c836a06233681665,64dc7e2f11ceb89b77a08da3,,,,,,,ctch,resources/DR.BMP,resources/DY.BMP,Door3,-0.26,-0.023333333,1,0,0,0.616,optionLeft,70,15070,7,33,0,33,0,1,,,,,,,,,,,,,,,,,,,,,,,,,,,,,,,,,,,,,,,
,,,,,,,,2023-08-16_08h44.01.012,HF_wild_card,2022.2.4,MacIntel,55.55555556,56e59ae1b2093a000c4f138d,64d2fd46c836a06233681665,64dc7e2f11ceb89b77a08da3,,,,,,,decisionTrl,resources/DBN.BMP,resources/DR.BMP,Door4,-0.358888889,-0.051111111,1,0,0,0.697,optionLeft,80,15150,7,34,0,34,0,1,,,,,,,,,,,,,,,,,,,,,,,,,,,,,,,,,,,,,,,
,,,,,,,,2023-08-16_08h44.01.012,HF_wild_card,2022.2.4,MacIntel,55.55555556,56e59ae1b2093a000c4f138d,64d2fd46c836a06233681665,64dc7e2f11ceb89b77a08da3,,,,,,,decisionTrl,resources/DBN.BMP,resources/DR.BMP,Door4,-0.381111111,-0.021111111,1,0,0,2.264,optionLeft,80,15230,7,35,0,35,0,1,,,,,,,,,,,,,,,,,,,,,,,,,,,,,,,,,,,,,,,
,,,,,,,,2023-08-16_08h44.01.012,HF_wild_card,2022.2.4,MacIntel,55.55555556,56e59ae1b2093a000c4f138d,64d2fd46c836a06233681665,64dc7e2f11ceb89b77a08da3,,,,,,,,,,,,,,,,,,,,,,,,,,6,0,6,0,1,,,,,,,,,,,,,,,,,,,,,,,,,,,,,,,,,,
,,,,,,,,2023-08-16_08h44.01.012,HF_wild_card,2022.2.4,MacIntel,55.55555556,56e59ae1b2093a000c4f138d,64d2fd46c836a06233681665,64dc7e2f11ceb89b77a08da3,,,,,,,,,,,,,,,,,,,,,,,,,,,,,,,3,,,,,,,,,,,,,,,,,,,,,,,,,,,,,,,,,
,,,,,,,,2023-08-16_08h44.01.012,HF_wild_card,2022.2.4,MacIntel,55.55555556,56e59ae1b2093a000c4f138d,64d2fd46c836a06233681665,64dc7e2f11ceb89b77a08da3,,,,,,,,,,,,,,,,,,,,,,,,,,,,,,,,,,,,,,,,,,,,,,,,,,,,,,,,,,,,,,,,
,,,,,,,,2023-08-16_08h44.01.012,HF_wild_card,2022.2.4,MacIntel,55.55555556,56e59ae1b2093a000c4f138d,64d2fd46c836a06233681665,64dc7e2f11ceb89b77a08da3,,,,,,,,,,,,,,,,,,,,,,,,,,,,,,,,60,WC_extreme,resources/DG.BMP,0,0,0,0,1,,,,,,,,,,,,,,,,,,,,,,,,,
,,,,,,,,2023-08-16_08h44.01.012,HF_wild_card,2022.2.4,MacIntel,55.55555556,56e59ae1b2093a000c4f138d,64d2fd46c836a06233681665,64dc7e2f11ceb89b77a08da3,,,,,,,,,,,,,,,,,,,,,,,,,,,,,,,,20,Door1,resources/DP.BMP,1,0,1,0,1,,,,,,,,,,,,,,,,,,,,,,,,,
,,,,,,,,2023-08-16_08h44.01.012,HF_wild_card,2022.2.4,MacIntel,55.55555556,56e59ae1b2093a000c4f138d,64d2fd46c836a06233681665,64dc7e2f11ceb89b77a08da3,,,,,,,,,,,,,,,,,,,,,,,,,,,,,,,,20,Door2,resources/DY.BMP,2,0,2,0,1,,,,,,,,,,,,,,,,,,,,,,,,,
,,,,,,,,2023-08-16_08h44.01.012,HF_wild_card,2022.2.4,MacIntel,55.55555556,56e59ae1b2093a000c4f138d,64d2fd46c836a06233681665,64dc7e2f11ceb89b77a08da3,,,,,,,,,,,,,,,,,,,,,,,,,,,,,,,,40,Door3,resources/DR.BMP,3,0,3,0,1,,,,,,,,,,,,,,,,,,,,,,,,,
,,,,,,,,2023-08-16_08h44.01.012,HF_wild_card,2022.2.4,MacIntel,55.55555556,56e59ae1b2093a000c4f138d,64d2fd46c836a06233681665,64dc7e2f11ceb89b77a08da3,,,,,,,,,,,,,,,,,,,,,,,,,,,,,,,,80,Door4,resources/DBN.BMP,4,0,4,0,1,,,,,,,,,,,,,,,,,,,,,,,,,
