Condition,Low fixed image (Door1),Low risky image (Door2),High fixed image (Door3),High risky image (Door4),Extreme Wild Card,NonExtreme Wild Card,,date,expName,psychopyVersion,OS,frameRate,PROLIFIC_PID,STUDY_ID,SESSION_ID,mouse_2.x,mouse_2.y,mouse_2.leftButton,mouse_2.midButton,mouse_2.rightButton,mouse_2.clicked_name,Trial Type,Left Option Image,Right Option Image,Chosen Door,mouse.x,mouse.y,mouse.leftButton,mouse.midButton,mouse.rightButton,mouse.time,mouse.clicked_name,Feedback,Cumulative Reward,Block,trial.thisRepN,trial.thisTrialN,trial.thisN,trial.thisIndex,trial.ran,blocks.thisRepN,blocks.thisTrialN,blocks.thisN,blocks.thisIndex,blocks.ran,Money conversion,First Outcome Reported,Shown Door (First Outcome),Displayed Image (First Outcome),outcomes.thisRepN,outcomes.thisTrialN,outcomes.thisN,outcomes.thisIndex,outcomes.ran,judgments.thisRepN,judgments.thisTrialN,judgments.thisN,judgments.thisIndex,judgments.ran,freqMouse.x,freqMouse.y,freqMouse.leftButton,freqMouse.midButton,freqMouse.rightButton,freqMouse.clicked_name,trials.thisRepN,trials.thisTrialN,trials.thisN,trials.thisIndex,trials.ran,FQJ for first outcome,FQJ for second outcome,Shown Door,Displayed Image,judgBlock.thisRepN,judgBlock.thisTrialN,judgBlock.thisN,judgBlock.thisIndex,judgBlock.ran
1,resources/DG.BMP,resources/DP.BMP,resources/DR.BMP,resources/DBN.BMP,resources/DB.BMP,resources/DY.BMP,,2023-08-06_08h14.41.240,HF_wild_card,2022.2.4,Win32,144.3418014,615cb147f04efc8a8c2ff1e5,64ce5acb97489d65b14ecc7a,64cf4855491fef45d3990989,,,,,,,,,,,,,,,,,,,,,,,,,,,,,,,,,,,,,,,,,,,,,,,,,,,,,,,,,,,,,,,,
,,,,,,,,2023-08-06_08h14.41.240,HF_wild_card,2022.2.4,Win32,144.3418014,615cb147f04efc8a8c2ff1e5,64ce5acb97489d65b14ecc7a,64cf4855491fef45d3990989,0.001851894,-0.409259302,1,0,0,agree,,,,,,,,,,,,,,,,,,,,,,,,,,,,,,,,,,,,,,,,,,,,,,,,,,,,,,,,,,
,,,,,,,,2023-08-06_08h14.41.240,HF_wild_card,2022.2.4,Win32,144.3418014,615cb147f04efc8a8c2ff1e5,64ce5acb97489d65b14ecc7a,64cf4855491fef45d3990989,,,,,,,,,,,,,,,,,,,,,,,,,,,,,,,,,,,,,,,,,,,,,,,,,,,,,,,,,,,,,,,,
,,,,,,,,2023-08-06_08h14.41.240,HF_wild_card,2022.2.4,Win32,144.3418014,615cb147f04efc8a8c2ff1e5,64ce5acb97489d65b14ecc7a,64cf4855491fef45d3990989,,,,,,,sngl,resources/Empty.png,resources/DY.BMP,WildCard_NonEx,0.354629658,-0.087962963,1,0,0,1.6081,optionRight,55,55,1,0,0,0,0,1,,,,,,,,,,,,,,,,,,,,,,,,,,,,,,,,,,,,,,,
,,,,,,,,2023-08-06_08h14.41.240,HF_wild_card,2022.2.4,Win32,144.3418014,615cb147f04efc8a8c2ff1e5,64ce5acb97489d65b14ecc7a,64cf4855491fef45d3990989,,,,,,,decisionTrl,resources/DY.BMP,resources/DP.BMP,WildCard_NonEx,-0.284259231,-0.033333355,1,0,0,2.8538,optionLeft,45,100,1,1,0,1,0,1,,,,,,,,,,,,,,,,,,,,,,,,,,,,,,,,,,,,,,,
,,,,,,,,2023-08-06_08h14.41.240,HF_wild_card,2022.2.4,Win32,144.3418014,615cb147f04efc8a8c2ff1e5,64ce5acb97489d65b14ecc7a,64cf4855491fef45d3990989,,,,,,,decisionTrl,resources/DBN.BMP,resources/DR.BMP,Door3,0.387963048,0.029629637,1,0,0,1.7624,optionRight,70,170,1,2,0,2,0,1,,,,,,,,,,,,,,,,,,,,,,,,,,,,,,,,,,,,,,,
,,,,,,,,2023-08-06_08h14.41.240,HF_wild_card,2022.2.4,Win32,144.3418014,615cb147f04efc8a8c2ff1e5,64ce5acb97489d65b14ecc7a,64cf4855491fef45d3990989,,,,,,,decisionTrl,resources/DG.BMP,resources/DY.BMP,WildCard_NonEx,0.325000057,0.012962942,1,0,0,1.8579,optionRight,55,225,1,3,0,3,0,1,,,,,,,,,,,,,,,,,,,,,,,,,,,,,,,,,,,,,,,
,,,,,,,,2023-08-06_08h14.41.240,HF_wild_card,2022.2.4,Win32,144.3418014,615cb147f04efc8a8c2ff1e5,64ce5acb97489d65b14ecc7a,64cf4855491fef45d3990989,,,,,,,decisionTrl,resources/DY.BMP,resources/DR.BMP,Door3,0.328703704,0,1,0,0,1.5737,optionRight,70,295,1,4,0,4,0,1,,,,,,,,,,,,,,,,,,,,,,,,,,,,,,,,,,,,,,,
,,,,,,,,2023-08-06_08h14.41.240,HF_wild_card,2022.2.4,Win32,144.3418014,615cb147f04efc8a8c2ff1e5,64ce5acb97489d65b14ecc7a,64cf4855491fef45d3990989,,,,,,,decisionTrl,resources/DR.BMP,resources/DBN.BMP,Door3,-0.316666674,-0.025925919,1,0,0,1.968,optionLeft,70,365,1,5,0,5,0,1,,,,,,,,,,,,,,,,,,,,,,,,,,,,,,,,,,,,,,,
,,,,,,,,2023-08-06_08h14.41.240,HF_wild_card,2022.2.4,Win32,144.3418014,615cb147f04efc8a8c2ff1e5,64ce5acb97489d65b14ecc7a,64cf4855491fef45d3990989,,,,,,,sngl,resources/DP.BMP,resources/Empty.png,Door2,-0.27870369,-0.011111118,1,0,0,1.4432,optionLeft,40,405,1,6,0,6,0,1,,,,,,,,,,,,,,,,,,,,,,,,,,,,,,,,,,,,,,,
,,,,,,,,2023-08-06_08h14.41.240,HF_wild_card,2022.2.4,Win32,144.3418014,615cb147f04efc8a8c2ff1e5,64ce5acb97489d65b14ecc7a,64cf4855491fef45d3990989,,,,,,,sngl,resources/Empty.png,resources/DR.BMP,Door3,0.304629714,0.018518519,1,0,0,1.491,optionRight,70,475,1,7,0,7,0,1,,,,,,,,,,,,,,,,,,,,,,,,,,,,,,,,,,,,,,,
,,,,,,,,2023-08-06_08h14.41.240,HF_wild_card,2022.2.4,Win32,144.3418014,615cb147f04efc8a8c2ff1e5,64ce5acb97489d65b14ecc7a,64cf4855491fef45d3990989,,,,,,,ctch,resources/DR.BMP,resources/DP.BMP,Door3,-0.315740727,0.015740748,1,0,0,1.5871,optionLeft,70,545,1,8,0,8,0,1,,,,,,,,,,,,,,,,,,,,,,,,,,,,,,,,,,,,,,,
,,,,,,,,2023-08-06_08h14.41.240,HF_wild_card,2022.2.4,Win32,144.3418014,615cb147f04efc8a8c2ff1e5,64ce5acb97489d65b14ecc7a,64cf4855491fef45d3990989,,,,,,,decisionTrl,resources/DP.BMP,resources/DG.BMP,Door2,-0.255555541,-0.024074095,1,0,0,3.6078,optionLeft,20,565,1,9,0,9,0,1,,,,,,,,,,,,,,,,,,,,,,,,,,,,,,,,,,,,,,,
,,,,,,,,2023-08-06_08h14.41.240,HF_wild_card,2022.2.4,Win32,144.3418014,615cb147f04efc8a8c2ff1e5,64ce5acb97489d65b14ecc7a,64cf4855491fef45d3990989,,,,,,,ctch,resources/DR.BMP,resources/DP.BMP,Door3,-0.332407386,-0.039814808,1,0,0,1.2343,optionLeft,70,635,1,10,0,10,0,1,,,,,,,,,,,,,,,,,,,,,,,,,,,,,,,,,,,,,,,
,,,,,,,,2023-08-06_08h14.41.240,HF_wild_card,2022.2.4,Win32,144.3418014,615cb147f04efc8a8c2ff1e5,64ce5acb97489d65b14ecc7a,64cf4855491fef45d3990989,,,,,,,ctch,resources/DP.BMP,resources/DR.BMP,Door3,0.325925898,0.03148146,1,0,0,0.9973,optionRight,70,705,1,11,0,11,0,1,,,,,,,,,,,,,,,,,,,,,,,,,,,,,,,,,,,,,,,
,,,,,,,,2023-08-06_08h14.41.240,HF_wild_card,2022.2.4,Win32,144.3418014,615cb147f04efc8a8c2ff1e5,64ce5acb97489d65b14ecc7a,64cf4855491fef45d3990989,,,,,,,decisionTrl,resources/DP.BMP,resources/DG.BMP,Door1,0.33148151,0.065740727,1,0,0,2.1568,optionRight,30,735,1,12,0,12,0,1,,,,,,,,,,,,,,,,,,,,,,,,,,,,,,,,,,,,,,,
,,,,,,,,2023-08-06_08h14.41.240,HF_wild_card,2022.2.4,Win32,144.3418014,615cb147f04efc8a8c2ff1e5,64ce5acb97489d65b14ecc7a,64cf4855491fef45d3990989,,,,,,,sngl,resources/DG.BMP,resources/Empty.png,Door1,-0.345370363,0.043518526,1,0,0,0.969,optionLeft,30,765,1,13,0,13,0,1,,,,,,,,,,,,,,,,,,,,,,,,,,,,,,,,,,,,,,,
,,,,,,,,2023-08-06_08h14.41.240,HF_wild_card,2022.2.4,Win32,144.3418014,615cb147f04efc8a8c2ff1e5,64ce5acb97489d65b14ecc7a,64cf4855491fef45d3990989,,,,,,,sngl,resources/DY.BMP,resources/Empty.png,WildCard_NonEx,-0.329629616,-0.003703718,1,0,0,1.6162,optionLeft,45,810,1,14,0,14,0,1,,,,,,,,,,,,,,,,,,,,,,,,,,,,,,,,,,,,,,,
,,,,,,,,2023-08-06_08h14.41.240,HF_wild_card,2022.2.4,Win32,144.3418014,615cb147f04efc8a8c2ff1e5,64ce5acb97489d65b14ecc7a,64cf4855491fef45d3990989,,,,,,,decisionTrl,resources/DG.BMP,resources/DP.BMP,Door1,-0.363888882,0.002777771,1,0,0,1.6429,optionLeft,30,840,1,15,0,15,0,1,,,,,,,,,,,,,,,,,,,,,,,,,,,,,,,,,,,,,,,
,,,,,,,,2023-08-06_08h14.41.240,HF_wild_card,2022.2.4,Win32,144.3418014,615cb147f04efc8a8c2ff1e5,64ce5acb97489d65b14ecc7a,64cf4855491fef45d3990989,,,,,,,decisionTrl,resources/DG.BMP,resources/DP.BMP,Door1,-0.296296296,0.011111118,1,0,0,1.4002,optionLeft,30,870,1,16,0,16,0,1,,,,,,,,,,,,,,,,,,,,,,,,,,,,,,,,,,,,,,,
,,,,,,,,2023-08-06_08h14.41.240,HF_wild_card,2022.2.4,Win32,144.3418014,615cb147f04efc8a8c2ff1e5,64ce5acb97489d65b14ecc7a,64cf4855491fef45d3990989,,,,,,,decisionTrl,resources/DR.BMP,resources/DBN.BMP,Door3,-0.381481489,0.00462963,1,0,0,1.219,optionLeft,70,940,1,17,0,17,0,1,,,,,,,,,,,,,,,,,,,,,,,,,,,,,,,,,,,,,,,
,,,,,,,,2023-08-06_08h14.41.240,HF_wild_card,2022.2.4,Win32,144.3418014,615cb147f04efc8a8c2ff1e5,64ce5acb97489d65b14ecc7a,64cf4855491fef45d3990989,,,,,,,ctch,resources/DP.BMP,resources/DR.BMP,Door3,0.293518561,-0.009259259,1,0,0,1.511,optionRight,70,1010,1,18,0,18,0,1,,,,,,,,,,,,,,,,,,,,,,,,,,,,,,,,,,,,,,,
,,,,,,,,2023-08-06_08h14.41.240,HF_wild_card,2022.2.4,Win32,144.3418014,615cb147f04efc8a8c2ff1e5,64ce5acb97489d65b14ecc7a,64cf4855491fef45d3990989,,,,,,,ctch,resources/DBN.BMP,resources/DG.BMP,Door4,-0.276851866,0.022222201,1,0,0,1.7333,optionLeft,60,1070,1,19,0,19,0,1,,,,,,,,,,,,,,,,,,,,,,,,,,,,,,,,,,,,,,,
,,,,,,,,2023-08-06_08h14.41.240,HF_wild_card,2022.2.4,Win32,144.3418014,615cb147f04efc8a8c2ff1e5,64ce5acb97489d65b14ecc7a,64cf4855491fef45d3990989,,,,,,,sngl,resources/Empty.png,resources/DP.BMP,Door2,0.363888917,-0.023148148,1,0,0,1.1437,optionRight,20,1090,1,20,0,20,0,1,,,,,,,,,,,,,,,,,,,,,,,,,,,,,,,,,,,,,,,
,,,,,,,,2023-08-06_08h14.41.240,HF_wild_card,2022.2.4,Win32,144.3418014,615cb147f04efc8a8c2ff1e5,64ce5acb97489d65b14ecc7a,64cf4855491fef45d3990989,,,,,,,decisionTrl,resources/DR.BMP,resources/DBN.BMP,Door4,0.416666667,0.02870369,1,0,0,2.1988,optionRight,80,1170,1,21,0,21,0,1,,,,,,,,,,,,,,,,,,,,,,,,,,,,,,,,,,,,,,,
,,,,,,,,2023-08-06_08h14.41.240,HF_wild_card,2022.2.4,Win32,144.3418014,615cb147f04efc8a8c2ff1e5,64ce5acb97489d65b14ecc7a,64cf4855491fef45d3990989,,,,,,,decisionTrl,resources/DP.BMP,resources/DG.BMP,Door2,-0.335185192,0.025925919,1,0,0,2.9698,optionLeft,40,1210,1,22,0,22,0,1,,,,,,,,,,,,,,,,,,,,,,,,,,,,,,,,,,,,,,,
,,,,,,,,2023-08-06_08h14.41.240,HF_wild_card,2022.2.4,Win32,144.3418014,615cb147f04efc8a8c2ff1e5,64ce5acb97489d65b14ecc7a,64cf4855491fef45d3990989,,,,,,,decisionTrl,resources/DP.BMP,resources/DY.BMP,WildCard_NonEx,0.371296353,-0.039814808,1,0,0,1.6523,optionRight,45,1255,1,23,0,23,0,1,,,,,,,,,,,,,,,,,,,,,,,,,,,,,,,,,,,,,,,
,,,,,,,,2023-08-06_08h14.41.240,HF_wild_card,2022.2.4,Win32,144.3418014,615cb147f04efc8a8c2ff1e5,64ce5acb97489d65b14ecc7a,64cf4855491fef45d3990989,,,,,,,sngl,resources/DY.BMP,resources/Empty.png,WildCard_NonEx,-0.385185171,0.014814801,1,0,0,1.3803,optionLeft,55,1310,1,24,0,24,0,1,,,,,,,,,,,,,,,,,,,,,,,,,,,,,,,,,,,,,,,
,,,,,,,,2023-08-06_08h14.41.240,HF_wild_card,2022.2.4,Win32,144.3418014,615cb147f04efc8a8c2ff1e5,64ce5acb97489d65b14ecc7a,64cf4855491fef45d3990989,,,,,,,decisionTrl,resources/DG.BMP,resources/DP.BMP,Door1,-0.362037023,0.058333326,1,0,0,3.3598,optionLeft,30,1340,1,25,0,25,0,1,,,,,,,,,,,,,,,,,,,,,,,,,,,,,,,,,,,,,,,
,,,,,,,,2023-08-06_08h14.41.240,HF_wild_card,2022.2.4,Win32,144.3418014,615cb147f04efc8a8c2ff1e5,64ce5acb97489d65b14ecc7a,64cf4855491fef45d3990989,,,,,,,decisionTrl,resources/DBN.BMP,resources/DR.BMP,Door4,-0.336111104,-0.044444437,1,0,0,1.1074,optionLeft,80,1420,1,26,0,26,0,1,,,,,,,,,,,,,,,,,,,,,,,,,,,,,,,,,,,,,,,
,,,,,,,,2023-08-06_08h14.41.240,HF_wild_card,2022.2.4,Win32,144.3418014,615cb147f04efc8a8c2ff1e5,64ce5acb97489d65b14ecc7a,64cf4855491fef45d3990989,,,,,,,decisionTrl,resources/DR.BMP,resources/DY.BMP,WildCard_NonEx,0.287962949,0.012962942,1,0,0,1.4071,optionRight,45,1465,1,27,0,27,0,1,,,,,,,,,,,,,,,,,,,,,,,,,,,,,,,,,,,,,,,
,,,,,,,,2023-08-06_08h14.41.240,HF_wild_card,2022.2.4,Win32,144.3418014,615cb147f04efc8a8c2ff1e5,64ce5acb97489d65b14ecc7a,64cf4855491fef45d3990989,,,,,,,ctch,resources/DG.BMP,resources/DBN.BMP,Door4,0.29814812,0.034259266,1,0,0,1.3562,optionRight,80,1545,1,28,0,28,0,1,,,,,,,,,,,,,,,,,,,,,,,,,,,,,,,,,,,,,,,
,,,,,,,,2023-08-06_08h14.41.240,HF_wild_card,2022.2.4,Win32,144.3418014,615cb147f04efc8a8c2ff1e5,64ce5acb97489d65b14ecc7a,64cf4855491fef45d3990989,,,,,,,ctch,resources/DBN.BMP,resources/DG.BMP,Door4,-0.401851831,0.000925912,1,0,0,1.1469,optionLeft,60,1605,1,29,0,29,0,1,,,,,,,,,,,,,,,,,,,,,,,,,,,,,,,,,,,,,,,
,,,,,,,,2023-08-06_08h14.41.240,HF_wild_card,2022.2.4,Win32,144.3418014,615cb147f04efc8a8c2ff1e5,64ce5acb97489d65b14ecc7a,64cf4855491fef45d3990989,,,,,,,decisionTrl,resources/DP.BMP,resources/DG.BMP,Door1,0.32222225,0.053703697,1,0,0,1.5408,optionRight,30,1635,1,30,0,30,0,1,,,,,,,,,,,,,,,,,,,,,,,,,,,,,,,,,,,,,,,
,,,,,,,,2023-08-06_08h14.41.240,HF_wild_card,2022.2.4,Win32,144.3418014,615cb147f04efc8a8c2ff1e5,64ce5acb97489d65b14ecc7a,64cf4855491fef45d3990989,,,,,,,sngl,resources/Empty.png,resources/DBN.BMP,Door4,0.312037009,0.003703683,1,0,0,1.1918,optionRight,60,1695,1,31,0,31,0,1,,,,,,,,,,,,,,,,,,,,,,,,,,,,,,,,,,,,,,,
,,,,,,,,2023-08-06_08h14.41.240,HF_wild_card,2022.2.4,Win32,144.3418014,615cb147f04efc8a8c2ff1e5,64ce5acb97489d65b14ecc7a,64cf4855491fef45d3990989,,,,,,,decisionTrl,resources/DY.BMP,resources/DG.BMP,WildCard_NonEx,-0.301851838,0.052777785,1,0,0,1.3303,optionLeft,45,1740,1,32,0,32,0,1,,,,,,,,,,,,,,,,,,,,,,,,,,,,,,,,,,,,,,,
,,,,,,,,2023-08-06_08h14.41.240,HF_wild_card,2022.2.4,Win32,144.3418014,615cb147f04efc8a8c2ff1e5,64ce5acb97489d65b14ecc7a,64cf4855491fef45d3990989,,,,,,,sngl,resources/Empty.png,resources/DG.BMP,Door1,0.353703675,0.013888889,1,0,0,0.9417,optionRight,30,1770,1,33,0,33,0,1,,,,,,,,,,,,,,,,,,,,,,,,,,,,,,,,,,,,,,,
,,,,,,,,2023-08-06_08h14.41.240,HF_wild_card,2022.2.4,Win32,144.3418014,615cb147f04efc8a8c2ff1e5,64ce5acb97489d65b14ecc7a,64cf4855491fef45d3990989,,,,,,,ctch,resources/DG.BMP,resources/DBN.BMP,Door4,0.384259259,0.050925926,1,0,0,0.9074,optionRight,80,1850,1,34,0,34,0,1,,,,,,,,,,,,,,,,,,,,,,,,,,,,,,,,,,,,,,,
,,,,,,,,2023-08-06_08h14.41.240,HF_wild_card,2022.2.4,Win32,144.3418014,615cb147f04efc8a8c2ff1e5,64ce5acb97489d65b14ecc7a,64cf4855491fef45d3990989,,,,,,,decisionTrl,resources/DG.BMP,resources/DP.BMP,Door2,0.301851908,0.053703697,1,0,0,1.5946,optionRight,40,1890,1,35,0,35,0,1,,,,,,,,,,,,,,,,,,,,,,,,,,,,,,,,,,,,,,,
,,,,,,,,2023-08-06_08h14.41.240,HF_wild_card,2022.2.4,Win32,144.3418014,615cb147f04efc8a8c2ff1e5,64ce5acb97489d65b14ecc7a,64cf4855491fef45d3990989,,,,,,,sngl,resources/Empty.png,resources/DY.BMP,WildCard_NonEx,0.337962963,0.034259266,1,0,0,0.8928,optionRight,45,1935,1,36,0,36,0,1,,,,,,,,,,,,,,,,,,,,,,,,,,,,,,,,,,,,,,,
,,,,,,,,2023-08-06_08h14.41.240,HF_wild_card,2022.2.4,Win32,144.3418014,615cb147f04efc8a8c2ff1e5,64ce5acb97489d65b14ecc7a,64cf4855491fef45d3990989,,,,,,,sngl,resources/DR.BMP,resources/Empty.png,Door3,-0.343518504,0.00462963,1,0,0,0.886,optionLeft,70,2005,1,37,0,37,0,1,,,,,,,,,,,,,,,,,,,,,,,,,,,,,,,,,,,,,,,
,,,,,,,,2023-08-06_08h14.41.240,HF_wild_card,2022.2.4,Win32,144.3418014,615cb147f04efc8a8c2ff1e5,64ce5acb97489d65b14ecc7a,64cf4855491fef45d3990989,,,,,,,sngl,resources/DBN.BMP,resources/Empty.png,Door4,-0.352777764,0.002777771,1,0,0,0.8735,optionLeft,80,2085,1,38,0,38,0,1,,,,,,,,,,,,,,,,,,,,,,,,,,,,,,,,,,,,,,,
,,,,,,,,2023-08-06_08h14.41.240,HF_wild_card,2022.2.4,Win32,144.3418014,615cb147f04efc8a8c2ff1e5,64ce5acb97489d65b14ecc7a,64cf4855491fef45d3990989,,,,,,,decisionTrl,resources/DBN.BMP,resources/DY.BMP,Door4,-0.345370363,0.03148146,1,0,0,1.2408,optionLeft,80,2165,1,39,0,39,0,1,,,,,,,,,,,,,,,,,,,,,,,,,,,,,,,,,,,,,,,
,,,,,,,,2023-08-06_08h14.41.240,HF_wild_card,2022.2.4,Win32,144.3418014,615cb147f04efc8a8c2ff1e5,64ce5acb97489d65b14ecc7a,64cf4855491fef45d3990989,,,,,,,decisionTrl,resources/DY.BMP,resources/DBN.BMP,Door4,0.45185188,0.010185171,1,0,0,1.3448,optionRight,60,2225,1,40,0,40,0,1,,,,,,,,,,,,,,,,,,,,,,,,,,,,,,,,,,,,,,,
,,,,,,,,2023-08-06_08h14.41.240,HF_wild_card,2022.2.4,Win32,144.3418014,615cb147f04efc8a8c2ff1e5,64ce5acb97489d65b14ecc7a,64cf4855491fef45d3990989,,,,,,,decisionTrl,resources/DBN.BMP,resources/DR.BMP,Door4,-0.360185164,0.025925919,1,0,0,0.8237,optionLeft,80,2305,1,41,0,41,0,1,,,,,,,,,,,,,,,,,,,,,,,,,,,,,,,,,,,,,,,
,,,,,,,,2023-08-06_08h14.41.240,HF_wild_card,2022.2.4,Win32,144.3418014,615cb147f04efc8a8c2ff1e5,64ce5acb97489d65b14ecc7a,64cf4855491fef45d3990989,,,,,,,decisionTrl,resources/DBN.BMP,resources/DR.BMP,Door4,-0.344444452,0.002777771,1,0,0,0.8304,optionLeft,80,2385,1,42,0,42,0,1,,,,,,,,,,,,,,,,,,,,,,,,,,,,,,,,,,,,,,,
,,,,,,,,2023-08-06_08h14.41.240,HF_wild_card,2022.2.4,Win32,144.3418014,615cb147f04efc8a8c2ff1e5,64ce5acb97489d65b14ecc7a,64cf4855491fef45d3990989,,,,,,,decisionTrl,resources/DR.BMP,resources/DBN.BMP,Door4,0.317592621,-0.006481489,1,0,0,0.9841,optionRight,60,2445,1,43,0,43,0,1,,,,,,,,,,,,,,,,,,,,,,,,,,,,,,,,,,,,,,,
,,,,,,,,2023-08-06_08h14.41.240,HF_wild_card,2022.2.4,Win32,144.3418014,615cb147f04efc8a8c2ff1e5,64ce5acb97489d65b14ecc7a,64cf4855491fef45d3990989,,,,,,,,,,,,,,,,,,,,,,,,,,0,0,0,0,1,,,,,,,,,,,,,,,,,,,,,,,,,,,,,,,,,,
,,,,,,,,2023-08-06_08h14.41.240,HF_wild_card,2022.2.4,Win32,144.3418014,615cb147f04efc8a8c2ff1e5,64ce5acb97489d65b14ecc7a,64cf4855491fef45d3990989,,,,,,,decisionTrl,resources/DP.BMP,resources/DG.BMP,Door2,-0.397222201,-0.054629644,1,0,0,1.8522,optionLeft,20,2465,2,0,0,0,0,1,,,,,,,,,,,,,,,,,,,,,,,,,,,,,,,,,,,,,,,
,,,,,,,,2023-08-06_08h14.41.240,HF_wild_card,2022.2.4,Win32,144.3418014,615cb147f04efc8a8c2ff1e5,64ce5acb97489d65b14ecc7a,64cf4855491fef45d3990989,,,,,,,decisionTrl,resources/DY.BMP,resources/DP.BMP,WildCard_NonEx,-0.388888889,0.008333312,1,0,0,0.8499,optionLeft,45,2510,2,1,0,1,0,1,,,,,,,,,,,,,,,,,,,,,,,,,,,,,,,,,,,,,,,
,,,,,,,,2023-08-06_08h14.41.240,HF_wild_card,2022.2.4,Win32,144.3418014,615cb147f04efc8a8c2ff1e5,64ce5acb97489d65b14ecc7a,64cf4855491fef45d3990989,,,,,,,ctch,resources/DR.BMP,resources/DP.BMP,Door3,-0.325925933,0.010185171,1,0,0,0.7855,optionLeft,70,2580,2,2,0,2,0,1,,,,,,,,,,,,,,,,,,,,,,,,,,,,,,,,,,,,,,,
,,,,,,,,2023-08-06_08h14.41.240,HF_wild_card,2022.2.4,Win32,144.3418014,615cb147f04efc8a8c2ff1e5,64ce5acb97489d65b14ecc7a,64cf4855491fef45d3990989,,,,,,,decisionTrl,resources/DR.BMP,resources/DBN.BMP,Door4,0.446296268,0.037962949,1,0,0,1.1314,optionRight,60,2640,2,3,0,3,0,1,,,,,,,,,,,,,,,,,,,,,,,,,,,,,,,,,,,,,,,
,,,,,,,,2023-08-06_08h14.41.240,HF_wild_card,2022.2.4,Win32,144.3418014,615cb147f04efc8a8c2ff1e5,64ce5acb97489d65b14ecc7a,64cf4855491fef45d3990989,,,,,,,decisionTrl,resources/DR.BMP,resources/DBN.BMP,Door4,0.323148233,0.003703683,1,0,0,0.6708,optionRight,80,2720,2,4,0,4,0,1,,,,,,,,,,,,,,,,,,,,,,,,,,,,,,,,,,,,,,,
,,,,,,,,2023-08-06_08h14.41.240,HF_wild_card,2022.2.4,Win32,144.3418014,615cb147f04efc8a8c2ff1e5,64ce5acb97489d65b14ecc7a,64cf4855491fef45d3990989,,,,,,,decisionTrl,resources/DY.BMP,resources/DR.BMP,WildCard_NonEx,-0.39444443,-0.003703718,1,0,0,1.3931,optionLeft,55,2775,2,5,0,5,0,1,,,,,,,,,,,,,,,,,,,,,,,,,,,,,,,,,,,,,,,
,,,,,,,,2023-08-06_08h14.41.240,HF_wild_card,2022.2.4,Win32,144.3418014,615cb147f04efc8a8c2ff1e5,64ce5acb97489d65b14ecc7a,64cf4855491fef45d3990989,,,,,,,ctch,resources/DP.BMP,resources/DR.BMP,Door3,0.350926011,-0.045370384,1,0,0,1.1986,optionRight,70,2845,2,6,0,6,0,1,,,,,,,,,,,,,,,,,,,,,,,,,,,,,,,,,,,,,,,
,,,,,,,,2023-08-06_08h14.41.240,HF_wild_card,2022.2.4,Win32,144.3418014,615cb147f04efc8a8c2ff1e5,64ce5acb97489d65b14ecc7a,64cf4855491fef45d3990989,,,,,,,decisionTrl,resources/DR.BMP,resources/DY.BMP,Door3,-0.322222215,-0.042592614,1,0,0,0.9282,optionLeft,70,2915,2,7,0,7,0,1,,,,,,,,,,,,,,,,,,,,,,,,,,,,,,,,,,,,,,,
,,,,,,,,2023-08-06_08h14.41.240,HF_wild_card,2022.2.4,Win32,144.3418014,615cb147f04efc8a8c2ff1e5,64ce5acb97489d65b14ecc7a,64cf4855491fef45d3990989,,,,,,,decisionTrl,resources/DBN.BMP,resources/DR.BMP,Door4,-0.326851845,-0.027777778,1,0,0,0.9423,optionLeft,80,2995,2,8,0,8,0,1,,,,,,,,,,,,,,,,,,,,,,,,,,,,,,,,,,,,,,,
,,,,,,,,2023-08-06_08h14.41.240,HF_wild_card,2022.2.4,Win32,144.3418014,615cb147f04efc8a8c2ff1e5,64ce5acb97489d65b14ecc7a,64cf4855491fef45d3990989,,,,,,,decisionTrl,resources/DY.BMP,resources/DBN.BMP,Door4,0.351851852,-0.017592607,1,0,0,1.31,optionRight,60,3055,2,9,0,9,0,1,,,,,,,,,,,,,,,,,,,,,,,,,,,,,,,,,,,,,,,
,,,,,,,,2023-08-06_08h14.41.240,HF_wild_card,2022.2.4,Win32,144.3418014,615cb147f04efc8a8c2ff1e5,64ce5acb97489d65b14ecc7a,64cf4855491fef45d3990989,,,,,,,sngl,resources/Empty.png,resources/DBN.BMP,Door4,0.349074046,-0.025925919,1,0,0,1.1361,optionRight,80,3135,2,10,0,10,0,1,,,,,,,,,,,,,,,,,,,,,,,,,,,,,,,,,,,,,,,
,,,,,,,,2023-08-06_08h14.41.240,HF_wild_card,2022.2.4,Win32,144.3418014,615cb147f04efc8a8c2ff1e5,64ce5acb97489d65b14ecc7a,64cf4855491fef45d3990989,,,,,,,sngl,resources/DR.BMP,resources/Empty.png,Door3,-0.432407414,0.014814801,1,0,0,1.0042,optionLeft,70,3205,2,11,0,11,0,1,,,,,,,,,,,,,,,,,,,,,,,,,,,,,,,,,,,,,,,
,,,,,,,,2023-08-06_08h14.41.240,HF_wild_card,2022.2.4,Win32,144.3418014,615cb147f04efc8a8c2ff1e5,64ce5acb97489d65b14ecc7a,64cf4855491fef45d3990989,,,,,,,decisionTrl,resources/DP.BMP,resources/DG.BMP,Door1,0.292592578,0.006481489,1,0,0,1.4836,optionRight,30,3235,2,12,0,12,0,1,,,,,,,,,,,,,,,,,,,,,,,,,,,,,,,,,,,,,,,
,,,,,,,,2023-08-06_08h14.41.240,HF_wild_card,2022.2.4,Win32,144.3418014,615cb147f04efc8a8c2ff1e5,64ce5acb97489d65b14ecc7a,64cf4855491fef45d3990989,,,,,,,decisionTrl,resources/DP.BMP,resources/DY.BMP,WildCard_NonEx,0.256481524,0.002777771,1,0,0,1.5533,optionRight,55,3290,2,13,0,13,0,1,,,,,,,,,,,,,,,,,,,,,,,,,,,,,,,,,,,,,,,
,,,,,,,,2023-08-06_08h14.41.240,HF_wild_card,2022.2.4,Win32,144.3418014,615cb147f04efc8a8c2ff1e5,64ce5acb97489d65b14ecc7a,64cf4855491fef45d3990989,,,,,,,decisionTrl,resources/DG.BMP,resources/DP.BMP,Door1,-0.397222201,-0.002777771,1,0,0,1.1017,optionLeft,30,3320,2,14,0,14,0,1,,,,,,,,,,,,,,,,,,,,,,,,,,,,,,,,,,,,,,,
,,,,,,,,2023-08-06_08h14.41.240,HF_wild_card,2022.2.4,Win32,144.3418014,615cb147f04efc8a8c2ff1e5,64ce5acb97489d65b14ecc7a,64cf4855491fef45d3990989,,,,,,,decisionTrl,resources/DG.BMP,resources/DP.BMP,Door1,-0.299074067,-0.003703718,1,0,0,0.6917,optionLeft,30,3350,2,15,0,15,0,1,,,,,,,,,,,,,,,,,,,,,,,,,,,,,,,,,,,,,,,
,,,,,,,,2023-08-06_08h14.41.240,HF_wild_card,2022.2.4,Win32,144.3418014,615cb147f04efc8a8c2ff1e5,64ce5acb97489d65b14ecc7a,64cf4855491fef45d3990989,,,,,,,decisionTrl,resources/DP.BMP,resources/DG.BMP,Door2,-0.291666667,-0.036111125,1,0,0,1.8298,optionLeft,20,3370,2,16,0,16,0,1,,,,,,,,,,,,,,,,,,,,,,,,,,,,,,,,,,,,,,,
,,,,,,,,2023-08-06_08h14.41.240,HF_wild_card,2022.2.4,Win32,144.3418014,615cb147f04efc8a8c2ff1e5,64ce5acb97489d65b14ecc7a,64cf4855491fef45d3990989,,,,,,,decisionTrl,resources/DG.BMP,resources/DP.BMP,Door1,-0.35833334,0.00462963,1,0,0,0.7898,optionLeft,30,3400,2,17,0,17,0,1,,,,,,,,,,,,,,,,,,,,,,,,,,,,,,,,,,,,,,,
,,,,,,,,2023-08-06_08h14.41.240,HF_wild_card,2022.2.4,Win32,144.3418014,615cb147f04efc8a8c2ff1e5,64ce5acb97489d65b14ecc7a,64cf4855491fef45d3990989,,,,,,,sngl,resources/DY.BMP,resources/Empty.png,WildCard_NonEx,-0.330555563,0.01944443,1,0,0,1.0682,optionLeft,45,3445,2,18,0,18,0,1,,,,,,,,,,,,,,,,,,,,,,,,,,,,,,,,,,,,,,,
,,,,,,,,2023-08-06_08h14.41.240,HF_wild_card,2022.2.4,Win32,144.3418014,615cb147f04efc8a8c2ff1e5,64ce5acb97489d65b14ecc7a,64cf4855491fef45d3990989,,,,,,,decisionTrl,resources/DBN.BMP,resources/DY.BMP,Door4,-0.410185178,-0.008333347,1,0,0,1.345,optionLeft,60,3505,2,19,0,19,0,1,,,,,,,,,,,,,,,,,,,,,,,,,,,,,,,,,,,,,,,
,,,,,,,,2023-08-06_08h14.41.240,HF_wild_card,2022.2.4,Win32,144.3418014,615cb147f04efc8a8c2ff1e5,64ce5acb97489d65b14ecc7a,64cf4855491fef45d3990989,,,,,,,decisionTrl,resources/DR.BMP,resources/DBN.BMP,Door4,0.377777806,0.020370377,1,0,0,1.13,optionRight,60,3565,2,20,0,20,0,1,,,,,,,,,,,,,,,,,,,,,,,,,,,,,,,,,,,,,,,
,,,,,,,,2023-08-06_08h14.41.240,HF_wild_card,2022.2.4,Win32,144.3418014,615cb147f04efc8a8c2ff1e5,64ce5acb97489d65b14ecc7a,64cf4855491fef45d3990989,,,,,,,ctch,resources/DBN.BMP,resources/DG.BMP,Door4,-0.318518497,-0.000925947,1,0,0,0.8103,optionLeft,60,3625,2,21,0,21,0,1,,,,,,,,,,,,,,,,,,,,,,,,,,,,,,,,,,,,,,,
,,,,,,,,2023-08-06_08h14.41.240,HF_wild_card,2022.2.4,Win32,144.3418014,615cb147f04efc8a8c2ff1e5,64ce5acb97489d65b14ecc7a,64cf4855491fef45d3990989,,,,,,,decisionTrl,resources/DY.BMP,resources/DG.BMP,WildCard_NonEx,-0.316666674,-0.013888889,1,0,0,1.831,optionLeft,55,3680,2,22,0,22,0,1,,,,,,,,,,,,,,,,,,,,,,,,,,,,,,,,,,,,,,,
,,,,,,,,2023-08-06_08h14.41.240,HF_wild_card,2022.2.4,Win32,144.3418014,615cb147f04efc8a8c2ff1e5,64ce5acb97489d65b14ecc7a,64cf4855491fef45d3990989,,,,,,,ctch,resources/DBN.BMP,resources/DG.BMP,Door4,-0.407407407,0.022222201,1,0,0,1.143,optionLeft,60,3740,2,23,0,23,0,1,,,,,,,,,,,,,,,,,,,,,,,,,,,,,,,,,,,,,,,
,,,,,,,,2023-08-06_08h14.41.240,HF_wild_card,2022.2.4,Win32,144.3418014,615cb147f04efc8a8c2ff1e5,64ce5acb97489d65b14ecc7a,64cf4855491fef45d3990989,,,,,,,decisionTrl,resources/DBN.BMP,resources/DR.BMP,Door4,-0.363888882,0.001851859,1,0,0,1.1981,optionLeft,60,3800,2,24,0,24,0,1,,,,,,,,,,,,,,,,,,,,,,,,,,,,,,,,,,,,,,,
,,,,,,,,2023-08-06_08h14.41.240,HF_wild_card,2022.2.4,Win32,144.3418014,615cb147f04efc8a8c2ff1e5,64ce5acb97489d65b14ecc7a,64cf4855491fef45d3990989,,,,,,,ctch,resources/DG.BMP,resources/DBN.BMP,Door4,0.335185157,0.002777771,1,0,0,1.136,optionRight,80,3880,2,25,0,25,0,1,,,,,,,,,,,,,,,,,,,,,,,,,,,,,,,,,,,,,,,
,,,,,,,,2023-08-06_08h14.41.240,HF_wild_card,2022.2.4,Win32,144.3418014,615cb147f04efc8a8c2ff1e5,64ce5acb97489d65b14ecc7a,64cf4855491fef45d3990989,,,,,,,sngl,resources/DBN.BMP,resources/Empty.png,Door4,-0.246296282,-0.049074067,1,0,0,0.7953,optionLeft,60,3940,2,26,0,26,0,1,,,,,,,,,,,,,,,,,,,,,,,,,,,,,,,,,,,,,,,
,,,,,,,,2023-08-06_08h14.41.240,HF_wild_card,2022.2.4,Win32,144.3418014,615cb147f04efc8a8c2ff1e5,64ce5acb97489d65b14ecc7a,64cf4855491fef45d3990989,,,,,,,sngl,resources/DP.BMP,resources/Empty.png,Door2,-0.315740727,-0.0074074,1,0,0,1.2682,optionLeft,20,3960,2,27,0,27,0,1,,,,,,,,,,,,,,,,,,,,,,,,,,,,,,,,,,,,,,,
,,,,,,,,2023-08-06_08h14.41.240,HF_wild_card,2022.2.4,Win32,144.3418014,615cb147f04efc8a8c2ff1e5,64ce5acb97489d65b14ecc7a,64cf4855491fef45d3990989,,,,,,,decisionTrl,resources/DG.BMP,resources/DP.BMP,Door1,-0.37962963,-0.011111118,1,0,0,1.5318,optionLeft,30,3990,2,28,0,28,0,1,,,,,,,,,,,,,,,,,,,,,,,,,,,,,,,,,,,,,,,
,,,,,,,,2023-08-06_08h14.41.240,HF_wild_card,2022.2.4,Win32,144.3418014,615cb147f04efc8a8c2ff1e5,64ce5acb97489d65b14ecc7a,64cf4855491fef45d3990989,,,,,,,decisionTrl,resources/DP.BMP,resources/DG.BMP,Door1,0.428703732,0.021296289,1,0,0,1.0338,optionRight,30,4020,2,29,0,29,0,1,,,,,,,,,,,,,,,,,,,,,,,,,,,,,,,,,,,,,,,
,,,,,,,,2023-08-06_08h14.41.240,HF_wild_card,2022.2.4,Win32,144.3418014,615cb147f04efc8a8c2ff1e5,64ce5acb97489d65b14ecc7a,64cf4855491fef45d3990989,,,,,,,sngl,resources/Empty.png,resources/DG.BMP,Door1,0.392592677,0.000925912,1,0,0,0.8098,optionRight,30,4050,2,30,0,30,0,1,,,,,,,,,,,,,,,,,,,,,,,,,,,,,,,,,,,,,,,
,,,,,,,,2023-08-06_08h14.41.240,HF_wild_card,2022.2.4,Win32,144.3418014,615cb147f04efc8a8c2ff1e5,64ce5acb97489d65b14ecc7a,64cf4855491fef45d3990989,,,,,,,decisionTrl,resources/DBN.BMP,resources/DR.BMP,Door4,-0.407407407,0.002777771,1,0,0,0.8375,optionLeft,80,4130,2,31,0,31,0,1,,,,,,,,,,,,,,,,,,,,,,,,,,,,,,,,,,,,,,,
,,,,,,,,2023-08-06_08h14.41.240,HF_wild_card,2022.2.4,Win32,144.3418014,615cb147f04efc8a8c2ff1e5,64ce5acb97489d65b14ecc7a,64cf4855491fef45d3990989,,,,,,,ctch,resources/DR.BMP,resources/DP.BMP,Door3,-0.348148134,0.001851859,1,0,0,1.2825,optionLeft,70,4200,2,32,0,32,0,1,,,,,,,,,,,,,,,,,,,,,,,,,,,,,,,,,,,,,,,
,,,,,,,,2023-08-06_08h14.41.240,HF_wild_card,2022.2.4,Win32,144.3418014,615cb147f04efc8a8c2ff1e5,64ce5acb97489d65b14ecc7a,64cf4855491fef45d3990989,,,,,,,sngl,resources/DY.BMP,resources/Empty.png,WildCard_NonEx,-0.360185164,0.00462963,1,0,0,0.8728,optionLeft,55,4255,2,33,0,33,0,1,,,,,,,,,,,,,,,,,,,,,,,,,,,,,,,,,,,,,,,
,,,,,,,,2023-08-06_08h14.41.240,HF_wild_card,2022.2.4,Win32,144.3418014,615cb147f04efc8a8c2ff1e5,64ce5acb97489d65b14ecc7a,64cf4855491fef45d3990989,,,,,,,sngl,resources/Empty.png,resources/DP.BMP,Door2,0.325925898,0.00462963,1,0,0,1.3792,optionRight,40,4295,2,34,0,34,0,1,,,,,,,,,,,,,,,,,,,,,,,,,,,,,,,,,,,,,,,
,,,,,,,,2023-08-06_08h14.41.240,HF_wild_card,2022.2.4,Win32,144.3418014,615cb147f04efc8a8c2ff1e5,64ce5acb97489d65b14ecc7a,64cf4855491fef45d3990989,,,,,,,sngl,resources/Empty.png,resources/DY.BMP,WildCard_NonEx,0.309259344,-0.070370392,1,0,0,1.3655,optionRight,55,4350,2,35,0,35,0,1,,,,,,,,,,,,,,,,,,,,,,,,,,,,,,,,,,,,,,,
,,,,,,,,2023-08-06_08h14.41.240,HF_wild_card,2022.2.4,Win32,144.3418014,615cb147f04efc8a8c2ff1e5,64ce5acb97489d65b14ecc7a,64cf4855491fef45d3990989,,,,,,,sngl,resources/Empty.png,resources/DY.BMP,WildCard_NonEx,0.449074074,-0.039814808,1,0,0,1.7753,optionRight,45,4395,2,36,0,36,0,1,,,,,,,,,,,,,,,,,,,,,,,,,,,,,,,,,,,,,,,
,,,,,,,,2023-08-06_08h14.41.240,HF_wild_card,2022.2.4,Win32,144.3418014,615cb147f04efc8a8c2ff1e5,64ce5acb97489d65b14ecc7a,64cf4855491fef45d3990989,,,,,,,sngl,resources/DG.BMP,resources/Empty.png,Door1,-0.360185164,-0.029629637,1,0,0,0.8649,optionLeft,30,4425,2,37,0,37,0,1,,,,,,,,,,,,,,,,,,,,,,,,,,,,,,,,,,,,,,,
,,,,,,,,2023-08-06_08h14.41.240,HF_wild_card,2022.2.4,Win32,144.3418014,615cb147f04efc8a8c2ff1e5,64ce5acb97489d65b14ecc7a,64cf4855491fef45d3990989,,,,,,,sngl,resources/Empty.png,resources/DR.BMP,Door3,0.340740769,0.025000007,1,0,0,0.9003,optionRight,70,4495,2,38,0,38,0,1,,,,,,,,,,,,,,,,,,,,,,,,,,,,,,,,,,,,,,,
,,,,,,,,2023-08-06_08h14.41.240,HF_wild_card,2022.2.4,Win32,144.3418014,615cb147f04efc8a8c2ff1e5,64ce5acb97489d65b14ecc7a,64cf4855491fef45d3990989,,,,,,,decisionTrl,resources/DR.BMP,resources/DBN.BMP,Door4,0.377777806,-0.015740748,1,0,0,0.9286,optionRight,60,4555,2,39,0,39,0,1,,,,,,,,,,,,,,,,,,,,,,,,,,,,,,,,,,,,,,,
,,,,,,,,2023-08-06_08h14.41.240,HF_wild_card,2022.2.4,Win32,144.3418014,615cb147f04efc8a8c2ff1e5,64ce5acb97489d65b14ecc7a,64cf4855491fef45d3990989,,,,,,,decisionTrl,resources/DBN.BMP,resources/DR.BMP,Door3,0.401851937,-0.029629637,1,0,0,0.6151,optionRight,70,4625,2,40,0,40,0,1,,,,,,,,,,,,,,,,,,,,,,,,,,,,,,,,,,,,,,,
,,,,,,,,2023-08-06_08h14.41.240,HF_wild_card,2022.2.4,Win32,144.3418014,615cb147f04efc8a8c2ff1e5,64ce5acb97489d65b14ecc7a,64cf4855491fef45d3990989,,,,,,,ctch,resources/DG.BMP,resources/DBN.BMP,Door4,0.303703732,0.012962942,1,0,0,0.8653,optionRight,60,4685,2,41,0,41,0,1,,,,,,,,,,,,,,,,,,,,,,,,,,,,,,,,,,,,,,,
,,,,,,,,2023-08-06_08h14.41.240,HF_wild_card,2022.2.4,Win32,144.3418014,615cb147f04efc8a8c2ff1e5,64ce5acb97489d65b14ecc7a,64cf4855491fef45d3990989,,,,,,,ctch,resources/DP.BMP,resources/DR.BMP,Door3,0.294444473,0.006481489,1,0,0,0.9904,optionRight,70,4755,2,42,0,42,0,1,,,,,,,,,,,,,,,,,,,,,,,,,,,,,,,,,,,,,,,
,,,,,,,,2023-08-06_08h14.41.240,HF_wild_card,2022.2.4,Win32,144.3418014,615cb147f04efc8a8c2ff1e5,64ce5acb97489d65b14ecc7a,64cf4855491fef45d3990989,,,,,,,decisionTrl,resources/DG.BMP,resources/DY.BMP,WildCard_NonEx,0.300000085,0.015740748,1,0,0,1.5117,optionRight,45,4800,2,43,0,43,0,1,,,,,,,,,,,,,,,,,,,,,,,,,,,,,,,,,,,,,,,
,,,,,,,,2023-08-06_08h14.41.240,HF_wild_card,2022.2.4,Win32,144.3418014,615cb147f04efc8a8c2ff1e5,64ce5acb97489d65b14ecc7a,64cf4855491fef45d3990989,,,,,,,,,,,,,,,,,,,,,,,,,,1,0,1,0,1,,,,,,,,,,,,,,,,,,,,,,,,,,,,,,,,,,
,,,,,,,,2023-08-06_08h14.41.240,HF_wild_card,2022.2.4,Win32,144.3418014,615cb147f04efc8a8c2ff1e5,64ce5acb97489d65b14ecc7a,64cf4855491fef45d3990989,,,,,,,ctch,resources/DG.BMP,resources/DBN.BMP,Door4,0.398148148,0.000925912,1,0,0,2.0872,optionRight,80,4880,3,0,0,0,0,1,,,,,,,,,,,,,,,,,,,,,,,,,,,,,,,,,,,,,,,
,,,,,,,,2023-08-06_08h14.41.240,HF_wild_card,2022.2.4,Win32,144.3418014,615cb147f04efc8a8c2ff1e5,64ce5acb97489d65b14ecc7a,64cf4855491fef45d3990989,,,,,,,decisionTrl,resources/DP.BMP,resources/DG.BMP,Door1,0.312037009,0.009259259,1,0,0,1.0459,optionRight,30,4910,3,1,0,1,0,1,,,,,,,,,,,,,,,,,,,,,,,,,,,,,,,,,,,,,,,
,,,,,,,,2023-08-06_08h14.41.240,HF_wild_card,2022.2.4,Win32,144.3418014,615cb147f04efc8a8c2ff1e5,64ce5acb97489d65b14ecc7a,64cf4855491fef45d3990989,,,,,,,decisionTrl,resources/DBN.BMP,resources/DR.BMP,Door4,-0.349074081,-0.015740748,1,0,0,1.3587,optionLeft,60,4970,3,2,0,2,0,1,,,,,,,,,,,,,,,,,,,,,,,,,,,,,,,,,,,,,,,
,,,,,,,,2023-08-06_08h14.41.240,HF_wild_card,2022.2.4,Win32,144.3418014,615cb147f04efc8a8c2ff1e5,64ce5acb97489d65b14ecc7a,64cf4855491fef45d3990989,,,,,,,ctch,resources/DR.BMP,resources/DP.BMP,Door3,-0.310185185,0.005555541,1,0,0,0.9973,optionLeft,70,5040,3,3,0,3,0,1,,,,,,,,,,,,,,,,,,,,,,,,,,,,,,,,,,,,,,,
,,,,,,,,2023-08-06_08h14.41.240,HF_wild_card,2022.2.4,Win32,144.3418014,615cb147f04efc8a8c2ff1e5,64ce5acb97489d65b14ecc7a,64cf4855491fef45d3990989,,,,,,,decisionTrl,resources/DBN.BMP,resources/DR.BMP,Door4,-0.349999993,0.022222201,1,0,0,0.9759,optionLeft,60,5100,3,4,0,4,0,1,,,,,,,,,,,,,,,,,,,,,,,,,,,,,,,,,,,,,,,
,,,,,,,,2023-08-06_08h14.41.240,HF_wild_card,2022.2.4,Win32,144.3418014,615cb147f04efc8a8c2ff1e5,64ce5acb97489d65b14ecc7a,64cf4855491fef45d3990989,,,,,,,ctch,resources/DG.BMP,resources/DBN.BMP,Door4,0.336111139,0.015740748,1,0,0,0.9694,optionRight,80,5180,3,5,0,5,0,1,,,,,,,,,,,,,,,,,,,,,,,,,,,,,,,,,,,,,,,
,,,,,,,,2023-08-06_08h14.41.240,HF_wild_card,2022.2.4,Win32,144.3418014,615cb147f04efc8a8c2ff1e5,64ce5acb97489d65b14ecc7a,64cf4855491fef45d3990989,,,,,,,decisionTrl,resources/DY.BMP,resources/DBN.BMP,Door4,0.367592564,0.010185171,1,0,0,0.8934,optionRight,80,5260,3,6,0,6,0,1,,,,,,,,,,,,,,,,,,,,,,,,,,,,,,,,,,,,,,,
,,,,,,,,2023-08-06_08h14.41.240,HF_wild_card,2022.2.4,Win32,144.3418014,615cb147f04efc8a8c2ff1e5,64ce5acb97489d65b14ecc7a,64cf4855491fef45d3990989,,,,,,,ctch,resources/DP.BMP,resources/DR.BMP,Door3,0.406481566,-0.006481489,1,0,0,1.1502,optionRight,70,5330,3,7,0,7,0,1,,,,,,,,,,,,,,,,,,,,,,,,,,,,,,,,,,,,,,,
,,,,,,,,2023-08-06_08h14.41.240,HF_wild_card,2022.2.4,Win32,144.3418014,615cb147f04efc8a8c2ff1e5,64ce5acb97489d65b14ecc7a,64cf4855491fef45d3990989,,,,,,,sngl,resources/DY.BMP,resources/Empty.png,WildCard_NonEx,-0.331481474,-0.010185206,1,0,0,1.3448,optionLeft,55,5385,3,8,0,8,0,1,,,,,,,,,,,,,,,,,,,,,,,,,,,,,,,,,,,,,,,
,,,,,,,,2023-08-06_08h14.41.240,HF_wild_card,2022.2.4,Win32,144.3418014,615cb147f04efc8a8c2ff1e5,64ce5acb97489d65b14ecc7a,64cf4855491fef45d3990989,,,,,,,ctch,resources/DBN.BMP,resources/DG.BMP,Door4,-0.366666653,0.012962942,1,0,0,0.8417,optionLeft,60,5445,3,9,0,9,0,1,,,,,,,,,,,,,,,,,,,,,,,,,,,,,,,,,,,,,,,
,,,,,,,,2023-08-06_08h14.41.240,HF_wild_card,2022.2.4,Win32,144.3418014,615cb147f04efc8a8c2ff1e5,64ce5acb97489d65b14ecc7a,64cf4855491fef45d3990989,,,,,,,decisionTrl,resources/DY.BMP,resources/DP.BMP,WildCard_NonEx,-0.349999993,-0.0074074,1,0,0,2.2026,optionLeft,55,5500,3,10,0,10,0,1,,,,,,,,,,,,,,,,,,,,,,,,,,,,,,,,,,,,,,,
,,,,,,,,2023-08-06_08h14.41.240,HF_wild_card,2022.2.4,Win32,144.3418014,615cb147f04efc8a8c2ff1e5,64ce5acb97489d65b14ecc7a,64cf4855491fef45d3990989,,,,,,,decisionTrl,resources/DG.BMP,resources/DP.BMP,Door1,-0.472222222,0.049074067,1,0,0,1.4116,optionLeft,30,5530,3,11,0,11,0,1,,,,,,,,,,,,,,,,,,,,,,,,,,,,,,,,,,,,,,,
,,,,,,,,2023-08-06_08h14.41.240,HF_wild_card,2022.2.4,Win32,144.3418014,615cb147f04efc8a8c2ff1e5,64ce5acb97489d65b14ecc7a,64cf4855491fef45d3990989,,,,,,,sngl,resources/Empty.png,resources/DP.BMP,Door2,0.412963019,-0.017592607,1,0,0,0.8004,optionRight,20,5550,3,12,0,12,0,1,,,,,,,,,,,,,,,,,,,,,,,,,,,,,,,,,,,,,,,
,,,,,,,,2023-08-06_08h14.41.240,HF_wild_card,2022.2.4,Win32,144.3418014,615cb147f04efc8a8c2ff1e5,64ce5acb97489d65b14ecc7a,64cf4855491fef45d3990989,,,,,,,sngl,resources/Empty.png,resources/DY.BMP,WildCard_NonEx,0.387963048,0.001851859,1,0,0,0.7623,optionRight,45,5595,3,13,0,13,0,1,,,,,,,,,,,,,,,,,,,,,,,,,,,,,,,,,,,,,,,
,,,,,,,,2023-08-06_08h14.41.240,HF_wild_card,2022.2.4,Win32,144.3418014,615cb147f04efc8a8c2ff1e5,64ce5acb97489d65b14ecc7a,64cf4855491fef45d3990989,,,,,,,sngl,resources/Empty.png,resources/DBN.BMP,Door4,0.35555564,0.037962949,1,0,0,0.6989,optionRight,60,5655,3,14,0,14,0,1,,,,,,,,,,,,,,,,,,,,,,,,,,,,,,,,,,,,,,,
,,,,,,,,2023-08-06_08h14.41.240,HF_wild_card,2022.2.4,Win32,144.3418014,615cb147f04efc8a8c2ff1e5,64ce5acb97489d65b14ecc7a,64cf4855491fef45d3990989,,,,,,,decisionTrl,resources/DG.BMP,resources/DY.BMP,WildCard_NonEx,0.368518547,0.066666674,1,0,0,1.3184,optionRight,45,5700,3,15,0,15,0,1,,,,,,,,,,,,,,,,,,,,,,,,,,,,,,,,,,,,,,,
,,,,,,,,2023-08-06_08h14.41.240,HF_wild_card,2022.2.4,Win32,144.3418014,615cb147f04efc8a8c2ff1e5,64ce5acb97489d65b14ecc7a,64cf4855491fef45d3990989,,,,,,,decisionTrl,resources/DY.BMP,resources/DR.BMP,Door3,0.330555527,-0.012962977,1,0,0,1.2216,optionRight,70,5770,3,16,0,16,0,1,,,,,,,,,,,,,,,,,,,,,,,,,,,,,,,,,,,,,,,
,,,,,,,,2023-08-06_08h14.41.240,HF_wild_card,2022.2.4,Win32,144.3418014,615cb147f04efc8a8c2ff1e5,64ce5acb97489d65b14ecc7a,64cf4855491fef45d3990989,,,,,,,sngl,resources/DR.BMP,resources/Empty.png,Door3,-0.318518497,-0.035185178,1,0,0,1.0441,optionLeft,70,5840,3,17,0,17,0,1,,,,,,,,,,,,,,,,,,,,,,,,,,,,,,,,,,,,,,,
,,,,,,,,2023-08-06_08h14.41.240,HF_wild_card,2022.2.4,Win32,144.3418014,615cb147f04efc8a8c2ff1e5,64ce5acb97489d65b14ecc7a,64cf4855491fef45d3990989,,,,,,,ctch,resources/DBN.BMP,resources/DG.BMP,Door4,-0.39166666,-0.079629651,1,0,0,0.8321,optionLeft,60,5900,3,18,0,18,0,1,,,,,,,,,,,,,,,,,,,,,,,,,,,,,,,,,,,,,,,
,,,,,,,,2023-08-06_08h14.41.240,HF_wild_card,2022.2.4,Win32,144.3418014,615cb147f04efc8a8c2ff1e5,64ce5acb97489d65b14ecc7a,64cf4855491fef45d3990989,,,,,,,decisionTrl,resources/DY.BMP,resources/DG.BMP,Door1,0.325925898,-0.010185206,1,0,0,1.0372,optionRight,30,5930,3,19,0,19,0,1,,,,,,,,,,,,,,,,,,,,,,,,,,,,,,,,,,,,,,,
,,,,,,,,2023-08-06_08h14.41.240,HF_wild_card,2022.2.4,Win32,144.3418014,615cb147f04efc8a8c2ff1e5,64ce5acb97489d65b14ecc7a,64cf4855491fef45d3990989,,,,,,,ctch,resources/DP.BMP,resources/DR.BMP,Door3,0.32685188,-0.015740748,1,0,0,1.3217,optionRight,70,6000,3,20,0,20,0,1,,,,,,,,,,,,,,,,,,,,,,,,,,,,,,,,,,,,,,,
,,,,,,,,2023-08-06_08h14.41.240,HF_wild_card,2022.2.4,Win32,144.3418014,615cb147f04efc8a8c2ff1e5,64ce5acb97489d65b14ecc7a,64cf4855491fef45d3990989,,,,,,,decisionTrl,resources/DBN.BMP,resources/DY.BMP,Door4,-0.460185192,-0.032407407,1,0,0,0.9424,optionLeft,60,6060,3,21,0,21,0,1,,,,,,,,,,,,,,,,,,,,,,,,,,,,,,,,,,,,,,,
,,,,,,,,2023-08-06_08h14.41.240,HF_wild_card,2022.2.4,Win32,144.3418014,615cb147f04efc8a8c2ff1e5,64ce5acb97489d65b14ecc7a,64cf4855491fef45d3990989,,,,,,,decisionTrl,resources/DP.BMP,resources/DG.BMP,Door1,0.263888889,0.037962949,1,0,0,1.105,optionRight,30,6090,3,22,0,22,0,1,,,,,,,,,,,,,,,,,,,,,,,,,,,,,,,,,,,,,,,
,,,,,,,,2023-08-06_08h14.41.240,HF_wild_card,2022.2.4,Win32,144.3418014,615cb147f04efc8a8c2ff1e5,64ce5acb97489d65b14ecc7a,64cf4855491fef45d3990989,,,,,,,decisionTrl,resources/DR.BMP,resources/DY.BMP,Door3,-0.309259238,0.033333319,1,0,0,4.1397,optionLeft,70,6160,3,23,0,23,0,1,,,,,,,,,,,,,,,,,,,,,,,,,,,,,,,,,,,,,,,
,,,,,,,,2023-08-06_08h14.41.240,HF_wild_card,2022.2.4,Win32,144.3418014,615cb147f04efc8a8c2ff1e5,64ce5acb97489d65b14ecc7a,64cf4855491fef45d3990989,,,,,,,sngl,resources/DG.BMP,resources/Empty.png,Door1,-0.311111097,-0.020370377,1,0,0,0.9079,optionLeft,30,6190,3,24,0,24,0,1,,,,,,,,,,,,,,,,,,,,,,,,,,,,,,,,,,,,,,,
,,,,,,,,2023-08-06_08h14.41.240,HF_wild_card,2022.2.4,Win32,144.3418014,615cb147f04efc8a8c2ff1e5,64ce5acb97489d65b14ecc7a,64cf4855491fef45d3990989,,,,,,,decisionTrl,resources/DP.BMP,resources/DG.BMP,Door1,0.329629686,0.044444437,1,0,0,1.6956,optionRight,30,6220,3,25,0,25,0,1,,,,,,,,,,,,,,,,,,,,,,,,,,,,,,,,,,,,,,,
,,,,,,,,2023-08-06_08h14.41.240,HF_wild_card,2022.2.4,Win32,144.3418014,615cb147f04efc8a8c2ff1e5,64ce5acb97489d65b14ecc7a,64cf4855491fef45d3990989,,,,,,,decisionTrl,resources/DR.BMP,resources/DBN.BMP,Door3,-0.356481481,-0.009259259,1,0,0,0.9711,optionLeft,70,6290,3,26,0,26,0,1,,,,,,,,,,,,,,,,,,,,,,,,,,,,,,,,,,,,,,,
,,,,,,,,2023-08-06_08h14.41.240,HF_wild_card,2022.2.4,Win32,144.3418014,615cb147f04efc8a8c2ff1e5,64ce5acb97489d65b14ecc7a,64cf4855491fef45d3990989,,,,,,,sngl,resources/DP.BMP,resources/Empty.png,Door2,-0.41111109,-0.0074074,1,0,0,0.9793,optionLeft,40,6330,3,27,0,27,0,1,,,,,,,,,,,,,,,,,,,,,,,,,,,,,,,,,,,,,,,
,,,,,,,,2023-08-06_08h14.41.240,HF_wild_card,2022.2.4,Win32,144.3418014,615cb147f04efc8a8c2ff1e5,64ce5acb97489d65b14ecc7a,64cf4855491fef45d3990989,,,,,,,sngl,resources/DBN.BMP,resources/Empty.png,Door4,-0.393518519,-0.002777771,1,0,0,0.9421,optionLeft,80,6410,3,28,0,28,0,1,,,,,,,,,,,,,,,,,,,,,,,,,,,,,,,,,,,,,,,
,,,,,,,,2023-08-06_08h14.41.240,HF_wild_card,2022.2.4,Win32,144.3418014,615cb147f04efc8a8c2ff1e5,64ce5acb97489d65b14ecc7a,64cf4855491fef45d3990989,,,,,,,ctch,resources/DR.BMP,resources/DP.BMP,Door3,-0.357407393,-0.054629644,1,0,0,1.3664,optionLeft,70,6480,3,29,0,29,0,1,,,,,,,,,,,,,,,,,,,,,,,,,,,,,,,,,,,,,,,
,,,,,,,,2023-08-06_08h14.41.240,HF_wild_card,2022.2.4,Win32,144.3418014,615cb147f04efc8a8c2ff1e5,64ce5acb97489d65b14ecc7a,64cf4855491fef45d3990989,,,,,,,sngl,resources/DY.BMP,resources/Empty.png,WildCard_NonEx,-0.355555534,0.008333312,1,0,0,0.7403,optionLeft,45,6525,3,30,0,30,0,1,,,,,,,,,,,,,,,,,,,,,,,,,,,,,,,,,,,,,,,
,,,,,,,,2023-08-06_08h14.41.240,HF_wild_card,2022.2.4,Win32,144.3418014,615cb147f04efc8a8c2ff1e5,64ce5acb97489d65b14ecc7a,64cf4855491fef45d3990989,,,,,,,decisionTrl,resources/DP.BMP,resources/DY.BMP,WildCard_NonEx,0.314814815,0.025925919,1,0,0,1.0464,optionRight,55,6580,3,31,0,31,0,1,,,,,,,,,,,,,,,,,,,,,,,,,,,,,,,,,,,,,,,
,,,,,,,,2023-08-06_08h14.41.240,HF_wild_card,2022.2.4,Win32,144.3418014,615cb147f04efc8a8c2ff1e5,64ce5acb97489d65b14ecc7a,64cf4855491fef45d3990989,,,,,,,sngl,resources/Empty.png,resources/DG.BMP,Door1,0.339814787,-0.015740748,1,0,0,0.8863,optionRight,30,6610,3,32,0,32,0,1,,,,,,,,,,,,,,,,,,,,,,,,,,,,,,,,,,,,,,,
,,,,,,,,2023-08-06_08h14.41.240,HF_wild_card,2022.2.4,Win32,144.3418014,615cb147f04efc8a8c2ff1e5,64ce5acb97489d65b14ecc7a,64cf4855491fef45d3990989,,,,,,,decisionTrl,resources/DG.BMP,resources/DP.BMP,Door1,-0.317592586,-0.006481489,1,0,0,2.0328,optionLeft,30,6640,3,33,0,33,0,1,,,,,,,,,,,,,,,,,,,,,,,,,,,,,,,,,,,,,,,
,,,,,,,,2023-08-06_08h14.41.240,HF_wild_card,2022.2.4,Win32,144.3418014,615cb147f04efc8a8c2ff1e5,64ce5acb97489d65b14ecc7a,64cf4855491fef45d3990989,,,,,,,decisionTrl,resources/DR.BMP,resources/DBN.BMP,Door3,-0.334259245,-0.031481496,1,0,0,1.4562,optionLeft,70,6710,3,34,0,34,0,1,,,,,,,,,,,,,,,,,,,,,,,,,,,,,,,,,,,,,,,
,,,,,,,,2023-08-06_08h14.41.240,HF_wild_card,2022.2.4,Win32,144.3418014,615cb147f04efc8a8c2ff1e5,64ce5acb97489d65b14ecc7a,64cf4855491fef45d3990989,,,,,,,sngl,resources/Empty.png,resources/DR.BMP,Door3,0.3648149,-0.026851866,1,0,0,0.8594,optionRight,70,6780,3,35,0,35,0,1,,,,,,,,,,,,,,,,,,,,,,,,,,,,,,,,,,,,,,,
,,,,,,,,2023-08-06_08h14.41.240,HF_wild_card,2022.2.4,Win32,144.3418014,615cb147f04efc8a8c2ff1e5,64ce5acb97489d65b14ecc7a,64cf4855491fef45d3990989,,,,,,,decisionTrl,resources/DP.BMP,resources/DG.BMP,Door1,0.420370455,-0.0074074,1,0,0,1.8522,optionRight,30,6810,3,36,0,36,0,1,,,,,,,,,,,,,,,,,,,,,,,,,,,,,,,,,,,,,,,
,,,,,,,,2023-08-06_08h14.41.240,HF_wild_card,2022.2.4,Win32,144.3418014,615cb147f04efc8a8c2ff1e5,64ce5acb97489d65b14ecc7a,64cf4855491fef45d3990989,,,,,,,decisionTrl,resources/DBN.BMP,resources/DR.BMP,Door4,-0.351851852,0.011111118,1,0,0,1.0326,optionLeft,60,6870,3,37,0,37,0,1,,,,,,,,,,,,,,,,,,,,,,,,,,,,,,,,,,,,,,,
,,,,,,,,2023-08-06_08h14.41.240,HF_wild_card,2022.2.4,Win32,144.3418014,615cb147f04efc8a8c2ff1e5,64ce5acb97489d65b14ecc7a,64cf4855491fef45d3990989,,,,,,,decisionTrl,resources/DR.BMP,resources/DBN.BMP,Door3,-0.395370377,-0.038888896,1,0,0,1.091,optionLeft,70,6940,3,38,0,38,0,1,,,,,,,,,,,,,,,,,,,,,,,,,,,,,,,,,,,,,,,
,,,,,,,,2023-08-06_08h14.41.240,HF_wild_card,2022.2.4,Win32,144.3418014,615cb147f04efc8a8c2ff1e5,64ce5acb97489d65b14ecc7a,64cf4855491fef45d3990989,,,,,,,decisionTrl,resources/DR.BMP,resources/DBN.BMP,Door3,-0.337037016,-0.029629637,1,0,0,0.9072,optionLeft,70,7010,3,39,0,39,0,1,,,,,,,,,,,,,,,,,,,,,,,,,,,,,,,,,,,,,,,
,,,,,,,,2023-08-06_08h14.41.240,HF_wild_card,2022.2.4,Win32,144.3418014,615cb147f04efc8a8c2ff1e5,64ce5acb97489d65b14ecc7a,64cf4855491fef45d3990989,,,,,,,sngl,resources/Empty.png,resources/DY.BMP,WildCard_NonEx,0.462037122,-0.021296289,1,0,0,0.8966,optionRight,55,7065,3,40,0,40,0,1,,,,,,,,,,,,,,,,,,,,,,,,,,,,,,,,,,,,,,,
,,,,,,,,2023-08-06_08h14.41.240,HF_wild_card,2022.2.4,Win32,144.3418014,615cb147f04efc8a8c2ff1e5,64ce5acb97489d65b14ecc7a,64cf4855491fef45d3990989,,,,,,,decisionTrl,resources/DG.BMP,resources/DP.BMP,Door1,-0.363888882,-0.028703725,1,0,0,1.1936,optionLeft,30,7095,3,41,0,41,0,1,,,,,,,,,,,,,,,,,,,,,,,,,,,,,,,,,,,,,,,
,,,,,,,,2023-08-06_08h14.41.240,HF_wild_card,2022.2.4,Win32,144.3418014,615cb147f04efc8a8c2ff1e5,64ce5acb97489d65b14ecc7a,64cf4855491fef45d3990989,,,,,,,decisionTrl,resources/DG.BMP,resources/DP.BMP,Door1,-0.324074074,-0.069444444,1,0,0,0.6532,optionLeft,30,7125,3,42,0,42,0,1,,,,,,,,,,,,,,,,,,,,,,,,,,,,,,,,,,,,,,,
,,,,,,,,2023-08-06_08h14.41.240,HF_wild_card,2022.2.4,Win32,144.3418014,615cb147f04efc8a8c2ff1e5,64ce5acb97489d65b14ecc7a,64cf4855491fef45d3990989,,,,,,,decisionTrl,resources/DBN.BMP,resources/DR.BMP,Door4,-0.336111104,-0.019444466,1,0,0,1.0672,optionLeft,60,7185,3,43,0,43,0,1,,,,,,,,,,,,,,,,,,,,,,,,,,,,,,,,,,,,,,,
,,,,,,,,2023-08-06_08h14.41.240,HF_wild_card,2022.2.4,Win32,144.3418014,615cb147f04efc8a8c2ff1e5,64ce5acb97489d65b14ecc7a,64cf4855491fef45d3990989,,,,,,,,,,,,,,,,,,,,,,,,,,2,0,2,0,1,,,,,,,,,,,,,,,,,,,,,,,,,,,,,,,,,,
,,,,,,,,2023-08-06_08h14.41.240,HF_wild_card,2022.2.4,Win32,144.3418014,615cb147f04efc8a8c2ff1e5,64ce5acb97489d65b14ecc7a,64cf4855491fef45d3990989,,,,,,,sngl,resources/Empty.png,resources/DB.BMP,WildCard_Ex,0.386111083,-0.043518526,1,0,0,1.8222,optionRight,95,7280,4,0,0,0,0,1,,,,,,,,,,,,,,,,,,,,,,,,,,,,,,,,,,,,,,,
,,,,,,,,2023-08-06_08h14.41.240,HF_wild_card,2022.2.4,Win32,144.3418014,615cb147f04efc8a8c2ff1e5,64ce5acb97489d65b14ecc7a,64cf4855491fef45d3990989,,,,,,,decisionTrl,resources/DP.BMP,resources/DG.BMP,Door1,0.354629658,-0.01203703,1,0,0,2.2061,optionRight,30,7310,4,1,0,1,0,1,,,,,,,,,,,,,,,,,,,,,,,,,,,,,,,,,,,,,,,
,,,,,,,,2023-08-06_08h14.41.240,HF_wild_card,2022.2.4,Win32,144.3418014,615cb147f04efc8a8c2ff1e5,64ce5acb97489d65b14ecc7a,64cf4855491fef45d3990989,,,,,,,decisionTrl,resources/DBN.BMP,resources/DR.BMP,Door3,0.392592677,0.02870369,1,0,0,1.6019,optionRight,70,7380,4,2,0,2,0,1,,,,,,,,,,,,,,,,,,,,,,,,,,,,,,,,,,,,,,,
,,,,,,,,2023-08-06_08h14.41.240,HF_wild_card,2022.2.4,Win32,144.3418014,615cb147f04efc8a8c2ff1e5,64ce5acb97489d65b14ecc7a,64cf4855491fef45d3990989,,,,,,,decisionTrl,resources/DBN.BMP,resources/DB.BMP,WildCard_Ex,0.3648149,-0.100000028,1,0,0,3.5329,optionRight,5,7385,4,3,0,3,0,1,,,,,,,,,,,,,,,,,,,,,,,,,,,,,,,,,,,,,,,
,,,,,,,,2023-08-06_08h14.41.240,HF_wild_card,2022.2.4,Win32,144.3418014,615cb147f04efc8a8c2ff1e5,64ce5acb97489d65b14ecc7a,64cf4855491fef45d3990989,,,,,,,decisionTrl,resources/DR.BMP,resources/DBN.BMP,Door4,0.344444416,0.023148148,1,0,0,1.3587,optionRight,80,7465,4,4,0,4,0,1,,,,,,,,,,,,,,,,,,,,,,,,,,,,,,,,,,,,,,,
,,,,,,,,2023-08-06_08h14.41.240,HF_wild_card,2022.2.4,Win32,144.3418014,615cb147f04efc8a8c2ff1e5,64ce5acb97489d65b14ecc7a,64cf4855491fef45d3990989,,,,,,,decisionTrl,resources/DP.BMP,resources/DG.BMP,Door1,0.410185213,0.065740727,1,0,0,1.2883,optionRight,30,7495,4,5,0,5,0,1,,,,,,,,,,,,,,,,,,,,,,,,,,,,,,,,,,,,,,,
,,,,,,,,2023-08-06_08h14.41.240,HF_wild_card,2022.2.4,Win32,144.3418014,615cb147f04efc8a8c2ff1e5,64ce5acb97489d65b14ecc7a,64cf4855491fef45d3990989,,,,,,,ctch,resources/DR.BMP,resources/DP.BMP,Door3,-0.292592578,-0.022222236,1,0,0,1.2402,optionLeft,70,7565,4,6,0,6,0,1,,,,,,,,,,,,,,,,,,,,,,,,,,,,,,,,,,,,,,,
,,,,,,,,2023-08-06_08h14.41.240,HF_wild_card,2022.2.4,Win32,144.3418014,615cb147f04efc8a8c2ff1e5,64ce5acb97489d65b14ecc7a,64cf4855491fef45d3990989,,,,,,,decisionTrl,resources/DP.BMP,resources/DG.BMP,Door1,0.450925898,-0.018518519,1,0,0,1.1234,optionRight,30,7595,4,7,0,7,0,1,,,,,,,,,,,,,,,,,,,,,,,,,,,,,,,,,,,,,,,
,,,,,,,,2023-08-06_08h14.41.240,HF_wild_card,2022.2.4,Win32,144.3418014,615cb147f04efc8a8c2ff1e5,64ce5acb97489d65b14ecc7a,64cf4855491fef45d3990989,,,,,,,decisionTrl,resources/DR.BMP,resources/DBN.BMP,Door4,0.390740712,0.023148148,1,0,0,2.2824,optionRight,80,7675,4,8,0,8,0,1,,,,,,,,,,,,,,,,,,,,,,,,,,,,,,,,,,,,,,,
,,,,,,,,2023-08-06_08h14.41.240,HF_wild_card,2022.2.4,Win32,144.3418014,615cb147f04efc8a8c2ff1e5,64ce5acb97489d65b14ecc7a,64cf4855491fef45d3990989,,,,,,,ctch,resources/DG.BMP,resources/DBN.BMP,Door4,0.406481566,0.043518526,1,0,0,0.7479,optionRight,80,7755,4,9,0,9,0,1,,,,,,,,,,,,,,,,,,,,,,,,,,,,,,,,,,,,,,,
,,,,,,,,2023-08-06_08h14.41.240,HF_wild_card,2022.2.4,Win32,144.3418014,615cb147f04efc8a8c2ff1e5,64ce5acb97489d65b14ecc7a,64cf4855491fef45d3990989,,,,,,,decisionTrl,resources/DR.BMP,resources/DBN.BMP,Door4,0.432407379,0.063888868,1,0,0,0.9838,optionRight,60,7815,4,10,0,10,0,1,,,,,,,,,,,,,,,,,,,,,,,,,,,,,,,,,,,,,,,
,,,,,,,,2023-08-06_08h14.41.240,HF_wild_card,2022.2.4,Win32,144.3418014,615cb147f04efc8a8c2ff1e5,64ce5acb97489d65b14ecc7a,64cf4855491fef45d3990989,,,,,,,decisionTrl,resources/DB.BMP,resources/DP.BMP,WildCard_Ex,-0.263888889,0.043518526,1,0,0,2.4488,optionLeft,95,7910,4,11,0,11,0,1,,,,,,,,,,,,,,,,,,,,,,,,,,,,,,,,,,,,,,,
,,,,,,,,2023-08-06_08h14.41.240,HF_wild_card,2022.2.4,Win32,144.3418014,615cb147f04efc8a8c2ff1e5,64ce5acb97489d65b14ecc7a,64cf4855491fef45d3990989,,,,,,,decisionTrl,resources/DG.BMP,resources/DP.BMP,Door1,-0.317592586,0.04074072,1,0,0,1.4763,optionLeft,30,7940,4,12,0,12,0,1,,,,,,,,,,,,,,,,,,,,,,,,,,,,,,,,,,,,,,,
,,,,,,,,2023-08-06_08h14.41.240,HF_wild_card,2022.2.4,Win32,144.3418014,615cb147f04efc8a8c2ff1e5,64ce5acb97489d65b14ecc7a,64cf4855491fef45d3990989,,,,,,,sngl,resources/DBN.BMP,resources/Empty.png,Door4,-0.364814794,0.037962949,1,0,0,0.7611,optionLeft,60,8000,4,13,0,13,0,1,,,,,,,,,,,,,,,,,,,,,,,,,,,,,,,,,,,,,,,
,,,,,,,,2023-08-06_08h14.41.240,HF_wild_card,2022.2.4,Win32,144.3418014,615cb147f04efc8a8c2ff1e5,64ce5acb97489d65b14ecc7a,64cf4855491fef45d3990989,,,,,,,ctch,resources/DBN.BMP,resources/DG.BMP,Door4,-0.315740727,0.025000007,1,0,0,1.2261,optionLeft,80,8080,4,14,0,14,0,1,,,,,,,,,,,,,,,,,,,,,,,,,,,,,,,,,,,,,,,
,,,,,,,,2023-08-06_08h14.41.240,HF_wild_card,2022.2.4,Win32,144.3418014,615cb147f04efc8a8c2ff1e5,64ce5acb97489d65b14ecc7a,64cf4855491fef45d3990989,,,,,,,ctch,resources/DP.BMP,resources/DR.BMP,Door3,0.522222307,0.059259238,1,0,0,1.546,optionRight,70,8150,4,15,0,15,0,1,,,,,,,,,,,,,,,,,,,,,,,,,,,,,,,,,,,,,,,
,,,,,,,,2023-08-06_08h14.41.240,HF_wild_card,2022.2.4,Win32,144.3418014,615cb147f04efc8a8c2ff1e5,64ce5acb97489d65b14ecc7a,64cf4855491fef45d3990989,,,,,,,decisionTrl,resources/DBN.BMP,resources/DR.BMP,Door4,-0.460185192,0.044444437,1,0,0,1.1503,optionLeft,60,8210,4,16,0,16,0,1,,,,,,,,,,,,,,,,,,,,,,,,,,,,,,,,,,,,,,,
,,,,,,,,2023-08-06_08h14.41.240,HF_wild_card,2022.2.4,Win32,144.3418014,615cb147f04efc8a8c2ff1e5,64ce5acb97489d65b14ecc7a,64cf4855491fef45d3990989,,,,,,,sngl,resources/DB.BMP,resources/Empty.png,WildCard_Ex,-0.334259245,-0.0074074,1,0,0,0.865,optionLeft,5,8215,4,17,0,17,0,1,,,,,,,,,,,,,,,,,,,,,,,,,,,,,,,,,,,,,,,
,,,,,,,,2023-08-06_08h14.41.240,HF_wild_card,2022.2.4,Win32,144.3418014,615cb147f04efc8a8c2ff1e5,64ce5acb97489d65b14ecc7a,64cf4855491fef45d3990989,,,,,,,decisionTrl,resources/DB.BMP,resources/DG.BMP,WildCard_Ex,-0.274999972,0.006481489,1,0,0,2.0185,optionLeft,95,8310,4,18,0,18,0,1,,,,,,,,,,,,,,,,,,,,,,,,,,,,,,,,,,,,,,,
,,,,,,,,2023-08-06_08h14.41.240,HF_wild_card,2022.2.4,Win32,144.3418014,615cb147f04efc8a8c2ff1e5,64ce5acb97489d65b14ecc7a,64cf4855491fef45d3990989,,,,,,,decisionTrl,resources/DBN.BMP,resources/DR.BMP,Door4,-0.449074074,0.02870369,1,0,0,1.5187,optionLeft,80,8390,4,19,0,19,0,1,,,,,,,,,,,,,,,,,,,,,,,,,,,,,,,,,,,,,,,
,,,,,,,,2023-08-06_08h14.41.240,HF_wild_card,2022.2.4,Win32,144.3418014,615cb147f04efc8a8c2ff1e5,64ce5acb97489d65b14ecc7a,64cf4855491fef45d3990989,,,,,,,decisionTrl,resources/DG.BMP,resources/DP.BMP,Door1,-0.357407393,0.006481489,1,0,0,1.5738,optionLeft,30,8420,4,20,0,20,0,1,,,,,,,,,,,,,,,,,,,,,,,,,,,,,,,,,,,,,,,
,,,,,,,,2023-08-06_08h14.41.240,HF_wild_card,2022.2.4,Win32,144.3418014,615cb147f04efc8a8c2ff1e5,64ce5acb97489d65b14ecc7a,64cf4855491fef45d3990989,,,,,,,decisionTrl,resources/DR.BMP,resources/DBN.BMP,Door4,0.37962963,0.094444452,1,0,0,1.2681,optionRight,60,8480,4,21,0,21,0,1,,,,,,,,,,,,,,,,,,,,,,,,,,,,,,,,,,,,,,,
,,,,,,,,2023-08-06_08h14.41.240,HF_wild_card,2022.2.4,Win32,144.3418014,615cb147f04efc8a8c2ff1e5,64ce5acb97489d65b14ecc7a,64cf4855491fef45d3990989,,,,,,,sngl,resources/Empty.png,resources/DP.BMP,Door2,0.249074088,-0.00462963,1,0,0,1.1287,optionRight,40,8520,4,22,0,22,0,1,,,,,,,,,,,,,,,,,,,,,,,,,,,,,,,,,,,,,,,
,,,,,,,,2023-08-06_08h14.41.240,HF_wild_card,2022.2.4,Win32,144.3418014,615cb147f04efc8a8c2ff1e5,64ce5acb97489d65b14ecc7a,64cf4855491fef45d3990989,,,,,,,sngl,resources/Empty.png,resources/DG.BMP,Door1,0.296296296,0.002777771,1,0,0,1.2323,optionRight,30,8550,4,23,0,23,0,1,,,,,,,,,,,,,,,,,,,,,,,,,,,,,,,,,,,,,,,
,,,,,,,,2023-08-06_08h14.41.240,HF_wild_card,2022.2.4,Win32,144.3418014,615cb147f04efc8a8c2ff1e5,64ce5acb97489d65b14ecc7a,64cf4855491fef45d3990989,,,,,,,sngl,resources/DR.BMP,resources/Empty.png,Door3,-0.365740741,-0.000925947,1,0,0,0.935,optionLeft,70,8620,4,24,0,24,0,1,,,,,,,,,,,,,,,,,,,,,,,,,,,,,,,,,,,,,,,
,,,,,,,,2023-08-06_08h14.41.240,HF_wild_card,2022.2.4,Win32,144.3418014,615cb147f04efc8a8c2ff1e5,64ce5acb97489d65b14ecc7a,64cf4855491fef45d3990989,,,,,,,ctch,resources/DR.BMP,resources/DP.BMP,Door3,-0.330555563,-0.028703725,1,0,0,0.7891,optionLeft,70,8690,4,25,0,25,0,1,,,,,,,,,,,,,,,,,,,,,,,,,,,,,,,,,,,,,,,
,,,,,,,,2023-08-06_08h14.41.240,HF_wild_card,2022.2.4,Win32,144.3418014,615cb147f04efc8a8c2ff1e5,64ce5acb97489d65b14ecc7a,64cf4855491fef45d3990989,,,,,,,decisionTrl,resources/DP.BMP,resources/DB.BMP,WildCard_Ex,0.248148176,-0.000925947,1,0,0,2.2046,optionRight,5,8695,4,26,0,26,0,1,,,,,,,,,,,,,,,,,,,,,,,,,,,,,,,,,,,,,,,
,,,,,,,,2023-08-06_08h14.41.240,HF_wild_card,2022.2.4,Win32,144.3418014,615cb147f04efc8a8c2ff1e5,64ce5acb97489d65b14ecc7a,64cf4855491fef45d3990989,,,,,,,sngl,resources/Empty.png,resources/DR.BMP,Door3,0.304629714,-0.008333347,1,0,0,0.8799,optionRight,70,8765,4,27,0,27,0,1,,,,,,,,,,,,,,,,,,,,,,,,,,,,,,,,,,,,,,,
,,,,,,,,2023-08-06_08h14.41.240,HF_wild_card,2022.2.4,Win32,144.3418014,615cb147f04efc8a8c2ff1e5,64ce5acb97489d65b14ecc7a,64cf4855491fef45d3990989,,,,,,,decisionTrl,resources/DP.BMP,resources/DG.BMP,Door1,0.309259344,0.02870369,1,0,0,1.4842,optionRight,30,8795,4,28,0,28,0,1,,,,,,,,,,,,,,,,,,,,,,,,,,,,,,,,,,,,,,,
,,,,,,,,2023-08-06_08h14.41.240,HF_wild_card,2022.2.4,Win32,144.3418014,615cb147f04efc8a8c2ff1e5,64ce5acb97489d65b14ecc7a,64cf4855491fef45d3990989,,,,,,,sngl,resources/Empty.png,resources/DBN.BMP,Door4,0.294444473,0.005555541,1,0,0,0.7746,optionRight,80,8875,4,29,0,29,0,1,,,,,,,,,,,,,,,,,,,,,,,,,,,,,,,,,,,,,,,
,,,,,,,,2023-08-06_08h14.41.240,HF_wild_card,2022.2.4,Win32,144.3418014,615cb147f04efc8a8c2ff1e5,64ce5acb97489d65b14ecc7a,64cf4855491fef45d3990989,,,,,,,sngl,resources/DB.BMP,resources/Empty.png,WildCard_Ex,-0.444444444,-0.062037044,1,0,0,0.8717,optionLeft,95,8970,4,30,0,30,0,1,,,,,,,,,,,,,,,,,,,,,,,,,,,,,,,,,,,,,,,
,,,,,,,,2023-08-06_08h14.41.240,HF_wild_card,2022.2.4,Win32,144.3418014,615cb147f04efc8a8c2ff1e5,64ce5acb97489d65b14ecc7a,64cf4855491fef45d3990989,,,,,,,decisionTrl,resources/DG.BMP,resources/DB.BMP,Door1,-0.282407407,-0.001851859,1,0,0,2.1496,optionLeft,30,9000,4,31,0,31,0,1,,,,,,,,,,,,,,,,,,,,,,,,,,,,,,,,,,,,,,,
,,,,,,,,2023-08-06_08h14.41.240,HF_wild_card,2022.2.4,Win32,144.3418014,615cb147f04efc8a8c2ff1e5,64ce5acb97489d65b14ecc7a,64cf4855491fef45d3990989,,,,,,,decisionTrl,resources/DG.BMP,resources/DP.BMP,Door1,-0.335185192,0.014814801,1,0,0,2.2479,optionLeft,30,9030,4,32,0,32,0,1,,,,,,,,,,,,,,,,,,,,,,,,,,,,,,,,,,,,,,,
,,,,,,,,2023-08-06_08h14.41.240,HF_wild_card,2022.2.4,Win32,144.3418014,615cb147f04efc8a8c2ff1e5,64ce5acb97489d65b14ecc7a,64cf4855491fef45d3990989,,,,,,,sngl,resources/DP.BMP,resources/Empty.png,Door2,-0.247222194,0.023148148,1,0,0,0.7114,optionLeft,20,9050,4,33,0,33,0,1,,,,,,,,,,,,,,,,,,,,,,,,,,,,,,,,,,,,,,,
,,,,,,,,2023-08-06_08h14.41.240,HF_wild_card,2022.2.4,Win32,144.3418014,615cb147f04efc8a8c2ff1e5,64ce5acb97489d65b14ecc7a,64cf4855491fef45d3990989,,,,,,,decisionTrl,resources/DG.BMP,resources/DP.BMP,Door1,-0.310185185,-0.050925926,1,0,0,0.844,optionLeft,30,9080,4,34,0,34,0,1,,,,,,,,,,,,,,,,,,,,,,,,,,,,,,,,,,,,,,,
,,,,,,,,2023-08-06_08h14.41.240,HF_wild_card,2022.2.4,Win32,144.3418014,615cb147f04efc8a8c2ff1e5,64ce5acb97489d65b14ecc7a,64cf4855491fef45d3990989,,,,,,,decisionTrl,resources/DR.BMP,resources/DB.BMP,WildCard_Ex,0.349074046,-0.001851859,1,0,0,1.8512,optionRight,5,9085,4,35,0,35,0,1,,,,,,,,,,,,,,,,,,,,,,,,,,,,,,,,,,,,,,,
,,,,,,,,2023-08-06_08h14.41.240,HF_wild_card,2022.2.4,Win32,144.3418014,615cb147f04efc8a8c2ff1e5,64ce5acb97489d65b14ecc7a,64cf4855491fef45d3990989,,,,,,,decisionTrl,resources/DB.BMP,resources/DBN.BMP,Door4,0.319444444,-0.028703725,1,0,0,1.2963,optionRight,80,9165,4,36,0,36,0,1,,,,,,,,,,,,,,,,,,,,,,,,,,,,,,,,,,,,,,,
,,,,,,,,2023-08-06_08h14.41.240,HF_wild_card,2022.2.4,Win32,144.3418014,615cb147f04efc8a8c2ff1e5,64ce5acb97489d65b14ecc7a,64cf4855491fef45d3990989,,,,,,,sngl,resources/DG.BMP,resources/Empty.png,Door1,-0.263888889,-0.0074074,1,0,0,0.7053,optionLeft,30,9195,4,37,0,37,0,1,,,,,,,,,,,,,,,,,,,,,,,,,,,,,,,,,,,,,,,
,,,,,,,,2023-08-06_08h14.41.240,HF_wild_card,2022.2.4,Win32,144.3418014,615cb147f04efc8a8c2ff1e5,64ce5acb97489d65b14ecc7a,64cf4855491fef45d3990989,,,,,,,ctch,resources/DP.BMP,resources/DR.BMP,Door3,0.328703704,0.012962942,1,0,0,1.2818,optionRight,70,9265,4,38,0,38,0,1,,,,,,,,,,,,,,,,,,,,,,,,,,,,,,,,,,,,,,,
,,,,,,,,2023-08-06_08h14.41.240,HF_wild_card,2022.2.4,Win32,144.3418014,615cb147f04efc8a8c2ff1e5,64ce5acb97489d65b14ecc7a,64cf4855491fef45d3990989,,,,,,,decisionTrl,resources/DB.BMP,resources/DR.BMP,Door3,0.272222236,0.061111097,1,0,0,2.2485,optionRight,70,9335,4,39,0,39,0,1,,,,,,,,,,,,,,,,,,,,,,,,,,,,,,,,,,,,,,,
,,,,,,,,2023-08-06_08h14.41.240,HF_wild_card,2022.2.4,Win32,144.3418014,615cb147f04efc8a8c2ff1e5,64ce5acb97489d65b14ecc7a,64cf4855491fef45d3990989,,,,,,,decisionTrl,resources/DBN.BMP,resources/DR.BMP,Door4,-0.337962963,0.017592571,1,0,0,1.122,optionLeft,80,9415,4,40,0,40,0,1,,,,,,,,,,,,,,,,,,,,,,,,,,,,,,,,,,,,,,,
,,,,,,,,2023-08-06_08h14.41.240,HF_wild_card,2022.2.4,Win32,144.3418014,615cb147f04efc8a8c2ff1e5,64ce5acb97489d65b14ecc7a,64cf4855491fef45d3990989,,,,,,,ctch,resources/DBN.BMP,resources/DG.BMP,Door4,-0.25462963,-0.002777771,1,0,0,1.2409,optionLeft,80,9495,4,41,0,41,0,1,,,,,,,,,,,,,,,,,,,,,,,,,,,,,,,,,,,,,,,
,,,,,,,,2023-08-06_08h14.41.240,HF_wild_card,2022.2.4,Win32,144.3418014,615cb147f04efc8a8c2ff1e5,64ce5acb97489d65b14ecc7a,64cf4855491fef45d3990989,,,,,,,ctch,resources/DG.BMP,resources/DBN.BMP,Door4,0.352777834,0.052777785,1,0,0,0.7615,optionRight,60,9555,4,42,0,42,0,1,,,,,,,,,,,,,,,,,,,,,,,,,,,,,,,,,,,,,,,
,,,,,,,,2023-08-06_08h14.41.240,HF_wild_card,2022.2.4,Win32,144.3418014,615cb147f04efc8a8c2ff1e5,64ce5acb97489d65b14ecc7a,64cf4855491fef45d3990989,,,,,,,sngl,resources/Empty.png,resources/DB.BMP,WildCard_Ex,0.387037065,-0.017592607,1,0,0,0.9488,optionRight,5,9560,4,43,0,43,0,1,,,,,,,,,,,,,,,,,,,,,,,,,,,,,,,,,,,,,,,
,,,,,,,,2023-08-06_08h14.41.240,HF_wild_card,2022.2.4,Win32,144.3418014,615cb147f04efc8a8c2ff1e5,64ce5acb97489d65b14ecc7a,64cf4855491fef45d3990989,,,,,,,,,,,,,,,,,,,,,,,,,,3,0,3,0,1,,,,,,,,,,,,,,,,,,,,,,,,,,,,,,,,,,
,,,,,,,,2023-08-06_08h14.41.240,HF_wild_card,2022.2.4,Win32,144.3418014,615cb147f04efc8a8c2ff1e5,64ce5acb97489d65b14ecc7a,64cf4855491fef45d3990989,,,,,,,sngl,resources/Empty.png,resources/DP.BMP,Door2,0.395370342,-0.015740748,1,0,0,1.2043,optionRight,20,9580,5,0,0,0,0,1,,,,,,,,,,,,,,,,,,,,,,,,,,,,,,,,,,,,,,,
,,,,,,,,2023-08-06_08h14.41.240,HF_wild_card,2022.2.4,Win32,144.3418014,615cb147f04efc8a8c2ff1e5,64ce5acb97489d65b14ecc7a,64cf4855491fef45d3990989,,,,,,,decisionTrl,resources/DB.BMP,resources/DG.BMP,Door1,0.347222222,0.027777778,1,0,0,1.4137,optionRight,30,9610,5,1,0,1,0,1,,,,,,,,,,,,,,,,,,,,,,,,,,,,,,,,,,,,,,,
,,,,,,,,2023-08-06_08h14.41.240,HF_wild_card,2022.2.4,Win32,144.3418014,615cb147f04efc8a8c2ff1e5,64ce5acb97489d65b14ecc7a,64cf4855491fef45d3990989,,,,,,,sngl,resources/DB.BMP,resources/Empty.png,WildCard_Ex,-0.237962935,-0.017592607,1,0,0,0.748,optionLeft,5,9615,5,2,0,2,0,1,,,,,,,,,,,,,,,,,,,,,,,,,,,,,,,,,,,,,,,
,,,,,,,,2023-08-06_08h14.41.240,HF_wild_card,2022.2.4,Win32,144.3418014,615cb147f04efc8a8c2ff1e5,64ce5acb97489d65b14ecc7a,64cf4855491fef45d3990989,,,,,,,decisionTrl,resources/DB.BMP,resources/DP.BMP,WildCard_Ex,-0.434259238,-0.027777778,1,0,0,2.9973,optionLeft,95,9710,5,3,0,3,0,1,,,,,,,,,,,,,,,,,,,,,,,,,,,,,,,,,,,,,,,
,,,,,,,,2023-08-06_08h14.41.240,HF_wild_card,2022.2.4,Win32,144.3418014,615cb147f04efc8a8c2ff1e5,64ce5acb97489d65b14ecc7a,64cf4855491fef45d3990989,,,,,,,decisionTrl,resources/DG.BMP,resources/DP.BMP,Door1,-0.348148134,-0.0074074,1,0,0,1.9001,optionLeft,30,9740,5,4,0,4,0,1,,,,,,,,,,,,,,,,,,,,,,,,,,,,,,,,,,,,,,,
,,,,,,,,2023-08-06_08h14.41.240,HF_wild_card,2022.2.4,Win32,144.3418014,615cb147f04efc8a8c2ff1e5,64ce5acb97489d65b14ecc7a,64cf4855491fef45d3990989,,,,,,,sngl,resources/DG.BMP,resources/Empty.png,Door1,-0.341666645,-0.013888889,1,0,0,0.7891,optionLeft,30,9770,5,5,0,5,0,1,,,,,,,,,,,,,,,,,,,,,,,,,,,,,,,,,,,,,,,
,,,,,,,,2023-08-06_08h14.41.240,HF_wild_card,2022.2.4,Win32,144.3418014,615cb147f04efc8a8c2ff1e5,64ce5acb97489d65b14ecc7a,64cf4855491fef45d3990989,,,,,,,decisionTrl,resources/DG.BMP,resources/DP.BMP,Door1,-0.347222222,-0.015740748,1,0,0,1.0321,optionLeft,30,9800,5,6,0,6,0,1,,,,,,,,,,,,,,,,,,,,,,,,,,,,,,,,,,,,,,,
,,,,,,,,2023-08-06_08h14.41.240,HF_wild_card,2022.2.4,Win32,144.3418014,615cb147f04efc8a8c2ff1e5,64ce5acb97489d65b14ecc7a,64cf4855491fef45d3990989,,,,,,,ctch,resources/DBN.BMP,resources/DG.BMP,Door4,-0.466666645,0.001851859,1,0,0,0.7823,optionLeft,60,9860,5,7,0,7,0,1,,,,,,,,,,,,,,,,,,,,,,,,,,,,,,,,,,,,,,,
,,,,,,,,2023-08-06_08h14.41.240,HF_wild_card,2022.2.4,Win32,144.3418014,615cb147f04efc8a8c2ff1e5,64ce5acb97489d65b14ecc7a,64cf4855491fef45d3990989,,,,,,,decisionTrl,resources/DB.BMP,resources/DBN.BMP,Door4,0.390740712,-0.005555577,1,0,0,1.3449,optionRight,60,9920,5,8,0,8,0,1,,,,,,,,,,,,,,,,,,,,,,,,,,,,,,,,,,,,,,,
,,,,,,,,2023-08-06_08h14.41.240,HF_wild_card,2022.2.4,Win32,144.3418014,615cb147f04efc8a8c2ff1e5,64ce5acb97489d65b14ecc7a,64cf4855491fef45d3990989,,,,,,,ctch,resources/DBN.BMP,resources/DG.BMP,Door4,-0.383333312,-0.033333355,1,0,0,0.6907,optionLeft,80,10000,5,9,0,9,0,1,,,,,,,,,,,,,,,,,,,,,,,,,,,,,,,,,,,,,,,
,,,,,,,,2023-08-06_08h14.41.240,HF_wild_card,2022.2.4,Win32,144.3418014,615cb147f04efc8a8c2ff1e5,64ce5acb97489d65b14ecc7a,64cf4855491fef45d3990989,,,,,,,decisionTrl,resources/DP.BMP,resources/DG.BMP,Door1,0.32685188,-0.003703718,1,0,0,1.1013,optionRight,30,10030,5,10,0,10,0,1,,,,,,,,,,,,,,,,,,,,,,,,,,,,,,,,,,,,,,,
,,,,,,,,2023-08-06_08h14.41.240,HF_wild_card,2022.2.4,Win32,144.3418014,615cb147f04efc8a8c2ff1e5,64ce5acb97489d65b14ecc7a,64cf4855491fef45d3990989,,,,,,,decisionTrl,resources/DR.BMP,resources/DB.BMP,Door3,-0.317592586,-0.038888896,1,0,0,1.4345,optionLeft,70,10100,5,11,0,11,0,1,,,,,,,,,,,,,,,,,,,,,,,,,,,,,,,,,,,,,,,
,,,,,,,,2023-08-06_08h14.41.240,HF_wild_card,2022.2.4,Win32,144.3418014,615cb147f04efc8a8c2ff1e5,64ce5acb97489d65b14ecc7a,64cf4855491fef45d3990989,,,,,,,decisionTrl,resources/DP.BMP,resources/DG.BMP,Door1,0.321296268,0.011111118,1,0,0,0.9907,optionRight,30,10130,5,12,0,12,0,1,,,,,,,,,,,,,,,,,,,,,,,,,,,,,,,,,,,,,,,
,,,,,,,,2023-08-06_08h14.41.240,HF_wild_card,2022.2.4,Win32,144.3418014,615cb147f04efc8a8c2ff1e5,64ce5acb97489d65b14ecc7a,64cf4855491fef45d3990989,,,,,,,decisionTrl,resources/DBN.BMP,resources/DR.BMP,Door4,-0.413888896,-0.012962977,1,0,0,0.8239,optionLeft,80,10210,5,13,0,13,0,1,,,,,,,,,,,,,,,,,,,,,,,,,,,,,,,,,,,,,,,
,,,,,,,,2023-08-06_08h14.41.240,HF_wild_card,2022.2.4,Win32,144.3418014,615cb147f04efc8a8c2ff1e5,64ce5acb97489d65b14ecc7a,64cf4855491fef45d3990989,,,,,,,ctch,resources/DG.BMP,resources/DBN.BMP,Door4,0.296296296,0.03148146,1,0,0,0.8168,optionRight,80,10290,5,14,0,14,0,1,,,,,,,,,,,,,,,,,,,,,,,,,,,,,,,,,,,,,,,
,,,,,,,,2023-08-06_08h14.41.240,HF_wild_card,2022.2.4,Win32,144.3418014,615cb147f04efc8a8c2ff1e5,64ce5acb97489d65b14ecc7a,64cf4855491fef45d3990989,,,,,,,decisionTrl,resources/DR.BMP,resources/DBN.BMP,Door4,0.313888974,-0.010185206,1,0,0,1.1711,optionRight,80,10370,5,15,0,15,0,1,,,,,,,,,,,,,,,,,,,,,,,,,,,,,,,,,,,,,,,
,,,,,,,,2023-08-06_08h14.41.240,HF_wild_card,2022.2.4,Win32,144.3418014,615cb147f04efc8a8c2ff1e5,64ce5acb97489d65b14ecc7a,64cf4855491fef45d3990989,,,,,,,sngl,resources/Empty.png,resources/DBN.BMP,Door4,0.375,0.01203703,1,0,0,0.796,optionRight,60,10430,5,16,0,16,0,1,,,,,,,,,,,,,,,,,,,,,,,,,,,,,,,,,,,,,,,
,,,,,,,,2023-08-06_08h14.41.240,HF_wild_card,2022.2.4,Win32,144.3418014,615cb147f04efc8a8c2ff1e5,64ce5acb97489d65b14ecc7a,64cf4855491fef45d3990989,,,,,,,decisionTrl,resources/DBN.BMP,resources/DR.BMP,Door4,-0.40648146,-0.017592607,1,0,0,0.8526,optionLeft,80,10510,5,17,0,17,0,1,,,,,,,,,,,,,,,,,,,,,,,,,,,,,,,,,,,,,,,
,,,,,,,,2023-08-06_08h14.41.240,HF_wild_card,2022.2.4,Win32,144.3418014,615cb147f04efc8a8c2ff1e5,64ce5acb97489d65b14ecc7a,64cf4855491fef45d3990989,,,,,,,decisionTrl,resources/DP.BMP,resources/DB.BMP,WildCard_Ex,0.464814787,-0.065740762,1,0,0,2.3516,optionRight,5,10515,5,18,0,18,0,1,,,,,,,,,,,,,,,,,,,,,,,,,,,,,,,,,,,,,,,
,,,,,,,,2023-08-06_08h14.41.240,HF_wild_card,2022.2.4,Win32,144.3418014,615cb147f04efc8a8c2ff1e5,64ce5acb97489d65b14ecc7a,64cf4855491fef45d3990989,,,,,,,sngl,resources/DR.BMP,resources/Empty.png,Door3,-0.397222201,-0.032407407,1,0,0,0.629,optionLeft,70,10585,5,19,0,19,0,1,,,,,,,,,,,,,,,,,,,,,,,,,,,,,,,,,,,,,,,
,,,,,,,,2023-08-06_08h14.41.240,HF_wild_card,2022.2.4,Win32,144.3418014,615cb147f04efc8a8c2ff1e5,64ce5acb97489d65b14ecc7a,64cf4855491fef45d3990989,,,,,,,sngl,resources/DBN.BMP,resources/Empty.png,Door4,-0.361111111,-0.034259266,1,0,0,0.5109,optionLeft,80,10665,5,20,0,20,0,1,,,,,,,,,,,,,,,,,,,,,,,,,,,,,,,,,,,,,,,
,,,,,,,,2023-08-06_08h14.41.240,HF_wild_card,2022.2.4,Win32,144.3418014,615cb147f04efc8a8c2ff1e5,64ce5acb97489d65b14ecc7a,64cf4855491fef45d3990989,,,,,,,decisionTrl,resources/DBN.BMP,resources/DR.BMP,Door4,-0.351851852,-0.003703718,1,0,0,0.9632,optionLeft,80,10745,5,21,0,21,0,1,,,,,,,,,,,,,,,,,,,,,,,,,,,,,,,,,,,,,,,
,,,,,,,,2023-08-06_08h14.41.240,HF_wild_card,2022.2.4,Win32,144.3418014,615cb147f04efc8a8c2ff1e5,64ce5acb97489d65b14ecc7a,64cf4855491fef45d3990989,,,,,,,ctch,resources/DR.BMP,resources/DP.BMP,Door3,-0.304629608,-0.013888889,1,0,0,1.3107,optionLeft,70,10815,5,22,0,22,0,1,,,,,,,,,,,,,,,,,,,,,,,,,,,,,,,,,,,,,,,
,,,,,,,,2023-08-06_08h14.41.240,HF_wild_card,2022.2.4,Win32,144.3418014,615cb147f04efc8a8c2ff1e5,64ce5acb97489d65b14ecc7a,64cf4855491fef45d3990989,,,,,,,sngl,resources/DP.BMP,resources/Empty.png,Door2,-0.419444437,-0.034259266,1,0,0,0.6288,optionLeft,40,10855,5,23,0,23,0,1,,,,,,,,,,,,,,,,,,,,,,,,,,,,,,,,,,,,,,,
,,,,,,,,2023-08-06_08h14.41.240,HF_wild_card,2022.2.4,Win32,144.3418014,615cb147f04efc8a8c2ff1e5,64ce5acb97489d65b14ecc7a,64cf4855491fef45d3990989,,,,,,,decisionTrl,resources/DBN.BMP,resources/DR.BMP,Door4,-0.317592586,0.01944443,1,0,0,0.9906,optionLeft,80,10935,5,24,0,24,0,1,,,,,,,,,,,,,,,,,,,,,,,,,,,,,,,,,,,,,,,
,,,,,,,,2023-08-06_08h14.41.240,HF_wild_card,2022.2.4,Win32,144.3418014,615cb147f04efc8a8c2ff1e5,64ce5acb97489d65b14ecc7a,64cf4855491fef45d3990989,,,,,,,sngl,resources/Empty.png,resources/DR.BMP,Door3,0.268518519,-0.01203703,1,0,0,0.8097,optionRight,70,11005,5,25,0,25,0,1,,,,,,,,,,,,,,,,,,,,,,,,,,,,,,,,,,,,,,,
,,,,,,,,2023-08-06_08h14.41.240,HF_wild_card,2022.2.4,Win32,144.3418014,615cb147f04efc8a8c2ff1e5,64ce5acb97489d65b14ecc7a,64cf4855491fef45d3990989,,,,,,,sngl,resources/Empty.png,resources/DB.BMP,WildCard_Ex,0.225000028,-0.012962977,1,0,0,0.7612,optionRight,5,11010,5,26,0,26,0,1,,,,,,,,,,,,,,,,,,,,,,,,,,,,,,,,,,,,,,,
,,,,,,,,2023-08-06_08h14.41.240,HF_wild_card,2022.2.4,Win32,144.3418014,615cb147f04efc8a8c2ff1e5,64ce5acb97489d65b14ecc7a,64cf4855491fef45d3990989,,,,,,,decisionTrl,resources/DG.BMP,resources/DP.BMP,Door1,-0.378703683,-0.023148148,1,0,0,1.4905,optionLeft,30,11040,5,27,0,27,0,1,,,,,,,,,,,,,,,,,,,,,,,,,,,,,,,,,,,,,,,
,,,,,,,,2023-08-06_08h14.41.240,HF_wild_card,2022.2.4,Win32,144.3418014,615cb147f04efc8a8c2ff1e5,64ce5acb97489d65b14ecc7a,64cf4855491fef45d3990989,,,,,,,decisionTrl,resources/DR.BMP,resources/DBN.BMP,Door4,0.316666638,0.047222208,1,0,0,1.2823,optionRight,80,11120,5,28,0,28,0,1,,,,,,,,,,,,,,,,,,,,,,,,,,,,,,,,,,,,,,,
,,,,,,,,2023-08-06_08h14.41.240,HF_wild_card,2022.2.4,Win32,144.3418014,615cb147f04efc8a8c2ff1e5,64ce5acb97489d65b14ecc7a,64cf4855491fef45d3990989,,,,,,,ctch,resources/DP.BMP,resources/DR.BMP,Door3,0.41851849,0.025000007,1,0,0,1.7961,optionRight,70,11190,5,29,0,29,0,1,,,,,,,,,,,,,,,,,,,,,,,,,,,,,,,,,,,,,,,
,,,,,,,,2023-08-06_08h14.41.240,HF_wild_card,2022.2.4,Win32,144.3418014,615cb147f04efc8a8c2ff1e5,64ce5acb97489d65b14ecc7a,64cf4855491fef45d3990989,,,,,,,sngl,resources/DB.BMP,resources/Empty.png,WildCard_Ex,-0.349999993,-0.015740748,1,0,0,0.6706,optionLeft,95,11285,5,30,0,30,0,1,,,,,,,,,,,,,,,,,,,,,,,,,,,,,,,,,,,,,,,
,,,,,,,,2023-08-06_08h14.41.240,HF_wild_card,2022.2.4,Win32,144.3418014,615cb147f04efc8a8c2ff1e5,64ce5acb97489d65b14ecc7a,64cf4855491fef45d3990989,,,,,,,sngl,resources/Empty.png,resources/DB.BMP,WildCard_Ex,0.327777863,0,1,0,0,0.6498,optionRight,95,11380,5,31,0,31,0,1,,,,,,,,,,,,,,,,,,,,,,,,,,,,,,,,,,,,,,,
,,,,,,,,2023-08-06_08h14.41.240,HF_wild_card,2022.2.4,Win32,144.3418014,615cb147f04efc8a8c2ff1e5,64ce5acb97489d65b14ecc7a,64cf4855491fef45d3990989,,,,,,,decisionTrl,resources/DB.BMP,resources/DR.BMP,Door3,0.462962963,-0.099074116,1,0,0,1.4212,optionRight,70,11450,5,32,0,32,0,1,,,,,,,,,,,,,,,,,,,,,,,,,,,,,,,,,,,,,,,
,,,,,,,,2023-08-06_08h14.41.240,HF_wild_card,2022.2.4,Win32,144.3418014,615cb147f04efc8a8c2ff1e5,64ce5acb97489d65b14ecc7a,64cf4855491fef45d3990989,,,,,,,decisionTrl,resources/DBN.BMP,resources/DB.BMP,Door4,-0.357407393,-0.034259266,1,0,0,1.0524,optionLeft,80,11530,5,33,0,33,0,1,,,,,,,,,,,,,,,,,,,,,,,,,,,,,,,,,,,,,,,
,,,,,,,,2023-08-06_08h14.41.240,HF_wild_card,2022.2.4,Win32,144.3418014,615cb147f04efc8a8c2ff1e5,64ce5acb97489d65b14ecc7a,64cf4855491fef45d3990989,,,,,,,decisionTrl,resources/DP.BMP,resources/DG.BMP,Door1,0.32685188,0.025000007,1,0,0,1.1227,optionRight,30,11560,5,34,0,34,0,1,,,,,,,,,,,,,,,,,,,,,,,,,,,,,,,,,,,,,,,
,,,,,,,,2023-08-06_08h14.41.240,HF_wild_card,2022.2.4,Win32,144.3418014,615cb147f04efc8a8c2ff1e5,64ce5acb97489d65b14ecc7a,64cf4855491fef45d3990989,,,,,,,decisionTrl,resources/DG.BMP,resources/DP.BMP,Door1,-0.373148141,-0.028703725,1,0,0,1.0866,optionLeft,30,11590,5,35,0,35,0,1,,,,,,,,,,,,,,,,,,,,,,,,,,,,,,,,,,,,,,,
,,,,,,,,2023-08-06_08h14.41.240,HF_wild_card,2022.2.4,Win32,144.3418014,615cb147f04efc8a8c2ff1e5,64ce5acb97489d65b14ecc7a,64cf4855491fef45d3990989,,,,,,,decisionTrl,resources/DR.BMP,resources/DBN.BMP,Door4,0.312037009,0.01203703,1,0,0,1.0189,optionRight,80,11670,5,36,0,36,0,1,,,,,,,,,,,,,,,,,,,,,,,,,,,,,,,,,,,,,,,
,,,,,,,,2023-08-06_08h14.41.240,HF_wild_card,2022.2.4,Win32,144.3418014,615cb147f04efc8a8c2ff1e5,64ce5acb97489d65b14ecc7a,64cf4855491fef45d3990989,,,,,,,decisionTrl,resources/DR.BMP,resources/DBN.BMP,Door4,0.468518575,0.053703697,1,0,0,0.8051,optionRight,60,11730,5,37,0,37,0,1,,,,,,,,,,,,,,,,,,,,,,,,,,,,,,,,,,,,,,,
,,,,,,,,2023-08-06_08h14.41.240,HF_wild_card,2022.2.4,Win32,144.3418014,615cb147f04efc8a8c2ff1e5,64ce5acb97489d65b14ecc7a,64cf4855491fef45d3990989,,,,,,,sngl,resources/Empty.png,resources/DG.BMP,Door1,0.349074046,0.005555541,1,0,0,0.7302,optionRight,30,11760,5,38,0,38,0,1,,,,,,,,,,,,,,,,,,,,,,,,,,,,,,,,,,,,,,,
,,,,,,,,2023-08-06_08h14.41.240,HF_wild_card,2022.2.4,Win32,144.3418014,615cb147f04efc8a8c2ff1e5,64ce5acb97489d65b14ecc7a,64cf4855491fef45d3990989,,,,,,,ctch,resources/DP.BMP,resources/DR.BMP,Door3,0.350926011,0.015740748,1,0,0,1.6918,optionRight,70,11830,5,39,0,39,0,1,,,,,,,,,,,,,,,,,,,,,,,,,,,,,,,,,,,,,,,
,,,,,,,,2023-08-06_08h14.41.240,HF_wild_card,2022.2.4,Win32,144.3418014,615cb147f04efc8a8c2ff1e5,64ce5acb97489d65b14ecc7a,64cf4855491fef45d3990989,,,,,,,decisionTrl,resources/DP.BMP,resources/DG.BMP,Door1,0.308333362,-0.009259259,1,0,0,1.3807,optionRight,30,11860,5,40,0,40,0,1,,,,,,,,,,,,,,,,,,,,,,,,,,,,,,,,,,,,,,,
,,,,,,,,2023-08-06_08h14.41.240,HF_wild_card,2022.2.4,Win32,144.3418014,615cb147f04efc8a8c2ff1e5,64ce5acb97489d65b14ecc7a,64cf4855491fef45d3990989,,,,,,,ctch,resources/DR.BMP,resources/DP.BMP,Door3,-0.315740727,-0.014814836,1,0,0,0.9164,optionLeft,70,11930,5,41,0,41,0,1,,,,,,,,,,,,,,,,,,,,,,,,,,,,,,,,,,,,,,,
,,,,,,,,2023-08-06_08h14.41.240,HF_wild_card,2022.2.4,Win32,144.3418014,615cb147f04efc8a8c2ff1e5,64ce5acb97489d65b14ecc7a,64cf4855491fef45d3990989,,,,,,,ctch,resources/DG.BMP,resources/DBN.BMP,Door4,0.309259344,0.026851831,1,0,0,0.9777,optionRight,80,12010,5,42,0,42,0,1,,,,,,,,,,,,,,,,,,,,,,,,,,,,,,,,,,,,,,,
,,,,,,,,2023-08-06_08h14.41.240,HF_wild_card,2022.2.4,Win32,144.3418014,615cb147f04efc8a8c2ff1e5,64ce5acb97489d65b14ecc7a,64cf4855491fef45d3990989,,,,,,,decisionTrl,resources/DG.BMP,resources/DB.BMP,Door1,-0.279629601,-0.046296296,1,0,0,0.9496,optionLeft,30,12040,5,43,0,43,0,1,,,,,,,,,,,,,,,,,,,,,,,,,,,,,,,,,,,,,,,
,,,,,,,,2023-08-06_08h14.41.240,HF_wild_card,2022.2.4,Win32,144.3418014,615cb147f04efc8a8c2ff1e5,64ce5acb97489d65b14ecc7a,64cf4855491fef45d3990989,,,,,,,,,,,,,,,,,,,,,,,,,,4,0,4,0,1,,,,,,,,,,,,,,,,,,,,,,,,,,,,,,,,,,
,,,,,,,,2023-08-06_08h14.41.240,HF_wild_card,2022.2.4,Win32,144.3418014,615cb147f04efc8a8c2ff1e5,64ce5acb97489d65b14ecc7a,64cf4855491fef45d3990989,,,,,,,sngl,resources/DBN.BMP,resources/Empty.png,Door4,-0.401851831,0.006481489,1,0,0,1.3841,optionLeft,60,12100,6,0,0,0,0,1,,,,,,,,,,,,,,,,,,,,,,,,,,,,,,,,,,,,,,,
,,,,,,,,2023-08-06_08h14.41.240,HF_wild_card,2022.2.4,Win32,144.3418014,615cb147f04efc8a8c2ff1e5,64ce5acb97489d65b14ecc7a,64cf4855491fef45d3990989,,,,,,,decisionTrl,resources/DG.BMP,resources/DP.BMP,Door1,-0.281481496,-0.027777778,1,0,0,1.5086,optionLeft,30,12130,6,1,0,1,0,1,,,,,,,,,,,,,,,,,,,,,,,,,,,,,,,,,,,,,,,
,,,,,,,,2023-08-06_08h14.41.240,HF_wild_card,2022.2.4,Win32,144.3418014,615cb147f04efc8a8c2ff1e5,64ce5acb97489d65b14ecc7a,64cf4855491fef45d3990989,,,,,,,decisionTrl,resources/DP.BMP,resources/DG.BMP,Door1,0.340740769,-0.028703725,1,0,0,0.9461,optionRight,30,12160,6,2,0,2,0,1,,,,,,,,,,,,,,,,,,,,,,,,,,,,,,,,,,,,,,,
,,,,,,,,2023-08-06_08h14.41.240,HF_wild_card,2022.2.4,Win32,144.3418014,615cb147f04efc8a8c2ff1e5,64ce5acb97489d65b14ecc7a,64cf4855491fef45d3990989,,,,,,,decisionTrl,resources/DBN.BMP,resources/DR.BMP,Door4,-0.474074081,0.049999979,1,0,0,1.2823,optionLeft,60,12220,6,3,0,3,0,1,,,,,,,,,,,,,,,,,,,,,,,,,,,,,,,,,,,,,,,
,,,,,,,,2023-08-06_08h14.41.240,HF_wild_card,2022.2.4,Win32,144.3418014,615cb147f04efc8a8c2ff1e5,64ce5acb97489d65b14ecc7a,64cf4855491fef45d3990989,,,,,,,decisionTrl,resources/DBN.BMP,resources/DR.BMP,Door4,-0.288888861,-0.002777771,1,0,0,1.7973,optionLeft,60,12280,6,4,0,4,0,1,,,,,,,,,,,,,,,,,,,,,,,,,,,,,,,,,,,,,,,
,,,,,,,,2023-08-06_08h14.41.240,HF_wild_card,2022.2.4,Win32,144.3418014,615cb147f04efc8a8c2ff1e5,64ce5acb97489d65b14ecc7a,64cf4855491fef45d3990989,,,,,,,ctch,resources/DP.BMP,resources/DR.BMP,Door3,0.284259302,-0.021296289,1,0,0,1.0427,optionRight,70,12350,6,5,0,5,0,1,,,,,,,,,,,,,,,,,,,,,,,,,,,,,,,,,,,,,,,
,,,,,,,,2023-08-06_08h14.41.240,HF_wild_card,2022.2.4,Win32,144.3418014,615cb147f04efc8a8c2ff1e5,64ce5acb97489d65b14ecc7a,64cf4855491fef45d3990989,,,,,,,ctch,resources/DBN.BMP,resources/DG.BMP,Door4,-0.315740727,-0.033333355,1,0,0,0.8519,optionLeft,80,12430,6,6,0,6,0,1,,,,,,,,,,,,,,,,,,,,,,,,,,,,,,,,,,,,,,,
,,,,,,,,2023-08-06_08h14.41.240,HF_wild_card,2022.2.4,Win32,144.3418014,615cb147f04efc8a8c2ff1e5,64ce5acb97489d65b14ecc7a,64cf4855491fef45d3990989,,,,,,,sngl,resources/DP.BMP,resources/Empty.png,Door2,-0.298148155,-0.014814836,1,0,0,0.8038,optionLeft,20,12450,6,7,0,7,0,1,,,,,,,,,,,,,,,,,,,,,,,,,,,,,,,,,,,,,,,
,,,,,,,,2023-08-06_08h14.41.240,HF_wild_card,2022.2.4,Win32,144.3418014,615cb147f04efc8a8c2ff1e5,64ce5acb97489d65b14ecc7a,64cf4855491fef45d3990989,,,,,,,decisionTrl,resources/DP.BMP,resources/DG.BMP,Door1,0.268518519,-0.029629637,1,0,0,0.9724,optionRight,30,12480,6,8,0,8,0,1,,,,,,,,,,,,,,,,,,,,,,,,,,,,,,,,,,,,,,,
,,,,,,,,2023-08-06_08h14.41.240,HF_wild_card,2022.2.4,Win32,144.3418014,615cb147f04efc8a8c2ff1e5,64ce5acb97489d65b14ecc7a,64cf4855491fef45d3990989,,,,,,,sngl,resources/DB.BMP,resources/Empty.png,WildCard_Ex,-0.317592586,-0.00462963,1,0,0,0.9422,optionLeft,5,12485,6,9,0,9,0,1,,,,,,,,,,,,,,,,,,,,,,,,,,,,,,,,,,,,,,,
,,,,,,,,2023-08-06_08h14.41.240,HF_wild_card,2022.2.4,Win32,144.3418014,615cb147f04efc8a8c2ff1e5,64ce5acb97489d65b14ecc7a,64cf4855491fef45d3990989,,,,,,,decisionTrl,resources/DG.BMP,resources/DB.BMP,Door1,-0.35833334,-0.002777771,1,0,0,0.9826,optionLeft,30,12515,6,10,0,10,0,1,,,,,,,,,,,,,,,,,,,,,,,,,,,,,,,,,,,,,,,
,,,,,,,,2023-08-06_08h14.41.240,HF_wild_card,2022.2.4,Win32,144.3418014,615cb147f04efc8a8c2ff1e5,64ce5acb97489d65b14ecc7a,64cf4855491fef45d3990989,,,,,,,sngl,resources/Empty.png,resources/DP.BMP,Door2,0.37962963,-0.069444444,1,0,0,1.1474,optionRight,40,12555,6,11,0,11,0,1,,,,,,,,,,,,,,,,,,,,,,,,,,,,,,,,,,,,,,,
,,,,,,,,2023-08-06_08h14.41.240,HF_wild_card,2022.2.4,Win32,144.3418014,615cb147f04efc8a8c2ff1e5,64ce5acb97489d65b14ecc7a,64cf4855491fef45d3990989,,,,,,,decisionTrl,resources/DBN.BMP,resources/DB.BMP,Door4,-0.368518511,-0.006481489,1,0,0,0.9763,optionLeft,60,12615,6,12,0,12,0,1,,,,,,,,,,,,,,,,,,,,,,,,,,,,,,,,,,,,,,,
,,,,,,,,2023-08-06_08h14.41.240,HF_wild_card,2022.2.4,Win32,144.3418014,615cb147f04efc8a8c2ff1e5,64ce5acb97489d65b14ecc7a,64cf4855491fef45d3990989,,,,,,,decisionTrl,resources/DG.BMP,resources/DP.BMP,Door1,-0.385185171,-0.026851866,1,0,0,1.3276,optionLeft,30,12645,6,13,0,13,0,1,,,,,,,,,,,,,,,,,,,,,,,,,,,,,,,,,,,,,,,
,,,,,,,,2023-08-06_08h14.41.240,HF_wild_card,2022.2.4,Win32,144.3418014,615cb147f04efc8a8c2ff1e5,64ce5acb97489d65b14ecc7a,64cf4855491fef45d3990989,,,,,,,decisionTrl,resources/DR.BMP,resources/DBN.BMP,Door4,0.253703718,-0.025925919,1,0,0,0.8245,optionRight,60,12705,6,14,0,14,0,1,,,,,,,,,,,,,,,,,,,,,,,,,,,,,,,,,,,,,,,
,,,,,,,,2023-08-06_08h14.41.240,HF_wild_card,2022.2.4,Win32,144.3418014,615cb147f04efc8a8c2ff1e5,64ce5acb97489d65b14ecc7a,64cf4855491fef45d3990989,,,,,,,decisionTrl,resources/DB.BMP,resources/DP.BMP,WildCard_Ex,-0.353703711,-0.033333355,1,0,0,1.5603,optionLeft,5,12710,6,15,0,15,0,1,,,,,,,,,,,,,,,,,,,,,,,,,,,,,,,,,,,,,,,
,,,,,,,,2023-08-06_08h14.41.240,HF_wild_card,2022.2.4,Win32,144.3418014,615cb147f04efc8a8c2ff1e5,64ce5acb97489d65b14ecc7a,64cf4855491fef45d3990989,,,,,,,sngl,resources/Empty.png,resources/DB.BMP,WildCard_Ex,0.3648149,-0.037037037,1,0,0,1.0019,optionRight,95,12805,6,16,0,16,0,1,,,,,,,,,,,,,,,,,,,,,,,,,,,,,,,,,,,,,,,
,,,,,,,,2023-08-06_08h14.41.240,HF_wild_card,2022.2.4,Win32,144.3418014,615cb147f04efc8a8c2ff1e5,64ce5acb97489d65b14ecc7a,64cf4855491fef45d3990989,,,,,,,decisionTrl,resources/DR.BMP,resources/DBN.BMP,Door4,0.383333418,0.021296289,1,0,0,1.4506,optionRight,80,12885,6,17,0,17,0,1,,,,,,,,,,,,,,,,,,,,,,,,,,,,,,,,,,,,,,,
,,,,,,,,2023-08-06_08h14.41.240,HF_wild_card,2022.2.4,Win32,144.3418014,615cb147f04efc8a8c2ff1e5,64ce5acb97489d65b14ecc7a,64cf4855491fef45d3990989,,,,,,,sngl,resources/Empty.png,resources/DG.BMP,Door1,0.299074102,0.0074074,1,0,0,0.8244,optionRight,30,12915,6,18,0,18,0,1,,,,,,,,,,,,,,,,,,,,,,,,,,,,,,,,,,,,,,,
,,,,,,,,2023-08-06_08h14.41.240,HF_wild_card,2022.2.4,Win32,144.3418014,615cb147f04efc8a8c2ff1e5,64ce5acb97489d65b14ecc7a,64cf4855491fef45d3990989,,,,,,,decisionTrl,resources/DR.BMP,resources/DB.BMP,Door3,-0.272222236,-0.053703697,1,0,0,2.3786,optionLeft,70,12985,6,19,0,19,0,1,,,,,,,,,,,,,,,,,,,,,,,,,,,,,,,,,,,,,,,
,,,,,,,,2023-08-06_08h14.41.240,HF_wild_card,2022.2.4,Win32,144.3418014,615cb147f04efc8a8c2ff1e5,64ce5acb97489d65b14ecc7a,64cf4855491fef45d3990989,,,,,,,decisionTrl,resources/DG.BMP,resources/DP.BMP,Door1,-0.240740741,-0.0074074,1,0,0,1.0041,optionLeft,30,13015,6,20,0,20,0,1,,,,,,,,,,,,,,,,,,,,,,,,,,,,,,,,,,,,,,,
,,,,,,,,2023-08-06_08h14.41.240,HF_wild_card,2022.2.4,Win32,144.3418014,615cb147f04efc8a8c2ff1e5,64ce5acb97489d65b14ecc7a,64cf4855491fef45d3990989,,,,,,,decisionTrl,resources/DBN.BMP,resources/DR.BMP,Door4,-0.292592578,0.01944443,1,0,0,1.1361,optionLeft,80,13095,6,21,0,21,0,1,,,,,,,,,,,,,,,,,,,,,,,,,,,,,,,,,,,,,,,
,,,,,,,,2023-08-06_08h14.41.240,HF_wild_card,2022.2.4,Win32,144.3418014,615cb147f04efc8a8c2ff1e5,64ce5acb97489d65b14ecc7a,64cf4855491fef45d3990989,,,,,,,decisionTrl,resources/DP.BMP,resources/DG.BMP,Door1,0.352777834,-0.022222236,1,0,0,0.9005,optionRight,30,13125,6,22,0,22,0,1,,,,,,,,,,,,,,,,,,,,,,,,,,,,,,,,,,,,,,,
,,,,,,,,2023-08-06_08h14.41.240,HF_wild_card,2022.2.4,Win32,144.3418014,615cb147f04efc8a8c2ff1e5,64ce5acb97489d65b14ecc7a,64cf4855491fef45d3990989,,,,,,,decisionTrl,resources/DR.BMP,resources/DBN.BMP,Door4,0.356481481,-0.000925947,1,0,0,1.0671,optionRight,80,13205,6,23,0,23,0,1,,,,,,,,,,,,,,,,,,,,,,,,,,,,,,,,,,,,,,,
,,,,,,,,2023-08-06_08h14.41.240,HF_wild_card,2022.2.4,Win32,144.3418014,615cb147f04efc8a8c2ff1e5,64ce5acb97489d65b14ecc7a,64cf4855491fef45d3990989,,,,,,,ctch,resources/DR.BMP,resources/DP.BMP,Door3,-0.467592593,-0.013888889,1,0,0,0.9352,optionLeft,70,13275,6,24,0,24,0,1,,,,,,,,,,,,,,,,,,,,,,,,,,,,,,,,,,,,,,,
,,,,,,,,2023-08-06_08h14.41.240,HF_wild_card,2022.2.4,Win32,144.3418014,615cb147f04efc8a8c2ff1e5,64ce5acb97489d65b14ecc7a,64cf4855491fef45d3990989,,,,,,,decisionTrl,resources/DR.BMP,resources/DBN.BMP,Door4,0.304629714,-0.009259259,1,0,0,1.9137,optionRight,80,13355,6,25,0,25,0,1,,,,,,,,,,,,,,,,,,,,,,,,,,,,,,,,,,,,,,,
,,,,,,,,2023-08-06_08h14.41.240,HF_wild_card,2022.2.4,Win32,144.3418014,615cb147f04efc8a8c2ff1e5,64ce5acb97489d65b14ecc7a,64cf4855491fef45d3990989,,,,,,,decisionTrl,resources/DB.BMP,resources/DR.BMP,Door3,0.332407492,-0.0074074,1,0,0,1.164,optionRight,70,13425,6,26,0,26,0,1,,,,,,,,,,,,,,,,,,,,,,,,,,,,,,,,,,,,,,,
,,,,,,,,2023-08-06_08h14.41.240,HF_wild_card,2022.2.4,Win32,144.3418014,615cb147f04efc8a8c2ff1e5,64ce5acb97489d65b14ecc7a,64cf4855491fef45d3990989,,,,,,,ctch,resources/DR.BMP,resources/DP.BMP,Door3,-0.409259266,-0.075925933,1,0,0,0.97,optionLeft,70,13495,6,27,0,27,0,1,,,,,,,,,,,,,,,,,,,,,,,,,,,,,,,,,,,,,,,
,,,,,,,,2023-08-06_08h14.41.240,HF_wild_card,2022.2.4,Win32,144.3418014,615cb147f04efc8a8c2ff1e5,64ce5acb97489d65b14ecc7a,64cf4855491fef45d3990989,,,,,,,decisionTrl,resources/DB.BMP,resources/DBN.BMP,Door4,0.342592593,0.008333312,1,0,0,0.8734,optionRight,80,13575,6,28,0,28,0,1,,,,,,,,,,,,,,,,,,,,,,,,,,,,,,,,,,,,,,,
,,,,,,,,2023-08-06_08h14.41.240,HF_wild_card,2022.2.4,Win32,144.3418014,615cb147f04efc8a8c2ff1e5,64ce5acb97489d65b14ecc7a,64cf4855491fef45d3990989,,,,,,,decisionTrl,resources/DBN.BMP,resources/DR.BMP,Door4,-0.408333319,0.011111118,1,0,0,0.8645,optionLeft,60,13635,6,29,0,29,0,1,,,,,,,,,,,,,,,,,,,,,,,,,,,,,,,,,,,,,,,
,,,,,,,,2023-08-06_08h14.41.240,HF_wild_card,2022.2.4,Win32,144.3418014,615cb147f04efc8a8c2ff1e5,64ce5acb97489d65b14ecc7a,64cf4855491fef45d3990989,,,,,,,decisionTrl,resources/DP.BMP,resources/DG.BMP,Door1,0.262962977,-0.01666666,1,0,0,1.4073,optionRight,30,13665,6,30,0,30,0,1,,,,,,,,,,,,,,,,,,,,,,,,,,,,,,,,,,,,,,,
,,,,,,,,2023-08-06_08h14.41.240,HF_wild_card,2022.2.4,Win32,144.3418014,615cb147f04efc8a8c2ff1e5,64ce5acb97489d65b14ecc7a,64cf4855491fef45d3990989,,,,,,,sngl,resources/Empty.png,resources/DB.BMP,WildCard_Ex,0.429629714,-0.056481503,1,0,0,0.6718,optionRight,5,13670,6,31,0,31,0,1,,,,,,,,,,,,,,,,,,,,,,,,,,,,,,,,,,,,,,,
,,,,,,,,2023-08-06_08h14.41.240,HF_wild_card,2022.2.4,Win32,144.3418014,615cb147f04efc8a8c2ff1e5,64ce5acb97489d65b14ecc7a,64cf4855491fef45d3990989,,,,,,,sngl,resources/Empty.png,resources/DR.BMP,Door3,0.288888931,0.00462963,1,0,0,0.7197,optionRight,70,13740,6,32,0,32,0,1,,,,,,,,,,,,,,,,,,,,,,,,,,,,,,,,,,,,,,,
,,,,,,,,2023-08-06_08h14.41.240,HF_wild_card,2022.2.4,Win32,144.3418014,615cb147f04efc8a8c2ff1e5,64ce5acb97489d65b14ecc7a,64cf4855491fef45d3990989,,,,,,,ctch,resources/DG.BMP,resources/DBN.BMP,Door4,0.396296325,0.020370377,1,0,0,1.4824,optionRight,60,13800,6,33,0,33,0,1,,,,,,,,,,,,,,,,,,,,,,,,,,,,,,,,,,,,,,,
,,,,,,,,2023-08-06_08h14.41.240,HF_wild_card,2022.2.4,Win32,144.3418014,615cb147f04efc8a8c2ff1e5,64ce5acb97489d65b14ecc7a,64cf4855491fef45d3990989,,,,,,,sngl,resources/DB.BMP,resources/Empty.png,WildCard_Ex,-0.331481474,-0.001851859,1,0,0,0.6712,optionLeft,95,13895,6,34,0,34,0,1,,,,,,,,,,,,,,,,,,,,,,,,,,,,,,,,,,,,,,,
,,,,,,,,2023-08-06_08h14.41.240,HF_wild_card,2022.2.4,Win32,144.3418014,615cb147f04efc8a8c2ff1e5,64ce5acb97489d65b14ecc7a,64cf4855491fef45d3990989,,,,,,,decisionTrl,resources/DP.BMP,resources/DB.BMP,Door2,-0.302777785,-0.035185178,1,0,0,1.5604,optionLeft,20,13915,6,35,0,35,0,1,,,,,,,,,,,,,,,,,,,,,,,,,,,,,,,,,,,,,,,
,,,,,,,,2023-08-06_08h14.41.240,HF_wild_card,2022.2.4,Win32,144.3418014,615cb147f04efc8a8c2ff1e5,64ce5acb97489d65b14ecc7a,64cf4855491fef45d3990989,,,,,,,decisionTrl,resources/DB.BMP,resources/DG.BMP,Door1,0.359259288,-0.030555548,1,0,0,1.4067,optionRight,30,13945,6,36,0,36,0,1,,,,,,,,,,,,,,,,,,,,,,,,,,,,,,,,,,,,,,,
,,,,,,,,2023-08-06_08h14.41.240,HF_wild_card,2022.2.4,Win32,144.3418014,615cb147f04efc8a8c2ff1e5,64ce5acb97489d65b14ecc7a,64cf4855491fef45d3990989,,,,,,,decisionTrl,resources/DG.BMP,resources/DP.BMP,Door1,-0.314814815,-0.006481489,1,0,0,1.581,optionLeft,30,13975,6,37,0,37,0,1,,,,,,,,,,,,,,,,,,,,,,,,,,,,,,,,,,,,,,,
,,,,,,,,2023-08-06_08h14.41.240,HF_wild_card,2022.2.4,Win32,144.3418014,615cb147f04efc8a8c2ff1e5,64ce5acb97489d65b14ecc7a,64cf4855491fef45d3990989,,,,,,,ctch,resources/DG.BMP,resources/DBN.BMP,Door4,0.318518603,0.02870369,1,0,0,1.0252,optionRight,60,14035,6,38,0,38,0,1,,,,,,,,,,,,,,,,,,,,,,,,,,,,,,,,,,,,,,,
,,,,,,,,2023-08-06_08h14.41.240,HF_wild_card,2022.2.4,Win32,144.3418014,615cb147f04efc8a8c2ff1e5,64ce5acb97489d65b14ecc7a,64cf4855491fef45d3990989,,,,,,,sngl,resources/Empty.png,resources/DBN.BMP,Door4,0.312962991,0.0074074,1,0,0,0.5533,optionRight,80,14115,6,39,0,39,0,1,,,,,,,,,,,,,,,,,,,,,,,,,,,,,,,,,,,,,,,
,,,,,,,,2023-08-06_08h14.41.240,HF_wild_card,2022.2.4,Win32,144.3418014,615cb147f04efc8a8c2ff1e5,64ce5acb97489d65b14ecc7a,64cf4855491fef45d3990989,,,,,,,sngl,resources/DR.BMP,resources/Empty.png,Door3,-0.267592607,-0.049074067,1,0,0,0.5322,optionLeft,70,14185,6,40,0,40,0,1,,,,,,,,,,,,,,,,,,,,,,,,,,,,,,,,,,,,,,,
,,,,,,,,2023-08-06_08h14.41.240,HF_wild_card,2022.2.4,Win32,144.3418014,615cb147f04efc8a8c2ff1e5,64ce5acb97489d65b14ecc7a,64cf4855491fef45d3990989,,,,,,,ctch,resources/DBN.BMP,resources/DG.BMP,Door4,-0.430555556,-0.103703746,1,0,0,0.7618,optionLeft,60,14245,6,41,0,41,0,1,,,,,,,,,,,,,,,,,,,,,,,,,,,,,,,,,,,,,,,
,,,,,,,,2023-08-06_08h14.41.240,HF_wild_card,2022.2.4,Win32,144.3418014,615cb147f04efc8a8c2ff1e5,64ce5acb97489d65b14ecc7a,64cf4855491fef45d3990989,,,,,,,sngl,resources/DG.BMP,resources/Empty.png,Door1,-0.295370384,-0.005555577,1,0,0,0.651,optionLeft,30,14275,6,42,0,42,0,1,,,,,,,,,,,,,,,,,,,,,,,,,,,,,,,,,,,,,,,
,,,,,,,,2023-08-06_08h14.41.240,HF_wild_card,2022.2.4,Win32,144.3418014,615cb147f04efc8a8c2ff1e5,64ce5acb97489d65b14ecc7a,64cf4855491fef45d3990989,,,,,,,ctch,resources/DP.BMP,resources/DR.BMP,Door3,0.290740755,-0.000925947,1,0,0,1.2819,optionRight,70,14345,6,43,0,43,0,1,,,,,,,,,,,,,,,,,,,,,,,,,,,,,,,,,,,,,,,
,,,,,,,,2023-08-06_08h14.41.240,HF_wild_card,2022.2.4,Win32,144.3418014,615cb147f04efc8a8c2ff1e5,64ce5acb97489d65b14ecc7a,64cf4855491fef45d3990989,,,,,,,,,,,,,,,,,,,,,,,,,,5,0,5,0,1,,,,,,,,,,,,,,,,,,,,,,,,,,,,,,,,,,
,,,,,,,,2023-08-06_08h14.41.240,HF_wild_card,2022.2.4,Win32,144.3418014,615cb147f04efc8a8c2ff1e5,64ce5acb97489d65b14ecc7a,64cf4855491fef45d3990989,,,,,,,decisionTrl,resources/DR.BMP,resources/DBN.BMP,Door4,0.362962935,0.030555548,1,0,0,1.114,optionRight,60,14405,7,0,0,0,0,1,,,,,,,,,,,,,,,,,,,,,,,,,,,,,,,,,,,,,,,
,,,,,,,,2023-08-06_08h14.41.240,HF_wild_card,2022.2.4,Win32,144.3418014,615cb147f04efc8a8c2ff1e5,64ce5acb97489d65b14ecc7a,64cf4855491fef45d3990989,,,,,,,ctch,resources/DP.BMP,resources/DR.BMP,Door3,0.287037037,0.012962942,1,0,0,1.2145,optionRight,70,14475,7,1,0,1,0,1,,,,,,,,,,,,,,,,,,,,,,,,,,,,,,,,,,,,,,,
,,,,,,,,2023-08-06_08h14.41.240,HF_wild_card,2022.2.4,Win32,144.3418014,615cb147f04efc8a8c2ff1e5,64ce5acb97489d65b14ecc7a,64cf4855491fef45d3990989,,,,,,,decisionTrl,resources/DBN.BMP,resources/DR.BMP,Door4,-0.329629616,-0.008333347,1,0,0,1.0749,optionLeft,80,14555,7,2,0,2,0,1,,,,,,,,,,,,,,,,,,,,,,,,,,,,,,,,,,,,,,,
,,,,,,,,2023-08-06_08h14.41.240,HF_wild_card,2022.2.4,Win32,144.3418014,615cb147f04efc8a8c2ff1e5,64ce5acb97489d65b14ecc7a,64cf4855491fef45d3990989,,,,,,,decisionTrl,resources/DG.BMP,resources/DP.BMP,Door1,-0.24537037,0.00462963,1,0,0,1.1729,optionLeft,30,14585,7,3,0,3,0,1,,,,,,,,,,,,,,,,,,,,,,,,,,,,,,,,,,,,,,,
,,,,,,,,2023-08-06_08h14.41.240,HF_wild_card,2022.2.4,Win32,144.3418014,615cb147f04efc8a8c2ff1e5,64ce5acb97489d65b14ecc7a,64cf4855491fef45d3990989,,,,,,,decisionTrl,resources/DP.BMP,resources/DG.BMP,Door1,0.399074131,0.008333312,1,0,0,0.704,optionRight,30,14615,7,4,0,4,0,1,,,,,,,,,,,,,,,,,,,,,,,,,,,,,,,,,,,,,,,
,,,,,,,,2023-08-06_08h14.41.240,HF_wild_card,2022.2.4,Win32,144.3418014,615cb147f04efc8a8c2ff1e5,64ce5acb97489d65b14ecc7a,64cf4855491fef45d3990989,,,,,,,ctch,resources/DR.BMP,resources/DP.BMP,Door3,-0.363888882,-0.047222243,1,0,0,1.4224,optionLeft,70,14685,7,5,0,5,0,1,,,,,,,,,,,,,,,,,,,,,,,,,,,,,,,,,,,,,,,
,,,,,,,,2023-08-06_08h14.41.240,HF_wild_card,2022.2.4,Win32,144.3418014,615cb147f04efc8a8c2ff1e5,64ce5acb97489d65b14ecc7a,64cf4855491fef45d3990989,,,,,,,decisionTrl,resources/DR.BMP,resources/DBN.BMP,Door4,0.319444444,0.065740727,1,0,0,0.6782,optionRight,80,14765,7,6,0,6,0,1,,,,,,,,,,,,,,,,,,,,,,,,,,,,,,,,,,,,,,,
,,,,,,,,2023-08-06_08h14.41.240,HF_wild_card,2022.2.4,Win32,144.3418014,615cb147f04efc8a8c2ff1e5,64ce5acb97489d65b14ecc7a,64cf4855491fef45d3990989,,,,,,,decisionTrl,resources/DBN.BMP,resources/DR.BMP,Door4,-0.362037023,-0.030555548,1,0,0,0.8182,optionLeft,80,14845,7,7,0,7,0,1,,,,,,,,,,,,,,,,,,,,,,,,,,,,,,,,,,,,,,,
,,,,,,,,2023-08-06_08h14.41.240,HF_wild_card,2022.2.4,Win32,144.3418014,615cb147f04efc8a8c2ff1e5,64ce5acb97489d65b14ecc7a,64cf4855491fef45d3990989,,,,,,,decisionTrl,resources/DR.BMP,resources/DBN.BMP,Door4,0.294444473,0.00462963,1,0,0,0.6596,optionRight,60,14905,7,8,0,8,0,1,,,,,,,,,,,,,,,,,,,,,,,,,,,,,,,,,,,,,,,
,,,,,,,,2023-08-06_08h14.41.240,HF_wild_card,2022.2.4,Win32,144.3418014,615cb147f04efc8a8c2ff1e5,64ce5acb97489d65b14ecc7a,64cf4855491fef45d3990989,,,,,,,decisionTrl,resources/DG.BMP,resources/DP.BMP,Door1,-0.359259252,-0.074074074,1,0,0,1.4812,optionLeft,30,14935,7,9,0,9,0,1,,,,,,,,,,,,,,,,,,,,,,,,,,,,,,,,,,,,,,,
,,,,,,,,2023-08-06_08h14.41.240,HF_wild_card,2022.2.4,Win32,144.3418014,615cb147f04efc8a8c2ff1e5,64ce5acb97489d65b14ecc7a,64cf4855491fef45d3990989,,,,,,,decisionTrl,resources/DG.BMP,resources/DP.BMP,Door1,-0.369444423,0.056481467,1,0,0,1.669,optionLeft,30,14965,7,10,0,10,0,1,,,,,,,,,,,,,,,,,,,,,,,,,,,,,,,,,,,,,,,
,,,,,,,,2023-08-06_08h14.41.240,HF_wild_card,2022.2.4,Win32,144.3418014,615cb147f04efc8a8c2ff1e5,64ce5acb97489d65b14ecc7a,64cf4855491fef45d3990989,,,,,,,ctch,resources/DR.BMP,resources/DP.BMP,Door3,-0.329629616,0.03148146,1,0,0,1.929,optionLeft,70,15035,7,11,0,11,0,1,,,,,,,,,,,,,,,,,,,,,,,,,,,,,,,,,,,,,,,
,,,,,,,,2023-08-06_08h14.41.240,HF_wild_card,2022.2.4,Win32,144.3418014,615cb147f04efc8a8c2ff1e5,64ce5acb97489d65b14ecc7a,64cf4855491fef45d3990989,,,,,,,ctch,resources/DR.BMP,resources/DP.BMP,Door3,-0.342592593,-0.000925947,1,0,0,1.032,optionLeft,70,15105,7,12,0,12,0,1,,,,,,,,,,,,,,,,,,,,,,,,,,,,,,,,,,,,,,,
,,,,,,,,2023-08-06_08h14.41.240,HF_wild_card,2022.2.4,Win32,144.3418014,615cb147f04efc8a8c2ff1e5,64ce5acb97489d65b14ecc7a,64cf4855491fef45d3990989,,,,,,,decisionTrl,resources/DBN.BMP,resources/DR.BMP,Door4,-0.334259245,0.029629637,1,0,0,0.8885,optionLeft,80,15185,7,13,0,13,0,1,,,,,,,,,,,,,,,,,,,,,,,,,,,,,,,,,,,,,,,
,,,,,,,,2023-08-06_08h14.41.240,HF_wild_card,2022.2.4,Win32,144.3418014,615cb147f04efc8a8c2ff1e5,64ce5acb97489d65b14ecc7a,64cf4855491fef45d3990989,,,,,,,decisionTrl,resources/DG.BMP,resources/DP.BMP,Door1,-0.420370349,0.003703683,1,0,0,0.8814,optionLeft,30,15215,7,14,0,14,0,1,,,,,,,,,,,,,,,,,,,,,,,,,,,,,,,,,,,,,,,
,,,,,,,,2023-08-06_08h14.41.240,HF_wild_card,2022.2.4,Win32,144.3418014,615cb147f04efc8a8c2ff1e5,64ce5acb97489d65b14ecc7a,64cf4855491fef45d3990989,,,,,,,ctch,resources/DBN.BMP,resources/DG.BMP,Door4,-0.365740741,0.033333319,1,0,0,0.7222,optionLeft,80,15295,7,15,0,15,0,1,,,,,,,,,,,,,,,,,,,,,,,,,,,,,,,,,,,,,,,
,,,,,,,,2023-08-06_08h14.41.240,HF_wild_card,2022.2.4,Win32,144.3418014,615cb147f04efc8a8c2ff1e5,64ce5acb97489d65b14ecc7a,64cf4855491fef45d3990989,,,,,,,ctch,resources/DBN.BMP,resources/DG.BMP,Door4,-0.302777785,-0.009259259,1,0,0,0.657,optionLeft,80,15375,7,16,0,16,0,1,,,,,,,,,,,,,,,,,,,,,,,,,,,,,,,,,,,,,,,
,,,,,,,,2023-08-06_08h14.41.240,HF_wild_card,2022.2.4,Win32,144.3418014,615cb147f04efc8a8c2ff1e5,64ce5acb97489d65b14ecc7a,64cf4855491fef45d3990989,,,,,,,decisionTrl,resources/DBN.BMP,resources/DR.BMP,Door4,-0.320370356,0.026851831,1,0,0,0.8872,optionLeft,80,15455,7,17,0,17,0,1,,,,,,,,,,,,,,,,,,,,,,,,,,,,,,,,,,,,,,,
,,,,,,,,2023-08-06_08h14.41.240,HF_wild_card,2022.2.4,Win32,144.3418014,615cb147f04efc8a8c2ff1e5,64ce5acb97489d65b14ecc7a,64cf4855491fef45d3990989,,,,,,,decisionTrl,resources/DG.BMP,resources/DP.BMP,Door1,-0.432407414,0.026851831,1,0,0,1.0893,optionLeft,30,15485,7,18,0,18,0,1,,,,,,,,,,,,,,,,,,,,,,,,,,,,,,,,,,,,,,,
,,,,,,,,2023-08-06_08h14.41.240,HF_wild_card,2022.2.4,Win32,144.3418014,615cb147f04efc8a8c2ff1e5,64ce5acb97489d65b14ecc7a,64cf4855491fef45d3990989,,,,,,,ctch,resources/DP.BMP,resources/DR.BMP,Door3,0.377777806,-0.002777771,1,0,0,1.159,optionRight,70,15555,7,19,0,19,0,1,,,,,,,,,,,,,,,,,,,,,,,,,,,,,,,,,,,,,,,
,,,,,,,,2023-08-06_08h14.41.240,HF_wild_card,2022.2.4,Win32,144.3418014,615cb147f04efc8a8c2ff1e5,64ce5acb97489d65b14ecc7a,64cf4855491fef45d3990989,,,,,,,decisionTrl,resources/DP.BMP,resources/DG.BMP,Door1,0.42777775,0.015740748,1,0,0,1.3673,optionRight,30,15585,7,20,0,20,0,1,,,,,,,,,,,,,,,,,,,,,,,,,,,,,,,,,,,,,,,
,,,,,,,,2023-08-06_08h14.41.240,HF_wild_card,2022.2.4,Win32,144.3418014,615cb147f04efc8a8c2ff1e5,64ce5acb97489d65b14ecc7a,64cf4855491fef45d3990989,,,,,,,decisionTrl,resources/DP.BMP,resources/DG.BMP,Door1,0.417592649,-0.035185178,1,0,0,1.5596,optionRight,30,15615,7,21,0,21,0,1,,,,,,,,,,,,,,,,,,,,,,,,,,,,,,,,,,,,,,,
,,,,,,,,2023-08-06_08h14.41.240,HF_wild_card,2022.2.4,Win32,144.3418014,615cb147f04efc8a8c2ff1e5,64ce5acb97489d65b14ecc7a,64cf4855491fef45d3990989,,,,,,,decisionTrl,resources/DR.BMP,resources/DBN.BMP,Door4,0.377777806,0.030555548,1,0,0,0.9506,optionRight,60,15675,7,22,0,22,0,1,,,,,,,,,,,,,,,,,,,,,,,,,,,,,,,,,,,,,,,
,,,,,,,,2023-08-06_08h14.41.240,HF_wild_card,2022.2.4,Win32,144.3418014,615cb147f04efc8a8c2ff1e5,64ce5acb97489d65b14ecc7a,64cf4855491fef45d3990989,,,,,,,decisionTrl,resources/DR.BMP,resources/DBN.BMP,Door4,0.375,0.041666667,1,0,0,0.9918,optionRight,60,15735,7,23,0,23,0,1,,,,,,,,,,,,,,,,,,,,,,,,,,,,,,,,,,,,,,,
,,,,,,,,2023-08-06_08h14.41.240,HF_wild_card,2022.2.4,Win32,144.3418014,615cb147f04efc8a8c2ff1e5,64ce5acb97489d65b14ecc7a,64cf4855491fef45d3990989,,,,,,,decisionTrl,resources/DG.BMP,resources/DP.BMP,Door1,-0.372222229,-0.002777771,1,0,0,1.859,optionLeft,30,15765,7,24,0,24,0,1,,,,,,,,,,,,,,,,,,,,,,,,,,,,,,,,,,,,,,,
,,,,,,,,2023-08-06_08h14.41.240,HF_wild_card,2022.2.4,Win32,144.3418014,615cb147f04efc8a8c2ff1e5,64ce5acb97489d65b14ecc7a,64cf4855491fef45d3990989,,,,,,,decisionTrl,resources/DBN.BMP,resources/DR.BMP,Door4,-0.290740755,0.009259259,1,0,0,0.9564,optionLeft,60,15825,7,25,0,25,0,1,,,,,,,,,,,,,,,,,,,,,,,,,,,,,,,,,,,,,,,
,,,,,,,,2023-08-06_08h14.41.240,HF_wild_card,2022.2.4,Win32,144.3418014,615cb147f04efc8a8c2ff1e5,64ce5acb97489d65b14ecc7a,64cf4855491fef45d3990989,,,,,,,ctch,resources/DG.BMP,resources/DBN.BMP,Door4,0.332407492,0.071296303,1,0,0,0.7341,optionRight,80,15905,7,26,0,26,0,1,,,,,,,,,,,,,,,,,,,,,,,,,,,,,,,,,,,,,,,
,,,,,,,,2023-08-06_08h14.41.240,HF_wild_card,2022.2.4,Win32,144.3418014,615cb147f04efc8a8c2ff1e5,64ce5acb97489d65b14ecc7a,64cf4855491fef45d3990989,,,,,,,ctch,resources/DG.BMP,resources/DBN.BMP,Door4,0.346296381,0.049999979,1,0,0,0.7278,optionRight,60,15965,7,27,0,27,0,1,,,,,,,,,,,,,,,,,,,,,,,,,,,,,,,,,,,,,,,
,,,,,,,,2023-08-06_08h14.41.240,HF_wild_card,2022.2.4,Win32,144.3418014,615cb147f04efc8a8c2ff1e5,64ce5acb97489d65b14ecc7a,64cf4855491fef45d3990989,,,,,,,decisionTrl,resources/DP.BMP,resources/DG.BMP,Door1,0.294444473,0.030555548,1,0,0,1.4642,optionRight,30,15995,7,28,0,28,0,1,,,,,,,,,,,,,,,,,,,,,,,,,,,,,,,,,,,,,,,
,,,,,,,,2023-08-06_08h14.41.240,HF_wild_card,2022.2.4,Win32,144.3418014,615cb147f04efc8a8c2ff1e5,64ce5acb97489d65b14ecc7a,64cf4855491fef45d3990989,,,,,,,decisionTrl,resources/DP.BMP,resources/DG.BMP,Door1,0.350926011,0.000925912,1,0,0,0.7355,optionRight,30,16025,7,29,0,29,0,1,,,,,,,,,,,,,,,,,,,,,,,,,,,,,,,,,,,,,,,
,,,,,,,,2023-08-06_08h14.41.240,HF_wild_card,2022.2.4,Win32,144.3418014,615cb147f04efc8a8c2ff1e5,64ce5acb97489d65b14ecc7a,64cf4855491fef45d3990989,,,,,,,decisionTrl,resources/DP.BMP,resources/DG.BMP,Door1,0.32685188,0.026851831,1,0,0,0.6242,optionRight,30,16055,7,30,0,30,0,1,,,,,,,,,,,,,,,,,,,,,,,,,,,,,,,,,,,,,,,
,,,,,,,,2023-08-06_08h14.41.240,HF_wild_card,2022.2.4,Win32,144.3418014,615cb147f04efc8a8c2ff1e5,64ce5acb97489d65b14ecc7a,64cf4855491fef45d3990989,,,,,,,ctch,resources/DG.BMP,resources/DBN.BMP,Door4,0.340740769,0.014814801,1,0,0,0.7556,optionRight,80,16135,7,31,0,31,0,1,,,,,,,,,,,,,,,,,,,,,,,,,,,,,,,,,,,,,,,
,,,,,,,,2023-08-06_08h14.41.240,HF_wild_card,2022.2.4,Win32,144.3418014,615cb147f04efc8a8c2ff1e5,64ce5acb97489d65b14ecc7a,64cf4855491fef45d3990989,,,,,,,ctch,resources/DBN.BMP,resources/DG.BMP,Door4,-0.389814801,-0.039814808,1,0,0,0.666,optionLeft,80,16215,7,32,0,32,0,1,,,,,,,,,,,,,,,,,,,,,,,,,,,,,,,,,,,,,,,
,,,,,,,,2023-08-06_08h14.41.240,HF_wild_card,2022.2.4,Win32,144.3418014,615cb147f04efc8a8c2ff1e5,64ce5acb97489d65b14ecc7a,64cf4855491fef45d3990989,,,,,,,ctch,resources/DP.BMP,resources/DR.BMP,Door3,0.308333362,-0.002777771,1,0,0,0.9088,optionRight,70,16285,7,33,0,33,0,1,,,,,,,,,,,,,,,,,,,,,,,,,,,,,,,,,,,,,,,
,,,,,,,,2023-08-06_08h14.41.240,HF_wild_card,2022.2.4,Win32,144.3418014,615cb147f04efc8a8c2ff1e5,64ce5acb97489d65b14ecc7a,64cf4855491fef45d3990989,,,,,,,decisionTrl,resources/DR.BMP,resources/DBN.BMP,Door4,0.374074159,-0.006481489,1,0,0,0.6797,optionRight,60,16345,7,34,0,34,0,1,,,,,,,,,,,,,,,,,,,,,,,,,,,,,,,,,,,,,,,
,,,,,,,,2023-08-06_08h14.41.240,HF_wild_card,2022.2.4,Win32,144.3418014,615cb147f04efc8a8c2ff1e5,64ce5acb97489d65b14ecc7a,64cf4855491fef45d3990989,,,,,,,decisionTrl,resources/DBN.BMP,resources/DR.BMP,Door4,-0.263888889,-0.042592614,1,0,0,0.9643,optionLeft,60,16405,7,35,0,35,0,1,,,,,,,,,,,,,,,,,,,,,,,,,,,,,,,,,,,,,,,
,,,,,,,,2023-08-06_08h14.41.240,HF_wild_card,2022.2.4,Win32,144.3418014,615cb147f04efc8a8c2ff1e5,64ce5acb97489d65b14ecc7a,64cf4855491fef45d3990989,,,,,,,,,,,,,,,,,,,,,,,,,,6,0,6,0,1,,,,,,,,,,,,,,,,,,,,,,,,,,,,,,,,,,
,,,,,,,,2023-08-06_08h14.41.240,HF_wild_card,2022.2.4,Win32,144.3418014,615cb147f04efc8a8c2ff1e5,64ce5acb97489d65b14ecc7a,64cf4855491fef45d3990989,,,,,,,,,,,,,,,,,,,,,,,,,,,,,,,4,,,,,,,,,,,,,,,,,,,,,,,,,,,,,,,,,
,,,,,,,,2023-08-06_08h14.41.240,HF_wild_card,2022.2.4,Win32,144.3418014,615cb147f04efc8a8c2ff1e5,64ce5acb97489d65b14ecc7a,64cf4855491fef45d3990989,,,,,,,,,,,,,,,,,,,,,,,,,,,,,,,,,,,,,,,,,,,,,,,,,,,,,,,,,,,,,,,,
,,,,,,,,2023-08-06_08h14.41.240,HF_wild_card,2022.2.4,Win32,144.3418014,615cb147f04efc8a8c2ff1e5,64ce5acb97489d65b14ecc7a,64cf4855491fef45d3990989,,,,,,,,,,,,,,,,,,,,,,,,,,,,,,,,30,Door1,resources/DG.BMP,0,0,0,0,1,,,,,,,,,,,,,,,,,,,,,,,,,
,,,,,,,,2023-08-06_08h14.41.240,HF_wild_card,2022.2.4,Win32,144.3418014,615cb147f04efc8a8c2ff1e5,64ce5acb97489d65b14ecc7a,64cf4855491fef45d3990989,,,,,,,,,,,,,,,,,,,,,,,,,,,,,,,,40,WC_nonExtreme,resources/DY.BMP,1,0,1,0,1,,,,,,,,,,,,,,,,,,,,,,,,,
,,,,,,,,2023-08-06_08h14.41.240,HF_wild_card,2022.2.4,Win32,144.3418014,615cb147f04efc8a8c2ff1e5,64ce5acb97489d65b14ecc7a,64cf4855491fef45d3990989,,,,,,,,,,,,,,,,,,,,,,,,,,,,,,,,60,Door3,resources/DR.BMP,2,0,2,0,1,,,,,,,,,,,,,,,,,,,,,,,,,
,,,,,,,,2023-08-06_08h14.41.240,HF_wild_card,2022.2.4,Win32,144.3418014,615cb147f04efc8a8c2ff1e5,64ce5acb97489d65b14ecc7a,64cf4855491fef45d3990989,,,,,,,,,,,,,,,,,,,,,,,,,,,,,,,,80,Door4,resources/DBN.BMP,3,0,3,0,1,,,,,,,,,,,,,,,,,,,,,,,,,
,,,,,,,,2023-08-06_08h14.41.240,HF_wild_card,2022.2.4,Win32,144.3418014,615cb147f04efc8a8c2ff1e5,64ce5acb97489d65b14ecc7a,64cf4855491fef45d3990989,,,,,,,,,,,,,,,,,,,,,,,,,,,,,,,,95,WC_extreme,resources/DB.BMP,4,0,4,0,1,,,,,,,,,,,,,,,,,,,,,,,,,
,,,,,,,,2023-08-06_08h14.41.240,HF_wild_card,2022.2.4,Win32,144.3418014,615cb147f04efc8a8c2ff1e5,64ce5acb97489d65b14ecc7a,64cf4855491fef45d3990989,,,,,,,,,,,,,,,,,,,,,,,,,,,,,,,,20,Door2,resources/DP.BMP,5,0,5,0,1,,,,,,,,,,,,,,,,,,,,,,,,,
,,,,,,,,2023-08-06_08h14.41.240,HF_wild_card,2022.2.4,Win32,144.3418014,615cb147f04efc8a8c2ff1e5,64ce5acb97489d65b14ecc7a,64cf4855491fef45d3990989,,,,,,,,,,,,,,,,,,,,,,,,,,,,,,,,,,,,,,,,,,,,,,,,,,,,,,,,,,,,,,,,
