Condition,Low fixed image (Door1),Low risky image (Door2),High fixed image (Door3),High risky image (Door4),Extreme Wild Card,NonExtreme Wild Card,,date,expName,psychopyVersion,OS,frameRate,PROLIFIC_PID,STUDY_ID,SESSION_ID,mouse_2.x,mouse_2.y,mouse_2.leftButton,mouse_2.midButton,mouse_2.rightButton,mouse_2.clicked_name,Trial Type,Left Option Image,Right Option Image,Chosen Door,mouse.x,mouse.y,mouse.leftButton,mouse.midButton,mouse.rightButton,mouse.time,mouse.clicked_name,Feedback,Cumulative Reward,Block,trial.thisRepN,trial.thisTrialN,trial.thisN,trial.thisIndex,trial.ran,blocks.thisRepN,blocks.thisTrialN,blocks.thisN,blocks.thisIndex,blocks.ran,Money conversion,First Outcome Reported,Shown Door (First Outcome),Displayed Image (First Outcome),outcomes.thisRepN,outcomes.thisTrialN,outcomes.thisN,outcomes.thisIndex,outcomes.ran,judgments.thisRepN,judgments.thisTrialN,judgments.thisN,judgments.thisIndex,judgments.ran,freqMouse.x,freqMouse.y,freqMouse.leftButton,freqMouse.midButton,freqMouse.rightButton,freqMouse.clicked_name,trials.thisRepN,trials.thisTrialN,trials.thisN,trials.thisIndex,trials.ran,FQJ for first outcome,FQJ for second outcome,Shown Door,Displayed Image,judgBlock.thisRepN,judgBlock.thisTrialN,judgBlock.thisN,judgBlock.thisIndex,judgBlock.ran
0,resources/DBN.BMP,resources/DY.BMP,resources/DG.BMP,resources/DR.BMP,resources/DP.BMP,resources/DB.BMP,,08-16-2023_08h31.21.722,HF_wild_card,2022.2.4,Win32,60.0276127,62fb7a7a78d3bbcf82ac4083,64d2fd46c836a06233681665,64dc7b35998f49eb8ba08db5,,,,,,,,,,,,,,,,,,,,,,,,,,,,,,,,,,,,,,,,,,,,,,,,,,,,,,,,,,,,,,,,
,,,,,,,,08-16-2023_08h31.21.722,HF_wild_card,2022.2.4,Win32,60.0276127,62fb7a7a78d3bbcf82ac4083,64d2fd46c836a06233681665,64dc7b35998f49eb8ba08db5,-0.005720165,-0.422516964,1,0,0,agree,,,,,,,,,,,,,,,,,,,,,,,,,,,,,,,,,,,,,,,,,,,,,,,,,,,,,,,,,,
,,,,,,,,08-16-2023_08h31.21.722,HF_wild_card,2022.2.4,Win32,60.0276127,62fb7a7a78d3bbcf82ac4083,64d2fd46c836a06233681665,64dc7b35998f49eb8ba08db5,,,,,,,,,,,,,,,,,,,,,,,,,,,,,,,,,,,,,,,,,,,,,,,,,,,,,,,,,,,,,,,,
,,,,,,,,08-16-2023_08h31.21.722,HF_wild_card,2022.2.4,Win32,60.0276127,62fb7a7a78d3bbcf82ac4083,64d2fd46c836a06233681665,64dc7b35998f49eb8ba08db5,,,,,,,decisionTrl,resources/DG.BMP,resources/DR.BMP,Door4,0.263650546,-0.047061914,1,0,0,3.5831,optionRight,60,60,1,0,0,0,0,1,,,,,,,,,,,,,,,,,,,,,,,,,,,,,,,,,,,,,,,
,,,,,,,,08-16-2023_08h31.21.722,HF_wild_card,2022.2.4,Win32,60.0276127,62fb7a7a78d3bbcf82ac4083,64d2fd46c836a06233681665,64dc7b35998f49eb8ba08db5,,,,,,,decisionTrl,resources/DR.BMP,resources/DG.BMP,Door3,0.249089995,0.021580831,1,0,0,1.4827,optionRight,70,130,1,1,0,1,0,1,,,,,,,,,,,,,,,,,,,,,,,,,,,,,,,,,,,,,,,
,,,,,,,,08-16-2023_08h31.21.722,HF_wild_card,2022.2.4,Win32,60.0276127,62fb7a7a78d3bbcf82ac4083,64d2fd46c836a06233681665,64dc7b35998f49eb8ba08db5,,,,,,,sngl,resources/Empty.png,resources/DP.BMP,WildCard_Ex,0.260530421,-0.024180967,1,0,0,1.5517,optionRight,95,225,1,2,0,2,0,1,,,,,,,,,,,,,,,,,,,,,,,,,,,,,,,,,,,,,,,
,,,,,,,,08-16-2023_08h31.21.722,HF_wild_card,2022.2.4,Win32,60.0276127,62fb7a7a78d3bbcf82ac4083,64d2fd46c836a06233681665,64dc7b35998f49eb8ba08db5,,,,,,,decisionTrl,resources/DP.BMP,resources/DY.BMP,Door2,0.440457682,0.033021305,1,0,0,2.2522,optionRight,20,245,1,3,0,3,0,1,,,,,,,,,,,,,,,,,,,,,,,,,,,,,,,,,,,,,,,
,,,,,,,,08-16-2023_08h31.21.722,HF_wild_card,2022.2.4,Win32,60.0276127,62fb7a7a78d3bbcf82ac4083,64d2fd46c836a06233681665,64dc7b35998f49eb8ba08db5,,,,,,,sngl,resources/Empty.png,resources/DP.BMP,WildCard_Ex,0.237649569,-0.000260042,1,0,0,1.397,optionRight,5,250,1,4,0,4,0,1,,,,,,,,,,,,,,,,,,,,,,,,,,,,,,,,,,,,,,,
,,,,,,,,08-16-2023_08h31.21.722,HF_wild_card,2022.2.4,Win32,60.0276127,62fb7a7a78d3bbcf82ac4083,64d2fd46c836a06233681665,64dc7b35998f49eb8ba08db5,,,,,,,decisionTrl,resources/DY.BMP,resources/DBN.BMP,Door2,-0.44773791,0.061102428,1,0,0,0.7955,optionLeft,40,290,1,5,0,5,0,1,,,,,,,,,,,,,,,,,,,,,,,,,,,,,,,,,,,,,,,
,,,,,,,,08-16-2023_08h31.21.722,HF_wild_card,2022.2.4,Win32,60.0276127,62fb7a7a78d3bbcf82ac4083,64d2fd46c836a06233681665,64dc7b35998f49eb8ba08db5,,,,,,,ctch,resources/DG.BMP,resources/DY.BMP,Door2,0.383255362,0.035101404,1,0,0,1.7733,optionRight,20,310,1,6,0,6,0,1,,,,,,,,,,,,,,,,,,,,,,,,,,,,,,,,,,,,,,,
,,,,,,,,08-16-2023_08h31.21.722,HF_wild_card,2022.2.4,Win32,60.0276127,62fb7a7a78d3bbcf82ac4083,64d2fd46c836a06233681665,64dc7b35998f49eb8ba08db5,,,,,,,decisionTrl,resources/DR.BMP,resources/DG.BMP,Door3,0.292771743,0.043421705,1,0,0,1.4101,optionRight,70,380,1,7,0,7,0,1,,,,,,,,,,,,,,,,,,,,,,,,,,,,,,,,,,,,,,,
,,,,,,,,08-16-2023_08h31.21.722,HF_wild_card,2022.2.4,Win32,60.0276127,62fb7a7a78d3bbcf82ac4083,64d2fd46c836a06233681665,64dc7b35998f49eb8ba08db5,,,,,,,sngl,resources/DY.BMP,resources/Empty.png,Door2,-0.326053042,0.106864275,1,0,0,1.0947,optionLeft,40,420,1,8,0,8,0,1,,,,,,,,,,,,,,,,,,,,,,,,,,,,,,,,,,,,,,,
,,,,,,,,08-16-2023_08h31.21.722,HF_wild_card,2022.2.4,Win32,60.0276127,62fb7a7a78d3bbcf82ac4083,64d2fd46c836a06233681665,64dc7b35998f49eb8ba08db5,,,,,,,decisionTrl,resources/DG.BMP,resources/DR.BMP,Door3,-0.287571471,0.075663027,1,0,0,2.1921,optionLeft,70,490,1,9,0,9,0,1,,,,,,,,,,,,,,,,,,,,,,,,,,,,,,,,,,,,,,,
,,,,,,,,08-16-2023_08h31.21.722,HF_wild_card,2022.2.4,Win32,60.0276127,62fb7a7a78d3bbcf82ac4083,64d2fd46c836a06233681665,64dc7b35998f49eb8ba08db5,,,,,,,decisionTrl,resources/DBN.BMP,resources/DP.BMP,Door1,-0.227249074,0.105824201,1,0,0,2.0597,optionLeft,30,520,1,10,0,10,0,1,,,,,,,,,,,,,,,,,,,,,,,,,,,,,,,,,,,,,,,
,,,,,,,,08-16-2023_08h31.21.722,HF_wild_card,2022.2.4,Win32,60.0276127,62fb7a7a78d3bbcf82ac4083,64d2fd46c836a06233681665,64dc7b35998f49eb8ba08db5,,,,,,,ctch,resources/DR.BMP,resources/DBN.BMP,Door1,0.379095164,0.060062402,1,0,0,1.2024,optionRight,30,550,1,11,0,11,0,1,,,,,,,,,,,,,,,,,,,,,,,,,,,,,,,,,,,,,,,
,,,,,,,,08-16-2023_08h31.21.722,HF_wild_card,2022.2.4,Win32,60.0276127,62fb7a7a78d3bbcf82ac4083,64d2fd46c836a06233681665,64dc7b35998f49eb8ba08db5,,,,,,,decisionTrl,resources/DY.BMP,resources/DBN.BMP,Door2,-0.44149766,0.10374415,1,0,0,0.9628,optionLeft,20,570,1,12,0,12,0,1,,,,,,,,,,,,,,,,,,,,,,,,,,,,,,,,,,,,,,,
,,,,,,,,08-16-2023_08h31.21.722,HF_wild_card,2022.2.4,Win32,60.0276127,62fb7a7a78d3bbcf82ac4083,64d2fd46c836a06233681665,64dc7b35998f49eb8ba08db5,,,,,,,decisionTrl,resources/DBN.BMP,resources/DY.BMP,Door2,0.295891867,0.031981279,1,0,0,0.9101,optionRight,40,610,1,13,0,13,0,1,,,,,,,,,,,,,,,,,,,,,,,,,,,,,,,,,,,,,,,
,,,,,,,,08-16-2023_08h31.21.722,HF_wild_card,2022.2.4,Win32,60.0276127,62fb7a7a78d3bbcf82ac4083,64d2fd46c836a06233681665,64dc7b35998f49eb8ba08db5,,,,,,,sngl,resources/DP.BMP,resources/Empty.png,WildCard_Ex,-0.349973967,0.105824201,1,0,0,1.2116,optionLeft,95,705,1,14,0,14,0,1,,,,,,,,,,,,,,,,,,,,,,,,,,,,,,,,,,,,,,,
,,,,,,,,08-16-2023_08h31.21.722,HF_wild_card,2022.2.4,Win32,60.0276127,62fb7a7a78d3bbcf82ac4083,64d2fd46c836a06233681665,64dc7b35998f49eb8ba08db5,,,,,,,decisionTrl,resources/DR.BMP,resources/DG.BMP,Door4,-0.457098284,0.179667171,1,0,0,1.3603,optionLeft,60,765,1,15,0,15,0,1,,,,,,,,,,,,,,,,,,,,,,,,,,,,,,,,,,,,,,,
,,,,,,,,08-16-2023_08h31.21.722,HF_wild_card,2022.2.4,Win32,60.0276127,62fb7a7a78d3bbcf82ac4083,64d2fd46c836a06233681665,64dc7b35998f49eb8ba08db5,,,,,,,decisionTrl,resources/DY.BMP,resources/DP.BMP,WildCard_Ex,0.348933989,0.142225673,1,0,0,1.1561,optionRight,95,860,1,16,0,16,0,1,,,,,,,,,,,,,,,,,,,,,,,,,,,,,,,,,,,,,,,
,,,,,,,,08-16-2023_08h31.21.722,HF_wild_card,2022.2.4,Win32,60.0276127,62fb7a7a78d3bbcf82ac4083,64d2fd46c836a06233681665,64dc7b35998f49eb8ba08db5,,,,,,,decisionTrl,resources/DY.BMP,resources/DBN.BMP,Door2,-0.409256339,0.190067571,1,0,0,1.9279,optionLeft,40,900,1,17,0,17,0,1,,,,,,,,,,,,,,,,,,,,,,,,,,,,,,,,,,,,,,,
,,,,,,,,08-16-2023_08h31.21.722,HF_wild_card,2022.2.4,Win32,60.0276127,62fb7a7a78d3bbcf82ac4083,64d2fd46c836a06233681665,64dc7b35998f49eb8ba08db5,,,,,,,sngl,resources/Empty.png,resources/DY.BMP,Door2,0.427977183,0.155746198,1,0,0,1.0268,optionRight,20,920,1,18,0,18,0,1,,,,,,,,,,,,,,,,,,,,,,,,,,,,,,,,,,,,,,,
,,,,,,,,08-16-2023_08h31.21.722,HF_wild_card,2022.2.4,Win32,60.0276127,62fb7a7a78d3bbcf82ac4083,64d2fd46c836a06233681665,64dc7b35998f49eb8ba08db5,,,,,,,decisionTrl,resources/DBN.BMP,resources/DY.BMP,Door1,-0.497659906,0.199427945,1,0,0,1.112,optionLeft,30,950,1,19,0,19,0,1,,,,,,,,,,,,,,,,,,,,,,,,,,,,,,,,,,,,,,,
,,,,,,,,08-16-2023_08h31.21.722,HF_wild_card,2022.2.4,Win32,60.0276127,62fb7a7a78d3bbcf82ac4083,64d2fd46c836a06233681665,64dc7b35998f49eb8ba08db5,,,,,,,sngl,resources/DP.BMP,resources/Empty.png,WildCard_Ex,-0.325012969,0.158866323,1,0,0,1.0285,optionLeft,5,955,1,20,0,20,0,1,,,,,,,,,,,,,,,,,,,,,,,,,,,,,,,,,,,,,,,
,,,,,,,,08-16-2023_08h31.21.722,HF_wild_card,2022.2.4,Win32,60.0276127,62fb7a7a78d3bbcf82ac4083,64d2fd46c836a06233681665,64dc7b35998f49eb8ba08db5,,,,,,,sngl,resources/DR.BMP,resources/Empty.png,Door4,-0.457098284,0.18798752,1,0,0,0.9764,optionLeft,80,1035,1,21,0,21,0,1,,,,,,,,,,,,,,,,,,,,,,,,,,,,,,,,,,,,,,,
,,,,,,,,08-16-2023_08h31.21.722,HF_wild_card,2022.2.4,Win32,60.0276127,62fb7a7a78d3bbcf82ac4083,64d2fd46c836a06233681665,64dc7b35998f49eb8ba08db5,,,,,,,decisionTrl,resources/DR.BMP,resources/DP.BMP,Door4,-0.432137285,0.141185647,1,0,0,0.9785,optionLeft,80,1115,1,22,0,22,0,1,,,,,,,,,,,,,,,,,,,,,,,,,,,,,,,,,,,,,,,
,,,,,,,,08-16-2023_08h31.21.722,HF_wild_card,2022.2.4,Win32,60.0276127,62fb7a7a78d3bbcf82ac4083,64d2fd46c836a06233681665,64dc7b35998f49eb8ba08db5,,,,,,,ctch,resources/DY.BMP,resources/DG.BMP,Door3,0.430057234,0.125585023,1,0,0,1.895,optionRight,70,1185,1,23,0,23,0,1,,,,,,,,,,,,,,,,,,,,,,,,,,,,,,,,,,,,,,,
,,,,,,,,08-16-2023_08h31.21.722,HF_wild_card,2022.2.4,Win32,60.0276127,62fb7a7a78d3bbcf82ac4083,64d2fd46c836a06233681665,64dc7b35998f49eb8ba08db5,,,,,,,sngl,resources/Empty.png,resources/DR.BMP,Door4,0.329173167,0.096463827,1,0,0,1.0549,optionRight,60,1245,1,24,0,24,0,1,,,,,,,,,,,,,,,,,,,,,,,,,,,,,,,,,,,,,,,
,,,,,,,,08-16-2023_08h31.21.722,HF_wild_card,2022.2.4,Win32,60.0276127,62fb7a7a78d3bbcf82ac4083,64d2fd46c836a06233681665,64dc7b35998f49eb8ba08db5,,,,,,,ctch,resources/DBN.BMP,resources/DR.BMP,Door4,0.361414488,0.094383775,1,0,0,1.1189,optionRight,80,1325,1,25,0,25,0,1,,,,,,,,,,,,,,,,,,,,,,,,,,,,,,,,,,,,,,,
,,,,,,,,08-16-2023_08h31.21.722,HF_wild_card,2022.2.4,Win32,60.0276127,62fb7a7a78d3bbcf82ac4083,64d2fd46c836a06233681665,64dc7b35998f49eb8ba08db5,,,,,,,decisionTrl,resources/DBN.BMP,resources/DY.BMP,Door1,-0.399895964,0.148465923,1,0,0,2.4593,optionLeft,30,1355,1,26,0,26,0,1,,,,,,,,,,,,,,,,,,,,,,,,,,,,,,,,,,,,,,,
,,,,,,,,08-16-2023_08h31.21.722,HF_wild_card,2022.2.4,Win32,60.0276127,62fb7a7a78d3bbcf82ac4083,64d2fd46c836a06233681665,64dc7b35998f49eb8ba08db5,,,,,,,decisionTrl,resources/DP.BMP,resources/DR.BMP,Door4,0.469578783,0.17550702,1,0,0,1.8452,optionRight,60,1415,1,27,0,27,0,1,,,,,,,,,,,,,,,,,,,,,,,,,,,,,,,,,,,,,,,
,,,,,,,,08-16-2023_08h31.21.722,HF_wild_card,2022.2.4,Win32,60.0276127,62fb7a7a78d3bbcf82ac4083,64d2fd46c836a06233681665,64dc7b35998f49eb8ba08db5,,,,,,,decisionTrl,resources/DR.BMP,resources/DG.BMP,Door4,-0.403016089,0.170306796,1,0,0,1.077,optionLeft,60,1475,1,28,0,28,0,1,,,,,,,,,,,,,,,,,,,,,,,,,,,,,,,,,,,,,,,
,,,,,,,,08-16-2023_08h31.21.722,HF_wild_card,2022.2.4,Win32,60.0276127,62fb7a7a78d3bbcf82ac4083,64d2fd46c836a06233681665,64dc7b35998f49eb8ba08db5,,,,,,,ctch,resources/DG.BMP,resources/DY.BMP,Door3,-0.385335413,0.155746198,1,0,0,1.6421,optionLeft,70,1545,1,29,0,29,0,1,,,,,,,,,,,,,,,,,,,,,,,,,,,,,,,,,,,,,,,
,,,,,,,,08-16-2023_08h31.21.722,HF_wild_card,2022.2.4,Win32,60.0276127,62fb7a7a78d3bbcf82ac4083,64d2fd46c836a06233681665,64dc7b35998f49eb8ba08db5,,,,,,,sngl,resources/Empty.png,resources/DBN.BMP,Door1,0.46541868,0.239989568,1,0,0,1.2778,optionRight,30,1575,1,30,0,30,0,1,,,,,,,,,,,,,,,,,,,,,,,,,,,,,,,,,,,,,,,
,,,,,,,,08-16-2023_08h31.21.722,HF_wild_card,2022.2.4,Win32,60.0276127,62fb7a7a78d3bbcf82ac4083,64d2fd46c836a06233681665,64dc7b35998f49eb8ba08db5,,,,,,,sngl,resources/Empty.png,resources/DG.BMP,Door3,0.399896059,0.094383775,1,0,0,1.0449,optionRight,70,1645,1,31,0,31,0,1,,,,,,,,,,,,,,,,,,,,,,,,,,,,,,,,,,,,,,,
,,,,,,,,08-16-2023_08h31.21.722,HF_wild_card,2022.2.4,Win32,60.0276127,62fb7a7a78d3bbcf82ac4083,64d2fd46c836a06233681665,64dc7b35998f49eb8ba08db5,,,,,,,decisionTrl,resources/DP.BMP,resources/DBN.BMP,WildCard_Ex,-0.452938086,0.131825273,1,0,0,1.8105,optionLeft,5,1650,1,32,0,32,0,1,,,,,,,,,,,,,,,,,,,,,,,,,,,,,,,,,,,,,,,
,,,,,,,,08-16-2023_08h31.21.722,HF_wild_card,2022.2.4,Win32,60.0276127,62fb7a7a78d3bbcf82ac4083,64d2fd46c836a06233681665,64dc7b35998f49eb8ba08db5,,,,,,,decisionTrl,resources/DY.BMP,resources/DBN.BMP,Door1,0.39365581,0.145345798,1,0,0,0.9939,optionRight,30,1680,1,33,0,33,0,1,,,,,,,,,,,,,,,,,,,,,,,,,,,,,,,,,,,,,,,
,,,,,,,,08-16-2023_08h31.21.722,HF_wild_card,2022.2.4,Win32,60.0276127,62fb7a7a78d3bbcf82ac4083,64d2fd46c836a06233681665,64dc7b35998f49eb8ba08db5,,,,,,,decisionTrl,resources/DG.BMP,resources/DR.BMP,Door4,0.444617785,0.115184576,1,0,0,1.1445,optionRight,60,1740,1,34,0,34,0,1,,,,,,,,,,,,,,,,,,,,,,,,,,,,,,,,,,,,,,,
,,,,,,,,08-16-2023_08h31.21.722,HF_wild_card,2022.2.4,Win32,60.0276127,62fb7a7a78d3bbcf82ac4083,64d2fd46c836a06233681665,64dc7b35998f49eb8ba08db5,,,,,,,ctch,resources/DY.BMP,resources/DG.BMP,Door3,0.382215289,0.098543926,1,0,0,2.1262,optionRight,70,1810,1,35,0,35,0,1,,,,,,,,,,,,,,,,,,,,,,,,,,,,,,,,,,,,,,,
,,,,,,,,08-16-2023_08h31.21.722,HF_wild_card,2022.2.4,Win32,60.0276127,62fb7a7a78d3bbcf82ac4083,64d2fd46c836a06233681665,64dc7b35998f49eb8ba08db5,,,,,,,decisionTrl,resources/DBN.BMP,resources/DY.BMP,Door2,0.395735861,0.069422777,1,0,0,1.6112,optionRight,40,1850,1,36,0,36,0,1,,,,,,,,,,,,,,,,,,,,,,,,,,,,,,,,,,,,,,,
,,,,,,,,08-16-2023_08h31.21.722,HF_wild_card,2022.2.4,Win32,60.0276127,62fb7a7a78d3bbcf82ac4083,64d2fd46c836a06233681665,64dc7b35998f49eb8ba08db5,,,,,,,sngl,resources/DG.BMP,resources/Empty.png,Door3,-0.337493468,0.068382704,1,0,0,1.638,optionLeft,70,1920,1,37,0,37,0,1,,,,,,,,,,,,,,,,,,,,,,,,,,,,,,,,,,,,,,,
,,,,,,,,08-16-2023_08h31.21.722,HF_wild_card,2022.2.4,Win32,60.0276127,62fb7a7a78d3bbcf82ac4083,64d2fd46c836a06233681665,64dc7b35998f49eb8ba08db5,,,,,,,decisionTrl,resources/DG.BMP,resources/DR.BMP,Door3,-0.415496588,0.129745174,1,0,0,1.0224,optionLeft,70,1990,1,38,0,38,0,1,,,,,,,,,,,,,,,,,,,,,,,,,,,,,,,,,,,,,,,
,,,,,,,,08-16-2023_08h31.21.722,HF_wild_card,2022.2.4,Win32,60.0276127,62fb7a7a78d3bbcf82ac4083,64d2fd46c836a06233681665,64dc7b35998f49eb8ba08db5,,,,,,,decisionTrl,resources/DP.BMP,resources/DG.BMP,Door3,0.409256434,0.144305772,1,0,0,1.7761,optionRight,70,2060,1,39,0,39,0,1,,,,,,,,,,,,,,,,,,,,,,,,,,,,,,,,,,,,,,,
,,,,,,,,08-16-2023_08h31.21.722,HF_wild_card,2022.2.4,Win32,60.0276127,62fb7a7a78d3bbcf82ac4083,64d2fd46c836a06233681665,64dc7b35998f49eb8ba08db5,,,,,,,ctch,resources/DR.BMP,resources/DBN.BMP,Door4,-0.420696812,0.150546022,1,0,0,2.922,optionLeft,60,2120,1,40,0,40,0,1,,,,,,,,,,,,,,,,,,,,,,,,,,,,,,,,,,,,,,,
,,,,,,,,08-16-2023_08h31.21.722,HF_wild_card,2022.2.4,Win32,60.0276127,62fb7a7a78d3bbcf82ac4083,64d2fd46c836a06233681665,64dc7b35998f49eb8ba08db5,,,,,,,sngl,resources/DBN.BMP,resources/Empty.png,Door1,-0.491419657,0.182787296,1,0,0,1.2087,optionLeft,30,2150,1,41,0,41,0,1,,,,,,,,,,,,,,,,,,,,,,,,,,,,,,,,,,,,,,,
,,,,,,,,08-16-2023_08h31.21.722,HF_wild_card,2022.2.4,Win32,60.0276127,62fb7a7a78d3bbcf82ac4083,64d2fd46c836a06233681665,64dc7b35998f49eb8ba08db5,,,,,,,ctch,resources/DBN.BMP,resources/DR.BMP,Door4,0.353094187,0.009100332,1,0,0,1.0776,optionRight,80,2230,1,42,0,42,0,1,,,,,,,,,,,,,,,,,,,,,,,,,,,,,,,,,,,,,,,
,,,,,,,,08-16-2023_08h31.21.722,HF_wild_card,2022.2.4,Win32,60.0276127,62fb7a7a78d3bbcf82ac4083,64d2fd46c836a06233681665,64dc7b35998f49eb8ba08db5,,,,,,,decisionTrl,resources/DG.BMP,resources/DP.BMP,Door3,-0.420696812,0.152626073,1,0,0,2.0771,optionLeft,70,2300,1,43,0,43,0,1,,,,,,,,,,,,,,,,,,,,,,,,,,,,,,,,,,,,,,,
,,,,,,,,08-16-2023_08h31.21.722,HF_wild_card,2022.2.4,Win32,60.0276127,62fb7a7a78d3bbcf82ac4083,64d2fd46c836a06233681665,64dc7b35998f49eb8ba08db5,,,,,,,,,,,,,,,,,,,,,,,,,,0,0,0,0,1,,,,,,,,,,,,,,,,,,,,,,,,,,,,,,,,,,
,,,,,,,,08-16-2023_08h31.21.722,HF_wild_card,2022.2.4,Win32,60.0276127,62fb7a7a78d3bbcf82ac4083,64d2fd46c836a06233681665,64dc7b35998f49eb8ba08db5,,,,,,,decisionTrl,resources/DY.BMP,resources/DBN.BMP,Door2,-0.38429534,0.174466947,1,0,0,1.6525,optionLeft,20,2320,2,0,0,0,0,1,,,,,,,,,,,,,,,,,,,,,,,,,,,,,,,,,,,,,,,
,,,,,,,,08-16-2023_08h31.21.722,HF_wild_card,2022.2.4,Win32,60.0276127,62fb7a7a78d3bbcf82ac4083,64d2fd46c836a06233681665,64dc7b35998f49eb8ba08db5,,,,,,,sngl,resources/DP.BMP,resources/Empty.png,WildCard_Ex,-0.425897036,0.172386895,1,0,0,0.9418,optionLeft,5,2325,2,1,0,1,0,1,,,,,,,,,,,,,,,,,,,,,,,,,,,,,,,,,,,,,,,
,,,,,,,,08-16-2023_08h31.21.722,HF_wild_card,2022.2.4,Win32,60.0276127,62fb7a7a78d3bbcf82ac4083,64d2fd46c836a06233681665,64dc7b35998f49eb8ba08db5,,,,,,,ctch,resources/DG.BMP,resources/DY.BMP,Door3,-0.439417561,0.18798752,1,0,0,1.6103,optionLeft,70,2395,2,2,0,2,0,1,,,,,,,,,,,,,,,,,,,,,,,,,,,,,,,,,,,,,,,
,,,,,,,,08-16-2023_08h31.21.722,HF_wild_card,2022.2.4,Win32,60.0276127,62fb7a7a78d3bbcf82ac4083,64d2fd46c836a06233681665,64dc7b35998f49eb8ba08db5,,,,,,,decisionTrl,resources/DG.BMP,resources/DP.BMP,Door3,-0.305252194,0.064222553,1,0,0,0.9605,optionLeft,70,2465,2,3,0,3,0,1,,,,,,,,,,,,,,,,,,,,,,,,,,,,,,,,,,,,,,,
,,,,,,,,08-16-2023_08h31.21.722,HF_wild_card,2022.2.4,Win32,60.0276127,62fb7a7a78d3bbcf82ac4083,64d2fd46c836a06233681665,64dc7b35998f49eb8ba08db5,,,,,,,sngl,resources/DP.BMP,resources/Empty.png,WildCard_Ex,-0.308372319,0.073582927,1,0,0,1.2581,optionLeft,95,2560,2,4,0,4,0,1,,,,,,,,,,,,,,,,,,,,,,,,,,,,,,,,,,,,,,,
,,,,,,,,08-16-2023_08h31.21.722,HF_wild_card,2022.2.4,Win32,60.0276127,62fb7a7a78d3bbcf82ac4083,64d2fd46c836a06233681665,64dc7b35998f49eb8ba08db5,,,,,,,decisionTrl,resources/DG.BMP,resources/DR.BMP,Door4,0.297971919,0.066302652,1,0,0,1.7282,optionRight,60,2620,2,5,0,5,0,1,,,,,,,,,,,,,,,,,,,,,,,,,,,,,,,,,,,,,,,
,,,,,,,,08-16-2023_08h31.21.722,HF_wild_card,2022.2.4,Win32,60.0276127,62fb7a7a78d3bbcf82ac4083,64d2fd46c836a06233681665,64dc7b35998f49eb8ba08db5,,,,,,,ctch,resources/DR.BMP,resources/DBN.BMP,Door4,-0.317732693,0.050702028,1,0,0,1.4873,optionLeft,60,2680,2,6,0,6,0,1,,,,,,,,,,,,,,,,,,,,,,,,,,,,,,,,,,,,,,,
,,,,,,,,08-16-2023_08h31.21.722,HF_wild_card,2022.2.4,Win32,60.0276127,62fb7a7a78d3bbcf82ac4083,64d2fd46c836a06233681665,64dc7b35998f49eb8ba08db5,,,,,,,sngl,resources/Empty.png,resources/DP.BMP,WildCard_Ex,0.335413417,0.001820057,1,0,0,5.903,optionRight,95,2775,2,7,0,7,0,1,,,,,,,,,,,,,,,,,,,,,,,,,,,,,,,,,,,,,,,
,,,,,,,,08-16-2023_08h31.21.722,HF_wild_card,2022.2.4,Win32,60.0276127,62fb7a7a78d3bbcf82ac4083,64d2fd46c836a06233681665,64dc7b35998f49eb8ba08db5,,,,,,,decisionTrl,resources/DR.BMP,resources/DG.BMP,Door4,-0.481019209,0.061102428,1,0,0,1.1282,optionLeft,60,2835,2,8,0,8,0,1,,,,,,,,,,,,,,,,,,,,,,,,,,,,,,,,,,,,,,,
,,,,,,,,08-16-2023_08h31.21.722,HF_wild_card,2022.2.4,Win32,60.0276127,62fb7a7a78d3bbcf82ac4083,64d2fd46c836a06233681665,64dc7b35998f49eb8ba08db5,,,,,,,decisionTrl,resources/DR.BMP,resources/DG.BMP,Door3,0.295891867,0.031981279,1,0,0,0.8125,optionRight,70,2905,2,9,0,9,0,1,,,,,,,,,,,,,,,,,,,,,,,,,,,,,,,,,,,,,,,
,,,,,,,,08-16-2023_08h31.21.722,HF_wild_card,2022.2.4,Win32,60.0276127,62fb7a7a78d3bbcf82ac4083,64d2fd46c836a06233681665,64dc7b35998f49eb8ba08db5,,,,,,,decisionTrl,resources/DBN.BMP,resources/DY.BMP,Door2,0.250130069,0.049661955,1,0,0,1.0937,optionRight,20,2925,2,10,0,10,0,1,,,,,,,,,,,,,,,,,,,,,,,,,,,,,,,,,,,,,,,
,,,,,,,,08-16-2023_08h31.21.722,HF_wild_card,2022.2.4,Win32,60.0276127,62fb7a7a78d3bbcf82ac4083,64d2fd46c836a06233681665,64dc7b35998f49eb8ba08db5,,,,,,,decisionTrl,resources/DG.BMP,resources/DR.BMP,Door3,-0.301092044,0.064222553,1,0,0,0.6961,optionLeft,70,2995,2,11,0,11,0,1,,,,,,,,,,,,,,,,,,,,,,,,,,,,,,,,,,,,,,,
,,,,,,,,08-16-2023_08h31.21.722,HF_wild_card,2022.2.4,Win32,60.0276127,62fb7a7a78d3bbcf82ac4083,64d2fd46c836a06233681665,64dc7b35998f49eb8ba08db5,,,,,,,ctch,resources/DR.BMP,resources/DBN.BMP,Door4,-0.257410296,0.047581903,1,0,0,0.7627,optionLeft,60,3055,2,12,0,12,0,1,,,,,,,,,,,,,,,,,,,,,,,,,,,,,,,,,,,,,,,
,,,,,,,,08-16-2023_08h31.21.722,HF_wild_card,2022.2.4,Win32,60.0276127,62fb7a7a78d3bbcf82ac4083,64d2fd46c836a06233681665,64dc7b35998f49eb8ba08db5,,,,,,,decisionTrl,resources/DP.BMP,resources/DR.BMP,Door4,0.328133189,0.010140406,1,0,0,0.9287,optionRight,60,3115,2,13,0,13,0,1,,,,,,,,,,,,,,,,,,,,,,,,,,,,,,,,,,,,,,,
,,,,,,,,08-16-2023_08h31.21.722,HF_wild_card,2022.2.4,Win32,60.0276127,62fb7a7a78d3bbcf82ac4083,64d2fd46c836a06233681665,64dc7b35998f49eb8ba08db5,,,,,,,decisionTrl,resources/DG.BMP,resources/DR.BMP,Door3,-0.287571471,0.04654183,1,0,0,1.3573,optionLeft,70,3185,2,14,0,14,0,1,,,,,,,,,,,,,,,,,,,,,,,,,,,,,,,,,,,,,,,
,,,,,,,,08-16-2023_08h31.21.722,HF_wild_card,2022.2.4,Win32,60.0276127,62fb7a7a78d3bbcf82ac4083,64d2fd46c836a06233681665,64dc7b35998f49eb8ba08db5,,,,,,,decisionTrl,resources/DBN.BMP,resources/DY.BMP,Door2,0.354134165,0.050702028,1,0,0,1.6598,optionRight,40,3225,2,15,0,15,0,1,,,,,,,,,,,,,,,,,,,,,,,,,,,,,,,,,,,,,,,
,,,,,,,,08-16-2023_08h31.21.722,HF_wild_card,2022.2.4,Win32,60.0276127,62fb7a7a78d3bbcf82ac4083,64d2fd46c836a06233681665,64dc7b35998f49eb8ba08db5,,,,,,,ctch,resources/DBN.BMP,resources/DR.BMP,Door4,0.27301092,0.030941206,1,0,0,0.9925,optionRight,80,3305,2,16,0,16,0,1,,,,,,,,,,,,,,,,,,,,,,,,,,,,,,,,,,,,,,,
,,,,,,,,08-16-2023_08h31.21.722,HF_wild_card,2022.2.4,Win32,60.0276127,62fb7a7a78d3bbcf82ac4083,64d2fd46c836a06233681665,64dc7b35998f49eb8ba08db5,,,,,,,ctch,resources/DY.BMP,resources/DG.BMP,Door3,0.248049922,0.059022329,1,0,0,1.1285,optionRight,70,3375,2,17,0,17,0,1,,,,,,,,,,,,,,,,,,,,,,,,,,,,,,,,,,,,,,,
,,,,,,,,08-16-2023_08h31.21.722,HF_wild_card,2022.2.4,Win32,60.0276127,62fb7a7a78d3bbcf82ac4083,64d2fd46c836a06233681665,64dc7b35998f49eb8ba08db5,,,,,,,decisionTrl,resources/DP.BMP,resources/DG.BMP,Door3,0.547581903,0.001820057,1,0,0,1.0457,optionRight,70,3445,2,18,0,18,0,1,,,,,,,,,,,,,,,,,,,,,,,,,,,,,,,,,,,,,,,
,,,,,,,,08-16-2023_08h31.21.722,HF_wild_card,2022.2.4,Win32,60.0276127,62fb7a7a78d3bbcf82ac4083,64d2fd46c836a06233681665,64dc7b35998f49eb8ba08db5,,,,,,,sngl,resources/Empty.png,resources/DR.BMP,Door4,0.301092044,-0.001300068,1,0,0,0.845,optionRight,80,3525,2,19,0,19,0,1,,,,,,,,,,,,,,,,,,,,,,,,,,,,,,,,,,,,,,,
,,,,,,,,08-16-2023_08h31.21.722,HF_wild_card,2022.2.4,Win32,60.0276127,62fb7a7a78d3bbcf82ac4083,64d2fd46c836a06233681665,64dc7b35998f49eb8ba08db5,,,,,,,decisionTrl,resources/DY.BMP,resources/DBN.BMP,Door2,-0.443577711,0.02574103,1,0,0,1.4448,optionLeft,20,3545,2,20,0,20,0,1,,,,,,,,,,,,,,,,,,,,,,,,,,,,,,,,,,,,,,,
,,,,,,,,08-16-2023_08h31.21.722,HF_wild_card,2022.2.4,Win32,60.0276127,62fb7a7a78d3bbcf82ac4083,64d2fd46c836a06233681665,64dc7b35998f49eb8ba08db5,,,,,,,decisionTrl,resources/DY.BMP,resources/DBN.BMP,Door2,-0.297971919,0.015340582,1,0,0,1.0667,optionLeft,20,3565,2,21,0,21,0,1,,,,,,,,,,,,,,,,,,,,,,,,,,,,,,,,,,,,,,,
,,,,,,,,08-16-2023_08h31.21.722,HF_wild_card,2022.2.4,Win32,60.0276127,62fb7a7a78d3bbcf82ac4083,64d2fd46c836a06233681665,64dc7b35998f49eb8ba08db5,,,,,,,sngl,resources/DG.BMP,resources/Empty.png,Door3,-0.43525741,0.016380655,1,0,0,0.821,optionLeft,70,3635,2,22,0,22,0,1,,,,,,,,,,,,,,,,,,,,,,,,,,,,,,,,,,,,,,,
,,,,,,,,08-16-2023_08h31.21.722,HF_wild_card,2022.2.4,Win32,60.0276127,62fb7a7a78d3bbcf82ac4083,64d2fd46c836a06233681665,64dc7b35998f49eb8ba08db5,,,,,,,decisionTrl,resources/DBN.BMP,resources/DP.BMP,Door1,-0.31253247,0.027821081,1,0,0,1.3953,optionLeft,30,3665,2,23,0,23,0,1,,,,,,,,,,,,,,,,,,,,,,,,,,,,,,,,,,,,,,,
,,,,,,,,08-16-2023_08h31.21.722,HF_wild_card,2022.2.4,Win32,60.0276127,62fb7a7a78d3bbcf82ac4083,64d2fd46c836a06233681665,64dc7b35998f49eb8ba08db5,,,,,,,decisionTrl,resources/DBN.BMP,resources/DY.BMP,Door2,0.280291243,0.014300556,1,0,0,2.7665,optionRight,40,3705,2,24,0,24,0,1,,,,,,,,,,,,,,,,,,,,,,,,,,,,,,,,,,,,,,,
,,,,,,,,08-16-2023_08h31.21.722,HF_wild_card,2022.2.4,Win32,60.0276127,62fb7a7a78d3bbcf82ac4083,64d2fd46c836a06233681665,64dc7b35998f49eb8ba08db5,,,,,,,sngl,resources/Empty.png,resources/DG.BMP,Door3,0.35725429,-0.003380167,1,0,0,0.876,optionRight,70,3775,2,25,0,25,0,1,,,,,,,,,,,,,,,,,,,,,,,,,,,,,,,,,,,,,,,
,,,,,,,,08-16-2023_08h31.21.722,HF_wild_card,2022.2.4,Win32,60.0276127,62fb7a7a78d3bbcf82ac4083,64d2fd46c836a06233681665,64dc7b35998f49eb8ba08db5,,,,,,,sngl,resources/Empty.png,resources/DY.BMP,Door2,0.267810744,-0.020020817,1,0,0,0.8619,optionRight,40,3815,2,26,0,26,0,1,,,,,,,,,,,,,,,,,,,,,,,,,,,,,,,,,,,,,,,
,,,,,,,,08-16-2023_08h31.21.722,HF_wild_card,2022.2.4,Win32,60.0276127,62fb7a7a78d3bbcf82ac4083,64d2fd46c836a06233681665,64dc7b35998f49eb8ba08db5,,,,,,,decisionTrl,resources/DY.BMP,resources/DP.BMP,Door2,-0.290691596,0.01950078,1,0,0,1.028,optionLeft,20,3835,2,27,0,27,0,1,,,,,,,,,,,,,,,,,,,,,,,,,,,,,,,,,,,,,,,
,,,,,,,,08-16-2023_08h31.21.722,HF_wild_card,2022.2.4,Win32,60.0276127,62fb7a7a78d3bbcf82ac4083,64d2fd46c836a06233681665,64dc7b35998f49eb8ba08db5,,,,,,,sngl,resources/DY.BMP,resources/Empty.png,Door2,-0.369734789,0.016380655,1,0,0,0.8937,optionLeft,20,3855,2,28,0,28,0,1,,,,,,,,,,,,,,,,,,,,,,,,,,,,,,,,,,,,,,,
,,,,,,,,08-16-2023_08h31.21.722,HF_wild_card,2022.2.4,Win32,60.0276127,62fb7a7a78d3bbcf82ac4083,64d2fd46c836a06233681665,64dc7b35998f49eb8ba08db5,,,,,,,sngl,resources/Empty.png,resources/DBN.BMP,Door1,0.244929797,-0.006500292,1,0,0,1.0441,optionRight,30,3885,2,29,0,29,0,1,,,,,,,,,,,,,,,,,,,,,,,,,,,,,,,,,,,,,,,
,,,,,,,,08-16-2023_08h31.21.722,HF_wild_card,2022.2.4,Win32,60.0276127,62fb7a7a78d3bbcf82ac4083,64d2fd46c836a06233681665,64dc7b35998f49eb8ba08db5,,,,,,,sngl,resources/DBN.BMP,resources/Empty.png,Door1,-0.416536661,0.018460707,1,0,0,0.8941,optionLeft,30,3915,2,30,0,30,0,1,,,,,,,,,,,,,,,,,,,,,,,,,,,,,,,,,,,,,,,
,,,,,,,,08-16-2023_08h31.21.722,HF_wild_card,2022.2.4,Win32,60.0276127,62fb7a7a78d3bbcf82ac4083,64d2fd46c836a06233681665,64dc7b35998f49eb8ba08db5,,,,,,,decisionTrl,resources/DR.BMP,resources/DG.BMP,Door3,0.355174239,-0.006500292,1,0,0,1.4271,optionRight,70,3985,2,31,0,31,0,1,,,,,,,,,,,,,,,,,,,,,,,,,,,,,,,,,,,,,,,
,,,,,,,,08-16-2023_08h31.21.722,HF_wild_card,2022.2.4,Win32,60.0276127,62fb7a7a78d3bbcf82ac4083,64d2fd46c836a06233681665,64dc7b35998f49eb8ba08db5,,,,,,,ctch,resources/DBN.BMP,resources/DR.BMP,Door4,0.293811816,0.044461778,1,0,0,1.0377,optionRight,80,4065,2,32,0,32,0,1,,,,,,,,,,,,,,,,,,,,,,,,,,,,,,,,,,,,,,,
,,,,,,,,08-16-2023_08h31.21.722,HF_wild_card,2022.2.4,Win32,60.0276127,62fb7a7a78d3bbcf82ac4083,64d2fd46c836a06233681665,64dc7b35998f49eb8ba08db5,,,,,,,sngl,resources/DR.BMP,resources/Empty.png,Door4,-0.364534566,-0.001300068,1,0,0,0.8601,optionLeft,60,4125,2,33,0,33,0,1,,,,,,,,,,,,,,,,,,,,,,,,,,,,,,,,,,,,,,,
,,,,,,,,08-16-2023_08h31.21.722,HF_wild_card,2022.2.4,Win32,60.0276127,62fb7a7a78d3bbcf82ac4083,64d2fd46c836a06233681665,64dc7b35998f49eb8ba08db5,,,,,,,decisionTrl,resources/DP.BMP,resources/DY.BMP,Door2,0.322932917,-0.034581415,1,0,0,2.7273,optionRight,40,4165,2,34,0,34,0,1,,,,,,,,,,,,,,,,,,,,,,,,,,,,,,,,,,,,,,,
,,,,,,,,08-16-2023_08h31.21.722,HF_wild_card,2022.2.4,Win32,60.0276127,62fb7a7a78d3bbcf82ac4083,64d2fd46c836a06233681665,64dc7b35998f49eb8ba08db5,,,,,,,sngl,resources/Empty.png,resources/DP.BMP,WildCard_Ex,0.28549142,-0.001300068,1,0,0,0.9934,optionRight,5,4170,2,35,0,35,0,1,,,,,,,,,,,,,,,,,,,,,,,,,,,,,,,,,,,,,,,
,,,,,,,,08-16-2023_08h31.21.722,HF_wild_card,2022.2.4,Win32,60.0276127,62fb7a7a78d3bbcf82ac4083,64d2fd46c836a06233681665,64dc7b35998f49eb8ba08db5,,,,,,,decisionTrl,resources/DBN.BMP,resources/DY.BMP,Door1,-0.354134165,0.015340582,1,0,0,1.6423,optionLeft,30,4200,2,36,0,36,0,1,,,,,,,,,,,,,,,,,,,,,,,,,,,,,,,,,,,,,,,
,,,,,,,,08-16-2023_08h31.21.722,HF_wild_card,2022.2.4,Win32,60.0276127,62fb7a7a78d3bbcf82ac4083,64d2fd46c836a06233681665,64dc7b35998f49eb8ba08db5,,,,,,,ctch,resources/DY.BMP,resources/DG.BMP,Door3,0.485179407,-0.034581415,1,0,0,1.5762,optionRight,70,4270,2,37,0,37,0,1,,,,,,,,,,,,,,,,,,,,,,,,,,,,,,,,,,,,,,,
,,,,,,,,08-16-2023_08h31.21.722,HF_wild_card,2022.2.4,Win32,60.0276127,62fb7a7a78d3bbcf82ac4083,64d2fd46c836a06233681665,64dc7b35998f49eb8ba08db5,,,,,,,ctch,resources/DG.BMP,resources/DY.BMP,Door3,-0.387415465,0.004940182,1,0,0,1.0258,optionLeft,70,4340,2,38,0,38,0,1,,,,,,,,,,,,,,,,,,,,,,,,,,,,,,,,,,,,,,,
,,,,,,,,08-16-2023_08h31.21.722,HF_wild_card,2022.2.4,Win32,60.0276127,62fb7a7a78d3bbcf82ac4083,64d2fd46c836a06233681665,64dc7b35998f49eb8ba08db5,,,,,,,decisionTrl,resources/DY.BMP,resources/DBN.BMP,Door2,-0.299011945,0.066302652,1,0,0,3.0579,optionLeft,40,4380,2,39,0,39,0,1,,,,,,,,,,,,,,,,,,,,,,,,,,,,,,,,,,,,,,,
,,,,,,,,08-16-2023_08h31.21.722,HF_wild_card,2022.2.4,Win32,60.0276127,62fb7a7a78d3bbcf82ac4083,64d2fd46c836a06233681665,64dc7b35998f49eb8ba08db5,,,,,,,decisionTrl,resources/DR.BMP,resources/DP.BMP,Door4,-0.274050946,-0.010660442,1,0,0,2.1101,optionLeft,60,4440,2,40,0,40,0,1,,,,,,,,,,,,,,,,,,,,,,,,,,,,,,,,,,,,,,,
,,,,,,,,08-16-2023_08h31.21.722,HF_wild_card,2022.2.4,Win32,60.0276127,62fb7a7a78d3bbcf82ac4083,64d2fd46c836a06233681665,64dc7b35998f49eb8ba08db5,,,,,,,decisionTrl,resources/DR.BMP,resources/DG.BMP,Door3,0.270930869,0.030941206,1,0,0,1.5199,optionRight,70,4510,2,41,0,41,0,1,,,,,,,,,,,,,,,,,,,,,,,,,,,,,,,,,,,,,,,
,,,,,,,,08-16-2023_08h31.21.722,HF_wild_card,2022.2.4,Win32,60.0276127,62fb7a7a78d3bbcf82ac4083,64d2fd46c836a06233681665,64dc7b35998f49eb8ba08db5,,,,,,,decisionTrl,resources/DP.BMP,resources/DBN.BMP,WildCard_Ex,-0.254290172,-0.006500292,1,0,0,1.3763,optionLeft,5,4515,2,42,0,42,0,1,,,,,,,,,,,,,,,,,,,,,,,,,,,,,,,,,,,,,,,
,,,,,,,,08-16-2023_08h31.21.722,HF_wild_card,2022.2.4,Win32,60.0276127,62fb7a7a78d3bbcf82ac4083,64d2fd46c836a06233681665,64dc7b35998f49eb8ba08db5,,,,,,,decisionTrl,resources/DG.BMP,resources/DR.BMP,Door3,-0.478939158,0.072542902,1,0,0,1.7597,optionLeft,70,4585,2,43,0,43,0,1,,,,,,,,,,,,,,,,,,,,,,,,,,,,,,,,,,,,,,,
,,,,,,,,08-16-2023_08h31.21.722,HF_wild_card,2022.2.4,Win32,60.0276127,62fb7a7a78d3bbcf82ac4083,64d2fd46c836a06233681665,64dc7b35998f49eb8ba08db5,,,,,,,,,,,,,,,,,,,,,,,,,,1,0,1,0,1,,,,,,,,,,,,,,,,,,,,,,,,,,,,,,,,,,
,,,,,,,,08-16-2023_08h31.21.722,HF_wild_card,2022.2.4,Win32,60.0276127,62fb7a7a78d3bbcf82ac4083,64d2fd46c836a06233681665,64dc7b35998f49eb8ba08db5,,,,,,,decisionTrl,resources/DY.BMP,resources/DP.BMP,Door2,-0.383255314,0.057982303,1,0,0,1.6865,optionLeft,20,4605,3,0,0,0,0,1,,,,,,,,,,,,,,,,,,,,,,,,,,,,,,,,,,,,,,,
,,,,,,,,08-16-2023_08h31.21.722,HF_wild_card,2022.2.4,Win32,60.0276127,62fb7a7a78d3bbcf82ac4083,64d2fd46c836a06233681665,64dc7b35998f49eb8ba08db5,,,,,,,decisionTrl,resources/DR.BMP,resources/DG.BMP,Door3,0.251170047,0.01326053,1,0,0,1.1895,optionRight,70,4675,3,1,0,1,0,1,,,,,,,,,,,,,,,,,,,,,,,,,,,,,,,,,,,,,,,
,,,,,,,,08-16-2023_08h31.21.722,HF_wild_card,2022.2.4,Win32,60.0276127,62fb7a7a78d3bbcf82ac4083,64d2fd46c836a06233681665,64dc7b35998f49eb8ba08db5,,,,,,,decisionTrl,resources/DR.BMP,resources/DG.BMP,Door3,0.134685451,0.033021305,1,0,0,1.1947,optionRight,70,4745,3,2,0,2,0,1,,,,,,,,,,,,,,,,,,,,,,,,,,,,,,,,,,,,,,,
,,,,,,,,08-16-2023_08h31.21.722,HF_wild_card,2022.2.4,Win32,60.0276127,62fb7a7a78d3bbcf82ac4083,64d2fd46c836a06233681665,64dc7b35998f49eb8ba08db5,,,,,,,decisionTrl,resources/DG.BMP,resources/DR.BMP,Door4,0.40821636,0.034061331,1,0,0,2.0778,optionRight,60,4805,3,3,0,3,0,1,,,,,,,,,,,,,,,,,,,,,,,,,,,,,,,,,,,,,,,
,,,,,,,,08-16-2023_08h31.21.722,HF_wild_card,2022.2.4,Win32,60.0276127,62fb7a7a78d3bbcf82ac4083,64d2fd46c836a06233681665,64dc7b35998f49eb8ba08db5,,,,,,,decisionTrl,resources/DBN.BMP,resources/DY.BMP,Door2,0.288611544,0.023660931,1,0,0,1.6767,optionRight,20,4825,3,4,0,4,0,1,,,,,,,,,,,,,,,,,,,,,,,,,,,,,,,,,,,,,,,
,,,,,,,,08-16-2023_08h31.21.722,HF_wild_card,2022.2.4,Win32,60.0276127,62fb7a7a78d3bbcf82ac4083,64d2fd46c836a06233681665,64dc7b35998f49eb8ba08db5,,,,,,,decisionTrl,resources/DR.BMP,resources/DG.BMP,Door4,-0.305252194,-0.002340094,1,0,0,1.3753,optionLeft,80,4905,3,5,0,5,0,1,,,,,,,,,,,,,,,,,,,,,,,,,,,,,,,,,,,,,,,
,,,,,,,,08-16-2023_08h31.21.722,HF_wild_card,2022.2.4,Win32,60.0276127,62fb7a7a78d3bbcf82ac4083,64d2fd46c836a06233681665,64dc7b35998f49eb8ba08db5,,,,,,,sngl,resources/DP.BMP,resources/Empty.png,WildCard_Ex,-0.291731669,-0.032501316,1,0,0,1.2778,optionLeft,95,5000,3,6,0,6,0,1,,,,,,,,,,,,,,,,,,,,,,,,,,,,,,,,,,,,,,,
,,,,,,,,08-16-2023_08h31.21.722,HF_wild_card,2022.2.4,Win32,60.0276127,62fb7a7a78d3bbcf82ac4083,64d2fd46c836a06233681665,64dc7b35998f49eb8ba08db5,,,,,,,ctch,resources/DR.BMP,resources/DBN.BMP,Door4,-0.335413417,0.017420681,1,0,0,1.1442,optionLeft,80,5080,3,7,0,7,0,1,,,,,,,,,,,,,,,,,,,,,,,,,,,,,,,,,,,,,,,
,,,,,,,,08-16-2023_08h31.21.722,HF_wild_card,2022.2.4,Win32,60.0276127,62fb7a7a78d3bbcf82ac4083,64d2fd46c836a06233681665,64dc7b35998f49eb8ba08db5,,,,,,,sngl,resources/DR.BMP,resources/Empty.png,Door4,-0.387415465,-0.032501316,1,0,0,0.8619,optionLeft,80,5160,3,8,0,8,0,1,,,,,,,,,,,,,,,,,,,,,,,,,,,,,,,,,,,,,,,
,,,,,,,,08-16-2023_08h31.21.722,HF_wild_card,2022.2.4,Win32,60.0276127,62fb7a7a78d3bbcf82ac4083,64d2fd46c836a06233681665,64dc7b35998f49eb8ba08db5,,,,,,,decisionTrl,resources/DY.BMP,resources/DBN.BMP,Door1,0.277171119,0.024700956,1,0,0,1.8089,optionRight,30,5190,3,9,0,9,0,1,,,,,,,,,,,,,,,,,,,,,,,,,,,,,,,,,,,,,,,
,,,,,,,,08-16-2023_08h31.21.722,HF_wild_card,2022.2.4,Win32,60.0276127,62fb7a7a78d3bbcf82ac4083,64d2fd46c836a06233681665,64dc7b35998f49eb8ba08db5,,,,,,,ctch,resources/DY.BMP,resources/DG.BMP,Door2,-0.269890796,0.009100332,1,0,0,1.177,optionLeft,40,5230,3,10,0,10,0,1,,,,,,,,,,,,,,,,,,,,,,,,,,,,,,,,,,,,,,,
,,,,,,,,08-16-2023_08h31.21.722,HF_wild_card,2022.2.4,Win32,60.0276127,62fb7a7a78d3bbcf82ac4083,64d2fd46c836a06233681665,64dc7b35998f49eb8ba08db5,,,,,,,decisionTrl,resources/DG.BMP,resources/DR.BMP,Door3,-0.230369199,0.010140406,1,0,0,2.2096,optionLeft,70,5300,3,11,0,11,0,1,,,,,,,,,,,,,,,,,,,,,,,,,,,,,,,,,,,,,,,
,,,,,,,,08-16-2023_08h31.21.722,HF_wild_card,2022.2.4,Win32,60.0276127,62fb7a7a78d3bbcf82ac4083,64d2fd46c836a06233681665,64dc7b35998f49eb8ba08db5,,,,,,,decisionTrl,resources/DY.BMP,resources/DBN.BMP,Door2,-0.263650546,-0.012740541,1,0,0,1.4094,optionLeft,40,5340,3,12,0,12,0,1,,,,,,,,,,,,,,,,,,,,,,,,,,,,,,,,,,,,,,,
,,,,,,,,08-16-2023_08h31.21.722,HF_wild_card,2022.2.4,Win32,60.0276127,62fb7a7a78d3bbcf82ac4083,64d2fd46c836a06233681665,64dc7b35998f49eb8ba08db5,,,,,,,decisionTrl,resources/DBN.BMP,resources/DY.BMP,Door2,0.290691691,0.016380655,1,0,0,1.1278,optionRight,20,5360,3,13,0,13,0,1,,,,,,,,,,,,,,,,,,,,,,,,,,,,,,,,,,,,,,,
,,,,,,,,08-16-2023_08h31.21.722,HF_wild_card,2022.2.4,Win32,60.0276127,62fb7a7a78d3bbcf82ac4083,64d2fd46c836a06233681665,64dc7b35998f49eb8ba08db5,,,,,,,sngl,resources/DBN.BMP,resources/Empty.png,Door1,-0.319812793,0.005980207,1,0,0,1.026,optionLeft,30,5390,3,14,0,14,0,1,,,,,,,,,,,,,,,,,,,,,,,,,,,,,,,,,,,,,,,
,,,,,,,,08-16-2023_08h31.21.722,HF_wild_card,2022.2.4,Win32,60.0276127,62fb7a7a78d3bbcf82ac4083,64d2fd46c836a06233681665,64dc7b35998f49eb8ba08db5,,,,,,,ctch,resources/DBN.BMP,resources/DR.BMP,Door4,0.186687499,-0.026261066,1,0,0,1.4331,optionRight,80,5470,3,15,0,15,0,1,,,,,,,,,,,,,,,,,,,,,,,,,,,,,,,,,,,,,,,
,,,,,,,,08-16-2023_08h31.21.722,HF_wild_card,2022.2.4,Win32,60.0276127,62fb7a7a78d3bbcf82ac4083,64d2fd46c836a06233681665,64dc7b35998f49eb8ba08db5,,,,,,,decisionTrl,resources/DP.BMP,resources/DG.BMP,WildCard_Ex,-0.318772719,-0.008580343,1,0,0,1.8854,optionLeft,5,5475,3,16,0,16,0,1,,,,,,,,,,,,,,,,,,,,,,,,,,,,,,,,,,,,,,,
,,,,,,,,08-16-2023_08h31.21.722,HF_wild_card,2022.2.4,Win32,60.0276127,62fb7a7a78d3bbcf82ac4083,64d2fd46c836a06233681665,64dc7b35998f49eb8ba08db5,,,,,,,decisionTrl,resources/DP.BMP,resources/DY.BMP,Door2,0.259490443,0.014300556,1,0,0,1.6782,optionRight,40,5515,3,17,0,17,0,1,,,,,,,,,,,,,,,,,,,,,,,,,,,,,,,,,,,,,,,
,,,,,,,,08-16-2023_08h31.21.722,HF_wild_card,2022.2.4,Win32,60.0276127,62fb7a7a78d3bbcf82ac4083,64d2fd46c836a06233681665,64dc7b35998f49eb8ba08db5,,,,,,,decisionTrl,resources/DP.BMP,resources/DBN.BMP,WildCard_Ex,-0.210608424,-0.006500292,1,0,0,1.4557,optionLeft,95,5610,3,18,0,18,0,1,,,,,,,,,,,,,,,,,,,,,,,,,,,,,,,,,,,,,,,
,,,,,,,,08-16-2023_08h31.21.722,HF_wild_card,2022.2.4,Win32,60.0276127,62fb7a7a78d3bbcf82ac4083,64d2fd46c836a06233681665,64dc7b35998f49eb8ba08db5,,,,,,,sngl,resources/DY.BMP,resources/Empty.png,Door2,-0.223088924,0.055902204,1,0,0,7.4411,optionLeft,40,5650,3,19,0,19,0,1,,,,,,,,,,,,,,,,,,,,,,,,,,,,,,,,,,,,,,,
,,,,,,,,08-16-2023_08h31.21.722,HF_wild_card,2022.2.4,Win32,60.0276127,62fb7a7a78d3bbcf82ac4083,64d2fd46c836a06233681665,64dc7b35998f49eb8ba08db5,,,,,,,ctch,resources/DG.BMP,resources/DY.BMP,Door3,-0.305252194,-0.022100916,1,0,0,1.4109,optionLeft,70,5720,3,20,0,20,0,1,,,,,,,,,,,,,,,,,,,,,,,,,,,,,,,,,,,,,,,
,,,,,,,,08-16-2023_08h31.21.722,HF_wild_card,2022.2.4,Win32,60.0276127,62fb7a7a78d3bbcf82ac4083,64d2fd46c836a06233681665,64dc7b35998f49eb8ba08db5,,,,,,,sngl,resources/Empty.png,resources/DG.BMP,Door3,0.226209048,-0.002340094,1,0,0,0.9586,optionRight,70,5790,3,21,0,21,0,1,,,,,,,,,,,,,,,,,,,,,,,,,,,,,,,,,,,,,,,
,,,,,,,,08-16-2023_08h31.21.722,HF_wild_card,2022.2.4,Win32,60.0276127,62fb7a7a78d3bbcf82ac4083,64d2fd46c836a06233681665,64dc7b35998f49eb8ba08db5,,,,,,,decisionTrl,resources/DG.BMP,resources/DP.BMP,Door3,-0.332293292,0.017420681,1,0,0,0.9777,optionLeft,70,5860,3,22,0,22,0,1,,,,,,,,,,,,,,,,,,,,,,,,,,,,,,,,,,,,,,,
,,,,,,,,08-16-2023_08h31.21.722,HF_wild_card,2022.2.4,Win32,60.0276127,62fb7a7a78d3bbcf82ac4083,64d2fd46c836a06233681665,64dc7b35998f49eb8ba08db5,,,,,,,sngl,resources/DG.BMP,resources/Empty.png,Door3,-0.370774815,0.026781055,1,0,0,0.7923,optionLeft,70,5930,3,23,0,23,0,1,,,,,,,,,,,,,,,,,,,,,,,,,,,,,,,,,,,,,,,
,,,,,,,,08-16-2023_08h31.21.722,HF_wild_card,2022.2.4,Win32,60.0276127,62fb7a7a78d3bbcf82ac4083,64d2fd46c836a06233681665,64dc7b35998f49eb8ba08db5,,,,,,,ctch,resources/DG.BMP,resources/DY.BMP,Door3,-0.346853842,0.003900156,1,0,0,0.976,optionLeft,70,6000,3,24,0,24,0,1,,,,,,,,,,,,,,,,,,,,,,,,,,,,,,,,,,,,,,,
,,,,,,,,08-16-2023_08h31.21.722,HF_wild_card,2022.2.4,Win32,60.0276127,62fb7a7a78d3bbcf82ac4083,64d2fd46c836a06233681665,64dc7b35998f49eb8ba08db5,,,,,,,decisionTrl,resources/DY.BMP,resources/DBN.BMP,Door2,-0.321892844,-0.024180967,1,0,0,1.6106,optionLeft,40,6040,3,25,0,25,0,1,,,,,,,,,,,,,,,,,,,,,,,,,,,,,,,,,,,,,,,
,,,,,,,,08-16-2023_08h31.21.722,HF_wild_card,2022.2.4,Win32,60.0276127,62fb7a7a78d3bbcf82ac4083,64d2fd46c836a06233681665,64dc7b35998f49eb8ba08db5,,,,,,,decisionTrl,resources/DBN.BMP,resources/DY.BMP,Door2,0.274050994,0.017420681,1,0,0,1.1266,optionRight,40,6080,3,26,0,26,0,1,,,,,,,,,,,,,,,,,,,,,,,,,,,,,,,,,,,,,,,
,,,,,,,,08-16-2023_08h31.21.722,HF_wild_card,2022.2.4,Win32,60.0276127,62fb7a7a78d3bbcf82ac4083,64d2fd46c836a06233681665,64dc7b35998f49eb8ba08db5,,,,,,,decisionTrl,resources/DG.BMP,resources/DR.BMP,Door3,-0.371814841,0.023660931,1,0,0,1.8455,optionLeft,70,6150,3,27,0,27,0,1,,,,,,,,,,,,,,,,,,,,,,,,,,,,,,,,,,,,,,,
,,,,,,,,08-16-2023_08h31.21.722,HF_wild_card,2022.2.4,Win32,60.0276127,62fb7a7a78d3bbcf82ac4083,64d2fd46c836a06233681665,64dc7b35998f49eb8ba08db5,,,,,,,ctch,resources/DR.BMP,resources/DBN.BMP,Door4,-0.466458658,0.04030158,1,0,0,4.8417,optionLeft,60,6210,3,28,0,28,0,1,,,,,,,,,,,,,,,,,,,,,,,,,,,,,,,,,,,,,,,
,,,,,,,,08-16-2023_08h31.21.722,HF_wild_card,2022.2.4,Win32,60.0276127,62fb7a7a78d3bbcf82ac4083,64d2fd46c836a06233681665,64dc7b35998f49eb8ba08db5,,,,,,,sngl,resources/DP.BMP,resources/Empty.png,WildCard_Ex,-0.421736838,0.024700956,1,0,0,2.1269,optionLeft,5,6215,3,29,0,29,0,1,,,,,,,,,,,,,,,,,,,,,,,,,,,,,,,,,,,,,,,
,,,,,,,,08-16-2023_08h31.21.722,HF_wild_card,2022.2.4,Win32,60.0276127,62fb7a7a78d3bbcf82ac4083,64d2fd46c836a06233681665,64dc7b35998f49eb8ba08db5,,,,,,,decisionTrl,resources/DY.BMP,resources/DBN.BMP,Door2,-0.244929797,-0.124024961,1,0,0,1.9609,optionLeft,20,6235,3,30,0,30,0,1,,,,,,,,,,,,,,,,,,,,,,,,,,,,,,,,,,,,,,,
,,,,,,,,08-16-2023_08h31.21.722,HF_wild_card,2022.2.4,Win32,60.0276127,62fb7a7a78d3bbcf82ac4083,64d2fd46c836a06233681665,64dc7b35998f49eb8ba08db5,,,,,,,decisionTrl,resources/DBN.BMP,resources/DP.BMP,WildCard_Ex,0.413416537,0.007020281,1,0,0,1.112,optionRight,5,6240,3,31,0,31,0,1,,,,,,,,,,,,,,,,,,,,,,,,,,,,,,,,,,,,,,,
,,,,,,,,08-16-2023_08h31.21.722,HF_wild_card,2022.2.4,Win32,60.0276127,62fb7a7a78d3bbcf82ac4083,64d2fd46c836a06233681665,64dc7b35998f49eb8ba08db5,,,,,,,decisionTrl,resources/DR.BMP,resources/DG.BMP,Door4,-0.406136214,0.024700956,1,0,0,1.0778,optionLeft,80,6320,3,32,0,32,0,1,,,,,,,,,,,,,,,,,,,,,,,,,,,,,,,,,,,,,,,
,,,,,,,,08-16-2023_08h31.21.722,HF_wild_card,2022.2.4,Win32,60.0276127,62fb7a7a78d3bbcf82ac4083,64d2fd46c836a06233681665,64dc7b35998f49eb8ba08db5,,,,,,,ctch,resources/DBN.BMP,resources/DR.BMP,Door4,0.299011992,0.008060307,1,0,0,1.0771,optionRight,80,6400,3,33,0,33,0,1,,,,,,,,,,,,,,,,,,,,,,,,,,,,,,,,,,,,,,,
,,,,,,,,08-16-2023_08h31.21.722,HF_wild_card,2022.2.4,Win32,60.0276127,62fb7a7a78d3bbcf82ac4083,64d2fd46c836a06233681665,64dc7b35998f49eb8ba08db5,,,,,,,ctch,resources/DY.BMP,resources/DG.BMP,Door3,0.268850818,-0.006500292,1,0,0,1.1927,optionRight,70,6470,3,34,0,34,0,1,,,,,,,,,,,,,,,,,,,,,,,,,,,,,,,,,,,,,,,
,,,,,,,,08-16-2023_08h31.21.722,HF_wild_card,2022.2.4,Win32,60.0276127,62fb7a7a78d3bbcf82ac4083,64d2fd46c836a06233681665,64dc7b35998f49eb8ba08db5,,,,,,,sngl,resources/Empty.png,resources/DP.BMP,WildCard_Ex,0.264690619,-0.036661466,1,0,0,0.9266,optionRight,5,6475,3,35,0,35,0,1,,,,,,,,,,,,,,,,,,,,,,,,,,,,,,,,,,,,,,,
,,,,,,,,08-16-2023_08h31.21.722,HF_wild_card,2022.2.4,Win32,60.0276127,62fb7a7a78d3bbcf82ac4083,64d2fd46c836a06233681665,64dc7b35998f49eb8ba08db5,,,,,,,sngl,resources/Empty.png,resources/DBN.BMP,Door1,0.226209048,0.02990118,1,0,0,1.1953,optionRight,30,6505,3,36,0,36,0,1,,,,,,,,,,,,,,,,,,,,,,,,,,,,,,,,,,,,,,,
,,,,,,,,08-16-2023_08h31.21.722,HF_wild_card,2022.2.4,Win32,60.0276127,62fb7a7a78d3bbcf82ac4083,64d2fd46c836a06233681665,64dc7b35998f49eb8ba08db5,,,,,,,sngl,resources/Empty.png,resources/DR.BMP,Door4,0.237649569,-0.005460218,1,0,0,0.963,optionRight,60,6565,3,37,0,37,0,1,,,,,,,,,,,,,,,,,,,,,,,,,,,,,,,,,,,,,,,
,,,,,,,,08-16-2023_08h31.21.722,HF_wild_card,2022.2.4,Win32,60.0276127,62fb7a7a78d3bbcf82ac4083,64d2fd46c836a06233681665,64dc7b35998f49eb8ba08db5,,,,,,,decisionTrl,resources/DP.BMP,resources/DR.BMP,Door4,0.27925117,-0.017940718,1,0,0,1.3281,optionRight,60,6625,3,38,0,38,0,1,,,,,,,,,,,,,,,,,,,,,,,,,,,,,,,,,,,,,,,
,,,,,,,,08-16-2023_08h31.21.722,HF_wild_card,2022.2.4,Win32,60.0276127,62fb7a7a78d3bbcf82ac4083,64d2fd46c836a06233681665,64dc7b35998f49eb8ba08db5,,,,,,,decisionTrl,resources/DBN.BMP,resources/DY.BMP,Door2,0.319812793,0.000780031,1,0,0,1.3194,optionRight,20,6645,3,39,0,39,0,1,,,,,,,,,,,,,,,,,,,,,,,,,,,,,,,,,,,,,,,
,,,,,,,,08-16-2023_08h31.21.722,HF_wild_card,2022.2.4,Win32,60.0276127,62fb7a7a78d3bbcf82ac4083,64d2fd46c836a06233681665,64dc7b35998f49eb8ba08db5,,,,,,,sngl,resources/Empty.png,resources/DY.BMP,Door2,0.151326053,-0.024180967,1,0,0,0.9782,optionRight,20,6665,3,40,0,40,0,1,,,,,,,,,,,,,,,,,,,,,,,,,,,,,,,,,,,,,,,
,,,,,,,,08-16-2023_08h31.21.722,HF_wild_card,2022.2.4,Win32,60.0276127,62fb7a7a78d3bbcf82ac4083,64d2fd46c836a06233681665,64dc7b35998f49eb8ba08db5,,,,,,,decisionTrl,resources/DR.BMP,resources/DP.BMP,Door4,-0.263650546,0.02990118,1,0,0,1.5434,optionLeft,80,6745,3,41,0,41,0,1,,,,,,,,,,,,,,,,,,,,,,,,,,,,,,,,,,,,,,,
,,,,,,,,08-16-2023_08h31.21.722,HF_wild_card,2022.2.4,Win32,60.0276127,62fb7a7a78d3bbcf82ac4083,64d2fd46c836a06233681665,64dc7b35998f49eb8ba08db5,,,,,,,sngl,resources/Empty.png,resources/DP.BMP,WildCard_Ex,0.191887676,-0.012740541,1,0,0,1.0192,optionRight,95,6840,3,42,0,42,0,1,,,,,,,,,,,,,,,,,,,,,,,,,,,,,,,,,,,,,,,
,,,,,,,,08-16-2023_08h31.21.722,HF_wild_card,2022.2.4,Win32,60.0276127,62fb7a7a78d3bbcf82ac4083,64d2fd46c836a06233681665,64dc7b35998f49eb8ba08db5,,,,,,,decisionTrl,resources/DG.BMP,resources/DR.BMP,Door3,-0.297971919,-0.006500292,1,0,0,1.5111,optionLeft,70,6910,3,43,0,43,0,1,,,,,,,,,,,,,,,,,,,,,,,,,,,,,,,,,,,,,,,
,,,,,,,,08-16-2023_08h31.21.722,HF_wild_card,2022.2.4,Win32,60.0276127,62fb7a7a78d3bbcf82ac4083,64d2fd46c836a06233681665,64dc7b35998f49eb8ba08db5,,,,,,,,,,,,,,,,,,,,,,,,,,2,0,2,0,1,,,,,,,,,,,,,,,,,,,,,,,,,,,,,,,,,,
,,,,,,,,08-16-2023_08h31.21.722,HF_wild_card,2022.2.4,Win32,60.0276127,62fb7a7a78d3bbcf82ac4083,64d2fd46c836a06233681665,64dc7b35998f49eb8ba08db5,,,,,,,decisionTrl,resources/DB.BMP,resources/DY.BMP,Door2,0.352054114,-0.084503412,1,0,0,4.5639,optionRight,40,6950,4,0,0,0,0,1,,,,,,,,,,,,,,,,,,,,,,,,,,,,,,,,,,,,,,,
,,,,,,,,08-16-2023_08h31.21.722,HF_wild_card,2022.2.4,Win32,60.0276127,62fb7a7a78d3bbcf82ac4083,64d2fd46c836a06233681665,64dc7b35998f49eb8ba08db5,,,,,,,decisionTrl,resources/DBN.BMP,resources/DY.BMP,Door2,0.338533541,-0.008580343,1,0,0,1.1767,optionRight,20,6970,4,1,0,1,0,1,,,,,,,,,,,,,,,,,,,,,,,,,,,,,,,,,,,,,,,
,,,,,,,,08-16-2023_08h31.21.722,HF_wild_card,2022.2.4,Win32,60.0276127,62fb7a7a78d3bbcf82ac4083,64d2fd46c836a06233681665,64dc7b35998f49eb8ba08db5,,,,,,,sngl,resources/Empty.png,resources/DY.BMP,Door2,0.327093115,-0.001300068,1,0,0,0.8775,optionRight,40,7010,4,2,0,2,0,1,,,,,,,,,,,,,,,,,,,,,,,,,,,,,,,,,,,,,,,
,,,,,,,,08-16-2023_08h31.21.722,HF_wild_card,2022.2.4,Win32,60.0276127,62fb7a7a78d3bbcf82ac4083,64d2fd46c836a06233681665,64dc7b35998f49eb8ba08db5,,,,,,,decisionTrl,resources/DBN.BMP,resources/DY.BMP,Door2,0.269890796,-0.010660442,1,0,0,1.1261,optionRight,20,7030,4,3,0,3,0,1,,,,,,,,,,,,,,,,,,,,,,,,,,,,,,,,,,,,,,,
,,,,,,,,08-16-2023_08h31.21.722,HF_wild_card,2022.2.4,Win32,60.0276127,62fb7a7a78d3bbcf82ac4083,64d2fd46c836a06233681665,64dc7b35998f49eb8ba08db5,,,,,,,decisionTrl,resources/DBN.BMP,resources/DY.BMP,Door2,0.310452418,0.037181456,1,0,0,1.386,optionRight,20,7050,4,4,0,4,0,1,,,,,,,,,,,,,,,,,,,,,,,,,,,,,,,,,,,,,,,
,,,,,,,,08-16-2023_08h31.21.722,HF_wild_card,2022.2.4,Win32,60.0276127,62fb7a7a78d3bbcf82ac4083,64d2fd46c836a06233681665,64dc7b35998f49eb8ba08db5,,,,,,,decisionTrl,resources/DY.BMP,resources/DBN.BMP,Door1,0.294851794,0.022620905,1,0,0,1.3614,optionRight,30,7080,4,5,0,5,0,1,,,,,,,,,,,,,,,,,,,,,,,,,,,,,,,,,,,,,,,
,,,,,,,,08-16-2023_08h31.21.722,HF_wild_card,2022.2.4,Win32,60.0276127,62fb7a7a78d3bbcf82ac4083,64d2fd46c836a06233681665,64dc7b35998f49eb8ba08db5,,,,,,,decisionTrl,resources/DY.BMP,resources/DBN.BMP,Door1,0.378055186,0.017420681,1,0,0,0.9124,optionRight,30,7110,4,6,0,6,0,1,,,,,,,,,,,,,,,,,,,,,,,,,,,,,,,,,,,,,,,
,,,,,,,,08-16-2023_08h31.21.722,HF_wild_card,2022.2.4,Win32,60.0276127,62fb7a7a78d3bbcf82ac4083,64d2fd46c836a06233681665,64dc7b35998f49eb8ba08db5,,,,,,,decisionTrl,resources/DB.BMP,resources/DBN.BMP,WildCard_NonEx,-0.434217337,0.049661955,1,0,0,1.3041,optionLeft,45,7155,4,7,0,7,0,1,,,,,,,,,,,,,,,,,,,,,,,,,,,,,,,,,,,,,,,
,,,,,,,,08-16-2023_08h31.21.722,HF_wild_card,2022.2.4,Win32,60.0276127,62fb7a7a78d3bbcf82ac4083,64d2fd46c836a06233681665,64dc7b35998f49eb8ba08db5,,,,,,,decisionTrl,resources/DG.BMP,resources/DR.BMP,Door3,-0.308372319,0.024700956,1,0,0,2.6178,optionLeft,70,7225,4,8,0,8,0,1,,,,,,,,,,,,,,,,,,,,,,,,,,,,,,,,,,,,,,,
,,,,,,,,08-16-2023_08h31.21.722,HF_wild_card,2022.2.4,Win32,60.0276127,62fb7a7a78d3bbcf82ac4083,64d2fd46c836a06233681665,64dc7b35998f49eb8ba08db5,,,,,,,decisionTrl,resources/DR.BMP,resources/DG.BMP,Door3,0.362454562,0.004940182,1,0,0,0.863,optionRight,70,7295,4,9,0,9,0,1,,,,,,,,,,,,,,,,,,,,,,,,,,,,,,,,,,,,,,,
,,,,,,,,08-16-2023_08h31.21.722,HF_wild_card,2022.2.4,Win32,60.0276127,62fb7a7a78d3bbcf82ac4083,64d2fd46c836a06233681665,64dc7b35998f49eb8ba08db5,,,,,,,decisionTrl,resources/DG.BMP,resources/DR.BMP,Door3,-0.292771695,0.033021305,1,0,0,0.9293,optionLeft,70,7365,4,10,0,10,0,1,,,,,,,,,,,,,,,,,,,,,,,,,,,,,,,,,,,,,,,
,,,,,,,,08-16-2023_08h31.21.722,HF_wild_card,2022.2.4,Win32,60.0276127,62fb7a7a78d3bbcf82ac4083,64d2fd46c836a06233681665,64dc7b35998f49eb8ba08db5,,,,,,,ctch,resources/DY.BMP,resources/DG.BMP,Door3,0.327093115,-0.023140942,1,0,0,0.9123,optionRight,70,7435,4,11,0,11,0,1,,,,,,,,,,,,,,,,,,,,,,,,,,,,,,,,,,,,,,,
,,,,,,,,08-16-2023_08h31.21.722,HF_wild_card,2022.2.4,Win32,60.0276127,62fb7a7a78d3bbcf82ac4083,64d2fd46c836a06233681665,64dc7b35998f49eb8ba08db5,,,,,,,sngl,resources/Empty.png,resources/DBN.BMP,Door1,0.204368175,0.009100332,1,0,0,1.0472,optionRight,30,7465,4,12,0,12,0,1,,,,,,,,,,,,,,,,,,,,,,,,,,,,,,,,,,,,,,,
,,,,,,,,08-16-2023_08h31.21.722,HF_wild_card,2022.2.4,Win32,60.0276127,62fb7a7a78d3bbcf82ac4083,64d2fd46c836a06233681665,64dc7b35998f49eb8ba08db5,,,,,,,sngl,resources/Empty.png,resources/DR.BMP,Door4,0.152366126,-0.008580343,1,0,0,0.9626,optionRight,80,7545,4,13,0,13,0,1,,,,,,,,,,,,,,,,,,,,,,,,,,,,,,,,,,,,,,,
,,,,,,,,08-16-2023_08h31.21.722,HF_wild_card,2022.2.4,Win32,60.0276127,62fb7a7a78d3bbcf82ac4083,64d2fd46c836a06233681665,64dc7b35998f49eb8ba08db5,,,,,,,sngl,resources/DR.BMP,resources/Empty.png,Door4,-0.318772719,0.016380655,1,0,0,0.8125,optionLeft,60,7605,4,14,0,14,0,1,,,,,,,,,,,,,,,,,,,,,,,,,,,,,,,,,,,,,,,
,,,,,,,,08-16-2023_08h31.21.722,HF_wild_card,2022.2.4,Win32,60.0276127,62fb7a7a78d3bbcf82ac4083,64d2fd46c836a06233681665,64dc7b35998f49eb8ba08db5,,,,,,,ctch,resources/DG.BMP,resources/DY.BMP,Door3,-0.223088924,0.021580831,1,0,0,1.1941,optionLeft,70,7675,4,15,0,15,0,1,,,,,,,,,,,,,,,,,,,,,,,,,,,,,,,,,,,,,,,
,,,,,,,,08-16-2023_08h31.21.722,HF_wild_card,2022.2.4,Win32,60.0276127,62fb7a7a78d3bbcf82ac4083,64d2fd46c836a06233681665,64dc7b35998f49eb8ba08db5,,,,,,,decisionTrl,resources/DBN.BMP,resources/DB.BMP,Door1,-0.431097212,0.038221529,1,0,0,2.9914,optionLeft,30,7705,4,16,0,16,0,1,,,,,,,,,,,,,,,,,,,,,,,,,,,,,,,,,,,,,,,
,,,,,,,,08-16-2023_08h31.21.722,HF_wild_card,2022.2.4,Win32,60.0276127,62fb7a7a78d3bbcf82ac4083,64d2fd46c836a06233681665,64dc7b35998f49eb8ba08db5,,,,,,,ctch,resources/DR.BMP,resources/DBN.BMP,Door4,-0.325012969,0.061102428,1,0,0,1.145,optionLeft,80,7785,4,17,0,17,0,1,,,,,,,,,,,,,,,,,,,,,,,,,,,,,,,,,,,,,,,
,,,,,,,,08-16-2023_08h31.21.722,HF_wild_card,2022.2.4,Win32,60.0276127,62fb7a7a78d3bbcf82ac4083,64d2fd46c836a06233681665,64dc7b35998f49eb8ba08db5,,,,,,,ctch,resources/DG.BMP,resources/DY.BMP,Door3,-0.28549142,0.027821081,1,0,0,1.1739,optionLeft,70,7855,4,18,0,18,0,1,,,,,,,,,,,,,,,,,,,,,,,,,,,,,,,,,,,,,,,
,,,,,,,,08-16-2023_08h31.21.722,HF_wild_card,2022.2.4,Win32,60.0276127,62fb7a7a78d3bbcf82ac4083,64d2fd46c836a06233681665,64dc7b35998f49eb8ba08db5,,,,,,,sngl,resources/DB.BMP,resources/Empty.png,WildCard_NonEx,-0.27925117,0.017420681,1,0,0,0.9593,optionLeft,45,7900,4,19,0,19,0,1,,,,,,,,,,,,,,,,,,,,,,,,,,,,,,,,,,,,,,,
,,,,,,,,08-16-2023_08h31.21.722,HF_wild_card,2022.2.4,Win32,60.0276127,62fb7a7a78d3bbcf82ac4083,64d2fd46c836a06233681665,64dc7b35998f49eb8ba08db5,,,,,,,decisionTrl,resources/DG.BMP,resources/DR.BMP,Door4,0.217888747,0.01326053,1,0,0,2.3606,optionRight,80,7980,4,20,0,20,0,1,,,,,,,,,,,,,,,,,,,,,,,,,,,,,,,,,,,,,,,
,,,,,,,,08-16-2023_08h31.21.722,HF_wild_card,2022.2.4,Win32,60.0276127,62fb7a7a78d3bbcf82ac4083,64d2fd46c836a06233681665,64dc7b35998f49eb8ba08db5,,,,,,,sngl,resources/DBN.BMP,resources/Empty.png,Door1,-0.327093068,0.051742054,1,0,0,0.8552,optionLeft,30,8010,4,21,0,21,0,1,,,,,,,,,,,,,,,,,,,,,,,,,,,,,,,,,,,,,,,
,,,,,,,,08-16-2023_08h31.21.722,HF_wild_card,2022.2.4,Win32,60.0276127,62fb7a7a78d3bbcf82ac4083,64d2fd46c836a06233681665,64dc7b35998f49eb8ba08db5,,,,,,,decisionTrl,resources/DB.BMP,resources/DG.BMP,Door3,0.20124805,-0.010660442,1,0,0,1.196,optionRight,70,8080,4,22,0,22,0,1,,,,,,,,,,,,,,,,,,,,,,,,,,,,,,,,,,,,,,,
,,,,,,,,08-16-2023_08h31.21.722,HF_wild_card,2022.2.4,Win32,60.0276127,62fb7a7a78d3bbcf82ac4083,64d2fd46c836a06233681665,64dc7b35998f49eb8ba08db5,,,,,,,decisionTrl,resources/DG.BMP,resources/DR.BMP,Door4,0.162766574,0.021580831,1,0,0,1.3776,optionRight,60,8140,4,23,0,23,0,1,,,,,,,,,,,,,,,,,,,,,,,,,,,,,,,,,,,,,,,
,,,,,,,,08-16-2023_08h31.21.722,HF_wild_card,2022.2.4,Win32,60.0276127,62fb7a7a78d3bbcf82ac4083,64d2fd46c836a06233681665,64dc7b35998f49eb8ba08db5,,,,,,,decisionTrl,resources/DG.BMP,resources/DB.BMP,Door3,-0.1950078,0.038221529,1,0,0,1.2945,optionLeft,70,8210,4,24,0,24,0,1,,,,,,,,,,,,,,,,,,,,,,,,,,,,,,,,,,,,,,,
,,,,,,,,08-16-2023_08h31.21.722,HF_wild_card,2022.2.4,Win32,60.0276127,62fb7a7a78d3bbcf82ac4083,64d2fd46c836a06233681665,64dc7b35998f49eb8ba08db5,,,,,,,ctch,resources/DR.BMP,resources/DBN.BMP,Door4,-0.329173167,0.012220457,1,0,0,1.9961,optionLeft,80,8290,4,25,0,25,0,1,,,,,,,,,,,,,,,,,,,,,,,,,,,,,,,,,,,,,,,
,,,,,,,,08-16-2023_08h31.21.722,HF_wild_card,2022.2.4,Win32,60.0276127,62fb7a7a78d3bbcf82ac4083,64d2fd46c836a06233681665,64dc7b35998f49eb8ba08db5,,,,,,,sngl,resources/Empty.png,resources/DB.BMP,WildCard_NonEx,0.204368175,-0.023140942,1,0,0,1.1593,optionRight,55,8345,4,26,0,26,0,1,,,,,,,,,,,,,,,,,,,,,,,,,,,,,,,,,,,,,,,
,,,,,,,,08-16-2023_08h31.21.722,HF_wild_card,2022.2.4,Win32,60.0276127,62fb7a7a78d3bbcf82ac4083,64d2fd46c836a06233681665,64dc7b35998f49eb8ba08db5,,,,,,,sngl,resources/DY.BMP,resources/Empty.png,Door2,-0.280291196,0.039261555,1,0,0,0.8795,optionLeft,20,8365,4,27,0,27,0,1,,,,,,,,,,,,,,,,,,,,,,,,,,,,,,,,,,,,,,,
,,,,,,,,08-16-2023_08h31.21.722,HF_wild_card,2022.2.4,Win32,60.0276127,62fb7a7a78d3bbcf82ac4083,64d2fd46c836a06233681665,64dc7b35998f49eb8ba08db5,,,,,,,sngl,resources/Empty.png,resources/DG.BMP,Door3,0.152366126,-0.002340094,1,0,0,0.9106,optionRight,70,8435,4,28,0,28,0,1,,,,,,,,,,,,,,,,,,,,,,,,,,,,,,,,,,,,,,,
,,,,,,,,08-16-2023_08h31.21.722,HF_wild_card,2022.2.4,Win32,60.0276127,62fb7a7a78d3bbcf82ac4083,64d2fd46c836a06233681665,64dc7b35998f49eb8ba08db5,,,,,,,ctch,resources/DY.BMP,resources/DG.BMP,Door3,0.204368175,0.009100332,1,0,0,1.2765,optionRight,70,8505,4,29,0,29,0,1,,,,,,,,,,,,,,,,,,,,,,,,,,,,,,,,,,,,,,,
,,,,,,,,08-16-2023_08h31.21.722,HF_wild_card,2022.2.4,Win32,60.0276127,62fb7a7a78d3bbcf82ac4083,64d2fd46c836a06233681665,64dc7b35998f49eb8ba08db5,,,,,,,decisionTrl,resources/DR.BMP,resources/DB.BMP,Door4,-0.292771695,0.056942278,1,0,0,1.3617,optionLeft,80,8585,4,30,0,30,0,1,,,,,,,,,,,,,,,,,,,,,,,,,,,,,,,,,,,,,,,
,,,,,,,,08-16-2023_08h31.21.722,HF_wild_card,2022.2.4,Win32,60.0276127,62fb7a7a78d3bbcf82ac4083,64d2fd46c836a06233681665,64dc7b35998f49eb8ba08db5,,,,,,,decisionTrl,resources/DR.BMP,resources/DG.BMP,Door4,-0.125324981,-0.006500292,1,0,0,3.7749,optionLeft,60,8645,4,31,0,31,0,1,,,,,,,,,,,,,,,,,,,,,,,,,,,,,,,,,,,,,,,
,,,,,,,,08-16-2023_08h31.21.722,HF_wild_card,2022.2.4,Win32,60.0276127,62fb7a7a78d3bbcf82ac4083,64d2fd46c836a06233681665,64dc7b35998f49eb8ba08db5,,,,,,,decisionTrl,resources/DB.BMP,resources/DR.BMP,Door4,0.197087947,0.007020281,1,0,0,0.9772,optionRight,80,8725,4,32,0,32,0,1,,,,,,,,,,,,,,,,,,,,,,,,,,,,,,,,,,,,,,,
,,,,,,,,08-16-2023_08h31.21.722,HF_wild_card,2022.2.4,Win32,60.0276127,62fb7a7a78d3bbcf82ac4083,64d2fd46c836a06233681665,64dc7b35998f49eb8ba08db5,,,,,,,decisionTrl,resources/DY.BMP,resources/DBN.BMP,Door2,-0.278211097,0.057982303,1,0,0,1.0933,optionLeft,40,8765,4,33,0,33,0,1,,,,,,,,,,,,,,,,,,,,,,,,,,,,,,,,,,,,,,,
,,,,,,,,08-16-2023_08h31.21.722,HF_wild_card,2022.2.4,Win32,60.0276127,62fb7a7a78d3bbcf82ac4083,64d2fd46c836a06233681665,64dc7b35998f49eb8ba08db5,,,,,,,sngl,resources/DG.BMP,resources/Empty.png,Door3,-0.31253247,0.074622953,1,0,0,0.9102,optionLeft,70,8835,4,34,0,34,0,1,,,,,,,,,,,,,,,,,,,,,,,,,,,,,,,,,,,,,,,
,,,,,,,,08-16-2023_08h31.21.722,HF_wild_card,2022.2.4,Win32,60.0276127,62fb7a7a78d3bbcf82ac4083,64d2fd46c836a06233681665,64dc7b35998f49eb8ba08db5,,,,,,,decisionTrl,resources/DY.BMP,resources/DB.BMP,Door2,-0.259490348,0.026781055,1,0,0,1.4779,optionLeft,20,8855,4,35,0,35,0,1,,,,,,,,,,,,,,,,,,,,,,,,,,,,,,,,,,,,,,,
,,,,,,,,08-16-2023_08h31.21.722,HF_wild_card,2022.2.4,Win32,60.0276127,62fb7a7a78d3bbcf82ac4083,64d2fd46c836a06233681665,64dc7b35998f49eb8ba08db5,,,,,,,ctch,resources/DBN.BMP,resources/DR.BMP,Door4,0.186687499,-0.024180967,1,0,0,1.0793,optionRight,80,8935,4,36,0,36,0,1,,,,,,,,,,,,,,,,,,,,,,,,,,,,,,,,,,,,,,,
,,,,,,,,08-16-2023_08h31.21.722,HF_wild_card,2022.2.4,Win32,60.0276127,62fb7a7a78d3bbcf82ac4083,64d2fd46c836a06233681665,64dc7b35998f49eb8ba08db5,,,,,,,decisionTrl,resources/DY.BMP,resources/DBN.BMP,Door2,-0.200207977,0.021580831,1,0,0,0.929,optionLeft,40,8975,4,37,0,37,0,1,,,,,,,,,,,,,,,,,,,,,,,,,,,,,,,,,,,,,,,
,,,,,,,,08-16-2023_08h31.21.722,HF_wild_card,2022.2.4,Win32,60.0276127,62fb7a7a78d3bbcf82ac4083,64d2fd46c836a06233681665,64dc7b35998f49eb8ba08db5,,,,,,,decisionTrl,resources/DR.BMP,resources/DG.BMP,Door4,-0.16484653,0.027821081,1,0,0,1.1773,optionLeft,60,9035,4,38,0,38,0,1,,,,,,,,,,,,,,,,,,,,,,,,,,,,,,,,,,,,,,,
,,,,,,,,08-16-2023_08h31.21.722,HF_wild_card,2022.2.4,Win32,60.0276127,62fb7a7a78d3bbcf82ac4083,64d2fd46c836a06233681665,64dc7b35998f49eb8ba08db5,,,,,,,decisionTrl,resources/DBN.BMP,resources/DY.BMP,Door2,0.170046802,0.005980207,1,0,0,1.1614,optionRight,20,9055,4,39,0,39,0,1,,,,,,,,,,,,,,,,,,,,,,,,,,,,,,,,,,,,,,,
,,,,,,,,08-16-2023_08h31.21.722,HF_wild_card,2022.2.4,Win32,60.0276127,62fb7a7a78d3bbcf82ac4083,64d2fd46c836a06233681665,64dc7b35998f49eb8ba08db5,,,,,,,ctch,resources/DBN.BMP,resources/DR.BMP,Door4,0.208528373,0.002860083,1,0,0,1.0912,optionRight,60,9115,4,40,0,40,0,1,,,,,,,,,,,,,,,,,,,,,,,,,,,,,,,,,,,,,,,
,,,,,,,,08-16-2023_08h31.21.722,HF_wild_card,2022.2.4,Win32,60.0276127,62fb7a7a78d3bbcf82ac4083,64d2fd46c836a06233681665,64dc7b35998f49eb8ba08db5,,,,,,,decisionTrl,resources/DR.BMP,resources/DG.BMP,Door3,0.185647426,-0.002340094,1,0,0,0.8959,optionRight,70,9185,4,41,0,41,0,1,,,,,,,,,,,,,,,,,,,,,,,,,,,,,,,,,,,,,,,
,,,,,,,,08-16-2023_08h31.21.722,HF_wild_card,2022.2.4,Win32,60.0276127,62fb7a7a78d3bbcf82ac4083,64d2fd46c836a06233681665,64dc7b35998f49eb8ba08db5,,,,,,,sngl,resources/Empty.png,resources/DB.BMP,WildCard_NonEx,0.152366126,0.020540806,1,0,0,1.0787,optionRight,45,9230,4,42,0,42,0,1,,,,,,,,,,,,,,,,,,,,,,,,,,,,,,,,,,,,,,,
,,,,,,,,08-16-2023_08h31.21.722,HF_wild_card,2022.2.4,Win32,60.0276127,62fb7a7a78d3bbcf82ac4083,64d2fd46c836a06233681665,64dc7b35998f49eb8ba08db5,,,,,,,sngl,resources/DB.BMP,resources/Empty.png,WildCard_NonEx,-0.165886604,0.02990118,1,0,0,1.0531,optionLeft,55,9285,4,43,0,43,0,1,,,,,,,,,,,,,,,,,,,,,,,,,,,,,,,,,,,,,,,
,,,,,,,,08-16-2023_08h31.21.722,HF_wild_card,2022.2.4,Win32,60.0276127,62fb7a7a78d3bbcf82ac4083,64d2fd46c836a06233681665,64dc7b35998f49eb8ba08db5,,,,,,,,,,,,,,,,,,,,,,,,,,3,0,3,0,1,,,,,,,,,,,,,,,,,,,,,,,,,,,,,,,,,,
,,,,,,,,08-16-2023_08h31.21.722,HF_wild_card,2022.2.4,Win32,60.0276127,62fb7a7a78d3bbcf82ac4083,64d2fd46c836a06233681665,64dc7b35998f49eb8ba08db5,,,,,,,ctch,resources/DR.BMP,resources/DBN.BMP,Door4,-0.218928725,-0.056422289,1,0,0,1.0242,optionLeft,80,9365,5,0,0,0,0,1,,,,,,,,,,,,,,,,,,,,,,,,,,,,,,,,,,,,,,,
,,,,,,,,08-16-2023_08h31.21.722,HF_wild_card,2022.2.4,Win32,60.0276127,62fb7a7a78d3bbcf82ac4083,64d2fd46c836a06233681665,64dc7b35998f49eb8ba08db5,,,,,,,ctch,resources/DBN.BMP,resources/DR.BMP,Door4,0.151326053,-0.023140942,1,0,0,0.9956,optionRight,60,9425,5,1,0,1,0,1,,,,,,,,,,,,,,,,,,,,,,,,,,,,,,,,,,,,,,,
,,,,,,,,08-16-2023_08h31.21.722,HF_wild_card,2022.2.4,Win32,60.0276127,62fb7a7a78d3bbcf82ac4083,64d2fd46c836a06233681665,64dc7b35998f49eb8ba08db5,,,,,,,sngl,resources/DR.BMP,resources/Empty.png,Door4,-0.180447154,0.01950078,1,0,0,0.8184,optionLeft,80,9505,5,2,0,2,0,1,,,,,,,,,,,,,,,,,,,,,,,,,,,,,,,,,,,,,,,
,,,,,,,,08-16-2023_08h31.21.722,HF_wild_card,2022.2.4,Win32,60.0276127,62fb7a7a78d3bbcf82ac4083,64d2fd46c836a06233681665,64dc7b35998f49eb8ba08db5,,,,,,,decisionTrl,resources/DY.BMP,resources/DBN.BMP,Door2,-0.196047826,0.01326053,1,0,0,1.1607,optionLeft,20,9525,5,3,0,3,0,1,,,,,,,,,,,,,,,,,,,,,,,,,,,,,,,,,,,,,,,
,,,,,,,,08-16-2023_08h31.21.722,HF_wild_card,2022.2.4,Win32,60.0276127,62fb7a7a78d3bbcf82ac4083,64d2fd46c836a06233681665,64dc7b35998f49eb8ba08db5,,,,,,,ctch,resources/DR.BMP,resources/DBN.BMP,Door4,-0.16484653,0.038221529,1,0,0,0.9781,optionLeft,80,9605,5,4,0,4,0,1,,,,,,,,,,,,,,,,,,,,,,,,,,,,,,,,,,,,,,,
,,,,,,,,08-16-2023_08h31.21.722,HF_wild_card,2022.2.4,Win32,60.0276127,62fb7a7a78d3bbcf82ac4083,64d2fd46c836a06233681665,64dc7b35998f49eb8ba08db5,,,,,,,decisionTrl,resources/DG.BMP,resources/DR.BMP,Door4,0.176287051,0.014300556,1,0,0,0.9936,optionRight,80,9685,5,5,0,5,0,1,,,,,,,,,,,,,,,,,,,,,,,,,,,,,,,,,,,,,,,
,,,,,,,,08-16-2023_08h31.21.722,HF_wild_card,2022.2.4,Win32,60.0276127,62fb7a7a78d3bbcf82ac4083,64d2fd46c836a06233681665,64dc7b35998f49eb8ba08db5,,,,,,,ctch,resources/DY.BMP,resources/DG.BMP,Door3,0.178367198,-0.009620417,1,0,0,1.6126,optionRight,70,9755,5,6,0,6,0,1,,,,,,,,,,,,,,,,,,,,,,,,,,,,,,,,,,,,,,,
,,,,,,,,08-16-2023_08h31.21.722,HF_wild_card,2022.2.4,Win32,60.0276127,62fb7a7a78d3bbcf82ac4083,64d2fd46c836a06233681665,64dc7b35998f49eb8ba08db5,,,,,,,decisionTrl,resources/DBN.BMP,resources/DY.BMP,Door2,0.156526325,-0.013780567,1,0,0,2.0769,optionRight,40,9795,5,7,0,7,0,1,,,,,,,,,,,,,,,,,,,,,,,,,,,,,,,,,,,,,,,
,,,,,,,,08-16-2023_08h31.21.722,HF_wild_card,2022.2.4,Win32,60.0276127,62fb7a7a78d3bbcf82ac4083,64d2fd46c836a06233681665,64dc7b35998f49eb8ba08db5,,,,,,,decisionTrl,resources/DB.BMP,resources/DR.BMP,Door4,0.131565326,-0.006500292,1,0,0,1.1945,optionRight,60,9855,5,8,0,8,0,1,,,,,,,,,,,,,,,,,,,,,,,,,,,,,,,,,,,,,,,
,,,,,,,,08-16-2023_08h31.21.722,HF_wild_card,2022.2.4,Win32,60.0276127,62fb7a7a78d3bbcf82ac4083,64d2fd46c836a06233681665,64dc7b35998f49eb8ba08db5,,,,,,,decisionTrl,resources/DY.BMP,resources/DB.BMP,Door2,-0.230369199,0.053822153,1,0,0,1.1779,optionLeft,20,9875,5,9,0,9,0,1,,,,,,,,,,,,,,,,,,,,,,,,,,,,,,,,,,,,,,,
,,,,,,,,08-16-2023_08h31.21.722,HF_wild_card,2022.2.4,Win32,60.0276127,62fb7a7a78d3bbcf82ac4083,64d2fd46c836a06233681665,64dc7b35998f49eb8ba08db5,,,,,,,decisionTrl,resources/DG.BMP,resources/DR.BMP,Door3,-0.237649474,0.01950078,1,0,0,1.1286,optionLeft,70,9945,5,10,0,10,0,1,,,,,,,,,,,,,,,,,,,,,,,,,,,,,,,,,,,,,,,
,,,,,,,,08-16-2023_08h31.21.722,HF_wild_card,2022.2.4,Win32,60.0276127,62fb7a7a78d3bbcf82ac4083,64d2fd46c836a06233681665,64dc7b35998f49eb8ba08db5,,,,,,,sngl,resources/Empty.png,resources/DB.BMP,WildCard_NonEx,0.140925701,0.008060307,1,0,0,0.911,optionRight,55,10000,5,11,0,11,0,1,,,,,,,,,,,,,,,,,,,,,,,,,,,,,,,,,,,,,,,
,,,,,,,,08-16-2023_08h31.21.722,HF_wild_card,2022.2.4,Win32,60.0276127,62fb7a7a78d3bbcf82ac4083,64d2fd46c836a06233681665,64dc7b35998f49eb8ba08db5,,,,,,,sngl,resources/DB.BMP,resources/Empty.png,WildCard_NonEx,-0.172126853,0.012220457,1,0,0,0.8963,optionLeft,45,10045,5,12,0,12,0,1,,,,,,,,,,,,,,,,,,,,,,,,,,,,,,,,,,,,,,,
,,,,,,,,08-16-2023_08h31.21.722,HF_wild_card,2022.2.4,Win32,60.0276127,62fb7a7a78d3bbcf82ac4083,64d2fd46c836a06233681665,64dc7b35998f49eb8ba08db5,,,,,,,decisionTrl,resources/DG.BMP,resources/DR.BMP,Door4,0.141965679,-0.003380167,1,0,0,1.6932,optionRight,80,10125,5,13,0,13,0,1,,,,,,,,,,,,,,,,,,,,,,,,,,,,,,,,,,,,,,,
,,,,,,,,08-16-2023_08h31.21.722,HF_wild_card,2022.2.4,Win32,60.0276127,62fb7a7a78d3bbcf82ac4083,64d2fd46c836a06233681665,64dc7b35998f49eb8ba08db5,,,,,,,ctch,resources/DG.BMP,resources/DY.BMP,Door3,-0.182527301,0.014300556,1,0,0,1.0268,optionLeft,70,10195,5,14,0,14,0,1,,,,,,,,,,,,,,,,,,,,,,,,,,,,,,,,,,,,,,,
,,,,,,,,08-16-2023_08h31.21.722,HF_wild_card,2022.2.4,Win32,60.0276127,62fb7a7a78d3bbcf82ac4083,64d2fd46c836a06233681665,64dc7b35998f49eb8ba08db5,,,,,,,sngl,resources/DG.BMP,resources/Empty.png,Door3,-0.193967727,0.033021305,1,0,0,0.9119,optionLeft,70,10265,5,15,0,15,0,1,,,,,,,,,,,,,,,,,,,,,,,,,,,,,,,,,,,,,,,
,,,,,,,,08-16-2023_08h31.21.722,HF_wild_card,2022.2.4,Win32,60.0276127,62fb7a7a78d3bbcf82ac4083,64d2fd46c836a06233681665,64dc7b35998f49eb8ba08db5,,,,,,,decisionTrl,resources/DY.BMP,resources/DBN.BMP,Door2,-0.188767551,0.027821081,1,0,0,1.3597,optionLeft,20,10285,5,16,0,16,0,1,,,,,,,,,,,,,,,,,,,,,,,,,,,,,,,,,,,,,,,
,,,,,,,,08-16-2023_08h31.21.722,HF_wild_card,2022.2.4,Win32,60.0276127,62fb7a7a78d3bbcf82ac4083,64d2fd46c836a06233681665,64dc7b35998f49eb8ba08db5,,,,,,,decisionTrl,resources/DB.BMP,resources/DG.BMP,Door3,0.107644306,0.076703052,1,0,0,1.8606,optionRight,70,10355,5,17,0,17,0,1,,,,,,,,,,,,,,,,,,,,,,,,,,,,,,,,,,,,,,,
,,,,,,,,08-16-2023_08h31.21.722,HF_wild_card,2022.2.4,Win32,60.0276127,62fb7a7a78d3bbcf82ac4083,64d2fd46c836a06233681665,64dc7b35998f49eb8ba08db5,,,,,,,decisionTrl,resources/DR.BMP,resources/DG.BMP,Door4,-0.180447154,-0.010660442,1,0,0,1.4283,optionLeft,80,10435,5,18,0,18,0,1,,,,,,,,,,,,,,,,,,,,,,,,,,,,,,,,,,,,,,,
,,,,,,,,08-16-2023_08h31.21.722,HF_wild_card,2022.2.4,Win32,60.0276127,62fb7a7a78d3bbcf82ac4083,64d2fd46c836a06233681665,64dc7b35998f49eb8ba08db5,,,,,,,sngl,resources/Empty.png,resources/DBN.BMP,Door1,0.143005752,0.008060307,1,0,0,0.9952,optionRight,30,10465,5,19,0,19,0,1,,,,,,,,,,,,,,,,,,,,,,,,,,,,,,,,,,,,,,,
,,,,,,,,08-16-2023_08h31.21.722,HF_wild_card,2022.2.4,Win32,60.0276127,62fb7a7a78d3bbcf82ac4083,64d2fd46c836a06233681665,64dc7b35998f49eb8ba08db5,,,,,,,decisionTrl,resources/DBN.BMP,resources/DY.BMP,Door2,0.295891867,0.028861154,1,0,0,2.9462,optionRight,20,10485,5,20,0,20,0,1,,,,,,,,,,,,,,,,,,,,,,,,,,,,,,,,,,,,,,,
,,,,,,,,08-16-2023_08h31.21.722,HF_wild_card,2022.2.4,Win32,60.0276127,62fb7a7a78d3bbcf82ac4083,64d2fd46c836a06233681665,64dc7b35998f49eb8ba08db5,,,,,,,decisionTrl,resources/DG.BMP,resources/DR.BMP,Door4,0.165886699,0.014300556,1,0,0,1.7271,optionRight,80,10565,5,21,0,21,0,1,,,,,,,,,,,,,,,,,,,,,,,,,,,,,,,,,,,,,,,
,,,,,,,,08-16-2023_08h31.21.722,HF_wild_card,2022.2.4,Win32,60.0276127,62fb7a7a78d3bbcf82ac4083,64d2fd46c836a06233681665,64dc7b35998f49eb8ba08db5,,,,,,,sngl,resources/DB.BMP,resources/Empty.png,WildCard_NonEx,-0.161726406,0.012220457,1,0,0,0.8937,optionLeft,55,10620,5,22,0,22,0,1,,,,,,,,,,,,,,,,,,,,,,,,,,,,,,,,,,,,,,,
,,,,,,,,08-16-2023_08h31.21.722,HF_wild_card,2022.2.4,Win32,60.0276127,62fb7a7a78d3bbcf82ac4083,64d2fd46c836a06233681665,64dc7b35998f49eb8ba08db5,,,,,,,decisionTrl,resources/DBN.BMP,resources/DB.BMP,WildCard_NonEx,0.23140932,-0.015860666,1,0,0,1.195,optionRight,55,10675,5,23,0,23,0,1,,,,,,,,,,,,,,,,,,,,,,,,,,,,,,,,,,,,,,,
,,,,,,,,08-16-2023_08h31.21.722,HF_wild_card,2022.2.4,Win32,60.0276127,62fb7a7a78d3bbcf82ac4083,64d2fd46c836a06233681665,64dc7b35998f49eb8ba08db5,,,,,,,decisionTrl,resources/DY.BMP,resources/DBN.BMP,Door2,-0.20124805,0.02990118,1,0,0,1.1271,optionLeft,20,10695,5,24,0,24,0,1,,,,,,,,,,,,,,,,,,,,,,,,,,,,,,,,,,,,,,,
,,,,,,,,08-16-2023_08h31.21.722,HF_wild_card,2022.2.4,Win32,60.0276127,62fb7a7a78d3bbcf82ac4083,64d2fd46c836a06233681665,64dc7b35998f49eb8ba08db5,,,,,,,decisionTrl,resources/DR.BMP,resources/DG.BMP,Door4,-0.135725429,0.011180431,1,0,0,1.2944,optionLeft,60,10755,5,25,0,25,0,1,,,,,,,,,,,,,,,,,,,,,,,,,,,,,,,,,,,,,,,
,,,,,,,,08-16-2023_08h31.21.722,HF_wild_card,2022.2.4,Win32,60.0276127,62fb7a7a78d3bbcf82ac4083,64d2fd46c836a06233681665,64dc7b35998f49eb8ba08db5,,,,,,,decisionTrl,resources/DR.BMP,resources/DB.BMP,Door4,-0.163806552,0.022620905,1,0,0,1.4905,optionLeft,60,10815,5,26,0,26,0,1,,,,,,,,,,,,,,,,,,,,,,,,,,,,,,,,,,,,,,,
,,,,,,,,08-16-2023_08h31.21.722,HF_wild_card,2022.2.4,Win32,60.0276127,62fb7a7a78d3bbcf82ac4083,64d2fd46c836a06233681665,64dc7b35998f49eb8ba08db5,,,,,,,decisionTrl,resources/DBN.BMP,resources/DY.BMP,Door2,0.134685451,-0.008580343,1,0,0,1.744,optionRight,40,10855,5,27,0,27,0,1,,,,,,,,,,,,,,,,,,,,,,,,,,,,,,,,,,,,,,,
,,,,,,,,08-16-2023_08h31.21.722,HF_wild_card,2022.2.4,Win32,60.0276127,62fb7a7a78d3bbcf82ac4083,64d2fd46c836a06233681665,64dc7b35998f49eb8ba08db5,,,,,,,decisionTrl,resources/DB.BMP,resources/DBN.BMP,Door1,0.204368175,0.001820057,1,0,0,1.2284,optionRight,30,10885,5,28,0,28,0,1,,,,,,,,,,,,,,,,,,,,,,,,,,,,,,,,,,,,,,,
,,,,,,,,08-16-2023_08h31.21.722,HF_wild_card,2022.2.4,Win32,60.0276127,62fb7a7a78d3bbcf82ac4083,64d2fd46c836a06233681665,64dc7b35998f49eb8ba08db5,,,,,,,decisionTrl,resources/DG.BMP,resources/DB.BMP,Door3,-0.286531445,0.000780031,1,0,0,1.5444,optionLeft,70,10955,5,29,0,29,0,1,,,,,,,,,,,,,,,,,,,,,,,,,,,,,,,,,,,,,,,
,,,,,,,,08-16-2023_08h31.21.722,HF_wild_card,2022.2.4,Win32,60.0276127,62fb7a7a78d3bbcf82ac4083,64d2fd46c836a06233681665,64dc7b35998f49eb8ba08db5,,,,,,,sngl,resources/Empty.png,resources/DY.BMP,Door2,0.139885627,-0.023140942,1,0,0,0.904,optionRight,20,10975,5,30,0,30,0,1,,,,,,,,,,,,,,,,,,,,,,,,,,,,,,,,,,,,,,,
,,,,,,,,08-16-2023_08h31.21.722,HF_wild_card,2022.2.4,Win32,60.0276127,62fb7a7a78d3bbcf82ac4083,64d2fd46c836a06233681665,64dc7b35998f49eb8ba08db5,,,,,,,decisionTrl,resources/DBN.BMP,resources/DY.BMP,Door2,0.127405128,0.000780031,1,0,0,1.2952,optionRight,40,11015,5,31,0,31,0,1,,,,,,,,,,,,,,,,,,,,,,,,,,,,,,,,,,,,,,,
,,,,,,,,08-16-2023_08h31.21.722,HF_wild_card,2022.2.4,Win32,60.0276127,62fb7a7a78d3bbcf82ac4083,64d2fd46c836a06233681665,64dc7b35998f49eb8ba08db5,,,,,,,ctch,resources/DBN.BMP,resources/DR.BMP,Door4,0.133645378,-0.006500292,1,0,0,1.2429,optionRight,60,11075,5,32,0,32,0,1,,,,,,,,,,,,,,,,,,,,,,,,,,,,,,,,,,,,,,,
,,,,,,,,08-16-2023_08h31.21.722,HF_wild_card,2022.2.4,Win32,60.0276127,62fb7a7a78d3bbcf82ac4083,64d2fd46c836a06233681665,64dc7b35998f49eb8ba08db5,,,,,,,ctch,resources/DY.BMP,resources/DG.BMP,Door3,0.134685451,-0.013780567,1,0,0,1.8454,optionRight,70,11145,5,33,0,33,0,1,,,,,,,,,,,,,,,,,,,,,,,,,,,,,,,,,,,,,,,
,,,,,,,,08-16-2023_08h31.21.722,HF_wild_card,2022.2.4,Win32,60.0276127,62fb7a7a78d3bbcf82ac4083,64d2fd46c836a06233681665,64dc7b35998f49eb8ba08db5,,,,,,,sngl,resources/DY.BMP,resources/Empty.png,Door2,-0.16484653,0.021580831,1,0,0,0.923,optionLeft,40,11185,5,34,0,34,0,1,,,,,,,,,,,,,,,,,,,,,,,,,,,,,,,,,,,,,,,
,,,,,,,,08-16-2023_08h31.21.722,HF_wild_card,2022.2.4,Win32,60.0276127,62fb7a7a78d3bbcf82ac4083,64d2fd46c836a06233681665,64dc7b35998f49eb8ba08db5,,,,,,,ctch,resources/DG.BMP,resources/DY.BMP,Door3,-0.198127925,0.01326053,1,0,0,1.3579,optionLeft,70,11255,5,35,0,35,0,1,,,,,,,,,,,,,,,,,,,,,,,,,,,,,,,,,,,,,,,
,,,,,,,,08-16-2023_08h31.21.722,HF_wild_card,2022.2.4,Win32,60.0276127,62fb7a7a78d3bbcf82ac4083,64d2fd46c836a06233681665,64dc7b35998f49eb8ba08db5,,,,,,,sngl,resources/DBN.BMP,resources/Empty.png,Door1,-0.167966655,0.002860083,1,0,0,1.0145,optionLeft,30,11285,5,36,0,36,0,1,,,,,,,,,,,,,,,,,,,,,,,,,,,,,,,,,,,,,,,
,,,,,,,,08-16-2023_08h31.21.722,HF_wild_card,2022.2.4,Win32,60.0276127,62fb7a7a78d3bbcf82ac4083,64d2fd46c836a06233681665,64dc7b35998f49eb8ba08db5,,,,,,,sngl,resources/Empty.png,resources/DG.BMP,Door3,0.111804504,-0.004420193,1,0,0,1.0437,optionRight,70,11355,5,37,0,37,0,1,,,,,,,,,,,,,,,,,,,,,,,,,,,,,,,,,,,,,,,
,,,,,,,,08-16-2023_08h31.21.722,HF_wild_card,2022.2.4,Win32,60.0276127,62fb7a7a78d3bbcf82ac4083,64d2fd46c836a06233681665,64dc7b35998f49eb8ba08db5,,,,,,,decisionTrl,resources/DR.BMP,resources/DG.BMP,Door4,-0.163806552,0.018460707,1,0,0,1.104,optionLeft,60,11415,5,38,0,38,0,1,,,,,,,,,,,,,,,,,,,,,,,,,,,,,,,,,,,,,,,
,,,,,,,,08-16-2023_08h31.21.722,HF_wild_card,2022.2.4,Win32,60.0276127,62fb7a7a78d3bbcf82ac4083,64d2fd46c836a06233681665,64dc7b35998f49eb8ba08db5,,,,,,,decisionTrl,resources/DY.BMP,resources/DBN.BMP,Door2,-0.138845554,0.002860083,1,0,0,1.661,optionLeft,20,11435,5,39,0,39,0,1,,,,,,,,,,,,,,,,,,,,,,,,,,,,,,,,,,,,,,,
,,,,,,,,08-16-2023_08h31.21.722,HF_wild_card,2022.2.4,Win32,60.0276127,62fb7a7a78d3bbcf82ac4083,64d2fd46c836a06233681665,64dc7b35998f49eb8ba08db5,,,,,,,decisionTrl,resources/DB.BMP,resources/DY.BMP,WildCard_NonEx,-0.147165855,0.004940182,1,0,0,2.0098,optionLeft,45,11480,5,40,0,40,0,1,,,,,,,,,,,,,,,,,,,,,,,,,,,,,,,,,,,,,,,
,,,,,,,,08-16-2023_08h31.21.722,HF_wild_card,2022.2.4,Win32,60.0276127,62fb7a7a78d3bbcf82ac4083,64d2fd46c836a06233681665,64dc7b35998f49eb8ba08db5,,,,,,,sngl,resources/Empty.png,resources/DR.BMP,Door4,0.137805576,0.010140406,1,0,0,0.9788,optionRight,60,11540,5,41,0,41,0,1,,,,,,,,,,,,,,,,,,,,,,,,,,,,,,,,,,,,,,,
,,,,,,,,08-16-2023_08h31.21.722,HF_wild_card,2022.2.4,Win32,60.0276127,62fb7a7a78d3bbcf82ac4083,64d2fd46c836a06233681665,64dc7b35998f49eb8ba08db5,,,,,,,decisionTrl,resources/DR.BMP,resources/DG.BMP,Door3,0.115964702,-0.011700468,1,0,0,2.1271,optionRight,70,11610,5,42,0,42,0,1,,,,,,,,,,,,,,,,,,,,,,,,,,,,,,,,,,,,,,,
,,,,,,,,08-16-2023_08h31.21.722,HF_wild_card,2022.2.4,Win32,60.0276127,62fb7a7a78d3bbcf82ac4083,64d2fd46c836a06233681665,64dc7b35998f49eb8ba08db5,,,,,,,sngl,resources/Empty.png,resources/DB.BMP,WildCard_NonEx,0.12324493,0.008060307,1,0,0,1.7762,optionRight,45,11655,5,43,0,43,0,1,,,,,,,,,,,,,,,,,,,,,,,,,,,,,,,,,,,,,,,
,,,,,,,,08-16-2023_08h31.21.722,HF_wild_card,2022.2.4,Win32,60.0276127,62fb7a7a78d3bbcf82ac4083,64d2fd46c836a06233681665,64dc7b35998f49eb8ba08db5,,,,,,,,,,,,,,,,,,,,,,,,,,4,0,4,0,1,,,,,,,,,,,,,,,,,,,,,,,,,,,,,,,,,,
,,,,,,,,08-16-2023_08h31.21.722,HF_wild_card,2022.2.4,Win32,60.0276127,62fb7a7a78d3bbcf82ac4083,64d2fd46c836a06233681665,64dc7b35998f49eb8ba08db5,,,,,,,decisionTrl,resources/DB.BMP,resources/DR.BMP,Door4,0.208528373,-0.068902788,1,0,0,1.1721,optionRight,80,11735,6,0,0,0,0,1,,,,,,,,,,,,,,,,,,,,,,,,,,,,,,,,,,,,,,,
,,,,,,,,08-16-2023_08h31.21.722,HF_wild_card,2022.2.4,Win32,60.0276127,62fb7a7a78d3bbcf82ac4083,64d2fd46c836a06233681665,64dc7b35998f49eb8ba08db5,,,,,,,ctch,resources/DY.BMP,resources/DG.BMP,Door3,0.181487323,-0.012740541,1,0,0,1.0619,optionRight,70,11805,6,1,0,1,0,1,,,,,,,,,,,,,,,,,,,,,,,,,,,,,,,,,,,,,,,
,,,,,,,,08-16-2023_08h31.21.722,HF_wild_card,2022.2.4,Win32,60.0276127,62fb7a7a78d3bbcf82ac4083,64d2fd46c836a06233681665,64dc7b35998f49eb8ba08db5,,,,,,,ctch,resources/DBN.BMP,resources/DR.BMP,Door4,0.150286075,0.001820057,1,0,0,1.0601,optionRight,60,11865,6,2,0,2,0,1,,,,,,,,,,,,,,,,,,,,,,,,,,,,,,,,,,,,,,,
,,,,,,,,08-16-2023_08h31.21.722,HF_wild_card,2022.2.4,Win32,60.0276127,62fb7a7a78d3bbcf82ac4083,64d2fd46c836a06233681665,64dc7b35998f49eb8ba08db5,,,,,,,sngl,resources/DB.BMP,resources/Empty.png,WildCard_NonEx,-0.13780548,0.021580831,1,0,0,0.9116,optionLeft,55,11920,6,3,0,3,0,1,,,,,,,,,,,,,,,,,,,,,,,,,,,,,,,,,,,,,,,
,,,,,,,,08-16-2023_08h31.21.722,HF_wild_card,2022.2.4,Win32,60.0276127,62fb7a7a78d3bbcf82ac4083,64d2fd46c836a06233681665,64dc7b35998f49eb8ba08db5,,,,,,,decisionTrl,resources/DR.BMP,resources/DG.BMP,Door3,0.131565326,0.003900156,1,0,0,2.9272,optionRight,70,11990,6,4,0,4,0,1,,,,,,,,,,,,,,,,,,,,,,,,,,,,,,,,,,,,,,,
,,,,,,,,08-16-2023_08h31.21.722,HF_wild_card,2022.2.4,Win32,60.0276127,62fb7a7a78d3bbcf82ac4083,64d2fd46c836a06233681665,64dc7b35998f49eb8ba08db5,,,,,,,decisionTrl,resources/DG.BMP,resources/DR.BMP,Door3,-0.136765407,0.004940182,1,0,0,0.9434,optionLeft,70,12060,6,5,0,5,0,1,,,,,,,,,,,,,,,,,,,,,,,,,,,,,,,,,,,,,,,
,,,,,,,,08-16-2023_08h31.21.722,HF_wild_card,2022.2.4,Win32,60.0276127,62fb7a7a78d3bbcf82ac4083,64d2fd46c836a06233681665,64dc7b35998f49eb8ba08db5,,,,,,,ctch,resources/DG.BMP,resources/DY.BMP,Door3,-0.115964607,0.015340582,1,0,0,1.094,optionLeft,70,12130,6,6,0,6,0,1,,,,,,,,,,,,,,,,,,,,,,,,,,,,,,,,,,,,,,,
,,,,,,,,08-16-2023_08h31.21.722,HF_wild_card,2022.2.4,Win32,60.0276127,62fb7a7a78d3bbcf82ac4083,64d2fd46c836a06233681665,64dc7b35998f49eb8ba08db5,,,,,,,decisionTrl,resources/DY.BMP,resources/DBN.BMP,Door2,-0.130525158,0.021580831,1,0,0,1.6763,optionLeft,20,12150,6,7,0,7,0,1,,,,,,,,,,,,,,,,,,,,,,,,,,,,,,,,,,,,,,,
,,,,,,,,08-16-2023_08h31.21.722,HF_wild_card,2022.2.4,Win32,60.0276127,62fb7a7a78d3bbcf82ac4083,64d2fd46c836a06233681665,64dc7b35998f49eb8ba08db5,,,,,,,decisionTrl,resources/DB.BMP,resources/DBN.BMP,WildCard_NonEx,-0.175246978,0.010140406,1,0,0,1.8452,optionLeft,55,12205,6,8,0,8,0,1,,,,,,,,,,,,,,,,,,,,,,,,,,,,,,,,,,,,,,,
,,,,,,,,08-16-2023_08h31.21.722,HF_wild_card,2022.2.4,Win32,60.0276127,62fb7a7a78d3bbcf82ac4083,64d2fd46c836a06233681665,64dc7b35998f49eb8ba08db5,,,,,,,decisionTrl,resources/DR.BMP,resources/DG.BMP,Door4,-0.112844482,0.003900156,1,0,0,1.7711,optionLeft,60,12265,6,9,0,9,0,1,,,,,,,,,,,,,,,,,,,,,,,,,,,,,,,,,,,,,,,
,,,,,,,,08-16-2023_08h31.21.722,HF_wild_card,2022.2.4,Win32,60.0276127,62fb7a7a78d3bbcf82ac4083,64d2fd46c836a06233681665,64dc7b35998f49eb8ba08db5,,,,,,,sngl,resources/Empty.png,resources/DB.BMP,WildCard_NonEx,0.118044754,-0.009620417,1,0,0,0.9936,optionRight,55,12320,6,10,0,10,0,1,,,,,,,,,,,,,,,,,,,,,,,,,,,,,,,,,,,,,,,
,,,,,,,,08-16-2023_08h31.21.722,HF_wild_card,2022.2.4,Win32,60.0276127,62fb7a7a78d3bbcf82ac4083,64d2fd46c836a06233681665,64dc7b35998f49eb8ba08db5,,,,,,,decisionTrl,resources/DB.BMP,resources/DG.BMP,Door3,0.126365055,0.010140406,1,0,0,2.1101,optionRight,70,12390,6,11,0,11,0,1,,,,,,,,,,,,,,,,,,,,,,,,,,,,,,,,,,,,,,,
,,,,,,,,08-16-2023_08h31.21.722,HF_wild_card,2022.2.4,Win32,60.0276127,62fb7a7a78d3bbcf82ac4083,64d2fd46c836a06233681665,64dc7b35998f49eb8ba08db5,,,,,,,ctch,resources/DR.BMP,resources/DBN.BMP,Door4,-0.14404573,0.005980207,1,0,0,1.3439,optionLeft,80,12470,6,12,0,12,0,1,,,,,,,,,,,,,,,,,,,,,,,,,,,,,,,,,,,,,,,
,,,,,,,,08-16-2023_08h31.21.722,HF_wild_card,2022.2.4,Win32,60.0276127,62fb7a7a78d3bbcf82ac4083,64d2fd46c836a06233681665,64dc7b35998f49eb8ba08db5,,,,,,,ctch,resources/DG.BMP,resources/DY.BMP,Door3,-0.161726406,0.011180431,1,0,0,1.3117,optionLeft,70,12540,6,13,0,13,0,1,,,,,,,,,,,,,,,,,,,,,,,,,,,,,,,,,,,,,,,
,,,,,,,,08-16-2023_08h31.21.722,HF_wild_card,2022.2.4,Win32,60.0276127,62fb7a7a78d3bbcf82ac4083,64d2fd46c836a06233681665,64dc7b35998f49eb8ba08db5,,,,,,,decisionTrl,resources/DG.BMP,resources/DB.BMP,Door3,-0.120124805,-0.002340094,1,0,0,1.2119,optionLeft,70,12610,6,14,0,14,0,1,,,,,,,,,,,,,,,,,,,,,,,,,,,,,,,,,,,,,,,
,,,,,,,,08-16-2023_08h31.21.722,HF_wild_card,2022.2.4,Win32,60.0276127,62fb7a7a78d3bbcf82ac4083,64d2fd46c836a06233681665,64dc7b35998f49eb8ba08db5,,,,,,,ctch,resources/DR.BMP,resources/DBN.BMP,Door4,-0.109724357,-0.010660442,1,0,0,1.1769,optionLeft,60,12670,6,15,0,15,0,1,,,,,,,,,,,,,,,,,,,,,,,,,,,,,,,,,,,,,,,
,,,,,,,,08-16-2023_08h31.21.722,HF_wild_card,2022.2.4,Win32,60.0276127,62fb7a7a78d3bbcf82ac4083,64d2fd46c836a06233681665,64dc7b35998f49eb8ba08db5,,,,,,,decisionTrl,resources/DBN.BMP,resources/DY.BMP,Door1,-0.119084732,0.002860083,1,0,0,1.7278,optionLeft,30,12700,6,16,0,16,0,1,,,,,,,,,,,,,,,,,,,,,,,,,,,,,,,,,,,,,,,
,,,,,,,,08-16-2023_08h31.21.722,HF_wild_card,2022.2.4,Win32,60.0276127,62fb7a7a78d3bbcf82ac4083,64d2fd46c836a06233681665,64dc7b35998f49eb8ba08db5,,,,,,,sngl,resources/Empty.png,resources/DG.BMP,Door3,0.124285003,0.004940182,1,0,0,0.8944,optionRight,70,12770,6,17,0,17,0,1,,,,,,,,,,,,,,,,,,,,,,,,,,,,,,,,,,,,,,,
,,,,,,,,08-16-2023_08h31.21.722,HF_wild_card,2022.2.4,Win32,60.0276127,62fb7a7a78d3bbcf82ac4083,64d2fd46c836a06233681665,64dc7b35998f49eb8ba08db5,,,,,,,decisionTrl,resources/DG.BMP,resources/DR.BMP,Door3,-0.149245906,0.007020281,1,0,0,2.0273,optionLeft,70,12840,6,18,0,18,0,1,,,,,,,,,,,,,,,,,,,,,,,,,,,,,,,,,,,,,,,
,,,,,,,,08-16-2023_08h31.21.722,HF_wild_card,2022.2.4,Win32,60.0276127,62fb7a7a78d3bbcf82ac4083,64d2fd46c836a06233681665,64dc7b35998f49eb8ba08db5,,,,,,,sngl,resources/Empty.png,resources/DR.BMP,Door4,0.118044754,-0.007540317,1,0,0,0.9946,optionRight,80,12920,6,19,0,19,0,1,,,,,,,,,,,,,,,,,,,,,,,,,,,,,,,,,,,,,,,
,,,,,,,,08-16-2023_08h31.21.722,HF_wild_card,2022.2.4,Win32,60.0276127,62fb7a7a78d3bbcf82ac4083,64d2fd46c836a06233681665,64dc7b35998f49eb8ba08db5,,,,,,,decisionTrl,resources/DBN.BMP,resources/DY.BMP,Door2,0.114924629,0.004940182,1,0,0,1.9934,optionRight,20,12940,6,20,0,20,0,1,,,,,,,,,,,,,,,,,,,,,,,,,,,,,,,,,,,,,,,
,,,,,,,,08-16-2023_08h31.21.722,HF_wild_card,2022.2.4,Win32,60.0276127,62fb7a7a78d3bbcf82ac4083,64d2fd46c836a06233681665,64dc7b35998f49eb8ba08db5,,,,,,,decisionTrl,resources/DG.BMP,resources/DR.BMP,Door4,0.143005752,0.004940182,1,0,0,1.7781,optionRight,60,13000,6,21,0,21,0,1,,,,,,,,,,,,,,,,,,,,,,,,,,,,,,,,,,,,,,,
,,,,,,,,08-16-2023_08h31.21.722,HF_wild_card,2022.2.4,Win32,60.0276127,62fb7a7a78d3bbcf82ac4083,64d2fd46c836a06233681665,64dc7b35998f49eb8ba08db5,,,,,,,sngl,resources/DY.BMP,resources/Empty.png,Door2,-0.11700468,0.010140406,1,0,0,0.928,optionLeft,20,13020,6,22,0,22,0,1,,,,,,,,,,,,,,,,,,,,,,,,,,,,,,,,,,,,,,,
,,,,,,,,08-16-2023_08h31.21.722,HF_wild_card,2022.2.4,Win32,60.0276127,62fb7a7a78d3bbcf82ac4083,64d2fd46c836a06233681665,64dc7b35998f49eb8ba08db5,,,,,,,decisionTrl,resources/DY.BMP,resources/DB.BMP,WildCard_NonEx,0.134685451,0.004940182,1,0,0,2.7605,optionRight,55,13075,6,23,0,23,0,1,,,,,,,,,,,,,,,,,,,,,,,,,,,,,,,,,,,,,,,
,,,,,,,,08-16-2023_08h31.21.722,HF_wild_card,2022.2.4,Win32,60.0276127,62fb7a7a78d3bbcf82ac4083,64d2fd46c836a06233681665,64dc7b35998f49eb8ba08db5,,,,,,,decisionTrl,resources/DR.BMP,resources/DG.BMP,Door4,-0.108684284,0.015340582,1,0,0,1.6958,optionLeft,80,13155,6,24,0,24,0,1,,,,,,,,,,,,,,,,,,,,,,,,,,,,,,,,,,,,,,,
,,,,,,,,08-16-2023_08h31.21.722,HF_wild_card,2022.2.4,Win32,60.0276127,62fb7a7a78d3bbcf82ac4083,64d2fd46c836a06233681665,64dc7b35998f49eb8ba08db5,,,,,,,decisionTrl,resources/DY.BMP,resources/DBN.BMP,Door1,0.154446178,-0.006500292,1,0,0,2.211,optionRight,30,13185,6,25,0,25,0,1,,,,,,,,,,,,,,,,,,,,,,,,,,,,,,,,,,,,,,,
,,,,,,,,08-16-2023_08h31.21.722,HF_wild_card,2022.2.4,Win32,60.0276127,62fb7a7a78d3bbcf82ac4083,64d2fd46c836a06233681665,64dc7b35998f49eb8ba08db5,,,,,,,decisionTrl,resources/DB.BMP,resources/DY.BMP,WildCard_NonEx,-0.121164783,0.007020281,1,0,0,1.0589,optionLeft,45,13230,6,26,0,26,0,1,,,,,,,,,,,,,,,,,,,,,,,,,,,,,,,,,,,,,,,
,,,,,,,,08-16-2023_08h31.21.722,HF_wild_card,2022.2.4,Win32,60.0276127,62fb7a7a78d3bbcf82ac4083,64d2fd46c836a06233681665,64dc7b35998f49eb8ba08db5,,,,,,,decisionTrl,resources/DY.BMP,resources/DBN.BMP,Door1,0.125325076,-0.020020817,1,0,0,1.3616,optionRight,30,13260,6,27,0,27,0,1,,,,,,,,,,,,,,,,,,,,,,,,,,,,,,,,,,,,,,,
,,,,,,,,08-16-2023_08h31.21.722,HF_wild_card,2022.2.4,Win32,60.0276127,62fb7a7a78d3bbcf82ac4083,64d2fd46c836a06233681665,64dc7b35998f49eb8ba08db5,,,,,,,sngl,resources/DB.BMP,resources/Empty.png,WildCard_NonEx,-0.163806552,0.020540806,1,0,0,0.8103,optionLeft,45,13305,6,28,0,28,0,1,,,,,,,,,,,,,,,,,,,,,,,,,,,,,,,,,,,,,,,
,,,,,,,,08-16-2023_08h31.21.722,HF_wild_card,2022.2.4,Win32,60.0276127,62fb7a7a78d3bbcf82ac4083,64d2fd46c836a06233681665,64dc7b35998f49eb8ba08db5,,,,,,,ctch,resources/DBN.BMP,resources/DR.BMP,Door4,0.133645378,-0.010660442,1,0,0,1.3558,optionRight,80,13385,6,29,0,29,0,1,,,,,,,,,,,,,,,,,,,,,,,,,,,,,,,,,,,,,,,
,,,,,,,,08-16-2023_08h31.21.722,HF_wild_card,2022.2.4,Win32,60.0276127,62fb7a7a78d3bbcf82ac4083,64d2fd46c836a06233681665,64dc7b35998f49eb8ba08db5,,,,,,,decisionTrl,resources/DY.BMP,resources/DBN.BMP,Door1,0.104524181,-0.013780567,1,0,0,1.2605,optionRight,30,13415,6,30,0,30,0,1,,,,,,,,,,,,,,,,,,,,,,,,,,,,,,,,,,,,,,,
,,,,,,,,08-16-2023_08h31.21.722,HF_wild_card,2022.2.4,Win32,60.0276127,62fb7a7a78d3bbcf82ac4083,64d2fd46c836a06233681665,64dc7b35998f49eb8ba08db5,,,,,,,sngl,resources/DR.BMP,resources/Empty.png,Door4,-0.128445106,0.01326053,1,0,0,0.9112,optionLeft,60,13475,6,31,0,31,0,1,,,,,,,,,,,,,,,,,,,,,,,,,,,,,,,,,,,,,,,
,,,,,,,,08-16-2023_08h31.21.722,HF_wild_card,2022.2.4,Win32,60.0276127,62fb7a7a78d3bbcf82ac4083,64d2fd46c836a06233681665,64dc7b35998f49eb8ba08db5,,,,,,,sngl,resources/Empty.png,resources/DB.BMP,WildCard_NonEx,0.128445201,0.002860083,1,0,0,0.9908,optionRight,45,13520,6,32,0,32,0,1,,,,,,,,,,,,,,,,,,,,,,,,,,,,,,,,,,,,,,,
,,,,,,,,08-16-2023_08h31.21.722,HF_wild_card,2022.2.4,Win32,60.0276127,62fb7a7a78d3bbcf82ac4083,64d2fd46c836a06233681665,64dc7b35998f49eb8ba08db5,,,,,,,ctch,resources/DY.BMP,resources/DG.BMP,Door3,0.133645378,-0.005460218,1,0,0,1.8281,optionRight,70,13590,6,33,0,33,0,1,,,,,,,,,,,,,,,,,,,,,,,,,,,,,,,,,,,,,,,
,,,,,,,,08-16-2023_08h31.21.722,HF_wild_card,2022.2.4,Win32,60.0276127,62fb7a7a78d3bbcf82ac4083,64d2fd46c836a06233681665,64dc7b35998f49eb8ba08db5,,,,,,,sngl,resources/Empty.png,resources/DBN.BMP,Door1,0.115964702,0.011180431,1,0,0,1.2272,optionRight,30,13620,6,34,0,34,0,1,,,,,,,,,,,,,,,,,,,,,,,,,,,,,,,,,,,,,,,
,,,,,,,,08-16-2023_08h31.21.722,HF_wild_card,2022.2.4,Win32,60.0276127,62fb7a7a78d3bbcf82ac4083,64d2fd46c836a06233681665,64dc7b35998f49eb8ba08db5,,,,,,,decisionTrl,resources/DBN.BMP,resources/DB.BMP,WildCard_NonEx,0.137805576,0.003900156,1,0,0,2.8256,optionRight,45,13665,6,35,0,35,0,1,,,,,,,,,,,,,,,,,,,,,,,,,,,,,,,,,,,,,,,
,,,,,,,,08-16-2023_08h31.21.722,HF_wild_card,2022.2.4,Win32,60.0276127,62fb7a7a78d3bbcf82ac4083,64d2fd46c836a06233681665,64dc7b35998f49eb8ba08db5,,,,,,,decisionTrl,resources/DG.BMP,resources/DR.BMP,Door4,0.14716595,0.007020281,1,0,0,1.8266,optionRight,60,13725,6,36,0,36,0,1,,,,,,,,,,,,,,,,,,,,,,,,,,,,,,,,,,,,,,,
,,,,,,,,08-16-2023_08h31.21.722,HF_wild_card,2022.2.4,Win32,60.0276127,62fb7a7a78d3bbcf82ac4083,64d2fd46c836a06233681665,64dc7b35998f49eb8ba08db5,,,,,,,decisionTrl,resources/DR.BMP,resources/DB.BMP,Door4,-0.126365055,0.003900156,1,0,0,1.0274,optionLeft,60,13785,6,37,0,37,0,1,,,,,,,,,,,,,,,,,,,,,,,,,,,,,,,,,,,,,,,
,,,,,,,,08-16-2023_08h31.21.722,HF_wild_card,2022.2.4,Win32,60.0276127,62fb7a7a78d3bbcf82ac4083,64d2fd46c836a06233681665,64dc7b35998f49eb8ba08db5,,,,,,,decisionTrl,resources/DR.BMP,resources/DG.BMP,Door3,0.105564254,0.000780031,1,0,0,1.6894,optionRight,70,13855,6,38,0,38,0,1,,,,,,,,,,,,,,,,,,,,,,,,,,,,,,,,,,,,,,,
,,,,,,,,08-16-2023_08h31.21.722,HF_wild_card,2022.2.4,Win32,60.0276127,62fb7a7a78d3bbcf82ac4083,64d2fd46c836a06233681665,64dc7b35998f49eb8ba08db5,,,,,,,sngl,resources/Empty.png,resources/DY.BMP,Door2,0.11700468,-0.005460218,1,0,0,1.0776,optionRight,40,13895,6,39,0,39,0,1,,,,,,,,,,,,,,,,,,,,,,,,,,,,,,,,,,,,,,,
,,,,,,,,08-16-2023_08h31.21.722,HF_wild_card,2022.2.4,Win32,60.0276127,62fb7a7a78d3bbcf82ac4083,64d2fd46c836a06233681665,64dc7b35998f49eb8ba08db5,,,,,,,sngl,resources/DBN.BMP,resources/Empty.png,Door1,-0.145085803,0.007020281,1,0,0,1.0782,optionLeft,30,13925,6,40,0,40,0,1,,,,,,,,,,,,,,,,,,,,,,,,,,,,,,,,,,,,,,,
,,,,,,,,08-16-2023_08h31.21.722,HF_wild_card,2022.2.4,Win32,60.0276127,62fb7a7a78d3bbcf82ac4083,64d2fd46c836a06233681665,64dc7b35998f49eb8ba08db5,,,,,,,sngl,resources/DG.BMP,resources/Empty.png,Door3,-0.120124805,-0.013780567,1,0,0,1.0276,optionLeft,70,13995,6,41,0,41,0,1,,,,,,,,,,,,,,,,,,,,,,,,,,,,,,,,,,,,,,,
,,,,,,,,08-16-2023_08h31.21.722,HF_wild_card,2022.2.4,Win32,60.0276127,62fb7a7a78d3bbcf82ac4083,64d2fd46c836a06233681665,64dc7b35998f49eb8ba08db5,,,,,,,decisionTrl,resources/DBN.BMP,resources/DY.BMP,Door2,0.141965679,0.002860083,1,0,0,2.8105,optionRight,40,14035,6,42,0,42,0,1,,,,,,,,,,,,,,,,,,,,,,,,,,,,,,,,,,,,,,,
,,,,,,,,08-16-2023_08h31.21.722,HF_wild_card,2022.2.4,Win32,60.0276127,62fb7a7a78d3bbcf82ac4083,64d2fd46c836a06233681665,64dc7b35998f49eb8ba08db5,,,,,,,decisionTrl,resources/DBN.BMP,resources/DY.BMP,Door2,0.136765502,-0.002340094,1,0,0,1.0869,optionRight,20,14055,6,43,0,43,0,1,,,,,,,,,,,,,,,,,,,,,,,,,,,,,,,,,,,,,,,
,,,,,,,,08-16-2023_08h31.21.722,HF_wild_card,2022.2.4,Win32,60.0276127,62fb7a7a78d3bbcf82ac4083,64d2fd46c836a06233681665,64dc7b35998f49eb8ba08db5,,,,,,,,,,,,,,,,,,,,,,,,,,5,0,5,0,1,,,,,,,,,,,,,,,,,,,,,,,,,,,,,,,,,,
,,,,,,,,08-16-2023_08h31.21.722,HF_wild_card,2022.2.4,Win32,60.0276127,62fb7a7a78d3bbcf82ac4083,64d2fd46c836a06233681665,64dc7b35998f49eb8ba08db5,,,,,,,decisionTrl,resources/DY.BMP,resources/DBN.BMP,Door2,-0.169006729,-0.006500292,1,0,0,1.6028,optionLeft,40,14095,7,0,0,0,0,1,,,,,,,,,,,,,,,,,,,,,,,,,,,,,,,,,,,,,,,
,,,,,,,,08-16-2023_08h31.21.722,HF_wild_card,2022.2.4,Win32,60.0276127,62fb7a7a78d3bbcf82ac4083,64d2fd46c836a06233681665,64dc7b35998f49eb8ba08db5,,,,,,,decisionTrl,resources/DBN.BMP,resources/DY.BMP,Door2,0.140925701,-0.014820593,1,0,0,1.3625,optionRight,20,14115,7,1,0,1,0,1,,,,,,,,,,,,,,,,,,,,,,,,,,,,,,,,,,,,,,,
,,,,,,,,08-16-2023_08h31.21.722,HF_wild_card,2022.2.4,Win32,60.0276127,62fb7a7a78d3bbcf82ac4083,64d2fd46c836a06233681665,64dc7b35998f49eb8ba08db5,,,,,,,decisionTrl,resources/DG.BMP,resources/DR.BMP,Door3,-0.118044658,0.007020281,1,0,0,1.7966,optionLeft,70,14185,7,2,0,2,0,1,,,,,,,,,,,,,,,,,,,,,,,,,,,,,,,,,,,,,,,
,,,,,,,,08-16-2023_08h31.21.722,HF_wild_card,2022.2.4,Win32,60.0276127,62fb7a7a78d3bbcf82ac4083,64d2fd46c836a06233681665,64dc7b35998f49eb8ba08db5,,,,,,,ctch,resources/DBN.BMP,resources/DR.BMP,Door4,0.133645378,-0.011700468,1,0,0,1.1947,optionRight,80,14265,7,3,0,3,0,1,,,,,,,,,,,,,,,,,,,,,,,,,,,,,,,,,,,,,,,
,,,,,,,,08-16-2023_08h31.21.722,HF_wild_card,2022.2.4,Win32,60.0276127,62fb7a7a78d3bbcf82ac4083,64d2fd46c836a06233681665,64dc7b35998f49eb8ba08db5,,,,,,,ctch,resources/DR.BMP,resources/DBN.BMP,Door4,-0.147165855,0.017420681,1,0,0,0.9796,optionLeft,80,14345,7,4,0,4,0,1,,,,,,,,,,,,,,,,,,,,,,,,,,,,,,,,,,,,,,,
,,,,,,,,08-16-2023_08h31.21.722,HF_wild_card,2022.2.4,Win32,60.0276127,62fb7a7a78d3bbcf82ac4083,64d2fd46c836a06233681665,64dc7b35998f49eb8ba08db5,,,,,,,decisionTrl,resources/DBN.BMP,resources/DY.BMP,Door2,0.120124805,0.000780031,1,0,0,1.1467,optionRight,20,14365,7,5,0,5,0,1,,,,,,,,,,,,,,,,,,,,,,,,,,,,,,,,,,,,,,,
,,,,,,,,08-16-2023_08h31.21.722,HF_wild_card,2022.2.4,Win32,60.0276127,62fb7a7a78d3bbcf82ac4083,64d2fd46c836a06233681665,64dc7b35998f49eb8ba08db5,,,,,,,decisionTrl,resources/DBN.BMP,resources/DY.BMP,Door2,0.129485179,0.000780031,1,0,0,1.0961,optionRight,40,14405,7,6,0,6,0,1,,,,,,,,,,,,,,,,,,,,,,,,,,,,,,,,,,,,,,,
,,,,,,,,08-16-2023_08h31.21.722,HF_wild_card,2022.2.4,Win32,60.0276127,62fb7a7a78d3bbcf82ac4083,64d2fd46c836a06233681665,64dc7b35998f49eb8ba08db5,,,,,,,decisionTrl,resources/DY.BMP,resources/DBN.BMP,Door2,-0.119084732,0.01326053,1,0,0,1.163,optionLeft,20,14425,7,7,0,7,0,1,,,,,,,,,,,,,,,,,,,,,,,,,,,,,,,,,,,,,,,
,,,,,,,,08-16-2023_08h31.21.722,HF_wild_card,2022.2.4,Win32,60.0276127,62fb7a7a78d3bbcf82ac4083,64d2fd46c836a06233681665,64dc7b35998f49eb8ba08db5,,,,,,,decisionTrl,resources/DBN.BMP,resources/DY.BMP,Door2,0.10244413,0.003900156,1,0,0,1.2722,optionRight,20,14445,7,8,0,8,0,1,,,,,,,,,,,,,,,,,,,,,,,,,,,,,,,,,,,,,,,
,,,,,,,,08-16-2023_08h31.21.722,HF_wild_card,2022.2.4,Win32,60.0276127,62fb7a7a78d3bbcf82ac4083,64d2fd46c836a06233681665,64dc7b35998f49eb8ba08db5,,,,,,,ctch,resources/DY.BMP,resources/DG.BMP,Door3,0.114924629,0.003900156,1,0,0,1.329,optionRight,70,14515,7,9,0,9,0,1,,,,,,,,,,,,,,,,,,,,,,,,,,,,,,,,,,,,,,,
,,,,,,,,08-16-2023_08h31.21.722,HF_wild_card,2022.2.4,Win32,60.0276127,62fb7a7a78d3bbcf82ac4083,64d2fd46c836a06233681665,64dc7b35998f49eb8ba08db5,,,,,,,decisionTrl,resources/DR.BMP,resources/DG.BMP,Door3,0.137805576,-0.000260042,1,0,0,1.3302,optionRight,70,14585,7,10,0,10,0,1,,,,,,,,,,,,,,,,,,,,,,,,,,,,,,,,,,,,,,,
,,,,,,,,08-16-2023_08h31.21.722,HF_wild_card,2022.2.4,Win32,60.0276127,62fb7a7a78d3bbcf82ac4083,64d2fd46c836a06233681665,64dc7b35998f49eb8ba08db5,,,,,,,decisionTrl,resources/DY.BMP,resources/DBN.BMP,Door2,-0.104524181,0.014300556,1,0,0,1.4634,optionLeft,20,14605,7,11,0,11,0,1,,,,,,,,,,,,,,,,,,,,,,,,,,,,,,,,,,,,,,,
,,,,,,,,08-16-2023_08h31.21.722,HF_wild_card,2022.2.4,Win32,60.0276127,62fb7a7a78d3bbcf82ac4083,64d2fd46c836a06233681665,64dc7b35998f49eb8ba08db5,,,,,,,decisionTrl,resources/DG.BMP,resources/DR.BMP,Door3,-0.115964607,0.003900156,1,0,0,1.247,optionLeft,70,14675,7,12,0,12,0,1,,,,,,,,,,,,,,,,,,,,,,,,,,,,,,,,,,,,,,,
,,,,,,,,08-16-2023_08h31.21.722,HF_wild_card,2022.2.4,Win32,60.0276127,62fb7a7a78d3bbcf82ac4083,64d2fd46c836a06233681665,64dc7b35998f49eb8ba08db5,,,,,,,ctch,resources/DY.BMP,resources/DG.BMP,Door3,0.148205928,0.000780031,1,0,0,1.0292,optionRight,70,14745,7,13,0,13,0,1,,,,,,,,,,,,,,,,,,,,,,,,,,,,,,,,,,,,,,,
,,,,,,,,08-16-2023_08h31.21.722,HF_wild_card,2022.2.4,Win32,60.0276127,62fb7a7a78d3bbcf82ac4083,64d2fd46c836a06233681665,64dc7b35998f49eb8ba08db5,,,,,,,decisionTrl,resources/DY.BMP,resources/DBN.BMP,Door2,-0.127405033,0.003900156,1,0,0,1.1961,optionLeft,20,14765,7,14,0,14,0,1,,,,,,,,,,,,,,,,,,,,,,,,,,,,,,,,,,,,,,,
,,,,,,,,08-16-2023_08h31.21.722,HF_wild_card,2022.2.4,Win32,60.0276127,62fb7a7a78d3bbcf82ac4083,64d2fd46c836a06233681665,64dc7b35998f49eb8ba08db5,,,,,,,decisionTrl,resources/DY.BMP,resources/DBN.BMP,Door2,-0.149245906,0.014300556,1,0,0,1.3553,optionLeft,40,14805,7,15,0,15,0,1,,,,,,,,,,,,,,,,,,,,,,,,,,,,,,,,,,,,,,,
,,,,,,,,08-16-2023_08h31.21.722,HF_wild_card,2022.2.4,Win32,60.0276127,62fb7a7a78d3bbcf82ac4083,64d2fd46c836a06233681665,64dc7b35998f49eb8ba08db5,,,,,,,decisionTrl,resources/DY.BMP,resources/DBN.BMP,Door2,-0.155486156,0.01326053,1,0,0,1.2316,optionLeft,40,14845,7,16,0,16,0,1,,,,,,,,,,,,,,,,,,,,,,,,,,,,,,,,,,,,,,,
,,,,,,,,08-16-2023_08h31.21.722,HF_wild_card,2022.2.4,Win32,60.0276127,62fb7a7a78d3bbcf82ac4083,64d2fd46c836a06233681665,64dc7b35998f49eb8ba08db5,,,,,,,ctch,resources/DG.BMP,resources/DY.BMP,Door3,-0.185647426,0.009100332,1,0,0,1.1889,optionLeft,70,14915,7,17,0,17,0,1,,,,,,,,,,,,,,,,,,,,,,,,,,,,,,,,,,,,,,,
,,,,,,,,08-16-2023_08h31.21.722,HF_wild_card,2022.2.4,Win32,60.0276127,62fb7a7a78d3bbcf82ac4083,64d2fd46c836a06233681665,64dc7b35998f49eb8ba08db5,,,,,,,decisionTrl,resources/DG.BMP,resources/DR.BMP,Door3,-0.132605304,0.007020281,1,0,0,1.8626,optionLeft,70,14985,7,18,0,18,0,1,,,,,,,,,,,,,,,,,,,,,,,,,,,,,,,,,,,,,,,
,,,,,,,,08-16-2023_08h31.21.722,HF_wild_card,2022.2.4,Win32,60.0276127,62fb7a7a78d3bbcf82ac4083,64d2fd46c836a06233681665,64dc7b35998f49eb8ba08db5,,,,,,,decisionTrl,resources/DBN.BMP,resources/DY.BMP,Door2,0.129485179,-0.001300068,1,0,0,1.1731,optionRight,20,15005,7,19,0,19,0,1,,,,,,,,,,,,,,,,,,,,,,,,,,,,,,,,,,,,,,,
,,,,,,,,08-16-2023_08h31.21.722,HF_wild_card,2022.2.4,Win32,60.0276127,62fb7a7a78d3bbcf82ac4083,64d2fd46c836a06233681665,64dc7b35998f49eb8ba08db5,,,,,,,decisionTrl,resources/DR.BMP,resources/DG.BMP,Door3,0.184607448,0.005980207,1,0,0,1.6702,optionRight,70,15075,7,20,0,20,0,1,,,,,,,,,,,,,,,,,,,,,,,,,,,,,,,,,,,,,,,
,,,,,,,,08-16-2023_08h31.21.722,HF_wild_card,2022.2.4,Win32,60.0276127,62fb7a7a78d3bbcf82ac4083,64d2fd46c836a06233681665,64dc7b35998f49eb8ba08db5,,,,,,,ctch,resources/DR.BMP,resources/DBN.BMP,Door4,-0.138845554,0.016380655,1,0,0,3.496,optionLeft,80,15155,7,21,0,21,0,1,,,,,,,,,,,,,,,,,,,,,,,,,,,,,,,,,,,,,,,
,,,,,,,,08-16-2023_08h31.21.722,HF_wild_card,2022.2.4,Win32,60.0276127,62fb7a7a78d3bbcf82ac4083,64d2fd46c836a06233681665,64dc7b35998f49eb8ba08db5,,,,,,,decisionTrl,resources/DG.BMP,resources/DR.BMP,Door3,-0.128445106,0.004940182,1,0,0,1.6133,optionLeft,70,15225,7,22,0,22,0,1,,,,,,,,,,,,,,,,,,,,,,,,,,,,,,,,,,,,,,,
,,,,,,,,08-16-2023_08h31.21.722,HF_wild_card,2022.2.4,Win32,60.0276127,62fb7a7a78d3bbcf82ac4083,64d2fd46c836a06233681665,64dc7b35998f49eb8ba08db5,,,,,,,ctch,resources/DG.BMP,resources/DY.BMP,Door3,-0.121164783,0.012220457,1,0,0,1.3604,optionLeft,70,15295,7,23,0,23,0,1,,,,,,,,,,,,,,,,,,,,,,,,,,,,,,,,,,,,,,,
,,,,,,,,08-16-2023_08h31.21.722,HF_wild_card,2022.2.4,Win32,60.0276127,62fb7a7a78d3bbcf82ac4083,64d2fd46c836a06233681665,64dc7b35998f49eb8ba08db5,,,,,,,ctch,resources/DBN.BMP,resources/DR.BMP,Door4,0.115964702,-0.009620417,1,0,0,1.1299,optionRight,80,15375,7,24,0,24,0,1,,,,,,,,,,,,,,,,,,,,,,,,,,,,,,,,,,,,,,,
,,,,,,,,08-16-2023_08h31.21.722,HF_wild_card,2022.2.4,Win32,60.0276127,62fb7a7a78d3bbcf82ac4083,64d2fd46c836a06233681665,64dc7b35998f49eb8ba08db5,,,,,,,decisionTrl,resources/DR.BMP,resources/DG.BMP,Door3,0.135725429,-0.005460218,1,0,0,1.4884,optionRight,70,15445,7,25,0,25,0,1,,,,,,,,,,,,,,,,,,,,,,,,,,,,,,,,,,,,,,,
,,,,,,,,08-16-2023_08h31.21.722,HF_wild_card,2022.2.4,Win32,60.0276127,62fb7a7a78d3bbcf82ac4083,64d2fd46c836a06233681665,64dc7b35998f49eb8ba08db5,,,,,,,ctch,resources/DR.BMP,resources/DBN.BMP,Door4,-0.153406105,0.012220457,1,0,0,1.114,optionLeft,80,15525,7,26,0,26,0,1,,,,,,,,,,,,,,,,,,,,,,,,,,,,,,,,,,,,,,,
,,,,,,,,08-16-2023_08h31.21.722,HF_wild_card,2022.2.4,Win32,60.0276127,62fb7a7a78d3bbcf82ac4083,64d2fd46c836a06233681665,64dc7b35998f49eb8ba08db5,,,,,,,decisionTrl,resources/DR.BMP,resources/DG.BMP,Door3,0.124285003,-0.006500292,1,0,0,1.1791,optionRight,70,15595,7,27,0,27,0,1,,,,,,,,,,,,,,,,,,,,,,,,,,,,,,,,,,,,,,,
,,,,,,,,08-16-2023_08h31.21.722,HF_wild_card,2022.2.4,Win32,60.0276127,62fb7a7a78d3bbcf82ac4083,64d2fd46c836a06233681665,64dc7b35998f49eb8ba08db5,,,,,,,decisionTrl,resources/DG.BMP,resources/DR.BMP,Door3,-0.15028598,-0.000260042,1,0,0,1.2629,optionLeft,70,15665,7,28,0,28,0,1,,,,,,,,,,,,,,,,,,,,,,,,,,,,,,,,,,,,,,,
,,,,,,,,08-16-2023_08h31.21.722,HF_wild_card,2022.2.4,Win32,60.0276127,62fb7a7a78d3bbcf82ac4083,64d2fd46c836a06233681665,64dc7b35998f49eb8ba08db5,,,,,,,ctch,resources/DBN.BMP,resources/DR.BMP,Door4,0.113884555,-0.010660442,1,0,0,1.2473,optionRight,80,15745,7,29,0,29,0,1,,,,,,,,,,,,,,,,,,,,,,,,,,,,,,,,,,,,,,,
,,,,,,,,08-16-2023_08h31.21.722,HF_wild_card,2022.2.4,Win32,60.0276127,62fb7a7a78d3bbcf82ac4083,64d2fd46c836a06233681665,64dc7b35998f49eb8ba08db5,,,,,,,ctch,resources/DG.BMP,resources/DY.BMP,Door3,-0.107644306,-0.002340094,1,0,0,1.0305,optionLeft,70,15815,7,30,0,30,0,1,,,,,,,,,,,,,,,,,,,,,,,,,,,,,,,,,,,,,,,
,,,,,,,,08-16-2023_08h31.21.722,HF_wild_card,2022.2.4,Win32,60.0276127,62fb7a7a78d3bbcf82ac4083,64d2fd46c836a06233681665,64dc7b35998f49eb8ba08db5,,,,,,,decisionTrl,resources/DR.BMP,resources/DG.BMP,Door3,0.122204952,0.010140406,1,0,0,1.8796,optionRight,70,15885,7,31,0,31,0,1,,,,,,,,,,,,,,,,,,,,,,,,,,,,,,,,,,,,,,,
,,,,,,,,08-16-2023_08h31.21.722,HF_wild_card,2022.2.4,Win32,60.0276127,62fb7a7a78d3bbcf82ac4083,64d2fd46c836a06233681665,64dc7b35998f49eb8ba08db5,,,,,,,decisionTrl,resources/DBN.BMP,resources/DY.BMP,Door2,0.156526325,-0.012740541,1,0,0,1.1403,optionRight,20,15905,7,32,0,32,0,1,,,,,,,,,,,,,,,,,,,,,,,,,,,,,,,,,,,,,,,
,,,,,,,,08-16-2023_08h31.21.722,HF_wild_card,2022.2.4,Win32,60.0276127,62fb7a7a78d3bbcf82ac4083,64d2fd46c836a06233681665,64dc7b35998f49eb8ba08db5,,,,,,,ctch,resources/DY.BMP,resources/DG.BMP,Door3,0.170046802,0.000780031,1,0,0,1.4137,optionRight,70,15975,7,33,0,33,0,1,,,,,,,,,,,,,,,,,,,,,,,,,,,,,,,,,,,,,,,
,,,,,,,,08-16-2023_08h31.21.722,HF_wild_card,2022.2.4,Win32,60.0276127,62fb7a7a78d3bbcf82ac4083,64d2fd46c836a06233681665,64dc7b35998f49eb8ba08db5,,,,,,,decisionTrl,resources/DG.BMP,resources/DR.BMP,Door3,-0.147165855,0.007020281,1,0,0,1.4809,optionLeft,70,16045,7,34,0,34,0,1,,,,,,,,,,,,,,,,,,,,,,,,,,,,,,,,,,,,,,,
,,,,,,,,08-16-2023_08h31.21.722,HF_wild_card,2022.2.4,Win32,60.0276127,62fb7a7a78d3bbcf82ac4083,64d2fd46c836a06233681665,64dc7b35998f49eb8ba08db5,,,,,,,decisionTrl,resources/DR.BMP,resources/DG.BMP,Door3,0.135725429,-0.023140942,1,0,0,2.9283,optionRight,70,16115,7,35,0,35,0,1,,,,,,,,,,,,,,,,,,,,,,,,,,,,,,,,,,,,,,,
,,,,,,,,08-16-2023_08h31.21.722,HF_wild_card,2022.2.4,Win32,60.0276127,62fb7a7a78d3bbcf82ac4083,64d2fd46c836a06233681665,64dc7b35998f49eb8ba08db5,,,,,,,,,,,,,,,,,,,,,,,,,,6,0,6,0,1,,,,,,,,,,,,,,,,,,,,,,,,,,,,,,,,,,
,,,,,,,,08-16-2023_08h31.21.722,HF_wild_card,2022.2.4,Win32,60.0276127,62fb7a7a78d3bbcf82ac4083,64d2fd46c836a06233681665,64dc7b35998f49eb8ba08db5,,,,,,,,,,,,,,,,,,,,,,,,,,,,,,,4,,,,,,,,,,,,,,,,,,,,,,,,,,,,,,,,,
,,,,,,,,08-16-2023_08h31.21.722,HF_wild_card,2022.2.4,Win32,60.0276127,62fb7a7a78d3bbcf82ac4083,64d2fd46c836a06233681665,64dc7b35998f49eb8ba08db5,,,,,,,,,,,,,,,,,,,,,,,,,,,,,,,,,,,,,,,,,,,,,,,,,,,,,,,,,,,,,,,,
,,,,,,,,08-16-2023_08h31.21.722,HF_wild_card,2022.2.4,Win32,60.0276127,62fb7a7a78d3bbcf82ac4083,64d2fd46c836a06233681665,64dc7b35998f49eb8ba08db5,,,,,,,,,,,,,,,,,,,,,,,,,,,,,,,,30,Door1,resources/DBN.BMP,0,0,0,0,1,,,,,,,,,,,,,,,,,,,,,,,,,
,,,,,,,,08-16-2023_08h31.21.722,HF_wild_card,2022.2.4,Win32,60.0276127,62fb7a7a78d3bbcf82ac4083,64d2fd46c836a06233681665,64dc7b35998f49eb8ba08db5,,,,,,,,,,,,,,,,,,,,,,,,,,,,,,,,5,WC_nonExtreme,resources/DB.BMP,1,0,1,0,1,,,,,,,,,,,,,,,,,,,,,,,,,
,,,,,,,,08-16-2023_08h31.21.722,HF_wild_card,2022.2.4,Win32,60.0276127,62fb7a7a78d3bbcf82ac4083,64d2fd46c836a06233681665,64dc7b35998f49eb8ba08db5,,,,,,,,,,,,,,,,,,,,,,,,,,,,,,,,60,Door4,resources/DR.BMP,2,0,2,0,1,,,,,,,,,,,,,,,,,,,,,,,,,
,,,,,,,,08-16-2023_08h31.21.722,HF_wild_card,2022.2.4,Win32,60.0276127,62fb7a7a78d3bbcf82ac4083,64d2fd46c836a06233681665,64dc7b35998f49eb8ba08db5,,,,,,,,,,,,,,,,,,,,,,,,,,,,,,,,40,Door2,resources/DY.BMP,3,0,3,0,1,,,,,,,,,,,,,,,,,,,,,,,,,
,,,,,,,,08-16-2023_08h31.21.722,HF_wild_card,2022.2.4,Win32,60.0276127,62fb7a7a78d3bbcf82ac4083,64d2fd46c836a06233681665,64dc7b35998f49eb8ba08db5,,,,,,,,,,,,,,,,,,,,,,,,,,,,,,,,70,Door3,resources/DG.BMP,4,0,4,0,1,,,,,,,,,,,,,,,,,,,,,,,,,
,,,,,,,,08-16-2023_08h31.21.722,HF_wild_card,2022.2.4,Win32,60.0276127,62fb7a7a78d3bbcf82ac4083,64d2fd46c836a06233681665,64dc7b35998f49eb8ba08db5,,,,,,,,,,,,,,,,,,,,,,,,,,,,,,,,5,WC_extreme,resources/DP.BMP,5,0,5,0,1,,,,,,,,,,,,,,,,,,,,,,,,,
,,,,,,,,08-16-2023_08h31.21.722,HF_wild_card,2022.2.4,Win32,60.0276127,62fb7a7a78d3bbcf82ac4083,64d2fd46c836a06233681665,64dc7b35998f49eb8ba08db5,,,,,,,,,,,,,,,,,,,,,,,,,,,,,,,,,,,,,,,,,,,,,,,,,,,,,,,,,,,,,,,,
,,,,,,,,08-16-2023_08h31.21.722,HF_wild_card,2022.2.4,Win32,60.0276127,62fb7a7a78d3bbcf82ac4083,64d2fd46c836a06233681665,64dc7b35998f49eb8ba08db5,,,,,,,,,,,,,,,,,,,,,,,,,,,,,,,,,,,,,,,,0,0,0,0,1,,,,,,,,,,,,,,,,,,,,
,,,,,,,,08-16-2023_08h31.21.722,HF_wild_card,2022.2.4,Win32,60.0276127,62fb7a7a78d3bbcf82ac4083,64d2fd46c836a06233681665,64dc7b35998f49eb8ba08db5,,,,,,,,,,,,,,,,,,,,,,,,,,,,,,,,,,,,,,,,1,0,1,0,1,,,,,,,,,,,,,,,,,,,,
