Condition,Low fixed image (Door1),Low risky image (Door2),High fixed image (Door3),High risky image (Door4),NonExtreme Wild Card 1,NonExtreme Wild Card 2,,date,expName,psychopyVersion,OS,frameRate,PROLIFIC_PID,STUDY_ID,SESSION_ID,mouse_2.x,mouse_2.y,mouse_2.leftButton,mouse_2.midButton,mouse_2.rightButton,mouse_2.clicked_name,Trial Type,Left Option Image,Right Option Image,Chosen Door,mouse.x,mouse.y,mouse.leftButton,mouse.midButton,mouse.rightButton,mouse.time,mouse.clicked_name,Feedback,Cumulative Reward,Block,trial.thisRepN,trial.thisTrialN,trial.thisN,trial.thisIndex,trial.ran,blocks.thisRepN,blocks.thisTrialN,blocks.thisN,blocks.thisIndex,blocks.ran,Money conversion,First Outcome Reported,Shown Door (First Outcome),Displayed Image (First Outcome),outcomes.thisRepN,outcomes.thisTrialN,outcomes.thisN,outcomes.thisIndex,outcomes.ran,judgments.thisRepN,judgments.thisTrialN,judgments.thisN,judgments.thisIndex,judgments.ran,freqMouse.x,freqMouse.y,freqMouse.leftButton,freqMouse.midButton,freqMouse.rightButton,freqMouse.clicked_name,FQJ for first outcome,FQJ for second outcome,Shown Door,Displayed Image,trials.thisRepN,trials.thisTrialN,trials.thisN,trials.thisIndex,trials.ran,judgBlock.thisRepN,judgBlock.thisTrialN,judgBlock.thisN,judgBlock.thisIndex,judgBlock.ran
2,resources/DBN.BMP,resources/DP.BMP,resources/DY.BMP,resources/DB.BMP,resources/DR.BMP,resources/DG.BMP,,2023-08-16_08h49.32.652,HF_wild_card,2022.2.4,Win32,60.31363088,5c7fbbfd856d2600192161c3,64d2fd46c836a06233681665,64dc7f7d0be17dbe9ee295d7,,,,,,,,,,,,,,,,,,,,,,,,,,,,,,,,,,,,,,,,,,,,,,,,,,,,,,,,,,,,,,,,
,,,,,,,,2023-08-16_08h49.32.652,HF_wild_card,2022.2.4,Win32,60.31363088,5c7fbbfd856d2600192161c3,64d2fd46c836a06233681665,64dc7f7d0be17dbe9ee295d7,0.022222222,-0.419444444,1,0,0,agree,,,,,,,,,,,,,,,,,,,,,,,,,,,,,,,,,,,,,,,,,,,,,,,,,,,,,,,,,,
,,,,,,,,2023-08-16_08h49.32.652,HF_wild_card,2022.2.4,Win32,60.31363088,5c7fbbfd856d2600192161c3,64d2fd46c836a06233681665,64dc7f7d0be17dbe9ee295d7,,,,,,,,,,,,,,,,,,,,,,,,,,,,,,,,,,,,,,,,,,,,,,,,,,,,,,,,,,,,,,,,
,,,,,,,,2023-08-16_08h49.32.652,HF_wild_card,2022.2.4,Win32,60.31363088,5c7fbbfd856d2600192161c3,64d2fd46c836a06233681665,64dc7f7d0be17dbe9ee295d7,,,,,,,decisionTrl,resources/DY.BMP,resources/DB.BMP,Door4,0.273148148,-0.119444444,1,0,0,3.672,optionRight,80,80,1,0,0,0,0,1,,,,,,,,,,,,,,,,,,,,,,,,,,,,,,,,,,,,,,,
,,,,,,,,2023-08-16_08h49.32.652,HF_wild_card,2022.2.4,Win32,60.31363088,5c7fbbfd856d2600192161c3,64d2fd46c836a06233681665,64dc7f7d0be17dbe9ee295d7,,,,,,,decisionTrl,resources/DG.BMP,resources/DB.BMP,WildCard_NonEx,-0.222222222,-0.043518519,1,0,0,2.076,optionLeft,45,125,1,1,0,1,0,1,,,,,,,,,,,,,,,,,,,,,,,,,,,,,,,,,,,,,,,
,,,,,,,,2023-08-16_08h49.32.652,HF_wild_card,2022.2.4,Win32,60.31363088,5c7fbbfd856d2600192161c3,64d2fd46c836a06233681665,64dc7f7d0be17dbe9ee295d7,,,,,,,decisionTrl,resources/DP.BMP,resources/DBN.BMP,Door1,0.275,-0.049074074,1,0,0,2.063,optionRight,30,155,1,2,0,2,0,1,,,,,,,,,,,,,,,,,,,,,,,,,,,,,,,,,,,,,,,
,,,,,,,,2023-08-16_08h49.32.652,HF_wild_card,2022.2.4,Win32,60.31363088,5c7fbbfd856d2600192161c3,64d2fd46c836a06233681665,64dc7f7d0be17dbe9ee295d7,,,,,,,decisionTrl,resources/DG.BMP,resources/DY.BMP,Door3,0.32037037,-0.02962963,1,0,0,1.363,optionRight,70,225,1,3,0,3,0,1,,,,,,,,,,,,,,,,,,,,,,,,,,,,,,,,,,,,,,,
,,,,,,,,2023-08-16_08h49.32.652,HF_wild_card,2022.2.4,Win32,60.31363088,5c7fbbfd856d2600192161c3,64d2fd46c836a06233681665,64dc7f7d0be17dbe9ee295d7,,,,,,,decisionTrl,resources/DP.BMP,resources/DBN.BMP,Door2,-0.19537037,-0.033333333,1,0,0,2.197,optionLeft,20,245,1,4,0,4,0,1,,,,,,,,,,,,,,,,,,,,,,,,,,,,,,,,,,,,,,,
,,,,,,,,2023-08-16_08h49.32.652,HF_wild_card,2022.2.4,Win32,60.31363088,5c7fbbfd856d2600192161c3,64d2fd46c836a06233681665,64dc7f7d0be17dbe9ee295d7,,,,,,,decisionTrl,resources/DB.BMP,resources/DY.BMP,Door3,0.293518519,-0.024074074,1,0,0,0.862,optionRight,70,315,1,5,0,5,0,1,,,,,,,,,,,,,,,,,,,,,,,,,,,,,,,,,,,,,,,
,,,,,,,,2023-08-16_08h49.32.652,HF_wild_card,2022.2.4,Win32,60.31363088,5c7fbbfd856d2600192161c3,64d2fd46c836a06233681665,64dc7f7d0be17dbe9ee295d7,,,,,,,decisionTrl,resources/DBN.BMP,resources/DP.BMP,Door2,0.315740741,-0.019444444,1,0,0,1.579,optionRight,40,355,1,6,0,6,0,1,,,,,,,,,,,,,,,,,,,,,,,,,,,,,,,,,,,,,,,
,,,,,,,,2023-08-16_08h49.32.652,HF_wild_card,2022.2.4,Win32,60.31363088,5c7fbbfd856d2600192161c3,64d2fd46c836a06233681665,64dc7f7d0be17dbe9ee295d7,,,,,,,sngl,resources/Empty.png,resources/DG.BMP,WildCard_NonEx,0.213888889,0,1,0,0,1.731,optionRight,45,400,1,7,0,7,0,1,,,,,,,,,,,,,,,,,,,,,,,,,,,,,,,,,,,,,,,
,,,,,,,,2023-08-16_08h49.32.652,HF_wild_card,2022.2.4,Win32,60.31363088,5c7fbbfd856d2600192161c3,64d2fd46c836a06233681665,64dc7f7d0be17dbe9ee295d7,,,,,,,decisionTrl,resources/DB.BMP,resources/DY.BMP,Door4,-0.407407407,0.033333333,1,0,0,1.494,optionLeft,60,460,1,8,0,8,0,1,,,,,,,,,,,,,,,,,,,,,,,,,,,,,,,,,,,,,,,
,,,,,,,,2023-08-16_08h49.32.652,HF_wild_card,2022.2.4,Win32,60.31363088,5c7fbbfd856d2600192161c3,64d2fd46c836a06233681665,64dc7f7d0be17dbe9ee295d7,,,,,,,ctch,resources/DB.BMP,resources/DBN.BMP,Door4,-0.191666667,0.009259259,1,0,0,1.464,optionLeft,80,540,1,9,0,9,0,1,,,,,,,,,,,,,,,,,,,,,,,,,,,,,,,,,,,,,,,
,,,,,,,,2023-08-16_08h49.32.652,HF_wild_card,2022.2.4,Win32,60.31363088,5c7fbbfd856d2600192161c3,64d2fd46c836a06233681665,64dc7f7d0be17dbe9ee295d7,,,,,,,sngl,resources/DB.BMP,resources/Empty.png,Door4,-0.227777778,0.052777778,1,0,0,0.746,optionLeft,80,620,1,10,0,10,0,1,,,,,,,,,,,,,,,,,,,,,,,,,,,,,,,,,,,,,,,
,,,,,,,,2023-08-16_08h49.32.652,HF_wild_card,2022.2.4,Win32,60.31363088,5c7fbbfd856d2600192161c3,64d2fd46c836a06233681665,64dc7f7d0be17dbe9ee295d7,,,,,,,decisionTrl,resources/DY.BMP,resources/DB.BMP,Door4,0.284259259,-0.003703704,1,0,0,0.929,optionRight,60,680,1,11,0,11,0,1,,,,,,,,,,,,,,,,,,,,,,,,,,,,,,,,,,,,,,,
,,,,,,,,2023-08-16_08h49.32.652,HF_wild_card,2022.2.4,Win32,60.31363088,5c7fbbfd856d2600192161c3,64d2fd46c836a06233681665,64dc7f7d0be17dbe9ee295d7,,,,,,,decisionTrl,resources/DY.BMP,resources/DG.BMP,Door3,-0.322222222,0.137962963,1,0,0,0.597,optionLeft,70,750,1,12,0,12,0,1,,,,,,,,,,,,,,,,,,,,,,,,,,,,,,,,,,,,,,,
,,,,,,,,2023-08-16_08h49.32.652,HF_wild_card,2022.2.4,Win32,60.31363088,5c7fbbfd856d2600192161c3,64d2fd46c836a06233681665,64dc7f7d0be17dbe9ee295d7,,,,,,,sngl,resources/DG.BMP,resources/Empty.png,WildCard_NonEx,-0.192592593,0.05462963,1,0,0,1.047,optionLeft,45,795,1,13,0,13,0,1,,,,,,,,,,,,,,,,,,,,,,,,,,,,,,,,,,,,,,,
,,,,,,,,2023-08-16_08h49.32.652,HF_wild_card,2022.2.4,Win32,60.31363088,5c7fbbfd856d2600192161c3,64d2fd46c836a06233681665,64dc7f7d0be17dbe9ee295d7,,,,,,,ctch,resources/DB.BMP,resources/DBN.BMP,Door4,-0.257407407,0.056481481,1,0,0,0.897,optionLeft,80,875,1,14,0,14,0,1,,,,,,,,,,,,,,,,,,,,,,,,,,,,,,,,,,,,,,,
,,,,,,,,2023-08-16_08h49.32.652,HF_wild_card,2022.2.4,Win32,60.31363088,5c7fbbfd856d2600192161c3,64d2fd46c836a06233681665,64dc7f7d0be17dbe9ee295d7,,,,,,,decisionTrl,resources/DG.BMP,resources/DBN.BMP,WildCard_NonEx,-0.186111111,0.037037037,1,0,0,1.197,optionLeft,55,930,1,15,0,15,0,1,,,,,,,,,,,,,,,,,,,,,,,,,,,,,,,,,,,,,,,
,,,,,,,,2023-08-16_08h49.32.652,HF_wild_card,2022.2.4,Win32,60.31363088,5c7fbbfd856d2600192161c3,64d2fd46c836a06233681665,64dc7f7d0be17dbe9ee295d7,,,,,,,sngl,resources/DG.BMP,resources/Empty.png,WildCard_NonEx,-0.186111111,0.053703704,1,0,0,0.747,optionLeft,55,985,1,16,0,16,0,1,,,,,,,,,,,,,,,,,,,,,,,,,,,,,,,,,,,,,,,
,,,,,,,,2023-08-16_08h49.32.652,HF_wild_card,2022.2.4,Win32,60.31363088,5c7fbbfd856d2600192161c3,64d2fd46c836a06233681665,64dc7f7d0be17dbe9ee295d7,,,,,,,ctch,resources/DP.BMP,resources/DY.BMP,Door2,-0.165740741,0.058333333,1,0,0,0.698,optionLeft,20,1005,1,17,0,17,0,1,,,,,,,,,,,,,,,,,,,,,,,,,,,,,,,,,,,,,,,
,,,,,,,,2023-08-16_08h49.32.652,HF_wild_card,2022.2.4,Win32,60.31363088,5c7fbbfd856d2600192161c3,64d2fd46c836a06233681665,64dc7f7d0be17dbe9ee295d7,,,,,,,sngl,resources/DY.BMP,resources/Empty.png,Door3,-0.141666667,0.038888889,1,0,0,0.729,optionLeft,70,1075,1,18,0,18,0,1,,,,,,,,,,,,,,,,,,,,,,,,,,,,,,,,,,,,,,,
,,,,,,,,2023-08-16_08h49.32.652,HF_wild_card,2022.2.4,Win32,60.31363088,5c7fbbfd856d2600192161c3,64d2fd46c836a06233681665,64dc7f7d0be17dbe9ee295d7,,,,,,,decisionTrl,resources/DBN.BMP,resources/DP.BMP,Door2,0.378703704,-0.050925926,1,0,0,1.029,optionRight,20,1095,1,19,0,19,0,1,,,,,,,,,,,,,,,,,,,,,,,,,,,,,,,,,,,,,,,
,,,,,,,,2023-08-16_08h49.32.652,HF_wild_card,2022.2.4,Win32,60.31363088,5c7fbbfd856d2600192161c3,64d2fd46c836a06233681665,64dc7f7d0be17dbe9ee295d7,,,,,,,decisionTrl,resources/DBN.BMP,resources/DG.BMP,WildCard_NonEx,0.311111111,-0.014814815,1,0,0,1.23,optionRight,45,1140,1,20,0,20,0,1,,,,,,,,,,,,,,,,,,,,,,,,,,,,,,,,,,,,,,,
,,,,,,,,2023-08-16_08h49.32.652,HF_wild_card,2022.2.4,Win32,60.31363088,5c7fbbfd856d2600192161c3,64d2fd46c836a06233681665,64dc7f7d0be17dbe9ee295d7,,,,,,,decisionTrl,resources/DP.BMP,resources/DG.BMP,Door2,-0.335185185,0.122222222,1,0,0,1.009,optionLeft,20,1160,1,21,0,21,0,1,,,,,,,,,,,,,,,,,,,,,,,,,,,,,,,,,,,,,,,
,,,,,,,,2023-08-16_08h49.32.652,HF_wild_card,2022.2.4,Win32,60.31363088,5c7fbbfd856d2600192161c3,64d2fd46c836a06233681665,64dc7f7d0be17dbe9ee295d7,,,,,,,decisionTrl,resources/DBN.BMP,resources/DP.BMP,Door2,0.384259259,-0.073148148,1,0,0,1.061,optionRight,40,1200,1,22,0,22,0,1,,,,,,,,,,,,,,,,,,,,,,,,,,,,,,,,,,,,,,,
,,,,,,,,2023-08-16_08h49.32.652,HF_wild_card,2022.2.4,Win32,60.31363088,5c7fbbfd856d2600192161c3,64d2fd46c836a06233681665,64dc7f7d0be17dbe9ee295d7,,,,,,,decisionTrl,resources/DY.BMP,resources/DB.BMP,Door4,0.357407407,-0.026851852,1,0,0,0.78,optionRight,60,1260,1,23,0,23,0,1,,,,,,,,,,,,,,,,,,,,,,,,,,,,,,,,,,,,,,,
,,,,,,,,2023-08-16_08h49.32.652,HF_wild_card,2022.2.4,Win32,60.31363088,5c7fbbfd856d2600192161c3,64d2fd46c836a06233681665,64dc7f7d0be17dbe9ee295d7,,,,,,,sngl,resources/DBN.BMP,resources/Empty.png,Door1,-0.137037037,0,1,0,0,0.845,optionLeft,30,1290,1,24,0,24,0,1,,,,,,,,,,,,,,,,,,,,,,,,,,,,,,,,,,,,,,,
,,,,,,,,2023-08-16_08h49.32.652,HF_wild_card,2022.2.4,Win32,60.31363088,5c7fbbfd856d2600192161c3,64d2fd46c836a06233681665,64dc7f7d0be17dbe9ee295d7,,,,,,,ctch,resources/DBN.BMP,resources/DB.BMP,Door4,0.435185185,-0.05462963,1,0,0,0.68,optionRight,80,1370,1,25,0,25,0,1,,,,,,,,,,,,,,,,,,,,,,,,,,,,,,,,,,,,,,,
,,,,,,,,2023-08-16_08h49.32.652,HF_wild_card,2022.2.4,Win32,60.31363088,5c7fbbfd856d2600192161c3,64d2fd46c836a06233681665,64dc7f7d0be17dbe9ee295d7,,,,,,,decisionTrl,resources/DP.BMP,resources/DBN.BMP,Door2,-0.20462963,0.038888889,1,0,0,0.83,optionLeft,40,1410,1,26,0,26,0,1,,,,,,,,,,,,,,,,,,,,,,,,,,,,,,,,,,,,,,,
,,,,,,,,2023-08-16_08h49.32.652,HF_wild_card,2022.2.4,Win32,60.31363088,5c7fbbfd856d2600192161c3,64d2fd46c836a06233681665,64dc7f7d0be17dbe9ee295d7,,,,,,,sngl,resources/DP.BMP,resources/Empty.png,Door2,-0.131481481,0.031481481,1,0,0,0.646,optionLeft,40,1450,1,27,0,27,0,1,,,,,,,,,,,,,,,,,,,,,,,,,,,,,,,,,,,,,,,
,,,,,,,,2023-08-16_08h49.32.652,HF_wild_card,2022.2.4,Win32,60.31363088,5c7fbbfd856d2600192161c3,64d2fd46c836a06233681665,64dc7f7d0be17dbe9ee295d7,,,,,,,decisionTrl,resources/DP.BMP,resources/DBN.BMP,Door1,0.521296296,-0.105555556,1,0,0,1.431,optionRight,30,1480,1,28,0,28,0,1,,,,,,,,,,,,,,,,,,,,,,,,,,,,,,,,,,,,,,,
,,,,,,,,2023-08-16_08h49.32.652,HF_wild_card,2022.2.4,Win32,60.31363088,5c7fbbfd856d2600192161c3,64d2fd46c836a06233681665,64dc7f7d0be17dbe9ee295d7,,,,,,,decisionTrl,resources/DB.BMP,resources/DY.BMP,Door4,-0.228703704,0.093518519,1,0,0,0.596,optionLeft,80,1560,1,29,0,29,0,1,,,,,,,,,,,,,,,,,,,,,,,,,,,,,,,,,,,,,,,
,,,,,,,,2023-08-16_08h49.32.652,HF_wild_card,2022.2.4,Win32,60.31363088,5c7fbbfd856d2600192161c3,64d2fd46c836a06233681665,64dc7f7d0be17dbe9ee295d7,,,,,,,sngl,resources/Empty.png,resources/DB.BMP,Door4,0.390740741,-0.058333333,1,0,0,0.813,optionRight,60,1620,1,30,0,30,0,1,,,,,,,,,,,,,,,,,,,,,,,,,,,,,,,,,,,,,,,
,,,,,,,,2023-08-16_08h49.32.652,HF_wild_card,2022.2.4,Win32,60.31363088,5c7fbbfd856d2600192161c3,64d2fd46c836a06233681665,64dc7f7d0be17dbe9ee295d7,,,,,,,decisionTrl,resources/DG.BMP,resources/DP.BMP,Door2,0.477777778,-0.084259259,1,0,0,1.197,optionRight,20,1640,1,31,0,31,0,1,,,,,,,,,,,,,,,,,,,,,,,,,,,,,,,,,,,,,,,
,,,,,,,,2023-08-16_08h49.32.652,HF_wild_card,2022.2.4,Win32,60.31363088,5c7fbbfd856d2600192161c3,64d2fd46c836a06233681665,64dc7f7d0be17dbe9ee295d7,,,,,,,sngl,resources/Empty.png,resources/DBN.BMP,Door1,0.358333333,-0.007407407,1,0,0,0.813,optionRight,30,1670,1,32,0,32,0,1,,,,,,,,,,,,,,,,,,,,,,,,,,,,,,,,,,,,,,,
,,,,,,,,2023-08-16_08h49.32.652,HF_wild_card,2022.2.4,Win32,60.31363088,5c7fbbfd856d2600192161c3,64d2fd46c836a06233681665,64dc7f7d0be17dbe9ee295d7,,,,,,,ctch,resources/DP.BMP,resources/DY.BMP,Door2,-0.127777778,0.062037037,1,0,0,0.597,optionLeft,20,1690,1,33,0,33,0,1,,,,,,,,,,,,,,,,,,,,,,,,,,,,,,,,,,,,,,,
,,,,,,,,2023-08-16_08h49.32.652,HF_wild_card,2022.2.4,Win32,60.31363088,5c7fbbfd856d2600192161c3,64d2fd46c836a06233681665,64dc7f7d0be17dbe9ee295d7,,,,,,,decisionTrl,resources/DY.BMP,resources/DB.BMP,Door4,0.377777778,-0.023148148,1,0,0,0.913,optionRight,60,1750,1,34,0,34,0,1,,,,,,,,,,,,,,,,,,,,,,,,,,,,,,,,,,,,,,,
,,,,,,,,2023-08-16_08h49.32.652,HF_wild_card,2022.2.4,Win32,60.31363088,5c7fbbfd856d2600192161c3,64d2fd46c836a06233681665,64dc7f7d0be17dbe9ee295d7,,,,,,,sngl,resources/Empty.png,resources/DP.BMP,Door2,0.332407407,-0.009259259,1,0,0,0.662,optionRight,20,1770,1,35,0,35,0,1,,,,,,,,,,,,,,,,,,,,,,,,,,,,,,,,,,,,,,,
,,,,,,,,2023-08-16_08h49.32.652,HF_wild_card,2022.2.4,Win32,60.31363088,5c7fbbfd856d2600192161c3,64d2fd46c836a06233681665,64dc7f7d0be17dbe9ee295d7,,,,,,,sngl,resources/Empty.png,resources/DY.BMP,Door3,0.308333333,0.001851852,1,0,0,0.88,optionRight,70,1840,1,36,0,36,0,1,,,,,,,,,,,,,,,,,,,,,,,,,,,,,,,,,,,,,,,
,,,,,,,,2023-08-16_08h49.32.652,HF_wild_card,2022.2.4,Win32,60.31363088,5c7fbbfd856d2600192161c3,64d2fd46c836a06233681665,64dc7f7d0be17dbe9ee295d7,,,,,,,decisionTrl,resources/DBN.BMP,resources/DP.BMP,Door2,0.219444444,-0.033333333,1,0,0,1.445,optionRight,40,1880,1,37,0,37,0,1,,,,,,,,,,,,,,,,,,,,,,,,,,,,,,,,,,,,,,,
,,,,,,,,2023-08-16_08h49.32.652,HF_wild_card,2022.2.4,Win32,60.31363088,5c7fbbfd856d2600192161c3,64d2fd46c836a06233681665,64dc7f7d0be17dbe9ee295d7,,,,,,,ctch,resources/DBN.BMP,resources/DB.BMP,Door4,0.261111111,-0.003703704,1,0,0,0.846,optionRight,60,1940,1,38,0,38,0,1,,,,,,,,,,,,,,,,,,,,,,,,,,,,,,,,,,,,,,,
,,,,,,,,2023-08-16_08h49.32.652,HF_wild_card,2022.2.4,Win32,60.31363088,5c7fbbfd856d2600192161c3,64d2fd46c836a06233681665,64dc7f7d0be17dbe9ee295d7,,,,,,,sngl,resources/Empty.png,resources/DG.BMP,WildCard_NonEx,0.301851852,-0.010185185,1,0,0,0.73,optionRight,55,1995,1,39,0,39,0,1,,,,,,,,,,,,,,,,,,,,,,,,,,,,,,,,,,,,,,,
,,,,,,,,2023-08-16_08h49.32.652,HF_wild_card,2022.2.4,Win32,60.31363088,5c7fbbfd856d2600192161c3,64d2fd46c836a06233681665,64dc7f7d0be17dbe9ee295d7,,,,,,,ctch,resources/DY.BMP,resources/DP.BMP,Door3,-0.15,0.021296296,1,0,0,1.664,optionLeft,70,2065,1,40,0,40,0,1,,,,,,,,,,,,,,,,,,,,,,,,,,,,,,,,,,,,,,,
,,,,,,,,2023-08-16_08h49.32.652,HF_wild_card,2022.2.4,Win32,60.31363088,5c7fbbfd856d2600192161c3,64d2fd46c836a06233681665,64dc7f7d0be17dbe9ee295d7,,,,,,,decisionTrl,resources/DB.BMP,resources/DG.BMP,Door4,-0.166666667,0.014814815,1,0,0,0.964,optionLeft,60,2125,1,41,0,41,0,1,,,,,,,,,,,,,,,,,,,,,,,,,,,,,,,,,,,,,,,
,,,,,,,,2023-08-16_08h49.32.652,HF_wild_card,2022.2.4,Win32,60.31363088,5c7fbbfd856d2600192161c3,64d2fd46c836a06233681665,64dc7f7d0be17dbe9ee295d7,,,,,,,decisionTrl,resources/DB.BMP,resources/DY.BMP,Door4,-0.153703704,0.009259259,1,0,0,0.881,optionLeft,80,2205,1,42,0,42,0,1,,,,,,,,,,,,,,,,,,,,,,,,,,,,,,,,,,,,,,,
,,,,,,,,2023-08-16_08h49.32.652,HF_wild_card,2022.2.4,Win32,60.31363088,5c7fbbfd856d2600192161c3,64d2fd46c836a06233681665,64dc7f7d0be17dbe9ee295d7,,,,,,,ctch,resources/DY.BMP,resources/DP.BMP,Door3,-0.072222222,0.00462963,1,0,0,0.93,optionLeft,70,2275,1,43,0,43,0,1,,,,,,,,,,,,,,,,,,,,,,,,,,,,,,,,,,,,,,,
,,,,,,,,2023-08-16_08h49.32.652,HF_wild_card,2022.2.4,Win32,60.31363088,5c7fbbfd856d2600192161c3,64d2fd46c836a06233681665,64dc7f7d0be17dbe9ee295d7,,,,,,,,,,,,,,,,,,,,,,,,,,0,0,0,0,1,,,,,,,,,,,,,,,,,,,,,,,,,,,,,,,,,,
,,,,,,,,2023-08-16_08h49.32.652,HF_wild_card,2022.2.4,Win32,60.31363088,5c7fbbfd856d2600192161c3,64d2fd46c836a06233681665,64dc7f7d0be17dbe9ee295d7,,,,,,,sngl,resources/Empty.png,resources/DB.BMP,Door4,0.307407407,-0.115740741,1,0,0,1.041,optionRight,80,2355,2,0,0,0,0,1,,,,,,,,,,,,,,,,,,,,,,,,,,,,,,,,,,,,,,,
,,,,,,,,2023-08-16_08h49.32.652,HF_wild_card,2022.2.4,Win32,60.31363088,5c7fbbfd856d2600192161c3,64d2fd46c836a06233681665,64dc7f7d0be17dbe9ee295d7,,,,,,,ctch,resources/DP.BMP,resources/DY.BMP,Door2,-0.438888889,-0.033333333,1,0,0,0.911,optionLeft,40,2395,2,1,0,1,0,1,,,,,,,,,,,,,,,,,,,,,,,,,,,,,,,,,,,,,,,
,,,,,,,,2023-08-16_08h49.32.652,HF_wild_card,2022.2.4,Win32,60.31363088,5c7fbbfd856d2600192161c3,64d2fd46c836a06233681665,64dc7f7d0be17dbe9ee295d7,,,,,,,decisionTrl,resources/DG.BMP,resources/DY.BMP,Door3,0.276851852,-0.010185185,1,0,0,0.879,optionRight,70,2465,2,2,0,2,0,1,,,,,,,,,,,,,,,,,,,,,,,,,,,,,,,,,,,,,,,
,,,,,,,,2023-08-16_08h49.32.652,HF_wild_card,2022.2.4,Win32,60.31363088,5c7fbbfd856d2600192161c3,64d2fd46c836a06233681665,64dc7f7d0be17dbe9ee295d7,,,,,,,ctch,resources/DY.BMP,resources/DP.BMP,Door2,0.40462963,-0.003703704,1,0,0,0.78,optionRight,20,2485,2,3,0,3,0,1,,,,,,,,,,,,,,,,,,,,,,,,,,,,,,,,,,,,,,,
,,,,,,,,2023-08-16_08h49.32.652,HF_wild_card,2022.2.4,Win32,60.31363088,5c7fbbfd856d2600192161c3,64d2fd46c836a06233681665,64dc7f7d0be17dbe9ee295d7,,,,,,,sngl,resources/Empty.png,resources/DBN.BMP,Door1,0.210185185,0.021296296,1,0,0,1.029,optionRight,30,2515,2,4,0,4,0,1,,,,,,,,,,,,,,,,,,,,,,,,,,,,,,,,,,,,,,,
,,,,,,,,2023-08-16_08h49.32.652,HF_wild_card,2022.2.4,Win32,60.31363088,5c7fbbfd856d2600192161c3,64d2fd46c836a06233681665,64dc7f7d0be17dbe9ee295d7,,,,,,,decisionTrl,resources/DY.BMP,resources/DG.BMP,Door3,-0.149074074,0.025,1,0,0,0.729,optionLeft,70,2585,2,5,0,5,0,1,,,,,,,,,,,,,,,,,,,,,,,,,,,,,,,,,,,,,,,
,,,,,,,,2023-08-16_08h49.32.652,HF_wild_card,2022.2.4,Win32,60.31363088,5c7fbbfd856d2600192161c3,64d2fd46c836a06233681665,64dc7f7d0be17dbe9ee295d7,,,,,,,sngl,resources/Empty.png,resources/DG.BMP,WildCard_NonEx,0.209259259,0.009259259,1,0,0,0.846,optionRight,45,2630,2,6,0,6,0,1,,,,,,,,,,,,,,,,,,,,,,,,,,,,,,,,,,,,,,,
,,,,,,,,2023-08-16_08h49.32.652,HF_wild_card,2022.2.4,Win32,60.31363088,5c7fbbfd856d2600192161c3,64d2fd46c836a06233681665,64dc7f7d0be17dbe9ee295d7,,,,,,,sngl,resources/DG.BMP,resources/Empty.png,WildCard_NonEx,-0.153703704,0.027777778,1,0,0,0.612,optionLeft,55,2685,2,7,0,7,0,1,,,,,,,,,,,,,,,,,,,,,,,,,,,,,,,,,,,,,,,
,,,,,,,,2023-08-16_08h49.32.652,HF_wild_card,2022.2.4,Win32,60.31363088,5c7fbbfd856d2600192161c3,64d2fd46c836a06233681665,64dc7f7d0be17dbe9ee295d7,,,,,,,decisionTrl,resources/DB.BMP,resources/DG.BMP,Door4,-0.222222222,0.012037037,1,0,0,1.162,optionLeft,60,2745,2,8,0,8,0,1,,,,,,,,,,,,,,,,,,,,,,,,,,,,,,,,,,,,,,,
,,,,,,,,2023-08-16_08h49.32.652,HF_wild_card,2022.2.4,Win32,60.31363088,5c7fbbfd856d2600192161c3,64d2fd46c836a06233681665,64dc7f7d0be17dbe9ee295d7,,,,,,,sngl,resources/DB.BMP,resources/Empty.png,Door4,-0.237037037,0.043518519,1,0,0,0.78,optionLeft,60,2805,2,9,0,9,0,1,,,,,,,,,,,,,,,,,,,,,,,,,,,,,,,,,,,,,,,
,,,,,,,,2023-08-16_08h49.32.652,HF_wild_card,2022.2.4,Win32,60.31363088,5c7fbbfd856d2600192161c3,64d2fd46c836a06233681665,64dc7f7d0be17dbe9ee295d7,,,,,,,decisionTrl,resources/DB.BMP,resources/DY.BMP,Door4,-0.250925926,0.043518519,1,0,0,0.713,optionLeft,60,2865,2,10,0,10,0,1,,,,,,,,,,,,,,,,,,,,,,,,,,,,,,,,,,,,,,,
,,,,,,,,2023-08-16_08h49.32.652,HF_wild_card,2022.2.4,Win32,60.31363088,5c7fbbfd856d2600192161c3,64d2fd46c836a06233681665,64dc7f7d0be17dbe9ee295d7,,,,,,,decisionTrl,resources/DG.BMP,resources/DB.BMP,Door4,0.247222222,0.002777778,1,0,0,1.08,optionRight,60,2925,2,11,0,11,0,1,,,,,,,,,,,,,,,,,,,,,,,,,,,,,,,,,,,,,,,
,,,,,,,,2023-08-16_08h49.32.652,HF_wild_card,2022.2.4,Win32,60.31363088,5c7fbbfd856d2600192161c3,64d2fd46c836a06233681665,64dc7f7d0be17dbe9ee295d7,,,,,,,sngl,resources/DP.BMP,resources/Empty.png,Door2,-0.141666667,0.040740741,1,0,0,0.697,optionLeft,20,2945,2,12,0,12,0,1,,,,,,,,,,,,,,,,,,,,,,,,,,,,,,,,,,,,,,,
,,,,,,,,2023-08-16_08h49.32.652,HF_wild_card,2022.2.4,Win32,60.31363088,5c7fbbfd856d2600192161c3,64d2fd46c836a06233681665,64dc7f7d0be17dbe9ee295d7,,,,,,,ctch,resources/DY.BMP,resources/DP.BMP,Door3,-0.309259259,0.02962963,1,0,0,1.746,optionLeft,70,3015,2,13,0,13,0,1,,,,,,,,,,,,,,,,,,,,,,,,,,,,,,,,,,,,,,,
,,,,,,,,2023-08-16_08h49.32.652,HF_wild_card,2022.2.4,Win32,60.31363088,5c7fbbfd856d2600192161c3,64d2fd46c836a06233681665,64dc7f7d0be17dbe9ee295d7,,,,,,,ctch,resources/DB.BMP,resources/DBN.BMP,Door4,-0.436111111,0.093518519,1,0,0,0.879,optionLeft,60,3075,2,14,0,14,0,1,,,,,,,,,,,,,,,,,,,,,,,,,,,,,,,,,,,,,,,
,,,,,,,,2023-08-16_08h49.32.652,HF_wild_card,2022.2.4,Win32,60.31363088,5c7fbbfd856d2600192161c3,64d2fd46c836a06233681665,64dc7f7d0be17dbe9ee295d7,,,,,,,ctch,resources/DBN.BMP,resources/DB.BMP,Door4,0.260185185,-0.007407407,1,0,0,0.845,optionRight,80,3155,2,15,0,15,0,1,,,,,,,,,,,,,,,,,,,,,,,,,,,,,,,,,,,,,,,
,,,,,,,,2023-08-16_08h49.32.652,HF_wild_card,2022.2.4,Win32,60.31363088,5c7fbbfd856d2600192161c3,64d2fd46c836a06233681665,64dc7f7d0be17dbe9ee295d7,,,,,,,decisionTrl,resources/DY.BMP,resources/DB.BMP,Door4,0.237962963,0,1,0,0,0.896,optionRight,60,3215,2,16,0,16,0,1,,,,,,,,,,,,,,,,,,,,,,,,,,,,,,,,,,,,,,,
,,,,,,,,2023-08-16_08h49.32.652,HF_wild_card,2022.2.4,Win32,60.31363088,5c7fbbfd856d2600192161c3,64d2fd46c836a06233681665,64dc7f7d0be17dbe9ee295d7,,,,,,,decisionTrl,resources/DP.BMP,resources/DBN.BMP,Door2,-0.300925926,0.071296296,1,0,0,0.925,optionLeft,20,3235,2,17,0,17,0,1,,,,,,,,,,,,,,,,,,,,,,,,,,,,,,,,,,,,,,,
,,,,,,,,2023-08-16_08h49.32.652,HF_wild_card,2022.2.4,Win32,60.31363088,5c7fbbfd856d2600192161c3,64d2fd46c836a06233681665,64dc7f7d0be17dbe9ee295d7,,,,,,,decisionTrl,resources/DY.BMP,resources/DB.BMP,Door4,0.308333333,0.000925926,1,0,0,0.63,optionRight,60,3295,2,18,0,18,0,1,,,,,,,,,,,,,,,,,,,,,,,,,,,,,,,,,,,,,,,
,,,,,,,,2023-08-16_08h49.32.652,HF_wild_card,2022.2.4,Win32,60.31363088,5c7fbbfd856d2600192161c3,64d2fd46c836a06233681665,64dc7f7d0be17dbe9ee295d7,,,,,,,sngl,resources/DBN.BMP,resources/Empty.png,Door1,-0.127777778,0.012962963,1,0,0,1.095,optionLeft,30,3325,2,19,0,19,0,1,,,,,,,,,,,,,,,,,,,,,,,,,,,,,,,,,,,,,,,
,,,,,,,,2023-08-16_08h49.32.652,HF_wild_card,2022.2.4,Win32,60.31363088,5c7fbbfd856d2600192161c3,64d2fd46c836a06233681665,64dc7f7d0be17dbe9ee295d7,,,,,,,ctch,resources/DP.BMP,resources/DY.BMP,Door2,-0.287037037,-0.001851852,1,0,0,1.03,optionLeft,40,3365,2,20,0,20,0,1,,,,,,,,,,,,,,,,,,,,,,,,,,,,,,,,,,,,,,,
,,,,,,,,2023-08-16_08h49.32.652,HF_wild_card,2022.2.4,Win32,60.31363088,5c7fbbfd856d2600192161c3,64d2fd46c836a06233681665,64dc7f7d0be17dbe9ee295d7,,,,,,,decisionTrl,resources/DG.BMP,resources/DP.BMP,Door2,0.244444444,0.007407407,1,0,0,0.963,optionRight,40,3405,2,21,0,21,0,1,,,,,,,,,,,,,,,,,,,,,,,,,,,,,,,,,,,,,,,
,,,,,,,,2023-08-16_08h49.32.652,HF_wild_card,2022.2.4,Win32,60.31363088,5c7fbbfd856d2600192161c3,64d2fd46c836a06233681665,64dc7f7d0be17dbe9ee295d7,,,,,,,decisionTrl,resources/DG.BMP,resources/DBN.BMP,WildCard_NonEx,-0.283333333,0.014814815,1,0,0,1.298,optionLeft,45,3450,2,22,0,22,0,1,,,,,,,,,,,,,,,,,,,,,,,,,,,,,,,,,,,,,,,
,,,,,,,,2023-08-16_08h49.32.652,HF_wild_card,2022.2.4,Win32,60.31363088,5c7fbbfd856d2600192161c3,64d2fd46c836a06233681665,64dc7f7d0be17dbe9ee295d7,,,,,,,ctch,resources/DBN.BMP,resources/DB.BMP,Door4,0.359259259,0.001851852,1,0,0,0.83,optionRight,80,3530,2,23,0,23,0,1,,,,,,,,,,,,,,,,,,,,,,,,,,,,,,,,,,,,,,,
,,,,,,,,2023-08-16_08h49.32.652,HF_wild_card,2022.2.4,Win32,60.31363088,5c7fbbfd856d2600192161c3,64d2fd46c836a06233681665,64dc7f7d0be17dbe9ee295d7,,,,,,,decisionTrl,resources/DP.BMP,resources/DBN.BMP,Door2,-0.239814815,-0.000925926,1,0,0,0.797,optionLeft,40,3570,2,24,0,24,0,1,,,,,,,,,,,,,,,,,,,,,,,,,,,,,,,,,,,,,,,
,,,,,,,,2023-08-16_08h49.32.652,HF_wild_card,2022.2.4,Win32,60.31363088,5c7fbbfd856d2600192161c3,64d2fd46c836a06233681665,64dc7f7d0be17dbe9ee295d7,,,,,,,decisionTrl,resources/DBN.BMP,resources/DP.BMP,Door2,0.244444444,0.003703704,1,0,0,0.664,optionRight,20,3590,2,25,0,25,0,1,,,,,,,,,,,,,,,,,,,,,,,,,,,,,,,,,,,,,,,
,,,,,,,,2023-08-16_08h49.32.652,HF_wild_card,2022.2.4,Win32,60.31363088,5c7fbbfd856d2600192161c3,64d2fd46c836a06233681665,64dc7f7d0be17dbe9ee295d7,,,,,,,decisionTrl,resources/DP.BMP,resources/DBN.BMP,Door2,-0.257407407,0.012037037,1,0,0,0.697,optionLeft,40,3630,2,26,0,26,0,1,,,,,,,,,,,,,,,,,,,,,,,,,,,,,,,,,,,,,,,
,,,,,,,,2023-08-16_08h49.32.652,HF_wild_card,2022.2.4,Win32,60.31363088,5c7fbbfd856d2600192161c3,64d2fd46c836a06233681665,64dc7f7d0be17dbe9ee295d7,,,,,,,decisionTrl,resources/DB.BMP,resources/DY.BMP,Door4,-0.249074074,-0.002777778,1,0,0,0.747,optionLeft,60,3690,2,27,0,27,0,1,,,,,,,,,,,,,,,,,,,,,,,,,,,,,,,,,,,,,,,
,,,,,,,,2023-08-16_08h49.32.652,HF_wild_card,2022.2.4,Win32,60.31363088,5c7fbbfd856d2600192161c3,64d2fd46c836a06233681665,64dc7f7d0be17dbe9ee295d7,,,,,,,ctch,resources/DB.BMP,resources/DBN.BMP,Door4,-0.146296296,0.003703704,1,0,0,0.914,optionLeft,80,3770,2,28,0,28,0,1,,,,,,,,,,,,,,,,,,,,,,,,,,,,,,,,,,,,,,,
,,,,,,,,2023-08-16_08h49.32.652,HF_wild_card,2022.2.4,Win32,60.31363088,5c7fbbfd856d2600192161c3,64d2fd46c836a06233681665,64dc7f7d0be17dbe9ee295d7,,,,,,,sngl,resources/Empty.png,resources/DP.BMP,Door2,0.242592593,0.001851852,1,0,0,1.057,optionRight,40,3810,2,29,0,29,0,1,,,,,,,,,,,,,,,,,,,,,,,,,,,,,,,,,,,,,,,
,,,,,,,,2023-08-16_08h49.32.652,HF_wild_card,2022.2.4,Win32,60.31363088,5c7fbbfd856d2600192161c3,64d2fd46c836a06233681665,64dc7f7d0be17dbe9ee295d7,,,,,,,sngl,resources/DG.BMP,resources/Empty.png,WildCard_NonEx,-0.230555556,0.008333333,1,0,0,0.68,optionLeft,45,3855,2,30,0,30,0,1,,,,,,,,,,,,,,,,,,,,,,,,,,,,,,,,,,,,,,,
,,,,,,,,2023-08-16_08h49.32.652,HF_wild_card,2022.2.4,Win32,60.31363088,5c7fbbfd856d2600192161c3,64d2fd46c836a06233681665,64dc7f7d0be17dbe9ee295d7,,,,,,,decisionTrl,resources/DBN.BMP,resources/DP.BMP,Door1,-0.342592593,0.021296296,1,0,0,1.562,optionLeft,30,3885,2,31,0,31,0,1,,,,,,,,,,,,,,,,,,,,,,,,,,,,,,,,,,,,,,,
,,,,,,,,2023-08-16_08h49.32.652,HF_wild_card,2022.2.4,Win32,60.31363088,5c7fbbfd856d2600192161c3,64d2fd46c836a06233681665,64dc7f7d0be17dbe9ee295d7,,,,,,,sngl,resources/Empty.png,resources/DG.BMP,WildCard_NonEx,0.342592593,-0.014814815,1,0,0,0.646,optionRight,55,3940,2,32,0,32,0,1,,,,,,,,,,,,,,,,,,,,,,,,,,,,,,,,,,,,,,,
,,,,,,,,2023-08-16_08h49.32.652,HF_wild_card,2022.2.4,Win32,60.31363088,5c7fbbfd856d2600192161c3,64d2fd46c836a06233681665,64dc7f7d0be17dbe9ee295d7,,,,,,,decisionTrl,resources/DB.BMP,resources/DY.BMP,Door4,-0.283333333,0.010185185,1,0,0,0.997,optionLeft,80,4020,2,33,0,33,0,1,,,,,,,,,,,,,,,,,,,,,,,,,,,,,,,,,,,,,,,
,,,,,,,,2023-08-16_08h49.32.652,HF_wild_card,2022.2.4,Win32,60.31363088,5c7fbbfd856d2600192161c3,64d2fd46c836a06233681665,64dc7f7d0be17dbe9ee295d7,,,,,,,decisionTrl,resources/DB.BMP,resources/DY.BMP,Door4,-0.463888889,0.021296296,1,0,0,0.846,optionLeft,60,4080,2,34,0,34,0,1,,,,,,,,,,,,,,,,,,,,,,,,,,,,,,,,,,,,,,,
,,,,,,,,2023-08-16_08h49.32.652,HF_wild_card,2022.2.4,Win32,60.31363088,5c7fbbfd856d2600192161c3,64d2fd46c836a06233681665,64dc7f7d0be17dbe9ee295d7,,,,,,,decisionTrl,resources/DY.BMP,resources/DB.BMP,Door4,0.303703704,-0.003703704,1,0,0,0.781,optionRight,80,4160,2,35,0,35,0,1,,,,,,,,,,,,,,,,,,,,,,,,,,,,,,,,,,,,,,,
,,,,,,,,2023-08-16_08h49.32.652,HF_wild_card,2022.2.4,Win32,60.31363088,5c7fbbfd856d2600192161c3,64d2fd46c836a06233681665,64dc7f7d0be17dbe9ee295d7,,,,,,,decisionTrl,resources/DP.BMP,resources/DG.BMP,Door2,-0.247222222,-0.000925926,1,0,0,0.613,optionLeft,40,4200,2,36,0,36,0,1,,,,,,,,,,,,,,,,,,,,,,,,,,,,,,,,,,,,,,,
,,,,,,,,2023-08-16_08h49.32.652,HF_wild_card,2022.2.4,Win32,60.31363088,5c7fbbfd856d2600192161c3,64d2fd46c836a06233681665,64dc7f7d0be17dbe9ee295d7,,,,,,,decisionTrl,resources/DBN.BMP,resources/DP.BMP,Door2,0.371296296,-0.012962963,1,0,0,0.579,optionRight,40,4240,2,37,0,37,0,1,,,,,,,,,,,,,,,,,,,,,,,,,,,,,,,,,,,,,,,
,,,,,,,,2023-08-16_08h49.32.652,HF_wild_card,2022.2.4,Win32,60.31363088,5c7fbbfd856d2600192161c3,64d2fd46c836a06233681665,64dc7f7d0be17dbe9ee295d7,,,,,,,decisionTrl,resources/DP.BMP,resources/DBN.BMP,Door2,-0.286111111,0.042592593,1,0,0,0.595,optionLeft,40,4280,2,38,0,38,0,1,,,,,,,,,,,,,,,,,,,,,,,,,,,,,,,,,,,,,,,
,,,,,,,,2023-08-16_08h49.32.652,HF_wild_card,2022.2.4,Win32,60.31363088,5c7fbbfd856d2600192161c3,64d2fd46c836a06233681665,64dc7f7d0be17dbe9ee295d7,,,,,,,decisionTrl,resources/DBN.BMP,resources/DG.BMP,WildCard_NonEx,0.417592593,-0.001851852,1,0,0,1.096,optionRight,55,4335,2,39,0,39,0,1,,,,,,,,,,,,,,,,,,,,,,,,,,,,,,,,,,,,,,,
,,,,,,,,2023-08-16_08h49.32.652,HF_wild_card,2022.2.4,Win32,60.31363088,5c7fbbfd856d2600192161c3,64d2fd46c836a06233681665,64dc7f7d0be17dbe9ee295d7,,,,,,,decisionTrl,resources/DBN.BMP,resources/DP.BMP,Door1,-0.278703704,0.07037037,1,0,0,2.191,optionLeft,30,4365,2,40,0,40,0,1,,,,,,,,,,,,,,,,,,,,,,,,,,,,,,,,,,,,,,,
,,,,,,,,2023-08-16_08h49.32.652,HF_wild_card,2022.2.4,Win32,60.31363088,5c7fbbfd856d2600192161c3,64d2fd46c836a06233681665,64dc7f7d0be17dbe9ee295d7,,,,,,,sngl,resources/DY.BMP,resources/Empty.png,Door3,-0.201851852,0.012962963,1,0,0,2.079,optionLeft,70,4435,2,41,0,41,0,1,,,,,,,,,,,,,,,,,,,,,,,,,,,,,,,,,,,,,,,
,,,,,,,,2023-08-16_08h49.32.652,HF_wild_card,2022.2.4,Win32,60.31363088,5c7fbbfd856d2600192161c3,64d2fd46c836a06233681665,64dc7f7d0be17dbe9ee295d7,,,,,,,sngl,resources/Empty.png,resources/DY.BMP,Door3,0.256481481,0.00462963,1,0,0,1.129,optionRight,70,4505,2,42,0,42,0,1,,,,,,,,,,,,,,,,,,,,,,,,,,,,,,,,,,,,,,,
,,,,,,,,2023-08-16_08h49.32.652,HF_wild_card,2022.2.4,Win32,60.31363088,5c7fbbfd856d2600192161c3,64d2fd46c836a06233681665,64dc7f7d0be17dbe9ee295d7,,,,,,,decisionTrl,resources/DY.BMP,resources/DB.BMP,Door4,0.390740741,0.011111111,1,0,0,1.146,optionRight,60,4565,2,43,0,43,0,1,,,,,,,,,,,,,,,,,,,,,,,,,,,,,,,,,,,,,,,
,,,,,,,,2023-08-16_08h49.32.652,HF_wild_card,2022.2.4,Win32,60.31363088,5c7fbbfd856d2600192161c3,64d2fd46c836a06233681665,64dc7f7d0be17dbe9ee295d7,,,,,,,,,,,,,,,,,,,,,,,,,,1,0,1,0,1,,,,,,,,,,,,,,,,,,,,,,,,,,,,,,,,,,
,,,,,,,,2023-08-16_08h49.32.652,HF_wild_card,2022.2.4,Win32,60.31363088,5c7fbbfd856d2600192161c3,64d2fd46c836a06233681665,64dc7f7d0be17dbe9ee295d7,,,,,,,sngl,resources/DG.BMP,resources/Empty.png,WildCard_NonEx,-0.277777778,-0.131481481,1,0,0,1.991,optionLeft,55,4620,3,0,0,0,0,1,,,,,,,,,,,,,,,,,,,,,,,,,,,,,,,,,,,,,,,
,,,,,,,,2023-08-16_08h49.32.652,HF_wild_card,2022.2.4,Win32,60.31363088,5c7fbbfd856d2600192161c3,64d2fd46c836a06233681665,64dc7f7d0be17dbe9ee295d7,,,,,,,sngl,resources/Empty.png,resources/DG.BMP,WildCard_NonEx,0.313888889,-0.012037037,1,0,0,0.713,optionRight,45,4665,3,1,0,1,0,1,,,,,,,,,,,,,,,,,,,,,,,,,,,,,,,,,,,,,,,
,,,,,,,,2023-08-16_08h49.32.652,HF_wild_card,2022.2.4,Win32,60.31363088,5c7fbbfd856d2600192161c3,64d2fd46c836a06233681665,64dc7f7d0be17dbe9ee295d7,,,,,,,sngl,resources/Empty.png,resources/DG.BMP,WildCard_NonEx,0.351851852,0.007407407,1,0,0,0.596,optionRight,55,4720,3,2,0,2,0,1,,,,,,,,,,,,,,,,,,,,,,,,,,,,,,,,,,,,,,,
,,,,,,,,2023-08-16_08h49.32.652,HF_wild_card,2022.2.4,Win32,60.31363088,5c7fbbfd856d2600192161c3,64d2fd46c836a06233681665,64dc7f7d0be17dbe9ee295d7,,,,,,,sngl,resources/DP.BMP,resources/Empty.png,Door2,-0.246296296,0.024074074,1,0,0,0.496,optionLeft,40,4760,3,3,0,3,0,1,,,,,,,,,,,,,,,,,,,,,,,,,,,,,,,,,,,,,,,
,,,,,,,,2023-08-16_08h49.32.652,HF_wild_card,2022.2.4,Win32,60.31363088,5c7fbbfd856d2600192161c3,64d2fd46c836a06233681665,64dc7f7d0be17dbe9ee295d7,,,,,,,ctch,resources/DP.BMP,resources/DY.BMP,Door2,-0.39537037,0.042592593,1,0,0,0.925,optionLeft,40,4800,3,4,0,4,0,1,,,,,,,,,,,,,,,,,,,,,,,,,,,,,,,,,,,,,,,
,,,,,,,,2023-08-16_08h49.32.652,HF_wild_card,2022.2.4,Win32,60.31363088,5c7fbbfd856d2600192161c3,64d2fd46c836a06233681665,64dc7f7d0be17dbe9ee295d7,,,,,,,ctch,resources/DBN.BMP,resources/DB.BMP,Door4,0.193518519,-0.021296296,1,0,0,0.496,optionRight,80,4880,3,5,0,5,0,1,,,,,,,,,,,,,,,,,,,,,,,,,,,,,,,,,,,,,,,
,,,,,,,,2023-08-16_08h49.32.652,HF_wild_card,2022.2.4,Win32,60.31363088,5c7fbbfd856d2600192161c3,64d2fd46c836a06233681665,64dc7f7d0be17dbe9ee295d7,,,,,,,decisionTrl,resources/DBN.BMP,resources/DP.BMP,Door2,0.247222222,-0.025925926,1,0,0,0.896,optionRight,40,4920,3,6,0,6,0,1,,,,,,,,,,,,,,,,,,,,,,,,,,,,,,,,,,,,,,,
,,,,,,,,2023-08-16_08h49.32.652,HF_wild_card,2022.2.4,Win32,60.31363088,5c7fbbfd856d2600192161c3,64d2fd46c836a06233681665,64dc7f7d0be17dbe9ee295d7,,,,,,,sngl,resources/DG.BMP,resources/Empty.png,WildCard_NonEx,-0.22962963,0.028703704,1,0,0,0.564,optionLeft,45,4965,3,7,0,7,0,1,,,,,,,,,,,,,,,,,,,,,,,,,,,,,,,,,,,,,,,
,,,,,,,,2023-08-16_08h49.32.652,HF_wild_card,2022.2.4,Win32,60.31363088,5c7fbbfd856d2600192161c3,64d2fd46c836a06233681665,64dc7f7d0be17dbe9ee295d7,,,,,,,decisionTrl,resources/DG.BMP,resources/DP.BMP,Door2,0.384259259,-0.035185185,1,0,0,0.549,optionRight,20,4985,3,8,0,8,0,1,,,,,,,,,,,,,,,,,,,,,,,,,,,,,,,,,,,,,,,
,,,,,,,,2023-08-16_08h49.32.652,HF_wild_card,2022.2.4,Win32,60.31363088,5c7fbbfd856d2600192161c3,64d2fd46c836a06233681665,64dc7f7d0be17dbe9ee295d7,,,,,,,ctch,resources/DP.BMP,resources/DY.BMP,Door2,-0.209259259,0.023148148,1,0,0,0.813,optionLeft,20,5005,3,9,0,9,0,1,,,,,,,,,,,,,,,,,,,,,,,,,,,,,,,,,,,,,,,
,,,,,,,,2023-08-16_08h49.32.652,HF_wild_card,2022.2.4,Win32,60.31363088,5c7fbbfd856d2600192161c3,64d2fd46c836a06233681665,64dc7f7d0be17dbe9ee295d7,,,,,,,decisionTrl,resources/DG.BMP,resources/DBN.BMP,WildCard_NonEx,-0.235185185,0.012037037,1,0,0,1.045,optionLeft,45,5050,3,10,0,10,0,1,,,,,,,,,,,,,,,,,,,,,,,,,,,,,,,,,,,,,,,
,,,,,,,,2023-08-16_08h49.32.652,HF_wild_card,2022.2.4,Win32,60.31363088,5c7fbbfd856d2600192161c3,64d2fd46c836a06233681665,64dc7f7d0be17dbe9ee295d7,,,,,,,ctch,resources/DB.BMP,resources/DBN.BMP,Door1,0.22962963,-0.022222222,1,0,0,0.498,optionRight,30,5080,3,11,0,11,0,1,,,,,,,,,,,,,,,,,,,,,,,,,,,,,,,,,,,,,,,
,,,,,,,,2023-08-16_08h49.32.652,HF_wild_card,2022.2.4,Win32,60.31363088,5c7fbbfd856d2600192161c3,64d2fd46c836a06233681665,64dc7f7d0be17dbe9ee295d7,,,,,,,sngl,resources/Empty.png,resources/DBN.BMP,Door1,0.301851852,-0.02962963,1,0,0,0.679,optionRight,30,5110,3,12,0,12,0,1,,,,,,,,,,,,,,,,,,,,,,,,,,,,,,,,,,,,,,,
,,,,,,,,2023-08-16_08h49.32.652,HF_wild_card,2022.2.4,Win32,60.31363088,5c7fbbfd856d2600192161c3,64d2fd46c836a06233681665,64dc7f7d0be17dbe9ee295d7,,,,,,,decisionTrl,resources/DB.BMP,resources/DY.BMP,Door4,-0.235185185,0.021296296,1,0,0,1.948,optionLeft,60,5170,3,13,0,13,0,1,,,,,,,,,,,,,,,,,,,,,,,,,,,,,,,,,,,,,,,
,,,,,,,,2023-08-16_08h49.32.652,HF_wild_card,2022.2.4,Win32,60.31363088,5c7fbbfd856d2600192161c3,64d2fd46c836a06233681665,64dc7f7d0be17dbe9ee295d7,,,,,,,decisionTrl,resources/DP.BMP,resources/DG.BMP,Door2,-0.255555556,-0.002777778,1,0,0,0.613,optionLeft,40,5210,3,14,0,14,0,1,,,,,,,,,,,,,,,,,,,,,,,,,,,,,,,,,,,,,,,
,,,,,,,,2023-08-16_08h49.32.652,HF_wild_card,2022.2.4,Win32,60.31363088,5c7fbbfd856d2600192161c3,64d2fd46c836a06233681665,64dc7f7d0be17dbe9ee295d7,,,,,,,decisionTrl,resources/DY.BMP,resources/DB.BMP,Door4,0.405555556,-0.021296296,1,0,0,0.679,optionRight,80,5290,3,15,0,15,0,1,,,,,,,,,,,,,,,,,,,,,,,,,,,,,,,,,,,,,,,
,,,,,,,,2023-08-16_08h49.32.652,HF_wild_card,2022.2.4,Win32,60.31363088,5c7fbbfd856d2600192161c3,64d2fd46c836a06233681665,64dc7f7d0be17dbe9ee295d7,,,,,,,decisionTrl,resources/DY.BMP,resources/DB.BMP,Door4,0.296296296,0.021296296,1,0,0,0.663,optionRight,80,5370,3,16,0,16,0,1,,,,,,,,,,,,,,,,,,,,,,,,,,,,,,,,,,,,,,,
,,,,,,,,2023-08-16_08h49.32.652,HF_wild_card,2022.2.4,Win32,60.31363088,5c7fbbfd856d2600192161c3,64d2fd46c836a06233681665,64dc7f7d0be17dbe9ee295d7,,,,,,,sngl,resources/DBN.BMP,resources/Empty.png,Door1,-0.211111111,0.058333333,1,0,0,0.61,optionLeft,30,5400,3,17,0,17,0,1,,,,,,,,,,,,,,,,,,,,,,,,,,,,,,,,,,,,,,,
,,,,,,,,2023-08-16_08h49.32.652,HF_wild_card,2022.2.4,Win32,60.31363088,5c7fbbfd856d2600192161c3,64d2fd46c836a06233681665,64dc7f7d0be17dbe9ee295d7,,,,,,,decisionTrl,resources/DB.BMP,resources/DY.BMP,Door4,-0.206481481,-0.019444444,1,0,0,0.928,optionLeft,60,5460,3,18,0,18,0,1,,,,,,,,,,,,,,,,,,,,,,,,,,,,,,,,,,,,,,,
,,,,,,,,2023-08-16_08h49.32.652,HF_wild_card,2022.2.4,Win32,60.31363088,5c7fbbfd856d2600192161c3,64d2fd46c836a06233681665,64dc7f7d0be17dbe9ee295d7,,,,,,,ctch,resources/DY.BMP,resources/DP.BMP,Door2,0.3,0.005555556,1,0,0,0.678,optionRight,40,5500,3,19,0,19,0,1,,,,,,,,,,,,,,,,,,,,,,,,,,,,,,,,,,,,,,,
,,,,,,,,2023-08-16_08h49.32.652,HF_wild_card,2022.2.4,Win32,60.31363088,5c7fbbfd856d2600192161c3,64d2fd46c836a06233681665,64dc7f7d0be17dbe9ee295d7,,,,,,,sngl,resources/DY.BMP,resources/Empty.png,Door3,-0.190740741,0.017592593,1,0,0,0.629,optionLeft,70,5570,3,20,0,20,0,1,,,,,,,,,,,,,,,,,,,,,,,,,,,,,,,,,,,,,,,
,,,,,,,,2023-08-16_08h49.32.652,HF_wild_card,2022.2.4,Win32,60.31363088,5c7fbbfd856d2600192161c3,64d2fd46c836a06233681665,64dc7f7d0be17dbe9ee295d7,,,,,,,decisionTrl,resources/DP.BMP,resources/DBN.BMP,Door2,-0.267592593,0.011111111,1,0,0,0.662,optionLeft,40,5610,3,21,0,21,0,1,,,,,,,,,,,,,,,,,,,,,,,,,,,,,,,,,,,,,,,
,,,,,,,,2023-08-16_08h49.32.652,HF_wild_card,2022.2.4,Win32,60.31363088,5c7fbbfd856d2600192161c3,64d2fd46c836a06233681665,64dc7f7d0be17dbe9ee295d7,,,,,,,sngl,resources/DB.BMP,resources/Empty.png,Door4,-0.162962963,-0.005555556,1,0,0,0.562,optionLeft,80,5690,3,22,0,22,0,1,,,,,,,,,,,,,,,,,,,,,,,,,,,,,,,,,,,,,,,
,,,,,,,,2023-08-16_08h49.32.652,HF_wild_card,2022.2.4,Win32,60.31363088,5c7fbbfd856d2600192161c3,64d2fd46c836a06233681665,64dc7f7d0be17dbe9ee295d7,,,,,,,ctch,resources/DB.BMP,resources/DBN.BMP,Door4,-0.187962963,-0.008333333,1,0,0,0.545,optionLeft,80,5770,3,23,0,23,0,1,,,,,,,,,,,,,,,,,,,,,,,,,,,,,,,,,,,,,,,
,,,,,,,,2023-08-16_08h49.32.652,HF_wild_card,2022.2.4,Win32,60.31363088,5c7fbbfd856d2600192161c3,64d2fd46c836a06233681665,64dc7f7d0be17dbe9ee295d7,,,,,,,decisionTrl,resources/DB.BMP,resources/DY.BMP,Door4,-0.340740741,0.000925926,1,0,0,1.163,optionLeft,60,5830,3,24,0,24,0,1,,,,,,,,,,,,,,,,,,,,,,,,,,,,,,,,,,,,,,,
,,,,,,,,2023-08-16_08h49.32.652,HF_wild_card,2022.2.4,Win32,60.31363088,5c7fbbfd856d2600192161c3,64d2fd46c836a06233681665,64dc7f7d0be17dbe9ee295d7,,,,,,,decisionTrl,resources/DP.BMP,resources/DBN.BMP,Door2,-0.263888889,0.008333333,1,0,0,0.594,optionLeft,20,5850,3,25,0,25,0,1,,,,,,,,,,,,,,,,,,,,,,,,,,,,,,,,,,,,,,,
,,,,,,,,2023-08-16_08h49.32.652,HF_wild_card,2022.2.4,Win32,60.31363088,5c7fbbfd856d2600192161c3,64d2fd46c836a06233681665,64dc7f7d0be17dbe9ee295d7,,,,,,,decisionTrl,resources/DP.BMP,resources/DBN.BMP,Door2,-0.362962963,-0.062037037,1,0,0,0.88,optionLeft,20,5870,3,26,0,26,0,1,,,,,,,,,,,,,,,,,,,,,,,,,,,,,,,,,,,,,,,
,,,,,,,,2023-08-16_08h49.32.652,HF_wild_card,2022.2.4,Win32,60.31363088,5c7fbbfd856d2600192161c3,64d2fd46c836a06233681665,64dc7f7d0be17dbe9ee295d7,,,,,,,decisionTrl,resources/DG.BMP,resources/DB.BMP,Door4,0.27962963,-0.040740741,1,0,0,0.562,optionRight,60,5930,3,27,0,27,0,1,,,,,,,,,,,,,,,,,,,,,,,,,,,,,,,,,,,,,,,
,,,,,,,,2023-08-16_08h49.32.652,HF_wild_card,2022.2.4,Win32,60.31363088,5c7fbbfd856d2600192161c3,64d2fd46c836a06233681665,64dc7f7d0be17dbe9ee295d7,,,,,,,ctch,resources/DY.BMP,resources/DP.BMP,Door2,0.473148148,-0.024074074,1,0,0,0.698,optionRight,20,5950,3,28,0,28,0,1,,,,,,,,,,,,,,,,,,,,,,,,,,,,,,,,,,,,,,,
,,,,,,,,2023-08-16_08h49.32.652,HF_wild_card,2022.2.4,Win32,60.31363088,5c7fbbfd856d2600192161c3,64d2fd46c836a06233681665,64dc7f7d0be17dbe9ee295d7,,,,,,,ctch,resources/DBN.BMP,resources/DB.BMP,Door4,0.310185185,0.006481481,1,0,0,0.88,optionRight,80,6030,3,29,0,29,0,1,,,,,,,,,,,,,,,,,,,,,,,,,,,,,,,,,,,,,,,
,,,,,,,,2023-08-16_08h49.32.652,HF_wild_card,2022.2.4,Win32,60.31363088,5c7fbbfd856d2600192161c3,64d2fd46c836a06233681665,64dc7f7d0be17dbe9ee295d7,,,,,,,sngl,resources/Empty.png,resources/DP.BMP,Door2,0.285185185,-0.000925926,1,0,0,0.656,optionRight,20,6050,3,30,0,30,0,1,,,,,,,,,,,,,,,,,,,,,,,,,,,,,,,,,,,,,,,
,,,,,,,,2023-08-16_08h49.32.652,HF_wild_card,2022.2.4,Win32,60.31363088,5c7fbbfd856d2600192161c3,64d2fd46c836a06233681665,64dc7f7d0be17dbe9ee295d7,,,,,,,decisionTrl,resources/DBN.BMP,resources/DP.BMP,Door1,-0.200925926,0.034259259,1,0,0,0.58,optionLeft,30,6080,3,31,0,31,0,1,,,,,,,,,,,,,,,,,,,,,,,,,,,,,,,,,,,,,,,
,,,,,,,,2023-08-16_08h49.32.652,HF_wild_card,2022.2.4,Win32,60.31363088,5c7fbbfd856d2600192161c3,64d2fd46c836a06233681665,64dc7f7d0be17dbe9ee295d7,,,,,,,decisionTrl,resources/DY.BMP,resources/DB.BMP,Door4,0.256481481,-0.00462963,1,0,0,0.563,optionRight,60,6140,3,32,0,32,0,1,,,,,,,,,,,,,,,,,,,,,,,,,,,,,,,,,,,,,,,
,,,,,,,,2023-08-16_08h49.32.652,HF_wild_card,2022.2.4,Win32,60.31363088,5c7fbbfd856d2600192161c3,64d2fd46c836a06233681665,64dc7f7d0be17dbe9ee295d7,,,,,,,decisionTrl,resources/DBN.BMP,resources/DG.BMP,WildCard_NonEx,0.287037037,-0.028703704,1,0,0,0.963,optionRight,55,6195,3,33,0,33,0,1,,,,,,,,,,,,,,,,,,,,,,,,,,,,,,,,,,,,,,,
,,,,,,,,2023-08-16_08h49.32.652,HF_wild_card,2022.2.4,Win32,60.31363088,5c7fbbfd856d2600192161c3,64d2fd46c836a06233681665,64dc7f7d0be17dbe9ee295d7,,,,,,,decisionTrl,resources/DY.BMP,resources/DG.BMP,Door3,-0.333333333,0.030555556,1,0,0,1.063,optionLeft,70,6265,3,34,0,34,0,1,,,,,,,,,,,,,,,,,,,,,,,,,,,,,,,,,,,,,,,
,,,,,,,,2023-08-16_08h49.32.652,HF_wild_card,2022.2.4,Win32,60.31363088,5c7fbbfd856d2600192161c3,64d2fd46c836a06233681665,64dc7f7d0be17dbe9ee295d7,,,,,,,decisionTrl,resources/DBN.BMP,resources/DP.BMP,Door2,0.334259259,0.010185185,1,0,0,0.964,optionRight,20,6285,3,35,0,35,0,1,,,,,,,,,,,,,,,,,,,,,,,,,,,,,,,,,,,,,,,
,,,,,,,,2023-08-16_08h49.32.652,HF_wild_card,2022.2.4,Win32,60.31363088,5c7fbbfd856d2600192161c3,64d2fd46c836a06233681665,64dc7f7d0be17dbe9ee295d7,,,,,,,decisionTrl,resources/DP.BMP,resources/DBN.BMP,Door2,-0.180555556,0.019444444,1,0,0,0.514,optionLeft,40,6325,3,36,0,36,0,1,,,,,,,,,,,,,,,,,,,,,,,,,,,,,,,,,,,,,,,
,,,,,,,,2023-08-16_08h49.32.652,HF_wild_card,2022.2.4,Win32,60.31363088,5c7fbbfd856d2600192161c3,64d2fd46c836a06233681665,64dc7f7d0be17dbe9ee295d7,,,,,,,decisionTrl,resources/DBN.BMP,resources/DP.BMP,Door2,0.3,-0.018518519,1,0,0,0.595,optionRight,40,6365,3,37,0,37,0,1,,,,,,,,,,,,,,,,,,,,,,,,,,,,,,,,,,,,,,,
,,,,,,,,2023-08-16_08h49.32.652,HF_wild_card,2022.2.4,Win32,60.31363088,5c7fbbfd856d2600192161c3,64d2fd46c836a06233681665,64dc7f7d0be17dbe9ee295d7,,,,,,,decisionTrl,resources/DB.BMP,resources/DG.BMP,Door4,-0.35462963,0,1,0,0,0.68,optionLeft,60,6425,3,38,0,38,0,1,,,,,,,,,,,,,,,,,,,,,,,,,,,,,,,,,,,,,,,
,,,,,,,,2023-08-16_08h49.32.652,HF_wild_card,2022.2.4,Win32,60.31363088,5c7fbbfd856d2600192161c3,64d2fd46c836a06233681665,64dc7f7d0be17dbe9ee295d7,,,,,,,decisionTrl,resources/DG.BMP,resources/DY.BMP,Door3,0.331481481,-0.012962963,1,0,0,0.963,optionRight,70,6495,3,39,0,39,0,1,,,,,,,,,,,,,,,,,,,,,,,,,,,,,,,,,,,,,,,
,,,,,,,,2023-08-16_08h49.32.652,HF_wild_card,2022.2.4,Win32,60.31363088,5c7fbbfd856d2600192161c3,64d2fd46c836a06233681665,64dc7f7d0be17dbe9ee295d7,,,,,,,decisionTrl,resources/DB.BMP,resources/DY.BMP,Door4,-0.24537037,0.027777778,1,0,0,0.679,optionLeft,80,6575,3,40,0,40,0,1,,,,,,,,,,,,,,,,,,,,,,,,,,,,,,,,,,,,,,,
,,,,,,,,2023-08-16_08h49.32.652,HF_wild_card,2022.2.4,Win32,60.31363088,5c7fbbfd856d2600192161c3,64d2fd46c836a06233681665,64dc7f7d0be17dbe9ee295d7,,,,,,,sngl,resources/Empty.png,resources/DB.BMP,Door4,0.244444444,0.015740741,1,0,0,0.548,optionRight,60,6635,3,41,0,41,0,1,,,,,,,,,,,,,,,,,,,,,,,,,,,,,,,,,,,,,,,
,,,,,,,,2023-08-16_08h49.32.652,HF_wild_card,2022.2.4,Win32,60.31363088,5c7fbbfd856d2600192161c3,64d2fd46c836a06233681665,64dc7f7d0be17dbe9ee295d7,,,,,,,decisionTrl,resources/DY.BMP,resources/DB.BMP,Door4,0.388888889,-0.015740741,1,0,0,1.014,optionRight,80,6715,3,42,0,42,0,1,,,,,,,,,,,,,,,,,,,,,,,,,,,,,,,,,,,,,,,
,,,,,,,,2023-08-16_08h49.32.652,HF_wild_card,2022.2.4,Win32,60.31363088,5c7fbbfd856d2600192161c3,64d2fd46c836a06233681665,64dc7f7d0be17dbe9ee295d7,,,,,,,sngl,resources/Empty.png,resources/DY.BMP,Door3,0.353703704,0.023148148,1,0,0,0.664,optionRight,70,6785,3,43,0,43,0,1,,,,,,,,,,,,,,,,,,,,,,,,,,,,,,,,,,,,,,,
,,,,,,,,2023-08-16_08h49.32.652,HF_wild_card,2022.2.4,Win32,60.31363088,5c7fbbfd856d2600192161c3,64d2fd46c836a06233681665,64dc7f7d0be17dbe9ee295d7,,,,,,,,,,,,,,,,,,,,,,,,,,2,0,2,0,1,,,,,,,,,,,,,,,,,,,,,,,,,,,,,,,,,,
,,,,,,,,2023-08-16_08h49.32.652,HF_wild_card,2022.2.4,Win32,60.31363088,5c7fbbfd856d2600192161c3,64d2fd46c836a06233681665,64dc7f7d0be17dbe9ee295d7,,,,,,,sngl,resources/Empty.png,resources/DB.BMP,Door4,0.313888889,-0.096296296,1,0,0,0.694,optionRight,80,6865,4,0,0,0,0,1,,,,,,,,,,,,,,,,,,,,,,,,,,,,,,,,,,,,,,,
,,,,,,,,2023-08-16_08h49.32.652,HF_wild_card,2022.2.4,Win32,60.31363088,5c7fbbfd856d2600192161c3,64d2fd46c836a06233681665,64dc7f7d0be17dbe9ee295d7,,,,,,,decisionTrl,resources/DP.BMP,resources/DBN.BMP,Door2,-0.189814815,0.00462963,1,0,0,0.631,optionLeft,40,6905,4,1,0,1,0,1,,,,,,,,,,,,,,,,,,,,,,,,,,,,,,,,,,,,,,,
,,,,,,,,2023-08-16_08h49.32.652,HF_wild_card,2022.2.4,Win32,60.31363088,5c7fbbfd856d2600192161c3,64d2fd46c836a06233681665,64dc7f7d0be17dbe9ee295d7,,,,,,,decisionTrl,resources/DP.BMP,resources/DR.BMP,Door2,-0.166666667,0.013888889,1,0,0,0.729,optionLeft,40,6945,4,2,0,2,0,1,,,,,,,,,,,,,,,,,,,,,,,,,,,,,,,,,,,,,,,
,,,,,,,,2023-08-16_08h49.32.652,HF_wild_card,2022.2.4,Win32,60.31363088,5c7fbbfd856d2600192161c3,64d2fd46c836a06233681665,64dc7f7d0be17dbe9ee295d7,,,,,,,ctch,resources/DY.BMP,resources/DP.BMP,Door3,-0.161111111,0.007407407,1,0,0,1.18,optionLeft,70,7015,4,3,0,3,0,1,,,,,,,,,,,,,,,,,,,,,,,,,,,,,,,,,,,,,,,
,,,,,,,,2023-08-16_08h49.32.652,HF_wild_card,2022.2.4,Win32,60.31363088,5c7fbbfd856d2600192161c3,64d2fd46c836a06233681665,64dc7f7d0be17dbe9ee295d7,,,,,,,decisionTrl,resources/DBN.BMP,resources/DP.BMP,Door2,0.426851852,-0.062037037,1,0,0,0.712,optionRight,20,7035,4,4,0,4,0,1,,,,,,,,,,,,,,,,,,,,,,,,,,,,,,,,,,,,,,,
,,,,,,,,2023-08-16_08h49.32.652,HF_wild_card,2022.2.4,Win32,60.31363088,5c7fbbfd856d2600192161c3,64d2fd46c836a06233681665,64dc7f7d0be17dbe9ee295d7,,,,,,,sngl,resources/DR.BMP,resources/Empty.png,WildCard_Ex,-0.160185185,0.003703704,1,0,0,0.597,optionLeft,45,7080,4,5,0,5,0,1,,,,,,,,,,,,,,,,,,,,,,,,,,,,,,,,,,,,,,,
,,,,,,,,2023-08-16_08h49.32.652,HF_wild_card,2022.2.4,Win32,60.31363088,5c7fbbfd856d2600192161c3,64d2fd46c836a06233681665,64dc7f7d0be17dbe9ee295d7,,,,,,,sngl,resources/Empty.png,resources/DR.BMP,WildCard_Ex,0.257407407,-0.018518519,1,0,0,0.581,optionRight,45,7125,4,6,0,6,0,1,,,,,,,,,,,,,,,,,,,,,,,,,,,,,,,,,,,,,,,
,,,,,,,,2023-08-16_08h49.32.652,HF_wild_card,2022.2.4,Win32,60.31363088,5c7fbbfd856d2600192161c3,64d2fd46c836a06233681665,64dc7f7d0be17dbe9ee295d7,,,,,,,ctch,resources/DBN.BMP,resources/DB.BMP,Door4,0.222222222,0.008333333,1,0,0,0.864,optionRight,60,7185,4,7,0,7,0,1,,,,,,,,,,,,,,,,,,,,,,,,,,,,,,,,,,,,,,,
,,,,,,,,2023-08-16_08h49.32.652,HF_wild_card,2022.2.4,Win32,60.31363088,5c7fbbfd856d2600192161c3,64d2fd46c836a06233681665,64dc7f7d0be17dbe9ee295d7,,,,,,,decisionTrl,resources/DY.BMP,resources/DR.BMP,WildCard_Ex,0.231481481,0.014814815,1,0,0,0.765,optionRight,45,7230,4,8,0,8,0,1,,,,,,,,,,,,,,,,,,,,,,,,,,,,,,,,,,,,,,,
,,,,,,,,2023-08-16_08h49.32.652,HF_wild_card,2022.2.4,Win32,60.31363088,5c7fbbfd856d2600192161c3,64d2fd46c836a06233681665,64dc7f7d0be17dbe9ee295d7,,,,,,,decisionTrl,resources/DR.BMP,resources/DP.BMP,Door2,0.414814815,-0.030555556,1,0,0,0.891,optionRight,40,7270,4,9,0,9,0,1,,,,,,,,,,,,,,,,,,,,,,,,,,,,,,,,,,,,,,,
,,,,,,,,2023-08-16_08h49.32.652,HF_wild_card,2022.2.4,Win32,60.31363088,5c7fbbfd856d2600192161c3,64d2fd46c836a06233681665,64dc7f7d0be17dbe9ee295d7,,,,,,,sngl,resources/DR.BMP,resources/Empty.png,WildCard_Ex,-0.17962963,0.008333333,1,0,0,0.496,optionLeft,55,7325,4,10,0,10,0,1,,,,,,,,,,,,,,,,,,,,,,,,,,,,,,,,,,,,,,,
,,,,,,,,2023-08-16_08h49.32.652,HF_wild_card,2022.2.4,Win32,60.31363088,5c7fbbfd856d2600192161c3,64d2fd46c836a06233681665,64dc7f7d0be17dbe9ee295d7,,,,,,,sngl,resources/DB.BMP,resources/Empty.png,Door4,-0.193518519,0.023148148,1,0,0,0.647,optionLeft,60,7385,4,11,0,11,0,1,,,,,,,,,,,,,,,,,,,,,,,,,,,,,,,,,,,,,,,
,,,,,,,,2023-08-16_08h49.32.652,HF_wild_card,2022.2.4,Win32,60.31363088,5c7fbbfd856d2600192161c3,64d2fd46c836a06233681665,64dc7f7d0be17dbe9ee295d7,,,,,,,sngl,resources/Empty.png,resources/DY.BMP,Door3,0.338888889,-0.009259259,1,0,0,0.597,optionRight,70,7455,4,12,0,12,0,1,,,,,,,,,,,,,,,,,,,,,,,,,,,,,,,,,,,,,,,
,,,,,,,,2023-08-16_08h49.32.652,HF_wild_card,2022.2.4,Win32,60.31363088,5c7fbbfd856d2600192161c3,64d2fd46c836a06233681665,64dc7f7d0be17dbe9ee295d7,,,,,,,ctch,resources/DY.BMP,resources/DP.BMP,Door3,-0.249074074,0.039814815,1,0,0,0.612,optionLeft,70,7525,4,13,0,13,0,1,,,,,,,,,,,,,,,,,,,,,,,,,,,,,,,,,,,,,,,
,,,,,,,,2023-08-16_08h49.32.652,HF_wild_card,2022.2.4,Win32,60.31363088,5c7fbbfd856d2600192161c3,64d2fd46c836a06233681665,64dc7f7d0be17dbe9ee295d7,,,,,,,sngl,resources/Empty.png,resources/DR.BMP,WildCard_Ex,0.22037037,0.017592593,1,0,0,0.58,optionRight,55,7580,4,14,0,14,0,1,,,,,,,,,,,,,,,,,,,,,,,,,,,,,,,,,,,,,,,
,,,,,,,,2023-08-16_08h49.32.652,HF_wild_card,2022.2.4,Win32,60.31363088,5c7fbbfd856d2600192161c3,64d2fd46c836a06233681665,64dc7f7d0be17dbe9ee295d7,,,,,,,ctch,resources/DP.BMP,resources/DY.BMP,Door2,-0.277777778,0.064814815,1,0,0,0.563,optionLeft,20,7600,4,15,0,15,0,1,,,,,,,,,,,,,,,,,,,,,,,,,,,,,,,,,,,,,,,
,,,,,,,,2023-08-16_08h49.32.652,HF_wild_card,2022.2.4,Win32,60.31363088,5c7fbbfd856d2600192161c3,64d2fd46c836a06233681665,64dc7f7d0be17dbe9ee295d7,,,,,,,decisionTrl,resources/DB.BMP,resources/DR.BMP,WildCard_Ex,0.380555556,-0.001851852,1,0,0,1.229,optionRight,45,7645,4,16,0,16,0,1,,,,,,,,,,,,,,,,,,,,,,,,,,,,,,,,,,,,,,,
,,,,,,,,2023-08-16_08h49.32.652,HF_wild_card,2022.2.4,Win32,60.31363088,5c7fbbfd856d2600192161c3,64d2fd46c836a06233681665,64dc7f7d0be17dbe9ee295d7,,,,,,,ctch,resources/DB.BMP,resources/DBN.BMP,Door4,-0.312962963,0.071296296,1,0,0,0.496,optionLeft,80,7725,4,17,0,17,0,1,,,,,,,,,,,,,,,,,,,,,,,,,,,,,,,,,,,,,,,
,,,,,,,,2023-08-16_08h49.32.652,HF_wild_card,2022.2.4,Win32,60.31363088,5c7fbbfd856d2600192161c3,64d2fd46c836a06233681665,64dc7f7d0be17dbe9ee295d7,,,,,,,decisionTrl,resources/DP.BMP,resources/DBN.BMP,Door2,-0.27037037,0.089814815,1,0,0,0.513,optionLeft,40,7765,4,18,0,18,0,1,,,,,,,,,,,,,,,,,,,,,,,,,,,,,,,,,,,,,,,
,,,,,,,,2023-08-16_08h49.32.652,HF_wild_card,2022.2.4,Win32,60.31363088,5c7fbbfd856d2600192161c3,64d2fd46c836a06233681665,64dc7f7d0be17dbe9ee295d7,,,,,,,sngl,resources/Empty.png,resources/DBN.BMP,Door1,0.152777778,0.039814815,1,0,0,0.629,optionRight,30,7795,4,19,0,19,0,1,,,,,,,,,,,,,,,,,,,,,,,,,,,,,,,,,,,,,,,
,,,,,,,,2023-08-16_08h49.32.652,HF_wild_card,2022.2.4,Win32,60.31363088,5c7fbbfd856d2600192161c3,64d2fd46c836a06233681665,64dc7f7d0be17dbe9ee295d7,,,,,,,ctch,resources/DP.BMP,resources/DY.BMP,Door2,-0.157407407,0.047222222,1,0,0,0.497,optionLeft,40,7835,4,20,0,20,0,1,,,,,,,,,,,,,,,,,,,,,,,,,,,,,,,,,,,,,,,
,,,,,,,,2023-08-16_08h49.32.652,HF_wild_card,2022.2.4,Win32,60.31363088,5c7fbbfd856d2600192161c3,64d2fd46c836a06233681665,64dc7f7d0be17dbe9ee295d7,,,,,,,decisionTrl,resources/DBN.BMP,resources/DP.BMP,Door2,0.331481481,-0.025925926,1,0,0,0.563,optionRight,20,7855,4,21,0,21,0,1,,,,,,,,,,,,,,,,,,,,,,,,,,,,,,,,,,,,,,,
,,,,,,,,2023-08-16_08h49.32.652,HF_wild_card,2022.2.4,Win32,60.31363088,5c7fbbfd856d2600192161c3,64d2fd46c836a06233681665,64dc7f7d0be17dbe9ee295d7,,,,,,,sngl,resources/DP.BMP,resources/Empty.png,Door2,-0.253703704,0.037962963,1,0,0,0.476,optionLeft,20,7875,4,22,0,22,0,1,,,,,,,,,,,,,,,,,,,,,,,,,,,,,,,,,,,,,,,
,,,,,,,,2023-08-16_08h49.32.652,HF_wild_card,2022.2.4,Win32,60.31363088,5c7fbbfd856d2600192161c3,64d2fd46c836a06233681665,64dc7f7d0be17dbe9ee295d7,,,,,,,decisionTrl,resources/DR.BMP,resources/DY.BMP,WildCard_Ex,-0.198148148,0.040740741,1,0,0,0.811,optionLeft,55,7930,4,23,0,23,0,1,,,,,,,,,,,,,,,,,,,,,,,,,,,,,,,,,,,,,,,
,,,,,,,,2023-08-16_08h49.32.652,HF_wild_card,2022.2.4,Win32,60.31363088,5c7fbbfd856d2600192161c3,64d2fd46c836a06233681665,64dc7f7d0be17dbe9ee295d7,,,,,,,decisionTrl,resources/DR.BMP,resources/DB.BMP,Door4,0.462037037,0.007407407,1,0,0,0.83,optionRight,80,8010,4,24,0,24,0,1,,,,,,,,,,,,,,,,,,,,,,,,,,,,,,,,,,,,,,,
,,,,,,,,2023-08-16_08h49.32.652,HF_wild_card,2022.2.4,Win32,60.31363088,5c7fbbfd856d2600192161c3,64d2fd46c836a06233681665,64dc7f7d0be17dbe9ee295d7,,,,,,,decisionTrl,resources/DR.BMP,resources/DBN.BMP,WildCard_Ex,-0.17037037,0.037962963,1,0,0,0.663,optionLeft,45,8055,4,25,0,25,0,1,,,,,,,,,,,,,,,,,,,,,,,,,,,,,,,,,,,,,,,
,,,,,,,,2023-08-16_08h49.32.652,HF_wild_card,2022.2.4,Win32,60.31363088,5c7fbbfd856d2600192161c3,64d2fd46c836a06233681665,64dc7f7d0be17dbe9ee295d7,,,,,,,ctch,resources/DBN.BMP,resources/DB.BMP,Door4,0.289814815,0.005555556,1,0,0,0.53,optionRight,60,8115,4,26,0,26,0,1,,,,,,,,,,,,,,,,,,,,,,,,,,,,,,,,,,,,,,,
,,,,,,,,2023-08-16_08h49.32.652,HF_wild_card,2022.2.4,Win32,60.31363088,5c7fbbfd856d2600192161c3,64d2fd46c836a06233681665,64dc7f7d0be17dbe9ee295d7,,,,,,,decisionTrl,resources/DBN.BMP,resources/DP.BMP,Door2,0.339814815,-0.026851852,1,0,0,0.531,optionRight,40,8155,4,27,0,27,0,1,,,,,,,,,,,,,,,,,,,,,,,,,,,,,,,,,,,,,,,
,,,,,,,,2023-08-16_08h49.32.652,HF_wild_card,2022.2.4,Win32,60.31363088,5c7fbbfd856d2600192161c3,64d2fd46c836a06233681665,64dc7f7d0be17dbe9ee295d7,,,,,,,sngl,resources/DBN.BMP,resources/Empty.png,Door1,-0.200925926,0.02037037,1,0,0,0.681,optionLeft,30,8185,4,28,0,28,0,1,,,,,,,,,,,,,,,,,,,,,,,,,,,,,,,,,,,,,,,
,,,,,,,,2023-08-16_08h49.32.652,HF_wild_card,2022.2.4,Win32,60.31363088,5c7fbbfd856d2600192161c3,64d2fd46c836a06233681665,64dc7f7d0be17dbe9ee295d7,,,,,,,sngl,resources/Empty.png,resources/DP.BMP,Door2,0.27037037,-0.024074074,1,0,0,0.58,optionRight,40,8225,4,29,0,29,0,1,,,,,,,,,,,,,,,,,,,,,,,,,,,,,,,,,,,,,,,
,,,,,,,,2023-08-16_08h49.32.652,HF_wild_card,2022.2.4,Win32,60.31363088,5c7fbbfd856d2600192161c3,64d2fd46c836a06233681665,64dc7f7d0be17dbe9ee295d7,,,,,,,sngl,resources/DY.BMP,resources/Empty.png,Door3,-0.150925926,-0.002777778,1,0,0,0.612,optionLeft,70,8295,4,30,0,30,0,1,,,,,,,,,,,,,,,,,,,,,,,,,,,,,,,,,,,,,,,
,,,,,,,,2023-08-16_08h49.32.652,HF_wild_card,2022.2.4,Win32,60.31363088,5c7fbbfd856d2600192161c3,64d2fd46c836a06233681665,64dc7f7d0be17dbe9ee295d7,,,,,,,decisionTrl,resources/DP.BMP,resources/DBN.BMP,Door2,-0.314814815,0.025925926,1,0,0,0.863,optionLeft,40,8335,4,31,0,31,0,1,,,,,,,,,,,,,,,,,,,,,,,,,,,,,,,,,,,,,,,
,,,,,,,,2023-08-16_08h49.32.652,HF_wild_card,2022.2.4,Win32,60.31363088,5c7fbbfd856d2600192161c3,64d2fd46c836a06233681665,64dc7f7d0be17dbe9ee295d7,,,,,,,ctch,resources/DB.BMP,resources/DBN.BMP,Door4,-0.243518519,0.046296296,1,0,0,0.662,optionLeft,80,8415,4,32,0,32,0,1,,,,,,,,,,,,,,,,,,,,,,,,,,,,,,,,,,,,,,,
,,,,,,,,2023-08-16_08h49.32.652,HF_wild_card,2022.2.4,Win32,60.31363088,5c7fbbfd856d2600192161c3,64d2fd46c836a06233681665,64dc7f7d0be17dbe9ee295d7,,,,,,,decisionTrl,resources/DP.BMP,resources/DBN.BMP,Door2,-0.231481481,0.04537037,1,0,0,0.528,optionLeft,40,8455,4,33,0,33,0,1,,,,,,,,,,,,,,,,,,,,,,,,,,,,,,,,,,,,,,,
,,,,,,,,2023-08-16_08h49.32.652,HF_wild_card,2022.2.4,Win32,60.31363088,5c7fbbfd856d2600192161c3,64d2fd46c836a06233681665,64dc7f7d0be17dbe9ee295d7,,,,,,,decisionTrl,resources/DY.BMP,resources/DB.BMP,Door4,0.414814815,-0.010185185,1,0,0,0.613,optionRight,60,8515,4,34,0,34,0,1,,,,,,,,,,,,,,,,,,,,,,,,,,,,,,,,,,,,,,,
,,,,,,,,2023-08-16_08h49.32.652,HF_wild_card,2022.2.4,Win32,60.31363088,5c7fbbfd856d2600192161c3,64d2fd46c836a06233681665,64dc7f7d0be17dbe9ee295d7,,,,,,,decisionTrl,resources/DB.BMP,resources/DY.BMP,Door4,-0.180555556,0.044444444,1,0,0,0.547,optionLeft,80,8595,4,35,0,35,0,1,,,,,,,,,,,,,,,,,,,,,,,,,,,,,,,,,,,,,,,
,,,,,,,,2023-08-16_08h49.32.652,HF_wild_card,2022.2.4,Win32,60.31363088,5c7fbbfd856d2600192161c3,64d2fd46c836a06233681665,64dc7f7d0be17dbe9ee295d7,,,,,,,decisionTrl,resources/DBN.BMP,resources/DP.BMP,Door2,0.363888889,-0.008333333,1,0,0,0.559,optionRight,20,8615,4,36,0,36,0,1,,,,,,,,,,,,,,,,,,,,,,,,,,,,,,,,,,,,,,,
,,,,,,,,2023-08-16_08h49.32.652,HF_wild_card,2022.2.4,Win32,60.31363088,5c7fbbfd856d2600192161c3,64d2fd46c836a06233681665,64dc7f7d0be17dbe9ee295d7,,,,,,,decisionTrl,resources/DBN.BMP,resources/DR.BMP,WildCard_Ex,0.25462963,-0.014814815,1,0,0,1.196,optionRight,45,8660,4,37,0,37,0,1,,,,,,,,,,,,,,,,,,,,,,,,,,,,,,,,,,,,,,,
,,,,,,,,2023-08-16_08h49.32.652,HF_wild_card,2022.2.4,Win32,60.31363088,5c7fbbfd856d2600192161c3,64d2fd46c836a06233681665,64dc7f7d0be17dbe9ee295d7,,,,,,,decisionTrl,resources/DY.BMP,resources/DB.BMP,Door4,0.260185185,0.012037037,1,0,0,1.094,optionRight,80,8740,4,38,0,38,0,1,,,,,,,,,,,,,,,,,,,,,,,,,,,,,,,,,,,,,,,
,,,,,,,,2023-08-16_08h49.32.652,HF_wild_card,2022.2.4,Win32,60.31363088,5c7fbbfd856d2600192161c3,64d2fd46c836a06233681665,64dc7f7d0be17dbe9ee295d7,,,,,,,decisionTrl,resources/DY.BMP,resources/DB.BMP,Door4,0.273148148,-0.012037037,1,0,0,0.63,optionRight,80,8820,4,39,0,39,0,1,,,,,,,,,,,,,,,,,,,,,,,,,,,,,,,,,,,,,,,
,,,,,,,,2023-08-16_08h49.32.652,HF_wild_card,2022.2.4,Win32,60.31363088,5c7fbbfd856d2600192161c3,64d2fd46c836a06233681665,64dc7f7d0be17dbe9ee295d7,,,,,,,decisionTrl,resources/DB.BMP,resources/DY.BMP,Door4,-0.381481481,0.012962963,1,0,0,0.83,optionLeft,80,8900,4,40,0,40,0,1,,,,,,,,,,,,,,,,,,,,,,,,,,,,,,,,,,,,,,,
,,,,,,,,2023-08-16_08h49.32.652,HF_wild_card,2022.2.4,Win32,60.31363088,5c7fbbfd856d2600192161c3,64d2fd46c836a06233681665,64dc7f7d0be17dbe9ee295d7,,,,,,,decisionTrl,resources/DB.BMP,resources/DY.BMP,Door4,-0.312962963,0.043518519,1,0,0,0.68,optionLeft,60,8960,4,41,0,41,0,1,,,,,,,,,,,,,,,,,,,,,,,,,,,,,,,,,,,,,,,
,,,,,,,,2023-08-16_08h49.32.652,HF_wild_card,2022.2.4,Win32,60.31363088,5c7fbbfd856d2600192161c3,64d2fd46c836a06233681665,64dc7f7d0be17dbe9ee295d7,,,,,,,decisionTrl,resources/DB.BMP,resources/DY.BMP,Door4,-0.300925926,0.02037037,1,0,0,0.713,optionLeft,80,9040,4,42,0,42,0,1,,,,,,,,,,,,,,,,,,,,,,,,,,,,,,,,,,,,,,,
,,,,,,,,2023-08-16_08h49.32.652,HF_wild_card,2022.2.4,Win32,60.31363088,5c7fbbfd856d2600192161c3,64d2fd46c836a06233681665,64dc7f7d0be17dbe9ee295d7,,,,,,,decisionTrl,resources/DY.BMP,resources/DB.BMP,Door4,0.52037037,0.023148148,1,0,0,0.724,optionRight,80,9120,4,43,0,43,0,1,,,,,,,,,,,,,,,,,,,,,,,,,,,,,,,,,,,,,,,
,,,,,,,,2023-08-16_08h49.32.652,HF_wild_card,2022.2.4,Win32,60.31363088,5c7fbbfd856d2600192161c3,64d2fd46c836a06233681665,64dc7f7d0be17dbe9ee295d7,,,,,,,,,,,,,,,,,,,,,,,,,,3,0,3,0,1,,,,,,,,,,,,,,,,,,,,,,,,,,,,,,,,,,
,,,,,,,,2023-08-16_08h49.32.652,HF_wild_card,2022.2.4,Win32,60.31363088,5c7fbbfd856d2600192161c3,64d2fd46c836a06233681665,64dc7f7d0be17dbe9ee295d7,,,,,,,ctch,resources/DB.BMP,resources/DBN.BMP,Door4,-0.261111111,-0.066666667,1,0,0,0.797,optionLeft,60,9180,5,0,0,0,0,1,,,,,,,,,,,,,,,,,,,,,,,,,,,,,,,,,,,,,,,
,,,,,,,,2023-08-16_08h49.32.652,HF_wild_card,2022.2.4,Win32,60.31363088,5c7fbbfd856d2600192161c3,64d2fd46c836a06233681665,64dc7f7d0be17dbe9ee295d7,,,,,,,decisionTrl,resources/DB.BMP,resources/DY.BMP,Door4,-0.205555556,0.012037037,1,0,0,0.629,optionLeft,60,9240,5,1,0,1,0,1,,,,,,,,,,,,,,,,,,,,,,,,,,,,,,,,,,,,,,,
,,,,,,,,2023-08-16_08h49.32.652,HF_wild_card,2022.2.4,Win32,60.31363088,5c7fbbfd856d2600192161c3,64d2fd46c836a06233681665,64dc7f7d0be17dbe9ee295d7,,,,,,,sngl,resources/DP.BMP,resources/Empty.png,Door2,-0.297222222,0.050925926,1,0,0,0.597,optionLeft,40,9280,5,2,0,2,0,1,,,,,,,,,,,,,,,,,,,,,,,,,,,,,,,,,,,,,,,
,,,,,,,,2023-08-16_08h49.32.652,HF_wild_card,2022.2.4,Win32,60.31363088,5c7fbbfd856d2600192161c3,64d2fd46c836a06233681665,64dc7f7d0be17dbe9ee295d7,,,,,,,sngl,resources/Empty.png,resources/DY.BMP,Door3,0.309259259,-0.047222222,1,0,0,0.667,optionRight,70,9350,5,3,0,3,0,1,,,,,,,,,,,,,,,,,,,,,,,,,,,,,,,,,,,,,,,
,,,,,,,,2023-08-16_08h49.32.652,HF_wild_card,2022.2.4,Win32,60.31363088,5c7fbbfd856d2600192161c3,64d2fd46c836a06233681665,64dc7f7d0be17dbe9ee295d7,,,,,,,decisionTrl,resources/DB.BMP,resources/DR.BMP,Door4,-0.211111111,0.025925926,1,0,0,0.756,optionLeft,80,9430,5,4,0,4,0,1,,,,,,,,,,,,,,,,,,,,,,,,,,,,,,,,,,,,,,,
,,,,,,,,2023-08-16_08h49.32.652,HF_wild_card,2022.2.4,Win32,60.31363088,5c7fbbfd856d2600192161c3,64d2fd46c836a06233681665,64dc7f7d0be17dbe9ee295d7,,,,,,,decisionTrl,resources/DBN.BMP,resources/DP.BMP,Door2,0.509259259,-0.087962963,1,0,0,0.596,optionRight,20,9450,5,5,0,5,0,1,,,,,,,,,,,,,,,,,,,,,,,,,,,,,,,,,,,,,,,
,,,,,,,,2023-08-16_08h49.32.652,HF_wild_card,2022.2.4,Win32,60.31363088,5c7fbbfd856d2600192161c3,64d2fd46c836a06233681665,64dc7f7d0be17dbe9ee295d7,,,,,,,decisionTrl,resources/DR.BMP,resources/DB.BMP,Door4,0.4,-0.046296296,1,0,0,0.881,optionRight,80,9530,5,6,0,6,0,1,,,,,,,,,,,,,,,,,,,,,,,,,,,,,,,,,,,,,,,
,,,,,,,,2023-08-16_08h49.32.652,HF_wild_card,2022.2.4,Win32,60.31363088,5c7fbbfd856d2600192161c3,64d2fd46c836a06233681665,64dc7f7d0be17dbe9ee295d7,,,,,,,decisionTrl,resources/DBN.BMP,resources/DP.BMP,Door1,-0.362037037,0.069444444,1,0,0,1.662,optionLeft,30,9560,5,7,0,7,0,1,,,,,,,,,,,,,,,,,,,,,,,,,,,,,,,,,,,,,,,
,,,,,,,,2023-08-16_08h49.32.652,HF_wild_card,2022.2.4,Win32,60.31363088,5c7fbbfd856d2600192161c3,64d2fd46c836a06233681665,64dc7f7d0be17dbe9ee295d7,,,,,,,decisionTrl,resources/DP.BMP,resources/DR.BMP,Door2,-0.537037037,0.091666667,1,0,0,0.88,optionLeft,40,9600,5,8,0,8,0,1,,,,,,,,,,,,,,,,,,,,,,,,,,,,,,,,,,,,,,,
,,,,,,,,2023-08-16_08h49.32.652,HF_wild_card,2022.2.4,Win32,60.31363088,5c7fbbfd856d2600192161c3,64d2fd46c836a06233681665,64dc7f7d0be17dbe9ee295d7,,,,,,,decisionTrl,resources/DB.BMP,resources/DY.BMP,Door4,-0.242592593,-0.001851852,1,0,0,1.012,optionLeft,60,9660,5,9,0,9,0,1,,,,,,,,,,,,,,,,,,,,,,,,,,,,,,,,,,,,,,,
,,,,,,,,2023-08-16_08h49.32.652,HF_wild_card,2022.2.4,Win32,60.31363088,5c7fbbfd856d2600192161c3,64d2fd46c836a06233681665,64dc7f7d0be17dbe9ee295d7,,,,,,,sngl,resources/Empty.png,resources/DBN.BMP,Door1,0.330555556,-0.025,1,0,0,0.881,optionRight,30,9690,5,10,0,10,0,1,,,,,,,,,,,,,,,,,,,,,,,,,,,,,,,,,,,,,,,
,,,,,,,,2023-08-16_08h49.32.652,HF_wild_card,2022.2.4,Win32,60.31363088,5c7fbbfd856d2600192161c3,64d2fd46c836a06233681665,64dc7f7d0be17dbe9ee295d7,,,,,,,decisionTrl,resources/DB.BMP,resources/DY.BMP,Door4,-0.180555556,0.036111111,1,0,0,0.698,optionLeft,80,9770,5,11,0,11,0,1,,,,,,,,,,,,,,,,,,,,,,,,,,,,,,,,,,,,,,,
,,,,,,,,2023-08-16_08h49.32.652,HF_wild_card,2022.2.4,Win32,60.31363088,5c7fbbfd856d2600192161c3,64d2fd46c836a06233681665,64dc7f7d0be17dbe9ee295d7,,,,,,,ctch,resources/DY.BMP,resources/DP.BMP,Door2,0.34537037,-0.02037037,1,0,0,0.796,optionRight,20,9790,5,12,0,12,0,1,,,,,,,,,,,,,,,,,,,,,,,,,,,,,,,,,,,,,,,
,,,,,,,,2023-08-16_08h49.32.652,HF_wild_card,2022.2.4,Win32,60.31363088,5c7fbbfd856d2600192161c3,64d2fd46c836a06233681665,64dc7f7d0be17dbe9ee295d7,,,,,,,decisionTrl,resources/DBN.BMP,resources/DR.BMP,WildCard_Ex,0.215740741,-0.02037037,1,0,0,1.014,optionRight,45,9835,5,13,0,13,0,1,,,,,,,,,,,,,,,,,,,,,,,,,,,,,,,,,,,,,,,
,,,,,,,,2023-08-16_08h49.32.652,HF_wild_card,2022.2.4,Win32,60.31363088,5c7fbbfd856d2600192161c3,64d2fd46c836a06233681665,64dc7f7d0be17dbe9ee295d7,,,,,,,decisionTrl,resources/DR.BMP,resources/DBN.BMP,WildCard_Ex,-0.121296296,0.033333333,1,0,0,0.63,optionLeft,55,9890,5,14,0,14,0,1,,,,,,,,,,,,,,,,,,,,,,,,,,,,,,,,,,,,,,,
,,,,,,,,2023-08-16_08h49.32.652,HF_wild_card,2022.2.4,Win32,60.31363088,5c7fbbfd856d2600192161c3,64d2fd46c836a06233681665,64dc7f7d0be17dbe9ee295d7,,,,,,,decisionTrl,resources/DY.BMP,resources/DB.BMP,Door4,0.315740741,0,1,0,0,0.714,optionRight,80,9970,5,15,0,15,0,1,,,,,,,,,,,,,,,,,,,,,,,,,,,,,,,,,,,,,,,
,,,,,,,,2023-08-16_08h49.32.652,HF_wild_card,2022.2.4,Win32,60.31363088,5c7fbbfd856d2600192161c3,64d2fd46c836a06233681665,64dc7f7d0be17dbe9ee295d7,,,,,,,ctch,resources/DBN.BMP,resources/DB.BMP,Door4,0.311111111,-0.024074074,1,0,0,0.559,optionRight,60,10030,5,16,0,16,0,1,,,,,,,,,,,,,,,,,,,,,,,,,,,,,,,,,,,,,,,
,,,,,,,,2023-08-16_08h49.32.652,HF_wild_card,2022.2.4,Win32,60.31363088,5c7fbbfd856d2600192161c3,64d2fd46c836a06233681665,64dc7f7d0be17dbe9ee295d7,,,,,,,decisionTrl,resources/DR.BMP,resources/DY.BMP,Door3,0.286111111,-0.02037037,1,0,0,1.246,optionRight,70,10100,5,17,0,17,0,1,,,,,,,,,,,,,,,,,,,,,,,,,,,,,,,,,,,,,,,
,,,,,,,,2023-08-16_08h49.32.652,HF_wild_card,2022.2.4,Win32,60.31363088,5c7fbbfd856d2600192161c3,64d2fd46c836a06233681665,64dc7f7d0be17dbe9ee295d7,,,,,,,decisionTrl,resources/DR.BMP,resources/DP.BMP,Door2,0.276851852,-0.02037037,1,0,0,1.03,optionRight,20,10120,5,18,0,18,0,1,,,,,,,,,,,,,,,,,,,,,,,,,,,,,,,,,,,,,,,
,,,,,,,,2023-08-16_08h49.32.652,HF_wild_card,2022.2.4,Win32,60.31363088,5c7fbbfd856d2600192161c3,64d2fd46c836a06233681665,64dc7f7d0be17dbe9ee295d7,,,,,,,sngl,resources/DR.BMP,resources/Empty.png,WildCard_Ex,-0.12962963,0.05,1,0,0,0.579,optionLeft,45,10165,5,19,0,19,0,1,,,,,,,,,,,,,,,,,,,,,,,,,,,,,,,,,,,,,,,
,,,,,,,,2023-08-16_08h49.32.652,HF_wild_card,2022.2.4,Win32,60.31363088,5c7fbbfd856d2600192161c3,64d2fd46c836a06233681665,64dc7f7d0be17dbe9ee295d7,,,,,,,decisionTrl,resources/DBN.BMP,resources/DP.BMP,Door2,0.29537037,-0.00462963,1,0,0,0.646,optionRight,20,10185,5,20,0,20,0,1,,,,,,,,,,,,,,,,,,,,,,,,,,,,,,,,,,,,,,,
,,,,,,,,2023-08-16_08h49.32.652,HF_wild_card,2022.2.4,Win32,60.31363088,5c7fbbfd856d2600192161c3,64d2fd46c836a06233681665,64dc7f7d0be17dbe9ee295d7,,,,,,,decisionTrl,resources/DBN.BMP,resources/DP.BMP,Door2,0.357407407,-0.012037037,1,0,0,0.562,optionRight,40,10225,5,21,0,21,0,1,,,,,,,,,,,,,,,,,,,,,,,,,,,,,,,,,,,,,,,
,,,,,,,,2023-08-16_08h49.32.652,HF_wild_card,2022.2.4,Win32,60.31363088,5c7fbbfd856d2600192161c3,64d2fd46c836a06233681665,64dc7f7d0be17dbe9ee295d7,,,,,,,ctch,resources/DB.BMP,resources/DBN.BMP,Door4,-0.239814815,0.042592593,1,0,0,0.846,optionLeft,60,10285,5,22,0,22,0,1,,,,,,,,,,,,,,,,,,,,,,,,,,,,,,,,,,,,,,,
,,,,,,,,2023-08-16_08h49.32.652,HF_wild_card,2022.2.4,Win32,60.31363088,5c7fbbfd856d2600192161c3,64d2fd46c836a06233681665,64dc7f7d0be17dbe9ee295d7,,,,,,,decisionTrl,resources/DP.BMP,resources/DBN.BMP,Door2,-0.202777778,0.056481481,1,0,0,0.614,optionLeft,40,10325,5,23,0,23,0,1,,,,,,,,,,,,,,,,,,,,,,,,,,,,,,,,,,,,,,,
,,,,,,,,2023-08-16_08h49.32.652,HF_wild_card,2022.2.4,Win32,60.31363088,5c7fbbfd856d2600192161c3,64d2fd46c836a06233681665,64dc7f7d0be17dbe9ee295d7,,,,,,,sngl,resources/Empty.png,resources/DP.BMP,Door2,0.250925926,-0.040740741,1,0,0,1.58,optionRight,20,10345,5,24,0,24,0,1,,,,,,,,,,,,,,,,,,,,,,,,,,,,,,,,,,,,,,,
,,,,,,,,2023-08-16_08h49.32.652,HF_wild_card,2022.2.4,Win32,60.31363088,5c7fbbfd856d2600192161c3,64d2fd46c836a06233681665,64dc7f7d0be17dbe9ee295d7,,,,,,,sngl,resources/Empty.png,resources/DR.BMP,WildCard_Ex,0.234259259,-0.012962963,1,0,0,0.664,optionRight,45,10390,5,25,0,25,0,1,,,,,,,,,,,,,,,,,,,,,,,,,,,,,,,,,,,,,,,
,,,,,,,,2023-08-16_08h49.32.652,HF_wild_card,2022.2.4,Win32,60.31363088,5c7fbbfd856d2600192161c3,64d2fd46c836a06233681665,64dc7f7d0be17dbe9ee295d7,,,,,,,sngl,resources/DR.BMP,resources/Empty.png,WildCard_Ex,-0.143518519,0.030555556,1,0,0,0.58,optionLeft,55,10445,5,26,0,26,0,1,,,,,,,,,,,,,,,,,,,,,,,,,,,,,,,,,,,,,,,
,,,,,,,,2023-08-16_08h49.32.652,HF_wild_card,2022.2.4,Win32,60.31363088,5c7fbbfd856d2600192161c3,64d2fd46c836a06233681665,64dc7f7d0be17dbe9ee295d7,,,,,,,sngl,resources/Empty.png,resources/DB.BMP,Door4,0.280555556,-0.012962963,1,0,0,0.58,optionRight,60,10505,5,27,0,27,0,1,,,,,,,,,,,,,,,,,,,,,,,,,,,,,,,,,,,,,,,
,,,,,,,,2023-08-16_08h49.32.652,HF_wild_card,2022.2.4,Win32,60.31363088,5c7fbbfd856d2600192161c3,64d2fd46c836a06233681665,64dc7f7d0be17dbe9ee295d7,,,,,,,ctch,resources/DP.BMP,resources/DY.BMP,Door2,-0.382407407,0.106481481,1,0,0,0.644,optionLeft,40,10545,5,28,0,28,0,1,,,,,,,,,,,,,,,,,,,,,,,,,,,,,,,,,,,,,,,
,,,,,,,,2023-08-16_08h49.32.652,HF_wild_card,2022.2.4,Win32,60.31363088,5c7fbbfd856d2600192161c3,64d2fd46c836a06233681665,64dc7f7d0be17dbe9ee295d7,,,,,,,sngl,resources/Empty.png,resources/DR.BMP,WildCard_Ex,0.292592593,0.022222222,1,0,0,0.545,optionRight,55,10600,5,29,0,29,0,1,,,,,,,,,,,,,,,,,,,,,,,,,,,,,,,,,,,,,,,
,,,,,,,,2023-08-16_08h49.32.652,HF_wild_card,2022.2.4,Win32,60.31363088,5c7fbbfd856d2600192161c3,64d2fd46c836a06233681665,64dc7f7d0be17dbe9ee295d7,,,,,,,decisionTrl,resources/DP.BMP,resources/DBN.BMP,Door2,-0.196296296,0.062962963,1,0,0,0.563,optionLeft,40,10640,5,30,0,30,0,1,,,,,,,,,,,,,,,,,,,,,,,,,,,,,,,,,,,,,,,
,,,,,,,,2023-08-16_08h49.32.652,HF_wild_card,2022.2.4,Win32,60.31363088,5c7fbbfd856d2600192161c3,64d2fd46c836a06233681665,64dc7f7d0be17dbe9ee295d7,,,,,,,decisionTrl,resources/DP.BMP,resources/DBN.BMP,Door2,-0.162037037,0.050925926,1,0,0,0.547,optionLeft,20,10660,5,31,0,31,0,1,,,,,,,,,,,,,,,,,,,,,,,,,,,,,,,,,,,,,,,
,,,,,,,,2023-08-16_08h49.32.652,HF_wild_card,2022.2.4,Win32,60.31363088,5c7fbbfd856d2600192161c3,64d2fd46c836a06233681665,64dc7f7d0be17dbe9ee295d7,,,,,,,decisionTrl,resources/DY.BMP,resources/DR.BMP,Door3,-0.125925926,0.033333333,1,0,0,1.396,optionLeft,70,10730,5,32,0,32,0,1,,,,,,,,,,,,,,,,,,,,,,,,,,,,,,,,,,,,,,,
,,,,,,,,2023-08-16_08h49.32.652,HF_wild_card,2022.2.4,Win32,60.31363088,5c7fbbfd856d2600192161c3,64d2fd46c836a06233681665,64dc7f7d0be17dbe9ee295d7,,,,,,,ctch,resources/DBN.BMP,resources/DB.BMP,Door4,0.262037037,-0.002777778,1,0,0,0.647,optionRight,80,10810,5,33,0,33,0,1,,,,,,,,,,,,,,,,,,,,,,,,,,,,,,,,,,,,,,,
,,,,,,,,2023-08-16_08h49.32.652,HF_wild_card,2022.2.4,Win32,60.31363088,5c7fbbfd856d2600192161c3,64d2fd46c836a06233681665,64dc7f7d0be17dbe9ee295d7,,,,,,,sngl,resources/DBN.BMP,resources/Empty.png,Door1,-0.212037037,0.082407407,1,0,0,0.679,optionLeft,30,10840,5,34,0,34,0,1,,,,,,,,,,,,,,,,,,,,,,,,,,,,,,,,,,,,,,,
,,,,,,,,2023-08-16_08h49.32.652,HF_wild_card,2022.2.4,Win32,60.31363088,5c7fbbfd856d2600192161c3,64d2fd46c836a06233681665,64dc7f7d0be17dbe9ee295d7,,,,,,,decisionTrl,resources/DY.BMP,resources/DB.BMP,Door4,0.413888889,-0.046296296,1,0,0,0.581,optionRight,80,10920,5,35,0,35,0,1,,,,,,,,,,,,,,,,,,,,,,,,,,,,,,,,,,,,,,,
,,,,,,,,2023-08-16_08h49.32.652,HF_wild_card,2022.2.4,Win32,60.31363088,5c7fbbfd856d2600192161c3,64d2fd46c836a06233681665,64dc7f7d0be17dbe9ee295d7,,,,,,,decisionTrl,resources/DP.BMP,resources/DBN.BMP,Door2,-0.209259259,-0.005555556,1,0,0,0.88,optionLeft,20,10940,5,36,0,36,0,1,,,,,,,,,,,,,,,,,,,,,,,,,,,,,,,,,,,,,,,
,,,,,,,,2023-08-16_08h49.32.652,HF_wild_card,2022.2.4,Win32,60.31363088,5c7fbbfd856d2600192161c3,64d2fd46c836a06233681665,64dc7f7d0be17dbe9ee295d7,,,,,,,decisionTrl,resources/DB.BMP,resources/DY.BMP,Door4,-0.109259259,-0.00462963,1,0,0,1.196,optionLeft,60,11000,5,37,0,37,0,1,,,,,,,,,,,,,,,,,,,,,,,,,,,,,,,,,,,,,,,
,,,,,,,,2023-08-16_08h49.32.652,HF_wild_card,2022.2.4,Win32,60.31363088,5c7fbbfd856d2600192161c3,64d2fd46c836a06233681665,64dc7f7d0be17dbe9ee295d7,,,,,,,ctch,resources/DP.BMP,resources/DY.BMP,Door2,-0.150925926,0.035185185,1,0,0,0.664,optionLeft,20,11020,5,38,0,38,0,1,,,,,,,,,,,,,,,,,,,,,,,,,,,,,,,,,,,,,,,
,,,,,,,,2023-08-16_08h49.32.652,HF_wild_card,2022.2.4,Win32,60.31363088,5c7fbbfd856d2600192161c3,64d2fd46c836a06233681665,64dc7f7d0be17dbe9ee295d7,,,,,,,decisionTrl,resources/DY.BMP,resources/DB.BMP,Door4,0.453703704,-0.05,1,0,0,0.713,optionRight,60,11080,5,39,0,39,0,1,,,,,,,,,,,,,,,,,,,,,,,,,,,,,,,,,,,,,,,
,,,,,,,,2023-08-16_08h49.32.652,HF_wild_card,2022.2.4,Win32,60.31363088,5c7fbbfd856d2600192161c3,64d2fd46c836a06233681665,64dc7f7d0be17dbe9ee295d7,,,,,,,sngl,resources/DB.BMP,resources/Empty.png,Door4,-0.136111111,0.050925926,1,0,0,0.598,optionLeft,80,11160,5,40,0,40,0,1,,,,,,,,,,,,,,,,,,,,,,,,,,,,,,,,,,,,,,,
,,,,,,,,2023-08-16_08h49.32.652,HF_wild_card,2022.2.4,Win32,60.31363088,5c7fbbfd856d2600192161c3,64d2fd46c836a06233681665,64dc7f7d0be17dbe9ee295d7,,,,,,,sngl,resources/DY.BMP,resources/Empty.png,Door3,-0.131481481,0.041666667,1,0,0,0.592,optionLeft,70,11230,5,41,0,41,0,1,,,,,,,,,,,,,,,,,,,,,,,,,,,,,,,,,,,,,,,
,,,,,,,,2023-08-16_08h49.32.652,HF_wild_card,2022.2.4,Win32,60.31363088,5c7fbbfd856d2600192161c3,64d2fd46c836a06233681665,64dc7f7d0be17dbe9ee295d7,,,,,,,decisionTrl,resources/DY.BMP,resources/DB.BMP,Door4,0.411111111,-0.05,1,0,0,0.53,optionRight,60,11290,5,42,0,42,0,1,,,,,,,,,,,,,,,,,,,,,,,,,,,,,,,,,,,,,,,
,,,,,,,,2023-08-16_08h49.32.652,HF_wild_card,2022.2.4,Win32,60.31363088,5c7fbbfd856d2600192161c3,64d2fd46c836a06233681665,64dc7f7d0be17dbe9ee295d7,,,,,,,ctch,resources/DY.BMP,resources/DP.BMP,Door2,0.422222222,-0.058333333,1,0,0,0.512,optionRight,40,11330,5,43,0,43,0,1,,,,,,,,,,,,,,,,,,,,,,,,,,,,,,,,,,,,,,,
,,,,,,,,2023-08-16_08h49.32.652,HF_wild_card,2022.2.4,Win32,60.31363088,5c7fbbfd856d2600192161c3,64d2fd46c836a06233681665,64dc7f7d0be17dbe9ee295d7,,,,,,,,,,,,,,,,,,,,,,,,,,4,0,4,0,1,,,,,,,,,,,,,,,,,,,,,,,,,,,,,,,,,,
,,,,,,,,2023-08-16_08h49.32.652,HF_wild_card,2022.2.4,Win32,60.31363088,5c7fbbfd856d2600192161c3,64d2fd46c836a06233681665,64dc7f7d0be17dbe9ee295d7,,,,,,,decisionTrl,resources/DBN.BMP,resources/DR.BMP,WildCard_Ex,0.323148148,-0.107407407,1,0,0,1.746,optionRight,55,11385,6,0,0,0,0,1,,,,,,,,,,,,,,,,,,,,,,,,,,,,,,,,,,,,,,,
,,,,,,,,2023-08-16_08h49.32.652,HF_wild_card,2022.2.4,Win32,60.31363088,5c7fbbfd856d2600192161c3,64d2fd46c836a06233681665,64dc7f7d0be17dbe9ee295d7,,,,,,,decisionTrl,resources/DBN.BMP,resources/DP.BMP,Door2,0.265740741,-0.027777778,1,0,0,0.914,optionRight,20,11405,6,1,0,1,0,1,,,,,,,,,,,,,,,,,,,,,,,,,,,,,,,,,,,,,,,
,,,,,,,,2023-08-16_08h49.32.652,HF_wild_card,2022.2.4,Win32,60.31363088,5c7fbbfd856d2600192161c3,64d2fd46c836a06233681665,64dc7f7d0be17dbe9ee295d7,,,,,,,sngl,resources/Empty.png,resources/DY.BMP,Door3,0.283333333,-0.048148148,1,0,0,0.564,optionRight,70,11475,6,2,0,2,0,1,,,,,,,,,,,,,,,,,,,,,,,,,,,,,,,,,,,,,,,
,,,,,,,,2023-08-16_08h49.32.652,HF_wild_card,2022.2.4,Win32,60.31363088,5c7fbbfd856d2600192161c3,64d2fd46c836a06233681665,64dc7f7d0be17dbe9ee295d7,,,,,,,decisionTrl,resources/DB.BMP,resources/DY.BMP,Door4,-0.225925926,0.024074074,1,0,0,0.646,optionLeft,80,11555,6,3,0,3,0,1,,,,,,,,,,,,,,,,,,,,,,,,,,,,,,,,,,,,,,,
,,,,,,,,2023-08-16_08h49.32.652,HF_wild_card,2022.2.4,Win32,60.31363088,5c7fbbfd856d2600192161c3,64d2fd46c836a06233681665,64dc7f7d0be17dbe9ee295d7,,,,,,,decisionTrl,resources/DBN.BMP,resources/DP.BMP,Door1,-0.207407407,-0.00462963,1,0,0,0.897,optionLeft,30,11585,6,4,0,4,0,1,,,,,,,,,,,,,,,,,,,,,,,,,,,,,,,,,,,,,,,
,,,,,,,,2023-08-16_08h49.32.652,HF_wild_card,2022.2.4,Win32,60.31363088,5c7fbbfd856d2600192161c3,64d2fd46c836a06233681665,64dc7f7d0be17dbe9ee295d7,,,,,,,ctch,resources/DBN.BMP,resources/DB.BMP,Door4,0.242592593,-0.023148148,1,0,0,0.531,optionRight,60,11645,6,5,0,5,0,1,,,,,,,,,,,,,,,,,,,,,,,,,,,,,,,,,,,,,,,
,,,,,,,,2023-08-16_08h49.32.652,HF_wild_card,2022.2.4,Win32,60.31363088,5c7fbbfd856d2600192161c3,64d2fd46c836a06233681665,64dc7f7d0be17dbe9ee295d7,,,,,,,decisionTrl,resources/DR.BMP,resources/DBN.BMP,WildCard_Ex,-0.271296296,-0.003703704,1,0,0,0.625,optionLeft,55,11700,6,6,0,6,0,1,,,,,,,,,,,,,,,,,,,,,,,,,,,,,,,,,,,,,,,
,,,,,,,,2023-08-16_08h49.32.652,HF_wild_card,2022.2.4,Win32,60.31363088,5c7fbbfd856d2600192161c3,64d2fd46c836a06233681665,64dc7f7d0be17dbe9ee295d7,,,,,,,decisionTrl,resources/DY.BMP,resources/DB.BMP,Door4,0.232407407,-0.034259259,1,0,0,0.53,optionRight,60,11760,6,7,0,7,0,1,,,,,,,,,,,,,,,,,,,,,,,,,,,,,,,,,,,,,,,
,,,,,,,,2023-08-16_08h49.32.652,HF_wild_card,2022.2.4,Win32,60.31363088,5c7fbbfd856d2600192161c3,64d2fd46c836a06233681665,64dc7f7d0be17dbe9ee295d7,,,,,,,ctch,resources/DB.BMP,resources/DBN.BMP,Door4,-0.276851852,0.018518519,1,0,0,0.596,optionLeft,60,11820,6,8,0,8,0,1,,,,,,,,,,,,,,,,,,,,,,,,,,,,,,,,,,,,,,,
,,,,,,,,2023-08-16_08h49.32.652,HF_wild_card,2022.2.4,Win32,60.31363088,5c7fbbfd856d2600192161c3,64d2fd46c836a06233681665,64dc7f7d0be17dbe9ee295d7,,,,,,,decisionTrl,resources/DR.BMP,resources/DB.BMP,Door4,0.27962963,-0.035185185,1,0,0,0.547,optionRight,80,11900,6,9,0,9,0,1,,,,,,,,,,,,,,,,,,,,,,,,,,,,,,,,,,,,,,,
,,,,,,,,2023-08-16_08h49.32.652,HF_wild_card,2022.2.4,Win32,60.31363088,5c7fbbfd856d2600192161c3,64d2fd46c836a06233681665,64dc7f7d0be17dbe9ee295d7,,,,,,,decisionTrl,resources/DY.BMP,resources/DB.BMP,Door4,0.299074074,-0.008333333,1,0,0,0.697,optionRight,80,11980,6,10,0,10,0,1,,,,,,,,,,,,,,,,,,,,,,,,,,,,,,,,,,,,,,,
,,,,,,,,2023-08-16_08h49.32.652,HF_wild_card,2022.2.4,Win32,60.31363088,5c7fbbfd856d2600192161c3,64d2fd46c836a06233681665,64dc7f7d0be17dbe9ee295d7,,,,,,,decisionTrl,resources/DR.BMP,resources/DP.BMP,Door2,0.311111111,-0.016666667,1,0,0,0.648,optionRight,20,12000,6,11,0,11,0,1,,,,,,,,,,,,,,,,,,,,,,,,,,,,,,,,,,,,,,,
,,,,,,,,2023-08-16_08h49.32.652,HF_wild_card,2022.2.4,Win32,60.31363088,5c7fbbfd856d2600192161c3,64d2fd46c836a06233681665,64dc7f7d0be17dbe9ee295d7,,,,,,,ctch,resources/DP.BMP,resources/DY.BMP,Door2,-0.189814815,-0.002777778,1,0,0,0.58,optionLeft,40,12040,6,12,0,12,0,1,,,,,,,,,,,,,,,,,,,,,,,,,,,,,,,,,,,,,,,
,,,,,,,,2023-08-16_08h49.32.652,HF_wild_card,2022.2.4,Win32,60.31363088,5c7fbbfd856d2600192161c3,64d2fd46c836a06233681665,64dc7f7d0be17dbe9ee295d7,,,,,,,decisionTrl,resources/DBN.BMP,resources/DP.BMP,Door1,-0.183333333,0.010185185,1,0,0,1.213,optionLeft,30,12070,6,13,0,13,0,1,,,,,,,,,,,,,,,,,,,,,,,,,,,,,,,,,,,,,,,
,,,,,,,,2023-08-16_08h49.32.652,HF_wild_card,2022.2.4,Win32,60.31363088,5c7fbbfd856d2600192161c3,64d2fd46c836a06233681665,64dc7f7d0be17dbe9ee295d7,,,,,,,sngl,resources/DBN.BMP,resources/Empty.png,Door1,-0.256481481,0.043518519,1,0,0,0.729,optionLeft,30,12100,6,14,0,14,0,1,,,,,,,,,,,,,,,,,,,,,,,,,,,,,,,,,,,,,,,
,,,,,,,,2023-08-16_08h49.32.652,HF_wild_card,2022.2.4,Win32,60.31363088,5c7fbbfd856d2600192161c3,64d2fd46c836a06233681665,64dc7f7d0be17dbe9ee295d7,,,,,,,decisionTrl,resources/DR.BMP,resources/DY.BMP,WildCard_Ex,-0.45462963,0.09537037,1,0,0,0.981,optionLeft,55,12155,6,15,0,15,0,1,,,,,,,,,,,,,,,,,,,,,,,,,,,,,,,,,,,,,,,
,,,,,,,,2023-08-16_08h49.32.652,HF_wild_card,2022.2.4,Win32,60.31363088,5c7fbbfd856d2600192161c3,64d2fd46c836a06233681665,64dc7f7d0be17dbe9ee295d7,,,,,,,sngl,resources/Empty.png,resources/DR.BMP,WildCard_Ex,0.288888889,-0.033333333,1,0,0,0.613,optionRight,55,12210,6,16,0,16,0,1,,,,,,,,,,,,,,,,,,,,,,,,,,,,,,,,,,,,,,,
,,,,,,,,2023-08-16_08h49.32.652,HF_wild_card,2022.2.4,Win32,60.31363088,5c7fbbfd856d2600192161c3,64d2fd46c836a06233681665,64dc7f7d0be17dbe9ee295d7,,,,,,,decisionTrl,resources/DP.BMP,resources/DBN.BMP,Door2,-0.533333333,-0.085185185,1,0,0,0.797,optionLeft,40,12250,6,17,0,17,0,1,,,,,,,,,,,,,,,,,,,,,,,,,,,,,,,,,,,,,,,
,,,,,,,,2023-08-16_08h49.32.652,HF_wild_card,2022.2.4,Win32,60.31363088,5c7fbbfd856d2600192161c3,64d2fd46c836a06233681665,64dc7f7d0be17dbe9ee295d7,,,,,,,ctch,resources/DB.BMP,resources/DBN.BMP,Door4,-0.234259259,0.007407407,1,0,0,0.68,optionLeft,60,12310,6,18,0,18,0,1,,,,,,,,,,,,,,,,,,,,,,,,,,,,,,,,,,,,,,,
,,,,,,,,2023-08-16_08h49.32.652,HF_wild_card,2022.2.4,Win32,60.31363088,5c7fbbfd856d2600192161c3,64d2fd46c836a06233681665,64dc7f7d0be17dbe9ee295d7,,,,,,,decisionTrl,resources/DY.BMP,resources/DB.BMP,Door4,0.275925926,-0.035185185,1,0,0,0.631,optionRight,80,12390,6,19,0,19,0,1,,,,,,,,,,,,,,,,,,,,,,,,,,,,,,,,,,,,,,,
,,,,,,,,2023-08-16_08h49.32.652,HF_wild_card,2022.2.4,Win32,60.31363088,5c7fbbfd856d2600192161c3,64d2fd46c836a06233681665,64dc7f7d0be17dbe9ee295d7,,,,,,,decisionTrl,resources/DY.BMP,resources/DR.BMP,Door3,-0.226851852,-0.019444444,1,0,0,1.743,optionLeft,70,12460,6,20,0,20,0,1,,,,,,,,,,,,,,,,,,,,,,,,,,,,,,,,,,,,,,,
,,,,,,,,2023-08-16_08h49.32.652,HF_wild_card,2022.2.4,Win32,60.31363088,5c7fbbfd856d2600192161c3,64d2fd46c836a06233681665,64dc7f7d0be17dbe9ee295d7,,,,,,,decisionTrl,resources/DBN.BMP,resources/DP.BMP,Door2,0.483333333,0.005555556,1,0,0,0.846,optionRight,20,12480,6,21,0,21,0,1,,,,,,,,,,,,,,,,,,,,,,,,,,,,,,,,,,,,,,,
,,,,,,,,2023-08-16_08h49.32.652,HF_wild_card,2022.2.4,Win32,60.31363088,5c7fbbfd856d2600192161c3,64d2fd46c836a06233681665,64dc7f7d0be17dbe9ee295d7,,,,,,,decisionTrl,resources/DP.BMP,resources/DBN.BMP,Door2,-0.228703704,0.077777778,1,0,0,0.646,optionLeft,40,12520,6,22,0,22,0,1,,,,,,,,,,,,,,,,,,,,,,,,,,,,,,,,,,,,,,,
,,,,,,,,2023-08-16_08h49.32.652,HF_wild_card,2022.2.4,Win32,60.31363088,5c7fbbfd856d2600192161c3,64d2fd46c836a06233681665,64dc7f7d0be17dbe9ee295d7,,,,,,,decisionTrl,resources/DP.BMP,resources/DBN.BMP,Door2,-0.342592593,0.044444444,1,0,0,0.73,optionLeft,20,12540,6,23,0,23,0,1,,,,,,,,,,,,,,,,,,,,,,,,,,,,,,,,,,,,,,,
,,,,,,,,2023-08-16_08h49.32.652,HF_wild_card,2022.2.4,Win32,60.31363088,5c7fbbfd856d2600192161c3,64d2fd46c836a06233681665,64dc7f7d0be17dbe9ee295d7,,,,,,,sngl,resources/DP.BMP,resources/Empty.png,Door2,-0.213888889,0.033333333,1,0,0,0.513,optionLeft,20,12560,6,24,0,24,0,1,,,,,,,,,,,,,,,,,,,,,,,,,,,,,,,,,,,,,,,
,,,,,,,,2023-08-16_08h49.32.652,HF_wild_card,2022.2.4,Win32,60.31363088,5c7fbbfd856d2600192161c3,64d2fd46c836a06233681665,64dc7f7d0be17dbe9ee295d7,,,,,,,decisionTrl,resources/DY.BMP,resources/DB.BMP,Door4,0.382407407,-0.042592593,1,0,0,0.748,optionRight,80,12640,6,25,0,25,0,1,,,,,,,,,,,,,,,,,,,,,,,,,,,,,,,,,,,,,,,
,,,,,,,,2023-08-16_08h49.32.652,HF_wild_card,2022.2.4,Win32,60.31363088,5c7fbbfd856d2600192161c3,64d2fd46c836a06233681665,64dc7f7d0be17dbe9ee295d7,,,,,,,sngl,resources/DR.BMP,resources/Empty.png,WildCard_Ex,-0.194444444,0.013888889,1,0,0,0.58,optionLeft,45,12685,6,26,0,26,0,1,,,,,,,,,,,,,,,,,,,,,,,,,,,,,,,,,,,,,,,
,,,,,,,,2023-08-16_08h49.32.652,HF_wild_card,2022.2.4,Win32,60.31363088,5c7fbbfd856d2600192161c3,64d2fd46c836a06233681665,64dc7f7d0be17dbe9ee295d7,,,,,,,sngl,resources/DR.BMP,resources/Empty.png,WildCard_Ex,-0.218518519,0.037962963,1,0,0,0.565,optionLeft,55,12740,6,27,0,27,0,1,,,,,,,,,,,,,,,,,,,,,,,,,,,,,,,,,,,,,,,
,,,,,,,,2023-08-16_08h49.32.652,HF_wild_card,2022.2.4,Win32,60.31363088,5c7fbbfd856d2600192161c3,64d2fd46c836a06233681665,64dc7f7d0be17dbe9ee295d7,,,,,,,decisionTrl,resources/DB.BMP,resources/DY.BMP,Door4,-0.233333333,0.050925926,1,0,0,0.647,optionLeft,80,12820,6,28,0,28,0,1,,,,,,,,,,,,,,,,,,,,,,,,,,,,,,,,,,,,,,,
,,,,,,,,2023-08-16_08h49.32.652,HF_wild_card,2022.2.4,Win32,60.31363088,5c7fbbfd856d2600192161c3,64d2fd46c836a06233681665,64dc7f7d0be17dbe9ee295d7,,,,,,,decisionTrl,resources/DB.BMP,resources/DY.BMP,Door4,-0.166666667,0.042592593,1,0,0,0.58,optionLeft,80,12900,6,29,0,29,0,1,,,,,,,,,,,,,,,,,,,,,,,,,,,,,,,,,,,,,,,
,,,,,,,,2023-08-16_08h49.32.652,HF_wild_card,2022.2.4,Win32,60.31363088,5c7fbbfd856d2600192161c3,64d2fd46c836a06233681665,64dc7f7d0be17dbe9ee295d7,,,,,,,decisionTrl,resources/DP.BMP,resources/DR.BMP,Door2,-0.237962963,0.030555556,1,0,0,0.512,optionLeft,40,12940,6,30,0,30,0,1,,,,,,,,,,,,,,,,,,,,,,,,,,,,,,,,,,,,,,,
,,,,,,,,2023-08-16_08h49.32.652,HF_wild_card,2022.2.4,Win32,60.31363088,5c7fbbfd856d2600192161c3,64d2fd46c836a06233681665,64dc7f7d0be17dbe9ee295d7,,,,,,,sngl,resources/Empty.png,resources/DBN.BMP,Door1,0.326851852,-0.060185185,1,0,0,0.679,optionRight,30,12970,6,31,0,31,0,1,,,,,,,,,,,,,,,,,,,,,,,,,,,,,,,,,,,,,,,
,,,,,,,,2023-08-16_08h49.32.652,HF_wild_card,2022.2.4,Win32,60.31363088,5c7fbbfd856d2600192161c3,64d2fd46c836a06233681665,64dc7f7d0be17dbe9ee295d7,,,,,,,decisionTrl,resources/DP.BMP,resources/DBN.BMP,Door2,-0.146296296,0.019444444,1,0,0,0.597,optionLeft,40,13010,6,32,0,32,0,1,,,,,,,,,,,,,,,,,,,,,,,,,,,,,,,,,,,,,,,
,,,,,,,,2023-08-16_08h49.32.652,HF_wild_card,2022.2.4,Win32,60.31363088,5c7fbbfd856d2600192161c3,64d2fd46c836a06233681665,64dc7f7d0be17dbe9ee295d7,,,,,,,ctch,resources/DY.BMP,resources/DP.BMP,Door2,0.252777778,-0.037962963,1,0,0,0.958,optionRight,20,13030,6,33,0,33,0,1,,,,,,,,,,,,,,,,,,,,,,,,,,,,,,,,,,,,,,,
,,,,,,,,2023-08-16_08h49.32.652,HF_wild_card,2022.2.4,Win32,60.31363088,5c7fbbfd856d2600192161c3,64d2fd46c836a06233681665,64dc7f7d0be17dbe9ee295d7,,,,,,,sngl,resources/Empty.png,resources/DB.BMP,Door4,0.373148148,-0.055555556,1,0,0,0.63,optionRight,80,13110,6,34,0,34,0,1,,,,,,,,,,,,,,,,,,,,,,,,,,,,,,,,,,,,,,,
,,,,,,,,2023-08-16_08h49.32.652,HF_wild_card,2022.2.4,Win32,60.31363088,5c7fbbfd856d2600192161c3,64d2fd46c836a06233681665,64dc7f7d0be17dbe9ee295d7,,,,,,,sngl,resources/Empty.png,resources/DP.BMP,Door2,0.253703704,-0.046296296,1,0,0,0.546,optionRight,40,13150,6,35,0,35,0,1,,,,,,,,,,,,,,,,,,,,,,,,,,,,,,,,,,,,,,,
,,,,,,,,2023-08-16_08h49.32.652,HF_wild_card,2022.2.4,Win32,60.31363088,5c7fbbfd856d2600192161c3,64d2fd46c836a06233681665,64dc7f7d0be17dbe9ee295d7,,,,,,,ctch,resources/DP.BMP,resources/DY.BMP,Door2,-0.343518519,0.061111111,1,0,0,0.581,optionLeft,20,13170,6,36,0,36,0,1,,,,,,,,,,,,,,,,,,,,,,,,,,,,,,,,,,,,,,,
,,,,,,,,2023-08-16_08h49.32.652,HF_wild_card,2022.2.4,Win32,60.31363088,5c7fbbfd856d2600192161c3,64d2fd46c836a06233681665,64dc7f7d0be17dbe9ee295d7,,,,,,,ctch,resources/DY.BMP,resources/DP.BMP,Door2,0.296296296,-0.053703704,1,0,0,0.663,optionRight,40,13210,6,37,0,37,0,1,,,,,,,,,,,,,,,,,,,,,,,,,,,,,,,,,,,,,,,
,,,,,,,,2023-08-16_08h49.32.652,HF_wild_card,2022.2.4,Win32,60.31363088,5c7fbbfd856d2600192161c3,64d2fd46c836a06233681665,64dc7f7d0be17dbe9ee295d7,,,,,,,sngl,resources/Empty.png,resources/DR.BMP,WildCard_Ex,0.305555556,-0.038888889,1,0,0,0.562,optionRight,45,13255,6,38,0,38,0,1,,,,,,,,,,,,,,,,,,,,,,,,,,,,,,,,,,,,,,,
,,,,,,,,2023-08-16_08h49.32.652,HF_wild_card,2022.2.4,Win32,60.31363088,5c7fbbfd856d2600192161c3,64d2fd46c836a06233681665,64dc7f7d0be17dbe9ee295d7,,,,,,,sngl,resources/DB.BMP,resources/Empty.png,Door4,-0.237037037,0.056481481,1,0,0,0.531,optionLeft,60,13315,6,39,0,39,0,1,,,,,,,,,,,,,,,,,,,,,,,,,,,,,,,,,,,,,,,
,,,,,,,,2023-08-16_08h49.32.652,HF_wild_card,2022.2.4,Win32,60.31363088,5c7fbbfd856d2600192161c3,64d2fd46c836a06233681665,64dc7f7d0be17dbe9ee295d7,,,,,,,decisionTrl,resources/DB.BMP,resources/DY.BMP,Door4,-0.269444444,0.067592593,1,0,0,0.647,optionLeft,60,13375,6,40,0,40,0,1,,,,,,,,,,,,,,,,,,,,,,,,,,,,,,,,,,,,,,,
,,,,,,,,2023-08-16_08h49.32.652,HF_wild_card,2022.2.4,Win32,60.31363088,5c7fbbfd856d2600192161c3,64d2fd46c836a06233681665,64dc7f7d0be17dbe9ee295d7,,,,,,,sngl,resources/DY.BMP,resources/Empty.png,Door3,-0.183333333,0.037962963,1,0,0,0.597,optionLeft,70,13445,6,41,0,41,0,1,,,,,,,,,,,,,,,,,,,,,,,,,,,,,,,,,,,,,,,
,,,,,,,,2023-08-16_08h49.32.652,HF_wild_card,2022.2.4,Win32,60.31363088,5c7fbbfd856d2600192161c3,64d2fd46c836a06233681665,64dc7f7d0be17dbe9ee295d7,,,,,,,decisionTrl,resources/DB.BMP,resources/DR.BMP,Door4,-0.17962963,0.043518519,1,0,0,0.562,optionLeft,80,13525,6,42,0,42,0,1,,,,,,,,,,,,,,,,,,,,,,,,,,,,,,,,,,,,,,,
,,,,,,,,2023-08-16_08h49.32.652,HF_wild_card,2022.2.4,Win32,60.31363088,5c7fbbfd856d2600192161c3,64d2fd46c836a06233681665,64dc7f7d0be17dbe9ee295d7,,,,,,,ctch,resources/DBN.BMP,resources/DB.BMP,Door4,0.387037037,-0.083333333,1,0,0,0.714,optionRight,60,13585,6,43,0,43,0,1,,,,,,,,,,,,,,,,,,,,,,,,,,,,,,,,,,,,,,,
,,,,,,,,2023-08-16_08h49.32.652,HF_wild_card,2022.2.4,Win32,60.31363088,5c7fbbfd856d2600192161c3,64d2fd46c836a06233681665,64dc7f7d0be17dbe9ee295d7,,,,,,,,,,,,,,,,,,,,,,,,,,5,0,5,0,1,,,,,,,,,,,,,,,,,,,,,,,,,,,,,,,,,,
,,,,,,,,2023-08-16_08h49.32.652,HF_wild_card,2022.2.4,Win32,60.31363088,5c7fbbfd856d2600192161c3,64d2fd46c836a06233681665,64dc7f7d0be17dbe9ee295d7,,,,,,,decisionTrl,resources/DP.BMP,resources/DBN.BMP,Door2,-0.408333333,-0.063888889,1,0,0,1.041,optionLeft,40,13625,7,0,0,0,0,1,,,,,,,,,,,,,,,,,,,,,,,,,,,,,,,,,,,,,,,
,,,,,,,,2023-08-16_08h49.32.652,HF_wild_card,2022.2.4,Win32,60.31363088,5c7fbbfd856d2600192161c3,64d2fd46c836a06233681665,64dc7f7d0be17dbe9ee295d7,,,,,,,decisionTrl,resources/DP.BMP,resources/DBN.BMP,Door2,-0.321296296,0.012962963,1,0,0,0.716,optionLeft,20,13645,7,1,0,1,0,1,,,,,,,,,,,,,,,,,,,,,,,,,,,,,,,,,,,,,,,
,,,,,,,,2023-08-16_08h49.32.652,HF_wild_card,2022.2.4,Win32,60.31363088,5c7fbbfd856d2600192161c3,64d2fd46c836a06233681665,64dc7f7d0be17dbe9ee295d7,,,,,,,ctch,resources/DP.BMP,resources/DY.BMP,Door2,-0.224074074,0.02037037,1,0,0,1.063,optionLeft,20,13665,7,2,0,2,0,1,,,,,,,,,,,,,,,,,,,,,,,,,,,,,,,,,,,,,,,
,,,,,,,,2023-08-16_08h49.32.652,HF_wild_card,2022.2.4,Win32,60.31363088,5c7fbbfd856d2600192161c3,64d2fd46c836a06233681665,64dc7f7d0be17dbe9ee295d7,,,,,,,decisionTrl,resources/DBN.BMP,resources/DP.BMP,Door2,0.34537037,-0.057407407,1,0,0,0.731,optionRight,20,13685,7,3,0,3,0,1,,,,,,,,,,,,,,,,,,,,,,,,,,,,,,,,,,,,,,,
,,,,,,,,2023-08-16_08h49.32.652,HF_wild_card,2022.2.4,Win32,60.31363088,5c7fbbfd856d2600192161c3,64d2fd46c836a06233681665,64dc7f7d0be17dbe9ee295d7,,,,,,,decisionTrl,resources/DY.BMP,resources/DB.BMP,Door4,0.432407407,-0.101851852,1,0,0,1.131,optionRight,60,13745,7,4,0,4,0,1,,,,,,,,,,,,,,,,,,,,,,,,,,,,,,,,,,,,,,,
,,,,,,,,2023-08-16_08h49.32.652,HF_wild_card,2022.2.4,Win32,60.31363088,5c7fbbfd856d2600192161c3,64d2fd46c836a06233681665,64dc7f7d0be17dbe9ee295d7,,,,,,,decisionTrl,resources/DBN.BMP,resources/DP.BMP,Door2,0.406481481,-0.060185185,1,0,0,0.531,optionRight,40,13785,7,5,0,5,0,1,,,,,,,,,,,,,,,,,,,,,,,,,,,,,,,,,,,,,,,
,,,,,,,,2023-08-16_08h49.32.652,HF_wild_card,2022.2.4,Win32,60.31363088,5c7fbbfd856d2600192161c3,64d2fd46c836a06233681665,64dc7f7d0be17dbe9ee295d7,,,,,,,decisionTrl,resources/DBN.BMP,resources/DP.BMP,Door2,0.155555556,0.011111111,1,0,0,0.966,optionRight,40,13825,7,6,0,6,0,1,,,,,,,,,,,,,,,,,,,,,,,,,,,,,,,,,,,,,,,
,,,,,,,,2023-08-16_08h49.32.652,HF_wild_card,2022.2.4,Win32,60.31363088,5c7fbbfd856d2600192161c3,64d2fd46c836a06233681665,64dc7f7d0be17dbe9ee295d7,,,,,,,decisionTrl,resources/DB.BMP,resources/DY.BMP,Door4,-0.392592593,0.130555556,1,0,0,0.73,optionLeft,60,13885,7,7,0,7,0,1,,,,,,,,,,,,,,,,,,,,,,,,,,,,,,,,,,,,,,,
,,,,,,,,2023-08-16_08h49.32.652,HF_wild_card,2022.2.4,Win32,60.31363088,5c7fbbfd856d2600192161c3,64d2fd46c836a06233681665,64dc7f7d0be17dbe9ee295d7,,,,,,,ctch,resources/DB.BMP,resources/DBN.BMP,Door4,-0.359259259,0.035185185,1,0,0,0.711,optionLeft,60,13945,7,8,0,8,0,1,,,,,,,,,,,,,,,,,,,,,,,,,,,,,,,,,,,,,,,
,,,,,,,,2023-08-16_08h49.32.652,HF_wild_card,2022.2.4,Win32,60.31363088,5c7fbbfd856d2600192161c3,64d2fd46c836a06233681665,64dc7f7d0be17dbe9ee295d7,,,,,,,decisionTrl,resources/DB.BMP,resources/DY.BMP,Door4,-0.237037037,0.018518519,1,0,0,1.014,optionLeft,80,14025,7,9,0,9,0,1,,,,,,,,,,,,,,,,,,,,,,,,,,,,,,,,,,,,,,,
,,,,,,,,2023-08-16_08h49.32.652,HF_wild_card,2022.2.4,Win32,60.31363088,5c7fbbfd856d2600192161c3,64d2fd46c836a06233681665,64dc7f7d0be17dbe9ee295d7,,,,,,,ctch,resources/DY.BMP,resources/DP.BMP,Door2,0.417592593,-0.031481481,1,0,0,0.793,optionRight,40,14065,7,10,0,10,0,1,,,,,,,,,,,,,,,,,,,,,,,,,,,,,,,,,,,,,,,
,,,,,,,,2023-08-16_08h49.32.652,HF_wild_card,2022.2.4,Win32,60.31363088,5c7fbbfd856d2600192161c3,64d2fd46c836a06233681665,64dc7f7d0be17dbe9ee295d7,,,,,,,decisionTrl,resources/DP.BMP,resources/DBN.BMP,Door2,-0.236111111,0.033333333,1,0,0,0.517,optionLeft,20,14085,7,11,0,11,0,1,,,,,,,,,,,,,,,,,,,,,,,,,,,,,,,,,,,,,,,
,,,,,,,,2023-08-16_08h49.32.652,HF_wild_card,2022.2.4,Win32,60.31363088,5c7fbbfd856d2600192161c3,64d2fd46c836a06233681665,64dc7f7d0be17dbe9ee295d7,,,,,,,ctch,resources/DBN.BMP,resources/DB.BMP,Door4,0.278703704,0.000925926,1,0,0,0.781,optionRight,60,14145,7,12,0,12,0,1,,,,,,,,,,,,,,,,,,,,,,,,,,,,,,,,,,,,,,,
,,,,,,,,2023-08-16_08h49.32.652,HF_wild_card,2022.2.4,Win32,60.31363088,5c7fbbfd856d2600192161c3,64d2fd46c836a06233681665,64dc7f7d0be17dbe9ee295d7,,,,,,,ctch,resources/DP.BMP,resources/DY.BMP,Door2,-0.153703704,0.011111111,1,0,0,0.532,optionLeft,40,14185,7,13,0,13,0,1,,,,,,,,,,,,,,,,,,,,,,,,,,,,,,,,,,,,,,,
,,,,,,,,2023-08-16_08h49.32.652,HF_wild_card,2022.2.4,Win32,60.31363088,5c7fbbfd856d2600192161c3,64d2fd46c836a06233681665,64dc7f7d0be17dbe9ee295d7,,,,,,,ctch,resources/DP.BMP,resources/DY.BMP,Door2,-0.198148148,0.012962963,1,0,0,0.548,optionLeft,40,14225,7,14,0,14,0,1,,,,,,,,,,,,,,,,,,,,,,,,,,,,,,,,,,,,,,,
,,,,,,,,2023-08-16_08h49.32.652,HF_wild_card,2022.2.4,Win32,60.31363088,5c7fbbfd856d2600192161c3,64d2fd46c836a06233681665,64dc7f7d0be17dbe9ee295d7,,,,,,,ctch,resources/DY.BMP,resources/DP.BMP,Door2,0.276851852,-0.060185185,1,0,0,0.564,optionRight,20,14245,7,15,0,15,0,1,,,,,,,,,,,,,,,,,,,,,,,,,,,,,,,,,,,,,,,
,,,,,,,,2023-08-16_08h49.32.652,HF_wild_card,2022.2.4,Win32,60.31363088,5c7fbbfd856d2600192161c3,64d2fd46c836a06233681665,64dc7f7d0be17dbe9ee295d7,,,,,,,ctch,resources/DBN.BMP,resources/DB.BMP,Door4,0.142592593,-0.015740741,1,0,0,0.581,optionRight,60,14305,7,16,0,16,0,1,,,,,,,,,,,,,,,,,,,,,,,,,,,,,,,,,,,,,,,
,,,,,,,,2023-08-16_08h49.32.652,HF_wild_card,2022.2.4,Win32,60.31363088,5c7fbbfd856d2600192161c3,64d2fd46c836a06233681665,64dc7f7d0be17dbe9ee295d7,,,,,,,ctch,resources/DBN.BMP,resources/DB.BMP,Door4,0.22037037,-0.036111111,1,0,0,0.965,optionRight,60,14365,7,17,0,17,0,1,,,,,,,,,,,,,,,,,,,,,,,,,,,,,,,,,,,,,,,
,,,,,,,,2023-08-16_08h49.32.652,HF_wild_card,2022.2.4,Win32,60.31363088,5c7fbbfd856d2600192161c3,64d2fd46c836a06233681665,64dc7f7d0be17dbe9ee295d7,,,,,,,decisionTrl,resources/DB.BMP,resources/DY.BMP,Door4,-0.149074074,0.011111111,1,0,0,0.831,optionLeft,80,14445,7,18,0,18,0,1,,,,,,,,,,,,,,,,,,,,,,,,,,,,,,,,,,,,,,,
,,,,,,,,2023-08-16_08h49.32.652,HF_wild_card,2022.2.4,Win32,60.31363088,5c7fbbfd856d2600192161c3,64d2fd46c836a06233681665,64dc7f7d0be17dbe9ee295d7,,,,,,,decisionTrl,resources/DY.BMP,resources/DB.BMP,Door4,0.242592593,-0.052777778,1,0,0,0.715,optionRight,60,14505,7,19,0,19,0,1,,,,,,,,,,,,,,,,,,,,,,,,,,,,,,,,,,,,,,,
,,,,,,,,2023-08-16_08h49.32.652,HF_wild_card,2022.2.4,Win32,60.31363088,5c7fbbfd856d2600192161c3,64d2fd46c836a06233681665,64dc7f7d0be17dbe9ee295d7,,,,,,,decisionTrl,resources/DB.BMP,resources/DY.BMP,Door4,-0.222222222,0.02037037,1,0,0,0.699,optionLeft,60,14565,7,20,0,20,0,1,,,,,,,,,,,,,,,,,,,,,,,,,,,,,,,,,,,,,,,
,,,,,,,,2023-08-16_08h49.32.652,HF_wild_card,2022.2.4,Win32,60.31363088,5c7fbbfd856d2600192161c3,64d2fd46c836a06233681665,64dc7f7d0be17dbe9ee295d7,,,,,,,decisionTrl,resources/DP.BMP,resources/DBN.BMP,Door2,-0.157407407,0.012962963,1,0,0,0.579,optionLeft,40,14605,7,21,0,21,0,1,,,,,,,,,,,,,,,,,,,,,,,,,,,,,,,,,,,,,,,
,,,,,,,,2023-08-16_08h49.32.652,HF_wild_card,2022.2.4,Win32,60.31363088,5c7fbbfd856d2600192161c3,64d2fd46c836a06233681665,64dc7f7d0be17dbe9ee295d7,,,,,,,decisionTrl,resources/DBN.BMP,resources/DP.BMP,Door2,0.258333333,-0.05462963,1,0,0,0.697,optionRight,40,14645,7,22,0,22,0,1,,,,,,,,,,,,,,,,,,,,,,,,,,,,,,,,,,,,,,,
,,,,,,,,2023-08-16_08h49.32.652,HF_wild_card,2022.2.4,Win32,60.31363088,5c7fbbfd856d2600192161c3,64d2fd46c836a06233681665,64dc7f7d0be17dbe9ee295d7,,,,,,,decisionTrl,resources/DBN.BMP,resources/DP.BMP,Door2,0.338888889,-0.091666667,1,0,0,0.714,optionRight,40,14685,7,23,0,23,0,1,,,,,,,,,,,,,,,,,,,,,,,,,,,,,,,,,,,,,,,
,,,,,,,,2023-08-16_08h49.32.652,HF_wild_card,2022.2.4,Win32,60.31363088,5c7fbbfd856d2600192161c3,64d2fd46c836a06233681665,64dc7f7d0be17dbe9ee295d7,,,,,,,decisionTrl,resources/DBN.BMP,resources/DP.BMP,Door2,0.188888889,-0.039814815,1,0,0,0.682,optionRight,20,14705,7,24,0,24,0,1,,,,,,,,,,,,,,,,,,,,,,,,,,,,,,,,,,,,,,,
,,,,,,,,2023-08-16_08h49.32.652,HF_wild_card,2022.2.4,Win32,60.31363088,5c7fbbfd856d2600192161c3,64d2fd46c836a06233681665,64dc7f7d0be17dbe9ee295d7,,,,,,,ctch,resources/DB.BMP,resources/DBN.BMP,Door4,-0.151851852,0.011111111,1,0,0,0.682,optionLeft,80,14785,7,25,0,25,0,1,,,,,,,,,,,,,,,,,,,,,,,,,,,,,,,,,,,,,,,
,,,,,,,,2023-08-16_08h49.32.652,HF_wild_card,2022.2.4,Win32,60.31363088,5c7fbbfd856d2600192161c3,64d2fd46c836a06233681665,64dc7f7d0be17dbe9ee295d7,,,,,,,decisionTrl,resources/DY.BMP,resources/DB.BMP,Door4,0.187962963,-0.011111111,1,0,0,0.714,optionRight,80,14865,7,26,0,26,0,1,,,,,,,,,,,,,,,,,,,,,,,,,,,,,,,,,,,,,,,
,,,,,,,,2023-08-16_08h49.32.652,HF_wild_card,2022.2.4,Win32,60.31363088,5c7fbbfd856d2600192161c3,64d2fd46c836a06233681665,64dc7f7d0be17dbe9ee295d7,,,,,,,ctch,resources/DB.BMP,resources/DBN.BMP,Door4,-0.177777778,0.014814815,1,0,0,0.848,optionLeft,80,14945,7,27,0,27,0,1,,,,,,,,,,,,,,,,,,,,,,,,,,,,,,,,,,,,,,,
,,,,,,,,2023-08-16_08h49.32.652,HF_wild_card,2022.2.4,Win32,60.31363088,5c7fbbfd856d2600192161c3,64d2fd46c836a06233681665,64dc7f7d0be17dbe9ee295d7,,,,,,,decisionTrl,resources/DP.BMP,resources/DBN.BMP,Door2,-0.244444444,-0.00462963,1,0,0,0.764,optionLeft,20,14965,7,28,0,28,0,1,,,,,,,,,,,,,,,,,,,,,,,,,,,,,,,,,,,,,,,
,,,,,,,,2023-08-16_08h49.32.652,HF_wild_card,2022.2.4,Win32,60.31363088,5c7fbbfd856d2600192161c3,64d2fd46c836a06233681665,64dc7f7d0be17dbe9ee295d7,,,,,,,decisionTrl,resources/DB.BMP,resources/DY.BMP,Door4,-0.262962963,0.002777778,1,0,0,1.415,optionLeft,60,15025,7,29,0,29,0,1,,,,,,,,,,,,,,,,,,,,,,,,,,,,,,,,,,,,,,,
,,,,,,,,2023-08-16_08h49.32.652,HF_wild_card,2022.2.4,Win32,60.31363088,5c7fbbfd856d2600192161c3,64d2fd46c836a06233681665,64dc7f7d0be17dbe9ee295d7,,,,,,,decisionTrl,resources/DY.BMP,resources/DB.BMP,Door4,0.3,-0.025,1,0,0,0.932,optionRight,60,15085,7,30,0,30,0,1,,,,,,,,,,,,,,,,,,,,,,,,,,,,,,,,,,,,,,,
,,,,,,,,2023-08-16_08h49.32.652,HF_wild_card,2022.2.4,Win32,60.31363088,5c7fbbfd856d2600192161c3,64d2fd46c836a06233681665,64dc7f7d0be17dbe9ee295d7,,,,,,,decisionTrl,resources/DB.BMP,resources/DY.BMP,Door4,-0.373148148,0.047222222,1,0,0,0.866,optionLeft,80,15165,7,31,0,31,0,1,,,,,,,,,,,,,,,,,,,,,,,,,,,,,,,,,,,,,,,
,,,,,,,,2023-08-16_08h49.32.652,HF_wild_card,2022.2.4,Win32,60.31363088,5c7fbbfd856d2600192161c3,64d2fd46c836a06233681665,64dc7f7d0be17dbe9ee295d7,,,,,,,decisionTrl,resources/DY.BMP,resources/DB.BMP,Door4,0.239814815,-0.025925926,1,0,0,0.615,optionRight,80,15245,7,32,0,32,0,1,,,,,,,,,,,,,,,,,,,,,,,,,,,,,,,,,,,,,,,
,,,,,,,,2023-08-16_08h49.32.652,HF_wild_card,2022.2.4,Win32,60.31363088,5c7fbbfd856d2600192161c3,64d2fd46c836a06233681665,64dc7f7d0be17dbe9ee295d7,,,,,,,decisionTrl,resources/DP.BMP,resources/DBN.BMP,Door2,-0.180555556,0.010185185,1,0,0,0.546,optionLeft,40,15285,7,33,0,33,0,1,,,,,,,,,,,,,,,,,,,,,,,,,,,,,,,,,,,,,,,
,,,,,,,,2023-08-16_08h49.32.652,HF_wild_card,2022.2.4,Win32,60.31363088,5c7fbbfd856d2600192161c3,64d2fd46c836a06233681665,64dc7f7d0be17dbe9ee295d7,,,,,,,decisionTrl,resources/DY.BMP,resources/DB.BMP,Door4,0.315740741,-0.05462963,1,0,0,0.565,optionRight,80,15365,7,34,0,34,0,1,,,,,,,,,,,,,,,,,,,,,,,,,,,,,,,,,,,,,,,
,,,,,,,,2023-08-16_08h49.32.652,HF_wild_card,2022.2.4,Win32,60.31363088,5c7fbbfd856d2600192161c3,64d2fd46c836a06233681665,64dc7f7d0be17dbe9ee295d7,,,,,,,ctch,resources/DY.BMP,resources/DP.BMP,Door2,0.258333333,-0.042592593,1,0,0,0.612,optionRight,40,15405,7,35,0,35,0,1,,,,,,,,,,,,,,,,,,,,,,,,,,,,,,,,,,,,,,,
,,,,,,,,2023-08-16_08h49.32.652,HF_wild_card,2022.2.4,Win32,60.31363088,5c7fbbfd856d2600192161c3,64d2fd46c836a06233681665,64dc7f7d0be17dbe9ee295d7,,,,,,,,,,,,,,,,,,,,,,,,,,6,0,6,0,1,,,,,,,,,,,,,,,,,,,,,,,,,,,,,,,,,,
,,,,,,,,2023-08-16_08h49.32.652,HF_wild_card,2022.2.4,Win32,60.31363088,5c7fbbfd856d2600192161c3,64d2fd46c836a06233681665,64dc7f7d0be17dbe9ee295d7,,,,,,,,,,,,,,,,,,,,,,,,,,,,,,,3,,,,,,,,,,,,,,,,,,,,,,,,,,,,,,,,,
,,,,,,,,2023-08-16_08h49.32.652,HF_wild_card,2022.2.4,Win32,60.31363088,5c7fbbfd856d2600192161c3,64d2fd46c836a06233681665,64dc7f7d0be17dbe9ee295d7,,,,,,,,,,,,,,,,,,,,,,,,,,,,,,,,,,,,,,,,,,,,,,,,,,,,,,,,,,,,,,,,
,,,,,,,,2023-08-16_08h49.32.652,HF_wild_card,2022.2.4,Win32,60.31363088,5c7fbbfd856d2600192161c3,64d2fd46c836a06233681665,64dc7f7d0be17dbe9ee295d7,,,,,,,,,,,,,,,,,,,,,,,,,,,,,,,,80,Door2,resources/DP.BMP,0,0,0,0,1,,,,,,,,,,,,,,,,,,,,,,,,,
,,,,,,,,2023-08-16_08h49.32.652,HF_wild_card,2022.2.4,Win32,60.31363088,5c7fbbfd856d2600192161c3,64d2fd46c836a06233681665,64dc7f7d0be17dbe9ee295d7,,,,,,,,,,,,,,,,,,,,,,,,,,,,,,,,40,WC_nonExtreme,resources/DG.BMP,1,0,1,0,1,,,,,,,,,,,,,,,,,,,,,,,,,
,,,,,,,,2023-08-16_08h49.32.652,HF_wild_card,2022.2.4,Win32,60.31363088,5c7fbbfd856d2600192161c3,64d2fd46c836a06233681665,64dc7f7d0be17dbe9ee295d7,,,,,,,,,,,,,,,,,,,,,,,,,,,,,,,,45,WC_extreme,resources/DR.BMP,2,0,2,0,1,,,,,,,,,,,,,,,,,,,,,,,,,
,,,,,,,,2023-08-16_08h49.32.652,HF_wild_card,2022.2.4,Win32,60.31363088,5c7fbbfd856d2600192161c3,64d2fd46c836a06233681665,64dc7f7d0be17dbe9ee295d7,,,,,,,,,,,,,,,,,,,,,,,,,,,,,,,,30,Door3,resources/DY.BMP,3,0,3,0,1,,,,,,,,,,,,,,,,,,,,,,,,,
,,,,,,,,2023-08-16_08h49.32.652,HF_wild_card,2022.2.4,Win32,60.31363088,5c7fbbfd856d2600192161c3,64d2fd46c836a06233681665,64dc7f7d0be17dbe9ee295d7,,,,,,,,,,,,,,,,,,,,,,,,,,,,,,,,30,Door1,resources/DBN.BMP,4,0,4,0,1,,,,,,,,,,,,,,,,,,,,,,,,,
,,,,,,,,2023-08-16_08h49.32.652,HF_wild_card,2022.2.4,Win32,60.31363088,5c7fbbfd856d2600192161c3,64d2fd46c836a06233681665,64dc7f7d0be17dbe9ee295d7,,,,,,,,,,,,,,,,,,,,,,,,,,,,,,,,80,Door4,resources/DB.BMP,5,0,5,0,1,,,,,,,,,,,,,,,,,,,,,,,,,
,,,,,,,,2023-08-16_08h49.32.652,HF_wild_card,2022.2.4,Win32,60.31363088,5c7fbbfd856d2600192161c3,64d2fd46c836a06233681665,64dc7f7d0be17dbe9ee295d7,,,,,,,,,,,,,,,,,,,,,,,,,,,,,,,,,,,,,,,,,,,,,,,,,,,,,,,,,,,,,,,,
,,,,,,,,2023-08-16_08h49.32.652,HF_wild_card,2022.2.4,Win32,60.31363088,5c7fbbfd856d2600192161c3,64d2fd46c836a06233681665,64dc7f7d0be17dbe9ee295d7,,,,,,,,,,,,,,,,,,,,,,,,,,,,,,,,,,,,,,,,0,0,0,0,1,,,,,,,,,,,,,,,,,,,,
,,,,,,,,2023-08-16_08h49.32.652,HF_wild_card,2022.2.4,Win32,60.31363088,5c7fbbfd856d2600192161c3,64d2fd46c836a06233681665,64dc7f7d0be17dbe9ee295d7,,,,,,,,,,,,,,,,,,,,,,,,,,,,,,,,,,,,,,,,1,0,1,0,1,,,,,,,,,,,,,,,,,,,,
