Condition,Low fixed image (Door1),Low risky image (Door2),High fixed image (Door3),High risky image (Door4),Extreme Wild Card,NonExtreme Wild Card,,date,expName,psychopyVersion,OS,frameRate,PROLIFIC_PID,STUDY_ID,SESSION_ID,mouse_2.x,mouse_2.y,mouse_2.leftButton,mouse_2.midButton,mouse_2.rightButton,mouse_2.clicked_name,Trial Type,Left Option Image,Right Option Image,Chosen Door,mouse.x,mouse.y,mouse.leftButton,mouse.midButton,mouse.rightButton,mouse.time,mouse.clicked_name,Feedback,Cumulative Reward,Block,trial.thisRepN,trial.thisTrialN,trial.thisN,trial.thisIndex,trial.ran,blocks.thisRepN,blocks.thisTrialN,blocks.thisN,blocks.thisIndex,blocks.ran,Money conversion,First Outcome Reported,Shown Door (First Outcome),Displayed Image (First Outcome),outcomes.thisRepN,outcomes.thisTrialN,outcomes.thisN,outcomes.thisIndex,outcomes.ran,judgments.thisRepN,judgments.thisTrialN,judgments.thisN,judgments.thisIndex,judgments.ran,freqMouse.x,freqMouse.y,freqMouse.leftButton,freqMouse.midButton,freqMouse.rightButton,freqMouse.clicked_name,FQJ for first outcome,FQJ for second outcome,Shown Door,Displayed Image,trials.thisRepN,trials.thisTrialN,trials.thisN,trials.thisIndex,trials.ran,judgBlock.thisRepN,judgBlock.thisTrialN,judgBlock.thisN,judgBlock.thisIndex,judgBlock.ran
0,resources/DR.BMP,resources/DP.BMP,resources/DBN.BMP,resources/DB.BMP,resources/DG.BMP,resources/DY.BMP,,2023-08-16_08h58.58.804,HF_wild_card,2022.2.4,Win32,60.12506013,62c8576299ac324ce5e9a813,64d2fd46c836a06233681665,64dc7fd7757c7ab4466f0aa2,,,,,,,,,,,,,,,,,,,,,,,,,,,,,,,,,,,,,,,,,,,,,,,,,,,,,,,,,,,,,,,,
,,,,,,,,2023-08-16_08h58.58.804,HF_wild_card,2022.2.4,Win32,60.12506013,62c8576299ac324ce5e9a813,64d2fd46c836a06233681665,64dc7fd7757c7ab4466f0aa2,-0.009259259,-0.426851838,1,0,0,agree,,,,,,,,,,,,,,,,,,,,,,,,,,,,,,,,,,,,,,,,,,,,,,,,,,,,,,,,,,
,,,,,,,,2023-08-16_08h58.58.804,HF_wild_card,2022.2.4,Win32,60.12506013,62c8576299ac324ce5e9a813,64d2fd46c836a06233681665,64dc7fd7757c7ab4466f0aa2,,,,,,,,,,,,,,,,,,,,,,,,,,,,,,,,,,,,,,,,,,,,,,,,,,,,,,,,,,,,,,,,
,,,,,,,,2023-08-16_08h58.58.804,HF_wild_card,2022.2.4,Win32,60.12506013,62c8576299ac324ce5e9a813,64d2fd46c836a06233681665,64dc7fd7757c7ab4466f0aa2,,,,,,,decisionTrl,resources/DBN.BMP,resources/DB.BMP,Door4,0.359259288,-0.018518519,1,0,0,2.5466,optionRight,60,60,1,0,0,0,0,1,,,,,,,,,,,,,,,,,,,,,,,,,,,,,,,,,,,,,,,
,,,,,,,,2023-08-16_08h58.58.804,HF_wild_card,2022.2.4,Win32,60.12506013,62c8576299ac324ce5e9a813,64d2fd46c836a06233681665,64dc7fd7757c7ab4466f0aa2,,,,,,,ctch,resources/DB.BMP,resources/DR.BMP,Door1,0.411111196,0.037962949,1,0,0,2.873799999,optionRight,30,90,1,1,0,1,0,1,,,,,,,,,,,,,,,,,,,,,,,,,,,,,,,,,,,,,,,
,,,,,,,,2023-08-16_08h58.58.804,HF_wild_card,2022.2.4,Win32,60.12506013,62c8576299ac324ce5e9a813,64d2fd46c836a06233681665,64dc7fd7757c7ab4466f0aa2,,,,,,,sngl,resources/DG.BMP,resources/Empty.png,WildCard_Ex,-0.291666667,-0.032407407,1,0,0,0.943099998,optionLeft,5,95,1,2,0,2,0,1,,,,,,,,,,,,,,,,,,,,,,,,,,,,,,,,,,,,,,,
,,,,,,,,2023-08-16_08h58.58.804,HF_wild_card,2022.2.4,Win32,60.12506013,62c8576299ac324ce5e9a813,64d2fd46c836a06233681665,64dc7fd7757c7ab4466f0aa2,,,,,,,sngl,resources/DBN.BMP,resources/Empty.png,Door3,-0.355555534,-0.014814836,1,0,0,1.1764,optionLeft,70,165,1,3,0,3,0,1,,,,,,,,,,,,,,,,,,,,,,,,,,,,,,,,,,,,,,,
,,,,,,,,2023-08-16_08h58.58.804,HF_wild_card,2022.2.4,Win32,60.12506013,62c8576299ac324ce5e9a813,64d2fd46c836a06233681665,64dc7fd7757c7ab4466f0aa2,,,,,,,ctch,resources/DP.BMP,resources/DBN.BMP,Door3,0.445370427,0.058333326,1,0,0,2.8675,optionRight,70,235,1,4,0,4,0,1,,,,,,,,,,,,,,,,,,,,,,,,,,,,,,,,,,,,,,,
,,,,,,,,2023-08-16_08h58.58.804,HF_wild_card,2022.2.4,Win32,60.12506013,62c8576299ac324ce5e9a813,64d2fd46c836a06233681665,64dc7fd7757c7ab4466f0aa2,,,,,,,decisionTrl,resources/DR.BMP,resources/DP.BMP,Door2,0.289814843,-0.040740755,1,0,0,1.202200001,optionRight,20,255,1,5,0,5,0,1,,,,,,,,,,,,,,,,,,,,,,,,,,,,,,,,,,,,,,,
,,,,,,,,2023-08-16_08h58.58.804,HF_wild_card,2022.2.4,Win32,60.12506013,62c8576299ac324ce5e9a813,64d2fd46c836a06233681665,64dc7fd7757c7ab4466f0aa2,,,,,,,decisionTrl,resources/DR.BMP,resources/DP.BMP,Door1,-0.298148155,0.00462963,1,0,0,0.8129,optionLeft,30,285,1,6,0,6,0,1,,,,,,,,,,,,,,,,,,,,,,,,,,,,,,,,,,,,,,,
,,,,,,,,2023-08-16_08h58.58.804,HF_wild_card,2022.2.4,Win32,60.12506013,62c8576299ac324ce5e9a813,64d2fd46c836a06233681665,64dc7fd7757c7ab4466f0aa2,,,,,,,sngl,resources/Empty.png,resources/DP.BMP,Door2,0.453703704,0.017592571,1,0,0,0.8635,optionRight,20,305,1,7,0,7,0,1,,,,,,,,,,,,,,,,,,,,,,,,,,,,,,,,,,,,,,,
,,,,,,,,2023-08-16_08h58.58.804,HF_wild_card,2022.2.4,Win32,60.12506013,62c8576299ac324ce5e9a813,64d2fd46c836a06233681665,64dc7fd7757c7ab4466f0aa2,,,,,,,ctch,resources/DR.BMP,resources/DB.BMP,Door1,-0.352777764,-0.072222215,1,0,0,1.104,optionLeft,30,335,1,8,0,8,0,1,,,,,,,,,,,,,,,,,,,,,,,,,,,,,,,,,,,,,,,
,,,,,,,,2023-08-16_08h58.58.804,HF_wild_card,2022.2.4,Win32,60.12506013,62c8576299ac324ce5e9a813,64d2fd46c836a06233681665,64dc7fd7757c7ab4466f0aa2,,,,,,,decisionTrl,resources/DB.BMP,resources/DG.BMP,WildCard_Ex,0.40833339,-0.008333347,1,0,0,0.721700001,optionRight,95,430,1,9,0,9,0,1,,,,,,,,,,,,,,,,,,,,,,,,,,,,,,,,,,,,,,,
,,,,,,,,2023-08-16_08h58.58.804,HF_wild_card,2022.2.4,Win32,60.12506013,62c8576299ac324ce5e9a813,64d2fd46c836a06233681665,64dc7fd7757c7ab4466f0aa2,,,,,,,sngl,resources/Empty.png,resources/DG.BMP,WildCard_Ex,0.350000028,-0.000925947,1,0,0,1.1105,optionRight,5,435,1,10,0,10,0,1,,,,,,,,,,,,,,,,,,,,,,,,,,,,,,,,,,,,,,,
,,,,,,,,2023-08-16_08h58.58.804,HF_wild_card,2022.2.4,Win32,60.12506013,62c8576299ac324ce5e9a813,64d2fd46c836a06233681665,64dc7fd7757c7ab4466f0aa2,,,,,,,decisionTrl,resources/DBN.BMP,resources/DG.BMP,Door3,-0.253703718,-0.061111132,1,0,0,3.244300001,optionLeft,70,505,1,11,0,11,0,1,,,,,,,,,,,,,,,,,,,,,,,,,,,,,,,,,,,,,,,
,,,,,,,,2023-08-16_08h58.58.804,HF_wild_card,2022.2.4,Win32,60.12506013,62c8576299ac324ce5e9a813,64d2fd46c836a06233681665,64dc7fd7757c7ab4466f0aa2,,,,,,,decisionTrl,resources/DR.BMP,resources/DG.BMP,WildCard_Ex,0.293518561,0.033333319,1,0,0,1.479299999,optionRight,5,510,1,12,0,12,0,1,,,,,,,,,,,,,,,,,,,,,,,,,,,,,,,,,,,,,,,
,,,,,,,,2023-08-16_08h58.58.804,HF_wild_card,2022.2.4,Win32,60.12506013,62c8576299ac324ce5e9a813,64d2fd46c836a06233681665,64dc7fd7757c7ab4466f0aa2,,,,,,,decisionTrl,resources/DP.BMP,resources/DG.BMP,WildCard_Ex,0.389814871,0.048148155,1,0,0,1.5955,optionRight,95,605,1,13,0,13,0,1,,,,,,,,,,,,,,,,,,,,,,,,,,,,,,,,,,,,,,,
,,,,,,,,2023-08-16_08h58.58.804,HF_wild_card,2022.2.4,Win32,60.12506013,62c8576299ac324ce5e9a813,64d2fd46c836a06233681665,64dc7fd7757c7ab4466f0aa2,,,,,,,decisionTrl,resources/DG.BMP,resources/DB.BMP,Door4,0.395370342,0.038888896,1,0,0,1.679,optionRight,80,685,1,14,0,14,0,1,,,,,,,,,,,,,,,,,,,,,,,,,,,,,,,,,,,,,,,
,,,,,,,,2023-08-16_08h58.58.804,HF_wild_card,2022.2.4,Win32,60.12506013,62c8576299ac324ce5e9a813,64d2fd46c836a06233681665,64dc7fd7757c7ab4466f0aa2,,,,,,,decisionTrl,resources/DG.BMP,resources/DP.BMP,WildCard_Ex,-0.252777735,-0.070370392,1,0,0,1.361900002,optionLeft,95,780,1,15,0,15,0,1,,,,,,,,,,,,,,,,,,,,,,,,,,,,,,,,,,,,,,,
,,,,,,,,2023-08-16_08h58.58.804,HF_wild_card,2022.2.4,Win32,60.12506013,62c8576299ac324ce5e9a813,64d2fd46c836a06233681665,64dc7fd7757c7ab4466f0aa2,,,,,,,sngl,resources/Empty.png,resources/DB.BMP,Door4,0.388888889,0.025000007,1,0,0,0.813300001,optionRight,60,840,1,16,0,16,0,1,,,,,,,,,,,,,,,,,,,,,,,,,,,,,,,,,,,,,,,
,,,,,,,,2023-08-16_08h58.58.804,HF_wild_card,2022.2.4,Win32,60.12506013,62c8576299ac324ce5e9a813,64d2fd46c836a06233681665,64dc7fd7757c7ab4466f0aa2,,,,,,,decisionTrl,resources/DG.BMP,resources/DR.BMP,Door1,0.392592677,-0.041666667,1,0,0,1.6296,optionRight,30,870,1,17,0,17,0,1,,,,,,,,,,,,,,,,,,,,,,,,,,,,,,,,,,,,,,,
,,,,,,,,2023-08-16_08h58.58.804,HF_wild_card,2022.2.4,Win32,60.12506013,62c8576299ac324ce5e9a813,64d2fd46c836a06233681665,64dc7fd7757c7ab4466f0aa2,,,,,,,sngl,resources/Empty.png,resources/DR.BMP,Door1,0.303703732,0.029629637,1,0,0,1.1456,optionRight,30,900,1,18,0,18,0,1,,,,,,,,,,,,,,,,,,,,,,,,,,,,,,,,,,,,,,,
,,,,,,,,2023-08-16_08h58.58.804,HF_wild_card,2022.2.4,Win32,60.12506013,62c8576299ac324ce5e9a813,64d2fd46c836a06233681665,64dc7fd7757c7ab4466f0aa2,,,,,,,decisionTrl,resources/DR.BMP,resources/DP.BMP,Door1,-0.236111111,-0.027777778,1,0,0,0.8796,optionLeft,30,930,1,19,0,19,0,1,,,,,,,,,,,,,,,,,,,,,,,,,,,,,,,,,,,,,,,
,,,,,,,,2023-08-16_08h58.58.804,HF_wild_card,2022.2.4,Win32,60.12506013,62c8576299ac324ce5e9a813,64d2fd46c836a06233681665,64dc7fd7757c7ab4466f0aa2,,,,,,,sngl,resources/DG.BMP,resources/Empty.png,WildCard_Ex,-0.203703704,-0.017592607,1,0,0,1.0114,optionLeft,95,1025,1,20,0,20,0,1,,,,,,,,,,,,,,,,,,,,,,,,,,,,,,,,,,,,,,,
,,,,,,,,2023-08-16_08h58.58.804,HF_wild_card,2022.2.4,Win32,60.12506013,62c8576299ac324ce5e9a813,64d2fd46c836a06233681665,64dc7fd7757c7ab4466f0aa2,,,,,,,decisionTrl,resources/DP.BMP,resources/DR.BMP,Door2,-0.29351849,-0.062037044,1,0,0,1.4776,optionLeft,20,1045,1,21,0,21,0,1,,,,,,,,,,,,,,,,,,,,,,,,,,,,,,,,,,,,,,,
,,,,,,,,2023-08-16_08h58.58.804,HF_wild_card,2022.2.4,Win32,60.12506013,62c8576299ac324ce5e9a813,64d2fd46c836a06233681665,64dc7fd7757c7ab4466f0aa2,,,,,,,decisionTrl,resources/DB.BMP,resources/DBN.BMP,Door4,-0.371296282,-0.047222243,1,0,0,1.1309,optionLeft,80,1125,1,22,0,22,0,1,,,,,,,,,,,,,,,,,,,,,,,,,,,,,,,,,,,,,,,
,,,,,,,,2023-08-16_08h58.58.804,HF_wild_card,2022.2.4,Win32,60.12506013,62c8576299ac324ce5e9a813,64d2fd46c836a06233681665,64dc7fd7757c7ab4466f0aa2,,,,,,,ctch,resources/DBN.BMP,resources/DP.BMP,Door2,0.412963019,0.002777771,1,0,0,0.795300001,optionRight,40,1165,1,23,0,23,0,1,,,,,,,,,,,,,,,,,,,,,,,,,,,,,,,,,,,,,,,
,,,,,,,,2023-08-16_08h58.58.804,HF_wild_card,2022.2.4,Win32,60.12506013,62c8576299ac324ce5e9a813,64d2fd46c836a06233681665,64dc7fd7757c7ab4466f0aa2,,,,,,,decisionTrl,resources/DG.BMP,resources/DBN.BMP,WildCard_Ex,-0.304629608,0.056481467,1,0,0,0.7786,optionLeft,95,1260,1,24,0,24,0,1,,,,,,,,,,,,,,,,,,,,,,,,,,,,,,,,,,,,,,,
,,,,,,,,2023-08-16_08h58.58.804,HF_wild_card,2022.2.4,Win32,60.12506013,62c8576299ac324ce5e9a813,64d2fd46c836a06233681665,64dc7fd7757c7ab4466f0aa2,,,,,,,ctch,resources/DB.BMP,resources/DR.BMP,Door1,0.264814801,0.015740748,1,0,0,1.927700001,optionRight,30,1290,1,25,0,25,0,1,,,,,,,,,,,,,,,,,,,,,,,,,,,,,,,,,,,,,,,
,,,,,,,,2023-08-16_08h58.58.804,HF_wild_card,2022.2.4,Win32,60.12506013,62c8576299ac324ce5e9a813,64d2fd46c836a06233681665,64dc7fd7757c7ab4466f0aa2,,,,,,,decisionTrl,resources/DBN.BMP,resources/DB.BMP,Door3,-0.307407414,-0.013888889,1,0,0,0.731599998,optionLeft,70,1360,1,26,0,26,0,1,,,,,,,,,,,,,,,,,,,,,,,,,,,,,,,,,,,,,,,
,,,,,,,,2023-08-16_08h58.58.804,HF_wild_card,2022.2.4,Win32,60.12506013,62c8576299ac324ce5e9a813,64d2fd46c836a06233681665,64dc7fd7757c7ab4466f0aa2,,,,,,,decisionTrl,resources/DP.BMP,resources/DR.BMP,Door1,0.411111196,-0.003703718,1,0,0,1.478700001,optionRight,30,1390,1,27,0,27,0,1,,,,,,,,,,,,,,,,,,,,,,,,,,,,,,,,,,,,,,,
,,,,,,,,2023-08-16_08h58.58.804,HF_wild_card,2022.2.4,Win32,60.12506013,62c8576299ac324ce5e9a813,64d2fd46c836a06233681665,64dc7fd7757c7ab4466f0aa2,,,,,,,decisionTrl,resources/DB.BMP,resources/DBN.BMP,Door4,-0.345370363,-0.025925919,1,0,0,0.9989,optionLeft,60,1450,1,28,0,28,0,1,,,,,,,,,,,,,,,,,,,,,,,,,,,,,,,,,,,,,,,
,,,,,,,,2023-08-16_08h58.58.804,HF_wild_card,2022.2.4,Win32,60.12506013,62c8576299ac324ce5e9a813,64d2fd46c836a06233681665,64dc7fd7757c7ab4466f0aa2,,,,,,,sngl,resources/Empty.png,resources/DBN.BMP,Door3,0.45185188,0.02407406,1,0,0,0.859200001,optionRight,70,1520,1,29,0,29,0,1,,,,,,,,,,,,,,,,,,,,,,,,,,,,,,,,,,,,,,,
,,,,,,,,2023-08-16_08h58.58.804,HF_wild_card,2022.2.4,Win32,60.12506013,62c8576299ac324ce5e9a813,64d2fd46c836a06233681665,64dc7fd7757c7ab4466f0aa2,,,,,,,decisionTrl,resources/DP.BMP,resources/DR.BMP,Door2,-0.325925933,-0.003703718,1,0,0,1.276,optionLeft,40,1560,1,30,0,30,0,1,,,,,,,,,,,,,,,,,,,,,,,,,,,,,,,,,,,,,,,
,,,,,,,,2023-08-16_08h58.58.804,HF_wild_card,2022.2.4,Win32,60.12506013,62c8576299ac324ce5e9a813,64d2fd46c836a06233681665,64dc7fd7757c7ab4466f0aa2,,,,,,,decisionTrl,resources/DB.BMP,resources/DBN.BMP,Door4,-0.425925926,-0.057407414,1,0,0,1.012700001,optionLeft,60,1620,1,31,0,31,0,1,,,,,,,,,,,,,,,,,,,,,,,,,,,,,,,,,,,,,,,
,,,,,,,,2023-08-16_08h58.58.804,HF_wild_card,2022.2.4,Win32,60.12506013,62c8576299ac324ce5e9a813,64d2fd46c836a06233681665,64dc7fd7757c7ab4466f0aa2,,,,,,,decisionTrl,resources/DBN.BMP,resources/DB.BMP,Door3,-0.338888875,-0.021296289,1,0,0,0.858,optionLeft,70,1690,1,32,0,32,0,1,,,,,,,,,,,,,,,,,,,,,,,,,,,,,,,,,,,,,,,
,,,,,,,,2023-08-16_08h58.58.804,HF_wild_card,2022.2.4,Win32,60.12506013,62c8576299ac324ce5e9a813,64d2fd46c836a06233681665,64dc7fd7757c7ab4466f0aa2,,,,,,,decisionTrl,resources/DP.BMP,resources/DR.BMP,Door1,0.348148205,0.037962949,1,0,0,1.678699999,optionRight,30,1720,1,33,0,33,0,1,,,,,,,,,,,,,,,,,,,,,,,,,,,,,,,,,,,,,,,
,,,,,,,,2023-08-16_08h58.58.804,HF_wild_card,2022.2.4,Win32,60.12506013,62c8576299ac324ce5e9a813,64d2fd46c836a06233681665,64dc7fd7757c7ab4466f0aa2,,,,,,,decisionTrl,resources/DB.BMP,resources/DBN.BMP,Door4,-0.337037016,-0.021296289,1,0,0,1.3259,optionLeft,60,1780,1,34,0,34,0,1,,,,,,,,,,,,,,,,,,,,,,,,,,,,,,,,,,,,,,,
,,,,,,,,2023-08-16_08h58.58.804,HF_wild_card,2022.2.4,Win32,60.12506013,62c8576299ac324ce5e9a813,64d2fd46c836a06233681665,64dc7fd7757c7ab4466f0aa2,,,,,,,decisionTrl,resources/DR.BMP,resources/DP.BMP,Door2,0.318518603,0.014814801,1,0,0,1.360400002,optionRight,20,1800,1,35,0,35,0,1,,,,,,,,,,,,,,,,,,,,,,,,,,,,,,,,,,,,,,,
,,,,,,,,2023-08-16_08h58.58.804,HF_wild_card,2022.2.4,Win32,60.12506013,62c8576299ac324ce5e9a813,64d2fd46c836a06233681665,64dc7fd7757c7ab4466f0aa2,,,,,,,ctch,resources/DR.BMP,resources/DB.BMP,Door4,0.23055557,0.145370377,1,0,0,1.9275,optionRight,60,1860,1,36,0,36,0,1,,,,,,,,,,,,,,,,,,,,,,,,,,,,,,,,,,,,,,,
,,,,,,,,2023-08-16_08h58.58.804,HF_wild_card,2022.2.4,Win32,60.12506013,62c8576299ac324ce5e9a813,64d2fd46c836a06233681665,64dc7fd7757c7ab4466f0aa2,,,,,,,decisionTrl,resources/DBN.BMP,resources/DB.BMP,Door3,-0.388888889,-0.021296289,1,0,0,1.234,optionLeft,70,1930,1,37,0,37,0,1,,,,,,,,,,,,,,,,,,,,,,,,,,,,,,,,,,,,,,,
,,,,,,,,2023-08-16_08h58.58.804,HF_wild_card,2022.2.4,Win32,60.12506013,62c8576299ac324ce5e9a813,64d2fd46c836a06233681665,64dc7fd7757c7ab4466f0aa2,,,,,,,sngl,resources/DR.BMP,resources/Empty.png,Door1,-0.369444423,-0.032407407,1,0,0,1.020199999,optionLeft,30,1960,1,38,0,38,0,1,,,,,,,,,,,,,,,,,,,,,,,,,,,,,,,,,,,,,,,
,,,,,,,,2023-08-16_08h58.58.804,HF_wild_card,2022.2.4,Win32,60.12506013,62c8576299ac324ce5e9a813,64d2fd46c836a06233681665,64dc7fd7757c7ab4466f0aa2,,,,,,,sngl,resources/DB.BMP,resources/Empty.png,Door4,-0.340740734,0.0074074,1,0,0,1.0594,optionLeft,80,2040,1,39,0,39,0,1,,,,,,,,,,,,,,,,,,,,,,,,,,,,,,,,,,,,,,,
,,,,,,,,2023-08-16_08h58.58.804,HF_wild_card,2022.2.4,Win32,60.12506013,62c8576299ac324ce5e9a813,64d2fd46c836a06233681665,64dc7fd7757c7ab4466f0aa2,,,,,,,ctch,resources/DP.BMP,resources/DBN.BMP,Door3,0.416666667,0.081481474,1,0,0,1.615700001,optionRight,70,2110,1,40,0,40,0,1,,,,,,,,,,,,,,,,,,,,,,,,,,,,,,,,,,,,,,,
,,,,,,,,2023-08-16_08h58.58.804,HF_wild_card,2022.2.4,Win32,60.12506013,62c8576299ac324ce5e9a813,64d2fd46c836a06233681665,64dc7fd7757c7ab4466f0aa2,,,,,,,sngl,resources/Empty.png,resources/DG.BMP,WildCard_Ex,0.383333418,0.046296296,1,0,0,1.2236,optionRight,95,2205,1,41,0,41,0,1,,,,,,,,,,,,,,,,,,,,,,,,,,,,,,,,,,,,,,,
,,,,,,,,2023-08-16_08h58.58.804,HF_wild_card,2022.2.4,Win32,60.12506013,62c8576299ac324ce5e9a813,64d2fd46c836a06233681665,64dc7fd7757c7ab4466f0aa2,,,,,,,sngl,resources/DP.BMP,resources/Empty.png,Door2,-0.314814815,-0.01666666,1,0,0,1.0441,optionLeft,40,2245,1,42,0,42,0,1,,,,,,,,,,,,,,,,,,,,,,,,,,,,,,,,,,,,,,,
,,,,,,,,2023-08-16_08h58.58.804,HF_wild_card,2022.2.4,Win32,60.12506013,62c8576299ac324ce5e9a813,64d2fd46c836a06233681665,64dc7fd7757c7ab4466f0aa2,,,,,,,ctch,resources/DBN.BMP,resources/DP.BMP,Door3,-0.442592586,-0.039814808,1,0,0,1.3999,optionLeft,70,2315,1,43,0,43,0,1,,,,,,,,,,,,,,,,,,,,,,,,,,,,,,,,,,,,,,,
,,,,,,,,2023-08-16_08h58.58.804,HF_wild_card,2022.2.4,Win32,60.12506013,62c8576299ac324ce5e9a813,64d2fd46c836a06233681665,64dc7fd7757c7ab4466f0aa2,,,,,,,,,,,,,,,,,,,,,,,,,,0,0,0,0,1,,,,,,,,,,,,,,,,,,,,,,,,,,,,,,,,,,
,,,,,,,,2023-08-16_08h58.58.804,HF_wild_card,2022.2.4,Win32,60.12506013,62c8576299ac324ce5e9a813,64d2fd46c836a06233681665,64dc7fd7757c7ab4466f0aa2,,,,,,,ctch,resources/DP.BMP,resources/DBN.BMP,Door2,-0.373148141,-0.087962963,1,0,0,1.7374,optionLeft,40,2355,2,0,0,0,0,1,,,,,,,,,,,,,,,,,,,,,,,,,,,,,,,,,,,,,,,
,,,,,,,,2023-08-16_08h58.58.804,HF_wild_card,2022.2.4,Win32,60.12506013,62c8576299ac324ce5e9a813,64d2fd46c836a06233681665,64dc7fd7757c7ab4466f0aa2,,,,,,,decisionTrl,resources/DG.BMP,resources/DP.BMP,Door2,0.297222279,0.00462963,1,0,0,1.278799999,optionRight,40,2395,2,1,0,1,0,1,,,,,,,,,,,,,,,,,,,,,,,,,,,,,,,,,,,,,,,
,,,,,,,,2023-08-16_08h58.58.804,HF_wild_card,2022.2.4,Win32,60.12506013,62c8576299ac324ce5e9a813,64d2fd46c836a06233681665,64dc7fd7757c7ab4466f0aa2,,,,,,,decisionTrl,resources/DB.BMP,resources/DBN.BMP,Door4,-0.373148141,0.026851831,1,0,0,0.954,optionLeft,60,2455,2,2,0,2,0,1,,,,,,,,,,,,,,,,,,,,,,,,,,,,,,,,,,,,,,,
,,,,,,,,2023-08-16_08h58.58.804,HF_wild_card,2022.2.4,Win32,60.12506013,62c8576299ac324ce5e9a813,64d2fd46c836a06233681665,64dc7fd7757c7ab4466f0aa2,,,,,,,sngl,resources/Empty.png,resources/DG.BMP,WildCard_Ex,0.400925954,0.000925912,1,0,0,0.925599998,optionRight,95,2550,2,3,0,3,0,1,,,,,,,,,,,,,,,,,,,,,,,,,,,,,,,,,,,,,,,
,,,,,,,,2023-08-16_08h58.58.804,HF_wild_card,2022.2.4,Win32,60.12506013,62c8576299ac324ce5e9a813,64d2fd46c836a06233681665,64dc7fd7757c7ab4466f0aa2,,,,,,,sngl,resources/DB.BMP,resources/Empty.png,Door4,-0.363888882,-0.006481489,1,0,0,0.8229,optionLeft,60,2610,2,4,0,4,0,1,,,,,,,,,,,,,,,,,,,,,,,,,,,,,,,,,,,,,,,
,,,,,,,,2023-08-16_08h58.58.804,HF_wild_card,2022.2.4,Win32,60.12506013,62c8576299ac324ce5e9a813,64d2fd46c836a06233681665,64dc7fd7757c7ab4466f0aa2,,,,,,,decisionTrl,resources/DB.BMP,resources/DG.BMP,WildCard_Ex,0.308333362,0.005555541,1,0,0,1.9944,optionRight,95,2705,2,5,0,5,0,1,,,,,,,,,,,,,,,,,,,,,,,,,,,,,,,,,,,,,,,
,,,,,,,,2023-08-16_08h58.58.804,HF_wild_card,2022.2.4,Win32,60.12506013,62c8576299ac324ce5e9a813,64d2fd46c836a06233681665,64dc7fd7757c7ab4466f0aa2,,,,,,,decisionTrl,resources/DP.BMP,resources/DR.BMP,Door2,-0.347222222,-0.089814822,1,0,0,3.0095,optionLeft,40,2745,2,6,0,6,0,1,,,,,,,,,,,,,,,,,,,,,,,,,,,,,,,,,,,,,,,
,,,,,,,,2023-08-16_08h58.58.804,HF_wild_card,2022.2.4,Win32,60.12506013,62c8576299ac324ce5e9a813,64d2fd46c836a06233681665,64dc7fd7757c7ab4466f0aa2,,,,,,,decisionTrl,resources/DP.BMP,resources/DR.BMP,Door1,0.467592593,0.011111118,1,0,0,2.695800001,optionRight,30,2775,2,7,0,7,0,1,,,,,,,,,,,,,,,,,,,,,,,,,,,,,,,,,,,,,,,
,,,,,,,,2023-08-16_08h58.58.804,HF_wild_card,2022.2.4,Win32,60.12506013,62c8576299ac324ce5e9a813,64d2fd46c836a06233681665,64dc7fd7757c7ab4466f0aa2,,,,,,,sngl,resources/Empty.png,resources/DBN.BMP,Door3,0.306481538,0.049074067,1,0,0,1.2795,optionRight,70,2845,2,8,0,8,0,1,,,,,,,,,,,,,,,,,,,,,,,,,,,,,,,,,,,,,,,
,,,,,,,,2023-08-16_08h58.58.804,HF_wild_card,2022.2.4,Win32,60.12506013,62c8576299ac324ce5e9a813,64d2fd46c836a06233681665,64dc7fd7757c7ab4466f0aa2,,,,,,,sngl,resources/DG.BMP,resources/Empty.png,WildCard_Ex,-0.364814794,-0.031481496,1,0,0,0.964,optionLeft,95,2940,2,9,0,9,0,1,,,,,,,,,,,,,,,,,,,,,,,,,,,,,,,,,,,,,,,
,,,,,,,,2023-08-16_08h58.58.804,HF_wild_card,2022.2.4,Win32,60.12506013,62c8576299ac324ce5e9a813,64d2fd46c836a06233681665,64dc7fd7757c7ab4466f0aa2,,,,,,,ctch,resources/DP.BMP,resources/DBN.BMP,Door3,0.354629658,0.044444437,1,0,0,1.519,optionRight,70,3010,2,10,0,10,0,1,,,,,,,,,,,,,,,,,,,,,,,,,,,,,,,,,,,,,,,
,,,,,,,,2023-08-16_08h58.58.804,HF_wild_card,2022.2.4,Win32,60.12506013,62c8576299ac324ce5e9a813,64d2fd46c836a06233681665,64dc7fd7757c7ab4466f0aa2,,,,,,,decisionTrl,resources/DR.BMP,resources/DP.BMP,Door2,0.320370427,0.01203703,1,0,0,1.1099,optionRight,40,3050,2,11,0,11,0,1,,,,,,,,,,,,,,,,,,,,,,,,,,,,,,,,,,,,,,,
,,,,,,,,2023-08-16_08h58.58.804,HF_wild_card,2022.2.4,Win32,60.12506013,62c8576299ac324ce5e9a813,64d2fd46c836a06233681665,64dc7fd7757c7ab4466f0aa2,,,,,,,decisionTrl,resources/DR.BMP,resources/DG.BMP,WildCard_Ex,0.335185157,-0.002777771,1,0,0,3.2374,optionRight,5,3055,2,12,0,12,0,1,,,,,,,,,,,,,,,,,,,,,,,,,,,,,,,,,,,,,,,
,,,,,,,,2023-08-16_08h58.58.804,HF_wild_card,2022.2.4,Win32,60.12506013,62c8576299ac324ce5e9a813,64d2fd46c836a06233681665,64dc7fd7757c7ab4466f0aa2,,,,,,,decisionTrl,resources/DBN.BMP,resources/DB.BMP,Door3,-0.420370349,0.006481489,1,0,0,1.0034,optionLeft,70,3125,2,13,0,13,0,1,,,,,,,,,,,,,,,,,,,,,,,,,,,,,,,,,,,,,,,
,,,,,,,,2023-08-16_08h58.58.804,HF_wild_card,2022.2.4,Win32,60.12506013,62c8576299ac324ce5e9a813,64d2fd46c836a06233681665,64dc7fd7757c7ab4466f0aa2,,,,,,,sngl,resources/Empty.png,resources/DP.BMP,Door2,0.385185242,-0.000925947,1,0,0,1.1471,optionRight,40,3165,2,14,0,14,0,1,,,,,,,,,,,,,,,,,,,,,,,,,,,,,,,,,,,,,,,
,,,,,,,,2023-08-16_08h58.58.804,HF_wild_card,2022.2.4,Win32,60.12506013,62c8576299ac324ce5e9a813,64d2fd46c836a06233681665,64dc7fd7757c7ab4466f0aa2,,,,,,,decisionTrl,resources/DP.BMP,resources/DR.BMP,Door1,0.293518561,-0.01666666,1,0,0,2.722200001,optionRight,30,3195,2,15,0,15,0,1,,,,,,,,,,,,,,,,,,,,,,,,,,,,,,,,,,,,,,,
,,,,,,,,2023-08-16_08h58.58.804,HF_wild_card,2022.2.4,Win32,60.12506013,62c8576299ac324ce5e9a813,64d2fd46c836a06233681665,64dc7fd7757c7ab4466f0aa2,,,,,,,ctch,resources/DBN.BMP,resources/DP.BMP,Door3,-0.211111069,-0.0074074,1,0,0,1.144,optionLeft,70,3265,2,16,0,16,0,1,,,,,,,,,,,,,,,,,,,,,,,,,,,,,,,,,,,,,,,
,,,,,,,,2023-08-16_08h58.58.804,HF_wild_card,2022.2.4,Win32,60.12506013,62c8576299ac324ce5e9a813,64d2fd46c836a06233681665,64dc7fd7757c7ab4466f0aa2,,,,,,,decisionTrl,resources/DG.BMP,resources/DB.BMP,Door4,0.25462963,-0.030555548,1,0,0,4.3914,optionRight,80,3345,2,17,0,17,0,1,,,,,,,,,,,,,,,,,,,,,,,,,,,,,,,,,,,,,,,
,,,,,,,,2023-08-16_08h58.58.804,HF_wild_card,2022.2.4,Win32,60.12506013,62c8576299ac324ce5e9a813,64d2fd46c836a06233681665,64dc7fd7757c7ab4466f0aa2,,,,,,,sngl,resources/DR.BMP,resources/Empty.png,Door1,-0.314814815,-0.042592614,1,0,0,1.1254,optionLeft,30,3375,2,18,0,18,0,1,,,,,,,,,,,,,,,,,,,,,,,,,,,,,,,,,,,,,,,
,,,,,,,,2023-08-16_08h58.58.804,HF_wild_card,2022.2.4,Win32,60.12506013,62c8576299ac324ce5e9a813,64d2fd46c836a06233681665,64dc7fd7757c7ab4466f0aa2,,,,,,,sngl,resources/DBN.BMP,resources/Empty.png,Door3,-0.393518519,0.023148148,1,0,0,0.928800001,optionLeft,70,3445,2,19,0,19,0,1,,,,,,,,,,,,,,,,,,,,,,,,,,,,,,,,,,,,,,,
,,,,,,,,2023-08-16_08h58.58.804,HF_wild_card,2022.2.4,Win32,60.12506013,62c8576299ac324ce5e9a813,64d2fd46c836a06233681665,64dc7fd7757c7ab4466f0aa2,,,,,,,sngl,resources/Empty.png,resources/DG.BMP,WildCard_Ex,0.368518547,-0.017592607,1,0,0,2.527800001,optionRight,5,3450,2,20,0,20,0,1,,,,,,,,,,,,,,,,,,,,,,,,,,,,,,,,,,,,,,,
,,,,,,,,2023-08-16_08h58.58.804,HF_wild_card,2022.2.4,Win32,60.12506013,62c8576299ac324ce5e9a813,64d2fd46c836a06233681665,64dc7fd7757c7ab4466f0aa2,,,,,,,decisionTrl,resources/DP.BMP,resources/DG.BMP,Door2,-0.401851831,-0.046296296,1,0,0,0.9284,optionLeft,40,3490,2,21,0,21,0,1,,,,,,,,,,,,,,,,,,,,,,,,,,,,,,,,,,,,,,,
,,,,,,,,2023-08-16_08h58.58.804,HF_wild_card,2022.2.4,Win32,60.12506013,62c8576299ac324ce5e9a813,64d2fd46c836a06233681665,64dc7fd7757c7ab4466f0aa2,,,,,,,decisionTrl,resources/DP.BMP,resources/DR.BMP,Door2,-0.526851831,-0.062962956,1,0,0,2.6776,optionLeft,40,3530,2,22,0,22,0,1,,,,,,,,,,,,,,,,,,,,,,,,,,,,,,,,,,,,,,,
,,,,,,,,2023-08-16_08h58.58.804,HF_wild_card,2022.2.4,Win32,60.12506013,62c8576299ac324ce5e9a813,64d2fd46c836a06233681665,64dc7fd7757c7ab4466f0aa2,,,,,,,decisionTrl,resources/DG.BMP,resources/DBN.BMP,Door3,0.502777806,-0.029629637,1,0,0,0.942299999,optionRight,70,3600,2,23,0,23,0,1,,,,,,,,,,,,,,,,,,,,,,,,,,,,,,,,,,,,,,,
,,,,,,,,2023-08-16_08h58.58.804,HF_wild_card,2022.2.4,Win32,60.12506013,62c8576299ac324ce5e9a813,64d2fd46c836a06233681665,64dc7fd7757c7ab4466f0aa2,,,,,,,decisionTrl,resources/DB.BMP,resources/DBN.BMP,Door3,0.372222194,0.047222208,1,0,0,1.2385,optionRight,70,3670,2,24,0,24,0,1,,,,,,,,,,,,,,,,,,,,,,,,,,,,,,,,,,,,,,,
,,,,,,,,2023-08-16_08h58.58.804,HF_wild_card,2022.2.4,Win32,60.12506013,62c8576299ac324ce5e9a813,64d2fd46c836a06233681665,64dc7fd7757c7ab4466f0aa2,,,,,,,decisionTrl,resources/DBN.BMP,resources/DG.BMP,Door3,-0.337037016,0.012962942,1,0,0,1.1325,optionLeft,70,3740,2,25,0,25,0,1,,,,,,,,,,,,,,,,,,,,,,,,,,,,,,,,,,,,,,,
,,,,,,,,2023-08-16_08h58.58.804,HF_wild_card,2022.2.4,Win32,60.12506013,62c8576299ac324ce5e9a813,64d2fd46c836a06233681665,64dc7fd7757c7ab4466f0aa2,,,,,,,ctch,resources/DB.BMP,resources/DR.BMP,Door4,-0.359259252,-0.018518519,1,0,0,1.346299999,optionLeft,80,3820,2,26,0,26,0,1,,,,,,,,,,,,,,,,,,,,,,,,,,,,,,,,,,,,,,,
,,,,,,,,2023-08-16_08h58.58.804,HF_wild_card,2022.2.4,Win32,60.12506013,62c8576299ac324ce5e9a813,64d2fd46c836a06233681665,64dc7fd7757c7ab4466f0aa2,,,,,,,sngl,resources/Empty.png,resources/DR.BMP,Door1,0.320370427,0.023148148,1,0,0,0.945299999,optionRight,30,3850,2,27,0,27,0,1,,,,,,,,,,,,,,,,,,,,,,,,,,,,,,,,,,,,,,,
,,,,,,,,2023-08-16_08h58.58.804,HF_wild_card,2022.2.4,Win32,60.12506013,62c8576299ac324ce5e9a813,64d2fd46c836a06233681665,64dc7fd7757c7ab4466f0aa2,,,,,,,decisionTrl,resources/DR.BMP,resources/DP.BMP,Door2,0.52870376,-0.042592614,1,0,0,2.1324,optionRight,40,3890,2,28,0,28,0,1,,,,,,,,,,,,,,,,,,,,,,,,,,,,,,,,,,,,,,,
,,,,,,,,2023-08-16_08h58.58.804,HF_wild_card,2022.2.4,Win32,60.12506013,62c8576299ac324ce5e9a813,64d2fd46c836a06233681665,64dc7fd7757c7ab4466f0aa2,,,,,,,decisionTrl,resources/DB.BMP,resources/DBN.BMP,Door3,0.475926011,0.048148155,1,0,0,1.0685,optionRight,70,3960,2,29,0,29,0,1,,,,,,,,,,,,,,,,,,,,,,,,,,,,,,,,,,,,,,,
,,,,,,,,2023-08-16_08h58.58.804,HF_wild_card,2022.2.4,Win32,60.12506013,62c8576299ac324ce5e9a813,64d2fd46c836a06233681665,64dc7fd7757c7ab4466f0aa2,,,,,,,sngl,resources/DP.BMP,resources/Empty.png,Door2,-0.380555541,-0.0074074,1,0,0,0.9284,optionLeft,20,3980,2,30,0,30,0,1,,,,,,,,,,,,,,,,,,,,,,,,,,,,,,,,,,,,,,,
,,,,,,,,2023-08-16_08h58.58.804,HF_wild_card,2022.2.4,Win32,60.12506013,62c8576299ac324ce5e9a813,64d2fd46c836a06233681665,64dc7fd7757c7ab4466f0aa2,,,,,,,sngl,resources/DG.BMP,resources/Empty.png,WildCard_Ex,-0.353703711,-0.014814836,1,0,0,0.837200001,optionLeft,5,3985,2,31,0,31,0,1,,,,,,,,,,,,,,,,,,,,,,,,,,,,,,,,,,,,,,,
,,,,,,,,2023-08-16_08h58.58.804,HF_wild_card,2022.2.4,Win32,60.12506013,62c8576299ac324ce5e9a813,64d2fd46c836a06233681665,64dc7fd7757c7ab4466f0aa2,,,,,,,decisionTrl,resources/DB.BMP,resources/DBN.BMP,Door3,0.384259259,0.063888868,1,0,0,1.145200001,optionRight,70,4055,2,32,0,32,0,1,,,,,,,,,,,,,,,,,,,,,,,,,,,,,,,,,,,,,,,
,,,,,,,,2023-08-16_08h58.58.804,HF_wild_card,2022.2.4,Win32,60.12506013,62c8576299ac324ce5e9a813,64d2fd46c836a06233681665,64dc7fd7757c7ab4466f0aa2,,,,,,,decisionTrl,resources/DR.BMP,resources/DP.BMP,Door2,0.337962963,-0.028703725,1,0,0,2.028099998,optionRight,40,4095,2,33,0,33,0,1,,,,,,,,,,,,,,,,,,,,,,,,,,,,,,,,,,,,,,,
,,,,,,,,2023-08-16_08h58.58.804,HF_wild_card,2022.2.4,Win32,60.12506013,62c8576299ac324ce5e9a813,64d2fd46c836a06233681665,64dc7fd7757c7ab4466f0aa2,,,,,,,decisionTrl,resources/DR.BMP,resources/DP.BMP,Door2,0.307407379,0.01203703,1,0,0,1.045200001,optionRight,20,4115,2,34,0,34,0,1,,,,,,,,,,,,,,,,,,,,,,,,,,,,,,,,,,,,,,,
,,,,,,,,2023-08-16_08h58.58.804,HF_wild_card,2022.2.4,Win32,60.12506013,62c8576299ac324ce5e9a813,64d2fd46c836a06233681665,64dc7fd7757c7ab4466f0aa2,,,,,,,ctch,resources/DR.BMP,resources/DB.BMP,Door4,0.294444473,-0.018518519,1,0,0,1.6574,optionRight,60,4175,2,35,0,35,0,1,,,,,,,,,,,,,,,,,,,,,,,,,,,,,,,,,,,,,,,
,,,,,,,,2023-08-16_08h58.58.804,HF_wild_card,2022.2.4,Win32,60.12506013,62c8576299ac324ce5e9a813,64d2fd46c836a06233681665,64dc7fd7757c7ab4466f0aa2,,,,,,,sngl,resources/Empty.png,resources/DB.BMP,Door4,0.327777863,0.017592571,1,0,0,0.808300001,optionRight,80,4255,2,36,0,36,0,1,,,,,,,,,,,,,,,,,,,,,,,,,,,,,,,,,,,,,,,
,,,,,,,,2023-08-16_08h58.58.804,HF_wild_card,2022.2.4,Win32,60.12506013,62c8576299ac324ce5e9a813,64d2fd46c836a06233681665,64dc7fd7757c7ab4466f0aa2,,,,,,,ctch,resources/DR.BMP,resources/DB.BMP,Door4,0.436111168,0.015740748,1,0,0,0.688300001,optionRight,80,4335,2,37,0,37,0,1,,,,,,,,,,,,,,,,,,,,,,,,,,,,,,,,,,,,,,,
,,,,,,,,2023-08-16_08h58.58.804,HF_wild_card,2022.2.4,Win32,60.12506013,62c8576299ac324ce5e9a813,64d2fd46c836a06233681665,64dc7fd7757c7ab4466f0aa2,,,,,,,decisionTrl,resources/DBN.BMP,resources/DB.BMP,Door4,0.406481566,-0.019444466,1,0,0,1.572199999,optionRight,60,4395,2,38,0,38,0,1,,,,,,,,,,,,,,,,,,,,,,,,,,,,,,,,,,,,,,,
,,,,,,,,2023-08-16_08h58.58.804,HF_wild_card,2022.2.4,Win32,60.12506013,62c8576299ac324ce5e9a813,64d2fd46c836a06233681665,64dc7fd7757c7ab4466f0aa2,,,,,,,ctch,resources/DB.BMP,resources/DR.BMP,Door4,-0.432407414,-0.038888896,1,0,0,1.9589,optionLeft,60,4455,2,39,0,39,0,1,,,,,,,,,,,,,,,,,,,,,,,,,,,,,,,,,,,,,,,
,,,,,,,,2023-08-16_08h58.58.804,HF_wild_card,2022.2.4,Win32,60.12506013,62c8576299ac324ce5e9a813,64d2fd46c836a06233681665,64dc7fd7757c7ab4466f0aa2,,,,,,,decisionTrl,resources/DG.BMP,resources/DR.BMP,WildCard_Ex,-0.259259259,-0.026851866,1,0,0,2.471400002,optionLeft,95,4550,2,40,0,40,0,1,,,,,,,,,,,,,,,,,,,,,,,,,,,,,,,,,,,,,,,
,,,,,,,,2023-08-16_08h58.58.804,HF_wild_card,2022.2.4,Win32,60.12506013,62c8576299ac324ce5e9a813,64d2fd46c836a06233681665,64dc7fd7757c7ab4466f0aa2,,,,,,,ctch,resources/DBN.BMP,resources/DP.BMP,Door3,-0.349074081,0.001851859,1,0,0,1.019799999,optionLeft,70,4620,2,41,0,41,0,1,,,,,,,,,,,,,,,,,,,,,,,,,,,,,,,,,,,,,,,
,,,,,,,,2023-08-16_08h58.58.804,HF_wild_card,2022.2.4,Win32,60.12506013,62c8576299ac324ce5e9a813,64d2fd46c836a06233681665,64dc7fd7757c7ab4466f0aa2,,,,,,,decisionTrl,resources/DBN.BMP,resources/DB.BMP,Door3,-0.347222222,-0.042592614,1,0,0,0.8751,optionLeft,70,4690,2,42,0,42,0,1,,,,,,,,,,,,,,,,,,,,,,,,,,,,,,,,,,,,,,,
,,,,,,,,2023-08-16_08h58.58.804,HF_wild_card,2022.2.4,Win32,60.12506013,62c8576299ac324ce5e9a813,64d2fd46c836a06233681665,64dc7fd7757c7ab4466f0aa2,,,,,,,decisionTrl,resources/DBN.BMP,resources/DB.BMP,Door3,-0.353703711,-0.005555577,1,0,0,0.810599998,optionLeft,70,4760,2,43,0,43,0,1,,,,,,,,,,,,,,,,,,,,,,,,,,,,,,,,,,,,,,,
,,,,,,,,2023-08-16_08h58.58.804,HF_wild_card,2022.2.4,Win32,60.12506013,62c8576299ac324ce5e9a813,64d2fd46c836a06233681665,64dc7fd7757c7ab4466f0aa2,,,,,,,,,,,,,,,,,,,,,,,,,,1,0,1,0,1,,,,,,,,,,,,,,,,,,,,,,,,,,,,,,,,,,
,,,,,,,,2023-08-16_08h58.58.804,HF_wild_card,2022.2.4,Win32,60.12506013,62c8576299ac324ce5e9a813,64d2fd46c836a06233681665,64dc7fd7757c7ab4466f0aa2,,,,,,,decisionTrl,resources/DB.BMP,resources/DBN.BMP,Door3,0.291666667,0.02407406,1,0,0,1.659700001,optionRight,70,4830,3,0,0,0,0,1,,,,,,,,,,,,,,,,,,,,,,,,,,,,,,,,,,,,,,,
,,,,,,,,2023-08-16_08h58.58.804,HF_wild_card,2022.2.4,Win32,60.12506013,62c8576299ac324ce5e9a813,64d2fd46c836a06233681665,64dc7fd7757c7ab4466f0aa2,,,,,,,sngl,resources/Empty.png,resources/DR.BMP,Door1,0.369444529,-0.009259259,1,0,0,1.076,optionRight,30,4860,3,1,0,1,0,1,,,,,,,,,,,,,,,,,,,,,,,,,,,,,,,,,,,,,,,
,,,,,,,,2023-08-16_08h58.58.804,HF_wild_card,2022.2.4,Win32,60.12506013,62c8576299ac324ce5e9a813,64d2fd46c836a06233681665,64dc7fd7757c7ab4466f0aa2,,,,,,,sngl,resources/Empty.png,resources/DB.BMP,Door4,0.425000085,0.023148148,1,0,0,0.796299999,optionRight,60,4920,3,2,0,2,0,1,,,,,,,,,,,,,,,,,,,,,,,,,,,,,,,,,,,,,,,
,,,,,,,,2023-08-16_08h58.58.804,HF_wild_card,2022.2.4,Win32,60.12506013,62c8576299ac324ce5e9a813,64d2fd46c836a06233681665,64dc7fd7757c7ab4466f0aa2,,,,,,,sngl,resources/DG.BMP,resources/Empty.png,WildCard_Ex,-0.320370356,-0.075000021,1,0,0,1.080300001,optionLeft,95,5015,3,3,0,3,0,1,,,,,,,,,,,,,,,,,,,,,,,,,,,,,,,,,,,,,,,
,,,,,,,,2023-08-16_08h58.58.804,HF_wild_card,2022.2.4,Win32,60.12506013,62c8576299ac324ce5e9a813,64d2fd46c836a06233681665,64dc7fd7757c7ab4466f0aa2,,,,,,,ctch,resources/DR.BMP,resources/DB.BMP,Door4,0.40833339,-0.054629644,1,0,0,1.963200001,optionRight,80,5095,3,4,0,4,0,1,,,,,,,,,,,,,,,,,,,,,,,,,,,,,,,,,,,,,,,
,,,,,,,,2023-08-16_08h58.58.804,HF_wild_card,2022.2.4,Win32,60.12506013,62c8576299ac324ce5e9a813,64d2fd46c836a06233681665,64dc7fd7757c7ab4466f0aa2,,,,,,,decisionTrl,resources/DG.BMP,resources/DB.BMP,WildCard_Ex,-0.464814822,0.034259266,1,0,0,1.7749,optionLeft,95,5190,3,5,0,5,0,1,,,,,,,,,,,,,,,,,,,,,,,,,,,,,,,,,,,,,,,
,,,,,,,,2023-08-16_08h58.58.804,HF_wild_card,2022.2.4,Win32,60.12506013,62c8576299ac324ce5e9a813,64d2fd46c836a06233681665,64dc7fd7757c7ab4466f0aa2,,,,,,,decisionTrl,resources/DG.BMP,resources/DBN.BMP,WildCard_Ex,-0.291666667,0.012962942,1,0,0,0.951300001,optionLeft,95,5285,3,6,0,6,0,1,,,,,,,,,,,,,,,,,,,,,,,,,,,,,,,,,,,,,,,
,,,,,,,,2023-08-16_08h58.58.804,HF_wild_card,2022.2.4,Win32,60.12506013,62c8576299ac324ce5e9a813,64d2fd46c836a06233681665,64dc7fd7757c7ab4466f0aa2,,,,,,,decisionTrl,resources/DP.BMP,resources/DR.BMP,Door2,-0.418518526,-0.050925926,1,0,0,2.191299999,optionLeft,20,5305,3,7,0,7,0,1,,,,,,,,,,,,,,,,,,,,,,,,,,,,,,,,,,,,,,,
,,,,,,,,2023-08-16_08h58.58.804,HF_wild_card,2022.2.4,Win32,60.12506013,62c8576299ac324ce5e9a813,64d2fd46c836a06233681665,64dc7fd7757c7ab4466f0aa2,,,,,,,decisionTrl,resources/DP.BMP,resources/DG.BMP,WildCard_Ex,0.348148205,-0.012962977,1,0,0,1.613300001,optionRight,5,5310,3,8,0,8,0,1,,,,,,,,,,,,,,,,,,,,,,,,,,,,,,,,,,,,,,,
,,,,,,,,2023-08-16_08h58.58.804,HF_wild_card,2022.2.4,Win32,60.12506013,62c8576299ac324ce5e9a813,64d2fd46c836a06233681665,64dc7fd7757c7ab4466f0aa2,,,,,,,ctch,resources/DP.BMP,resources/DBN.BMP,Door3,0.37037037,0.058333326,1,0,0,1.9464,optionRight,70,5380,3,9,0,9,0,1,,,,,,,,,,,,,,,,,,,,,,,,,,,,,,,,,,,,,,,
,,,,,,,,2023-08-16_08h58.58.804,HF_wild_card,2022.2.4,Win32,60.12506013,62c8576299ac324ce5e9a813,64d2fd46c836a06233681665,64dc7fd7757c7ab4466f0aa2,,,,,,,ctch,resources/DB.BMP,resources/DR.BMP,Door4,-0.317592586,-0.026851866,1,0,0,1.5764,optionLeft,80,5460,3,10,0,10,0,1,,,,,,,,,,,,,,,,,,,,,,,,,,,,,,,,,,,,,,,
,,,,,,,,2023-08-16_08h58.58.804,HF_wild_card,2022.2.4,Win32,60.12506013,62c8576299ac324ce5e9a813,64d2fd46c836a06233681665,64dc7fd7757c7ab4466f0aa2,,,,,,,decisionTrl,resources/DR.BMP,resources/DP.BMP,Door2,0.247222265,-0.058333326,1,0,0,2.119299999,optionRight,40,5500,3,11,0,11,0,1,,,,,,,,,,,,,,,,,,,,,,,,,,,,,,,,,,,,,,,
,,,,,,,,2023-08-16_08h58.58.804,HF_wild_card,2022.2.4,Win32,60.12506013,62c8576299ac324ce5e9a813,64d2fd46c836a06233681665,64dc7fd7757c7ab4466f0aa2,,,,,,,sngl,resources/DB.BMP,resources/Empty.png,Door4,-0.355555534,0.032407407,1,0,0,0.8459,optionLeft,80,5580,3,12,0,12,0,1,,,,,,,,,,,,,,,,,,,,,,,,,,,,,,,,,,,,,,,
,,,,,,,,2023-08-16_08h58.58.804,HF_wild_card,2022.2.4,Win32,60.12506013,62c8576299ac324ce5e9a813,64d2fd46c836a06233681665,64dc7fd7757c7ab4466f0aa2,,,,,,,decisionTrl,resources/DB.BMP,resources/DG.BMP,Door4,-0.328703704,-0.010185206,1,0,0,1.057700001,optionLeft,60,5640,3,13,0,13,0,1,,,,,,,,,,,,,,,,,,,,,,,,,,,,,,,,,,,,,,,
,,,,,,,,2023-08-16_08h58.58.804,HF_wild_card,2022.2.4,Win32,60.12506013,62c8576299ac324ce5e9a813,64d2fd46c836a06233681665,64dc7fd7757c7ab4466f0aa2,,,,,,,decisionTrl,resources/DP.BMP,resources/DR.BMP,Door2,-0.305555556,0.010185171,1,0,0,0.913,optionLeft,20,5660,3,14,0,14,0,1,,,,,,,,,,,,,,,,,,,,,,,,,,,,,,,,,,,,,,,
,,,,,,,,2023-08-16_08h58.58.804,HF_wild_card,2022.2.4,Win32,60.12506013,62c8576299ac324ce5e9a813,64d2fd46c836a06233681665,64dc7fd7757c7ab4466f0aa2,,,,,,,ctch,resources/DBN.BMP,resources/DP.BMP,Door3,-0.372222229,0.050925926,1,0,0,0.8359,optionLeft,70,5730,3,15,0,15,0,1,,,,,,,,,,,,,,,,,,,,,,,,,,,,,,,,,,,,,,,
,,,,,,,,2023-08-16_08h58.58.804,HF_wild_card,2022.2.4,Win32,60.12506013,62c8576299ac324ce5e9a813,64d2fd46c836a06233681665,64dc7fd7757c7ab4466f0aa2,,,,,,,decisionTrl,resources/DBN.BMP,resources/DB.BMP,Door3,-0.363888882,0.037962949,1,0,0,0.762700001,optionLeft,70,5800,3,16,0,16,0,1,,,,,,,,,,,,,,,,,,,,,,,,,,,,,,,,,,,,,,,
,,,,,,,,2023-08-16_08h58.58.804,HF_wild_card,2022.2.4,Win32,60.12506013,62c8576299ac324ce5e9a813,64d2fd46c836a06233681665,64dc7fd7757c7ab4466f0aa2,,,,,,,decisionTrl,resources/DR.BMP,resources/DP.BMP,Door2,0.338888945,0.037037037,1,0,0,1.773199999,optionRight,20,5820,3,17,0,17,0,1,,,,,,,,,,,,,,,,,,,,,,,,,,,,,,,,,,,,,,,
,,,,,,,,2023-08-16_08h58.58.804,HF_wild_card,2022.2.4,Win32,60.12506013,62c8576299ac324ce5e9a813,64d2fd46c836a06233681665,64dc7fd7757c7ab4466f0aa2,,,,,,,decisionTrl,resources/DBN.BMP,resources/DG.BMP,Door3,-0.333333333,0.030555548,1,0,0,0.773200001,optionLeft,70,5890,3,18,0,18,0,1,,,,,,,,,,,,,,,,,,,,,,,,,,,,,,,,,,,,,,,
,,,,,,,,2023-08-16_08h58.58.804,HF_wild_card,2022.2.4,Win32,60.12506013,62c8576299ac324ce5e9a813,64d2fd46c836a06233681665,64dc7fd7757c7ab4466f0aa2,,,,,,,ctch,resources/DP.BMP,resources/DBN.BMP,Door3,0.264814801,0.133333312,1,0,0,1.0839,optionRight,70,5960,3,19,0,19,0,1,,,,,,,,,,,,,,,,,,,,,,,,,,,,,,,,,,,,,,,
,,,,,,,,2023-08-16_08h58.58.804,HF_wild_card,2022.2.4,Win32,60.12506013,62c8576299ac324ce5e9a813,64d2fd46c836a06233681665,64dc7fd7757c7ab4466f0aa2,,,,,,,decisionTrl,resources/DBN.BMP,resources/DB.BMP,Door3,-0.389814801,0,1,0,0,0.912299999,optionLeft,70,6030,3,20,0,20,0,1,,,,,,,,,,,,,,,,,,,,,,,,,,,,,,,,,,,,,,,
,,,,,,,,2023-08-16_08h58.58.804,HF_wild_card,2022.2.4,Win32,60.12506013,62c8576299ac324ce5e9a813,64d2fd46c836a06233681665,64dc7fd7757c7ab4466f0aa2,,,,,,,decisionTrl,resources/DP.BMP,resources/DR.BMP,Door2,-0.315740727,-0.049074067,1,0,0,1.7414,optionLeft,20,6050,3,21,0,21,0,1,,,,,,,,,,,,,,,,,,,,,,,,,,,,,,,,,,,,,,,
,,,,,,,,2023-08-16_08h58.58.804,HF_wild_card,2022.2.4,Win32,60.12506013,62c8576299ac324ce5e9a813,64d2fd46c836a06233681665,64dc7fd7757c7ab4466f0aa2,,,,,,,sngl,resources/DG.BMP,resources/Empty.png,WildCard_Ex,-0.440740727,0.000925912,1,0,0,0.909799999,optionLeft,5,6055,3,22,0,22,0,1,,,,,,,,,,,,,,,,,,,,,,,,,,,,,,,,,,,,,,,
,,,,,,,,2023-08-16_08h58.58.804,HF_wild_card,2022.2.4,Win32,60.12506013,62c8576299ac324ce5e9a813,64d2fd46c836a06233681665,64dc7fd7757c7ab4466f0aa2,,,,,,,decisionTrl,resources/DBN.BMP,resources/DB.BMP,Door3,-0.428703697,0.058333326,1,0,0,0.998699999,optionLeft,70,6125,3,23,0,23,0,1,,,,,,,,,,,,,,,,,,,,,,,,,,,,,,,,,,,,,,,
,,,,,,,,2023-08-16_08h58.58.804,HF_wild_card,2022.2.4,Win32,60.12506013,62c8576299ac324ce5e9a813,64d2fd46c836a06233681665,64dc7fd7757c7ab4466f0aa2,,,,,,,ctch,resources/DBN.BMP,resources/DP.BMP,Door3,-0.383333312,0.063888868,1,0,0,0.879200001,optionLeft,70,6195,3,24,0,24,0,1,,,,,,,,,,,,,,,,,,,,,,,,,,,,,,,,,,,,,,,
,,,,,,,,2023-08-16_08h58.58.804,HF_wild_card,2022.2.4,Win32,60.12506013,62c8576299ac324ce5e9a813,64d2fd46c836a06233681665,64dc7fd7757c7ab4466f0aa2,,,,,,,decisionTrl,resources/DR.BMP,resources/DP.BMP,Door2,0.349074046,-0.021296289,1,0,0,1.743299999,optionRight,40,6235,3,25,0,25,0,1,,,,,,,,,,,,,,,,,,,,,,,,,,,,,,,,,,,,,,,
,,,,,,,,2023-08-16_08h58.58.804,HF_wild_card,2022.2.4,Win32,60.12506013,62c8576299ac324ce5e9a813,64d2fd46c836a06233681665,64dc7fd7757c7ab4466f0aa2,,,,,,,ctch,resources/DR.BMP,resources/DB.BMP,Door1,-0.288888861,0.025000007,1,0,0,0.8036,optionLeft,30,6265,3,26,0,26,0,1,,,,,,,,,,,,,,,,,,,,,,,,,,,,,,,,,,,,,,,
,,,,,,,,2023-08-16_08h58.58.804,HF_wild_card,2022.2.4,Win32,60.12506013,62c8576299ac324ce5e9a813,64d2fd46c836a06233681665,64dc7fd7757c7ab4466f0aa2,,,,,,,sngl,resources/Empty.png,resources/DBN.BMP,Door3,0.426851908,0.074074074,1,0,0,0.996700001,optionRight,70,6335,3,27,0,27,0,1,,,,,,,,,,,,,,,,,,,,,,,,,,,,,,,,,,,,,,,
,,,,,,,,2023-08-16_08h58.58.804,HF_wild_card,2022.2.4,Win32,60.12506013,62c8576299ac324ce5e9a813,64d2fd46c836a06233681665,64dc7fd7757c7ab4466f0aa2,,,,,,,sngl,resources/Empty.png,resources/DG.BMP,WildCard_Ex,0.35555564,0.001851859,1,0,0,0.942700001,optionRight,95,6430,3,28,0,28,0,1,,,,,,,,,,,,,,,,,,,,,,,,,,,,,,,,,,,,,,,
,,,,,,,,2023-08-16_08h58.58.804,HF_wild_card,2022.2.4,Win32,60.12506013,62c8576299ac324ce5e9a813,64d2fd46c836a06233681665,64dc7fd7757c7ab4466f0aa2,,,,,,,decisionTrl,resources/DB.BMP,resources/DBN.BMP,Door3,0.356481481,0.060185185,1,0,0,1.1416,optionRight,70,6500,3,29,0,29,0,1,,,,,,,,,,,,,,,,,,,,,,,,,,,,,,,,,,,,,,,
,,,,,,,,2023-08-16_08h58.58.804,HF_wild_card,2022.2.4,Win32,60.12506013,62c8576299ac324ce5e9a813,64d2fd46c836a06233681665,64dc7fd7757c7ab4466f0aa2,,,,,,,decisionTrl,resources/DB.BMP,resources/DBN.BMP,Door3,0.293518561,0.075925933,1,0,0,0.839799999,optionRight,70,6570,3,30,0,30,0,1,,,,,,,,,,,,,,,,,,,,,,,,,,,,,,,,,,,,,,,
,,,,,,,,2023-08-16_08h58.58.804,HF_wild_card,2022.2.4,Win32,60.12506013,62c8576299ac324ce5e9a813,64d2fd46c836a06233681665,64dc7fd7757c7ab4466f0aa2,,,,,,,decisionTrl,resources/DG.BMP,resources/DR.BMP,WildCard_Ex,-0.324999986,-0.064814815,1,0,0,1.529199999,optionLeft,5,6575,3,31,0,31,0,1,,,,,,,,,,,,,,,,,,,,,,,,,,,,,,,,,,,,,,,
,,,,,,,,2023-08-16_08h58.58.804,HF_wild_card,2022.2.4,Win32,60.12506013,62c8576299ac324ce5e9a813,64d2fd46c836a06233681665,64dc7fd7757c7ab4466f0aa2,,,,,,,decisionTrl,resources/DB.BMP,resources/DBN.BMP,Door3,0.393518519,0.200925933,1,0,0,0.877599998,optionRight,70,6645,3,32,0,32,0,1,,,,,,,,,,,,,,,,,,,,,,,,,,,,,,,,,,,,,,,
,,,,,,,,2023-08-16_08h58.58.804,HF_wild_card,2022.2.4,Win32,60.12506013,62c8576299ac324ce5e9a813,64d2fd46c836a06233681665,64dc7fd7757c7ab4466f0aa2,,,,,,,ctch,resources/DB.BMP,resources/DR.BMP,Door4,-0.362037023,-0.039814808,1,0,0,0.845200001,optionLeft,80,6725,3,33,0,33,0,1,,,,,,,,,,,,,,,,,,,,,,,,,,,,,,,,,,,,,,,
,,,,,,,,2023-08-16_08h58.58.804,HF_wild_card,2022.2.4,Win32,60.12506013,62c8576299ac324ce5e9a813,64d2fd46c836a06233681665,64dc7fd7757c7ab4466f0aa2,,,,,,,decisionTrl,resources/DG.BMP,resources/DP.BMP,WildCard_Ex,-0.314814815,-0.035185178,1,0,0,1.959199999,optionLeft,95,6820,3,34,0,34,0,1,,,,,,,,,,,,,,,,,,,,,,,,,,,,,,,,,,,,,,,
,,,,,,,,2023-08-16_08h58.58.804,HF_wild_card,2022.2.4,Win32,60.12506013,62c8576299ac324ce5e9a813,64d2fd46c836a06233681665,64dc7fd7757c7ab4466f0aa2,,,,,,,decisionTrl,resources/DR.BMP,resources/DP.BMP,Door2,0.363888917,-0.026851866,1,0,0,2.8976,optionRight,20,6840,3,35,0,35,0,1,,,,,,,,,,,,,,,,,,,,,,,,,,,,,,,,,,,,,,,
,,,,,,,,2023-08-16_08h58.58.804,HF_wild_card,2022.2.4,Win32,60.12506013,62c8576299ac324ce5e9a813,64d2fd46c836a06233681665,64dc7fd7757c7ab4466f0aa2,,,,,,,sngl,resources/DP.BMP,resources/Empty.png,Door2,-0.374074053,-0.100000028,1,0,0,0.757300001,optionLeft,40,6880,3,36,0,36,0,1,,,,,,,,,,,,,,,,,,,,,,,,,,,,,,,,,,,,,,,
,,,,,,,,2023-08-16_08h58.58.804,HF_wild_card,2022.2.4,Win32,60.12506013,62c8576299ac324ce5e9a813,64d2fd46c836a06233681665,64dc7fd7757c7ab4466f0aa2,,,,,,,decisionTrl,resources/DR.BMP,resources/DG.BMP,WildCard_Ex,0.37037037,0.042592578,1,0,0,1.307699999,optionRight,5,6885,3,37,0,37,0,1,,,,,,,,,,,,,,,,,,,,,,,,,,,,,,,,,,,,,,,
,,,,,,,,2023-08-16_08h58.58.804,HF_wild_card,2022.2.4,Win32,60.12506013,62c8576299ac324ce5e9a813,64d2fd46c836a06233681665,64dc7fd7757c7ab4466f0aa2,,,,,,,sngl,resources/Empty.png,resources/DG.BMP,WildCard_Ex,0.332407492,0.098148134,1,0,0,0.914,optionRight,5,6890,3,38,0,38,0,1,,,,,,,,,,,,,,,,,,,,,,,,,,,,,,,,,,,,,,,
,,,,,,,,2023-08-16_08h58.58.804,HF_wild_card,2022.2.4,Win32,60.12506013,62c8576299ac324ce5e9a813,64d2fd46c836a06233681665,64dc7fd7757c7ab4466f0aa2,,,,,,,sngl,resources/Empty.png,resources/DP.BMP,Door2,0.394444501,-0.028703725,1,0,0,0.9629,optionRight,20,6910,3,39,0,39,0,1,,,,,,,,,,,,,,,,,,,,,,,,,,,,,,,,,,,,,,,
,,,,,,,,2023-08-16_08h58.58.804,HF_wild_card,2022.2.4,Win32,60.12506013,62c8576299ac324ce5e9a813,64d2fd46c836a06233681665,64dc7fd7757c7ab4466f0aa2,,,,,,,decisionTrl,resources/DBN.BMP,resources/DB.BMP,Door3,-0.40370369,-0.034259266,1,0,0,1.023900002,optionLeft,70,6980,3,40,0,40,0,1,,,,,,,,,,,,,,,,,,,,,,,,,,,,,,,,,,,,,,,
,,,,,,,,2023-08-16_08h58.58.804,HF_wild_card,2022.2.4,Win32,60.12506013,62c8576299ac324ce5e9a813,64d2fd46c836a06233681665,64dc7fd7757c7ab4466f0aa2,,,,,,,sngl,resources/DR.BMP,resources/Empty.png,Door1,-0.375,-0.058333326,1,0,0,0.875700001,optionLeft,30,7010,3,41,0,41,0,1,,,,,,,,,,,,,,,,,,,,,,,,,,,,,,,,,,,,,,,
,,,,,,,,2023-08-16_08h58.58.804,HF_wild_card,2022.2.4,Win32,60.12506013,62c8576299ac324ce5e9a813,64d2fd46c836a06233681665,64dc7fd7757c7ab4466f0aa2,,,,,,,sngl,resources/DBN.BMP,resources/Empty.png,Door3,-0.327777757,-0.035185178,1,0,0,0.832299999,optionLeft,70,7080,3,42,0,42,0,1,,,,,,,,,,,,,,,,,,,,,,,,,,,,,,,,,,,,,,,
,,,,,,,,2023-08-16_08h58.58.804,HF_wild_card,2022.2.4,Win32,60.12506013,62c8576299ac324ce5e9a813,64d2fd46c836a06233681665,64dc7fd7757c7ab4466f0aa2,,,,,,,decisionTrl,resources/DP.BMP,resources/DR.BMP,Door2,-0.338888875,-0.062037044,1,0,0,4.6434,optionLeft,40,7120,3,43,0,43,0,1,,,,,,,,,,,,,,,,,,,,,,,,,,,,,,,,,,,,,,,
,,,,,,,,2023-08-16_08h58.58.804,HF_wild_card,2022.2.4,Win32,60.12506013,62c8576299ac324ce5e9a813,64d2fd46c836a06233681665,64dc7fd7757c7ab4466f0aa2,,,,,,,,,,,,,,,,,,,,,,,,,,2,0,2,0,1,,,,,,,,,,,,,,,,,,,,,,,,,,,,,,,,,,
,,,,,,,,2023-08-16_08h58.58.804,HF_wild_card,2022.2.4,Win32,60.12506013,62c8576299ac324ce5e9a813,64d2fd46c836a06233681665,64dc7fd7757c7ab4466f0aa2,,,,,,,decisionTrl,resources/DP.BMP,resources/DR.BMP,Door1,0.338888945,-0.001851859,1,0,0,2.723700001,optionRight,30,7150,4,0,0,0,0,1,,,,,,,,,,,,,,,,,,,,,,,,,,,,,,,,,,,,,,,
,,,,,,,,2023-08-16_08h58.58.804,HF_wild_card,2022.2.4,Win32,60.12506013,62c8576299ac324ce5e9a813,64d2fd46c836a06233681665,64dc7fd7757c7ab4466f0aa2,,,,,,,decisionTrl,resources/DBN.BMP,resources/DB.BMP,Door4,0.246296282,0.02407406,1,0,0,1.3924,optionRight,80,7230,4,1,0,1,0,1,,,,,,,,,,,,,,,,,,,,,,,,,,,,,,,,,,,,,,,
,,,,,,,,2023-08-16_08h58.58.804,HF_wild_card,2022.2.4,Win32,60.12506013,62c8576299ac324ce5e9a813,64d2fd46c836a06233681665,64dc7fd7757c7ab4466f0aa2,,,,,,,ctch,resources/DB.BMP,resources/DR.BMP,Door4,-0.252777735,-0.025925919,1,0,0,1.159800001,optionLeft,60,7290,4,2,0,2,0,1,,,,,,,,,,,,,,,,,,,,,,,,,,,,,,,,,,,,,,,
,,,,,,,,2023-08-16_08h58.58.804,HF_wild_card,2022.2.4,Win32,60.12506013,62c8576299ac324ce5e9a813,64d2fd46c836a06233681665,64dc7fd7757c7ab4466f0aa2,,,,,,,sngl,resources/DY.BMP,resources/Empty.png,WildCard_NonEx,-0.315740727,-0.050925926,1,0,0,1.3261,optionLeft,55,7345,4,3,0,3,0,1,,,,,,,,,,,,,,,,,,,,,,,,,,,,,,,,,,,,,,,
,,,,,,,,2023-08-16_08h58.58.804,HF_wild_card,2022.2.4,Win32,60.12506013,62c8576299ac324ce5e9a813,64d2fd46c836a06233681665,64dc7fd7757c7ab4466f0aa2,,,,,,,decisionTrl,resources/DP.BMP,resources/DR.BMP,Door2,-0.329629616,-0.057407414,1,0,0,1.659799999,optionLeft,20,7365,4,4,0,4,0,1,,,,,,,,,,,,,,,,,,,,,,,,,,,,,,,,,,,,,,,
,,,,,,,,2023-08-16_08h58.58.804,HF_wild_card,2022.2.4,Win32,60.12506013,62c8576299ac324ce5e9a813,64d2fd46c836a06233681665,64dc7fd7757c7ab4466f0aa2,,,,,,,decisionTrl,resources/DP.BMP,resources/DR.BMP,Door1,0.389814871,-0.025925919,1,0,0,1.381200001,optionRight,30,7395,4,5,0,5,0,1,,,,,,,,,,,,,,,,,,,,,,,,,,,,,,,,,,,,,,,
,,,,,,,,2023-08-16_08h58.58.804,HF_wild_card,2022.2.4,Win32,60.12506013,62c8576299ac324ce5e9a813,64d2fd46c836a06233681665,64dc7fd7757c7ab4466f0aa2,,,,,,,decisionTrl,resources/DY.BMP,resources/DR.BMP,WildCard_NonEx,-0.351851852,-0.040740755,1,0,0,0.964200001,optionLeft,55,7450,4,6,0,6,0,1,,,,,,,,,,,,,,,,,,,,,,,,,,,,,,,,,,,,,,,
,,,,,,,,2023-08-16_08h58.58.804,HF_wild_card,2022.2.4,Win32,60.12506013,62c8576299ac324ce5e9a813,64d2fd46c836a06233681665,64dc7fd7757c7ab4466f0aa2,,,,,,,sngl,resources/Empty.png,resources/DB.BMP,Door4,0.32685188,-0.051851873,1,0,0,0.896,optionRight,80,7530,4,7,0,7,0,1,,,,,,,,,,,,,,,,,,,,,,,,,,,,,,,,,,,,,,,
,,,,,,,,2023-08-16_08h58.58.804,HF_wild_card,2022.2.4,Win32,60.12506013,62c8576299ac324ce5e9a813,64d2fd46c836a06233681665,64dc7fd7757c7ab4466f0aa2,,,,,,,decisionTrl,resources/DB.BMP,resources/DBN.BMP,Door4,-0.369444423,-0.026851866,1,0,0,0.824099998,optionLeft,60,7590,4,8,0,8,0,1,,,,,,,,,,,,,,,,,,,,,,,,,,,,,,,,,,,,,,,
,,,,,,,,2023-08-16_08h58.58.804,HF_wild_card,2022.2.4,Win32,60.12506013,62c8576299ac324ce5e9a813,64d2fd46c836a06233681665,64dc7fd7757c7ab4466f0aa2,,,,,,,decisionTrl,resources/DY.BMP,resources/DBN.BMP,WildCard_NonEx,-0.261111083,-0.010185206,1,0,0,1.0981,optionLeft,55,7645,4,9,0,9,0,1,,,,,,,,,,,,,,,,,,,,,,,,,,,,,,,,,,,,,,,
,,,,,,,,2023-08-16_08h58.58.804,HF_wild_card,2022.2.4,Win32,60.12506013,62c8576299ac324ce5e9a813,64d2fd46c836a06233681665,64dc7fd7757c7ab4466f0aa2,,,,,,,decisionTrl,resources/DY.BMP,resources/DB.BMP,Door4,0.385185242,-0.026851866,1,0,0,1.9976,optionRight,60,7705,4,10,0,10,0,1,,,,,,,,,,,,,,,,,,,,,,,,,,,,,,,,,,,,,,,
,,,,,,,,2023-08-16_08h58.58.804,HF_wild_card,2022.2.4,Win32,60.12506013,62c8576299ac324ce5e9a813,64d2fd46c836a06233681665,64dc7fd7757c7ab4466f0aa2,,,,,,,decisionTrl,resources/DBN.BMP,resources/DY.BMP,Door3,-0.37962963,0.012962942,1,0,0,0.9921,optionLeft,70,7775,4,11,0,11,0,1,,,,,,,,,,,,,,,,,,,,,,,,,,,,,,,,,,,,,,,
,,,,,,,,2023-08-16_08h58.58.804,HF_wild_card,2022.2.4,Win32,60.12506013,62c8576299ac324ce5e9a813,64d2fd46c836a06233681665,64dc7fd7757c7ab4466f0aa2,,,,,,,ctch,resources/DB.BMP,resources/DR.BMP,Door4,-0.280555513,-0.065740762,1,0,0,1.289800001,optionLeft,60,7835,4,12,0,12,0,1,,,,,,,,,,,,,,,,,,,,,,,,,,,,,,,,,,,,,,,
,,,,,,,,2023-08-16_08h58.58.804,HF_wild_card,2022.2.4,Win32,60.12506013,62c8576299ac324ce5e9a813,64d2fd46c836a06233681665,64dc7fd7757c7ab4466f0aa2,,,,,,,decisionTrl,resources/DB.BMP,resources/DBN.BMP,Door3,0.347222222,0.030555548,1,0,0,1.346299999,optionRight,70,7905,4,13,0,13,0,1,,,,,,,,,,,,,,,,,,,,,,,,,,,,,,,,,,,,,,,
,,,,,,,,2023-08-16_08h58.58.804,HF_wild_card,2022.2.4,Win32,60.12506013,62c8576299ac324ce5e9a813,64d2fd46c836a06233681665,64dc7fd7757c7ab4466f0aa2,,,,,,,sngl,resources/DB.BMP,resources/Empty.png,Door4,-0.369444423,-0.047222243,1,0,0,0.8464,optionLeft,60,7965,4,14,0,14,0,1,,,,,,,,,,,,,,,,,,,,,,,,,,,,,,,,,,,,,,,
,,,,,,,,2023-08-16_08h58.58.804,HF_wild_card,2022.2.4,Win32,60.12506013,62c8576299ac324ce5e9a813,64d2fd46c836a06233681665,64dc7fd7757c7ab4466f0aa2,,,,,,,decisionTrl,resources/DP.BMP,resources/DY.BMP,WildCard_NonEx,0.339814787,0.008333312,1,0,0,2.211800001,optionRight,45,8010,4,15,0,15,0,1,,,,,,,,,,,,,,,,,,,,,,,,,,,,,,,,,,,,,,,
,,,,,,,,2023-08-16_08h58.58.804,HF_wild_card,2022.2.4,Win32,60.12506013,62c8576299ac324ce5e9a813,64d2fd46c836a06233681665,64dc7fd7757c7ab4466f0aa2,,,,,,,sngl,resources/Empty.png,resources/DY.BMP,WildCard_NonEx,0.361111111,-0.040740755,1,0,0,0.9204,optionRight,55,8065,4,16,0,16,0,1,,,,,,,,,,,,,,,,,,,,,,,,,,,,,,,,,,,,,,,
,,,,,,,,2023-08-16_08h58.58.804,HF_wild_card,2022.2.4,Win32,60.12506013,62c8576299ac324ce5e9a813,64d2fd46c836a06233681665,64dc7fd7757c7ab4466f0aa2,,,,,,,decisionTrl,resources/DR.BMP,resources/DP.BMP,Door2,0.286111125,-0.002777771,1,0,0,1.430299999,optionRight,40,8105,4,17,0,17,0,1,,,,,,,,,,,,,,,,,,,,,,,,,,,,,,,,,,,,,,,
,,,,,,,,2023-08-16_08h58.58.804,HF_wild_card,2022.2.4,Win32,60.12506013,62c8576299ac324ce5e9a813,64d2fd46c836a06233681665,64dc7fd7757c7ab4466f0aa2,,,,,,,ctch,resources/DP.BMP,resources/DBN.BMP,Door3,0.340740769,0.035185178,1,0,0,0.9151,optionRight,70,8175,4,18,0,18,0,1,,,,,,,,,,,,,,,,,,,,,,,,,,,,,,,,,,,,,,,
,,,,,,,,2023-08-16_08h58.58.804,HF_wild_card,2022.2.4,Win32,60.12506013,62c8576299ac324ce5e9a813,64d2fd46c836a06233681665,64dc7fd7757c7ab4466f0aa2,,,,,,,decisionTrl,resources/DB.BMP,resources/DY.BMP,Door4,-0.19259255,0.006481489,1,0,0,1.486,optionLeft,60,8235,4,19,0,19,0,1,,,,,,,,,,,,,,,,,,,,,,,,,,,,,,,,,,,,,,,
,,,,,,,,2023-08-16_08h58.58.804,HF_wild_card,2022.2.4,Win32,60.12506013,62c8576299ac324ce5e9a813,64d2fd46c836a06233681665,64dc7fd7757c7ab4466f0aa2,,,,,,,decisionTrl,resources/DY.BMP,resources/DP.BMP,Door2,0.24537037,-0.040740755,1,0,0,1.715299999,optionRight,40,8275,4,20,0,20,0,1,,,,,,,,,,,,,,,,,,,,,,,,,,,,,,,,,,,,,,,
,,,,,,,,2023-08-16_08h58.58.804,HF_wild_card,2022.2.4,Win32,60.12506013,62c8576299ac324ce5e9a813,64d2fd46c836a06233681665,64dc7fd7757c7ab4466f0aa2,,,,,,,decisionTrl,resources/DR.BMP,resources/DP.BMP,Door2,0.317592621,-0.023148148,1,0,0,1.198700001,optionRight,40,8315,4,21,0,21,0,1,,,,,,,,,,,,,,,,,,,,,,,,,,,,,,,,,,,,,,,
,,,,,,,,2023-08-16_08h58.58.804,HF_wild_card,2022.2.4,Win32,60.12506013,62c8576299ac324ce5e9a813,64d2fd46c836a06233681665,64dc7fd7757c7ab4466f0aa2,,,,,,,sngl,resources/DY.BMP,resources/Empty.png,WildCard_NonEx,-0.3824074,-0.019444466,1,0,0,0.8739,optionLeft,45,8360,4,22,0,22,0,1,,,,,,,,,,,,,,,,,,,,,,,,,,,,,,,,,,,,,,,
,,,,,,,,2023-08-16_08h58.58.804,HF_wild_card,2022.2.4,Win32,60.12506013,62c8576299ac324ce5e9a813,64d2fd46c836a06233681665,64dc7fd7757c7ab4466f0aa2,,,,,,,decisionTrl,resources/DR.BMP,resources/DP.BMP,Door2,0.276851866,-0.047222243,1,0,0,2.1444,optionRight,20,8380,4,23,0,23,0,1,,,,,,,,,,,,,,,,,,,,,,,,,,,,,,,,,,,,,,,
,,,,,,,,2023-08-16_08h58.58.804,HF_wild_card,2022.2.4,Win32,60.12506013,62c8576299ac324ce5e9a813,64d2fd46c836a06233681665,64dc7fd7757c7ab4466f0aa2,,,,,,,sngl,resources/Empty.png,resources/DY.BMP,WildCard_NonEx,0.343518575,-0.033333355,1,0,0,0.943199999,optionRight,45,8425,4,24,0,24,0,1,,,,,,,,,,,,,,,,,,,,,,,,,,,,,,,,,,,,,,,
,,,,,,,,2023-08-16_08h58.58.804,HF_wild_card,2022.2.4,Win32,60.12506013,62c8576299ac324ce5e9a813,64d2fd46c836a06233681665,64dc7fd7757c7ab4466f0aa2,,,,,,,sngl,resources/Empty.png,resources/DP.BMP,Door2,0.409259231,-0.029629637,1,0,0,1.023200001,optionRight,40,8465,4,25,0,25,0,1,,,,,,,,,,,,,,,,,,,,,,,,,,,,,,,,,,,,,,,
,,,,,,,,2023-08-16_08h58.58.804,HF_wild_card,2022.2.4,Win32,60.12506013,62c8576299ac324ce5e9a813,64d2fd46c836a06233681665,64dc7fd7757c7ab4466f0aa2,,,,,,,decisionTrl,resources/DBN.BMP,resources/DB.BMP,Door3,-0.388888889,0.0074074,1,0,0,0.8406,optionLeft,70,8535,4,26,0,26,0,1,,,,,,,,,,,,,,,,,,,,,,,,,,,,,,,,,,,,,,,
,,,,,,,,2023-08-16_08h58.58.804,HF_wild_card,2022.2.4,Win32,60.12506013,62c8576299ac324ce5e9a813,64d2fd46c836a06233681665,64dc7fd7757c7ab4466f0aa2,,,,,,,ctch,resources/DBN.BMP,resources/DP.BMP,Door3,-0.324999986,-0.039814808,1,0,0,1.057,optionLeft,70,8605,4,27,0,27,0,1,,,,,,,,,,,,,,,,,,,,,,,,,,,,,,,,,,,,,,,
,,,,,,,,2023-08-16_08h58.58.804,HF_wild_card,2022.2.4,Win32,60.12506013,62c8576299ac324ce5e9a813,64d2fd46c836a06233681665,64dc7fd7757c7ab4466f0aa2,,,,,,,decisionTrl,resources/DBN.BMP,resources/DB.BMP,Door3,-0.350925905,0.021296289,1,0,0,0.896,optionLeft,70,8675,4,28,0,28,0,1,,,,,,,,,,,,,,,,,,,,,,,,,,,,,,,,,,,,,,,
,,,,,,,,2023-08-16_08h58.58.804,HF_wild_card,2022.2.4,Win32,60.12506013,62c8576299ac324ce5e9a813,64d2fd46c836a06233681665,64dc7fd7757c7ab4466f0aa2,,,,,,,sngl,resources/Empty.png,resources/DBN.BMP,Door3,0.288888931,-0.009259259,1,0,0,0.911800001,optionRight,70,8745,4,29,0,29,0,1,,,,,,,,,,,,,,,,,,,,,,,,,,,,,,,,,,,,,,,
,,,,,,,,2023-08-16_08h58.58.804,HF_wild_card,2022.2.4,Win32,60.12506013,62c8576299ac324ce5e9a813,64d2fd46c836a06233681665,64dc7fd7757c7ab4466f0aa2,,,,,,,ctch,resources/DR.BMP,resources/DB.BMP,Door4,0.340740769,-0.018518519,1,0,0,1.411299999,optionRight,80,8825,4,30,0,30,0,1,,,,,,,,,,,,,,,,,,,,,,,,,,,,,,,,,,,,,,,
,,,,,,,,2023-08-16_08h58.58.804,HF_wild_card,2022.2.4,Win32,60.12506013,62c8576299ac324ce5e9a813,64d2fd46c836a06233681665,64dc7fd7757c7ab4466f0aa2,,,,,,,decisionTrl,resources/DB.BMP,resources/DBN.BMP,Door4,-0.339814822,-0.025925919,1,0,0,0.938,optionLeft,80,8905,4,31,0,31,0,1,,,,,,,,,,,,,,,,,,,,,,,,,,,,,,,,,,,,,,,
,,,,,,,,2023-08-16_08h58.58.804,HF_wild_card,2022.2.4,Win32,60.12506013,62c8576299ac324ce5e9a813,64d2fd46c836a06233681665,64dc7fd7757c7ab4466f0aa2,,,,,,,decisionTrl,resources/DR.BMP,resources/DY.BMP,WildCard_NonEx,0.291666667,-0.001851859,1,0,0,1.241599998,optionRight,45,8950,4,32,0,32,0,1,,,,,,,,,,,,,,,,,,,,,,,,,,,,,,,,,,,,,,,
,,,,,,,,2023-08-16_08h58.58.804,HF_wild_card,2022.2.4,Win32,60.12506013,62c8576299ac324ce5e9a813,64d2fd46c836a06233681665,64dc7fd7757c7ab4466f0aa2,,,,,,,sngl,resources/DBN.BMP,resources/Empty.png,Door3,-0.452777757,-0.002777771,1,0,0,0.894700001,optionLeft,70,9020,4,33,0,33,0,1,,,,,,,,,,,,,,,,,,,,,,,,,,,,,,,,,,,,,,,
,,,,,,,,2023-08-16_08h58.58.804,HF_wild_card,2022.2.4,Win32,60.12506013,62c8576299ac324ce5e9a813,64d2fd46c836a06233681665,64dc7fd7757c7ab4466f0aa2,,,,,,,ctch,resources/DR.BMP,resources/DB.BMP,Door4,0.37962963,0.005555541,1,0,0,0.8551,optionRight,80,9100,4,34,0,34,0,1,,,,,,,,,,,,,,,,,,,,,,,,,,,,,,,,,,,,,,,
,,,,,,,,2023-08-16_08h58.58.804,HF_wild_card,2022.2.4,Win32,60.12506013,62c8576299ac324ce5e9a813,64d2fd46c836a06233681665,64dc7fd7757c7ab4466f0aa2,,,,,,,sngl,resources/DP.BMP,resources/Empty.png,Door2,-0.39166666,-0.01203703,1,0,0,0.9164,optionLeft,20,9120,4,35,0,35,0,1,,,,,,,,,,,,,,,,,,,,,,,,,,,,,,,,,,,,,,,
,,,,,,,,2023-08-16_08h58.58.804,HF_wild_card,2022.2.4,Win32,60.12506013,62c8576299ac324ce5e9a813,64d2fd46c836a06233681665,64dc7fd7757c7ab4466f0aa2,,,,,,,decisionTrl,resources/DBN.BMP,resources/DB.BMP,Door4,0.336111139,0.00462963,1,0,0,1.001900002,optionRight,60,9180,4,36,0,36,0,1,,,,,,,,,,,,,,,,,,,,,,,,,,,,,,,,,,,,,,,
,,,,,,,,2023-08-16_08h58.58.804,HF_wild_card,2022.2.4,Win32,60.12506013,62c8576299ac324ce5e9a813,64d2fd46c836a06233681665,64dc7fd7757c7ab4466f0aa2,,,,,,,decisionTrl,resources/DP.BMP,resources/DR.BMP,Door2,-0.402777778,-0.052777785,1,0,0,2.9365,optionLeft,20,9200,4,37,0,37,0,1,,,,,,,,,,,,,,,,,,,,,,,,,,,,,,,,,,,,,,,
,,,,,,,,2023-08-16_08h58.58.804,HF_wild_card,2022.2.4,Win32,60.12506013,62c8576299ac324ce5e9a813,64d2fd46c836a06233681665,64dc7fd7757c7ab4466f0aa2,,,,,,,sngl,resources/DR.BMP,resources/Empty.png,Door1,-0.346296275,-0.052777785,1,0,0,0.877900002,optionLeft,30,9230,4,38,0,38,0,1,,,,,,,,,,,,,,,,,,,,,,,,,,,,,,,,,,,,,,,
,,,,,,,,2023-08-16_08h58.58.804,HF_wild_card,2022.2.4,Win32,60.12506013,62c8576299ac324ce5e9a813,64d2fd46c836a06233681665,64dc7fd7757c7ab4466f0aa2,,,,,,,sngl,resources/Empty.png,resources/DR.BMP,Door1,0.3648149,0.03611109,1,0,0,0.8279,optionRight,30,9260,4,39,0,39,0,1,,,,,,,,,,,,,,,,,,,,,,,,,,,,,,,,,,,,,,,
,,,,,,,,2023-08-16_08h58.58.804,HF_wild_card,2022.2.4,Win32,60.12506013,62c8576299ac324ce5e9a813,64d2fd46c836a06233681665,64dc7fd7757c7ab4466f0aa2,,,,,,,decisionTrl,resources/DB.BMP,resources/DBN.BMP,Door4,-0.35833334,-0.024074095,1,0,0,1.5139,optionLeft,60,9320,4,40,0,40,0,1,,,,,,,,,,,,,,,,,,,,,,,,,,,,,,,,,,,,,,,
,,,,,,,,2023-08-16_08h58.58.804,HF_wild_card,2022.2.4,Win32,60.12506013,62c8576299ac324ce5e9a813,64d2fd46c836a06233681665,64dc7fd7757c7ab4466f0aa2,,,,,,,decisionTrl,resources/DR.BMP,resources/DP.BMP,Door1,-0.304629608,-0.056481503,1,0,0,2.223,optionLeft,30,9350,4,41,0,41,0,1,,,,,,,,,,,,,,,,,,,,,,,,,,,,,,,,,,,,,,,
,,,,,,,,2023-08-16_08h58.58.804,HF_wild_card,2022.2.4,Win32,60.12506013,62c8576299ac324ce5e9a813,64d2fd46c836a06233681665,64dc7fd7757c7ab4466f0aa2,,,,,,,ctch,resources/DP.BMP,resources/DBN.BMP,Door3,0.288888931,0.034259266,1,0,0,1.121800001,optionRight,70,9420,4,42,0,42,0,1,,,,,,,,,,,,,,,,,,,,,,,,,,,,,,,,,,,,,,,
,,,,,,,,2023-08-16_08h58.58.804,HF_wild_card,2022.2.4,Win32,60.12506013,62c8576299ac324ce5e9a813,64d2fd46c836a06233681665,64dc7fd7757c7ab4466f0aa2,,,,,,,ctch,resources/DBN.BMP,resources/DP.BMP,Door3,-0.39166666,0.010185171,1,0,0,0.923400002,optionLeft,70,9490,4,43,0,43,0,1,,,,,,,,,,,,,,,,,,,,,,,,,,,,,,,,,,,,,,,
,,,,,,,,2023-08-16_08h58.58.804,HF_wild_card,2022.2.4,Win32,60.12506013,62c8576299ac324ce5e9a813,64d2fd46c836a06233681665,64dc7fd7757c7ab4466f0aa2,,,,,,,,,,,,,,,,,,,,,,,,,,3,0,3,0,1,,,,,,,,,,,,,,,,,,,,,,,,,,,,,,,,,,
,,,,,,,,2023-08-16_08h58.58.804,HF_wild_card,2022.2.4,Win32,60.12506013,62c8576299ac324ce5e9a813,64d2fd46c836a06233681665,64dc7fd7757c7ab4466f0aa2,,,,,,,decisionTrl,resources/DR.BMP,resources/DP.BMP,Door2,0.330555527,-0.08888891,1,0,0,2.140900002,optionRight,20,9510,5,0,0,0,0,1,,,,,,,,,,,,,,,,,,,,,,,,,,,,,,,,,,,,,,,
,,,,,,,,2023-08-16_08h58.58.804,HF_wild_card,2022.2.4,Win32,60.12506013,62c8576299ac324ce5e9a813,64d2fd46c836a06233681665,64dc7fd7757c7ab4466f0aa2,,,,,,,decisionTrl,resources/DB.BMP,resources/DBN.BMP,Door4,-0.277777778,-0.015740748,1,0,0,1.5174,optionLeft,60,9570,5,1,0,1,0,1,,,,,,,,,,,,,,,,,,,,,,,,,,,,,,,,,,,,,,,
,,,,,,,,2023-08-16_08h58.58.804,HF_wild_card,2022.2.4,Win32,60.12506013,62c8576299ac324ce5e9a813,64d2fd46c836a06233681665,64dc7fd7757c7ab4466f0aa2,,,,,,,ctch,resources/DP.BMP,resources/DBN.BMP,Door3,0.256481524,0.035185178,1,0,0,1.0381,optionRight,70,9640,5,2,0,2,0,1,,,,,,,,,,,,,,,,,,,,,,,,,,,,,,,,,,,,,,,
,,,,,,,,2023-08-16_08h58.58.804,HF_wild_card,2022.2.4,Win32,60.12506013,62c8576299ac324ce5e9a813,64d2fd46c836a06233681665,64dc7fd7757c7ab4466f0aa2,,,,,,,decisionTrl,resources/DBN.BMP,resources/DB.BMP,Door3,-0.27407406,-0.08888891,1,0,0,1.1239,optionLeft,70,9710,5,3,0,3,0,1,,,,,,,,,,,,,,,,,,,,,,,,,,,,,,,,,,,,,,,
,,,,,,,,2023-08-16_08h58.58.804,HF_wild_card,2022.2.4,Win32,60.12506013,62c8576299ac324ce5e9a813,64d2fd46c836a06233681665,64dc7fd7757c7ab4466f0aa2,,,,,,,sngl,resources/Empty.png,resources/DY.BMP,WildCard_NonEx,0.37037037,0.020370377,1,0,0,0.871,optionRight,45,9755,5,4,0,4,0,1,,,,,,,,,,,,,,,,,,,,,,,,,,,,,,,,,,,,,,,
,,,,,,,,2023-08-16_08h58.58.804,HF_wild_card,2022.2.4,Win32,60.12506013,62c8576299ac324ce5e9a813,64d2fd46c836a06233681665,64dc7fd7757c7ab4466f0aa2,,,,,,,sngl,resources/DY.BMP,resources/Empty.png,WildCard_NonEx,-0.339814822,-0.019444466,1,0,0,0.859800001,optionLeft,55,9810,5,5,0,5,0,1,,,,,,,,,,,,,,,,,,,,,,,,,,,,,,,,,,,,,,,
,,,,,,,,2023-08-16_08h58.58.804,HF_wild_card,2022.2.4,Win32,60.12506013,62c8576299ac324ce5e9a813,64d2fd46c836a06233681665,64dc7fd7757c7ab4466f0aa2,,,,,,,decisionTrl,resources/DB.BMP,resources/DBN.BMP,Door4,-0.457407386,-0.073148162,1,0,0,4.477200001,optionLeft,80,9890,5,6,0,6,0,1,,,,,,,,,,,,,,,,,,,,,,,,,,,,,,,,,,,,,,,
,,,,,,,,2023-08-16_08h58.58.804,HF_wild_card,2022.2.4,Win32,60.12506013,62c8576299ac324ce5e9a813,64d2fd46c836a06233681665,64dc7fd7757c7ab4466f0aa2,,,,,,,decisionTrl,resources/DP.BMP,resources/DR.BMP,Door1,0.247222265,0.017592571,1,0,0,4.274299999,optionRight,30,9920,5,7,0,7,0,1,,,,,,,,,,,,,,,,,,,,,,,,,,,,,,,,,,,,,,,
,,,,,,,,2023-08-16_08h58.58.804,HF_wild_card,2022.2.4,Win32,60.12506013,62c8576299ac324ce5e9a813,64d2fd46c836a06233681665,64dc7fd7757c7ab4466f0aa2,,,,,,,sngl,resources/Empty.png,resources/DBN.BMP,Door3,0.306481538,0.005555541,1,0,0,0.922300001,optionRight,70,9990,5,8,0,8,0,1,,,,,,,,,,,,,,,,,,,,,,,,,,,,,,,,,,,,,,,
,,,,,,,,2023-08-16_08h58.58.804,HF_wild_card,2022.2.4,Win32,60.12506013,62c8576299ac324ce5e9a813,64d2fd46c836a06233681665,64dc7fd7757c7ab4466f0aa2,,,,,,,sngl,resources/Empty.png,resources/DB.BMP,Door4,0.460185157,-0.014814836,1,0,0,1.0201,optionRight,60,10050,5,9,0,9,0,1,,,,,,,,,,,,,,,,,,,,,,,,,,,,,,,,,,,,,,,
,,,,,,,,2023-08-16_08h58.58.804,HF_wild_card,2022.2.4,Win32,60.12506013,62c8576299ac324ce5e9a813,64d2fd46c836a06233681665,64dc7fd7757c7ab4466f0aa2,,,,,,,ctch,resources/DBN.BMP,resources/DP.BMP,Door3,-0.262962977,-0.044444437,1,0,0,1.427199999,optionLeft,70,10120,5,10,0,10,0,1,,,,,,,,,,,,,,,,,,,,,,,,,,,,,,,,,,,,,,,
,,,,,,,,2023-08-16_08h58.58.804,HF_wild_card,2022.2.4,Win32,60.12506013,62c8576299ac324ce5e9a813,64d2fd46c836a06233681665,64dc7fd7757c7ab4466f0aa2,,,,,,,decisionTrl,resources/DR.BMP,resources/DP.BMP,Door2,0.363888917,-0.032407407,1,0,0,2.292699999,optionRight,20,10140,5,11,0,11,0,1,,,,,,,,,,,,,,,,,,,,,,,,,,,,,,,,,,,,,,,
,,,,,,,,2023-08-16_08h58.58.804,HF_wild_card,2022.2.4,Win32,60.12506013,62c8576299ac324ce5e9a813,64d2fd46c836a06233681665,64dc7fd7757c7ab4466f0aa2,,,,,,,decisionTrl,resources/DBN.BMP,resources/DB.BMP,Door3,-0.244444459,-0.024074095,1,0,0,3.360200001,optionLeft,70,10210,5,12,0,12,0,1,,,,,,,,,,,,,,,,,,,,,,,,,,,,,,,,,,,,,,,
,,,,,,,,2023-08-16_08h58.58.804,HF_wild_card,2022.2.4,Win32,60.12506013,62c8576299ac324ce5e9a813,64d2fd46c836a06233681665,64dc7fd7757c7ab4466f0aa2,,,,,,,decisionTrl,resources/DR.BMP,resources/DY.BMP,WildCard_NonEx,0.350000028,-0.064814815,1,0,0,1.4415,optionRight,45,10255,5,13,0,13,0,1,,,,,,,,,,,,,,,,,,,,,,,,,,,,,,,,,,,,,,,
,,,,,,,,2023-08-16_08h58.58.804,HF_wild_card,2022.2.4,Win32,60.12506013,62c8576299ac324ce5e9a813,64d2fd46c836a06233681665,64dc7fd7757c7ab4466f0aa2,,,,,,,decisionTrl,resources/DR.BMP,resources/DP.BMP,Door1,-0.264814801,-0.08425928,1,0,0,4.4114,optionLeft,30,10285,5,14,0,14,0,1,,,,,,,,,,,,,,,,,,,,,,,,,,,,,,,,,,,,,,,
,,,,,,,,2023-08-16_08h58.58.804,HF_wild_card,2022.2.4,Win32,60.12506013,62c8576299ac324ce5e9a813,64d2fd46c836a06233681665,64dc7fd7757c7ab4466f0aa2,,,,,,,decisionTrl,resources/DBN.BMP,resources/DY.BMP,Door3,-0.441666674,-0.103703746,1,0,0,1.444,optionLeft,70,10355,5,15,0,15,0,1,,,,,,,,,,,,,,,,,,,,,,,,,,,,,,,,,,,,,,,
,,,,,,,,2023-08-16_08h58.58.804,HF_wild_card,2022.2.4,Win32,60.12506013,62c8576299ac324ce5e9a813,64d2fd46c836a06233681665,64dc7fd7757c7ab4466f0aa2,,,,,,,decisionTrl,resources/DP.BMP,resources/DR.BMP,Door2,-0.373148141,-0.055555556,1,0,0,2.178099998,optionLeft,20,10375,5,16,0,16,0,1,,,,,,,,,,,,,,,,,,,,,,,,,,,,,,,,,,,,,,,
,,,,,,,,2023-08-16_08h58.58.804,HF_wild_card,2022.2.4,Win32,60.12506013,62c8576299ac324ce5e9a813,64d2fd46c836a06233681665,64dc7fd7757c7ab4466f0aa2,,,,,,,decisionTrl,resources/DB.BMP,resources/DY.BMP,Door4,-0.347222222,-0.097222222,1,0,0,1.391299999,optionLeft,80,10455,5,17,0,17,0,1,,,,,,,,,,,,,,,,,,,,,,,,,,,,,,,,,,,,,,,
,,,,,,,,2023-08-16_08h58.58.804,HF_wild_card,2022.2.4,Win32,60.12506013,62c8576299ac324ce5e9a813,64d2fd46c836a06233681665,64dc7fd7757c7ab4466f0aa2,,,,,,,decisionTrl,resources/DP.BMP,resources/DR.BMP,Door1,0.253703718,-0.015740748,1,0,0,1.823299999,optionRight,30,10485,5,18,0,18,0,1,,,,,,,,,,,,,,,,,,,,,,,,,,,,,,,,,,,,,,,
,,,,,,,,2023-08-16_08h58.58.804,HF_wild_card,2022.2.4,Win32,60.12506013,62c8576299ac324ce5e9a813,64d2fd46c836a06233681665,64dc7fd7757c7ab4466f0aa2,,,,,,,decisionTrl,resources/DR.BMP,resources/DP.BMP,Door1,-0.224074046,-0.083333333,1,0,0,3.043799999,optionLeft,30,10515,5,19,0,19,0,1,,,,,,,,,,,,,,,,,,,,,,,,,,,,,,,,,,,,,,,
,,,,,,,,2023-08-16_08h58.58.804,HF_wild_card,2022.2.4,Win32,60.12506013,62c8576299ac324ce5e9a813,64d2fd46c836a06233681665,64dc7fd7757c7ab4466f0aa2,,,,,,,ctch,resources/DB.BMP,resources/DR.BMP,Door4,-0.256481453,-0.095370399,1,0,0,2.066200001,optionLeft,80,10595,5,20,0,20,0,1,,,,,,,,,,,,,,,,,,,,,,,,,,,,,,,,,,,,,,,
,,,,,,,,2023-08-16_08h58.58.804,HF_wild_card,2022.2.4,Win32,60.12506013,62c8576299ac324ce5e9a813,64d2fd46c836a06233681665,64dc7fd7757c7ab4466f0aa2,,,,,,,decisionTrl,resources/DB.BMP,resources/DBN.BMP,Door4,-0.446296303,-0.089814822,1,0,0,0.9836,optionLeft,60,10655,5,21,0,21,0,1,,,,,,,,,,,,,,,,,,,,,,,,,,,,,,,,,,,,,,,
,,,,,,,,2023-08-16_08h58.58.804,HF_wild_card,2022.2.4,Win32,60.12506013,62c8576299ac324ce5e9a813,64d2fd46c836a06233681665,64dc7fd7757c7ab4466f0aa2,,,,,,,ctch,resources/DR.BMP,resources/DB.BMP,Door4,0.351851852,-0.043518526,1,0,0,1.4096,optionRight,60,10715,5,22,0,22,0,1,,,,,,,,,,,,,,,,,,,,,,,,,,,,,,,,,,,,,,,
,,,,,,,,2023-08-16_08h58.58.804,HF_wild_card,2022.2.4,Win32,60.12506013,62c8576299ac324ce5e9a813,64d2fd46c836a06233681665,64dc7fd7757c7ab4466f0aa2,,,,,,,decisionTrl,resources/DY.BMP,resources/DR.BMP,WildCard_NonEx,-0.261111083,-0.006481489,1,0,0,1.5306,optionLeft,55,10770,5,23,0,23,0,1,,,,,,,,,,,,,,,,,,,,,,,,,,,,,,,,,,,,,,,
,,,,,,,,2023-08-16_08h58.58.804,HF_wild_card,2022.2.4,Win32,60.12506013,62c8576299ac324ce5e9a813,64d2fd46c836a06233681665,64dc7fd7757c7ab4466f0aa2,,,,,,,decisionTrl,resources/DBN.BMP,resources/DB.BMP,Door3,-0.361111111,-0.104629658,1,0,0,3.208,optionLeft,70,10840,5,24,0,24,0,1,,,,,,,,,,,,,,,,,,,,,,,,,,,,,,,,,,,,,,,
,,,,,,,,2023-08-16_08h58.58.804,HF_wild_card,2022.2.4,Win32,60.12506013,62c8576299ac324ce5e9a813,64d2fd46c836a06233681665,64dc7fd7757c7ab4466f0aa2,,,,,,,sngl,resources/Empty.png,resources/DY.BMP,WildCard_NonEx,0.375925982,-0.025000007,1,0,0,0.9949,optionRight,55,10895,5,25,0,25,0,1,,,,,,,,,,,,,,,,,,,,,,,,,,,,,,,,,,,,,,,
,,,,,,,,2023-08-16_08h58.58.804,HF_wild_card,2022.2.4,Win32,60.12506013,62c8576299ac324ce5e9a813,64d2fd46c836a06233681665,64dc7fd7757c7ab4466f0aa2,,,,,,,sngl,resources/DBN.BMP,resources/Empty.png,Door3,-0.366666653,-0.036111125,1,0,0,1.336299999,optionLeft,70,10965,5,26,0,26,0,1,,,,,,,,,,,,,,,,,,,,,,,,,,,,,,,,,,,,,,,
,,,,,,,,2023-08-16_08h58.58.804,HF_wild_card,2022.2.4,Win32,60.12506013,62c8576299ac324ce5e9a813,64d2fd46c836a06233681665,64dc7fd7757c7ab4466f0aa2,,,,,,,decisionTrl,resources/DP.BMP,resources/DR.BMP,Door1,0.240740741,-0.037962984,1,0,0,1.8266,optionRight,30,10995,5,27,0,27,0,1,,,,,,,,,,,,,,,,,,,,,,,,,,,,,,,,,,,,,,,
,,,,,,,,2023-08-16_08h58.58.804,HF_wild_card,2022.2.4,Win32,60.12506013,62c8576299ac324ce5e9a813,64d2fd46c836a06233681665,64dc7fd7757c7ab4466f0aa2,,,,,,,decisionTrl,resources/DY.BMP,resources/DP.BMP,WildCard_NonEx,-0.324999986,-0.052777785,1,0,0,1.9446,optionLeft,45,11040,5,28,0,28,0,1,,,,,,,,,,,,,,,,,,,,,,,,,,,,,,,,,,,,,,,
,,,,,,,,2023-08-16_08h58.58.804,HF_wild_card,2022.2.4,Win32,60.12506013,62c8576299ac324ce5e9a813,64d2fd46c836a06233681665,64dc7fd7757c7ab4466f0aa2,,,,,,,decisionTrl,resources/DB.BMP,resources/DBN.BMP,Door4,-0.24537037,-0.043518526,1,0,0,2.260799999,optionLeft,60,11100,5,29,0,29,0,1,,,,,,,,,,,,,,,,,,,,,,,,,,,,,,,,,,,,,,,
,,,,,,,,2023-08-16_08h58.58.804,HF_wild_card,2022.2.4,Win32,60.12506013,62c8576299ac324ce5e9a813,64d2fd46c836a06233681665,64dc7fd7757c7ab4466f0aa2,,,,,,,sngl,resources/Empty.png,resources/DP.BMP,Door2,0.262037065,0.035185178,1,0,0,1.061,optionRight,20,11120,5,30,0,30,0,1,,,,,,,,,,,,,,,,,,,,,,,,,,,,,,,,,,,,,,,
,,,,,,,,2023-08-16_08h58.58.804,HF_wild_card,2022.2.4,Win32,60.12506013,62c8576299ac324ce5e9a813,64d2fd46c836a06233681665,64dc7fd7757c7ab4466f0aa2,,,,,,,ctch,resources/DB.BMP,resources/DR.BMP,Door4,-0.290740755,-0.047222243,1,0,0,2.358700001,optionLeft,60,11180,5,31,0,31,0,1,,,,,,,,,,,,,,,,,,,,,,,,,,,,,,,,,,,,,,,
,,,,,,,,2023-08-16_08h58.58.804,HF_wild_card,2022.2.4,Win32,60.12506013,62c8576299ac324ce5e9a813,64d2fd46c836a06233681665,64dc7fd7757c7ab4466f0aa2,,,,,,,sngl,resources/DR.BMP,resources/Empty.png,Door1,-0.224074046,-0.028703725,1,0,0,1.1906,optionLeft,30,11210,5,32,0,32,0,1,,,,,,,,,,,,,,,,,,,,,,,,,,,,,,,,,,,,,,,
,,,,,,,,2023-08-16_08h58.58.804,HF_wild_card,2022.2.4,Win32,60.12506013,62c8576299ac324ce5e9a813,64d2fd46c836a06233681665,64dc7fd7757c7ab4466f0aa2,,,,,,,sngl,resources/Empty.png,resources/DR.BMP,Door1,0.20648151,-0.01666666,1,0,0,2.054900002,optionRight,30,11240,5,33,0,33,0,1,,,,,,,,,,,,,,,,,,,,,,,,,,,,,,,,,,,,,,,
,,,,,,,,2023-08-16_08h58.58.804,HF_wild_card,2022.2.4,Win32,60.12506013,62c8576299ac324ce5e9a813,64d2fd46c836a06233681665,64dc7fd7757c7ab4466f0aa2,,,,,,,sngl,resources/DY.BMP,resources/Empty.png,WildCard_NonEx,-0.345370363,-0.048148155,1,0,0,0.931800001,optionLeft,45,11285,5,34,0,34,0,1,,,,,,,,,,,,,,,,,,,,,,,,,,,,,,,,,,,,,,,
,,,,,,,,2023-08-16_08h58.58.804,HF_wild_card,2022.2.4,Win32,60.12506013,62c8576299ac324ce5e9a813,64d2fd46c836a06233681665,64dc7fd7757c7ab4466f0aa2,,,,,,,ctch,resources/DR.BMP,resources/DB.BMP,Door4,0.350000028,-0.036111125,1,0,0,1.713,optionRight,60,11345,5,35,0,35,0,1,,,,,,,,,,,,,,,,,,,,,,,,,,,,,,,,,,,,,,,
,,,,,,,,2023-08-16_08h58.58.804,HF_wild_card,2022.2.4,Win32,60.12506013,62c8576299ac324ce5e9a813,64d2fd46c836a06233681665,64dc7fd7757c7ab4466f0aa2,,,,,,,decisionTrl,resources/DY.BMP,resources/DB.BMP,Door4,0.313888974,-0.023148148,1,0,0,1.4214,optionRight,60,11405,5,36,0,36,0,1,,,,,,,,,,,,,,,,,,,,,,,,,,,,,,,,,,,,,,,
,,,,,,,,2023-08-16_08h58.58.804,HF_wild_card,2022.2.4,Win32,60.12506013,62c8576299ac324ce5e9a813,64d2fd46c836a06233681665,64dc7fd7757c7ab4466f0aa2,,,,,,,decisionTrl,resources/DBN.BMP,resources/DB.BMP,Door4,0.279629672,-0.020370377,1,0,0,3.3475,optionRight,80,11485,5,37,0,37,0,1,,,,,,,,,,,,,,,,,,,,,,,,,,,,,,,,,,,,,,,
,,,,,,,,2023-08-16_08h58.58.804,HF_wild_card,2022.2.4,Win32,60.12506013,62c8576299ac324ce5e9a813,64d2fd46c836a06233681665,64dc7fd7757c7ab4466f0aa2,,,,,,,decisionTrl,resources/DP.BMP,resources/DY.BMP,WildCard_NonEx,0.247222265,-0.015740748,1,0,0,2.1976,optionRight,55,11540,5,38,0,38,0,1,,,,,,,,,,,,,,,,,,,,,,,,,,,,,,,,,,,,,,,
,,,,,,,,2023-08-16_08h58.58.804,HF_wild_card,2022.2.4,Win32,60.12506013,62c8576299ac324ce5e9a813,64d2fd46c836a06233681665,64dc7fd7757c7ab4466f0aa2,,,,,,,ctch,resources/DP.BMP,resources/DBN.BMP,Door3,0.365740741,-0.014814836,1,0,0,1.424199999,optionRight,70,11610,5,39,0,39,0,1,,,,,,,,,,,,,,,,,,,,,,,,,,,,,,,,,,,,,,,
,,,,,,,,2023-08-16_08h58.58.804,HF_wild_card,2022.2.4,Win32,60.12506013,62c8576299ac324ce5e9a813,64d2fd46c836a06233681665,64dc7fd7757c7ab4466f0aa2,,,,,,,sngl,resources/DP.BMP,resources/Empty.png,Door2,-0.277777778,-0.055555556,1,0,0,1.027199999,optionLeft,40,11650,5,40,0,40,0,1,,,,,,,,,,,,,,,,,,,,,,,,,,,,,,,,,,,,,,,
,,,,,,,,2023-08-16_08h58.58.804,HF_wild_card,2022.2.4,Win32,60.12506013,62c8576299ac324ce5e9a813,64d2fd46c836a06233681665,64dc7fd7757c7ab4466f0aa2,,,,,,,decisionTrl,resources/DY.BMP,resources/DBN.BMP,Door3,0.259259259,0.013888889,1,0,0,1.279199999,optionRight,70,11720,5,41,0,41,0,1,,,,,,,,,,,,,,,,,,,,,,,,,,,,,,,,,,,,,,,
,,,,,,,,2023-08-16_08h58.58.804,HF_wild_card,2022.2.4,Win32,60.12506013,62c8576299ac324ce5e9a813,64d2fd46c836a06233681665,64dc7fd7757c7ab4466f0aa2,,,,,,,sngl,resources/DB.BMP,resources/Empty.png,Door4,-0.329629616,-0.013888889,1,0,0,0.9585,optionLeft,80,11800,5,42,0,42,0,1,,,,,,,,,,,,,,,,,,,,,,,,,,,,,,,,,,,,,,,
,,,,,,,,2023-08-16_08h58.58.804,HF_wild_card,2022.2.4,Win32,60.12506013,62c8576299ac324ce5e9a813,64d2fd46c836a06233681665,64dc7fd7757c7ab4466f0aa2,,,,,,,ctch,resources/DBN.BMP,resources/DP.BMP,Door3,-0.409259266,-0.026851866,1,0,0,1.193,optionLeft,70,11870,5,43,0,43,0,1,,,,,,,,,,,,,,,,,,,,,,,,,,,,,,,,,,,,,,,
,,,,,,,,2023-08-16_08h58.58.804,HF_wild_card,2022.2.4,Win32,60.12506013,62c8576299ac324ce5e9a813,64d2fd46c836a06233681665,64dc7fd7757c7ab4466f0aa2,,,,,,,,,,,,,,,,,,,,,,,,,,4,0,4,0,1,,,,,,,,,,,,,,,,,,,,,,,,,,,,,,,,,,
,,,,,,,,2023-08-16_08h58.58.804,HF_wild_card,2022.2.4,Win32,60.12506013,62c8576299ac324ce5e9a813,64d2fd46c836a06233681665,64dc7fd7757c7ab4466f0aa2,,,,,,,decisionTrl,resources/DR.BMP,resources/DP.BMP,Door1,-0.347222222,-0.094444487,1,0,0,2.1581,optionLeft,30,11900,6,0,0,0,0,1,,,,,,,,,,,,,,,,,,,,,,,,,,,,,,,,,,,,,,,
,,,,,,,,2023-08-16_08h58.58.804,HF_wild_card,2022.2.4,Win32,60.12506013,62c8576299ac324ce5e9a813,64d2fd46c836a06233681665,64dc7fd7757c7ab4466f0aa2,,,,,,,sngl,resources/Empty.png,resources/DY.BMP,WildCard_NonEx,0.336111139,0.02407406,1,0,0,0.948300001,optionRight,45,11945,6,1,0,1,0,1,,,,,,,,,,,,,,,,,,,,,,,,,,,,,,,,,,,,,,,
,,,,,,,,2023-08-16_08h58.58.804,HF_wild_card,2022.2.4,Win32,60.12506013,62c8576299ac324ce5e9a813,64d2fd46c836a06233681665,64dc7fd7757c7ab4466f0aa2,,,,,,,ctch,resources/DR.BMP,resources/DB.BMP,Door4,0.315740797,0.03148146,1,0,0,1.663199999,optionRight,80,12025,6,2,0,2,0,1,,,,,,,,,,,,,,,,,,,,,,,,,,,,,,,,,,,,,,,
,,,,,,,,2023-08-16_08h58.58.804,HF_wild_card,2022.2.4,Win32,60.12506013,62c8576299ac324ce5e9a813,64d2fd46c836a06233681665,64dc7fd7757c7ab4466f0aa2,,,,,,,sngl,resources/DBN.BMP,resources/Empty.png,Door3,-0.359259252,-0.034259266,1,0,0,0.9124,optionLeft,70,12095,6,3,0,3,0,1,,,,,,,,,,,,,,,,,,,,,,,,,,,,,,,,,,,,,,,
,,,,,,,,2023-08-16_08h58.58.804,HF_wild_card,2022.2.4,Win32,60.12506013,62c8576299ac324ce5e9a813,64d2fd46c836a06233681665,64dc7fd7757c7ab4466f0aa2,,,,,,,sngl,resources/Empty.png,resources/DP.BMP,Door2,0.234259288,-0.032407407,1,0,0,1.827700001,optionRight,40,12135,6,4,0,4,0,1,,,,,,,,,,,,,,,,,,,,,,,,,,,,,,,,,,,,,,,
,,,,,,,,2023-08-16_08h58.58.804,HF_wild_card,2022.2.4,Win32,60.12506013,62c8576299ac324ce5e9a813,64d2fd46c836a06233681665,64dc7fd7757c7ab4466f0aa2,,,,,,,decisionTrl,resources/DY.BMP,resources/DR.BMP,WildCard_NonEx,-0.362037023,-0.092592593,1,0,0,1.394299999,optionLeft,55,12190,6,5,0,5,0,1,,,,,,,,,,,,,,,,,,,,,,,,,,,,,,,,,,,,,,,
,,,,,,,,2023-08-16_08h58.58.804,HF_wild_card,2022.2.4,Win32,60.12506013,62c8576299ac324ce5e9a813,64d2fd46c836a06233681665,64dc7fd7757c7ab4466f0aa2,,,,,,,ctch,resources/DP.BMP,resources/DBN.BMP,Door3,0.258333347,0.014814801,1,0,0,1.207599998,optionRight,70,12260,6,6,0,6,0,1,,,,,,,,,,,,,,,,,,,,,,,,,,,,,,,,,,,,,,,
,,,,,,,,2023-08-16_08h58.58.804,HF_wild_card,2022.2.4,Win32,60.12506013,62c8576299ac324ce5e9a813,64d2fd46c836a06233681665,64dc7fd7757c7ab4466f0aa2,,,,,,,sngl,resources/Empty.png,resources/DB.BMP,Door4,0.324074074,0.079629616,1,0,0,1.0119,optionRight,80,12340,6,7,0,7,0,1,,,,,,,,,,,,,,,,,,,,,,,,,,,,,,,,,,,,,,,
,,,,,,,,2023-08-16_08h58.58.804,HF_wild_card,2022.2.4,Win32,60.12506013,62c8576299ac324ce5e9a813,64d2fd46c836a06233681665,64dc7fd7757c7ab4466f0aa2,,,,,,,ctch,resources/DP.BMP,resources/DBN.BMP,Door3,0.35555564,0.02407406,1,0,0,1.196900002,optionRight,70,12410,6,8,0,8,0,1,,,,,,,,,,,,,,,,,,,,,,,,,,,,,,,,,,,,,,,
,,,,,,,,2023-08-16_08h58.58.804,HF_wild_card,2022.2.4,Win32,60.12506013,62c8576299ac324ce5e9a813,64d2fd46c836a06233681665,64dc7fd7757c7ab4466f0aa2,,,,,,,decisionTrl,resources/DB.BMP,resources/DBN.BMP,Door4,-0.286111125,-0.050000014,1,0,0,1.260299999,optionLeft,60,12470,6,9,0,9,0,1,,,,,,,,,,,,,,,,,,,,,,,,,,,,,,,,,,,,,,,
,,,,,,,,2023-08-16_08h58.58.804,HF_wild_card,2022.2.4,Win32,60.12506013,62c8576299ac324ce5e9a813,64d2fd46c836a06233681665,64dc7fd7757c7ab4466f0aa2,,,,,,,ctch,resources/DR.BMP,resources/DB.BMP,Door4,0.395370342,-0.014814836,1,0,0,0.877099998,optionRight,60,12530,6,10,0,10,0,1,,,,,,,,,,,,,,,,,,,,,,,,,,,,,,,,,,,,,,,
,,,,,,,,2023-08-16_08h58.58.804,HF_wild_card,2022.2.4,Win32,60.12506013,62c8576299ac324ce5e9a813,64d2fd46c836a06233681665,64dc7fd7757c7ab4466f0aa2,,,,,,,ctch,resources/DB.BMP,resources/DR.BMP,Door4,-0.259259259,-0.020370377,1,0,0,1.248199999,optionLeft,60,12590,6,11,0,11,0,1,,,,,,,,,,,,,,,,,,,,,,,,,,,,,,,,,,,,,,,
,,,,,,,,2023-08-16_08h58.58.804,HF_wild_card,2022.2.4,Win32,60.12506013,62c8576299ac324ce5e9a813,64d2fd46c836a06233681665,64dc7fd7757c7ab4466f0aa2,,,,,,,decisionTrl,resources/DB.BMP,resources/DBN.BMP,Door3,0.332407492,0.051851838,1,0,0,1.1599,optionRight,70,12660,6,12,0,12,0,1,,,,,,,,,,,,,,,,,,,,,,,,,,,,,,,,,,,,,,,
,,,,,,,,2023-08-16_08h58.58.804,HF_wild_card,2022.2.4,Win32,60.12506013,62c8576299ac324ce5e9a813,64d2fd46c836a06233681665,64dc7fd7757c7ab4466f0aa2,,,,,,,sngl,resources/Empty.png,resources/DR.BMP,Door1,0.220370399,0.03148146,1,0,0,1.211199999,optionRight,30,12690,6,13,0,13,0,1,,,,,,,,,,,,,,,,,,,,,,,,,,,,,,,,,,,,,,,
,,,,,,,,2023-08-16_08h58.58.804,HF_wild_card,2022.2.4,Win32,60.12506013,62c8576299ac324ce5e9a813,64d2fd46c836a06233681665,64dc7fd7757c7ab4466f0aa2,,,,,,,ctch,resources/DBN.BMP,resources/DP.BMP,Door3,-0.290740755,0,1,0,0,1.274799999,optionLeft,70,12760,6,14,0,14,0,1,,,,,,,,,,,,,,,,,,,,,,,,,,,,,,,,,,,,,,,
,,,,,,,,2023-08-16_08h58.58.804,HF_wild_card,2022.2.4,Win32,60.12506013,62c8576299ac324ce5e9a813,64d2fd46c836a06233681665,64dc7fd7757c7ab4466f0aa2,,,,,,,sngl,resources/Empty.png,resources/DBN.BMP,Door3,0.305555556,0.02407406,1,0,0,0.983200001,optionRight,70,12830,6,15,0,15,0,1,,,,,,,,,,,,,,,,,,,,,,,,,,,,,,,,,,,,,,,
,,,,,,,,2023-08-16_08h58.58.804,HF_wild_card,2022.2.4,Win32,60.12506013,62c8576299ac324ce5e9a813,64d2fd46c836a06233681665,64dc7fd7757c7ab4466f0aa2,,,,,,,sngl,resources/DB.BMP,resources/Empty.png,Door4,-0.381481489,-0.035185178,1,0,0,0.8961,optionLeft,60,12890,6,16,0,16,0,1,,,,,,,,,,,,,,,,,,,,,,,,,,,,,,,,,,,,,,,
,,,,,,,,2023-08-16_08h58.58.804,HF_wild_card,2022.2.4,Win32,60.12506013,62c8576299ac324ce5e9a813,64d2fd46c836a06233681665,64dc7fd7757c7ab4466f0aa2,,,,,,,decisionTrl,resources/DY.BMP,resources/DBN.BMP,Door3,0.415740826,0.010185171,1,0,0,0.8906,optionRight,70,12960,6,17,0,17,0,1,,,,,,,,,,,,,,,,,,,,,,,,,,,,,,,,,,,,,,,
,,,,,,,,2023-08-16_08h58.58.804,HF_wild_card,2022.2.4,Win32,60.12506013,62c8576299ac324ce5e9a813,64d2fd46c836a06233681665,64dc7fd7757c7ab4466f0aa2,,,,,,,sngl,resources/DP.BMP,resources/Empty.png,Door2,-0.349999993,-0.053703697,1,0,0,0.912700001,optionLeft,20,12980,6,18,0,18,0,1,,,,,,,,,,,,,,,,,,,,,,,,,,,,,,,,,,,,,,,
,,,,,,,,2023-08-16_08h58.58.804,HF_wild_card,2022.2.4,Win32,60.12506013,62c8576299ac324ce5e9a813,64d2fd46c836a06233681665,64dc7fd7757c7ab4466f0aa2,,,,,,,ctch,resources/DBN.BMP,resources/DP.BMP,Door3,-0.410185178,0.015740748,1,0,0,1.005799999,optionLeft,70,13050,6,19,0,19,0,1,,,,,,,,,,,,,,,,,,,,,,,,,,,,,,,,,,,,,,,
,,,,,,,,2023-08-16_08h58.58.804,HF_wild_card,2022.2.4,Win32,60.12506013,62c8576299ac324ce5e9a813,64d2fd46c836a06233681665,64dc7fd7757c7ab4466f0aa2,,,,,,,decisionTrl,resources/DB.BMP,resources/DBN.BMP,Door4,-0.405555548,-0.051851873,1,0,0,3.728699999,optionLeft,60,13110,6,20,0,20,0,1,,,,,,,,,,,,,,,,,,,,,,,,,,,,,,,,,,,,,,,
,,,,,,,,2023-08-16_08h58.58.804,HF_wild_card,2022.2.4,Win32,60.12506013,62c8576299ac324ce5e9a813,64d2fd46c836a06233681665,64dc7fd7757c7ab4466f0aa2,,,,,,,decisionTrl,resources/DP.BMP,resources/DR.BMP,Door1,0.306481538,-0.043518526,1,0,0,2.042,optionRight,30,13140,6,21,0,21,0,1,,,,,,,,,,,,,,,,,,,,,,,,,,,,,,,,,,,,,,,
,,,,,,,,2023-08-16_08h58.58.804,HF_wild_card,2022.2.4,Win32,60.12506013,62c8576299ac324ce5e9a813,64d2fd46c836a06233681665,64dc7fd7757c7ab4466f0aa2,,,,,,,decisionTrl,resources/DB.BMP,resources/DY.BMP,Door4,-0.412962949,-0.058333326,1,0,0,1.4094,optionLeft,80,13220,6,22,0,22,0,1,,,,,,,,,,,,,,,,,,,,,,,,,,,,,,,,,,,,,,,
,,,,,,,,2023-08-16_08h58.58.804,HF_wild_card,2022.2.4,Win32,60.12506013,62c8576299ac324ce5e9a813,64d2fd46c836a06233681665,64dc7fd7757c7ab4466f0aa2,,,,,,,decisionTrl,resources/DBN.BMP,resources/DB.BMP,Door3,-0.268518519,-0.053703697,1,0,0,1.229700001,optionLeft,70,13290,6,23,0,23,0,1,,,,,,,,,,,,,,,,,,,,,,,,,,,,,,,,,,,,,,,
,,,,,,,,2023-08-16_08h58.58.804,HF_wild_card,2022.2.4,Win32,60.12506013,62c8576299ac324ce5e9a813,64d2fd46c836a06233681665,64dc7fd7757c7ab4466f0aa2,,,,,,,decisionTrl,resources/DBN.BMP,resources/DB.BMP,Door3,-0.414814808,0.009259259,1,0,0,1.0984,optionLeft,70,13360,6,24,0,24,0,1,,,,,,,,,,,,,,,,,,,,,,,,,,,,,,,,,,,,,,,
,,,,,,,,2023-08-16_08h58.58.804,HF_wild_card,2022.2.4,Win32,60.12506013,62c8576299ac324ce5e9a813,64d2fd46c836a06233681665,64dc7fd7757c7ab4466f0aa2,,,,,,,decisionTrl,resources/DBN.BMP,resources/DY.BMP,Door3,-0.408333319,0.006481489,1,0,0,1.234299999,optionLeft,70,13430,6,25,0,25,0,1,,,,,,,,,,,,,,,,,,,,,,,,,,,,,,,,,,,,,,,
,,,,,,,,2023-08-16_08h58.58.804,HF_wild_card,2022.2.4,Win32,60.12506013,62c8576299ac324ce5e9a813,64d2fd46c836a06233681665,64dc7fd7757c7ab4466f0aa2,,,,,,,decisionTrl,resources/DR.BMP,resources/DP.BMP,Door1,-0.478703711,-0.030555548,1,0,0,1.5081,optionLeft,30,13460,6,26,0,26,0,1,,,,,,,,,,,,,,,,,,,,,,,,,,,,,,,,,,,,,,,
,,,,,,,,2023-08-16_08h58.58.804,HF_wild_card,2022.2.4,Win32,60.12506013,62c8576299ac324ce5e9a813,64d2fd46c836a06233681665,64dc7fd7757c7ab4466f0aa2,,,,,,,ctch,resources/DB.BMP,resources/DR.BMP,Door4,-0.3824074,-0.045370384,1,0,0,1.263,optionLeft,60,13520,6,27,0,27,0,1,,,,,,,,,,,,,,,,,,,,,,,,,,,,,,,,,,,,,,,
,,,,,,,,2023-08-16_08h58.58.804,HF_wild_card,2022.2.4,Win32,60.12506013,62c8576299ac324ce5e9a813,64d2fd46c836a06233681665,64dc7fd7757c7ab4466f0aa2,,,,,,,decisionTrl,resources/DY.BMP,resources/DP.BMP,WildCard_NonEx,-0.39907406,-0.049074067,1,0,0,1.8126,optionLeft,55,13575,6,28,0,28,0,1,,,,,,,,,,,,,,,,,,,,,,,,,,,,,,,,,,,,,,,
,,,,,,,,2023-08-16_08h58.58.804,HF_wild_card,2022.2.4,Win32,60.12506013,62c8576299ac324ce5e9a813,64d2fd46c836a06233681665,64dc7fd7757c7ab4466f0aa2,,,,,,,sngl,resources/Empty.png,resources/DY.BMP,WildCard_NonEx,0.37037037,-0.019444466,1,0,0,1.008699999,optionRight,55,13630,6,29,0,29,0,1,,,,,,,,,,,,,,,,,,,,,,,,,,,,,,,,,,,,,,,
,,,,,,,,2023-08-16_08h58.58.804,HF_wild_card,2022.2.4,Win32,60.12506013,62c8576299ac324ce5e9a813,64d2fd46c836a06233681665,64dc7fd7757c7ab4466f0aa2,,,,,,,decisionTrl,resources/DY.BMP,resources/DB.BMP,Door4,0.420370455,0.02870369,1,0,0,1.451099998,optionRight,80,13710,6,30,0,30,0,1,,,,,,,,,,,,,,,,,,,,,,,,,,,,,,,,,,,,,,,
,,,,,,,,2023-08-16_08h58.58.804,HF_wild_card,2022.2.4,Win32,60.12506013,62c8576299ac324ce5e9a813,64d2fd46c836a06233681665,64dc7fd7757c7ab4466f0aa2,,,,,,,decisionTrl,resources/DP.BMP,resources/DR.BMP,Door1,0.325925898,-0.099074116,1,0,0,1.319799999,optionRight,30,13740,6,31,0,31,0,1,,,,,,,,,,,,,,,,,,,,,,,,,,,,,,,,,,,,,,,
,,,,,,,,2023-08-16_08h58.58.804,HF_wild_card,2022.2.4,Win32,60.12506013,62c8576299ac324ce5e9a813,64d2fd46c836a06233681665,64dc7fd7757c7ab4466f0aa2,,,,,,,decisionTrl,resources/DP.BMP,resources/DY.BMP,WildCard_NonEx,0.378703788,0.027777778,1,0,0,1.994299999,optionRight,55,13795,6,32,0,32,0,1,,,,,,,,,,,,,,,,,,,,,,,,,,,,,,,,,,,,,,,
,,,,,,,,2023-08-16_08h58.58.804,HF_wild_card,2022.2.4,Win32,60.12506013,62c8576299ac324ce5e9a813,64d2fd46c836a06233681665,64dc7fd7757c7ab4466f0aa2,,,,,,,sngl,resources/DY.BMP,resources/Empty.png,WildCard_NonEx,-0.324074074,0.026851831,1,0,0,0.8786,optionLeft,45,13840,6,33,0,33,0,1,,,,,,,,,,,,,,,,,,,,,,,,,,,,,,,,,,,,,,,
,,,,,,,,2023-08-16_08h58.58.804,HF_wild_card,2022.2.4,Win32,60.12506013,62c8576299ac324ce5e9a813,64d2fd46c836a06233681665,64dc7fd7757c7ab4466f0aa2,,,,,,,decisionTrl,resources/DR.BMP,resources/DY.BMP,WildCard_NonEx,0.312037009,0.006481489,1,0,0,1.243700001,optionRight,45,13885,6,34,0,34,0,1,,,,,,,,,,,,,,,,,,,,,,,,,,,,,,,,,,,,,,,
,,,,,,,,2023-08-16_08h58.58.804,HF_wild_card,2022.2.4,Win32,60.12506013,62c8576299ac324ce5e9a813,64d2fd46c836a06233681665,64dc7fd7757c7ab4466f0aa2,,,,,,,decisionTrl,resources/DR.BMP,resources/DP.BMP,Door1,-0.418518526,-0.039814808,1,0,0,1.954299999,optionLeft,30,13915,6,35,0,35,0,1,,,,,,,,,,,,,,,,,,,,,,,,,,,,,,,,,,,,,,,
,,,,,,,,2023-08-16_08h58.58.804,HF_wild_card,2022.2.4,Win32,60.12506013,62c8576299ac324ce5e9a813,64d2fd46c836a06233681665,64dc7fd7757c7ab4466f0aa2,,,,,,,decisionTrl,resources/DB.BMP,resources/DBN.BMP,Door4,-0.3675926,-0.030555548,1,0,0,1.449299999,optionLeft,80,13995,6,36,0,36,0,1,,,,,,,,,,,,,,,,,,,,,,,,,,,,,,,,,,,,,,,
,,,,,,,,2023-08-16_08h58.58.804,HF_wild_card,2022.2.4,Win32,60.12506013,62c8576299ac324ce5e9a813,64d2fd46c836a06233681665,64dc7fd7757c7ab4466f0aa2,,,,,,,decisionTrl,resources/DBN.BMP,resources/DB.BMP,Door3,-0.414814808,0,1,0,0,1.155300001,optionLeft,70,14065,6,37,0,37,0,1,,,,,,,,,,,,,,,,,,,,,,,,,,,,,,,,,,,,,,,
,,,,,,,,2023-08-16_08h58.58.804,HF_wild_card,2022.2.4,Win32,60.12506013,62c8576299ac324ce5e9a813,64d2fd46c836a06233681665,64dc7fd7757c7ab4466f0aa2,,,,,,,sngl,resources/DR.BMP,resources/Empty.png,Door1,-0.289814772,-0.076851845,1,0,0,1.1034,optionLeft,30,14095,6,38,0,38,0,1,,,,,,,,,,,,,,,,,,,,,,,,,,,,,,,,,,,,,,,
,,,,,,,,2023-08-16_08h58.58.804,HF_wild_card,2022.2.4,Win32,60.12506013,62c8576299ac324ce5e9a813,64d2fd46c836a06233681665,64dc7fd7757c7ab4466f0aa2,,,,,,,decisionTrl,resources/DP.BMP,resources/DR.BMP,Door1,0.336111139,-0.070370392,1,0,0,1.1814,optionRight,30,14125,6,39,0,39,0,1,,,,,,,,,,,,,,,,,,,,,,,,,,,,,,,,,,,,,,,
,,,,,,,,2023-08-16_08h58.58.804,HF_wild_card,2022.2.4,Win32,60.12506013,62c8576299ac324ce5e9a813,64d2fd46c836a06233681665,64dc7fd7757c7ab4466f0aa2,,,,,,,decisionTrl,resources/DR.BMP,resources/DP.BMP,Door1,-0.352777764,-0.029629637,1,0,0,0.979200001,optionLeft,30,14155,6,40,0,40,0,1,,,,,,,,,,,,,,,,,,,,,,,,,,,,,,,,,,,,,,,
,,,,,,,,2023-08-16_08h58.58.804,HF_wild_card,2022.2.4,Win32,60.12506013,62c8576299ac324ce5e9a813,64d2fd46c836a06233681665,64dc7fd7757c7ab4466f0aa2,,,,,,,decisionTrl,resources/DBN.BMP,resources/DB.BMP,Door3,-0.39907406,0.025925919,1,0,0,2.7304,optionLeft,70,14225,6,41,0,41,0,1,,,,,,,,,,,,,,,,,,,,,,,,,,,,,,,,,,,,,,,
,,,,,,,,2023-08-16_08h58.58.804,HF_wild_card,2022.2.4,Win32,60.12506013,62c8576299ac324ce5e9a813,64d2fd46c836a06233681665,64dc7fd7757c7ab4466f0aa2,,,,,,,sngl,resources/DY.BMP,resources/Empty.png,WildCard_NonEx,-0.384259259,-0.028703725,1,0,0,0.858300001,optionLeft,55,14280,6,42,0,42,0,1,,,,,,,,,,,,,,,,,,,,,,,,,,,,,,,,,,,,,,,
,,,,,,,,2023-08-16_08h58.58.804,HF_wild_card,2022.2.4,Win32,60.12506013,62c8576299ac324ce5e9a813,64d2fd46c836a06233681665,64dc7fd7757c7ab4466f0aa2,,,,,,,decisionTrl,resources/DP.BMP,resources/DR.BMP,Door1,0.292592578,0.030555548,1,0,0,1.2776,optionRight,30,14310,6,43,0,43,0,1,,,,,,,,,,,,,,,,,,,,,,,,,,,,,,,,,,,,,,,
,,,,,,,,2023-08-16_08h58.58.804,HF_wild_card,2022.2.4,Win32,60.12506013,62c8576299ac324ce5e9a813,64d2fd46c836a06233681665,64dc7fd7757c7ab4466f0aa2,,,,,,,,,,,,,,,,,,,,,,,,,,5,0,5,0,1,,,,,,,,,,,,,,,,,,,,,,,,,,,,,,,,,,
,,,,,,,,2023-08-16_08h58.58.804,HF_wild_card,2022.2.4,Win32,60.12506013,62c8576299ac324ce5e9a813,64d2fd46c836a06233681665,64dc7fd7757c7ab4466f0aa2,,,,,,,decisionTrl,resources/DR.BMP,resources/DP.BMP,Door1,-0.452777757,-0.091666681,1,0,0,2.414200001,optionLeft,30,14340,7,0,0,0,0,1,,,,,,,,,,,,,,,,,,,,,,,,,,,,,,,,,,,,,,,
,,,,,,,,2023-08-16_08h58.58.804,HF_wild_card,2022.2.4,Win32,60.12506013,62c8576299ac324ce5e9a813,64d2fd46c836a06233681665,64dc7fd7757c7ab4466f0aa2,,,,,,,decisionTrl,resources/DB.BMP,resources/DBN.BMP,Door4,-0.331481474,-0.003703718,1,0,0,1.5161,optionLeft,80,14420,7,1,0,1,0,1,,,,,,,,,,,,,,,,,,,,,,,,,,,,,,,,,,,,,,,
,,,,,,,,2023-08-16_08h58.58.804,HF_wild_card,2022.2.4,Win32,60.12506013,62c8576299ac324ce5e9a813,64d2fd46c836a06233681665,64dc7fd7757c7ab4466f0aa2,,,,,,,ctch,resources/DBN.BMP,resources/DP.BMP,Door3,-0.402777778,0.001851859,1,0,0,3.675900002,optionLeft,70,14490,7,2,0,2,0,1,,,,,,,,,,,,,,,,,,,,,,,,,,,,,,,,,,,,,,,
,,,,,,,,2023-08-16_08h58.58.804,HF_wild_card,2022.2.4,Win32,60.12506013,62c8576299ac324ce5e9a813,64d2fd46c836a06233681665,64dc7fd7757c7ab4466f0aa2,,,,,,,ctch,resources/DP.BMP,resources/DBN.BMP,Door3,0.391666695,-0.000925947,1,0,0,1.7556,optionRight,70,14560,7,3,0,3,0,1,,,,,,,,,,,,,,,,,,,,,,,,,,,,,,,,,,,,,,,
,,,,,,,,2023-08-16_08h58.58.804,HF_wild_card,2022.2.4,Win32,60.12506013,62c8576299ac324ce5e9a813,64d2fd46c836a06233681665,64dc7fd7757c7ab4466f0aa2,,,,,,,ctch,resources/DB.BMP,resources/DR.BMP,Door4,-0.336111104,-0.054629644,1,0,0,1.3265,optionLeft,60,14620,7,4,0,4,0,1,,,,,,,,,,,,,,,,,,,,,,,,,,,,,,,,,,,,,,,
,,,,,,,,2023-08-16_08h58.58.804,HF_wild_card,2022.2.4,Win32,60.12506013,62c8576299ac324ce5e9a813,64d2fd46c836a06233681665,64dc7fd7757c7ab4466f0aa2,,,,,,,decisionTrl,resources/DBN.BMP,resources/DB.BMP,Door3,-0.35833334,-0.009259259,1,0,0,1.701,optionLeft,70,14690,7,5,0,5,0,1,,,,,,,,,,,,,,,,,,,,,,,,,,,,,,,,,,,,,,,
,,,,,,,,2023-08-16_08h58.58.804,HF_wild_card,2022.2.4,Win32,60.12506013,62c8576299ac324ce5e9a813,64d2fd46c836a06233681665,64dc7fd7757c7ab4466f0aa2,,,,,,,decisionTrl,resources/DB.BMP,resources/DBN.BMP,Door4,-0.424074067,-0.006481489,1,0,0,1.375,optionLeft,60,14750,7,6,0,6,0,1,,,,,,,,,,,,,,,,,,,,,,,,,,,,,,,,,,,,,,,
,,,,,,,,2023-08-16_08h58.58.804,HF_wild_card,2022.2.4,Win32,60.12506013,62c8576299ac324ce5e9a813,64d2fd46c836a06233681665,64dc7fd7757c7ab4466f0aa2,,,,,,,decisionTrl,resources/DB.BMP,resources/DBN.BMP,Door4,-0.413888896,0.010185171,1,0,0,1.09,optionLeft,60,14810,7,7,0,7,0,1,,,,,,,,,,,,,,,,,,,,,,,,,,,,,,,,,,,,,,,
,,,,,,,,2023-08-16_08h58.58.804,HF_wild_card,2022.2.4,Win32,60.12506013,62c8576299ac324ce5e9a813,64d2fd46c836a06233681665,64dc7fd7757c7ab4466f0aa2,,,,,,,decisionTrl,resources/DBN.BMP,resources/DB.BMP,Door3,-0.374074053,0.01203703,1,0,0,1.662199999,optionLeft,70,14880,7,8,0,8,0,1,,,,,,,,,,,,,,,,,,,,,,,,,,,,,,,,,,,,,,,
,,,,,,,,2023-08-16_08h58.58.804,HF_wild_card,2022.2.4,Win32,60.12506013,62c8576299ac324ce5e9a813,64d2fd46c836a06233681665,64dc7fd7757c7ab4466f0aa2,,,,,,,ctch,resources/DP.BMP,resources/DBN.BMP,Door3,0.368518547,0.025000007,1,0,0,1.3596,optionRight,70,14950,7,9,0,9,0,1,,,,,,,,,,,,,,,,,,,,,,,,,,,,,,,,,,,,,,,
,,,,,,,,2023-08-16_08h58.58.804,HF_wild_card,2022.2.4,Win32,60.12506013,62c8576299ac324ce5e9a813,64d2fd46c836a06233681665,64dc7fd7757c7ab4466f0aa2,,,,,,,decisionTrl,resources/DB.BMP,resources/DBN.BMP,Door4,-0.334259245,-0.010185206,1,0,0,1.226,optionLeft,60,15010,7,10,0,10,0,1,,,,,,,,,,,,,,,,,,,,,,,,,,,,,,,,,,,,,,,
,,,,,,,,2023-08-16_08h58.58.804,HF_wild_card,2022.2.4,Win32,60.12506013,62c8576299ac324ce5e9a813,64d2fd46c836a06233681665,64dc7fd7757c7ab4466f0aa2,,,,,,,ctch,resources/DB.BMP,resources/DR.BMP,Door4,-0.420370349,-0.015740748,1,0,0,1.5964,optionLeft,80,15090,7,11,0,11,0,1,,,,,,,,,,,,,,,,,,,,,,,,,,,,,,,,,,,,,,,
,,,,,,,,2023-08-16_08h58.58.804,HF_wild_card,2022.2.4,Win32,60.12506013,62c8576299ac324ce5e9a813,64d2fd46c836a06233681665,64dc7fd7757c7ab4466f0aa2,,,,,,,decisionTrl,resources/DP.BMP,resources/DR.BMP,Door1,0.346296381,-0.029629637,1,0,0,1.728799999,optionRight,30,15120,7,12,0,12,0,1,,,,,,,,,,,,,,,,,,,,,,,,,,,,,,,,,,,,,,,
,,,,,,,,2023-08-16_08h58.58.804,HF_wild_card,2022.2.4,Win32,60.12506013,62c8576299ac324ce5e9a813,64d2fd46c836a06233681665,64dc7fd7757c7ab4466f0aa2,,,,,,,decisionTrl,resources/DP.BMP,resources/DR.BMP,Door1,0.356481481,-0.018518519,1,0,0,1.389799999,optionRight,30,15150,7,13,0,13,0,1,,,,,,,,,,,,,,,,,,,,,,,,,,,,,,,,,,,,,,,
,,,,,,,,2023-08-16_08h58.58.804,HF_wild_card,2022.2.4,Win32,60.12506013,62c8576299ac324ce5e9a813,64d2fd46c836a06233681665,64dc7fd7757c7ab4466f0aa2,,,,,,,ctch,resources/DBN.BMP,resources/DP.BMP,Door3,-0.287037037,0.045370349,1,0,0,1.458700001,optionLeft,70,15220,7,14,0,14,0,1,,,,,,,,,,,,,,,,,,,,,,,,,,,,,,,,,,,,,,,
,,,,,,,,2023-08-16_08h58.58.804,HF_wild_card,2022.2.4,Win32,60.12506013,62c8576299ac324ce5e9a813,64d2fd46c836a06233681665,64dc7fd7757c7ab4466f0aa2,,,,,,,decisionTrl,resources/DP.BMP,resources/DR.BMP,Door1,0.308333362,-0.037962984,1,0,0,1.365799999,optionRight,30,15250,7,15,0,15,0,1,,,,,,,,,,,,,,,,,,,,,,,,,,,,,,,,,,,,,,,
,,,,,,,,2023-08-16_08h58.58.804,HF_wild_card,2022.2.4,Win32,60.12506013,62c8576299ac324ce5e9a813,64d2fd46c836a06233681665,64dc7fd7757c7ab4466f0aa2,,,,,,,ctch,resources/DBN.BMP,resources/DP.BMP,Door3,-0.35833334,0.076851845,1,0,0,1.1304,optionLeft,70,15320,7,16,0,16,0,1,,,,,,,,,,,,,,,,,,,,,,,,,,,,,,,,,,,,,,,
,,,,,,,,2023-08-16_08h58.58.804,HF_wild_card,2022.2.4,Win32,60.12506013,62c8576299ac324ce5e9a813,64d2fd46c836a06233681665,64dc7fd7757c7ab4466f0aa2,,,,,,,ctch,resources/DR.BMP,resources/DB.BMP,Door4,0.215740769,-0.062037044,1,0,0,1.664,optionRight,80,15400,7,17,0,17,0,1,,,,,,,,,,,,,,,,,,,,,,,,,,,,,,,,,,,,,,,
,,,,,,,,2023-08-16_08h58.58.804,HF_wild_card,2022.2.4,Win32,60.12506013,62c8576299ac324ce5e9a813,64d2fd46c836a06233681665,64dc7fd7757c7ab4466f0aa2,,,,,,,decisionTrl,resources/DP.BMP,resources/DR.BMP,Door1,0.252777806,-0.162962949,1,0,0,2.1804,optionRight,30,15430,7,18,0,18,0,1,,,,,,,,,,,,,,,,,,,,,,,,,,,,,,,,,,,,,,,
,,,,,,,,2023-08-16_08h58.58.804,HF_wild_card,2022.2.4,Win32,60.12506013,62c8576299ac324ce5e9a813,64d2fd46c836a06233681665,64dc7fd7757c7ab4466f0aa2,,,,,,,decisionTrl,resources/DBN.BMP,resources/DB.BMP,Door3,-0.356481481,-0.000925947,1,0,0,1.7104,optionLeft,70,15500,7,19,0,19,0,1,,,,,,,,,,,,,,,,,,,,,,,,,,,,,,,,,,,,,,,
,,,,,,,,2023-08-16_08h58.58.804,HF_wild_card,2022.2.4,Win32,60.12506013,62c8576299ac324ce5e9a813,64d2fd46c836a06233681665,64dc7fd7757c7ab4466f0aa2,,,,,,,ctch,resources/DR.BMP,resources/DB.BMP,Door4,0.357407464,-0.062962956,1,0,0,1.210299999,optionRight,60,15560,7,20,0,20,0,1,,,,,,,,,,,,,,,,,,,,,,,,,,,,,,,,,,,,,,,
,,,,,,,,2023-08-16_08h58.58.804,HF_wild_card,2022.2.4,Win32,60.12506013,62c8576299ac324ce5e9a813,64d2fd46c836a06233681665,64dc7fd7757c7ab4466f0aa2,,,,,,,decisionTrl,resources/DBN.BMP,resources/DB.BMP,Door3,-0.318518497,0.009259259,1,0,0,1.3964,optionLeft,70,15630,7,21,0,21,0,1,,,,,,,,,,,,,,,,,,,,,,,,,,,,,,,,,,,,,,,
,,,,,,,,2023-08-16_08h58.58.804,HF_wild_card,2022.2.4,Win32,60.12506013,62c8576299ac324ce5e9a813,64d2fd46c836a06233681665,64dc7fd7757c7ab4466f0aa2,,,,,,,decisionTrl,resources/DR.BMP,resources/DP.BMP,Door1,-0.416666667,-0.046296296,1,0,0,1.5946,optionLeft,30,15660,7,22,0,22,0,1,,,,,,,,,,,,,,,,,,,,,,,,,,,,,,,,,,,,,,,
,,,,,,,,2023-08-16_08h58.58.804,HF_wild_card,2022.2.4,Win32,60.12506013,62c8576299ac324ce5e9a813,64d2fd46c836a06233681665,64dc7fd7757c7ab4466f0aa2,,,,,,,decisionTrl,resources/DB.BMP,resources/DBN.BMP,Door4,-0.481481481,-0.035185178,1,0,0,1.178199999,optionLeft,80,15740,7,23,0,23,0,1,,,,,,,,,,,,,,,,,,,,,,,,,,,,,,,,,,,,,,,
,,,,,,,,2023-08-16_08h58.58.804,HF_wild_card,2022.2.4,Win32,60.12506013,62c8576299ac324ce5e9a813,64d2fd46c836a06233681665,64dc7fd7757c7ab4466f0aa2,,,,,,,decisionTrl,resources/DBN.BMP,resources/DB.BMP,Door3,-0.388888889,0.001851859,1,0,0,1.414400002,optionLeft,70,15810,7,24,0,24,0,1,,,,,,,,,,,,,,,,,,,,,,,,,,,,,,,,,,,,,,,
,,,,,,,,2023-08-16_08h58.58.804,HF_wild_card,2022.2.4,Win32,60.12506013,62c8576299ac324ce5e9a813,64d2fd46c836a06233681665,64dc7fd7757c7ab4466f0aa2,,,,,,,decisionTrl,resources/DB.BMP,resources/DBN.BMP,Door4,-0.487037023,-0.022222236,1,0,0,1.3649,optionLeft,60,15870,7,25,0,25,0,1,,,,,,,,,,,,,,,,,,,,,,,,,,,,,,,,,,,,,,,
,,,,,,,,2023-08-16_08h58.58.804,HF_wild_card,2022.2.4,Win32,60.12506013,62c8576299ac324ce5e9a813,64d2fd46c836a06233681665,64dc7fd7757c7ab4466f0aa2,,,,,,,decisionTrl,resources/DP.BMP,resources/DR.BMP,Door1,0.341666751,-0.023148148,1,0,0,1.315700001,optionRight,30,15900,7,26,0,26,0,1,,,,,,,,,,,,,,,,,,,,,,,,,,,,,,,,,,,,,,,
,,,,,,,,2023-08-16_08h58.58.804,HF_wild_card,2022.2.4,Win32,60.12506013,62c8576299ac324ce5e9a813,64d2fd46c836a06233681665,64dc7fd7757c7ab4466f0aa2,,,,,,,decisionTrl,resources/DR.BMP,resources/DP.BMP,Door1,-0.312037044,-0.038888896,1,0,0,2.029,optionLeft,30,15930,7,27,0,27,0,1,,,,,,,,,,,,,,,,,,,,,,,,,,,,,,,,,,,,,,,
,,,,,,,,2023-08-16_08h58.58.804,HF_wild_card,2022.2.4,Win32,60.12506013,62c8576299ac324ce5e9a813,64d2fd46c836a06233681665,64dc7fd7757c7ab4466f0aa2,,,,,,,decisionTrl,resources/DR.BMP,resources/DP.BMP,Door1,-0.351851852,-0.050925926,1,0,0,2.300099998,optionLeft,30,15960,7,28,0,28,0,1,,,,,,,,,,,,,,,,,,,,,,,,,,,,,,,,,,,,,,,
,,,,,,,,2023-08-16_08h58.58.804,HF_wild_card,2022.2.4,Win32,60.12506013,62c8576299ac324ce5e9a813,64d2fd46c836a06233681665,64dc7fd7757c7ab4466f0aa2,,,,,,,decisionTrl,resources/DP.BMP,resources/DR.BMP,Door1,0.375,-0.051851873,1,0,0,1.349699999,optionRight,30,15990,7,29,0,29,0,1,,,,,,,,,,,,,,,,,,,,,,,,,,,,,,,,,,,,,,,
,,,,,,,,2023-08-16_08h58.58.804,HF_wild_card,2022.2.4,Win32,60.12506013,62c8576299ac324ce5e9a813,64d2fd46c836a06233681665,64dc7fd7757c7ab4466f0aa2,,,,,,,decisionTrl,resources/DR.BMP,resources/DP.BMP,Door1,-0.334259245,-0.058333326,1,0,0,1.5626,optionLeft,30,16020,7,30,0,30,0,1,,,,,,,,,,,,,,,,,,,,,,,,,,,,,,,,,,,,,,,
,,,,,,,,2023-08-16_08h58.58.804,HF_wild_card,2022.2.4,Win32,60.12506013,62c8576299ac324ce5e9a813,64d2fd46c836a06233681665,64dc7fd7757c7ab4466f0aa2,,,,,,,ctch,resources/DP.BMP,resources/DBN.BMP,Door3,0.339814787,0.010185171,1,0,0,1.508,optionRight,70,16090,7,31,0,31,0,1,,,,,,,,,,,,,,,,,,,,,,,,,,,,,,,,,,,,,,,
,,,,,,,,2023-08-16_08h58.58.804,HF_wild_card,2022.2.4,Win32,60.12506013,62c8576299ac324ce5e9a813,64d2fd46c836a06233681665,64dc7fd7757c7ab4466f0aa2,,,,,,,ctch,resources/DB.BMP,resources/DR.BMP,Door4,-0.326851845,-0.040740755,1,0,0,1.091800001,optionLeft,80,16170,7,32,0,32,0,1,,,,,,,,,,,,,,,,,,,,,,,,,,,,,,,,,,,,,,,
,,,,,,,,2023-08-16_08h58.58.804,HF_wild_card,2022.2.4,Win32,60.12506013,62c8576299ac324ce5e9a813,64d2fd46c836a06233681665,64dc7fd7757c7ab4466f0aa2,,,,,,,decisionTrl,resources/DBN.BMP,resources/DB.BMP,Door3,-0.434259238,0.006481489,1,0,0,1.446800001,optionLeft,70,16240,7,33,0,33,0,1,,,,,,,,,,,,,,,,,,,,,,,,,,,,,,,,,,,,,,,
,,,,,,,,2023-08-16_08h58.58.804,HF_wild_card,2022.2.4,Win32,60.12506013,62c8576299ac324ce5e9a813,64d2fd46c836a06233681665,64dc7fd7757c7ab4466f0aa2,,,,,,,ctch,resources/DR.BMP,resources/DB.BMP,Door4,0.371296353,-0.040740755,1,0,0,2.211799999,optionRight,60,16300,7,34,0,34,0,1,,,,,,,,,,,,,,,,,,,,,,,,,,,,,,,,,,,,,,,
,,,,,,,,2023-08-16_08h58.58.804,HF_wild_card,2022.2.4,Win32,60.12506013,62c8576299ac324ce5e9a813,64d2fd46c836a06233681665,64dc7fd7757c7ab4466f0aa2,,,,,,,decisionTrl,resources/DR.BMP,resources/DP.BMP,Door1,-0.381481489,-0.029629637,1,0,0,1.3594,optionLeft,30,16330,7,35,0,35,0,1,,,,,,,,,,,,,,,,,,,,,,,,,,,,,,,,,,,,,,,
,,,,,,,,2023-08-16_08h58.58.804,HF_wild_card,2022.2.4,Win32,60.12506013,62c8576299ac324ce5e9a813,64d2fd46c836a06233681665,64dc7fd7757c7ab4466f0aa2,,,,,,,,,,,,,,,,,,,,,,,,,,6,0,6,0,1,,,,,,,,,,,,,,,,,,,,,,,,,,,,,,,,,,
,,,,,,,,2023-08-16_08h58.58.804,HF_wild_card,2022.2.4,Win32,60.12506013,62c8576299ac324ce5e9a813,64d2fd46c836a06233681665,64dc7fd7757c7ab4466f0aa2,,,,,,,,,,,,,,,,,,,,,,,,,,,,,,,4,,,,,,,,,,,,,,,,,,,,,,,,,,,,,,,,,
,,,,,,,,2023-08-16_08h58.58.804,HF_wild_card,2022.2.4,Win32,60.12506013,62c8576299ac324ce5e9a813,64d2fd46c836a06233681665,64dc7fd7757c7ab4466f0aa2,,,,,,,,,,,,,,,,,,,,,,,,,,,,,,,,,,,,,,,,,,,,,,,,,,,,,,,,,,,,,,,,
,,,,,,,,2023-08-16_08h58.58.804,HF_wild_card,2022.2.4,Win32,60.12506013,62c8576299ac324ce5e9a813,64d2fd46c836a06233681665,64dc7fd7757c7ab4466f0aa2,,,,,,,,,,,,,,,,,,,,,,,,,,,,,,,,5,WC_extreme,resources/DG.BMP,0,0,0,0,1,,,,,,,,,,,,,,,,,,,,,,,,,
,,,,,,,,2023-08-16_08h58.58.804,HF_wild_card,2022.2.4,Win32,60.12506013,62c8576299ac324ce5e9a813,64d2fd46c836a06233681665,64dc7fd7757c7ab4466f0aa2,,,,,,,,,,,,,,,,,,,,,,,,,,,,,,,,45,WC_nonExtreme,resources/DY.BMP,1,0,1,0,1,,,,,,,,,,,,,,,,,,,,,,,,,
,,,,,,,,2023-08-16_08h58.58.804,HF_wild_card,2022.2.4,Win32,60.12506013,62c8576299ac324ce5e9a813,64d2fd46c836a06233681665,64dc7fd7757c7ab4466f0aa2,,,,,,,,,,,,,,,,,,,,,,,,,,,,,,,,30,Door1,resources/DR.BMP,2,0,2,0,1,,,,,,,,,,,,,,,,,,,,,,,,,
,,,,,,,,2023-08-16_08h58.58.804,HF_wild_card,2022.2.4,Win32,60.12506013,62c8576299ac324ce5e9a813,64d2fd46c836a06233681665,64dc7fd7757c7ab4466f0aa2,,,,,,,,,,,,,,,,,,,,,,,,,,,,,,,,70,Door3,resources/DBN.BMP,3,0,3,0,1,,,,,,,,,,,,,,,,,,,,,,,,,
