Condition,Low fixed image (Door1),Low risky image (Door2),High fixed image (Door3),High risky image (Door4),Extreme Wild Card,NonExtreme Wild Card,,date,expName,psychopyVersion,OS,frameRate,PROLIFIC_PID,STUDY_ID,SESSION_ID,mouse_2.x,mouse_2.y,mouse_2.leftButton,mouse_2.midButton,mouse_2.rightButton,mouse_2.clicked_name,Trial Type,Left Option Image,Right Option Image,Chosen Door,mouse.x,mouse.y,mouse.leftButton,mouse.midButton,mouse.rightButton,mouse.time,mouse.clicked_name,Feedback,Cumulative Reward,Block,trial.thisRepN,trial.thisTrialN,trial.thisN,trial.thisIndex,trial.ran,blocks.thisRepN,blocks.thisTrialN,blocks.thisN,blocks.thisIndex,blocks.ran,Money conversion,First Outcome Reported,Shown Door (First Outcome),Displayed Image (First Outcome),outcomes.thisRepN,outcomes.thisTrialN,outcomes.thisN,outcomes.thisIndex,outcomes.ran,judgments.thisRepN,judgments.thisTrialN,judgments.thisN,judgments.thisIndex,judgments.ran,freqMouse.x,freqMouse.y,freqMouse.leftButton,freqMouse.midButton,freqMouse.rightButton,freqMouse.clicked_name,FQJ for first outcome,FQJ for second outcome,Shown Door,Displayed Image,trials.thisRepN,trials.thisTrialN,trials.thisN,trials.thisIndex,trials.ran,judgBlock.thisRepN,judgBlock.thisTrialN,judgBlock.thisN,judgBlock.thisIndex,judgBlock.ran
1,resources/DB.BMP,resources/DG.BMP,resources/DR.BMP,resources/DP.BMP,resources/DY.BMP,resources/DBN.BMP,,2023-08-16_08h44.21.235,HF_wild_card,2022.2.4,Linux x86_64,60.0240096,59269aac7724de000109190f,64d2fd46c836a06233681665,64dc7e4ab080931385feb1e3,,,,,,,,,,,,,,,,,,,,,,,,,,,,,,,,,,,,,,,,,,,,,,,,,,,,,,,,,,,,,,,,
,,,,,,,,2023-08-16_08h44.21.235,HF_wild_card,2022.2.4,Linux x86_64,60.0240096,59269aac7724de000109190f,64d2fd46c836a06233681665,64dc7e4ab080931385feb1e3,-0.001484694,-0.423219116,1,0,0,agree,,,,,,,,,,,,,,,,,,,,,,,,,,,,,,,,,,,,,,,,,,,,,,,,,,,,,,,,,,
,,,,,,,,2023-08-16_08h44.21.235,HF_wild_card,2022.2.4,Linux x86_64,60.0240096,59269aac7724de000109190f,64d2fd46c836a06233681665,64dc7e4ab080931385feb1e3,,,,,,,,,,,,,,,,,,,,,,,,,,,,,,,,,,,,,,,,,,,,,,,,,,,,,,,,,,,,,,,,
,,,,,,,,2023-08-16_08h44.21.235,HF_wild_card,2022.2.4,Linux x86_64,60.0240096,59269aac7724de000109190f,64d2fd46c836a06233681665,64dc7e4ab080931385feb1e3,,,,,,,ctch,resources/DB.BMP,resources/DP.BMP,Door1,-0.414805377,-0.051447268,1,0,0,2.7808,optionLeft,30,30,1,0,0,0,0,1,,,,,,,,,,,,,,,,,,,,,,,,,,,,,,,,,,,,,,,
,,,,,,,,2023-08-16_08h44.21.235,HF_wild_card,2022.2.4,Linux x86_64,60.0240096,59269aac7724de000109190f,64d2fd46c836a06233681665,64dc7e4ab080931385feb1e3,,,,,,,sngl,resources/DP.BMP,resources/Empty.png,Door4,-0.382078983,-0.068353688,1,0,0,2.5918,optionLeft,80,110,1,1,0,1,0,1,,,,,,,,,,,,,,,,,,,,,,,,,,,,,,,,,,,,,,,
,,,,,,,,2023-08-16_08h44.21.235,HF_wild_card,2022.2.4,Linux x86_64,60.0240096,59269aac7724de000109190f,64d2fd46c836a06233681665,64dc7e4ab080931385feb1e3,,,,,,,decisionTrl,resources/DB.BMP,resources/DG.BMP,Door2,0.439183553,-0.038081204,1,0,0,1.7958,optionRight,20,130,1,2,0,2,0,1,,,,,,,,,,,,,,,,,,,,,,,,,,,,,,,,,,,,,,,
,,,,,,,,2023-08-16_08h44.21.235,HF_wild_card,2022.2.4,Linux x86_64,60.0240096,59269aac7724de000109190f,64d2fd46c836a06233681665,64dc7e4ab080931385feb1e3,,,,,,,ctch,resources/DR.BMP,resources/DG.BMP,Door3,-0.404641928,-0.05212533,1,0,0,2.1458,optionLeft,70,200,1,3,0,3,0,1,,,,,,,,,,,,,,,,,,,,,,,,,,,,,,,,,,,,,,,
,,,,,,,,2023-08-16_08h44.21.235,HF_wild_card,2022.2.4,Linux x86_64,60.0240096,59269aac7724de000109190f,64d2fd46c836a06233681665,64dc7e4ab080931385feb1e3,,,,,,,sngl,resources/DB.BMP,resources/Empty.png,Door1,-0.407445272,-0.046975666,1,0,0,2.1225,optionLeft,30,230,1,4,0,4,0,1,,,,,,,,,,,,,,,,,,,,,,,,,,,,,,,,,,,,,,,
,,,,,,,,2023-08-16_08h44.21.235,HF_wild_card,2022.2.4,Linux x86_64,60.0240096,59269aac7724de000109190f,64d2fd46c836a06233681665,64dc7e4ab080931385feb1e3,,,,,,,decisionTrl,resources/DR.BMP,resources/DP.BMP,Door4,0.426048279,-0.038857319,1,0,0,2.3789,optionRight,80,310,1,5,0,5,0,1,,,,,,,,,,,,,,,,,,,,,,,,,,,,,,,,,,,,,,,
,,,,,,,,2023-08-16_08h44.21.235,HF_wild_card,2022.2.4,Linux x86_64,60.0240096,59269aac7724de000109190f,64d2fd46c836a06233681665,64dc7e4ab080931385feb1e3,,,,,,,decisionTrl,resources/DB.BMP,resources/DG.BMP,Door1,-0.411800349,-0.047989245,1,0,0,1.7453,optionLeft,30,340,1,6,0,6,0,1,,,,,,,,,,,,,,,,,,,,,,,,,,,,,,,,,,,,,,,
,,,,,,,,2023-08-16_08h44.21.235,HF_wild_card,2022.2.4,Linux x86_64,60.0240096,59269aac7724de000109190f,64d2fd46c836a06233681665,64dc7e4ab080931385feb1e3,,,,,,,decisionTrl,resources/DBN.BMP,resources/DB.BMP,WildCard_NonEx,-0.394687794,-0.015852822,1,0,0,1.712,optionLeft,55,395,1,7,0,7,0,1,,,,,,,,,,,,,,,,,,,,,,,,,,,,,,,,,,,,,,,
,,,,,,,,2023-08-16_08h44.21.235,HF_wild_card,2022.2.4,Linux x86_64,60.0240096,59269aac7724de000109190f,64d2fd46c836a06233681665,64dc7e4ab080931385feb1e3,,,,,,,sngl,resources/Empty.png,resources/DB.BMP,Door1,0.384513996,-0.049104867,1,0,0,1.1929,optionRight,30,425,1,8,0,8,0,1,,,,,,,,,,,,,,,,,,,,,,,,,,,,,,,,,,,,,,,
,,,,,,,,2023-08-16_08h44.21.235,HF_wild_card,2022.2.4,Linux x86_64,60.0240096,59269aac7724de000109190f,64d2fd46c836a06233681665,64dc7e4ab080931385feb1e3,,,,,,,decisionTrl,resources/DP.BMP,resources/DR.BMP,Door4,-0.38796771,-0.059120072,1,0,0,1.5623,optionLeft,80,505,1,9,0,9,0,1,,,,,,,,,,,,,,,,,,,,,,,,,,,,,,,,,,,,,,,
,,,,,,,,2023-08-16_08h44.21.235,HF_wild_card,2022.2.4,Linux x86_64,60.0240096,59269aac7724de000109190f,64d2fd46c836a06233681665,64dc7e4ab080931385feb1e3,,,,,,,decisionTrl,resources/DBN.BMP,resources/DP.BMP,Door4,0.398830696,-0.055228798,1,0,0,1.8913,optionRight,80,585,1,10,0,10,0,1,,,,,,,,,,,,,,,,,,,,,,,,,,,,,,,,,,,,,,,
,,,,,,,,2023-08-16_08h44.21.235,HF_wild_card,2022.2.4,Linux x86_64,60.0240096,59269aac7724de000109190f,64d2fd46c836a06233681665,64dc7e4ab080931385feb1e3,,,,,,,decisionTrl,resources/DB.BMP,resources/DG.BMP,Door2,0.409740731,-0.052140942,1,0,0,4.4574,optionRight,40,625,1,11,0,11,0,1,,,,,,,,,,,,,,,,,,,,,,,,,,,,,,,,,,,,,,,
,,,,,,,,2023-08-16_08h44.21.235,HF_wild_card,2022.2.4,Linux x86_64,60.0240096,59269aac7724de000109190f,64d2fd46c836a06233681665,64dc7e4ab080931385feb1e3,,,,,,,ctch,resources/DG.BMP,resources/DR.BMP,Door3,0.363234485,-0.050133387,1,0,0,1.93,optionRight,70,695,1,12,0,12,0,1,,,,,,,,,,,,,,,,,,,,,,,,,,,,,,,,,,,,,,,
,,,,,,,,2023-08-16_08h44.21.235,HF_wild_card,2022.2.4,Linux x86_64,60.0240096,59269aac7724de000109190f,64d2fd46c836a06233681665,64dc7e4ab080931385feb1e3,,,,,,,decisionTrl,resources/DG.BMP,resources/DB.BMP,Door2,-0.337723838,-0.024265042,1,0,0,2.8129,optionLeft,20,715,1,13,0,13,0,1,,,,,,,,,,,,,,,,,,,,,,,,,,,,,,,,,,,,,,,
,,,,,,,,2023-08-16_08h44.21.235,HF_wild_card,2022.2.4,Linux x86_64,60.0240096,59269aac7724de000109190f,64d2fd46c836a06233681665,64dc7e4ab080931385feb1e3,,,,,,,ctch,resources/DR.BMP,resources/DG.BMP,Door3,-0.387235324,-0.043649815,1,0,0,1.4293,optionLeft,70,785,1,14,0,14,0,1,,,,,,,,,,,,,,,,,,,,,,,,,,,,,,,,,,,,,,,
,,,,,,,,2023-08-16_08h44.21.235,HF_wild_card,2022.2.4,Linux x86_64,60.0240096,59269aac7724de000109190f,64d2fd46c836a06233681665,64dc7e4ab080931385feb1e3,,,,,,,decisionTrl,resources/DB.BMP,resources/DBN.BMP,WildCard_NonEx,0.39218394,-0.000281722,1,0,0,2.1042,optionRight,55,840,1,15,0,15,0,1,,,,,,,,,,,,,,,,,,,,,,,,,,,,,,,,,,,,,,,
,,,,,,,,2023-08-16_08h44.21.235,HF_wild_card,2022.2.4,Linux x86_64,60.0240096,59269aac7724de000109190f,64d2fd46c836a06233681665,64dc7e4ab080931385feb1e3,,,,,,,decisionTrl,resources/DG.BMP,resources/DB.BMP,Door2,-0.351735927,-0.039364108,1,0,0,2.5008,optionLeft,20,860,1,16,0,16,0,1,,,,,,,,,,,,,,,,,,,,,,,,,,,,,,,,,,,,,,,
,,,,,,,,2023-08-16_08h44.21.235,HF_wild_card,2022.2.4,Linux x86_64,60.0240096,59269aac7724de000109190f,64d2fd46c836a06233681665,64dc7e4ab080931385feb1e3,,,,,,,decisionTrl,resources/DB.BMP,resources/DG.BMP,Door1,-0.368925695,-0.062742339,1,0,0,1.3833,optionLeft,30,890,1,17,0,17,0,1,,,,,,,,,,,,,,,,,,,,,,,,,,,,,,,,,,,,,,,
,,,,,,,,2023-08-16_08h44.21.235,HF_wild_card,2022.2.4,Linux x86_64,60.0240096,59269aac7724de000109190f,64d2fd46c836a06233681665,64dc7e4ab080931385feb1e3,,,,,,,decisionTrl,resources/DBN.BMP,resources/DR.BMP,Door3,0.412549337,-0.062837636,1,0,0,1.3297,optionRight,70,960,1,18,0,18,0,1,,,,,,,,,,,,,,,,,,,,,,,,,,,,,,,,,,,,,,,
,,,,,,,,2023-08-16_08h44.21.235,HF_wild_card,2022.2.4,Linux x86_64,60.0240096,59269aac7724de000109190f,64d2fd46c836a06233681665,64dc7e4ab080931385feb1e3,,,,,,,sngl,resources/DR.BMP,resources/Empty.png,Door3,-0.393396272,-0.050562223,1,0,0,1.1262,optionLeft,70,1030,1,19,0,19,0,1,,,,,,,,,,,,,,,,,,,,,,,,,,,,,,,,,,,,,,,
,,,,,,,,2023-08-16_08h44.21.235,HF_wild_card,2022.2.4,Linux x86_64,60.0240096,59269aac7724de000109190f,64d2fd46c836a06233681665,64dc7e4ab080931385feb1e3,,,,,,,sngl,resources/DBN.BMP,resources/Empty.png,WildCard_NonEx,-0.387968099,-0.018682586,1,0,0,1.0438,optionLeft,45,1075,1,20,0,20,0,1,,,,,,,,,,,,,,,,,,,,,,,,,,,,,,,,,,,,,,,
,,,,,,,,2023-08-16_08h44.21.235,HF_wild_card,2022.2.4,Linux x86_64,60.0240096,59269aac7724de000109190f,64d2fd46c836a06233681665,64dc7e4ab080931385feb1e3,,,,,,,decisionTrl,resources/DG.BMP,resources/DBN.BMP,WildCard_NonEx,0.42015768,-0.028145366,1,0,0,2.3661,optionRight,55,1130,1,21,0,21,0,1,,,,,,,,,,,,,,,,,,,,,,,,,,,,,,,,,,,,,,,
,,,,,,,,2023-08-16_08h44.21.235,HF_wild_card,2022.2.4,Linux x86_64,60.0240096,59269aac7724de000109190f,64d2fd46c836a06233681665,64dc7e4ab080931385feb1e3,,,,,,,sngl,resources/Empty.png,resources/DBN.BMP,WildCard_NonEx,0.414312716,-0.002821075,1,0,0,1.2813,optionRight,55,1185,1,22,0,22,0,1,,,,,,,,,,,,,,,,,,,,,,,,,,,,,,,,,,,,,,,
,,,,,,,,2023-08-16_08h44.21.235,HF_wild_card,2022.2.4,Linux x86_64,60.0240096,59269aac7724de000109190f,64d2fd46c836a06233681665,64dc7e4ab080931385feb1e3,,,,,,,ctch,resources/DG.BMP,resources/DR.BMP,Door3,0.380337044,-0.050972939,1,0,0,1.6012,optionRight,70,1255,1,23,0,23,0,1,,,,,,,,,,,,,,,,,,,,,,,,,,,,,,,,,,,,,,,
,,,,,,,,2023-08-16_08h44.21.235,HF_wild_card,2022.2.4,Linux x86_64,60.0240096,59269aac7724de000109190f,64d2fd46c836a06233681665,64dc7e4ab080931385feb1e3,,,,,,,sngl,resources/DG.BMP,resources/Empty.png,Door2,-0.372440939,-0.051629349,1,0,0,1.195,optionLeft,40,1295,1,24,0,24,0,1,,,,,,,,,,,,,,,,,,,,,,,,,,,,,,,,,,,,,,,
,,,,,,,,2023-08-16_08h44.21.235,HF_wild_card,2022.2.4,Linux x86_64,60.0240096,59269aac7724de000109190f,64d2fd46c836a06233681665,64dc7e4ab080931385feb1e3,,,,,,,sngl,resources/Empty.png,resources/DBN.BMP,WildCard_NonEx,0.398269653,-0.017451322,1,0,0,0.9796,optionRight,45,1340,1,25,0,25,0,1,,,,,,,,,,,,,,,,,,,,,,,,,,,,,,,,,,,,,,,
,,,,,,,,2023-08-16_08h44.21.235,HF_wild_card,2022.2.4,Linux x86_64,60.0240096,59269aac7724de000109190f,64d2fd46c836a06233681665,64dc7e4ab080931385feb1e3,,,,,,,decisionTrl,resources/DG.BMP,resources/DB.BMP,Door1,0.405690087,-0.049253499,1,0,0,2.2274,optionRight,30,1370,1,26,0,26,0,1,,,,,,,,,,,,,,,,,,,,,,,,,,,,,,,,,,,,,,,
,,,,,,,,2023-08-16_08h44.21.235,HF_wild_card,2022.2.4,Linux x86_64,60.0240096,59269aac7724de000109190f,64d2fd46c836a06233681665,64dc7e4ab080931385feb1e3,,,,,,,decisionTrl,resources/DP.BMP,resources/DR.BMP,Door4,-0.417533875,-0.11151999,1,0,0,2.2956,optionLeft,80,1450,1,27,0,27,0,1,,,,,,,,,,,,,,,,,,,,,,,,,,,,,,,,,,,,,,,
,,,,,,,,2023-08-16_08h44.21.235,HF_wild_card,2022.2.4,Linux x86_64,60.0240096,59269aac7724de000109190f,64d2fd46c836a06233681665,64dc7e4ab080931385feb1e3,,,,,,,ctch,resources/DP.BMP,resources/DB.BMP,Door4,-0.372836078,-0.044815028,1,0,0,0.9965,optionLeft,60,1510,1,28,0,28,0,1,,,,,,,,,,,,,,,,,,,,,,,,,,,,,,,,,,,,,,,
,,,,,,,,2023-08-16_08h44.21.235,HF_wild_card,2022.2.4,Linux x86_64,60.0240096,59269aac7724de000109190f,64d2fd46c836a06233681665,64dc7e4ab080931385feb1e3,,,,,,,ctch,resources/DP.BMP,resources/DB.BMP,Door4,-0.273163124,-0.02693865,1,0,0,0.9113,optionLeft,80,1590,1,29,0,29,0,1,,,,,,,,,,,,,,,,,,,,,,,,,,,,,,,,,,,,,,,
,,,,,,,,2023-08-16_08h44.21.235,HF_wild_card,2022.2.4,Linux x86_64,60.0240096,59269aac7724de000109190f,64d2fd46c836a06233681665,64dc7e4ab080931385feb1e3,,,,,,,decisionTrl,resources/DP.BMP,resources/DR.BMP,Door4,-0.398389746,-0.051992134,1,0,0,0.7665,optionLeft,60,1650,1,30,0,30,0,1,,,,,,,,,,,,,,,,,,,,,,,,,,,,,,,,,,,,,,,
,,,,,,,,2023-08-16_08h44.21.235,HF_wild_card,2022.2.4,Linux x86_64,60.0240096,59269aac7724de000109190f,64d2fd46c836a06233681665,64dc7e4ab080931385feb1e3,,,,,,,decisionTrl,resources/DBN.BMP,resources/DG.BMP,WildCard_NonEx,-0.393285893,-0.013229335,1,0,0,1.5809,optionLeft,55,1705,1,31,0,31,0,1,,,,,,,,,,,,,,,,,,,,,,,,,,,,,,,,,,,,,,,
,,,,,,,,2023-08-16_08h44.21.235,HF_wild_card,2022.2.4,Linux x86_64,60.0240096,59269aac7724de000109190f,64d2fd46c836a06233681665,64dc7e4ab080931385feb1e3,,,,,,,sngl,resources/Empty.png,resources/DP.BMP,Door4,0.41041904,-0.040891753,1,0,0,1.0967,optionRight,60,1765,1,32,0,32,0,1,,,,,,,,,,,,,,,,,,,,,,,,,,,,,,,,,,,,,,,
,,,,,,,,2023-08-16_08h44.21.235,HF_wild_card,2022.2.4,Linux x86_64,60.0240096,59269aac7724de000109190f,64d2fd46c836a06233681665,64dc7e4ab080931385feb1e3,,,,,,,sngl,resources/Empty.png,resources/DG.BMP,Door2,0.402731295,-0.022110445,1,0,0,1.1304,optionRight,20,1785,1,33,0,33,0,1,,,,,,,,,,,,,,,,,,,,,,,,,,,,,,,,,,,,,,,
,,,,,,,,2023-08-16_08h44.21.235,HF_wild_card,2022.2.4,Linux x86_64,60.0240096,59269aac7724de000109190f,64d2fd46c836a06233681665,64dc7e4ab080931385feb1e3,,,,,,,decisionTrl,resources/DR.BMP,resources/DP.BMP,Door4,0.412149359,-0.057180299,1,0,0,1.7435,optionRight,80,1865,1,34,0,34,0,1,,,,,,,,,,,,,,,,,,,,,,,,,,,,,,,,,,,,,,,
,,,,,,,,2023-08-16_08h44.21.235,HF_wild_card,2022.2.4,Linux x86_64,60.0240096,59269aac7724de000109190f,64d2fd46c836a06233681665,64dc7e4ab080931385feb1e3,,,,,,,decisionTrl,resources/DG.BMP,resources/DB.BMP,Door1,0.375783143,-0.039905371,1,0,0,1.7296,optionRight,30,1895,1,35,0,35,0,1,,,,,,,,,,,,,,,,,,,,,,,,,,,,,,,,,,,,,,,
,,,,,,,,2023-08-16_08h44.21.235,HF_wild_card,2022.2.4,Linux x86_64,60.0240096,59269aac7724de000109190f,64d2fd46c836a06233681665,64dc7e4ab080931385feb1e3,,,,,,,decisionTrl,resources/DR.BMP,resources/DP.BMP,Door3,-0.379998666,-0.050656319,1,0,0,1.6141,optionLeft,70,1965,1,36,0,36,0,1,,,,,,,,,,,,,,,,,,,,,,,,,,,,,,,,,,,,,,,
,,,,,,,,2023-08-16_08h44.21.235,HF_wild_card,2022.2.4,Linux x86_64,60.0240096,59269aac7724de000109190f,64d2fd46c836a06233681665,64dc7e4ab080931385feb1e3,,,,,,,decisionTrl,resources/DR.BMP,resources/DP.BMP,Door4,0.417279561,-0.096121611,1,0,0,1.7792,optionRight,80,2045,1,37,0,37,0,1,,,,,,,,,,,,,,,,,,,,,,,,,,,,,,,,,,,,,,,
,,,,,,,,2023-08-16_08h44.21.235,HF_wild_card,2022.2.4,Linux x86_64,60.0240096,59269aac7724de000109190f,64d2fd46c836a06233681665,64dc7e4ab080931385feb1e3,,,,,,,decisionTrl,resources/DP.BMP,resources/DR.BMP,Door4,-0.445341605,-0.045305605,1,0,0,1.3032,optionLeft,80,2125,1,38,0,38,0,1,,,,,,,,,,,,,,,,,,,,,,,,,,,,,,,,,,,,,,,
,,,,,,,,2023-08-16_08h44.21.235,HF_wild_card,2022.2.4,Linux x86_64,60.0240096,59269aac7724de000109190f,64d2fd46c836a06233681665,64dc7e4ab080931385feb1e3,,,,,,,sngl,resources/DBN.BMP,resources/Empty.png,WildCard_NonEx,-0.420010849,-0.019800433,1,0,0,1.5295,optionLeft,55,2180,1,39,0,39,0,1,,,,,,,,,,,,,,,,,,,,,,,,,,,,,,,,,,,,,,,
,,,,,,,,2023-08-16_08h44.21.235,HF_wild_card,2022.2.4,Linux x86_64,60.0240096,59269aac7724de000109190f,64d2fd46c836a06233681665,64dc7e4ab080931385feb1e3,,,,,,,ctch,resources/DB.BMP,resources/DP.BMP,Door4,0.41426256,-0.038719177,1,0,0,1.4465,optionRight,60,2240,1,40,0,40,0,1,,,,,,,,,,,,,,,,,,,,,,,,,,,,,,,,,,,,,,,
,,,,,,,,2023-08-16_08h44.21.235,HF_wild_card,2022.2.4,Linux x86_64,60.0240096,59269aac7724de000109190f,64d2fd46c836a06233681665,64dc7e4ab080931385feb1e3,,,,,,,sngl,resources/Empty.png,resources/DR.BMP,Door3,0.394353372,-0.040166961,1,0,0,1.5962,optionRight,70,2310,1,41,0,41,0,1,,,,,,,,,,,,,,,,,,,,,,,,,,,,,,,,,,,,,,,
,,,,,,,,2023-08-16_08h44.21.235,HF_wild_card,2022.2.4,Linux x86_64,60.0240096,59269aac7724de000109190f,64d2fd46c836a06233681665,64dc7e4ab080931385feb1e3,,,,,,,decisionTrl,resources/DP.BMP,resources/DBN.BMP,Door4,-0.435835061,-0.049140259,1,0,0,1.3675,optionLeft,60,2370,1,42,0,42,0,1,,,,,,,,,,,,,,,,,,,,,,,,,,,,,,,,,,,,,,,
,,,,,,,,2023-08-16_08h44.21.235,HF_wild_card,2022.2.4,Linux x86_64,60.0240096,59269aac7724de000109190f,64d2fd46c836a06233681665,64dc7e4ab080931385feb1e3,,,,,,,decisionTrl,resources/DR.BMP,resources/DBN.BMP,Door3,-0.395747149,-0.063523928,1,0,0,1.596,optionLeft,70,2440,1,43,0,43,0,1,,,,,,,,,,,,,,,,,,,,,,,,,,,,,,,,,,,,,,,
,,,,,,,,2023-08-16_08h44.21.235,HF_wild_card,2022.2.4,Linux x86_64,60.0240096,59269aac7724de000109190f,64d2fd46c836a06233681665,64dc7e4ab080931385feb1e3,,,,,,,,,,,,,,,,,,,,,,,,,,0,0,0,0,1,,,,,,,,,,,,,,,,,,,,,,,,,,,,,,,,,,
,,,,,,,,2023-08-16_08h44.21.235,HF_wild_card,2022.2.4,Linux x86_64,60.0240096,59269aac7724de000109190f,64d2fd46c836a06233681665,64dc7e4ab080931385feb1e3,,,,,,,decisionTrl,resources/DR.BMP,resources/DP.BMP,Door4,0.409491504,-0.103355055,1,0,0,1.5653,optionRight,60,2500,2,0,0,0,0,1,,,,,,,,,,,,,,,,,,,,,,,,,,,,,,,,,,,,,,,
,,,,,,,,2023-08-16_08h44.21.235,HF_wild_card,2022.2.4,Linux x86_64,60.0240096,59269aac7724de000109190f,64d2fd46c836a06233681665,64dc7e4ab080931385feb1e3,,,,,,,decisionTrl,resources/DG.BMP,resources/DB.BMP,Door1,0.384742172,-0.050881174,1,0,0,1.628,optionRight,30,2530,2,1,0,1,0,1,,,,,,,,,,,,,,,,,,,,,,,,,,,,,,,,,,,,,,,
,,,,,,,,2023-08-16_08h44.21.235,HF_wild_card,2022.2.4,Linux x86_64,60.0240096,59269aac7724de000109190f,64d2fd46c836a06233681665,64dc7e4ab080931385feb1e3,,,,,,,decisionTrl,resources/DP.BMP,resources/DR.BMP,Door4,-0.384635819,-0.072420156,1,0,0,1.3463,optionLeft,60,2590,2,2,0,2,0,1,,,,,,,,,,,,,,,,,,,,,,,,,,,,,,,,,,,,,,,
,,,,,,,,2023-08-16_08h44.21.235,HF_wild_card,2022.2.4,Linux x86_64,60.0240096,59269aac7724de000109190f,64d2fd46c836a06233681665,64dc7e4ab080931385feb1e3,,,,,,,decisionTrl,resources/DBN.BMP,resources/DB.BMP,Door1,0.386867241,-0.050645334,1,0,0,1.3128,optionRight,30,2620,2,3,0,3,0,1,,,,,,,,,,,,,,,,,,,,,,,,,,,,,,,,,,,,,,,
,,,,,,,,2023-08-16_08h44.21.235,HF_wild_card,2022.2.4,Linux x86_64,60.0240096,59269aac7724de000109190f,64d2fd46c836a06233681665,64dc7e4ab080931385feb1e3,,,,,,,decisionTrl,resources/DP.BMP,resources/DR.BMP,Door4,-0.407180963,-0.071732662,1,0,0,1.2443,optionLeft,80,2700,2,4,0,4,0,1,,,,,,,,,,,,,,,,,,,,,,,,,,,,,,,,,,,,,,,
,,,,,,,,2023-08-16_08h44.21.235,HF_wild_card,2022.2.4,Linux x86_64,60.0240096,59269aac7724de000109190f,64d2fd46c836a06233681665,64dc7e4ab080931385feb1e3,,,,,,,sngl,resources/DBN.BMP,resources/Empty.png,WildCard_NonEx,-0.373392458,-0.028543543,1,0,0,0.996,optionLeft,55,2755,2,5,0,5,0,1,,,,,,,,,,,,,,,,,,,,,,,,,,,,,,,,,,,,,,,
,,,,,,,,2023-08-16_08h44.21.235,HF_wild_card,2022.2.4,Linux x86_64,60.0240096,59269aac7724de000109190f,64d2fd46c836a06233681665,64dc7e4ab080931385feb1e3,,,,,,,ctch,resources/DP.BMP,resources/DB.BMP,Door4,-0.393632324,-0.053982487,1,0,0,1.296,optionLeft,80,2835,2,6,0,6,0,1,,,,,,,,,,,,,,,,,,,,,,,,,,,,,,,,,,,,,,,
,,,,,,,,2023-08-16_08h44.21.235,HF_wild_card,2022.2.4,Linux x86_64,60.0240096,59269aac7724de000109190f,64d2fd46c836a06233681665,64dc7e4ab080931385feb1e3,,,,,,,sngl,resources/Empty.png,resources/DB.BMP,Door1,0.400743696,-0.045594781,1,0,0,1.0627,optionRight,30,2865,2,7,0,7,0,1,,,,,,,,,,,,,,,,,,,,,,,,,,,,,,,,,,,,,,,
,,,,,,,,2023-08-16_08h44.21.235,HF_wild_card,2022.2.4,Linux x86_64,60.0240096,59269aac7724de000109190f,64d2fd46c836a06233681665,64dc7e4ab080931385feb1e3,,,,,,,decisionTrl,resources/DB.BMP,resources/DG.BMP,Door1,-0.394296258,-0.059166025,1,0,0,1.7481,optionLeft,30,2895,2,8,0,8,0,1,,,,,,,,,,,,,,,,,,,,,,,,,,,,,,,,,,,,,,,
,,,,,,,,2023-08-16_08h44.21.235,HF_wild_card,2022.2.4,Linux x86_64,60.0240096,59269aac7724de000109190f,64d2fd46c836a06233681665,64dc7e4ab080931385feb1e3,,,,,,,ctch,resources/DB.BMP,resources/DP.BMP,Door4,0.408724467,-0.049026101,1,0,0,1.3631,optionRight,60,2955,2,9,0,9,0,1,,,,,,,,,,,,,,,,,,,,,,,,,,,,,,,,,,,,,,,
,,,,,,,,2023-08-16_08h44.21.235,HF_wild_card,2022.2.4,Linux x86_64,60.0240096,59269aac7724de000109190f,64d2fd46c836a06233681665,64dc7e4ab080931385feb1e3,,,,,,,decisionTrl,resources/DP.BMP,resources/DR.BMP,Door4,-0.385729295,-0.085132846,1,0,0,1.0291,optionLeft,60,3015,2,10,0,10,0,1,,,,,,,,,,,,,,,,,,,,,,,,,,,,,,,,,,,,,,,
,,,,,,,,2023-08-16_08h44.21.235,HF_wild_card,2022.2.4,Linux x86_64,60.0240096,59269aac7724de000109190f,64d2fd46c836a06233681665,64dc7e4ab080931385feb1e3,,,,,,,ctch,resources/DP.BMP,resources/DB.BMP,Door4,-0.348458361,-0.052008735,1,0,0,1.1305,optionLeft,60,3075,2,11,0,11,0,1,,,,,,,,,,,,,,,,,,,,,,,,,,,,,,,,,,,,,,,
,,,,,,,,2023-08-16_08h44.21.235,HF_wild_card,2022.2.4,Linux x86_64,60.0240096,59269aac7724de000109190f,64d2fd46c836a06233681665,64dc7e4ab080931385feb1e3,,,,,,,decisionTrl,resources/DG.BMP,resources/DBN.BMP,WildCard_NonEx,0.379201677,-0.028666178,1,0,0,2.2117,optionRight,55,3130,2,12,0,12,0,1,,,,,,,,,,,,,,,,,,,,,,,,,,,,,,,,,,,,,,,
,,,,,,,,2023-08-16_08h44.21.235,HF_wild_card,2022.2.4,Linux x86_64,60.0240096,59269aac7724de000109190f,64d2fd46c836a06233681665,64dc7e4ab080931385feb1e3,,,,,,,decisionTrl,resources/DBN.BMP,resources/DP.BMP,Door4,0.422135671,-0.065355442,1,0,0,1.117,optionRight,80,3210,2,13,0,13,0,1,,,,,,,,,,,,,,,,,,,,,,,,,,,,,,,,,,,,,,,
,,,,,,,,2023-08-16_08h44.21.235,HF_wild_card,2022.2.4,Linux x86_64,60.0240096,59269aac7724de000109190f,64d2fd46c836a06233681665,64dc7e4ab080931385feb1e3,,,,,,,sngl,resources/DBN.BMP,resources/Empty.png,WildCard_NonEx,-0.400571752,-0.013920643,1,0,0,1.0164,optionLeft,45,3255,2,14,0,14,0,1,,,,,,,,,,,,,,,,,,,,,,,,,,,,,,,,,,,,,,,
,,,,,,,,2023-08-16_08h44.21.235,HF_wild_card,2022.2.4,Linux x86_64,60.0240096,59269aac7724de000109190f,64d2fd46c836a06233681665,64dc7e4ab080931385feb1e3,,,,,,,decisionTrl,resources/DB.BMP,resources/DG.BMP,Door1,-0.459447402,-0.05067896,1,0,0,1.7627,optionLeft,30,3285,2,15,0,15,0,1,,,,,,,,,,,,,,,,,,,,,,,,,,,,,,,,,,,,,,,
,,,,,,,,2023-08-16_08h44.21.235,HF_wild_card,2022.2.4,Linux x86_64,60.0240096,59269aac7724de000109190f,64d2fd46c836a06233681665,64dc7e4ab080931385feb1e3,,,,,,,sngl,resources/Empty.png,resources/DR.BMP,Door3,0.397239826,-0.051562451,1,0,0,1.0939,optionRight,70,3355,2,16,0,16,0,1,,,,,,,,,,,,,,,,,,,,,,,,,,,,,,,,,,,,,,,
,,,,,,,,2023-08-16_08h44.21.235,HF_wild_card,2022.2.4,Linux x86_64,60.0240096,59269aac7724de000109190f,64d2fd46c836a06233681665,64dc7e4ab080931385feb1e3,,,,,,,decisionTrl,resources/DP.BMP,resources/DBN.BMP,Door4,-0.379726834,-0.062975,1,0,0,0.9629,optionLeft,60,3415,2,17,0,17,0,1,,,,,,,,,,,,,,,,,,,,,,,,,,,,,,,,,,,,,,,
,,,,,,,,2023-08-16_08h44.21.235,HF_wild_card,2022.2.4,Linux x86_64,60.0240096,59269aac7724de000109190f,64d2fd46c836a06233681665,64dc7e4ab080931385feb1e3,,,,,,,ctch,resources/DG.BMP,resources/DR.BMP,Door3,0.369510085,-0.040308423,1,0,0,0.9136,optionRight,70,3485,2,18,0,18,0,1,,,,,,,,,,,,,,,,,,,,,,,,,,,,,,,,,,,,,,,
,,,,,,,,2023-08-16_08h44.21.235,HF_wild_card,2022.2.4,Linux x86_64,60.0240096,59269aac7724de000109190f,64d2fd46c836a06233681665,64dc7e4ab080931385feb1e3,,,,,,,decisionTrl,resources/DR.BMP,resources/DBN.BMP,Door3,-0.430762432,-0.062091086,1,0,0,0.78,optionLeft,70,3555,2,19,0,19,0,1,,,,,,,,,,,,,,,,,,,,,,,,,,,,,,,,,,,,,,,
,,,,,,,,2023-08-16_08h44.21.235,HF_wild_card,2022.2.4,Linux x86_64,60.0240096,59269aac7724de000109190f,64d2fd46c836a06233681665,64dc7e4ab080931385feb1e3,,,,,,,decisionTrl,resources/DBN.BMP,resources/DR.BMP,Door3,0.408608331,-0.058500219,1,0,0,0.9308,optionRight,70,3625,2,20,0,20,0,1,,,,,,,,,,,,,,,,,,,,,,,,,,,,,,,,,,,,,,,
,,,,,,,,2023-08-16_08h44.21.235,HF_wild_card,2022.2.4,Linux x86_64,60.0240096,59269aac7724de000109190f,64d2fd46c836a06233681665,64dc7e4ab080931385feb1e3,,,,,,,decisionTrl,resources/DB.BMP,resources/DG.BMP,Door1,-0.396077121,-0.051588058,1,0,0,1.6791,optionLeft,30,3655,2,21,0,21,0,1,,,,,,,,,,,,,,,,,,,,,,,,,,,,,,,,,,,,,,,
,,,,,,,,2023-08-16_08h44.21.235,HF_wild_card,2022.2.4,Linux x86_64,60.0240096,59269aac7724de000109190f,64d2fd46c836a06233681665,64dc7e4ab080931385feb1e3,,,,,,,ctch,resources/DR.BMP,resources/DG.BMP,Door3,-0.388178048,-0.043197632,1,0,0,1.0309,optionLeft,70,3725,2,22,0,22,0,1,,,,,,,,,,,,,,,,,,,,,,,,,,,,,,,,,,,,,,,
,,,,,,,,2023-08-16_08h44.21.235,HF_wild_card,2022.2.4,Linux x86_64,60.0240096,59269aac7724de000109190f,64d2fd46c836a06233681665,64dc7e4ab080931385feb1e3,,,,,,,decisionTrl,resources/DG.BMP,resources/DB.BMP,Door1,0.390230532,-0.048447609,1,0,0,1.6461,optionRight,30,3755,2,23,0,23,0,1,,,,,,,,,,,,,,,,,,,,,,,,,,,,,,,,,,,,,,,
,,,,,,,,2023-08-16_08h44.21.235,HF_wild_card,2022.2.4,Linux x86_64,60.0240096,59269aac7724de000109190f,64d2fd46c836a06233681665,64dc7e4ab080931385feb1e3,,,,,,,ctch,resources/DG.BMP,resources/DR.BMP,Door3,0.398587969,-0.053758586,1,0,0,1.106,optionRight,70,3825,2,24,0,24,0,1,,,,,,,,,,,,,,,,,,,,,,,,,,,,,,,,,,,,,,,
,,,,,,,,2023-08-16_08h44.21.235,HF_wild_card,2022.2.4,Linux x86_64,60.0240096,59269aac7724de000109190f,64d2fd46c836a06233681665,64dc7e4ab080931385feb1e3,,,,,,,sngl,resources/Empty.png,resources/DG.BMP,Door2,0.402919487,-0.029318032,1,0,0,1.1798,optionRight,40,3865,2,25,0,25,0,1,,,,,,,,,,,,,,,,,,,,,,,,,,,,,,,,,,,,,,,
,,,,,,,,2023-08-16_08h44.21.235,HF_wild_card,2022.2.4,Linux x86_64,60.0240096,59269aac7724de000109190f,64d2fd46c836a06233681665,64dc7e4ab080931385feb1e3,,,,,,,sngl,resources/Empty.png,resources/DBN.BMP,WildCard_NonEx,0.387370216,-0.012266336,1,0,0,0.9614,optionRight,45,3910,2,26,0,26,0,1,,,,,,,,,,,,,,,,,,,,,,,,,,,,,,,,,,,,,,,
,,,,,,,,2023-08-16_08h44.21.235,HF_wild_card,2022.2.4,Linux x86_64,60.0240096,59269aac7724de000109190f,64d2fd46c836a06233681665,64dc7e4ab080931385feb1e3,,,,,,,decisionTrl,resources/DG.BMP,resources/DB.BMP,Door2,-0.335294406,-0.024150884,1,0,0,1.9201,optionLeft,40,3950,2,27,0,27,0,1,,,,,,,,,,,,,,,,,,,,,,,,,,,,,,,,,,,,,,,
,,,,,,,,2023-08-16_08h44.21.235,HF_wild_card,2022.2.4,Linux x86_64,60.0240096,59269aac7724de000109190f,64d2fd46c836a06233681665,64dc7e4ab080931385feb1e3,,,,,,,ctch,resources/DR.BMP,resources/DG.BMP,Door3,-0.401275246,-0.062204432,1,0,0,1.5481,optionLeft,70,4020,2,28,0,28,0,1,,,,,,,,,,,,,,,,,,,,,,,,,,,,,,,,,,,,,,,
,,,,,,,,2023-08-16_08h44.21.235,HF_wild_card,2022.2.4,Linux x86_64,60.0240096,59269aac7724de000109190f,64d2fd46c836a06233681665,64dc7e4ab080931385feb1e3,,,,,,,sngl,resources/Empty.png,resources/DP.BMP,Door4,0.411078418,-0.059632655,1,0,0,1.2168,optionRight,80,4100,2,29,0,29,0,1,,,,,,,,,,,,,,,,,,,,,,,,,,,,,,,,,,,,,,,
,,,,,,,,2023-08-16_08h44.21.235,HF_wild_card,2022.2.4,Linux x86_64,60.0240096,59269aac7724de000109190f,64d2fd46c836a06233681665,64dc7e4ab080931385feb1e3,,,,,,,sngl,resources/DP.BMP,resources/Empty.png,Door4,-0.38863885,-0.063934397,1,0,0,0.9362,optionLeft,60,4160,2,30,0,30,0,1,,,,,,,,,,,,,,,,,,,,,,,,,,,,,,,,,,,,,,,
,,,,,,,,2023-08-16_08h44.21.235,HF_wild_card,2022.2.4,Linux x86_64,60.0240096,59269aac7724de000109190f,64d2fd46c836a06233681665,64dc7e4ab080931385feb1e3,,,,,,,sngl,resources/Empty.png,resources/DBN.BMP,WildCard_NonEx,0.415608018,0.000236441,1,0,0,0.9795,optionRight,55,4215,2,31,0,31,0,1,,,,,,,,,,,,,,,,,,,,,,,,,,,,,,,,,,,,,,,
,,,,,,,,2023-08-16_08h44.21.235,HF_wild_card,2022.2.4,Linux x86_64,60.0240096,59269aac7724de000109190f,64d2fd46c836a06233681665,64dc7e4ab080931385feb1e3,,,,,,,sngl,resources/DR.BMP,resources/Empty.png,Door3,-0.39229114,-0.037796692,1,0,0,1.1302,optionLeft,70,4285,2,32,0,32,0,1,,,,,,,,,,,,,,,,,,,,,,,,,,,,,,,,,,,,,,,
,,,,,,,,2023-08-16_08h44.21.235,HF_wild_card,2022.2.4,Linux x86_64,60.0240096,59269aac7724de000109190f,64d2fd46c836a06233681665,64dc7e4ab080931385feb1e3,,,,,,,decisionTrl,resources/DR.BMP,resources/DP.BMP,Door3,-0.400156657,-0.048384101,1,0,0,0.9793,optionLeft,70,4355,2,33,0,33,0,1,,,,,,,,,,,,,,,,,,,,,,,,,,,,,,,,,,,,,,,
,,,,,,,,2023-08-16_08h44.21.235,HF_wild_card,2022.2.4,Linux x86_64,60.0240096,59269aac7724de000109190f,64d2fd46c836a06233681665,64dc7e4ab080931385feb1e3,,,,,,,sngl,resources/DG.BMP,resources/Empty.png,Door2,-0.37106023,-0.043944924,1,0,0,0.8786,optionLeft,20,4375,2,34,0,34,0,1,,,,,,,,,,,,,,,,,,,,,,,,,,,,,,,,,,,,,,,
,,,,,,,,2023-08-16_08h44.21.235,HF_wild_card,2022.2.4,Linux x86_64,60.0240096,59269aac7724de000109190f,64d2fd46c836a06233681665,64dc7e4ab080931385feb1e3,,,,,,,decisionTrl,resources/DBN.BMP,resources/DG.BMP,WildCard_NonEx,-0.429066234,0.004318167,1,0,0,0.9359,optionLeft,55,4430,2,35,0,35,0,1,,,,,,,,,,,,,,,,,,,,,,,,,,,,,,,,,,,,,,,
,,,,,,,,2023-08-16_08h44.21.235,HF_wild_card,2022.2.4,Linux x86_64,60.0240096,59269aac7724de000109190f,64d2fd46c836a06233681665,64dc7e4ab080931385feb1e3,,,,,,,decisionTrl,resources/DP.BMP,resources/DR.BMP,Door4,-0.374386717,-0.064504341,1,0,0,1.492,optionLeft,80,4510,2,36,0,36,0,1,,,,,,,,,,,,,,,,,,,,,,,,,,,,,,,,,,,,,,,
,,,,,,,,2023-08-16_08h44.21.235,HF_wild_card,2022.2.4,Linux x86_64,60.0240096,59269aac7724de000109190f,64d2fd46c836a06233681665,64dc7e4ab080931385feb1e3,,,,,,,decisionTrl,resources/DR.BMP,resources/DP.BMP,Door4,0.454478935,-0.067288505,1,0,0,1.0296,optionRight,80,4590,2,37,0,37,0,1,,,,,,,,,,,,,,,,,,,,,,,,,,,,,,,,,,,,,,,
,,,,,,,,2023-08-16_08h44.21.235,HF_wild_card,2022.2.4,Linux x86_64,60.0240096,59269aac7724de000109190f,64d2fd46c836a06233681665,64dc7e4ab080931385feb1e3,,,,,,,ctch,resources/DB.BMP,resources/DP.BMP,Door4,0.466448325,-0.057023508,1,0,0,1.0631,optionRight,60,4650,2,38,0,38,0,1,,,,,,,,,,,,,,,,,,,,,,,,,,,,,,,,,,,,,,,
,,,,,,,,2023-08-16_08h44.21.235,HF_wild_card,2022.2.4,Linux x86_64,60.0240096,59269aac7724de000109190f,64d2fd46c836a06233681665,64dc7e4ab080931385feb1e3,,,,,,,decisionTrl,resources/DB.BMP,resources/DBN.BMP,WildCard_NonEx,0.399108887,-0.035287327,1,0,0,2.2763,optionRight,45,4695,2,39,0,39,0,1,,,,,,,,,,,,,,,,,,,,,,,,,,,,,,,,,,,,,,,
,,,,,,,,2023-08-16_08h44.21.235,HF_wild_card,2022.2.4,Linux x86_64,60.0240096,59269aac7724de000109190f,64d2fd46c836a06233681665,64dc7e4ab080931385feb1e3,,,,,,,decisionTrl,resources/DB.BMP,resources/DG.BMP,Door2,0.398233908,-0.060598373,1,0,0,2.2631,optionRight,20,4715,2,40,0,40,0,1,,,,,,,,,,,,,,,,,,,,,,,,,,,,,,,,,,,,,,,
,,,,,,,,2023-08-16_08h44.21.235,HF_wild_card,2022.2.4,Linux x86_64,60.0240096,59269aac7724de000109190f,64d2fd46c836a06233681665,64dc7e4ab080931385feb1e3,,,,,,,sngl,resources/DB.BMP,resources/Empty.png,Door1,-0.360283181,-0.045361095,1,0,0,1.0294,optionLeft,30,4745,2,41,0,41,0,1,,,,,,,,,,,,,,,,,,,,,,,,,,,,,,,,,,,,,,,
,,,,,,,,2023-08-16_08h44.21.235,HF_wild_card,2022.2.4,Linux x86_64,60.0240096,59269aac7724de000109190f,64d2fd46c836a06233681665,64dc7e4ab080931385feb1e3,,,,,,,decisionTrl,resources/DG.BMP,resources/DB.BMP,Door1,0.423155184,-0.041629827,1,0,0,1.1299,optionRight,30,4775,2,42,0,42,0,1,,,,,,,,,,,,,,,,,,,,,,,,,,,,,,,,,,,,,,,
,,,,,,,,2023-08-16_08h44.21.235,HF_wild_card,2022.2.4,Linux x86_64,60.0240096,59269aac7724de000109190f,64d2fd46c836a06233681665,64dc7e4ab080931385feb1e3,,,,,,,decisionTrl,resources/DR.BMP,resources/DP.BMP,Door4,0.385364674,-0.04469317,1,0,0,2.03,optionRight,80,4855,2,43,0,43,0,1,,,,,,,,,,,,,,,,,,,,,,,,,,,,,,,,,,,,,,,
,,,,,,,,2023-08-16_08h44.21.235,HF_wild_card,2022.2.4,Linux x86_64,60.0240096,59269aac7724de000109190f,64d2fd46c836a06233681665,64dc7e4ab080931385feb1e3,,,,,,,,,,,,,,,,,,,,,,,,,,1,0,1,0,1,,,,,,,,,,,,,,,,,,,,,,,,,,,,,,,,,,
,,,,,,,,2023-08-16_08h44.21.235,HF_wild_card,2022.2.4,Linux x86_64,60.0240096,59269aac7724de000109190f,64d2fd46c836a06233681665,64dc7e4ab080931385feb1e3,,,,,,,sngl,resources/Empty.png,resources/DG.BMP,Door2,0.420762945,-0.009782932,1,0,0,2.0164,optionRight,20,4875,3,0,0,0,0,1,,,,,,,,,,,,,,,,,,,,,,,,,,,,,,,,,,,,,,,
,,,,,,,,2023-08-16_08h44.21.235,HF_wild_card,2022.2.4,Linux x86_64,60.0240096,59269aac7724de000109190f,64d2fd46c836a06233681665,64dc7e4ab080931385feb1e3,,,,,,,decisionTrl,resources/DG.BMP,resources/DB.BMP,Door1,0.387248145,-0.043850616,1,0,0,1.2134,optionRight,30,4905,3,1,0,1,0,1,,,,,,,,,,,,,,,,,,,,,,,,,,,,,,,,,,,,,,,
,,,,,,,,2023-08-16_08h44.21.235,HF_wild_card,2022.2.4,Linux x86_64,60.0240096,59269aac7724de000109190f,64d2fd46c836a06233681665,64dc7e4ab080931385feb1e3,,,,,,,decisionTrl,resources/DP.BMP,resources/DR.BMP,Door4,-0.405134696,-0.080449034,1,0,0,1.2965,optionLeft,60,4965,3,2,0,2,0,1,,,,,,,,,,,,,,,,,,,,,,,,,,,,,,,,,,,,,,,
,,,,,,,,2023-08-16_08h44.21.235,HF_wild_card,2022.2.4,Linux x86_64,60.0240096,59269aac7724de000109190f,64d2fd46c836a06233681665,64dc7e4ab080931385feb1e3,,,,,,,ctch,resources/DB.BMP,resources/DP.BMP,Door4,0.418801626,-0.04826853,1,0,0,1.0441,optionRight,60,5025,3,3,0,3,0,1,,,,,,,,,,,,,,,,,,,,,,,,,,,,,,,,,,,,,,,
,,,,,,,,2023-08-16_08h44.21.235,HF_wild_card,2022.2.4,Linux x86_64,60.0240096,59269aac7724de000109190f,64d2fd46c836a06233681665,64dc7e4ab080931385feb1e3,,,,,,,decisionTrl,resources/DB.BMP,resources/DG.BMP,Door1,-0.361595542,-0.051306053,1,0,0,1.3296,optionLeft,30,5055,3,4,0,4,0,1,,,,,,,,,,,,,,,,,,,,,,,,,,,,,,,,,,,,,,,
,,,,,,,,2023-08-16_08h44.21.235,HF_wild_card,2022.2.4,Linux x86_64,60.0240096,59269aac7724de000109190f,64d2fd46c836a06233681665,64dc7e4ab080931385feb1e3,,,,,,,decisionTrl,resources/DR.BMP,resources/DBN.BMP,Door3,-0.392179348,-0.055097191,1,0,0,0.9962,optionLeft,70,5125,3,5,0,5,0,1,,,,,,,,,,,,,,,,,,,,,,,,,,,,,,,,,,,,,,,
,,,,,,,,2023-08-16_08h44.21.235,HF_wild_card,2022.2.4,Linux x86_64,60.0240096,59269aac7724de000109190f,64d2fd46c836a06233681665,64dc7e4ab080931385feb1e3,,,,,,,ctch,resources/DR.BMP,resources/DG.BMP,Door3,-0.394810818,-0.051040826,1,0,0,0.9798,optionLeft,70,5195,3,6,0,6,0,1,,,,,,,,,,,,,,,,,,,,,,,,,,,,,,,,,,,,,,,
,,,,,,,,2023-08-16_08h44.21.235,HF_wild_card,2022.2.4,Linux x86_64,60.0240096,59269aac7724de000109190f,64d2fd46c836a06233681665,64dc7e4ab080931385feb1e3,,,,,,,decisionTrl,resources/DR.BMP,resources/DP.BMP,Door3,-0.382191234,-0.052431142,1,0,0,1.0292,optionLeft,70,5265,3,7,0,7,0,1,,,,,,,,,,,,,,,,,,,,,,,,,,,,,,,,,,,,,,,
,,,,,,,,2023-08-16_08h44.21.235,HF_wild_card,2022.2.4,Linux x86_64,60.0240096,59269aac7724de000109190f,64d2fd46c836a06233681665,64dc7e4ab080931385feb1e3,,,,,,,sngl,resources/Empty.png,resources/DB.BMP,Door1,0.349793469,-0.035495228,1,0,0,1.0968,optionRight,30,5295,3,8,0,8,0,1,,,,,,,,,,,,,,,,,,,,,,,,,,,,,,,,,,,,,,,
,,,,,,,,2023-08-16_08h44.21.235,HF_wild_card,2022.2.4,Linux x86_64,60.0240096,59269aac7724de000109190f,64d2fd46c836a06233681665,64dc7e4ab080931385feb1e3,,,,,,,sngl,resources/DBN.BMP,resources/Empty.png,WildCard_NonEx,-0.359429748,-0.034932914,1,0,0,0.9956,optionLeft,45,5340,3,9,0,9,0,1,,,,,,,,,,,,,,,,,,,,,,,,,,,,,,,,,,,,,,,
,,,,,,,,2023-08-16_08h44.21.235,HF_wild_card,2022.2.4,Linux x86_64,60.0240096,59269aac7724de000109190f,64d2fd46c836a06233681665,64dc7e4ab080931385feb1e3,,,,,,,ctch,resources/DG.BMP,resources/DR.BMP,Door3,0.392855044,-0.048926742,1,0,0,1.2854,optionRight,70,5410,3,10,0,10,0,1,,,,,,,,,,,,,,,,,,,,,,,,,,,,,,,,,,,,,,,
,,,,,,,,2023-08-16_08h44.21.235,HF_wild_card,2022.2.4,Linux x86_64,60.0240096,59269aac7724de000109190f,64d2fd46c836a06233681665,64dc7e4ab080931385feb1e3,,,,,,,decisionTrl,resources/DR.BMP,resources/DP.BMP,Door4,0.42108451,-0.06745568,1,0,0,1.246,optionRight,60,5470,3,11,0,11,0,1,,,,,,,,,,,,,,,,,,,,,,,,,,,,,,,,,,,,,,,
,,,,,,,,2023-08-16_08h44.21.235,HF_wild_card,2022.2.4,Linux x86_64,60.0240096,59269aac7724de000109190f,64d2fd46c836a06233681665,64dc7e4ab080931385feb1e3,,,,,,,decisionTrl,resources/DG.BMP,resources/DB.BMP,Door1,0.396456542,-0.04222831,1,0,0,1.2105,optionRight,30,5500,3,12,0,12,0,1,,,,,,,,,,,,,,,,,,,,,,,,,,,,,,,,,,,,,,,
,,,,,,,,2023-08-16_08h44.21.235,HF_wild_card,2022.2.4,Linux x86_64,60.0240096,59269aac7724de000109190f,64d2fd46c836a06233681665,64dc7e4ab080931385feb1e3,,,,,,,decisionTrl,resources/DR.BMP,resources/DP.BMP,Door3,-0.427553636,-0.057292691,1,0,0,0.8588,optionLeft,70,5570,3,13,0,13,0,1,,,,,,,,,,,,,,,,,,,,,,,,,,,,,,,,,,,,,,,
,,,,,,,,2023-08-16_08h44.21.235,HF_wild_card,2022.2.4,Linux x86_64,60.0240096,59269aac7724de000109190f,64d2fd46c836a06233681665,64dc7e4ab080931385feb1e3,,,,,,,decisionTrl,resources/DP.BMP,resources/DR.BMP,Door3,0.381904178,-0.044475096,1,0,0,0.9406,optionRight,70,5640,3,14,0,14,0,1,,,,,,,,,,,,,,,,,,,,,,,,,,,,,,,,,,,,,,,
,,,,,,,,2023-08-16_08h44.21.235,HF_wild_card,2022.2.4,Linux x86_64,60.0240096,59269aac7724de000109190f,64d2fd46c836a06233681665,64dc7e4ab080931385feb1e3,,,,,,,decisionTrl,resources/DBN.BMP,resources/DG.BMP,WildCard_NonEx,-0.371469462,-0.04255203,1,0,0,1.3517,optionLeft,55,5695,3,15,0,15,0,1,,,,,,,,,,,,,,,,,,,,,,,,,,,,,,,,,,,,,,,
,,,,,,,,2023-08-16_08h44.21.235,HF_wild_card,2022.2.4,Linux x86_64,60.0240096,59269aac7724de000109190f,64d2fd46c836a06233681665,64dc7e4ab080931385feb1e3,,,,,,,decisionTrl,resources/DG.BMP,resources/DB.BMP,Door2,-0.46719703,-0.03337023,1,0,0,2.0118,optionLeft,40,5735,3,16,0,16,0,1,,,,,,,,,,,,,,,,,,,,,,,,,,,,,,,,,,,,,,,
,,,,,,,,2023-08-16_08h44.21.235,HF_wild_card,2022.2.4,Linux x86_64,60.0240096,59269aac7724de000109190f,64d2fd46c836a06233681665,64dc7e4ab080931385feb1e3,,,,,,,decisionTrl,resources/DG.BMP,resources/DB.BMP,Door2,-0.321718216,-0.025427712,1,0,0,0.8465,optionLeft,20,5755,3,17,0,17,0,1,,,,,,,,,,,,,,,,,,,,,,,,,,,,,,,,,,,,,,,
,,,,,,,,2023-08-16_08h44.21.235,HF_wild_card,2022.2.4,Linux x86_64,60.0240096,59269aac7724de000109190f,64d2fd46c836a06233681665,64dc7e4ab080931385feb1e3,,,,,,,ctch,resources/DB.BMP,resources/DP.BMP,Door4,0.418994904,-0.042025707,1,0,0,1.0886,optionRight,60,5815,3,18,0,18,0,1,,,,,,,,,,,,,,,,,,,,,,,,,,,,,,,,,,,,,,,
,,,,,,,,2023-08-16_08h44.21.235,HF_wild_card,2022.2.4,Linux x86_64,60.0240096,59269aac7724de000109190f,64d2fd46c836a06233681665,64dc7e4ab080931385feb1e3,,,,,,,sngl,resources/DBN.BMP,resources/Empty.png,WildCard_NonEx,-0.370086599,-0.006540192,1,0,0,1.1109,optionLeft,55,5870,3,19,0,19,0,1,,,,,,,,,,,,,,,,,,,,,,,,,,,,,,,,,,,,,,,
,,,,,,,,2023-08-16_08h44.21.235,HF_wild_card,2022.2.4,Linux x86_64,60.0240096,59269aac7724de000109190f,64d2fd46c836a06233681665,64dc7e4ab080931385feb1e3,,,,,,,decisionTrl,resources/DBN.BMP,resources/DB.BMP,WildCard_NonEx,-0.376400983,-0.031888609,1,0,0,1.6961,optionLeft,55,5925,3,20,0,20,0,1,,,,,,,,,,,,,,,,,,,,,,,,,,,,,,,,,,,,,,,
,,,,,,,,2023-08-16_08h44.21.235,HF_wild_card,2022.2.4,Linux x86_64,60.0240096,59269aac7724de000109190f,64d2fd46c836a06233681665,64dc7e4ab080931385feb1e3,,,,,,,decisionTrl,resources/DP.BMP,resources/DR.BMP,Door4,-0.355739629,-0.068420234,1,0,0,1.1958,optionLeft,60,5985,3,21,0,21,0,1,,,,,,,,,,,,,,,,,,,,,,,,,,,,,,,,,,,,,,,
,,,,,,,,2023-08-16_08h44.21.235,HF_wild_card,2022.2.4,Linux x86_64,60.0240096,59269aac7724de000109190f,64d2fd46c836a06233681665,64dc7e4ab080931385feb1e3,,,,,,,sngl,resources/DB.BMP,resources/Empty.png,Door1,-0.386224005,-0.040878684,1,0,0,1.0267,optionLeft,30,6015,3,22,0,22,0,1,,,,,,,,,,,,,,,,,,,,,,,,,,,,,,,,,,,,,,,
,,,,,,,,2023-08-16_08h44.21.235,HF_wild_card,2022.2.4,Linux x86_64,60.0240096,59269aac7724de000109190f,64d2fd46c836a06233681665,64dc7e4ab080931385feb1e3,,,,,,,sngl,resources/DR.BMP,resources/Empty.png,Door3,-0.361732483,-0.044672436,1,0,0,0.7945,optionLeft,70,6085,3,23,0,23,0,1,,,,,,,,,,,,,,,,,,,,,,,,,,,,,,,,,,,,,,,
,,,,,,,,2023-08-16_08h44.21.235,HF_wild_card,2022.2.4,Linux x86_64,60.0240096,59269aac7724de000109190f,64d2fd46c836a06233681665,64dc7e4ab080931385feb1e3,,,,,,,decisionTrl,resources/DG.BMP,resources/DBN.BMP,WildCard_NonEx,0.401680982,-0.046385553,1,0,0,1.2799,optionRight,55,6140,3,24,0,24,0,1,,,,,,,,,,,,,,,,,,,,,,,,,,,,,,,,,,,,,,,
,,,,,,,,2023-08-16_08h44.21.235,HF_wild_card,2022.2.4,Linux x86_64,60.0240096,59269aac7724de000109190f,64d2fd46c836a06233681665,64dc7e4ab080931385feb1e3,,,,,,,sngl,resources/DP.BMP,resources/Empty.png,Door4,-0.340720565,-0.053592894,1,0,0,0.8779,optionLeft,80,6220,3,25,0,25,0,1,,,,,,,,,,,,,,,,,,,,,,,,,,,,,,,,,,,,,,,
,,,,,,,,2023-08-16_08h44.21.235,HF_wild_card,2022.2.4,Linux x86_64,60.0240096,59269aac7724de000109190f,64d2fd46c836a06233681665,64dc7e4ab080931385feb1e3,,,,,,,sngl,resources/DG.BMP,resources/Empty.png,Door2,-0.386569765,-0.041370922,1,0,0,0.8468,optionLeft,40,6260,3,26,0,26,0,1,,,,,,,,,,,,,,,,,,,,,,,,,,,,,,,,,,,,,,,
,,,,,,,,2023-08-16_08h44.21.235,HF_wild_card,2022.2.4,Linux x86_64,60.0240096,59269aac7724de000109190f,64d2fd46c836a06233681665,64dc7e4ab080931385feb1e3,,,,,,,decisionTrl,resources/DB.BMP,resources/DG.BMP,Door1,-0.450189979,-0.065939338,1,0,0,1.9783,optionLeft,30,6290,3,27,0,27,0,1,,,,,,,,,,,,,,,,,,,,,,,,,,,,,,,,,,,,,,,
,,,,,,,,2023-08-16_08h44.21.235,HF_wild_card,2022.2.4,Linux x86_64,60.0240096,59269aac7724de000109190f,64d2fd46c836a06233681665,64dc7e4ab080931385feb1e3,,,,,,,ctch,resources/DP.BMP,resources/DB.BMP,Door4,-0.39043317,-0.045852767,1,0,0,0.897,optionLeft,60,6350,3,28,0,28,0,1,,,,,,,,,,,,,,,,,,,,,,,,,,,,,,,,,,,,,,,
,,,,,,,,2023-08-16_08h44.21.235,HF_wild_card,2022.2.4,Linux x86_64,60.0240096,59269aac7724de000109190f,64d2fd46c836a06233681665,64dc7e4ab080931385feb1e3,,,,,,,ctch,resources/DR.BMP,resources/DG.BMP,Door3,-0.405316989,-0.047666868,1,0,0,0.7633,optionLeft,70,6420,3,29,0,29,0,1,,,,,,,,,,,,,,,,,,,,,,,,,,,,,,,,,,,,,,,
,,,,,,,,2023-08-16_08h44.21.235,HF_wild_card,2022.2.4,Linux x86_64,60.0240096,59269aac7724de000109190f,64d2fd46c836a06233681665,64dc7e4ab080931385feb1e3,,,,,,,decisionTrl,resources/DP.BMP,resources/DR.BMP,Door3,0.400460561,-0.082163669,1,0,0,0.7966,optionRight,70,6490,3,30,0,30,0,1,,,,,,,,,,,,,,,,,,,,,,,,,,,,,,,,,,,,,,,
,,,,,,,,2023-08-16_08h44.21.235,HF_wild_card,2022.2.4,Linux x86_64,60.0240096,59269aac7724de000109190f,64d2fd46c836a06233681665,64dc7e4ab080931385feb1e3,,,,,,,ctch,resources/DG.BMP,resources/DR.BMP,Door3,0.398788876,-0.054515945,1,0,0,1.0366,optionRight,70,6560,3,31,0,31,0,1,,,,,,,,,,,,,,,,,,,,,,,,,,,,,,,,,,,,,,,
,,,,,,,,2023-08-16_08h44.21.235,HF_wild_card,2022.2.4,Linux x86_64,60.0240096,59269aac7724de000109190f,64d2fd46c836a06233681665,64dc7e4ab080931385feb1e3,,,,,,,sngl,resources/Empty.png,resources/DR.BMP,Door3,0.420826523,-0.057848718,1,0,0,0.8796,optionRight,70,6630,3,32,0,32,0,1,,,,,,,,,,,,,,,,,,,,,,,,,,,,,,,,,,,,,,,
,,,,,,,,2023-08-16_08h44.21.235,HF_wild_card,2022.2.4,Linux x86_64,60.0240096,59269aac7724de000109190f,64d2fd46c836a06233681665,64dc7e4ab080931385feb1e3,,,,,,,decisionTrl,resources/DBN.BMP,resources/DR.BMP,Door3,0.385950018,-0.03123135,1,0,0,1.0057,optionRight,70,6700,3,33,0,33,0,1,,,,,,,,,,,,,,,,,,,,,,,,,,,,,,,,,,,,,,,
,,,,,,,,2023-08-16_08h44.21.235,HF_wild_card,2022.2.4,Linux x86_64,60.0240096,59269aac7724de000109190f,64d2fd46c836a06233681665,64dc7e4ab080931385feb1e3,,,,,,,decisionTrl,resources/DB.BMP,resources/DBN.BMP,WildCard_NonEx,0.475023058,-0.040236579,1,0,0,1.3966,optionRight,55,6755,3,34,0,34,0,1,,,,,,,,,,,,,,,,,,,,,,,,,,,,,,,,,,,,,,,
,,,,,,,,2023-08-16_08h44.21.235,HF_wild_card,2022.2.4,Linux x86_64,60.0240096,59269aac7724de000109190f,64d2fd46c836a06233681665,64dc7e4ab080931385feb1e3,,,,,,,decisionTrl,resources/DP.BMP,resources/DBN.BMP,Door4,-0.366844954,-0.076340534,1,0,0,0.829,optionLeft,80,6835,3,35,0,35,0,1,,,,,,,,,,,,,,,,,,,,,,,,,,,,,,,,,,,,,,,
,,,,,,,,2023-08-16_08h44.21.235,HF_wild_card,2022.2.4,Linux x86_64,60.0240096,59269aac7724de000109190f,64d2fd46c836a06233681665,64dc7e4ab080931385feb1e3,,,,,,,ctch,resources/DP.BMP,resources/DB.BMP,Door4,-0.366435404,-0.05900768,1,0,0,0.8189,optionLeft,60,6895,3,36,0,36,0,1,,,,,,,,,,,,,,,,,,,,,,,,,,,,,,,,,,,,,,,
,,,,,,,,2023-08-16_08h44.21.235,HF_wild_card,2022.2.4,Linux x86_64,60.0240096,59269aac7724de000109190f,64d2fd46c836a06233681665,64dc7e4ab080931385feb1e3,,,,,,,sngl,resources/Empty.png,resources/DBN.BMP,WildCard_NonEx,0.453329863,-0.014488679,1,0,0,0.8261,optionRight,55,6950,3,37,0,37,0,1,,,,,,,,,,,,,,,,,,,,,,,,,,,,,,,,,,,,,,,
,,,,,,,,2023-08-16_08h44.21.235,HF_wild_card,2022.2.4,Linux x86_64,60.0240096,59269aac7724de000109190f,64d2fd46c836a06233681665,64dc7e4ab080931385feb1e3,,,,,,,sngl,resources/Empty.png,resources/DBN.BMP,WildCard_NonEx,0.369107988,-0.01459867,1,0,0,0.938,optionRight,45,6995,3,38,0,38,0,1,,,,,,,,,,,,,,,,,,,,,,,,,,,,,,,,,,,,,,,
,,,,,,,,2023-08-16_08h44.21.235,HF_wild_card,2022.2.4,Linux x86_64,60.0240096,59269aac7724de000109190f,64d2fd46c836a06233681665,64dc7e4ab080931385feb1e3,,,,,,,decisionTrl,resources/DR.BMP,resources/DP.BMP,Door3,-0.336506031,-0.050424823,1,0,0,1.9786,optionLeft,70,7065,3,39,0,39,0,1,,,,,,,,,,,,,,,,,,,,,,,,,,,,,,,,,,,,,,,
,,,,,,,,2023-08-16_08h44.21.235,HF_wild_card,2022.2.4,Linux x86_64,60.0240096,59269aac7724de000109190f,64d2fd46c836a06233681665,64dc7e4ab080931385feb1e3,,,,,,,decisionTrl,resources/DB.BMP,resources/DG.BMP,Door2,0.40777927,-0.00569227,1,0,0,1.4833,optionRight,20,7085,3,40,0,40,0,1,,,,,,,,,,,,,,,,,,,,,,,,,,,,,,,,,,,,,,,
,,,,,,,,2023-08-16_08h44.21.235,HF_wild_card,2022.2.4,Linux x86_64,60.0240096,59269aac7724de000109190f,64d2fd46c836a06233681665,64dc7e4ab080931385feb1e3,,,,,,,decisionTrl,resources/DB.BMP,resources/DG.BMP,Door1,-0.381745056,-0.071941764,1,0,0,0.8302,optionLeft,30,7115,3,41,0,41,0,1,,,,,,,,,,,,,,,,,,,,,,,,,,,,,,,,,,,,,,,
,,,,,,,,2023-08-16_08h44.21.235,HF_wild_card,2022.2.4,Linux x86_64,60.0240096,59269aac7724de000109190f,64d2fd46c836a06233681665,64dc7e4ab080931385feb1e3,,,,,,,decisionTrl,resources/DBN.BMP,resources/DP.BMP,Door4,0.454042081,-0.03694725,1,0,0,0.9631,optionRight,80,7195,3,42,0,42,0,1,,,,,,,,,,,,,,,,,,,,,,,,,,,,,,,,,,,,,,,
,,,,,,,,2023-08-16_08h44.21.235,HF_wild_card,2022.2.4,Linux x86_64,60.0240096,59269aac7724de000109190f,64d2fd46c836a06233681665,64dc7e4ab080931385feb1e3,,,,,,,sngl,resources/Empty.png,resources/DP.BMP,Door4,0.425058859,-0.038419935,1,0,0,0.7459,optionRight,60,7255,3,43,0,43,0,1,,,,,,,,,,,,,,,,,,,,,,,,,,,,,,,,,,,,,,,
,,,,,,,,2023-08-16_08h44.21.235,HF_wild_card,2022.2.4,Linux x86_64,60.0240096,59269aac7724de000109190f,64d2fd46c836a06233681665,64dc7e4ab080931385feb1e3,,,,,,,,,,,,,,,,,,,,,,,,,,2,0,2,0,1,,,,,,,,,,,,,,,,,,,,,,,,,,,,,,,,,,
,,,,,,,,2023-08-16_08h44.21.235,HF_wild_card,2022.2.4,Linux x86_64,60.0240096,59269aac7724de000109190f,64d2fd46c836a06233681665,64dc7e4ab080931385feb1e3,,,,,,,decisionTrl,resources/DB.BMP,resources/DG.BMP,Door1,-0.37498739,-0.083938599,1,0,0,1.4164,optionLeft,30,7285,4,0,0,0,0,1,,,,,,,,,,,,,,,,,,,,,,,,,,,,,,,,,,,,,,,
,,,,,,,,2023-08-16_08h44.21.235,HF_wild_card,2022.2.4,Linux x86_64,60.0240096,59269aac7724de000109190f,64d2fd46c836a06233681665,64dc7e4ab080931385feb1e3,,,,,,,ctch,resources/DG.BMP,resources/DR.BMP,Door3,0.387466007,-0.05422744,1,0,0,0.9292,optionRight,70,7355,4,1,0,1,0,1,,,,,,,,,,,,,,,,,,,,,,,,,,,,,,,,,,,,,,,
,,,,,,,,2023-08-16_08h44.21.235,HF_wild_card,2022.2.4,Linux x86_64,60.0240096,59269aac7724de000109190f,64d2fd46c836a06233681665,64dc7e4ab080931385feb1e3,,,,,,,decisionTrl,resources/DB.BMP,resources/DY.BMP,WildCard_Ex,0.423574801,-0.037793301,1,0,0,1.5099,optionRight,95,7450,4,2,0,2,0,1,,,,,,,,,,,,,,,,,,,,,,,,,,,,,,,,,,,,,,,
,,,,,,,,2023-08-16_08h44.21.235,HF_wild_card,2022.2.4,Linux x86_64,60.0240096,59269aac7724de000109190f,64d2fd46c836a06233681665,64dc7e4ab080931385feb1e3,,,,,,,sngl,resources/Empty.png,resources/DR.BMP,Door3,0.395744606,-0.028363899,1,0,0,0.8476,optionRight,70,7520,4,3,0,3,0,1,,,,,,,,,,,,,,,,,,,,,,,,,,,,,,,,,,,,,,,
,,,,,,,,2023-08-16_08h44.21.235,HF_wild_card,2022.2.4,Linux x86_64,60.0240096,59269aac7724de000109190f,64d2fd46c836a06233681665,64dc7e4ab080931385feb1e3,,,,,,,decisionTrl,resources/DP.BMP,resources/DR.BMP,Door4,-0.391673724,-0.079029401,1,0,0,1.0624,optionLeft,60,7580,4,4,0,4,0,1,,,,,,,,,,,,,,,,,,,,,,,,,,,,,,,,,,,,,,,
,,,,,,,,2023-08-16_08h44.21.235,HF_wild_card,2022.2.4,Linux x86_64,60.0240096,59269aac7724de000109190f,64d2fd46c836a06233681665,64dc7e4ab080931385feb1e3,,,,,,,sngl,resources/DY.BMP,resources/Empty.png,WildCard_Ex,-0.358850726,-0.034942026,1,0,0,0.7537,optionLeft,5,7585,4,5,0,5,0,1,,,,,,,,,,,,,,,,,,,,,,,,,,,,,,,,,,,,,,,
,,,,,,,,2023-08-16_08h44.21.235,HF_wild_card,2022.2.4,Linux x86_64,60.0240096,59269aac7724de000109190f,64d2fd46c836a06233681665,64dc7e4ab080931385feb1e3,,,,,,,sngl,resources/DP.BMP,resources/Empty.png,Door4,-0.382963322,-0.035245825,1,0,0,0.7474,optionLeft,60,7645,4,6,0,6,0,1,,,,,,,,,,,,,,,,,,,,,,,,,,,,,,,,,,,,,,,
,,,,,,,,2023-08-16_08h44.21.235,HF_wild_card,2022.2.4,Linux x86_64,60.0240096,59269aac7724de000109190f,64d2fd46c836a06233681665,64dc7e4ab080931385feb1e3,,,,,,,decisionTrl,resources/DG.BMP,resources/DY.BMP,WildCard_Ex,0.413232168,-0.062152156,1,0,0,0.7433,optionRight,95,7740,4,7,0,7,0,1,,,,,,,,,,,,,,,,,,,,,,,,,,,,,,,,,,,,,,,
,,,,,,,,2023-08-16_08h44.21.235,HF_wild_card,2022.2.4,Linux x86_64,60.0240096,59269aac7724de000109190f,64d2fd46c836a06233681665,64dc7e4ab080931385feb1e3,,,,,,,decisionTrl,resources/DG.BMP,resources/DB.BMP,Door1,0.302370566,0.001840274,1,0,0,1.3122,optionRight,30,7770,4,8,0,8,0,1,,,,,,,,,,,,,,,,,,,,,,,,,,,,,,,,,,,,,,,
,,,,,,,,2023-08-16_08h44.21.235,HF_wild_card,2022.2.4,Linux x86_64,60.0240096,59269aac7724de000109190f,64d2fd46c836a06233681665,64dc7e4ab080931385feb1e3,,,,,,,decisionTrl,resources/DG.BMP,resources/DB.BMP,Door1,0.376112055,-0.01751875,1,0,0,1.0625,optionRight,30,7800,4,9,0,9,0,1,,,,,,,,,,,,,,,,,,,,,,,,,,,,,,,,,,,,,,,
,,,,,,,,2023-08-16_08h44.21.235,HF_wild_card,2022.2.4,Linux x86_64,60.0240096,59269aac7724de000109190f,64d2fd46c836a06233681665,64dc7e4ab080931385feb1e3,,,,,,,ctch,resources/DG.BMP,resources/DR.BMP,Door3,0.432714533,-0.013679575,1,0,0,0.8638,optionRight,70,7870,4,10,0,10,0,1,,,,,,,,,,,,,,,,,,,,,,,,,,,,,,,,,,,,,,,
,,,,,,,,2023-08-16_08h44.21.235,HF_wild_card,2022.2.4,Linux x86_64,60.0240096,59269aac7724de000109190f,64d2fd46c836a06233681665,64dc7e4ab080931385feb1e3,,,,,,,decisionTrl,resources/DB.BMP,resources/DG.BMP,Door1,-0.285999863,-0.065678526,1,0,0,1.8946,optionLeft,30,7900,4,11,0,11,0,1,,,,,,,,,,,,,,,,,,,,,,,,,,,,,,,,,,,,,,,
,,,,,,,,2023-08-16_08h44.21.235,HF_wild_card,2022.2.4,Linux x86_64,60.0240096,59269aac7724de000109190f,64d2fd46c836a06233681665,64dc7e4ab080931385feb1e3,,,,,,,decisionTrl,resources/DG.BMP,resources/DB.BMP,Door1,0.295238495,-0.023786192,1,0,0,0.7798,optionRight,30,7930,4,12,0,12,0,1,,,,,,,,,,,,,,,,,,,,,,,,,,,,,,,,,,,,,,,
,,,,,,,,2023-08-16_08h44.21.235,HF_wild_card,2022.2.4,Linux x86_64,60.0240096,59269aac7724de000109190f,64d2fd46c836a06233681665,64dc7e4ab080931385feb1e3,,,,,,,decisionTrl,resources/DP.BMP,resources/DY.BMP,WildCard_Ex,0.330168406,-0.022449034,1,0,0,0.8138,optionRight,95,8025,4,13,0,13,0,1,,,,,,,,,,,,,,,,,,,,,,,,,,,,,,,,,,,,,,,
,,,,,,,,2023-08-16_08h44.21.235,HF_wild_card,2022.2.4,Linux x86_64,60.0240096,59269aac7724de000109190f,64d2fd46c836a06233681665,64dc7e4ab080931385feb1e3,,,,,,,decisionTrl,resources/DR.BMP,resources/DP.BMP,Door3,-0.345082318,-0.076137401,1,0,0,1.7968,optionLeft,70,8095,4,14,0,14,0,1,,,,,,,,,,,,,,,,,,,,,,,,,,,,,,,,,,,,,,,
,,,,,,,,2023-08-16_08h44.21.235,HF_wild_card,2022.2.4,Linux x86_64,60.0240096,59269aac7724de000109190f,64d2fd46c836a06233681665,64dc7e4ab080931385feb1e3,,,,,,,decisionTrl,resources/DP.BMP,resources/DR.BMP,Door4,-0.413548717,-0.092947501,1,0,0,1.3445,optionLeft,60,8155,4,15,0,15,0,1,,,,,,,,,,,,,,,,,,,,,,,,,,,,,,,,,,,,,,,
,,,,,,,,2023-08-16_08h44.21.235,HF_wild_card,2022.2.4,Linux x86_64,60.0240096,59269aac7724de000109190f,64d2fd46c836a06233681665,64dc7e4ab080931385feb1e3,,,,,,,ctch,resources/DP.BMP,resources/DB.BMP,Door4,-0.335178693,-0.053703838,1,0,0,0.9806,optionLeft,80,8235,4,16,0,16,0,1,,,,,,,,,,,,,,,,,,,,,,,,,,,,,,,,,,,,,,,
,,,,,,,,2023-08-16_08h44.21.235,HF_wild_card,2022.2.4,Linux x86_64,60.0240096,59269aac7724de000109190f,64d2fd46c836a06233681665,64dc7e4ab080931385feb1e3,,,,,,,ctch,resources/DR.BMP,resources/DG.BMP,Door3,-0.383954578,-0.042742588,1,0,0,0.8942,optionLeft,70,8305,4,17,0,17,0,1,,,,,,,,,,,,,,,,,,,,,,,,,,,,,,,,,,,,,,,
,,,,,,,,2023-08-16_08h44.21.235,HF_wild_card,2022.2.4,Linux x86_64,60.0240096,59269aac7724de000109190f,64d2fd46c836a06233681665,64dc7e4ab080931385feb1e3,,,,,,,sngl,resources/Empty.png,resources/DY.BMP,WildCard_Ex,0.235556638,-0.02206813,1,0,0,0.956,optionRight,5,8310,4,18,0,18,0,1,,,,,,,,,,,,,,,,,,,,,,,,,,,,,,,,,,,,,,,
,,,,,,,,2023-08-16_08h44.21.235,HF_wild_card,2022.2.4,Linux x86_64,60.0240096,59269aac7724de000109190f,64d2fd46c836a06233681665,64dc7e4ab080931385feb1e3,,,,,,,decisionTrl,resources/DG.BMP,resources/DB.BMP,Door2,-0.330922939,-0.046824314,1,0,0,0.9804,optionLeft,40,8350,4,19,0,19,0,1,,,,,,,,,,,,,,,,,,,,,,,,,,,,,,,,,,,,,,,
,,,,,,,,2023-08-16_08h44.21.235,HF_wild_card,2022.2.4,Linux x86_64,60.0240096,59269aac7724de000109190f,64d2fd46c836a06233681665,64dc7e4ab080931385feb1e3,,,,,,,decisionTrl,resources/DY.BMP,resources/DG.BMP,WildCard_Ex,-0.389478825,-0.029862475,1,0,0,0.6461,optionLeft,95,8445,4,20,0,20,0,1,,,,,,,,,,,,,,,,,,,,,,,,,,,,,,,,,,,,,,,
,,,,,,,,2023-08-16_08h44.21.235,HF_wild_card,2022.2.4,Linux x86_64,60.0240096,59269aac7724de000109190f,64d2fd46c836a06233681665,64dc7e4ab080931385feb1e3,,,,,,,ctch,resources/DP.BMP,resources/DB.BMP,Door4,-0.420194308,-0.05160307,1,0,0,0.8091,optionLeft,80,8525,4,21,0,21,0,1,,,,,,,,,,,,,,,,,,,,,,,,,,,,,,,,,,,,,,,
,,,,,,,,2023-08-16_08h44.21.235,HF_wild_card,2022.2.4,Linux x86_64,60.0240096,59269aac7724de000109190f,64d2fd46c836a06233681665,64dc7e4ab080931385feb1e3,,,,,,,sngl,resources/Empty.png,resources/DB.BMP,Door1,0.385709975,-0.053803868,1,0,0,0.8876,optionRight,30,8555,4,22,0,22,0,1,,,,,,,,,,,,,,,,,,,,,,,,,,,,,,,,,,,,,,,
,,,,,,,,2023-08-16_08h44.21.235,HF_wild_card,2022.2.4,Linux x86_64,60.0240096,59269aac7724de000109190f,64d2fd46c836a06233681665,64dc7e4ab080931385feb1e3,,,,,,,decisionTrl,resources/DR.BMP,resources/DY.BMP,WildCard_Ex,0.412557531,-0.050563176,1,0,0,1.0744,optionRight,5,8560,4,23,0,23,0,1,,,,,,,,,,,,,,,,,,,,,,,,,,,,,,,,,,,,,,,
,,,,,,,,2023-08-16_08h44.21.235,HF_wild_card,2022.2.4,Linux x86_64,60.0240096,59269aac7724de000109190f,64d2fd46c836a06233681665,64dc7e4ab080931385feb1e3,,,,,,,ctch,resources/DB.BMP,resources/DP.BMP,Door4,0.31326082,-0.0464776,1,0,0,0.84,optionRight,80,8640,4,24,0,24,0,1,,,,,,,,,,,,,,,,,,,,,,,,,,,,,,,,,,,,,,,
,,,,,,,,2023-08-16_08h44.21.235,HF_wild_card,2022.2.4,Linux x86_64,60.0240096,59269aac7724de000109190f,64d2fd46c836a06233681665,64dc7e4ab080931385feb1e3,,,,,,,decisionTrl,resources/DY.BMP,resources/DP.BMP,WildCard_Ex,-0.330988284,-0.080515049,1,0,0,0.6451,optionLeft,5,8645,4,25,0,25,0,1,,,,,,,,,,,,,,,,,,,,,,,,,,,,,,,,,,,,,,,
,,,,,,,,2023-08-16_08h44.21.235,HF_wild_card,2022.2.4,Linux x86_64,60.0240096,59269aac7724de000109190f,64d2fd46c836a06233681665,64dc7e4ab080931385feb1e3,,,,,,,sngl,resources/Empty.png,resources/DY.BMP,WildCard_Ex,0.486156181,-0.020198928,1,0,0,0.6295,optionRight,95,8740,4,26,0,26,0,1,,,,,,,,,,,,,,,,,,,,,,,,,,,,,,,,,,,,,,,
,,,,,,,,2023-08-16_08h44.21.235,HF_wild_card,2022.2.4,Linux x86_64,60.0240096,59269aac7724de000109190f,64d2fd46c836a06233681665,64dc7e4ab080931385feb1e3,,,,,,,decisionTrl,resources/DR.BMP,resources/DP.BMP,Door4,0.448302092,-0.053331163,1,0,0,1.0631,optionRight,60,8800,4,27,0,27,0,1,,,,,,,,,,,,,,,,,,,,,,,,,,,,,,,,,,,,,,,
,,,,,,,,2023-08-16_08h44.21.235,HF_wild_card,2022.2.4,Linux x86_64,60.0240096,59269aac7724de000109190f,64d2fd46c836a06233681665,64dc7e4ab080931385feb1e3,,,,,,,decisionTrl,resources/DY.BMP,resources/DR.BMP,WildCard_Ex,-0.401825622,-0.041305719,1,0,0,0.763,optionLeft,95,8895,4,28,0,28,0,1,,,,,,,,,,,,,,,,,,,,,,,,,,,,,,,,,,,,,,,
,,,,,,,,2023-08-16_08h44.21.235,HF_wild_card,2022.2.4,Linux x86_64,60.0240096,59269aac7724de000109190f,64d2fd46c836a06233681665,64dc7e4ab080931385feb1e3,,,,,,,sngl,resources/DG.BMP,resources/Empty.png,Door2,-0.321705571,-0.027409695,1,0,0,0.7107,optionLeft,20,8915,4,29,0,29,0,1,,,,,,,,,,,,,,,,,,,,,,,,,,,,,,,,,,,,,,,
,,,,,,,,2023-08-16_08h44.21.235,HF_wild_card,2022.2.4,Linux x86_64,60.0240096,59269aac7724de000109190f,64d2fd46c836a06233681665,64dc7e4ab080931385feb1e3,,,,,,,sngl,resources/DY.BMP,resources/Empty.png,WildCard_Ex,-0.284138432,-0.02973606,1,0,0,0.6297,optionLeft,95,9010,4,30,0,30,0,1,,,,,,,,,,,,,,,,,,,,,,,,,,,,,,,,,,,,,,,
,,,,,,,,2023-08-16_08h44.21.235,HF_wild_card,2022.2.4,Linux x86_64,60.0240096,59269aac7724de000109190f,64d2fd46c836a06233681665,64dc7e4ab080931385feb1e3,,,,,,,decisionTrl,resources/DR.BMP,resources/DP.BMP,Door3,-0.43490756,-0.036067044,1,0,0,1.4448,optionLeft,70,9080,4,31,0,31,0,1,,,,,,,,,,,,,,,,,,,,,,,,,,,,,,,,,,,,,,,
,,,,,,,,2023-08-16_08h44.21.235,HF_wild_card,2022.2.4,Linux x86_64,60.0240096,59269aac7724de000109190f,64d2fd46c836a06233681665,64dc7e4ab080931385feb1e3,,,,,,,sngl,resources/Empty.png,resources/DP.BMP,Door4,0.430562337,0.007733486,1,0,0,0.9968,optionRight,80,9160,4,32,0,32,0,1,,,,,,,,,,,,,,,,,,,,,,,,,,,,,,,,,,,,,,,
,,,,,,,,2023-08-16_08h44.21.235,HF_wild_card,2022.2.4,Linux x86_64,60.0240096,59269aac7724de000109190f,64d2fd46c836a06233681665,64dc7e4ab080931385feb1e3,,,,,,,decisionTrl,resources/DY.BMP,resources/DB.BMP,WildCard_Ex,-0.392401907,-0.0232456,1,0,0,0.791,optionLeft,5,9165,4,33,0,33,0,1,,,,,,,,,,,,,,,,,,,,,,,,,,,,,,,,,,,,,,,
,,,,,,,,2023-08-16_08h44.21.235,HF_wild_card,2022.2.4,Linux x86_64,60.0240096,59269aac7724de000109190f,64d2fd46c836a06233681665,64dc7e4ab080931385feb1e3,,,,,,,decisionTrl,resources/DB.BMP,resources/DG.BMP,Door1,-0.276785462,-0.03143141,1,0,0,0.9799,optionLeft,30,9195,4,34,0,34,0,1,,,,,,,,,,,,,,,,,,,,,,,,,,,,,,,,,,,,,,,
,,,,,,,,2023-08-16_08h44.21.235,HF_wild_card,2022.2.4,Linux x86_64,60.0240096,59269aac7724de000109190f,64d2fd46c836a06233681665,64dc7e4ab080931385feb1e3,,,,,,,sngl,resources/DR.BMP,resources/Empty.png,Door3,-0.351025228,-0.023958453,1,0,0,0.6308,optionLeft,70,9265,4,35,0,35,0,1,,,,,,,,,,,,,,,,,,,,,,,,,,,,,,,,,,,,,,,
,,,,,,,,2023-08-16_08h44.21.235,HF_wild_card,2022.2.4,Linux x86_64,60.0240096,59269aac7724de000109190f,64d2fd46c836a06233681665,64dc7e4ab080931385feb1e3,,,,,,,decisionTrl,resources/DR.BMP,resources/DP.BMP,Door4,0.443906996,-0.013590459,1,0,0,0.707,optionRight,80,9345,4,36,0,36,0,1,,,,,,,,,,,,,,,,,,,,,,,,,,,,,,,,,,,,,,,
,,,,,,,,2023-08-16_08h44.21.235,HF_wild_card,2022.2.4,Linux x86_64,60.0240096,59269aac7724de000109190f,64d2fd46c836a06233681665,64dc7e4ab080931385feb1e3,,,,,,,sngl,resources/Empty.png,resources/DG.BMP,Door2,0.325426596,-0.016906138,1,0,0,0.7289,optionRight,40,9385,4,37,0,37,0,1,,,,,,,,,,,,,,,,,,,,,,,,,,,,,,,,,,,,,,,
,,,,,,,,2023-08-16_08h44.21.235,HF_wild_card,2022.2.4,Linux x86_64,60.0240096,59269aac7724de000109190f,64d2fd46c836a06233681665,64dc7e4ab080931385feb1e3,,,,,,,ctch,resources/DR.BMP,resources/DG.BMP,Door3,-0.32676333,-0.045776049,1,0,0,0.8982,optionLeft,70,9455,4,38,0,38,0,1,,,,,,,,,,,,,,,,,,,,,,,,,,,,,,,,,,,,,,,
,,,,,,,,2023-08-16_08h44.21.235,HF_wild_card,2022.2.4,Linux x86_64,60.0240096,59269aac7724de000109190f,64d2fd46c836a06233681665,64dc7e4ab080931385feb1e3,,,,,,,decisionTrl,resources/DP.BMP,resources/DR.BMP,Door4,-0.323690273,-0.035627118,1,0,0,0.6769,optionLeft,60,9515,4,39,0,39,0,1,,,,,,,,,,,,,,,,,,,,,,,,,,,,,,,,,,,,,,,
,,,,,,,,2023-08-16_08h44.21.235,HF_wild_card,2022.2.4,Linux x86_64,60.0240096,59269aac7724de000109190f,64d2fd46c836a06233681665,64dc7e4ab080931385feb1e3,,,,,,,ctch,resources/DB.BMP,resources/DP.BMP,Door4,0.453978362,-0.055365103,1,0,0,0.7957,optionRight,60,9575,4,40,0,40,0,1,,,,,,,,,,,,,,,,,,,,,,,,,,,,,,,,,,,,,,,
,,,,,,,,2023-08-16_08h44.21.235,HF_wild_card,2022.2.4,Linux x86_64,60.0240096,59269aac7724de000109190f,64d2fd46c836a06233681665,64dc7e4ab080931385feb1e3,,,,,,,decisionTrl,resources/DP.BMP,resources/DR.BMP,Door3,0.507419021,-0.052679168,1,0,0,0.8483,optionRight,70,9645,4,41,0,41,0,1,,,,,,,,,,,,,,,,,,,,,,,,,,,,,,,,,,,,,,,
,,,,,,,,2023-08-16_08h44.21.235,HF_wild_card,2022.2.4,Linux x86_64,60.0240096,59269aac7724de000109190f,64d2fd46c836a06233681665,64dc7e4ab080931385feb1e3,,,,,,,decisionTrl,resources/DB.BMP,resources/DG.BMP,Door1,-0.355168766,-0.04678041,1,0,0,0.842,optionLeft,30,9675,4,42,0,42,0,1,,,,,,,,,,,,,,,,,,,,,,,,,,,,,,,,,,,,,,,
,,,,,,,,2023-08-16_08h44.21.235,HF_wild_card,2022.2.4,Linux x86_64,60.0240096,59269aac7724de000109190f,64d2fd46c836a06233681665,64dc7e4ab080931385feb1e3,,,,,,,sngl,resources/DB.BMP,resources/Empty.png,Door1,-0.375572028,-0.074678598,1,0,0,0.6971,optionLeft,30,9705,4,43,0,43,0,1,,,,,,,,,,,,,,,,,,,,,,,,,,,,,,,,,,,,,,,
,,,,,,,,2023-08-16_08h44.21.235,HF_wild_card,2022.2.4,Linux x86_64,60.0240096,59269aac7724de000109190f,64d2fd46c836a06233681665,64dc7e4ab080931385feb1e3,,,,,,,,,,,,,,,,,,,,,,,,,,3,0,3,0,1,,,,,,,,,,,,,,,,,,,,,,,,,,,,,,,,,,
,,,,,,,,2023-08-16_08h44.21.235,HF_wild_card,2022.2.4,Linux x86_64,60.0240096,59269aac7724de000109190f,64d2fd46c836a06233681665,64dc7e4ab080931385feb1e3,,,,,,,decisionTrl,resources/DP.BMP,resources/DY.BMP,WildCard_Ex,0.443987105,0.002012959,1,0,0,0.9988,optionRight,5,9710,5,0,0,0,0,1,,,,,,,,,,,,,,,,,,,,,,,,,,,,,,,,,,,,,,,
,,,,,,,,2023-08-16_08h44.21.235,HF_wild_card,2022.2.4,Linux x86_64,60.0240096,59269aac7724de000109190f,64d2fd46c836a06233681665,64dc7e4ab080931385feb1e3,,,,,,,sngl,resources/DP.BMP,resources/Empty.png,Door4,-0.226576699,-0.028133534,1,0,0,0.7462,optionLeft,80,9790,5,1,0,1,0,1,,,,,,,,,,,,,,,,,,,,,,,,,,,,,,,,,,,,,,,
,,,,,,,,2023-08-16_08h44.21.235,HF_wild_card,2022.2.4,Linux x86_64,60.0240096,59269aac7724de000109190f,64d2fd46c836a06233681665,64dc7e4ab080931385feb1e3,,,,,,,decisionTrl,resources/DY.BMP,resources/DB.BMP,WildCard_Ex,-0.377848307,-0.049081767,1,0,0,0.5956,optionLeft,5,9795,5,2,0,2,0,1,,,,,,,,,,,,,,,,,,,,,,,,,,,,,,,,,,,,,,,
,,,,,,,,2023-08-16_08h44.21.235,HF_wild_card,2022.2.4,Linux x86_64,60.0240096,59269aac7724de000109190f,64d2fd46c836a06233681665,64dc7e4ab080931385feb1e3,,,,,,,decisionTrl,resources/DG.BMP,resources/DB.BMP,Door2,-0.390394423,-0.079389855,1,0,0,0.8135,optionLeft,40,9835,5,3,0,3,0,1,,,,,,,,,,,,,,,,,,,,,,,,,,,,,,,,,,,,,,,
,,,,,,,,2023-08-16_08h44.21.235,HF_wild_card,2022.2.4,Linux x86_64,60.0240096,59269aac7724de000109190f,64d2fd46c836a06233681665,64dc7e4ab080931385feb1e3,,,,,,,decisionTrl,resources/DG.BMP,resources/DB.BMP,Door1,0.478081173,-0.090702092,1,0,0,0.7976,optionRight,30,9865,5,4,0,4,0,1,,,,,,,,,,,,,,,,,,,,,,,,,,,,,,,,,,,,,,,
,,,,,,,,2023-08-16_08h44.21.235,HF_wild_card,2022.2.4,Linux x86_64,60.0240096,59269aac7724de000109190f,64d2fd46c836a06233681665,64dc7e4ab080931385feb1e3,,,,,,,decisionTrl,resources/DB.BMP,resources/DG.BMP,Door1,-0.366972182,-0.035411799,1,0,0,0.7287,optionLeft,30,9895,5,5,0,5,0,1,,,,,,,,,,,,,,,,,,,,,,,,,,,,,,,,,,,,,,,
,,,,,,,,2023-08-16_08h44.21.235,HF_wild_card,2022.2.4,Linux x86_64,60.0240096,59269aac7724de000109190f,64d2fd46c836a06233681665,64dc7e4ab080931385feb1e3,,,,,,,sngl,resources/DY.BMP,resources/Empty.png,WildCard_Ex,-0.329784852,-0.03693397,1,0,0,0.6258,optionLeft,95,9990,5,6,0,6,0,1,,,,,,,,,,,,,,,,,,,,,,,,,,,,,,,,,,,,,,,
,,,,,,,,2023-08-16_08h44.21.235,HF_wild_card,2022.2.4,Linux x86_64,60.0240096,59269aac7724de000109190f,64d2fd46c836a06233681665,64dc7e4ab080931385feb1e3,,,,,,,decisionTrl,resources/DP.BMP,resources/DR.BMP,Door4,-0.325376051,-0.024079605,1,0,0,0.8956,optionLeft,60,10050,5,7,0,7,0,1,,,,,,,,,,,,,,,,,,,,,,,,,,,,,,,,,,,,,,,
,,,,,,,,2023-08-16_08h44.21.235,HF_wild_card,2022.2.4,Linux x86_64,60.0240096,59269aac7724de000109190f,64d2fd46c836a06233681665,64dc7e4ab080931385feb1e3,,,,,,,decisionTrl,resources/DR.BMP,resources/DP.BMP,Door3,-0.426574142,-0.019536054,1,0,0,0.6306,optionLeft,70,10120,5,8,0,8,0,1,,,,,,,,,,,,,,,,,,,,,,,,,,,,,,,,,,,,,,,
,,,,,,,,2023-08-16_08h44.21.235,HF_wild_card,2022.2.4,Linux x86_64,60.0240096,59269aac7724de000109190f,64d2fd46c836a06233681665,64dc7e4ab080931385feb1e3,,,,,,,decisionTrl,resources/DG.BMP,resources/DB.BMP,Door2,-0.321046052,-0.01099703,1,0,0,0.8301,optionLeft,20,10140,5,9,0,9,0,1,,,,,,,,,,,,,,,,,,,,,,,,,,,,,,,,,,,,,,,
,,,,,,,,2023-08-16_08h44.21.235,HF_wild_card,2022.2.4,Linux x86_64,60.0240096,59269aac7724de000109190f,64d2fd46c836a06233681665,64dc7e4ab080931385feb1e3,,,,,,,decisionTrl,resources/DR.BMP,resources/DP.BMP,Door3,-0.384882326,-0.021946483,1,0,0,0.846,optionLeft,70,10210,5,10,0,10,0,1,,,,,,,,,,,,,,,,,,,,,,,,,,,,,,,,,,,,,,,
,,,,,,,,2023-08-16_08h44.21.235,HF_wild_card,2022.2.4,Linux x86_64,60.0240096,59269aac7724de000109190f,64d2fd46c836a06233681665,64dc7e4ab080931385feb1e3,,,,,,,sngl,resources/DR.BMP,resources/Empty.png,Door3,-0.36945071,-0.035460401,1,0,0,1.292,optionLeft,70,10280,5,11,0,11,0,1,,,,,,,,,,,,,,,,,,,,,,,,,,,,,,,,,,,,,,,
,,,,,,,,2023-08-16_08h44.21.235,HF_wild_card,2022.2.4,Linux x86_64,60.0240096,59269aac7724de000109190f,64d2fd46c836a06233681665,64dc7e4ab080931385feb1e3,,,,,,,sngl,resources/DG.BMP,resources/Empty.png,Door2,-0.313962124,-0.044143112,1,0,0,0.6632,optionLeft,40,10320,5,12,0,12,0,1,,,,,,,,,,,,,,,,,,,,,,,,,,,,,,,,,,,,,,,
,,,,,,,,2023-08-16_08h44.21.235,HF_wild_card,2022.2.4,Linux x86_64,60.0240096,59269aac7724de000109190f,64d2fd46c836a06233681665,64dc7e4ab080931385feb1e3,,,,,,,sngl,resources/Empty.png,resources/DY.BMP,WildCard_Ex,0.397130472,-0.017623619,1,0,0,0.7324,optionRight,5,10325,5,13,0,13,0,1,,,,,,,,,,,,,,,,,,,,,,,,,,,,,,,,,,,,,,,
,,,,,,,,2023-08-16_08h44.21.235,HF_wild_card,2022.2.4,Linux x86_64,60.0240096,59269aac7724de000109190f,64d2fd46c836a06233681665,64dc7e4ab080931385feb1e3,,,,,,,ctch,resources/DB.BMP,resources/DP.BMP,Door4,0.342253508,-0.029018155,1,0,0,0.8501,optionRight,60,10385,5,14,0,14,0,1,,,,,,,,,,,,,,,,,,,,,,,,,,,,,,,,,,,,,,,
,,,,,,,,2023-08-16_08h44.21.235,HF_wild_card,2022.2.4,Linux x86_64,60.0240096,59269aac7724de000109190f,64d2fd46c836a06233681665,64dc7e4ab080931385feb1e3,,,,,,,decisionTrl,resources/DB.BMP,resources/DG.BMP,Door2,0.410825941,-0.046444752,1,0,0,0.7277,optionRight,20,10405,5,15,0,15,0,1,,,,,,,,,,,,,,,,,,,,,,,,,,,,,,,,,,,,,,,
,,,,,,,,2023-08-16_08h44.21.235,HF_wild_card,2022.2.4,Linux x86_64,60.0240096,59269aac7724de000109190f,64d2fd46c836a06233681665,64dc7e4ab080931385feb1e3,,,,,,,decisionTrl,resources/DY.BMP,resources/DP.BMP,WildCard_Ex,-0.40956529,-0.031186881,1,0,0,0.6862,optionLeft,95,10500,5,16,0,16,0,1,,,,,,,,,,,,,,,,,,,,,,,,,,,,,,,,,,,,,,,
,,,,,,,,2023-08-16_08h44.21.235,HF_wild_card,2022.2.4,Linux x86_64,60.0240096,59269aac7724de000109190f,64d2fd46c836a06233681665,64dc7e4ab080931385feb1e3,,,,,,,sngl,resources/Empty.png,resources/DB.BMP,Door1,0.321633374,-0.029685939,1,0,0,0.7143,optionRight,30,10530,5,17,0,17,0,1,,,,,,,,,,,,,,,,,,,,,,,,,,,,,,,,,,,,,,,
,,,,,,,,2023-08-16_08h44.21.235,HF_wild_card,2022.2.4,Linux x86_64,60.0240096,59269aac7724de000109190f,64d2fd46c836a06233681665,64dc7e4ab080931385feb1e3,,,,,,,decisionTrl,resources/DR.BMP,resources/DY.BMP,WildCard_Ex,0.283575906,-0.026617933,1,0,0,0.9796,optionRight,95,10625,5,18,0,18,0,1,,,,,,,,,,,,,,,,,,,,,,,,,,,,,,,,,,,,,,,
,,,,,,,,2023-08-16_08h44.21.235,HF_wild_card,2022.2.4,Linux x86_64,60.0240096,59269aac7724de000109190f,64d2fd46c836a06233681665,64dc7e4ab080931385feb1e3,,,,,,,decisionTrl,resources/DP.BMP,resources/DR.BMP,Door3,0.488832121,-0.083877811,1,0,0,1.3955,optionRight,70,10695,5,19,0,19,0,1,,,,,,,,,,,,,,,,,,,,,,,,,,,,,,,,,,,,,,,
,,,,,,,,2023-08-16_08h44.21.235,HF_wild_card,2022.2.4,Linux x86_64,60.0240096,59269aac7724de000109190f,64d2fd46c836a06233681665,64dc7e4ab080931385feb1e3,,,,,,,sngl,resources/DB.BMP,resources/Empty.png,Door1,-0.364955302,-0.04196439,1,0,0,0.7441,optionLeft,30,10725,5,20,0,20,0,1,,,,,,,,,,,,,,,,,,,,,,,,,,,,,,,,,,,,,,,
,,,,,,,,2023-08-16_08h44.21.235,HF_wild_card,2022.2.4,Linux x86_64,60.0240096,59269aac7724de000109190f,64d2fd46c836a06233681665,64dc7e4ab080931385feb1e3,,,,,,,decisionTrl,resources/DB.BMP,resources/DG.BMP,Door1,-0.379417737,-0.049466416,1,0,0,0.9042,optionLeft,30,10755,5,21,0,21,0,1,,,,,,,,,,,,,,,,,,,,,,,,,,,,,,,,,,,,,,,
,,,,,,,,2023-08-16_08h44.21.235,HF_wild_card,2022.2.4,Linux x86_64,60.0240096,59269aac7724de000109190f,64d2fd46c836a06233681665,64dc7e4ab080931385feb1e3,,,,,,,decisionTrl,resources/DP.BMP,resources/DR.BMP,Door4,-0.401106976,-0.055523908,1,0,0,1.133,optionLeft,80,10835,5,22,0,22,0,1,,,,,,,,,,,,,,,,,,,,,,,,,,,,,,,,,,,,,,,
,,,,,,,,2023-08-16_08h44.21.235,HF_wild_card,2022.2.4,Linux x86_64,60.0240096,59269aac7724de000109190f,64d2fd46c836a06233681665,64dc7e4ab080931385feb1e3,,,,,,,decisionTrl,resources/DG.BMP,resources/DY.BMP,WildCard_Ex,0.502051883,-0.048921338,1,0,0,0.7817,optionRight,95,10930,5,23,0,23,0,1,,,,,,,,,,,,,,,,,,,,,,,,,,,,,,,,,,,,,,,
,,,,,,,,2023-08-16_08h44.21.235,HF_wild_card,2022.2.4,Linux x86_64,60.0240096,59269aac7724de000109190f,64d2fd46c836a06233681665,64dc7e4ab080931385feb1e3,,,,,,,decisionTrl,resources/DG.BMP,resources/DB.BMP,Door2,-0.347204456,-0.046614294,1,0,0,0.8164,optionLeft,20,10950,5,24,0,24,0,1,,,,,,,,,,,,,,,,,,,,,,,,,,,,,,,,,,,,,,,
,,,,,,,,2023-08-16_08h44.21.235,HF_wild_card,2022.2.4,Linux x86_64,60.0240096,59269aac7724de000109190f,64d2fd46c836a06233681665,64dc7e4ab080931385feb1e3,,,,,,,sngl,resources/Empty.png,resources/DR.BMP,Door3,0.434602667,-0.04445136,1,0,0,0.7799,optionRight,70,11020,5,25,0,25,0,1,,,,,,,,,,,,,,,,,,,,,,,,,,,,,,,,,,,,,,,
,,,,,,,,2023-08-16_08h44.21.235,HF_wild_card,2022.2.4,Linux x86_64,60.0240096,59269aac7724de000109190f,64d2fd46c836a06233681665,64dc7e4ab080931385feb1e3,,,,,,,ctch,resources/DP.BMP,resources/DB.BMP,Door4,-0.337757923,-0.030369971,1,0,0,0.8997,optionLeft,60,11080,5,26,0,26,0,1,,,,,,,,,,,,,,,,,,,,,,,,,,,,,,,,,,,,,,,
,,,,,,,,2023-08-16_08h44.21.235,HF_wild_card,2022.2.4,Linux x86_64,60.0240096,59269aac7724de000109190f,64d2fd46c836a06233681665,64dc7e4ab080931385feb1e3,,,,,,,decisionTrl,resources/DY.BMP,resources/DR.BMP,WildCard_Ex,-0.266918818,-0.048533969,1,0,0,0.8478,optionLeft,95,11175,5,27,0,27,0,1,,,,,,,,,,,,,,,,,,,,,,,,,,,,,,,,,,,,,,,
,,,,,,,,2023-08-16_08h44.21.235,HF_wild_card,2022.2.4,Linux x86_64,60.0240096,59269aac7724de000109190f,64d2fd46c836a06233681665,64dc7e4ab080931385feb1e3,,,,,,,ctch,resources/DR.BMP,resources/DG.BMP,Door3,-0.432655829,-0.055217213,1,0,0,0.7656,optionLeft,70,11245,5,28,0,28,0,1,,,,,,,,,,,,,,,,,,,,,,,,,,,,,,,,,,,,,,,
,,,,,,,,2023-08-16_08h44.21.235,HF_wild_card,2022.2.4,Linux x86_64,60.0240096,59269aac7724de000109190f,64d2fd46c836a06233681665,64dc7e4ab080931385feb1e3,,,,,,,decisionTrl,resources/DB.BMP,resources/DY.BMP,WildCard_Ex,0.433760325,-0.021811415,1,0,0,0.7297,optionRight,95,11340,5,29,0,29,0,1,,,,,,,,,,,,,,,,,,,,,,,,,,,,,,,,,,,,,,,
,,,,,,,,2023-08-16_08h44.21.235,HF_wild_card,2022.2.4,Linux x86_64,60.0240096,59269aac7724de000109190f,64d2fd46c836a06233681665,64dc7e4ab080931385feb1e3,,,,,,,decisionTrl,resources/DY.BMP,resources/DG.BMP,WildCard_Ex,-0.410697407,-0.039331507,1,0,0,0.6463,optionLeft,95,11435,5,30,0,30,0,1,,,,,,,,,,,,,,,,,,,,,,,,,,,,,,,,,,,,,,,
,,,,,,,,2023-08-16_08h44.21.235,HF_wild_card,2022.2.4,Linux x86_64,60.0240096,59269aac7724de000109190f,64d2fd46c836a06233681665,64dc7e4ab080931385feb1e3,,,,,,,decisionTrl,resources/DR.BMP,resources/DP.BMP,Door4,0.37826637,-0.040828246,1,0,0,1.4131,optionRight,60,11495,5,31,0,31,0,1,,,,,,,,,,,,,,,,,,,,,,,,,,,,,,,,,,,,,,,
,,,,,,,,2023-08-16_08h44.21.235,HF_wild_card,2022.2.4,Linux x86_64,60.0240096,59269aac7724de000109190f,64d2fd46c836a06233681665,64dc7e4ab080931385feb1e3,,,,,,,sngl,resources/DY.BMP,resources/Empty.png,WildCard_Ex,-0.361538251,-0.035664594,1,0,0,0.6809,optionLeft,5,11500,5,32,0,32,0,1,,,,,,,,,,,,,,,,,,,,,,,,,,,,,,,,,,,,,,,
,,,,,,,,2023-08-16_08h44.21.235,HF_wild_card,2022.2.4,Linux x86_64,60.0240096,59269aac7724de000109190f,64d2fd46c836a06233681665,64dc7e4ab080931385feb1e3,,,,,,,ctch,resources/DP.BMP,resources/DB.BMP,Door4,-0.419811708,-0.052502773,1,0,0,0.7965,optionLeft,60,11560,5,33,0,33,0,1,,,,,,,,,,,,,,,,,,,,,,,,,,,,,,,,,,,,,,,
,,,,,,,,2023-08-16_08h44.21.235,HF_wild_card,2022.2.4,Linux x86_64,60.0240096,59269aac7724de000109190f,64d2fd46c836a06233681665,64dc7e4ab080931385feb1e3,,,,,,,decisionTrl,resources/DR.BMP,resources/DP.BMP,Door3,-0.418429728,-0.067091377,1,0,0,1.113,optionLeft,70,11630,5,34,0,34,0,1,,,,,,,,,,,,,,,,,,,,,,,,,,,,,,,,,,,,,,,
,,,,,,,,2023-08-16_08h44.21.235,HF_wild_card,2022.2.4,Linux x86_64,60.0240096,59269aac7724de000109190f,64d2fd46c836a06233681665,64dc7e4ab080931385feb1e3,,,,,,,ctch,resources/DG.BMP,resources/DR.BMP,Door3,0.419115844,-0.008508929,1,0,0,0.795,optionRight,70,11700,5,35,0,35,0,1,,,,,,,,,,,,,,,,,,,,,,,,,,,,,,,,,,,,,,,
,,,,,,,,2023-08-16_08h44.21.235,HF_wild_card,2022.2.4,Linux x86_64,60.0240096,59269aac7724de000109190f,64d2fd46c836a06233681665,64dc7e4ab080931385feb1e3,,,,,,,sngl,resources/Empty.png,resources/DY.BMP,WildCard_Ex,0.412356906,-0.053626131,1,0,0,0.8296,optionRight,95,11795,5,36,0,36,0,1,,,,,,,,,,,,,,,,,,,,,,,,,,,,,,,,,,,,,,,
,,,,,,,,2023-08-16_08h44.21.235,HF_wild_card,2022.2.4,Linux x86_64,60.0240096,59269aac7724de000109190f,64d2fd46c836a06233681665,64dc7e4ab080931385feb1e3,,,,,,,decisionTrl,resources/DB.BMP,resources/DG.BMP,Door1,-0.329688673,-0.059916143,1,0,0,0.6962,optionLeft,30,11825,5,37,0,37,0,1,,,,,,,,,,,,,,,,,,,,,,,,,,,,,,,,,,,,,,,
,,,,,,,,2023-08-16_08h44.21.235,HF_wild_card,2022.2.4,Linux x86_64,60.0240096,59269aac7724de000109190f,64d2fd46c836a06233681665,64dc7e4ab080931385feb1e3,,,,,,,sngl,resources/Empty.png,resources/DG.BMP,Door2,0.351450037,-0.044604231,1,0,0,0.6972,optionRight,20,11845,5,38,0,38,0,1,,,,,,,,,,,,,,,,,,,,,,,,,,,,,,,,,,,,,,,
,,,,,,,,2023-08-16_08h44.21.235,HF_wild_card,2022.2.4,Linux x86_64,60.0240096,59269aac7724de000109190f,64d2fd46c836a06233681665,64dc7e4ab080931385feb1e3,,,,,,,decisionTrl,resources/DP.BMP,resources/DR.BMP,Door4,-0.445305718,-0.038354097,1,0,0,0.9792,optionLeft,80,11925,5,39,0,39,0,1,,,,,,,,,,,,,,,,,,,,,,,,,,,,,,,,,,,,,,,
,,,,,,,,2023-08-16_08h44.21.235,HF_wild_card,2022.2.4,Linux x86_64,60.0240096,59269aac7724de000109190f,64d2fd46c836a06233681665,64dc7e4ab080931385feb1e3,,,,,,,ctch,resources/DB.BMP,resources/DP.BMP,Door4,0.521040033,-0.077449339,1,0,0,0.7882,optionRight,60,11985,5,40,0,40,0,1,,,,,,,,,,,,,,,,,,,,,,,,,,,,,,,,,,,,,,,
,,,,,,,,2023-08-16_08h44.21.235,HF_wild_card,2022.2.4,Linux x86_64,60.0240096,59269aac7724de000109190f,64d2fd46c836a06233681665,64dc7e4ab080931385feb1e3,,,,,,,ctch,resources/DG.BMP,resources/DR.BMP,Door3,0.300051513,-0.030796757,1,0,0,0.963,optionRight,70,12055,5,41,0,41,0,1,,,,,,,,,,,,,,,,,,,,,,,,,,,,,,,,,,,,,,,
,,,,,,,,2023-08-16_08h44.21.235,HF_wild_card,2022.2.4,Linux x86_64,60.0240096,59269aac7724de000109190f,64d2fd46c836a06233681665,64dc7e4ab080931385feb1e3,,,,,,,sngl,resources/Empty.png,resources/DP.BMP,Door4,0.403924306,-0.072311225,1,0,0,0.7135,optionRight,60,12115,5,42,0,42,0,1,,,,,,,,,,,,,,,,,,,,,,,,,,,,,,,,,,,,,,,
,,,,,,,,2023-08-16_08h44.21.235,HF_wild_card,2022.2.4,Linux x86_64,60.0240096,59269aac7724de000109190f,64d2fd46c836a06233681665,64dc7e4ab080931385feb1e3,,,,,,,ctch,resources/DR.BMP,resources/DG.BMP,Door3,-0.346782578,-0.039490488,1,0,0,0.8312,optionLeft,70,12185,5,43,0,43,0,1,,,,,,,,,,,,,,,,,,,,,,,,,,,,,,,,,,,,,,,
,,,,,,,,2023-08-16_08h44.21.235,HF_wild_card,2022.2.4,Linux x86_64,60.0240096,59269aac7724de000109190f,64d2fd46c836a06233681665,64dc7e4ab080931385feb1e3,,,,,,,,,,,,,,,,,,,,,,,,,,4,0,4,0,1,,,,,,,,,,,,,,,,,,,,,,,,,,,,,,,,,,
,,,,,,,,2023-08-16_08h44.21.235,HF_wild_card,2022.2.4,Linux x86_64,60.0240096,59269aac7724de000109190f,64d2fd46c836a06233681665,64dc7e4ab080931385feb1e3,,,,,,,decisionTrl,resources/DB.BMP,resources/DG.BMP,Door1,-0.42493686,-0.105033804,1,0,0,1.0788,optionLeft,30,12215,6,0,0,0,0,1,,,,,,,,,,,,,,,,,,,,,,,,,,,,,,,,,,,,,,,
,,,,,,,,2023-08-16_08h44.21.235,HF_wild_card,2022.2.4,Linux x86_64,60.0240096,59269aac7724de000109190f,64d2fd46c836a06233681665,64dc7e4ab080931385feb1e3,,,,,,,sngl,resources/Empty.png,resources/DR.BMP,Door3,0.351998647,-0.041946376,1,0,0,0.7306,optionRight,70,12285,6,1,0,1,0,1,,,,,,,,,,,,,,,,,,,,,,,,,,,,,,,,,,,,,,,
,,,,,,,,2023-08-16_08h44.21.235,HF_wild_card,2022.2.4,Linux x86_64,60.0240096,59269aac7724de000109190f,64d2fd46c836a06233681665,64dc7e4ab080931385feb1e3,,,,,,,decisionTrl,resources/DY.BMP,resources/DG.BMP,WildCard_Ex,-0.388283624,-0.083801941,1,0,0,0.714,optionLeft,5,12290,6,2,0,2,0,1,,,,,,,,,,,,,,,,,,,,,,,,,,,,,,,,,,,,,,,
,,,,,,,,2023-08-16_08h44.21.235,HF_wild_card,2022.2.4,Linux x86_64,60.0240096,59269aac7724de000109190f,64d2fd46c836a06233681665,64dc7e4ab080931385feb1e3,,,,,,,decisionTrl,resources/DG.BMP,resources/DY.BMP,WildCard_Ex,0.425512102,-0.070657624,1,0,0,0.6973,optionRight,5,12295,6,3,0,3,0,1,,,,,,,,,,,,,,,,,,,,,,,,,,,,,,,,,,,,,,,
,,,,,,,,2023-08-16_08h44.21.235,HF_wild_card,2022.2.4,Linux x86_64,60.0240096,59269aac7724de000109190f,64d2fd46c836a06233681665,64dc7e4ab080931385feb1e3,,,,,,,sngl,resources/DB.BMP,resources/Empty.png,Door1,-0.363570072,-0.042121393,1,0,0,0.6284,optionLeft,30,12325,6,4,0,4,0,1,,,,,,,,,,,,,,,,,,,,,,,,,,,,,,,,,,,,,,,
,,,,,,,,2023-08-16_08h44.21.235,HF_wild_card,2022.2.4,Linux x86_64,60.0240096,59269aac7724de000109190f,64d2fd46c836a06233681665,64dc7e4ab080931385feb1e3,,,,,,,sngl,resources/Empty.png,resources/DY.BMP,WildCard_Ex,0.43433479,-0.055142332,1,0,0,0.6629,optionRight,95,12420,6,5,0,5,0,1,,,,,,,,,,,,,,,,,,,,,,,,,,,,,,,,,,,,,,,
,,,,,,,,2023-08-16_08h44.21.235,HF_wild_card,2022.2.4,Linux x86_64,60.0240096,59269aac7724de000109190f,64d2fd46c836a06233681665,64dc7e4ab080931385feb1e3,,,,,,,decisionTrl,resources/DR.BMP,resources/DY.BMP,WildCard_Ex,0.360190498,-0.077363473,1,0,0,0.6967,optionRight,5,12425,6,6,0,6,0,1,,,,,,,,,,,,,,,,,,,,,,,,,,,,,,,,,,,,,,,
,,,,,,,,2023-08-16_08h44.21.235,HF_wild_card,2022.2.4,Linux x86_64,60.0240096,59269aac7724de000109190f,64d2fd46c836a06233681665,64dc7e4ab080931385feb1e3,,,,,,,decisionTrl,resources/DR.BMP,resources/DP.BMP,Door4,0.342378828,-0.095964502,1,0,0,0.7802,optionRight,60,12485,6,7,0,7,0,1,,,,,,,,,,,,,,,,,,,,,,,,,,,,,,,,,,,,,,,
,,,,,,,,2023-08-16_08h44.21.235,HF_wild_card,2022.2.4,Linux x86_64,60.0240096,59269aac7724de000109190f,64d2fd46c836a06233681665,64dc7e4ab080931385feb1e3,,,,,,,decisionTrl,resources/DR.BMP,resources/DP.BMP,Door4,0.306972221,-0.077493067,1,0,0,0.6907,optionRight,80,12565,6,8,0,8,0,1,,,,,,,,,,,,,,,,,,,,,,,,,,,,,,,,,,,,,,,
,,,,,,,,2023-08-16_08h44.21.235,HF_wild_card,2022.2.4,Linux x86_64,60.0240096,59269aac7724de000109190f,64d2fd46c836a06233681665,64dc7e4ab080931385feb1e3,,,,,,,ctch,resources/DP.BMP,resources/DB.BMP,Door4,-0.338186123,-0.082116692,1,0,0,0.6818,optionLeft,80,12645,6,9,0,9,0,1,,,,,,,,,,,,,,,,,,,,,,,,,,,,,,,,,,,,,,,
,,,,,,,,2023-08-16_08h44.21.235,HF_wild_card,2022.2.4,Linux x86_64,60.0240096,59269aac7724de000109190f,64d2fd46c836a06233681665,64dc7e4ab080931385feb1e3,,,,,,,decisionTrl,resources/DB.BMP,resources/DG.BMP,Door1,-0.326537062,-0.025752491,1,0,0,1.0264,optionLeft,30,12675,6,10,0,10,0,1,,,,,,,,,,,,,,,,,,,,,,,,,,,,,,,,,,,,,,,
,,,,,,,,2023-08-16_08h44.21.235,HF_wild_card,2022.2.4,Linux x86_64,60.0240096,59269aac7724de000109190f,64d2fd46c836a06233681665,64dc7e4ab080931385feb1e3,,,,,,,sngl,resources/Empty.png,resources/DP.BMP,Door4,0.289057343,-0.046995375,1,0,0,0.6816,optionRight,80,12755,6,11,0,11,0,1,,,,,,,,,,,,,,,,,,,,,,,,,,,,,,,,,,,,,,,
,,,,,,,,2023-08-16_08h44.21.235,HF_wild_card,2022.2.4,Linux x86_64,60.0240096,59269aac7724de000109190f,64d2fd46c836a06233681665,64dc7e4ab080931385feb1e3,,,,,,,sngl,resources/Empty.png,resources/DB.BMP,Door1,0.375125461,-0.048832752,1,0,0,0.7295,optionRight,30,12785,6,12,0,12,0,1,,,,,,,,,,,,,,,,,,,,,,,,,,,,,,,,,,,,,,,
,,,,,,,,2023-08-16_08h44.21.235,HF_wild_card,2022.2.4,Linux x86_64,60.0240096,59269aac7724de000109190f,64d2fd46c836a06233681665,64dc7e4ab080931385feb1e3,,,,,,,decisionTrl,resources/DG.BMP,resources/DB.BMP,Door2,-0.38408456,-0.043949268,1,0,0,0.6985,optionLeft,40,12825,6,13,0,13,0,1,,,,,,,,,,,,,,,,,,,,,,,,,,,,,,,,,,,,,,,
,,,,,,,,2023-08-16_08h44.21.235,HF_wild_card,2022.2.4,Linux x86_64,60.0240096,59269aac7724de000109190f,64d2fd46c836a06233681665,64dc7e4ab080931385feb1e3,,,,,,,decisionTrl,resources/DB.BMP,resources/DY.BMP,WildCard_Ex,0.39951056,-0.026779069,1,0,0,0.8453,optionRight,95,12920,6,14,0,14,0,1,,,,,,,,,,,,,,,,,,,,,,,,,,,,,,,,,,,,,,,
,,,,,,,,2023-08-16_08h44.21.235,HF_wild_card,2022.2.4,Linux x86_64,60.0240096,59269aac7724de000109190f,64d2fd46c836a06233681665,64dc7e4ab080931385feb1e3,,,,,,,decisionTrl,resources/DP.BMP,resources/DR.BMP,Door4,-0.340329947,-0.076868375,1,0,0,1.0131,optionLeft,60,12980,6,15,0,15,0,1,,,,,,,,,,,,,,,,,,,,,,,,,,,,,,,,,,,,,,,
,,,,,,,,2023-08-16_08h44.21.235,HF_wild_card,2022.2.4,Linux x86_64,60.0240096,59269aac7724de000109190f,64d2fd46c836a06233681665,64dc7e4ab080931385feb1e3,,,,,,,decisionTrl,resources/DP.BMP,resources/DR.BMP,Door4,-0.363417731,-0.064174758,1,0,0,0.7309,optionLeft,60,13040,6,16,0,16,0,1,,,,,,,,,,,,,,,,,,,,,,,,,,,,,,,,,,,,,,,
,,,,,,,,2023-08-16_08h44.21.235,HF_wild_card,2022.2.4,Linux x86_64,60.0240096,59269aac7724de000109190f,64d2fd46c836a06233681665,64dc7e4ab080931385feb1e3,,,,,,,decisionTrl,resources/DP.BMP,resources/DR.BMP,Door3,0.291889473,-0.051637155,1,0,0,0.8026,optionRight,70,13110,6,17,0,17,0,1,,,,,,,,,,,,,,,,,,,,,,,,,,,,,,,,,,,,,,,
,,,,,,,,2023-08-16_08h44.21.235,HF_wild_card,2022.2.4,Linux x86_64,60.0240096,59269aac7724de000109190f,64d2fd46c836a06233681665,64dc7e4ab080931385feb1e3,,,,,,,decisionTrl,resources/DG.BMP,resources/DB.BMP,Door2,-0.355459143,-0.056082655,1,0,0,1.1168,optionLeft,20,13130,6,18,0,18,0,1,,,,,,,,,,,,,,,,,,,,,,,,,,,,,,,,,,,,,,,
,,,,,,,,2023-08-16_08h44.21.235,HF_wild_card,2022.2.4,Linux x86_64,60.0240096,59269aac7724de000109190f,64d2fd46c836a06233681665,64dc7e4ab080931385feb1e3,,,,,,,decisionTrl,resources/DG.BMP,resources/DB.BMP,Door2,-0.295307866,-0.092737057,1,0,0,0.6918,optionLeft,20,13150,6,19,0,19,0,1,,,,,,,,,,,,,,,,,,,,,,,,,,,,,,,,,,,,,,,
,,,,,,,,2023-08-16_08h44.21.235,HF_wild_card,2022.2.4,Linux x86_64,60.0240096,59269aac7724de000109190f,64d2fd46c836a06233681665,64dc7e4ab080931385feb1e3,,,,,,,sngl,resources/DP.BMP,resources/Empty.png,Door4,-0.364981793,-0.088912363,1,0,0,0.7134,optionLeft,60,13210,6,20,0,20,0,1,,,,,,,,,,,,,,,,,,,,,,,,,,,,,,,,,,,,,,,
,,,,,,,,2023-08-16_08h44.21.235,HF_wild_card,2022.2.4,Linux x86_64,60.0240096,59269aac7724de000109190f,64d2fd46c836a06233681665,64dc7e4ab080931385feb1e3,,,,,,,decisionTrl,resources/DR.BMP,resources/DP.BMP,Door3,-0.372952214,-0.049363207,1,0,0,0.7028,optionLeft,70,13280,6,21,0,21,0,1,,,,,,,,,,,,,,,,,,,,,,,,,,,,,,,,,,,,,,,
,,,,,,,,2023-08-16_08h44.21.235,HF_wild_card,2022.2.4,Linux x86_64,60.0240096,59269aac7724de000109190f,64d2fd46c836a06233681665,64dc7e4ab080931385feb1e3,,,,,,,sngl,resources/DY.BMP,resources/Empty.png,WildCard_Ex,-0.35576612,-0.047824895,1,0,0,0.68,optionLeft,5,13285,6,22,0,22,0,1,,,,,,,,,,,,,,,,,,,,,,,,,,,,,,,,,,,,,,,
,,,,,,,,2023-08-16_08h44.21.235,HF_wild_card,2022.2.4,Linux x86_64,60.0240096,59269aac7724de000109190f,64d2fd46c836a06233681665,64dc7e4ab080931385feb1e3,,,,,,,decisionTrl,resources/DP.BMP,resources/DR.BMP,Door4,-0.378308155,-0.057397525,1,0,0,0.6613,optionLeft,60,13345,6,23,0,23,0,1,,,,,,,,,,,,,,,,,,,,,,,,,,,,,,,,,,,,,,,
,,,,,,,,2023-08-16_08h44.21.235,HF_wild_card,2022.2.4,Linux x86_64,60.0240096,59269aac7724de000109190f,64d2fd46c836a06233681665,64dc7e4ab080931385feb1e3,,,,,,,sngl,resources/DG.BMP,resources/Empty.png,Door2,-0.31201239,-0.043483275,1,0,0,0.6288,optionLeft,20,13365,6,24,0,24,0,1,,,,,,,,,,,,,,,,,,,,,,,,,,,,,,,,,,,,,,,
,,,,,,,,2023-08-16_08h44.21.235,HF_wild_card,2022.2.4,Linux x86_64,60.0240096,59269aac7724de000109190f,64d2fd46c836a06233681665,64dc7e4ab080931385feb1e3,,,,,,,decisionTrl,resources/DB.BMP,resources/DG.BMP,Door1,-0.444535856,-0.054123596,1,0,0,0.6978,optionLeft,30,13395,6,25,0,25,0,1,,,,,,,,,,,,,,,,,,,,,,,,,,,,,,,,,,,,,,,
,,,,,,,,2023-08-16_08h44.21.235,HF_wild_card,2022.2.4,Linux x86_64,60.0240096,59269aac7724de000109190f,64d2fd46c836a06233681665,64dc7e4ab080931385feb1e3,,,,,,,decisionTrl,resources/DY.BMP,resources/DP.BMP,WildCard_Ex,-0.296859459,-0.033125524,1,0,0,1.13,optionLeft,95,13490,6,26,0,26,0,1,,,,,,,,,,,,,,,,,,,,,,,,,,,,,,,,,,,,,,,
,,,,,,,,2023-08-16_08h44.21.235,HF_wild_card,2022.2.4,Linux x86_64,60.0240096,59269aac7724de000109190f,64d2fd46c836a06233681665,64dc7e4ab080931385feb1e3,,,,,,,ctch,resources/DG.BMP,resources/DR.BMP,Door3,0.451406832,-0.035547221,1,0,0,1.1403,optionRight,70,13560,6,27,0,27,0,1,,,,,,,,,,,,,,,,,,,,,,,,,,,,,,,,,,,,,,,
,,,,,,,,2023-08-16_08h44.21.235,HF_wild_card,2022.2.4,Linux x86_64,60.0240096,59269aac7724de000109190f,64d2fd46c836a06233681665,64dc7e4ab080931385feb1e3,,,,,,,decisionTrl,resources/DY.BMP,resources/DR.BMP,WildCard_Ex,-0.403997563,-0.013276453,1,0,0,0.8033,optionLeft,95,13655,6,28,0,28,0,1,,,,,,,,,,,,,,,,,,,,,,,,,,,,,,,,,,,,,,,
,,,,,,,,2023-08-16_08h44.21.235,HF_wild_card,2022.2.4,Linux x86_64,60.0240096,59269aac7724de000109190f,64d2fd46c836a06233681665,64dc7e4ab080931385feb1e3,,,,,,,ctch,resources/DB.BMP,resources/DP.BMP,Door4,0.374883581,-0.055442492,1,0,0,1.2136,optionRight,60,13715,6,29,0,29,0,1,,,,,,,,,,,,,,,,,,,,,,,,,,,,,,,,,,,,,,,
,,,,,,,,2023-08-16_08h44.21.235,HF_wild_card,2022.2.4,Linux x86_64,60.0240096,59269aac7724de000109190f,64d2fd46c836a06233681665,64dc7e4ab080931385feb1e3,,,,,,,sngl,resources/Empty.png,resources/DG.BMP,Door2,0.22818749,-0.020330041,1,0,0,0.7782,optionRight,40,13755,6,30,0,30,0,1,,,,,,,,,,,,,,,,,,,,,,,,,,,,,,,,,,,,,,,
,,,,,,,,2023-08-16_08h44.21.235,HF_wild_card,2022.2.4,Linux x86_64,60.0240096,59269aac7724de000109190f,64d2fd46c836a06233681665,64dc7e4ab080931385feb1e3,,,,,,,decisionTrl,resources/DB.BMP,resources/DG.BMP,Door1,-0.278374919,-0.048572081,1,0,0,1.7968,optionLeft,30,13785,6,31,0,31,0,1,,,,,,,,,,,,,,,,,,,,,,,,,,,,,,,,,,,,,,,
,,,,,,,,2023-08-16_08h44.21.235,HF_wild_card,2022.2.4,Linux x86_64,60.0240096,59269aac7724de000109190f,64d2fd46c836a06233681665,64dc7e4ab080931385feb1e3,,,,,,,ctch,resources/DG.BMP,resources/DR.BMP,Door3,0.381224738,-0.0577027,1,0,0,0.9309,optionRight,70,13855,6,32,0,32,0,1,,,,,,,,,,,,,,,,,,,,,,,,,,,,,,,,,,,,,,,
,,,,,,,,2023-08-16_08h44.21.235,HF_wild_card,2022.2.4,Linux x86_64,60.0240096,59269aac7724de000109190f,64d2fd46c836a06233681665,64dc7e4ab080931385feb1e3,,,,,,,decisionTrl,resources/DR.BMP,resources/DP.BMP,Door4,0.330700486,-0.0598295,1,0,0,0.9139,optionRight,60,13915,6,33,0,33,0,1,,,,,,,,,,,,,,,,,,,,,,,,,,,,,,,,,,,,,,,
,,,,,,,,2023-08-16_08h44.21.235,HF_wild_card,2022.2.4,Linux x86_64,60.0240096,59269aac7724de000109190f,64d2fd46c836a06233681665,64dc7e4ab080931385feb1e3,,,,,,,sngl,resources/Empty.png,resources/DY.BMP,WildCard_Ex,0.407285337,-0.016859055,1,0,0,0.7419,optionRight,5,13920,6,34,0,34,0,1,,,,,,,,,,,,,,,,,,,,,,,,,,,,,,,,,,,,,,,
,,,,,,,,2023-08-16_08h44.21.235,HF_wild_card,2022.2.4,Linux x86_64,60.0240096,59269aac7724de000109190f,64d2fd46c836a06233681665,64dc7e4ab080931385feb1e3,,,,,,,decisionTrl,resources/DG.BMP,resources/DB.BMP,Door1,0.343553614,-0.066737811,1,0,0,1.3061,optionRight,30,13950,6,35,0,35,0,1,,,,,,,,,,,,,,,,,,,,,,,,,,,,,,,,,,,,,,,
,,,,,,,,2023-08-16_08h44.21.235,HF_wild_card,2022.2.4,Linux x86_64,60.0240096,59269aac7724de000109190f,64d2fd46c836a06233681665,64dc7e4ab080931385feb1e3,,,,,,,ctch,resources/DR.BMP,resources/DG.BMP,Door3,-0.292033655,-0.056826556,1,0,0,1.3966,optionLeft,70,14020,6,36,0,36,0,1,,,,,,,,,,,,,,,,,,,,,,,,,,,,,,,,,,,,,,,
,,,,,,,,2023-08-16_08h44.21.235,HF_wild_card,2022.2.4,Linux x86_64,60.0240096,59269aac7724de000109190f,64d2fd46c836a06233681665,64dc7e4ab080931385feb1e3,,,,,,,decisionTrl,resources/DY.BMP,resources/DB.BMP,WildCard_Ex,-0.246695059,-0.061265981,1,0,0,1.0962,optionLeft,5,14025,6,37,0,37,0,1,,,,,,,,,,,,,,,,,,,,,,,,,,,,,,,,,,,,,,,
,,,,,,,,2023-08-16_08h44.21.235,HF_wild_card,2022.2.4,Linux x86_64,60.0240096,59269aac7724de000109190f,64d2fd46c836a06233681665,64dc7e4ab080931385feb1e3,,,,,,,ctch,resources/DR.BMP,resources/DG.BMP,Door3,-0.214000349,-0.059836317,1,0,0,0.7599,optionLeft,70,14095,6,38,0,38,0,1,,,,,,,,,,,,,,,,,,,,,,,,,,,,,,,,,,,,,,,
,,,,,,,,2023-08-16_08h44.21.235,HF_wild_card,2022.2.4,Linux x86_64,60.0240096,59269aac7724de000109190f,64d2fd46c836a06233681665,64dc7e4ab080931385feb1e3,,,,,,,ctch,resources/DP.BMP,resources/DB.BMP,Door4,-0.358861323,-0.070931894,1,0,0,0.7297,optionLeft,80,14175,6,39,0,39,0,1,,,,,,,,,,,,,,,,,,,,,,,,,,,,,,,,,,,,,,,
,,,,,,,,2023-08-16_08h44.21.235,HF_wild_card,2022.2.4,Linux x86_64,60.0240096,59269aac7724de000109190f,64d2fd46c836a06233681665,64dc7e4ab080931385feb1e3,,,,,,,decisionTrl,resources/DP.BMP,resources/DY.BMP,Door4,-0.436661367,-0.064884398,1,0,0,0.6366,optionLeft,60,14235,6,40,0,40,0,1,,,,,,,,,,,,,,,,,,,,,,,,,,,,,,,,,,,,,,,
,,,,,,,,2023-08-16_08h44.21.235,HF_wild_card,2022.2.4,Linux x86_64,60.0240096,59269aac7724de000109190f,64d2fd46c836a06233681665,64dc7e4ab080931385feb1e3,,,,,,,ctch,resources/DB.BMP,resources/DP.BMP,Door4,0.468589924,-0.05787641,1,0,0,0.7662,optionRight,80,14315,6,41,0,41,0,1,,,,,,,,,,,,,,,,,,,,,,,,,,,,,,,,,,,,,,,
,,,,,,,,2023-08-16_08h44.21.235,HF_wild_card,2022.2.4,Linux x86_64,60.0240096,59269aac7724de000109190f,64d2fd46c836a06233681665,64dc7e4ab080931385feb1e3,,,,,,,sngl,resources/DR.BMP,resources/Empty.png,Door3,-0.317932164,-0.030790788,1,0,0,0.73,optionLeft,70,14385,6,42,0,42,0,1,,,,,,,,,,,,,,,,,,,,,,,,,,,,,,,,,,,,,,,
,,,,,,,,2023-08-16_08h44.21.235,HF_wild_card,2022.2.4,Linux x86_64,60.0240096,59269aac7724de000109190f,64d2fd46c836a06233681665,64dc7e4ab080931385feb1e3,,,,,,,sngl,resources/DY.BMP,resources/Empty.png,WildCard_Ex,-0.299191616,-0.014765422,1,0,0,0.6629,optionLeft,95,14480,6,43,0,43,0,1,,,,,,,,,,,,,,,,,,,,,,,,,,,,,,,,,,,,,,,
,,,,,,,,2023-08-16_08h44.21.235,HF_wild_card,2022.2.4,Linux x86_64,60.0240096,59269aac7724de000109190f,64d2fd46c836a06233681665,64dc7e4ab080931385feb1e3,,,,,,,,,,,,,,,,,,,,,,,,,,5,0,5,0,1,,,,,,,,,,,,,,,,,,,,,,,,,,,,,,,,,,
,,,,,,,,2023-08-16_08h44.21.235,HF_wild_card,2022.2.4,Linux x86_64,60.0240096,59269aac7724de000109190f,64d2fd46c836a06233681665,64dc7e4ab080931385feb1e3,,,,,,,decisionTrl,resources/DB.BMP,resources/DG.BMP,Door1,-0.261889846,0.010757552,1,0,0,1.1683,optionLeft,30,14510,7,0,0,0,0,1,,,,,,,,,,,,,,,,,,,,,,,,,,,,,,,,,,,,,,,
,,,,,,,,2023-08-16_08h44.21.235,HF_wild_card,2022.2.4,Linux x86_64,60.0240096,59269aac7724de000109190f,64d2fd46c836a06233681665,64dc7e4ab080931385feb1e3,,,,,,,decisionTrl,resources/DR.BMP,resources/DP.BMP,Door4,0.336855994,-0.013124501,1,0,0,1.8638,optionRight,60,14570,7,1,0,1,0,1,,,,,,,,,,,,,,,,,,,,,,,,,,,,,,,,,,,,,,,
,,,,,,,,2023-08-16_08h44.21.235,HF_wild_card,2022.2.4,Linux x86_64,60.0240096,59269aac7724de000109190f,64d2fd46c836a06233681665,64dc7e4ab080931385feb1e3,,,,,,,decisionTrl,resources/DR.BMP,resources/DP.BMP,Door4,0.311134197,-0.032141756,1,0,0,1.1154,optionRight,60,14630,7,2,0,2,0,1,,,,,,,,,,,,,,,,,,,,,,,,,,,,,,,,,,,,,,,
,,,,,,,,2023-08-16_08h44.21.235,HF_wild_card,2022.2.4,Linux x86_64,60.0240096,59269aac7724de000109190f,64d2fd46c836a06233681665,64dc7e4ab080931385feb1e3,,,,,,,decisionTrl,resources/DR.BMP,resources/DP.BMP,Door4,0.33840024,-0.065339654,1,0,0,1.1327,optionRight,60,14690,7,3,0,3,0,1,,,,,,,,,,,,,,,,,,,,,,,,,,,,,,,,,,,,,,,
,,,,,,,,2023-08-16_08h44.21.235,HF_wild_card,2022.2.4,Linux x86_64,60.0240096,59269aac7724de000109190f,64d2fd46c836a06233681665,64dc7e4ab080931385feb1e3,,,,,,,decisionTrl,resources/DP.BMP,resources/DR.BMP,Door4,-0.38906652,-0.070610294,1,0,0,1.8888,optionLeft,60,14750,7,4,0,4,0,1,,,,,,,,,,,,,,,,,,,,,,,,,,,,,,,,,,,,,,,
,,,,,,,,2023-08-16_08h44.21.235,HF_wild_card,2022.2.4,Linux x86_64,60.0240096,59269aac7724de000109190f,64d2fd46c836a06233681665,64dc7e4ab080931385feb1e3,,,,,,,ctch,resources/DB.BMP,resources/DP.BMP,Door4,0.330793169,-0.030602879,1,0,0,1.149,optionRight,60,14810,7,5,0,5,0,1,,,,,,,,,,,,,,,,,,,,,,,,,,,,,,,,,,,,,,,
,,,,,,,,2023-08-16_08h44.21.235,HF_wild_card,2022.2.4,Linux x86_64,60.0240096,59269aac7724de000109190f,64d2fd46c836a06233681665,64dc7e4ab080931385feb1e3,,,,,,,decisionTrl,resources/DB.BMP,resources/DG.BMP,Door2,0.395636241,-0.087792361,1,0,0,1.4813,optionRight,20,14830,7,6,0,6,0,1,,,,,,,,,,,,,,,,,,,,,,,,,,,,,,,,,,,,,,,
,,,,,,,,2023-08-16_08h44.21.235,HF_wild_card,2022.2.4,Linux x86_64,60.0240096,59269aac7724de000109190f,64d2fd46c836a06233681665,64dc7e4ab080931385feb1e3,,,,,,,ctch,resources/DR.BMP,resources/DG.BMP,Door3,-0.416709229,-0.032081569,1,0,0,1.0477,optionLeft,70,14900,7,7,0,7,0,1,,,,,,,,,,,,,,,,,,,,,,,,,,,,,,,,,,,,,,,
,,,,,,,,2023-08-16_08h44.21.235,HF_wild_card,2022.2.4,Linux x86_64,60.0240096,59269aac7724de000109190f,64d2fd46c836a06233681665,64dc7e4ab080931385feb1e3,,,,,,,ctch,resources/DR.BMP,resources/DG.BMP,Door3,-0.363516843,-0.032747163,1,0,0,0.715,optionLeft,70,14970,7,8,0,8,0,1,,,,,,,,,,,,,,,,,,,,,,,,,,,,,,,,,,,,,,,
,,,,,,,,2023-08-16_08h44.21.235,HF_wild_card,2022.2.4,Linux x86_64,60.0240096,59269aac7724de000109190f,64d2fd46c836a06233681665,64dc7e4ab080931385feb1e3,,,,,,,decisionTrl,resources/DG.BMP,resources/DB.BMP,Door1,0.35102378,-0.024727786,1,0,0,1.0747,optionRight,30,15000,7,9,0,9,0,1,,,,,,,,,,,,,,,,,,,,,,,,,,,,,,,,,,,,,,,
,,,,,,,,2023-08-16_08h44.21.235,HF_wild_card,2022.2.4,Linux x86_64,60.0240096,59269aac7724de000109190f,64d2fd46c836a06233681665,64dc7e4ab080931385feb1e3,,,,,,,decisionTrl,resources/DG.BMP,resources/DB.BMP,Door1,0.386698264,-0.05522124,1,0,0,0.8655,optionRight,30,15030,7,10,0,10,0,1,,,,,,,,,,,,,,,,,,,,,,,,,,,,,,,,,,,,,,,
,,,,,,,,2023-08-16_08h44.21.235,HF_wild_card,2022.2.4,Linux x86_64,60.0240096,59269aac7724de000109190f,64d2fd46c836a06233681665,64dc7e4ab080931385feb1e3,,,,,,,ctch,resources/DP.BMP,resources/DB.BMP,Door4,-0.415989275,-0.064620936,1,0,0,0.8981,optionLeft,80,15110,7,11,0,11,0,1,,,,,,,,,,,,,,,,,,,,,,,,,,,,,,,,,,,,,,,
,,,,,,,,2023-08-16_08h44.21.235,HF_wild_card,2022.2.4,Linux x86_64,60.0240096,59269aac7724de000109190f,64d2fd46c836a06233681665,64dc7e4ab080931385feb1e3,,,,,,,decisionTrl,resources/DB.BMP,resources/DG.BMP,Door1,-0.406848766,-0.0678866,1,0,0,1.0957,optionLeft,30,15140,7,12,0,12,0,1,,,,,,,,,,,,,,,,,,,,,,,,,,,,,,,,,,,,,,,
,,,,,,,,2023-08-16_08h44.21.235,HF_wild_card,2022.2.4,Linux x86_64,60.0240096,59269aac7724de000109190f,64d2fd46c836a06233681665,64dc7e4ab080931385feb1e3,,,,,,,decisionTrl,resources/DP.BMP,resources/DR.BMP,Door3,0.428128137,-0.042927036,1,0,0,1.3747,optionRight,70,15210,7,13,0,13,0,1,,,,,,,,,,,,,,,,,,,,,,,,,,,,,,,,,,,,,,,
,,,,,,,,2023-08-16_08h44.21.235,HF_wild_card,2022.2.4,Linux x86_64,60.0240096,59269aac7724de000109190f,64d2fd46c836a06233681665,64dc7e4ab080931385feb1e3,,,,,,,decisionTrl,resources/DG.BMP,resources/DB.BMP,Door1,0.404642882,-0.035463474,1,0,0,0.9658,optionRight,30,15240,7,14,0,14,0,1,,,,,,,,,,,,,,,,,,,,,,,,,,,,,,,,,,,,,,,
,,,,,,,,2023-08-16_08h44.21.235,HF_wild_card,2022.2.4,Linux x86_64,60.0240096,59269aac7724de000109190f,64d2fd46c836a06233681665,64dc7e4ab080931385feb1e3,,,,,,,decisionTrl,resources/DR.BMP,resources/DP.BMP,Door4,0.292763251,-0.064260589,1,0,0,1.2654,optionRight,60,15300,7,15,0,15,0,1,,,,,,,,,,,,,,,,,,,,,,,,,,,,,,,,,,,,,,,
,,,,,,,,2023-08-16_08h44.21.235,HF_wild_card,2022.2.4,Linux x86_64,60.0240096,59269aac7724de000109190f,64d2fd46c836a06233681665,64dc7e4ab080931385feb1e3,,,,,,,ctch,resources/DP.BMP,resources/DB.BMP,Door4,-0.355324675,-0.06697192,1,0,0,0.7646,optionLeft,80,15380,7,16,0,16,0,1,,,,,,,,,,,,,,,,,,,,,,,,,,,,,,,,,,,,,,,
,,,,,,,,2023-08-16_08h44.21.235,HF_wild_card,2022.2.4,Linux x86_64,60.0240096,59269aac7724de000109190f,64d2fd46c836a06233681665,64dc7e4ab080931385feb1e3,,,,,,,decisionTrl,resources/DR.BMP,resources/DP.BMP,Door3,-0.445558795,-0.058723132,1,0,0,0.9812,optionLeft,70,15450,7,17,0,17,0,1,,,,,,,,,,,,,,,,,,,,,,,,,,,,,,,,,,,,,,,
,,,,,,,,2023-08-16_08h44.21.235,HF_wild_card,2022.2.4,Linux x86_64,60.0240096,59269aac7724de000109190f,64d2fd46c836a06233681665,64dc7e4ab080931385feb1e3,,,,,,,ctch,resources/DP.BMP,resources/DB.BMP,Door4,-0.40453275,-0.049751564,1,0,0,0.8045,optionLeft,80,15530,7,18,0,18,0,1,,,,,,,,,,,,,,,,,,,,,,,,,,,,,,,,,,,,,,,
,,,,,,,,2023-08-16_08h44.21.235,HF_wild_card,2022.2.4,Linux x86_64,60.0240096,59269aac7724de000109190f,64d2fd46c836a06233681665,64dc7e4ab080931385feb1e3,,,,,,,ctch,resources/DG.BMP,resources/DR.BMP,Door3,0.342284591,-0.024668376,1,0,0,0.8886,optionRight,70,15600,7,19,0,19,0,1,,,,,,,,,,,,,,,,,,,,,,,,,,,,,,,,,,,,,,,
,,,,,,,,2023-08-16_08h44.21.235,HF_wild_card,2022.2.4,Linux x86_64,60.0240096,59269aac7724de000109190f,64d2fd46c836a06233681665,64dc7e4ab080931385feb1e3,,,,,,,ctch,resources/DB.BMP,resources/DP.BMP,Door4,0.407469997,-0.05477492,1,0,0,0.8445,optionRight,80,15680,7,20,0,20,0,1,,,,,,,,,,,,,,,,,,,,,,,,,,,,,,,,,,,,,,,
,,,,,,,,2023-08-16_08h44.21.235,HF_wild_card,2022.2.4,Linux x86_64,60.0240096,59269aac7724de000109190f,64d2fd46c836a06233681665,64dc7e4ab080931385feb1e3,,,,,,,decisionTrl,resources/DG.BMP,resources/DB.BMP,Door2,-0.274078298,-0.043977773,1,0,0,1.0978,optionLeft,40,15720,7,21,0,21,0,1,,,,,,,,,,,,,,,,,,,,,,,,,,,,,,,,,,,,,,,
,,,,,,,,2023-08-16_08h44.21.235,HF_wild_card,2022.2.4,Linux x86_64,60.0240096,59269aac7724de000109190f,64d2fd46c836a06233681665,64dc7e4ab080931385feb1e3,,,,,,,ctch,resources/DG.BMP,resources/DR.BMP,Door3,0.399118918,-0.038483867,1,0,0,0.7661,optionRight,70,15790,7,22,0,22,0,1,,,,,,,,,,,,,,,,,,,,,,,,,,,,,,,,,,,,,,,
,,,,,,,,2023-08-16_08h44.21.235,HF_wild_card,2022.2.4,Linux x86_64,60.0240096,59269aac7724de000109190f,64d2fd46c836a06233681665,64dc7e4ab080931385feb1e3,,,,,,,decisionTrl,resources/DP.BMP,resources/DR.BMP,Door4,-0.345857444,-0.077037635,1,0,0,0.8003,optionLeft,60,15850,7,23,0,23,0,1,,,,,,,,,,,,,,,,,,,,,,,,,,,,,,,,,,,,,,,
,,,,,,,,2023-08-16_08h44.21.235,HF_wild_card,2022.2.4,Linux x86_64,60.0240096,59269aac7724de000109190f,64d2fd46c836a06233681665,64dc7e4ab080931385feb1e3,,,,,,,decisionTrl,resources/DP.BMP,resources/DR.BMP,Door4,-0.415785578,-0.088103118,1,0,0,0.6823,optionLeft,60,15910,7,24,0,24,0,1,,,,,,,,,,,,,,,,,,,,,,,,,,,,,,,,,,,,,,,
,,,,,,,,2023-08-16_08h44.21.235,HF_wild_card,2022.2.4,Linux x86_64,60.0240096,59269aac7724de000109190f,64d2fd46c836a06233681665,64dc7e4ab080931385feb1e3,,,,,,,decisionTrl,resources/DP.BMP,resources/DR.BMP,Door4,-0.3557018,-0.057473995,1,0,0,0.7653,optionLeft,80,15990,7,25,0,25,0,1,,,,,,,,,,,,,,,,,,,,,,,,,,,,,,,,,,,,,,,
,,,,,,,,2023-08-16_08h44.21.235,HF_wild_card,2022.2.4,Linux x86_64,60.0240096,59269aac7724de000109190f,64d2fd46c836a06233681665,64dc7e4ab080931385feb1e3,,,,,,,decisionTrl,resources/DG.BMP,resources/DB.BMP,Door2,-0.32565071,-0.063465224,1,0,0,1.2146,optionLeft,20,16010,7,26,0,26,0,1,,,,,,,,,,,,,,,,,,,,,,,,,,,,,,,,,,,,,,,
,,,,,,,,2023-08-16_08h44.21.235,HF_wild_card,2022.2.4,Linux x86_64,60.0240096,59269aac7724de000109190f,64d2fd46c836a06233681665,64dc7e4ab080931385feb1e3,,,,,,,decisionTrl,resources/DB.BMP,resources/DG.BMP,Door2,0.354658904,0.001851894,1,0,0,0.7666,optionRight,40,16050,7,27,0,27,0,1,,,,,,,,,,,,,,,,,,,,,,,,,,,,,,,,,,,,,,,
,,,,,,,,2023-08-16_08h44.21.235,HF_wild_card,2022.2.4,Linux x86_64,60.0240096,59269aac7724de000109190f,64d2fd46c836a06233681665,64dc7e4ab080931385feb1e3,,,,,,,ctch,resources/DG.BMP,resources/DR.BMP,Door3,0.477353555,-0.041331221,1,0,0,0.7817,optionRight,70,16120,7,28,0,28,0,1,,,,,,,,,,,,,,,,,,,,,,,,,,,,,,,,,,,,,,,
,,,,,,,,2023-08-16_08h44.21.235,HF_wild_card,2022.2.4,Linux x86_64,60.0240096,59269aac7724de000109190f,64d2fd46c836a06233681665,64dc7e4ab080931385feb1e3,,,,,,,decisionTrl,resources/DB.BMP,resources/DG.BMP,Door1,-0.30551264,-0.0308443,1,0,0,0.8984,optionLeft,30,16150,7,29,0,29,0,1,,,,,,,,,,,,,,,,,,,,,,,,,,,,,,,,,,,,,,,
,,,,,,,,2023-08-16_08h44.21.235,HF_wild_card,2022.2.4,Linux x86_64,60.0240096,59269aac7724de000109190f,64d2fd46c836a06233681665,64dc7e4ab080931385feb1e3,,,,,,,ctch,resources/DB.BMP,resources/DP.BMP,Door4,0.309623012,-0.03559056,1,0,0,0.7977,optionRight,60,16210,7,30,0,30,0,1,,,,,,,,,,,,,,,,,,,,,,,,,,,,,,,,,,,,,,,
,,,,,,,,2023-08-16_08h44.21.235,HF_wild_card,2022.2.4,Linux x86_64,60.0240096,59269aac7724de000109190f,64d2fd46c836a06233681665,64dc7e4ab080931385feb1e3,,,,,,,decisionTrl,resources/DG.BMP,resources/DB.BMP,Door1,0.310989804,-0.057425711,1,0,0,0.7799,optionRight,30,16240,7,31,0,31,0,1,,,,,,,,,,,,,,,,,,,,,,,,,,,,,,,,,,,,,,,
,,,,,,,,2023-08-16_08h44.21.235,HF_wild_card,2022.2.4,Linux x86_64,60.0240096,59269aac7724de000109190f,64d2fd46c836a06233681665,64dc7e4ab080931385feb1e3,,,,,,,decisionTrl,resources/DR.BMP,resources/DP.BMP,Door3,-0.375049273,-0.06680146,1,0,0,0.7307,optionLeft,70,16310,7,32,0,32,0,1,,,,,,,,,,,,,,,,,,,,,,,,,,,,,,,,,,,,,,,
,,,,,,,,2023-08-16_08h44.21.235,HF_wild_card,2022.2.4,Linux x86_64,60.0240096,59269aac7724de000109190f,64d2fd46c836a06233681665,64dc7e4ab080931385feb1e3,,,,,,,decisionTrl,resources/DP.BMP,resources/DR.BMP,Door4,-0.311532939,-0.072431776,1,0,0,0.6653,optionLeft,80,16390,7,33,0,33,0,1,,,,,,,,,,,,,,,,,,,,,,,,,,,,,,,,,,,,,,,
,,,,,,,,2023-08-16_08h44.21.235,HF_wild_card,2022.2.4,Linux x86_64,60.0240096,59269aac7724de000109190f,64d2fd46c836a06233681665,64dc7e4ab080931385feb1e3,,,,,,,decisionTrl,resources/DB.BMP,resources/DG.BMP,Door2,0.415409229,0.001646254,1,0,0,0.8256,optionRight,20,16410,7,34,0,34,0,1,,,,,,,,,,,,,,,,,,,,,,,,,,,,,,,,,,,,,,,
,,,,,,,,2023-08-16_08h44.21.235,HF_wild_card,2022.2.4,Linux x86_64,60.0240096,59269aac7724de000109190f,64d2fd46c836a06233681665,64dc7e4ab080931385feb1e3,,,,,,,ctch,resources/DR.BMP,resources/DG.BMP,Door3,-0.335972468,-0.036687321,1,0,0,0.7481,optionLeft,70,16480,7,35,0,35,0,1,,,,,,,,,,,,,,,,,,,,,,,,,,,,,,,,,,,,,,,
,,,,,,,,2023-08-16_08h44.21.235,HF_wild_card,2022.2.4,Linux x86_64,60.0240096,59269aac7724de000109190f,64d2fd46c836a06233681665,64dc7e4ab080931385feb1e3,,,,,,,,,,,,,,,,,,,,,,,,,,6,0,6,0,1,,,,,,,,,,,,,,,,,,,,,,,,,,,,,,,,,,
,,,,,,,,2023-08-16_08h44.21.235,HF_wild_card,2022.2.4,Linux x86_64,60.0240096,59269aac7724de000109190f,64d2fd46c836a06233681665,64dc7e4ab080931385feb1e3,,,,,,,,,,,,,,,,,,,,,,,,,,,,,,,4,,,,,,,,,,,,,,,,,,,,,,,,,,,,,,,,,
