Condition,Low fixed image (Door1),Low risky image (Door2),High fixed image (Door3),High risky image (Door4),Extreme Wild Card,NonExtreme Wild Card,,date,expName,psychopyVersion,OS,frameRate,PROLIFIC_PID,STUDY_ID,SESSION_ID,mouse_2.x,mouse_2.y,mouse_2.leftButton,mouse_2.midButton,mouse_2.rightButton,mouse_2.clicked_name,Trial Type,Left Option Image,Right Option Image,Chosen Door,mouse.x,mouse.y,mouse.leftButton,mouse.midButton,mouse.rightButton,mouse.time,mouse.clicked_name,Feedback,Cumulative Reward,Block,trial.thisRepN,trial.thisTrialN,trial.thisN,trial.thisIndex,trial.ran,blocks.thisRepN,blocks.thisTrialN,blocks.thisN,blocks.thisIndex,blocks.ran,Money conversion,First Outcome Reported,Shown Door (First Outcome),Displayed Image (First Outcome),outcomes.thisRepN,outcomes.thisTrialN,outcomes.thisN,outcomes.thisIndex,outcomes.ran,judgments.thisRepN,judgments.thisTrialN,judgments.thisN,judgments.thisIndex,judgments.ran,freqMouse.x,freqMouse.y,freqMouse.leftButton,freqMouse.midButton,freqMouse.rightButton,freqMouse.clicked_name,FQJ for first outcome,FQJ for second outcome,Shown Door,Displayed Image,trials.thisRepN,trials.thisTrialN,trials.thisN,trials.thisIndex,trials.ran,judgBlock.thisRepN,judgBlock.thisTrialN,judgBlock.thisN,judgBlock.thisIndex,judgBlock.ran
1,resources/DP.BMP,resources/DY.BMP,resources/DBN.BMP,resources/DR.BMP,resources/DG.BMP,resources/DB.BMP,,2023-08-16_08h52.01.027,HF_wild_card,2022.2.4,Win32,3.334022365,64842455e8ac69503a5c65f0,64d2fd46c836a06233681665,64dc7f37daf0b543d8b5d48c,,,,,,,,,,,,,,,,,,,,,,,,,,,,,,,,,,,,,,,,,,,,,,,,,,,,,,,,,,,,,,,,
,,,,,,,,2023-08-16_08h52.01.027,HF_wild_card,2022.2.4,Win32,3.334022365,64842455e8ac69503a5c65f0,64d2fd46c836a06233681665,64dc7f37daf0b543d8b5d48c,-0.006644518,-0.420265781,1,0,0,agree,,,,,,,,,,,,,,,,,,,,,,,,,,,,,,,,,,,,,,,,,,,,,,,,,,,,,,,,,,
,,,,,,,,2023-08-16_08h52.01.027,HF_wild_card,2022.2.4,Win32,3.334022365,64842455e8ac69503a5c65f0,64d2fd46c836a06233681665,64dc7f37daf0b543d8b5d48c,,,,,,,,,,,,,,,,,,,,,,,,,,,,,,,,,,,,,,,,,,,,,,,,,,,,,,,,,,,,,,,,
,,,,,,,,2023-08-16_08h52.01.027,HF_wild_card,2022.2.4,Win32,3.334022365,64842455e8ac69503a5c65f0,64d2fd46c836a06233681665,64dc7f37daf0b543d8b5d48c,,,,,,,decisionTrl,resources/DB.BMP,resources/DY.BMP,Door2,0.415282392,-0.131229236,1,0,0,6.4714,optionRight,20,20,1,0,0,0,0,1,,,,,,,,,,,,,,,,,,,,,,,,,,,,,,,,,,,,,,,
,,,,,,,,2023-08-16_08h52.01.027,HF_wild_card,2022.2.4,Win32,3.334022365,64842455e8ac69503a5c65f0,64d2fd46c836a06233681665,64dc7f37daf0b543d8b5d48c,,,,,,,ctch,resources/DBN.BMP,resources/DY.BMP,Door2,0.343853821,-0.043189369,1,0,0,3.5429,optionRight,20,40,1,1,0,1,0,1,,,,,,,,,,,,,,,,,,,,,,,,,,,,,,,,,,,,,,,
,,,,,,,,2023-08-16_08h52.01.027,HF_wild_card,2022.2.4,Win32,3.334022365,64842455e8ac69503a5c65f0,64d2fd46c836a06233681665,64dc7f37daf0b543d8b5d48c,,,,,,,sngl,resources/Empty.png,resources/DB.BMP,WildCard_NonEx,0.375415282,-0.016611296,1,0,0,2.6686,optionRight,55,95,1,2,0,2,0,1,,,,,,,,,,,,,,,,,,,,,,,,,,,,,,,,,,,,,,,
,,,,,,,,2023-08-16_08h52.01.027,HF_wild_card,2022.2.4,Win32,3.334022365,64842455e8ac69503a5c65f0,64d2fd46c836a06233681665,64dc7f37daf0b543d8b5d48c,,,,,,,decisionTrl,resources/DR.BMP,resources/DBN.BMP,Door4,-0.38538206,-0.026578073,1,0,0,2.8879,optionLeft,80,175,1,3,0,3,0,1,,,,,,,,,,,,,,,,,,,,,,,,,,,,,,,,,,,,,,,
,,,,,,,,2023-08-16_08h52.01.027,HF_wild_card,2022.2.4,Win32,3.334022365,64842455e8ac69503a5c65f0,64d2fd46c836a06233681665,64dc7f37daf0b543d8b5d48c,,,,,,,sngl,resources/Empty.png,resources/DP.BMP,Door1,0.416943522,0.066445183,1,0,0,8.5414,optionRight,30,205,1,4,0,4,0,1,,,,,,,,,,,,,,,,,,,,,,,,,,,,,,,,,,,,,,,
,,,,,,,,2023-08-16_08h52.01.027,HF_wild_card,2022.2.4,Win32,3.334022365,64842455e8ac69503a5c65f0,64d2fd46c836a06233681665,64dc7f37daf0b543d8b5d48c,,,,,,,decisionTrl,resources/DY.BMP,resources/DP.BMP,Door1,0.375415282,-0.053156146,1,0,0,4.8002,optionRight,30,235,1,5,0,5,0,1,,,,,,,,,,,,,,,,,,,,,,,,,,,,,,,,,,,,,,,
,,,,,,,,2023-08-16_08h52.01.027,HF_wild_card,2022.2.4,Win32,3.334022365,64842455e8ac69503a5c65f0,64d2fd46c836a06233681665,64dc7f37daf0b543d8b5d48c,,,,,,,decisionTrl,resources/DR.BMP,resources/DB.BMP,Door4,-0.392026578,-0.013289037,1,0,0,3.9699,optionLeft,60,295,1,6,0,6,0,1,,,,,,,,,,,,,,,,,,,,,,,,,,,,,,,,,,,,,,,
,,,,,,,,2023-08-16_08h52.01.027,HF_wild_card,2022.2.4,Win32,3.334022365,64842455e8ac69503a5c65f0,64d2fd46c836a06233681665,64dc7f37daf0b543d8b5d48c,,,,,,,sngl,resources/Empty.png,resources/DB.BMP,WildCard_NonEx,0.327242525,-0.006644518,1,0,0,1.8237,optionRight,45,340,1,7,0,7,0,1,,,,,,,,,,,,,,,,,,,,,,,,,,,,,,,,,,,,,,,
,,,,,,,,2023-08-16_08h52.01.027,HF_wild_card,2022.2.4,Win32,3.334022365,64842455e8ac69503a5c65f0,64d2fd46c836a06233681665,64dc7f37daf0b543d8b5d48c,,,,,,,decisionTrl,resources/DR.BMP,resources/DBN.BMP,Door4,-0.443521595,-0.028239203,1,0,0,2.4179,optionLeft,60,400,1,8,0,8,0,1,,,,,,,,,,,,,,,,,,,,,,,,,,,,,,,,,,,,,,,
,,,,,,,,2023-08-16_08h52.01.027,HF_wild_card,2022.2.4,Win32,3.334022365,64842455e8ac69503a5c65f0,64d2fd46c836a06233681665,64dc7f37daf0b543d8b5d48c,,,,,,,sngl,resources/DY.BMP,resources/Empty.png,Door2,-0.390365449,-0.03654485,1,0,0,1.5961,optionLeft,40,440,1,9,0,9,0,1,,,,,,,,,,,,,,,,,,,,,,,,,,,,,,,,,,,,,,,
,,,,,,,,2023-08-16_08h52.01.027,HF_wild_card,2022.2.4,Win32,3.334022365,64842455e8ac69503a5c65f0,64d2fd46c836a06233681665,64dc7f37daf0b543d8b5d48c,,,,,,,decisionTrl,resources/DB.BMP,resources/DBN.BMP,WildCard_NonEx,-0.368770764,-0.014950166,1,0,0,1.9623,optionLeft,45,485,1,10,0,10,0,1,,,,,,,,,,,,,,,,,,,,,,,,,,,,,,,,,,,,,,,
,,,,,,,,2023-08-16_08h52.01.027,HF_wild_card,2022.2.4,Win32,3.334022365,64842455e8ac69503a5c65f0,64d2fd46c836a06233681665,64dc7f37daf0b543d8b5d48c,,,,,,,ctch,resources/DBN.BMP,resources/DY.BMP,Door2,0.338870432,-0.058139535,1,0,0,10.5166,optionRight,20,505,1,11,0,11,0,1,,,,,,,,,,,,,,,,,,,,,,,,,,,,,,,,,,,,,,,
,,,,,,,,2023-08-16_08h52.01.027,HF_wild_card,2022.2.4,Win32,3.334022365,64842455e8ac69503a5c65f0,64d2fd46c836a06233681665,64dc7f37daf0b543d8b5d48c,,,,,,,decisionTrl,resources/DBN.BMP,resources/DR.BMP,Door4,0.342192691,-0.023255814,1,0,0,5.8555,optionRight,80,585,1,12,0,12,0,1,,,,,,,,,,,,,,,,,,,,,,,,,,,,,,,,,,,,,,,
,,,,,,,,2023-08-16_08h52.01.027,HF_wild_card,2022.2.4,Win32,3.334022365,64842455e8ac69503a5c65f0,64d2fd46c836a06233681665,64dc7f37daf0b543d8b5d48c,,,,,,,decisionTrl,resources/DP.BMP,resources/DY.BMP,Door1,-0.458471761,0.003322259,1,0,0,2.5978,optionLeft,30,615,1,13,0,13,0,1,,,,,,,,,,,,,,,,,,,,,,,,,,,,,,,,,,,,,,,
,,,,,,,,2023-08-16_08h52.01.027,HF_wild_card,2022.2.4,Win32,3.334022365,64842455e8ac69503a5c65f0,64d2fd46c836a06233681665,64dc7f37daf0b543d8b5d48c,,,,,,,decisionTrl,resources/DBN.BMP,resources/DB.BMP,WildCard_NonEx,0.380398671,-0.004983389,1,0,0,1.3054,optionRight,55,670,1,14,0,14,0,1,,,,,,,,,,,,,,,,,,,,,,,,,,,,,,,,,,,,,,,
,,,,,,,,2023-08-16_08h52.01.027,HF_wild_card,2022.2.4,Win32,3.334022365,64842455e8ac69503a5c65f0,64d2fd46c836a06233681665,64dc7f37daf0b543d8b5d48c,,,,,,,sngl,resources/Empty.png,resources/DBN.BMP,Door3,0.380398671,-0.009966777,1,0,0,1.7856,optionRight,70,740,1,15,0,15,0,1,,,,,,,,,,,,,,,,,,,,,,,,,,,,,,,,,,,,,,,
,,,,,,,,2023-08-16_08h52.01.027,HF_wild_card,2022.2.4,Win32,3.334022365,64842455e8ac69503a5c65f0,64d2fd46c836a06233681665,64dc7f37daf0b543d8b5d48c,,,,,,,sngl,resources/Empty.png,resources/DR.BMP,Door4,0.363787375,0.011627907,1,0,0,8.4418,optionRight,60,800,1,16,0,16,0,1,,,,,,,,,,,,,,,,,,,,,,,,,,,,,,,,,,,,,,,
,,,,,,,,2023-08-16_08h52.01.027,HF_wild_card,2022.2.4,Win32,3.334022365,64842455e8ac69503a5c65f0,64d2fd46c836a06233681665,64dc7f37daf0b543d8b5d48c,,,,,,,decisionTrl,resources/DB.BMP,resources/DP.BMP,WildCard_NonEx,-0.406976744,0.013289037,1,0,0,9.2792,optionLeft,55,855,1,17,0,17,0,1,,,,,,,,,,,,,,,,,,,,,,,,,,,,,,,,,,,,,,,
,,,,,,,,2023-08-16_08h52.01.027,HF_wild_card,2022.2.4,Win32,3.334022365,64842455e8ac69503a5c65f0,64d2fd46c836a06233681665,64dc7f37daf0b543d8b5d48c,,,,,,,decisionTrl,resources/DBN.BMP,resources/DR.BMP,Door4,0.406976744,0.003322259,1,0,0,2.1876,optionRight,80,935,1,18,0,18,0,1,,,,,,,,,,,,,,,,,,,,,,,,,,,,,,,,,,,,,,,
,,,,,,,,2023-08-16_08h52.01.027,HF_wild_card,2022.2.4,Win32,3.334022365,64842455e8ac69503a5c65f0,64d2fd46c836a06233681665,64dc7f37daf0b543d8b5d48c,,,,,,,decisionTrl,resources/DP.BMP,resources/DY.BMP,Door1,-0.388704319,0.008305648,1,0,0,4.1134,optionLeft,30,965,1,19,0,19,0,1,,,,,,,,,,,,,,,,,,,,,,,,,,,,,,,,,,,,,,,
,,,,,,,,2023-08-16_08h52.01.027,HF_wild_card,2022.2.4,Win32,3.334022365,64842455e8ac69503a5c65f0,64d2fd46c836a06233681665,64dc7f37daf0b543d8b5d48c,,,,,,,decisionTrl,resources/DY.BMP,resources/DP.BMP,Door2,-0.420265781,0.026578073,1,0,0,2.8695,optionLeft,20,985,1,20,0,20,0,1,,,,,,,,,,,,,,,,,,,,,,,,,,,,,,,,,,,,,,,
,,,,,,,,2023-08-16_08h52.01.027,HF_wild_card,2022.2.4,Win32,3.334022365,64842455e8ac69503a5c65f0,64d2fd46c836a06233681665,64dc7f37daf0b543d8b5d48c,,,,,,,ctch,resources/DP.BMP,resources/DR.BMP,Door1,-0.410299003,0.016611296,1,0,0,1.9599,optionLeft,30,1015,1,21,0,21,0,1,,,,,,,,,,,,,,,,,,,,,,,,,,,,,,,,,,,,,,,
,,,,,,,,2023-08-16_08h52.01.027,HF_wild_card,2022.2.4,Win32,3.334022365,64842455e8ac69503a5c65f0,64d2fd46c836a06233681665,64dc7f37daf0b543d8b5d48c,,,,,,,decisionTrl,resources/DR.BMP,resources/DBN.BMP,Door4,-0.42358804,0.034883721,1,0,0,2.1999,optionLeft,80,1095,1,22,0,22,0,1,,,,,,,,,,,,,,,,,,,,,,,,,,,,,,,,,,,,,,,
,,,,,,,,2023-08-16_08h52.01.027,HF_wild_card,2022.2.4,Win32,3.334022365,64842455e8ac69503a5c65f0,64d2fd46c836a06233681665,64dc7f37daf0b543d8b5d48c,,,,,,,decisionTrl,resources/DBN.BMP,resources/DR.BMP,Door4,0.408637874,0.021594684,1,0,0,3.8455,optionRight,80,1175,1,23,0,23,0,1,,,,,,,,,,,,,,,,,,,,,,,,,,,,,,,,,,,,,,,
,,,,,,,,2023-08-16_08h52.01.027,HF_wild_card,2022.2.4,Win32,3.334022365,64842455e8ac69503a5c65f0,64d2fd46c836a06233681665,64dc7f37daf0b543d8b5d48c,,,,,,,sngl,resources/DBN.BMP,resources/Empty.png,Door3,-0.42192691,-0.013289037,1,0,0,1.7468,optionLeft,70,1245,1,24,0,24,0,1,,,,,,,,,,,,,,,,,,,,,,,,,,,,,,,,,,,,,,,
,,,,,,,,2023-08-16_08h52.01.027,HF_wild_card,2022.2.4,Win32,3.334022365,64842455e8ac69503a5c65f0,64d2fd46c836a06233681665,64dc7f37daf0b543d8b5d48c,,,,,,,decisionTrl,resources/DP.BMP,resources/DY.BMP,Door2,0.400332226,0.046511628,1,0,0,3.4872,optionRight,20,1265,1,25,0,25,0,1,,,,,,,,,,,,,,,,,,,,,,,,,,,,,,,,,,,,,,,
,,,,,,,,2023-08-16_08h52.01.027,HF_wild_card,2022.2.4,Win32,3.334022365,64842455e8ac69503a5c65f0,64d2fd46c836a06233681665,64dc7f37daf0b543d8b5d48c,,,,,,,decisionTrl,resources/DP.BMP,resources/DB.BMP,WildCard_NonEx,0.363787375,0.043189369,1,0,0,2.1811,optionRight,55,1320,1,26,0,26,0,1,,,,,,,,,,,,,,,,,,,,,,,,,,,,,,,,,,,,,,,
,,,,,,,,2023-08-16_08h52.01.027,HF_wild_card,2022.2.4,Win32,3.334022365,64842455e8ac69503a5c65f0,64d2fd46c836a06233681665,64dc7f37daf0b543d8b5d48c,,,,,,,sngl,resources/DB.BMP,resources/Empty.png,WildCard_NonEx,-0.342192691,0,1,0,0,1.4358,optionLeft,55,1375,1,27,0,27,0,1,,,,,,,,,,,,,,,,,,,,,,,,,,,,,,,,,,,,,,,
,,,,,,,,2023-08-16_08h52.01.027,HF_wild_card,2022.2.4,Win32,3.334022365,64842455e8ac69503a5c65f0,64d2fd46c836a06233681665,64dc7f37daf0b543d8b5d48c,,,,,,,ctch,resources/DP.BMP,resources/DR.BMP,Door1,-0.370431894,0.041528239,1,0,0,4.2863,optionLeft,30,1405,1,28,0,28,0,1,,,,,,,,,,,,,,,,,,,,,,,,,,,,,,,,,,,,,,,
,,,,,,,,2023-08-16_08h52.01.027,HF_wild_card,2022.2.4,Win32,3.334022365,64842455e8ac69503a5c65f0,64d2fd46c836a06233681665,64dc7f37daf0b543d8b5d48c,,,,,,,decisionTrl,resources/DR.BMP,resources/DBN.BMP,Door4,-0.375415282,-0.003322259,1,0,0,1.5829,optionLeft,80,1485,1,29,0,29,0,1,,,,,,,,,,,,,,,,,,,,,,,,,,,,,,,,,,,,,,,
,,,,,,,,2023-08-16_08h52.01.027,HF_wild_card,2022.2.4,Win32,3.334022365,64842455e8ac69503a5c65f0,64d2fd46c836a06233681665,64dc7f37daf0b543d8b5d48c,,,,,,,decisionTrl,resources/DY.BMP,resources/DP.BMP,Door1,0.392026578,0.054817276,1,0,0,2.6228,optionRight,30,1515,1,30,0,30,0,1,,,,,,,,,,,,,,,,,,,,,,,,,,,,,,,,,,,,,,,
,,,,,,,,2023-08-16_08h52.01.027,HF_wild_card,2022.2.4,Win32,3.334022365,64842455e8ac69503a5c65f0,64d2fd46c836a06233681665,64dc7f37daf0b543d8b5d48c,,,,,,,sngl,resources/DB.BMP,resources/Empty.png,WildCard_NonEx,-0.367109635,0.034883721,1,0,0,3.3075,optionLeft,45,1560,1,31,0,31,0,1,,,,,,,,,,,,,,,,,,,,,,,,,,,,,,,,,,,,,,,
,,,,,,,,2023-08-16_08h52.01.027,HF_wild_card,2022.2.4,Win32,3.334022365,64842455e8ac69503a5c65f0,64d2fd46c836a06233681665,64dc7f37daf0b543d8b5d48c,,,,,,,decisionTrl,resources/DBN.BMP,resources/DR.BMP,Door4,0.38538206,0.016611296,1,0,0,1.939,optionRight,60,1620,1,32,0,32,0,1,,,,,,,,,,,,,,,,,,,,,,,,,,,,,,,,,,,,,,,
,,,,,,,,2023-08-16_08h52.01.027,HF_wild_card,2022.2.4,Win32,3.334022365,64842455e8ac69503a5c65f0,64d2fd46c836a06233681665,64dc7f37daf0b543d8b5d48c,,,,,,,sngl,resources/DR.BMP,resources/Empty.png,Door4,-0.34551495,-0.013289037,1,0,0,1.4893,optionLeft,80,1700,1,33,0,33,0,1,,,,,,,,,,,,,,,,,,,,,,,,,,,,,,,,,,,,,,,
,,,,,,,,2023-08-16_08h52.01.027,HF_wild_card,2022.2.4,Win32,3.334022365,64842455e8ac69503a5c65f0,64d2fd46c836a06233681665,64dc7f37daf0b543d8b5d48c,,,,,,,decisionTrl,resources/DY.BMP,resources/DP.BMP,Door2,-0.365448505,0.056478405,1,0,0,3.5443,optionLeft,20,1720,1,34,0,34,0,1,,,,,,,,,,,,,,,,,,,,,,,,,,,,,,,,,,,,,,,
,,,,,,,,2023-08-16_08h52.01.027,HF_wild_card,2022.2.4,Win32,3.334022365,64842455e8ac69503a5c65f0,64d2fd46c836a06233681665,64dc7f37daf0b543d8b5d48c,,,,,,,ctch,resources/DR.BMP,resources/DP.BMP,Door1,0.400332226,0.023255814,1,0,0,3.19,optionRight,30,1750,1,35,0,35,0,1,,,,,,,,,,,,,,,,,,,,,,,,,,,,,,,,,,,,,,,
,,,,,,,,2023-08-16_08h52.01.027,HF_wild_card,2022.2.4,Win32,3.334022365,64842455e8ac69503a5c65f0,64d2fd46c836a06233681665,64dc7f37daf0b543d8b5d48c,,,,,,,decisionTrl,resources/DP.BMP,resources/DY.BMP,Door2,0.445182724,0.033222591,1,0,0,1.594,optionRight,20,1770,1,36,0,36,0,1,,,,,,,,,,,,,,,,,,,,,,,,,,,,,,,,,,,,,,,
,,,,,,,,2023-08-16_08h52.01.027,HF_wild_card,2022.2.4,Win32,3.334022365,64842455e8ac69503a5c65f0,64d2fd46c836a06233681665,64dc7f37daf0b543d8b5d48c,,,,,,,sngl,resources/DP.BMP,resources/Empty.png,Door1,-0.387043189,0.026578073,1,0,0,4.7315,optionLeft,30,1800,1,37,0,37,0,1,,,,,,,,,,,,,,,,,,,,,,,,,,,,,,,,,,,,,,,
,,,,,,,,2023-08-16_08h52.01.027,HF_wild_card,2022.2.4,Win32,3.334022365,64842455e8ac69503a5c65f0,64d2fd46c836a06233681665,64dc7f37daf0b543d8b5d48c,,,,,,,ctch,resources/DY.BMP,resources/DBN.BMP,Door2,-0.401993355,0.004983389,1,0,0,9.4984,optionLeft,40,1840,1,38,0,38,0,1,,,,,,,,,,,,,,,,,,,,,,,,,,,,,,,,,,,,,,,
,,,,,,,,2023-08-16_08h52.01.027,HF_wild_card,2022.2.4,Win32,3.334022365,64842455e8ac69503a5c65f0,64d2fd46c836a06233681665,64dc7f37daf0b543d8b5d48c,,,,,,,decisionTrl,resources/DB.BMP,resources/DR.BMP,WildCard_NonEx,-0.411960133,0.024916944,1,0,0,4.4904,optionLeft,55,1895,1,39,0,39,0,1,,,,,,,,,,,,,,,,,,,,,,,,,,,,,,,,,,,,,,,
,,,,,,,,2023-08-16_08h52.01.027,HF_wild_card,2022.2.4,Win32,3.334022365,64842455e8ac69503a5c65f0,64d2fd46c836a06233681665,64dc7f37daf0b543d8b5d48c,,,,,,,ctch,resources/DR.BMP,resources/DP.BMP,Door1,0.367109635,-0.026578073,1,0,0,4.9469,optionRight,30,1925,1,40,0,40,0,1,,,,,,,,,,,,,,,,,,,,,,,,,,,,,,,,,,,,,,,
,,,,,,,,2023-08-16_08h52.01.027,HF_wild_card,2022.2.4,Win32,3.334022365,64842455e8ac69503a5c65f0,64d2fd46c836a06233681665,64dc7f37daf0b543d8b5d48c,,,,,,,ctch,resources/DY.BMP,resources/DBN.BMP,Door2,-0.367109635,0.009966777,1,0,0,1.9456,optionLeft,20,1945,1,41,0,41,0,1,,,,,,,,,,,,,,,,,,,,,,,,,,,,,,,,,,,,,,,
,,,,,,,,2023-08-16_08h52.01.027,HF_wild_card,2022.2.4,Win32,3.334022365,64842455e8ac69503a5c65f0,64d2fd46c836a06233681665,64dc7f37daf0b543d8b5d48c,,,,,,,decisionTrl,resources/DY.BMP,resources/DB.BMP,WildCard_NonEx,0.405315615,0.013289037,1,0,0,4.6243,optionRight,55,2000,1,42,0,42,0,1,,,,,,,,,,,,,,,,,,,,,,,,,,,,,,,,,,,,,,,
,,,,,,,,2023-08-16_08h52.01.027,HF_wild_card,2022.2.4,Win32,3.334022365,64842455e8ac69503a5c65f0,64d2fd46c836a06233681665,64dc7f37daf0b543d8b5d48c,,,,,,,sngl,resources/Empty.png,resources/DY.BMP,Door2,0.431893688,0.073089701,1,0,0,5.6591,optionRight,20,2020,1,43,0,43,0,1,,,,,,,,,,,,,,,,,,,,,,,,,,,,,,,,,,,,,,,
,,,,,,,,2023-08-16_08h52.01.027,HF_wild_card,2022.2.4,Win32,3.334022365,64842455e8ac69503a5c65f0,64d2fd46c836a06233681665,64dc7f37daf0b543d8b5d48c,,,,,,,,,,,,,,,,,,,,,,,,,,0,0,0,0,1,,,,,,,,,,,,,,,,,,,,,,,,,,,,,,,,,,
,,,,,,,,2023-08-16_08h52.01.027,HF_wild_card,2022.2.4,Win32,3.334022365,64842455e8ac69503a5c65f0,64d2fd46c836a06233681665,64dc7f37daf0b543d8b5d48c,,,,,,,decisionTrl,resources/DR.BMP,resources/DBN.BMP,Door4,-0.413621262,0.003322259,1,0,0,2.2572,optionLeft,80,2100,2,0,0,0,0,1,,,,,,,,,,,,,,,,,,,,,,,,,,,,,,,,,,,,,,,
,,,,,,,,2023-08-16_08h52.01.027,HF_wild_card,2022.2.4,Win32,3.334022365,64842455e8ac69503a5c65f0,64d2fd46c836a06233681665,64dc7f37daf0b543d8b5d48c,,,,,,,ctch,resources/DP.BMP,resources/DR.BMP,Door1,-0.355481728,-0.014950166,1,0,0,2.2617,optionLeft,30,2130,2,1,0,1,0,1,,,,,,,,,,,,,,,,,,,,,,,,,,,,,,,,,,,,,,,
,,,,,,,,2023-08-16_08h52.01.027,HF_wild_card,2022.2.4,Win32,3.334022365,64842455e8ac69503a5c65f0,64d2fd46c836a06233681665,64dc7f37daf0b543d8b5d48c,,,,,,,sngl,resources/Empty.png,resources/DB.BMP,WildCard_NonEx,0.287375415,0.003322259,1,0,0,4.9477,optionRight,55,2185,2,2,0,2,0,1,,,,,,,,,,,,,,,,,,,,,,,,,,,,,,,,,,,,,,,
,,,,,,,,2023-08-16_08h52.01.027,HF_wild_card,2022.2.4,Win32,3.334022365,64842455e8ac69503a5c65f0,64d2fd46c836a06233681665,64dc7f37daf0b543d8b5d48c,,,,,,,decisionTrl,resources/DBN.BMP,resources/DR.BMP,Door4,0.392026578,0.053156146,1,0,0,1.9516,optionRight,80,2265,2,3,0,3,0,1,,,,,,,,,,,,,,,,,,,,,,,,,,,,,,,,,,,,,,,
,,,,,,,,2023-08-16_08h52.01.027,HF_wild_card,2022.2.4,Win32,3.334022365,64842455e8ac69503a5c65f0,64d2fd46c836a06233681665,64dc7f37daf0b543d8b5d48c,,,,,,,decisionTrl,resources/DBN.BMP,resources/DR.BMP,Door4,0.435215947,0.043189369,1,0,0,1.6266,optionRight,60,2325,2,4,0,4,0,1,,,,,,,,,,,,,,,,,,,,,,,,,,,,,,,,,,,,,,,
,,,,,,,,2023-08-16_08h52.01.027,HF_wild_card,2022.2.4,Win32,3.334022365,64842455e8ac69503a5c65f0,64d2fd46c836a06233681665,64dc7f37daf0b543d8b5d48c,,,,,,,ctch,resources/DY.BMP,resources/DBN.BMP,Door2,-0.325581395,0.058139535,1,0,0,3.231,optionLeft,40,2365,2,5,0,5,0,1,,,,,,,,,,,,,,,,,,,,,,,,,,,,,,,,,,,,,,,
,,,,,,,,2023-08-16_08h52.01.027,HF_wild_card,2022.2.4,Win32,3.334022365,64842455e8ac69503a5c65f0,64d2fd46c836a06233681665,64dc7f37daf0b543d8b5d48c,,,,,,,ctch,resources/DBN.BMP,resources/DY.BMP,Door2,0.358803987,0.034883721,1,0,0,1.5752,optionRight,20,2385,2,6,0,6,0,1,,,,,,,,,,,,,,,,,,,,,,,,,,,,,,,,,,,,,,,
,,,,,,,,2023-08-16_08h52.01.027,HF_wild_card,2022.2.4,Win32,3.334022365,64842455e8ac69503a5c65f0,64d2fd46c836a06233681665,64dc7f37daf0b543d8b5d48c,,,,,,,sngl,resources/Empty.png,resources/DB.BMP,WildCard_NonEx,0.518272425,0.023255814,1,0,0,4.1737,optionRight,45,2430,2,7,0,7,0,1,,,,,,,,,,,,,,,,,,,,,,,,,,,,,,,,,,,,,,,
,,,,,,,,2023-08-16_08h52.01.027,HF_wild_card,2022.2.4,Win32,3.334022365,64842455e8ac69503a5c65f0,64d2fd46c836a06233681665,64dc7f37daf0b543d8b5d48c,,,,,,,sngl,resources/DBN.BMP,resources/Empty.png,Door3,-0.352159468,0.024916944,1,0,0,1.504,optionLeft,70,2500,2,8,0,8,0,1,,,,,,,,,,,,,,,,,,,,,,,,,,,,,,,,,,,,,,,
,,,,,,,,2023-08-16_08h52.01.027,HF_wild_card,2022.2.4,Win32,3.334022365,64842455e8ac69503a5c65f0,64d2fd46c836a06233681665,64dc7f37daf0b543d8b5d48c,,,,,,,decisionTrl,resources/DR.BMP,resources/DBN.BMP,Door4,-0.335548173,0.069767442,1,0,0,1.6042,optionLeft,60,2560,2,9,0,9,0,1,,,,,,,,,,,,,,,,,,,,,,,,,,,,,,,,,,,,,,,
,,,,,,,,2023-08-16_08h52.01.027,HF_wild_card,2022.2.4,Win32,3.334022365,64842455e8ac69503a5c65f0,64d2fd46c836a06233681665,64dc7f37daf0b543d8b5d48c,,,,,,,sngl,resources/DB.BMP,resources/Empty.png,WildCard_NonEx,-0.431893688,0.063122924,1,0,0,4.7422,optionLeft,45,2605,2,10,0,10,0,1,,,,,,,,,,,,,,,,,,,,,,,,,,,,,,,,,,,,,,,
,,,,,,,,2023-08-16_08h52.01.027,HF_wild_card,2022.2.4,Win32,3.334022365,64842455e8ac69503a5c65f0,64d2fd46c836a06233681665,64dc7f37daf0b543d8b5d48c,,,,,,,ctch,resources/DBN.BMP,resources/DY.BMP,Door2,0.401993355,0.061461794,1,0,0,5.0045,optionRight,20,2625,2,11,0,11,0,1,,,,,,,,,,,,,,,,,,,,,,,,,,,,,,,,,,,,,,,
,,,,,,,,2023-08-16_08h52.01.027,HF_wild_card,2022.2.4,Win32,3.334022365,64842455e8ac69503a5c65f0,64d2fd46c836a06233681665,64dc7f37daf0b543d8b5d48c,,,,,,,ctch,resources/DP.BMP,resources/DR.BMP,Door1,-0.330564784,-0.023255814,1,0,0,1.5801,optionLeft,30,2655,2,12,0,12,0,1,,,,,,,,,,,,,,,,,,,,,,,,,,,,,,,,,,,,,,,
,,,,,,,,2023-08-16_08h52.01.027,HF_wild_card,2022.2.4,Win32,3.334022365,64842455e8ac69503a5c65f0,64d2fd46c836a06233681665,64dc7f37daf0b543d8b5d48c,,,,,,,decisionTrl,resources/DBN.BMP,resources/DB.BMP,WildCard_NonEx,0.360465116,0.041528239,1,0,0,1.5614,optionRight,55,2710,2,13,0,13,0,1,,,,,,,,,,,,,,,,,,,,,,,,,,,,,,,,,,,,,,,
,,,,,,,,2023-08-16_08h52.01.027,HF_wild_card,2022.2.4,Win32,3.334022365,64842455e8ac69503a5c65f0,64d2fd46c836a06233681665,64dc7f37daf0b543d8b5d48c,,,,,,,decisionTrl,resources/DY.BMP,resources/DP.BMP,Door2,-0.382059801,0.044850498,1,0,0,4.4147,optionLeft,20,2730,2,14,0,14,0,1,,,,,,,,,,,,,,,,,,,,,,,,,,,,,,,,,,,,,,,
,,,,,,,,2023-08-16_08h52.01.027,HF_wild_card,2022.2.4,Win32,3.334022365,64842455e8ac69503a5c65f0,64d2fd46c836a06233681665,64dc7f37daf0b543d8b5d48c,,,,,,,ctch,resources/DY.BMP,resources/DBN.BMP,Door2,-0.42358804,0.053156146,1,0,0,1.8879,optionLeft,20,2750,2,15,0,15,0,1,,,,,,,,,,,,,,,,,,,,,,,,,,,,,,,,,,,,,,,
,,,,,,,,2023-08-16_08h52.01.027,HF_wild_card,2022.2.4,Win32,3.334022365,64842455e8ac69503a5c65f0,64d2fd46c836a06233681665,64dc7f37daf0b543d8b5d48c,,,,,,,sngl,resources/DB.BMP,resources/Empty.png,WildCard_NonEx,-0.357142857,0.043189369,1,0,0,4.3139,optionLeft,55,2805,2,16,0,16,0,1,,,,,,,,,,,,,,,,,,,,,,,,,,,,,,,,,,,,,,,
,,,,,,,,2023-08-16_08h52.01.027,HF_wild_card,2022.2.4,Win32,3.334022365,64842455e8ac69503a5c65f0,64d2fd46c836a06233681665,64dc7f37daf0b543d8b5d48c,,,,,,,decisionTrl,resources/DB.BMP,resources/DBN.BMP,WildCard_NonEx,-0.380398671,0.049833887,1,0,0,3.484,optionLeft,45,2850,2,17,0,17,0,1,,,,,,,,,,,,,,,,,,,,,,,,,,,,,,,,,,,,,,,
,,,,,,,,2023-08-16_08h52.01.027,HF_wild_card,2022.2.4,Win32,3.334022365,64842455e8ac69503a5c65f0,64d2fd46c836a06233681665,64dc7f37daf0b543d8b5d48c,,,,,,,sngl,resources/Empty.png,resources/DY.BMP,Door2,0.408637874,0.023255814,1,0,0,1.4676,optionRight,40,2890,2,18,0,18,0,1,,,,,,,,,,,,,,,,,,,,,,,,,,,,,,,,,,,,,,,
,,,,,,,,2023-08-16_08h52.01.027,HF_wild_card,2022.2.4,Win32,3.334022365,64842455e8ac69503a5c65f0,64d2fd46c836a06233681665,64dc7f37daf0b543d8b5d48c,,,,,,,decisionTrl,resources/DP.BMP,resources/DB.BMP,Door1,-0.372093023,-0.006644518,1,0,0,2.2733,optionLeft,30,2920,2,19,0,19,0,1,,,,,,,,,,,,,,,,,,,,,,,,,,,,,,,,,,,,,,,
,,,,,,,,2023-08-16_08h52.01.027,HF_wild_card,2022.2.4,Win32,3.334022365,64842455e8ac69503a5c65f0,64d2fd46c836a06233681665,64dc7f37daf0b543d8b5d48c,,,,,,,sngl,resources/Empty.png,resources/DBN.BMP,Door3,0.433554817,0.073089701,1,0,0,2.5884,optionRight,70,2990,2,20,0,20,0,1,,,,,,,,,,,,,,,,,,,,,,,,,,,,,,,,,,,,,,,
,,,,,,,,2023-08-16_08h52.01.027,HF_wild_card,2022.2.4,Win32,3.334022365,64842455e8ac69503a5c65f0,64d2fd46c836a06233681665,64dc7f37daf0b543d8b5d48c,,,,,,,decisionTrl,resources/DR.BMP,resources/DBN.BMP,Door4,-0.388704319,-0.023255814,1,0,0,1.8656,optionLeft,60,3050,2,21,0,21,0,1,,,,,,,,,,,,,,,,,,,,,,,,,,,,,,,,,,,,,,,
,,,,,,,,2023-08-16_08h52.01.027,HF_wild_card,2022.2.4,Win32,3.334022365,64842455e8ac69503a5c65f0,64d2fd46c836a06233681665,64dc7f37daf0b543d8b5d48c,,,,,,,sngl,resources/Empty.png,resources/DP.BMP,Door1,0.302325581,0.051495017,1,0,0,1.1653,optionRight,30,3080,2,22,0,22,0,1,,,,,,,,,,,,,,,,,,,,,,,,,,,,,,,,,,,,,,,
,,,,,,,,2023-08-16_08h52.01.027,HF_wild_card,2022.2.4,Win32,3.334022365,64842455e8ac69503a5c65f0,64d2fd46c836a06233681665,64dc7f37daf0b543d8b5d48c,,,,,,,decisionTrl,resources/DB.BMP,resources/DY.BMP,Door2,0.406976744,0.056478405,1,0,0,3.4919,optionRight,40,3120,2,23,0,23,0,1,,,,,,,,,,,,,,,,,,,,,,,,,,,,,,,,,,,,,,,
,,,,,,,,2023-08-16_08h52.01.027,HF_wild_card,2022.2.4,Win32,3.334022365,64842455e8ac69503a5c65f0,64d2fd46c836a06233681665,64dc7f37daf0b543d8b5d48c,,,,,,,decisionTrl,resources/DY.BMP,resources/DP.BMP,Door2,-0.415282392,0.054817276,1,0,0,3.1678,optionLeft,40,3160,2,24,0,24,0,1,,,,,,,,,,,,,,,,,,,,,,,,,,,,,,,,,,,,,,,
,,,,,,,,2023-08-16_08h52.01.027,HF_wild_card,2022.2.4,Win32,3.334022365,64842455e8ac69503a5c65f0,64d2fd46c836a06233681665,64dc7f37daf0b543d8b5d48c,,,,,,,decisionTrl,resources/DP.BMP,resources/DY.BMP,Door2,0.445182724,0.046511628,1,0,0,2.8969,optionRight,20,3180,2,25,0,25,0,1,,,,,,,,,,,,,,,,,,,,,,,,,,,,,,,,,,,,,,,
,,,,,,,,2023-08-16_08h52.01.027,HF_wild_card,2022.2.4,Win32,3.334022365,64842455e8ac69503a5c65f0,64d2fd46c836a06233681665,64dc7f37daf0b543d8b5d48c,,,,,,,decisionTrl,resources/DBN.BMP,resources/DR.BMP,Door4,0.431893688,0.034883721,1,0,0,1.9255,optionRight,60,3240,2,26,0,26,0,1,,,,,,,,,,,,,,,,,,,,,,,,,,,,,,,,,,,,,,,
,,,,,,,,2023-08-16_08h52.01.027,HF_wild_card,2022.2.4,Win32,3.334022365,64842455e8ac69503a5c65f0,64d2fd46c836a06233681665,64dc7f37daf0b543d8b5d48c,,,,,,,decisionTrl,resources/DY.BMP,resources/DP.BMP,Door2,-0.398671096,0.098006645,1,0,0,1.5795,optionLeft,20,3260,2,27,0,27,0,1,,,,,,,,,,,,,,,,,,,,,,,,,,,,,,,,,,,,,,,
,,,,,,,,2023-08-16_08h52.01.027,HF_wild_card,2022.2.4,Win32,3.334022365,64842455e8ac69503a5c65f0,64d2fd46c836a06233681665,64dc7f37daf0b543d8b5d48c,,,,,,,ctch,resources/DR.BMP,resources/DP.BMP,Door1,0.420265781,0.03654485,1,0,0,1.2973,optionRight,30,3290,2,28,0,28,0,1,,,,,,,,,,,,,,,,,,,,,,,,,,,,,,,,,,,,,,,
,,,,,,,,2023-08-16_08h52.01.027,HF_wild_card,2022.2.4,Win32,3.334022365,64842455e8ac69503a5c65f0,64d2fd46c836a06233681665,64dc7f37daf0b543d8b5d48c,,,,,,,sngl,resources/Empty.png,resources/DR.BMP,Door4,0.378737542,0.034883721,1,0,0,1.2217,optionRight,80,3370,2,29,0,29,0,1,,,,,,,,,,,,,,,,,,,,,,,,,,,,,,,,,,,,,,,
,,,,,,,,2023-08-16_08h52.01.027,HF_wild_card,2022.2.4,Win32,3.334022365,64842455e8ac69503a5c65f0,64d2fd46c836a06233681665,64dc7f37daf0b543d8b5d48c,,,,,,,sngl,resources/DP.BMP,resources/Empty.png,Door1,-0.370431894,0.049833887,1,0,0,1.1537,optionLeft,30,3400,2,30,0,30,0,1,,,,,,,,,,,,,,,,,,,,,,,,,,,,,,,,,,,,,,,
,,,,,,,,2023-08-16_08h52.01.027,HF_wild_card,2022.2.4,Win32,3.334022365,64842455e8ac69503a5c65f0,64d2fd46c836a06233681665,64dc7f37daf0b543d8b5d48c,,,,,,,decisionTrl,resources/DY.BMP,resources/DP.BMP,Door1,0.387043189,0.029900332,1,0,0,1.3251,optionRight,30,3430,2,31,0,31,0,1,,,,,,,,,,,,,,,,,,,,,,,,,,,,,,,,,,,,,,,
,,,,,,,,2023-08-16_08h52.01.027,HF_wild_card,2022.2.4,Win32,3.334022365,64842455e8ac69503a5c65f0,64d2fd46c836a06233681665,64dc7f37daf0b543d8b5d48c,,,,,,,decisionTrl,resources/DP.BMP,resources/DY.BMP,Door1,-0.340531561,0.043189369,1,0,0,1.2697,optionLeft,30,3460,2,32,0,32,0,1,,,,,,,,,,,,,,,,,,,,,,,,,,,,,,,,,,,,,,,
,,,,,,,,2023-08-16_08h52.01.027,HF_wild_card,2022.2.4,Win32,3.334022365,64842455e8ac69503a5c65f0,64d2fd46c836a06233681665,64dc7f37daf0b543d8b5d48c,,,,,,,decisionTrl,resources/DB.BMP,resources/DP.BMP,Door1,0.362126246,-0.004983389,1,0,0,9.566,optionRight,30,3490,2,33,0,33,0,1,,,,,,,,,,,,,,,,,,,,,,,,,,,,,,,,,,,,,,,
,,,,,,,,2023-08-16_08h52.01.027,HF_wild_card,2022.2.4,Win32,3.334022365,64842455e8ac69503a5c65f0,64d2fd46c836a06233681665,64dc7f37daf0b543d8b5d48c,,,,,,,ctch,resources/DR.BMP,resources/DP.BMP,Door4,-0.365448505,0.029900332,1,0,0,1.8698,optionLeft,80,3570,2,34,0,34,0,1,,,,,,,,,,,,,,,,,,,,,,,,,,,,,,,,,,,,,,,
,,,,,,,,2023-08-16_08h52.01.027,HF_wild_card,2022.2.4,Win32,3.334022365,64842455e8ac69503a5c65f0,64d2fd46c836a06233681665,64dc7f37daf0b543d8b5d48c,,,,,,,decisionTrl,resources/DP.BMP,resources/DY.BMP,Door1,-0.320598007,0.011627907,1,0,0,1.939,optionLeft,30,3600,2,35,0,35,0,1,,,,,,,,,,,,,,,,,,,,,,,,,,,,,,,,,,,,,,,
,,,,,,,,2023-08-16_08h52.01.027,HF_wild_card,2022.2.4,Win32,3.334022365,64842455e8ac69503a5c65f0,64d2fd46c836a06233681665,64dc7f37daf0b543d8b5d48c,,,,,,,decisionTrl,resources/DBN.BMP,resources/DR.BMP,Door3,-0.450166113,0.051495017,1,0,0,2.9588,optionLeft,70,3670,2,36,0,36,0,1,,,,,,,,,,,,,,,,,,,,,,,,,,,,,,,,,,,,,,,
,,,,,,,,2023-08-16_08h52.01.027,HF_wild_card,2022.2.4,Win32,3.334022365,64842455e8ac69503a5c65f0,64d2fd46c836a06233681665,64dc7f37daf0b543d8b5d48c,,,,,,,sngl,resources/DY.BMP,resources/Empty.png,Door2,-0.368770764,0,1,0,0,1.185,optionLeft,20,3690,2,37,0,37,0,1,,,,,,,,,,,,,,,,,,,,,,,,,,,,,,,,,,,,,,,
,,,,,,,,2023-08-16_08h52.01.027,HF_wild_card,2022.2.4,Win32,3.334022365,64842455e8ac69503a5c65f0,64d2fd46c836a06233681665,64dc7f37daf0b543d8b5d48c,,,,,,,decisionTrl,resources/DR.BMP,resources/DBN.BMP,Door3,0.318936877,0.044850498,1,0,0,1.3179,optionRight,70,3760,2,38,0,38,0,1,,,,,,,,,,,,,,,,,,,,,,,,,,,,,,,,,,,,,,,
,,,,,,,,2023-08-16_08h52.01.027,HF_wild_card,2022.2.4,Win32,3.334022365,64842455e8ac69503a5c65f0,64d2fd46c836a06233681665,64dc7f37daf0b543d8b5d48c,,,,,,,decisionTrl,resources/DR.BMP,resources/DB.BMP,WildCard_NonEx,0.397009967,0.03654485,1,0,0,5.269,optionRight,45,3805,2,39,0,39,0,1,,,,,,,,,,,,,,,,,,,,,,,,,,,,,,,,,,,,,,,
,,,,,,,,2023-08-16_08h52.01.027,HF_wild_card,2022.2.4,Win32,3.334022365,64842455e8ac69503a5c65f0,64d2fd46c836a06233681665,64dc7f37daf0b543d8b5d48c,,,,,,,decisionTrl,resources/DP.BMP,resources/DY.BMP,Door2,0.355481728,0.054817276,1,0,0,1.6378,optionRight,20,3825,2,40,0,40,0,1,,,,,,,,,,,,,,,,,,,,,,,,,,,,,,,,,,,,,,,
,,,,,,,,2023-08-16_08h52.01.027,HF_wild_card,2022.2.4,Win32,3.334022365,64842455e8ac69503a5c65f0,64d2fd46c836a06233681665,64dc7f37daf0b543d8b5d48c,,,,,,,decisionTrl,resources/DB.BMP,resources/DR.BMP,WildCard_NonEx,-0.310631229,-0.008305648,1,0,0,1.2667,optionLeft,45,3870,2,41,0,41,0,1,,,,,,,,,,,,,,,,,,,,,,,,,,,,,,,,,,,,,,,
,,,,,,,,2023-08-16_08h52.01.027,HF_wild_card,2022.2.4,Win32,3.334022365,64842455e8ac69503a5c65f0,64d2fd46c836a06233681665,64dc7f37daf0b543d8b5d48c,,,,,,,decisionTrl,resources/DY.BMP,resources/DB.BMP,Door2,-0.446843854,0.046511628,1,0,0,1.3341,optionLeft,40,3910,2,42,0,42,0,1,,,,,,,,,,,,,,,,,,,,,,,,,,,,,,,,,,,,,,,
,,,,,,,,2023-08-16_08h52.01.027,HF_wild_card,2022.2.4,Win32,3.334022365,64842455e8ac69503a5c65f0,64d2fd46c836a06233681665,64dc7f37daf0b543d8b5d48c,,,,,,,sngl,resources/DR.BMP,resources/Empty.png,Door4,-0.428571429,0.03820598,1,0,0,1.5899,optionLeft,60,3970,2,43,0,43,0,1,,,,,,,,,,,,,,,,,,,,,,,,,,,,,,,,,,,,,,,
,,,,,,,,2023-08-16_08h52.01.027,HF_wild_card,2022.2.4,Win32,3.334022365,64842455e8ac69503a5c65f0,64d2fd46c836a06233681665,64dc7f37daf0b543d8b5d48c,,,,,,,,,,,,,,,,,,,,,,,,,,1,0,1,0,1,,,,,,,,,,,,,,,,,,,,,,,,,,,,,,,,,,
,,,,,,,,2023-08-16_08h52.01.027,HF_wild_card,2022.2.4,Win32,3.334022365,64842455e8ac69503a5c65f0,64d2fd46c836a06233681665,64dc7f37daf0b543d8b5d48c,,,,,,,sngl,resources/DBN.BMP,resources/Empty.png,Door3,-0.285714286,-0.179401993,1,0,0,2.9785,optionLeft,70,4040,3,0,0,0,0,1,,,,,,,,,,,,,,,,,,,,,,,,,,,,,,,,,,,,,,,
,,,,,,,,2023-08-16_08h52.01.027,HF_wild_card,2022.2.4,Win32,3.334022365,64842455e8ac69503a5c65f0,64d2fd46c836a06233681665,64dc7f37daf0b543d8b5d48c,,,,,,,ctch,resources/DBN.BMP,resources/DY.BMP,Door3,-0.34717608,-0.018272425,1,0,0,7.4168,optionLeft,70,4110,3,1,0,1,0,1,,,,,,,,,,,,,,,,,,,,,,,,,,,,,,,,,,,,,,,
,,,,,,,,2023-08-16_08h52.01.027,HF_wild_card,2022.2.4,Win32,3.334022365,64842455e8ac69503a5c65f0,64d2fd46c836a06233681665,64dc7f37daf0b543d8b5d48c,,,,,,,sngl,resources/Empty.png,resources/DBN.BMP,Door3,0.34551495,-0.004983389,1,0,0,3.5134,optionRight,70,4180,3,2,0,2,0,1,,,,,,,,,,,,,,,,,,,,,,,,,,,,,,,,,,,,,,,
,,,,,,,,2023-08-16_08h52.01.027,HF_wild_card,2022.2.4,Win32,3.334022365,64842455e8ac69503a5c65f0,64d2fd46c836a06233681665,64dc7f37daf0b543d8b5d48c,,,,,,,decisionTrl,resources/DBN.BMP,resources/DR.BMP,Door3,-0.300664452,0.03820598,1,0,0,1.6602,optionLeft,70,4250,3,3,0,3,0,1,,,,,,,,,,,,,,,,,,,,,,,,,,,,,,,,,,,,,,,
,,,,,,,,2023-08-16_08h52.01.027,HF_wild_card,2022.2.4,Win32,3.334022365,64842455e8ac69503a5c65f0,64d2fd46c836a06233681665,64dc7f37daf0b543d8b5d48c,,,,,,,ctch,resources/DY.BMP,resources/DBN.BMP,Door3,0.338870432,0.021594684,1,0,0,1.267,optionRight,70,4320,3,4,0,4,0,1,,,,,,,,,,,,,,,,,,,,,,,,,,,,,,,,,,,,,,,
,,,,,,,,2023-08-16_08h52.01.027,HF_wild_card,2022.2.4,Win32,3.334022365,64842455e8ac69503a5c65f0,64d2fd46c836a06233681665,64dc7f37daf0b543d8b5d48c,,,,,,,decisionTrl,resources/DY.BMP,resources/DP.BMP,Door1,0.372093023,0.03986711,1,0,0,2.2826,optionRight,30,4350,3,5,0,5,0,1,,,,,,,,,,,,,,,,,,,,,,,,,,,,,,,,,,,,,,,
,,,,,,,,2023-08-16_08h52.01.027,HF_wild_card,2022.2.4,Win32,3.334022365,64842455e8ac69503a5c65f0,64d2fd46c836a06233681665,64dc7f37daf0b543d8b5d48c,,,,,,,decisionTrl,resources/DR.BMP,resources/DBN.BMP,Door3,0.310631229,0.049833887,1,0,0,1.2584,optionRight,70,4420,3,6,0,6,0,1,,,,,,,,,,,,,,,,,,,,,,,,,,,,,,,,,,,,,,,
,,,,,,,,2023-08-16_08h52.01.027,HF_wild_card,2022.2.4,Win32,3.334022365,64842455e8ac69503a5c65f0,64d2fd46c836a06233681665,64dc7f37daf0b543d8b5d48c,,,,,,,decisionTrl,resources/DP.BMP,resources/DY.BMP,Door2,0.357142857,0.073089701,1,0,0,1.3382,optionRight,40,4460,3,7,0,7,0,1,,,,,,,,,,,,,,,,,,,,,,,,,,,,,,,,,,,,,,,
,,,,,,,,2023-08-16_08h52.01.027,HF_wild_card,2022.2.4,Win32,3.334022365,64842455e8ac69503a5c65f0,64d2fd46c836a06233681665,64dc7f37daf0b543d8b5d48c,,,,,,,ctch,resources/DP.BMP,resources/DR.BMP,Door4,0.450166113,0.029900332,1,0,0,1.2557,optionRight,60,4520,3,8,0,8,0,1,,,,,,,,,,,,,,,,,,,,,,,,,,,,,,,,,,,,,,,
,,,,,,,,2023-08-16_08h52.01.027,HF_wild_card,2022.2.4,Win32,3.334022365,64842455e8ac69503a5c65f0,64d2fd46c836a06233681665,64dc7f37daf0b543d8b5d48c,,,,,,,decisionTrl,resources/DR.BMP,resources/DB.BMP,WildCard_NonEx,0.378737542,-0.011627907,1,0,0,1.3274,optionRight,45,4565,3,9,0,9,0,1,,,,,,,,,,,,,,,,,,,,,,,,,,,,,,,,,,,,,,,
,,,,,,,,2023-08-16_08h52.01.027,HF_wild_card,2022.2.4,Win32,3.334022365,64842455e8ac69503a5c65f0,64d2fd46c836a06233681665,64dc7f37daf0b543d8b5d48c,,,,,,,decisionTrl,resources/DR.BMP,resources/DBN.BMP,Door3,0.416943522,0.041528239,1,0,0,2.2105,optionRight,70,4635,3,10,0,10,0,1,,,,,,,,,,,,,,,,,,,,,,,,,,,,,,,,,,,,,,,
,,,,,,,,2023-08-16_08h52.01.027,HF_wild_card,2022.2.4,Win32,3.334022365,64842455e8ac69503a5c65f0,64d2fd46c836a06233681665,64dc7f37daf0b543d8b5d48c,,,,,,,decisionTrl,resources/DB.BMP,resources/DY.BMP,Door2,0.433554817,0.043189369,1,0,0,1.2759,optionRight,40,4675,3,11,0,11,0,1,,,,,,,,,,,,,,,,,,,,,,,,,,,,,,,,,,,,,,,
,,,,,,,,2023-08-16_08h52.01.027,HF_wild_card,2022.2.4,Win32,3.334022365,64842455e8ac69503a5c65f0,64d2fd46c836a06233681665,64dc7f37daf0b543d8b5d48c,,,,,,,decisionTrl,resources/DP.BMP,resources/DB.BMP,WildCard_NonEx,0.3089701,0.016611296,1,0,0,4.3419,optionRight,55,4730,3,12,0,12,0,1,,,,,,,,,,,,,,,,,,,,,,,,,,,,,,,,,,,,,,,
,,,,,,,,2023-08-16_08h52.01.027,HF_wild_card,2022.2.4,Win32,3.334022365,64842455e8ac69503a5c65f0,64d2fd46c836a06233681665,64dc7f37daf0b543d8b5d48c,,,,,,,sngl,resources/Empty.png,resources/DR.BMP,Door4,0.323920266,-0.11627907,1,0,0,2.8266,optionRight,60,4790,3,13,0,13,0,1,,,,,,,,,,,,,,,,,,,,,,,,,,,,,,,,,,,,,,,
,,,,,,,,2023-08-16_08h52.01.027,HF_wild_card,2022.2.4,Win32,3.334022365,64842455e8ac69503a5c65f0,64d2fd46c836a06233681665,64dc7f37daf0b543d8b5d48c,,,,,,,decisionTrl,resources/DY.BMP,resources/DP.BMP,Door1,0.408637874,0.033222591,1,0,0,1.294,optionRight,30,4820,3,14,0,14,0,1,,,,,,,,,,,,,,,,,,,,,,,,,,,,,,,,,,,,,,,
,,,,,,,,2023-08-16_08h52.01.027,HF_wild_card,2022.2.4,Win32,3.334022365,64842455e8ac69503a5c65f0,64d2fd46c836a06233681665,64dc7f37daf0b543d8b5d48c,,,,,,,decisionTrl,resources/DBN.BMP,resources/DR.BMP,Door3,-0.353820598,0.051495017,1,0,0,1.2862,optionLeft,70,4890,3,15,0,15,0,1,,,,,,,,,,,,,,,,,,,,,,,,,,,,,,,,,,,,,,,
,,,,,,,,2023-08-16_08h52.01.027,HF_wild_card,2022.2.4,Win32,3.334022365,64842455e8ac69503a5c65f0,64d2fd46c836a06233681665,64dc7f37daf0b543d8b5d48c,,,,,,,decisionTrl,resources/DB.BMP,resources/DBN.BMP,Door3,0.436877076,0.018272425,1,0,0,1.2584,optionRight,70,4960,3,16,0,16,0,1,,,,,,,,,,,,,,,,,,,,,,,,,,,,,,,,,,,,,,,
,,,,,,,,2023-08-16_08h52.01.027,HF_wild_card,2022.2.4,Win32,3.334022365,64842455e8ac69503a5c65f0,64d2fd46c836a06233681665,64dc7f37daf0b543d8b5d48c,,,,,,,decisionTrl,resources/DR.BMP,resources/DBN.BMP,Door3,0.350498339,0.043189369,1,0,0,1.3171,optionRight,70,5030,3,17,0,17,0,1,,,,,,,,,,,,,,,,,,,,,,,,,,,,,,,,,,,,,,,
,,,,,,,,2023-08-16_08h52.01.027,HF_wild_card,2022.2.4,Win32,3.334022365,64842455e8ac69503a5c65f0,64d2fd46c836a06233681665,64dc7f37daf0b543d8b5d48c,,,,,,,sngl,resources/Empty.png,resources/DY.BMP,Door2,0.365448505,-0.079734219,1,0,0,5.3047,optionRight,20,5050,3,18,0,18,0,1,,,,,,,,,,,,,,,,,,,,,,,,,,,,,,,,,,,,,,,
,,,,,,,,2023-08-16_08h52.01.027,HF_wild_card,2022.2.4,Win32,3.334022365,64842455e8ac69503a5c65f0,64d2fd46c836a06233681665,64dc7f37daf0b543d8b5d48c,,,,,,,sngl,resources/DP.BMP,resources/Empty.png,Door1,-0.445182724,0.033222591,1,0,0,1.1586,optionLeft,30,5080,3,19,0,19,0,1,,,,,,,,,,,,,,,,,,,,,,,,,,,,,,,,,,,,,,,
,,,,,,,,2023-08-16_08h52.01.027,HF_wild_card,2022.2.4,Win32,3.334022365,64842455e8ac69503a5c65f0,64d2fd46c836a06233681665,64dc7f37daf0b543d8b5d48c,,,,,,,sngl,resources/DY.BMP,resources/Empty.png,Door2,-0.328903654,-0.151162791,1,0,0,4.9431,optionLeft,40,5120,3,20,0,20,0,1,,,,,,,,,,,,,,,,,,,,,,,,,,,,,,,,,,,,,,,
,,,,,,,,2023-08-16_08h52.01.027,HF_wild_card,2022.2.4,Win32,3.334022365,64842455e8ac69503a5c65f0,64d2fd46c836a06233681665,64dc7f37daf0b543d8b5d48c,,,,,,,sngl,resources/Empty.png,resources/DB.BMP,WildCard_NonEx,0.264119601,-0.019933555,1,0,0,4.1166,optionRight,55,5175,3,21,0,21,0,1,,,,,,,,,,,,,,,,,,,,,,,,,,,,,,,,,,,,,,,
,,,,,,,,2023-08-16_08h52.01.027,HF_wild_card,2022.2.4,Win32,3.334022365,64842455e8ac69503a5c65f0,64d2fd46c836a06233681665,64dc7f37daf0b543d8b5d48c,,,,,,,decisionTrl,resources/DBN.BMP,resources/DR.BMP,Door3,-0.360465116,0.084717608,1,0,0,2.9454,optionLeft,70,5245,3,22,0,22,0,1,,,,,,,,,,,,,,,,,,,,,,,,,,,,,,,,,,,,,,,
,,,,,,,,2023-08-16_08h52.01.027,HF_wild_card,2022.2.4,Win32,3.334022365,64842455e8ac69503a5c65f0,64d2fd46c836a06233681665,64dc7f37daf0b543d8b5d48c,,,,,,,decisionTrl,resources/DP.BMP,resources/DY.BMP,Door2,0.370431894,0.07641196,1,0,0,5.1407,optionRight,40,5285,3,23,0,23,0,1,,,,,,,,,,,,,,,,,,,,,,,,,,,,,,,,,,,,,,,
,,,,,,,,2023-08-16_08h52.01.027,HF_wild_card,2022.2.4,Win32,3.334022365,64842455e8ac69503a5c65f0,64d2fd46c836a06233681665,64dc7f37daf0b543d8b5d48c,,,,,,,decisionTrl,resources/DP.BMP,resources/DY.BMP,Door2,0.431893688,0.093023256,1,0,0,1.6278,optionRight,20,5305,3,24,0,24,0,1,,,,,,,,,,,,,,,,,,,,,,,,,,,,,,,,,,,,,,,
,,,,,,,,2023-08-16_08h52.01.027,HF_wild_card,2022.2.4,Win32,3.334022365,64842455e8ac69503a5c65f0,64d2fd46c836a06233681665,64dc7f37daf0b543d8b5d48c,,,,,,,decisionTrl,resources/DBN.BMP,resources/DR.BMP,Door3,-0.342192691,0.026578073,1,0,0,1.3228,optionLeft,70,5375,3,25,0,25,0,1,,,,,,,,,,,,,,,,,,,,,,,,,,,,,,,,,,,,,,,
,,,,,,,,2023-08-16_08h52.01.027,HF_wild_card,2022.2.4,Win32,3.334022365,64842455e8ac69503a5c65f0,64d2fd46c836a06233681665,64dc7f37daf0b543d8b5d48c,,,,,,,decisionTrl,resources/DY.BMP,resources/DP.BMP,Door2,-0.362126246,0.034883721,1,0,0,1.3267,optionLeft,20,5395,3,26,0,26,0,1,,,,,,,,,,,,,,,,,,,,,,,,,,,,,,,,,,,,,,,
,,,,,,,,2023-08-16_08h52.01.027,HF_wild_card,2022.2.4,Win32,3.334022365,64842455e8ac69503a5c65f0,64d2fd46c836a06233681665,64dc7f37daf0b543d8b5d48c,,,,,,,sngl,resources/DR.BMP,resources/Empty.png,Door4,-0.342192691,0.011627907,1,0,0,1.1768,optionLeft,80,5475,3,27,0,27,0,1,,,,,,,,,,,,,,,,,,,,,,,,,,,,,,,,,,,,,,,
,,,,,,,,2023-08-16_08h52.01.027,HF_wild_card,2022.2.4,Win32,3.334022365,64842455e8ac69503a5c65f0,64d2fd46c836a06233681665,64dc7f37daf0b543d8b5d48c,,,,,,,sngl,resources/Empty.png,resources/DP.BMP,Door1,0.42358804,0.008305648,1,0,0,1.206,optionRight,30,5505,3,28,0,28,0,1,,,,,,,,,,,,,,,,,,,,,,,,,,,,,,,,,,,,,,,
,,,,,,,,2023-08-16_08h52.01.027,HF_wild_card,2022.2.4,Win32,3.334022365,64842455e8ac69503a5c65f0,64d2fd46c836a06233681665,64dc7f37daf0b543d8b5d48c,,,,,,,ctch,resources/DR.BMP,resources/DP.BMP,Door1,0.388704319,-0.011627907,1,0,0,1.605,optionRight,30,5535,3,29,0,29,0,1,,,,,,,,,,,,,,,,,,,,,,,,,,,,,,,,,,,,,,,
,,,,,,,,2023-08-16_08h52.01.027,HF_wild_card,2022.2.4,Win32,3.334022365,64842455e8ac69503a5c65f0,64d2fd46c836a06233681665,64dc7f37daf0b543d8b5d48c,,,,,,,ctch,resources/DP.BMP,resources/DR.BMP,Door1,-0.362126246,0.044850498,1,0,0,1.2827,optionLeft,30,5565,3,30,0,30,0,1,,,,,,,,,,,,,,,,,,,,,,,,,,,,,,,,,,,,,,,
,,,,,,,,2023-08-16_08h52.01.027,HF_wild_card,2022.2.4,Win32,3.334022365,64842455e8ac69503a5c65f0,64d2fd46c836a06233681665,64dc7f37daf0b543d8b5d48c,,,,,,,ctch,resources/DR.BMP,resources/DP.BMP,Door1,0.456810631,-0.008305648,1,0,0,1.2722,optionRight,30,5595,3,31,0,31,0,1,,,,,,,,,,,,,,,,,,,,,,,,,,,,,,,,,,,,,,,
,,,,,,,,2023-08-16_08h52.01.027,HF_wild_card,2022.2.4,Win32,3.334022365,64842455e8ac69503a5c65f0,64d2fd46c836a06233681665,64dc7f37daf0b543d8b5d48c,,,,,,,ctch,resources/DBN.BMP,resources/DY.BMP,Door3,-0.378737542,0.059800664,1,0,0,1.2665,optionLeft,70,5665,3,32,0,32,0,1,,,,,,,,,,,,,,,,,,,,,,,,,,,,,,,,,,,,,,,
,,,,,,,,2023-08-16_08h52.01.027,HF_wild_card,2022.2.4,Win32,3.334022365,64842455e8ac69503a5c65f0,64d2fd46c836a06233681665,64dc7f37daf0b543d8b5d48c,,,,,,,ctch,resources/DY.BMP,resources/DBN.BMP,Door3,0.373754153,0.049833887,1,0,0,1.3002,optionRight,70,5735,3,33,0,33,0,1,,,,,,,,,,,,,,,,,,,,,,,,,,,,,,,,,,,,,,,
,,,,,,,,2023-08-16_08h52.01.027,HF_wild_card,2022.2.4,Win32,3.334022365,64842455e8ac69503a5c65f0,64d2fd46c836a06233681665,64dc7f37daf0b543d8b5d48c,,,,,,,decisionTrl,resources/DBN.BMP,resources/DB.BMP,Door3,-0.470099668,0.106312292,1,0,0,1.2717,optionLeft,70,5805,3,34,0,34,0,1,,,,,,,,,,,,,,,,,,,,,,,,,,,,,,,,,,,,,,,
,,,,,,,,2023-08-16_08h52.01.027,HF_wild_card,2022.2.4,Win32,3.334022365,64842455e8ac69503a5c65f0,64d2fd46c836a06233681665,64dc7f37daf0b543d8b5d48c,,,,,,,sngl,resources/Empty.png,resources/DB.BMP,WildCard_NonEx,0.299003322,0.034883721,1,0,0,1.2141,optionRight,45,5850,3,35,0,35,0,1,,,,,,,,,,,,,,,,,,,,,,,,,,,,,,,,,,,,,,,
,,,,,,,,2023-08-16_08h52.01.027,HF_wild_card,2022.2.4,Win32,3.334022365,64842455e8ac69503a5c65f0,64d2fd46c836a06233681665,64dc7f37daf0b543d8b5d48c,,,,,,,decisionTrl,resources/DY.BMP,resources/DB.BMP,WildCard_NonEx,0.431893688,0.059800664,1,0,0,2.5232,optionRight,55,5905,3,36,0,36,0,1,,,,,,,,,,,,,,,,,,,,,,,,,,,,,,,,,,,,,,,
,,,,,,,,2023-08-16_08h52.01.027,HF_wild_card,2022.2.4,Win32,3.334022365,64842455e8ac69503a5c65f0,64d2fd46c836a06233681665,64dc7f37daf0b543d8b5d48c,,,,,,,decisionTrl,resources/DB.BMP,resources/DP.BMP,Door1,0.400332226,0,1,0,0,1.5927,optionRight,30,5935,3,37,0,37,0,1,,,,,,,,,,,,,,,,,,,,,,,,,,,,,,,,,,,,,,,
,,,,,,,,2023-08-16_08h52.01.027,HF_wild_card,2022.2.4,Win32,3.334022365,64842455e8ac69503a5c65f0,64d2fd46c836a06233681665,64dc7f37daf0b543d8b5d48c,,,,,,,sngl,resources/DB.BMP,resources/Empty.png,WildCard_NonEx,-0.318936877,0.023255814,1,0,0,1.2701,optionLeft,45,5980,3,38,0,38,0,1,,,,,,,,,,,,,,,,,,,,,,,,,,,,,,,,,,,,,,,
,,,,,,,,2023-08-16_08h52.01.027,HF_wild_card,2022.2.4,Win32,3.334022365,64842455e8ac69503a5c65f0,64d2fd46c836a06233681665,64dc7f37daf0b543d8b5d48c,,,,,,,decisionTrl,resources/DR.BMP,resources/DBN.BMP,Door3,0.415282392,-0.104651163,1,0,0,4.801,optionRight,70,6050,3,39,0,39,0,1,,,,,,,,,,,,,,,,,,,,,,,,,,,,,,,,,,,,,,,
,,,,,,,,2023-08-16_08h52.01.027,HF_wild_card,2022.2.4,Win32,3.334022365,64842455e8ac69503a5c65f0,64d2fd46c836a06233681665,64dc7f37daf0b543d8b5d48c,,,,,,,decisionTrl,resources/DP.BMP,resources/DY.BMP,Door2,0.398671096,-0.014950166,1,0,0,1.3036,optionRight,40,6090,3,40,0,40,0,1,,,,,,,,,,,,,,,,,,,,,,,,,,,,,,,,,,,,,,,
,,,,,,,,2023-08-16_08h52.01.027,HF_wild_card,2022.2.4,Win32,3.334022365,64842455e8ac69503a5c65f0,64d2fd46c836a06233681665,64dc7f37daf0b543d8b5d48c,,,,,,,decisionTrl,resources/DB.BMP,resources/DR.BMP,Door4,0.325581395,-0.03654485,1,0,0,1.2733,optionRight,80,6170,3,41,0,41,0,1,,,,,,,,,,,,,,,,,,,,,,,,,,,,,,,,,,,,,,,
,,,,,,,,2023-08-16_08h52.01.027,HF_wild_card,2022.2.4,Win32,3.334022365,64842455e8ac69503a5c65f0,64d2fd46c836a06233681665,64dc7f37daf0b543d8b5d48c,,,,,,,decisionTrl,resources/DY.BMP,resources/DP.BMP,Door1,0.348837209,-0.043189369,1,0,0,1.2827,optionRight,30,6200,3,42,0,42,0,1,,,,,,,,,,,,,,,,,,,,,,,,,,,,,,,,,,,,,,,
,,,,,,,,2023-08-16_08h52.01.027,HF_wild_card,2022.2.4,Win32,3.334022365,64842455e8ac69503a5c65f0,64d2fd46c836a06233681665,64dc7f37daf0b543d8b5d48c,,,,,,,sngl,resources/DB.BMP,resources/Empty.png,WildCard_NonEx,-0.322259136,-0.064784053,1,0,0,3.9274,optionLeft,55,6255,3,43,0,43,0,1,,,,,,,,,,,,,,,,,,,,,,,,,,,,,,,,,,,,,,,
,,,,,,,,2023-08-16_08h52.01.027,HF_wild_card,2022.2.4,Win32,3.334022365,64842455e8ac69503a5c65f0,64d2fd46c836a06233681665,64dc7f37daf0b543d8b5d48c,,,,,,,,,,,,,,,,,,,,,,,,,,2,0,2,0,1,,,,,,,,,,,,,,,,,,,,,,,,,,,,,,,,,,
,,,,,,,,2023-08-16_08h52.01.027,HF_wild_card,2022.2.4,Win32,3.334022365,64842455e8ac69503a5c65f0,64d2fd46c836a06233681665,64dc7f37daf0b543d8b5d48c,,,,,,,ctch,resources/DR.BMP,resources/DP.BMP,Door1,0.403654485,-0.134551495,1,0,0,1.3512,optionRight,30,6285,4,0,0,0,0,1,,,,,,,,,,,,,,,,,,,,,,,,,,,,,,,,,,,,,,,
,,,,,,,,2023-08-16_08h52.01.027,HF_wild_card,2022.2.4,Win32,3.334022365,64842455e8ac69503a5c65f0,64d2fd46c836a06233681665,64dc7f37daf0b543d8b5d48c,,,,,,,sngl,resources/Empty.png,resources/DY.BMP,Door2,0.330564784,-0.006644518,1,0,0,3.6648,optionRight,40,6325,4,1,0,1,0,1,,,,,,,,,,,,,,,,,,,,,,,,,,,,,,,,,,,,,,,
,,,,,,,,2023-08-16_08h52.01.027,HF_wild_card,2022.2.4,Win32,3.334022365,64842455e8ac69503a5c65f0,64d2fd46c836a06233681665,64dc7f37daf0b543d8b5d48c,,,,,,,decisionTrl,resources/DBN.BMP,resources/DG.BMP,Door3,-0.450166113,-0.03986711,1,0,0,1.9599,optionLeft,70,6395,4,2,0,2,0,1,,,,,,,,,,,,,,,,,,,,,,,,,,,,,,,,,,,,,,,
,,,,,,,,2023-08-16_08h52.01.027,HF_wild_card,2022.2.4,Win32,3.334022365,64842455e8ac69503a5c65f0,64d2fd46c836a06233681665,64dc7f37daf0b543d8b5d48c,,,,,,,sngl,resources/Empty.png,resources/DG.BMP,WildCard_Ex,0.411960133,-0.061461794,1,0,0,1.2504,optionRight,5,6400,4,3,0,3,0,1,,,,,,,,,,,,,,,,,,,,,,,,,,,,,,,,,,,,,,,
,,,,,,,,2023-08-16_08h52.01.027,HF_wild_card,2022.2.4,Win32,3.334022365,64842455e8ac69503a5c65f0,64d2fd46c836a06233681665,64dc7f37daf0b543d8b5d48c,,,,,,,sngl,resources/Empty.png,resources/DP.BMP,Door1,0.441860465,0.006644518,1,0,0,4.1706,optionRight,30,6430,4,4,0,4,0,1,,,,,,,,,,,,,,,,,,,,,,,,,,,,,,,,,,,,,,,
,,,,,,,,2023-08-16_08h52.01.027,HF_wild_card,2022.2.4,Win32,3.334022365,64842455e8ac69503a5c65f0,64d2fd46c836a06233681665,64dc7f37daf0b543d8b5d48c,,,,,,,ctch,resources/DP.BMP,resources/DR.BMP,Door1,-0.330564784,-0.117940199,1,0,0,7.4535,optionLeft,30,6460,4,5,0,5,0,1,,,,,,,,,,,,,,,,,,,,,,,,,,,,,,,,,,,,,,,
,,,,,,,,2023-08-16_08h52.01.027,HF_wild_card,2022.2.4,Win32,3.334022365,64842455e8ac69503a5c65f0,64d2fd46c836a06233681665,64dc7f37daf0b543d8b5d48c,,,,,,,decisionTrl,resources/DBN.BMP,resources/DR.BMP,Door3,-0.320598007,0.004983389,1,0,0,1.3039,optionLeft,70,6530,4,6,0,6,0,1,,,,,,,,,,,,,,,,,,,,,,,,,,,,,,,,,,,,,,,
,,,,,,,,2023-08-16_08h52.01.027,HF_wild_card,2022.2.4,Win32,3.334022365,64842455e8ac69503a5c65f0,64d2fd46c836a06233681665,64dc7f37daf0b543d8b5d48c,,,,,,,decisionTrl,resources/DY.BMP,resources/DP.BMP,Door2,-0.300664452,-0.061461794,1,0,0,2.5671,optionLeft,40,6570,4,7,0,7,0,1,,,,,,,,,,,,,,,,,,,,,,,,,,,,,,,,,,,,,,,
,,,,,,,,2023-08-16_08h52.01.027,HF_wild_card,2022.2.4,Win32,3.334022365,64842455e8ac69503a5c65f0,64d2fd46c836a06233681665,64dc7f37daf0b543d8b5d48c,,,,,,,decisionTrl,resources/DBN.BMP,resources/DR.BMP,Door3,-0.398671096,0.028239203,1,0,0,1.2607,optionLeft,70,6640,4,8,0,8,0,1,,,,,,,,,,,,,,,,,,,,,,,,,,,,,,,,,,,,,,,
,,,,,,,,2023-08-16_08h52.01.027,HF_wild_card,2022.2.4,Win32,3.334022365,64842455e8ac69503a5c65f0,64d2fd46c836a06233681665,64dc7f37daf0b543d8b5d48c,,,,,,,sngl,resources/DBN.BMP,resources/Empty.png,Door3,-0.411960133,-0.101328904,1,0,0,4.7767,optionLeft,70,6710,4,9,0,9,0,1,,,,,,,,,,,,,,,,,,,,,,,,,,,,,,,,,,,,,,,
,,,,,,,,2023-08-16_08h52.01.027,HF_wild_card,2022.2.4,Win32,3.334022365,64842455e8ac69503a5c65f0,64d2fd46c836a06233681665,64dc7f37daf0b543d8b5d48c,,,,,,,decisionTrl,resources/DP.BMP,resources/DY.BMP,Door1,-0.42358804,-0.046511628,1,0,0,4.8566,optionLeft,30,6740,4,10,0,10,0,1,,,,,,,,,,,,,,,,,,,,,,,,,,,,,,,,,,,,,,,
,,,,,,,,2023-08-16_08h52.01.027,HF_wild_card,2022.2.4,Win32,3.334022365,64842455e8ac69503a5c65f0,64d2fd46c836a06233681665,64dc7f37daf0b543d8b5d48c,,,,,,,ctch,resources/DY.BMP,resources/DBN.BMP,Door3,0.357142857,-0.033222591,1,0,0,1.3072,optionRight,70,6810,4,11,0,11,0,1,,,,,,,,,,,,,,,,,,,,,,,,,,,,,,,,,,,,,,,
,,,,,,,,2023-08-16_08h52.01.027,HF_wild_card,2022.2.4,Win32,3.334022365,64842455e8ac69503a5c65f0,64d2fd46c836a06233681665,64dc7f37daf0b543d8b5d48c,,,,,,,decisionTrl,resources/DY.BMP,resources/DP.BMP,Door1,0.453488372,-0.061461794,1,0,0,2.9841,optionRight,30,6840,4,12,0,12,0,1,,,,,,,,,,,,,,,,,,,,,,,,,,,,,,,,,,,,,,,
,,,,,,,,2023-08-16_08h52.01.027,HF_wild_card,2022.2.4,Win32,3.334022365,64842455e8ac69503a5c65f0,64d2fd46c836a06233681665,64dc7f37daf0b543d8b5d48c,,,,,,,ctch,resources/DY.BMP,resources/DBN.BMP,Door3,0.350498339,-0.03654485,1,0,0,2.2612,optionRight,70,6910,4,13,0,13,0,1,,,,,,,,,,,,,,,,,,,,,,,,,,,,,,,,,,,,,,,
,,,,,,,,2023-08-16_08h52.01.027,HF_wild_card,2022.2.4,Win32,3.334022365,64842455e8ac69503a5c65f0,64d2fd46c836a06233681665,64dc7f37daf0b543d8b5d48c,,,,,,,decisionTrl,resources/DG.BMP,resources/DP.BMP,Door1,0.357142857,-0.053156146,1,0,0,1.2799,optionRight,30,6940,4,14,0,14,0,1,,,,,,,,,,,,,,,,,,,,,,,,,,,,,,,,,,,,,,,
,,,,,,,,2023-08-16_08h52.01.027,HF_wild_card,2022.2.4,Win32,3.334022365,64842455e8ac69503a5c65f0,64d2fd46c836a06233681665,64dc7f37daf0b543d8b5d48c,,,,,,,decisionTrl,resources/DG.BMP,resources/DR.BMP,WildCard_Ex,-0.375415282,0.07641196,1,0,0,8.4729,optionLeft,95,7035,4,15,0,15,0,1,,,,,,,,,,,,,,,,,,,,,,,,,,,,,,,,,,,,,,,
,,,,,,,,2023-08-16_08h52.01.027,HF_wild_card,2022.2.4,Win32,3.334022365,64842455e8ac69503a5c65f0,64d2fd46c836a06233681665,64dc7f37daf0b543d8b5d48c,,,,,,,decisionTrl,resources/DG.BMP,resources/DBN.BMP,Door3,0.397009967,-0.058139535,1,0,0,2.2829,optionRight,70,7105,4,16,0,16,0,1,,,,,,,,,,,,,,,,,,,,,,,,,,,,,,,,,,,,,,,
,,,,,,,,2023-08-16_08h52.01.027,HF_wild_card,2022.2.4,Win32,3.334022365,64842455e8ac69503a5c65f0,64d2fd46c836a06233681665,64dc7f37daf0b543d8b5d48c,,,,,,,sngl,resources/DG.BMP,resources/Empty.png,WildCard_Ex,-0.27076412,0.013289037,1,0,0,2.0187,optionLeft,5,7110,4,17,0,17,0,1,,,,,,,,,,,,,,,,,,,,,,,,,,,,,,,,,,,,,,,
,,,,,,,,2023-08-16_08h52.01.027,HF_wild_card,2022.2.4,Win32,3.334022365,64842455e8ac69503a5c65f0,64d2fd46c836a06233681665,64dc7f37daf0b543d8b5d48c,,,,,,,decisionTrl,resources/DG.BMP,resources/DY.BMP,WildCard_Ex,-0.352159468,-0.014950166,1,0,0,3.8555,optionLeft,5,7115,4,18,0,18,0,1,,,,,,,,,,,,,,,,,,,,,,,,,,,,,,,,,,,,,,,
,,,,,,,,2023-08-16_08h52.01.027,HF_wild_card,2022.2.4,Win32,3.334022365,64842455e8ac69503a5c65f0,64d2fd46c836a06233681665,64dc7f37daf0b543d8b5d48c,,,,,,,sngl,resources/Empty.png,resources/DR.BMP,Door4,0.335548173,-0.041528239,1,0,0,1.1652,optionRight,80,7195,4,19,0,19,0,1,,,,,,,,,,,,,,,,,,,,,,,,,,,,,,,,,,,,,,,
,,,,,,,,2023-08-16_08h52.01.027,HF_wild_card,2022.2.4,Win32,3.334022365,64842455e8ac69503a5c65f0,64d2fd46c836a06233681665,64dc7f37daf0b543d8b5d48c,,,,,,,decisionTrl,resources/DR.BMP,resources/DBN.BMP,Door3,0.360465116,-0.009966777,1,0,0,2.4022,optionRight,70,7265,4,20,0,20,0,1,,,,,,,,,,,,,,,,,,,,,,,,,,,,,,,,,,,,,,,
,,,,,,,,2023-08-16_08h52.01.027,HF_wild_card,2022.2.4,Win32,3.334022365,64842455e8ac69503a5c65f0,64d2fd46c836a06233681665,64dc7f37daf0b543d8b5d48c,,,,,,,decisionTrl,resources/DR.BMP,resources/DBN.BMP,Door4,-0.352159468,0.023255814,1,0,0,1.2638,optionLeft,60,7325,4,21,0,21,0,1,,,,,,,,,,,,,,,,,,,,,,,,,,,,,,,,,,,,,,,
,,,,,,,,2023-08-16_08h52.01.027,HF_wild_card,2022.2.4,Win32,3.334022365,64842455e8ac69503a5c65f0,64d2fd46c836a06233681665,64dc7f37daf0b543d8b5d48c,,,,,,,sngl,resources/DG.BMP,resources/Empty.png,WildCard_Ex,-0.335548173,0.023255814,1,0,0,1.1832,optionLeft,95,7420,4,22,0,22,0,1,,,,,,,,,,,,,,,,,,,,,,,,,,,,,,,,,,,,,,,
,,,,,,,,2023-08-16_08h52.01.027,HF_wild_card,2022.2.4,Win32,3.334022365,64842455e8ac69503a5c65f0,64d2fd46c836a06233681665,64dc7f37daf0b543d8b5d48c,,,,,,,sngl,resources/DY.BMP,resources/Empty.png,Door2,-0.352159468,-0.014950166,1,0,0,8.6829,optionLeft,20,7440,4,23,0,23,0,1,,,,,,,,,,,,,,,,,,,,,,,,,,,,,,,,,,,,,,,
,,,,,,,,2023-08-16_08h52.01.027,HF_wild_card,2022.2.4,Win32,3.334022365,64842455e8ac69503a5c65f0,64d2fd46c836a06233681665,64dc7f37daf0b543d8b5d48c,,,,,,,ctch,resources/DP.BMP,resources/DR.BMP,Door4,0.425249169,-0.059800664,1,0,0,2.255,optionRight,60,7500,4,24,0,24,0,1,,,,,,,,,,,,,,,,,,,,,,,,,,,,,,,,,,,,,,,
,,,,,,,,2023-08-16_08h52.01.027,HF_wild_card,2022.2.4,Win32,3.334022365,64842455e8ac69503a5c65f0,64d2fd46c836a06233681665,64dc7f37daf0b543d8b5d48c,,,,,,,ctch,resources/DBN.BMP,resources/DY.BMP,Door3,-0.312292359,0.028239203,1,0,0,2.2359,optionLeft,70,7570,4,25,0,25,0,1,,,,,,,,,,,,,,,,,,,,,,,,,,,,,,,,,,,,,,,
,,,,,,,,2023-08-16_08h52.01.027,HF_wild_card,2022.2.4,Win32,3.334022365,64842455e8ac69503a5c65f0,64d2fd46c836a06233681665,64dc7f37daf0b543d8b5d48c,,,,,,,decisionTrl,resources/DR.BMP,resources/DBN.BMP,Door3,0.338870432,-0.016611296,1,0,0,2.2591,optionRight,70,7640,4,26,0,26,0,1,,,,,,,,,,,,,,,,,,,,,,,,,,,,,,,,,,,,,,,
,,,,,,,,2023-08-16_08h52.01.027,HF_wild_card,2022.2.4,Win32,3.334022365,64842455e8ac69503a5c65f0,64d2fd46c836a06233681665,64dc7f37daf0b543d8b5d48c,,,,,,,sngl,resources/DR.BMP,resources/Empty.png,Door4,-0.340531561,0.013289037,1,0,0,1.1711,optionLeft,60,7700,4,27,0,27,0,1,,,,,,,,,,,,,,,,,,,,,,,,,,,,,,,,,,,,,,,
,,,,,,,,2023-08-16_08h52.01.027,HF_wild_card,2022.2.4,Win32,3.334022365,64842455e8ac69503a5c65f0,64d2fd46c836a06233681665,64dc7f37daf0b543d8b5d48c,,,,,,,sngl,resources/Empty.png,resources/DBN.BMP,Door3,0.318936877,-0.003322259,1,0,0,1.1579,optionRight,70,7770,4,28,0,28,0,1,,,,,,,,,,,,,,,,,,,,,,,,,,,,,,,,,,,,,,,
,,,,,,,,2023-08-16_08h52.01.027,HF_wild_card,2022.2.4,Win32,3.334022365,64842455e8ac69503a5c65f0,64d2fd46c836a06233681665,64dc7f37daf0b543d8b5d48c,,,,,,,decisionTrl,resources/DR.BMP,resources/DG.BMP,WildCard_Ex,0.333887043,0.009966777,1,0,0,2.1934,optionRight,95,7865,4,29,0,29,0,1,,,,,,,,,,,,,,,,,,,,,,,,,,,,,,,,,,,,,,,
,,,,,,,,2023-08-16_08h52.01.027,HF_wild_card,2022.2.4,Win32,3.334022365,64842455e8ac69503a5c65f0,64d2fd46c836a06233681665,64dc7f37daf0b543d8b5d48c,,,,,,,decisionTrl,resources/DP.BMP,resources/DY.BMP,Door1,-0.303986711,0.049833887,1,0,0,2.6332,optionLeft,30,7895,4,30,0,30,0,1,,,,,,,,,,,,,,,,,,,,,,,,,,,,,,,,,,,,,,,
,,,,,,,,2023-08-16_08h52.01.027,HF_wild_card,2022.2.4,Win32,3.334022365,64842455e8ac69503a5c65f0,64d2fd46c836a06233681665,64dc7f37daf0b543d8b5d48c,,,,,,,ctch,resources/DR.BMP,resources/DP.BMP,Door4,-0.365448505,0.033222591,1,0,0,1.9811,optionLeft,80,7975,4,31,0,31,0,1,,,,,,,,,,,,,,,,,,,,,,,,,,,,,,,,,,,,,,,
,,,,,,,,2023-08-16_08h52.01.027,HF_wild_card,2022.2.4,Win32,3.334022365,64842455e8ac69503a5c65f0,64d2fd46c836a06233681665,64dc7f37daf0b543d8b5d48c,,,,,,,sngl,resources/DP.BMP,resources/Empty.png,Door1,-0.299003322,0.006644518,1,0,0,1.2012,optionLeft,30,8005,4,32,0,32,0,1,,,,,,,,,,,,,,,,,,,,,,,,,,,,,,,,,,,,,,,
,,,,,,,,2023-08-16_08h52.01.027,HF_wild_card,2022.2.4,Win32,3.334022365,64842455e8ac69503a5c65f0,64d2fd46c836a06233681665,64dc7f37daf0b543d8b5d48c,,,,,,,decisionTrl,resources/DP.BMP,resources/DY.BMP,Door2,0.287375415,-0.094684385,1,0,0,1.9338,optionRight,40,8045,4,33,0,33,0,1,,,,,,,,,,,,,,,,,,,,,,,,,,,,,,,,,,,,,,,
,,,,,,,,2023-08-16_08h52.01.027,HF_wild_card,2022.2.4,Win32,3.334022365,64842455e8ac69503a5c65f0,64d2fd46c836a06233681665,64dc7f37daf0b543d8b5d48c,,,,,,,decisionTrl,resources/DY.BMP,resources/DP.BMP,Door1,0.348837209,-0.07641196,1,0,0,3.9279,optionRight,30,8075,4,34,0,34,0,1,,,,,,,,,,,,,,,,,,,,,,,,,,,,,,,,,,,,,,,
,,,,,,,,2023-08-16_08h52.01.027,HF_wild_card,2022.2.4,Win32,3.334022365,64842455e8ac69503a5c65f0,64d2fd46c836a06233681665,64dc7f37daf0b543d8b5d48c,,,,,,,decisionTrl,resources/DP.BMP,resources/DY.BMP,Door2,0.350498339,-0.069767442,1,0,0,1.6494,optionRight,40,8115,4,35,0,35,0,1,,,,,,,,,,,,,,,,,,,,,,,,,,,,,,,,,,,,,,,
,,,,,,,,2023-08-16_08h52.01.027,HF_wild_card,2022.2.4,Win32,3.334022365,64842455e8ac69503a5c65f0,64d2fd46c836a06233681665,64dc7f37daf0b543d8b5d48c,,,,,,,decisionTrl,resources/DBN.BMP,resources/DR.BMP,Door3,-0.328903654,0.029900332,1,0,0,1.9578,optionLeft,70,8185,4,36,0,36,0,1,,,,,,,,,,,,,,,,,,,,,,,,,,,,,,,,,,,,,,,
,,,,,,,,2023-08-16_08h52.01.027,HF_wild_card,2022.2.4,Win32,3.334022365,64842455e8ac69503a5c65f0,64d2fd46c836a06233681665,64dc7f37daf0b543d8b5d48c,,,,,,,decisionTrl,resources/DY.BMP,resources/DP.BMP,Door1,0.34717608,-0.044850498,1,0,0,3.5122,optionRight,30,8215,4,37,0,37,0,1,,,,,,,,,,,,,,,,,,,,,,,,,,,,,,,,,,,,,,,
,,,,,,,,2023-08-16_08h52.01.027,HF_wild_card,2022.2.4,Win32,3.334022365,64842455e8ac69503a5c65f0,64d2fd46c836a06233681665,64dc7f37daf0b543d8b5d48c,,,,,,,decisionTrl,resources/DR.BMP,resources/DBN.BMP,Door3,0.38538206,-0.021594684,1,0,0,1.2799,optionRight,70,8285,4,38,0,38,0,1,,,,,,,,,,,,,,,,,,,,,,,,,,,,,,,,,,,,,,,
,,,,,,,,2023-08-16_08h52.01.027,HF_wild_card,2022.2.4,Win32,3.334022365,64842455e8ac69503a5c65f0,64d2fd46c836a06233681665,64dc7f37daf0b543d8b5d48c,,,,,,,sngl,resources/Empty.png,resources/DG.BMP,WildCard_Ex,0.46013289,-0.048172757,1,0,0,1.7693,optionRight,95,8380,4,39,0,39,0,1,,,,,,,,,,,,,,,,,,,,,,,,,,,,,,,,,,,,,,,
,,,,,,,,2023-08-16_08h52.01.027,HF_wild_card,2022.2.4,Win32,3.334022365,64842455e8ac69503a5c65f0,64d2fd46c836a06233681665,64dc7f37daf0b543d8b5d48c,,,,,,,decisionTrl,resources/DY.BMP,resources/DG.BMP,WildCard_Ex,0.353820598,-0.014950166,1,0,0,1.8878,optionRight,5,8385,4,40,0,40,0,1,,,,,,,,,,,,,,,,,,,,,,,,,,,,,,,,,,,,,,,
,,,,,,,,2023-08-16_08h52.01.027,HF_wild_card,2022.2.4,Win32,3.334022365,64842455e8ac69503a5c65f0,64d2fd46c836a06233681665,64dc7f37daf0b543d8b5d48c,,,,,,,ctch,resources/DBN.BMP,resources/DY.BMP,Door3,-0.30730897,0.051495017,1,0,0,1.5989,optionLeft,70,8455,4,41,0,41,0,1,,,,,,,,,,,,,,,,,,,,,,,,,,,,,,,,,,,,,,,
,,,,,,,,2023-08-16_08h52.01.027,HF_wild_card,2022.2.4,Win32,3.334022365,64842455e8ac69503a5c65f0,64d2fd46c836a06233681665,64dc7f37daf0b543d8b5d48c,,,,,,,decisionTrl,resources/DBN.BMP,resources/DR.BMP,Door3,-0.343853821,0.033222591,1,0,0,1.9308,optionLeft,70,8525,4,42,0,42,0,1,,,,,,,,,,,,,,,,,,,,,,,,,,,,,,,,,,,,,,,
,,,,,,,,2023-08-16_08h52.01.027,HF_wild_card,2022.2.4,Win32,3.334022365,64842455e8ac69503a5c65f0,64d2fd46c836a06233681665,64dc7f37daf0b543d8b5d48c,,,,,,,decisionTrl,resources/DP.BMP,resources/DG.BMP,WildCard_Ex,0.325581395,0.003322259,1,0,0,1.2644,optionRight,5,8530,4,43,0,43,0,1,,,,,,,,,,,,,,,,,,,,,,,,,,,,,,,,,,,,,,,
,,,,,,,,2023-08-16_08h52.01.027,HF_wild_card,2022.2.4,Win32,3.334022365,64842455e8ac69503a5c65f0,64d2fd46c836a06233681665,64dc7f37daf0b543d8b5d48c,,,,,,,,,,,,,,,,,,,,,,,,,,3,0,3,0,1,,,,,,,,,,,,,,,,,,,,,,,,,,,,,,,,,,
,,,,,,,,2023-08-16_08h52.01.027,HF_wild_card,2022.2.4,Win32,3.334022365,64842455e8ac69503a5c65f0,64d2fd46c836a06233681665,64dc7f37daf0b543d8b5d48c,,,,,,,sngl,resources/DR.BMP,resources/Empty.png,Door4,-0.473421927,-0.033222591,1,0,0,1.7849,optionLeft,80,8610,5,0,0,0,0,1,,,,,,,,,,,,,,,,,,,,,,,,,,,,,,,,,,,,,,,
,,,,,,,,2023-08-16_08h52.01.027,HF_wild_card,2022.2.4,Win32,3.334022365,64842455e8ac69503a5c65f0,64d2fd46c836a06233681665,64dc7f37daf0b543d8b5d48c,,,,,,,decisionTrl,resources/DR.BMP,resources/DBN.BMP,Door3,0.443521595,-0.104651163,1,0,0,3.1159,optionRight,70,8680,5,1,0,1,0,1,,,,,,,,,,,,,,,,,,,,,,,,,,,,,,,,,,,,,,,
,,,,,,,,2023-08-16_08h52.01.027,HF_wild_card,2022.2.4,Win32,3.334022365,64842455e8ac69503a5c65f0,64d2fd46c836a06233681665,64dc7f37daf0b543d8b5d48c,,,,,,,sngl,resources/DBN.BMP,resources/Empty.png,Door3,-0.382059801,0.021594684,1,0,0,2.895,optionLeft,70,8750,5,2,0,2,0,1,,,,,,,,,,,,,,,,,,,,,,,,,,,,,,,,,,,,,,,
,,,,,,,,2023-08-16_08h52.01.027,HF_wild_card,2022.2.4,Win32,3.334022365,64842455e8ac69503a5c65f0,64d2fd46c836a06233681665,64dc7f37daf0b543d8b5d48c,,,,,,,decisionTrl,resources/DY.BMP,resources/DP.BMP,Door1,0.401993355,-0.079734219,1,0,0,2.2928,optionRight,30,8780,5,3,0,3,0,1,,,,,,,,,,,,,,,,,,,,,,,,,,,,,,,,,,,,,,,
,,,,,,,,2023-08-16_08h52.01.027,HF_wild_card,2022.2.4,Win32,3.334022365,64842455e8ac69503a5c65f0,64d2fd46c836a06233681665,64dc7f37daf0b543d8b5d48c,,,,,,,decisionTrl,resources/DY.BMP,resources/DP.BMP,Door2,-0.30730897,0.041528239,1,0,0,1.8784,optionLeft,40,8820,5,4,0,4,0,1,,,,,,,,,,,,,,,,,,,,,,,,,,,,,,,,,,,,,,,
,,,,,,,,2023-08-16_08h52.01.027,HF_wild_card,2022.2.4,Win32,3.334022365,64842455e8ac69503a5c65f0,64d2fd46c836a06233681665,64dc7f37daf0b543d8b5d48c,,,,,,,sngl,resources/Empty.png,resources/DG.BMP,WildCard_Ex,0.355481728,-0.046511628,1,0,0,1.1682,optionRight,5,8825,5,5,0,5,0,1,,,,,,,,,,,,,,,,,,,,,,,,,,,,,,,,,,,,,,,
,,,,,,,,2023-08-16_08h52.01.027,HF_wild_card,2022.2.4,Win32,3.334022365,64842455e8ac69503a5c65f0,64d2fd46c836a06233681665,64dc7f37daf0b543d8b5d48c,,,,,,,sngl,resources/DG.BMP,resources/Empty.png,WildCard_Ex,-0.318936877,0,1,0,0,1.7751,optionLeft,5,8830,5,6,0,6,0,1,,,,,,,,,,,,,,,,,,,,,,,,,,,,,,,,,,,,,,,
,,,,,,,,2023-08-16_08h52.01.027,HF_wild_card,2022.2.4,Win32,3.334022365,64842455e8ac69503a5c65f0,64d2fd46c836a06233681665,64dc7f37daf0b543d8b5d48c,,,,,,,ctch,resources/DR.BMP,resources/DP.BMP,Door4,-0.297342193,-0.023255814,1,0,0,3.5359,optionLeft,60,8890,5,7,0,7,0,1,,,,,,,,,,,,,,,,,,,,,,,,,,,,,,,,,,,,,,,
,,,,,,,,2023-08-16_08h52.01.027,HF_wild_card,2022.2.4,Win32,3.334022365,64842455e8ac69503a5c65f0,64d2fd46c836a06233681665,64dc7f37daf0b543d8b5d48c,,,,,,,ctch,resources/DBN.BMP,resources/DY.BMP,Door3,-0.325581395,0.03654485,1,0,0,1.2848,optionLeft,70,8960,5,8,0,8,0,1,,,,,,,,,,,,,,,,,,,,,,,,,,,,,,,,,,,,,,,
,,,,,,,,2023-08-16_08h52.01.027,HF_wild_card,2022.2.4,Win32,3.334022365,64842455e8ac69503a5c65f0,64d2fd46c836a06233681665,64dc7f37daf0b543d8b5d48c,,,,,,,decisionTrl,resources/DR.BMP,resources/DBN.BMP,Door3,0.277408638,-0.021594684,1,0,0,1.2787,optionRight,70,9030,5,9,0,9,0,1,,,,,,,,,,,,,,,,,,,,,,,,,,,,,,,,,,,,,,,
,,,,,,,,2023-08-16_08h52.01.027,HF_wild_card,2022.2.4,Win32,3.334022365,64842455e8ac69503a5c65f0,64d2fd46c836a06233681665,64dc7f37daf0b543d8b5d48c,,,,,,,decisionTrl,resources/DY.BMP,resources/DP.BMP,Door2,-0.297342193,0.003322259,1,0,0,3.3632,optionLeft,20,9050,5,10,0,10,0,1,,,,,,,,,,,,,,,,,,,,,,,,,,,,,,,,,,,,,,,
,,,,,,,,2023-08-16_08h52.01.027,HF_wild_card,2022.2.4,Win32,3.334022365,64842455e8ac69503a5c65f0,64d2fd46c836a06233681665,64dc7f37daf0b543d8b5d48c,,,,,,,sngl,resources/Empty.png,resources/DG.BMP,WildCard_Ex,0.343853821,-0.089700997,1,0,0,2.9223,optionRight,95,9145,5,11,0,11,0,1,,,,,,,,,,,,,,,,,,,,,,,,,,,,,,,,,,,,,,,
,,,,,,,,2023-08-16_08h52.01.027,HF_wild_card,2022.2.4,Win32,3.334022365,64842455e8ac69503a5c65f0,64d2fd46c836a06233681665,64dc7f37daf0b543d8b5d48c,,,,,,,decisionTrl,resources/DG.BMP,resources/DP.BMP,WildCard_Ex,-0.260797342,0.016611296,1,0,0,1.2942,optionLeft,95,9240,5,12,0,12,0,1,,,,,,,,,,,,,,,,,,,,,,,,,,,,,,,,,,,,,,,
,,,,,,,,2023-08-16_08h52.01.027,HF_wild_card,2022.2.4,Win32,3.334022365,64842455e8ac69503a5c65f0,64d2fd46c836a06233681665,64dc7f37daf0b543d8b5d48c,,,,,,,sngl,resources/Empty.png,resources/DBN.BMP,Door3,0.395348837,-0.053156146,1,0,0,1.1904,optionRight,70,9310,5,13,0,13,0,1,,,,,,,,,,,,,,,,,,,,,,,,,,,,,,,,,,,,,,,
,,,,,,,,2023-08-16_08h52.01.027,HF_wild_card,2022.2.4,Win32,3.334022365,64842455e8ac69503a5c65f0,64d2fd46c836a06233681665,64dc7f37daf0b543d8b5d48c,,,,,,,sngl,resources/Empty.png,resources/DR.BMP,Door4,0.299003322,-0.061461794,1,0,0,1.1543,optionRight,60,9370,5,14,0,14,0,1,,,,,,,,,,,,,,,,,,,,,,,,,,,,,,,,,,,,,,,
,,,,,,,,2023-08-16_08h52.01.027,HF_wild_card,2022.2.4,Win32,3.334022365,64842455e8ac69503a5c65f0,64d2fd46c836a06233681665,64dc7f37daf0b543d8b5d48c,,,,,,,decisionTrl,resources/DBN.BMP,resources/DG.BMP,Door3,-0.285714286,0.024916944,1,0,0,3.0251,optionLeft,70,9440,5,15,0,15,0,1,,,,,,,,,,,,,,,,,,,,,,,,,,,,,,,,,,,,,,,
,,,,,,,,2023-08-16_08h52.01.027,HF_wild_card,2022.2.4,Win32,3.334022365,64842455e8ac69503a5c65f0,64d2fd46c836a06233681665,64dc7f37daf0b543d8b5d48c,,,,,,,ctch,resources/DY.BMP,resources/DBN.BMP,Door3,0.410299003,-0.053156146,1,0,0,3.2712,optionRight,70,9510,5,16,0,16,0,1,,,,,,,,,,,,,,,,,,,,,,,,,,,,,,,,,,,,,,,
,,,,,,,,2023-08-16_08h52.01.027,HF_wild_card,2022.2.4,Win32,3.334022365,64842455e8ac69503a5c65f0,64d2fd46c836a06233681665,64dc7f37daf0b543d8b5d48c,,,,,,,decisionTrl,resources/DBN.BMP,resources/DR.BMP,Door3,-0.302325581,0.003322259,1,0,0,1.68,optionLeft,70,9580,5,17,0,17,0,1,,,,,,,,,,,,,,,,,,,,,,,,,,,,,,,,,,,,,,,
,,,,,,,,2023-08-16_08h52.01.027,HF_wild_card,2022.2.4,Win32,3.334022365,64842455e8ac69503a5c65f0,64d2fd46c836a06233681665,64dc7f37daf0b543d8b5d48c,,,,,,,sngl,resources/DG.BMP,resources/Empty.png,WildCard_Ex,-0.264119601,0.021594684,1,0,0,1.1558,optionLeft,95,9675,5,18,0,18,0,1,,,,,,,,,,,,,,,,,,,,,,,,,,,,,,,,,,,,,,,
,,,,,,,,2023-08-16_08h52.01.027,HF_wild_card,2022.2.4,Win32,3.334022365,64842455e8ac69503a5c65f0,64d2fd46c836a06233681665,64dc7f37daf0b543d8b5d48c,,,,,,,ctch,resources/DBN.BMP,resources/DY.BMP,Door3,-0.289036545,0.016611296,1,0,0,1.2591,optionLeft,70,9745,5,19,0,19,0,1,,,,,,,,,,,,,,,,,,,,,,,,,,,,,,,,,,,,,,,
,,,,,,,,2023-08-16_08h52.01.027,HF_wild_card,2022.2.4,Win32,3.334022365,64842455e8ac69503a5c65f0,64d2fd46c836a06233681665,64dc7f37daf0b543d8b5d48c,,,,,,,sngl,resources/Empty.png,resources/DY.BMP,Door2,0.393687708,-0.068106312,1,0,0,1.1506,optionRight,20,9765,5,20,0,20,0,1,,,,,,,,,,,,,,,,,,,,,,,,,,,,,,,,,,,,,,,
,,,,,,,,2023-08-16_08h52.01.027,HF_wild_card,2022.2.4,Win32,3.334022365,64842455e8ac69503a5c65f0,64d2fd46c836a06233681665,64dc7f37daf0b543d8b5d48c,,,,,,,decisionTrl,resources/DY.BMP,resources/DP.BMP,Door1,0.370431894,-0.079734219,1,0,0,2.5871,optionRight,30,9795,5,21,0,21,0,1,,,,,,,,,,,,,,,,,,,,,,,,,,,,,,,,,,,,,,,
,,,,,,,,2023-08-16_08h52.01.027,HF_wild_card,2022.2.4,Win32,3.334022365,64842455e8ac69503a5c65f0,64d2fd46c836a06233681665,64dc7f37daf0b543d8b5d48c,,,,,,,decisionTrl,resources/DG.BMP,resources/DBN.BMP,Door3,0.367109635,-0.046511628,1,0,0,2.7932,optionRight,70,9865,5,22,0,22,0,1,,,,,,,,,,,,,,,,,,,,,,,,,,,,,,,,,,,,,,,
,,,,,,,,2023-08-16_08h52.01.027,HF_wild_card,2022.2.4,Win32,3.334022365,64842455e8ac69503a5c65f0,64d2fd46c836a06233681665,64dc7f37daf0b543d8b5d48c,,,,,,,ctch,resources/DP.BMP,resources/DR.BMP,Door4,0.367109635,-0.088039867,1,0,0,2.2206,optionRight,80,9945,5,23,0,23,0,1,,,,,,,,,,,,,,,,,,,,,,,,,,,,,,,,,,,,,,,
,,,,,,,,2023-08-16_08h52.01.027,HF_wild_card,2022.2.4,Win32,3.334022365,64842455e8ac69503a5c65f0,64d2fd46c836a06233681665,64dc7f37daf0b543d8b5d48c,,,,,,,sngl,resources/Empty.png,resources/DP.BMP,Door1,0.375415282,-0.073089701,1,0,0,1.1597,optionRight,30,9975,5,24,0,24,0,1,,,,,,,,,,,,,,,,,,,,,,,,,,,,,,,,,,,,,,,
,,,,,,,,2023-08-16_08h52.01.027,HF_wild_card,2022.2.4,Win32,3.334022365,64842455e8ac69503a5c65f0,64d2fd46c836a06233681665,64dc7f37daf0b543d8b5d48c,,,,,,,ctch,resources/DR.BMP,resources/DP.BMP,Door4,-0.3089701,-0.009966777,1,0,0,1.9383,optionLeft,80,10055,5,25,0,25,0,1,,,,,,,,,,,,,,,,,,,,,,,,,,,,,,,,,,,,,,,
,,,,,,,,2023-08-16_08h52.01.027,HF_wild_card,2022.2.4,Win32,3.334022365,64842455e8ac69503a5c65f0,64d2fd46c836a06233681665,64dc7f37daf0b543d8b5d48c,,,,,,,decisionTrl,resources/DP.BMP,resources/DY.BMP,Door1,-0.310631229,0.00166113,1,0,0,3.4997,optionLeft,30,10085,5,26,0,26,0,1,,,,,,,,,,,,,,,,,,,,,,,,,,,,,,,,,,,,,,,
,,,,,,,,2023-08-16_08h52.01.027,HF_wild_card,2022.2.4,Win32,3.334022365,64842455e8ac69503a5c65f0,64d2fd46c836a06233681665,64dc7f37daf0b543d8b5d48c,,,,,,,ctch,resources/DP.BMP,resources/DR.BMP,Door4,0.353820598,-0.068106312,1,0,0,1.2894,optionRight,80,10165,5,27,0,27,0,1,,,,,,,,,,,,,,,,,,,,,,,,,,,,,,,,,,,,,,,
,,,,,,,,2023-08-16_08h52.01.027,HF_wild_card,2022.2.4,Win32,3.334022365,64842455e8ac69503a5c65f0,64d2fd46c836a06233681665,64dc7f37daf0b543d8b5d48c,,,,,,,decisionTrl,resources/DBN.BMP,resources/DR.BMP,Door3,-0.358803987,0.03986711,1,0,0,2.9137,optionLeft,70,10235,5,28,0,28,0,1,,,,,,,,,,,,,,,,,,,,,,,,,,,,,,,,,,,,,,,
,,,,,,,,2023-08-16_08h52.01.027,HF_wild_card,2022.2.4,Win32,3.334022365,64842455e8ac69503a5c65f0,64d2fd46c836a06233681665,64dc7f37daf0b543d8b5d48c,,,,,,,decisionTrl,resources/DP.BMP,resources/DY.BMP,Door1,-0.310631229,0.013289037,1,0,0,1.9785,optionLeft,30,10265,5,29,0,29,0,1,,,,,,,,,,,,,,,,,,,,,,,,,,,,,,,,,,,,,,,
,,,,,,,,2023-08-16_08h52.01.027,HF_wild_card,2022.2.4,Win32,3.334022365,64842455e8ac69503a5c65f0,64d2fd46c836a06233681665,64dc7f37daf0b543d8b5d48c,,,,,,,sngl,resources/DY.BMP,resources/Empty.png,Door2,-0.305647841,0.018272425,1,0,0,1.159,optionLeft,40,10305,5,30,0,30,0,1,,,,,,,,,,,,,,,,,,,,,,,,,,,,,,,,,,,,,,,
,,,,,,,,2023-08-16_08h52.01.027,HF_wild_card,2022.2.4,Win32,3.334022365,64842455e8ac69503a5c65f0,64d2fd46c836a06233681665,64dc7f37daf0b543d8b5d48c,,,,,,,sngl,resources/DP.BMP,resources/Empty.png,Door1,-0.295681063,0.009966777,1,0,0,1.1707,optionLeft,30,10335,5,31,0,31,0,1,,,,,,,,,,,,,,,,,,,,,,,,,,,,,,,,,,,,,,,
,,,,,,,,2023-08-16_08h52.01.027,HF_wild_card,2022.2.4,Win32,3.334022365,64842455e8ac69503a5c65f0,64d2fd46c836a06233681665,64dc7f37daf0b543d8b5d48c,,,,,,,decisionTrl,resources/DG.BMP,resources/DR.BMP,Door4,0.342192691,-0.086378738,1,0,0,5.0475,optionRight,60,10395,5,32,0,32,0,1,,,,,,,,,,,,,,,,,,,,,,,,,,,,,,,,,,,,,,,
,,,,,,,,2023-08-16_08h52.01.027,HF_wild_card,2022.2.4,Win32,3.334022365,64842455e8ac69503a5c65f0,64d2fd46c836a06233681665,64dc7f37daf0b543d8b5d48c,,,,,,,decisionTrl,resources/DR.BMP,resources/DBN.BMP,Door3,0.368770764,-0.034883721,1,0,0,1.2805,optionRight,70,10465,5,33,0,33,0,1,,,,,,,,,,,,,,,,,,,,,,,,,,,,,,,,,,,,,,,
,,,,,,,,2023-08-16_08h52.01.027,HF_wild_card,2022.2.4,Win32,3.334022365,64842455e8ac69503a5c65f0,64d2fd46c836a06233681665,64dc7f37daf0b543d8b5d48c,,,,,,,decisionTrl,resources/DR.BMP,resources/DBN.BMP,Door3,0.272425249,-0.044850498,1,0,0,2.2769,optionRight,70,10535,5,34,0,34,0,1,,,,,,,,,,,,,,,,,,,,,,,,,,,,,,,,,,,,,,,
,,,,,,,,2023-08-16_08h52.01.027,HF_wild_card,2022.2.4,Win32,3.334022365,64842455e8ac69503a5c65f0,64d2fd46c836a06233681665,64dc7f37daf0b543d8b5d48c,,,,,,,decisionTrl,resources/DP.BMP,resources/DY.BMP,Door1,-0.350498339,0.006644518,1,0,0,2.5429,optionLeft,30,10565,5,35,0,35,0,1,,,,,,,,,,,,,,,,,,,,,,,,,,,,,,,,,,,,,,,
,,,,,,,,2023-08-16_08h52.01.027,HF_wild_card,2022.2.4,Win32,3.334022365,64842455e8ac69503a5c65f0,64d2fd46c836a06233681665,64dc7f37daf0b543d8b5d48c,,,,,,,decisionTrl,resources/DG.BMP,resources/DY.BMP,WildCard_Ex,-0.290697674,0.006644518,1,0,0,1.6145,optionLeft,95,10660,5,36,0,36,0,1,,,,,,,,,,,,,,,,,,,,,,,,,,,,,,,,,,,,,,,
,,,,,,,,2023-08-16_08h52.01.027,HF_wild_card,2022.2.4,Win32,3.334022365,64842455e8ac69503a5c65f0,64d2fd46c836a06233681665,64dc7f37daf0b543d8b5d48c,,,,,,,ctch,resources/DY.BMP,resources/DBN.BMP,Door3,0.289036545,-0.03654485,1,0,0,1.247,optionRight,70,10730,5,37,0,37,0,1,,,,,,,,,,,,,,,,,,,,,,,,,,,,,,,,,,,,,,,
,,,,,,,,2023-08-16_08h52.01.027,HF_wild_card,2022.2.4,Win32,3.334022365,64842455e8ac69503a5c65f0,64d2fd46c836a06233681665,64dc7f37daf0b543d8b5d48c,,,,,,,decisionTrl,resources/DP.BMP,resources/DY.BMP,Door1,-0.328903654,-0.018272425,1,0,0,4.1726,optionLeft,30,10760,5,38,0,38,0,1,,,,,,,,,,,,,,,,,,,,,,,,,,,,,,,,,,,,,,,
,,,,,,,,2023-08-16_08h52.01.027,HF_wild_card,2022.2.4,Win32,3.334022365,64842455e8ac69503a5c65f0,64d2fd46c836a06233681665,64dc7f37daf0b543d8b5d48c,,,,,,,decisionTrl,resources/DY.BMP,resources/DG.BMP,WildCard_Ex,0.408637874,-0.086378738,1,0,0,1.2901,optionRight,95,10855,5,39,0,39,0,1,,,,,,,,,,,,,,,,,,,,,,,,,,,,,,,,,,,,,,,
,,,,,,,,2023-08-16_08h52.01.027,HF_wild_card,2022.2.4,Win32,3.334022365,64842455e8ac69503a5c65f0,64d2fd46c836a06233681665,64dc7f37daf0b543d8b5d48c,,,,,,,decisionTrl,resources/DBN.BMP,resources/DR.BMP,Door3,-0.300664452,-0.028239203,1,0,0,3.4578,optionLeft,70,10925,5,40,0,40,0,1,,,,,,,,,,,,,,,,,,,,,,,,,,,,,,,,,,,,,,,
,,,,,,,,2023-08-16_08h52.01.027,HF_wild_card,2022.2.4,Win32,3.334022365,64842455e8ac69503a5c65f0,64d2fd46c836a06233681665,64dc7f37daf0b543d8b5d48c,,,,,,,decisionTrl,resources/DBN.BMP,resources/DR.BMP,Door4,0.363787375,-0.073089701,1,0,0,1.5748,optionRight,80,11005,5,41,0,41,0,1,,,,,,,,,,,,,,,,,,,,,,,,,,,,,,,,,,,,,,,
,,,,,,,,2023-08-16_08h52.01.027,HF_wild_card,2022.2.4,Win32,3.334022365,64842455e8ac69503a5c65f0,64d2fd46c836a06233681665,64dc7f37daf0b543d8b5d48c,,,,,,,decisionTrl,resources/DP.BMP,resources/DG.BMP,WildCard_Ex,0.317275748,-0.041528239,1,0,0,1.5633,optionRight,5,11010,5,42,0,42,0,1,,,,,,,,,,,,,,,,,,,,,,,,,,,,,,,,,,,,,,,
,,,,,,,,2023-08-16_08h52.01.027,HF_wild_card,2022.2.4,Win32,3.334022365,64842455e8ac69503a5c65f0,64d2fd46c836a06233681665,64dc7f37daf0b543d8b5d48c,,,,,,,decisionTrl,resources/DR.BMP,resources/DG.BMP,Door4,-0.328903654,-0.008305648,1,0,0,1.2502,optionLeft,60,11070,5,43,0,43,0,1,,,,,,,,,,,,,,,,,,,,,,,,,,,,,,,,,,,,,,,
,,,,,,,,2023-08-16_08h52.01.027,HF_wild_card,2022.2.4,Win32,3.334022365,64842455e8ac69503a5c65f0,64d2fd46c836a06233681665,64dc7f37daf0b543d8b5d48c,,,,,,,,,,,,,,,,,,,,,,,,,,4,0,4,0,1,,,,,,,,,,,,,,,,,,,,,,,,,,,,,,,,,,
,,,,,,,,2023-08-16_08h52.01.027,HF_wild_card,2022.2.4,Win32,3.334022365,64842455e8ac69503a5c65f0,64d2fd46c836a06233681665,64dc7f37daf0b543d8b5d48c,,,,,,,sngl,resources/DR.BMP,resources/Empty.png,Door4,-0.323920266,-0.079734219,1,0,0,10.9731,optionLeft,60,11130,6,0,0,0,0,1,,,,,,,,,,,,,,,,,,,,,,,,,,,,,,,,,,,,,,,
,,,,,,,,2023-08-16_08h52.01.027,HF_wild_card,2022.2.4,Win32,3.334022365,64842455e8ac69503a5c65f0,64d2fd46c836a06233681665,64dc7f37daf0b543d8b5d48c,,,,,,,sngl,resources/Empty.png,resources/DY.BMP,Door2,0.370431894,-0.031561462,1,0,0,1.1394,optionRight,40,11170,6,1,0,1,0,1,,,,,,,,,,,,,,,,,,,,,,,,,,,,,,,,,,,,,,,
,,,,,,,,2023-08-16_08h52.01.027,HF_wild_card,2022.2.4,Win32,3.334022365,64842455e8ac69503a5c65f0,64d2fd46c836a06233681665,64dc7f37daf0b543d8b5d48c,,,,,,,decisionTrl,resources/DG.BMP,resources/DP.BMP,WildCard_Ex,-0.284053156,-0.019933555,1,0,0,1.5609,optionLeft,95,11265,6,2,0,2,0,1,,,,,,,,,,,,,,,,,,,,,,,,,,,,,,,,,,,,,,,
,,,,,,,,2023-08-16_08h52.01.027,HF_wild_card,2022.2.4,Win32,3.334022365,64842455e8ac69503a5c65f0,64d2fd46c836a06233681665,64dc7f37daf0b543d8b5d48c,,,,,,,ctch,resources/DR.BMP,resources/DP.BMP,Door4,-0.317275748,-0.016611296,1,0,0,1.2944,optionLeft,60,11325,6,3,0,3,0,1,,,,,,,,,,,,,,,,,,,,,,,,,,,,,,,,,,,,,,,
,,,,,,,,2023-08-16_08h52.01.027,HF_wild_card,2022.2.4,Win32,3.334022365,64842455e8ac69503a5c65f0,64d2fd46c836a06233681665,64dc7f37daf0b543d8b5d48c,,,,,,,decisionTrl,resources/DY.BMP,resources/DP.BMP,Door2,-0.325581395,-0.004983389,1,0,0,1.899,optionLeft,20,11345,6,4,0,4,0,1,,,,,,,,,,,,,,,,,,,,,,,,,,,,,,,,,,,,,,,
,,,,,,,,2023-08-16_08h52.01.027,HF_wild_card,2022.2.4,Win32,3.334022365,64842455e8ac69503a5c65f0,64d2fd46c836a06233681665,64dc7f37daf0b543d8b5d48c,,,,,,,sngl,resources/DP.BMP,resources/Empty.png,Door1,-0.328903654,-0.016611296,1,0,0,1.1492,optionLeft,30,11375,6,5,0,5,0,1,,,,,,,,,,,,,,,,,,,,,,,,,,,,,,,,,,,,,,,
,,,,,,,,2023-08-16_08h52.01.027,HF_wild_card,2022.2.4,Win32,3.334022365,64842455e8ac69503a5c65f0,64d2fd46c836a06233681665,64dc7f37daf0b543d8b5d48c,,,,,,,ctch,resources/DBN.BMP,resources/DY.BMP,Door3,-0.327242525,-0.041528239,1,0,0,2.8504,optionLeft,70,11445,6,6,0,6,0,1,,,,,,,,,,,,,,,,,,,,,,,,,,,,,,,,,,,,,,,
,,,,,,,,2023-08-16_08h52.01.027,HF_wild_card,2022.2.4,Win32,3.334022365,64842455e8ac69503a5c65f0,64d2fd46c836a06233681665,64dc7f37daf0b543d8b5d48c,,,,,,,sngl,resources/Empty.png,resources/DG.BMP,WildCard_Ex,0.416943522,-0.071428571,1,0,0,1.1422,optionRight,5,11450,6,7,0,7,0,1,,,,,,,,,,,,,,,,,,,,,,,,,,,,,,,,,,,,,,,
,,,,,,,,2023-08-16_08h52.01.027,HF_wild_card,2022.2.4,Win32,3.334022365,64842455e8ac69503a5c65f0,64d2fd46c836a06233681665,64dc7f37daf0b543d8b5d48c,,,,,,,decisionTrl,resources/DP.BMP,resources/DY.BMP,Door1,-0.357142857,0.004983389,1,0,0,1.3343,optionLeft,30,11480,6,8,0,8,0,1,,,,,,,,,,,,,,,,,,,,,,,,,,,,,,,,,,,,,,,
,,,,,,,,2023-08-16_08h52.01.027,HF_wild_card,2022.2.4,Win32,3.334022365,64842455e8ac69503a5c65f0,64d2fd46c836a06233681665,64dc7f37daf0b543d8b5d48c,,,,,,,decisionTrl,resources/DY.BMP,resources/DG.BMP,WildCard_Ex,0.42358804,-0.094684385,1,0,0,2.2271,optionRight,5,11485,6,9,0,9,0,1,,,,,,,,,,,,,,,,,,,,,,,,,,,,,,,,,,,,,,,
,,,,,,,,2023-08-16_08h52.01.027,HF_wild_card,2022.2.4,Win32,3.334022365,64842455e8ac69503a5c65f0,64d2fd46c836a06233681665,64dc7f37daf0b543d8b5d48c,,,,,,,sngl,resources/DG.BMP,resources/Empty.png,WildCard_Ex,-0.262458472,0.003322259,1,0,0,2.7038,optionLeft,95,11580,6,10,0,10,0,1,,,,,,,,,,,,,,,,,,,,,,,,,,,,,,,,,,,,,,,
,,,,,,,,2023-08-16_08h52.01.027,HF_wild_card,2022.2.4,Win32,3.334022365,64842455e8ac69503a5c65f0,64d2fd46c836a06233681665,64dc7f37daf0b543d8b5d48c,,,,,,,sngl,resources/Empty.png,resources/DR.BMP,Door4,0.315614618,-0.061461794,1,0,0,1.1729,optionRight,80,11660,6,11,0,11,0,1,,,,,,,,,,,,,,,,,,,,,,,,,,,,,,,,,,,,,,,
,,,,,,,,2023-08-16_08h52.01.027,HF_wild_card,2022.2.4,Win32,3.334022365,64842455e8ac69503a5c65f0,64d2fd46c836a06233681665,64dc7f37daf0b543d8b5d48c,,,,,,,decisionTrl,resources/DR.BMP,resources/DG.BMP,Door4,-0.295681063,-0.03654485,1,0,0,1.5778,optionLeft,80,11740,6,12,0,12,0,1,,,,,,,,,,,,,,,,,,,,,,,,,,,,,,,,,,,,,,,
,,,,,,,,2023-08-16_08h52.01.027,HF_wild_card,2022.2.4,Win32,3.334022365,64842455e8ac69503a5c65f0,64d2fd46c836a06233681665,64dc7f37daf0b543d8b5d48c,,,,,,,decisionTrl,resources/DP.BMP,resources/DG.BMP,WildCard_Ex,0.372093023,-0.064784053,1,0,0,1.2769,optionRight,5,11745,6,13,0,13,0,1,,,,,,,,,,,,,,,,,,,,,,,,,,,,,,,,,,,,,,,
,,,,,,,,2023-08-16_08h52.01.027,HF_wild_card,2022.2.4,Win32,3.334022365,64842455e8ac69503a5c65f0,64d2fd46c836a06233681665,64dc7f37daf0b543d8b5d48c,,,,,,,ctch,resources/DY.BMP,resources/DBN.BMP,Door3,0.305647841,-0.03654485,1,0,0,1.2619,optionRight,70,11815,6,14,0,14,0,1,,,,,,,,,,,,,,,,,,,,,,,,,,,,,,,,,,,,,,,
,,,,,,,,2023-08-16_08h52.01.027,HF_wild_card,2022.2.4,Win32,3.334022365,64842455e8ac69503a5c65f0,64d2fd46c836a06233681665,64dc7f37daf0b543d8b5d48c,,,,,,,decisionTrl,resources/DBN.BMP,resources/DG.BMP,Door3,-0.300664452,-0.009966777,1,0,0,2.2811,optionLeft,70,11885,6,15,0,15,0,1,,,,,,,,,,,,,,,,,,,,,,,,,,,,,,,,,,,,,,,
,,,,,,,,2023-08-16_08h52.01.027,HF_wild_card,2022.2.4,Win32,3.334022365,64842455e8ac69503a5c65f0,64d2fd46c836a06233681665,64dc7f37daf0b543d8b5d48c,,,,,,,sngl,resources/Empty.png,resources/DP.BMP,Door1,0.335548173,-0.051495017,1,0,0,1.1513,optionRight,30,11915,6,16,0,16,0,1,,,,,,,,,,,,,,,,,,,,,,,,,,,,,,,,,,,,,,,
,,,,,,,,2023-08-16_08h52.01.027,HF_wild_card,2022.2.4,Win32,3.334022365,64842455e8ac69503a5c65f0,64d2fd46c836a06233681665,64dc7f37daf0b543d8b5d48c,,,,,,,decisionTrl,resources/DBN.BMP,resources/DR.BMP,Door3,-0.303986711,0.014950166,1,0,0,1.8634,optionLeft,70,11985,6,17,0,17,0,1,,,,,,,,,,,,,,,,,,,,,,,,,,,,,,,,,,,,,,,
,,,,,,,,2023-08-16_08h52.01.027,HF_wild_card,2022.2.4,Win32,3.334022365,64842455e8ac69503a5c65f0,64d2fd46c836a06233681665,64dc7f37daf0b543d8b5d48c,,,,,,,ctch,resources/DBN.BMP,resources/DY.BMP,Door3,-0.3089701,0.014950166,1,0,0,1.2797,optionLeft,70,12055,6,18,0,18,0,1,,,,,,,,,,,,,,,,,,,,,,,,,,,,,,,,,,,,,,,
,,,,,,,,2023-08-16_08h52.01.027,HF_wild_card,2022.2.4,Win32,3.334022365,64842455e8ac69503a5c65f0,64d2fd46c836a06233681665,64dc7f37daf0b543d8b5d48c,,,,,,,decisionTrl,resources/DG.BMP,resources/DBN.BMP,Door3,-0.00166113,0,1,0,0,0.6156,optionRight,70,12125,6,19,0,19,0,1,,,,,,,,,,,,,,,,,,,,,,,,,,,,,,,,,,,,,,,
,,,,,,,,2023-08-16_08h52.01.027,HF_wild_card,2022.2.4,Win32,3.334022365,64842455e8ac69503a5c65f0,64d2fd46c836a06233681665,64dc7f37daf0b543d8b5d48c,,,,,,,decisionTrl,resources/DBN.BMP,resources/DR.BMP,Door4,0.318936877,-0.006644518,1,0,0,4.5796,optionRight,60,12185,6,20,0,20,0,1,,,,,,,,,,,,,,,,,,,,,,,,,,,,,,,,,,,,,,,
,,,,,,,,2023-08-16_08h52.01.027,HF_wild_card,2022.2.4,Win32,3.334022365,64842455e8ac69503a5c65f0,64d2fd46c836a06233681665,64dc7f37daf0b543d8b5d48c,,,,,,,decisionTrl,resources/DP.BMP,resources/DY.BMP,Door1,-0.337209302,-0.03986711,1,0,0,4.9641,optionLeft,30,12215,6,21,0,21,0,1,,,,,,,,,,,,,,,,,,,,,,,,,,,,,,,,,,,,,,,
,,,,,,,,2023-08-16_08h52.01.027,HF_wild_card,2022.2.4,Win32,3.334022365,64842455e8ac69503a5c65f0,64d2fd46c836a06233681665,64dc7f37daf0b543d8b5d48c,,,,,,,sngl,resources/Empty.png,resources/DG.BMP,WildCard_Ex,0.398671096,-0.069767442,1,0,0,1.2506,optionRight,95,12310,6,22,0,22,0,1,,,,,,,,,,,,,,,,,,,,,,,,,,,,,,,,,,,,,,,
,,,,,,,,2023-08-16_08h52.01.027,HF_wild_card,2022.2.4,Win32,3.334022365,64842455e8ac69503a5c65f0,64d2fd46c836a06233681665,64dc7f37daf0b543d8b5d48c,,,,,,,sngl,resources/DG.BMP,resources/Empty.png,WildCard_Ex,-0.006644518,-0.00166113,1,0,0,0.6131,optionLeft,5,12315,6,23,0,23,0,1,,,,,,,,,,,,,,,,,,,,,,,,,,,,,,,,,,,,,,,
,,,,,,,,2023-08-16_08h52.01.027,HF_wild_card,2022.2.4,Win32,3.334022365,64842455e8ac69503a5c65f0,64d2fd46c836a06233681665,64dc7f37daf0b543d8b5d48c,,,,,,,decisionTrl,resources/DP.BMP,resources/DY.BMP,Door1,0.003322259,0.006644518,1,0,0,0.6699,optionLeft,30,12345,6,24,0,24,0,1,,,,,,,,,,,,,,,,,,,,,,,,,,,,,,,,,,,,,,,
,,,,,,,,2023-08-16_08h52.01.027,HF_wild_card,2022.2.4,Win32,3.334022365,64842455e8ac69503a5c65f0,64d2fd46c836a06233681665,64dc7f37daf0b543d8b5d48c,,,,,,,ctch,resources/DR.BMP,resources/DP.BMP,Door4,-0.320598007,-0.041528239,1,0,0,1.2919,optionLeft,60,12405,6,25,0,25,0,1,,,,,,,,,,,,,,,,,,,,,,,,,,,,,,,,,,,,,,,
,,,,,,,,2023-08-16_08h52.01.027,HF_wild_card,2022.2.4,Win32,3.334022365,64842455e8ac69503a5c65f0,64d2fd46c836a06233681665,64dc7f37daf0b543d8b5d48c,,,,,,,decisionTrl,resources/DR.BMP,resources/DBN.BMP,Door3,0.274086379,-0.053156146,1,0,0,1.2556,optionRight,70,12475,6,26,0,26,0,1,,,,,,,,,,,,,,,,,,,,,,,,,,,,,,,,,,,,,,,
,,,,,,,,2023-08-16_08h52.01.027,HF_wild_card,2022.2.4,Win32,3.334022365,64842455e8ac69503a5c65f0,64d2fd46c836a06233681665,64dc7f37daf0b543d8b5d48c,,,,,,,decisionTrl,resources/DG.BMP,resources/DY.BMP,WildCard_Ex,-0.294019934,-0.029900332,1,0,0,1.3805,optionLeft,5,12480,6,27,0,27,0,1,,,,,,,,,,,,,,,,,,,,,,,,,,,,,,,,,,,,,,,
,,,,,,,,2023-08-16_08h52.01.027,HF_wild_card,2022.2.4,Win32,3.334022365,64842455e8ac69503a5c65f0,64d2fd46c836a06233681665,64dc7f37daf0b543d8b5d48c,,,,,,,decisionTrl,resources/DR.BMP,resources/DBN.BMP,Door3,0.26910299,-0.028239203,1,0,0,1.3127,optionRight,70,12550,6,28,0,28,0,1,,,,,,,,,,,,,,,,,,,,,,,,,,,,,,,,,,,,,,,
,,,,,,,,2023-08-16_08h52.01.027,HF_wild_card,2022.2.4,Win32,3.334022365,64842455e8ac69503a5c65f0,64d2fd46c836a06233681665,64dc7f37daf0b543d8b5d48c,,,,,,,sngl,resources/Empty.png,resources/DBN.BMP,Door3,-0.003322259,0.016611296,1,0,0,0.6229,optionRight,70,12620,6,29,0,29,0,1,,,,,,,,,,,,,,,,,,,,,,,,,,,,,,,,,,,,,,,
,,,,,,,,2023-08-16_08h52.01.027,HF_wild_card,2022.2.4,Win32,3.334022365,64842455e8ac69503a5c65f0,64d2fd46c836a06233681665,64dc7f37daf0b543d8b5d48c,,,,,,,ctch,resources/DY.BMP,resources/DBN.BMP,Door3,0.299003322,-0.014950166,1,0,0,1.4489,optionRight,70,12690,6,30,0,30,0,1,,,,,,,,,,,,,,,,,,,,,,,,,,,,,,,,,,,,,,,
,,,,,,,,2023-08-16_08h52.01.027,HF_wild_card,2022.2.4,Win32,3.334022365,64842455e8ac69503a5c65f0,64d2fd46c836a06233681665,64dc7f37daf0b543d8b5d48c,,,,,,,decisionTrl,resources/DY.BMP,resources/DP.BMP,Door1,0.355481728,-0.044850498,1,0,0,1.2972,optionRight,30,12720,6,31,0,31,0,1,,,,,,,,,,,,,,,,,,,,,,,,,,,,,,,,,,,,,,,
,,,,,,,,2023-08-16_08h52.01.027,HF_wild_card,2022.2.4,Win32,3.334022365,64842455e8ac69503a5c65f0,64d2fd46c836a06233681665,64dc7f37daf0b543d8b5d48c,,,,,,,sngl,resources/DY.BMP,resources/Empty.png,Door2,-0.310631229,-0.014950166,1,0,0,1.2066,optionLeft,20,12740,6,32,0,32,0,1,,,,,,,,,,,,,,,,,,,,,,,,,,,,,,,,,,,,,,,
,,,,,,,,2023-08-16_08h52.01.027,HF_wild_card,2022.2.4,Win32,3.334022365,64842455e8ac69503a5c65f0,64d2fd46c836a06233681665,64dc7f37daf0b543d8b5d48c,,,,,,,decisionTrl,resources/DBN.BMP,resources/DR.BMP,Door3,-0.280730897,0.008305648,1,0,0,1.3244,optionLeft,70,12810,6,33,0,33,0,1,,,,,,,,,,,,,,,,,,,,,,,,,,,,,,,,,,,,,,,
,,,,,,,,2023-08-16_08h52.01.027,HF_wild_card,2022.2.4,Win32,3.334022365,64842455e8ac69503a5c65f0,64d2fd46c836a06233681665,64dc7f37daf0b543d8b5d48c,,,,,,,sngl,resources/DBN.BMP,resources/Empty.png,Door3,-0.294019934,0.041528239,1,0,0,1.1519,optionLeft,70,12880,6,34,0,34,0,1,,,,,,,,,,,,,,,,,,,,,,,,,,,,,,,,,,,,,,,
,,,,,,,,2023-08-16_08h52.01.027,HF_wild_card,2022.2.4,Win32,3.334022365,64842455e8ac69503a5c65f0,64d2fd46c836a06233681665,64dc7f37daf0b543d8b5d48c,,,,,,,ctch,resources/DP.BMP,resources/DR.BMP,Door4,0.312292359,-0.064784053,1,0,0,1.9671,optionRight,80,12960,6,35,0,35,0,1,,,,,,,,,,,,,,,,,,,,,,,,,,,,,,,,,,,,,,,
,,,,,,,,2023-08-16_08h52.01.027,HF_wild_card,2022.2.4,Win32,3.334022365,64842455e8ac69503a5c65f0,64d2fd46c836a06233681665,64dc7f37daf0b543d8b5d48c,,,,,,,ctch,resources/DP.BMP,resources/DR.BMP,Door4,0.275747508,-0.054817276,1,0,0,1.3396,optionRight,80,13040,6,36,0,36,0,1,,,,,,,,,,,,,,,,,,,,,,,,,,,,,,,,,,,,,,,
,,,,,,,,2023-08-16_08h52.01.027,HF_wild_card,2022.2.4,Win32,3.334022365,64842455e8ac69503a5c65f0,64d2fd46c836a06233681665,64dc7f37daf0b543d8b5d48c,,,,,,,decisionTrl,resources/DG.BMP,resources/DR.BMP,Door4,0.360465116,-0.054817276,1,0,0,2.0528,optionRight,80,13120,6,37,0,37,0,1,,,,,,,,,,,,,,,,,,,,,,,,,,,,,,,,,,,,,,,
,,,,,,,,2023-08-16_08h52.01.027,HF_wild_card,2022.2.4,Win32,3.334022365,64842455e8ac69503a5c65f0,64d2fd46c836a06233681665,64dc7f37daf0b543d8b5d48c,,,,,,,decisionTrl,resources/DR.BMP,resources/DBN.BMP,Door4,-0.380398671,0.013289037,1,0,0,2.7999,optionLeft,80,13200,6,38,0,38,0,1,,,,,,,,,,,,,,,,,,,,,,,,,,,,,,,,,,,,,,,
,,,,,,,,2023-08-16_08h52.01.027,HF_wild_card,2022.2.4,Win32,3.334022365,64842455e8ac69503a5c65f0,64d2fd46c836a06233681665,64dc7f37daf0b543d8b5d48c,,,,,,,decisionTrl,resources/DY.BMP,resources/DP.BMP,Door1,0.34717608,-0.056478405,1,0,0,4.8335,optionRight,30,13230,6,39,0,39,0,1,,,,,,,,,,,,,,,,,,,,,,,,,,,,,,,,,,,,,,,
,,,,,,,,2023-08-16_08h52.01.027,HF_wild_card,2022.2.4,Win32,3.334022365,64842455e8ac69503a5c65f0,64d2fd46c836a06233681665,64dc7f37daf0b543d8b5d48c,,,,,,,decisionTrl,resources/DY.BMP,resources/DP.BMP,Door1,0.388704319,-0.084717608,1,0,0,3.6173,optionRight,30,13260,6,40,0,40,0,1,,,,,,,,,,,,,,,,,,,,,,,,,,,,,,,,,,,,,,,
,,,,,,,,2023-08-16_08h52.01.027,HF_wild_card,2022.2.4,Win32,3.334022365,64842455e8ac69503a5c65f0,64d2fd46c836a06233681665,64dc7f37daf0b543d8b5d48c,,,,,,,decisionTrl,resources/DR.BMP,resources/DBN.BMP,Door3,0.305647841,-0.024916944,1,0,0,1.2898,optionRight,70,13330,6,41,0,41,0,1,,,,,,,,,,,,,,,,,,,,,,,,,,,,,,,,,,,,,,,
,,,,,,,,2023-08-16_08h52.01.027,HF_wild_card,2022.2.4,Win32,3.334022365,64842455e8ac69503a5c65f0,64d2fd46c836a06233681665,64dc7f37daf0b543d8b5d48c,,,,,,,decisionTrl,resources/DP.BMP,resources/DY.BMP,Door2,0.320598007,-0.041528239,1,0,0,2.2463,optionRight,40,13370,6,42,0,42,0,1,,,,,,,,,,,,,,,,,,,,,,,,,,,,,,,,,,,,,,,
,,,,,,,,2023-08-16_08h52.01.027,HF_wild_card,2022.2.4,Win32,3.334022365,64842455e8ac69503a5c65f0,64d2fd46c836a06233681665,64dc7f37daf0b543d8b5d48c,,,,,,,decisionTrl,resources/DBN.BMP,resources/DR.BMP,Door4,0.395348837,-0.073089701,1,0,0,1.9959,optionRight,60,13430,6,43,0,43,0,1,,,,,,,,,,,,,,,,,,,,,,,,,,,,,,,,,,,,,,,
,,,,,,,,2023-08-16_08h52.01.027,HF_wild_card,2022.2.4,Win32,3.334022365,64842455e8ac69503a5c65f0,64d2fd46c836a06233681665,64dc7f37daf0b543d8b5d48c,,,,,,,,,,,,,,,,,,,,,,,,,,5,0,5,0,1,,,,,,,,,,,,,,,,,,,,,,,,,,,,,,,,,,
,,,,,,,,2023-08-16_08h52.01.027,HF_wild_card,2022.2.4,Win32,3.334022365,64842455e8ac69503a5c65f0,64d2fd46c836a06233681665,64dc7f37daf0b543d8b5d48c,,,,,,,ctch,resources/DR.BMP,resources/DP.BMP,Door4,-0.34717608,-0.03986711,1,0,0,1.6253,optionLeft,60,13490,7,0,0,0,0,1,,,,,,,,,,,,,,,,,,,,,,,,,,,,,,,,,,,,,,,
,,,,,,,,2023-08-16_08h52.01.027,HF_wild_card,2022.2.4,Win32,3.334022365,64842455e8ac69503a5c65f0,64d2fd46c836a06233681665,64dc7f37daf0b543d8b5d48c,,,,,,,decisionTrl,resources/DP.BMP,resources/DY.BMP,Door2,0.343853821,-0.084717608,1,0,0,3.2536,optionRight,40,13530,7,1,0,1,0,1,,,,,,,,,,,,,,,,,,,,,,,,,,,,,,,,,,,,,,,
,,,,,,,,2023-08-16_08h52.01.027,HF_wild_card,2022.2.4,Win32,3.334022365,64842455e8ac69503a5c65f0,64d2fd46c836a06233681665,64dc7f37daf0b543d8b5d48c,,,,,,,ctch,resources/DP.BMP,resources/DR.BMP,Door4,0.408637874,-0.049833887,1,0,0,1.6548,optionRight,80,13610,7,2,0,2,0,1,,,,,,,,,,,,,,,,,,,,,,,,,,,,,,,,,,,,,,,
,,,,,,,,2023-08-16_08h52.01.027,HF_wild_card,2022.2.4,Win32,3.334022365,64842455e8ac69503a5c65f0,64d2fd46c836a06233681665,64dc7f37daf0b543d8b5d48c,,,,,,,ctch,resources/DP.BMP,resources/DR.BMP,Door4,0.360465116,-0.124584718,1,0,0,6.172,optionRight,60,13670,7,3,0,3,0,1,,,,,,,,,,,,,,,,,,,,,,,,,,,,,,,,,,,,,,,
,,,,,,,,2023-08-16_08h52.01.027,HF_wild_card,2022.2.4,Win32,3.334022365,64842455e8ac69503a5c65f0,64d2fd46c836a06233681665,64dc7f37daf0b543d8b5d48c,,,,,,,decisionTrl,resources/DR.BMP,resources/DBN.BMP,Door4,-0.34717608,-0.019933555,1,0,0,4.3561,optionLeft,60,13730,7,4,0,4,0,1,,,,,,,,,,,,,,,,,,,,,,,,,,,,,,,,,,,,,,,
,,,,,,,,2023-08-16_08h52.01.027,HF_wild_card,2022.2.4,Win32,3.334022365,64842455e8ac69503a5c65f0,64d2fd46c836a06233681665,64dc7f37daf0b543d8b5d48c,,,,,,,decisionTrl,resources/DY.BMP,resources/DP.BMP,Door2,-0.315614618,-0.021594684,1,0,0,2.51,optionLeft,40,13770,7,5,0,5,0,1,,,,,,,,,,,,,,,,,,,,,,,,,,,,,,,,,,,,,,,
,,,,,,,,2023-08-16_08h52.01.027,HF_wild_card,2022.2.4,Win32,3.334022365,64842455e8ac69503a5c65f0,64d2fd46c836a06233681665,64dc7f37daf0b543d8b5d48c,,,,,,,decisionTrl,resources/DBN.BMP,resources/DR.BMP,Door3,-0.320598007,0.013289037,1,0,0,7.0768,optionLeft,70,13840,7,6,0,6,0,1,,,,,,,,,,,,,,,,,,,,,,,,,,,,,,,,,,,,,,,
,,,,,,,,2023-08-16_08h52.01.027,HF_wild_card,2022.2.4,Win32,3.334022365,64842455e8ac69503a5c65f0,64d2fd46c836a06233681665,64dc7f37daf0b543d8b5d48c,,,,,,,decisionTrl,resources/DR.BMP,resources/DBN.BMP,Door3,0.373754153,-0.048172757,1,0,0,3.7187,optionRight,70,13910,7,7,0,7,0,1,,,,,,,,,,,,,,,,,,,,,,,,,,,,,,,,,,,,,,,
,,,,,,,,2023-08-16_08h52.01.027,HF_wild_card,2022.2.4,Win32,3.334022365,64842455e8ac69503a5c65f0,64d2fd46c836a06233681665,64dc7f37daf0b543d8b5d48c,,,,,,,decisionTrl,resources/DBN.BMP,resources/DR.BMP,Door4,0.34717608,-0.099667774,1,0,0,2.6288,optionRight,60,13970,7,8,0,8,0,1,,,,,,,,,,,,,,,,,,,,,,,,,,,,,,,,,,,,,,,
,,,,,,,,2023-08-16_08h52.01.027,HF_wild_card,2022.2.4,Win32,3.334022365,64842455e8ac69503a5c65f0,64d2fd46c836a06233681665,64dc7f37daf0b543d8b5d48c,,,,,,,decisionTrl,resources/DBN.BMP,resources/DR.BMP,Door3,-0.320598007,-0.046511628,1,0,0,3.8614,optionLeft,70,14040,7,9,0,9,0,1,,,,,,,,,,,,,,,,,,,,,,,,,,,,,,,,,,,,,,,
,,,,,,,,2023-08-16_08h52.01.027,HF_wild_card,2022.2.4,Win32,3.334022365,64842455e8ac69503a5c65f0,64d2fd46c836a06233681665,64dc7f37daf0b543d8b5d48c,,,,,,,decisionTrl,resources/DP.BMP,resources/DY.BMP,Door2,0.325581395,-0.046511628,1,0,0,1.5986,optionRight,20,14060,7,10,0,10,0,1,,,,,,,,,,,,,,,,,,,,,,,,,,,,,,,,,,,,,,,
,,,,,,,,2023-08-16_08h52.01.027,HF_wild_card,2022.2.4,Win32,3.334022365,64842455e8ac69503a5c65f0,64d2fd46c836a06233681665,64dc7f37daf0b543d8b5d48c,,,,,,,decisionTrl,resources/DP.BMP,resources/DY.BMP,Door2,0.343853821,-0.054817276,1,0,0,1.2532,optionRight,40,14100,7,11,0,11,0,1,,,,,,,,,,,,,,,,,,,,,,,,,,,,,,,,,,,,,,,
,,,,,,,,2023-08-16_08h52.01.027,HF_wild_card,2022.2.4,Win32,3.334022365,64842455e8ac69503a5c65f0,64d2fd46c836a06233681665,64dc7f37daf0b543d8b5d48c,,,,,,,decisionTrl,resources/DY.BMP,resources/DP.BMP,Door2,-0.323920266,0,1,0,0,1.9642,optionLeft,40,14140,7,12,0,12,0,1,,,,,,,,,,,,,,,,,,,,,,,,,,,,,,,,,,,,,,,
,,,,,,,,2023-08-16_08h52.01.027,HF_wild_card,2022.2.4,Win32,3.334022365,64842455e8ac69503a5c65f0,64d2fd46c836a06233681665,64dc7f37daf0b543d8b5d48c,,,,,,,ctch,resources/DBN.BMP,resources/DY.BMP,Door3,-0.313953488,0.004983389,1,0,0,1.272,optionLeft,70,14210,7,13,0,13,0,1,,,,,,,,,,,,,,,,,,,,,,,,,,,,,,,,,,,,,,,
,,,,,,,,2023-08-16_08h52.01.027,HF_wild_card,2022.2.4,Win32,3.334022365,64842455e8ac69503a5c65f0,64d2fd46c836a06233681665,64dc7f37daf0b543d8b5d48c,,,,,,,decisionTrl,resources/DY.BMP,resources/DP.BMP,Door2,-0.320598007,0.028239203,1,0,0,1.5604,optionLeft,40,14250,7,14,0,14,0,1,,,,,,,,,,,,,,,,,,,,,,,,,,,,,,,,,,,,,,,
,,,,,,,,2023-08-16_08h52.01.027,HF_wild_card,2022.2.4,Win32,3.334022365,64842455e8ac69503a5c65f0,64d2fd46c836a06233681665,64dc7f37daf0b543d8b5d48c,,,,,,,decisionTrl,resources/DR.BMP,resources/DBN.BMP,Door3,0.297342193,0.049833887,1,0,0,2.8977,optionRight,70,14320,7,15,0,15,0,1,,,,,,,,,,,,,,,,,,,,,,,,,,,,,,,,,,,,,,,
,,,,,,,,2023-08-16_08h52.01.027,HF_wild_card,2022.2.4,Win32,3.334022365,64842455e8ac69503a5c65f0,64d2fd46c836a06233681665,64dc7f37daf0b543d8b5d48c,,,,,,,decisionTrl,resources/DY.BMP,resources/DP.BMP,Door2,-0.355481728,0.014950166,1,0,0,1.6369,optionLeft,20,14340,7,16,0,16,0,1,,,,,,,,,,,,,,,,,,,,,,,,,,,,,,,,,,,,,,,
,,,,,,,,2023-08-16_08h52.01.027,HF_wild_card,2022.2.4,Win32,3.334022365,64842455e8ac69503a5c65f0,64d2fd46c836a06233681665,64dc7f37daf0b543d8b5d48c,,,,,,,decisionTrl,resources/DBN.BMP,resources/DR.BMP,Door3,-0.325581395,0.073089701,1,0,0,4.0494,optionLeft,70,14410,7,17,0,17,0,1,,,,,,,,,,,,,,,,,,,,,,,,,,,,,,,,,,,,,,,
,,,,,,,,2023-08-16_08h52.01.027,HF_wild_card,2022.2.4,Win32,3.334022365,64842455e8ac69503a5c65f0,64d2fd46c836a06233681665,64dc7f37daf0b543d8b5d48c,,,,,,,decisionTrl,resources/DBN.BMP,resources/DR.BMP,Door3,-0.335548173,0.093023256,1,0,0,2.5098,optionLeft,70,14480,7,18,0,18,0,1,,,,,,,,,,,,,,,,,,,,,,,,,,,,,,,,,,,,,,,
,,,,,,,,2023-08-16_08h52.01.027,HF_wild_card,2022.2.4,Win32,3.334022365,64842455e8ac69503a5c65f0,64d2fd46c836a06233681665,64dc7f37daf0b543d8b5d48c,,,,,,,ctch,resources/DY.BMP,resources/DBN.BMP,Door3,0.343853821,-0.033222591,1,0,0,1.2217,optionRight,70,14550,7,19,0,19,0,1,,,,,,,,,,,,,,,,,,,,,,,,,,,,,,,,,,,,,,,
,,,,,,,,2023-08-16_08h52.01.027,HF_wild_card,2022.2.4,Win32,3.334022365,64842455e8ac69503a5c65f0,64d2fd46c836a06233681665,64dc7f37daf0b543d8b5d48c,,,,,,,ctch,resources/DBN.BMP,resources/DY.BMP,Door3,-0.348837209,0.089700997,1,0,0,2.3203,optionLeft,70,14620,7,20,0,20,0,1,,,,,,,,,,,,,,,,,,,,,,,,,,,,,,,,,,,,,,,
,,,,,,,,2023-08-16_08h52.01.027,HF_wild_card,2022.2.4,Win32,3.334022365,64842455e8ac69503a5c65f0,64d2fd46c836a06233681665,64dc7f37daf0b543d8b5d48c,,,,,,,decisionTrl,resources/DP.BMP,resources/DY.BMP,Door2,0.335548173,-0.006644518,1,0,0,3.4124,optionRight,20,14640,7,21,0,21,0,1,,,,,,,,,,,,,,,,,,,,,,,,,,,,,,,,,,,,,,,
,,,,,,,,2023-08-16_08h52.01.027,HF_wild_card,2022.2.4,Win32,3.334022365,64842455e8ac69503a5c65f0,64d2fd46c836a06233681665,64dc7f37daf0b543d8b5d48c,,,,,,,ctch,resources/DR.BMP,resources/DP.BMP,Door4,-0.315614618,-0.024916944,1,0,0,2.29,optionLeft,60,14700,7,22,0,22,0,1,,,,,,,,,,,,,,,,,,,,,,,,,,,,,,,,,,,,,,,
,,,,,,,,2023-08-16_08h52.01.027,HF_wild_card,2022.2.4,Win32,3.334022365,64842455e8ac69503a5c65f0,64d2fd46c836a06233681665,64dc7f37daf0b543d8b5d48c,,,,,,,ctch,resources/DR.BMP,resources/DP.BMP,Door4,-0.327242525,0.003322259,1,0,0,1.245,optionLeft,80,14780,7,23,0,23,0,1,,,,,,,,,,,,,,,,,,,,,,,,,,,,,,,,,,,,,,,
,,,,,,,,2023-08-16_08h52.01.027,HF_wild_card,2022.2.4,Win32,3.334022365,64842455e8ac69503a5c65f0,64d2fd46c836a06233681665,64dc7f37daf0b543d8b5d48c,,,,,,,decisionTrl,resources/DR.BMP,resources/DBN.BMP,Door3,0.313953488,-0.016611296,1,0,0,4.8456,optionRight,70,14850,7,24,0,24,0,1,,,,,,,,,,,,,,,,,,,,,,,,,,,,,,,,,,,,,,,
,,,,,,,,2023-08-16_08h52.01.027,HF_wild_card,2022.2.4,Win32,3.334022365,64842455e8ac69503a5c65f0,64d2fd46c836a06233681665,64dc7f37daf0b543d8b5d48c,,,,,,,ctch,resources/DBN.BMP,resources/DY.BMP,Door3,-0.295681063,0.034883721,1,0,0,1.2688,optionLeft,70,14920,7,25,0,25,0,1,,,,,,,,,,,,,,,,,,,,,,,,,,,,,,,,,,,,,,,
,,,,,,,,2023-08-16_08h52.01.027,HF_wild_card,2022.2.4,Win32,3.334022365,64842455e8ac69503a5c65f0,64d2fd46c836a06233681665,64dc7f37daf0b543d8b5d48c,,,,,,,decisionTrl,resources/DBN.BMP,resources/DR.BMP,Door3,-0.302325581,0.043189369,1,0,0,1.6126,optionLeft,70,14990,7,26,0,26,0,1,,,,,,,,,,,,,,,,,,,,,,,,,,,,,,,,,,,,,,,
,,,,,,,,2023-08-16_08h52.01.027,HF_wild_card,2022.2.4,Win32,3.334022365,64842455e8ac69503a5c65f0,64d2fd46c836a06233681665,64dc7f37daf0b543d8b5d48c,,,,,,,ctch,resources/DY.BMP,resources/DBN.BMP,Door3,0.297342193,0.034883721,1,0,0,1.2339,optionRight,70,15060,7,27,0,27,0,1,,,,,,,,,,,,,,,,,,,,,,,,,,,,,,,,,,,,,,,
,,,,,,,,2023-08-16_08h52.01.027,HF_wild_card,2022.2.4,Win32,3.334022365,64842455e8ac69503a5c65f0,64d2fd46c836a06233681665,64dc7f37daf0b543d8b5d48c,,,,,,,decisionTrl,resources/DP.BMP,resources/DY.BMP,Door2,0.352159468,0,1,0,0,4.6744,optionRight,20,15080,7,28,0,28,0,1,,,,,,,,,,,,,,,,,,,,,,,,,,,,,,,,,,,,,,,
,,,,,,,,2023-08-16_08h52.01.027,HF_wild_card,2022.2.4,Win32,3.334022365,64842455e8ac69503a5c65f0,64d2fd46c836a06233681665,64dc7f37daf0b543d8b5d48c,,,,,,,decisionTrl,resources/DY.BMP,resources/DP.BMP,Door2,-0.34551495,-0.018272425,1,0,0,2.207,optionLeft,40,15120,7,29,0,29,0,1,,,,,,,,,,,,,,,,,,,,,,,,,,,,,,,,,,,,,,,
,,,,,,,,2023-08-16_08h52.01.027,HF_wild_card,2022.2.4,Win32,3.334022365,64842455e8ac69503a5c65f0,64d2fd46c836a06233681665,64dc7f37daf0b543d8b5d48c,,,,,,,ctch,resources/DP.BMP,resources/DR.BMP,Door4,0.337209302,0.00166113,1,0,0,1.3242,optionRight,60,15180,7,30,0,30,0,1,,,,,,,,,,,,,,,,,,,,,,,,,,,,,,,,,,,,,,,
,,,,,,,,2023-08-16_08h52.01.027,HF_wild_card,2022.2.4,Win32,3.334022365,64842455e8ac69503a5c65f0,64d2fd46c836a06233681665,64dc7f37daf0b543d8b5d48c,,,,,,,decisionTrl,resources/DR.BMP,resources/DBN.BMP,Door4,-0.403654485,0.033222591,1,0,0,3.5054,optionLeft,80,15260,7,31,0,31,0,1,,,,,,,,,,,,,,,,,,,,,,,,,,,,,,,,,,,,,,,
,,,,,,,,2023-08-16_08h52.01.027,HF_wild_card,2022.2.4,Win32,3.334022365,64842455e8ac69503a5c65f0,64d2fd46c836a06233681665,64dc7f37daf0b543d8b5d48c,,,,,,,decisionTrl,resources/DP.BMP,resources/DY.BMP,Door2,0.358803987,0.013289037,1,0,0,4.1359,optionRight,20,15280,7,32,0,32,0,1,,,,,,,,,,,,,,,,,,,,,,,,,,,,,,,,,,,,,,,
,,,,,,,,2023-08-16_08h52.01.027,HF_wild_card,2022.2.4,Win32,3.334022365,64842455e8ac69503a5c65f0,64d2fd46c836a06233681665,64dc7f37daf0b543d8b5d48c,,,,,,,decisionTrl,resources/DR.BMP,resources/DBN.BMP,Door3,0.335548173,0.03820598,1,0,0,2.4868,optionRight,70,15350,7,33,0,33,0,1,,,,,,,,,,,,,,,,,,,,,,,,,,,,,,,,,,,,,,,
,,,,,,,,2023-08-16_08h52.01.027,HF_wild_card,2022.2.4,Win32,3.334022365,64842455e8ac69503a5c65f0,64d2fd46c836a06233681665,64dc7f37daf0b543d8b5d48c,,,,,,,ctch,resources/DY.BMP,resources/DBN.BMP,Door3,0.360465116,0.098006645,1,0,0,4.4453,optionRight,70,15420,7,34,0,34,0,1,,,,,,,,,,,,,,,,,,,,,,,,,,,,,,,,,,,,,,,
,,,,,,,,2023-08-16_08h52.01.027,HF_wild_card,2022.2.4,Win32,3.334022365,64842455e8ac69503a5c65f0,64d2fd46c836a06233681665,64dc7f37daf0b543d8b5d48c,,,,,,,decisionTrl,resources/DY.BMP,resources/DP.BMP,Door2,-0.30730897,-0.014950166,1,0,0,2.0654,optionLeft,40,15460,7,35,0,35,0,1,,,,,,,,,,,,,,,,,,,,,,,,,,,,,,,,,,,,,,,
,,,,,,,,2023-08-16_08h52.01.027,HF_wild_card,2022.2.4,Win32,3.334022365,64842455e8ac69503a5c65f0,64d2fd46c836a06233681665,64dc7f37daf0b543d8b5d48c,,,,,,,,,,,,,,,,,,,,,,,,,,6,0,6,0,1,,,,,,,,,,,,,,,,,,,,,,,,,,,,,,,,,,
,,,,,,,,2023-08-16_08h52.01.027,HF_wild_card,2022.2.4,Win32,3.334022365,64842455e8ac69503a5c65f0,64d2fd46c836a06233681665,64dc7f37daf0b543d8b5d48c,,,,,,,,,,,,,,,,,,,,,,,,,,,,,,,3,,,,,,,,,,,,,,,,,,,,,,,,,,,,,,,,,
,,,,,,,,2023-08-16_08h52.01.027,HF_wild_card,2022.2.4,Win32,3.334022365,64842455e8ac69503a5c65f0,64d2fd46c836a06233681665,64dc7f37daf0b543d8b5d48c,,,,,,,,,,,,,,,,,,,,,,,,,,,,,,,,,,,,,,,,,,,,,,,,,,,,,,,,,,,,,,,,
,,,,,,,,2023-08-16_08h52.01.027,HF_wild_card,2022.2.4,Win32,3.334022365,64842455e8ac69503a5c65f0,64d2fd46c836a06233681665,64dc7f37daf0b543d8b5d48c,,,,,,,,,,,,,,,,,,,,,,,,,,,,,,,,00,WC_nonExtreme,resources/DB.BMP,0,0,0,0,1,,,,,,,,,,,,,,,,,,,,,,,,,
,,,,,,,,2023-08-16_08h52.01.027,HF_wild_card,2022.2.4,Win32,3.334022365,64842455e8ac69503a5c65f0,64d2fd46c836a06233681665,64dc7f37daf0b543d8b5d48c,,,,,,,,,,,,,,,,,,,,,,,,,,,,,,,,70,Door3,resources/DBN.BMP,1,0,1,0,1,,,,,,,,,,,,,,,,,,,,,,,,,
,,,,,,,,2023-08-16_08h52.01.027,HF_wild_card,2022.2.4,Win32,3.334022365,64842455e8ac69503a5c65f0,64d2fd46c836a06233681665,64dc7f37daf0b543d8b5d48c,,,,,,,,,,,,,,,,,,,,,,,,,,,,,,,,75,WC_extreme,resources/DG.BMP,2,0,2,0,1,,,,,,,,,,,,,,,,,,,,,,,,,
,,,,,,,,2023-08-16_08h52.01.027,HF_wild_card,2022.2.4,Win32,3.334022365,64842455e8ac69503a5c65f0,64d2fd46c836a06233681665,64dc7f37daf0b543d8b5d48c,,,,,,,,,,,,,,,,,,,,,,,,,,,,,,,,40,Door2,resources/DY.BMP,3,0,3,0,1,,,,,,,,,,,,,,,,,,,,,,,,,
,,,,,,,,2023-08-16_08h52.01.027,HF_wild_card,2022.2.4,Win32,3.334022365,64842455e8ac69503a5c65f0,64d2fd46c836a06233681665,64dc7f37daf0b543d8b5d48c,,,,,,,,,,,,,,,,,,,,,,,,,,,,,,,,80,Door4,resources/DR.BMP,4,0,4,0,1,,,,,,,,,,,,,,,,,,,,,,,,,
,,,,,,,,2023-08-16_08h52.01.027,HF_wild_card,2022.2.4,Win32,3.334022365,64842455e8ac69503a5c65f0,64d2fd46c836a06233681665,64dc7f37daf0b543d8b5d48c,,,,,,,,,,,,,,,,,,,,,,,,,,,,,,,,20,Door1,resources/DP.BMP,5,0,5,0,1,,,,,,,,,,,,,,,,,,,,,,,,,
,,,,,,,,2023-08-16_08h52.01.027,HF_wild_card,2022.2.4,Win32,3.334022365,64842455e8ac69503a5c65f0,64d2fd46c836a06233681665,64dc7f37daf0b543d8b5d48c,,,,,,,,,,,,,,,,,,,,,,,,,,,,,,,,,,,,,,,,,,,,,,,,,,,,,,,,,,,,,,,,
