Condition,Low fixed image (Door1),Low risky image (Door2),High fixed image (Door3),High risky image (Door4),Extreme Wild Card,NonExtreme Wild Card,,date,expName,psychopyVersion,OS,frameRate,PROLIFIC_PID,STUDY_ID,SESSION_ID,mouse_2.x,mouse_2.y,mouse_2.leftButton,mouse_2.midButton,mouse_2.rightButton,mouse_2.clicked_name,Trial Type,Left Option Image,Right Option Image,Chosen Door,mouse.x,mouse.y,mouse.leftButton,mouse.midButton,mouse.rightButton,mouse.time,mouse.clicked_name,Feedback,Cumulative Reward,Block,trial.thisRepN,trial.thisTrialN,trial.thisN,trial.thisIndex,trial.ran,blocks.thisRepN,blocks.thisTrialN,blocks.thisN,blocks.thisIndex,blocks.ran,Money conversion,First Outcome Reported,Shown Door (First Outcome),Displayed Image (First Outcome),outcomes.thisRepN,outcomes.thisTrialN,outcomes.thisN,outcomes.thisIndex,outcomes.ran,judgments.thisRepN,judgments.thisTrialN,judgments.thisN,judgments.thisIndex,judgments.ran,freqMouse.x,freqMouse.y,freqMouse.leftButton,freqMouse.midButton,freqMouse.rightButton,freqMouse.clicked_name,trials.thisRepN,trials.thisTrialN,trials.thisN,trials.thisIndex,trials.ran,FQJ for first outcome,FQJ for second outcome,Shown Door,Displayed Image,judgBlock.thisRepN,judgBlock.thisTrialN,judgBlock.thisN,judgBlock.thisIndex,judgBlock.ran
0,resources/DG.BMP,resources/DBN.BMP,resources/DP.BMP,resources/DY.BMP,resources/DB.BMP,resources/DR.BMP,,2023-08-16_08h43.47.264,HF_wild_card,2022.2.4,Win32,60.2373351,5d8272296cca0b001759f562,64d2fd46c836a06233681665,64dc7e21ed9d66855003348f,,,,,,,,,,,,,,,,,,,,,,,,,,,,,,,,,,,,,,,,,,,,,,,,,,,,,,,,,,,,,,,,
,,,,,,,,2023-08-16_08h43.47.264,HF_wild_card,2022.2.4,Win32,60.2373351,5d8272296cca0b001759f562,64d2fd46c836a06233681665,64dc7e21ed9d66855003348f,0.006510417,-0.411458333,1,0,0,agree,,,,,,,,,,,,,,,,,,,,,,,,,,,,,,,,,,,,,,,,,,,,,,,,,,,,,,,,,,
,,,,,,,,2023-08-16_08h43.47.264,HF_wild_card,2022.2.4,Win32,60.2373351,5d8272296cca0b001759f562,64d2fd46c836a06233681665,64dc7e21ed9d66855003348f,,,,,,,,,,,,,,,,,,,,,,,,,,,,,,,,,,,,,,,,,,,,,,,,,,,,,,,,,,,,,,,,
,,,,,,,,2023-08-16_08h43.47.264,HF_wild_card,2022.2.4,Win32,60.2373351,5d8272296cca0b001759f562,64d2fd46c836a06233681665,64dc7e21ed9d66855003348f,,,,,,,decisionTrl,resources/DP.BMP,resources/DY.BMP,Door3,-0.27734375,-0.157552083,1,0,0,2.3666,optionLeft,70,70,1,0,0,0,0,1,,,,,,,,,,,,,,,,,,,,,,,,,,,,,,,,,,,,,,,
,,,,,,,,2023-08-16_08h43.47.264,HF_wild_card,2022.2.4,Win32,60.2373351,5d8272296cca0b001759f562,64d2fd46c836a06233681665,64dc7e21ed9d66855003348f,,,,,,,decisionTrl,resources/DG.BMP,resources/DBN.BMP,Door2,0.615885417,-0.104166667,1,0,0,1.9735,optionRight,20,90,1,1,0,1,0,1,,,,,,,,,,,,,,,,,,,,,,,,,,,,,,,,,,,,,,,
,,,,,,,,2023-08-16_08h43.47.264,HF_wild_card,2022.2.4,Win32,60.2373351,5d8272296cca0b001759f562,64d2fd46c836a06233681665,64dc7e21ed9d66855003348f,,,,,,,decisionTrl,resources/DG.BMP,resources/DBN.BMP,Door2,0.216145833,0.01953125,1,0,0,1.9789,optionRight,20,110,1,2,0,2,0,1,,,,,,,,,,,,,,,,,,,,,,,,,,,,,,,,,,,,,,,
,,,,,,,,2023-08-16_08h43.47.264,HF_wild_card,2022.2.4,Win32,60.2373351,5d8272296cca0b001759f562,64d2fd46c836a06233681665,64dc7e21ed9d66855003348f,,,,,,,decisionTrl,resources/DY.BMP,resources/DP.BMP,Door4,-0.291666667,0.0625,1,0,0,1.32,optionLeft,80,190,1,3,0,3,0,1,,,,,,,,,,,,,,,,,,,,,,,,,,,,,,,,,,,,,,,
,,,,,,,,2023-08-16_08h43.47.264,HF_wild_card,2022.2.4,Win32,60.2373351,5d8272296cca0b001759f562,64d2fd46c836a06233681665,64dc7e21ed9d66855003348f,,,,,,,decisionTrl,resources/DG.BMP,resources/DBN.BMP,Door1,-0.390625,0.1015625,1,0,0,1.2559,optionLeft,30,220,1,4,0,4,0,1,,,,,,,,,,,,,,,,,,,,,,,,,,,,,,,,,,,,,,,
,,,,,,,,2023-08-16_08h43.47.264,HF_wild_card,2022.2.4,Win32,60.2373351,5d8272296cca0b001759f562,64d2fd46c836a06233681665,64dc7e21ed9d66855003348f,,,,,,,decisionTrl,resources/DBN.BMP,resources/DB.BMP,WildCard_Ex,0.322916667,-0.096354167,1,0,0,1.1805,optionRight,95,315,1,5,0,5,0,1,,,,,,,,,,,,,,,,,,,,,,,,,,,,,,,,,,,,,,,
,,,,,,,,2023-08-16_08h43.47.264,HF_wild_card,2022.2.4,Win32,60.2373351,5d8272296cca0b001759f562,64d2fd46c836a06233681665,64dc7e21ed9d66855003348f,,,,,,,decisionTrl,resources/DBN.BMP,resources/DG.BMP,Door2,-0.265625,-0.006510417,1,0,0,1.4128,optionLeft,40,355,1,6,0,6,0,1,,,,,,,,,,,,,,,,,,,,,,,,,,,,,,,,,,,,,,,
,,,,,,,,2023-08-16_08h43.47.264,HF_wild_card,2022.2.4,Win32,60.2373351,5d8272296cca0b001759f562,64d2fd46c836a06233681665,64dc7e21ed9d66855003348f,,,,,,,sngl,resources/Empty.png,resources/DY.BMP,Door4,0.274739583,-0.069010417,1,0,0,1.2107,optionRight,60,415,1,7,0,7,0,1,,,,,,,,,,,,,,,,,,,,,,,,,,,,,,,,,,,,,,,
,,,,,,,,2023-08-16_08h43.47.264,HF_wild_card,2022.2.4,Win32,60.2373351,5d8272296cca0b001759f562,64d2fd46c836a06233681665,64dc7e21ed9d66855003348f,,,,,,,ctch,resources/DY.BMP,resources/DG.BMP,Door1,0.264322917,-0.104166667,1,0,0,1.556,optionRight,30,445,1,8,0,8,0,1,,,,,,,,,,,,,,,,,,,,,,,,,,,,,,,,,,,,,,,
,,,,,,,,2023-08-16_08h43.47.264,HF_wild_card,2022.2.4,Win32,60.2373351,5d8272296cca0b001759f562,64d2fd46c836a06233681665,64dc7e21ed9d66855003348f,,,,,,,sngl,resources/Empty.png,resources/DB.BMP,WildCard_Ex,0.239583333,-0.0859375,1,0,0,0.7837,optionRight,5,450,1,9,0,9,0,1,,,,,,,,,,,,,,,,,,,,,,,,,,,,,,,,,,,,,,,
,,,,,,,,2023-08-16_08h43.47.264,HF_wild_card,2022.2.4,Win32,60.2373351,5d8272296cca0b001759f562,64d2fd46c836a06233681665,64dc7e21ed9d66855003348f,,,,,,,sngl,resources/DP.BMP,resources/Empty.png,Door3,-0.338541667,-0.044270833,1,0,0,0.9296,optionLeft,70,520,1,10,0,10,0,1,,,,,,,,,,,,,,,,,,,,,,,,,,,,,,,,,,,,,,,
,,,,,,,,2023-08-16_08h43.47.264,HF_wild_card,2022.2.4,Win32,60.2373351,5d8272296cca0b001759f562,64d2fd46c836a06233681665,64dc7e21ed9d66855003348f,,,,,,,ctch,resources/DG.BMP,resources/DY.BMP,Door1,-0.328125,-0.01953125,1,0,0,1.3977,optionLeft,30,550,1,11,0,11,0,1,,,,,,,,,,,,,,,,,,,,,,,,,,,,,,,,,,,,,,,
,,,,,,,,2023-08-16_08h43.47.264,HF_wild_card,2022.2.4,Win32,60.2373351,5d8272296cca0b001759f562,64d2fd46c836a06233681665,64dc7e21ed9d66855003348f,,,,,,,ctch,resources/DP.BMP,resources/DBN.BMP,Door3,-0.3125,-0.067708333,1,0,0,1.2124,optionLeft,70,620,1,12,0,12,0,1,,,,,,,,,,,,,,,,,,,,,,,,,,,,,,,,,,,,,,,
,,,,,,,,2023-08-16_08h43.47.264,HF_wild_card,2022.2.4,Win32,60.2373351,5d8272296cca0b001759f562,64d2fd46c836a06233681665,64dc7e21ed9d66855003348f,,,,,,,decisionTrl,resources/DP.BMP,resources/DY.BMP,Door3,-0.354166667,-0.057291667,1,0,0,0.8204,optionLeft,70,690,1,13,0,13,0,1,,,,,,,,,,,,,,,,,,,,,,,,,,,,,,,,,,,,,,,
,,,,,,,,2023-08-16_08h43.47.264,HF_wild_card,2022.2.4,Win32,60.2373351,5d8272296cca0b001759f562,64d2fd46c836a06233681665,64dc7e21ed9d66855003348f,,,,,,,sngl,resources/DB.BMP,resources/Empty.png,WildCard_Ex,-0.328125,-0.069010417,1,0,0,0.7892,optionLeft,95,785,1,14,0,14,0,1,,,,,,,,,,,,,,,,,,,,,,,,,,,,,,,,,,,,,,,
,,,,,,,,2023-08-16_08h43.47.264,HF_wild_card,2022.2.4,Win32,60.2373351,5d8272296cca0b001759f562,64d2fd46c836a06233681665,64dc7e21ed9d66855003348f,,,,,,,sngl,resources/DG.BMP,resources/Empty.png,Door1,-0.307291667,-0.104166667,1,0,0,0.8606,optionLeft,30,815,1,15,0,15,0,1,,,,,,,,,,,,,,,,,,,,,,,,,,,,,,,,,,,,,,,
,,,,,,,,2023-08-16_08h43.47.264,HF_wild_card,2022.2.4,Win32,60.2373351,5d8272296cca0b001759f562,64d2fd46c836a06233681665,64dc7e21ed9d66855003348f,,,,,,,ctch,resources/DY.BMP,resources/DG.BMP,Door4,-0.359375,-0.096354167,1,0,0,1.2282,optionLeft,80,895,1,16,0,16,0,1,,,,,,,,,,,,,,,,,,,,,,,,,,,,,,,,,,,,,,,
,,,,,,,,2023-08-16_08h43.47.264,HF_wild_card,2022.2.4,Win32,60.2373351,5d8272296cca0b001759f562,64d2fd46c836a06233681665,64dc7e21ed9d66855003348f,,,,,,,ctch,resources/DG.BMP,resources/DY.BMP,Door4,0.236979167,-0.145833333,1,0,0,0.7606,optionRight,80,975,1,17,0,17,0,1,,,,,,,,,,,,,,,,,,,,,,,,,,,,,,,,,,,,,,,
,,,,,,,,2023-08-16_08h43.47.264,HF_wild_card,2022.2.4,Win32,60.2373351,5d8272296cca0b001759f562,64d2fd46c836a06233681665,64dc7e21ed9d66855003348f,,,,,,,decisionTrl,resources/DB.BMP,resources/DG.BMP,WildCard_Ex,-0.298177083,-0.024739583,1,0,0,0.8429,optionLeft,5,980,1,18,0,18,0,1,,,,,,,,,,,,,,,,,,,,,,,,,,,,,,,,,,,,,,,
,,,,,,,,2023-08-16_08h43.47.264,HF_wild_card,2022.2.4,Win32,60.2373351,5d8272296cca0b001759f562,64d2fd46c836a06233681665,64dc7e21ed9d66855003348f,,,,,,,decisionTrl,resources/DB.BMP,resources/DP.BMP,WildCard_Ex,-0.305989583,-0.033854167,1,0,0,0.8651,optionLeft,95,1075,1,19,0,19,0,1,,,,,,,,,,,,,,,,,,,,,,,,,,,,,,,,,,,,,,,
,,,,,,,,2023-08-16_08h43.47.264,HF_wild_card,2022.2.4,Win32,60.2373351,5d8272296cca0b001759f562,64d2fd46c836a06233681665,64dc7e21ed9d66855003348f,,,,,,,sngl,resources/DBN.BMP,resources/Empty.png,Door2,-0.26171875,-0.0390625,1,0,0,0.8067,optionLeft,40,1115,1,20,0,20,0,1,,,,,,,,,,,,,,,,,,,,,,,,,,,,,,,,,,,,,,,
,,,,,,,,2023-08-16_08h43.47.264,HF_wild_card,2022.2.4,Win32,60.2373351,5d8272296cca0b001759f562,64d2fd46c836a06233681665,64dc7e21ed9d66855003348f,,,,,,,sngl,resources/Empty.png,resources/DG.BMP,Door1,0.225260417,-0.092447917,1,0,0,0.691,optionRight,30,1145,1,21,0,21,0,1,,,,,,,,,,,,,,,,,,,,,,,,,,,,,,,,,,,,,,,
,,,,,,,,2023-08-16_08h43.47.264,HF_wild_card,2022.2.4,Win32,60.2373351,5d8272296cca0b001759f562,64d2fd46c836a06233681665,64dc7e21ed9d66855003348f,,,,,,,ctch,resources/DP.BMP,resources/DBN.BMP,Door2,0.256510417,-0.149739583,1,0,0,1.2191,optionRight,40,1185,1,22,0,22,0,1,,,,,,,,,,,,,,,,,,,,,,,,,,,,,,,,,,,,,,,
,,,,,,,,2023-08-16_08h43.47.264,HF_wild_card,2022.2.4,Win32,60.2373351,5d8272296cca0b001759f562,64d2fd46c836a06233681665,64dc7e21ed9d66855003348f,,,,,,,decisionTrl,resources/DY.BMP,resources/DP.BMP,Door3,0.25,-0.076822917,1,0,0,1.6286,optionRight,70,1255,1,23,0,23,0,1,,,,,,,,,,,,,,,,,,,,,,,,,,,,,,,,,,,,,,,
,,,,,,,,2023-08-16_08h43.47.264,HF_wild_card,2022.2.4,Win32,60.2373351,5d8272296cca0b001759f562,64d2fd46c836a06233681665,64dc7e21ed9d66855003348f,,,,,,,sngl,resources/Empty.png,resources/DP.BMP,Door3,0.234375,-0.0859375,1,0,0,0.616,optionRight,70,1325,1,24,0,24,0,1,,,,,,,,,,,,,,,,,,,,,,,,,,,,,,,,,,,,,,,
,,,,,,,,2023-08-16_08h43.47.264,HF_wild_card,2022.2.4,Win32,60.2373351,5d8272296cca0b001759f562,64d2fd46c836a06233681665,64dc7e21ed9d66855003348f,,,,,,,decisionTrl,resources/DBN.BMP,resources/DG.BMP,Door2,-0.235677083,-0.029947917,1,0,0,2.036,optionLeft,40,1365,1,25,0,25,0,1,,,,,,,,,,,,,,,,,,,,,,,,,,,,,,,,,,,,,,,
,,,,,,,,2023-08-16_08h43.47.264,HF_wild_card,2022.2.4,Win32,60.2373351,5d8272296cca0b001759f562,64d2fd46c836a06233681665,64dc7e21ed9d66855003348f,,,,,,,decisionTrl,resources/DY.BMP,resources/DP.BMP,Door3,0.23828125,-0.059895833,1,0,0,0.642,optionRight,70,1435,1,26,0,26,0,1,,,,,,,,,,,,,,,,,,,,,,,,,,,,,,,,,,,,,,,
,,,,,,,,2023-08-16_08h43.47.264,HF_wild_card,2022.2.4,Win32,60.2373351,5d8272296cca0b001759f562,64d2fd46c836a06233681665,64dc7e21ed9d66855003348f,,,,,,,sngl,resources/Empty.png,resources/DB.BMP,WildCard_Ex,0.227864583,-0.069010417,1,0,0,0.61,optionRight,95,1530,1,27,0,27,0,1,,,,,,,,,,,,,,,,,,,,,,,,,,,,,,,,,,,,,,,
,,,,,,,,2023-08-16_08h43.47.264,HF_wild_card,2022.2.4,Win32,60.2373351,5d8272296cca0b001759f562,64d2fd46c836a06233681665,64dc7e21ed9d66855003348f,,,,,,,decisionTrl,resources/DBN.BMP,resources/DG.BMP,Door1,0.203125,-0.029947917,1,0,0,1.6833,optionRight,30,1560,1,28,0,28,0,1,,,,,,,,,,,,,,,,,,,,,,,,,,,,,,,,,,,,,,,
,,,,,,,,2023-08-16_08h43.47.264,HF_wild_card,2022.2.4,Win32,60.2373351,5d8272296cca0b001759f562,64d2fd46c836a06233681665,64dc7e21ed9d66855003348f,,,,,,,decisionTrl,resources/DG.BMP,resources/DBN.BMP,Door2,0.263020833,-0.067708333,1,0,0,0.6645,optionRight,20,1580,1,29,0,29,0,1,,,,,,,,,,,,,,,,,,,,,,,,,,,,,,,,,,,,,,,
,,,,,,,,2023-08-16_08h43.47.264,HF_wild_card,2022.2.4,Win32,60.2373351,5d8272296cca0b001759f562,64d2fd46c836a06233681665,64dc7e21ed9d66855003348f,,,,,,,sngl,resources/DB.BMP,resources/Empty.png,WildCard_Ex,-0.180989583,0.170572917,1,0,0,0.5637,optionLeft,5,1585,1,30,0,30,0,1,,,,,,,,,,,,,,,,,,,,,,,,,,,,,,,,,,,,,,,
,,,,,,,,2023-08-16_08h43.47.264,HF_wild_card,2022.2.4,Win32,60.2373351,5d8272296cca0b001759f562,64d2fd46c836a06233681665,64dc7e21ed9d66855003348f,,,,,,,sngl,resources/Empty.png,resources/DBN.BMP,Door2,0.236979167,-0.0859375,1,0,0,0.5793,optionRight,20,1605,1,31,0,31,0,1,,,,,,,,,,,,,,,,,,,,,,,,,,,,,,,,,,,,,,,
,,,,,,,,2023-08-16_08h43.47.264,HF_wild_card,2022.2.4,Win32,60.2373351,5d8272296cca0b001759f562,64d2fd46c836a06233681665,64dc7e21ed9d66855003348f,,,,,,,decisionTrl,resources/DG.BMP,resources/DB.BMP,WildCard_Ex,0.2734375,-0.1171875,1,0,0,0.9268,optionRight,5,1610,1,32,0,32,0,1,,,,,,,,,,,,,,,,,,,,,,,,,,,,,,,,,,,,,,,
,,,,,,,,2023-08-16_08h43.47.264,HF_wild_card,2022.2.4,Win32,60.2373351,5d8272296cca0b001759f562,64d2fd46c836a06233681665,64dc7e21ed9d66855003348f,,,,,,,ctch,resources/DBN.BMP,resources/DP.BMP,Door2,-0.30078125,-0.013020833,1,0,0,1.1668,optionLeft,40,1650,1,33,0,33,0,1,,,,,,,,,,,,,,,,,,,,,,,,,,,,,,,,,,,,,,,
,,,,,,,,2023-08-16_08h43.47.264,HF_wild_card,2022.2.4,Win32,60.2373351,5d8272296cca0b001759f562,64d2fd46c836a06233681665,64dc7e21ed9d66855003348f,,,,,,,decisionTrl,resources/DY.BMP,resources/DP.BMP,Door3,0.2578125,-0.079427083,1,0,0,0.5899,optionRight,70,1720,1,34,0,34,0,1,,,,,,,,,,,,,,,,,,,,,,,,,,,,,,,,,,,,,,,
,,,,,,,,2023-08-16_08h43.47.264,HF_wild_card,2022.2.4,Win32,60.2373351,5d8272296cca0b001759f562,64d2fd46c836a06233681665,64dc7e21ed9d66855003348f,,,,,,,decisionTrl,resources/DB.BMP,resources/DBN.BMP,WildCard_Ex,-0.3203125,0.100260417,1,0,0,1.676,optionLeft,5,1725,1,35,0,35,0,1,,,,,,,,,,,,,,,,,,,,,,,,,,,,,,,,,,,,,,,
,,,,,,,,2023-08-16_08h43.47.264,HF_wild_card,2022.2.4,Win32,60.2373351,5d8272296cca0b001759f562,64d2fd46c836a06233681665,64dc7e21ed9d66855003348f,,,,,,,decisionTrl,resources/DBN.BMP,resources/DG.BMP,Door2,-0.25,-0.044270833,1,0,0,0.8774,optionLeft,20,1745,1,36,0,36,0,1,,,,,,,,,,,,,,,,,,,,,,,,,,,,,,,,,,,,,,,
,,,,,,,,2023-08-16_08h43.47.264,HF_wild_card,2022.2.4,Win32,60.2373351,5d8272296cca0b001759f562,64d2fd46c836a06233681665,64dc7e21ed9d66855003348f,,,,,,,sngl,resources/DY.BMP,resources/Empty.png,Door4,-0.28125,-0.01171875,1,0,0,0.608,optionLeft,80,1825,1,37,0,37,0,1,,,,,,,,,,,,,,,,,,,,,,,,,,,,,,,,,,,,,,,
,,,,,,,,2023-08-16_08h43.47.264,HF_wild_card,2022.2.4,Win32,60.2373351,5d8272296cca0b001759f562,64d2fd46c836a06233681665,64dc7e21ed9d66855003348f,,,,,,,decisionTrl,resources/DP.BMP,resources/DB.BMP,WildCard_Ex,0.25390625,-0.11328125,1,0,0,0.7286,optionRight,5,1830,1,38,0,38,0,1,,,,,,,,,,,,,,,,,,,,,,,,,,,,,,,,,,,,,,,
,,,,,,,,2023-08-16_08h43.47.264,HF_wild_card,2022.2.4,Win32,60.2373351,5d8272296cca0b001759f562,64d2fd46c836a06233681665,64dc7e21ed9d66855003348f,,,,,,,ctch,resources/DBN.BMP,resources/DP.BMP,Door3,0.201822917,-0.078125,1,0,0,1.4669,optionRight,70,1900,1,39,0,39,0,1,,,,,,,,,,,,,,,,,,,,,,,,,,,,,,,,,,,,,,,
,,,,,,,,2023-08-16_08h43.47.264,HF_wild_card,2022.2.4,Win32,60.2373351,5d8272296cca0b001759f562,64d2fd46c836a06233681665,64dc7e21ed9d66855003348f,,,,,,,decisionTrl,resources/DP.BMP,resources/DY.BMP,Door3,-0.373697917,-0.126302083,1,0,0,1.6682,optionLeft,70,1970,1,40,0,40,0,1,,,,,,,,,,,,,,,,,,,,,,,,,,,,,,,,,,,,,,,
,,,,,,,,2023-08-16_08h43.47.264,HF_wild_card,2022.2.4,Win32,60.2373351,5d8272296cca0b001759f562,64d2fd46c836a06233681665,64dc7e21ed9d66855003348f,,,,,,,decisionTrl,resources/DY.BMP,resources/DB.BMP,WildCard_Ex,0.247395833,-0.098958333,1,0,0,0.6601,optionRight,5,1975,1,41,0,41,0,1,,,,,,,,,,,,,,,,,,,,,,,,,,,,,,,,,,,,,,,
,,,,,,,,2023-08-16_08h43.47.264,HF_wild_card,2022.2.4,Win32,60.2373351,5d8272296cca0b001759f562,64d2fd46c836a06233681665,64dc7e21ed9d66855003348f,,,,,,,decisionTrl,resources/DP.BMP,resources/DY.BMP,Door3,-0.2890625,-0.098958333,1,0,0,1.3167,optionLeft,70,2045,1,42,0,42,0,1,,,,,,,,,,,,,,,,,,,,,,,,,,,,,,,,,,,,,,,
,,,,,,,,2023-08-16_08h43.47.264,HF_wild_card,2022.2.4,Win32,60.2373351,5d8272296cca0b001759f562,64d2fd46c836a06233681665,64dc7e21ed9d66855003348f,,,,,,,decisionTrl,resources/DB.BMP,resources/DY.BMP,WildCard_Ex,-0.37109375,-0.092447917,1,0,0,0.6761,optionLeft,5,2050,1,43,0,43,0,1,,,,,,,,,,,,,,,,,,,,,,,,,,,,,,,,,,,,,,,
,,,,,,,,2023-08-16_08h43.47.264,HF_wild_card,2022.2.4,Win32,60.2373351,5d8272296cca0b001759f562,64d2fd46c836a06233681665,64dc7e21ed9d66855003348f,,,,,,,,,,,,,,,,,,,,,,,,,,0,0,0,0,1,,,,,,,,,,,,,,,,,,,,,,,,,,,,,,,,,,
,,,,,,,,2023-08-16_08h43.47.264,HF_wild_card,2022.2.4,Win32,60.2373351,5d8272296cca0b001759f562,64d2fd46c836a06233681665,64dc7e21ed9d66855003348f,,,,,,,decisionTrl,resources/DP.BMP,resources/DY.BMP,Door3,-0.412760417,-0.005208333,1,0,0,2.2633,optionLeft,70,2120,2,0,0,0,0,1,,,,,,,,,,,,,,,,,,,,,,,,,,,,,,,,,,,,,,,
,,,,,,,,2023-08-16_08h43.47.264,HF_wild_card,2022.2.4,Win32,60.2373351,5d8272296cca0b001759f562,64d2fd46c836a06233681665,64dc7e21ed9d66855003348f,,,,,,,decisionTrl,resources/DG.BMP,resources/DBN.BMP,Door2,0.298177083,-0.09765625,1,0,0,1.286,optionRight,40,2160,2,1,0,1,0,1,,,,,,,,,,,,,,,,,,,,,,,,,,,,,,,,,,,,,,,
,,,,,,,,2023-08-16_08h43.47.264,HF_wild_card,2022.2.4,Win32,60.2373351,5d8272296cca0b001759f562,64d2fd46c836a06233681665,64dc7e21ed9d66855003348f,,,,,,,decisionTrl,resources/DY.BMP,resources/DP.BMP,Door3,0.311197917,-0.109375,1,0,0,0.8012,optionRight,70,2230,2,2,0,2,0,1,,,,,,,,,,,,,,,,,,,,,,,,,,,,,,,,,,,,,,,
,,,,,,,,2023-08-16_08h43.47.264,HF_wild_card,2022.2.4,Win32,60.2373351,5d8272296cca0b001759f562,64d2fd46c836a06233681665,64dc7e21ed9d66855003348f,,,,,,,decisionTrl,resources/DBN.BMP,resources/DG.BMP,Door2,-0.2734375,-0.096354167,1,0,0,1.446,optionLeft,20,2250,2,3,0,3,0,1,,,,,,,,,,,,,,,,,,,,,,,,,,,,,,,,,,,,,,,
,,,,,,,,2023-08-16_08h43.47.264,HF_wild_card,2022.2.4,Win32,60.2373351,5d8272296cca0b001759f562,64d2fd46c836a06233681665,64dc7e21ed9d66855003348f,,,,,,,sngl,resources/DP.BMP,resources/Empty.png,Door3,-0.272135417,0.029947917,1,0,0,0.779,optionLeft,70,2320,2,4,0,4,0,1,,,,,,,,,,,,,,,,,,,,,,,,,,,,,,,,,,,,,,,
,,,,,,,,2023-08-16_08h43.47.264,HF_wild_card,2022.2.4,Win32,60.2373351,5d8272296cca0b001759f562,64d2fd46c836a06233681665,64dc7e21ed9d66855003348f,,,,,,,decisionTrl,resources/DBN.BMP,resources/DG.BMP,Door1,0.38671875,0,1,0,0,0.7588,optionRight,30,2350,2,5,0,5,0,1,,,,,,,,,,,,,,,,,,,,,,,,,,,,,,,,,,,,,,,
,,,,,,,,2023-08-16_08h43.47.264,HF_wild_card,2022.2.4,Win32,60.2373351,5d8272296cca0b001759f562,64d2fd46c836a06233681665,64dc7e21ed9d66855003348f,,,,,,,decisionTrl,resources/DY.BMP,resources/DP.BMP,Door3,0.37109375,0.024739583,1,0,0,0.6471,optionRight,70,2420,2,6,0,6,0,1,,,,,,,,,,,,,,,,,,,,,,,,,,,,,,,,,,,,,,,
,,,,,,,,2023-08-16_08h43.47.264,HF_wild_card,2022.2.4,Win32,60.2373351,5d8272296cca0b001759f562,64d2fd46c836a06233681665,64dc7e21ed9d66855003348f,,,,,,,sngl,resources/Empty.png,resources/DBN.BMP,Door2,0.408854167,0.002604167,1,0,0,1.2113,optionRight,40,2460,2,7,0,7,0,1,,,,,,,,,,,,,,,,,,,,,,,,,,,,,,,,,,,,,,,
,,,,,,,,2023-08-16_08h43.47.264,HF_wild_card,2022.2.4,Win32,60.2373351,5d8272296cca0b001759f562,64d2fd46c836a06233681665,64dc7e21ed9d66855003348f,,,,,,,decisionTrl,resources/DB.BMP,resources/DG.BMP,WildCard_Ex,-0.321614583,-0.055989583,1,0,0,0.9383,optionLeft,95,2555,2,8,0,8,0,1,,,,,,,,,,,,,,,,,,,,,,,,,,,,,,,,,,,,,,,
,,,,,,,,2023-08-16_08h43.47.264,HF_wild_card,2022.2.4,Win32,60.2373351,5d8272296cca0b001759f562,64d2fd46c836a06233681665,64dc7e21ed9d66855003348f,,,,,,,decisionTrl,resources/DB.BMP,resources/DBN.BMP,WildCard_Ex,-0.307291667,-0.01171875,1,0,0,0.8529,optionLeft,95,2650,2,9,0,9,0,1,,,,,,,,,,,,,,,,,,,,,,,,,,,,,,,,,,,,,,,
,,,,,,,,2023-08-16_08h43.47.264,HF_wild_card,2022.2.4,Win32,60.2373351,5d8272296cca0b001759f562,64d2fd46c836a06233681665,64dc7e21ed9d66855003348f,,,,,,,sngl,resources/Empty.png,resources/DB.BMP,WildCard_Ex,0.506510417,-0.016927083,1,0,0,1.0281,optionRight,95,2745,2,10,0,10,0,1,,,,,,,,,,,,,,,,,,,,,,,,,,,,,,,,,,,,,,,
,,,,,,,,2023-08-16_08h43.47.264,HF_wild_card,2022.2.4,Win32,60.2373351,5d8272296cca0b001759f562,64d2fd46c836a06233681665,64dc7e21ed9d66855003348f,,,,,,,ctch,resources/DP.BMP,resources/DBN.BMP,Door3,-0.21484375,-0.061197917,1,0,0,1.1615,optionLeft,70,2815,2,11,0,11,0,1,,,,,,,,,,,,,,,,,,,,,,,,,,,,,,,,,,,,,,,
,,,,,,,,2023-08-16_08h43.47.264,HF_wild_card,2022.2.4,Win32,60.2373351,5d8272296cca0b001759f562,64d2fd46c836a06233681665,64dc7e21ed9d66855003348f,,,,,,,sngl,resources/Empty.png,resources/DB.BMP,WildCard_Ex,0.447916667,0.061197917,1,0,0,0.5904,optionRight,5,2820,2,12,0,12,0,1,,,,,,,,,,,,,,,,,,,,,,,,,,,,,,,,,,,,,,,
,,,,,,,,2023-08-16_08h43.47.264,HF_wild_card,2022.2.4,Win32,60.2373351,5d8272296cca0b001759f562,64d2fd46c836a06233681665,64dc7e21ed9d66855003348f,,,,,,,sngl,resources/DG.BMP,resources/Empty.png,Door1,-0.23828125,0.102864583,1,0,0,1.2276,optionLeft,30,2850,2,13,0,13,0,1,,,,,,,,,,,,,,,,,,,,,,,,,,,,,,,,,,,,,,,
,,,,,,,,2023-08-16_08h43.47.264,HF_wild_card,2022.2.4,Win32,60.2373351,5d8272296cca0b001759f562,64d2fd46c836a06233681665,64dc7e21ed9d66855003348f,,,,,,,decisionTrl,resources/DY.BMP,resources/DB.BMP,WildCard_Ex,0.42578125,0.065104167,1,0,0,0.6355,optionRight,95,2945,2,14,0,14,0,1,,,,,,,,,,,,,,,,,,,,,,,,,,,,,,,,,,,,,,,
,,,,,,,,2023-08-16_08h43.47.264,HF_wild_card,2022.2.4,Win32,60.2373351,5d8272296cca0b001759f562,64d2fd46c836a06233681665,64dc7e21ed9d66855003348f,,,,,,,sngl,resources/DB.BMP,resources/Empty.png,WildCard_Ex,-0.270833333,0.080729167,1,0,0,0.7245,optionLeft,95,3040,2,15,0,15,0,1,,,,,,,,,,,,,,,,,,,,,,,,,,,,,,,,,,,,,,,
,,,,,,,,2023-08-16_08h43.47.264,HF_wild_card,2022.2.4,Win32,60.2373351,5d8272296cca0b001759f562,64d2fd46c836a06233681665,64dc7e21ed9d66855003348f,,,,,,,decisionTrl,resources/DBN.BMP,resources/DB.BMP,WildCard_Ex,0.3828125,0.061197917,1,0,0,0.5581,optionRight,5,3045,2,16,0,16,0,1,,,,,,,,,,,,,,,,,,,,,,,,,,,,,,,,,,,,,,,
,,,,,,,,2023-08-16_08h43.47.264,HF_wild_card,2022.2.4,Win32,60.2373351,5d8272296cca0b001759f562,64d2fd46c836a06233681665,64dc7e21ed9d66855003348f,,,,,,,ctch,resources/DBN.BMP,resources/DP.BMP,Door3,0.329427083,0.087239583,1,0,0,0.644,optionRight,70,3115,2,17,0,17,0,1,,,,,,,,,,,,,,,,,,,,,,,,,,,,,,,,,,,,,,,
,,,,,,,,2023-08-16_08h43.47.264,HF_wild_card,2022.2.4,Win32,60.2373351,5d8272296cca0b001759f562,64d2fd46c836a06233681665,64dc7e21ed9d66855003348f,,,,,,,ctch,resources/DY.BMP,resources/DG.BMP,Door1,0.326822917,0.07421875,1,0,0,1.1308,optionRight,30,3145,2,18,0,18,0,1,,,,,,,,,,,,,,,,,,,,,,,,,,,,,,,,,,,,,,,
,,,,,,,,2023-08-16_08h43.47.264,HF_wild_card,2022.2.4,Win32,60.2373351,5d8272296cca0b001759f562,64d2fd46c836a06233681665,64dc7e21ed9d66855003348f,,,,,,,sngl,resources/Empty.png,resources/DP.BMP,Door3,0.01171875,0,1,0,0,0.079,optionRight,70,3215,2,19,0,19,0,1,,,,,,,,,,,,,,,,,,,,,,,,,,,,,,,,,,,,,,,
,,,,,,,,2023-08-16_08h43.47.264,HF_wild_card,2022.2.4,Win32,60.2373351,5d8272296cca0b001759f562,64d2fd46c836a06233681665,64dc7e21ed9d66855003348f,,,,,,,ctch,resources/DG.BMP,resources/DY.BMP,Door4,0.255208333,0.018229167,1,0,0,1.3021,optionRight,80,3295,2,20,0,20,0,1,,,,,,,,,,,,,,,,,,,,,,,,,,,,,,,,,,,,,,,
,,,,,,,,2023-08-16_08h43.47.264,HF_wild_card,2022.2.4,Win32,60.2373351,5d8272296cca0b001759f562,64d2fd46c836a06233681665,64dc7e21ed9d66855003348f,,,,,,,decisionTrl,resources/DG.BMP,resources/DBN.BMP,Door1,-0.25,-0.084635417,1,0,0,1.1493,optionLeft,30,3325,2,21,0,21,0,1,,,,,,,,,,,,,,,,,,,,,,,,,,,,,,,,,,,,,,,
,,,,,,,,2023-08-16_08h43.47.264,HF_wild_card,2022.2.4,Win32,60.2373351,5d8272296cca0b001759f562,64d2fd46c836a06233681665,64dc7e21ed9d66855003348f,,,,,,,decisionTrl,resources/DP.BMP,resources/DY.BMP,Door3,-0.212239583,-0.04296875,1,0,0,1.0842,optionLeft,70,3395,2,22,0,22,0,1,,,,,,,,,,,,,,,,,,,,,,,,,,,,,,,,,,,,,,,
,,,,,,,,2023-08-16_08h43.47.264,HF_wild_card,2022.2.4,Win32,60.2373351,5d8272296cca0b001759f562,64d2fd46c836a06233681665,64dc7e21ed9d66855003348f,,,,,,,decisionTrl,resources/DY.BMP,resources/DP.BMP,Door3,0.298177083,-0.108072917,1,0,0,0.8901,optionRight,70,3465,2,23,0,23,0,1,,,,,,,,,,,,,,,,,,,,,,,,,,,,,,,,,,,,,,,
,,,,,,,,2023-08-16_08h43.47.264,HF_wild_card,2022.2.4,Win32,60.2373351,5d8272296cca0b001759f562,64d2fd46c836a06233681665,64dc7e21ed9d66855003348f,,,,,,,ctch,resources/DP.BMP,resources/DBN.BMP,Door3,-0.337239583,-0.0859375,1,0,0,0.7114,optionLeft,70,3535,2,24,0,24,0,1,,,,,,,,,,,,,,,,,,,,,,,,,,,,,,,,,,,,,,,
,,,,,,,,2023-08-16_08h43.47.264,HF_wild_card,2022.2.4,Win32,60.2373351,5d8272296cca0b001759f562,64d2fd46c836a06233681665,64dc7e21ed9d66855003348f,,,,,,,decisionTrl,resources/DP.BMP,resources/DB.BMP,WildCard_Ex,0.236979167,-0.119791667,1,0,0,0.6019,optionRight,5,3540,2,25,0,25,0,1,,,,,,,,,,,,,,,,,,,,,,,,,,,,,,,,,,,,,,,
,,,,,,,,2023-08-16_08h43.47.264,HF_wild_card,2022.2.4,Win32,60.2373351,5d8272296cca0b001759f562,64d2fd46c836a06233681665,64dc7e21ed9d66855003348f,,,,,,,ctch,resources/DBN.BMP,resources/DP.BMP,Door3,0.26953125,-0.115885417,1,0,0,0.6933,optionRight,70,3610,2,26,0,26,0,1,,,,,,,,,,,,,,,,,,,,,,,,,,,,,,,,,,,,,,,
,,,,,,,,2023-08-16_08h43.47.264,HF_wild_card,2022.2.4,Win32,60.2373351,5d8272296cca0b001759f562,64d2fd46c836a06233681665,64dc7e21ed9d66855003348f,,,,,,,decisionTrl,resources/DBN.BMP,resources/DG.BMP,Door1,0.223958333,-0.102864583,1,0,0,1.0109,optionRight,30,3640,2,27,0,27,0,1,,,,,,,,,,,,,,,,,,,,,,,,,,,,,,,,,,,,,,,
,,,,,,,,2023-08-16_08h43.47.264,HF_wild_card,2022.2.4,Win32,60.2373351,5d8272296cca0b001759f562,64d2fd46c836a06233681665,64dc7e21ed9d66855003348f,,,,,,,decisionTrl,resources/DG.BMP,resources/DBN.BMP,Door1,-0.153645833,0.029947917,1,0,0,1.037,optionLeft,30,3670,2,28,0,28,0,1,,,,,,,,,,,,,,,,,,,,,,,,,,,,,,,,,,,,,,,
,,,,,,,,2023-08-16_08h43.47.264,HF_wild_card,2022.2.4,Win32,60.2373351,5d8272296cca0b001759f562,64d2fd46c836a06233681665,64dc7e21ed9d66855003348f,,,,,,,decisionTrl,resources/DB.BMP,resources/DP.BMP,WildCard_Ex,-0.256510417,-0.052083333,1,0,0,1.0717,optionLeft,95,3765,2,29,0,29,0,1,,,,,,,,,,,,,,,,,,,,,,,,,,,,,,,,,,,,,,,
,,,,,,,,2023-08-16_08h43.47.264,HF_wild_card,2022.2.4,Win32,60.2373351,5d8272296cca0b001759f562,64d2fd46c836a06233681665,64dc7e21ed9d66855003348f,,,,,,,decisionTrl,resources/DG.BMP,resources/DBN.BMP,Door1,-0.303385417,-0.078125,1,0,0,1.4164,optionLeft,30,3795,2,30,0,30,0,1,,,,,,,,,,,,,,,,,,,,,,,,,,,,,,,,,,,,,,,
,,,,,,,,2023-08-16_08h43.47.264,HF_wild_card,2022.2.4,Win32,60.2373351,5d8272296cca0b001759f562,64d2fd46c836a06233681665,64dc7e21ed9d66855003348f,,,,,,,decisionTrl,resources/DP.BMP,resources/DY.BMP,Door3,-0.015625,0.00390625,1,0,0,0.1096,optionLeft,70,3865,2,31,0,31,0,1,,,,,,,,,,,,,,,,,,,,,,,,,,,,,,,,,,,,,,,
,,,,,,,,2023-08-16_08h43.47.264,HF_wild_card,2022.2.4,Win32,60.2373351,5d8272296cca0b001759f562,64d2fd46c836a06233681665,64dc7e21ed9d66855003348f,,,,,,,sngl,resources/DB.BMP,resources/Empty.png,WildCard_Ex,-0.403645833,-0.040364583,1,0,0,0.7195,optionLeft,5,3870,2,32,0,32,0,1,,,,,,,,,,,,,,,,,,,,,,,,,,,,,,,,,,,,,,,
,,,,,,,,2023-08-16_08h43.47.264,HF_wild_card,2022.2.4,Win32,60.2373351,5d8272296cca0b001759f562,64d2fd46c836a06233681665,64dc7e21ed9d66855003348f,,,,,,,decisionTrl,resources/DG.BMP,resources/DB.BMP,WildCard_Ex,0.268229167,-0.095052083,1,0,0,0.8145,optionRight,95,3965,2,33,0,33,0,1,,,,,,,,,,,,,,,,,,,,,,,,,,,,,,,,,,,,,,,
,,,,,,,,2023-08-16_08h43.47.264,HF_wild_card,2022.2.4,Win32,60.2373351,5d8272296cca0b001759f562,64d2fd46c836a06233681665,64dc7e21ed9d66855003348f,,,,,,,decisionTrl,resources/DBN.BMP,resources/DG.BMP,Door1,0.192708333,-0.040364583,1,0,0,1.0207,optionRight,30,3995,2,34,0,34,0,1,,,,,,,,,,,,,,,,,,,,,,,,,,,,,,,,,,,,,,,
,,,,,,,,2023-08-16_08h43.47.264,HF_wild_card,2022.2.4,Win32,60.2373351,5d8272296cca0b001759f562,64d2fd46c836a06233681665,64dc7e21ed9d66855003348f,,,,,,,ctch,resources/DG.BMP,resources/DY.BMP,Door1,-0.408854167,-0.040364583,1,0,0,0.715,optionLeft,30,4025,2,35,0,35,0,1,,,,,,,,,,,,,,,,,,,,,,,,,,,,,,,,,,,,,,,
,,,,,,,,2023-08-16_08h43.47.264,HF_wild_card,2022.2.4,Win32,60.2373351,5d8272296cca0b001759f562,64d2fd46c836a06233681665,64dc7e21ed9d66855003348f,,,,,,,sngl,resources/Empty.png,resources/DG.BMP,Door1,0.263020833,0.00390625,1,0,0,0.6885,optionRight,30,4055,2,36,0,36,0,1,,,,,,,,,,,,,,,,,,,,,,,,,,,,,,,,,,,,,,,
,,,,,,,,2023-08-16_08h43.47.264,HF_wild_card,2022.2.4,Win32,60.2373351,5d8272296cca0b001759f562,64d2fd46c836a06233681665,64dc7e21ed9d66855003348f,,,,,,,decisionTrl,resources/DY.BMP,resources/DP.BMP,Door4,-0.329427083,-0.102864583,1,0,0,1.7798,optionLeft,80,4135,2,37,0,37,0,1,,,,,,,,,,,,,,,,,,,,,,,,,,,,,,,,,,,,,,,
,,,,,,,,2023-08-16_08h43.47.264,HF_wild_card,2022.2.4,Win32,60.2373351,5d8272296cca0b001759f562,64d2fd46c836a06233681665,64dc7e21ed9d66855003348f,,,,,,,sngl,resources/DY.BMP,resources/Empty.png,Door4,-0.30078125,0.0859375,1,0,0,0.7001,optionLeft,60,4195,2,38,0,38,0,1,,,,,,,,,,,,,,,,,,,,,,,,,,,,,,,,,,,,,,,
,,,,,,,,2023-08-16_08h43.47.264,HF_wild_card,2022.2.4,Win32,60.2373351,5d8272296cca0b001759f562,64d2fd46c836a06233681665,64dc7e21ed9d66855003348f,,,,,,,sngl,resources/Empty.png,resources/DY.BMP,Door4,0.4609375,0.015625,1,0,0,0.551,optionRight,80,4275,2,39,0,39,0,1,,,,,,,,,,,,,,,,,,,,,,,,,,,,,,,,,,,,,,,
,,,,,,,,2023-08-16_08h43.47.264,HF_wild_card,2022.2.4,Win32,60.2373351,5d8272296cca0b001759f562,64d2fd46c836a06233681665,64dc7e21ed9d66855003348f,,,,,,,sngl,resources/DBN.BMP,resources/Empty.png,Door2,-0.28125,0.204427083,1,0,0,0.9985,optionLeft,20,4295,2,40,0,40,0,1,,,,,,,,,,,,,,,,,,,,,,,,,,,,,,,,,,,,,,,
,,,,,,,,2023-08-16_08h43.47.264,HF_wild_card,2022.2.4,Win32,60.2373351,5d8272296cca0b001759f562,64d2fd46c836a06233681665,64dc7e21ed9d66855003348f,,,,,,,ctch,resources/DY.BMP,resources/DG.BMP,Door1,0.21484375,-0.072916667,1,0,0,1.0309,optionRight,30,4325,2,41,0,41,0,1,,,,,,,,,,,,,,,,,,,,,,,,,,,,,,,,,,,,,,,
,,,,,,,,2023-08-16_08h43.47.264,HF_wild_card,2022.2.4,Win32,60.2373351,5d8272296cca0b001759f562,64d2fd46c836a06233681665,64dc7e21ed9d66855003348f,,,,,,,decisionTrl,resources/DP.BMP,resources/DY.BMP,Door4,0.19921875,-0.075520833,1,0,0,0.5444,optionRight,60,4385,2,42,0,42,0,1,,,,,,,,,,,,,,,,,,,,,,,,,,,,,,,,,,,,,,,
,,,,,,,,2023-08-16_08h43.47.264,HF_wild_card,2022.2.4,Win32,60.2373351,5d8272296cca0b001759f562,64d2fd46c836a06233681665,64dc7e21ed9d66855003348f,,,,,,,decisionTrl,resources/DB.BMP,resources/DY.BMP,WildCard_Ex,-0.27734375,0.010416667,1,0,0,0.9695,optionLeft,5,4390,2,43,0,43,0,1,,,,,,,,,,,,,,,,,,,,,,,,,,,,,,,,,,,,,,,
,,,,,,,,2023-08-16_08h43.47.264,HF_wild_card,2022.2.4,Win32,60.2373351,5d8272296cca0b001759f562,64d2fd46c836a06233681665,64dc7e21ed9d66855003348f,,,,,,,,,,,,,,,,,,,,,,,,,,1,0,1,0,1,,,,,,,,,,,,,,,,,,,,,,,,,,,,,,,,,,
,,,,,,,,2023-08-16_08h43.47.264,HF_wild_card,2022.2.4,Win32,60.2373351,5d8272296cca0b001759f562,64d2fd46c836a06233681665,64dc7e21ed9d66855003348f,,,,,,,sngl,resources/DBN.BMP,resources/Empty.png,Door2,-0.25390625,-0.020833333,1,0,0,0.7631,optionLeft,40,4430,3,0,0,0,0,1,,,,,,,,,,,,,,,,,,,,,,,,,,,,,,,,,,,,,,,
,,,,,,,,2023-08-16_08h43.47.264,HF_wild_card,2022.2.4,Win32,60.2373351,5d8272296cca0b001759f562,64d2fd46c836a06233681665,64dc7e21ed9d66855003348f,,,,,,,decisionTrl,resources/DP.BMP,resources/DY.BMP,Door3,-0.223958333,-0.158854167,1,0,0,1.3949,optionLeft,70,4500,3,1,0,1,0,1,,,,,,,,,,,,,,,,,,,,,,,,,,,,,,,,,,,,,,,
,,,,,,,,2023-08-16_08h43.47.264,HF_wild_card,2022.2.4,Win32,60.2373351,5d8272296cca0b001759f562,64d2fd46c836a06233681665,64dc7e21ed9d66855003348f,,,,,,,decisionTrl,resources/DP.BMP,resources/DY.BMP,Door3,-0.205729167,-0.127604167,1,0,0,0.681,optionLeft,70,4570,3,2,0,2,0,1,,,,,,,,,,,,,,,,,,,,,,,,,,,,,,,,,,,,,,,
,,,,,,,,2023-08-16_08h43.47.264,HF_wild_card,2022.2.4,Win32,60.2373351,5d8272296cca0b001759f562,64d2fd46c836a06233681665,64dc7e21ed9d66855003348f,,,,,,,ctch,resources/DG.BMP,resources/DY.BMP,Door4,0.216145833,-0.071614583,1,0,0,1.417,optionRight,80,4650,3,3,0,3,0,1,,,,,,,,,,,,,,,,,,,,,,,,,,,,,,,,,,,,,,,
,,,,,,,,2023-08-16_08h43.47.264,HF_wild_card,2022.2.4,Win32,60.2373351,5d8272296cca0b001759f562,64d2fd46c836a06233681665,64dc7e21ed9d66855003348f,,,,,,,sngl,resources/Empty.png,resources/DB.BMP,WildCard_Ex,0.302083333,-0.10546875,1,0,0,0.6757,optionRight,5,4655,3,4,0,4,0,1,,,,,,,,,,,,,,,,,,,,,,,,,,,,,,,,,,,,,,,
,,,,,,,,2023-08-16_08h43.47.264,HF_wild_card,2022.2.4,Win32,60.2373351,5d8272296cca0b001759f562,64d2fd46c836a06233681665,64dc7e21ed9d66855003348f,,,,,,,decisionTrl,resources/DY.BMP,resources/DP.BMP,Door4,-0.2265625,-0.09765625,1,0,0,0.6788,optionLeft,60,4715,3,5,0,5,0,1,,,,,,,,,,,,,,,,,,,,,,,,,,,,,,,,,,,,,,,
,,,,,,,,2023-08-16_08h43.47.264,HF_wild_card,2022.2.4,Win32,60.2373351,5d8272296cca0b001759f562,64d2fd46c836a06233681665,64dc7e21ed9d66855003348f,,,,,,,decisionTrl,resources/DY.BMP,resources/DP.BMP,Door4,-0.19921875,-0.102864583,1,0,0,0.6102,optionLeft,60,4775,3,6,0,6,0,1,,,,,,,,,,,,,,,,,,,,,,,,,,,,,,,,,,,,,,,
,,,,,,,,2023-08-16_08h43.47.264,HF_wild_card,2022.2.4,Win32,60.2373351,5d8272296cca0b001759f562,64d2fd46c836a06233681665,64dc7e21ed9d66855003348f,,,,,,,decisionTrl,resources/DY.BMP,resources/DP.BMP,Door4,-0.209635417,-0.063802083,1,0,0,0.6541,optionLeft,80,4855,3,7,0,7,0,1,,,,,,,,,,,,,,,,,,,,,,,,,,,,,,,,,,,,,,,
,,,,,,,,2023-08-16_08h43.47.264,HF_wild_card,2022.2.4,Win32,60.2373351,5d8272296cca0b001759f562,64d2fd46c836a06233681665,64dc7e21ed9d66855003348f,,,,,,,sngl,resources/Empty.png,resources/DP.BMP,Door3,0.251302083,-0.10546875,1,0,0,0.5791,optionRight,70,4925,3,8,0,8,0,1,,,,,,,,,,,,,,,,,,,,,,,,,,,,,,,,,,,,,,,
,,,,,,,,2023-08-16_08h43.47.264,HF_wild_card,2022.2.4,Win32,60.2373351,5d8272296cca0b001759f562,64d2fd46c836a06233681665,64dc7e21ed9d66855003348f,,,,,,,decisionTrl,resources/DBN.BMP,resources/DG.BMP,Door1,0.2265625,-0.13671875,1,0,0,0.8423,optionRight,30,4955,3,9,0,9,0,1,,,,,,,,,,,,,,,,,,,,,,,,,,,,,,,,,,,,,,,
,,,,,,,,2023-08-16_08h43.47.264,HF_wild_card,2022.2.4,Win32,60.2373351,5d8272296cca0b001759f562,64d2fd46c836a06233681665,64dc7e21ed9d66855003348f,,,,,,,sngl,resources/Empty.png,resources/DY.BMP,Door4,0.19921875,-0.041666667,1,0,0,0.536,optionRight,60,5015,3,10,0,10,0,1,,,,,,,,,,,,,,,,,,,,,,,,,,,,,,,,,,,,,,,
,,,,,,,,2023-08-16_08h43.47.264,HF_wild_card,2022.2.4,Win32,60.2373351,5d8272296cca0b001759f562,64d2fd46c836a06233681665,64dc7e21ed9d66855003348f,,,,,,,decisionTrl,resources/DP.BMP,resources/DY.BMP,Door3,-0.2421875,-0.1015625,1,0,0,0.8385,optionLeft,70,5085,3,11,0,11,0,1,,,,,,,,,,,,,,,,,,,,,,,,,,,,,,,,,,,,,,,
,,,,,,,,2023-08-16_08h43.47.264,HF_wild_card,2022.2.4,Win32,60.2373351,5d8272296cca0b001759f562,64d2fd46c836a06233681665,64dc7e21ed9d66855003348f,,,,,,,decisionTrl,resources/DG.BMP,resources/DBN.BMP,Door1,-0.19921875,-0.063802083,1,0,0,0.7637,optionLeft,30,5115,3,12,0,12,0,1,,,,,,,,,,,,,,,,,,,,,,,,,,,,,,,,,,,,,,,
,,,,,,,,2023-08-16_08h43.47.264,HF_wild_card,2022.2.4,Win32,60.2373351,5d8272296cca0b001759f562,64d2fd46c836a06233681665,64dc7e21ed9d66855003348f,,,,,,,sngl,resources/DG.BMP,resources/Empty.png,Door1,-0.1875,-0.11328125,1,0,0,0.6269,optionLeft,30,5145,3,13,0,13,0,1,,,,,,,,,,,,,,,,,,,,,,,,,,,,,,,,,,,,,,,
,,,,,,,,2023-08-16_08h43.47.264,HF_wild_card,2022.2.4,Win32,60.2373351,5d8272296cca0b001759f562,64d2fd46c836a06233681665,64dc7e21ed9d66855003348f,,,,,,,sngl,resources/Empty.png,resources/DBN.BMP,Door2,0.1484375,-0.079427083,1,0,0,0.7219,optionRight,20,5165,3,14,0,14,0,1,,,,,,,,,,,,,,,,,,,,,,,,,,,,,,,,,,,,,,,
,,,,,,,,2023-08-16_08h43.47.264,HF_wild_card,2022.2.4,Win32,60.2373351,5d8272296cca0b001759f562,64d2fd46c836a06233681665,64dc7e21ed9d66855003348f,,,,,,,sngl,resources/DY.BMP,resources/Empty.png,Door4,-0.240885417,-0.0859375,1,0,0,0.6204,optionLeft,80,5245,3,15,0,15,0,1,,,,,,,,,,,,,,,,,,,,,,,,,,,,,,,,,,,,,,,
,,,,,,,,2023-08-16_08h43.47.264,HF_wild_card,2022.2.4,Win32,60.2373351,5d8272296cca0b001759f562,64d2fd46c836a06233681665,64dc7e21ed9d66855003348f,,,,,,,ctch,resources/DBN.BMP,resources/DP.BMP,Door3,0.348958333,-0.001302083,1,0,0,1.1909,optionRight,70,5315,3,16,0,16,0,1,,,,,,,,,,,,,,,,,,,,,,,,,,,,,,,,,,,,,,,
,,,,,,,,2023-08-16_08h43.47.264,HF_wild_card,2022.2.4,Win32,60.2373351,5d8272296cca0b001759f562,64d2fd46c836a06233681665,64dc7e21ed9d66855003348f,,,,,,,sngl,resources/Empty.png,resources/DB.BMP,WildCard_Ex,0.345052083,-0.02734375,1,0,0,0.5948,optionRight,95,5410,3,17,0,17,0,1,,,,,,,,,,,,,,,,,,,,,,,,,,,,,,,,,,,,,,,
,,,,,,,,2023-08-16_08h43.47.264,HF_wild_card,2022.2.4,Win32,60.2373351,5d8272296cca0b001759f562,64d2fd46c836a06233681665,64dc7e21ed9d66855003348f,,,,,,,sngl,resources/DB.BMP,resources/Empty.png,WildCard_Ex,-0.234375,-0.134114583,1,0,0,0.4963,optionLeft,95,5505,3,18,0,18,0,1,,,,,,,,,,,,,,,,,,,,,,,,,,,,,,,,,,,,,,,
,,,,,,,,2023-08-16_08h43.47.264,HF_wild_card,2022.2.4,Win32,60.2373351,5d8272296cca0b001759f562,64d2fd46c836a06233681665,64dc7e21ed9d66855003348f,,,,,,,sngl,resources/DB.BMP,resources/Empty.png,WildCard_Ex,-0.239583333,-0.122395833,1,0,0,1.1148,optionLeft,5,5510,3,19,0,19,0,1,,,,,,,,,,,,,,,,,,,,,,,,,,,,,,,,,,,,,,,
,,,,,,,,2023-08-16_08h43.47.264,HF_wild_card,2022.2.4,Win32,60.2373351,5d8272296cca0b001759f562,64d2fd46c836a06233681665,64dc7e21ed9d66855003348f,,,,,,,decisionTrl,resources/DG.BMP,resources/DBN.BMP,Door1,-0.205729167,-0.123697917,1,0,0,0.8274,optionLeft,30,5540,3,20,0,20,0,1,,,,,,,,,,,,,,,,,,,,,,,,,,,,,,,,,,,,,,,
,,,,,,,,2023-08-16_08h43.47.264,HF_wild_card,2022.2.4,Win32,60.2373351,5d8272296cca0b001759f562,64d2fd46c836a06233681665,64dc7e21ed9d66855003348f,,,,,,,decisionTrl,resources/DY.BMP,resources/DB.BMP,WildCard_Ex,0.21875,-0.0390625,1,0,0,0.5466,optionRight,5,5545,3,21,0,21,0,1,,,,,,,,,,,,,,,,,,,,,,,,,,,,,,,,,,,,,,,
,,,,,,,,2023-08-16_08h43.47.264,HF_wild_card,2022.2.4,Win32,60.2373351,5d8272296cca0b001759f562,64d2fd46c836a06233681665,64dc7e21ed9d66855003348f,,,,,,,decisionTrl,resources/DB.BMP,resources/DBN.BMP,WildCard_Ex,-0.2421875,-0.139322917,1,0,0,0.554,optionLeft,5,5550,3,22,0,22,0,1,,,,,,,,,,,,,,,,,,,,,,,,,,,,,,,,,,,,,,,
,,,,,,,,2023-08-16_08h43.47.264,HF_wild_card,2022.2.4,Win32,60.2373351,5d8272296cca0b001759f562,64d2fd46c836a06233681665,64dc7e21ed9d66855003348f,,,,,,,decisionTrl,resources/DBN.BMP,resources/DB.BMP,WildCard_Ex,0.21484375,-0.046875,1,0,0,0.5714,optionRight,95,5645,3,23,0,23,0,1,,,,,,,,,,,,,,,,,,,,,,,,,,,,,,,,,,,,,,,
,,,,,,,,2023-08-16_08h43.47.264,HF_wild_card,2022.2.4,Win32,60.2373351,5d8272296cca0b001759f562,64d2fd46c836a06233681665,64dc7e21ed9d66855003348f,,,,,,,decisionTrl,resources/DG.BMP,resources/DBN.BMP,Door1,-0.213541667,-0.145833333,1,0,0,0.9887,optionLeft,30,5675,3,24,0,24,0,1,,,,,,,,,,,,,,,,,,,,,,,,,,,,,,,,,,,,,,,
,,,,,,,,2023-08-16_08h43.47.264,HF_wild_card,2022.2.4,Win32,60.2373351,5d8272296cca0b001759f562,64d2fd46c836a06233681665,64dc7e21ed9d66855003348f,,,,,,,decisionTrl,resources/DG.BMP,resources/DBN.BMP,Door1,-0.227864583,-0.126302083,1,0,0,0.6859,optionLeft,30,5705,3,25,0,25,0,1,,,,,,,,,,,,,,,,,,,,,,,,,,,,,,,,,,,,,,,
,,,,,,,,2023-08-16_08h43.47.264,HF_wild_card,2022.2.4,Win32,60.2373351,5d8272296cca0b001759f562,64d2fd46c836a06233681665,64dc7e21ed9d66855003348f,,,,,,,ctch,resources/DG.BMP,resources/DY.BMP,Door4,0.23828125,-0.002604167,1,0,0,1.0171,optionRight,80,5785,3,26,0,26,0,1,,,,,,,,,,,,,,,,,,,,,,,,,,,,,,,,,,,,,,,
,,,,,,,,2023-08-16_08h43.47.264,HF_wild_card,2022.2.4,Win32,60.2373351,5d8272296cca0b001759f562,64d2fd46c836a06233681665,64dc7e21ed9d66855003348f,,,,,,,decisionTrl,resources/DBN.BMP,resources/DG.BMP,Door1,0.3359375,0.015625,1,0,0,0.8359,optionRight,30,5815,3,27,0,27,0,1,,,,,,,,,,,,,,,,,,,,,,,,,,,,,,,,,,,,,,,
,,,,,,,,2023-08-16_08h43.47.264,HF_wild_card,2022.2.4,Win32,60.2373351,5d8272296cca0b001759f562,64d2fd46c836a06233681665,64dc7e21ed9d66855003348f,,,,,,,ctch,resources/DY.BMP,resources/DG.BMP,Door4,-0.274739583,-0.157552083,1,0,0,0.7474,optionLeft,80,5895,3,28,0,28,0,1,,,,,,,,,,,,,,,,,,,,,,,,,,,,,,,,,,,,,,,
,,,,,,,,2023-08-16_08h43.47.264,HF_wild_card,2022.2.4,Win32,60.2373351,5d8272296cca0b001759f562,64d2fd46c836a06233681665,64dc7e21ed9d66855003348f,,,,,,,sngl,resources/DP.BMP,resources/Empty.png,Door3,-0.217447917,-0.122395833,1,0,0,0.5511,optionLeft,70,5965,3,29,0,29,0,1,,,,,,,,,,,,,,,,,,,,,,,,,,,,,,,,,,,,,,,
,,,,,,,,2023-08-16_08h43.47.264,HF_wild_card,2022.2.4,Win32,60.2373351,5d8272296cca0b001759f562,64d2fd46c836a06233681665,64dc7e21ed9d66855003348f,,,,,,,decisionTrl,resources/DB.BMP,resources/DG.BMP,WildCard_Ex,-0.235677083,-0.139322917,1,0,0,0.7656,optionLeft,95,6060,3,30,0,30,0,1,,,,,,,,,,,,,,,,,,,,,,,,,,,,,,,,,,,,,,,
,,,,,,,,2023-08-16_08h43.47.264,HF_wild_card,2022.2.4,Win32,60.2373351,5d8272296cca0b001759f562,64d2fd46c836a06233681665,64dc7e21ed9d66855003348f,,,,,,,sngl,resources/Empty.png,resources/DG.BMP,Door1,0.313802083,0.014322917,1,0,0,0.5616,optionRight,30,6090,3,31,0,31,0,1,,,,,,,,,,,,,,,,,,,,,,,,,,,,,,,,,,,,,,,
,,,,,,,,2023-08-16_08h43.47.264,HF_wild_card,2022.2.4,Win32,60.2373351,5d8272296cca0b001759f562,64d2fd46c836a06233681665,64dc7e21ed9d66855003348f,,,,,,,ctch,resources/DP.BMP,resources/DBN.BMP,Door3,-0.197916667,-0.12890625,1,0,0,1.0137,optionLeft,70,6160,3,32,0,32,0,1,,,,,,,,,,,,,,,,,,,,,,,,,,,,,,,,,,,,,,,
,,,,,,,,2023-08-16_08h43.47.264,HF_wild_card,2022.2.4,Win32,60.2373351,5d8272296cca0b001759f562,64d2fd46c836a06233681665,64dc7e21ed9d66855003348f,,,,,,,ctch,resources/DY.BMP,resources/DG.BMP,Door4,-0.177083333,-0.1484375,1,0,0,1.0404,optionLeft,60,6220,3,33,0,33,0,1,,,,,,,,,,,,,,,,,,,,,,,,,,,,,,,,,,,,,,,
,,,,,,,,2023-08-16_08h43.47.264,HF_wild_card,2022.2.4,Win32,60.2373351,5d8272296cca0b001759f562,64d2fd46c836a06233681665,64dc7e21ed9d66855003348f,,,,,,,ctch,resources/DBN.BMP,resources/DP.BMP,Door3,0.213541667,0.028645833,1,0,0,0.781,optionRight,70,6290,3,34,0,34,0,1,,,,,,,,,,,,,,,,,,,,,,,,,,,,,,,,,,,,,,,
,,,,,,,,2023-08-16_08h43.47.264,HF_wild_card,2022.2.4,Win32,60.2373351,5d8272296cca0b001759f562,64d2fd46c836a06233681665,64dc7e21ed9d66855003348f,,,,,,,decisionTrl,resources/DP.BMP,resources/DB.BMP,WildCard_Ex,0.216145833,0.03515625,1,0,0,0.6485,optionRight,95,6385,3,35,0,35,0,1,,,,,,,,,,,,,,,,,,,,,,,,,,,,,,,,,,,,,,,
,,,,,,,,2023-08-16_08h43.47.264,HF_wild_card,2022.2.4,Win32,60.2373351,5d8272296cca0b001759f562,64d2fd46c836a06233681665,64dc7e21ed9d66855003348f,,,,,,,decisionTrl,resources/DBN.BMP,resources/DG.BMP,Door1,0.21484375,0.029947917,1,0,0,0.7152,optionRight,30,6415,3,36,0,36,0,1,,,,,,,,,,,,,,,,,,,,,,,,,,,,,,,,,,,,,,,
,,,,,,,,2023-08-16_08h43.47.264,HF_wild_card,2022.2.4,Win32,60.2373351,5d8272296cca0b001759f562,64d2fd46c836a06233681665,64dc7e21ed9d66855003348f,,,,,,,decisionTrl,resources/DY.BMP,resources/DP.BMP,Door4,-0.180989583,-0.141927083,1,0,0,1.3085,optionLeft,80,6495,3,37,0,37,0,1,,,,,,,,,,,,,,,,,,,,,,,,,,,,,,,,,,,,,,,
,,,,,,,,2023-08-16_08h43.47.264,HF_wild_card,2022.2.4,Win32,60.2373351,5d8272296cca0b001759f562,64d2fd46c836a06233681665,64dc7e21ed9d66855003348f,,,,,,,ctch,resources/DP.BMP,resources/DBN.BMP,Door3,-0.21484375,-0.153645833,1,0,0,0.7483,optionLeft,70,6565,3,38,0,38,0,1,,,,,,,,,,,,,,,,,,,,,,,,,,,,,,,,,,,,,,,
,,,,,,,,2023-08-16_08h43.47.264,HF_wild_card,2022.2.4,Win32,60.2373351,5d8272296cca0b001759f562,64d2fd46c836a06233681665,64dc7e21ed9d66855003348f,,,,,,,decisionTrl,resources/DG.BMP,resources/DB.BMP,WildCard_Ex,0.278645833,0.015625,1,0,0,0.8081,optionRight,95,6660,3,39,0,39,0,1,,,,,,,,,,,,,,,,,,,,,,,,,,,,,,,,,,,,,,,
,,,,,,,,2023-08-16_08h43.47.264,HF_wild_card,2022.2.4,Win32,60.2373351,5d8272296cca0b001759f562,64d2fd46c836a06233681665,64dc7e21ed9d66855003348f,,,,,,,decisionTrl,resources/DBN.BMP,resources/DG.BMP,Door1,0.270833333,0.057291667,1,0,0,0.8125,optionRight,30,6690,3,40,0,40,0,1,,,,,,,,,,,,,,,,,,,,,,,,,,,,,,,,,,,,,,,
,,,,,,,,2023-08-16_08h43.47.264,HF_wild_card,2022.2.4,Win32,60.2373351,5d8272296cca0b001759f562,64d2fd46c836a06233681665,64dc7e21ed9d66855003348f,,,,,,,decisionTrl,resources/DB.BMP,resources/DP.BMP,WildCard_Ex,-0.201822917,-0.126302083,1,0,0,0.8884,optionLeft,95,6785,3,41,0,41,0,1,,,,,,,,,,,,,,,,,,,,,,,,,,,,,,,,,,,,,,,
,,,,,,,,2023-08-16_08h43.47.264,HF_wild_card,2022.2.4,Win32,60.2373351,5d8272296cca0b001759f562,64d2fd46c836a06233681665,64dc7e21ed9d66855003348f,,,,,,,decisionTrl,resources/DP.BMP,resources/DY.BMP,Door4,0.24609375,0.053385417,1,0,0,1.5657,optionRight,60,6845,3,42,0,42,0,1,,,,,,,,,,,,,,,,,,,,,,,,,,,,,,,,,,,,,,,
,,,,,,,,2023-08-16_08h43.47.264,HF_wild_card,2022.2.4,Win32,60.2373351,5d8272296cca0b001759f562,64d2fd46c836a06233681665,64dc7e21ed9d66855003348f,,,,,,,decisionTrl,resources/DB.BMP,resources/DY.BMP,Door4,0.21484375,0.0234375,1,0,0,0.764,optionRight,60,6905,3,43,0,43,0,1,,,,,,,,,,,,,,,,,,,,,,,,,,,,,,,,,,,,,,,
,,,,,,,,2023-08-16_08h43.47.264,HF_wild_card,2022.2.4,Win32,60.2373351,5d8272296cca0b001759f562,64d2fd46c836a06233681665,64dc7e21ed9d66855003348f,,,,,,,,,,,,,,,,,,,,,,,,,,2,0,2,0,1,,,,,,,,,,,,,,,,,,,,,,,,,,,,,,,,,,
,,,,,,,,2023-08-16_08h43.47.264,HF_wild_card,2022.2.4,Win32,60.2373351,5d8272296cca0b001759f562,64d2fd46c836a06233681665,64dc7e21ed9d66855003348f,,,,,,,decisionTrl,resources/DG.BMP,resources/DR.BMP,WildCard_NonEx,0.21484375,-0.065104167,1,0,0,2.1233,optionRight,55,6960,4,0,0,0,0,1,,,,,,,,,,,,,,,,,,,,,,,,,,,,,,,,,,,,,,,
,,,,,,,,2023-08-16_08h43.47.264,HF_wild_card,2022.2.4,Win32,60.2373351,5d8272296cca0b001759f562,64d2fd46c836a06233681665,64dc7e21ed9d66855003348f,,,,,,,sngl,resources/Empty.png,resources/DP.BMP,Door3,0.240885417,-0.05859375,1,0,0,0.6698,optionRight,70,7030,4,1,0,1,0,1,,,,,,,,,,,,,,,,,,,,,,,,,,,,,,,,,,,,,,,
,,,,,,,,2023-08-16_08h43.47.264,HF_wild_card,2022.2.4,Win32,60.2373351,5d8272296cca0b001759f562,64d2fd46c836a06233681665,64dc7e21ed9d66855003348f,,,,,,,sngl,resources/Empty.png,resources/DY.BMP,Door4,0.239583333,-0.024739583,1,0,0,0.5634,optionRight,80,7110,4,2,0,2,0,1,,,,,,,,,,,,,,,,,,,,,,,,,,,,,,,,,,,,,,,
,,,,,,,,2023-08-16_08h43.47.264,HF_wild_card,2022.2.4,Win32,60.2373351,5d8272296cca0b001759f562,64d2fd46c836a06233681665,64dc7e21ed9d66855003348f,,,,,,,ctch,resources/DBN.BMP,resources/DP.BMP,Door3,0.220052083,0.009114583,1,0,0,0.8933,optionRight,70,7180,4,3,0,3,0,1,,,,,,,,,,,,,,,,,,,,,,,,,,,,,,,,,,,,,,,
,,,,,,,,2023-08-16_08h43.47.264,HF_wild_card,2022.2.4,Win32,60.2373351,5d8272296cca0b001759f562,64d2fd46c836a06233681665,64dc7e21ed9d66855003348f,,,,,,,decisionTrl,resources/DY.BMP,resources/DP.BMP,Door4,-0.217447917,-0.149739583,1,0,0,0.9522,optionLeft,60,7240,4,4,0,4,0,1,,,,,,,,,,,,,,,,,,,,,,,,,,,,,,,,,,,,,,,
,,,,,,,,2023-08-16_08h43.47.264,HF_wild_card,2022.2.4,Win32,60.2373351,5d8272296cca0b001759f562,64d2fd46c836a06233681665,64dc7e21ed9d66855003348f,,,,,,,decisionTrl,resources/DP.BMP,resources/DY.BMP,Door4,0.278645833,-0.12890625,1,0,0,1.1488,optionRight,60,7300,4,5,0,5,0,1,,,,,,,,,,,,,,,,,,,,,,,,,,,,,,,,,,,,,,,
,,,,,,,,2023-08-16_08h43.47.264,HF_wild_card,2022.2.4,Win32,60.2373351,5d8272296cca0b001759f562,64d2fd46c836a06233681665,64dc7e21ed9d66855003348f,,,,,,,decisionTrl,resources/DP.BMP,resources/DR.BMP,Door3,-0.208333333,-0.12109375,1,0,0,3.0567,optionLeft,70,7370,4,6,0,6,0,1,,,,,,,,,,,,,,,,,,,,,,,,,,,,,,,,,,,,,,,
,,,,,,,,2023-08-16_08h43.47.264,HF_wild_card,2022.2.4,Win32,60.2373351,5d8272296cca0b001759f562,64d2fd46c836a06233681665,64dc7e21ed9d66855003348f,,,,,,,ctch,resources/DG.BMP,resources/DY.BMP,Door4,0.20703125,-0.049479167,1,0,0,1.233,optionRight,60,7430,4,7,0,7,0,1,,,,,,,,,,,,,,,,,,,,,,,,,,,,,,,,,,,,,,,
,,,,,,,,2023-08-16_08h43.47.264,HF_wild_card,2022.2.4,Win32,60.2373351,5d8272296cca0b001759f562,64d2fd46c836a06233681665,64dc7e21ed9d66855003348f,,,,,,,decisionTrl,resources/DR.BMP,resources/DY.BMP,Door4,0.213541667,-0.036458333,1,0,0,1.8168,optionRight,60,7490,4,8,0,8,0,1,,,,,,,,,,,,,,,,,,,,,,,,,,,,,,,,,,,,,,,
,,,,,,,,2023-08-16_08h43.47.264,HF_wild_card,2022.2.4,Win32,60.2373351,5d8272296cca0b001759f562,64d2fd46c836a06233681665,64dc7e21ed9d66855003348f,,,,,,,sngl,resources/Empty.png,resources/DR.BMP,WildCard_NonEx,0.243489583,-0.06640625,1,0,0,0.7041,optionRight,45,7535,4,9,0,9,0,1,,,,,,,,,,,,,,,,,,,,,,,,,,,,,,,,,,,,,,,
,,,,,,,,2023-08-16_08h43.47.264,HF_wild_card,2022.2.4,Win32,60.2373351,5d8272296cca0b001759f562,64d2fd46c836a06233681665,64dc7e21ed9d66855003348f,,,,,,,decisionTrl,resources/DY.BMP,resources/DP.BMP,Door4,-0.21875,-0.12890625,1,0,0,1.6072,optionLeft,60,7595,4,10,0,10,0,1,,,,,,,,,,,,,,,,,,,,,,,,,,,,,,,,,,,,,,,
,,,,,,,,2023-08-16_08h43.47.264,HF_wild_card,2022.2.4,Win32,60.2373351,5d8272296cca0b001759f562,64d2fd46c836a06233681665,64dc7e21ed9d66855003348f,,,,,,,sngl,resources/DR.BMP,resources/Empty.png,WildCard_NonEx,-0.231770833,-0.12890625,1,0,0,0.613,optionLeft,45,7640,4,11,0,11,0,1,,,,,,,,,,,,,,,,,,,,,,,,,,,,,,,,,,,,,,,
,,,,,,,,2023-08-16_08h43.47.264,HF_wild_card,2022.2.4,Win32,60.2373351,5d8272296cca0b001759f562,64d2fd46c836a06233681665,64dc7e21ed9d66855003348f,,,,,,,decisionTrl,resources/DR.BMP,resources/DBN.BMP,WildCard_NonEx,-0.26171875,-0.125,1,0,0,0.8318,optionLeft,45,7685,4,12,0,12,0,1,,,,,,,,,,,,,,,,,,,,,,,,,,,,,,,,,,,,,,,
,,,,,,,,2023-08-16_08h43.47.264,HF_wild_card,2022.2.4,Win32,60.2373351,5d8272296cca0b001759f562,64d2fd46c836a06233681665,64dc7e21ed9d66855003348f,,,,,,,sngl,resources/DG.BMP,resources/Empty.png,Door1,-0.153645833,-0.08984375,1,0,0,0.5287,optionLeft,30,7715,4,13,0,13,0,1,,,,,,,,,,,,,,,,,,,,,,,,,,,,,,,,,,,,,,,
,,,,,,,,2023-08-16_08h43.47.264,HF_wild_card,2022.2.4,Win32,60.2373351,5d8272296cca0b001759f562,64d2fd46c836a06233681665,64dc7e21ed9d66855003348f,,,,,,,decisionTrl,resources/DY.BMP,resources/DP.BMP,Door3,0.321614583,-0.104166667,1,0,0,1.1211,optionRight,70,7785,4,14,0,14,0,1,,,,,,,,,,,,,,,,,,,,,,,,,,,,,,,,,,,,,,,
,,,,,,,,2023-08-16_08h43.47.264,HF_wild_card,2022.2.4,Win32,60.2373351,5d8272296cca0b001759f562,64d2fd46c836a06233681665,64dc7e21ed9d66855003348f,,,,,,,decisionTrl,resources/DBN.BMP,resources/DG.BMP,Door1,0.391927083,-0.09765625,1,0,0,0.8481,optionRight,30,7815,4,15,0,15,0,1,,,,,,,,,,,,,,,,,,,,,,,,,,,,,,,,,,,,,,,
,,,,,,,,2023-08-16_08h43.47.264,HF_wild_card,2022.2.4,Win32,60.2373351,5d8272296cca0b001759f562,64d2fd46c836a06233681665,64dc7e21ed9d66855003348f,,,,,,,decisionTrl,resources/DY.BMP,resources/DR.BMP,Door4,-0.216145833,-0.149739583,1,0,0,1.4428,optionLeft,60,7875,4,16,0,16,0,1,,,,,,,,,,,,,,,,,,,,,,,,,,,,,,,,,,,,,,,
,,,,,,,,2023-08-16_08h43.47.264,HF_wild_card,2022.2.4,Win32,60.2373351,5d8272296cca0b001759f562,64d2fd46c836a06233681665,64dc7e21ed9d66855003348f,,,,,,,decisionTrl,resources/DR.BMP,resources/DG.BMP,WildCard_NonEx,-0.223958333,-0.15625,1,0,0,1.0627,optionLeft,45,7920,4,17,0,17,0,1,,,,,,,,,,,,,,,,,,,,,,,,,,,,,,,,,,,,,,,
,,,,,,,,2023-08-16_08h43.47.264,HF_wild_card,2022.2.4,Win32,60.2373351,5d8272296cca0b001759f562,64d2fd46c836a06233681665,64dc7e21ed9d66855003348f,,,,,,,decisionTrl,resources/DBN.BMP,resources/DR.BMP,WildCard_NonEx,0.346354167,-0.123697917,1,0,0,0.9404,optionRight,45,7965,4,18,0,18,0,1,,,,,,,,,,,,,,,,,,,,,,,,,,,,,,,,,,,,,,,
,,,,,,,,2023-08-16_08h43.47.264,HF_wild_card,2022.2.4,Win32,60.2373351,5d8272296cca0b001759f562,64d2fd46c836a06233681665,64dc7e21ed9d66855003348f,,,,,,,decisionTrl,resources/DG.BMP,resources/DBN.BMP,Door1,-0.227864583,-0.149739583,1,0,0,0.7144,optionLeft,30,7995,4,19,0,19,0,1,,,,,,,,,,,,,,,,,,,,,,,,,,,,,,,,,,,,,,,
,,,,,,,,2023-08-16_08h43.47.264,HF_wild_card,2022.2.4,Win32,60.2373351,5d8272296cca0b001759f562,64d2fd46c836a06233681665,64dc7e21ed9d66855003348f,,,,,,,sngl,resources/DBN.BMP,resources/Empty.png,Door2,-0.203125,-0.145833333,1,0,0,1.0131,optionLeft,20,8015,4,20,0,20,0,1,,,,,,,,,,,,,,,,,,,,,,,,,,,,,,,,,,,,,,,
,,,,,,,,2023-08-16_08h43.47.264,HF_wild_card,2022.2.4,Win32,60.2373351,5d8272296cca0b001759f562,64d2fd46c836a06233681665,64dc7e21ed9d66855003348f,,,,,,,decisionTrl,resources/DP.BMP,resources/DY.BMP,Door3,-0.21484375,-0.14453125,1,0,0,1.0815,optionLeft,70,8085,4,21,0,21,0,1,,,,,,,,,,,,,,,,,,,,,,,,,,,,,,,,,,,,,,,
,,,,,,,,2023-08-16_08h43.47.264,HF_wild_card,2022.2.4,Win32,60.2373351,5d8272296cca0b001759f562,64d2fd46c836a06233681665,64dc7e21ed9d66855003348f,,,,,,,ctch,resources/DP.BMP,resources/DBN.BMP,Door3,-0.208333333,-0.158854167,1,0,0,0.6756,optionLeft,70,8155,4,22,0,22,0,1,,,,,,,,,,,,,,,,,,,,,,,,,,,,,,,,,,,,,,,
,,,,,,,,2023-08-16_08h43.47.264,HF_wild_card,2022.2.4,Win32,60.2373351,5d8272296cca0b001759f562,64d2fd46c836a06233681665,64dc7e21ed9d66855003348f,,,,,,,ctch,resources/DY.BMP,resources/DG.BMP,Door4,-0.208333333,-0.141927083,1,0,0,1.2328,optionLeft,60,8215,4,23,0,23,0,1,,,,,,,,,,,,,,,,,,,,,,,,,,,,,,,,,,,,,,,
,,,,,,,,2023-08-16_08h43.47.264,HF_wild_card,2022.2.4,Win32,60.2373351,5d8272296cca0b001759f562,64d2fd46c836a06233681665,64dc7e21ed9d66855003348f,,,,,,,decisionTrl,resources/DBN.BMP,resources/DG.BMP,Door1,0.369791667,-0.125,1,0,0,0.7977,optionRight,30,8245,4,24,0,24,0,1,,,,,,,,,,,,,,,,,,,,,,,,,,,,,,,,,,,,,,,
,,,,,,,,2023-08-16_08h43.47.264,HF_wild_card,2022.2.4,Win32,60.2373351,5d8272296cca0b001759f562,64d2fd46c836a06233681665,64dc7e21ed9d66855003348f,,,,,,,sngl,resources/Empty.png,resources/DBN.BMP,Door2,0.380208333,-0.139322917,1,0,0,0.6369,optionRight,40,8285,4,25,0,25,0,1,,,,,,,,,,,,,,,,,,,,,,,,,,,,,,,,,,,,,,,
,,,,,,,,2023-08-16_08h43.47.264,HF_wild_card,2022.2.4,Win32,60.2373351,5d8272296cca0b001759f562,64d2fd46c836a06233681665,64dc7e21ed9d66855003348f,,,,,,,ctch,resources/DP.BMP,resources/DBN.BMP,Door3,-0.234375,-0.14453125,1,0,0,0.9606,optionLeft,70,8355,4,26,0,26,0,1,,,,,,,,,,,,,,,,,,,,,,,,,,,,,,,,,,,,,,,
,,,,,,,,2023-08-16_08h43.47.264,HF_wild_card,2022.2.4,Win32,60.2373351,5d8272296cca0b001759f562,64d2fd46c836a06233681665,64dc7e21ed9d66855003348f,,,,,,,sngl,resources/Empty.png,resources/DR.BMP,WildCard_NonEx,0.34375,-0.125,1,0,0,0.7532,optionRight,55,8410,4,27,0,27,0,1,,,,,,,,,,,,,,,,,,,,,,,,,,,,,,,,,,,,,,,
,,,,,,,,2023-08-16_08h43.47.264,HF_wild_card,2022.2.4,Win32,60.2373351,5d8272296cca0b001759f562,64d2fd46c836a06233681665,64dc7e21ed9d66855003348f,,,,,,,ctch,resources/DG.BMP,resources/DY.BMP,Door4,0.322916667,-0.149739583,1,0,0,2.2367,optionRight,80,8490,4,28,0,28,0,1,,,,,,,,,,,,,,,,,,,,,,,,,,,,,,,,,,,,,,,
,,,,,,,,2023-08-16_08h43.47.264,HF_wild_card,2022.2.4,Win32,60.2373351,5d8272296cca0b001759f562,64d2fd46c836a06233681665,64dc7e21ed9d66855003348f,,,,,,,decisionTrl,resources/DP.BMP,resources/DY.BMP,Door4,0.350260417,-0.16015625,1,0,0,0.958,optionRight,80,8570,4,29,0,29,0,1,,,,,,,,,,,,,,,,,,,,,,,,,,,,,,,,,,,,,,,
,,,,,,,,2023-08-16_08h43.47.264,HF_wild_card,2022.2.4,Win32,60.2373351,5d8272296cca0b001759f562,64d2fd46c836a06233681665,64dc7e21ed9d66855003348f,,,,,,,decisionTrl,resources/DG.BMP,resources/DBN.BMP,Door1,-0.21875,-0.171875,1,0,0,0.7364,optionLeft,30,8600,4,30,0,30,0,1,,,,,,,,,,,,,,,,,,,,,,,,,,,,,,,,,,,,,,,
,,,,,,,,2023-08-16_08h43.47.264,HF_wild_card,2022.2.4,Win32,60.2373351,5d8272296cca0b001759f562,64d2fd46c836a06233681665,64dc7e21ed9d66855003348f,,,,,,,sngl,resources/DY.BMP,resources/Empty.png,Door4,-0.2265625,-0.151041667,1,0,0,0.5942,optionLeft,60,8660,4,31,0,31,0,1,,,,,,,,,,,,,,,,,,,,,,,,,,,,,,,,,,,,,,,
,,,,,,,,2023-08-16_08h43.47.264,HF_wild_card,2022.2.4,Win32,60.2373351,5d8272296cca0b001759f562,64d2fd46c836a06233681665,64dc7e21ed9d66855003348f,,,,,,,ctch,resources/DBN.BMP,resources/DP.BMP,Door3,0.376302083,-0.1640625,1,0,0,0.9902,optionRight,70,8730,4,32,0,32,0,1,,,,,,,,,,,,,,,,,,,,,,,,,,,,,,,,,,,,,,,
,,,,,,,,2023-08-16_08h43.47.264,HF_wild_card,2022.2.4,Win32,60.2373351,5d8272296cca0b001759f562,64d2fd46c836a06233681665,64dc7e21ed9d66855003348f,,,,,,,sngl,resources/Empty.png,resources/DG.BMP,Door1,0.3671875,-0.174479167,1,0,0,0.6846,optionRight,30,8760,4,33,0,33,0,1,,,,,,,,,,,,,,,,,,,,,,,,,,,,,,,,,,,,,,,
,,,,,,,,2023-08-16_08h43.47.264,HF_wild_card,2022.2.4,Win32,60.2373351,5d8272296cca0b001759f562,64d2fd46c836a06233681665,64dc7e21ed9d66855003348f,,,,,,,decisionTrl,resources/DY.BMP,resources/DP.BMP,Door3,0.350260417,-0.182291667,1,0,0,1.1117,optionRight,70,8830,4,34,0,34,0,1,,,,,,,,,,,,,,,,,,,,,,,,,,,,,,,,,,,,,,,
,,,,,,,,2023-08-16_08h43.47.264,HF_wild_card,2022.2.4,Win32,60.2373351,5d8272296cca0b001759f562,64d2fd46c836a06233681665,64dc7e21ed9d66855003348f,,,,,,,sngl,resources/DR.BMP,resources/Empty.png,WildCard_NonEx,-0.216145833,-0.143229167,1,0,0,0.7456,optionLeft,55,8885,4,35,0,35,0,1,,,,,,,,,,,,,,,,,,,,,,,,,,,,,,,,,,,,,,,
,,,,,,,,2023-08-16_08h43.47.264,HF_wild_card,2022.2.4,Win32,60.2373351,5d8272296cca0b001759f562,64d2fd46c836a06233681665,64dc7e21ed9d66855003348f,,,,,,,sngl,resources/DP.BMP,resources/Empty.png,Door3,-0.20703125,-0.134114583,1,0,0,0.6434,optionLeft,70,8955,4,36,0,36,0,1,,,,,,,,,,,,,,,,,,,,,,,,,,,,,,,,,,,,,,,
,,,,,,,,2023-08-16_08h43.47.264,HF_wild_card,2022.2.4,Win32,60.2373351,5d8272296cca0b001759f562,64d2fd46c836a06233681665,64dc7e21ed9d66855003348f,,,,,,,decisionTrl,resources/DR.BMP,resources/DP.BMP,Door3,0.346354167,-0.171875,1,0,0,0.792,optionRight,70,9025,4,37,0,37,0,1,,,,,,,,,,,,,,,,,,,,,,,,,,,,,,,,,,,,,,,
,,,,,,,,2023-08-16_08h43.47.264,HF_wild_card,2022.2.4,Win32,60.2373351,5d8272296cca0b001759f562,64d2fd46c836a06233681665,64dc7e21ed9d66855003348f,,,,,,,decisionTrl,resources/DP.BMP,resources/DY.BMP,Door4,0.358072917,-0.15625,1,0,0,0.8474,optionRight,60,9085,4,38,0,38,0,1,,,,,,,,,,,,,,,,,,,,,,,,,,,,,,,,,,,,,,,
,,,,,,,,2023-08-16_08h43.47.264,HF_wild_card,2022.2.4,Win32,60.2373351,5d8272296cca0b001759f562,64d2fd46c836a06233681665,64dc7e21ed9d66855003348f,,,,,,,ctch,resources/DY.BMP,resources/DG.BMP,Door4,-0.227864583,-0.17578125,1,0,0,0.691,optionLeft,80,9165,4,39,0,39,0,1,,,,,,,,,,,,,,,,,,,,,,,,,,,,,,,,,,,,,,,
,,,,,,,,2023-08-16_08h43.47.264,HF_wild_card,2022.2.4,Win32,60.2373351,5d8272296cca0b001759f562,64d2fd46c836a06233681665,64dc7e21ed9d66855003348f,,,,,,,decisionTrl,resources/DG.BMP,resources/DBN.BMP,Door1,-0.239583333,-0.15625,1,0,0,0.6458,optionLeft,30,9195,4,40,0,40,0,1,,,,,,,,,,,,,,,,,,,,,,,,,,,,,,,,,,,,,,,
,,,,,,,,2023-08-16_08h43.47.264,HF_wild_card,2022.2.4,Win32,60.2373351,5d8272296cca0b001759f562,64d2fd46c836a06233681665,64dc7e21ed9d66855003348f,,,,,,,decisionTrl,resources/DG.BMP,resources/DBN.BMP,Door1,-0.24609375,-0.147135417,1,0,0,0.6587,optionLeft,30,9225,4,41,0,41,0,1,,,,,,,,,,,,,,,,,,,,,,,,,,,,,,,,,,,,,,,
,,,,,,,,2023-08-16_08h43.47.264,HF_wild_card,2022.2.4,Win32,60.2373351,5d8272296cca0b001759f562,64d2fd46c836a06233681665,64dc7e21ed9d66855003348f,,,,,,,decisionTrl,resources/DBN.BMP,resources/DG.BMP,Door1,0.358072917,-0.16015625,1,0,0,0.8736,optionRight,30,9255,4,42,0,42,0,1,,,,,,,,,,,,,,,,,,,,,,,,,,,,,,,,,,,,,,,
,,,,,,,,2023-08-16_08h43.47.264,HF_wild_card,2022.2.4,Win32,60.2373351,5d8272296cca0b001759f562,64d2fd46c836a06233681665,64dc7e21ed9d66855003348f,,,,,,,decisionTrl,resources/DBN.BMP,resources/DG.BMP,Door1,0.3828125,-0.153645833,1,0,0,0.5728,optionRight,30,9285,4,43,0,43,0,1,,,,,,,,,,,,,,,,,,,,,,,,,,,,,,,,,,,,,,,
,,,,,,,,2023-08-16_08h43.47.264,HF_wild_card,2022.2.4,Win32,60.2373351,5d8272296cca0b001759f562,64d2fd46c836a06233681665,64dc7e21ed9d66855003348f,,,,,,,,,,,,,,,,,,,,,,,,,,3,0,3,0,1,,,,,,,,,,,,,,,,,,,,,,,,,,,,,,,,,,
,,,,,,,,2023-08-16_08h43.47.264,HF_wild_card,2022.2.4,Win32,60.2373351,5d8272296cca0b001759f562,64d2fd46c836a06233681665,64dc7e21ed9d66855003348f,,,,,,,decisionTrl,resources/DG.BMP,resources/DBN.BMP,Door1,-0.243489583,-0.1328125,1,0,0,0.7841,optionLeft,30,9315,5,0,0,0,0,1,,,,,,,,,,,,,,,,,,,,,,,,,,,,,,,,,,,,,,,
,,,,,,,,2023-08-16_08h43.47.264,HF_wild_card,2022.2.4,Win32,60.2373351,5d8272296cca0b001759f562,64d2fd46c836a06233681665,64dc7e21ed9d66855003348f,,,,,,,decisionTrl,resources/DP.BMP,resources/DY.BMP,Door4,0.313802083,-0.174479167,1,0,0,0.9233,optionRight,80,9395,5,1,0,1,0,1,,,,,,,,,,,,,,,,,,,,,,,,,,,,,,,,,,,,,,,
,,,,,,,,2023-08-16_08h43.47.264,HF_wild_card,2022.2.4,Win32,60.2373351,5d8272296cca0b001759f562,64d2fd46c836a06233681665,64dc7e21ed9d66855003348f,,,,,,,decisionTrl,resources/DY.BMP,resources/DR.BMP,Door4,-0.2265625,-0.166666667,1,0,0,0.7988,optionLeft,60,9455,5,2,0,2,0,1,,,,,,,,,,,,,,,,,,,,,,,,,,,,,,,,,,,,,,,
,,,,,,,,2023-08-16_08h43.47.264,HF_wild_card,2022.2.4,Win32,60.2373351,5d8272296cca0b001759f562,64d2fd46c836a06233681665,64dc7e21ed9d66855003348f,,,,,,,decisionTrl,resources/DP.BMP,resources/DY.BMP,Door4,0.33203125,-0.170572917,1,0,0,1.4125,optionRight,60,9515,5,3,0,3,0,1,,,,,,,,,,,,,,,,,,,,,,,,,,,,,,,,,,,,,,,
,,,,,,,,2023-08-16_08h43.47.264,HF_wild_card,2022.2.4,Win32,60.2373351,5d8272296cca0b001759f562,64d2fd46c836a06233681665,64dc7e21ed9d66855003348f,,,,,,,sngl,resources/DBN.BMP,resources/Empty.png,Door2,-0.231770833,-0.19140625,1,0,0,0.8274,optionLeft,40,9555,5,4,0,4,0,1,,,,,,,,,,,,,,,,,,,,,,,,,,,,,,,,,,,,,,,
,,,,,,,,2023-08-16_08h43.47.264,HF_wild_card,2022.2.4,Win32,60.2373351,5d8272296cca0b001759f562,64d2fd46c836a06233681665,64dc7e21ed9d66855003348f,,,,,,,decisionTrl,resources/DY.BMP,resources/DP.BMP,Door4,-0.190104167,-0.166666667,1,0,0,0.8645,optionLeft,80,9635,5,5,0,5,0,1,,,,,,,,,,,,,,,,,,,,,,,,,,,,,,,,,,,,,,,
,,,,,,,,2023-08-16_08h43.47.264,HF_wild_card,2022.2.4,Win32,60.2373351,5d8272296cca0b001759f562,64d2fd46c836a06233681665,64dc7e21ed9d66855003348f,,,,,,,decisionTrl,resources/DY.BMP,resources/DP.BMP,Door4,-0.1953125,-0.149739583,1,0,0,0.5975,optionLeft,60,9695,5,6,0,6,0,1,,,,,,,,,,,,,,,,,,,,,,,,,,,,,,,,,,,,,,,
,,,,,,,,2023-08-16_08h43.47.264,HF_wild_card,2022.2.4,Win32,60.2373351,5d8272296cca0b001759f562,64d2fd46c836a06233681665,64dc7e21ed9d66855003348f,,,,,,,ctch,resources/DG.BMP,resources/DY.BMP,Door4,0.329427083,-0.157552083,1,0,0,0.5113,optionRight,60,9755,5,7,0,7,0,1,,,,,,,,,,,,,,,,,,,,,,,,,,,,,,,,,,,,,,,
,,,,,,,,2023-08-16_08h43.47.264,HF_wild_card,2022.2.4,Win32,60.2373351,5d8272296cca0b001759f562,64d2fd46c836a06233681665,64dc7e21ed9d66855003348f,,,,,,,sngl,resources/DG.BMP,resources/Empty.png,Door1,-0.19140625,-0.145833333,1,0,0,0.5571,optionLeft,30,9785,5,8,0,8,0,1,,,,,,,,,,,,,,,,,,,,,,,,,,,,,,,,,,,,,,,
,,,,,,,,2023-08-16_08h43.47.264,HF_wild_card,2022.2.4,Win32,60.2373351,5d8272296cca0b001759f562,64d2fd46c836a06233681665,64dc7e21ed9d66855003348f,,,,,,,ctch,resources/DBN.BMP,resources/DP.BMP,Door3,0.334635417,-0.165364583,1,0,0,0.7162,optionRight,70,9855,5,9,0,9,0,1,,,,,,,,,,,,,,,,,,,,,,,,,,,,,,,,,,,,,,,
,,,,,,,,2023-08-16_08h43.47.264,HF_wild_card,2022.2.4,Win32,60.2373351,5d8272296cca0b001759f562,64d2fd46c836a06233681665,64dc7e21ed9d66855003348f,,,,,,,decisionTrl,resources/DBN.BMP,resources/DG.BMP,Door1,0.319010417,-0.201822917,1,0,0,0.6369,optionRight,30,9885,5,10,0,10,0,1,,,,,,,,,,,,,,,,,,,,,,,,,,,,,,,,,,,,,,,
,,,,,,,,2023-08-16_08h43.47.264,HF_wild_card,2022.2.4,Win32,60.2373351,5d8272296cca0b001759f562,64d2fd46c836a06233681665,64dc7e21ed9d66855003348f,,,,,,,decisionTrl,resources/DY.BMP,resources/DP.BMP,Door4,-0.231770833,-0.174479167,1,0,0,0.9958,optionLeft,80,9965,5,11,0,11,0,1,,,,,,,,,,,,,,,,,,,,,,,,,,,,,,,,,,,,,,,
,,,,,,,,2023-08-16_08h43.47.264,HF_wild_card,2022.2.4,Win32,60.2373351,5d8272296cca0b001759f562,64d2fd46c836a06233681665,64dc7e21ed9d66855003348f,,,,,,,sngl,resources/DP.BMP,resources/Empty.png,Door3,-0.2265625,-0.177083333,1,0,0,0.6372,optionLeft,70,10035,5,12,0,12,0,1,,,,,,,,,,,,,,,,,,,,,,,,,,,,,,,,,,,,,,,
,,,,,,,,2023-08-16_08h43.47.264,HF_wild_card,2022.2.4,Win32,60.2373351,5d8272296cca0b001759f562,64d2fd46c836a06233681665,64dc7e21ed9d66855003348f,,,,,,,decisionTrl,resources/DBN.BMP,resources/DG.BMP,Door1,0.34375,-0.145833333,1,0,0,0.6308,optionRight,30,10065,5,13,0,13,0,1,,,,,,,,,,,,,,,,,,,,,,,,,,,,,,,,,,,,,,,
,,,,,,,,2023-08-16_08h43.47.264,HF_wild_card,2022.2.4,Win32,60.2373351,5d8272296cca0b001759f562,64d2fd46c836a06233681665,64dc7e21ed9d66855003348f,,,,,,,decisionTrl,resources/DR.BMP,resources/DY.BMP,Door4,0.330729167,-0.1484375,1,0,0,0.6277,optionRight,60,10125,5,14,0,14,0,1,,,,,,,,,,,,,,,,,,,,,,,,,,,,,,,,,,,,,,,
,,,,,,,,2023-08-16_08h43.47.264,HF_wild_card,2022.2.4,Win32,60.2373351,5d8272296cca0b001759f562,64d2fd46c836a06233681665,64dc7e21ed9d66855003348f,,,,,,,sngl,resources/Empty.png,resources/DY.BMP,Door4,0.361979167,-0.154947917,1,0,0,0.4633,optionRight,60,10185,5,15,0,15,0,1,,,,,,,,,,,,,,,,,,,,,,,,,,,,,,,,,,,,,,,
,,,,,,,,2023-08-16_08h43.47.264,HF_wild_card,2022.2.4,Win32,60.2373351,5d8272296cca0b001759f562,64d2fd46c836a06233681665,64dc7e21ed9d66855003348f,,,,,,,ctch,resources/DBN.BMP,resources/DP.BMP,Door3,0.33984375,-0.153645833,1,0,0,0.5769,optionRight,70,10255,5,16,0,16,0,1,,,,,,,,,,,,,,,,,,,,,,,,,,,,,,,,,,,,,,,
,,,,,,,,2023-08-16_08h43.47.264,HF_wild_card,2022.2.4,Win32,60.2373351,5d8272296cca0b001759f562,64d2fd46c836a06233681665,64dc7e21ed9d66855003348f,,,,,,,sngl,resources/DR.BMP,resources/Empty.png,WildCard_NonEx,-0.235677083,-0.135416667,1,0,0,0.6639,optionLeft,55,10310,5,17,0,17,0,1,,,,,,,,,,,,,,,,,,,,,,,,,,,,,,,,,,,,,,,
,,,,,,,,2023-08-16_08h43.47.264,HF_wild_card,2022.2.4,Win32,60.2373351,5d8272296cca0b001759f562,64d2fd46c836a06233681665,64dc7e21ed9d66855003348f,,,,,,,sngl,resources/Empty.png,resources/DR.BMP,WildCard_NonEx,0.380208333,-0.1328125,1,0,0,0.4628,optionRight,55,10365,5,18,0,18,0,1,,,,,,,,,,,,,,,,,,,,,,,,,,,,,,,,,,,,,,,
,,,,,,,,2023-08-16_08h43.47.264,HF_wild_card,2022.2.4,Win32,60.2373351,5d8272296cca0b001759f562,64d2fd46c836a06233681665,64dc7e21ed9d66855003348f,,,,,,,decisionTrl,resources/DR.BMP,resources/DBN.BMP,WildCard_NonEx,-0.234375,-0.127604167,1,0,0,0.8071,optionLeft,55,10420,5,19,0,19,0,1,,,,,,,,,,,,,,,,,,,,,,,,,,,,,,,,,,,,,,,
,,,,,,,,2023-08-16_08h43.47.264,HF_wild_card,2022.2.4,Win32,60.2373351,5d8272296cca0b001759f562,64d2fd46c836a06233681665,64dc7e21ed9d66855003348f,,,,,,,sngl,resources/Empty.png,resources/DG.BMP,Door1,0.35546875,-0.13671875,1,0,0,0.5115,optionRight,30,10450,5,20,0,20,0,1,,,,,,,,,,,,,,,,,,,,,,,,,,,,,,,,,,,,,,,
,,,,,,,,2023-08-16_08h43.47.264,HF_wild_card,2022.2.4,Win32,60.2373351,5d8272296cca0b001759f562,64d2fd46c836a06233681665,64dc7e21ed9d66855003348f,,,,,,,decisionTrl,resources/DP.BMP,resources/DY.BMP,Door4,0.3359375,-0.134114583,1,0,0,0.9313,optionRight,60,10510,5,21,0,21,0,1,,,,,,,,,,,,,,,,,,,,,,,,,,,,,,,,,,,,,,,
,,,,,,,,2023-08-16_08h43.47.264,HF_wild_card,2022.2.4,Win32,60.2373351,5d8272296cca0b001759f562,64d2fd46c836a06233681665,64dc7e21ed9d66855003348f,,,,,,,decisionTrl,resources/DR.BMP,resources/DP.BMP,Door3,0.3359375,-0.157552083,1,0,0,0.5593,optionRight,70,10580,5,22,0,22,0,1,,,,,,,,,,,,,,,,,,,,,,,,,,,,,,,,,,,,,,,
,,,,,,,,2023-08-16_08h43.47.264,HF_wild_card,2022.2.4,Win32,60.2373351,5d8272296cca0b001759f562,64d2fd46c836a06233681665,64dc7e21ed9d66855003348f,,,,,,,decisionTrl,resources/DP.BMP,resources/DY.BMP,Door4,0.360677083,-0.15234375,1,0,0,0.5986,optionRight,60,10640,5,23,0,23,0,1,,,,,,,,,,,,,,,,,,,,,,,,,,,,,,,,,,,,,,,
,,,,,,,,2023-08-16_08h43.47.264,HF_wild_card,2022.2.4,Win32,60.2373351,5d8272296cca0b001759f562,64d2fd46c836a06233681665,64dc7e21ed9d66855003348f,,,,,,,decisionTrl,resources/DP.BMP,resources/DR.BMP,Door3,-0.2265625,-0.1796875,1,0,0,1.1399,optionLeft,70,10710,5,24,0,24,0,1,,,,,,,,,,,,,,,,,,,,,,,,,,,,,,,,,,,,,,,
,,,,,,,,2023-08-16_08h43.47.264,HF_wild_card,2022.2.4,Win32,60.2373351,5d8272296cca0b001759f562,64d2fd46c836a06233681665,64dc7e21ed9d66855003348f,,,,,,,decisionTrl,resources/DBN.BMP,resources/DG.BMP,Door1,0.3515625,-0.147135417,1,0,0,0.5643,optionRight,30,10740,5,25,0,25,0,1,,,,,,,,,,,,,,,,,,,,,,,,,,,,,,,,,,,,,,,
,,,,,,,,2023-08-16_08h43.47.264,HF_wild_card,2022.2.4,Win32,60.2373351,5d8272296cca0b001759f562,64d2fd46c836a06233681665,64dc7e21ed9d66855003348f,,,,,,,decisionTrl,resources/DR.BMP,resources/DG.BMP,Door1,0.321614583,-0.151041667,1,0,0,0.9141,optionRight,30,10770,5,26,0,26,0,1,,,,,,,,,,,,,,,,,,,,,,,,,,,,,,,,,,,,,,,
,,,,,,,,2023-08-16_08h43.47.264,HF_wild_card,2022.2.4,Win32,60.2373351,5d8272296cca0b001759f562,64d2fd46c836a06233681665,64dc7e21ed9d66855003348f,,,,,,,decisionTrl,resources/DG.BMP,resources/DBN.BMP,Door1,-0.220052083,-0.147135417,1,0,0,1.1422,optionLeft,30,10800,5,27,0,27,0,1,,,,,,,,,,,,,,,,,,,,,,,,,,,,,,,,,,,,,,,
,,,,,,,,2023-08-16_08h43.47.264,HF_wild_card,2022.2.4,Win32,60.2373351,5d8272296cca0b001759f562,64d2fd46c836a06233681665,64dc7e21ed9d66855003348f,,,,,,,decisionTrl,resources/DY.BMP,resources/DP.BMP,Door4,-0.234375,-0.158854167,1,0,0,0.984,optionLeft,80,10880,5,28,0,28,0,1,,,,,,,,,,,,,,,,,,,,,,,,,,,,,,,,,,,,,,,
,,,,,,,,2023-08-16_08h43.47.264,HF_wild_card,2022.2.4,Win32,60.2373351,5d8272296cca0b001759f562,64d2fd46c836a06233681665,64dc7e21ed9d66855003348f,,,,,,,sngl,resources/DR.BMP,resources/Empty.png,WildCard_NonEx,-0.221354167,-0.12890625,1,0,0,0.6308,optionLeft,45,10925,5,29,0,29,0,1,,,,,,,,,,,,,,,,,,,,,,,,,,,,,,,,,,,,,,,
,,,,,,,,2023-08-16_08h43.47.264,HF_wild_card,2022.2.4,Win32,60.2373351,5d8272296cca0b001759f562,64d2fd46c836a06233681665,64dc7e21ed9d66855003348f,,,,,,,ctch,resources/DP.BMP,resources/DBN.BMP,Door3,-0.2578125,-0.15234375,1,0,0,0.7756,optionLeft,70,10995,5,30,0,30,0,1,,,,,,,,,,,,,,,,,,,,,,,,,,,,,,,,,,,,,,,
,,,,,,,,2023-08-16_08h43.47.264,HF_wild_card,2022.2.4,Win32,60.2373351,5d8272296cca0b001759f562,64d2fd46c836a06233681665,64dc7e21ed9d66855003348f,,,,,,,ctch,resources/DP.BMP,resources/DBN.BMP,Door3,-0.23046875,-0.16796875,1,0,0,0.7647,optionLeft,70,11065,5,31,0,31,0,1,,,,,,,,,,,,,,,,,,,,,,,,,,,,,,,,,,,,,,,
,,,,,,,,2023-08-16_08h43.47.264,HF_wild_card,2022.2.4,Win32,60.2373351,5d8272296cca0b001759f562,64d2fd46c836a06233681665,64dc7e21ed9d66855003348f,,,,,,,decisionTrl,resources/DG.BMP,resources/DBN.BMP,Door1,-0.225260417,-0.141927083,1,0,0,0.7478,optionLeft,30,11095,5,32,0,32,0,1,,,,,,,,,,,,,,,,,,,,,,,,,,,,,,,,,,,,,,,
,,,,,,,,2023-08-16_08h43.47.264,HF_wild_card,2022.2.4,Win32,60.2373351,5d8272296cca0b001759f562,64d2fd46c836a06233681665,64dc7e21ed9d66855003348f,,,,,,,sngl,resources/Empty.png,resources/DR.BMP,WildCard_NonEx,0.346354167,-0.143229167,1,0,0,0.6809,optionRight,45,11140,5,33,0,33,0,1,,,,,,,,,,,,,,,,,,,,,,,,,,,,,,,,,,,,,,,
,,,,,,,,2023-08-16_08h43.47.264,HF_wild_card,2022.2.4,Win32,60.2373351,5d8272296cca0b001759f562,64d2fd46c836a06233681665,64dc7e21ed9d66855003348f,,,,,,,decisionTrl,resources/DG.BMP,resources/DBN.BMP,Door1,-0.209635417,-0.147135417,1,0,0,0.6479,optionLeft,30,11170,5,34,0,34,0,1,,,,,,,,,,,,,,,,,,,,,,,,,,,,,,,,,,,,,,,
,,,,,,,,2023-08-16_08h43.47.264,HF_wild_card,2022.2.4,Win32,60.2373351,5d8272296cca0b001759f562,64d2fd46c836a06233681665,64dc7e21ed9d66855003348f,,,,,,,sngl,resources/Empty.png,resources/DP.BMP,Door3,0.3515625,-0.174479167,1,0,0,0.5349,optionRight,70,11240,5,35,0,35,0,1,,,,,,,,,,,,,,,,,,,,,,,,,,,,,,,,,,,,,,,
,,,,,,,,2023-08-16_08h43.47.264,HF_wild_card,2022.2.4,Win32,60.2373351,5d8272296cca0b001759f562,64d2fd46c836a06233681665,64dc7e21ed9d66855003348f,,,,,,,decisionTrl,resources/DG.BMP,resources/DR.BMP,Door1,-0.22265625,-0.13671875,1,0,0,0.9833,optionLeft,30,11270,5,36,0,36,0,1,,,,,,,,,,,,,,,,,,,,,,,,,,,,,,,,,,,,,,,
,,,,,,,,2023-08-16_08h43.47.264,HF_wild_card,2022.2.4,Win32,60.2373351,5d8272296cca0b001759f562,64d2fd46c836a06233681665,64dc7e21ed9d66855003348f,,,,,,,ctch,resources/DG.BMP,resources/DY.BMP,Door4,0.325520833,-0.153645833,1,0,0,0.7477,optionRight,60,11330,5,37,0,37,0,1,,,,,,,,,,,,,,,,,,,,,,,,,,,,,,,,,,,,,,,
,,,,,,,,2023-08-16_08h43.47.264,HF_wild_card,2022.2.4,Win32,60.2373351,5d8272296cca0b001759f562,64d2fd46c836a06233681665,64dc7e21ed9d66855003348f,,,,,,,decisionTrl,resources/DBN.BMP,resources/DG.BMP,Door1,0.356770833,-0.123697917,1,0,0,0.9783,optionRight,30,11360,5,38,0,38,0,1,,,,,,,,,,,,,,,,,,,,,,,,,,,,,,,,,,,,,,,
,,,,,,,,2023-08-16_08h43.47.264,HF_wild_card,2022.2.4,Win32,60.2373351,5d8272296cca0b001759f562,64d2fd46c836a06233681665,64dc7e21ed9d66855003348f,,,,,,,sngl,resources/DY.BMP,resources/Empty.png,Door4,-0.223958333,-0.166666667,1,0,0,0.6619,optionLeft,80,11440,5,39,0,39,0,1,,,,,,,,,,,,,,,,,,,,,,,,,,,,,,,,,,,,,,,
,,,,,,,,2023-08-16_08h43.47.264,HF_wild_card,2022.2.4,Win32,60.2373351,5d8272296cca0b001759f562,64d2fd46c836a06233681665,64dc7e21ed9d66855003348f,,,,,,,ctch,resources/DY.BMP,resources/DG.BMP,Door4,-0.239583333,-0.1328125,1,0,0,1.1584,optionLeft,80,11520,5,40,0,40,0,1,,,,,,,,,,,,,,,,,,,,,,,,,,,,,,,,,,,,,,,
,,,,,,,,2023-08-16_08h43.47.264,HF_wild_card,2022.2.4,Win32,60.2373351,5d8272296cca0b001759f562,64d2fd46c836a06233681665,64dc7e21ed9d66855003348f,,,,,,,sngl,resources/Empty.png,resources/DBN.BMP,Door2,0.372395833,-0.134114583,1,0,0,0.9409,optionRight,20,11540,5,41,0,41,0,1,,,,,,,,,,,,,,,,,,,,,,,,,,,,,,,,,,,,,,,
,,,,,,,,2023-08-16_08h43.47.264,HF_wild_card,2022.2.4,Win32,60.2373351,5d8272296cca0b001759f562,64d2fd46c836a06233681665,64dc7e21ed9d66855003348f,,,,,,,ctch,resources/DY.BMP,resources/DG.BMP,Door4,-0.212239583,-0.131510417,1,0,0,1.0152,optionLeft,80,11620,5,42,0,42,0,1,,,,,,,,,,,,,,,,,,,,,,,,,,,,,,,,,,,,,,,
,,,,,,,,2023-08-16_08h43.47.264,HF_wild_card,2022.2.4,Win32,60.2373351,5d8272296cca0b001759f562,64d2fd46c836a06233681665,64dc7e21ed9d66855003348f,,,,,,,decisionTrl,resources/DBN.BMP,resources/DR.BMP,WildCard_NonEx,0.346354167,-0.171875,1,0,0,1.0654,optionRight,55,11675,5,43,0,43,0,1,,,,,,,,,,,,,,,,,,,,,,,,,,,,,,,,,,,,,,,
,,,,,,,,2023-08-16_08h43.47.264,HF_wild_card,2022.2.4,Win32,60.2373351,5d8272296cca0b001759f562,64d2fd46c836a06233681665,64dc7e21ed9d66855003348f,,,,,,,,,,,,,,,,,,,,,,,,,,4,0,4,0,1,,,,,,,,,,,,,,,,,,,,,,,,,,,,,,,,,,
,,,,,,,,2023-08-16_08h43.47.264,HF_wild_card,2022.2.4,Win32,60.2373351,5d8272296cca0b001759f562,64d2fd46c836a06233681665,64dc7e21ed9d66855003348f,,,,,,,ctch,resources/DP.BMP,resources/DBN.BMP,Door3,-0.282552083,-0.127604167,1,0,0,1.1266,optionLeft,70,11745,6,0,0,0,0,1,,,,,,,,,,,,,,,,,,,,,,,,,,,,,,,,,,,,,,,
,,,,,,,,2023-08-16_08h43.47.264,HF_wild_card,2022.2.4,Win32,60.2373351,5d8272296cca0b001759f562,64d2fd46c836a06233681665,64dc7e21ed9d66855003348f,,,,,,,ctch,resources/DY.BMP,resources/DG.BMP,Door4,-0.154947917,-0.108072917,1,0,0,0.8772,optionLeft,60,11805,6,1,0,1,0,1,,,,,,,,,,,,,,,,,,,,,,,,,,,,,,,,,,,,,,,
,,,,,,,,2023-08-16_08h43.47.264,HF_wild_card,2022.2.4,Win32,60.2373351,5d8272296cca0b001759f562,64d2fd46c836a06233681665,64dc7e21ed9d66855003348f,,,,,,,decisionTrl,resources/DR.BMP,resources/DY.BMP,Door4,0.263020833,-0.080729167,1,0,0,1.0883,optionRight,60,11865,6,2,0,2,0,1,,,,,,,,,,,,,,,,,,,,,,,,,,,,,,,,,,,,,,,
,,,,,,,,2023-08-16_08h43.47.264,HF_wild_card,2022.2.4,Win32,60.2373351,5d8272296cca0b001759f562,64d2fd46c836a06233681665,64dc7e21ed9d66855003348f,,,,,,,decisionTrl,resources/DP.BMP,resources/DY.BMP,Door3,-0.25390625,-0.14453125,1,0,0,2.149,optionLeft,70,11935,6,3,0,3,0,1,,,,,,,,,,,,,,,,,,,,,,,,,,,,,,,,,,,,,,,
,,,,,,,,2023-08-16_08h43.47.264,HF_wild_card,2022.2.4,Win32,60.2373351,5d8272296cca0b001759f562,64d2fd46c836a06233681665,64dc7e21ed9d66855003348f,,,,,,,sngl,resources/Empty.png,resources/DR.BMP,WildCard_NonEx,0.204427083,-0.063802083,1,0,0,0.5798,optionRight,55,11990,6,4,0,4,0,1,,,,,,,,,,,,,,,,,,,,,,,,,,,,,,,,,,,,,,,
,,,,,,,,2023-08-16_08h43.47.264,HF_wild_card,2022.2.4,Win32,60.2373351,5d8272296cca0b001759f562,64d2fd46c836a06233681665,64dc7e21ed9d66855003348f,,,,,,,sngl,resources/DR.BMP,resources/Empty.png,WildCard_NonEx,-0.213541667,-0.13671875,1,0,0,0.6576,optionLeft,55,12045,6,5,0,5,0,1,,,,,,,,,,,,,,,,,,,,,,,,,,,,,,,,,,,,,,,
,,,,,,,,2023-08-16_08h43.47.264,HF_wild_card,2022.2.4,Win32,60.2373351,5d8272296cca0b001759f562,64d2fd46c836a06233681665,64dc7e21ed9d66855003348f,,,,,,,decisionTrl,resources/DY.BMP,resources/DP.BMP,Door4,-0.209635417,-0.131510417,1,0,0,0.8315,optionLeft,80,12125,6,6,0,6,0,1,,,,,,,,,,,,,,,,,,,,,,,,,,,,,,,,,,,,,,,
,,,,,,,,2023-08-16_08h43.47.264,HF_wild_card,2022.2.4,Win32,60.2373351,5d8272296cca0b001759f562,64d2fd46c836a06233681665,64dc7e21ed9d66855003348f,,,,,,,ctch,resources/DBN.BMP,resources/DP.BMP,Door3,0.342447917,-0.033854167,1,0,0,0.7743,optionRight,70,12195,6,7,0,7,0,1,,,,,,,,,,,,,,,,,,,,,,,,,,,,,,,,,,,,,,,
,,,,,,,,2023-08-16_08h43.47.264,HF_wild_card,2022.2.4,Win32,60.2373351,5d8272296cca0b001759f562,64d2fd46c836a06233681665,64dc7e21ed9d66855003348f,,,,,,,sngl,resources/DBN.BMP,resources/Empty.png,Door2,-0.15625,-0.140625,1,0,0,0.8122,optionLeft,20,12215,6,8,0,8,0,1,,,,,,,,,,,,,,,,,,,,,,,,,,,,,,,,,,,,,,,
,,,,,,,,2023-08-16_08h43.47.264,HF_wild_card,2022.2.4,Win32,60.2373351,5d8272296cca0b001759f562,64d2fd46c836a06233681665,64dc7e21ed9d66855003348f,,,,,,,ctch,resources/DY.BMP,resources/DG.BMP,Door4,-0.182291667,-0.1171875,1,0,0,1.0223,optionLeft,80,12295,6,9,0,9,0,1,,,,,,,,,,,,,,,,,,,,,,,,,,,,,,,,,,,,,,,
,,,,,,,,2023-08-16_08h43.47.264,HF_wild_card,2022.2.4,Win32,60.2373351,5d8272296cca0b001759f562,64d2fd46c836a06233681665,64dc7e21ed9d66855003348f,,,,,,,decisionTrl,resources/DG.BMP,resources/DBN.BMP,Door1,-0.247395833,-0.147135417,1,0,0,0.7641,optionLeft,30,12325,6,10,0,10,0,1,,,,,,,,,,,,,,,,,,,,,,,,,,,,,,,,,,,,,,,
,,,,,,,,2023-08-16_08h43.47.264,HF_wild_card,2022.2.4,Win32,60.2373351,5d8272296cca0b001759f562,64d2fd46c836a06233681665,64dc7e21ed9d66855003348f,,,,,,,sngl,resources/Empty.png,resources/DR.BMP,WildCard_NonEx,0.346354167,-0.102864583,1,0,0,0.5623,optionRight,45,12370,6,11,0,11,0,1,,,,,,,,,,,,,,,,,,,,,,,,,,,,,,,,,,,,,,,
,,,,,,,,2023-08-16_08h43.47.264,HF_wild_card,2022.2.4,Win32,60.2373351,5d8272296cca0b001759f562,64d2fd46c836a06233681665,64dc7e21ed9d66855003348f,,,,,,,decisionTrl,resources/DBN.BMP,resources/DR.BMP,WildCard_NonEx,0.385416667,-0.00390625,1,0,0,1.0465,optionRight,45,12415,6,12,0,12,0,1,,,,,,,,,,,,,,,,,,,,,,,,,,,,,,,,,,,,,,,
,,,,,,,,2023-08-16_08h43.47.264,HF_wild_card,2022.2.4,Win32,60.2373351,5d8272296cca0b001759f562,64d2fd46c836a06233681665,64dc7e21ed9d66855003348f,,,,,,,sngl,resources/Empty.png,resources/DG.BMP,Door1,0.322916667,-0.006510417,1,0,0,0.7361,optionRight,30,12445,6,13,0,13,0,1,,,,,,,,,,,,,,,,,,,,,,,,,,,,,,,,,,,,,,,
,,,,,,,,2023-08-16_08h43.47.264,HF_wild_card,2022.2.4,Win32,60.2373351,5d8272296cca0b001759f562,64d2fd46c836a06233681665,64dc7e21ed9d66855003348f,,,,,,,decisionTrl,resources/DG.BMP,resources/DR.BMP,WildCard_NonEx,0.330729167,-0.177083333,1,0,0,1.4936,optionRight,55,12500,6,14,0,14,0,1,,,,,,,,,,,,,,,,,,,,,,,,,,,,,,,,,,,,,,,
,,,,,,,,2023-08-16_08h43.47.264,HF_wild_card,2022.2.4,Win32,60.2373351,5d8272296cca0b001759f562,64d2fd46c836a06233681665,64dc7e21ed9d66855003348f,,,,,,,decisionTrl,resources/DP.BMP,resources/DY.BMP,Door4,0.322916667,-0.17578125,1,0,0,0.8237,optionRight,60,12560,6,15,0,15,0,1,,,,,,,,,,,,,,,,,,,,,,,,,,,,,,,,,,,,,,,
,,,,,,,,2023-08-16_08h43.47.264,HF_wild_card,2022.2.4,Win32,60.2373351,5d8272296cca0b001759f562,64d2fd46c836a06233681665,64dc7e21ed9d66855003348f,,,,,,,decisionTrl,resources/DG.BMP,resources/DBN.BMP,Door1,-0.24609375,-0.166666667,1,0,0,0.7472,optionLeft,30,12590,6,16,0,16,0,1,,,,,,,,,,,,,,,,,,,,,,,,,,,,,,,,,,,,,,,
,,,,,,,,2023-08-16_08h43.47.264,HF_wild_card,2022.2.4,Win32,60.2373351,5d8272296cca0b001759f562,64d2fd46c836a06233681665,64dc7e21ed9d66855003348f,,,,,,,ctch,resources/DBN.BMP,resources/DP.BMP,Door3,0.338541667,-0.174479167,1,0,0,0.6058,optionRight,70,12660,6,17,0,17,0,1,,,,,,,,,,,,,,,,,,,,,,,,,,,,,,,,,,,,,,,
,,,,,,,,2023-08-16_08h43.47.264,HF_wild_card,2022.2.4,Win32,60.2373351,5d8272296cca0b001759f562,64d2fd46c836a06233681665,64dc7e21ed9d66855003348f,,,,,,,sngl,resources/DR.BMP,resources/Empty.png,WildCard_NonEx,-0.01171875,-0.010416667,1,0,0,0.0542,optionLeft,45,12705,6,18,0,18,0,1,,,,,,,,,,,,,,,,,,,,,,,,,,,,,,,,,,,,,,,
,,,,,,,,2023-08-16_08h43.47.264,HF_wild_card,2022.2.4,Win32,60.2373351,5d8272296cca0b001759f562,64d2fd46c836a06233681665,64dc7e21ed9d66855003348f,,,,,,,decisionTrl,resources/DG.BMP,resources/DBN.BMP,Door1,-0.220052083,-0.14453125,1,0,0,0.7201,optionLeft,30,12735,6,19,0,19,0,1,,,,,,,,,,,,,,,,,,,,,,,,,,,,,,,,,,,,,,,
,,,,,,,,2023-08-16_08h43.47.264,HF_wild_card,2022.2.4,Win32,60.2373351,5d8272296cca0b001759f562,64d2fd46c836a06233681665,64dc7e21ed9d66855003348f,,,,,,,decisionTrl,resources/DBN.BMP,resources/DG.BMP,Door1,0.420572917,-0.138020833,1,0,0,0.8064,optionRight,30,12765,6,20,0,20,0,1,,,,,,,,,,,,,,,,,,,,,,,,,,,,,,,,,,,,,,,
,,,,,,,,2023-08-16_08h43.47.264,HF_wild_card,2022.2.4,Win32,60.2373351,5d8272296cca0b001759f562,64d2fd46c836a06233681665,64dc7e21ed9d66855003348f,,,,,,,decisionTrl,resources/DY.BMP,resources/DP.BMP,Door4,-0.22265625,-0.145833333,1,0,0,1.0668,optionLeft,80,12845,6,21,0,21,0,1,,,,,,,,,,,,,,,,,,,,,,,,,,,,,,,,,,,,,,,
,,,,,,,,2023-08-16_08h43.47.264,HF_wild_card,2022.2.4,Win32,60.2373351,5d8272296cca0b001759f562,64d2fd46c836a06233681665,64dc7e21ed9d66855003348f,,,,,,,decisionTrl,resources/DY.BMP,resources/DP.BMP,Door4,-0.227864583,-0.154947917,1,0,0,0.7284,optionLeft,60,12905,6,22,0,22,0,1,,,,,,,,,,,,,,,,,,,,,,,,,,,,,,,,,,,,,,,
,,,,,,,,2023-08-16_08h43.47.264,HF_wild_card,2022.2.4,Win32,60.2373351,5d8272296cca0b001759f562,64d2fd46c836a06233681665,64dc7e21ed9d66855003348f,,,,,,,decisionTrl,resources/DP.BMP,resources/DY.BMP,Door4,0.36328125,-0.139322917,1,0,0,0.6645,optionRight,80,12985,6,23,0,23,0,1,,,,,,,,,,,,,,,,,,,,,,,,,,,,,,,,,,,,,,,
,,,,,,,,2023-08-16_08h43.47.264,HF_wild_card,2022.2.4,Win32,60.2373351,5d8272296cca0b001759f562,64d2fd46c836a06233681665,64dc7e21ed9d66855003348f,,,,,,,sngl,resources/DP.BMP,resources/Empty.png,Door3,-0.239583333,-0.149739583,1,0,0,0.5885,optionLeft,70,13055,6,24,0,24,0,1,,,,,,,,,,,,,,,,,,,,,,,,,,,,,,,,,,,,,,,
,,,,,,,,2023-08-16_08h43.47.264,HF_wild_card,2022.2.4,Win32,60.2373351,5d8272296cca0b001759f562,64d2fd46c836a06233681665,64dc7e21ed9d66855003348f,,,,,,,decisionTrl,resources/DY.BMP,resources/DP.BMP,Door3,0.356770833,-0.1328125,1,0,0,0.6954,optionRight,70,13125,6,25,0,25,0,1,,,,,,,,,,,,,,,,,,,,,,,,,,,,,,,,,,,,,,,
,,,,,,,,2023-08-16_08h43.47.264,HF_wild_card,2022.2.4,Win32,60.2373351,5d8272296cca0b001759f562,64d2fd46c836a06233681665,64dc7e21ed9d66855003348f,,,,,,,decisionTrl,resources/DBN.BMP,resources/DG.BMP,Door1,0.333333333,-0.125,1,0,0,0.7323,optionRight,30,13155,6,26,0,26,0,1,,,,,,,,,,,,,,,,,,,,,,,,,,,,,,,,,,,,,,,
,,,,,,,,2023-08-16_08h43.47.264,HF_wild_card,2022.2.4,Win32,60.2373351,5d8272296cca0b001759f562,64d2fd46c836a06233681665,64dc7e21ed9d66855003348f,,,,,,,sngl,resources/Empty.png,resources/DP.BMP,Door3,0.35546875,-0.17578125,1,0,0,0.6841,optionRight,70,13225,6,27,0,27,0,1,,,,,,,,,,,,,,,,,,,,,,,,,,,,,,,,,,,,,,,
,,,,,,,,2023-08-16_08h43.47.264,HF_wild_card,2022.2.4,Win32,60.2373351,5d8272296cca0b001759f562,64d2fd46c836a06233681665,64dc7e21ed9d66855003348f,,,,,,,decisionTrl,resources/DBN.BMP,resources/DG.BMP,Door1,0.346354167,-0.16796875,1,0,0,0.7323,optionRight,30,13255,6,28,0,28,0,1,,,,,,,,,,,,,,,,,,,,,,,,,,,,,,,,,,,,,,,
,,,,,,,,2023-08-16_08h43.47.264,HF_wild_card,2022.2.4,Win32,60.2373351,5d8272296cca0b001759f562,64d2fd46c836a06233681665,64dc7e21ed9d66855003348f,,,,,,,ctch,resources/DP.BMP,resources/DBN.BMP,Door3,-0.1875,-0.140625,1,0,0,0.5968,optionLeft,70,13325,6,29,0,29,0,1,,,,,,,,,,,,,,,,,,,,,,,,,,,,,,,,,,,,,,,
,,,,,,,,2023-08-16_08h43.47.264,HF_wild_card,2022.2.4,Win32,60.2373351,5d8272296cca0b001759f562,64d2fd46c836a06233681665,64dc7e21ed9d66855003348f,,,,,,,decisionTrl,resources/DP.BMP,resources/DR.BMP,Door3,-0.2421875,-0.143229167,1,0,0,0.8313,optionLeft,70,13395,6,30,0,30,0,1,,,,,,,,,,,,,,,,,,,,,,,,,,,,,,,,,,,,,,,
,,,,,,,,2023-08-16_08h43.47.264,HF_wild_card,2022.2.4,Win32,60.2373351,5d8272296cca0b001759f562,64d2fd46c836a06233681665,64dc7e21ed9d66855003348f,,,,,,,sngl,resources/DY.BMP,resources/Empty.png,Door4,-0.221354167,-0.147135417,1,0,0,1.2451,optionLeft,60,13455,6,31,0,31,0,1,,,,,,,,,,,,,,,,,,,,,,,,,,,,,,,,,,,,,,,
,,,,,,,,2023-08-16_08h43.47.264,HF_wild_card,2022.2.4,Win32,60.2373351,5d8272296cca0b001759f562,64d2fd46c836a06233681665,64dc7e21ed9d66855003348f,,,,,,,ctch,resources/DG.BMP,resources/DY.BMP,Door4,0.305989583,-0.178385417,1,0,0,1.0272,optionRight,80,13535,6,32,0,32,0,1,,,,,,,,,,,,,,,,,,,,,,,,,,,,,,,,,,,,,,,
,,,,,,,,2023-08-16_08h43.47.264,HF_wild_card,2022.2.4,Win32,60.2373351,5d8272296cca0b001759f562,64d2fd46c836a06233681665,64dc7e21ed9d66855003348f,,,,,,,decisionTrl,resources/DY.BMP,resources/DR.BMP,Door4,-0.20703125,-0.174479167,1,0,0,0.7649,optionLeft,60,13595,6,33,0,33,0,1,,,,,,,,,,,,,,,,,,,,,,,,,,,,,,,,,,,,,,,
,,,,,,,,2023-08-16_08h43.47.264,HF_wild_card,2022.2.4,Win32,60.2373351,5d8272296cca0b001759f562,64d2fd46c836a06233681665,64dc7e21ed9d66855003348f,,,,,,,decisionTrl,resources/DR.BMP,resources/DP.BMP,Door3,0.364583333,-0.1171875,1,0,0,0.6053,optionRight,70,13665,6,34,0,34,0,1,,,,,,,,,,,,,,,,,,,,,,,,,,,,,,,,,,,,,,,
,,,,,,,,2023-08-16_08h43.47.264,HF_wild_card,2022.2.4,Win32,60.2373351,5d8272296cca0b001759f562,64d2fd46c836a06233681665,64dc7e21ed9d66855003348f,,,,,,,decisionTrl,resources/DG.BMP,resources/DBN.BMP,Door1,-0.229166667,-0.09765625,1,0,0,1.1111,optionLeft,30,13695,6,35,0,35,0,1,,,,,,,,,,,,,,,,,,,,,,,,,,,,,,,,,,,,,,,
,,,,,,,,2023-08-16_08h43.47.264,HF_wild_card,2022.2.4,Win32,60.2373351,5d8272296cca0b001759f562,64d2fd46c836a06233681665,64dc7e21ed9d66855003348f,,,,,,,ctch,resources/DG.BMP,resources/DY.BMP,Door4,0.345052083,-0.127604167,1,0,0,0.8303,optionRight,60,13755,6,36,0,36,0,1,,,,,,,,,,,,,,,,,,,,,,,,,,,,,,,,,,,,,,,
,,,,,,,,2023-08-16_08h43.47.264,HF_wild_card,2022.2.4,Win32,60.2373351,5d8272296cca0b001759f562,64d2fd46c836a06233681665,64dc7e21ed9d66855003348f,,,,,,,sngl,resources/Empty.png,resources/DY.BMP,Door4,0.244791667,-0.026041667,1,0,0,0.487,optionRight,80,13835,6,37,0,37,0,1,,,,,,,,,,,,,,,,,,,,,,,,,,,,,,,,,,,,,,,
,,,,,,,,2023-08-16_08h43.47.264,HF_wild_card,2022.2.4,Win32,60.2373351,5d8272296cca0b001759f562,64d2fd46c836a06233681665,64dc7e21ed9d66855003348f,,,,,,,sngl,resources/Empty.png,resources/DBN.BMP,Door2,0.240885417,-0.01171875,1,0,0,0.7893,optionRight,40,13875,6,38,0,38,0,1,,,,,,,,,,,,,,,,,,,,,,,,,,,,,,,,,,,,,,,
,,,,,,,,2023-08-16_08h43.47.264,HF_wild_card,2022.2.4,Win32,60.2373351,5d8272296cca0b001759f562,64d2fd46c836a06233681665,64dc7e21ed9d66855003348f,,,,,,,decisionTrl,resources/DR.BMP,resources/DG.BMP,Door1,0.3671875,-0.153645833,1,0,0,0.8526,optionRight,30,13905,6,39,0,39,0,1,,,,,,,,,,,,,,,,,,,,,,,,,,,,,,,,,,,,,,,
,,,,,,,,2023-08-16_08h43.47.264,HF_wild_card,2022.2.4,Win32,60.2373351,5d8272296cca0b001759f562,64d2fd46c836a06233681665,64dc7e21ed9d66855003348f,,,,,,,decisionTrl,resources/DBN.BMP,resources/DG.BMP,Door1,0.34765625,-0.13671875,1,0,0,0.8002,optionRight,30,13935,6,40,0,40,0,1,,,,,,,,,,,,,,,,,,,,,,,,,,,,,,,,,,,,,,,
,,,,,,,,2023-08-16_08h43.47.264,HF_wild_card,2022.2.4,Win32,60.2373351,5d8272296cca0b001759f562,64d2fd46c836a06233681665,64dc7e21ed9d66855003348f,,,,,,,decisionTrl,resources/DP.BMP,resources/DY.BMP,Door4,0.376302083,-0.154947917,1,0,0,0.7368,optionRight,60,13995,6,41,0,41,0,1,,,,,,,,,,,,,,,,,,,,,,,,,,,,,,,,,,,,,,,
,,,,,,,,2023-08-16_08h43.47.264,HF_wild_card,2022.2.4,Win32,60.2373351,5d8272296cca0b001759f562,64d2fd46c836a06233681665,64dc7e21ed9d66855003348f,,,,,,,sngl,resources/DG.BMP,resources/Empty.png,Door1,-0.1796875,-0.154947917,1,0,0,0.579,optionLeft,30,14025,6,42,0,42,0,1,,,,,,,,,,,,,,,,,,,,,,,,,,,,,,,,,,,,,,,
,,,,,,,,2023-08-16_08h43.47.264,HF_wild_card,2022.2.4,Win32,60.2373351,5d8272296cca0b001759f562,64d2fd46c836a06233681665,64dc7e21ed9d66855003348f,,,,,,,decisionTrl,resources/DR.BMP,resources/DBN.BMP,WildCard_NonEx,-0.231770833,-0.139322917,1,0,0,0.7481,optionLeft,45,14070,6,43,0,43,0,1,,,,,,,,,,,,,,,,,,,,,,,,,,,,,,,,,,,,,,,
,,,,,,,,2023-08-16_08h43.47.264,HF_wild_card,2022.2.4,Win32,60.2373351,5d8272296cca0b001759f562,64d2fd46c836a06233681665,64dc7e21ed9d66855003348f,,,,,,,,,,,,,,,,,,,,,,,,,,5,0,5,0,1,,,,,,,,,,,,,,,,,,,,,,,,,,,,,,,,,,
,,,,,,,,2023-08-16_08h43.47.264,HF_wild_card,2022.2.4,Win32,60.2373351,5d8272296cca0b001759f562,64d2fd46c836a06233681665,64dc7e21ed9d66855003348f,,,,,,,decisionTrl,resources/DBN.BMP,resources/DG.BMP,Door1,0.311197917,-0.1015625,1,0,0,0.9457,optionRight,30,14100,7,0,0,0,0,1,,,,,,,,,,,,,,,,,,,,,,,,,,,,,,,,,,,,,,,
,,,,,,,,2023-08-16_08h43.47.264,HF_wild_card,2022.2.4,Win32,60.2373351,5d8272296cca0b001759f562,64d2fd46c836a06233681665,64dc7e21ed9d66855003348f,,,,,,,decisionTrl,resources/DG.BMP,resources/DBN.BMP,Door1,-0.252604167,-0.14453125,1,0,0,0.7763,optionLeft,30,14130,7,1,0,1,0,1,,,,,,,,,,,,,,,,,,,,,,,,,,,,,,,,,,,,,,,
,,,,,,,,2023-08-16_08h43.47.264,HF_wild_card,2022.2.4,Win32,60.2373351,5d8272296cca0b001759f562,64d2fd46c836a06233681665,64dc7e21ed9d66855003348f,,,,,,,decisionTrl,resources/DBN.BMP,resources/DG.BMP,Door1,0.375,-0.149739583,1,0,0,0.5989,optionRight,30,14160,7,2,0,2,0,1,,,,,,,,,,,,,,,,,,,,,,,,,,,,,,,,,,,,,,,
,,,,,,,,2023-08-16_08h43.47.264,HF_wild_card,2022.2.4,Win32,60.2373351,5d8272296cca0b001759f562,64d2fd46c836a06233681665,64dc7e21ed9d66855003348f,,,,,,,decisionTrl,resources/DG.BMP,resources/DBN.BMP,Door1,-0.2734375,-0.15625,1,0,0,0.6812,optionLeft,30,14190,7,3,0,3,0,1,,,,,,,,,,,,,,,,,,,,,,,,,,,,,,,,,,,,,,,
,,,,,,,,2023-08-16_08h43.47.264,HF_wild_card,2022.2.4,Win32,60.2373351,5d8272296cca0b001759f562,64d2fd46c836a06233681665,64dc7e21ed9d66855003348f,,,,,,,decisionTrl,resources/DG.BMP,resources/DBN.BMP,Door1,-0.239583333,-0.18359375,1,0,0,0.7897,optionLeft,30,14220,7,4,0,4,0,1,,,,,,,,,,,,,,,,,,,,,,,,,,,,,,,,,,,,,,,
,,,,,,,,2023-08-16_08h43.47.264,HF_wild_card,2022.2.4,Win32,60.2373351,5d8272296cca0b001759f562,64d2fd46c836a06233681665,64dc7e21ed9d66855003348f,,,,,,,decisionTrl,resources/DY.BMP,resources/DP.BMP,Door4,-0.21484375,-0.190104167,1,0,0,2.4672,optionLeft,60,14280,7,5,0,5,0,1,,,,,,,,,,,,,,,,,,,,,,,,,,,,,,,,,,,,,,,
,,,,,,,,2023-08-16_08h43.47.264,HF_wild_card,2022.2.4,Win32,60.2373351,5d8272296cca0b001759f562,64d2fd46c836a06233681665,64dc7e21ed9d66855003348f,,,,,,,decisionTrl,resources/DBN.BMP,resources/DG.BMP,Door1,0.334635417,-0.153645833,1,0,0,0.6817,optionRight,30,14310,7,6,0,6,0,1,,,,,,,,,,,,,,,,,,,,,,,,,,,,,,,,,,,,,,,
,,,,,,,,2023-08-16_08h43.47.264,HF_wild_card,2022.2.4,Win32,60.2373351,5d8272296cca0b001759f562,64d2fd46c836a06233681665,64dc7e21ed9d66855003348f,,,,,,,decisionTrl,resources/DP.BMP,resources/DY.BMP,Door4,0.341145833,-0.177083333,1,0,0,0.8413,optionRight,80,14390,7,7,0,7,0,1,,,,,,,,,,,,,,,,,,,,,,,,,,,,,,,,,,,,,,,
,,,,,,,,2023-08-16_08h43.47.264,HF_wild_card,2022.2.4,Win32,60.2373351,5d8272296cca0b001759f562,64d2fd46c836a06233681665,64dc7e21ed9d66855003348f,,,,,,,ctch,resources/DG.BMP,resources/DY.BMP,Door4,0.354166667,-0.170572917,1,0,0,0.5669,optionRight,60,14450,7,8,0,8,0,1,,,,,,,,,,,,,,,,,,,,,,,,,,,,,,,,,,,,,,,
,,,,,,,,2023-08-16_08h43.47.264,HF_wild_card,2022.2.4,Win32,60.2373351,5d8272296cca0b001759f562,64d2fd46c836a06233681665,64dc7e21ed9d66855003348f,,,,,,,decisionTrl,resources/DY.BMP,resources/DP.BMP,Door4,-0.21875,-0.190104167,1,0,0,0.9679,optionLeft,60,14510,7,9,0,9,0,1,,,,,,,,,,,,,,,,,,,,,,,,,,,,,,,,,,,,,,,
,,,,,,,,2023-08-16_08h43.47.264,HF_wild_card,2022.2.4,Win32,60.2373351,5d8272296cca0b001759f562,64d2fd46c836a06233681665,64dc7e21ed9d66855003348f,,,,,,,ctch,resources/DBN.BMP,resources/DP.BMP,Door3,0.3671875,-0.151041667,1,0,0,0.8005,optionRight,70,14580,7,10,0,10,0,1,,,,,,,,,,,,,,,,,,,,,,,,,,,,,,,,,,,,,,,
,,,,,,,,2023-08-16_08h43.47.264,HF_wild_card,2022.2.4,Win32,60.2373351,5d8272296cca0b001759f562,64d2fd46c836a06233681665,64dc7e21ed9d66855003348f,,,,,,,decisionTrl,resources/DP.BMP,resources/DY.BMP,Door3,-0.190104167,-0.197916667,1,0,0,0.8595,optionLeft,70,14650,7,11,0,11,0,1,,,,,,,,,,,,,,,,,,,,,,,,,,,,,,,,,,,,,,,
,,,,,,,,2023-08-16_08h43.47.264,HF_wild_card,2022.2.4,Win32,60.2373351,5d8272296cca0b001759f562,64d2fd46c836a06233681665,64dc7e21ed9d66855003348f,,,,,,,decisionTrl,resources/DY.BMP,resources/DP.BMP,Door3,0.384114583,-0.145833333,1,0,0,0.6522,optionRight,70,14720,7,12,0,12,0,1,,,,,,,,,,,,,,,,,,,,,,,,,,,,,,,,,,,,,,,
,,,,,,,,2023-08-16_08h43.47.264,HF_wild_card,2022.2.4,Win32,60.2373351,5d8272296cca0b001759f562,64d2fd46c836a06233681665,64dc7e21ed9d66855003348f,,,,,,,decisionTrl,resources/DBN.BMP,resources/DG.BMP,Door1,0.390625,-0.1328125,1,0,0,0.6398,optionRight,30,14750,7,13,0,13,0,1,,,,,,,,,,,,,,,,,,,,,,,,,,,,,,,,,,,,,,,
,,,,,,,,2023-08-16_08h43.47.264,HF_wild_card,2022.2.4,Win32,60.2373351,5d8272296cca0b001759f562,64d2fd46c836a06233681665,64dc7e21ed9d66855003348f,,,,,,,ctch,resources/DBN.BMP,resources/DP.BMP,Door3,0.393229167,-0.145833333,1,0,0,0.5756,optionRight,70,14820,7,14,0,14,0,1,,,,,,,,,,,,,,,,,,,,,,,,,,,,,,,,,,,,,,,
,,,,,,,,2023-08-16_08h43.47.264,HF_wild_card,2022.2.4,Win32,60.2373351,5d8272296cca0b001759f562,64d2fd46c836a06233681665,64dc7e21ed9d66855003348f,,,,,,,ctch,resources/DP.BMP,resources/DBN.BMP,Door3,-0.2578125,-0.141927083,1,0,0,0.6092,optionLeft,70,14890,7,15,0,15,0,1,,,,,,,,,,,,,,,,,,,,,,,,,,,,,,,,,,,,,,,
,,,,,,,,2023-08-16_08h43.47.264,HF_wild_card,2022.2.4,Win32,60.2373351,5d8272296cca0b001759f562,64d2fd46c836a06233681665,64dc7e21ed9d66855003348f,,,,,,,decisionTrl,resources/DG.BMP,resources/DBN.BMP,Door1,-0.171875,-0.161458333,1,0,0,0.5995,optionLeft,30,14920,7,16,0,16,0,1,,,,,,,,,,,,,,,,,,,,,,,,,,,,,,,,,,,,,,,
,,,,,,,,2023-08-16_08h43.47.264,HF_wild_card,2022.2.4,Win32,60.2373351,5d8272296cca0b001759f562,64d2fd46c836a06233681665,64dc7e21ed9d66855003348f,,,,,,,decisionTrl,resources/DY.BMP,resources/DP.BMP,Door3,0.3828125,-0.110677083,1,0,0,1.1336,optionRight,70,14990,7,17,0,17,0,1,,,,,,,,,,,,,,,,,,,,,,,,,,,,,,,,,,,,,,,
,,,,,,,,2023-08-16_08h43.47.264,HF_wild_card,2022.2.4,Win32,60.2373351,5d8272296cca0b001759f562,64d2fd46c836a06233681665,64dc7e21ed9d66855003348f,,,,,,,ctch,resources/DG.BMP,resources/DY.BMP,Door4,0.375,-0.16015625,1,0,0,0.7489,optionRight,80,15070,7,18,0,18,0,1,,,,,,,,,,,,,,,,,,,,,,,,,,,,,,,,,,,,,,,
,,,,,,,,2023-08-16_08h43.47.264,HF_wild_card,2022.2.4,Win32,60.2373351,5d8272296cca0b001759f562,64d2fd46c836a06233681665,64dc7e21ed9d66855003348f,,,,,,,ctch,resources/DY.BMP,resources/DG.BMP,Door4,-0.264322917,-0.15234375,1,0,0,0.7683,optionLeft,80,15150,7,19,0,19,0,1,,,,,,,,,,,,,,,,,,,,,,,,,,,,,,,,,,,,,,,
,,,,,,,,2023-08-16_08h43.47.264,HF_wild_card,2022.2.4,Win32,60.2373351,5d8272296cca0b001759f562,64d2fd46c836a06233681665,64dc7e21ed9d66855003348f,,,,,,,ctch,resources/DBN.BMP,resources/DP.BMP,Door3,0.419270833,-0.1484375,1,0,0,0.4317,optionRight,70,15220,7,20,0,20,0,1,,,,,,,,,,,,,,,,,,,,,,,,,,,,,,,,,,,,,,,
,,,,,,,,2023-08-16_08h43.47.264,HF_wild_card,2022.2.4,Win32,60.2373351,5d8272296cca0b001759f562,64d2fd46c836a06233681665,64dc7e21ed9d66855003348f,,,,,,,decisionTrl,resources/DY.BMP,resources/DP.BMP,Door3,0.391927083,-0.139322917,1,0,0,0.5038,optionRight,70,15290,7,21,0,21,0,1,,,,,,,,,,,,,,,,,,,,,,,,,,,,,,,,,,,,,,,
,,,,,,,,2023-08-16_08h43.47.264,HF_wild_card,2022.2.4,Win32,60.2373351,5d8272296cca0b001759f562,64d2fd46c836a06233681665,64dc7e21ed9d66855003348f,,,,,,,decisionTrl,resources/DG.BMP,resources/DBN.BMP,Door1,-0.184895833,-0.180989583,1,0,0,0.6318,optionLeft,30,15320,7,22,0,22,0,1,,,,,,,,,,,,,,,,,,,,,,,,,,,,,,,,,,,,,,,
,,,,,,,,2023-08-16_08h43.47.264,HF_wild_card,2022.2.4,Win32,60.2373351,5d8272296cca0b001759f562,64d2fd46c836a06233681665,64dc7e21ed9d66855003348f,,,,,,,ctch,resources/DY.BMP,resources/DG.BMP,Door4,-0.2265625,-0.177083333,1,0,0,0.9813,optionLeft,80,15400,7,23,0,23,0,1,,,,,,,,,,,,,,,,,,,,,,,,,,,,,,,,,,,,,,,
,,,,,,,,2023-08-16_08h43.47.264,HF_wild_card,2022.2.4,Win32,60.2373351,5d8272296cca0b001759f562,64d2fd46c836a06233681665,64dc7e21ed9d66855003348f,,,,,,,decisionTrl,resources/DG.BMP,resources/DBN.BMP,Door1,-0.2421875,-0.158854167,1,0,0,0.7077,optionLeft,30,15430,7,24,0,24,0,1,,,,,,,,,,,,,,,,,,,,,,,,,,,,,,,,,,,,,,,
,,,,,,,,2023-08-16_08h43.47.264,HF_wild_card,2022.2.4,Win32,60.2373351,5d8272296cca0b001759f562,64d2fd46c836a06233681665,64dc7e21ed9d66855003348f,,,,,,,ctch,resources/DP.BMP,resources/DBN.BMP,Door3,-0.19921875,-0.174479167,1,0,0,0.5652,optionLeft,70,15500,7,25,0,25,0,1,,,,,,,,,,,,,,,,,,,,,,,,,,,,,,,,,,,,,,,
,,,,,,,,2023-08-16_08h43.47.264,HF_wild_card,2022.2.4,Win32,60.2373351,5d8272296cca0b001759f562,64d2fd46c836a06233681665,64dc7e21ed9d66855003348f,,,,,,,ctch,resources/DG.BMP,resources/DY.BMP,Door4,0.376302083,-0.16015625,1,0,0,0.7669,optionRight,60,15560,7,26,0,26,0,1,,,,,,,,,,,,,,,,,,,,,,,,,,,,,,,,,,,,,,,
,,,,,,,,2023-08-16_08h43.47.264,HF_wild_card,2022.2.4,Win32,60.2373351,5d8272296cca0b001759f562,64d2fd46c836a06233681665,64dc7e21ed9d66855003348f,,,,,,,ctch,resources/DP.BMP,resources/DBN.BMP,Door3,-0.20703125,-0.141927083,1,0,0,0.5412,optionLeft,70,15630,7,27,0,27,0,1,,,,,,,,,,,,,,,,,,,,,,,,,,,,,,,,,,,,,,,
,,,,,,,,2023-08-16_08h43.47.264,HF_wild_card,2022.2.4,Win32,60.2373351,5d8272296cca0b001759f562,64d2fd46c836a06233681665,64dc7e21ed9d66855003348f,,,,,,,decisionTrl,resources/DP.BMP,resources/DY.BMP,Door3,-0.220052083,-0.166666667,1,0,0,0.689,optionLeft,70,15700,7,28,0,28,0,1,,,,,,,,,,,,,,,,,,,,,,,,,,,,,,,,,,,,,,,
,,,,,,,,2023-08-16_08h43.47.264,HF_wild_card,2022.2.4,Win32,60.2373351,5d8272296cca0b001759f562,64d2fd46c836a06233681665,64dc7e21ed9d66855003348f,,,,,,,ctch,resources/DY.BMP,resources/DG.BMP,Door4,-0.216145833,-0.188802083,1,0,0,1.0508,optionLeft,60,15760,7,29,0,29,0,1,,,,,,,,,,,,,,,,,,,,,,,,,,,,,,,,,,,,,,,
,,,,,,,,2023-08-16_08h43.47.264,HF_wild_card,2022.2.4,Win32,60.2373351,5d8272296cca0b001759f562,64d2fd46c836a06233681665,64dc7e21ed9d66855003348f,,,,,,,decisionTrl,resources/DP.BMP,resources/DY.BMP,Door3,-0.220052083,-0.178385417,1,0,0,0.8503,optionLeft,70,15830,7,30,0,30,0,1,,,,,,,,,,,,,,,,,,,,,,,,,,,,,,,,,,,,,,,
,,,,,,,,2023-08-16_08h43.47.264,HF_wild_card,2022.2.4,Win32,60.2373351,5d8272296cca0b001759f562,64d2fd46c836a06233681665,64dc7e21ed9d66855003348f,,,,,,,decisionTrl,resources/DBN.BMP,resources/DG.BMP,Door1,0.369791667,-0.15234375,1,0,0,0.7322,optionRight,30,15860,7,31,0,31,0,1,,,,,,,,,,,,,,,,,,,,,,,,,,,,,,,,,,,,,,,
,,,,,,,,2023-08-16_08h43.47.264,HF_wild_card,2022.2.4,Win32,60.2373351,5d8272296cca0b001759f562,64d2fd46c836a06233681665,64dc7e21ed9d66855003348f,,,,,,,decisionTrl,resources/DP.BMP,resources/DY.BMP,Door3,-0.197916667,-0.19140625,1,0,0,1.118,optionLeft,70,15930,7,32,0,32,0,1,,,,,,,,,,,,,,,,,,,,,,,,,,,,,,,,,,,,,,,
,,,,,,,,2023-08-16_08h43.47.264,HF_wild_card,2022.2.4,Win32,60.2373351,5d8272296cca0b001759f562,64d2fd46c836a06233681665,64dc7e21ed9d66855003348f,,,,,,,decisionTrl,resources/DP.BMP,resources/DY.BMP,Door3,-0.2109375,-0.161458333,1,0,0,0.5675,optionLeft,70,16000,7,33,0,33,0,1,,,,,,,,,,,,,,,,,,,,,,,,,,,,,,,,,,,,,,,
,,,,,,,,2023-08-16_08h43.47.264,HF_wild_card,2022.2.4,Win32,60.2373351,5d8272296cca0b001759f562,64d2fd46c836a06233681665,64dc7e21ed9d66855003348f,,,,,,,decisionTrl,resources/DY.BMP,resources/DP.BMP,Door3,0.395833333,-0.130208333,1,0,0,0.5461,optionRight,70,16070,7,34,0,34,0,1,,,,,,,,,,,,,,,,,,,,,,,,,,,,,,,,,,,,,,,
,,,,,,,,2023-08-16_08h43.47.264,HF_wild_card,2022.2.4,Win32,60.2373351,5d8272296cca0b001759f562,64d2fd46c836a06233681665,64dc7e21ed9d66855003348f,,,,,,,decisionTrl,resources/DBN.BMP,resources/DG.BMP,Door1,0.37109375,-0.15234375,1,0,0,0.8163,optionRight,30,16100,7,35,0,35,0,1,,,,,,,,,,,,,,,,,,,,,,,,,,,,,,,,,,,,,,,
,,,,,,,,2023-08-16_08h43.47.264,HF_wild_card,2022.2.4,Win32,60.2373351,5d8272296cca0b001759f562,64d2fd46c836a06233681665,64dc7e21ed9d66855003348f,,,,,,,,,,,,,,,,,,,,,,,,,,6,0,6,0,1,,,,,,,,,,,,,,,,,,,,,,,,,,,,,,,,,,
,,,,,,,,2023-08-16_08h43.47.264,HF_wild_card,2022.2.4,Win32,60.2373351,5d8272296cca0b001759f562,64d2fd46c836a06233681665,64dc7e21ed9d66855003348f,,,,,,,,,,,,,,,,,,,,,,,,,,,,,,,4,,,,,,,,,,,,,,,,,,,,,,,,,,,,,,,,,
,,,,,,,,2023-08-16_08h43.47.264,HF_wild_card,2022.2.4,Win32,60.2373351,5d8272296cca0b001759f562,64d2fd46c836a06233681665,64dc7e21ed9d66855003348f,,,,,,,,,,,,,,,,,,,,,,,,,,,,,,,,,,,,,,,,,,,,,,,,,,,,,,,,,,,,,,,,
,,,,,,,,2023-08-16_08h43.47.264,HF_wild_card,2022.2.4,Win32,60.2373351,5d8272296cca0b001759f562,64d2fd46c836a06233681665,64dc7e21ed9d66855003348f,,,,,,,,,,,,,,,,,,,,,,,,,,,,,,,,20,Door2,resources/DBN.BMP,0,0,0,0,1,,,,,,,,,,,,,,,,,,,,,,,,,
,,,,,,,,2023-08-16_08h43.47.264,HF_wild_card,2022.2.4,Win32,60.2373351,5d8272296cca0b001759f562,64d2fd46c836a06233681665,64dc7e21ed9d66855003348f,,,,,,,,,,,,,,,,,,,,,,,,,,,,,,,,30,Door1,resources/DG.BMP,1,0,1,0,1,,,,,,,,,,,,,,,,,,,,,,,,,
,,,,,,,,2023-08-16_08h43.47.264,HF_wild_card,2022.2.4,Win32,60.2373351,5d8272296cca0b001759f562,64d2fd46c836a06233681665,64dc7e21ed9d66855003348f,,,,,,,,,,,,,,,,,,,,,,,,,,,,,,,,95,WC_extreme,resources/DB.BMP,2,0,2,0,1,,,,,,,,,,,,,,,,,,,,,,,,,
,,,,,,,,2023-08-16_08h43.47.264,HF_wild_card,2022.2.4,Win32,60.2373351,5d8272296cca0b001759f562,64d2fd46c836a06233681665,64dc7e21ed9d66855003348f,,,,,,,,,,,,,,,,,,,,,,,,,,,,,,,,55,WC_nonExtreme,resources/DR.BMP,3,0,3,0,1,,,,,,,,,,,,,,,,,,,,,,,,,
,,,,,,,,2023-08-16_08h43.47.264,HF_wild_card,2022.2.4,Win32,60.2373351,5d8272296cca0b001759f562,64d2fd46c836a06233681665,64dc7e21ed9d66855003348f,,,,,,,,,,,,,,,,,,,,,,,,,,,,,,,,70,Door3,resources/DP.BMP,4,0,4,0,1,,,,,,,,,,,,,,,,,,,,,,,,,
,,,,,,,,2023-08-16_08h43.47.264,HF_wild_card,2022.2.4,Win32,60.2373351,5d8272296cca0b001759f562,64d2fd46c836a06233681665,64dc7e21ed9d66855003348f,,,,,,,,,,,,,,,,,,,,,,,,,,,,,,,,80,Door4,resources/DY.BMP,5,0,5,0,1,,,,,,,,,,,,,,,,,,,,,,,,,
,,,,,,,,2023-08-16_08h43.47.264,HF_wild_card,2022.2.4,Win32,60.2373351,5d8272296cca0b001759f562,64d2fd46c836a06233681665,64dc7e21ed9d66855003348f,,,,,,,,,,,,,,,,,,,,,,,,,,,,,,,,,,,,,,,,,,,,,,,,,,,,,,,,,,,,,,,,
,,,,,,,,2023-08-16_08h43.47.264,HF_wild_card,2022.2.4,Win32,60.2373351,5d8272296cca0b001759f562,64d2fd46c836a06233681665,64dc7e21ed9d66855003348f,,,,,,,,,,,,,,,,,,,,,,,,,,,,,,,,,,,,,,,,0,0,0,0,1,,,,,,,,,,,,,,,,,,,,
,,,,,,,,2023-08-16_08h43.47.264,HF_wild_card,2022.2.4,Win32,60.2373351,5d8272296cca0b001759f562,64d2fd46c836a06233681665,64dc7e21ed9d66855003348f,,,,,,,,,,,,,,,,,,,,,,,,,,,,,,,,,,,,,,,,1,0,1,0,1,,,,,,,,,,,,,,,,,,,,
,,,,,,,,2023-08-16_08h43.47.264,HF_wild_card,2022.2.4,Win32,60.2373351,5d8272296cca0b001759f562,64d2fd46c836a06233681665,64dc7e21ed9d66855003348f,,,,,,,,,,,,,,,,,,,,,,,,,,,,,,,,,,,,,,,,,,,,,0.292,-0.4088,1,0,0,no,0,0,0,0,1,,,,,,,,,
