Condition,Low fixed image (Door1),Low risky image (Door2),High fixed image (Door3),High risky image (Door4),Extreme Wild Card,NonExtreme Wild Card,,date,expName,psychopyVersion,OS,frameRate,PROLIFIC_PID,STUDY_ID,SESSION_ID,mouse_2.x,mouse_2.y,mouse_2.leftButton,mouse_2.midButton,mouse_2.rightButton,mouse_2.clicked_name,Trial Type,Left Option Image,Right Option Image,Chosen Door,mouse.x,mouse.y,mouse.leftButton,mouse.midButton,mouse.rightButton,mouse.time,mouse.clicked_name,Feedback,Cumulative Reward,Block,trial.thisRepN,trial.thisTrialN,trial.thisN,trial.thisIndex,trial.ran,blocks.thisRepN,blocks.thisTrialN,blocks.thisN,blocks.thisIndex,blocks.ran,Money conversion,First Outcome Reported,Shown Door (First Outcome),Displayed Image (First Outcome),outcomes.thisRepN,outcomes.thisTrialN,outcomes.thisN,outcomes.thisIndex,outcomes.ran,judgments.thisRepN,judgments.thisTrialN,judgments.thisN,judgments.thisIndex,judgments.ran,freqMouse.x,freqMouse.y,freqMouse.leftButton,freqMouse.midButton,freqMouse.rightButton,freqMouse.clicked_name,FQJ for first outcome,FQJ for second outcome,Shown Door,Displayed Image,trials.thisRepN,trials.thisTrialN,trials.thisN,trials.thisIndex,trials.ran,judgBlock.thisRepN,judgBlock.thisTrialN,judgBlock.thisN,judgBlock.thisIndex,judgBlock.ran
1,resources/DBN.BMP,resources/DY.BMP,resources/DB.BMP,resources/DR.BMP,resources/DP.BMP,resources/DG.BMP,,2023-08-16_08h42.29.115,HF_wild_card,2022.2.4,Win32,60.13590715,5a102e9dfdf6fc0001279561,64d2fd46c836a06233681665,64dc7d1a2c6c239c09739ab6,,,,,,,,,,,,,,,,,,,,,,,,,,,,,,,,,,,,,,,,,,,,,,,,,,,,,,,,,,,,,,,,
,,,,,,,,2023-08-16_08h42.29.115,HF_wild_card,2022.2.4,Win32,60.13590715,5a102e9dfdf6fc0001279561,64d2fd46c836a06233681665,64dc7d1a2c6c239c09739ab6,0.0015625,-0.42578125,1,0,0,agree,,,,,,,,,,,,,,,,,,,,,,,,,,,,,,,,,,,,,,,,,,,,,,,,,,,,,,,,,,
,,,,,,,,2023-08-16_08h42.29.115,HF_wild_card,2022.2.4,Win32,60.13590715,5a102e9dfdf6fc0001279561,64d2fd46c836a06233681665,64dc7d1a2c6c239c09739ab6,,,,,,,,,,,,,,,,,,,,,,,,,,,,,,,,,,,,,,,,,,,,,,,,,,,,,,,,,,,,,,,,
,,,,,,,,2023-08-16_08h42.29.115,HF_wild_card,2022.2.4,Win32,60.13590715,5a102e9dfdf6fc0001279561,64d2fd46c836a06233681665,64dc7d1a2c6c239c09739ab6,,,,,,,decisionTrl,resources/DY.BMP,resources/DBN.BMP,Door2,-0.32265625,-0.09375,1,0,0,2.5888,optionLeft,20,20,1,0,0,0,0,1,,,,,,,,,,,,,,,,,,,,,,,,,,,,,,,,,,,,,,,
,,,,,,,,2023-08-16_08h42.29.115,HF_wild_card,2022.2.4,Win32,60.13590715,5a102e9dfdf6fc0001279561,64d2fd46c836a06233681665,64dc7d1a2c6c239c09739ab6,,,,,,,decisionTrl,resources/DY.BMP,resources/DBN.BMP,Door1,0.340104167,-0.024739583,1,0,0,2.8223,optionRight,30,50,1,1,0,1,0,1,,,,,,,,,,,,,,,,,,,,,,,,,,,,,,,,,,,,,,,
,,,,,,,,2023-08-16_08h42.29.115,HF_wild_card,2022.2.4,Win32,60.13590715,5a102e9dfdf6fc0001279561,64d2fd46c836a06233681665,64dc7d1a2c6c239c09739ab6,,,,,,,decisionTrl,resources/DG.BMP,resources/DY.BMP,WildCard_NonEx,-0.300520833,-0.018229167,1,0,0,2.1319,optionLeft,45,95,1,2,0,2,0,1,,,,,,,,,,,,,,,,,,,,,,,,,,,,,,,,,,,,,,,
,,,,,,,,2023-08-16_08h42.29.115,HF_wild_card,2022.2.4,Win32,60.13590715,5a102e9dfdf6fc0001279561,64d2fd46c836a06233681665,64dc7d1a2c6c239c09739ab6,,,,,,,sngl,resources/DY.BMP,resources/Empty.png,Door2,-0.38125,-0.018229167,1,0,0,1.5298,optionLeft,40,135,1,3,0,3,0,1,,,,,,,,,,,,,,,,,,,,,,,,,,,,,,,,,,,,,,,
,,,,,,,,2023-08-16_08h42.29.115,HF_wild_card,2022.2.4,Win32,60.13590715,5a102e9dfdf6fc0001279561,64d2fd46c836a06233681665,64dc7d1a2c6c239c09739ab6,,,,,,,decisionTrl,resources/DY.BMP,resources/DBN.BMP,Door1,0.320572917,0.001302083,1,0,0,1.1556,optionRight,30,165,1,4,0,4,0,1,,,,,,,,,,,,,,,,,,,,,,,,,,,,,,,,,,,,,,,
,,,,,,,,2023-08-16_08h42.29.115,HF_wild_card,2022.2.4,Win32,60.13590715,5a102e9dfdf6fc0001279561,64d2fd46c836a06233681665,64dc7d1a2c6c239c09739ab6,,,,,,,sngl,resources/Empty.png,resources/DG.BMP,WildCard_NonEx,0.264583333,-0.002604167,1,0,0,0.6601,optionRight,45,210,1,5,0,5,0,1,,,,,,,,,,,,,,,,,,,,,,,,,,,,,,,,,,,,,,,
,,,,,,,,2023-08-16_08h42.29.115,HF_wild_card,2022.2.4,Win32,60.13590715,5a102e9dfdf6fc0001279561,64d2fd46c836a06233681665,64dc7d1a2c6c239c09739ab6,,,,,,,sngl,resources/DR.BMP,resources/Empty.png,Door4,-0.3421875,-0.036458333,1,0,0,1.07,optionLeft,80,290,1,6,0,6,0,1,,,,,,,,,,,,,,,,,,,,,,,,,,,,,,,,,,,,,,,
,,,,,,,,2023-08-16_08h42.29.115,HF_wild_card,2022.2.4,Win32,60.13590715,5a102e9dfdf6fc0001279561,64d2fd46c836a06233681665,64dc7d1a2c6c239c09739ab6,,,,,,,decisionTrl,resources/DG.BMP,resources/DBN.BMP,WildCard_NonEx,-0.2328125,-0.028645833,1,0,0,1.1531,optionLeft,45,335,1,7,0,7,0,1,,,,,,,,,,,,,,,,,,,,,,,,,,,,,,,,,,,,,,,
,,,,,,,,2023-08-16_08h42.29.115,HF_wild_card,2022.2.4,Win32,60.13590715,5a102e9dfdf6fc0001279561,64d2fd46c836a06233681665,64dc7d1a2c6c239c09739ab6,,,,,,,ctch,resources/DR.BMP,resources/DBN.BMP,Door4,-0.34609375,-0.016927083,1,0,0,1.8441,optionLeft,60,395,1,8,0,8,0,1,,,,,,,,,,,,,,,,,,,,,,,,,,,,,,,,,,,,,,,
,,,,,,,,2023-08-16_08h42.29.115,HF_wild_card,2022.2.4,Win32,60.13590715,5a102e9dfdf6fc0001279561,64d2fd46c836a06233681665,64dc7d1a2c6c239c09739ab6,,,,,,,decisionTrl,resources/DG.BMP,resources/DB.BMP,Door3,0.332291667,-0.02734375,1,0,0,1.3865,optionRight,70,465,1,9,0,9,0,1,,,,,,,,,,,,,,,,,,,,,,,,,,,,,,,,,,,,,,,
,,,,,,,,2023-08-16_08h42.29.115,HF_wild_card,2022.2.4,Win32,60.13590715,5a102e9dfdf6fc0001279561,64d2fd46c836a06233681665,64dc7d1a2c6c239c09739ab6,,,,,,,decisionTrl,resources/DBN.BMP,resources/DY.BMP,Door2,0.36484375,-0.029947917,1,0,0,1.5081,optionRight,40,505,1,10,0,10,0,1,,,,,,,,,,,,,,,,,,,,,,,,,,,,,,,,,,,,,,,
,,,,,,,,2023-08-16_08h42.29.115,HF_wild_card,2022.2.4,Win32,60.13590715,5a102e9dfdf6fc0001279561,64d2fd46c836a06233681665,64dc7d1a2c6c239c09739ab6,,,,,,,sngl,resources/DG.BMP,resources/Empty.png,WildCard_NonEx,-0.271875,-0.02734375,1,0,0,0.8339,optionLeft,45,550,1,11,0,11,0,1,,,,,,,,,,,,,,,,,,,,,,,,,,,,,,,,,,,,,,,
,,,,,,,,2023-08-16_08h42.29.115,HF_wild_card,2022.2.4,Win32,60.13590715,5a102e9dfdf6fc0001279561,64d2fd46c836a06233681665,64dc7d1a2c6c239c09739ab6,,,,,,,decisionTrl,resources/DBN.BMP,resources/DY.BMP,Door2,0.4234375,-0.053385417,1,0,0,1.5136,optionRight,20,570,1,12,0,12,0,1,,,,,,,,,,,,,,,,,,,,,,,,,,,,,,,,,,,,,,,
,,,,,,,,2023-08-16_08h42.29.115,HF_wild_card,2022.2.4,Win32,60.13590715,5a102e9dfdf6fc0001279561,64d2fd46c836a06233681665,64dc7d1a2c6c239c09739ab6,,,,,,,ctch,resources/DB.BMP,resources/DY.BMP,Door3,-0.365625,-0.02734375,1,0,0,0.9462,optionLeft,70,640,1,13,0,13,0,1,,,,,,,,,,,,,,,,,,,,,,,,,,,,,,,,,,,,,,,
,,,,,,,,2023-08-16_08h42.29.115,HF_wild_card,2022.2.4,Win32,60.13590715,5a102e9dfdf6fc0001279561,64d2fd46c836a06233681665,64dc7d1a2c6c239c09739ab6,,,,,,,decisionTrl,resources/DB.BMP,resources/DG.BMP,Door3,-0.254947917,-0.0078125,1,0,0,1.5441,optionLeft,70,710,1,14,0,14,0,1,,,,,,,,,,,,,,,,,,,,,,,,,,,,,,,,,,,,,,,
,,,,,,,,2023-08-16_08h42.29.115,HF_wild_card,2022.2.4,Win32,60.13590715,5a102e9dfdf6fc0001279561,64d2fd46c836a06233681665,64dc7d1a2c6c239c09739ab6,,,,,,,decisionTrl,resources/DR.BMP,resources/DB.BMP,Door3,0.441666667,-0.088541667,1,0,0,1.2971,optionRight,70,780,1,15,0,15,0,1,,,,,,,,,,,,,,,,,,,,,,,,,,,,,,,,,,,,,,,
,,,,,,,,2023-08-16_08h42.29.115,HF_wild_card,2022.2.4,Win32,60.13590715,5a102e9dfdf6fc0001279561,64d2fd46c836a06233681665,64dc7d1a2c6c239c09739ab6,,,,,,,decisionTrl,resources/DB.BMP,resources/DR.BMP,Door4,0.40390625,-0.03515625,1,0,0,0.9257,optionRight,60,840,1,16,0,16,0,1,,,,,,,,,,,,,,,,,,,,,,,,,,,,,,,,,,,,,,,
,,,,,,,,2023-08-16_08h42.29.115,HF_wild_card,2022.2.4,Win32,60.13590715,5a102e9dfdf6fc0001279561,64d2fd46c836a06233681665,64dc7d1a2c6c239c09739ab6,,,,,,,decisionTrl,resources/DR.BMP,resources/DB.BMP,Door3,0.31015625,-0.037760417,1,0,0,0.6616,optionRight,70,910,1,17,0,17,0,1,,,,,,,,,,,,,,,,,,,,,,,,,,,,,,,,,,,,,,,
,,,,,,,,2023-08-16_08h42.29.115,HF_wild_card,2022.2.4,Win32,60.13590715,5a102e9dfdf6fc0001279561,64d2fd46c836a06233681665,64dc7d1a2c6c239c09739ab6,,,,,,,ctch,resources/DY.BMP,resources/DB.BMP,Door3,0.327083333,-0.016927083,1,0,0,0.6845,optionRight,70,980,1,18,0,18,0,1,,,,,,,,,,,,,,,,,,,,,,,,,,,,,,,,,,,,,,,
,,,,,,,,2023-08-16_08h42.29.115,HF_wild_card,2022.2.4,Win32,60.13590715,5a102e9dfdf6fc0001279561,64d2fd46c836a06233681665,64dc7d1a2c6c239c09739ab6,,,,,,,ctch,resources/DY.BMP,resources/DB.BMP,Door3,0.328385417,-0.018229167,1,0,0,0.6759,optionRight,70,1050,1,19,0,19,0,1,,,,,,,,,,,,,,,,,,,,,,,,,,,,,,,,,,,,,,,
,,,,,,,,2023-08-16_08h42.29.115,HF_wild_card,2022.2.4,Win32,60.13590715,5a102e9dfdf6fc0001279561,64d2fd46c836a06233681665,64dc7d1a2c6c239c09739ab6,,,,,,,decisionTrl,resources/DG.BMP,resources/DR.BMP,Door4,0.308854167,-0.01171875,1,0,0,1.794,optionRight,80,1130,1,20,0,20,0,1,,,,,,,,,,,,,,,,,,,,,,,,,,,,,,,,,,,,,,,
,,,,,,,,2023-08-16_08h42.29.115,HF_wild_card,2022.2.4,Win32,60.13590715,5a102e9dfdf6fc0001279561,64d2fd46c836a06233681665,64dc7d1a2c6c239c09739ab6,,,,,,,sngl,resources/Empty.png,resources/DBN.BMP,Door1,0.385677083,-0.005208333,1,0,0,0.9221,optionRight,30,1160,1,21,0,21,0,1,,,,,,,,,,,,,,,,,,,,,,,,,,,,,,,,,,,,,,,
,,,,,,,,2023-08-16_08h42.29.115,HF_wild_card,2022.2.4,Win32,60.13590715,5a102e9dfdf6fc0001279561,64d2fd46c836a06233681665,64dc7d1a2c6c239c09739ab6,,,,,,,decisionTrl,resources/DY.BMP,resources/DG.BMP,WildCard_NonEx,0.38046875,-0.03125,1,0,0,1.2585,optionRight,45,1205,1,22,0,22,0,1,,,,,,,,,,,,,,,,,,,,,,,,,,,,,,,,,,,,,,,
,,,,,,,,2023-08-16_08h42.29.115,HF_wild_card,2022.2.4,Win32,60.13590715,5a102e9dfdf6fc0001279561,64d2fd46c836a06233681665,64dc7d1a2c6c239c09739ab6,,,,,,,decisionTrl,resources/DB.BMP,resources/DR.BMP,Door4,0.272395833,-0.01953125,1,0,0,0.8715,optionRight,60,1265,1,23,0,23,0,1,,,,,,,,,,,,,,,,,,,,,,,,,,,,,,,,,,,,,,,
,,,,,,,,2023-08-16_08h42.29.115,HF_wild_card,2022.2.4,Win32,60.13590715,5a102e9dfdf6fc0001279561,64d2fd46c836a06233681665,64dc7d1a2c6c239c09739ab6,,,,,,,ctch,resources/DBN.BMP,resources/DR.BMP,Door4,0.290625,-0.03515625,1,0,0,0.8453,optionRight,80,1345,1,24,0,24,0,1,,,,,,,,,,,,,,,,,,,,,,,,,,,,,,,,,,,,,,,
,,,,,,,,2023-08-16_08h42.29.115,HF_wild_card,2022.2.4,Win32,60.13590715,5a102e9dfdf6fc0001279561,64d2fd46c836a06233681665,64dc7d1a2c6c239c09739ab6,,,,,,,ctch,resources/DR.BMP,resources/DBN.BMP,Door4,-0.365625,-0.016927083,1,0,0,0.6052,optionLeft,80,1425,1,25,0,25,0,1,,,,,,,,,,,,,,,,,,,,,,,,,,,,,,,,,,,,,,,
,,,,,,,,2023-08-16_08h42.29.115,HF_wild_card,2022.2.4,Win32,60.13590715,5a102e9dfdf6fc0001279561,64d2fd46c836a06233681665,64dc7d1a2c6c239c09739ab6,,,,,,,decisionTrl,resources/DR.BMP,resources/DB.BMP,Door3,0.211197917,-0.024739583,1,0,0,0.7955,optionRight,70,1495,1,26,0,26,0,1,,,,,,,,,,,,,,,,,,,,,,,,,,,,,,,,,,,,,,,
,,,,,,,,2023-08-16_08h42.29.115,HF_wild_card,2022.2.4,Win32,60.13590715,5a102e9dfdf6fc0001279561,64d2fd46c836a06233681665,64dc7d1a2c6c239c09739ab6,,,,,,,ctch,resources/DBN.BMP,resources/DR.BMP,Door4,0.26328125,-0.046875,1,0,0,0.7095,optionRight,60,1555,1,27,0,27,0,1,,,,,,,,,,,,,,,,,,,,,,,,,,,,,,,,,,,,,,,
,,,,,,,,2023-08-16_08h42.29.115,HF_wild_card,2022.2.4,Win32,60.13590715,5a102e9dfdf6fc0001279561,64d2fd46c836a06233681665,64dc7d1a2c6c239c09739ab6,,,,,,,decisionTrl,resources/DB.BMP,resources/DR.BMP,Door4,0.340104167,-0.048177083,1,0,0,0.5363,optionRight,60,1615,1,28,0,28,0,1,,,,,,,,,,,,,,,,,,,,,,,,,,,,,,,,,,,,,,,
,,,,,,,,2023-08-16_08h42.29.115,HF_wild_card,2022.2.4,Win32,60.13590715,5a102e9dfdf6fc0001279561,64d2fd46c836a06233681665,64dc7d1a2c6c239c09739ab6,,,,,,,decisionTrl,resources/DBN.BMP,resources/DY.BMP,Door1,-0.316145833,-0.022135417,1,0,0,1.5185,optionLeft,30,1645,1,29,0,29,0,1,,,,,,,,,,,,,,,,,,,,,,,,,,,,,,,,,,,,,,,
,,,,,,,,2023-08-16_08h42.29.115,HF_wild_card,2022.2.4,Win32,60.13590715,5a102e9dfdf6fc0001279561,64d2fd46c836a06233681665,64dc7d1a2c6c239c09739ab6,,,,,,,sngl,resources/Empty.png,resources/DR.BMP,Door4,0.424739583,-0.014322917,1,0,0,0.8386,optionRight,60,1705,1,30,0,30,0,1,,,,,,,,,,,,,,,,,,,,,,,,,,,,,,,,,,,,,,,
,,,,,,,,2023-08-16_08h42.29.115,HF_wild_card,2022.2.4,Win32,60.13590715,5a102e9dfdf6fc0001279561,64d2fd46c836a06233681665,64dc7d1a2c6c239c09739ab6,,,,,,,sngl,resources/DB.BMP,resources/Empty.png,Door3,-0.2640625,-0.015625,1,0,0,0.594,optionLeft,70,1775,1,31,0,31,0,1,,,,,,,,,,,,,,,,,,,,,,,,,,,,,,,,,,,,,,,
,,,,,,,,2023-08-16_08h42.29.115,HF_wild_card,2022.2.4,Win32,60.13590715,5a102e9dfdf6fc0001279561,64d2fd46c836a06233681665,64dc7d1a2c6c239c09739ab6,,,,,,,decisionTrl,resources/DR.BMP,resources/DG.BMP,Door4,-0.359114583,-0.03515625,1,0,0,1.4507,optionLeft,60,1835,1,32,0,32,0,1,,,,,,,,,,,,,,,,,,,,,,,,,,,,,,,,,,,,,,,
,,,,,,,,2023-08-16_08h42.29.115,HF_wild_card,2022.2.4,Win32,60.13590715,5a102e9dfdf6fc0001279561,64d2fd46c836a06233681665,64dc7d1a2c6c239c09739ab6,,,,,,,decisionTrl,resources/DB.BMP,resources/DR.BMP,Door4,0.269791667,-0.059895833,1,0,0,0.7522,optionRight,60,1895,1,33,0,33,0,1,,,,,,,,,,,,,,,,,,,,,,,,,,,,,,,,,,,,,,,
,,,,,,,,2023-08-16_08h42.29.115,HF_wild_card,2022.2.4,Win32,60.13590715,5a102e9dfdf6fc0001279561,64d2fd46c836a06233681665,64dc7d1a2c6c239c09739ab6,,,,,,,sngl,resources/Empty.png,resources/DB.BMP,Door3,0.264583333,-0.04296875,1,0,0,0.6195,optionRight,70,1965,1,34,0,34,0,1,,,,,,,,,,,,,,,,,,,,,,,,,,,,,,,,,,,,,,,
,,,,,,,,2023-08-16_08h42.29.115,HF_wild_card,2022.2.4,Win32,60.13590715,5a102e9dfdf6fc0001279561,64d2fd46c836a06233681665,64dc7d1a2c6c239c09739ab6,,,,,,,ctch,resources/DB.BMP,resources/DY.BMP,Door3,-0.18984375,-0.028645833,1,0,0,0.6233,optionLeft,70,2035,1,35,0,35,0,1,,,,,,,,,,,,,,,,,,,,,,,,,,,,,,,,,,,,,,,
,,,,,,,,2023-08-16_08h42.29.115,HF_wild_card,2022.2.4,Win32,60.13590715,5a102e9dfdf6fc0001279561,64d2fd46c836a06233681665,64dc7d1a2c6c239c09739ab6,,,,,,,sngl,resources/Empty.png,resources/DG.BMP,WildCard_NonEx,0.437760417,-0.05859375,1,0,0,1.6017,optionRight,55,2090,1,36,0,36,0,1,,,,,,,,,,,,,,,,,,,,,,,,,,,,,,,,,,,,,,,
,,,,,,,,2023-08-16_08h42.29.115,HF_wild_card,2022.2.4,Win32,60.13590715,5a102e9dfdf6fc0001279561,64d2fd46c836a06233681665,64dc7d1a2c6c239c09739ab6,,,,,,,decisionTrl,resources/DBN.BMP,resources/DG.BMP,WildCard_NonEx,0.393489583,-0.061197917,1,0,0,1.5329,optionRight,55,2145,1,37,0,37,0,1,,,,,,,,,,,,,,,,,,,,,,,,,,,,,,,,,,,,,,,
,,,,,,,,2023-08-16_08h42.29.115,HF_wild_card,2022.2.4,Win32,60.13590715,5a102e9dfdf6fc0001279561,64d2fd46c836a06233681665,64dc7d1a2c6c239c09739ab6,,,,,,,sngl,resources/Empty.png,resources/DY.BMP,Door2,0.402604167,-0.04296875,1,0,0,0.808,optionRight,20,2165,1,38,0,38,0,1,,,,,,,,,,,,,,,,,,,,,,,,,,,,,,,,,,,,,,,
,,,,,,,,2023-08-16_08h42.29.115,HF_wild_card,2022.2.4,Win32,60.13590715,5a102e9dfdf6fc0001279561,64d2fd46c836a06233681665,64dc7d1a2c6c239c09739ab6,,,,,,,decisionTrl,resources/DY.BMP,resources/DBN.BMP,Door1,0.34140625,-0.013020833,1,0,0,1.5259,optionRight,30,2195,1,39,0,39,0,1,,,,,,,,,,,,,,,,,,,,,,,,,,,,,,,,,,,,,,,
,,,,,,,,2023-08-16_08h42.29.115,HF_wild_card,2022.2.4,Win32,60.13590715,5a102e9dfdf6fc0001279561,64d2fd46c836a06233681665,64dc7d1a2c6c239c09739ab6,,,,,,,sngl,resources/DBN.BMP,resources/Empty.png,Door1,-0.363020833,-0.057291667,1,0,0,0.8323,optionLeft,30,2225,1,40,0,40,0,1,,,,,,,,,,,,,,,,,,,,,,,,,,,,,,,,,,,,,,,
,,,,,,,,2023-08-16_08h42.29.115,HF_wild_card,2022.2.4,Win32,60.13590715,5a102e9dfdf6fc0001279561,64d2fd46c836a06233681665,64dc7d1a2c6c239c09739ab6,,,,,,,decisionTrl,resources/DR.BMP,resources/DB.BMP,Door4,-0.313541667,-0.049479167,1,0,0,1.5949,optionLeft,60,2285,1,41,0,41,0,1,,,,,,,,,,,,,,,,,,,,,,,,,,,,,,,,,,,,,,,
,,,,,,,,2023-08-16_08h42.29.115,HF_wild_card,2022.2.4,Win32,60.13590715,5a102e9dfdf6fc0001279561,64d2fd46c836a06233681665,64dc7d1a2c6c239c09739ab6,,,,,,,sngl,resources/DG.BMP,resources/Empty.png,WildCard_NonEx,-0.355208333,-0.018229167,1,0,0,0.9133,optionLeft,55,2340,1,42,0,42,0,1,,,,,,,,,,,,,,,,,,,,,,,,,,,,,,,,,,,,,,,
,,,,,,,,2023-08-16_08h42.29.115,HF_wild_card,2022.2.4,Win32,60.13590715,5a102e9dfdf6fc0001279561,64d2fd46c836a06233681665,64dc7d1a2c6c239c09739ab6,,,,,,,decisionTrl,resources/DBN.BMP,resources/DY.BMP,Door1,-0.3890625,-0.03515625,1,0,0,1.2249,optionLeft,30,2370,1,43,0,43,0,1,,,,,,,,,,,,,,,,,,,,,,,,,,,,,,,,,,,,,,,
,,,,,,,,2023-08-16_08h42.29.115,HF_wild_card,2022.2.4,Win32,60.13590715,5a102e9dfdf6fc0001279561,64d2fd46c836a06233681665,64dc7d1a2c6c239c09739ab6,,,,,,,,,,,,,,,,,,,,,,,,,,0,0,0,0,1,,,,,,,,,,,,,,,,,,,,,,,,,,,,,,,,,,
,,,,,,,,2023-08-16_08h42.29.115,HF_wild_card,2022.2.4,Win32,60.13590715,5a102e9dfdf6fc0001279561,64d2fd46c836a06233681665,64dc7d1a2c6c239c09739ab6,,,,,,,sngl,resources/Empty.png,resources/DG.BMP,WildCard_NonEx,0.308854167,-0.0703125,1,0,0,0.8788,optionRight,55,2425,2,0,0,0,0,1,,,,,,,,,,,,,,,,,,,,,,,,,,,,,,,,,,,,,,,
,,,,,,,,2023-08-16_08h42.29.115,HF_wild_card,2022.2.4,Win32,60.13590715,5a102e9dfdf6fc0001279561,64d2fd46c836a06233681665,64dc7d1a2c6c239c09739ab6,,,,,,,ctch,resources/DR.BMP,resources/DBN.BMP,Door4,-0.426822917,-0.002604167,1,0,0,0.7889,optionLeft,80,2505,2,1,0,1,0,1,,,,,,,,,,,,,,,,,,,,,,,,,,,,,,,,,,,,,,,
,,,,,,,,2023-08-16_08h42.29.115,HF_wild_card,2022.2.4,Win32,60.13590715,5a102e9dfdf6fc0001279561,64d2fd46c836a06233681665,64dc7d1a2c6c239c09739ab6,,,,,,,decisionTrl,resources/DBN.BMP,resources/DG.BMP,WildCard_NonEx,0.319270833,-0.0078125,1,0,0,0.9425,optionRight,55,2560,2,2,0,2,0,1,,,,,,,,,,,,,,,,,,,,,,,,,,,,,,,,,,,,,,,
,,,,,,,,2023-08-16_08h42.29.115,HF_wild_card,2022.2.4,Win32,60.13590715,5a102e9dfdf6fc0001279561,64d2fd46c836a06233681665,64dc7d1a2c6c239c09739ab6,,,,,,,sngl,resources/DR.BMP,resources/Empty.png,Door4,-0.325260417,-0.0390625,1,0,0,1.2121,optionLeft,60,2620,2,3,0,3,0,1,,,,,,,,,,,,,,,,,,,,,,,,,,,,,,,,,,,,,,,
,,,,,,,,2023-08-16_08h42.29.115,HF_wild_card,2022.2.4,Win32,60.13590715,5a102e9dfdf6fc0001279561,64d2fd46c836a06233681665,64dc7d1a2c6c239c09739ab6,,,,,,,decisionTrl,resources/DB.BMP,resources/DG.BMP,Door3,-0.270572917,-0.015625,1,0,0,1.0063,optionLeft,70,2690,2,4,0,4,0,1,,,,,,,,,,,,,,,,,,,,,,,,,,,,,,,,,,,,,,,
,,,,,,,,2023-08-16_08h42.29.115,HF_wild_card,2022.2.4,Win32,60.13590715,5a102e9dfdf6fc0001279561,64d2fd46c836a06233681665,64dc7d1a2c6c239c09739ab6,,,,,,,decisionTrl,resources/DR.BMP,resources/DB.BMP,Door3,0.276302083,-0.013020833,1,0,0,0.6211,optionRight,70,2760,2,5,0,5,0,1,,,,,,,,,,,,,,,,,,,,,,,,,,,,,,,,,,,,,,,
,,,,,,,,2023-08-16_08h42.29.115,HF_wild_card,2022.2.4,Win32,60.13590715,5a102e9dfdf6fc0001279561,64d2fd46c836a06233681665,64dc7d1a2c6c239c09739ab6,,,,,,,ctch,resources/DB.BMP,resources/DY.BMP,Door3,-0.235416667,-0.0234375,1,0,0,0.8032,optionLeft,70,2830,2,6,0,6,0,1,,,,,,,,,,,,,,,,,,,,,,,,,,,,,,,,,,,,,,,
,,,,,,,,2023-08-16_08h42.29.115,HF_wild_card,2022.2.4,Win32,60.13590715,5a102e9dfdf6fc0001279561,64d2fd46c836a06233681665,64dc7d1a2c6c239c09739ab6,,,,,,,decisionTrl,resources/DR.BMP,resources/DG.BMP,Door4,-0.344791667,-0.0546875,1,0,0,0.9077,optionLeft,80,2910,2,7,0,7,0,1,,,,,,,,,,,,,,,,,,,,,,,,,,,,,,,,,,,,,,,
,,,,,,,,2023-08-16_08h42.29.115,HF_wild_card,2022.2.4,Win32,60.13590715,5a102e9dfdf6fc0001279561,64d2fd46c836a06233681665,64dc7d1a2c6c239c09739ab6,,,,,,,ctch,resources/DY.BMP,resources/DB.BMP,Door3,0.265885417,-0.057291667,1,0,0,0.9979,optionRight,70,2980,2,8,0,8,0,1,,,,,,,,,,,,,,,,,,,,,,,,,,,,,,,,,,,,,,,
,,,,,,,,2023-08-16_08h42.29.115,HF_wild_card,2022.2.4,Win32,60.13590715,5a102e9dfdf6fc0001279561,64d2fd46c836a06233681665,64dc7d1a2c6c239c09739ab6,,,,,,,sngl,resources/Empty.png,resources/DB.BMP,Door3,0.397395833,-0.08203125,1,0,0,1.0018,optionRight,70,3050,2,9,0,9,0,1,,,,,,,,,,,,,,,,,,,,,,,,,,,,,,,,,,,,,,,
,,,,,,,,2023-08-16_08h42.29.115,HF_wild_card,2022.2.4,Win32,60.13590715,5a102e9dfdf6fc0001279561,64d2fd46c836a06233681665,64dc7d1a2c6c239c09739ab6,,,,,,,decisionTrl,resources/DY.BMP,resources/DBN.BMP,Door2,-0.26796875,-0.079427083,1,0,0,1.9733,optionLeft,20,3070,2,10,0,10,0,1,,,,,,,,,,,,,,,,,,,,,,,,,,,,,,,,,,,,,,,
,,,,,,,,2023-08-16_08h42.29.115,HF_wild_card,2022.2.4,Win32,60.13590715,5a102e9dfdf6fc0001279561,64d2fd46c836a06233681665,64dc7d1a2c6c239c09739ab6,,,,,,,decisionTrl,resources/DB.BMP,resources/DR.BMP,Door4,0.446875,-0.076822917,1,0,0,1.1404,optionRight,80,3150,2,11,0,11,0,1,,,,,,,,,,,,,,,,,,,,,,,,,,,,,,,,,,,,,,,
,,,,,,,,2023-08-16_08h42.29.115,HF_wild_card,2022.2.4,Win32,60.13590715,5a102e9dfdf6fc0001279561,64d2fd46c836a06233681665,64dc7d1a2c6c239c09739ab6,,,,,,,sngl,resources/Empty.png,resources/DY.BMP,Door2,0.295833333,-0.0234375,1,0,0,0.7114,optionRight,40,3190,2,12,0,12,0,1,,,,,,,,,,,,,,,,,,,,,,,,,,,,,,,,,,,,,,,
,,,,,,,,2023-08-16_08h42.29.115,HF_wild_card,2022.2.4,Win32,60.13590715,5a102e9dfdf6fc0001279561,64d2fd46c836a06233681665,64dc7d1a2c6c239c09739ab6,,,,,,,decisionTrl,resources/DBN.BMP,resources/DY.BMP,Door1,-0.22890625,-0.018229167,1,0,0,0.6261,optionLeft,30,3220,2,13,0,13,0,1,,,,,,,,,,,,,,,,,,,,,,,,,,,,,,,,,,,,,,,
,,,,,,,,2023-08-16_08h42.29.115,HF_wild_card,2022.2.4,Win32,60.13590715,5a102e9dfdf6fc0001279561,64d2fd46c836a06233681665,64dc7d1a2c6c239c09739ab6,,,,,,,ctch,resources/DB.BMP,resources/DY.BMP,Door3,-0.274479167,-0.015625,1,0,0,0.6542,optionLeft,70,3290,2,14,0,14,0,1,,,,,,,,,,,,,,,,,,,,,,,,,,,,,,,,,,,,,,,
,,,,,,,,2023-08-16_08h42.29.115,HF_wild_card,2022.2.4,Win32,60.13590715,5a102e9dfdf6fc0001279561,64d2fd46c836a06233681665,64dc7d1a2c6c239c09739ab6,,,,,,,ctch,resources/DY.BMP,resources/DB.BMP,Door3,0.233333333,-0.009114583,1,0,0,0.9379,optionRight,70,3360,2,15,0,15,0,1,,,,,,,,,,,,,,,,,,,,,,,,,,,,,,,,,,,,,,,
,,,,,,,,2023-08-16_08h42.29.115,HF_wild_card,2022.2.4,Win32,60.13590715,5a102e9dfdf6fc0001279561,64d2fd46c836a06233681665,64dc7d1a2c6c239c09739ab6,,,,,,,decisionTrl,resources/DY.BMP,resources/DBN.BMP,Door2,-0.222395833,-0.02734375,1,0,0,0.6108,optionLeft,20,3380,2,16,0,16,0,1,,,,,,,,,,,,,,,,,,,,,,,,,,,,,,,,,,,,,,,
,,,,,,,,2023-08-16_08h42.29.115,HF_wild_card,2022.2.4,Win32,60.13590715,5a102e9dfdf6fc0001279561,64d2fd46c836a06233681665,64dc7d1a2c6c239c09739ab6,,,,,,,sngl,resources/DB.BMP,resources/Empty.png,Door3,-0.31875,-0.014322917,1,0,0,0.6187,optionLeft,70,3450,2,17,0,17,0,1,,,,,,,,,,,,,,,,,,,,,,,,,,,,,,,,,,,,,,,
,,,,,,,,2023-08-16_08h42.29.115,HF_wild_card,2022.2.4,Win32,60.13590715,5a102e9dfdf6fc0001279561,64d2fd46c836a06233681665,64dc7d1a2c6c239c09739ab6,,,,,,,sngl,resources/Empty.png,resources/DG.BMP,WildCard_NonEx,0.301041667,-0.0390625,1,0,0,1.2177,optionRight,45,3495,2,18,0,18,0,1,,,,,,,,,,,,,,,,,,,,,,,,,,,,,,,,,,,,,,,
,,,,,,,,2023-08-16_08h42.29.115,HF_wild_card,2022.2.4,Win32,60.13590715,5a102e9dfdf6fc0001279561,64d2fd46c836a06233681665,64dc7d1a2c6c239c09739ab6,,,,,,,ctch,resources/DR.BMP,resources/DBN.BMP,Door4,-0.35,-0.049479167,1,0,0,1.3784,optionLeft,80,3575,2,19,0,19,0,1,,,,,,,,,,,,,,,,,,,,,,,,,,,,,,,,,,,,,,,
,,,,,,,,2023-08-16_08h42.29.115,HF_wild_card,2022.2.4,Win32,60.13590715,5a102e9dfdf6fc0001279561,64d2fd46c836a06233681665,64dc7d1a2c6c239c09739ab6,,,,,,,ctch,resources/DBN.BMP,resources/DR.BMP,Door4,0.272395833,-0.048177083,1,0,0,0.6241,optionRight,80,3655,2,20,0,20,0,1,,,,,,,,,,,,,,,,,,,,,,,,,,,,,,,,,,,,,,,
,,,,,,,,2023-08-16_08h42.29.115,HF_wild_card,2022.2.4,Win32,60.13590715,5a102e9dfdf6fc0001279561,64d2fd46c836a06233681665,64dc7d1a2c6c239c09739ab6,,,,,,,decisionTrl,resources/DG.BMP,resources/DR.BMP,Door4,0.2046875,-0.037760417,1,0,0,0.5442,optionRight,60,3715,2,21,0,21,0,1,,,,,,,,,,,,,,,,,,,,,,,,,,,,,,,,,,,,,,,
,,,,,,,,2023-08-16_08h42.29.115,HF_wild_card,2022.2.4,Win32,60.13590715,5a102e9dfdf6fc0001279561,64d2fd46c836a06233681665,64dc7d1a2c6c239c09739ab6,,,,,,,ctch,resources/DBN.BMP,resources/DR.BMP,Door4,0.4,-0.072916667,1,0,0,0.6303,optionRight,60,3775,2,22,0,22,0,1,,,,,,,,,,,,,,,,,,,,,,,,,,,,,,,,,,,,,,,
,,,,,,,,2023-08-16_08h42.29.115,HF_wild_card,2022.2.4,Win32,60.13590715,5a102e9dfdf6fc0001279561,64d2fd46c836a06233681665,64dc7d1a2c6c239c09739ab6,,,,,,,decisionTrl,resources/DBN.BMP,resources/DY.BMP,Door1,-0.29140625,-0.0234375,1,0,0,0.8686,optionLeft,30,3805,2,23,0,23,0,1,,,,,,,,,,,,,,,,,,,,,,,,,,,,,,,,,,,,,,,
,,,,,,,,2023-08-16_08h42.29.115,HF_wild_card,2022.2.4,Win32,60.13590715,5a102e9dfdf6fc0001279561,64d2fd46c836a06233681665,64dc7d1a2c6c239c09739ab6,,,,,,,decisionTrl,resources/DY.BMP,resources/DG.BMP,WildCard_NonEx,0.246354167,-0.05859375,1,0,0,1.1136,optionRight,55,3860,2,24,0,24,0,1,,,,,,,,,,,,,,,,,,,,,,,,,,,,,,,,,,,,,,,
,,,,,,,,2023-08-16_08h42.29.115,HF_wild_card,2022.2.4,Win32,60.13590715,5a102e9dfdf6fc0001279561,64d2fd46c836a06233681665,64dc7d1a2c6c239c09739ab6,,,,,,,sngl,resources/DG.BMP,resources/Empty.png,WildCard_NonEx,-0.22109375,-0.028645833,1,0,0,0.5597,optionLeft,55,3915,2,25,0,25,0,1,,,,,,,,,,,,,,,,,,,,,,,,,,,,,,,,,,,,,,,
,,,,,,,,2023-08-16_08h42.29.115,HF_wild_card,2022.2.4,Win32,60.13590715,5a102e9dfdf6fc0001279561,64d2fd46c836a06233681665,64dc7d1a2c6c239c09739ab6,,,,,,,decisionTrl,resources/DG.BMP,resources/DY.BMP,WildCard_NonEx,-0.258854167,-0.048177083,1,0,0,0.6993,optionLeft,45,3960,2,26,0,26,0,1,,,,,,,,,,,,,,,,,,,,,,,,,,,,,,,,,,,,,,,
,,,,,,,,2023-08-16_08h42.29.115,HF_wild_card,2022.2.4,Win32,60.13590715,5a102e9dfdf6fc0001279561,64d2fd46c836a06233681665,64dc7d1a2c6c239c09739ab6,,,,,,,decisionTrl,resources/DR.BMP,resources/DB.BMP,Door4,-0.363020833,-0.045572917,1,0,0,1.5397,optionLeft,60,4020,2,27,0,27,0,1,,,,,,,,,,,,,,,,,,,,,,,,,,,,,,,,,,,,,,,
,,,,,,,,2023-08-16_08h42.29.115,HF_wild_card,2022.2.4,Win32,60.13590715,5a102e9dfdf6fc0001279561,64d2fd46c836a06233681665,64dc7d1a2c6c239c09739ab6,,,,,,,sngl,resources/DBN.BMP,resources/Empty.png,Door1,-0.262760417,-0.010416667,1,0,0,0.7861,optionLeft,30,4050,2,28,0,28,0,1,,,,,,,,,,,,,,,,,,,,,,,,,,,,,,,,,,,,,,,
,,,,,,,,2023-08-16_08h42.29.115,HF_wild_card,2022.2.4,Win32,60.13590715,5a102e9dfdf6fc0001279561,64d2fd46c836a06233681665,64dc7d1a2c6c239c09739ab6,,,,,,,sngl,resources/Empty.png,resources/DBN.BMP,Door1,0.290625,-0.049479167,1,0,0,0.5279,optionRight,30,4080,2,29,0,29,0,1,,,,,,,,,,,,,,,,,,,,,,,,,,,,,,,,,,,,,,,
,,,,,,,,2023-08-16_08h42.29.115,HF_wild_card,2022.2.4,Win32,60.13590715,5a102e9dfdf6fc0001279561,64d2fd46c836a06233681665,64dc7d1a2c6c239c09739ab6,,,,,,,decisionTrl,resources/DB.BMP,resources/DR.BMP,Door3,-0.191145833,-0.037760417,1,0,0,0.86,optionLeft,70,4150,2,30,0,30,0,1,,,,,,,,,,,,,,,,,,,,,,,,,,,,,,,,,,,,,,,
,,,,,,,,2023-08-16_08h42.29.115,HF_wild_card,2022.2.4,Win32,60.13590715,5a102e9dfdf6fc0001279561,64d2fd46c836a06233681665,64dc7d1a2c6c239c09739ab6,,,,,,,decisionTrl,resources/DB.BMP,resources/DR.BMP,Door4,0.3375,-0.049479167,1,0,0,0.6133,optionRight,80,4230,2,31,0,31,0,1,,,,,,,,,,,,,,,,,,,,,,,,,,,,,,,,,,,,,,,
,,,,,,,,2023-08-16_08h42.29.115,HF_wild_card,2022.2.4,Win32,60.13590715,5a102e9dfdf6fc0001279561,64d2fd46c836a06233681665,64dc7d1a2c6c239c09739ab6,,,,,,,sngl,resources/Empty.png,resources/DR.BMP,Door4,0.290625,-0.048177083,1,0,0,0.4777,optionRight,80,4310,2,32,0,32,0,1,,,,,,,,,,,,,,,,,,,,,,,,,,,,,,,,,,,,,,,
,,,,,,,,2023-08-16_08h42.29.115,HF_wild_card,2022.2.4,Win32,60.13590715,5a102e9dfdf6fc0001279561,64d2fd46c836a06233681665,64dc7d1a2c6c239c09739ab6,,,,,,,decisionTrl,resources/DBN.BMP,resources/DY.BMP,Door1,-0.378645833,-0.0234375,1,0,0,1.5761,optionLeft,30,4340,2,33,0,33,0,1,,,,,,,,,,,,,,,,,,,,,,,,,,,,,,,,,,,,,,,
,,,,,,,,2023-08-16_08h42.29.115,HF_wild_card,2022.2.4,Win32,60.13590715,5a102e9dfdf6fc0001279561,64d2fd46c836a06233681665,64dc7d1a2c6c239c09739ab6,,,,,,,decisionTrl,resources/DY.BMP,resources/DBN.BMP,Door1,0.275,-0.014322917,1,0,0,0.8918,optionRight,30,4370,2,34,0,34,0,1,,,,,,,,,,,,,,,,,,,,,,,,,,,,,,,,,,,,,,,
,,,,,,,,2023-08-16_08h42.29.115,HF_wild_card,2022.2.4,Win32,60.13590715,5a102e9dfdf6fc0001279561,64d2fd46c836a06233681665,64dc7d1a2c6c239c09739ab6,,,,,,,decisionTrl,resources/DG.BMP,resources/DBN.BMP,WildCard_NonEx,-0.200260417,-0.009114583,1,0,0,0.6337,optionLeft,55,4425,2,35,0,35,0,1,,,,,,,,,,,,,,,,,,,,,,,,,,,,,,,,,,,,,,,
,,,,,,,,2023-08-16_08h42.29.115,HF_wild_card,2022.2.4,Win32,60.13590715,5a102e9dfdf6fc0001279561,64d2fd46c836a06233681665,64dc7d1a2c6c239c09739ab6,,,,,,,decisionTrl,resources/DBN.BMP,resources/DY.BMP,Door1,-0.288802083,0.013020833,1,0,0,1.4298,optionLeft,30,4455,2,36,0,36,0,1,,,,,,,,,,,,,,,,,,,,,,,,,,,,,,,,,,,,,,,
,,,,,,,,2023-08-16_08h42.29.115,HF_wild_card,2022.2.4,Win32,60.13590715,5a102e9dfdf6fc0001279561,64d2fd46c836a06233681665,64dc7d1a2c6c239c09739ab6,,,,,,,decisionTrl,resources/DB.BMP,resources/DR.BMP,Door3,-0.22890625,-0.006510417,1,0,0,1.1401,optionLeft,70,4525,2,37,0,37,0,1,,,,,,,,,,,,,,,,,,,,,,,,,,,,,,,,,,,,,,,
,,,,,,,,2023-08-16_08h42.29.115,HF_wild_card,2022.2.4,Win32,60.13590715,5a102e9dfdf6fc0001279561,64d2fd46c836a06233681665,64dc7d1a2c6c239c09739ab6,,,,,,,sngl,resources/DG.BMP,resources/Empty.png,WildCard_NonEx,-0.152083333,-0.018229167,1,0,0,0.5993,optionLeft,45,4570,2,38,0,38,0,1,,,,,,,,,,,,,,,,,,,,,,,,,,,,,,,,,,,,,,,
,,,,,,,,2023-08-16_08h42.29.115,HF_wild_card,2022.2.4,Win32,60.13590715,5a102e9dfdf6fc0001279561,64d2fd46c836a06233681665,64dc7d1a2c6c239c09739ab6,,,,,,,decisionTrl,resources/DY.BMP,resources/DBN.BMP,Door2,-0.333072917,-0.016927083,1,0,0,0.9162,optionLeft,20,4590,2,39,0,39,0,1,,,,,,,,,,,,,,,,,,,,,,,,,,,,,,,,,,,,,,,
,,,,,,,,2023-08-16_08h42.29.115,HF_wild_card,2022.2.4,Win32,60.13590715,5a102e9dfdf6fc0001279561,64d2fd46c836a06233681665,64dc7d1a2c6c239c09739ab6,,,,,,,decisionTrl,resources/DG.BMP,resources/DB.BMP,Door3,0.347916667,-0.048177083,1,0,0,1.0395,optionRight,70,4660,2,40,0,40,0,1,,,,,,,,,,,,,,,,,,,,,,,,,,,,,,,,,,,,,,,
,,,,,,,,2023-08-16_08h42.29.115,HF_wild_card,2022.2.4,Win32,60.13590715,5a102e9dfdf6fc0001279561,64d2fd46c836a06233681665,64dc7d1a2c6c239c09739ab6,,,,,,,decisionTrl,resources/DR.BMP,resources/DB.BMP,Door3,0.393489583,-0.0546875,1,0,0,1.2202,optionRight,70,4730,2,41,0,41,0,1,,,,,,,,,,,,,,,,,,,,,,,,,,,,,,,,,,,,,,,
,,,,,,,,2023-08-16_08h42.29.115,HF_wild_card,2022.2.4,Win32,60.13590715,5a102e9dfdf6fc0001279561,64d2fd46c836a06233681665,64dc7d1a2c6c239c09739ab6,,,,,,,sngl,resources/DY.BMP,resources/Empty.png,Door2,-0.215885417,-0.01953125,1,0,0,0.6093,optionLeft,20,4750,2,42,0,42,0,1,,,,,,,,,,,,,,,,,,,,,,,,,,,,,,,,,,,,,,,
,,,,,,,,2023-08-16_08h42.29.115,HF_wild_card,2022.2.4,Win32,60.13590715,5a102e9dfdf6fc0001279561,64d2fd46c836a06233681665,64dc7d1a2c6c239c09739ab6,,,,,,,decisionTrl,resources/DR.BMP,resources/DB.BMP,Door4,-0.265364583,-0.04296875,1,0,0,0.9407,optionLeft,60,4810,2,43,0,43,0,1,,,,,,,,,,,,,,,,,,,,,,,,,,,,,,,,,,,,,,,
,,,,,,,,2023-08-16_08h42.29.115,HF_wild_card,2022.2.4,Win32,60.13590715,5a102e9dfdf6fc0001279561,64d2fd46c836a06233681665,64dc7d1a2c6c239c09739ab6,,,,,,,,,,,,,,,,,,,,,,,,,,1,0,1,0,1,,,,,,,,,,,,,,,,,,,,,,,,,,,,,,,,,,
,,,,,,,,2023-08-16_08h42.29.115,HF_wild_card,2022.2.4,Win32,60.13590715,5a102e9dfdf6fc0001279561,64d2fd46c836a06233681665,64dc7d1a2c6c239c09739ab6,,,,,,,sngl,resources/Empty.png,resources/DG.BMP,WildCard_NonEx,0.226822917,-0.184895833,1,0,0,0.9213,optionRight,45,4855,3,0,0,0,0,1,,,,,,,,,,,,,,,,,,,,,,,,,,,,,,,,,,,,,,,
,,,,,,,,2023-08-16_08h42.29.115,HF_wild_card,2022.2.4,Win32,60.13590715,5a102e9dfdf6fc0001279561,64d2fd46c836a06233681665,64dc7d1a2c6c239c09739ab6,,,,,,,ctch,resources/DY.BMP,resources/DB.BMP,Door3,0.205989583,-0.010416667,1,0,0,1.1008,optionRight,70,4925,3,1,0,1,0,1,,,,,,,,,,,,,,,,,,,,,,,,,,,,,,,,,,,,,,,
,,,,,,,,2023-08-16_08h42.29.115,HF_wild_card,2022.2.4,Win32,60.13590715,5a102e9dfdf6fc0001279561,64d2fd46c836a06233681665,64dc7d1a2c6c239c09739ab6,,,,,,,ctch,resources/DBN.BMP,resources/DR.BMP,Door4,0.41171875,-0.059895833,1,0,0,0.7325,optionRight,80,5005,3,2,0,2,0,1,,,,,,,,,,,,,,,,,,,,,,,,,,,,,,,,,,,,,,,
,,,,,,,,2023-08-16_08h42.29.115,HF_wild_card,2022.2.4,Win32,60.13590715,5a102e9dfdf6fc0001279561,64d2fd46c836a06233681665,64dc7d1a2c6c239c09739ab6,,,,,,,decisionTrl,resources/DG.BMP,resources/DR.BMP,Door4,0.40390625,-0.055989583,1,0,0,0.5166,optionRight,80,5085,3,3,0,3,0,1,,,,,,,,,,,,,,,,,,,,,,,,,,,,,,,,,,,,,,,
,,,,,,,,2023-08-16_08h42.29.115,HF_wild_card,2022.2.4,Win32,60.13590715,5a102e9dfdf6fc0001279561,64d2fd46c836a06233681665,64dc7d1a2c6c239c09739ab6,,,,,,,ctch,resources/DR.BMP,resources/DBN.BMP,Door4,-0.176822917,-0.020833333,1,0,0,0.8148,optionLeft,80,5165,3,4,0,4,0,1,,,,,,,,,,,,,,,,,,,,,,,,,,,,,,,,,,,,,,,
,,,,,,,,2023-08-16_08h42.29.115,HF_wild_card,2022.2.4,Win32,60.13590715,5a102e9dfdf6fc0001279561,64d2fd46c836a06233681665,64dc7d1a2c6c239c09739ab6,,,,,,,sngl,resources/Empty.png,resources/DY.BMP,Door2,0.27109375,-0.0546875,1,0,0,0.6284,optionRight,20,5185,3,5,0,5,0,1,,,,,,,,,,,,,,,,,,,,,,,,,,,,,,,,,,,,,,,
,,,,,,,,2023-08-16_08h42.29.115,HF_wild_card,2022.2.4,Win32,60.13590715,5a102e9dfdf6fc0001279561,64d2fd46c836a06233681665,64dc7d1a2c6c239c09739ab6,,,,,,,decisionTrl,resources/DG.BMP,resources/DBN.BMP,WildCard_NonEx,-0.262760417,-0.04296875,1,0,0,1.4351,optionLeft,45,5230,3,6,0,6,0,1,,,,,,,,,,,,,,,,,,,,,,,,,,,,,,,,,,,,,,,
,,,,,,,,2023-08-16_08h42.29.115,HF_wild_card,2022.2.4,Win32,60.13590715,5a102e9dfdf6fc0001279561,64d2fd46c836a06233681665,64dc7d1a2c6c239c09739ab6,,,,,,,ctch,resources/DB.BMP,resources/DY.BMP,Door3,-0.340885417,-0.046875,1,0,0,1.2436,optionLeft,70,5300,3,7,0,7,0,1,,,,,,,,,,,,,,,,,,,,,,,,,,,,,,,,,,,,,,,
,,,,,,,,2023-08-16_08h42.29.115,HF_wild_card,2022.2.4,Win32,60.13590715,5a102e9dfdf6fc0001279561,64d2fd46c836a06233681665,64dc7d1a2c6c239c09739ab6,,,,,,,decisionTrl,resources/DB.BMP,resources/DR.BMP,Door3,-0.278385417,-0.049479167,1,0,0,0.5752,optionLeft,70,5370,3,8,0,8,0,1,,,,,,,,,,,,,,,,,,,,,,,,,,,,,,,,,,,,,,,
,,,,,,,,2023-08-16_08h42.29.115,HF_wild_card,2022.2.4,Win32,60.13590715,5a102e9dfdf6fc0001279561,64d2fd46c836a06233681665,64dc7d1a2c6c239c09739ab6,,,,,,,decisionTrl,resources/DBN.BMP,resources/DY.BMP,Door2,0.2984375,-0.0234375,1,0,0,0.7422,optionRight,40,5410,3,9,0,9,0,1,,,,,,,,,,,,,,,,,,,,,,,,,,,,,,,,,,,,,,,
,,,,,,,,2023-08-16_08h42.29.115,HF_wild_card,2022.2.4,Win32,60.13590715,5a102e9dfdf6fc0001279561,64d2fd46c836a06233681665,64dc7d1a2c6c239c09739ab6,,,,,,,decisionTrl,resources/DR.BMP,resources/DB.BMP,Door4,-0.38515625,-0.026041667,1,0,0,1.2924,optionLeft,80,5490,3,10,0,10,0,1,,,,,,,,,,,,,,,,,,,,,,,,,,,,,,,,,,,,,,,
,,,,,,,,2023-08-16_08h42.29.115,HF_wild_card,2022.2.4,Win32,60.13590715,5a102e9dfdf6fc0001279561,64d2fd46c836a06233681665,64dc7d1a2c6c239c09739ab6,,,,,,,decisionTrl,resources/DY.BMP,resources/DBN.BMP,Door1,0.32578125,-0.0546875,1,0,0,2.8029,optionRight,30,5520,3,11,0,11,0,1,,,,,,,,,,,,,,,,,,,,,,,,,,,,,,,,,,,,,,,
,,,,,,,,2023-08-16_08h42.29.115,HF_wild_card,2022.2.4,Win32,60.13590715,5a102e9dfdf6fc0001279561,64d2fd46c836a06233681665,64dc7d1a2c6c239c09739ab6,,,,,,,sngl,resources/DG.BMP,resources/Empty.png,WildCard_NonEx,-0.2171875,-0.016927083,1,0,0,0.5867,optionLeft,55,5575,3,12,0,12,0,1,,,,,,,,,,,,,,,,,,,,,,,,,,,,,,,,,,,,,,,
,,,,,,,,2023-08-16_08h42.29.115,HF_wild_card,2022.2.4,Win32,60.13590715,5a102e9dfdf6fc0001279561,64d2fd46c836a06233681665,64dc7d1a2c6c239c09739ab6,,,,,,,decisionTrl,resources/DB.BMP,resources/DR.BMP,Door3,-0.286197917,-0.06640625,1,0,0,0.9649,optionLeft,70,5645,3,13,0,13,0,1,,,,,,,,,,,,,,,,,,,,,,,,,,,,,,,,,,,,,,,
,,,,,,,,2023-08-16_08h42.29.115,HF_wild_card,2022.2.4,Win32,60.13590715,5a102e9dfdf6fc0001279561,64d2fd46c836a06233681665,64dc7d1a2c6c239c09739ab6,,,,,,,sngl,resources/Empty.png,resources/DG.BMP,WildCard_NonEx,0.416927083,-0.083333333,1,0,0,0.8134,optionRight,55,5700,3,14,0,14,0,1,,,,,,,,,,,,,,,,,,,,,,,,,,,,,,,,,,,,,,,
,,,,,,,,2023-08-16_08h42.29.115,HF_wild_card,2022.2.4,Win32,60.13590715,5a102e9dfdf6fc0001279561,64d2fd46c836a06233681665,64dc7d1a2c6c239c09739ab6,,,,,,,decisionTrl,resources/DBN.BMP,resources/DY.BMP,Door2,0.355729167,-0.001302083,1,0,0,0.7513,optionRight,40,5740,3,15,0,15,0,1,,,,,,,,,,,,,,,,,,,,,,,,,,,,,,,,,,,,,,,
,,,,,,,,2023-08-16_08h42.29.115,HF_wild_card,2022.2.4,Win32,60.13590715,5a102e9dfdf6fc0001279561,64d2fd46c836a06233681665,64dc7d1a2c6c239c09739ab6,,,,,,,ctch,resources/DBN.BMP,resources/DR.BMP,Door4,0.319270833,-0.032552083,1,0,0,0.7981,optionRight,80,5820,3,16,0,16,0,1,,,,,,,,,,,,,,,,,,,,,,,,,,,,,,,,,,,,,,,
,,,,,,,,2023-08-16_08h42.29.115,HF_wild_card,2022.2.4,Win32,60.13590715,5a102e9dfdf6fc0001279561,64d2fd46c836a06233681665,64dc7d1a2c6c239c09739ab6,,,,,,,sngl,resources/Empty.png,resources/DR.BMP,Door4,0.336197917,-0.046875,1,0,0,0.4785,optionRight,60,5880,3,17,0,17,0,1,,,,,,,,,,,,,,,,,,,,,,,,,,,,,,,,,,,,,,,
,,,,,,,,2023-08-16_08h42.29.115,HF_wild_card,2022.2.4,Win32,60.13590715,5a102e9dfdf6fc0001279561,64d2fd46c836a06233681665,64dc7d1a2c6c239c09739ab6,,,,,,,decisionTrl,resources/DBN.BMP,resources/DY.BMP,Door1,-0.2484375,-0.009114583,1,0,0,1.7348,optionLeft,30,5910,3,18,0,18,0,1,,,,,,,,,,,,,,,,,,,,,,,,,,,,,,,,,,,,,,,
,,,,,,,,2023-08-16_08h42.29.115,HF_wild_card,2022.2.4,Win32,60.13590715,5a102e9dfdf6fc0001279561,64d2fd46c836a06233681665,64dc7d1a2c6c239c09739ab6,,,,,,,decisionTrl,resources/DY.BMP,resources/DG.BMP,WildCard_NonEx,0.303645833,-0.01953125,1,0,0,1.4567,optionRight,55,5965,3,19,0,19,0,1,,,,,,,,,,,,,,,,,,,,,,,,,,,,,,,,,,,,,,,
,,,,,,,,2023-08-16_08h42.29.115,HF_wild_card,2022.2.4,Win32,60.13590715,5a102e9dfdf6fc0001279561,64d2fd46c836a06233681665,64dc7d1a2c6c239c09739ab6,,,,,,,decisionTrl,resources/DY.BMP,resources/DBN.BMP,Door2,-0.222395833,-0.006510417,1,0,0,0.8103,optionLeft,40,6005,3,20,0,20,0,1,,,,,,,,,,,,,,,,,,,,,,,,,,,,,,,,,,,,,,,
,,,,,,,,2023-08-16_08h42.29.115,HF_wild_card,2022.2.4,Win32,60.13590715,5a102e9dfdf6fc0001279561,64d2fd46c836a06233681665,64dc7d1a2c6c239c09739ab6,,,,,,,decisionTrl,resources/DB.BMP,resources/DR.BMP,Door4,0.27890625,-0.018229167,1,0,0,2.8609,optionRight,60,6065,3,21,0,21,0,1,,,,,,,,,,,,,,,,,,,,,,,,,,,,,,,,,,,,,,,
,,,,,,,,2023-08-16_08h42.29.115,HF_wild_card,2022.2.4,Win32,60.13590715,5a102e9dfdf6fc0001279561,64d2fd46c836a06233681665,64dc7d1a2c6c239c09739ab6,,,,,,,decisionTrl,resources/DB.BMP,resources/DG.BMP,Door3,-0.282291667,-0.033854167,1,0,0,1.3538,optionLeft,70,6135,3,22,0,22,0,1,,,,,,,,,,,,,,,,,,,,,,,,,,,,,,,,,,,,,,,
,,,,,,,,2023-08-16_08h42.29.115,HF_wild_card,2022.2.4,Win32,60.13590715,5a102e9dfdf6fc0001279561,64d2fd46c836a06233681665,64dc7d1a2c6c239c09739ab6,,,,,,,sngl,resources/DR.BMP,resources/Empty.png,Door4,-0.37734375,-0.022135417,1,0,0,0.6236,optionLeft,80,6215,3,23,0,23,0,1,,,,,,,,,,,,,,,,,,,,,,,,,,,,,,,,,,,,,,,
,,,,,,,,2023-08-16_08h42.29.115,HF_wild_card,2022.2.4,Win32,60.13590715,5a102e9dfdf6fc0001279561,64d2fd46c836a06233681665,64dc7d1a2c6c239c09739ab6,,,,,,,decisionTrl,resources/DBN.BMP,resources/DY.BMP,Door1,-0.211979167,-0.024739583,1,0,0,1.0077,optionLeft,30,6245,3,24,0,24,0,1,,,,,,,,,,,,,,,,,,,,,,,,,,,,,,,,,,,,,,,
,,,,,,,,2023-08-16_08h42.29.115,HF_wild_card,2022.2.4,Win32,60.13590715,5a102e9dfdf6fc0001279561,64d2fd46c836a06233681665,64dc7d1a2c6c239c09739ab6,,,,,,,ctch,resources/DY.BMP,resources/DB.BMP,Door3,0.444270833,-0.020833333,1,0,0,1.0174,optionRight,70,6315,3,25,0,25,0,1,,,,,,,,,,,,,,,,,,,,,,,,,,,,,,,,,,,,,,,
,,,,,,,,2023-08-16_08h42.29.115,HF_wild_card,2022.2.4,Win32,60.13590715,5a102e9dfdf6fc0001279561,64d2fd46c836a06233681665,64dc7d1a2c6c239c09739ab6,,,,,,,sngl,resources/DG.BMP,resources/Empty.png,WildCard_NonEx,-0.331770833,-0.00390625,1,0,0,0.6194,optionLeft,45,6360,3,26,0,26,0,1,,,,,,,,,,,,,,,,,,,,,,,,,,,,,,,,,,,,,,,
,,,,,,,,2023-08-16_08h42.29.115,HF_wild_card,2022.2.4,Win32,60.13590715,5a102e9dfdf6fc0001279561,64d2fd46c836a06233681665,64dc7d1a2c6c239c09739ab6,,,,,,,decisionTrl,resources/DG.BMP,resources/DY.BMP,WildCard_NonEx,-0.34609375,0.00390625,1,0,0,1.0952,optionLeft,55,6415,3,27,0,27,0,1,,,,,,,,,,,,,,,,,,,,,,,,,,,,,,,,,,,,,,,
,,,,,,,,2023-08-16_08h42.29.115,HF_wild_card,2022.2.4,Win32,60.13590715,5a102e9dfdf6fc0001279561,64d2fd46c836a06233681665,64dc7d1a2c6c239c09739ab6,,,,,,,decisionTrl,resources/DR.BMP,resources/DB.BMP,Door3,0.285416667,0.006510417,1,0,0,1.1364,optionRight,70,6485,3,28,0,28,0,1,,,,,,,,,,,,,,,,,,,,,,,,,,,,,,,,,,,,,,,
,,,,,,,,2023-08-16_08h42.29.115,HF_wild_card,2022.2.4,Win32,60.13590715,5a102e9dfdf6fc0001279561,64d2fd46c836a06233681665,64dc7d1a2c6c239c09739ab6,,,,,,,decisionTrl,resources/DR.BMP,resources/DG.BMP,Door4,-0.273177083,-0.055989583,1,0,0,1.7715,optionLeft,80,6565,3,29,0,29,0,1,,,,,,,,,,,,,,,,,,,,,,,,,,,,,,,,,,,,,,,
,,,,,,,,2023-08-16_08h42.29.115,HF_wild_card,2022.2.4,Win32,60.13590715,5a102e9dfdf6fc0001279561,64d2fd46c836a06233681665,64dc7d1a2c6c239c09739ab6,,,,,,,decisionTrl,resources/DR.BMP,resources/DB.BMP,Door4,-0.262760417,-0.0390625,1,0,0,0.6909,optionLeft,80,6645,3,30,0,30,0,1,,,,,,,,,,,,,,,,,,,,,,,,,,,,,,,,,,,,,,,
,,,,,,,,2023-08-16_08h42.29.115,HF_wild_card,2022.2.4,Win32,60.13590715,5a102e9dfdf6fc0001279561,64d2fd46c836a06233681665,64dc7d1a2c6c239c09739ab6,,,,,,,sngl,resources/Empty.png,resources/DB.BMP,Door3,0.293229167,-0.046875,1,0,0,0.6088,optionRight,70,6715,3,31,0,31,0,1,,,,,,,,,,,,,,,,,,,,,,,,,,,,,,,,,,,,,,,
,,,,,,,,2023-08-16_08h42.29.115,HF_wild_card,2022.2.4,Win32,60.13590715,5a102e9dfdf6fc0001279561,64d2fd46c836a06233681665,64dc7d1a2c6c239c09739ab6,,,,,,,sngl,resources/Empty.png,resources/DBN.BMP,Door1,0.2984375,-0.014322917,1,0,0,0.7534,optionRight,30,6745,3,32,0,32,0,1,,,,,,,,,,,,,,,,,,,,,,,,,,,,,,,,,,,,,,,
,,,,,,,,2023-08-16_08h42.29.115,HF_wild_card,2022.2.4,Win32,60.13590715,5a102e9dfdf6fc0001279561,64d2fd46c836a06233681665,64dc7d1a2c6c239c09739ab6,,,,,,,decisionTrl,resources/DBN.BMP,resources/DG.BMP,WildCard_NonEx,0.182552083,-0.009114583,1,0,0,1.8913,optionRight,45,6790,3,33,0,33,0,1,,,,,,,,,,,,,,,,,,,,,,,,,,,,,,,,,,,,,,,
,,,,,,,,2023-08-16_08h42.29.115,HF_wild_card,2022.2.4,Win32,60.13590715,5a102e9dfdf6fc0001279561,64d2fd46c836a06233681665,64dc7d1a2c6c239c09739ab6,,,,,,,ctch,resources/DB.BMP,resources/DY.BMP,Door3,-0.356510417,-0.026041667,1,0,0,1.1019,optionLeft,70,6860,3,34,0,34,0,1,,,,,,,,,,,,,,,,,,,,,,,,,,,,,,,,,,,,,,,
,,,,,,,,2023-08-16_08h42.29.115,HF_wild_card,2022.2.4,Win32,60.13590715,5a102e9dfdf6fc0001279561,64d2fd46c836a06233681665,64dc7d1a2c6c239c09739ab6,,,,,,,decisionTrl,resources/DY.BMP,resources/DBN.BMP,Door1,0.362239583,-0.013020833,1,0,0,1.5835,optionRight,30,6890,3,35,0,35,0,1,,,,,,,,,,,,,,,,,,,,,,,,,,,,,,,,,,,,,,,
,,,,,,,,2023-08-16_08h42.29.115,HF_wild_card,2022.2.4,Win32,60.13590715,5a102e9dfdf6fc0001279561,64d2fd46c836a06233681665,64dc7d1a2c6c239c09739ab6,,,,,,,sngl,resources/DBN.BMP,resources/Empty.png,Door1,-0.2640625,-0.009114583,1,0,0,0.5849,optionLeft,30,6920,3,36,0,36,0,1,,,,,,,,,,,,,,,,,,,,,,,,,,,,,,,,,,,,,,,
,,,,,,,,2023-08-16_08h42.29.115,HF_wild_card,2022.2.4,Win32,60.13590715,5a102e9dfdf6fc0001279561,64d2fd46c836a06233681665,64dc7d1a2c6c239c09739ab6,,,,,,,decisionTrl,resources/DG.BMP,resources/DB.BMP,Door3,0.377864583,-0.006510417,1,0,0,0.7175,optionRight,70,6990,3,37,0,37,0,1,,,,,,,,,,,,,,,,,,,,,,,,,,,,,,,,,,,,,,,
,,,,,,,,2023-08-16_08h42.29.115,HF_wild_card,2022.2.4,Win32,60.13590715,5a102e9dfdf6fc0001279561,64d2fd46c836a06233681665,64dc7d1a2c6c239c09739ab6,,,,,,,sngl,resources/DB.BMP,resources/Empty.png,Door3,-0.2875,-0.0078125,1,0,0,0.5579,optionLeft,70,7060,3,38,0,38,0,1,,,,,,,,,,,,,,,,,,,,,,,,,,,,,,,,,,,,,,,
,,,,,,,,2023-08-16_08h42.29.115,HF_wild_card,2022.2.4,Win32,60.13590715,5a102e9dfdf6fc0001279561,64d2fd46c836a06233681665,64dc7d1a2c6c239c09739ab6,,,,,,,decisionTrl,resources/DR.BMP,resources/DB.BMP,Door4,-0.218489583,-0.009114583,1,0,0,1.0466,optionLeft,60,7120,3,39,0,39,0,1,,,,,,,,,,,,,,,,,,,,,,,,,,,,,,,,,,,,,,,
,,,,,,,,2023-08-16_08h42.29.115,HF_wild_card,2022.2.4,Win32,60.13590715,5a102e9dfdf6fc0001279561,64d2fd46c836a06233681665,64dc7d1a2c6c239c09739ab6,,,,,,,sngl,resources/DY.BMP,resources/Empty.png,Door2,-0.262760417,-0.0234375,1,0,0,0.5952,optionLeft,40,7160,3,40,0,40,0,1,,,,,,,,,,,,,,,,,,,,,,,,,,,,,,,,,,,,,,,
,,,,,,,,2023-08-16_08h42.29.115,HF_wild_card,2022.2.4,Win32,60.13590715,5a102e9dfdf6fc0001279561,64d2fd46c836a06233681665,64dc7d1a2c6c239c09739ab6,,,,,,,decisionTrl,resources/DB.BMP,resources/DR.BMP,Door3,-0.222395833,-0.03125,1,0,0,0.6252,optionLeft,70,7230,3,41,0,41,0,1,,,,,,,,,,,,,,,,,,,,,,,,,,,,,,,,,,,,,,,
,,,,,,,,2023-08-16_08h42.29.115,HF_wild_card,2022.2.4,Win32,60.13590715,5a102e9dfdf6fc0001279561,64d2fd46c836a06233681665,64dc7d1a2c6c239c09739ab6,,,,,,,decisionTrl,resources/DY.BMP,resources/DBN.BMP,Door1,0.2671875,-0.048177083,1,0,0,0.9413,optionRight,30,7260,3,42,0,42,0,1,,,,,,,,,,,,,,,,,,,,,,,,,,,,,,,,,,,,,,,
,,,,,,,,2023-08-16_08h42.29.115,HF_wild_card,2022.2.4,Win32,60.13590715,5a102e9dfdf6fc0001279561,64d2fd46c836a06233681665,64dc7d1a2c6c239c09739ab6,,,,,,,ctch,resources/DR.BMP,resources/DBN.BMP,Door4,-0.239322917,-0.076822917,1,0,0,1.3099,optionLeft,80,7340,3,43,0,43,0,1,,,,,,,,,,,,,,,,,,,,,,,,,,,,,,,,,,,,,,,
,,,,,,,,2023-08-16_08h42.29.115,HF_wild_card,2022.2.4,Win32,60.13590715,5a102e9dfdf6fc0001279561,64d2fd46c836a06233681665,64dc7d1a2c6c239c09739ab6,,,,,,,,,,,,,,,,,,,,,,,,,,2,0,2,0,1,,,,,,,,,,,,,,,,,,,,,,,,,,,,,,,,,,
,,,,,,,,2023-08-16_08h42.29.115,HF_wild_card,2022.2.4,Win32,60.13590715,5a102e9dfdf6fc0001279561,64d2fd46c836a06233681665,64dc7d1a2c6c239c09739ab6,,,,,,,ctch,resources/DB.BMP,resources/DY.BMP,Door3,-0.454166667,-0.041666667,1,0,0,1.0176,optionLeft,70,7410,4,0,0,0,0,1,,,,,,,,,,,,,,,,,,,,,,,,,,,,,,,,,,,,,,,
,,,,,,,,2023-08-16_08h42.29.115,HF_wild_card,2022.2.4,Win32,60.13590715,5a102e9dfdf6fc0001279561,64d2fd46c836a06233681665,64dc7d1a2c6c239c09739ab6,,,,,,,decisionTrl,resources/DY.BMP,resources/DBN.BMP,Door1,0.29453125,-0.013020833,1,0,0,0.9056,optionRight,30,7440,4,1,0,1,0,1,,,,,,,,,,,,,,,,,,,,,,,,,,,,,,,,,,,,,,,
,,,,,,,,2023-08-16_08h42.29.115,HF_wild_card,2022.2.4,Win32,60.13590715,5a102e9dfdf6fc0001279561,64d2fd46c836a06233681665,64dc7d1a2c6c239c09739ab6,,,,,,,decisionTrl,resources/DB.BMP,resources/DR.BMP,Door4,0.315364583,-0.026041667,1,0,0,0.9084,optionRight,60,7500,4,2,0,2,0,1,,,,,,,,,,,,,,,,,,,,,,,,,,,,,,,,,,,,,,,
,,,,,,,,2023-08-16_08h42.29.115,HF_wild_card,2022.2.4,Win32,60.13590715,5a102e9dfdf6fc0001279561,64d2fd46c836a06233681665,64dc7d1a2c6c239c09739ab6,,,,,,,sngl,resources/DY.BMP,resources/Empty.png,Door2,-0.22890625,-0.013020833,1,0,0,0.5621,optionLeft,20,7520,4,3,0,3,0,1,,,,,,,,,,,,,,,,,,,,,,,,,,,,,,,,,,,,,,,
,,,,,,,,2023-08-16_08h42.29.115,HF_wild_card,2022.2.4,Win32,60.13590715,5a102e9dfdf6fc0001279561,64d2fd46c836a06233681665,64dc7d1a2c6c239c09739ab6,,,,,,,decisionTrl,resources/DB.BMP,resources/DR.BMP,Door3,-0.161197917,-0.005208333,1,0,0,0.9383,optionLeft,70,7590,4,4,0,4,0,1,,,,,,,,,,,,,,,,,,,,,,,,,,,,,,,,,,,,,,,
,,,,,,,,2023-08-16_08h42.29.115,HF_wild_card,2022.2.4,Win32,60.13590715,5a102e9dfdf6fc0001279561,64d2fd46c836a06233681665,64dc7d1a2c6c239c09739ab6,,,,,,,sngl,resources/DR.BMP,resources/Empty.png,Door4,-0.31484375,-0.005208333,1,0,0,0.6596,optionLeft,60,7650,4,5,0,5,0,1,,,,,,,,,,,,,,,,,,,,,,,,,,,,,,,,,,,,,,,
,,,,,,,,2023-08-16_08h42.29.115,HF_wild_card,2022.2.4,Win32,60.13590715,5a102e9dfdf6fc0001279561,64d2fd46c836a06233681665,64dc7d1a2c6c239c09739ab6,,,,,,,ctch,resources/DBN.BMP,resources/DR.BMP,Door4,0.297135417,-0.01171875,1,0,0,0.712,optionRight,60,7710,4,6,0,6,0,1,,,,,,,,,,,,,,,,,,,,,,,,,,,,,,,,,,,,,,,
,,,,,,,,2023-08-16_08h42.29.115,HF_wild_card,2022.2.4,Win32,60.13590715,5a102e9dfdf6fc0001279561,64d2fd46c836a06233681665,64dc7d1a2c6c239c09739ab6,,,,,,,decisionTrl,resources/DB.BMP,resources/DR.BMP,Door4,0.362239583,-0.032552083,1,0,0,0.8912,optionRight,60,7770,4,7,0,7,0,1,,,,,,,,,,,,,,,,,,,,,,,,,,,,,,,,,,,,,,,
,,,,,,,,2023-08-16_08h42.29.115,HF_wild_card,2022.2.4,Win32,60.13590715,5a102e9dfdf6fc0001279561,64d2fd46c836a06233681665,64dc7d1a2c6c239c09739ab6,,,,,,,ctch,resources/DR.BMP,resources/DBN.BMP,Door4,-0.261458333,-0.032552083,1,0,0,0.8768,optionLeft,60,7830,4,8,0,8,0,1,,,,,,,,,,,,,,,,,,,,,,,,,,,,,,,,,,,,,,,
,,,,,,,,2023-08-16_08h42.29.115,HF_wild_card,2022.2.4,Win32,60.13590715,5a102e9dfdf6fc0001279561,64d2fd46c836a06233681665,64dc7d1a2c6c239c09739ab6,,,,,,,decisionTrl,resources/DBN.BMP,resources/DY.BMP,Door1,-0.495833333,-0.015625,1,0,0,1.1535,optionLeft,30,7860,4,9,0,9,0,1,,,,,,,,,,,,,,,,,,,,,,,,,,,,,,,,,,,,,,,
,,,,,,,,2023-08-16_08h42.29.115,HF_wild_card,2022.2.4,Win32,60.13590715,5a102e9dfdf6fc0001279561,64d2fd46c836a06233681665,64dc7d1a2c6c239c09739ab6,,,,,,,decisionTrl,resources/DB.BMP,resources/DR.BMP,Door3,-0.265364583,0,1,0,0,0.9279,optionLeft,70,7930,4,10,0,10,0,1,,,,,,,,,,,,,,,,,,,,,,,,,,,,,,,,,,,,,,,
,,,,,,,,2023-08-16_08h42.29.115,HF_wild_card,2022.2.4,Win32,60.13590715,5a102e9dfdf6fc0001279561,64d2fd46c836a06233681665,64dc7d1a2c6c239c09739ab6,,,,,,,ctch,resources/DY.BMP,resources/DB.BMP,Door3,0.571875,-0.07421875,1,0,0,0.9074,optionRight,70,8000,4,11,0,11,0,1,,,,,,,,,,,,,,,,,,,,,,,,,,,,,,,,,,,,,,,
,,,,,,,,2023-08-16_08h42.29.115,HF_wild_card,2022.2.4,Win32,60.13590715,5a102e9dfdf6fc0001279561,64d2fd46c836a06233681665,64dc7d1a2c6c239c09739ab6,,,,,,,sngl,resources/DB.BMP,resources/Empty.png,Door3,-0.241927083,-0.045572917,1,0,0,0.701,optionLeft,70,8070,4,12,0,12,0,1,,,,,,,,,,,,,,,,,,,,,,,,,,,,,,,,,,,,,,,
,,,,,,,,2023-08-16_08h42.29.115,HF_wild_card,2022.2.4,Win32,60.13590715,5a102e9dfdf6fc0001279561,64d2fd46c836a06233681665,64dc7d1a2c6c239c09739ab6,,,,,,,decisionTrl,resources/DP.BMP,resources/DY.BMP,WildCard_Ex,-0.331770833,-0.032552083,1,0,0,0.8154,optionLeft,5,8075,4,13,0,13,0,1,,,,,,,,,,,,,,,,,,,,,,,,,,,,,,,,,,,,,,,
,,,,,,,,2023-08-16_08h42.29.115,HF_wild_card,2022.2.4,Win32,60.13590715,5a102e9dfdf6fc0001279561,64d2fd46c836a06233681665,64dc7d1a2c6c239c09739ab6,,,,,,,decisionTrl,resources/DY.BMP,resources/DBN.BMP,Door1,0.234635417,-0.01171875,1,0,0,0.8295,optionRight,30,8105,4,14,0,14,0,1,,,,,,,,,,,,,,,,,,,,,,,,,,,,,,,,,,,,,,,
,,,,,,,,2023-08-16_08h42.29.115,HF_wild_card,2022.2.4,Win32,60.13590715,5a102e9dfdf6fc0001279561,64d2fd46c836a06233681665,64dc7d1a2c6c239c09739ab6,,,,,,,decisionTrl,resources/DB.BMP,resources/DP.BMP,Door3,-0.347395833,-0.024739583,1,0,0,0.9803,optionLeft,70,8175,4,15,0,15,0,1,,,,,,,,,,,,,,,,,,,,,,,,,,,,,,,,,,,,,,,
,,,,,,,,2023-08-16_08h42.29.115,HF_wild_card,2022.2.4,Win32,60.13590715,5a102e9dfdf6fc0001279561,64d2fd46c836a06233681665,64dc7d1a2c6c239c09739ab6,,,,,,,decisionTrl,resources/DY.BMP,resources/DBN.BMP,Door1,0.2671875,-0.00390625,1,0,0,1.0716,optionRight,30,8205,4,16,0,16,0,1,,,,,,,,,,,,,,,,,,,,,,,,,,,,,,,,,,,,,,,
,,,,,,,,2023-08-16_08h42.29.115,HF_wild_card,2022.2.4,Win32,60.13590715,5a102e9dfdf6fc0001279561,64d2fd46c836a06233681665,64dc7d1a2c6c239c09739ab6,,,,,,,decisionTrl,resources/DBN.BMP,resources/DY.BMP,Door1,-0.499739583,-0.00390625,1,0,0,0.826,optionLeft,30,8235,4,17,0,17,0,1,,,,,,,,,,,,,,,,,,,,,,,,,,,,,,,,,,,,,,,
,,,,,,,,2023-08-16_08h42.29.115,HF_wild_card,2022.2.4,Win32,60.13590715,5a102e9dfdf6fc0001279561,64d2fd46c836a06233681665,64dc7d1a2c6c239c09739ab6,,,,,,,sngl,resources/Empty.png,resources/DP.BMP,WildCard_Ex,0.3921875,-0.053385417,1,0,0,1.3642,optionRight,95,8330,4,18,0,18,0,1,,,,,,,,,,,,,,,,,,,,,,,,,,,,,,,,,,,,,,,
,,,,,,,,2023-08-16_08h42.29.115,HF_wild_card,2022.2.4,Win32,60.13590715,5a102e9dfdf6fc0001279561,64d2fd46c836a06233681665,64dc7d1a2c6c239c09739ab6,,,,,,,decisionTrl,resources/DY.BMP,resources/DBN.BMP,Door1,0.237239583,-0.01953125,1,0,0,1.2648,optionRight,30,8360,4,19,0,19,0,1,,,,,,,,,,,,,,,,,,,,,,,,,,,,,,,,,,,,,,,
,,,,,,,,2023-08-16_08h42.29.115,HF_wild_card,2022.2.4,Win32,60.13590715,5a102e9dfdf6fc0001279561,64d2fd46c836a06233681665,64dc7d1a2c6c239c09739ab6,,,,,,,decisionTrl,resources/DR.BMP,resources/DB.BMP,Door3,0.289322917,-0.032552083,1,0,0,1.0561,optionRight,70,8430,4,20,0,20,0,1,,,,,,,,,,,,,,,,,,,,,,,,,,,,,,,,,,,,,,,
,,,,,,,,2023-08-16_08h42.29.115,HF_wild_card,2022.2.4,Win32,60.13590715,5a102e9dfdf6fc0001279561,64d2fd46c836a06233681665,64dc7d1a2c6c239c09739ab6,,,,,,,decisionTrl,resources/DP.BMP,resources/DB.BMP,WildCard_Ex,-0.309635417,-0.006510417,1,0,0,0.8853,optionLeft,95,8525,4,21,0,21,0,1,,,,,,,,,,,,,,,,,,,,,,,,,,,,,,,,,,,,,,,
,,,,,,,,2023-08-16_08h42.29.115,HF_wild_card,2022.2.4,Win32,60.13590715,5a102e9dfdf6fc0001279561,64d2fd46c836a06233681665,64dc7d1a2c6c239c09739ab6,,,,,,,decisionTrl,resources/DR.BMP,resources/DB.BMP,Door4,-0.36953125,-0.040364583,1,0,0,1.0986,optionLeft,80,8605,4,22,0,22,0,1,,,,,,,,,,,,,,,,,,,,,,,,,,,,,,,,,,,,,,,
,,,,,,,,2023-08-16_08h42.29.115,HF_wild_card,2022.2.4,Win32,60.13590715,5a102e9dfdf6fc0001279561,64d2fd46c836a06233681665,64dc7d1a2c6c239c09739ab6,,,,,,,decisionTrl,resources/DR.BMP,resources/DP.BMP,Door4,-0.258854167,-0.03125,1,0,0,0.8071,optionLeft,60,8665,4,23,0,23,0,1,,,,,,,,,,,,,,,,,,,,,,,,,,,,,,,,,,,,,,,
,,,,,,,,2023-08-16_08h42.29.115,HF_wild_card,2022.2.4,Win32,60.13590715,5a102e9dfdf6fc0001279561,64d2fd46c836a06233681665,64dc7d1a2c6c239c09739ab6,,,,,,,sngl,resources/Empty.png,resources/DB.BMP,Door3,0.3140625,-0.045572917,1,0,0,0.8197,optionRight,70,8735,4,24,0,24,0,1,,,,,,,,,,,,,,,,,,,,,,,,,,,,,,,,,,,,,,,
,,,,,,,,2023-08-16_08h42.29.115,HF_wild_card,2022.2.4,Win32,60.13590715,5a102e9dfdf6fc0001279561,64d2fd46c836a06233681665,64dc7d1a2c6c239c09739ab6,,,,,,,ctch,resources/DR.BMP,resources/DBN.BMP,Door4,-0.363020833,0.002604167,1,0,0,0.6959,optionLeft,60,8795,4,25,0,25,0,1,,,,,,,,,,,,,,,,,,,,,,,,,,,,,,,,,,,,,,,
,,,,,,,,2023-08-16_08h42.29.115,HF_wild_card,2022.2.4,Win32,60.13590715,5a102e9dfdf6fc0001279561,64d2fd46c836a06233681665,64dc7d1a2c6c239c09739ab6,,,,,,,ctch,resources/DY.BMP,resources/DB.BMP,Door3,0.295833333,-0.013020833,1,0,0,1.2657,optionRight,70,8865,4,26,0,26,0,1,,,,,,,,,,,,,,,,,,,,,,,,,,,,,,,,,,,,,,,
,,,,,,,,2023-08-16_08h42.29.115,HF_wild_card,2022.2.4,Win32,60.13590715,5a102e9dfdf6fc0001279561,64d2fd46c836a06233681665,64dc7d1a2c6c239c09739ab6,,,,,,,sngl,resources/Empty.png,resources/DR.BMP,Door4,0.316666667,-0.024739583,1,0,0,0.71,optionRight,80,8945,4,27,0,27,0,1,,,,,,,,,,,,,,,,,,,,,,,,,,,,,,,,,,,,,,,
,,,,,,,,2023-08-16_08h42.29.115,HF_wild_card,2022.2.4,Win32,60.13590715,5a102e9dfdf6fc0001279561,64d2fd46c836a06233681665,64dc7d1a2c6c239c09739ab6,,,,,,,sngl,resources/Empty.png,resources/DP.BMP,WildCard_Ex,0.269791667,-0.049479167,1,0,0,0.6111,optionRight,5,8950,4,28,0,28,0,1,,,,,,,,,,,,,,,,,,,,,,,,,,,,,,,,,,,,,,,
,,,,,,,,2023-08-16_08h42.29.115,HF_wild_card,2022.2.4,Win32,60.13590715,5a102e9dfdf6fc0001279561,64d2fd46c836a06233681665,64dc7d1a2c6c239c09739ab6,,,,,,,sngl,resources/Empty.png,resources/DY.BMP,Door2,0.346614583,-0.067708333,1,0,0,0.5594,optionRight,40,8990,4,29,0,29,0,1,,,,,,,,,,,,,,,,,,,,,,,,,,,,,,,,,,,,,,,
,,,,,,,,2023-08-16_08h42.29.115,HF_wild_card,2022.2.4,Win32,60.13590715,5a102e9dfdf6fc0001279561,64d2fd46c836a06233681665,64dc7d1a2c6c239c09739ab6,,,,,,,ctch,resources/DBN.BMP,resources/DR.BMP,Door4,0.344010417,-0.01953125,1,0,0,1.0291,optionRight,80,9070,4,30,0,30,0,1,,,,,,,,,,,,,,,,,,,,,,,,,,,,,,,,,,,,,,,
,,,,,,,,2023-08-16_08h42.29.115,HF_wild_card,2022.2.4,Win32,60.13590715,5a102e9dfdf6fc0001279561,64d2fd46c836a06233681665,64dc7d1a2c6c239c09739ab6,,,,,,,decisionTrl,resources/DY.BMP,resources/DP.BMP,WildCard_Ex,0.371354167,-0.0390625,1,0,0,0.7432,optionRight,5,9075,4,31,0,31,0,1,,,,,,,,,,,,,,,,,,,,,,,,,,,,,,,,,,,,,,,
,,,,,,,,2023-08-16_08h42.29.115,HF_wild_card,2022.2.4,Win32,60.13590715,5a102e9dfdf6fc0001279561,64d2fd46c836a06233681665,64dc7d1a2c6c239c09739ab6,,,,,,,decisionTrl,resources/DP.BMP,resources/DBN.BMP,WildCard_Ex,-0.363020833,-0.049479167,1,0,0,0.7499,optionLeft,5,9080,4,32,0,32,0,1,,,,,,,,,,,,,,,,,,,,,,,,,,,,,,,,,,,,,,,
,,,,,,,,2023-08-16_08h42.29.115,HF_wild_card,2022.2.4,Win32,60.13590715,5a102e9dfdf6fc0001279561,64d2fd46c836a06233681665,64dc7d1a2c6c239c09739ab6,,,,,,,decisionTrl,resources/DR.BMP,resources/DB.BMP,Door3,0.315364583,-0.020833333,1,0,0,0.8618,optionRight,70,9150,4,33,0,33,0,1,,,,,,,,,,,,,,,,,,,,,,,,,,,,,,,,,,,,,,,
,,,,,,,,2023-08-16_08h42.29.115,HF_wild_card,2022.2.4,Win32,60.13590715,5a102e9dfdf6fc0001279561,64d2fd46c836a06233681665,64dc7d1a2c6c239c09739ab6,,,,,,,decisionTrl,resources/DP.BMP,resources/DR.BMP,WildCard_Ex,-0.29140625,-0.045572917,1,0,0,0.73,optionLeft,95,9245,4,34,0,34,0,1,,,,,,,,,,,,,,,,,,,,,,,,,,,,,,,,,,,,,,,
,,,,,,,,2023-08-16_08h42.29.115,HF_wild_card,2022.2.4,Win32,60.13590715,5a102e9dfdf6fc0001279561,64d2fd46c836a06233681665,64dc7d1a2c6c239c09739ab6,,,,,,,ctch,resources/DB.BMP,resources/DY.BMP,Door3,-0.2328125,-0.0390625,1,0,0,1.2608,optionLeft,70,9315,4,35,0,35,0,1,,,,,,,,,,,,,,,,,,,,,,,,,,,,,,,,,,,,,,,
,,,,,,,,2023-08-16_08h42.29.115,HF_wild_card,2022.2.4,Win32,60.13590715,5a102e9dfdf6fc0001279561,64d2fd46c836a06233681665,64dc7d1a2c6c239c09739ab6,,,,,,,decisionTrl,resources/DBN.BMP,resources/DY.BMP,Door1,-0.29140625,0,1,0,0,0.8452,optionLeft,30,9345,4,36,0,36,0,1,,,,,,,,,,,,,,,,,,,,,,,,,,,,,,,,,,,,,,,
,,,,,,,,2023-08-16_08h42.29.115,HF_wild_card,2022.2.4,Win32,60.13590715,5a102e9dfdf6fc0001279561,64d2fd46c836a06233681665,64dc7d1a2c6c239c09739ab6,,,,,,,decisionTrl,resources/DR.BMP,resources/DB.BMP,Door3,0.284114583,-0.010416667,1,0,0,0.746,optionRight,70,9415,4,37,0,37,0,1,,,,,,,,,,,,,,,,,,,,,,,,,,,,,,,,,,,,,,,
,,,,,,,,2023-08-16_08h42.29.115,HF_wild_card,2022.2.4,Win32,60.13590715,5a102e9dfdf6fc0001279561,64d2fd46c836a06233681665,64dc7d1a2c6c239c09739ab6,,,,,,,sngl,resources/DP.BMP,resources/Empty.png,WildCard_Ex,-0.27578125,0,1,0,0,0.931,optionLeft,95,9510,4,38,0,38,0,1,,,,,,,,,,,,,,,,,,,,,,,,,,,,,,,,,,,,,,,
,,,,,,,,2023-08-16_08h42.29.115,HF_wild_card,2022.2.4,Win32,60.13590715,5a102e9dfdf6fc0001279561,64d2fd46c836a06233681665,64dc7d1a2c6c239c09739ab6,,,,,,,sngl,resources/DP.BMP,resources/Empty.png,WildCard_Ex,-0.245833333,0.005208333,1,0,0,1.052,optionLeft,5,9515,4,39,0,39,0,1,,,,,,,,,,,,,,,,,,,,,,,,,,,,,,,,,,,,,,,
,,,,,,,,2023-08-16_08h42.29.115,HF_wild_card,2022.2.4,Win32,60.13590715,5a102e9dfdf6fc0001279561,64d2fd46c836a06233681665,64dc7d1a2c6c239c09739ab6,,,,,,,decisionTrl,resources/DBN.BMP,resources/DY.BMP,Door2,0.52890625,-0.053385417,1,0,0,2.1626,optionRight,20,9535,4,40,0,40,0,1,,,,,,,,,,,,,,,,,,,,,,,,,,,,,,,,,,,,,,,
,,,,,,,,2023-08-16_08h42.29.115,HF_wild_card,2022.2.4,Win32,60.13590715,5a102e9dfdf6fc0001279561,64d2fd46c836a06233681665,64dc7d1a2c6c239c09739ab6,,,,,,,sngl,resources/Empty.png,resources/DBN.BMP,Door1,0.383072917,-0.01171875,1,0,0,0.6258,optionRight,30,9565,4,41,0,41,0,1,,,,,,,,,,,,,,,,,,,,,,,,,,,,,,,,,,,,,,,
,,,,,,,,2023-08-16_08h42.29.115,HF_wild_card,2022.2.4,Win32,60.13590715,5a102e9dfdf6fc0001279561,64d2fd46c836a06233681665,64dc7d1a2c6c239c09739ab6,,,,,,,decisionTrl,resources/DBN.BMP,resources/DP.BMP,WildCard_Ex,0.336197917,-0.045572917,1,0,0,0.7869,optionRight,95,9660,4,42,0,42,0,1,,,,,,,,,,,,,,,,,,,,,,,,,,,,,,,,,,,,,,,
,,,,,,,,2023-08-16_08h42.29.115,HF_wild_card,2022.2.4,Win32,60.13590715,5a102e9dfdf6fc0001279561,64d2fd46c836a06233681665,64dc7d1a2c6c239c09739ab6,,,,,,,sngl,resources/DBN.BMP,resources/Empty.png,Door1,-0.409895833,-0.006510417,1,0,0,0.5848,optionLeft,30,9690,4,43,0,43,0,1,,,,,,,,,,,,,,,,,,,,,,,,,,,,,,,,,,,,,,,
,,,,,,,,2023-08-16_08h42.29.115,HF_wild_card,2022.2.4,Win32,60.13590715,5a102e9dfdf6fc0001279561,64d2fd46c836a06233681665,64dc7d1a2c6c239c09739ab6,,,,,,,,,,,,,,,,,,,,,,,,,,3,0,3,0,1,,,,,,,,,,,,,,,,,,,,,,,,,,,,,,,,,,
,,,,,,,,2023-08-16_08h42.29.115,HF_wild_card,2022.2.4,Win32,60.13590715,5a102e9dfdf6fc0001279561,64d2fd46c836a06233681665,64dc7d1a2c6c239c09739ab6,,,,,,,ctch,resources/DR.BMP,resources/DBN.BMP,Door4,-0.382552083,0.006510417,1,0,0,0.9458,optionLeft,80,9770,5,0,0,0,0,1,,,,,,,,,,,,,,,,,,,,,,,,,,,,,,,,,,,,,,,
,,,,,,,,2023-08-16_08h42.29.115,HF_wild_card,2022.2.4,Win32,60.13590715,5a102e9dfdf6fc0001279561,64d2fd46c836a06233681665,64dc7d1a2c6c239c09739ab6,,,,,,,decisionTrl,resources/DBN.BMP,resources/DY.BMP,Door1,-0.3109375,-0.00390625,1,0,0,5.2696,optionLeft,30,9800,5,1,0,1,0,1,,,,,,,,,,,,,,,,,,,,,,,,,,,,,,,,,,,,,,,
,,,,,,,,2023-08-16_08h42.29.115,HF_wild_card,2022.2.4,Win32,60.13590715,5a102e9dfdf6fc0001279561,64d2fd46c836a06233681665,64dc7d1a2c6c239c09739ab6,,,,,,,decisionTrl,resources/DY.BMP,resources/DP.BMP,WildCard_Ex,0.38046875,-0.020833333,1,0,0,0.7277,optionRight,95,9895,5,2,0,2,0,1,,,,,,,,,,,,,,,,,,,,,,,,,,,,,,,,,,,,,,,
,,,,,,,,2023-08-16_08h42.29.115,HF_wild_card,2022.2.4,Win32,60.13590715,5a102e9dfdf6fc0001279561,64d2fd46c836a06233681665,64dc7d1a2c6c239c09739ab6,,,,,,,decisionTrl,resources/DR.BMP,resources/DB.BMP,Door3,0.2984375,0.01171875,1,0,0,0.7907,optionRight,70,9965,5,3,0,3,0,1,,,,,,,,,,,,,,,,,,,,,,,,,,,,,,,,,,,,,,,
,,,,,,,,2023-08-16_08h42.29.115,HF_wild_card,2022.2.4,Win32,60.13590715,5a102e9dfdf6fc0001279561,64d2fd46c836a06233681665,64dc7d1a2c6c239c09739ab6,,,,,,,sngl,resources/Empty.png,resources/DR.BMP,Door4,0.383072917,-0.01171875,1,0,0,0.628,optionRight,60,10025,5,4,0,4,0,1,,,,,,,,,,,,,,,,,,,,,,,,,,,,,,,,,,,,,,,
,,,,,,,,2023-08-16_08h42.29.115,HF_wild_card,2022.2.4,Win32,60.13590715,5a102e9dfdf6fc0001279561,64d2fd46c836a06233681665,64dc7d1a2c6c239c09739ab6,,,,,,,sngl,resources/DP.BMP,resources/Empty.png,WildCard_Ex,-0.301822917,-0.010416667,1,0,0,0.5498,optionLeft,5,10030,5,5,0,5,0,1,,,,,,,,,,,,,,,,,,,,,,,,,,,,,,,,,,,,,,,
,,,,,,,,2023-08-16_08h42.29.115,HF_wild_card,2022.2.4,Win32,60.13590715,5a102e9dfdf6fc0001279561,64d2fd46c836a06233681665,64dc7d1a2c6c239c09739ab6,,,,,,,sngl,resources/Empty.png,resources/DB.BMP,Door3,0.323177083,-0.01953125,1,0,0,0.9462,optionRight,70,10100,5,6,0,6,0,1,,,,,,,,,,,,,,,,,,,,,,,,,,,,,,,,,,,,,,,
,,,,,,,,2023-08-16_08h42.29.115,HF_wild_card,2022.2.4,Win32,60.13590715,5a102e9dfdf6fc0001279561,64d2fd46c836a06233681665,64dc7d1a2c6c239c09739ab6,,,,,,,sngl,resources/DBN.BMP,resources/Empty.png,Door1,-0.25234375,0.016927083,1,0,0,0.5156,optionLeft,30,10130,5,7,0,7,0,1,,,,,,,,,,,,,,,,,,,,,,,,,,,,,,,,,,,,,,,
,,,,,,,,2023-08-16_08h42.29.115,HF_wild_card,2022.2.4,Win32,60.13590715,5a102e9dfdf6fc0001279561,64d2fd46c836a06233681665,64dc7d1a2c6c239c09739ab6,,,,,,,decisionTrl,resources/DY.BMP,resources/DBN.BMP,Door2,-0.301822917,-0.005208333,1,0,0,0.7931,optionLeft,40,10170,5,8,0,8,0,1,,,,,,,,,,,,,,,,,,,,,,,,,,,,,,,,,,,,,,,
,,,,,,,,2023-08-16_08h42.29.115,HF_wild_card,2022.2.4,Win32,60.13590715,5a102e9dfdf6fc0001279561,64d2fd46c836a06233681665,64dc7d1a2c6c239c09739ab6,,,,,,,decisionTrl,resources/DR.BMP,resources/DB.BMP,Door4,-0.269270833,-0.026041667,1,0,0,1.2941,optionLeft,80,10250,5,9,0,9,0,1,,,,,,,,,,,,,,,,,,,,,,,,,,,,,,,,,,,,,,,
,,,,,,,,2023-08-16_08h42.29.115,HF_wild_card,2022.2.4,Win32,60.13590715,5a102e9dfdf6fc0001279561,64d2fd46c836a06233681665,64dc7d1a2c6c239c09739ab6,,,,,,,decisionTrl,resources/DP.BMP,resources/DB.BMP,WildCard_Ex,-0.305729167,-0.029947917,1,0,0,0.7266,optionLeft,5,10255,5,10,0,10,0,1,,,,,,,,,,,,,,,,,,,,,,,,,,,,,,,,,,,,,,,
,,,,,,,,2023-08-16_08h42.29.115,HF_wild_card,2022.2.4,Win32,60.13590715,5a102e9dfdf6fc0001279561,64d2fd46c836a06233681665,64dc7d1a2c6c239c09739ab6,,,,,,,decisionTrl,resources/DY.BMP,resources/DBN.BMP,Door1,0.432552083,0.002604167,1,0,0,1.3592,optionRight,30,10285,5,11,0,11,0,1,,,,,,,,,,,,,,,,,,,,,,,,,,,,,,,,,,,,,,,
,,,,,,,,2023-08-16_08h42.29.115,HF_wild_card,2022.2.4,Win32,60.13590715,5a102e9dfdf6fc0001279561,64d2fd46c836a06233681665,64dc7d1a2c6c239c09739ab6,,,,,,,decisionTrl,resources/DBN.BMP,resources/DY.BMP,Door1,-0.273177083,0.010416667,1,0,0,0.9061,optionLeft,30,10315,5,12,0,12,0,1,,,,,,,,,,,,,,,,,,,,,,,,,,,,,,,,,,,,,,,
,,,,,,,,2023-08-16_08h42.29.115,HF_wild_card,2022.2.4,Win32,60.13590715,5a102e9dfdf6fc0001279561,64d2fd46c836a06233681665,64dc7d1a2c6c239c09739ab6,,,,,,,sngl,resources/Empty.png,resources/DP.BMP,WildCard_Ex,0.321875,-0.045572917,1,0,0,0.6091,optionRight,95,10410,5,13,0,13,0,1,,,,,,,,,,,,,,,,,,,,,,,,,,,,,,,,,,,,,,,
,,,,,,,,2023-08-16_08h42.29.115,HF_wild_card,2022.2.4,Win32,60.13590715,5a102e9dfdf6fc0001279561,64d2fd46c836a06233681665,64dc7d1a2c6c239c09739ab6,,,,,,,ctch,resources/DY.BMP,resources/DB.BMP,Door3,0.285416667,-0.016927083,1,0,0,2.3583,optionRight,70,10480,5,14,0,14,0,1,,,,,,,,,,,,,,,,,,,,,,,,,,,,,,,,,,,,,,,
,,,,,,,,2023-08-16_08h42.29.115,HF_wild_card,2022.2.4,Win32,60.13590715,5a102e9dfdf6fc0001279561,64d2fd46c836a06233681665,64dc7d1a2c6c239c09739ab6,,,,,,,decisionTrl,resources/DB.BMP,resources/DR.BMP,Door4,0.340104167,-0.057291667,1,0,0,1.0422,optionRight,80,10560,5,15,0,15,0,1,,,,,,,,,,,,,,,,,,,,,,,,,,,,,,,,,,,,,,,
,,,,,,,,2023-08-16_08h42.29.115,HF_wild_card,2022.2.4,Win32,60.13590715,5a102e9dfdf6fc0001279561,64d2fd46c836a06233681665,64dc7d1a2c6c239c09739ab6,,,,,,,decisionTrl,resources/DB.BMP,resources/DP.BMP,Door3,-0.241927083,-0.03125,1,0,0,1.4805,optionLeft,70,10630,5,16,0,16,0,1,,,,,,,,,,,,,,,,,,,,,,,,,,,,,,,,,,,,,,,
,,,,,,,,2023-08-16_08h42.29.115,HF_wild_card,2022.2.4,Win32,60.13590715,5a102e9dfdf6fc0001279561,64d2fd46c836a06233681665,64dc7d1a2c6c239c09739ab6,,,,,,,sngl,resources/DB.BMP,resources/Empty.png,Door3,-0.43984375,-0.026041667,1,0,0,0.7439,optionLeft,70,10700,5,17,0,17,0,1,,,,,,,,,,,,,,,,,,,,,,,,,,,,,,,,,,,,,,,
,,,,,,,,2023-08-16_08h42.29.115,HF_wild_card,2022.2.4,Win32,60.13590715,5a102e9dfdf6fc0001279561,64d2fd46c836a06233681665,64dc7d1a2c6c239c09739ab6,,,,,,,sngl,resources/Empty.png,resources/DY.BMP,Door2,0.2984375,-0.044270833,1,0,0,0.7705,optionRight,20,10720,5,18,0,18,0,1,,,,,,,,,,,,,,,,,,,,,,,,,,,,,,,,,,,,,,,
,,,,,,,,2023-08-16_08h42.29.115,HF_wild_card,2022.2.4,Win32,60.13590715,5a102e9dfdf6fc0001279561,64d2fd46c836a06233681665,64dc7d1a2c6c239c09739ab6,,,,,,,ctch,resources/DB.BMP,resources/DY.BMP,Door3,-0.238020833,-0.03125,1,0,0,0.5912,optionLeft,70,10790,5,19,0,19,0,1,,,,,,,,,,,,,,,,,,,,,,,,,,,,,,,,,,,,,,,
,,,,,,,,2023-08-16_08h42.29.115,HF_wild_card,2022.2.4,Win32,60.13590715,5a102e9dfdf6fc0001279561,64d2fd46c836a06233681665,64dc7d1a2c6c239c09739ab6,,,,,,,decisionTrl,resources/DY.BMP,resources/DBN.BMP,Door1,0.2046875,-0.0390625,1,0,0,1.7591,optionRight,30,10820,5,20,0,20,0,1,,,,,,,,,,,,,,,,,,,,,,,,,,,,,,,,,,,,,,,
,,,,,,,,2023-08-16_08h42.29.115,HF_wild_card,2022.2.4,Win32,60.13590715,5a102e9dfdf6fc0001279561,64d2fd46c836a06233681665,64dc7d1a2c6c239c09739ab6,,,,,,,sngl,resources/DR.BMP,resources/Empty.png,Door4,-0.30703125,-0.006510417,1,0,0,0.5893,optionLeft,80,10900,5,21,0,21,0,1,,,,,,,,,,,,,,,,,,,,,,,,,,,,,,,,,,,,,,,
,,,,,,,,2023-08-16_08h42.29.115,HF_wild_card,2022.2.4,Win32,60.13590715,5a102e9dfdf6fc0001279561,64d2fd46c836a06233681665,64dc7d1a2c6c239c09739ab6,,,,,,,sngl,resources/DP.BMP,resources/Empty.png,WildCard_Ex,-0.294010417,-0.01171875,1,0,0,0.6034,optionLeft,95,10995,5,22,0,22,0,1,,,,,,,,,,,,,,,,,,,,,,,,,,,,,,,,,,,,,,,
,,,,,,,,2023-08-16_08h42.29.115,HF_wild_card,2022.2.4,Win32,60.13590715,5a102e9dfdf6fc0001279561,64d2fd46c836a06233681665,64dc7d1a2c6c239c09739ab6,,,,,,,sngl,resources/Empty.png,resources/DP.BMP,WildCard_Ex,0.354427083,-0.0625,1,0,0,0.5656,optionRight,5,11000,5,23,0,23,0,1,,,,,,,,,,,,,,,,,,,,,,,,,,,,,,,,,,,,,,,
,,,,,,,,2023-08-16_08h42.29.115,HF_wild_card,2022.2.4,Win32,60.13590715,5a102e9dfdf6fc0001279561,64d2fd46c836a06233681665,64dc7d1a2c6c239c09739ab6,,,,,,,decisionTrl,resources/DBN.BMP,resources/DY.BMP,Door1,-0.187239583,-0.0078125,1,0,0,1.0466,optionLeft,30,11030,5,24,0,24,0,1,,,,,,,,,,,,,,,,,,,,,,,,,,,,,,,,,,,,,,,
,,,,,,,,2023-08-16_08h42.29.115,HF_wild_card,2022.2.4,Win32,60.13590715,5a102e9dfdf6fc0001279561,64d2fd46c836a06233681665,64dc7d1a2c6c239c09739ab6,,,,,,,decisionTrl,resources/DP.BMP,resources/DY.BMP,WildCard_Ex,-0.254947917,-0.05078125,1,0,0,0.6504,optionLeft,5,11035,5,25,0,25,0,1,,,,,,,,,,,,,,,,,,,,,,,,,,,,,,,,,,,,,,,
,,,,,,,,2023-08-16_08h42.29.115,HF_wild_card,2022.2.4,Win32,60.13590715,5a102e9dfdf6fc0001279561,64d2fd46c836a06233681665,64dc7d1a2c6c239c09739ab6,,,,,,,ctch,resources/DB.BMP,resources/DY.BMP,Door3,-0.2328125,-0.046875,1,0,0,1.0335,optionLeft,70,11105,5,26,0,26,0,1,,,,,,,,,,,,,,,,,,,,,,,,,,,,,,,,,,,,,,,
,,,,,,,,2023-08-16_08h42.29.115,HF_wild_card,2022.2.4,Win32,60.13590715,5a102e9dfdf6fc0001279561,64d2fd46c836a06233681665,64dc7d1a2c6c239c09739ab6,,,,,,,decisionTrl,resources/DB.BMP,resources/DR.BMP,Door4,0.437760417,-0.065104167,1,0,0,1.2248,optionRight,60,11165,5,27,0,27,0,1,,,,,,,,,,,,,,,,,,,,,,,,,,,,,,,,,,,,,,,
,,,,,,,,2023-08-16_08h42.29.115,HF_wild_card,2022.2.4,Win32,60.13590715,5a102e9dfdf6fc0001279561,64d2fd46c836a06233681665,64dc7d1a2c6c239c09739ab6,,,,,,,ctch,resources/DY.BMP,resources/DB.BMP,Door3,0.23984375,-0.057291667,1,0,0,1.3803,optionRight,70,11235,5,28,0,28,0,1,,,,,,,,,,,,,,,,,,,,,,,,,,,,,,,,,,,,,,,
,,,,,,,,2023-08-16_08h42.29.115,HF_wild_card,2022.2.4,Win32,60.13590715,5a102e9dfdf6fc0001279561,64d2fd46c836a06233681665,64dc7d1a2c6c239c09739ab6,,,,,,,sngl,resources/DY.BMP,resources/Empty.png,Door2,-0.188541667,-0.052083333,1,0,0,0.8561,optionLeft,40,11275,5,29,0,29,0,1,,,,,,,,,,,,,,,,,,,,,,,,,,,,,,,,,,,,,,,
,,,,,,,,2023-08-16_08h42.29.115,HF_wild_card,2022.2.4,Win32,60.13590715,5a102e9dfdf6fc0001279561,64d2fd46c836a06233681665,64dc7d1a2c6c239c09739ab6,,,,,,,sngl,resources/Empty.png,resources/DBN.BMP,Door1,0.289322917,-0.006510417,1,0,0,1.2542,optionRight,30,11305,5,30,0,30,0,1,,,,,,,,,,,,,,,,,,,,,,,,,,,,,,,,,,,,,,,
,,,,,,,,2023-08-16_08h42.29.115,HF_wild_card,2022.2.4,Win32,60.13590715,5a102e9dfdf6fc0001279561,64d2fd46c836a06233681665,64dc7d1a2c6c239c09739ab6,,,,,,,decisionTrl,resources/DR.BMP,resources/DB.BMP,Door4,-0.409895833,-0.0234375,1,0,0,2.2163,optionLeft,60,11365,5,31,0,31,0,1,,,,,,,,,,,,,,,,,,,,,,,,,,,,,,,,,,,,,,,
,,,,,,,,2023-08-16_08h42.29.115,HF_wild_card,2022.2.4,Win32,60.13590715,5a102e9dfdf6fc0001279561,64d2fd46c836a06233681665,64dc7d1a2c6c239c09739ab6,,,,,,,decisionTrl,resources/DBN.BMP,resources/DP.BMP,WildCard_Ex,0.31015625,-0.059895833,1,0,0,0.7104,optionRight,95,11460,5,32,0,32,0,1,,,,,,,,,,,,,,,,,,,,,,,,,,,,,,,,,,,,,,,
,,,,,,,,2023-08-16_08h42.29.115,HF_wild_card,2022.2.4,Win32,60.13590715,5a102e9dfdf6fc0001279561,64d2fd46c836a06233681665,64dc7d1a2c6c239c09739ab6,,,,,,,decisionTrl,resources/DR.BMP,resources/DP.BMP,Door4,-0.292708333,-0.014322917,1,0,0,1.5921,optionLeft,60,11520,5,33,0,33,0,1,,,,,,,,,,,,,,,,,,,,,,,,,,,,,,,,,,,,,,,
,,,,,,,,2023-08-16_08h42.29.115,HF_wild_card,2022.2.4,Win32,60.13590715,5a102e9dfdf6fc0001279561,64d2fd46c836a06233681665,64dc7d1a2c6c239c09739ab6,,,,,,,ctch,resources/DBN.BMP,resources/DR.BMP,Door4,0.010677083,-0.006510417,1,0,0,0.4789,optionRight,60,11580,5,34,0,34,0,1,,,,,,,,,,,,,,,,,,,,,,,,,,,,,,,,,,,,,,,
,,,,,,,,2023-08-16_08h42.29.115,HF_wild_card,2022.2.4,Win32,60.13590715,5a102e9dfdf6fc0001279561,64d2fd46c836a06233681665,64dc7d1a2c6c239c09739ab6,,,,,,,decisionTrl,resources/DR.BMP,resources/DB.BMP,Door4,-0.292708333,-0.03125,1,0,0,1.0894,optionLeft,80,11660,5,35,0,35,0,1,,,,,,,,,,,,,,,,,,,,,,,,,,,,,,,,,,,,,,,
,,,,,,,,2023-08-16_08h42.29.115,HF_wild_card,2022.2.4,Win32,60.13590715,5a102e9dfdf6fc0001279561,64d2fd46c836a06233681665,64dc7d1a2c6c239c09739ab6,,,,,,,decisionTrl,resources/DY.BMP,resources/DBN.BMP,Door1,0.4,-0.05078125,1,0,0,0.8895,optionRight,30,11690,5,36,0,36,0,1,,,,,,,,,,,,,,,,,,,,,,,,,,,,,,,,,,,,,,,
,,,,,,,,2023-08-16_08h42.29.115,HF_wild_card,2022.2.4,Win32,60.13590715,5a102e9dfdf6fc0001279561,64d2fd46c836a06233681665,64dc7d1a2c6c239c09739ab6,,,,,,,ctch,resources/DBN.BMP,resources/DR.BMP,Door4,0.347916667,-0.03515625,1,0,0,0.811,optionRight,80,11770,5,37,0,37,0,1,,,,,,,,,,,,,,,,,,,,,,,,,,,,,,,,,,,,,,,
,,,,,,,,2023-08-16_08h42.29.115,HF_wild_card,2022.2.4,Win32,60.13590715,5a102e9dfdf6fc0001279561,64d2fd46c836a06233681665,64dc7d1a2c6c239c09739ab6,,,,,,,decisionTrl,resources/DP.BMP,resources/DR.BMP,WildCard_Ex,-0.437239583,0.014322917,1,0,0,5.6235,optionLeft,5,11775,5,38,0,38,0,1,,,,,,,,,,,,,,,,,,,,,,,,,,,,,,,,,,,,,,,
,,,,,,,,2023-08-16_08h42.29.115,HF_wild_card,2022.2.4,Win32,60.13590715,5a102e9dfdf6fc0001279561,64d2fd46c836a06233681665,64dc7d1a2c6c239c09739ab6,,,,,,,ctch,resources/DR.BMP,resources/DBN.BMP,Door4,-0.284895833,-0.024739583,1,0,0,0.7892,optionLeft,60,11835,5,39,0,39,0,1,,,,,,,,,,,,,,,,,,,,,,,,,,,,,,,,,,,,,,,
,,,,,,,,2023-08-16_08h42.29.115,HF_wild_card,2022.2.4,Win32,60.13590715,5a102e9dfdf6fc0001279561,64d2fd46c836a06233681665,64dc7d1a2c6c239c09739ab6,,,,,,,decisionTrl,resources/DB.BMP,resources/DR.BMP,Door3,-0.3109375,-0.049479167,1,0,0,1.0418,optionLeft,70,11905,5,40,0,40,0,1,,,,,,,,,,,,,,,,,,,,,,,,,,,,,,,,,,,,,,,
,,,,,,,,2023-08-16_08h42.29.115,HF_wild_card,2022.2.4,Win32,60.13590715,5a102e9dfdf6fc0001279561,64d2fd46c836a06233681665,64dc7d1a2c6c239c09739ab6,,,,,,,decisionTrl,resources/DBN.BMP,resources/DY.BMP,Door1,-0.2171875,-0.013020833,1,0,0,1.2215,optionLeft,30,11935,5,41,0,41,0,1,,,,,,,,,,,,,,,,,,,,,,,,,,,,,,,,,,,,,,,
,,,,,,,,2023-08-16_08h42.29.115,HF_wild_card,2022.2.4,Win32,60.13590715,5a102e9dfdf6fc0001279561,64d2fd46c836a06233681665,64dc7d1a2c6c239c09739ab6,,,,,,,decisionTrl,resources/DB.BMP,resources/DR.BMP,Door4,0.366145833,-0.026041667,1,0,0,2.3064,optionRight,60,11995,5,42,0,42,0,1,,,,,,,,,,,,,,,,,,,,,,,,,,,,,,,,,,,,,,,
,,,,,,,,2023-08-16_08h42.29.115,HF_wild_card,2022.2.4,Win32,60.13590715,5a102e9dfdf6fc0001279561,64d2fd46c836a06233681665,64dc7d1a2c6c239c09739ab6,,,,,,,decisionTrl,resources/DP.BMP,resources/DBN.BMP,WildCard_Ex,-0.247135417,-0.010416667,1,0,0,1.2173,optionLeft,95,12090,5,43,0,43,0,1,,,,,,,,,,,,,,,,,,,,,,,,,,,,,,,,,,,,,,,
,,,,,,,,2023-08-16_08h42.29.115,HF_wild_card,2022.2.4,Win32,60.13590715,5a102e9dfdf6fc0001279561,64d2fd46c836a06233681665,64dc7d1a2c6c239c09739ab6,,,,,,,,,,,,,,,,,,,,,,,,,,4,0,4,0,1,,,,,,,,,,,,,,,,,,,,,,,,,,,,,,,,,,
,,,,,,,,2023-08-16_08h42.29.115,HF_wild_card,2022.2.4,Win32,60.13590715,5a102e9dfdf6fc0001279561,64d2fd46c836a06233681665,64dc7d1a2c6c239c09739ab6,,,,,,,sngl,resources/Empty.png,resources/DY.BMP,Door2,0.28671875,-0.041666667,1,0,0,0.6074,optionRight,40,12130,6,0,0,0,0,1,,,,,,,,,,,,,,,,,,,,,,,,,,,,,,,,,,,,,,,
,,,,,,,,2023-08-16_08h42.29.115,HF_wild_card,2022.2.4,Win32,60.13590715,5a102e9dfdf6fc0001279561,64d2fd46c836a06233681665,64dc7d1a2c6c239c09739ab6,,,,,,,decisionTrl,resources/DB.BMP,resources/DR.BMP,Door3,-0.172916667,-0.037760417,1,0,0,0.6218,optionLeft,70,12200,6,1,0,1,0,1,,,,,,,,,,,,,,,,,,,,,,,,,,,,,,,,,,,,,,,
,,,,,,,,2023-08-16_08h42.29.115,HF_wild_card,2022.2.4,Win32,60.13590715,5a102e9dfdf6fc0001279561,64d2fd46c836a06233681665,64dc7d1a2c6c239c09739ab6,,,,,,,decisionTrl,resources/DP.BMP,resources/DB.BMP,Door3,0.256770833,-0.015625,1,0,0,1.1496,optionRight,70,12270,6,2,0,2,0,1,,,,,,,,,,,,,,,,,,,,,,,,,,,,,,,,,,,,,,,
,,,,,,,,2023-08-16_08h42.29.115,HF_wild_card,2022.2.4,Win32,60.13590715,5a102e9dfdf6fc0001279561,64d2fd46c836a06233681665,64dc7d1a2c6c239c09739ab6,,,,,,,decisionTrl,resources/DR.BMP,resources/DP.BMP,Door4,-0.4125,-0.0078125,1,0,0,1.2989,optionLeft,80,12350,6,3,0,3,0,1,,,,,,,,,,,,,,,,,,,,,,,,,,,,,,,,,,,,,,,
,,,,,,,,2023-08-16_08h42.29.115,HF_wild_card,2022.2.4,Win32,60.13590715,5a102e9dfdf6fc0001279561,64d2fd46c836a06233681665,64dc7d1a2c6c239c09739ab6,,,,,,,decisionTrl,resources/DB.BMP,resources/DR.BMP,Door4,0.328385417,-0.009114583,1,0,0,1.2668,optionRight,80,12430,6,4,0,4,0,1,,,,,,,,,,,,,,,,,,,,,,,,,,,,,,,,,,,,,,,
,,,,,,,,2023-08-16_08h42.29.115,HF_wild_card,2022.2.4,Win32,60.13590715,5a102e9dfdf6fc0001279561,64d2fd46c836a06233681665,64dc7d1a2c6c239c09739ab6,,,,,,,sngl,resources/DP.BMP,resources/Empty.png,WildCard_Ex,-0.282291667,0.001302083,1,0,0,0.5571,optionLeft,5,12435,6,5,0,5,0,1,,,,,,,,,,,,,,,,,,,,,,,,,,,,,,,,,,,,,,,
,,,,,,,,2023-08-16_08h42.29.115,HF_wild_card,2022.2.4,Win32,60.13590715,5a102e9dfdf6fc0001279561,64d2fd46c836a06233681665,64dc7d1a2c6c239c09739ab6,,,,,,,sngl,resources/DY.BMP,resources/Empty.png,Door2,-0.29921875,-0.010416667,1,0,0,0.5505,optionLeft,20,12455,6,6,0,6,0,1,,,,,,,,,,,,,,,,,,,,,,,,,,,,,,,,,,,,,,,
,,,,,,,,2023-08-16_08h42.29.115,HF_wild_card,2022.2.4,Win32,60.13590715,5a102e9dfdf6fc0001279561,64d2fd46c836a06233681665,64dc7d1a2c6c239c09739ab6,,,,,,,decisionTrl,resources/DR.BMP,resources/DB.BMP,Door4,-0.317447917,-0.016927083,1,0,0,1.1118,optionLeft,80,12535,6,7,0,7,0,1,,,,,,,,,,,,,,,,,,,,,,,,,,,,,,,,,,,,,,,
,,,,,,,,2023-08-16_08h42.29.115,HF_wild_card,2022.2.4,Win32,60.13590715,5a102e9dfdf6fc0001279561,64d2fd46c836a06233681665,64dc7d1a2c6c239c09739ab6,,,,,,,decisionTrl,resources/DB.BMP,resources/DR.BMP,Door4,0.303645833,-0.02734375,1,0,0,0.9237,optionRight,60,12595,6,8,0,8,0,1,,,,,,,,,,,,,,,,,,,,,,,,,,,,,,,,,,,,,,,
,,,,,,,,2023-08-16_08h42.29.115,HF_wild_card,2022.2.4,Win32,60.13590715,5a102e9dfdf6fc0001279561,64d2fd46c836a06233681665,64dc7d1a2c6c239c09739ab6,,,,,,,sngl,resources/Empty.png,resources/DP.BMP,WildCard_Ex,0.384375,-0.04296875,1,0,0,0.5762,optionRight,95,12690,6,9,0,9,0,1,,,,,,,,,,,,,,,,,,,,,,,,,,,,,,,,,,,,,,,
,,,,,,,,2023-08-16_08h42.29.115,HF_wild_card,2022.2.4,Win32,60.13590715,5a102e9dfdf6fc0001279561,64d2fd46c836a06233681665,64dc7d1a2c6c239c09739ab6,,,,,,,sngl,resources/Empty.png,resources/DP.BMP,WildCard_Ex,0.377864583,-0.03125,1,0,0,0.5495,optionRight,5,12695,6,10,0,10,0,1,,,,,,,,,,,,,,,,,,,,,,,,,,,,,,,,,,,,,,,
,,,,,,,,2023-08-16_08h42.29.115,HF_wild_card,2022.2.4,Win32,60.13590715,5a102e9dfdf6fc0001279561,64d2fd46c836a06233681665,64dc7d1a2c6c239c09739ab6,,,,,,,decisionTrl,resources/DB.BMP,resources/DR.BMP,Door4,0.31796875,-0.04296875,1,0,0,0.9987,optionRight,60,12755,6,11,0,11,0,1,,,,,,,,,,,,,,,,,,,,,,,,,,,,,,,,,,,,,,,
,,,,,,,,2023-08-16_08h42.29.115,HF_wild_card,2022.2.4,Win32,60.13590715,5a102e9dfdf6fc0001279561,64d2fd46c836a06233681665,64dc7d1a2c6c239c09739ab6,,,,,,,sngl,resources/Empty.png,resources/DB.BMP,Door3,0.36484375,-0.0234375,1,0,0,0.5543,optionRight,70,12825,6,12,0,12,0,1,,,,,,,,,,,,,,,,,,,,,,,,,,,,,,,,,,,,,,,
,,,,,,,,2023-08-16_08h42.29.115,HF_wild_card,2022.2.4,Win32,60.13590715,5a102e9dfdf6fc0001279561,64d2fd46c836a06233681665,64dc7d1a2c6c239c09739ab6,,,,,,,ctch,resources/DR.BMP,resources/DBN.BMP,Door4,-0.327864583,-0.018229167,1,0,0,0.666,optionLeft,80,12905,6,13,0,13,0,1,,,,,,,,,,,,,,,,,,,,,,,,,,,,,,,,,,,,,,,
,,,,,,,,2023-08-16_08h42.29.115,HF_wild_card,2022.2.4,Win32,60.13590715,5a102e9dfdf6fc0001279561,64d2fd46c836a06233681665,64dc7d1a2c6c239c09739ab6,,,,,,,ctch,resources/DB.BMP,resources/DY.BMP,Door3,-0.198958333,-0.029947917,1,0,0,0.7561,optionLeft,70,12975,6,14,0,14,0,1,,,,,,,,,,,,,,,,,,,,,,,,,,,,,,,,,,,,,,,
,,,,,,,,2023-08-16_08h42.29.115,HF_wild_card,2022.2.4,Win32,60.13590715,5a102e9dfdf6fc0001279561,64d2fd46c836a06233681665,64dc7d1a2c6c239c09739ab6,,,,,,,sngl,resources/DR.BMP,resources/Empty.png,Door4,-0.270572917,0.002604167,1,0,0,1.1086,optionLeft,60,13035,6,15,0,15,0,1,,,,,,,,,,,,,,,,,,,,,,,,,,,,,,,,,,,,,,,
,,,,,,,,2023-08-16_08h42.29.115,HF_wild_card,2022.2.4,Win32,60.13590715,5a102e9dfdf6fc0001279561,64d2fd46c836a06233681665,64dc7d1a2c6c239c09739ab6,,,,,,,sngl,resources/DBN.BMP,resources/Empty.png,Door1,-0.280989583,0,1,0,0,0.6835,optionLeft,30,13065,6,16,0,16,0,1,,,,,,,,,,,,,,,,,,,,,,,,,,,,,,,,,,,,,,,
,,,,,,,,2023-08-16_08h42.29.115,HF_wild_card,2022.2.4,Win32,60.13590715,5a102e9dfdf6fc0001279561,64d2fd46c836a06233681665,64dc7d1a2c6c239c09739ab6,,,,,,,ctch,resources/DR.BMP,resources/DBN.BMP,Door4,-0.312239583,-0.0078125,1,0,0,0.7765,optionLeft,80,13145,6,17,0,17,0,1,,,,,,,,,,,,,,,,,,,,,,,,,,,,,,,,,,,,,,,
,,,,,,,,2023-08-16_08h42.29.115,HF_wild_card,2022.2.4,Win32,60.13590715,5a102e9dfdf6fc0001279561,64d2fd46c836a06233681665,64dc7d1a2c6c239c09739ab6,,,,,,,sngl,resources/DB.BMP,resources/Empty.png,Door3,-0.43203125,-0.00390625,1,0,0,0.5127,optionLeft,70,13215,6,18,0,18,0,1,,,,,,,,,,,,,,,,,,,,,,,,,,,,,,,,,,,,,,,
,,,,,,,,2023-08-16_08h42.29.115,HF_wild_card,2022.2.4,Win32,60.13590715,5a102e9dfdf6fc0001279561,64d2fd46c836a06233681665,64dc7d1a2c6c239c09739ab6,,,,,,,sngl,resources/DP.BMP,resources/Empty.png,WildCard_Ex,-0.344791667,0.00390625,1,0,0,0.4638,optionLeft,95,13310,6,19,0,19,0,1,,,,,,,,,,,,,,,,,,,,,,,,,,,,,,,,,,,,,,,
,,,,,,,,2023-08-16_08h42.29.115,HF_wild_card,2022.2.4,Win32,60.13590715,5a102e9dfdf6fc0001279561,64d2fd46c836a06233681665,64dc7d1a2c6c239c09739ab6,,,,,,,ctch,resources/DY.BMP,resources/DB.BMP,Door3,0.342708333,-0.03125,1,0,0,0.9381,optionRight,70,13380,6,20,0,20,0,1,,,,,,,,,,,,,,,,,,,,,,,,,,,,,,,,,,,,,,,
,,,,,,,,2023-08-16_08h42.29.115,HF_wild_card,2022.2.4,Win32,60.13590715,5a102e9dfdf6fc0001279561,64d2fd46c836a06233681665,64dc7d1a2c6c239c09739ab6,,,,,,,sngl,resources/Empty.png,resources/DR.BMP,Door4,0.176041667,-0.016927083,1,0,0,0.5129,optionRight,80,13460,6,21,0,21,0,1,,,,,,,,,,,,,,,,,,,,,,,,,,,,,,,,,,,,,,,
,,,,,,,,2023-08-16_08h42.29.115,HF_wild_card,2022.2.4,Win32,60.13590715,5a102e9dfdf6fc0001279561,64d2fd46c836a06233681665,64dc7d1a2c6c239c09739ab6,,,,,,,decisionTrl,resources/DP.BMP,resources/DY.BMP,WildCard_Ex,-0.274479167,-0.048177083,1,0,0,0.8068,optionLeft,5,13465,6,22,0,22,0,1,,,,,,,,,,,,,,,,,,,,,,,,,,,,,,,,,,,,,,,
,,,,,,,,2023-08-16_08h42.29.115,HF_wild_card,2022.2.4,Win32,60.13590715,5a102e9dfdf6fc0001279561,64d2fd46c836a06233681665,64dc7d1a2c6c239c09739ab6,,,,,,,sngl,resources/Empty.png,resources/DBN.BMP,Door1,0.276302083,-0.029947917,1,0,0,0.5014,optionRight,30,13495,6,23,0,23,0,1,,,,,,,,,,,,,,,,,,,,,,,,,,,,,,,,,,,,,,,
,,,,,,,,2023-08-16_08h42.29.115,HF_wild_card,2022.2.4,Win32,60.13590715,5a102e9dfdf6fc0001279561,64d2fd46c836a06233681665,64dc7d1a2c6c239c09739ab6,,,,,,,decisionTrl,resources/DB.BMP,resources/DP.BMP,Door3,-0.366927083,-0.028645833,1,0,0,1.1242,optionLeft,70,13565,6,24,0,24,0,1,,,,,,,,,,,,,,,,,,,,,,,,,,,,,,,,,,,,,,,
,,,,,,,,2023-08-16_08h42.29.115,HF_wild_card,2022.2.4,Win32,60.13590715,5a102e9dfdf6fc0001279561,64d2fd46c836a06233681665,64dc7d1a2c6c239c09739ab6,,,,,,,decisionTrl,resources/DR.BMP,resources/DB.BMP,Door4,-0.253645833,-0.036458333,1,0,0,1.2425,optionLeft,60,13625,6,25,0,25,0,1,,,,,,,,,,,,,,,,,,,,,,,,,,,,,,,,,,,,,,,
,,,,,,,,2023-08-16_08h42.29.115,HF_wild_card,2022.2.4,Win32,60.13590715,5a102e9dfdf6fc0001279561,64d2fd46c836a06233681665,64dc7d1a2c6c239c09739ab6,,,,,,,decisionTrl,resources/DY.BMP,resources/DBN.BMP,Door1,0.272395833,-0.033854167,1,0,0,0.8784,optionRight,30,13655,6,26,0,26,0,1,,,,,,,,,,,,,,,,,,,,,,,,,,,,,,,,,,,,,,,
,,,,,,,,2023-08-16_08h42.29.115,HF_wild_card,2022.2.4,Win32,60.13590715,5a102e9dfdf6fc0001279561,64d2fd46c836a06233681665,64dc7d1a2c6c239c09739ab6,,,,,,,decisionTrl,resources/DBN.BMP,resources/DP.BMP,WildCard_Ex,0.422135417,-0.065104167,1,0,0,0.6455,optionRight,95,13750,6,27,0,27,0,1,,,,,,,,,,,,,,,,,,,,,,,,,,,,,,,,,,,,,,,
,,,,,,,,2023-08-16_08h42.29.115,HF_wild_card,2022.2.4,Win32,60.13590715,5a102e9dfdf6fc0001279561,64d2fd46c836a06233681665,64dc7d1a2c6c239c09739ab6,,,,,,,decisionTrl,resources/DBN.BMP,resources/DY.BMP,Door2,0.449479167,-0.046875,1,0,0,0.842,optionRight,40,13790,6,28,0,28,0,1,,,,,,,,,,,,,,,,,,,,,,,,,,,,,,,,,,,,,,,
,,,,,,,,2023-08-16_08h42.29.115,HF_wild_card,2022.2.4,Win32,60.13590715,5a102e9dfdf6fc0001279561,64d2fd46c836a06233681665,64dc7d1a2c6c239c09739ab6,,,,,,,decisionTrl,resources/DR.BMP,resources/DB.BMP,Door4,-0.258854167,-0.022135417,1,0,0,1.0621,optionLeft,80,13870,6,29,0,29,0,1,,,,,,,,,,,,,,,,,,,,,,,,,,,,,,,,,,,,,,,
,,,,,,,,2023-08-16_08h42.29.115,HF_wild_card,2022.2.4,Win32,60.13590715,5a102e9dfdf6fc0001279561,64d2fd46c836a06233681665,64dc7d1a2c6c239c09739ab6,,,,,,,decisionTrl,resources/DBN.BMP,resources/DY.BMP,Door1,-0.303125,-0.022135417,1,0,0,1.0119,optionLeft,30,13900,6,30,0,30,0,1,,,,,,,,,,,,,,,,,,,,,,,,,,,,,,,,,,,,,,,
,,,,,,,,2023-08-16_08h42.29.115,HF_wild_card,2022.2.4,Win32,60.13590715,5a102e9dfdf6fc0001279561,64d2fd46c836a06233681665,64dc7d1a2c6c239c09739ab6,,,,,,,decisionTrl,resources/DR.BMP,resources/DB.BMP,Door4,-0.317447917,-0.052083333,1,0,0,1.4141,optionLeft,80,13980,6,31,0,31,0,1,,,,,,,,,,,,,,,,,,,,,,,,,,,,,,,,,,,,,,,
,,,,,,,,2023-08-16_08h42.29.115,HF_wild_card,2022.2.4,Win32,60.13590715,5a102e9dfdf6fc0001279561,64d2fd46c836a06233681665,64dc7d1a2c6c239c09739ab6,,,,,,,decisionTrl,resources/DY.BMP,resources/DP.BMP,WildCard_Ex,0.330989583,-0.100260417,1,0,0,1.0605,optionRight,95,14075,6,32,0,32,0,1,,,,,,,,,,,,,,,,,,,,,,,,,,,,,,,,,,,,,,,
,,,,,,,,2023-08-16_08h42.29.115,HF_wild_card,2022.2.4,Win32,60.13590715,5a102e9dfdf6fc0001279561,64d2fd46c836a06233681665,64dc7d1a2c6c239c09739ab6,,,,,,,decisionTrl,resources/DP.BMP,resources/DBN.BMP,WildCard_Ex,-0.409895833,-0.016927083,1,0,0,1.6769,optionLeft,95,14170,6,33,0,33,0,1,,,,,,,,,,,,,,,,,,,,,,,,,,,,,,,,,,,,,,,
,,,,,,,,2023-08-16_08h42.29.115,HF_wild_card,2022.2.4,Win32,60.13590715,5a102e9dfdf6fc0001279561,64d2fd46c836a06233681665,64dc7d1a2c6c239c09739ab6,,,,,,,decisionTrl,resources/DY.BMP,resources/DBN.BMP,Door1,0.332291667,-0.014322917,1,0,0,0.8729,optionRight,30,14200,6,34,0,34,0,1,,,,,,,,,,,,,,,,,,,,,,,,,,,,,,,,,,,,,,,
,,,,,,,,2023-08-16_08h42.29.115,HF_wild_card,2022.2.4,Win32,60.13590715,5a102e9dfdf6fc0001279561,64d2fd46c836a06233681665,64dc7d1a2c6c239c09739ab6,,,,,,,decisionTrl,resources/DY.BMP,resources/DBN.BMP,Door1,0.346614583,-0.0234375,1,0,0,0.781,optionRight,30,14230,6,35,0,35,0,1,,,,,,,,,,,,,,,,,,,,,,,,,,,,,,,,,,,,,,,
,,,,,,,,2023-08-16_08h42.29.115,HF_wild_card,2022.2.4,Win32,60.13590715,5a102e9dfdf6fc0001279561,64d2fd46c836a06233681665,64dc7d1a2c6c239c09739ab6,,,,,,,ctch,resources/DY.BMP,resources/DB.BMP,Door3,0.366145833,-0.022135417,1,0,0,0.7727,optionRight,70,14300,6,36,0,36,0,1,,,,,,,,,,,,,,,,,,,,,,,,,,,,,,,,,,,,,,,
,,,,,,,,2023-08-16_08h42.29.115,HF_wild_card,2022.2.4,Win32,60.13590715,5a102e9dfdf6fc0001279561,64d2fd46c836a06233681665,64dc7d1a2c6c239c09739ab6,,,,,,,ctch,resources/DBN.BMP,resources/DR.BMP,Door4,0.277604167,-0.01171875,1,0,0,0.6264,optionRight,60,14360,6,37,0,37,0,1,,,,,,,,,,,,,,,,,,,,,,,,,,,,,,,,,,,,,,,
,,,,,,,,2023-08-16_08h42.29.115,HF_wild_card,2022.2.4,Win32,60.13590715,5a102e9dfdf6fc0001279561,64d2fd46c836a06233681665,64dc7d1a2c6c239c09739ab6,,,,,,,decisionTrl,resources/DP.BMP,resources/DR.BMP,WildCard_Ex,-0.231510417,-0.016927083,1,0,0,0.9821,optionLeft,95,14455,6,38,0,38,0,1,,,,,,,,,,,,,,,,,,,,,,,,,,,,,,,,,,,,,,,
,,,,,,,,2023-08-16_08h42.29.115,HF_wild_card,2022.2.4,Win32,60.13590715,5a102e9dfdf6fc0001279561,64d2fd46c836a06233681665,64dc7d1a2c6c239c09739ab6,,,,,,,ctch,resources/DBN.BMP,resources/DR.BMP,Door4,0.280208333,-0.009114583,1,0,0,0.6282,optionRight,80,14535,6,39,0,39,0,1,,,,,,,,,,,,,,,,,,,,,,,,,,,,,,,,,,,,,,,
,,,,,,,,2023-08-16_08h42.29.115,HF_wild_card,2022.2.4,Win32,60.13590715,5a102e9dfdf6fc0001279561,64d2fd46c836a06233681665,64dc7d1a2c6c239c09739ab6,,,,,,,decisionTrl,resources/DY.BMP,resources/DBN.BMP,Door1,0.2515625,-0.028645833,1,0,0,0.9651,optionRight,30,14565,6,40,0,40,0,1,,,,,,,,,,,,,,,,,,,,,,,,,,,,,,,,,,,,,,,
,,,,,,,,2023-08-16_08h42.29.115,HF_wild_card,2022.2.4,Win32,60.13590715,5a102e9dfdf6fc0001279561,64d2fd46c836a06233681665,64dc7d1a2c6c239c09739ab6,,,,,,,ctch,resources/DB.BMP,resources/DY.BMP,Door3,-0.20546875,-0.009114583,1,0,0,1.1836,optionLeft,70,14635,6,41,0,41,0,1,,,,,,,,,,,,,,,,,,,,,,,,,,,,,,,,,,,,,,,
,,,,,,,,2023-08-16_08h42.29.115,HF_wild_card,2022.2.4,Win32,60.13590715,5a102e9dfdf6fc0001279561,64d2fd46c836a06233681665,64dc7d1a2c6c239c09739ab6,,,,,,,decisionTrl,resources/DBN.BMP,resources/DY.BMP,Door1,-0.226302083,-0.0078125,1,0,0,1.1822,optionLeft,30,14665,6,42,0,42,0,1,,,,,,,,,,,,,,,,,,,,,,,,,,,,,,,,,,,,,,,
,,,,,,,,2023-08-16_08h42.29.115,HF_wild_card,2022.2.4,Win32,60.13590715,5a102e9dfdf6fc0001279561,64d2fd46c836a06233681665,64dc7d1a2c6c239c09739ab6,,,,,,,decisionTrl,resources/DBN.BMP,resources/DY.BMP,Door1,-0.273177083,-0.01953125,1,0,0,0.6303,optionLeft,30,14695,6,43,0,43,0,1,,,,,,,,,,,,,,,,,,,,,,,,,,,,,,,,,,,,,,,
,,,,,,,,2023-08-16_08h42.29.115,HF_wild_card,2022.2.4,Win32,60.13590715,5a102e9dfdf6fc0001279561,64d2fd46c836a06233681665,64dc7d1a2c6c239c09739ab6,,,,,,,,,,,,,,,,,,,,,,,,,,5,0,5,0,1,,,,,,,,,,,,,,,,,,,,,,,,,,,,,,,,,,
,,,,,,,,2023-08-16_08h42.29.115,HF_wild_card,2022.2.4,Win32,60.13590715,5a102e9dfdf6fc0001279561,64d2fd46c836a06233681665,64dc7d1a2c6c239c09739ab6,,,,,,,decisionTrl,resources/DB.BMP,resources/DR.BMP,Door4,0.452083333,-0.131510417,1,0,0,1.0956,optionRight,60,14755,7,0,0,0,0,1,,,,,,,,,,,,,,,,,,,,,,,,,,,,,,,,,,,,,,,
,,,,,,,,2023-08-16_08h42.29.115,HF_wild_card,2022.2.4,Win32,60.13590715,5a102e9dfdf6fc0001279561,64d2fd46c836a06233681665,64dc7d1a2c6c239c09739ab6,,,,,,,ctch,resources/DR.BMP,resources/DBN.BMP,Door4,-0.308333333,-0.036458333,1,0,0,0.7653,optionLeft,60,14815,7,1,0,1,0,1,,,,,,,,,,,,,,,,,,,,,,,,,,,,,,,,,,,,,,,
,,,,,,,,2023-08-16_08h42.29.115,HF_wild_card,2022.2.4,Win32,60.13590715,5a102e9dfdf6fc0001279561,64d2fd46c836a06233681665,64dc7d1a2c6c239c09739ab6,,,,,,,decisionTrl,resources/DR.BMP,resources/DB.BMP,Door4,-0.210677083,-0.018229167,1,0,0,1.2738,optionLeft,60,14875,7,2,0,2,0,1,,,,,,,,,,,,,,,,,,,,,,,,,,,,,,,,,,,,,,,
,,,,,,,,2023-08-16_08h42.29.115,HF_wild_card,2022.2.4,Win32,60.13590715,5a102e9dfdf6fc0001279561,64d2fd46c836a06233681665,64dc7d1a2c6c239c09739ab6,,,,,,,decisionTrl,resources/DB.BMP,resources/DR.BMP,Door4,0.275,0.001302083,1,0,0,0.846,optionRight,80,14955,7,3,0,3,0,1,,,,,,,,,,,,,,,,,,,,,,,,,,,,,,,,,,,,,,,
,,,,,,,,2023-08-16_08h42.29.115,HF_wild_card,2022.2.4,Win32,60.13590715,5a102e9dfdf6fc0001279561,64d2fd46c836a06233681665,64dc7d1a2c6c239c09739ab6,,,,,,,decisionTrl,resources/DBN.BMP,resources/DY.BMP,Door1,-0.344791667,-0.0234375,1,0,0,1.1266,optionLeft,30,14985,7,4,0,4,0,1,,,,,,,,,,,,,,,,,,,,,,,,,,,,,,,,,,,,,,,
,,,,,,,,2023-08-16_08h42.29.115,HF_wild_card,2022.2.4,Win32,60.13590715,5a102e9dfdf6fc0001279561,64d2fd46c836a06233681665,64dc7d1a2c6c239c09739ab6,,,,,,,ctch,resources/DB.BMP,resources/DY.BMP,Door3,-0.235416667,-0.009114583,1,0,0,0.7661,optionLeft,70,15055,7,5,0,5,0,1,,,,,,,,,,,,,,,,,,,,,,,,,,,,,,,,,,,,,,,
,,,,,,,,2023-08-16_08h42.29.115,HF_wild_card,2022.2.4,Win32,60.13590715,5a102e9dfdf6fc0001279561,64d2fd46c836a06233681665,64dc7d1a2c6c239c09739ab6,,,,,,,decisionTrl,resources/DB.BMP,resources/DR.BMP,Door3,-0.23671875,-0.016927083,1,0,0,1.114,optionLeft,70,15125,7,6,0,6,0,1,,,,,,,,,,,,,,,,,,,,,,,,,,,,,,,,,,,,,,,
,,,,,,,,2023-08-16_08h42.29.115,HF_wild_card,2022.2.4,Win32,60.13590715,5a102e9dfdf6fc0001279561,64d2fd46c836a06233681665,64dc7d1a2c6c239c09739ab6,,,,,,,ctch,resources/DY.BMP,resources/DB.BMP,Door3,0.381770833,0.013020833,1,0,0,1.0035,optionRight,70,15195,7,7,0,7,0,1,,,,,,,,,,,,,,,,,,,,,,,,,,,,,,,,,,,,,,,
,,,,,,,,2023-08-16_08h42.29.115,HF_wild_card,2022.2.4,Win32,60.13590715,5a102e9dfdf6fc0001279561,64d2fd46c836a06233681665,64dc7d1a2c6c239c09739ab6,,,,,,,ctch,resources/DR.BMP,resources/DBN.BMP,Door4,-0.368229167,-0.02734375,1,0,0,1.2144,optionLeft,80,15275,7,8,0,8,0,1,,,,,,,,,,,,,,,,,,,,,,,,,,,,,,,,,,,,,,,
,,,,,,,,2023-08-16_08h42.29.115,HF_wild_card,2022.2.4,Win32,60.13590715,5a102e9dfdf6fc0001279561,64d2fd46c836a06233681665,64dc7d1a2c6c239c09739ab6,,,,,,,ctch,resources/DY.BMP,resources/DB.BMP,Door3,0.268489583,-0.013020833,1,0,0,0.9432,optionRight,70,15345,7,9,0,9,0,1,,,,,,,,,,,,,,,,,,,,,,,,,,,,,,,,,,,,,,,
,,,,,,,,2023-08-16_08h42.29.115,HF_wild_card,2022.2.4,Win32,60.13590715,5a102e9dfdf6fc0001279561,64d2fd46c836a06233681665,64dc7d1a2c6c239c09739ab6,,,,,,,ctch,resources/DBN.BMP,resources/DR.BMP,Door4,0.30625,-0.026041667,1,0,0,0.7797,optionRight,60,15405,7,10,0,10,0,1,,,,,,,,,,,,,,,,,,,,,,,,,,,,,,,,,,,,,,,
,,,,,,,,2023-08-16_08h42.29.115,HF_wild_card,2022.2.4,Win32,60.13590715,5a102e9dfdf6fc0001279561,64d2fd46c836a06233681665,64dc7d1a2c6c239c09739ab6,,,,,,,decisionTrl,resources/DBN.BMP,resources/DY.BMP,Door1,-0.316145833,0.002604167,1,0,0,1.0298,optionLeft,30,15435,7,11,0,11,0,1,,,,,,,,,,,,,,,,,,,,,,,,,,,,,,,,,,,,,,,
,,,,,,,,2023-08-16_08h42.29.115,HF_wild_card,2022.2.4,Win32,60.13590715,5a102e9dfdf6fc0001279561,64d2fd46c836a06233681665,64dc7d1a2c6c239c09739ab6,,,,,,,decisionTrl,resources/DBN.BMP,resources/DY.BMP,Door1,-0.355208333,-0.00390625,1,0,0,1.7815,optionLeft,30,15465,7,12,0,12,0,1,,,,,,,,,,,,,,,,,,,,,,,,,,,,,,,,,,,,,,,
,,,,,,,,2023-08-16_08h42.29.115,HF_wild_card,2022.2.4,Win32,60.13590715,5a102e9dfdf6fc0001279561,64d2fd46c836a06233681665,64dc7d1a2c6c239c09739ab6,,,,,,,decisionTrl,resources/DR.BMP,resources/DB.BMP,Door4,-0.23671875,-0.005208333,1,0,0,1.6482,optionLeft,60,15525,7,13,0,13,0,1,,,,,,,,,,,,,,,,,,,,,,,,,,,,,,,,,,,,,,,
,,,,,,,,2023-08-16_08h42.29.115,HF_wild_card,2022.2.4,Win32,60.13590715,5a102e9dfdf6fc0001279561,64d2fd46c836a06233681665,64dc7d1a2c6c239c09739ab6,,,,,,,decisionTrl,resources/DY.BMP,resources/DBN.BMP,Door1,0.221614583,-0.018229167,1,0,0,1.2358,optionRight,30,15555,7,14,0,14,0,1,,,,,,,,,,,,,,,,,,,,,,,,,,,,,,,,,,,,,,,
,,,,,,,,2023-08-16_08h42.29.115,HF_wild_card,2022.2.4,Win32,60.13590715,5a102e9dfdf6fc0001279561,64d2fd46c836a06233681665,64dc7d1a2c6c239c09739ab6,,,,,,,decisionTrl,resources/DR.BMP,resources/DB.BMP,Door3,0.225520833,-0.005208333,1,0,0,1.1071,optionRight,70,15625,7,15,0,15,0,1,,,,,,,,,,,,,,,,,,,,,,,,,,,,,,,,,,,,,,,
,,,,,,,,2023-08-16_08h42.29.115,HF_wild_card,2022.2.4,Win32,60.13590715,5a102e9dfdf6fc0001279561,64d2fd46c836a06233681665,64dc7d1a2c6c239c09739ab6,,,,,,,ctch,resources/DB.BMP,resources/DY.BMP,Door3,-0.366927083,0.0234375,1,0,0,1.0376,optionLeft,70,15695,7,16,0,16,0,1,,,,,,,,,,,,,,,,,,,,,,,,,,,,,,,,,,,,,,,
,,,,,,,,2023-08-16_08h42.29.115,HF_wild_card,2022.2.4,Win32,60.13590715,5a102e9dfdf6fc0001279561,64d2fd46c836a06233681665,64dc7d1a2c6c239c09739ab6,,,,,,,decisionTrl,resources/DB.BMP,resources/DR.BMP,Door4,0.275,-0.016927083,1,0,0,1.3478,optionRight,80,15775,7,17,0,17,0,1,,,,,,,,,,,,,,,,,,,,,,,,,,,,,,,,,,,,,,,
,,,,,,,,2023-08-16_08h42.29.115,HF_wild_card,2022.2.4,Win32,60.13590715,5a102e9dfdf6fc0001279561,64d2fd46c836a06233681665,64dc7d1a2c6c239c09739ab6,,,,,,,decisionTrl,resources/DY.BMP,resources/DBN.BMP,Door1,0.16953125,-0.018229167,1,0,0,1.0336,optionRight,30,15805,7,18,0,18,0,1,,,,,,,,,,,,,,,,,,,,,,,,,,,,,,,,,,,,,,,
,,,,,,,,2023-08-16_08h42.29.115,HF_wild_card,2022.2.4,Win32,60.13590715,5a102e9dfdf6fc0001279561,64d2fd46c836a06233681665,64dc7d1a2c6c239c09739ab6,,,,,,,decisionTrl,resources/DB.BMP,resources/DR.BMP,Door4,0.252864583,-0.01953125,1,0,0,0.8627,optionRight,60,15865,7,19,0,19,0,1,,,,,,,,,,,,,,,,,,,,,,,,,,,,,,,,,,,,,,,
,,,,,,,,2023-08-16_08h42.29.115,HF_wild_card,2022.2.4,Win32,60.13590715,5a102e9dfdf6fc0001279561,64d2fd46c836a06233681665,64dc7d1a2c6c239c09739ab6,,,,,,,decisionTrl,resources/DBN.BMP,resources/DY.BMP,Door1,-0.24453125,0.002604167,1,0,0,1.03,optionLeft,30,15895,7,20,0,20,0,1,,,,,,,,,,,,,,,,,,,,,,,,,,,,,,,,,,,,,,,
,,,,,,,,2023-08-16_08h42.29.115,HF_wild_card,2022.2.4,Win32,60.13590715,5a102e9dfdf6fc0001279561,64d2fd46c836a06233681665,64dc7d1a2c6c239c09739ab6,,,,,,,decisionTrl,resources/DB.BMP,resources/DR.BMP,Door3,-0.284895833,-0.022135417,1,0,0,0.8189,optionLeft,70,15965,7,21,0,21,0,1,,,,,,,,,,,,,,,,,,,,,,,,,,,,,,,,,,,,,,,
,,,,,,,,2023-08-16_08h42.29.115,HF_wild_card,2022.2.4,Win32,60.13590715,5a102e9dfdf6fc0001279561,64d2fd46c836a06233681665,64dc7d1a2c6c239c09739ab6,,,,,,,ctch,resources/DBN.BMP,resources/DR.BMP,Door4,0.385677083,-0.033854167,1,0,0,0.6343,optionRight,80,16045,7,22,0,22,0,1,,,,,,,,,,,,,,,,,,,,,,,,,,,,,,,,,,,,,,,
,,,,,,,,2023-08-16_08h42.29.115,HF_wild_card,2022.2.4,Win32,60.13590715,5a102e9dfdf6fc0001279561,64d2fd46c836a06233681665,64dc7d1a2c6c239c09739ab6,,,,,,,decisionTrl,resources/DBN.BMP,resources/DY.BMP,Door1,-0.249739583,-0.005208333,1,0,0,0.8718,optionLeft,30,16075,7,23,0,23,0,1,,,,,,,,,,,,,,,,,,,,,,,,,,,,,,,,,,,,,,,
,,,,,,,,2023-08-16_08h42.29.115,HF_wild_card,2022.2.4,Win32,60.13590715,5a102e9dfdf6fc0001279561,64d2fd46c836a06233681665,64dc7d1a2c6c239c09739ab6,,,,,,,decisionTrl,resources/DY.BMP,resources/DBN.BMP,Door1,0.324479167,-0.014322917,1,0,0,1.0156,optionRight,30,16105,7,24,0,24,0,1,,,,,,,,,,,,,,,,,,,,,,,,,,,,,,,,,,,,,,,
,,,,,,,,2023-08-16_08h42.29.115,HF_wild_card,2022.2.4,Win32,60.13590715,5a102e9dfdf6fc0001279561,64d2fd46c836a06233681665,64dc7d1a2c6c239c09739ab6,,,,,,,ctch,resources/DY.BMP,resources/DB.BMP,Door3,0.346614583,0.01171875,1,0,0,0.8589,optionRight,70,16175,7,25,0,25,0,1,,,,,,,,,,,,,,,,,,,,,,,,,,,,,,,,,,,,,,,
,,,,,,,,2023-08-16_08h42.29.115,HF_wild_card,2022.2.4,Win32,60.13590715,5a102e9dfdf6fc0001279561,64d2fd46c836a06233681665,64dc7d1a2c6c239c09739ab6,,,,,,,ctch,resources/DBN.BMP,resources/DR.BMP,Door4,0.291927083,-0.002604167,1,0,0,0.6422,optionRight,80,16255,7,26,0,26,0,1,,,,,,,,,,,,,,,,,,,,,,,,,,,,,,,,,,,,,,,
,,,,,,,,2023-08-16_08h42.29.115,HF_wild_card,2022.2.4,Win32,60.13590715,5a102e9dfdf6fc0001279561,64d2fd46c836a06233681665,64dc7d1a2c6c239c09739ab6,,,,,,,decisionTrl,resources/DR.BMP,resources/DB.BMP,Door3,0.321875,-0.002604167,1,0,0,0.5757,optionRight,70,16325,7,27,0,27,0,1,,,,,,,,,,,,,,,,,,,,,,,,,,,,,,,,,,,,,,,
,,,,,,,,2023-08-16_08h42.29.115,HF_wild_card,2022.2.4,Win32,60.13590715,5a102e9dfdf6fc0001279561,64d2fd46c836a06233681665,64dc7d1a2c6c239c09739ab6,,,,,,,decisionTrl,resources/DY.BMP,resources/DBN.BMP,Door1,0.265885417,0.006510417,1,0,0,1.0977,optionRight,30,16355,7,28,0,28,0,1,,,,,,,,,,,,,,,,,,,,,,,,,,,,,,,,,,,,,,,
,,,,,,,,2023-08-16_08h42.29.115,HF_wild_card,2022.2.4,Win32,60.13590715,5a102e9dfdf6fc0001279561,64d2fd46c836a06233681665,64dc7d1a2c6c239c09739ab6,,,,,,,ctch,resources/DR.BMP,resources/DBN.BMP,Door4,-0.34609375,-0.001302083,1,0,0,0.7483,optionLeft,60,16415,7,29,0,29,0,1,,,,,,,,,,,,,,,,,,,,,,,,,,,,,,,,,,,,,,,
,,,,,,,,2023-08-16_08h42.29.115,HF_wild_card,2022.2.4,Win32,60.13590715,5a102e9dfdf6fc0001279561,64d2fd46c836a06233681665,64dc7d1a2c6c239c09739ab6,,,,,,,decisionTrl,resources/DR.BMP,resources/DB.BMP,Door4,-0.226302083,-0.00390625,1,0,0,0.7992,optionLeft,80,16495,7,30,0,30,0,1,,,,,,,,,,,,,,,,,,,,,,,,,,,,,,,,,,,,,,,
,,,,,,,,2023-08-16_08h42.29.115,HF_wild_card,2022.2.4,Win32,60.13590715,5a102e9dfdf6fc0001279561,64d2fd46c836a06233681665,64dc7d1a2c6c239c09739ab6,,,,,,,decisionTrl,resources/DY.BMP,resources/DBN.BMP,Door1,0.256770833,0.018229167,1,0,0,1.1028,optionRight,30,16525,7,31,0,31,0,1,,,,,,,,,,,,,,,,,,,,,,,,,,,,,,,,,,,,,,,
,,,,,,,,2023-08-16_08h42.29.115,HF_wild_card,2022.2.4,Win32,60.13590715,5a102e9dfdf6fc0001279561,64d2fd46c836a06233681665,64dc7d1a2c6c239c09739ab6,,,,,,,ctch,resources/DB.BMP,resources/DY.BMP,Door3,-0.395572917,-0.005208333,1,0,0,0.8372,optionLeft,70,16595,7,32,0,32,0,1,,,,,,,,,,,,,,,,,,,,,,,,,,,,,,,,,,,,,,,
,,,,,,,,2023-08-16_08h42.29.115,HF_wild_card,2022.2.4,Win32,60.13590715,5a102e9dfdf6fc0001279561,64d2fd46c836a06233681665,64dc7d1a2c6c239c09739ab6,,,,,,,decisionTrl,resources/DR.BMP,resources/DB.BMP,Door3,0.371354167,-0.014322917,1,0,0,0.7623,optionRight,70,16665,7,33,0,33,0,1,,,,,,,,,,,,,,,,,,,,,,,,,,,,,,,,,,,,,,,
,,,,,,,,2023-08-16_08h42.29.115,HF_wild_card,2022.2.4,Win32,60.13590715,5a102e9dfdf6fc0001279561,64d2fd46c836a06233681665,64dc7d1a2c6c239c09739ab6,,,,,,,decisionTrl,resources/DBN.BMP,resources/DY.BMP,Door1,-0.296614583,-0.005208333,1,0,0,1.032,optionLeft,30,16695,7,34,0,34,0,1,,,,,,,,,,,,,,,,,,,,,,,,,,,,,,,,,,,,,,,
,,,,,,,,2023-08-16_08h42.29.115,HF_wild_card,2022.2.4,Win32,60.13590715,5a102e9dfdf6fc0001279561,64d2fd46c836a06233681665,64dc7d1a2c6c239c09739ab6,,,,,,,decisionTrl,resources/DY.BMP,resources/DBN.BMP,Door2,-0.1859375,-0.032552083,1,0,0,0.7966,optionLeft,40,16735,7,35,0,35,0,1,,,,,,,,,,,,,,,,,,,,,,,,,,,,,,,,,,,,,,,
,,,,,,,,2023-08-16_08h42.29.115,HF_wild_card,2022.2.4,Win32,60.13590715,5a102e9dfdf6fc0001279561,64d2fd46c836a06233681665,64dc7d1a2c6c239c09739ab6,,,,,,,,,,,,,,,,,,,,,,,,,,6,0,6,0,1,,,,,,,,,,,,,,,,,,,,,,,,,,,,,,,,,,
,,,,,,,,2023-08-16_08h42.29.115,HF_wild_card,2022.2.4,Win32,60.13590715,5a102e9dfdf6fc0001279561,64d2fd46c836a06233681665,64dc7d1a2c6c239c09739ab6,,,,,,,,,,,,,,,,,,,,,,,,,,,,,,,4,,,,,,,,,,,,,,,,,,,,,,,,,,,,,,,,,
,,,,,,,,2023-08-16_08h42.29.115,HF_wild_card,2022.2.4,Win32,60.13590715,5a102e9dfdf6fc0001279561,64d2fd46c836a06233681665,64dc7d1a2c6c239c09739ab6,,,,,,,,,,,,,,,,,,,,,,,,,,,,,,,,,,,,,,,,,,,,,,,,,,,,,,,,,,,,,,,,
,,,,,,,,2023-08-16_08h42.29.115,HF_wild_card,2022.2.4,Win32,60.13590715,5a102e9dfdf6fc0001279561,64d2fd46c836a06233681665,64dc7d1a2c6c239c09739ab6,,,,,,,,,,,,,,,,,,,,,,,,,,,,,,,,20,Door2,resources/DY.BMP,0,0,0,0,1,,,,,,,,,,,,,,,,,,,,,,,,,
,,,,,,,,2023-08-16_08h42.29.115,HF_wild_card,2022.2.4,Win32,60.13590715,5a102e9dfdf6fc0001279561,64d2fd46c836a06233681665,64dc7d1a2c6c239c09739ab6,,,,,,,,,,,,,,,,,,,,,,,,,,,,,,,,80,Door4,resources/DR.BMP,1,0,1,0,1,,,,,,,,,,,,,,,,,,,,,,,,,
,,,,,,,,2023-08-16_08h42.29.115,HF_wild_card,2022.2.4,Win32,60.13590715,5a102e9dfdf6fc0001279561,64d2fd46c836a06233681665,64dc7d1a2c6c239c09739ab6,,,,,,,,,,,,,,,,,,,,,,,,,,,,,,,,95,WC_extreme,resources/DP.BMP,2,0,2,0,1,,,,,,,,,,,,,,,,,,,,,,,,,
,,,,,,,,2023-08-16_08h42.29.115,HF_wild_card,2022.2.4,Win32,60.13590715,5a102e9dfdf6fc0001279561,64d2fd46c836a06233681665,64dc7d1a2c6c239c09739ab6,,,,,,,,,,,,,,,,,,,,,,,,,,,,,,,,30,Door1,resources/DBN.BMP,3,0,3,0,1,,,,,,,,,,,,,,,,,,,,,,,,,
,,,,,,,,2023-08-16_08h42.29.115,HF_wild_card,2022.2.4,Win32,60.13590715,5a102e9dfdf6fc0001279561,64d2fd46c836a06233681665,64dc7d1a2c6c239c09739ab6,,,,,,,,,,,,,,,,,,,,,,,,,,,,,,,,70,Door3,resources/DB.BMP,4,0,4,0,1,,,,,,,,,,,,,,,,,,,,,,,,,
,,,,,,,,2023-08-16_08h42.29.115,HF_wild_card,2022.2.4,Win32,60.13590715,5a102e9dfdf6fc0001279561,64d2fd46c836a06233681665,64dc7d1a2c6c239c09739ab6,,,,,,,,,,,,,,,,,,,,,,,,,,,,,,,,40,WC_nonExtreme,resources/DG.BMP,5,0,5,0,1,,,,,,,,,,,,,,,,,,,,,,,,,
,,,,,,,,2023-08-16_08h42.29.115,HF_wild_card,2022.2.4,Win32,60.13590715,5a102e9dfdf6fc0001279561,64d2fd46c836a06233681665,64dc7d1a2c6c239c09739ab6,,,,,,,,,,,,,,,,,,,,,,,,,,,,,,,,,,,,,,,,,,,,,,,,,,,,,,,,,,,,,,,,
,,,,,,,,2023-08-16_08h42.29.115,HF_wild_card,2022.2.4,Win32,60.13590715,5a102e9dfdf6fc0001279561,64d2fd46c836a06233681665,64dc7d1a2c6c239c09739ab6,,,,,,,,,,,,,,,,,,,,,,,,,,,,,,,,,,,,,,,,0,0,0,0,1,,,,,,,,,,,,,,,,,,,,
