Condition,Low fixed image (Door1),Low risky image (Door2),High fixed image (Door3),High risky image (Door4),Extreme Wild Card,NonExtreme Wild Card,,date,expName,psychopyVersion,OS,frameRate,PROLIFIC_PID,STUDY_ID,SESSION_ID,mouse_2.x,mouse_2.y,mouse_2.leftButton,mouse_2.midButton,mouse_2.rightButton,mouse_2.clicked_name,Trial Type,Left Option Image,Right Option Image,Chosen Door,mouse.x,mouse.y,mouse.leftButton,mouse.midButton,mouse.rightButton,mouse.time,mouse.clicked_name,Feedback,Cumulative Reward,Block,trial.thisRepN,trial.thisTrialN,trial.thisN,trial.thisIndex,trial.ran,blocks.thisRepN,blocks.thisTrialN,blocks.thisN,blocks.thisIndex,blocks.ran,Money conversion,First Outcome Reported,Shown Door (First Outcome),Displayed Image (First Outcome),outcomes.thisRepN,outcomes.thisTrialN,outcomes.thisN,outcomes.thisIndex,outcomes.ran,judgments.thisRepN,judgments.thisTrialN,judgments.thisN,judgments.thisIndex,judgments.ran,freqMouse.x,freqMouse.y,freqMouse.leftButton,freqMouse.midButton,freqMouse.rightButton,freqMouse.clicked_name,FQJ for first outcome,FQJ for second outcome,Shown Door,Displayed Image,trials.thisRepN,trials.thisTrialN,trials.thisN,trials.thisIndex,trials.ran,judgBlock.thisRepN,judgBlock.thisTrialN,judgBlock.thisN,judgBlock.thisIndex,judgBlock.ran
0,resources/DY.BMP,resources/DR.BMP,resources/DP.BMP,resources/DB.BMP,resources/DBN.BMP,resources/DG.BMP,,2023-08-16_08h35.30.220,HF_wild_card,2022.2.4,Win32,235.0728726,614d9188dc315950026a6102,64d2fd46c836a06233681665,64dc7c3ba2ce67ee1b033467,,,,,,,,,,,,,,,,,,,,,,,,,,,,,,,,,,,,,,,,,,,,,,,,,,,,,,,,,,,,,,,,
,,,,,,,,2023-08-16_08h35.30.220,HF_wild_card,2022.2.4,Win32,235.0728726,614d9188dc315950026a6102,64d2fd46c836a06233681665,64dc7c3ba2ce67ee1b033467,0.0125,-0.409722222,1,0,0,agree,,,,,,,,,,,,,,,,,,,,,,,,,,,,,,,,,,,,,,,,,,,,,,,,,,,,,,,,,,
,,,,,,,,2023-08-16_08h35.30.220,HF_wild_card,2022.2.4,Win32,235.0728726,614d9188dc315950026a6102,64d2fd46c836a06233681665,64dc7c3ba2ce67ee1b033467,,,,,,,,,,,,,,,,,,,,,,,,,,,,,,,,,,,,,,,,,,,,,,,,,,,,,,,,,,,,,,,,
,,,,,,,,2023-08-16_08h35.30.220,HF_wild_card,2022.2.4,Win32,235.0728726,614d9188dc315950026a6102,64d2fd46c836a06233681665,64dc7c3ba2ce67ee1b033467,,,,,,,ctch,resources/DP.BMP,resources/DR.BMP,Door3,-0.377083333,-0.070833333,1,0,0,4.3491,optionLeft,70,70,1,0,0,0,0,1,,,,,,,,,,,,,,,,,,,,,,,,,,,,,,,,,,,,,,,
,,,,,,,,2023-08-16_08h35.30.220,HF_wild_card,2022.2.4,Win32,235.0728726,614d9188dc315950026a6102,64d2fd46c836a06233681665,64dc7c3ba2ce67ee1b033467,,,,,,,decisionTrl,resources/DR.BMP,resources/DY.BMP,Door2,-0.343055556,0.076388889,1,0,0,1.9466,optionLeft,40,110,1,1,0,1,0,1,,,,,,,,,,,,,,,,,,,,,,,,,,,,,,,,,,,,,,,
,,,,,,,,2023-08-16_08h35.30.220,HF_wild_card,2022.2.4,Win32,235.0728726,614d9188dc315950026a6102,64d2fd46c836a06233681665,64dc7c3ba2ce67ee1b033467,,,,,,,sngl,resources/DP.BMP,resources/Empty.png,Door3,-0.35,0.030555556,1,0,0,0.7354,optionLeft,70,180,1,2,0,2,0,1,,,,,,,,,,,,,,,,,,,,,,,,,,,,,,,,,,,,,,,
,,,,,,,,2023-08-16_08h35.30.220,HF_wild_card,2022.2.4,Win32,235.0728726,614d9188dc315950026a6102,64d2fd46c836a06233681665,64dc7c3ba2ce67ee1b033467,,,,,,,decisionTrl,resources/DY.BMP,resources/DR.BMP,Door1,-0.424305556,0.027777778,1,0,0,0.6945,optionLeft,30,210,1,3,0,3,0,1,,,,,,,,,,,,,,,,,,,,,,,,,,,,,,,,,,,,,,,
,,,,,,,,2023-08-16_08h35.30.220,HF_wild_card,2022.2.4,Win32,235.0728726,614d9188dc315950026a6102,64d2fd46c836a06233681665,64dc7c3ba2ce67ee1b033467,,,,,,,decisionTrl,resources/DP.BMP,resources/DB.BMP,Door4,0.288194444,-0.0375,1,0,0,0.9005,optionRight,60,270,1,4,0,4,0,1,,,,,,,,,,,,,,,,,,,,,,,,,,,,,,,,,,,,,,,
,,,,,,,,2023-08-16_08h35.30.220,HF_wild_card,2022.2.4,Win32,235.0728726,614d9188dc315950026a6102,64d2fd46c836a06233681665,64dc7c3ba2ce67ee1b033467,,,,,,,decisionTrl,resources/DB.BMP,resources/DP.BMP,Door3,0.295138889,-0.036805556,1,0,0,0.7071,optionRight,70,340,1,5,0,5,0,1,,,,,,,,,,,,,,,,,,,,,,,,,,,,,,,,,,,,,,,
,,,,,,,,2023-08-16_08h35.30.220,HF_wild_card,2022.2.4,Win32,235.0728726,614d9188dc315950026a6102,64d2fd46c836a06233681665,64dc7c3ba2ce67ee1b033467,,,,,,,decisionTrl,resources/DBN.BMP,resources/DB.BMP,WildCard_Ex,-0.203472222,0.029166667,1,0,0,0.7941,optionLeft,5,345,1,6,0,6,0,1,,,,,,,,,,,,,,,,,,,,,,,,,,,,,,,,,,,,,,,
,,,,,,,,2023-08-16_08h35.30.220,HF_wild_card,2022.2.4,Win32,235.0728726,614d9188dc315950026a6102,64d2fd46c836a06233681665,64dc7c3ba2ce67ee1b033467,,,,,,,decisionTrl,resources/DB.BMP,resources/DP.BMP,Door3,0.291666667,-0.019444444,1,0,0,0.5362,optionRight,70,415,1,7,0,7,0,1,,,,,,,,,,,,,,,,,,,,,,,,,,,,,,,,,,,,,,,
,,,,,,,,2023-08-16_08h35.30.220,HF_wild_card,2022.2.4,Win32,235.0728726,614d9188dc315950026a6102,64d2fd46c836a06233681665,64dc7c3ba2ce67ee1b033467,,,,,,,decisionTrl,resources/DB.BMP,resources/DP.BMP,Door3,0.282638889,-0.011805556,1,0,0,0.8491,optionRight,70,485,1,8,0,8,0,1,,,,,,,,,,,,,,,,,,,,,,,,,,,,,,,,,,,,,,,
,,,,,,,,2023-08-16_08h35.30.220,HF_wild_card,2022.2.4,Win32,235.0728726,614d9188dc315950026a6102,64d2fd46c836a06233681665,64dc7c3ba2ce67ee1b033467,,,,,,,decisionTrl,resources/DBN.BMP,resources/DP.BMP,Door3,0.198611111,-0.010416667,1,0,0,0.895,optionRight,70,555,1,9,0,9,0,1,,,,,,,,,,,,,,,,,,,,,,,,,,,,,,,,,,,,,,,
,,,,,,,,2023-08-16_08h35.30.220,HF_wild_card,2022.2.4,Win32,235.0728726,614d9188dc315950026a6102,64d2fd46c836a06233681665,64dc7c3ba2ce67ee1b033467,,,,,,,sngl,resources/DY.BMP,resources/Empty.png,Door1,-0.227083333,0.013888889,1,0,0,1.9201,optionLeft,30,585,1,10,0,10,0,1,,,,,,,,,,,,,,,,,,,,,,,,,,,,,,,,,,,,,,,
,,,,,,,,2023-08-16_08h35.30.220,HF_wild_card,2022.2.4,Win32,235.0728726,614d9188dc315950026a6102,64d2fd46c836a06233681665,64dc7c3ba2ce67ee1b033467,,,,,,,decisionTrl,resources/DP.BMP,resources/DBN.BMP,Door3,-0.344444444,0.01875,1,0,0,0.7699,optionLeft,70,655,1,11,0,11,0,1,,,,,,,,,,,,,,,,,,,,,,,,,,,,,,,,,,,,,,,
,,,,,,,,2023-08-16_08h35.30.220,HF_wild_card,2022.2.4,Win32,235.0728726,614d9188dc315950026a6102,64d2fd46c836a06233681665,64dc7c3ba2ce67ee1b033467,,,,,,,ctch,resources/DY.BMP,resources/DB.BMP,Door4,0.273611111,0.040277778,1,0,0,0.9613,optionRight,60,715,1,12,0,12,0,1,,,,,,,,,,,,,,,,,,,,,,,,,,,,,,,,,,,,,,,
,,,,,,,,2023-08-16_08h35.30.220,HF_wild_card,2022.2.4,Win32,235.0728726,614d9188dc315950026a6102,64d2fd46c836a06233681665,64dc7c3ba2ce67ee1b033467,,,,,,,sngl,resources/Empty.png,resources/DP.BMP,Door3,0.236805556,0.041666667,1,0,0,0.4323,optionRight,70,785,1,13,0,13,0,1,,,,,,,,,,,,,,,,,,,,,,,,,,,,,,,,,,,,,,,
,,,,,,,,2023-08-16_08h35.30.220,HF_wild_card,2022.2.4,Win32,235.0728726,614d9188dc315950026a6102,64d2fd46c836a06233681665,64dc7c3ba2ce67ee1b033467,,,,,,,sngl,resources/DR.BMP,resources/Empty.png,Door2,-0.210416667,0.022916667,1,0,0,1.1407,optionLeft,40,825,1,14,0,14,0,1,,,,,,,,,,,,,,,,,,,,,,,,,,,,,,,,,,,,,,,
,,,,,,,,2023-08-16_08h35.30.220,HF_wild_card,2022.2.4,Win32,235.0728726,614d9188dc315950026a6102,64d2fd46c836a06233681665,64dc7c3ba2ce67ee1b033467,,,,,,,sngl,resources/DB.BMP,resources/Empty.png,Door4,-0.275694444,0.032638889,1,0,0,0.6655,optionLeft,80,905,1,15,0,15,0,1,,,,,,,,,,,,,,,,,,,,,,,,,,,,,,,,,,,,,,,
,,,,,,,,2023-08-16_08h35.30.220,HF_wild_card,2022.2.4,Win32,235.0728726,614d9188dc315950026a6102,64d2fd46c836a06233681665,64dc7c3ba2ce67ee1b033467,,,,,,,ctch,resources/DY.BMP,resources/DB.BMP,Door4,0.225,-0.015972222,1,0,0,0.878,optionRight,80,985,1,16,0,16,0,1,,,,,,,,,,,,,,,,,,,,,,,,,,,,,,,,,,,,,,,
,,,,,,,,2023-08-16_08h35.30.220,HF_wild_card,2022.2.4,Win32,235.0728726,614d9188dc315950026a6102,64d2fd46c836a06233681665,64dc7c3ba2ce67ee1b033467,,,,,,,decisionTrl,resources/DY.BMP,resources/DR.BMP,Door2,0.425,-0.054861111,1,0,0,1.2991,optionRight,20,1005,1,17,0,17,0,1,,,,,,,,,,,,,,,,,,,,,,,,,,,,,,,,,,,,,,,
,,,,,,,,2023-08-16_08h35.30.220,HF_wild_card,2022.2.4,Win32,235.0728726,614d9188dc315950026a6102,64d2fd46c836a06233681665,64dc7c3ba2ce67ee1b033467,,,,,,,sngl,resources/Empty.png,resources/DBN.BMP,WildCard_Ex,0.209722222,-0.0375,1,0,0,0.7533,optionRight,95,1100,1,18,0,18,0,1,,,,,,,,,,,,,,,,,,,,,,,,,,,,,,,,,,,,,,,
,,,,,,,,2023-08-16_08h35.30.220,HF_wild_card,2022.2.4,Win32,235.0728726,614d9188dc315950026a6102,64d2fd46c836a06233681665,64dc7c3ba2ce67ee1b033467,,,,,,,sngl,resources/Empty.png,resources/DY.BMP,Door1,0.230555556,-0.022916667,1,0,0,2.4243,optionRight,30,1130,1,19,0,19,0,1,,,,,,,,,,,,,,,,,,,,,,,,,,,,,,,,,,,,,,,
,,,,,,,,2023-08-16_08h35.30.220,HF_wild_card,2022.2.4,Win32,235.0728726,614d9188dc315950026a6102,64d2fd46c836a06233681665,64dc7c3ba2ce67ee1b033467,,,,,,,ctch,resources/DB.BMP,resources/DY.BMP,Door4,-0.372916667,0.032638889,1,0,0,0.8782,optionLeft,60,1190,1,20,0,20,0,1,,,,,,,,,,,,,,,,,,,,,,,,,,,,,,,,,,,,,,,
,,,,,,,,2023-08-16_08h35.30.220,HF_wild_card,2022.2.4,Win32,235.0728726,614d9188dc315950026a6102,64d2fd46c836a06233681665,64dc7c3ba2ce67ee1b033467,,,,,,,ctch,resources/DP.BMP,resources/DR.BMP,Door3,-0.305555556,0.054861111,1,0,0,1.0405,optionLeft,70,1260,1,21,0,21,0,1,,,,,,,,,,,,,,,,,,,,,,,,,,,,,,,,,,,,,,,
,,,,,,,,2023-08-16_08h35.30.220,HF_wild_card,2022.2.4,Win32,235.0728726,614d9188dc315950026a6102,64d2fd46c836a06233681665,64dc7c3ba2ce67ee1b033467,,,,,,,decisionTrl,resources/DBN.BMP,resources/DY.BMP,WildCard_Ex,-0.302083333,0.04375,1,0,0,2.4995,optionLeft,5,1265,1,22,0,22,0,1,,,,,,,,,,,,,,,,,,,,,,,,,,,,,,,,,,,,,,,
,,,,,,,,2023-08-16_08h35.30.220,HF_wild_card,2022.2.4,Win32,235.0728726,614d9188dc315950026a6102,64d2fd46c836a06233681665,64dc7c3ba2ce67ee1b033467,,,,,,,decisionTrl,resources/DR.BMP,resources/DY.BMP,Door2,-0.320138889,0.017361111,1,0,0,1.003,optionLeft,20,1285,1,23,0,23,0,1,,,,,,,,,,,,,,,,,,,,,,,,,,,,,,,,,,,,,,,
,,,,,,,,2023-08-16_08h35.30.220,HF_wild_card,2022.2.4,Win32,235.0728726,614d9188dc315950026a6102,64d2fd46c836a06233681665,64dc7c3ba2ce67ee1b033467,,,,,,,decisionTrl,resources/DY.BMP,resources/DR.BMP,Door2,0.377083333,-0.046527778,1,0,0,1.399,optionRight,40,1325,1,24,0,24,0,1,,,,,,,,,,,,,,,,,,,,,,,,,,,,,,,,,,,,,,,
,,,,,,,,2023-08-16_08h35.30.220,HF_wild_card,2022.2.4,Win32,235.0728726,614d9188dc315950026a6102,64d2fd46c836a06233681665,64dc7c3ba2ce67ee1b033467,,,,,,,ctch,resources/DB.BMP,resources/DY.BMP,Door4,-0.297916667,0.034722222,1,0,0,1.0945,optionLeft,60,1385,1,25,0,25,0,1,,,,,,,,,,,,,,,,,,,,,,,,,,,,,,,,,,,,,,,
,,,,,,,,2023-08-16_08h35.30.220,HF_wild_card,2022.2.4,Win32,235.0728726,614d9188dc315950026a6102,64d2fd46c836a06233681665,64dc7c3ba2ce67ee1b033467,,,,,,,decisionTrl,resources/DB.BMP,resources/DBN.BMP,WildCard_Ex,0.434722222,-0.015972222,1,0,0,0.4448,optionRight,5,1390,1,26,0,26,0,1,,,,,,,,,,,,,,,,,,,,,,,,,,,,,,,,,,,,,,,
,,,,,,,,2023-08-16_08h35.30.220,HF_wild_card,2022.2.4,Win32,235.0728726,614d9188dc315950026a6102,64d2fd46c836a06233681665,64dc7c3ba2ce67ee1b033467,,,,,,,decisionTrl,resources/DP.BMP,resources/DB.BMP,Door3,-0.368055556,0.023611111,1,0,0,0.8116,optionLeft,70,1460,1,27,0,27,0,1,,,,,,,,,,,,,,,,,,,,,,,,,,,,,,,,,,,,,,,
,,,,,,,,2023-08-16_08h35.30.220,HF_wild_card,2022.2.4,Win32,235.0728726,614d9188dc315950026a6102,64d2fd46c836a06233681665,64dc7c3ba2ce67ee1b033467,,,,,,,sngl,resources/DBN.BMP,resources/Empty.png,WildCard_Ex,-0.281944444,0.027777778,1,0,0,0.6863,optionLeft,5,1465,1,28,0,28,0,1,,,,,,,,,,,,,,,,,,,,,,,,,,,,,,,,,,,,,,,
,,,,,,,,2023-08-16_08h35.30.220,HF_wild_card,2022.2.4,Win32,235.0728726,614d9188dc315950026a6102,64d2fd46c836a06233681665,64dc7c3ba2ce67ee1b033467,,,,,,,decisionTrl,resources/DR.BMP,resources/DY.BMP,Door2,-0.234722222,0.024305556,1,0,0,1.0365,optionLeft,20,1485,1,29,0,29,0,1,,,,,,,,,,,,,,,,,,,,,,,,,,,,,,,,,,,,,,,
,,,,,,,,2023-08-16_08h35.30.220,HF_wild_card,2022.2.4,Win32,235.0728726,614d9188dc315950026a6102,64d2fd46c836a06233681665,64dc7c3ba2ce67ee1b033467,,,,,,,decisionTrl,resources/DR.BMP,resources/DY.BMP,Door2,-0.302777778,0.047222222,1,0,0,1.2451,optionLeft,20,1505,1,30,0,30,0,1,,,,,,,,,,,,,,,,,,,,,,,,,,,,,,,,,,,,,,,
,,,,,,,,2023-08-16_08h35.30.220,HF_wild_card,2022.2.4,Win32,235.0728726,614d9188dc315950026a6102,64d2fd46c836a06233681665,64dc7c3ba2ce67ee1b033467,,,,,,,decisionTrl,resources/DP.BMP,resources/DB.BMP,Door3,-0.204861111,0.027777778,1,0,0,1.3784,optionLeft,70,1575,1,31,0,31,0,1,,,,,,,,,,,,,,,,,,,,,,,,,,,,,,,,,,,,,,,
,,,,,,,,2023-08-16_08h35.30.220,HF_wild_card,2022.2.4,Win32,235.0728726,614d9188dc315950026a6102,64d2fd46c836a06233681665,64dc7c3ba2ce67ee1b033467,,,,,,,decisionTrl,resources/DY.BMP,resources/DR.BMP,Door2,0.340972222,-0.009027778,1,0,0,1.1446,optionRight,20,1595,1,32,0,32,0,1,,,,,,,,,,,,,,,,,,,,,,,,,,,,,,,,,,,,,,,
,,,,,,,,2023-08-16_08h35.30.220,HF_wild_card,2022.2.4,Win32,235.0728726,614d9188dc315950026a6102,64d2fd46c836a06233681665,64dc7c3ba2ce67ee1b033467,,,,,,,decisionTrl,resources/DB.BMP,resources/DP.BMP,Door3,0.292361111,-0.03125,1,0,0,1.0073,optionRight,70,1665,1,33,0,33,0,1,,,,,,,,,,,,,,,,,,,,,,,,,,,,,,,,,,,,,,,
,,,,,,,,2023-08-16_08h35.30.220,HF_wild_card,2022.2.4,Win32,235.0728726,614d9188dc315950026a6102,64d2fd46c836a06233681665,64dc7c3ba2ce67ee1b033467,,,,,,,decisionTrl,resources/DY.BMP,resources/DBN.BMP,WildCard_Ex,0.202777778,-0.047916667,1,0,0,1.445,optionRight,5,1670,1,34,0,34,0,1,,,,,,,,,,,,,,,,,,,,,,,,,,,,,,,,,,,,,,,
,,,,,,,,2023-08-16_08h35.30.220,HF_wild_card,2022.2.4,Win32,235.0728726,614d9188dc315950026a6102,64d2fd46c836a06233681665,64dc7c3ba2ce67ee1b033467,,,,,,,decisionTrl,resources/DBN.BMP,resources/DR.BMP,Door2,0.234027778,-0.041666667,1,0,0,1.3074,optionRight,40,1710,1,35,0,35,0,1,,,,,,,,,,,,,,,,,,,,,,,,,,,,,,,,,,,,,,,
,,,,,,,,2023-08-16_08h35.30.220,HF_wild_card,2022.2.4,Win32,235.0728726,614d9188dc315950026a6102,64d2fd46c836a06233681665,64dc7c3ba2ce67ee1b033467,,,,,,,ctch,resources/DR.BMP,resources/DP.BMP,Door3,0.304861111,-0.0125,1,0,0,0.6655,optionRight,70,1780,1,36,0,36,0,1,,,,,,,,,,,,,,,,,,,,,,,,,,,,,,,,,,,,,,,
,,,,,,,,2023-08-16_08h35.30.220,HF_wild_card,2022.2.4,Win32,235.0728726,614d9188dc315950026a6102,64d2fd46c836a06233681665,64dc7c3ba2ce67ee1b033467,,,,,,,sngl,resources/Empty.png,resources/DBN.BMP,WildCard_Ex,0.1875,-0.020833333,1,0,0,0.8364,optionRight,5,1785,1,37,0,37,0,1,,,,,,,,,,,,,,,,,,,,,,,,,,,,,,,,,,,,,,,
,,,,,,,,2023-08-16_08h35.30.220,HF_wild_card,2022.2.4,Win32,235.0728726,614d9188dc315950026a6102,64d2fd46c836a06233681665,64dc7c3ba2ce67ee1b033467,,,,,,,sngl,resources/DBN.BMP,resources/Empty.png,WildCard_Ex,-0.422222222,0.034027778,1,0,0,0.7072,optionLeft,95,1880,1,38,0,38,0,1,,,,,,,,,,,,,,,,,,,,,,,,,,,,,,,,,,,,,,,
,,,,,,,,2023-08-16_08h35.30.220,HF_wild_card,2022.2.4,Win32,235.0728726,614d9188dc315950026a6102,64d2fd46c836a06233681665,64dc7c3ba2ce67ee1b033467,,,,,,,sngl,resources/Empty.png,resources/DR.BMP,Door2,0.24375,-0.020833333,1,0,0,1.0489,optionRight,20,1900,1,39,0,39,0,1,,,,,,,,,,,,,,,,,,,,,,,,,,,,,,,,,,,,,,,
,,,,,,,,2023-08-16_08h35.30.220,HF_wild_card,2022.2.4,Win32,235.0728726,614d9188dc315950026a6102,64d2fd46c836a06233681665,64dc7c3ba2ce67ee1b033467,,,,,,,sngl,resources/Empty.png,resources/DB.BMP,Door4,0.206944444,-0.003472222,1,0,0,0.6488,optionRight,60,1960,1,40,0,40,0,1,,,,,,,,,,,,,,,,,,,,,,,,,,,,,,,,,,,,,,,
,,,,,,,,2023-08-16_08h35.30.220,HF_wild_card,2022.2.4,Win32,235.0728726,614d9188dc315950026a6102,64d2fd46c836a06233681665,64dc7c3ba2ce67ee1b033467,,,,,,,decisionTrl,resources/DR.BMP,resources/DBN.BMP,Door2,-0.197916667,0.013888889,1,0,0,3.2748,optionLeft,40,2000,1,41,0,41,0,1,,,,,,,,,,,,,,,,,,,,,,,,,,,,,,,,,,,,,,,
,,,,,,,,2023-08-16_08h35.30.220,HF_wild_card,2022.2.4,Win32,235.0728726,614d9188dc315950026a6102,64d2fd46c836a06233681665,64dc7c3ba2ce67ee1b033467,,,,,,,decisionTrl,resources/DP.BMP,resources/DB.BMP,Door3,-0.35625,0.032638889,1,0,0,0.8864,optionLeft,70,2070,1,42,0,42,0,1,,,,,,,,,,,,,,,,,,,,,,,,,,,,,,,,,,,,,,,
,,,,,,,,2023-08-16_08h35.30.220,HF_wild_card,2022.2.4,Win32,235.0728726,614d9188dc315950026a6102,64d2fd46c836a06233681665,64dc7c3ba2ce67ee1b033467,,,,,,,ctch,resources/DR.BMP,resources/DP.BMP,Door3,0.38125,-0.049305556,1,0,0,0.5863,optionRight,70,2140,1,43,0,43,0,1,,,,,,,,,,,,,,,,,,,,,,,,,,,,,,,,,,,,,,,
,,,,,,,,2023-08-16_08h35.30.220,HF_wild_card,2022.2.4,Win32,235.0728726,614d9188dc315950026a6102,64d2fd46c836a06233681665,64dc7c3ba2ce67ee1b033467,,,,,,,,,,,,,,,,,,,,,,,,,,0,0,0,0,1,,,,,,,,,,,,,,,,,,,,,,,,,,,,,,,,,,
,,,,,,,,2023-08-16_08h35.30.220,HF_wild_card,2022.2.4,Win32,235.0728726,614d9188dc315950026a6102,64d2fd46c836a06233681665,64dc7c3ba2ce67ee1b033467,,,,,,,decisionTrl,resources/DR.BMP,resources/DY.BMP,Door2,-0.286805556,-0.067361111,1,0,0,2.821,optionLeft,20,2160,2,0,0,0,0,1,,,,,,,,,,,,,,,,,,,,,,,,,,,,,,,,,,,,,,,
,,,,,,,,2023-08-16_08h35.30.220,HF_wild_card,2022.2.4,Win32,235.0728726,614d9188dc315950026a6102,64d2fd46c836a06233681665,64dc7c3ba2ce67ee1b033467,,,,,,,ctch,resources/DR.BMP,resources/DP.BMP,Door3,0.381944444,-0.013194444,1,0,0,0.6322,optionRight,70,2230,2,1,0,1,0,1,,,,,,,,,,,,,,,,,,,,,,,,,,,,,,,,,,,,,,,
,,,,,,,,2023-08-16_08h35.30.220,HF_wild_card,2022.2.4,Win32,235.0728726,614d9188dc315950026a6102,64d2fd46c836a06233681665,64dc7c3ba2ce67ee1b033467,,,,,,,ctch,resources/DB.BMP,resources/DY.BMP,Door4,-0.309722222,-0.01875,1,0,0,0.6364,optionLeft,60,2290,2,2,0,2,0,1,,,,,,,,,,,,,,,,,,,,,,,,,,,,,,,,,,,,,,,
,,,,,,,,2023-08-16_08h35.30.220,HF_wild_card,2022.2.4,Win32,235.0728726,614d9188dc315950026a6102,64d2fd46c836a06233681665,64dc7c3ba2ce67ee1b033467,,,,,,,decisionTrl,resources/DP.BMP,resources/DB.BMP,Door3,-0.250694444,0.008333333,1,0,0,0.7158,optionLeft,70,2360,2,3,0,3,0,1,,,,,,,,,,,,,,,,,,,,,,,,,,,,,,,,,,,,,,,
,,,,,,,,2023-08-16_08h35.30.220,HF_wild_card,2022.2.4,Win32,235.0728726,614d9188dc315950026a6102,64d2fd46c836a06233681665,64dc7c3ba2ce67ee1b033467,,,,,,,decisionTrl,resources/DB.BMP,resources/DP.BMP,Door3,0.385416667,-0.035416667,1,0,0,0.5117,optionRight,70,2430,2,4,0,4,0,1,,,,,,,,,,,,,,,,,,,,,,,,,,,,,,,,,,,,,,,
,,,,,,,,2023-08-16_08h35.30.220,HF_wild_card,2022.2.4,Win32,235.0728726,614d9188dc315950026a6102,64d2fd46c836a06233681665,64dc7c3ba2ce67ee1b033467,,,,,,,ctch,resources/DB.BMP,resources/DY.BMP,Door4,-0.217361111,0.020833333,1,0,0,1.1782,optionLeft,60,2490,2,5,0,5,0,1,,,,,,,,,,,,,,,,,,,,,,,,,,,,,,,,,,,,,,,
,,,,,,,,2023-08-16_08h35.30.220,HF_wild_card,2022.2.4,Win32,235.0728726,614d9188dc315950026a6102,64d2fd46c836a06233681665,64dc7c3ba2ce67ee1b033467,,,,,,,decisionTrl,resources/DBN.BMP,resources/DB.BMP,Door4,0.232638889,0.022222222,1,0,0,2.4709,optionRight,80,2570,2,6,0,6,0,1,,,,,,,,,,,,,,,,,,,,,,,,,,,,,,,,,,,,,,,
,,,,,,,,2023-08-16_08h35.30.220,HF_wild_card,2022.2.4,Win32,235.0728726,614d9188dc315950026a6102,64d2fd46c836a06233681665,64dc7c3ba2ce67ee1b033467,,,,,,,sngl,resources/DB.BMP,resources/Empty.png,Door4,-0.202777778,0.027777778,1,0,0,0.4823,optionLeft,60,2630,2,7,0,7,0,1,,,,,,,,,,,,,,,,,,,,,,,,,,,,,,,,,,,,,,,
,,,,,,,,2023-08-16_08h35.30.220,HF_wild_card,2022.2.4,Win32,235.0728726,614d9188dc315950026a6102,64d2fd46c836a06233681665,64dc7c3ba2ce67ee1b033467,,,,,,,decisionTrl,resources/DY.BMP,resources/DR.BMP,Door2,0.25625,0.010416667,1,0,0,2.2854,optionRight,40,2670,2,8,0,8,0,1,,,,,,,,,,,,,,,,,,,,,,,,,,,,,,,,,,,,,,,
,,,,,,,,2023-08-16_08h35.30.220,HF_wild_card,2022.2.4,Win32,235.0728726,614d9188dc315950026a6102,64d2fd46c836a06233681665,64dc7c3ba2ce67ee1b033467,,,,,,,decisionTrl,resources/DB.BMP,resources/DP.BMP,Door3,0.344444444,-0.017361111,1,0,0,0.6627,optionRight,70,2740,2,9,0,9,0,1,,,,,,,,,,,,,,,,,,,,,,,,,,,,,,,,,,,,,,,
,,,,,,,,2023-08-16_08h35.30.220,HF_wild_card,2022.2.4,Win32,235.0728726,614d9188dc315950026a6102,64d2fd46c836a06233681665,64dc7c3ba2ce67ee1b033467,,,,,,,decisionTrl,resources/DR.BMP,resources/DY.BMP,Door2,-0.2875,-0.002777778,1,0,0,1.5142,optionLeft,40,2780,2,10,0,10,0,1,,,,,,,,,,,,,,,,,,,,,,,,,,,,,,,,,,,,,,,
,,,,,,,,2023-08-16_08h35.30.220,HF_wild_card,2022.2.4,Win32,235.0728726,614d9188dc315950026a6102,64d2fd46c836a06233681665,64dc7c3ba2ce67ee1b033467,,,,,,,ctch,resources/DY.BMP,resources/DB.BMP,Door4,0.313888889,0.016666667,1,0,0,0.76,optionRight,60,2840,2,11,0,11,0,1,,,,,,,,,,,,,,,,,,,,,,,,,,,,,,,,,,,,,,,
,,,,,,,,2023-08-16_08h35.30.220,HF_wild_card,2022.2.4,Win32,235.0728726,614d9188dc315950026a6102,64d2fd46c836a06233681665,64dc7c3ba2ce67ee1b033467,,,,,,,sngl,resources/Empty.png,resources/DBN.BMP,WildCard_Ex,0.361111111,-0.002777778,1,0,0,1.4782,optionRight,95,2935,2,12,0,12,0,1,,,,,,,,,,,,,,,,,,,,,,,,,,,,,,,,,,,,,,,
,,,,,,,,2023-08-16_08h35.30.220,HF_wild_card,2022.2.4,Win32,235.0728726,614d9188dc315950026a6102,64d2fd46c836a06233681665,64dc7c3ba2ce67ee1b033467,,,,,,,decisionTrl,resources/DP.BMP,resources/DBN.BMP,Door3,-0.275694444,-0.002777778,1,0,0,3.7361,optionLeft,70,3005,2,13,0,13,0,1,,,,,,,,,,,,,,,,,,,,,,,,,,,,,,,,,,,,,,,
,,,,,,,,2023-08-16_08h35.30.220,HF_wild_card,2022.2.4,Win32,235.0728726,614d9188dc315950026a6102,64d2fd46c836a06233681665,64dc7c3ba2ce67ee1b033467,,,,,,,sngl,resources/Empty.png,resources/DR.BMP,Door2,0.268055556,-0.000694444,1,0,0,1.145,optionRight,40,3045,2,14,0,14,0,1,,,,,,,,,,,,,,,,,,,,,,,,,,,,,,,,,,,,,,,
,,,,,,,,2023-08-16_08h35.30.220,HF_wild_card,2022.2.4,Win32,235.0728726,614d9188dc315950026a6102,64d2fd46c836a06233681665,64dc7c3ba2ce67ee1b033467,,,,,,,ctch,resources/DY.BMP,resources/DB.BMP,Door4,0.413888889,-0.025694444,1,0,0,2.1741,optionRight,80,3125,2,15,0,15,0,1,,,,,,,,,,,,,,,,,,,,,,,,,,,,,,,,,,,,,,,
,,,,,,,,2023-08-16_08h35.30.220,HF_wild_card,2022.2.4,Win32,235.0728726,614d9188dc315950026a6102,64d2fd46c836a06233681665,64dc7c3ba2ce67ee1b033467,,,,,,,decisionTrl,resources/DB.BMP,resources/DBN.BMP,Door4,-0.288194444,0.004861111,1,0,0,2.0827,optionLeft,60,3185,2,16,0,16,0,1,,,,,,,,,,,,,,,,,,,,,,,,,,,,,,,,,,,,,,,
,,,,,,,,2023-08-16_08h35.30.220,HF_wild_card,2022.2.4,Win32,235.0728726,614d9188dc315950026a6102,64d2fd46c836a06233681665,64dc7c3ba2ce67ee1b033467,,,,,,,decisionTrl,resources/DP.BMP,resources/DB.BMP,Door3,-0.357638889,0.0625,1,0,0,0.9321,optionLeft,70,3255,2,17,0,17,0,1,,,,,,,,,,,,,,,,,,,,,,,,,,,,,,,,,,,,,,,
,,,,,,,,2023-08-16_08h35.30.220,HF_wild_card,2022.2.4,Win32,235.0728726,614d9188dc315950026a6102,64d2fd46c836a06233681665,64dc7c3ba2ce67ee1b033467,,,,,,,ctch,resources/DP.BMP,resources/DR.BMP,Door3,-0.275,0.04375,1,0,0,0.8536,optionLeft,70,3325,2,18,0,18,0,1,,,,,,,,,,,,,,,,,,,,,,,,,,,,,,,,,,,,,,,
,,,,,,,,2023-08-16_08h35.30.220,HF_wild_card,2022.2.4,Win32,235.0728726,614d9188dc315950026a6102,64d2fd46c836a06233681665,64dc7c3ba2ce67ee1b033467,,,,,,,decisionTrl,resources/DB.BMP,resources/DP.BMP,Door3,0.359722222,0.008333333,1,0,0,1.0361,optionRight,70,3395,2,19,0,19,0,1,,,,,,,,,,,,,,,,,,,,,,,,,,,,,,,,,,,,,,,
,,,,,,,,2023-08-16_08h35.30.220,HF_wild_card,2022.2.4,Win32,235.0728726,614d9188dc315950026a6102,64d2fd46c836a06233681665,64dc7c3ba2ce67ee1b033467,,,,,,,sngl,resources/Empty.png,resources/DP.BMP,Door3,0.320833333,0.015277778,1,0,0,0.4405,optionRight,70,3465,2,20,0,20,0,1,,,,,,,,,,,,,,,,,,,,,,,,,,,,,,,,,,,,,,,
,,,,,,,,2023-08-16_08h35.30.220,HF_wild_card,2022.2.4,Win32,235.0728726,614d9188dc315950026a6102,64d2fd46c836a06233681665,64dc7c3ba2ce67ee1b033467,,,,,,,sngl,resources/DP.BMP,resources/Empty.png,Door3,-0.253472222,-0.023611111,1,0,0,0.4489,optionLeft,70,3535,2,21,0,21,0,1,,,,,,,,,,,,,,,,,,,,,,,,,,,,,,,,,,,,,,,
,,,,,,,,2023-08-16_08h35.30.220,HF_wild_card,2022.2.4,Win32,235.0728726,614d9188dc315950026a6102,64d2fd46c836a06233681665,64dc7c3ba2ce67ee1b033467,,,,,,,decisionTrl,resources/DP.BMP,resources/DB.BMP,Door3,-0.269444444,0.006944444,1,0,0,0.6908,optionLeft,70,3605,2,22,0,22,0,1,,,,,,,,,,,,,,,,,,,,,,,,,,,,,,,,,,,,,,,
,,,,,,,,2023-08-16_08h35.30.220,HF_wild_card,2022.2.4,Win32,235.0728726,614d9188dc315950026a6102,64d2fd46c836a06233681665,64dc7c3ba2ce67ee1b033467,,,,,,,sngl,resources/Empty.png,resources/DY.BMP,Door1,0.345833333,0.015972222,1,0,0,0.5579,optionRight,30,3635,2,23,0,23,0,1,,,,,,,,,,,,,,,,,,,,,,,,,,,,,,,,,,,,,,,
,,,,,,,,2023-08-16_08h35.30.220,HF_wild_card,2022.2.4,Win32,235.0728726,614d9188dc315950026a6102,64d2fd46c836a06233681665,64dc7c3ba2ce67ee1b033467,,,,,,,decisionTrl,resources/DY.BMP,resources/DBN.BMP,Door1,-0.232638889,-0.013194444,1,0,0,2.9785,optionLeft,30,3665,2,24,0,24,0,1,,,,,,,,,,,,,,,,,,,,,,,,,,,,,,,,,,,,,,,
,,,,,,,,2023-08-16_08h35.30.220,HF_wild_card,2022.2.4,Win32,235.0728726,614d9188dc315950026a6102,64d2fd46c836a06233681665,64dc7c3ba2ce67ee1b033467,,,,,,,sngl,resources/DR.BMP,resources/Empty.png,Door2,-0.316666667,0.008333333,1,0,0,0.7363,optionLeft,20,3685,2,25,0,25,0,1,,,,,,,,,,,,,,,,,,,,,,,,,,,,,,,,,,,,,,,
,,,,,,,,2023-08-16_08h35.30.220,HF_wild_card,2022.2.4,Win32,235.0728726,614d9188dc315950026a6102,64d2fd46c836a06233681665,64dc7c3ba2ce67ee1b033467,,,,,,,decisionTrl,resources/DY.BMP,resources/DR.BMP,Door1,-0.332638889,0.023611111,1,0,0,0.6515,optionLeft,30,3715,2,26,0,26,0,1,,,,,,,,,,,,,,,,,,,,,,,,,,,,,,,,,,,,,,,
,,,,,,,,2023-08-16_08h35.30.220,HF_wild_card,2022.2.4,Win32,235.0728726,614d9188dc315950026a6102,64d2fd46c836a06233681665,64dc7c3ba2ce67ee1b033467,,,,,,,ctch,resources/DP.BMP,resources/DR.BMP,Door3,-0.354861111,0.038194444,1,0,0,0.4611,optionLeft,70,3785,2,27,0,27,0,1,,,,,,,,,,,,,,,,,,,,,,,,,,,,,,,,,,,,,,,
,,,,,,,,2023-08-16_08h35.30.220,HF_wild_card,2022.2.4,Win32,235.0728726,614d9188dc315950026a6102,64d2fd46c836a06233681665,64dc7c3ba2ce67ee1b033467,,,,,,,decisionTrl,resources/DY.BMP,resources/DR.BMP,Door2,0.340972222,-0.020138889,1,0,0,1.2851,optionRight,20,3805,2,28,0,28,0,1,,,,,,,,,,,,,,,,,,,,,,,,,,,,,,,,,,,,,,,
,,,,,,,,2023-08-16_08h35.30.220,HF_wild_card,2022.2.4,Win32,235.0728726,614d9188dc315950026a6102,64d2fd46c836a06233681665,64dc7c3ba2ce67ee1b033467,,,,,,,decisionTrl,resources/DR.BMP,resources/DY.BMP,Door2,-0.333333333,0.028472222,1,0,0,0.7299,optionLeft,20,3825,2,29,0,29,0,1,,,,,,,,,,,,,,,,,,,,,,,,,,,,,,,,,,,,,,,
,,,,,,,,2023-08-16_08h35.30.220,HF_wild_card,2022.2.4,Win32,235.0728726,614d9188dc315950026a6102,64d2fd46c836a06233681665,64dc7c3ba2ce67ee1b033467,,,,,,,sngl,resources/DY.BMP,resources/Empty.png,Door1,-0.431944444,0.034722222,1,0,0,0.4733,optionLeft,30,3855,2,30,0,30,0,1,,,,,,,,,,,,,,,,,,,,,,,,,,,,,,,,,,,,,,,
,,,,,,,,2023-08-16_08h35.30.220,HF_wild_card,2022.2.4,Win32,235.0728726,614d9188dc315950026a6102,64d2fd46c836a06233681665,64dc7c3ba2ce67ee1b033467,,,,,,,sngl,resources/Empty.png,resources/DBN.BMP,WildCard_Ex,0.354861111,-0.008333333,1,0,0,1.2393,optionRight,5,3860,2,31,0,31,0,1,,,,,,,,,,,,,,,,,,,,,,,,,,,,,,,,,,,,,,,
,,,,,,,,2023-08-16_08h35.30.220,HF_wild_card,2022.2.4,Win32,235.0728726,614d9188dc315950026a6102,64d2fd46c836a06233681665,64dc7c3ba2ce67ee1b033467,,,,,,,decisionTrl,resources/DBN.BMP,resources/DY.BMP,WildCard_Ex,-0.219444444,0.024305556,1,0,0,0.913,optionLeft,95,3955,2,32,0,32,0,1,,,,,,,,,,,,,,,,,,,,,,,,,,,,,,,,,,,,,,,
,,,,,,,,2023-08-16_08h35.30.220,HF_wild_card,2022.2.4,Win32,235.0728726,614d9188dc315950026a6102,64d2fd46c836a06233681665,64dc7c3ba2ce67ee1b033467,,,,,,,decisionTrl,resources/DR.BMP,resources/DY.BMP,Door2,-0.247222222,0.015277778,1,0,0,1.6159,optionLeft,40,3995,2,33,0,33,0,1,,,,,,,,,,,,,,,,,,,,,,,,,,,,,,,,,,,,,,,
,,,,,,,,2023-08-16_08h35.30.220,HF_wild_card,2022.2.4,Win32,235.0728726,614d9188dc315950026a6102,64d2fd46c836a06233681665,64dc7c3ba2ce67ee1b033467,,,,,,,ctch,resources/DR.BMP,resources/DP.BMP,Door3,0.179166667,0.039583333,1,0,0,1.8535,optionRight,70,4065,2,34,0,34,0,1,,,,,,,,,,,,,,,,,,,,,,,,,,,,,,,,,,,,,,,
,,,,,,,,2023-08-16_08h35.30.220,HF_wild_card,2022.2.4,Win32,235.0728726,614d9188dc315950026a6102,64d2fd46c836a06233681665,64dc7c3ba2ce67ee1b033467,,,,,,,sngl,resources/DBN.BMP,resources/Empty.png,WildCard_Ex,-0.382638889,-0.020138889,1,0,0,0.6115,optionLeft,95,4160,2,35,0,35,0,1,,,,,,,,,,,,,,,,,,,,,,,,,,,,,,,,,,,,,,,
,,,,,,,,2023-08-16_08h35.30.220,HF_wild_card,2022.2.4,Win32,235.0728726,614d9188dc315950026a6102,64d2fd46c836a06233681665,64dc7c3ba2ce67ee1b033467,,,,,,,decisionTrl,resources/DR.BMP,resources/DBN.BMP,WildCard_Ex,0.340277778,0.003472222,1,0,0,0.822,optionRight,95,4255,2,36,0,36,0,1,,,,,,,,,,,,,,,,,,,,,,,,,,,,,,,,,,,,,,,
,,,,,,,,2023-08-16_08h35.30.220,HF_wild_card,2022.2.4,Win32,235.0728726,614d9188dc315950026a6102,64d2fd46c836a06233681665,64dc7c3ba2ce67ee1b033467,,,,,,,decisionTrl,resources/DBN.BMP,resources/DP.BMP,WildCard_Ex,-0.3375,0.009027778,1,0,0,0.8408,optionLeft,95,4350,2,37,0,37,0,1,,,,,,,,,,,,,,,,,,,,,,,,,,,,,,,,,,,,,,,
,,,,,,,,2023-08-16_08h35.30.220,HF_wild_card,2022.2.4,Win32,235.0728726,614d9188dc315950026a6102,64d2fd46c836a06233681665,64dc7c3ba2ce67ee1b033467,,,,,,,decisionTrl,resources/DP.BMP,resources/DB.BMP,Door3,-0.309722222,0.022916667,1,0,0,1.0032,optionLeft,70,4420,2,38,0,38,0,1,,,,,,,,,,,,,,,,,,,,,,,,,,,,,,,,,,,,,,,
,,,,,,,,2023-08-16_08h35.30.220,HF_wild_card,2022.2.4,Win32,235.0728726,614d9188dc315950026a6102,64d2fd46c836a06233681665,64dc7c3ba2ce67ee1b033467,,,,,,,decisionTrl,resources/DY.BMP,resources/DR.BMP,Door2,0.368055556,0.027777778,1,0,0,2.941,optionRight,40,4460,2,39,0,39,0,1,,,,,,,,,,,,,,,,,,,,,,,,,,,,,,,,,,,,,,,
,,,,,,,,2023-08-16_08h35.30.220,HF_wild_card,2022.2.4,Win32,235.0728726,614d9188dc315950026a6102,64d2fd46c836a06233681665,64dc7c3ba2ce67ee1b033467,,,,,,,decisionTrl,resources/DB.BMP,resources/DP.BMP,Door3,0.336111111,0.016666667,1,0,0,1.4614,optionRight,70,4530,2,40,0,40,0,1,,,,,,,,,,,,,,,,,,,,,,,,,,,,,,,,,,,,,,,
,,,,,,,,2023-08-16_08h35.30.220,HF_wild_card,2022.2.4,Win32,235.0728726,614d9188dc315950026a6102,64d2fd46c836a06233681665,64dc7c3ba2ce67ee1b033467,,,,,,,sngl,resources/DBN.BMP,resources/Empty.png,WildCard_Ex,-0.288194444,0.031944444,1,0,0,0.5322,optionLeft,5,4535,2,41,0,41,0,1,,,,,,,,,,,,,,,,,,,,,,,,,,,,,,,,,,,,,,,
,,,,,,,,2023-08-16_08h35.30.220,HF_wild_card,2022.2.4,Win32,235.0728726,614d9188dc315950026a6102,64d2fd46c836a06233681665,64dc7c3ba2ce67ee1b033467,,,,,,,decisionTrl,resources/DBN.BMP,resources/DR.BMP,WildCard_Ex,-0.239583333,0.026388889,1,0,0,1.3077,optionLeft,5,4540,2,42,0,42,0,1,,,,,,,,,,,,,,,,,,,,,,,,,,,,,,,,,,,,,,,
,,,,,,,,2023-08-16_08h35.30.220,HF_wild_card,2022.2.4,Win32,235.0728726,614d9188dc315950026a6102,64d2fd46c836a06233681665,64dc7c3ba2ce67ee1b033467,,,,,,,sngl,resources/Empty.png,resources/DB.BMP,Door4,0.247916667,0.017361111,1,0,0,0.4408,optionRight,80,4620,2,43,0,43,0,1,,,,,,,,,,,,,,,,,,,,,,,,,,,,,,,,,,,,,,,
,,,,,,,,2023-08-16_08h35.30.220,HF_wild_card,2022.2.4,Win32,235.0728726,614d9188dc315950026a6102,64d2fd46c836a06233681665,64dc7c3ba2ce67ee1b033467,,,,,,,,,,,,,,,,,,,,,,,,,,1,0,1,0,1,,,,,,,,,,,,,,,,,,,,,,,,,,,,,,,,,,
,,,,,,,,2023-08-16_08h35.30.220,HF_wild_card,2022.2.4,Win32,235.0728726,614d9188dc315950026a6102,64d2fd46c836a06233681665,64dc7c3ba2ce67ee1b033467,,,,,,,sngl,resources/DP.BMP,resources/Empty.png,Door3,-0.419444444,-0.031944444,1,0,0,1.1705,optionLeft,70,4690,3,0,0,0,0,1,,,,,,,,,,,,,,,,,,,,,,,,,,,,,,,,,,,,,,,
,,,,,,,,2023-08-16_08h35.30.220,HF_wild_card,2022.2.4,Win32,235.0728726,614d9188dc315950026a6102,64d2fd46c836a06233681665,64dc7c3ba2ce67ee1b033467,,,,,,,ctch,resources/DY.BMP,resources/DB.BMP,Door4,0.28125,0.048611111,1,0,0,0.6615,optionRight,80,4770,3,1,0,1,0,1,,,,,,,,,,,,,,,,,,,,,,,,,,,,,,,,,,,,,,,
,,,,,,,,2023-08-16_08h35.30.220,HF_wild_card,2022.2.4,Win32,235.0728726,614d9188dc315950026a6102,64d2fd46c836a06233681665,64dc7c3ba2ce67ee1b033467,,,,,,,decisionTrl,resources/DY.BMP,resources/DBN.BMP,WildCard_Ex,0.347916667,-0.036805556,1,0,0,4.5291,optionRight,95,4865,3,2,0,2,0,1,,,,,,,,,,,,,,,,,,,,,,,,,,,,,,,,,,,,,,,
,,,,,,,,2023-08-16_08h35.30.220,HF_wild_card,2022.2.4,Win32,235.0728726,614d9188dc315950026a6102,64d2fd46c836a06233681665,64dc7c3ba2ce67ee1b033467,,,,,,,sngl,resources/DY.BMP,resources/Empty.png,Door1,-0.28125,0.002083333,1,0,0,2.0991,optionLeft,30,4895,3,3,0,3,0,1,,,,,,,,,,,,,,,,,,,,,,,,,,,,,,,,,,,,,,,
,,,,,,,,2023-08-16_08h35.30.220,HF_wild_card,2022.2.4,Win32,235.0728726,614d9188dc315950026a6102,64d2fd46c836a06233681665,64dc7c3ba2ce67ee1b033467,,,,,,,ctch,resources/DR.BMP,resources/DP.BMP,Door3,0.424305556,-0.038888889,1,0,0,1.1407,optionRight,70,4965,3,4,0,4,0,1,,,,,,,,,,,,,,,,,,,,,,,,,,,,,,,,,,,,,,,
,,,,,,,,2023-08-16_08h35.30.220,HF_wild_card,2022.2.4,Win32,235.0728726,614d9188dc315950026a6102,64d2fd46c836a06233681665,64dc7c3ba2ce67ee1b033467,,,,,,,sngl,resources/DR.BMP,resources/Empty.png,Door2,-0.306944444,-0.011805556,1,0,0,0.8326,optionLeft,40,5005,3,5,0,5,0,1,,,,,,,,,,,,,,,,,,,,,,,,,,,,,,,,,,,,,,,
,,,,,,,,2023-08-16_08h35.30.220,HF_wild_card,2022.2.4,Win32,235.0728726,614d9188dc315950026a6102,64d2fd46c836a06233681665,64dc7c3ba2ce67ee1b033467,,,,,,,decisionTrl,resources/DY.BMP,resources/DR.BMP,Door2,0.424305556,-0.080555556,1,0,0,2.2712,optionRight,20,5025,3,6,0,6,0,1,,,,,,,,,,,,,,,,,,,,,,,,,,,,,,,,,,,,,,,
,,,,,,,,2023-08-16_08h35.30.220,HF_wild_card,2022.2.4,Win32,235.0728726,614d9188dc315950026a6102,64d2fd46c836a06233681665,64dc7c3ba2ce67ee1b033467,,,,,,,decisionTrl,resources/DP.BMP,resources/DB.BMP,Door3,-0.274305556,-0.042361111,1,0,0,1.3684,optionLeft,70,5095,3,7,0,7,0,1,,,,,,,,,,,,,,,,,,,,,,,,,,,,,,,,,,,,,,,
,,,,,,,,2023-08-16_08h35.30.220,HF_wild_card,2022.2.4,Win32,235.0728726,614d9188dc315950026a6102,64d2fd46c836a06233681665,64dc7c3ba2ce67ee1b033467,,,,,,,decisionTrl,resources/DR.BMP,resources/DY.BMP,Door1,0.486111111,-0.058333333,1,0,0,2.8809,optionRight,30,5125,3,8,0,8,0,1,,,,,,,,,,,,,,,,,,,,,,,,,,,,,,,,,,,,,,,
,,,,,,,,2023-08-16_08h35.30.220,HF_wild_card,2022.2.4,Win32,235.0728726,614d9188dc315950026a6102,64d2fd46c836a06233681665,64dc7c3ba2ce67ee1b033467,,,,,,,decisionTrl,resources/DP.BMP,resources/DB.BMP,Door3,-0.286111111,-0.022222222,1,0,0,1.2699,optionLeft,70,5195,3,9,0,9,0,1,,,,,,,,,,,,,,,,,,,,,,,,,,,,,,,,,,,,,,,
,,,,,,,,2023-08-16_08h35.30.220,HF_wild_card,2022.2.4,Win32,235.0728726,614d9188dc315950026a6102,64d2fd46c836a06233681665,64dc7c3ba2ce67ee1b033467,,,,,,,sngl,resources/Empty.png,resources/DR.BMP,Door2,0.388194444,-0.031944444,1,0,0,1.2658,optionRight,20,5215,3,10,0,10,0,1,,,,,,,,,,,,,,,,,,,,,,,,,,,,,,,,,,,,,,,
,,,,,,,,2023-08-16_08h35.30.220,HF_wild_card,2022.2.4,Win32,235.0728726,614d9188dc315950026a6102,64d2fd46c836a06233681665,64dc7c3ba2ce67ee1b033467,,,,,,,decisionTrl,resources/DB.BMP,resources/DP.BMP,Door3,0.352777778,-0.014583333,1,0,0,0.6573,optionRight,70,5285,3,11,0,11,0,1,,,,,,,,,,,,,,,,,,,,,,,,,,,,,,,,,,,,,,,
,,,,,,,,2023-08-16_08h35.30.220,HF_wild_card,2022.2.4,Win32,235.0728726,614d9188dc315950026a6102,64d2fd46c836a06233681665,64dc7c3ba2ce67ee1b033467,,,,,,,decisionTrl,resources/DP.BMP,resources/DB.BMP,Door3,-0.478472222,0.011111111,1,0,0,0.4772,optionLeft,70,5355,3,12,0,12,0,1,,,,,,,,,,,,,,,,,,,,,,,,,,,,,,,,,,,,,,,
,,,,,,,,2023-08-16_08h35.30.220,HF_wild_card,2022.2.4,Win32,235.0728726,614d9188dc315950026a6102,64d2fd46c836a06233681665,64dc7c3ba2ce67ee1b033467,,,,,,,decisionTrl,resources/DBN.BMP,resources/DR.BMP,WildCard_Ex,-0.241666667,0.008333333,1,0,0,1.9675,optionLeft,95,5450,3,13,0,13,0,1,,,,,,,,,,,,,,,,,,,,,,,,,,,,,,,,,,,,,,,
,,,,,,,,2023-08-16_08h35.30.220,HF_wild_card,2022.2.4,Win32,235.0728726,614d9188dc315950026a6102,64d2fd46c836a06233681665,64dc7c3ba2ce67ee1b033467,,,,,,,decisionTrl,resources/DR.BMP,resources/DY.BMP,Door2,-0.313888889,0.022916667,1,0,0,2.6329,optionLeft,40,5490,3,14,0,14,0,1,,,,,,,,,,,,,,,,,,,,,,,,,,,,,,,,,,,,,,,
,,,,,,,,2023-08-16_08h35.30.220,HF_wild_card,2022.2.4,Win32,235.0728726,614d9188dc315950026a6102,64d2fd46c836a06233681665,64dc7c3ba2ce67ee1b033467,,,,,,,decisionTrl,resources/DR.BMP,resources/DBN.BMP,Door2,-0.261805556,-0.004166667,1,0,0,1.8952,optionLeft,40,5530,3,15,0,15,0,1,,,,,,,,,,,,,,,,,,,,,,,,,,,,,,,,,,,,,,,
,,,,,,,,2023-08-16_08h35.30.220,HF_wild_card,2022.2.4,Win32,235.0728726,614d9188dc315950026a6102,64d2fd46c836a06233681665,64dc7c3ba2ce67ee1b033467,,,,,,,ctch,resources/DP.BMP,resources/DR.BMP,Door3,-0.278472222,0.025,1,0,0,1.0156,optionLeft,70,5600,3,16,0,16,0,1,,,,,,,,,,,,,,,,,,,,,,,,,,,,,,,,,,,,,,,
,,,,,,,,2023-08-16_08h35.30.220,HF_wild_card,2022.2.4,Win32,235.0728726,614d9188dc315950026a6102,64d2fd46c836a06233681665,64dc7c3ba2ce67ee1b033467,,,,,,,sngl,resources/DB.BMP,resources/Empty.png,Door4,-0.409722222,0.028472222,1,0,0,0.5548,optionLeft,80,5680,3,17,0,17,0,1,,,,,,,,,,,,,,,,,,,,,,,,,,,,,,,,,,,,,,,
,,,,,,,,2023-08-16_08h35.30.220,HF_wild_card,2022.2.4,Win32,235.0728726,614d9188dc315950026a6102,64d2fd46c836a06233681665,64dc7c3ba2ce67ee1b033467,,,,,,,ctch,resources/DR.BMP,resources/DP.BMP,Door3,0.309722222,-0.008333333,1,0,0,0.6217,optionRight,70,5750,3,18,0,18,0,1,,,,,,,,,,,,,,,,,,,,,,,,,,,,,,,,,,,,,,,
,,,,,,,,2023-08-16_08h35.30.220,HF_wild_card,2022.2.4,Win32,235.0728726,614d9188dc315950026a6102,64d2fd46c836a06233681665,64dc7c3ba2ce67ee1b033467,,,,,,,decisionTrl,resources/DR.BMP,resources/DY.BMP,Door2,-0.274305556,0.004861111,1,0,0,0.8857,optionLeft,20,5770,3,19,0,19,0,1,,,,,,,,,,,,,,,,,,,,,,,,,,,,,,,,,,,,,,,
,,,,,,,,2023-08-16_08h35.30.220,HF_wild_card,2022.2.4,Win32,235.0728726,614d9188dc315950026a6102,64d2fd46c836a06233681665,64dc7c3ba2ce67ee1b033467,,,,,,,decisionTrl,resources/DBN.BMP,resources/DY.BMP,WildCard_Ex,-0.227083333,0.008333333,1,0,0,0.8641,optionLeft,95,5865,3,20,0,20,0,1,,,,,,,,,,,,,,,,,,,,,,,,,,,,,,,,,,,,,,,
,,,,,,,,2023-08-16_08h35.30.220,HF_wild_card,2022.2.4,Win32,235.0728726,614d9188dc315950026a6102,64d2fd46c836a06233681665,64dc7c3ba2ce67ee1b033467,,,,,,,ctch,resources/DY.BMP,resources/DB.BMP,Door4,0.316666667,-0.002083333,1,0,0,1.0209,optionRight,60,5925,3,21,0,21,0,1,,,,,,,,,,,,,,,,,,,,,,,,,,,,,,,,,,,,,,,
,,,,,,,,2023-08-16_08h35.30.220,HF_wild_card,2022.2.4,Win32,235.0728726,614d9188dc315950026a6102,64d2fd46c836a06233681665,64dc7c3ba2ce67ee1b033467,,,,,,,sngl,resources/DBN.BMP,resources/Empty.png,WildCard_Ex,-0.338888889,0.001388889,1,0,0,0.8801,optionLeft,5,5930,3,22,0,22,0,1,,,,,,,,,,,,,,,,,,,,,,,,,,,,,,,,,,,,,,,
,,,,,,,,2023-08-16_08h35.30.220,HF_wild_card,2022.2.4,Win32,235.0728726,614d9188dc315950026a6102,64d2fd46c836a06233681665,64dc7c3ba2ce67ee1b033467,,,,,,,sngl,resources/Empty.png,resources/DP.BMP,Door3,0.438888889,-0.034722222,1,0,0,0.6216,optionRight,70,6000,3,23,0,23,0,1,,,,,,,,,,,,,,,,,,,,,,,,,,,,,,,,,,,,,,,
,,,,,,,,2023-08-16_08h35.30.220,HF_wild_card,2022.2.4,Win32,235.0728726,614d9188dc315950026a6102,64d2fd46c836a06233681665,64dc7c3ba2ce67ee1b033467,,,,,,,decisionTrl,resources/DR.BMP,resources/DY.BMP,Door1,0.393055556,-0.009722222,1,0,0,2.9746,optionRight,30,6030,3,24,0,24,0,1,,,,,,,,,,,,,,,,,,,,,,,,,,,,,,,,,,,,,,,
,,,,,,,,2023-08-16_08h35.30.220,HF_wild_card,2022.2.4,Win32,235.0728726,614d9188dc315950026a6102,64d2fd46c836a06233681665,64dc7c3ba2ce67ee1b033467,,,,,,,decisionTrl,resources/DB.BMP,resources/DP.BMP,Door3,0.371527778,0.002777778,1,0,0,5.5547,optionRight,70,6100,3,25,0,25,0,1,,,,,,,,,,,,,,,,,,,,,,,,,,,,,,,,,,,,,,,
,,,,,,,,2023-08-16_08h35.30.220,HF_wild_card,2022.2.4,Win32,235.0728726,614d9188dc315950026a6102,64d2fd46c836a06233681665,64dc7c3ba2ce67ee1b033467,,,,,,,decisionTrl,resources/DB.BMP,resources/DP.BMP,Door3,0.226388889,-0.010416667,1,0,0,1.2492,optionRight,70,6170,3,26,0,26,0,1,,,,,,,,,,,,,,,,,,,,,,,,,,,,,,,,,,,,,,,
,,,,,,,,2023-08-16_08h35.30.220,HF_wild_card,2022.2.4,Win32,235.0728726,614d9188dc315950026a6102,64d2fd46c836a06233681665,64dc7c3ba2ce67ee1b033467,,,,,,,decisionTrl,resources/DY.BMP,resources/DR.BMP,Door2,0.3375,-0.015277778,1,0,0,1.57,optionRight,40,6210,3,27,0,27,0,1,,,,,,,,,,,,,,,,,,,,,,,,,,,,,,,,,,,,,,,
,,,,,,,,2023-08-16_08h35.30.220,HF_wild_card,2022.2.4,Win32,235.0728726,614d9188dc315950026a6102,64d2fd46c836a06233681665,64dc7c3ba2ce67ee1b033467,,,,,,,sngl,resources/Empty.png,resources/DBN.BMP,WildCard_Ex,0.391666667,-0.004166667,1,0,0,1.2352,optionRight,95,6305,3,28,0,28,0,1,,,,,,,,,,,,,,,,,,,,,,,,,,,,,,,,,,,,,,,
,,,,,,,,2023-08-16_08h35.30.220,HF_wild_card,2022.2.4,Win32,235.0728726,614d9188dc315950026a6102,64d2fd46c836a06233681665,64dc7c3ba2ce67ee1b033467,,,,,,,decisionTrl,resources/DP.BMP,resources/DBN.BMP,WildCard_Ex,0.290972222,-0.013888889,1,0,0,0.8771,optionRight,95,6400,3,29,0,29,0,1,,,,,,,,,,,,,,,,,,,,,,,,,,,,,,,,,,,,,,,
,,,,,,,,2023-08-16_08h35.30.220,HF_wild_card,2022.2.4,Win32,235.0728726,614d9188dc315950026a6102,64d2fd46c836a06233681665,64dc7c3ba2ce67ee1b033467,,,,,,,decisionTrl,resources/DP.BMP,resources/DB.BMP,Door3,-0.374305556,0.009027778,1,0,0,0.861,optionLeft,70,6470,3,30,0,30,0,1,,,,,,,,,,,,,,,,,,,,,,,,,,,,,,,,,,,,,,,
,,,,,,,,2023-08-16_08h35.30.220,HF_wild_card,2022.2.4,Win32,235.0728726,614d9188dc315950026a6102,64d2fd46c836a06233681665,64dc7c3ba2ce67ee1b033467,,,,,,,sngl,resources/Empty.png,resources/DY.BMP,Door1,0.38125,-0.041666667,1,0,0,0.4699,optionRight,30,6500,3,31,0,31,0,1,,,,,,,,,,,,,,,,,,,,,,,,,,,,,,,,,,,,,,,
,,,,,,,,2023-08-16_08h35.30.220,HF_wild_card,2022.2.4,Win32,235.0728726,614d9188dc315950026a6102,64d2fd46c836a06233681665,64dc7c3ba2ce67ee1b033467,,,,,,,decisionTrl,resources/DY.BMP,resources/DR.BMP,Door1,-0.281944444,0.007638889,1,0,0,1.0585,optionLeft,30,6530,3,32,0,32,0,1,,,,,,,,,,,,,,,,,,,,,,,,,,,,,,,,,,,,,,,
,,,,,,,,2023-08-16_08h35.30.220,HF_wild_card,2022.2.4,Win32,235.0728726,614d9188dc315950026a6102,64d2fd46c836a06233681665,64dc7c3ba2ce67ee1b033467,,,,,,,ctch,resources/DB.BMP,resources/DY.BMP,Door4,-0.211805556,-0.016666667,1,0,0,0.4933,optionLeft,60,6590,3,33,0,33,0,1,,,,,,,,,,,,,,,,,,,,,,,,,,,,,,,,,,,,,,,
,,,,,,,,2023-08-16_08h35.30.220,HF_wild_card,2022.2.4,Win32,235.0728726,614d9188dc315950026a6102,64d2fd46c836a06233681665,64dc7c3ba2ce67ee1b033467,,,,,,,decisionTrl,resources/DY.BMP,resources/DR.BMP,Door1,-0.19375,0,1,0,0,1.3666,optionLeft,30,6620,3,34,0,34,0,1,,,,,,,,,,,,,,,,,,,,,,,,,,,,,,,,,,,,,,,
,,,,,,,,2023-08-16_08h35.30.220,HF_wild_card,2022.2.4,Win32,235.0728726,614d9188dc315950026a6102,64d2fd46c836a06233681665,64dc7c3ba2ce67ee1b033467,,,,,,,decisionTrl,resources/DBN.BMP,resources/DP.BMP,WildCard_Ex,-0.275694444,0.020833333,1,0,0,1.2984,optionLeft,95,6715,3,35,0,35,0,1,,,,,,,,,,,,,,,,,,,,,,,,,,,,,,,,,,,,,,,
,,,,,,,,2023-08-16_08h35.30.220,HF_wild_card,2022.2.4,Win32,235.0728726,614d9188dc315950026a6102,64d2fd46c836a06233681665,64dc7c3ba2ce67ee1b033467,,,,,,,decisionTrl,resources/DB.BMP,resources/DP.BMP,Door3,0.28125,-0.009722222,1,0,0,1.1533,optionRight,70,6785,3,36,0,36,0,1,,,,,,,,,,,,,,,,,,,,,,,,,,,,,,,,,,,,,,,
,,,,,,,,2023-08-16_08h35.30.220,HF_wild_card,2022.2.4,Win32,235.0728726,614d9188dc315950026a6102,64d2fd46c836a06233681665,64dc7c3ba2ce67ee1b033467,,,,,,,ctch,resources/DP.BMP,resources/DR.BMP,Door3,-0.219444444,0.021527778,1,0,0,0.7023,optionLeft,70,6855,3,37,0,37,0,1,,,,,,,,,,,,,,,,,,,,,,,,,,,,,,,,,,,,,,,
,,,,,,,,2023-08-16_08h35.30.220,HF_wild_card,2022.2.4,Win32,235.0728726,614d9188dc315950026a6102,64d2fd46c836a06233681665,64dc7c3ba2ce67ee1b033467,,,,,,,sngl,resources/Empty.png,resources/DB.BMP,Door4,0.401388889,-0.032638889,1,0,0,0.5072,optionRight,60,6915,3,38,0,38,0,1,,,,,,,,,,,,,,,,,,,,,,,,,,,,,,,,,,,,,,,
,,,,,,,,2023-08-16_08h35.30.220,HF_wild_card,2022.2.4,Win32,235.0728726,614d9188dc315950026a6102,64d2fd46c836a06233681665,64dc7c3ba2ce67ee1b033467,,,,,,,decisionTrl,resources/DBN.BMP,resources/DB.BMP,Door4,0.365972222,0.022916667,1,0,0,1.3199,optionRight,80,6995,3,39,0,39,0,1,,,,,,,,,,,,,,,,,,,,,,,,,,,,,,,,,,,,,,,
,,,,,,,,2023-08-16_08h35.30.220,HF_wild_card,2022.2.4,Win32,235.0728726,614d9188dc315950026a6102,64d2fd46c836a06233681665,64dc7c3ba2ce67ee1b033467,,,,,,,ctch,resources/DB.BMP,resources/DY.BMP,Door4,-0.277777778,0.018055556,1,0,0,0.7821,optionLeft,80,7075,3,40,0,40,0,1,,,,,,,,,,,,,,,,,,,,,,,,,,,,,,,,,,,,,,,
,,,,,,,,2023-08-16_08h35.30.220,HF_wild_card,2022.2.4,Win32,235.0728726,614d9188dc315950026a6102,64d2fd46c836a06233681665,64dc7c3ba2ce67ee1b033467,,,,,,,decisionTrl,resources/DB.BMP,resources/DBN.BMP,Door4,-0.322222222,0.013888889,1,0,0,0.6511,optionLeft,80,7155,3,41,0,41,0,1,,,,,,,,,,,,,,,,,,,,,,,,,,,,,,,,,,,,,,,
,,,,,,,,2023-08-16_08h35.30.220,HF_wild_card,2022.2.4,Win32,235.0728726,614d9188dc315950026a6102,64d2fd46c836a06233681665,64dc7c3ba2ce67ee1b033467,,,,,,,sngl,resources/DBN.BMP,resources/Empty.png,WildCard_Ex,-0.359027778,0.029166667,1,0,0,0.5765,optionLeft,95,7250,3,42,0,42,0,1,,,,,,,,,,,,,,,,,,,,,,,,,,,,,,,,,,,,,,,
,,,,,,,,2023-08-16_08h35.30.220,HF_wild_card,2022.2.4,Win32,235.0728726,614d9188dc315950026a6102,64d2fd46c836a06233681665,64dc7c3ba2ce67ee1b033467,,,,,,,sngl,resources/Empty.png,resources/DBN.BMP,WildCard_Ex,0.486805556,-0.014583333,1,0,0,0.482,optionRight,5,7255,3,43,0,43,0,1,,,,,,,,,,,,,,,,,,,,,,,,,,,,,,,,,,,,,,,
,,,,,,,,2023-08-16_08h35.30.220,HF_wild_card,2022.2.4,Win32,235.0728726,614d9188dc315950026a6102,64d2fd46c836a06233681665,64dc7c3ba2ce67ee1b033467,,,,,,,,,,,,,,,,,,,,,,,,,,2,0,2,0,1,,,,,,,,,,,,,,,,,,,,,,,,,,,,,,,,,,
,,,,,,,,2023-08-16_08h35.30.220,HF_wild_card,2022.2.4,Win32,235.0728726,614d9188dc315950026a6102,64d2fd46c836a06233681665,64dc7c3ba2ce67ee1b033467,,,,,,,decisionTrl,resources/DB.BMP,resources/DP.BMP,Door3,0.354861111,0.05625,1,0,0,1.0043,optionRight,70,7325,4,0,0,0,0,1,,,,,,,,,,,,,,,,,,,,,,,,,,,,,,,,,,,,,,,
,,,,,,,,2023-08-16_08h35.30.220,HF_wild_card,2022.2.4,Win32,235.0728726,614d9188dc315950026a6102,64d2fd46c836a06233681665,64dc7c3ba2ce67ee1b033467,,,,,,,ctch,resources/DY.BMP,resources/DB.BMP,Door4,0.349305556,-0.027777778,1,0,0,1.5659,optionRight,60,7385,4,1,0,1,0,1,,,,,,,,,,,,,,,,,,,,,,,,,,,,,,,,,,,,,,,
,,,,,,,,2023-08-16_08h35.30.220,HF_wild_card,2022.2.4,Win32,235.0728726,614d9188dc315950026a6102,64d2fd46c836a06233681665,64dc7c3ba2ce67ee1b033467,,,,,,,ctch,resources/DP.BMP,resources/DR.BMP,Door3,-0.240972222,-0.002083333,1,0,0,0.6696,optionLeft,70,7455,4,2,0,2,0,1,,,,,,,,,,,,,,,,,,,,,,,,,,,,,,,,,,,,,,,
,,,,,,,,2023-08-16_08h35.30.220,HF_wild_card,2022.2.4,Win32,235.0728726,614d9188dc315950026a6102,64d2fd46c836a06233681665,64dc7c3ba2ce67ee1b033467,,,,,,,decisionTrl,resources/DG.BMP,resources/DP.BMP,Door3,0.225694444,-0.010416667,1,0,0,0.6318,optionRight,70,7525,4,3,0,3,0,1,,,,,,,,,,,,,,,,,,,,,,,,,,,,,,,,,,,,,,,
,,,,,,,,2023-08-16_08h35.30.220,HF_wild_card,2022.2.4,Win32,235.0728726,614d9188dc315950026a6102,64d2fd46c836a06233681665,64dc7c3ba2ce67ee1b033467,,,,,,,decisionTrl,resources/DR.BMP,resources/DY.BMP,Door1,0.35,-0.027777778,1,0,0,2.8368,optionRight,30,7555,4,4,0,4,0,1,,,,,,,,,,,,,,,,,,,,,,,,,,,,,,,,,,,,,,,
,,,,,,,,2023-08-16_08h35.30.220,HF_wild_card,2022.2.4,Win32,235.0728726,614d9188dc315950026a6102,64d2fd46c836a06233681665,64dc7c3ba2ce67ee1b033467,,,,,,,ctch,resources/DB.BMP,resources/DY.BMP,Door4,-0.324305556,0.011805556,1,0,0,0.6283,optionLeft,60,7615,4,5,0,5,0,1,,,,,,,,,,,,,,,,,,,,,,,,,,,,,,,,,,,,,,,
,,,,,,,,2023-08-16_08h35.30.220,HF_wild_card,2022.2.4,Win32,235.0728726,614d9188dc315950026a6102,64d2fd46c836a06233681665,64dc7c3ba2ce67ee1b033467,,,,,,,decisionTrl,resources/DY.BMP,resources/DR.BMP,Door1,-0.226388889,0.013194444,1,0,0,1.0906,optionLeft,30,7645,4,6,0,6,0,1,,,,,,,,,,,,,,,,,,,,,,,,,,,,,,,,,,,,,,,
,,,,,,,,2023-08-16_08h35.30.220,HF_wild_card,2022.2.4,Win32,235.0728726,614d9188dc315950026a6102,64d2fd46c836a06233681665,64dc7c3ba2ce67ee1b033467,,,,,,,decisionTrl,resources/DP.BMP,resources/DB.BMP,Door3,-0.309027778,0.025694444,1,0,0,0.8283,optionLeft,70,7715,4,7,0,7,0,1,,,,,,,,,,,,,,,,,,,,,,,,,,,,,,,,,,,,,,,
,,,,,,,,2023-08-16_08h35.30.220,HF_wild_card,2022.2.4,Win32,235.0728726,614d9188dc315950026a6102,64d2fd46c836a06233681665,64dc7c3ba2ce67ee1b033467,,,,,,,decisionTrl,resources/DP.BMP,resources/DB.BMP,Door3,-0.425694444,0.027777778,1,0,0,0.6072,optionLeft,70,7785,4,8,0,8,0,1,,,,,,,,,,,,,,,,,,,,,,,,,,,,,,,,,,,,,,,
,,,,,,,,2023-08-16_08h35.30.220,HF_wild_card,2022.2.4,Win32,235.0728726,614d9188dc315950026a6102,64d2fd46c836a06233681665,64dc7c3ba2ce67ee1b033467,,,,,,,sngl,resources/DB.BMP,resources/Empty.png,Door4,-0.325,0.017361111,1,0,0,0.6528,optionLeft,60,7845,4,9,0,9,0,1,,,,,,,,,,,,,,,,,,,,,,,,,,,,,,,,,,,,,,,
,,,,,,,,2023-08-16_08h35.30.220,HF_wild_card,2022.2.4,Win32,235.0728726,614d9188dc315950026a6102,64d2fd46c836a06233681665,64dc7c3ba2ce67ee1b033467,,,,,,,sngl,resources/Empty.png,resources/DP.BMP,Door3,0.317361111,-0.023611111,1,0,0,0.6158,optionRight,70,7915,4,10,0,10,0,1,,,,,,,,,,,,,,,,,,,,,,,,,,,,,,,,,,,,,,,
,,,,,,,,2023-08-16_08h35.30.220,HF_wild_card,2022.2.4,Win32,235.0728726,614d9188dc315950026a6102,64d2fd46c836a06233681665,64dc7c3ba2ce67ee1b033467,,,,,,,decisionTrl,resources/DR.BMP,resources/DG.BMP,WildCard_NonEx,0.355555556,-0.029861111,1,0,0,0.6032,optionRight,45,7960,4,11,0,11,0,1,,,,,,,,,,,,,,,,,,,,,,,,,,,,,,,,,,,,,,,
,,,,,,,,2023-08-16_08h35.30.220,HF_wild_card,2022.2.4,Win32,235.0728726,614d9188dc315950026a6102,64d2fd46c836a06233681665,64dc7c3ba2ce67ee1b033467,,,,,,,sngl,resources/Empty.png,resources/DR.BMP,Door2,0.268055556,-0.017361111,1,0,0,1.0948,optionRight,40,8000,4,12,0,12,0,1,,,,,,,,,,,,,,,,,,,,,,,,,,,,,,,,,,,,,,,
,,,,,,,,2023-08-16_08h35.30.220,HF_wild_card,2022.2.4,Win32,235.0728726,614d9188dc315950026a6102,64d2fd46c836a06233681665,64dc7c3ba2ce67ee1b033467,,,,,,,decisionTrl,resources/DY.BMP,resources/DR.BMP,Door2,0.245138889,-0.018055556,1,0,0,1.0366,optionRight,20,8020,4,13,0,13,0,1,,,,,,,,,,,,,,,,,,,,,,,,,,,,,,,,,,,,,,,
,,,,,,,,2023-08-16_08h35.30.220,HF_wild_card,2022.2.4,Win32,235.0728726,614d9188dc315950026a6102,64d2fd46c836a06233681665,64dc7c3ba2ce67ee1b033467,,,,,,,decisionTrl,resources/DG.BMP,resources/DB.BMP,Door4,0.329861111,-0.050694444,1,0,0,1.9869,optionRight,60,8080,4,14,0,14,0,1,,,,,,,,,,,,,,,,,,,,,,,,,,,,,,,,,,,,,,,
,,,,,,,,2023-08-16_08h35.30.220,HF_wild_card,2022.2.4,Win32,235.0728726,614d9188dc315950026a6102,64d2fd46c836a06233681665,64dc7c3ba2ce67ee1b033467,,,,,,,decisionTrl,resources/DY.BMP,resources/DR.BMP,Door2,0.3125,-0.021527778,1,0,0,1.6823,optionRight,40,8120,4,15,0,15,0,1,,,,,,,,,,,,,,,,,,,,,,,,,,,,,,,,,,,,,,,
,,,,,,,,2023-08-16_08h35.30.220,HF_wild_card,2022.2.4,Win32,235.0728726,614d9188dc315950026a6102,64d2fd46c836a06233681665,64dc7c3ba2ce67ee1b033467,,,,,,,ctch,resources/DY.BMP,resources/DB.BMP,Door4,0.275694444,-0.00625,1,0,0,1.0159,optionRight,80,8200,4,16,0,16,0,1,,,,,,,,,,,,,,,,,,,,,,,,,,,,,,,,,,,,,,,
,,,,,,,,2023-08-16_08h35.30.220,HF_wild_card,2022.2.4,Win32,235.0728726,614d9188dc315950026a6102,64d2fd46c836a06233681665,64dc7c3ba2ce67ee1b033467,,,,,,,sngl,resources/Empty.png,resources/DG.BMP,WildCard_NonEx,0.397916667,-0.005555556,1,0,0,0.8531,optionRight,55,8255,4,17,0,17,0,1,,,,,,,,,,,,,,,,,,,,,,,,,,,,,,,,,,,,,,,
,,,,,,,,2023-08-16_08h35.30.220,HF_wild_card,2022.2.4,Win32,235.0728726,614d9188dc315950026a6102,64d2fd46c836a06233681665,64dc7c3ba2ce67ee1b033467,,,,,,,sngl,resources/Empty.png,resources/DY.BMP,Door1,0.271527778,-0.021527778,1,0,0,0.578,optionRight,30,8285,4,18,0,18,0,1,,,,,,,,,,,,,,,,,,,,,,,,,,,,,,,,,,,,,,,
,,,,,,,,2023-08-16_08h35.30.220,HF_wild_card,2022.2.4,Win32,235.0728726,614d9188dc315950026a6102,64d2fd46c836a06233681665,64dc7c3ba2ce67ee1b033467,,,,,,,decisionTrl,resources/DP.BMP,resources/DG.BMP,Door3,-0.252083333,0.045138889,1,0,0,1.0947,optionLeft,70,8355,4,19,0,19,0,1,,,,,,,,,,,,,,,,,,,,,,,,,,,,,,,,,,,,,,,
,,,,,,,,2023-08-16_08h35.30.220,HF_wild_card,2022.2.4,Win32,235.0728726,614d9188dc315950026a6102,64d2fd46c836a06233681665,64dc7c3ba2ce67ee1b033467,,,,,,,ctch,resources/DR.BMP,resources/DP.BMP,Door3,0.342361111,-0.013888889,1,0,0,0.7072,optionRight,70,8425,4,20,0,20,0,1,,,,,,,,,,,,,,,,,,,,,,,,,,,,,,,,,,,,,,,
,,,,,,,,2023-08-16_08h35.30.220,HF_wild_card,2022.2.4,Win32,235.0728726,614d9188dc315950026a6102,64d2fd46c836a06233681665,64dc7c3ba2ce67ee1b033467,,,,,,,decisionTrl,resources/DP.BMP,resources/DB.BMP,Door4,0.26875,-0.022222222,1,0,0,0.5488,optionRight,60,8485,4,21,0,21,0,1,,,,,,,,,,,,,,,,,,,,,,,,,,,,,,,,,,,,,,,
,,,,,,,,2023-08-16_08h35.30.220,HF_wild_card,2022.2.4,Win32,235.0728726,614d9188dc315950026a6102,64d2fd46c836a06233681665,64dc7c3ba2ce67ee1b033467,,,,,,,sngl,resources/DG.BMP,resources/Empty.png,WildCard_NonEx,-0.355555556,0.027777778,1,0,0,0.6154,optionLeft,45,8530,4,22,0,22,0,1,,,,,,,,,,,,,,,,,,,,,,,,,,,,,,,,,,,,,,,
,,,,,,,,2023-08-16_08h35.30.220,HF_wild_card,2022.2.4,Win32,235.0728726,614d9188dc315950026a6102,64d2fd46c836a06233681665,64dc7c3ba2ce67ee1b033467,,,,,,,decisionTrl,resources/DB.BMP,resources/DP.BMP,Door3,0.359722222,-0.002777778,1,0,0,0.928,optionRight,70,8600,4,23,0,23,0,1,,,,,,,,,,,,,,,,,,,,,,,,,,,,,,,,,,,,,,,
,,,,,,,,2023-08-16_08h35.30.220,HF_wild_card,2022.2.4,Win32,235.0728726,614d9188dc315950026a6102,64d2fd46c836a06233681665,64dc7c3ba2ce67ee1b033467,,,,,,,sngl,resources/Empty.png,resources/DB.BMP,Door4,0.309722222,-0.061805556,1,0,0,0.4905,optionRight,80,8680,4,24,0,24,0,1,,,,,,,,,,,,,,,,,,,,,,,,,,,,,,,,,,,,,,,
,,,,,,,,2023-08-16_08h35.30.220,HF_wild_card,2022.2.4,Win32,235.0728726,614d9188dc315950026a6102,64d2fd46c836a06233681665,64dc7c3ba2ce67ee1b033467,,,,,,,sngl,resources/DG.BMP,resources/Empty.png,WildCard_NonEx,-0.363194444,-0.019444444,1,0,0,0.4409,optionLeft,55,8735,4,25,0,25,0,1,,,,,,,,,,,,,,,,,,,,,,,,,,,,,,,,,,,,,,,
,,,,,,,,2023-08-16_08h35.30.220,HF_wild_card,2022.2.4,Win32,235.0728726,614d9188dc315950026a6102,64d2fd46c836a06233681665,64dc7c3ba2ce67ee1b033467,,,,,,,decisionTrl,resources/DG.BMP,resources/DR.BMP,WildCard_NonEx,-0.286805556,0.004861111,1,0,0,0.7612,optionLeft,45,8780,4,26,0,26,0,1,,,,,,,,,,,,,,,,,,,,,,,,,,,,,,,,,,,,,,,
,,,,,,,,2023-08-16_08h35.30.220,HF_wild_card,2022.2.4,Win32,235.0728726,614d9188dc315950026a6102,64d2fd46c836a06233681665,64dc7c3ba2ce67ee1b033467,,,,,,,decisionTrl,resources/DY.BMP,resources/DR.BMP,Door1,-0.258333333,0.018055556,1,0,0,1.27,optionLeft,30,8810,4,27,0,27,0,1,,,,,,,,,,,,,,,,,,,,,,,,,,,,,,,,,,,,,,,
,,,,,,,,2023-08-16_08h35.30.220,HF_wild_card,2022.2.4,Win32,235.0728726,614d9188dc315950026a6102,64d2fd46c836a06233681665,64dc7c3ba2ce67ee1b033467,,,,,,,ctch,resources/DP.BMP,resources/DR.BMP,Door3,-0.391666667,0.051388889,1,0,0,0.5488,optionLeft,70,8880,4,28,0,28,0,1,,,,,,,,,,,,,,,,,,,,,,,,,,,,,,,,,,,,,,,
,,,,,,,,2023-08-16_08h35.30.220,HF_wild_card,2022.2.4,Win32,235.0728726,614d9188dc315950026a6102,64d2fd46c836a06233681665,64dc7c3ba2ce67ee1b033467,,,,,,,decisionTrl,resources/DB.BMP,resources/DG.BMP,Door4,-0.36875,-0.010416667,1,0,0,2.1743,optionLeft,80,8960,4,29,0,29,0,1,,,,,,,,,,,,,,,,,,,,,,,,,,,,,,,,,,,,,,,
,,,,,,,,2023-08-16_08h35.30.220,HF_wild_card,2022.2.4,Win32,235.0728726,614d9188dc315950026a6102,64d2fd46c836a06233681665,64dc7c3ba2ce67ee1b033467,,,,,,,decisionTrl,resources/DY.BMP,resources/DG.BMP,WildCard_NonEx,0.340972222,0.007638889,1,0,0,3.8415,optionRight,55,9015,4,30,0,30,0,1,,,,,,,,,,,,,,,,,,,,,,,,,,,,,,,,,,,,,,,
,,,,,,,,2023-08-16_08h35.30.220,HF_wild_card,2022.2.4,Win32,235.0728726,614d9188dc315950026a6102,64d2fd46c836a06233681665,64dc7c3ba2ce67ee1b033467,,,,,,,sngl,resources/Empty.png,resources/DG.BMP,WildCard_NonEx,0.302083333,-0.024305556,1,0,0,0.528,optionRight,45,9060,4,31,0,31,0,1,,,,,,,,,,,,,,,,,,,,,,,,,,,,,,,,,,,,,,,
,,,,,,,,2023-08-16_08h35.30.220,HF_wild_card,2022.2.4,Win32,235.0728726,614d9188dc315950026a6102,64d2fd46c836a06233681665,64dc7c3ba2ce67ee1b033467,,,,,,,decisionTrl,resources/DP.BMP,resources/DB.BMP,Door3,-0.372916667,0.001388889,1,0,0,0.7237,optionLeft,70,9130,4,32,0,32,0,1,,,,,,,,,,,,,,,,,,,,,,,,,,,,,,,,,,,,,,,
,,,,,,,,2023-08-16_08h35.30.220,HF_wild_card,2022.2.4,Win32,235.0728726,614d9188dc315950026a6102,64d2fd46c836a06233681665,64dc7c3ba2ce67ee1b033467,,,,,,,ctch,resources/DB.BMP,resources/DY.BMP,Door4,-0.3,-0.014583333,1,0,0,1.8992,optionLeft,60,9190,4,33,0,33,0,1,,,,,,,,,,,,,,,,,,,,,,,,,,,,,,,,,,,,,,,
,,,,,,,,2023-08-16_08h35.30.220,HF_wild_card,2022.2.4,Win32,235.0728726,614d9188dc315950026a6102,64d2fd46c836a06233681665,64dc7c3ba2ce67ee1b033467,,,,,,,decisionTrl,resources/DR.BMP,resources/DY.BMP,Door2,-0.318055556,-0.05,1,0,0,1.3991,optionLeft,40,9230,4,34,0,34,0,1,,,,,,,,,,,,,,,,,,,,,,,,,,,,,,,,,,,,,,,
,,,,,,,,2023-08-16_08h35.30.220,HF_wild_card,2022.2.4,Win32,235.0728726,614d9188dc315950026a6102,64d2fd46c836a06233681665,64dc7c3ba2ce67ee1b033467,,,,,,,decisionTrl,resources/DB.BMP,resources/DP.BMP,Door3,0.379166667,-0.045833333,1,0,0,0.5991,optionRight,70,9300,4,35,0,35,0,1,,,,,,,,,,,,,,,,,,,,,,,,,,,,,,,,,,,,,,,
,,,,,,,,2023-08-16_08h35.30.220,HF_wild_card,2022.2.4,Win32,235.0728726,614d9188dc315950026a6102,64d2fd46c836a06233681665,64dc7c3ba2ce67ee1b033467,,,,,,,sngl,resources/DP.BMP,resources/Empty.png,Door3,-0.352083333,0.028472222,1,0,0,0.4491,optionLeft,70,9370,4,36,0,36,0,1,,,,,,,,,,,,,,,,,,,,,,,,,,,,,,,,,,,,,,,
,,,,,,,,2023-08-16_08h35.30.220,HF_wild_card,2022.2.4,Win32,235.0728726,614d9188dc315950026a6102,64d2fd46c836a06233681665,64dc7c3ba2ce67ee1b033467,,,,,,,decisionTrl,resources/DR.BMP,resources/DY.BMP,Door2,-0.302777778,0.024305556,1,0,0,2.1451,optionLeft,40,9410,4,37,0,37,0,1,,,,,,,,,,,,,,,,,,,,,,,,,,,,,,,,,,,,,,,
,,,,,,,,2023-08-16_08h35.30.220,HF_wild_card,2022.2.4,Win32,235.0728726,614d9188dc315950026a6102,64d2fd46c836a06233681665,64dc7c3ba2ce67ee1b033467,,,,,,,ctch,resources/DR.BMP,resources/DP.BMP,Door3,0.421527778,-0.033333333,1,0,0,0.4737,optionRight,70,9480,4,38,0,38,0,1,,,,,,,,,,,,,,,,,,,,,,,,,,,,,,,,,,,,,,,
,,,,,,,,2023-08-16_08h35.30.220,HF_wild_card,2022.2.4,Win32,235.0728726,614d9188dc315950026a6102,64d2fd46c836a06233681665,64dc7c3ba2ce67ee1b033467,,,,,,,decisionTrl,resources/DR.BMP,resources/DY.BMP,Door2,-0.292361111,-0.008333333,1,0,0,1.7411,optionLeft,20,9500,4,39,0,39,0,1,,,,,,,,,,,,,,,,,,,,,,,,,,,,,,,,,,,,,,,
,,,,,,,,2023-08-16_08h35.30.220,HF_wild_card,2022.2.4,Win32,235.0728726,614d9188dc315950026a6102,64d2fd46c836a06233681665,64dc7c3ba2ce67ee1b033467,,,,,,,decisionTrl,resources/DB.BMP,resources/DP.BMP,Door3,0.445833333,-0.046527778,1,0,0,0.4197,optionRight,70,9570,4,40,0,40,0,1,,,,,,,,,,,,,,,,,,,,,,,,,,,,,,,,,,,,,,,
,,,,,,,,2023-08-16_08h35.30.220,HF_wild_card,2022.2.4,Win32,235.0728726,614d9188dc315950026a6102,64d2fd46c836a06233681665,64dc7c3ba2ce67ee1b033467,,,,,,,sngl,resources/DR.BMP,resources/Empty.png,Door2,-0.401388889,0.0125,1,0,0,0.382,optionLeft,20,9590,4,41,0,41,0,1,,,,,,,,,,,,,,,,,,,,,,,,,,,,,,,,,,,,,,,
,,,,,,,,2023-08-16_08h35.30.220,HF_wild_card,2022.2.4,Win32,235.0728726,614d9188dc315950026a6102,64d2fd46c836a06233681665,64dc7c3ba2ce67ee1b033467,,,,,,,decisionTrl,resources/DG.BMP,resources/DY.BMP,WildCard_NonEx,-0.248611111,0.006944444,1,0,0,0.9242,optionLeft,45,9635,4,42,0,42,0,1,,,,,,,,,,,,,,,,,,,,,,,,,,,,,,,,,,,,,,,
,,,,,,,,2023-08-16_08h35.30.220,HF_wild_card,2022.2.4,Win32,235.0728726,614d9188dc315950026a6102,64d2fd46c836a06233681665,64dc7c3ba2ce67ee1b033467,,,,,,,sngl,resources/DY.BMP,resources/Empty.png,Door1,-0.375,0.005555556,1,0,0,0.4324,optionLeft,30,9665,4,43,0,43,0,1,,,,,,,,,,,,,,,,,,,,,,,,,,,,,,,,,,,,,,,
,,,,,,,,2023-08-16_08h35.30.220,HF_wild_card,2022.2.4,Win32,235.0728726,614d9188dc315950026a6102,64d2fd46c836a06233681665,64dc7c3ba2ce67ee1b033467,,,,,,,,,,,,,,,,,,,,,,,,,,3,0,3,0,1,,,,,,,,,,,,,,,,,,,,,,,,,,,,,,,,,,
,,,,,,,,2023-08-16_08h35.30.220,HF_wild_card,2022.2.4,Win32,235.0728726,614d9188dc315950026a6102,64d2fd46c836a06233681665,64dc7c3ba2ce67ee1b033467,,,,,,,decisionTrl,resources/DP.BMP,resources/DG.BMP,Door3,-0.35,-0.050694444,1,0,0,1.7548,optionLeft,70,9735,5,0,0,0,0,1,,,,,,,,,,,,,,,,,,,,,,,,,,,,,,,,,,,,,,,
,,,,,,,,2023-08-16_08h35.30.220,HF_wild_card,2022.2.4,Win32,235.0728726,614d9188dc315950026a6102,64d2fd46c836a06233681665,64dc7c3ba2ce67ee1b033467,,,,,,,decisionTrl,resources/DR.BMP,resources/DY.BMP,Door1,0.421527778,-0.011111111,1,0,0,1.3072,optionRight,30,9765,5,1,0,1,0,1,,,,,,,,,,,,,,,,,,,,,,,,,,,,,,,,,,,,,,,
,,,,,,,,2023-08-16_08h35.30.220,HF_wild_card,2022.2.4,Win32,235.0728726,614d9188dc315950026a6102,64d2fd46c836a06233681665,64dc7c3ba2ce67ee1b033467,,,,,,,sngl,resources/DY.BMP,resources/Empty.png,Door1,-0.382638889,-0.045138889,1,0,0,0.3905,optionLeft,30,9795,5,2,0,2,0,1,,,,,,,,,,,,,,,,,,,,,,,,,,,,,,,,,,,,,,,
,,,,,,,,2023-08-16_08h35.30.220,HF_wild_card,2022.2.4,Win32,235.0728726,614d9188dc315950026a6102,64d2fd46c836a06233681665,64dc7c3ba2ce67ee1b033467,,,,,,,decisionTrl,resources/DY.BMP,resources/DG.BMP,WildCard_NonEx,0.395833333,-0.026388889,1,0,0,1.0618,optionRight,55,9850,5,3,0,3,0,1,,,,,,,,,,,,,,,,,,,,,,,,,,,,,,,,,,,,,,,
,,,,,,,,2023-08-16_08h35.30.220,HF_wild_card,2022.2.4,Win32,235.0728726,614d9188dc315950026a6102,64d2fd46c836a06233681665,64dc7c3ba2ce67ee1b033467,,,,,,,decisionTrl,resources/DG.BMP,resources/DY.BMP,WildCard_NonEx,-0.353472222,0.001388889,1,0,0,0.6284,optionLeft,45,9895,5,4,0,4,0,1,,,,,,,,,,,,,,,,,,,,,,,,,,,,,,,,,,,,,,,
,,,,,,,,2023-08-16_08h35.30.220,HF_wild_card,2022.2.4,Win32,235.0728726,614d9188dc315950026a6102,64d2fd46c836a06233681665,64dc7c3ba2ce67ee1b033467,,,,,,,decisionTrl,resources/DY.BMP,resources/DR.BMP,Door1,-0.328472222,-0.044444444,1,0,0,3.6586,optionLeft,30,9925,5,5,0,5,0,1,,,,,,,,,,,,,,,,,,,,,,,,,,,,,,,,,,,,,,,
,,,,,,,,2023-08-16_08h35.30.220,HF_wild_card,2022.2.4,Win32,235.0728726,614d9188dc315950026a6102,64d2fd46c836a06233681665,64dc7c3ba2ce67ee1b033467,,,,,,,ctch,resources/DP.BMP,resources/DR.BMP,Door3,-0.347222222,-0.027083333,1,0,0,0.6033,optionLeft,70,9995,5,6,0,6,0,1,,,,,,,,,,,,,,,,,,,,,,,,,,,,,,,,,,,,,,,
,,,,,,,,2023-08-16_08h35.30.220,HF_wild_card,2022.2.4,Win32,235.0728726,614d9188dc315950026a6102,64d2fd46c836a06233681665,64dc7c3ba2ce67ee1b033467,,,,,,,decisionTrl,resources/DY.BMP,resources/DR.BMP,Door2,0.372916667,-0.014583333,1,0,0,1.0118,optionRight,40,10035,5,7,0,7,0,1,,,,,,,,,,,,,,,,,,,,,,,,,,,,,,,,,,,,,,,
,,,,,,,,2023-08-16_08h35.30.220,HF_wild_card,2022.2.4,Win32,235.0728726,614d9188dc315950026a6102,64d2fd46c836a06233681665,64dc7c3ba2ce67ee1b033467,,,,,,,sngl,resources/DB.BMP,resources/Empty.png,Door4,-0.353472222,0.009027778,1,0,0,0.4943,optionLeft,80,10115,5,8,0,8,0,1,,,,,,,,,,,,,,,,,,,,,,,,,,,,,,,,,,,,,,,
,,,,,,,,2023-08-16_08h35.30.220,HF_wild_card,2022.2.4,Win32,235.0728726,614d9188dc315950026a6102,64d2fd46c836a06233681665,64dc7c3ba2ce67ee1b033467,,,,,,,sngl,resources/Empty.png,resources/DR.BMP,Door2,0.258333333,-0.026388889,1,0,0,0.4239,optionRight,20,10135,5,9,0,9,0,1,,,,,,,,,,,,,,,,,,,,,,,,,,,,,,,,,,,,,,,
,,,,,,,,2023-08-16_08h35.30.220,HF_wild_card,2022.2.4,Win32,235.0728726,614d9188dc315950026a6102,64d2fd46c836a06233681665,64dc7c3ba2ce67ee1b033467,,,,,,,decisionTrl,resources/DR.BMP,resources/DY.BMP,Door1,0.284027778,-0.019444444,1,0,0,1.3971,optionRight,30,10165,5,10,0,10,0,1,,,,,,,,,,,,,,,,,,,,,,,,,,,,,,,,,,,,,,,
,,,,,,,,2023-08-16_08h35.30.220,HF_wild_card,2022.2.4,Win32,235.0728726,614d9188dc315950026a6102,64d2fd46c836a06233681665,64dc7c3ba2ce67ee1b033467,,,,,,,decisionTrl,resources/DY.BMP,resources/DR.BMP,Door1,-0.254166667,0.000694444,1,0,0,0.9614,optionLeft,30,10195,5,11,0,11,0,1,,,,,,,,,,,,,,,,,,,,,,,,,,,,,,,,,,,,,,,
,,,,,,,,2023-08-16_08h35.30.220,HF_wild_card,2022.2.4,Win32,235.0728726,614d9188dc315950026a6102,64d2fd46c836a06233681665,64dc7c3ba2ce67ee1b033467,,,,,,,sngl,resources/DP.BMP,resources/Empty.png,Door3,-0.356944444,0.000694444,1,0,0,0.3858,optionLeft,70,10265,5,12,0,12,0,1,,,,,,,,,,,,,,,,,,,,,,,,,,,,,,,,,,,,,,,
,,,,,,,,2023-08-16_08h35.30.220,HF_wild_card,2022.2.4,Win32,235.0728726,614d9188dc315950026a6102,64d2fd46c836a06233681665,64dc7c3ba2ce67ee1b033467,,,,,,,sngl,resources/Empty.png,resources/DY.BMP,Door1,0.276388889,-0.024305556,1,0,0,0.4381,optionRight,30,10295,5,13,0,13,0,1,,,,,,,,,,,,,,,,,,,,,,,,,,,,,,,,,,,,,,,
,,,,,,,,2023-08-16_08h35.30.220,HF_wild_card,2022.2.4,Win32,235.0728726,614d9188dc315950026a6102,64d2fd46c836a06233681665,64dc7c3ba2ce67ee1b033467,,,,,,,decisionTrl,resources/DB.BMP,resources/DP.BMP,Door3,0.259027778,-0.025694444,1,0,0,0.5164,optionRight,70,10365,5,14,0,14,0,1,,,,,,,,,,,,,,,,,,,,,,,,,,,,,,,,,,,,,,,
,,,,,,,,2023-08-16_08h35.30.220,HF_wild_card,2022.2.4,Win32,235.0728726,614d9188dc315950026a6102,64d2fd46c836a06233681665,64dc7c3ba2ce67ee1b033467,,,,,,,decisionTrl,resources/DB.BMP,resources/DP.BMP,Door3,0.194444444,-0.020138889,1,0,0,0.46,optionRight,70,10435,5,15,0,15,0,1,,,,,,,,,,,,,,,,,,,,,,,,,,,,,,,,,,,,,,,
,,,,,,,,2023-08-16_08h35.30.220,HF_wild_card,2022.2.4,Win32,235.0728726,614d9188dc315950026a6102,64d2fd46c836a06233681665,64dc7c3ba2ce67ee1b033467,,,,,,,decisionTrl,resources/DR.BMP,resources/DY.BMP,Door2,-0.243055556,-0.013888889,1,0,0,0.9784,optionLeft,40,10475,5,16,0,16,0,1,,,,,,,,,,,,,,,,,,,,,,,,,,,,,,,,,,,,,,,
,,,,,,,,2023-08-16_08h35.30.220,HF_wild_card,2022.2.4,Win32,235.0728726,614d9188dc315950026a6102,64d2fd46c836a06233681665,64dc7c3ba2ce67ee1b033467,,,,,,,sngl,resources/Empty.png,resources/DG.BMP,WildCard_NonEx,0.297916667,-0.034027778,1,0,0,0.4697,optionRight,55,10530,5,17,0,17,0,1,,,,,,,,,,,,,,,,,,,,,,,,,,,,,,,,,,,,,,,
,,,,,,,,2023-08-16_08h35.30.220,HF_wild_card,2022.2.4,Win32,235.0728726,614d9188dc315950026a6102,64d2fd46c836a06233681665,64dc7c3ba2ce67ee1b033467,,,,,,,decisionTrl,resources/DR.BMP,resources/DY.BMP,Door2,-0.292361111,0.010416667,1,0,0,1.3353,optionLeft,20,10550,5,18,0,18,0,1,,,,,,,,,,,,,,,,,,,,,,,,,,,,,,,,,,,,,,,
,,,,,,,,2023-08-16_08h35.30.220,HF_wild_card,2022.2.4,Win32,235.0728726,614d9188dc315950026a6102,64d2fd46c836a06233681665,64dc7c3ba2ce67ee1b033467,,,,,,,ctch,resources/DB.BMP,resources/DY.BMP,Door4,-0.261805556,-0.003472222,1,0,0,0.4447,optionLeft,80,10630,5,19,0,19,0,1,,,,,,,,,,,,,,,,,,,,,,,,,,,,,,,,,,,,,,,
,,,,,,,,2023-08-16_08h35.30.220,HF_wild_card,2022.2.4,Win32,235.0728726,614d9188dc315950026a6102,64d2fd46c836a06233681665,64dc7c3ba2ce67ee1b033467,,,,,,,decisionTrl,resources/DG.BMP,resources/DP.BMP,Door3,0.290277778,-0.033333333,1,0,0,0.697,optionRight,70,10700,5,20,0,20,0,1,,,,,,,,,,,,,,,,,,,,,,,,,,,,,,,,,,,,,,,
,,,,,,,,2023-08-16_08h35.30.220,HF_wild_card,2022.2.4,Win32,235.0728726,614d9188dc315950026a6102,64d2fd46c836a06233681665,64dc7c3ba2ce67ee1b033467,,,,,,,decisionTrl,resources/DR.BMP,resources/DG.BMP,WildCard_NonEx,0.253472222,-0.017361111,1,0,0,0.9389,optionRight,55,10755,5,21,0,21,0,1,,,,,,,,,,,,,,,,,,,,,,,,,,,,,,,,,,,,,,,
,,,,,,,,2023-08-16_08h35.30.220,HF_wild_card,2022.2.4,Win32,235.0728726,614d9188dc315950026a6102,64d2fd46c836a06233681665,64dc7c3ba2ce67ee1b033467,,,,,,,decisionTrl,resources/DG.BMP,resources/DR.BMP,WildCard_NonEx,-0.283333333,0.016666667,1,0,0,0.4282,optionLeft,55,10810,5,22,0,22,0,1,,,,,,,,,,,,,,,,,,,,,,,,,,,,,,,,,,,,,,,
,,,,,,,,2023-08-16_08h35.30.220,HF_wild_card,2022.2.4,Win32,235.0728726,614d9188dc315950026a6102,64d2fd46c836a06233681665,64dc7c3ba2ce67ee1b033467,,,,,,,ctch,resources/DR.BMP,resources/DP.BMP,Door3,0.306944444,-0.020138889,1,0,0,0.4086,optionRight,70,10880,5,23,0,23,0,1,,,,,,,,,,,,,,,,,,,,,,,,,,,,,,,,,,,,,,,
,,,,,,,,2023-08-16_08h35.30.220,HF_wild_card,2022.2.4,Win32,235.0728726,614d9188dc315950026a6102,64d2fd46c836a06233681665,64dc7c3ba2ce67ee1b033467,,,,,,,sngl,resources/Empty.png,resources/DB.BMP,Door4,0.359722222,-0.014583333,1,0,0,0.3933,optionRight,60,10940,5,24,0,24,0,1,,,,,,,,,,,,,,,,,,,,,,,,,,,,,,,,,,,,,,,
,,,,,,,,2023-08-16_08h35.30.220,HF_wild_card,2022.2.4,Win32,235.0728726,614d9188dc315950026a6102,64d2fd46c836a06233681665,64dc7c3ba2ce67ee1b033467,,,,,,,ctch,resources/DB.BMP,resources/DY.BMP,Door4,-0.386805556,-0.002083333,1,0,0,0.6878,optionLeft,80,11020,5,25,0,25,0,1,,,,,,,,,,,,,,,,,,,,,,,,,,,,,,,,,,,,,,,
,,,,,,,,2023-08-16_08h35.30.220,HF_wild_card,2022.2.4,Win32,235.0728726,614d9188dc315950026a6102,64d2fd46c836a06233681665,64dc7c3ba2ce67ee1b033467,,,,,,,ctch,resources/DP.BMP,resources/DR.BMP,Door3,-0.327777778,0.013888889,1,0,0,0.603,optionLeft,70,11090,5,26,0,26,0,1,,,,,,,,,,,,,,,,,,,,,,,,,,,,,,,,,,,,,,,
,,,,,,,,2023-08-16_08h35.30.220,HF_wild_card,2022.2.4,Win32,235.0728726,614d9188dc315950026a6102,64d2fd46c836a06233681665,64dc7c3ba2ce67ee1b033467,,,,,,,ctch,resources/DY.BMP,resources/DB.BMP,Door4,0.196527778,-0.007638889,1,0,0,0.474,optionRight,60,11150,5,27,0,27,0,1,,,,,,,,,,,,,,,,,,,,,,,,,,,,,,,,,,,,,,,
,,,,,,,,2023-08-16_08h35.30.220,HF_wild_card,2022.2.4,Win32,235.0728726,614d9188dc315950026a6102,64d2fd46c836a06233681665,64dc7c3ba2ce67ee1b033467,,,,,,,decisionTrl,resources/DB.BMP,resources/DP.BMP,Door3,0.304861111,-0.016666667,1,0,0,0.4991,optionRight,70,11220,5,28,0,28,0,1,,,,,,,,,,,,,,,,,,,,,,,,,,,,,,,,,,,,,,,
,,,,,,,,2023-08-16_08h35.30.220,HF_wild_card,2022.2.4,Win32,235.0728726,614d9188dc315950026a6102,64d2fd46c836a06233681665,64dc7c3ba2ce67ee1b033467,,,,,,,decisionTrl,resources/DP.BMP,resources/DB.BMP,Door3,-0.397916667,0.023611111,1,0,0,0.449,optionLeft,70,11290,5,29,0,29,0,1,,,,,,,,,,,,,,,,,,,,,,,,,,,,,,,,,,,,,,,
,,,,,,,,2023-08-16_08h35.30.220,HF_wild_card,2022.2.4,Win32,235.0728726,614d9188dc315950026a6102,64d2fd46c836a06233681665,64dc7c3ba2ce67ee1b033467,,,,,,,sngl,resources/Empty.png,resources/DP.BMP,Door3,0.247222222,-0.013888889,1,0,0,0.3615,optionRight,70,11360,5,30,0,30,0,1,,,,,,,,,,,,,,,,,,,,,,,,,,,,,,,,,,,,,,,
,,,,,,,,2023-08-16_08h35.30.220,HF_wild_card,2022.2.4,Win32,235.0728726,614d9188dc315950026a6102,64d2fd46c836a06233681665,64dc7c3ba2ce67ee1b033467,,,,,,,sngl,resources/DG.BMP,resources/Empty.png,WildCard_NonEx,-0.402083333,0.018055556,1,0,0,0.3571,optionLeft,45,11405,5,31,0,31,0,1,,,,,,,,,,,,,,,,,,,,,,,,,,,,,,,,,,,,,,,
,,,,,,,,2023-08-16_08h35.30.220,HF_wild_card,2022.2.4,Win32,235.0728726,614d9188dc315950026a6102,64d2fd46c836a06233681665,64dc7c3ba2ce67ee1b033467,,,,,,,decisionTrl,resources/DP.BMP,resources/DB.BMP,Door3,-0.163888889,0.017361111,1,0,0,0.6449,optionLeft,70,11475,5,32,0,32,0,1,,,,,,,,,,,,,,,,,,,,,,,,,,,,,,,,,,,,,,,
,,,,,,,,2023-08-16_08h35.30.220,HF_wild_card,2022.2.4,Win32,235.0728726,614d9188dc315950026a6102,64d2fd46c836a06233681665,64dc7c3ba2ce67ee1b033467,,,,,,,sngl,resources/Empty.png,resources/DG.BMP,WildCard_NonEx,0.372222222,-0.038888889,1,0,0,0.386,optionRight,45,11520,5,33,0,33,0,1,,,,,,,,,,,,,,,,,,,,,,,,,,,,,,,,,,,,,,,
,,,,,,,,2023-08-16_08h35.30.220,HF_wild_card,2022.2.4,Win32,235.0728726,614d9188dc315950026a6102,64d2fd46c836a06233681665,64dc7c3ba2ce67ee1b033467,,,,,,,sngl,resources/DG.BMP,resources/Empty.png,WildCard_NonEx,-0.344444444,0.020833333,1,0,0,0.345,optionLeft,55,11575,5,34,0,34,0,1,,,,,,,,,,,,,,,,,,,,,,,,,,,,,,,,,,,,,,,
,,,,,,,,2023-08-16_08h35.30.220,HF_wild_card,2022.2.4,Win32,235.0728726,614d9188dc315950026a6102,64d2fd46c836a06233681665,64dc7c3ba2ce67ee1b033467,,,,,,,decisionTrl,resources/DP.BMP,resources/DB.BMP,Door3,-0.317361111,0.009027778,1,0,0,0.7158,optionLeft,70,11645,5,35,0,35,0,1,,,,,,,,,,,,,,,,,,,,,,,,,,,,,,,,,,,,,,,
,,,,,,,,2023-08-16_08h35.30.220,HF_wild_card,2022.2.4,Win32,235.0728726,614d9188dc315950026a6102,64d2fd46c836a06233681665,64dc7c3ba2ce67ee1b033467,,,,,,,decisionTrl,resources/DG.BMP,resources/DB.BMP,Door4,0.286805556,-0.022916667,1,0,0,0.424,optionRight,80,11725,5,36,0,36,0,1,,,,,,,,,,,,,,,,,,,,,,,,,,,,,,,,,,,,,,,
,,,,,,,,2023-08-16_08h35.30.220,HF_wild_card,2022.2.4,Win32,235.0728726,614d9188dc315950026a6102,64d2fd46c836a06233681665,64dc7c3ba2ce67ee1b033467,,,,,,,sngl,resources/DR.BMP,resources/Empty.png,Door2,-0.358333333,0.011805556,1,0,0,0.3821,optionLeft,40,11765,5,37,0,37,0,1,,,,,,,,,,,,,,,,,,,,,,,,,,,,,,,,,,,,,,,
,,,,,,,,2023-08-16_08h35.30.220,HF_wild_card,2022.2.4,Win32,235.0728726,614d9188dc315950026a6102,64d2fd46c836a06233681665,64dc7c3ba2ce67ee1b033467,,,,,,,decisionTrl,resources/DB.BMP,resources/DP.BMP,Door3,0.367361111,-0.036805556,1,0,0,0.4364,optionRight,70,11835,5,38,0,38,0,1,,,,,,,,,,,,,,,,,,,,,,,,,,,,,,,,,,,,,,,
,,,,,,,,2023-08-16_08h35.30.220,HF_wild_card,2022.2.4,Win32,235.0728726,614d9188dc315950026a6102,64d2fd46c836a06233681665,64dc7c3ba2ce67ee1b033467,,,,,,,decisionTrl,resources/DB.BMP,resources/DG.BMP,Door4,-0.297222222,-0.004166667,1,0,0,0.4489,optionLeft,60,11895,5,39,0,39,0,1,,,,,,,,,,,,,,,,,,,,,,,,,,,,,,,,,,,,,,,
,,,,,,,,2023-08-16_08h35.30.220,HF_wild_card,2022.2.4,Win32,235.0728726,614d9188dc315950026a6102,64d2fd46c836a06233681665,64dc7c3ba2ce67ee1b033467,,,,,,,ctch,resources/DR.BMP,resources/DP.BMP,Door3,0.31875,-0.033333333,1,0,0,0.3907,optionRight,70,11965,5,40,0,40,0,1,,,,,,,,,,,,,,,,,,,,,,,,,,,,,,,,,,,,,,,
,,,,,,,,2023-08-16_08h35.30.220,HF_wild_card,2022.2.4,Win32,235.0728726,614d9188dc315950026a6102,64d2fd46c836a06233681665,64dc7c3ba2ce67ee1b033467,,,,,,,decisionTrl,resources/DP.BMP,resources/DB.BMP,Door3,-0.290972222,0.010416667,1,0,0,2.4453,optionLeft,70,12035,5,41,0,41,0,1,,,,,,,,,,,,,,,,,,,,,,,,,,,,,,,,,,,,,,,
,,,,,,,,2023-08-16_08h35.30.220,HF_wild_card,2022.2.4,Win32,235.0728726,614d9188dc315950026a6102,64d2fd46c836a06233681665,64dc7c3ba2ce67ee1b033467,,,,,,,decisionTrl,resources/DY.BMP,resources/DR.BMP,Door2,0.256944444,-0.019444444,1,0,0,1.9119,optionRight,20,12055,5,42,0,42,0,1,,,,,,,,,,,,,,,,,,,,,,,,,,,,,,,,,,,,,,,
,,,,,,,,2023-08-16_08h35.30.220,HF_wild_card,2022.2.4,Win32,235.0728726,614d9188dc315950026a6102,64d2fd46c836a06233681665,64dc7c3ba2ce67ee1b033467,,,,,,,ctch,resources/DY.BMP,resources/DB.BMP,Door4,0.205555556,-0.010416667,1,0,0,0.4491,optionRight,80,12135,5,43,0,43,0,1,,,,,,,,,,,,,,,,,,,,,,,,,,,,,,,,,,,,,,,
,,,,,,,,2023-08-16_08h35.30.220,HF_wild_card,2022.2.4,Win32,235.0728726,614d9188dc315950026a6102,64d2fd46c836a06233681665,64dc7c3ba2ce67ee1b033467,,,,,,,,,,,,,,,,,,,,,,,,,,4,0,4,0,1,,,,,,,,,,,,,,,,,,,,,,,,,,,,,,,,,,
,,,,,,,,2023-08-16_08h35.30.220,HF_wild_card,2022.2.4,Win32,235.0728726,614d9188dc315950026a6102,64d2fd46c836a06233681665,64dc7c3ba2ce67ee1b033467,,,,,,,decisionTrl,resources/DG.BMP,resources/DR.BMP,WildCard_NonEx,-0.379166667,-0.033333333,1,0,0,1.1063,optionLeft,55,12190,6,0,0,0,0,1,,,,,,,,,,,,,,,,,,,,,,,,,,,,,,,,,,,,,,,
,,,,,,,,2023-08-16_08h35.30.220,HF_wild_card,2022.2.4,Win32,235.0728726,614d9188dc315950026a6102,64d2fd46c836a06233681665,64dc7c3ba2ce67ee1b033467,,,,,,,sngl,resources/DG.BMP,resources/Empty.png,WildCard_NonEx,-0.284722222,-0.03125,1,0,0,0.3407,optionLeft,45,12235,6,1,0,1,0,1,,,,,,,,,,,,,,,,,,,,,,,,,,,,,,,,,,,,,,,
,,,,,,,,2023-08-16_08h35.30.220,HF_wild_card,2022.2.4,Win32,235.0728726,614d9188dc315950026a6102,64d2fd46c836a06233681665,64dc7c3ba2ce67ee1b033467,,,,,,,decisionTrl,resources/DR.BMP,resources/DY.BMP,Door2,-0.317361111,0.023611111,1,0,0,0.8675,optionLeft,20,12255,6,2,0,2,0,1,,,,,,,,,,,,,,,,,,,,,,,,,,,,,,,,,,,,,,,
,,,,,,,,2023-08-16_08h35.30.220,HF_wild_card,2022.2.4,Win32,235.0728726,614d9188dc315950026a6102,64d2fd46c836a06233681665,64dc7c3ba2ce67ee1b033467,,,,,,,decisionTrl,resources/DB.BMP,resources/DP.BMP,Door3,0.279861111,-0.010416667,1,0,0,0.5112,optionRight,70,12325,6,3,0,3,0,1,,,,,,,,,,,,,,,,,,,,,,,,,,,,,,,,,,,,,,,
,,,,,,,,2023-08-16_08h35.30.220,HF_wild_card,2022.2.4,Win32,235.0728726,614d9188dc315950026a6102,64d2fd46c836a06233681665,64dc7c3ba2ce67ee1b033467,,,,,,,decisionTrl,resources/DR.BMP,resources/DY.BMP,Door2,-0.364583333,0.002083333,1,0,0,0.4406,optionLeft,40,12365,6,4,0,4,0,1,,,,,,,,,,,,,,,,,,,,,,,,,,,,,,,,,,,,,,,
,,,,,,,,2023-08-16_08h35.30.220,HF_wild_card,2022.2.4,Win32,235.0728726,614d9188dc315950026a6102,64d2fd46c836a06233681665,64dc7c3ba2ce67ee1b033467,,,,,,,decisionTrl,resources/DP.BMP,resources/DB.BMP,Door3,-0.267361111,0.020138889,1,0,0,0.9326,optionLeft,70,12435,6,5,0,5,0,1,,,,,,,,,,,,,,,,,,,,,,,,,,,,,,,,,,,,,,,
,,,,,,,,2023-08-16_08h35.30.220,HF_wild_card,2022.2.4,Win32,235.0728726,614d9188dc315950026a6102,64d2fd46c836a06233681665,64dc7c3ba2ce67ee1b033467,,,,,,,decisionTrl,resources/DY.BMP,resources/DR.BMP,Door1,-0.309027778,0.016666667,1,0,0,0.9032,optionLeft,30,12465,6,6,0,6,0,1,,,,,,,,,,,,,,,,,,,,,,,,,,,,,,,,,,,,,,,
,,,,,,,,2023-08-16_08h35.30.220,HF_wild_card,2022.2.4,Win32,235.0728726,614d9188dc315950026a6102,64d2fd46c836a06233681665,64dc7c3ba2ce67ee1b033467,,,,,,,decisionTrl,resources/DY.BMP,resources/DG.BMP,WildCard_NonEx,0.366666667,-0.004166667,1,0,0,0.649,optionRight,45,12510,6,7,0,7,0,1,,,,,,,,,,,,,,,,,,,,,,,,,,,,,,,,,,,,,,,
,,,,,,,,2023-08-16_08h35.30.220,HF_wild_card,2022.2.4,Win32,235.0728726,614d9188dc315950026a6102,64d2fd46c836a06233681665,64dc7c3ba2ce67ee1b033467,,,,,,,sngl,resources/DR.BMP,resources/Empty.png,Door2,-0.422916667,0.050694444,1,0,0,0.3573,optionLeft,20,12530,6,8,0,8,0,1,,,,,,,,,,,,,,,,,,,,,,,,,,,,,,,,,,,,,,,
,,,,,,,,2023-08-16_08h35.30.220,HF_wild_card,2022.2.4,Win32,235.0728726,614d9188dc315950026a6102,64d2fd46c836a06233681665,64dc7c3ba2ce67ee1b033467,,,,,,,sngl,resources/Empty.png,resources/DB.BMP,Door4,0.323611111,-0.013888889,1,0,0,0.4239,optionRight,80,12610,6,9,0,9,0,1,,,,,,,,,,,,,,,,,,,,,,,,,,,,,,,,,,,,,,,
,,,,,,,,2023-08-16_08h35.30.220,HF_wild_card,2022.2.4,Win32,235.0728726,614d9188dc315950026a6102,64d2fd46c836a06233681665,64dc7c3ba2ce67ee1b033467,,,,,,,sngl,resources/DP.BMP,resources/Empty.png,Door3,-0.338194444,-0.009722222,1,0,0,0.3448,optionLeft,70,12680,6,10,0,10,0,1,,,,,,,,,,,,,,,,,,,,,,,,,,,,,,,,,,,,,,,
,,,,,,,,2023-08-16_08h35.30.220,HF_wild_card,2022.2.4,Win32,235.0728726,614d9188dc315950026a6102,64d2fd46c836a06233681665,64dc7c3ba2ce67ee1b033467,,,,,,,ctch,resources/DP.BMP,resources/DR.BMP,Door3,-0.303472222,-0.002083333,1,0,0,0.4824,optionLeft,70,12750,6,11,0,11,0,1,,,,,,,,,,,,,,,,,,,,,,,,,,,,,,,,,,,,,,,
,,,,,,,,2023-08-16_08h35.30.220,HF_wild_card,2022.2.4,Win32,235.0728726,614d9188dc315950026a6102,64d2fd46c836a06233681665,64dc7c3ba2ce67ee1b033467,,,,,,,sngl,resources/Empty.png,resources/DR.BMP,Door2,0.334027778,-0.01875,1,0,0,0.4154,optionRight,40,12790,6,12,0,12,0,1,,,,,,,,,,,,,,,,,,,,,,,,,,,,,,,,,,,,,,,
,,,,,,,,2023-08-16_08h35.30.220,HF_wild_card,2022.2.4,Win32,235.0728726,614d9188dc315950026a6102,64d2fd46c836a06233681665,64dc7c3ba2ce67ee1b033467,,,,,,,ctch,resources/DB.BMP,resources/DY.BMP,Door4,-0.300694444,0.007638889,1,0,0,0.3946,optionLeft,80,12870,6,13,0,13,0,1,,,,,,,,,,,,,,,,,,,,,,,,,,,,,,,,,,,,,,,
,,,,,,,,2023-08-16_08h35.30.220,HF_wild_card,2022.2.4,Win32,235.0728726,614d9188dc315950026a6102,64d2fd46c836a06233681665,64dc7c3ba2ce67ee1b033467,,,,,,,decisionTrl,resources/DG.BMP,resources/DY.BMP,WildCard_NonEx,-0.23125,-0.002777778,1,0,0,0.5155,optionLeft,45,12915,6,14,0,14,0,1,,,,,,,,,,,,,,,,,,,,,,,,,,,,,,,,,,,,,,,
,,,,,,,,2023-08-16_08h35.30.220,HF_wild_card,2022.2.4,Win32,235.0728726,614d9188dc315950026a6102,64d2fd46c836a06233681665,64dc7c3ba2ce67ee1b033467,,,,,,,decisionTrl,resources/DP.BMP,resources/DG.BMP,Door3,-0.259722222,0.002083333,1,0,0,0.6073,optionLeft,70,12985,6,15,0,15,0,1,,,,,,,,,,,,,,,,,,,,,,,,,,,,,,,,,,,,,,,
,,,,,,,,2023-08-16_08h35.30.220,HF_wild_card,2022.2.4,Win32,235.0728726,614d9188dc315950026a6102,64d2fd46c836a06233681665,64dc7c3ba2ce67ee1b033467,,,,,,,sngl,resources/Empty.png,resources/DG.BMP,WildCard_NonEx,0.244444444,-0.004166667,1,0,0,0.4201,optionRight,55,13040,6,16,0,16,0,1,,,,,,,,,,,,,,,,,,,,,,,,,,,,,,,,,,,,,,,
,,,,,,,,2023-08-16_08h35.30.220,HF_wild_card,2022.2.4,Win32,235.0728726,614d9188dc315950026a6102,64d2fd46c836a06233681665,64dc7c3ba2ce67ee1b033467,,,,,,,decisionTrl,resources/DB.BMP,resources/DG.BMP,Door4,-0.274305556,-0.002083333,1,0,0,0.3947,optionLeft,60,13100,6,17,0,17,0,1,,,,,,,,,,,,,,,,,,,,,,,,,,,,,,,,,,,,,,,
,,,,,,,,2023-08-16_08h35.30.220,HF_wild_card,2022.2.4,Win32,235.0728726,614d9188dc315950026a6102,64d2fd46c836a06233681665,64dc7c3ba2ce67ee1b033467,,,,,,,decisionTrl,resources/DP.BMP,resources/DB.BMP,Door3,-0.390972222,0.0125,1,0,0,0.7701,optionLeft,70,13170,6,18,0,18,0,1,,,,,,,,,,,,,,,,,,,,,,,,,,,,,,,,,,,,,,,
,,,,,,,,2023-08-16_08h35.30.220,HF_wild_card,2022.2.4,Win32,235.0728726,614d9188dc315950026a6102,64d2fd46c836a06233681665,64dc7c3ba2ce67ee1b033467,,,,,,,decisionTrl,resources/DR.BMP,resources/DY.BMP,Door1,0.315277778,-0.015277778,1,0,0,0.87,optionRight,30,13200,6,19,0,19,0,1,,,,,,,,,,,,,,,,,,,,,,,,,,,,,,,,,,,,,,,
,,,,,,,,2023-08-16_08h35.30.220,HF_wild_card,2022.2.4,Win32,235.0728726,614d9188dc315950026a6102,64d2fd46c836a06233681665,64dc7c3ba2ce67ee1b033467,,,,,,,decisionTrl,resources/DP.BMP,resources/DB.BMP,Door3,-0.225,0.032638889,1,0,0,0.6656,optionLeft,70,13270,6,20,0,20,0,1,,,,,,,,,,,,,,,,,,,,,,,,,,,,,,,,,,,,,,,
,,,,,,,,2023-08-16_08h35.30.220,HF_wild_card,2022.2.4,Win32,235.0728726,614d9188dc315950026a6102,64d2fd46c836a06233681665,64dc7c3ba2ce67ee1b033467,,,,,,,decisionTrl,resources/DY.BMP,resources/DR.BMP,Door1,-0.347916667,0.010416667,1,0,0,1.3031,optionLeft,30,13300,6,21,0,21,0,1,,,,,,,,,,,,,,,,,,,,,,,,,,,,,,,,,,,,,,,
,,,,,,,,2023-08-16_08h35.30.220,HF_wild_card,2022.2.4,Win32,235.0728726,614d9188dc315950026a6102,64d2fd46c836a06233681665,64dc7c3ba2ce67ee1b033467,,,,,,,decisionTrl,resources/DG.BMP,resources/DB.BMP,Door4,0.279861111,-0.040972222,1,0,0,2.5202,optionRight,60,13360,6,22,0,22,0,1,,,,,,,,,,,,,,,,,,,,,,,,,,,,,,,,,,,,,,,
,,,,,,,,2023-08-16_08h35.30.220,HF_wild_card,2022.2.4,Win32,235.0728726,614d9188dc315950026a6102,64d2fd46c836a06233681665,64dc7c3ba2ce67ee1b033467,,,,,,,decisionTrl,resources/DY.BMP,resources/DR.BMP,Door1,-0.292361111,0.018055556,1,0,0,0.8494,optionLeft,30,13390,6,23,0,23,0,1,,,,,,,,,,,,,,,,,,,,,,,,,,,,,,,,,,,,,,,
,,,,,,,,2023-08-16_08h35.30.220,HF_wild_card,2022.2.4,Win32,235.0728726,614d9188dc315950026a6102,64d2fd46c836a06233681665,64dc7c3ba2ce67ee1b033467,,,,,,,sngl,resources/DY.BMP,resources/Empty.png,Door1,-0.346527778,0.020833333,1,0,0,0.3965,optionLeft,30,13420,6,24,0,24,0,1,,,,,,,,,,,,,,,,,,,,,,,,,,,,,,,,,,,,,,,
,,,,,,,,2023-08-16_08h35.30.220,HF_wild_card,2022.2.4,Win32,235.0728726,614d9188dc315950026a6102,64d2fd46c836a06233681665,64dc7c3ba2ce67ee1b033467,,,,,,,ctch,resources/DB.BMP,resources/DY.BMP,Door4,-0.31875,0.025694444,1,0,0,0.7907,optionLeft,80,13500,6,25,0,25,0,1,,,,,,,,,,,,,,,,,,,,,,,,,,,,,,,,,,,,,,,
,,,,,,,,2023-08-16_08h35.30.220,HF_wild_card,2022.2.4,Win32,235.0728726,614d9188dc315950026a6102,64d2fd46c836a06233681665,64dc7c3ba2ce67ee1b033467,,,,,,,ctch,resources/DY.BMP,resources/DB.BMP,Door4,0.401388889,0.013194444,1,0,0,0.5759,optionRight,80,13580,6,26,0,26,0,1,,,,,,,,,,,,,,,,,,,,,,,,,,,,,,,,,,,,,,,
,,,,,,,,2023-08-16_08h35.30.220,HF_wild_card,2022.2.4,Win32,235.0728726,614d9188dc315950026a6102,64d2fd46c836a06233681665,64dc7c3ba2ce67ee1b033467,,,,,,,decisionTrl,resources/DY.BMP,resources/DR.BMP,Door2,0.295833333,-0.001388889,1,0,0,0.9478,optionRight,40,13620,6,27,0,27,0,1,,,,,,,,,,,,,,,,,,,,,,,,,,,,,,,,,,,,,,,
,,,,,,,,2023-08-16_08h35.30.220,HF_wild_card,2022.2.4,Win32,235.0728726,614d9188dc315950026a6102,64d2fd46c836a06233681665,64dc7c3ba2ce67ee1b033467,,,,,,,sngl,resources/Empty.png,resources/DY.BMP,Door1,0.222222222,0,1,0,0,0.4073,optionRight,30,13650,6,28,0,28,0,1,,,,,,,,,,,,,,,,,,,,,,,,,,,,,,,,,,,,,,,
,,,,,,,,2023-08-16_08h35.30.220,HF_wild_card,2022.2.4,Win32,235.0728726,614d9188dc315950026a6102,64d2fd46c836a06233681665,64dc7c3ba2ce67ee1b033467,,,,,,,ctch,resources/DR.BMP,resources/DP.BMP,Door3,0.170833333,0.00625,1,0,0,0.6615,optionRight,70,13720,6,29,0,29,0,1,,,,,,,,,,,,,,,,,,,,,,,,,,,,,,,,,,,,,,,
,,,,,,,,2023-08-16_08h35.30.220,HF_wild_card,2022.2.4,Win32,235.0728726,614d9188dc315950026a6102,64d2fd46c836a06233681665,64dc7c3ba2ce67ee1b033467,,,,,,,ctch,resources/DY.BMP,resources/DB.BMP,Door4,0.285416667,-0.007638889,1,0,0,0.4183,optionRight,80,13800,6,30,0,30,0,1,,,,,,,,,,,,,,,,,,,,,,,,,,,,,,,,,,,,,,,
,,,,,,,,2023-08-16_08h35.30.220,HF_wild_card,2022.2.4,Win32,235.0728726,614d9188dc315950026a6102,64d2fd46c836a06233681665,64dc7c3ba2ce67ee1b033467,,,,,,,ctch,resources/DR.BMP,resources/DP.BMP,Door3,0.238194444,-0.053472222,1,0,0,0.4327,optionRight,70,13870,6,31,0,31,0,1,,,,,,,,,,,,,,,,,,,,,,,,,,,,,,,,,,,,,,,
,,,,,,,,2023-08-16_08h35.30.220,HF_wild_card,2022.2.4,Win32,235.0728726,614d9188dc315950026a6102,64d2fd46c836a06233681665,64dc7c3ba2ce67ee1b033467,,,,,,,decisionTrl,resources/DB.BMP,resources/DP.BMP,Door3,0.429861111,-0.002083333,1,0,0,0.6716,optionRight,70,13940,6,32,0,32,0,1,,,,,,,,,,,,,,,,,,,,,,,,,,,,,,,,,,,,,,,
,,,,,,,,2023-08-16_08h35.30.220,HF_wild_card,2022.2.4,Win32,235.0728726,614d9188dc315950026a6102,64d2fd46c836a06233681665,64dc7c3ba2ce67ee1b033467,,,,,,,ctch,resources/DP.BMP,resources/DR.BMP,Door3,-0.227083333,-0.007638889,1,0,0,0.408,optionLeft,70,14010,6,33,0,33,0,1,,,,,,,,,,,,,,,,,,,,,,,,,,,,,,,,,,,,,,,
,,,,,,,,2023-08-16_08h35.30.220,HF_wild_card,2022.2.4,Win32,235.0728726,614d9188dc315950026a6102,64d2fd46c836a06233681665,64dc7c3ba2ce67ee1b033467,,,,,,,sngl,resources/DB.BMP,resources/Empty.png,Door4,-0.300694444,0.014583333,1,0,0,0.3724,optionLeft,60,14070,6,34,0,34,0,1,,,,,,,,,,,,,,,,,,,,,,,,,,,,,,,,,,,,,,,
,,,,,,,,2023-08-16_08h35.30.220,HF_wild_card,2022.2.4,Win32,235.0728726,614d9188dc315950026a6102,64d2fd46c836a06233681665,64dc7c3ba2ce67ee1b033467,,,,,,,decisionTrl,resources/DB.BMP,resources/DP.BMP,Door3,0.375694444,-0.022916667,1,0,0,0.4739,optionRight,70,14140,6,35,0,35,0,1,,,,,,,,,,,,,,,,,,,,,,,,,,,,,,,,,,,,,,,
,,,,,,,,2023-08-16_08h35.30.220,HF_wild_card,2022.2.4,Win32,235.0728726,614d9188dc315950026a6102,64d2fd46c836a06233681665,64dc7c3ba2ce67ee1b033467,,,,,,,decisionTrl,resources/DB.BMP,resources/DP.BMP,Door3,0.43125,-0.038194444,1,0,0,0.3866,optionRight,70,14210,6,36,0,36,0,1,,,,,,,,,,,,,,,,,,,,,,,,,,,,,,,,,,,,,,,
,,,,,,,,2023-08-16_08h35.30.220,HF_wild_card,2022.2.4,Win32,235.0728726,614d9188dc315950026a6102,64d2fd46c836a06233681665,64dc7c3ba2ce67ee1b033467,,,,,,,sngl,resources/DG.BMP,resources/Empty.png,WildCard_NonEx,-0.286805556,0.045833333,1,0,0,0.3572,optionLeft,55,14265,6,37,0,37,0,1,,,,,,,,,,,,,,,,,,,,,,,,,,,,,,,,,,,,,,,
,,,,,,,,2023-08-16_08h35.30.220,HF_wild_card,2022.2.4,Win32,235.0728726,614d9188dc315950026a6102,64d2fd46c836a06233681665,64dc7c3ba2ce67ee1b033467,,,,,,,decisionTrl,resources/DP.BMP,resources/DB.BMP,Door3,-0.215277778,0.027083333,1,0,0,0.4239,optionLeft,70,14335,6,38,0,38,0,1,,,,,,,,,,,,,,,,,,,,,,,,,,,,,,,,,,,,,,,
,,,,,,,,2023-08-16_08h35.30.220,HF_wild_card,2022.2.4,Win32,235.0728726,614d9188dc315950026a6102,64d2fd46c836a06233681665,64dc7c3ba2ce67ee1b033467,,,,,,,decisionTrl,resources/DR.BMP,resources/DY.BMP,Door2,-0.277083333,0.070138889,1,0,0,1.2489,optionLeft,40,14375,6,39,0,39,0,1,,,,,,,,,,,,,,,,,,,,,,,,,,,,,,,,,,,,,,,
,,,,,,,,2023-08-16_08h35.30.220,HF_wild_card,2022.2.4,Win32,235.0728726,614d9188dc315950026a6102,64d2fd46c836a06233681665,64dc7c3ba2ce67ee1b033467,,,,,,,sngl,resources/Empty.png,resources/DP.BMP,Door3,0.297222222,0.005555556,1,0,0,0.3782,optionRight,70,14445,6,40,0,40,0,1,,,,,,,,,,,,,,,,,,,,,,,,,,,,,,,,,,,,,,,
,,,,,,,,2023-08-16_08h35.30.220,HF_wild_card,2022.2.4,Win32,235.0728726,614d9188dc315950026a6102,64d2fd46c836a06233681665,64dc7c3ba2ce67ee1b033467,,,,,,,decisionTrl,resources/DG.BMP,resources/DP.BMP,Door3,0.295138889,-0.035416667,1,0,0,0.5761,optionRight,70,14515,6,41,0,41,0,1,,,,,,,,,,,,,,,,,,,,,,,,,,,,,,,,,,,,,,,
,,,,,,,,2023-08-16_08h35.30.220,HF_wild_card,2022.2.4,Win32,235.0728726,614d9188dc315950026a6102,64d2fd46c836a06233681665,64dc7c3ba2ce67ee1b033467,,,,,,,sngl,resources/Empty.png,resources/DG.BMP,WildCard_NonEx,0.461111111,-0.015972222,1,0,0,0.3599,optionRight,45,14560,6,42,0,42,0,1,,,,,,,,,,,,,,,,,,,,,,,,,,,,,,,,,,,,,,,
,,,,,,,,2023-08-16_08h35.30.220,HF_wild_card,2022.2.4,Win32,235.0728726,614d9188dc315950026a6102,64d2fd46c836a06233681665,64dc7c3ba2ce67ee1b033467,,,,,,,decisionTrl,resources/DR.BMP,resources/DG.BMP,WildCard_NonEx,0.508333333,-0.035416667,1,0,0,0.6132,optionRight,45,14605,6,43,0,43,0,1,,,,,,,,,,,,,,,,,,,,,,,,,,,,,,,,,,,,,,,
,,,,,,,,2023-08-16_08h35.30.220,HF_wild_card,2022.2.4,Win32,235.0728726,614d9188dc315950026a6102,64d2fd46c836a06233681665,64dc7c3ba2ce67ee1b033467,,,,,,,,,,,,,,,,,,,,,,,,,,5,0,5,0,1,,,,,,,,,,,,,,,,,,,,,,,,,,,,,,,,,,
,,,,,,,,2023-08-16_08h35.30.220,HF_wild_card,2022.2.4,Win32,235.0728726,614d9188dc315950026a6102,64d2fd46c836a06233681665,64dc7c3ba2ce67ee1b033467,,,,,,,decisionTrl,resources/DP.BMP,resources/DB.BMP,Door3,-0.2625,-0.011111111,1,0,0,1.3846,optionLeft,70,14675,7,0,0,0,0,1,,,,,,,,,,,,,,,,,,,,,,,,,,,,,,,,,,,,,,,
,,,,,,,,2023-08-16_08h35.30.220,HF_wild_card,2022.2.4,Win32,235.0728726,614d9188dc315950026a6102,64d2fd46c836a06233681665,64dc7c3ba2ce67ee1b033467,,,,,,,decisionTrl,resources/DB.BMP,resources/DP.BMP,Door3,0.331944444,-0.013888889,1,0,0,0.923,optionRight,70,14745,7,1,0,1,0,1,,,,,,,,,,,,,,,,,,,,,,,,,,,,,,,,,,,,,,,
,,,,,,,,2023-08-16_08h35.30.220,HF_wild_card,2022.2.4,Win32,235.0728726,614d9188dc315950026a6102,64d2fd46c836a06233681665,64dc7c3ba2ce67ee1b033467,,,,,,,decisionTrl,resources/DY.BMP,resources/DR.BMP,Door2,0.325,-0.004861111,1,0,0,0.7832,optionRight,20,14765,7,2,0,2,0,1,,,,,,,,,,,,,,,,,,,,,,,,,,,,,,,,,,,,,,,
,,,,,,,,2023-08-16_08h35.30.220,HF_wild_card,2022.2.4,Win32,235.0728726,614d9188dc315950026a6102,64d2fd46c836a06233681665,64dc7c3ba2ce67ee1b033467,,,,,,,ctch,resources/DR.BMP,resources/DP.BMP,Door3,0.329166667,-0.005555556,1,0,0,0.508,optionRight,70,14835,7,3,0,3,0,1,,,,,,,,,,,,,,,,,,,,,,,,,,,,,,,,,,,,,,,
,,,,,,,,2023-08-16_08h35.30.220,HF_wild_card,2022.2.4,Win32,235.0728726,614d9188dc315950026a6102,64d2fd46c836a06233681665,64dc7c3ba2ce67ee1b033467,,,,,,,decisionTrl,resources/DB.BMP,resources/DP.BMP,Door3,0.359027778,-0.034027778,1,0,0,0.683,optionRight,70,14905,7,4,0,4,0,1,,,,,,,,,,,,,,,,,,,,,,,,,,,,,,,,,,,,,,,
,,,,,,,,2023-08-16_08h35.30.220,HF_wild_card,2022.2.4,Win32,235.0728726,614d9188dc315950026a6102,64d2fd46c836a06233681665,64dc7c3ba2ce67ee1b033467,,,,,,,decisionTrl,resources/DP.BMP,resources/DB.BMP,Door3,-0.275,0.011111111,1,0,0,0.669,optionLeft,70,14975,7,5,0,5,0,1,,,,,,,,,,,,,,,,,,,,,,,,,,,,,,,,,,,,,,,
,,,,,,,,2023-08-16_08h35.30.220,HF_wild_card,2022.2.4,Win32,235.0728726,614d9188dc315950026a6102,64d2fd46c836a06233681665,64dc7c3ba2ce67ee1b033467,,,,,,,ctch,resources/DB.BMP,resources/DY.BMP,Door4,-0.305555556,0.021527778,1,0,0,0.6644,optionLeft,80,15055,7,6,0,6,0,1,,,,,,,,,,,,,,,,,,,,,,,,,,,,,,,,,,,,,,,
,,,,,,,,2023-08-16_08h35.30.220,HF_wild_card,2022.2.4,Win32,235.0728726,614d9188dc315950026a6102,64d2fd46c836a06233681665,64dc7c3ba2ce67ee1b033467,,,,,,,decisionTrl,resources/DB.BMP,resources/DP.BMP,Door3,0.442361111,-0.009027778,1,0,0,0.4703,optionRight,70,15125,7,7,0,7,0,1,,,,,,,,,,,,,,,,,,,,,,,,,,,,,,,,,,,,,,,
,,,,,,,,2023-08-16_08h35.30.220,HF_wild_card,2022.2.4,Win32,235.0728726,614d9188dc315950026a6102,64d2fd46c836a06233681665,64dc7c3ba2ce67ee1b033467,,,,,,,decisionTrl,resources/DB.BMP,resources/DP.BMP,Door3,0.313194444,0.002777778,1,0,0,0.406,optionRight,70,15195,7,8,0,8,0,1,,,,,,,,,,,,,,,,,,,,,,,,,,,,,,,,,,,,,,,
,,,,,,,,2023-08-16_08h35.30.220,HF_wild_card,2022.2.4,Win32,235.0728726,614d9188dc315950026a6102,64d2fd46c836a06233681665,64dc7c3ba2ce67ee1b033467,,,,,,,decisionTrl,resources/DY.BMP,resources/DR.BMP,Door1,-0.217361111,0.020138889,1,0,0,1.03,optionLeft,30,15225,7,9,0,9,0,1,,,,,,,,,,,,,,,,,,,,,,,,,,,,,,,,,,,,,,,
,,,,,,,,2023-08-16_08h35.30.220,HF_wild_card,2022.2.4,Win32,235.0728726,614d9188dc315950026a6102,64d2fd46c836a06233681665,64dc7c3ba2ce67ee1b033467,,,,,,,decisionTrl,resources/DB.BMP,resources/DP.BMP,Door3,0.361805556,-0.029166667,1,0,0,0.5341,optionRight,70,15295,7,10,0,10,0,1,,,,,,,,,,,,,,,,,,,,,,,,,,,,,,,,,,,,,,,
,,,,,,,,2023-08-16_08h35.30.220,HF_wild_card,2022.2.4,Win32,235.0728726,614d9188dc315950026a6102,64d2fd46c836a06233681665,64dc7c3ba2ce67ee1b033467,,,,,,,ctch,resources/DY.BMP,resources/DB.BMP,Door4,0.331944444,-0.020833333,1,0,0,0.4454,optionRight,60,15355,7,11,0,11,0,1,,,,,,,,,,,,,,,,,,,,,,,,,,,,,,,,,,,,,,,
,,,,,,,,2023-08-16_08h35.30.220,HF_wild_card,2022.2.4,Win32,235.0728726,614d9188dc315950026a6102,64d2fd46c836a06233681665,64dc7c3ba2ce67ee1b033467,,,,,,,decisionTrl,resources/DR.BMP,resources/DY.BMP,Door2,-0.504861111,0.013194444,1,0,0,1.2058,optionLeft,40,15395,7,12,0,12,0,1,,,,,,,,,,,,,,,,,,,,,,,,,,,,,,,,,,,,,,,
,,,,,,,,2023-08-16_08h35.30.220,HF_wild_card,2022.2.4,Win32,235.0728726,614d9188dc315950026a6102,64d2fd46c836a06233681665,64dc7c3ba2ce67ee1b033467,,,,,,,decisionTrl,resources/DR.BMP,resources/DY.BMP,Door2,-0.28125,0.011805556,1,0,0,0.4698,optionLeft,40,15435,7,13,0,13,0,1,,,,,,,,,,,,,,,,,,,,,,,,,,,,,,,,,,,,,,,
,,,,,,,,2023-08-16_08h35.30.220,HF_wild_card,2022.2.4,Win32,235.0728726,614d9188dc315950026a6102,64d2fd46c836a06233681665,64dc7c3ba2ce67ee1b033467,,,,,,,decisionTrl,resources/DP.BMP,resources/DB.BMP,Door3,-0.206944444,-0.017361111,1,0,0,0.9964,optionLeft,70,15505,7,14,0,14,0,1,,,,,,,,,,,,,,,,,,,,,,,,,,,,,,,,,,,,,,,
,,,,,,,,2023-08-16_08h35.30.220,HF_wild_card,2022.2.4,Win32,235.0728726,614d9188dc315950026a6102,64d2fd46c836a06233681665,64dc7c3ba2ce67ee1b033467,,,,,,,ctch,resources/DY.BMP,resources/DB.BMP,Door4,0.364583333,-0.015972222,1,0,0,0.4987,optionRight,80,15585,7,15,0,15,0,1,,,,,,,,,,,,,,,,,,,,,,,,,,,,,,,,,,,,,,,
,,,,,,,,2023-08-16_08h35.30.220,HF_wild_card,2022.2.4,Win32,235.0728726,614d9188dc315950026a6102,64d2fd46c836a06233681665,64dc7c3ba2ce67ee1b033467,,,,,,,decisionTrl,resources/DY.BMP,resources/DR.BMP,Door2,0.296527778,-0.015972222,1,0,0,0.6999,optionRight,20,15605,7,16,0,16,0,1,,,,,,,,,,,,,,,,,,,,,,,,,,,,,,,,,,,,,,,
,,,,,,,,2023-08-16_08h35.30.220,HF_wild_card,2022.2.4,Win32,235.0728726,614d9188dc315950026a6102,64d2fd46c836a06233681665,64dc7c3ba2ce67ee1b033467,,,,,,,ctch,resources/DB.BMP,resources/DY.BMP,Door4,-0.300694444,-0.007638889,1,0,0,0.6784,optionLeft,80,15685,7,17,0,17,0,1,,,,,,,,,,,,,,,,,,,,,,,,,,,,,,,,,,,,,,,
,,,,,,,,2023-08-16_08h35.30.220,HF_wild_card,2022.2.4,Win32,235.0728726,614d9188dc315950026a6102,64d2fd46c836a06233681665,64dc7c3ba2ce67ee1b033467,,,,,,,decisionTrl,resources/DY.BMP,resources/DR.BMP,Door1,-0.267361111,0.01875,1,0,0,0.8732,optionLeft,30,15715,7,18,0,18,0,1,,,,,,,,,,,,,,,,,,,,,,,,,,,,,,,,,,,,,,,
,,,,,,,,2023-08-16_08h35.30.220,HF_wild_card,2022.2.4,Win32,235.0728726,614d9188dc315950026a6102,64d2fd46c836a06233681665,64dc7c3ba2ce67ee1b033467,,,,,,,ctch,resources/DY.BMP,resources/DB.BMP,Door4,0.247222222,0.000694444,1,0,0,0.4996,optionRight,80,15795,7,19,0,19,0,1,,,,,,,,,,,,,,,,,,,,,,,,,,,,,,,,,,,,,,,
,,,,,,,,2023-08-16_08h35.30.220,HF_wild_card,2022.2.4,Win32,235.0728726,614d9188dc315950026a6102,64d2fd46c836a06233681665,64dc7c3ba2ce67ee1b033467,,,,,,,ctch,resources/DP.BMP,resources/DR.BMP,Door3,-0.236111111,-0.003472222,1,0,0,0.4679,optionLeft,70,15865,7,20,0,20,0,1,,,,,,,,,,,,,,,,,,,,,,,,,,,,,,,,,,,,,,,
,,,,,,,,2023-08-16_08h35.30.220,HF_wild_card,2022.2.4,Win32,235.0728726,614d9188dc315950026a6102,64d2fd46c836a06233681665,64dc7c3ba2ce67ee1b033467,,,,,,,decisionTrl,resources/DP.BMP,resources/DB.BMP,Door3,-0.260416667,0.025,1,0,0,0.6264,optionLeft,70,15935,7,21,0,21,0,1,,,,,,,,,,,,,,,,,,,,,,,,,,,,,,,,,,,,,,,
,,,,,,,,2023-08-16_08h35.30.220,HF_wild_card,2022.2.4,Win32,235.0728726,614d9188dc315950026a6102,64d2fd46c836a06233681665,64dc7c3ba2ce67ee1b033467,,,,,,,decisionTrl,resources/DR.BMP,resources/DY.BMP,Door1,0.352777778,-0.004166667,1,0,0,0.5539,optionRight,30,15965,7,22,0,22,0,1,,,,,,,,,,,,,,,,,,,,,,,,,,,,,,,,,,,,,,,
,,,,,,,,2023-08-16_08h35.30.220,HF_wild_card,2022.2.4,Win32,235.0728726,614d9188dc315950026a6102,64d2fd46c836a06233681665,64dc7c3ba2ce67ee1b033467,,,,,,,decisionTrl,resources/DY.BMP,resources/DR.BMP,Door1,-0.167361111,-0.013888889,1,0,0,0.6058,optionLeft,30,15995,7,23,0,23,0,1,,,,,,,,,,,,,,,,,,,,,,,,,,,,,,,,,,,,,,,
,,,,,,,,2023-08-16_08h35.30.220,HF_wild_card,2022.2.4,Win32,235.0728726,614d9188dc315950026a6102,64d2fd46c836a06233681665,64dc7c3ba2ce67ee1b033467,,,,,,,ctch,resources/DP.BMP,resources/DR.BMP,Door3,-0.264583333,0.004861111,1,0,0,0.4329,optionLeft,70,16065,7,24,0,24,0,1,,,,,,,,,,,,,,,,,,,,,,,,,,,,,,,,,,,,,,,
,,,,,,,,2023-08-16_08h35.30.220,HF_wild_card,2022.2.4,Win32,235.0728726,614d9188dc315950026a6102,64d2fd46c836a06233681665,64dc7c3ba2ce67ee1b033467,,,,,,,decisionTrl,resources/DR.BMP,resources/DY.BMP,Door2,-0.239583333,0.05,1,0,0,0.4215,optionLeft,20,16085,7,25,0,25,0,1,,,,,,,,,,,,,,,,,,,,,,,,,,,,,,,,,,,,,,,
,,,,,,,,2023-08-16_08h35.30.220,HF_wild_card,2022.2.4,Win32,235.0728726,614d9188dc315950026a6102,64d2fd46c836a06233681665,64dc7c3ba2ce67ee1b033467,,,,,,,decisionTrl,resources/DR.BMP,resources/DY.BMP,Door2,-0.213194444,0.027083333,1,0,0,0.4454,optionLeft,40,16125,7,26,0,26,0,1,,,,,,,,,,,,,,,,,,,,,,,,,,,,,,,,,,,,,,,
,,,,,,,,2023-08-16_08h35.30.220,HF_wild_card,2022.2.4,Win32,235.0728726,614d9188dc315950026a6102,64d2fd46c836a06233681665,64dc7c3ba2ce67ee1b033467,,,,,,,decisionTrl,resources/DR.BMP,resources/DY.BMP,Door1,0.4625,-0.020833333,1,0,0,0.577,optionRight,30,16155,7,27,0,27,0,1,,,,,,,,,,,,,,,,,,,,,,,,,,,,,,,,,,,,,,,
,,,,,,,,2023-08-16_08h35.30.220,HF_wild_card,2022.2.4,Win32,235.0728726,614d9188dc315950026a6102,64d2fd46c836a06233681665,64dc7c3ba2ce67ee1b033467,,,,,,,decisionTrl,resources/DP.BMP,resources/DB.BMP,Door3,-0.232638889,0.034027778,1,0,0,0.5396,optionLeft,70,16225,7,28,0,28,0,1,,,,,,,,,,,,,,,,,,,,,,,,,,,,,,,,,,,,,,,
,,,,,,,,2023-08-16_08h35.30.220,HF_wild_card,2022.2.4,Win32,235.0728726,614d9188dc315950026a6102,64d2fd46c836a06233681665,64dc7c3ba2ce67ee1b033467,,,,,,,ctch,resources/DP.BMP,resources/DR.BMP,Door3,-0.231944444,0.045138889,1,0,0,0.4424,optionLeft,70,16295,7,29,0,29,0,1,,,,,,,,,,,,,,,,,,,,,,,,,,,,,,,,,,,,,,,
,,,,,,,,2023-08-16_08h35.30.220,HF_wild_card,2022.2.4,Win32,235.0728726,614d9188dc315950026a6102,64d2fd46c836a06233681665,64dc7c3ba2ce67ee1b033467,,,,,,,ctch,resources/DR.BMP,resources/DP.BMP,Door3,0.265277778,0.0125,1,0,0,0.4619,optionRight,70,16365,7,30,0,30,0,1,,,,,,,,,,,,,,,,,,,,,,,,,,,,,,,,,,,,,,,
,,,,,,,,2023-08-16_08h35.30.220,HF_wild_card,2022.2.4,Win32,235.0728726,614d9188dc315950026a6102,64d2fd46c836a06233681665,64dc7c3ba2ce67ee1b033467,,,,,,,decisionTrl,resources/DP.BMP,resources/DB.BMP,Door3,-0.136111111,0.002083333,1,0,0,0.4088,optionLeft,70,16435,7,31,0,31,0,1,,,,,,,,,,,,,,,,,,,,,,,,,,,,,,,,,,,,,,,
,,,,,,,,2023-08-16_08h35.30.220,HF_wild_card,2022.2.4,Win32,235.0728726,614d9188dc315950026a6102,64d2fd46c836a06233681665,64dc7c3ba2ce67ee1b033467,,,,,,,decisionTrl,resources/DY.BMP,resources/DR.BMP,Door2,0.317361111,0.022222222,1,0,0,0.6889,optionRight,20,16455,7,32,0,32,0,1,,,,,,,,,,,,,,,,,,,,,,,,,,,,,,,,,,,,,,,
,,,,,,,,2023-08-16_08h35.30.220,HF_wild_card,2022.2.4,Win32,235.0728726,614d9188dc315950026a6102,64d2fd46c836a06233681665,64dc7c3ba2ce67ee1b033467,,,,,,,ctch,resources/DR.BMP,resources/DP.BMP,Door3,0.304861111,-0.007638889,1,0,0,0.3897,optionRight,70,16525,7,33,0,33,0,1,,,,,,,,,,,,,,,,,,,,,,,,,,,,,,,,,,,,,,,
,,,,,,,,2023-08-16_08h35.30.220,HF_wild_card,2022.2.4,Win32,235.0728726,614d9188dc315950026a6102,64d2fd46c836a06233681665,64dc7c3ba2ce67ee1b033467,,,,,,,decisionTrl,resources/DB.BMP,resources/DP.BMP,Door3,0.311111111,-0.00625,1,0,0,0.4354,optionRight,70,16595,7,34,0,34,0,1,,,,,,,,,,,,,,,,,,,,,,,,,,,,,,,,,,,,,,,
,,,,,,,,2023-08-16_08h35.30.220,HF_wild_card,2022.2.4,Win32,235.0728726,614d9188dc315950026a6102,64d2fd46c836a06233681665,64dc7c3ba2ce67ee1b033467,,,,,,,ctch,resources/DB.BMP,resources/DY.BMP,Door4,-0.371527778,0.048611111,1,0,0,0.393,optionLeft,60,16655,7,35,0,35,0,1,,,,,,,,,,,,,,,,,,,,,,,,,,,,,,,,,,,,,,,
,,,,,,,,2023-08-16_08h35.30.220,HF_wild_card,2022.2.4,Win32,235.0728726,614d9188dc315950026a6102,64d2fd46c836a06233681665,64dc7c3ba2ce67ee1b033467,,,,,,,,,,,,,,,,,,,,,,,,,,6,0,6,0,1,,,,,,,,,,,,,,,,,,,,,,,,,,,,,,,,,,
,,,,,,,,2023-08-16_08h35.30.220,HF_wild_card,2022.2.4,Win32,235.0728726,614d9188dc315950026a6102,64d2fd46c836a06233681665,64dc7c3ba2ce67ee1b033467,,,,,,,,,,,,,,,,,,,,,,,,,,,,,,,4,,,,,,,,,,,,,,,,,,,,,,,,,,,,,,,,,
,,,,,,,,2023-08-16_08h35.30.220,HF_wild_card,2022.2.4,Win32,235.0728726,614d9188dc315950026a6102,64d2fd46c836a06233681665,64dc7c3ba2ce67ee1b033467,,,,,,,,,,,,,,,,,,,,,,,,,,,,,,,,,,,,,,,,,,,,,,,,,,,,,,,,,,,,,,,,
,,,,,,,,2023-08-16_08h35.30.220,HF_wild_card,2022.2.4,Win32,235.0728726,614d9188dc315950026a6102,64d2fd46c836a06233681665,64dc7c3ba2ce67ee1b033467,,,,,,,,,,,,,,,,,,,,,,,,,,,,,,,,20,Door1,resources/DY.BMP,0,0,0,0,1,,,,,,,,,,,,,,,,,,,,,,,,,
,,,,,,,,2023-08-16_08h35.30.220,HF_wild_card,2022.2.4,Win32,235.0728726,614d9188dc315950026a6102,64d2fd46c836a06233681665,64dc7c3ba2ce67ee1b033467,,,,,,,,,,,,,,,,,,,,,,,,,,,,,,,,45,WC_nonExtreme,resources/DG.BMP,1,0,1,0,1,,,,,,,,,,,,,,,,,,,,,,,,,
,,,,,,,,2023-08-16_08h35.30.220,HF_wild_card,2022.2.4,Win32,235.0728726,614d9188dc315950026a6102,64d2fd46c836a06233681665,64dc7c3ba2ce67ee1b033467,,,,,,,,,,,,,,,,,,,,,,,,,,,,,,,,70,Door4,resources/DB.BMP,2,0,2,0,1,,,,,,,,,,,,,,,,,,,,,,,,,
,,,,,,,,2023-08-16_08h35.30.220,HF_wild_card,2022.2.4,Win32,235.0728726,614d9188dc315950026a6102,64d2fd46c836a06233681665,64dc7c3ba2ce67ee1b033467,,,,,,,,,,,,,,,,,,,,,,,,,,,,,,,,20,Door2,resources/DR.BMP,3,0,3,0,1,,,,,,,,,,,,,,,,,,,,,,,,,
,,,,,,,,2023-08-16_08h35.30.220,HF_wild_card,2022.2.4,Win32,235.0728726,614d9188dc315950026a6102,64d2fd46c836a06233681665,64dc7c3ba2ce67ee1b033467,,,,,,,,,,,,,,,,,,,,,,,,,,,,,,,,95,WC_extreme,resources/DBN.BMP,4,0,4,0,1,,,,,,,,,,,,,,,,,,,,,,,,,
,,,,,,,,2023-08-16_08h35.30.220,HF_wild_card,2022.2.4,Win32,235.0728726,614d9188dc315950026a6102,64d2fd46c836a06233681665,64dc7c3ba2ce67ee1b033467,,,,,,,,,,,,,,,,,,,,,,,,,,,,,,,,80,Door3,resources/DP.BMP,5,0,5,0,1,,,,,,,,,,,,,,,,,,,,,,,,,
,,,,,,,,2023-08-16_08h35.30.220,HF_wild_card,2022.2.4,Win32,235.0728726,614d9188dc315950026a6102,64d2fd46c836a06233681665,64dc7c3ba2ce67ee1b033467,,,,,,,,,,,,,,,,,,,,,,,,,,,,,,,,,,,,,,,,,,,,,,,,,,,,,,,,,,,,,,,,
,,,,,,,,2023-08-16_08h35.30.220,HF_wild_card,2022.2.4,Win32,235.0728726,614d9188dc315950026a6102,64d2fd46c836a06233681665,64dc7c3ba2ce67ee1b033467,,,,,,,,,,,,,,,,,,,,,,,,,,,,,,,,,,,,,,,,0,0,0,0,1,,,,,,,,,,,,,,,,,,,,
