Condition,Low fixed image (Door1),Low risky image (Door2),High fixed image (Door3),High risky image (Door4),Extreme Wild Card,NonExtreme Wild Card,,date,expName,psychopyVersion,OS,frameRate,PROLIFIC_PID,STUDY_ID,SESSION_ID,mouse_2.x,mouse_2.y,mouse_2.leftButton,mouse_2.midButton,mouse_2.rightButton,mouse_2.clicked_name,Trial Type,Left Option Image,Right Option Image,Chosen Door,mouse.x,mouse.y,mouse.leftButton,mouse.midButton,mouse.rightButton,mouse.time,mouse.clicked_name,Feedback,Cumulative Reward,Block,trial.thisRepN,trial.thisTrialN,trial.thisN,trial.thisIndex,trial.ran,blocks.thisRepN,blocks.thisTrialN,blocks.thisN,blocks.thisIndex,blocks.ran,Money conversion,First Outcome Reported,Shown Door (First Outcome),Displayed Image (First Outcome),outcomes.thisRepN,outcomes.thisTrialN,outcomes.thisN,outcomes.thisIndex,outcomes.ran,judgments.thisRepN,judgments.thisTrialN,judgments.thisN,judgments.thisIndex,judgments.ran,freqMouse.x,freqMouse.y,freqMouse.leftButton,freqMouse.midButton,freqMouse.rightButton,freqMouse.clicked_name,FQJ for first outcome,FQJ for second outcome,Shown Door,Displayed Image,trials.thisRepN,trials.thisTrialN,trials.thisN,trials.thisIndex,trials.ran,judgBlock.thisRepN,judgBlock.thisTrialN,judgBlock.thisN,judgBlock.thisIndex,judgBlock.ran
1,resources/DB.BMP,resources/DR.BMP,resources/DBN.BMP,resources/DY.BMP,resources/DP.BMP,resources/DG.BMP,,2023-08-16_08h49.28.383,HF_wild_card,2022.2.4,Win32,61.21449559,6399baf217a79e6c3cd91cca,64d2fd46c836a06233681665,64dc7f0fa21d25c05cb512e9,,,,,,,,,,,,,,,,,,,,,,,,,,,,,,,,,,,,,,,,,,,,,,,,,,,,,,,,,,,,,,,,
,,,,,,,,2023-08-16_08h49.28.383,HF_wild_card,2022.2.4,Win32,61.21449559,6399baf217a79e6c3cd91cca,64d2fd46c836a06233681665,64dc7f0fa21d25c05cb512e9,0.010185185,-0.418518519,1,0,0,agree,,,,,,,,,,,,,,,,,,,,,,,,,,,,,,,,,,,,,,,,,,,,,,,,,,,,,,,,,,
,,,,,,,,2023-08-16_08h49.28.383,HF_wild_card,2022.2.4,Win32,61.21449559,6399baf217a79e6c3cd91cca,64d2fd46c836a06233681665,64dc7f0fa21d25c05cb512e9,,,,,,,,,,,,,,,,,,,,,,,,,,,,,,,,,,,,,,,,,,,,,,,,,,,,,,,,,,,,,,,,
,,,,,,,,2023-08-16_08h49.28.383,HF_wild_card,2022.2.4,Win32,61.21449559,6399baf217a79e6c3cd91cca,64d2fd46c836a06233681665,64dc7f0fa21d25c05cb512e9,,,,,,,decisionTrl,resources/DR.BMP,resources/DB.BMP,Door1,0.266666667,-0.15462963,1,0,0,1.888,optionRight,30,30,1,0,0,0,0,1,,,,,,,,,,,,,,,,,,,,,,,,,,,,,,,,,,,,,,,
,,,,,,,,2023-08-16_08h49.28.383,HF_wild_card,2022.2.4,Win32,61.21449559,6399baf217a79e6c3cd91cca,64d2fd46c836a06233681665,64dc7f0fa21d25c05cb512e9,,,,,,,ctch,resources/DB.BMP,resources/DY.BMP,Door1,-0.343518519,0.000925926,1,0,0,3.0121,optionLeft,30,60,1,1,0,1,0,1,,,,,,,,,,,,,,,,,,,,,,,,,,,,,,,,,,,,,,,
,,,,,,,,2023-08-16_08h49.28.383,HF_wild_card,2022.2.4,Win32,61.21449559,6399baf217a79e6c3cd91cca,64d2fd46c836a06233681665,64dc7f0fa21d25c05cb512e9,,,,,,,decisionTrl,resources/DR.BMP,resources/DG.BMP,WildCard_NonEx,0.341666667,-0.071296296,1,0,0,3.196,optionRight,55,115,1,2,0,2,0,1,,,,,,,,,,,,,,,,,,,,,,,,,,,,,,,,,,,,,,,
,,,,,,,,2023-08-16_08h49.28.383,HF_wild_card,2022.2.4,Win32,61.21449559,6399baf217a79e6c3cd91cca,64d2fd46c836a06233681665,64dc7f0fa21d25c05cb512e9,,,,,,,ctch,resources/DR.BMP,resources/DBN.BMP,Door2,-0.262962963,-0.025,1,0,0,1.8618,optionLeft,20,135,1,3,0,3,0,1,,,,,,,,,,,,,,,,,,,,,,,,,,,,,,,,,,,,,,,
,,,,,,,,2023-08-16_08h49.28.383,HF_wild_card,2022.2.4,Win32,61.21449559,6399baf217a79e6c3cd91cca,64d2fd46c836a06233681665,64dc7f0fa21d25c05cb512e9,,,,,,,decisionTrl,resources/DG.BMP,resources/DB.BMP,Door1,0.349074074,-0.035185185,1,0,0,1.462,optionRight,30,165,1,4,0,4,0,1,,,,,,,,,,,,,,,,,,,,,,,,,,,,,,,,,,,,,,,
,,,,,,,,2023-08-16_08h49.28.383,HF_wild_card,2022.2.4,Win32,61.21449559,6399baf217a79e6c3cd91cca,64d2fd46c836a06233681665,64dc7f0fa21d25c05cb512e9,,,,,,,decisionTrl,resources/DY.BMP,resources/DG.BMP,Door4,-0.350925926,0.022222222,1,0,0,3.4663,optionLeft,60,225,1,5,0,5,0,1,,,,,,,,,,,,,,,,,,,,,,,,,,,,,,,,,,,,,,,
,,,,,,,,2023-08-16_08h49.28.383,HF_wild_card,2022.2.4,Win32,61.21449559,6399baf217a79e6c3cd91cca,64d2fd46c836a06233681665,64dc7f0fa21d25c05cb512e9,,,,,,,sngl,resources/DBN.BMP,resources/Empty.png,Door3,-0.373148148,0.033333333,1,0,0,1.1953,optionLeft,70,295,1,6,0,6,0,1,,,,,,,,,,,,,,,,,,,,,,,,,,,,,,,,,,,,,,,
,,,,,,,,2023-08-16_08h49.28.383,HF_wild_card,2022.2.4,Win32,61.21449559,6399baf217a79e6c3cd91cca,64d2fd46c836a06233681665,64dc7f0fa21d25c05cb512e9,,,,,,,decisionTrl,resources/DR.BMP,resources/DB.BMP,Door2,-0.487962963,0.086111111,1,0,0,1.628,optionLeft,20,315,1,7,0,7,0,1,,,,,,,,,,,,,,,,,,,,,,,,,,,,,,,,,,,,,,,
,,,,,,,,2023-08-16_08h49.28.383,HF_wild_card,2022.2.4,Win32,61.21449559,6399baf217a79e6c3cd91cca,64d2fd46c836a06233681665,64dc7f0fa21d25c05cb512e9,,,,,,,decisionTrl,resources/DR.BMP,resources/DB.BMP,Door1,0.248148148,-0.008333333,1,0,0,0.9629,optionRight,30,345,1,8,0,8,0,1,,,,,,,,,,,,,,,,,,,,,,,,,,,,,,,,,,,,,,,
,,,,,,,,2023-08-16_08h49.28.383,HF_wild_card,2022.2.4,Win32,61.21449559,6399baf217a79e6c3cd91cca,64d2fd46c836a06233681665,64dc7f0fa21d25c05cb512e9,,,,,,,decisionTrl,resources/DB.BMP,resources/DR.BMP,Door1,-0.35462963,0.002777778,1,0,0,1.0454,optionLeft,30,375,1,9,0,9,0,1,,,,,,,,,,,,,,,,,,,,,,,,,,,,,,,,,,,,,,,
,,,,,,,,2023-08-16_08h49.28.383,HF_wild_card,2022.2.4,Win32,61.21449559,6399baf217a79e6c3cd91cca,64d2fd46c836a06233681665,64dc7f0fa21d25c05cb512e9,,,,,,,sngl,resources/DY.BMP,resources/Empty.png,Door4,-0.380555556,0.012037037,1,0,0,0.8794,optionLeft,80,455,1,10,0,10,0,1,,,,,,,,,,,,,,,,,,,,,,,,,,,,,,,,,,,,,,,
,,,,,,,,2023-08-16_08h49.28.383,HF_wild_card,2022.2.4,Win32,61.21449559,6399baf217a79e6c3cd91cca,64d2fd46c836a06233681665,64dc7f0fa21d25c05cb512e9,,,,,,,decisionTrl,resources/DB.BMP,resources/DR.BMP,Door1,-0.49537037,0.038888889,1,0,0,1.1471,optionLeft,30,485,1,11,0,11,0,1,,,,,,,,,,,,,,,,,,,,,,,,,,,,,,,,,,,,,,,
,,,,,,,,2023-08-16_08h49.28.383,HF_wild_card,2022.2.4,Win32,61.21449559,6399baf217a79e6c3cd91cca,64d2fd46c836a06233681665,64dc7f0fa21d25c05cb512e9,,,,,,,sngl,resources/Empty.png,resources/DG.BMP,WildCard_NonEx,0.368518519,-0.040740741,1,0,0,0.9618,optionRight,55,540,1,12,0,12,0,1,,,,,,,,,,,,,,,,,,,,,,,,,,,,,,,,,,,,,,,
,,,,,,,,2023-08-16_08h49.28.383,HF_wild_card,2022.2.4,Win32,61.21449559,6399baf217a79e6c3cd91cca,64d2fd46c836a06233681665,64dc7f0fa21d25c05cb512e9,,,,,,,ctch,resources/DBN.BMP,resources/DR.BMP,Door3,-0.246296296,0.012037037,1,0,0,1.6958,optionLeft,70,610,1,13,0,13,0,1,,,,,,,,,,,,,,,,,,,,,,,,,,,,,,,,,,,,,,,
,,,,,,,,2023-08-16_08h49.28.383,HF_wild_card,2022.2.4,Win32,61.21449559,6399baf217a79e6c3cd91cca,64d2fd46c836a06233681665,64dc7f0fa21d25c05cb512e9,,,,,,,decisionTrl,resources/DY.BMP,resources/DBN.BMP,Door3,0.326851852,-0.025925926,1,0,0,1.314,optionRight,70,680,1,14,0,14,0,1,,,,,,,,,,,,,,,,,,,,,,,,,,,,,,,,,,,,,,,
,,,,,,,,2023-08-16_08h49.28.383,HF_wild_card,2022.2.4,Win32,61.21449559,6399baf217a79e6c3cd91cca,64d2fd46c836a06233681665,64dc7f0fa21d25c05cb512e9,,,,,,,sngl,resources/DG.BMP,resources/Empty.png,WildCard_NonEx,-0.22962963,0.025,1,0,0,0.9484,optionLeft,55,735,1,15,0,15,0,1,,,,,,,,,,,,,,,,,,,,,,,,,,,,,,,,,,,,,,,
,,,,,,,,2023-08-16_08h49.28.383,HF_wild_card,2022.2.4,Win32,61.21449559,6399baf217a79e6c3cd91cca,64d2fd46c836a06233681665,64dc7f0fa21d25c05cb512e9,,,,,,,ctch,resources/DB.BMP,resources/DY.BMP,Door4,0.225925926,-0.048148148,1,0,0,1.5141,optionRight,80,815,1,16,0,16,0,1,,,,,,,,,,,,,,,,,,,,,,,,,,,,,,,,,,,,,,,
,,,,,,,,2023-08-16_08h49.28.383,HF_wild_card,2022.2.4,Win32,61.21449559,6399baf217a79e6c3cd91cca,64d2fd46c836a06233681665,64dc7f0fa21d25c05cb512e9,,,,,,,sngl,resources/DR.BMP,resources/Empty.png,Door2,-0.398148148,0.037037037,1,0,0,0.8642,optionLeft,40,855,1,17,0,17,0,1,,,,,,,,,,,,,,,,,,,,,,,,,,,,,,,,,,,,,,,
,,,,,,,,2023-08-16_08h49.28.383,HF_wild_card,2022.2.4,Win32,61.21449559,6399baf217a79e6c3cd91cca,64d2fd46c836a06233681665,64dc7f0fa21d25c05cb512e9,,,,,,,decisionTrl,resources/DY.BMP,resources/DBN.BMP,Door3,0.321296296,-0.011111111,1,0,0,1.3645,optionRight,70,925,1,18,0,18,0,1,,,,,,,,,,,,,,,,,,,,,,,,,,,,,,,,,,,,,,,
,,,,,,,,2023-08-16_08h49.28.383,HF_wild_card,2022.2.4,Win32,61.21449559,6399baf217a79e6c3cd91cca,64d2fd46c836a06233681665,64dc7f0fa21d25c05cb512e9,,,,,,,ctch,resources/DR.BMP,resources/DBN.BMP,Door3,0.287962963,-0.014814815,1,0,0,1.3795,optionRight,70,995,1,19,0,19,0,1,,,,,,,,,,,,,,,,,,,,,,,,,,,,,,,,,,,,,,,
,,,,,,,,2023-08-16_08h49.28.383,HF_wild_card,2022.2.4,Win32,61.21449559,6399baf217a79e6c3cd91cca,64d2fd46c836a06233681665,64dc7f0fa21d25c05cb512e9,,,,,,,decisionTrl,resources/DY.BMP,resources/DBN.BMP,Door4,-0.409259259,0.080555556,1,0,0,1.7156,optionLeft,80,1075,1,20,0,20,0,1,,,,,,,,,,,,,,,,,,,,,,,,,,,,,,,,,,,,,,,
,,,,,,,,2023-08-16_08h49.28.383,HF_wild_card,2022.2.4,Win32,61.21449559,6399baf217a79e6c3cd91cca,64d2fd46c836a06233681665,64dc7f0fa21d25c05cb512e9,,,,,,,decisionTrl,resources/DBN.BMP,resources/DY.BMP,Door4,0.3,-0.007407407,1,0,0,1.5461,optionRight,80,1155,1,21,0,21,0,1,,,,,,,,,,,,,,,,,,,,,,,,,,,,,,,,,,,,,,,
,,,,,,,,2023-08-16_08h49.28.383,HF_wild_card,2022.2.4,Win32,61.21449559,6399baf217a79e6c3cd91cca,64d2fd46c836a06233681665,64dc7f0fa21d25c05cb512e9,,,,,,,ctch,resources/DY.BMP,resources/DB.BMP,Door4,-0.25,0.038888889,1,0,0,0.9953,optionLeft,60,1215,1,22,0,22,0,1,,,,,,,,,,,,,,,,,,,,,,,,,,,,,,,,,,,,,,,
,,,,,,,,2023-08-16_08h49.28.383,HF_wild_card,2022.2.4,Win32,61.21449559,6399baf217a79e6c3cd91cca,64d2fd46c836a06233681665,64dc7f0fa21d25c05cb512e9,,,,,,,sngl,resources/DG.BMP,resources/Empty.png,WildCard_NonEx,-0.365740741,0.051851852,1,0,0,0.8967,optionLeft,45,1260,1,23,0,23,0,1,,,,,,,,,,,,,,,,,,,,,,,,,,,,,,,,,,,,,,,
,,,,,,,,2023-08-16_08h49.28.383,HF_wild_card,2022.2.4,Win32,61.21449559,6399baf217a79e6c3cd91cca,64d2fd46c836a06233681665,64dc7f0fa21d25c05cb512e9,,,,,,,decisionTrl,resources/DG.BMP,resources/DBN.BMP,Door3,0.231481481,0.001851852,1,0,0,1.3991,optionRight,70,1330,1,24,0,24,0,1,,,,,,,,,,,,,,,,,,,,,,,,,,,,,,,,,,,,,,,
,,,,,,,,2023-08-16_08h49.28.383,HF_wild_card,2022.2.4,Win32,61.21449559,6399baf217a79e6c3cd91cca,64d2fd46c836a06233681665,64dc7f0fa21d25c05cb512e9,,,,,,,decisionTrl,resources/DB.BMP,resources/DR.BMP,Door1,-0.249074074,0.033333333,1,0,0,1.6117,optionLeft,30,1360,1,25,0,25,0,1,,,,,,,,,,,,,,,,,,,,,,,,,,,,,,,,,,,,,,,
,,,,,,,,2023-08-16_08h49.28.383,HF_wild_card,2022.2.4,Win32,61.21449559,6399baf217a79e6c3cd91cca,64d2fd46c836a06233681665,64dc7f0fa21d25c05cb512e9,,,,,,,sngl,resources/Empty.png,resources/DBN.BMP,Door3,0.350925926,-0.046296296,1,0,0,0.7791,optionRight,70,1430,1,26,0,26,0,1,,,,,,,,,,,,,,,,,,,,,,,,,,,,,,,,,,,,,,,
,,,,,,,,2023-08-16_08h49.28.383,HF_wild_card,2022.2.4,Win32,61.21449559,6399baf217a79e6c3cd91cca,64d2fd46c836a06233681665,64dc7f0fa21d25c05cb512e9,,,,,,,decisionTrl,resources/DG.BMP,resources/DY.BMP,Door4,0.310185185,-0.016666667,1,0,0,1.5119,optionRight,80,1510,1,27,0,27,0,1,,,,,,,,,,,,,,,,,,,,,,,,,,,,,,,,,,,,,,,
,,,,,,,,2023-08-16_08h49.28.383,HF_wild_card,2022.2.4,Win32,61.21449559,6399baf217a79e6c3cd91cca,64d2fd46c836a06233681665,64dc7f0fa21d25c05cb512e9,,,,,,,sngl,resources/Empty.png,resources/DB.BMP,Door1,0.228703704,0,1,0,0,0.7964,optionRight,30,1540,1,28,0,28,0,1,,,,,,,,,,,,,,,,,,,,,,,,,,,,,,,,,,,,,,,
,,,,,,,,2023-08-16_08h49.28.383,HF_wild_card,2022.2.4,Win32,61.21449559,6399baf217a79e6c3cd91cca,64d2fd46c836a06233681665,64dc7f0fa21d25c05cb512e9,,,,,,,sngl,resources/Empty.png,resources/DR.BMP,Door2,0.400925926,-0.009259259,1,0,0,0.664,optionRight,20,1560,1,29,0,29,0,1,,,,,,,,,,,,,,,,,,,,,,,,,,,,,,,,,,,,,,,
,,,,,,,,2023-08-16_08h49.28.383,HF_wild_card,2022.2.4,Win32,61.21449559,6399baf217a79e6c3cd91cca,64d2fd46c836a06233681665,64dc7f0fa21d25c05cb512e9,,,,,,,decisionTrl,resources/DB.BMP,resources/DR.BMP,Door1,-0.246296296,0.038888889,1,0,0,1.1467,optionLeft,30,1590,1,30,0,30,0,1,,,,,,,,,,,,,,,,,,,,,,,,,,,,,,,,,,,,,,,
,,,,,,,,2023-08-16_08h49.28.383,HF_wild_card,2022.2.4,Win32,61.21449559,6399baf217a79e6c3cd91cca,64d2fd46c836a06233681665,64dc7f0fa21d25c05cb512e9,,,,,,,ctch,resources/DY.BMP,resources/DB.BMP,Door4,-0.184259259,0.017592593,1,0,0,0.8145,optionLeft,60,1650,1,31,0,31,0,1,,,,,,,,,,,,,,,,,,,,,,,,,,,,,,,,,,,,,,,
,,,,,,,,2023-08-16_08h49.28.383,HF_wild_card,2022.2.4,Win32,61.21449559,6399baf217a79e6c3cd91cca,64d2fd46c836a06233681665,64dc7f0fa21d25c05cb512e9,,,,,,,decisionTrl,resources/DBN.BMP,resources/DY.BMP,Door3,-0.331481481,0.035185185,1,0,0,0.8489,optionLeft,70,1720,1,32,0,32,0,1,,,,,,,,,,,,,,,,,,,,,,,,,,,,,,,,,,,,,,,
,,,,,,,,2023-08-16_08h49.28.383,HF_wild_card,2022.2.4,Win32,61.21449559,6399baf217a79e6c3cd91cca,64d2fd46c836a06233681665,64dc7f0fa21d25c05cb512e9,,,,,,,decisionTrl,resources/DBN.BMP,resources/DY.BMP,Door4,0.331481481,0.015740741,1,0,0,1.5299,optionRight,60,1780,1,33,0,33,0,1,,,,,,,,,,,,,,,,,,,,,,,,,,,,,,,,,,,,,,,
,,,,,,,,2023-08-16_08h49.28.383,HF_wild_card,2022.2.4,Win32,61.21449559,6399baf217a79e6c3cd91cca,64d2fd46c836a06233681665,64dc7f0fa21d25c05cb512e9,,,,,,,sngl,resources/DB.BMP,resources/Empty.png,Door1,-0.287037037,0.012962963,1,0,0,0.6486,optionLeft,30,1810,1,34,0,34,0,1,,,,,,,,,,,,,,,,,,,,,,,,,,,,,,,,,,,,,,,
,,,,,,,,2023-08-16_08h49.28.383,HF_wild_card,2022.2.4,Win32,61.21449559,6399baf217a79e6c3cd91cca,64d2fd46c836a06233681665,64dc7f0fa21d25c05cb512e9,,,,,,,sngl,resources/Empty.png,resources/DG.BMP,WildCard_NonEx,0.272222222,-0.010185185,1,0,0,0.5787,optionRight,45,1855,1,35,0,35,0,1,,,,,,,,,,,,,,,,,,,,,,,,,,,,,,,,,,,,,,,
,,,,,,,,2023-08-16_08h49.28.383,HF_wild_card,2022.2.4,Win32,61.21449559,6399baf217a79e6c3cd91cca,64d2fd46c836a06233681665,64dc7f0fa21d25c05cb512e9,,,,,,,decisionTrl,resources/DG.BMP,resources/DR.BMP,WildCard_NonEx,-0.226851852,0.017592593,1,0,0,1.228,optionLeft,55,1910,1,36,0,36,0,1,,,,,,,,,,,,,,,,,,,,,,,,,,,,,,,,,,,,,,,
,,,,,,,,2023-08-16_08h49.28.383,HF_wild_card,2022.2.4,Win32,61.21449559,6399baf217a79e6c3cd91cca,64d2fd46c836a06233681665,64dc7f0fa21d25c05cb512e9,,,,,,,decisionTrl,resources/DY.BMP,resources/DBN.BMP,Door3,0.255555556,0.008333333,1,0,0,0.8609,optionRight,70,1980,1,37,0,37,0,1,,,,,,,,,,,,,,,,,,,,,,,,,,,,,,,,,,,,,,,
,,,,,,,,2023-08-16_08h49.28.383,HF_wild_card,2022.2.4,Win32,61.21449559,6399baf217a79e6c3cd91cca,64d2fd46c836a06233681665,64dc7f0fa21d25c05cb512e9,,,,,,,decisionTrl,resources/DBN.BMP,resources/DG.BMP,Door3,-0.272222222,0.031481481,1,0,0,0.8467,optionLeft,70,2050,1,38,0,38,0,1,,,,,,,,,,,,,,,,,,,,,,,,,,,,,,,,,,,,,,,
,,,,,,,,2023-08-16_08h49.28.383,HF_wild_card,2022.2.4,Win32,61.21449559,6399baf217a79e6c3cd91cca,64d2fd46c836a06233681665,64dc7f0fa21d25c05cb512e9,,,,,,,decisionTrl,resources/DB.BMP,resources/DG.BMP,WildCard_NonEx,0.416666667,-0.041666667,1,0,0,1.1966,optionRight,45,2095,1,39,0,39,0,1,,,,,,,,,,,,,,,,,,,,,,,,,,,,,,,,,,,,,,,
,,,,,,,,2023-08-16_08h49.28.383,HF_wild_card,2022.2.4,Win32,61.21449559,6399baf217a79e6c3cd91cca,64d2fd46c836a06233681665,64dc7f0fa21d25c05cb512e9,,,,,,,decisionTrl,resources/DBN.BMP,resources/DY.BMP,Door3,-0.300925926,0.07037037,1,0,0,2.7451,optionLeft,70,2165,1,40,0,40,0,1,,,,,,,,,,,,,,,,,,,,,,,,,,,,,,,,,,,,,,,
,,,,,,,,2023-08-16_08h49.28.383,HF_wild_card,2022.2.4,Win32,61.21449559,6399baf217a79e6c3cd91cca,64d2fd46c836a06233681665,64dc7f0fa21d25c05cb512e9,,,,,,,decisionTrl,resources/DR.BMP,resources/DB.BMP,Door1,0.224074074,-0.002777778,1,0,0,1.2125,optionRight,30,2195,1,41,0,41,0,1,,,,,,,,,,,,,,,,,,,,,,,,,,,,,,,,,,,,,,,
,,,,,,,,2023-08-16_08h49.28.383,HF_wild_card,2022.2.4,Win32,61.21449559,6399baf217a79e6c3cd91cca,64d2fd46c836a06233681665,64dc7f0fa21d25c05cb512e9,,,,,,,ctch,resources/DBN.BMP,resources/DR.BMP,Door3,-0.215740741,0.013888889,1,0,0,1.1797,optionLeft,70,2265,1,42,0,42,0,1,,,,,,,,,,,,,,,,,,,,,,,,,,,,,,,,,,,,,,,
,,,,,,,,2023-08-16_08h49.28.383,HF_wild_card,2022.2.4,Win32,61.21449559,6399baf217a79e6c3cd91cca,64d2fd46c836a06233681665,64dc7f0fa21d25c05cb512e9,,,,,,,sngl,resources/Empty.png,resources/DY.BMP,Door4,0.234259259,-0.028703704,1,0,0,0.8618,optionRight,60,2325,1,43,0,43,0,1,,,,,,,,,,,,,,,,,,,,,,,,,,,,,,,,,,,,,,,
,,,,,,,,2023-08-16_08h49.28.383,HF_wild_card,2022.2.4,Win32,61.21449559,6399baf217a79e6c3cd91cca,64d2fd46c836a06233681665,64dc7f0fa21d25c05cb512e9,,,,,,,,,,,,,,,,,,,,,,,,,,0,0,0,0,1,,,,,,,,,,,,,,,,,,,,,,,,,,,,,,,,,,
,,,,,,,,2023-08-16_08h49.28.383,HF_wild_card,2022.2.4,Win32,61.21449559,6399baf217a79e6c3cd91cca,64d2fd46c836a06233681665,64dc7f0fa21d25c05cb512e9,,,,,,,sngl,resources/Empty.png,resources/DG.BMP,WildCard_NonEx,0.297222222,-0.092592593,1,0,0,1.5227,optionRight,55,2380,2,0,0,0,0,1,,,,,,,,,,,,,,,,,,,,,,,,,,,,,,,,,,,,,,,
,,,,,,,,2023-08-16_08h49.28.383,HF_wild_card,2022.2.4,Win32,61.21449559,6399baf217a79e6c3cd91cca,64d2fd46c836a06233681665,64dc7f0fa21d25c05cb512e9,,,,,,,decisionTrl,resources/DY.BMP,resources/DBN.BMP,Door3,0.378703704,0.006481481,1,0,0,1.0971,optionRight,70,2450,2,1,0,1,0,1,,,,,,,,,,,,,,,,,,,,,,,,,,,,,,,,,,,,,,,
,,,,,,,,2023-08-16_08h49.28.383,HF_wild_card,2022.2.4,Win32,61.21449559,6399baf217a79e6c3cd91cca,64d2fd46c836a06233681665,64dc7f0fa21d25c05cb512e9,,,,,,,sngl,resources/DG.BMP,resources/Empty.png,WildCard_NonEx,-0.394444444,0.082407407,1,0,0,0.6125,optionLeft,55,2505,2,2,0,2,0,1,,,,,,,,,,,,,,,,,,,,,,,,,,,,,,,,,,,,,,,
,,,,,,,,2023-08-16_08h49.28.383,HF_wild_card,2022.2.4,Win32,61.21449559,6399baf217a79e6c3cd91cca,64d2fd46c836a06233681665,64dc7f0fa21d25c05cb512e9,,,,,,,decisionTrl,resources/DR.BMP,resources/DB.BMP,Door1,0.231481481,0.008333333,1,0,0,1.2292,optionRight,30,2535,2,3,0,3,0,1,,,,,,,,,,,,,,,,,,,,,,,,,,,,,,,,,,,,,,,
,,,,,,,,2023-08-16_08h49.28.383,HF_wild_card,2022.2.4,Win32,61.21449559,6399baf217a79e6c3cd91cca,64d2fd46c836a06233681665,64dc7f0fa21d25c05cb512e9,,,,,,,decisionTrl,resources/DBN.BMP,resources/DG.BMP,Door3,-0.265740741,0.059259259,1,0,0,1.8474,optionLeft,70,2605,2,4,0,4,0,1,,,,,,,,,,,,,,,,,,,,,,,,,,,,,,,,,,,,,,,
,,,,,,,,2023-08-16_08h49.28.383,HF_wild_card,2022.2.4,Win32,61.21449559,6399baf217a79e6c3cd91cca,64d2fd46c836a06233681665,64dc7f0fa21d25c05cb512e9,,,,,,,decisionTrl,resources/DG.BMP,resources/DB.BMP,WildCard_NonEx,-0.460185185,0.073148148,1,0,0,0.8324,optionLeft,45,2650,2,5,0,5,0,1,,,,,,,,,,,,,,,,,,,,,,,,,,,,,,,,,,,,,,,
,,,,,,,,2023-08-16_08h49.28.383,HF_wild_card,2022.2.4,Win32,61.21449559,6399baf217a79e6c3cd91cca,64d2fd46c836a06233681665,64dc7f0fa21d25c05cb512e9,,,,,,,decisionTrl,resources/DB.BMP,resources/DR.BMP,Door1,-0.460185185,0.027777778,1,0,0,0.9116,optionLeft,30,2680,2,6,0,6,0,1,,,,,,,,,,,,,,,,,,,,,,,,,,,,,,,,,,,,,,,
,,,,,,,,2023-08-16_08h49.28.383,HF_wild_card,2022.2.4,Win32,61.21449559,6399baf217a79e6c3cd91cca,64d2fd46c836a06233681665,64dc7f0fa21d25c05cb512e9,,,,,,,decisionTrl,resources/DBN.BMP,resources/DY.BMP,Door3,-0.275925926,0.013888889,1,0,0,1.0123,optionLeft,70,2750,2,7,0,7,0,1,,,,,,,,,,,,,,,,,,,,,,,,,,,,,,,,,,,,,,,
,,,,,,,,2023-08-16_08h49.28.383,HF_wild_card,2022.2.4,Win32,61.21449559,6399baf217a79e6c3cd91cca,64d2fd46c836a06233681665,64dc7f0fa21d25c05cb512e9,,,,,,,decisionTrl,resources/DR.BMP,resources/DB.BMP,Door1,0.256481481,0.010185185,1,0,0,1.0324,optionRight,30,2780,2,8,0,8,0,1,,,,,,,,,,,,,,,,,,,,,,,,,,,,,,,,,,,,,,,
,,,,,,,,2023-08-16_08h49.28.383,HF_wild_card,2022.2.4,Win32,61.21449559,6399baf217a79e6c3cd91cca,64d2fd46c836a06233681665,64dc7f0fa21d25c05cb512e9,,,,,,,ctch,resources/DY.BMP,resources/DB.BMP,Door4,-0.203703704,0.026851852,1,0,0,1.1326,optionLeft,60,2840,2,9,0,9,0,1,,,,,,,,,,,,,,,,,,,,,,,,,,,,,,,,,,,,,,,
,,,,,,,,2023-08-16_08h49.28.383,HF_wild_card,2022.2.4,Win32,61.21449559,6399baf217a79e6c3cd91cca,64d2fd46c836a06233681665,64dc7f0fa21d25c05cb512e9,,,,,,,ctch,resources/DY.BMP,resources/DB.BMP,Door4,-0.235185185,0.02962963,1,0,0,0.7974,optionLeft,60,2900,2,10,0,10,0,1,,,,,,,,,,,,,,,,,,,,,,,,,,,,,,,,,,,,,,,
,,,,,,,,2023-08-16_08h49.28.383,HF_wild_card,2022.2.4,Win32,61.21449559,6399baf217a79e6c3cd91cca,64d2fd46c836a06233681665,64dc7f0fa21d25c05cb512e9,,,,,,,decisionTrl,resources/DY.BMP,resources/DG.BMP,Door4,-0.25,0.017592593,1,0,0,1.1463,optionLeft,60,2960,2,11,0,11,0,1,,,,,,,,,,,,,,,,,,,,,,,,,,,,,,,,,,,,,,,
,,,,,,,,2023-08-16_08h49.28.383,HF_wild_card,2022.2.4,Win32,61.21449559,6399baf217a79e6c3cd91cca,64d2fd46c836a06233681665,64dc7f0fa21d25c05cb512e9,,,,,,,sngl,resources/Empty.png,resources/DR.BMP,Door2,0.284259259,-0.009259259,1,0,0,0.6964,optionRight,40,3000,2,12,0,12,0,1,,,,,,,,,,,,,,,,,,,,,,,,,,,,,,,,,,,,,,,
,,,,,,,,2023-08-16_08h49.28.383,HF_wild_card,2022.2.4,Win32,61.21449559,6399baf217a79e6c3cd91cca,64d2fd46c836a06233681665,64dc7f0fa21d25c05cb512e9,,,,,,,decisionTrl,resources/DB.BMP,resources/DR.BMP,Door2,0.465740741,-0.022222222,1,0,0,0.9463,optionRight,20,3020,2,13,0,13,0,1,,,,,,,,,,,,,,,,,,,,,,,,,,,,,,,,,,,,,,,
,,,,,,,,2023-08-16_08h49.28.383,HF_wild_card,2022.2.4,Win32,61.21449559,6399baf217a79e6c3cd91cca,64d2fd46c836a06233681665,64dc7f0fa21d25c05cb512e9,,,,,,,decisionTrl,resources/DBN.BMP,resources/DY.BMP,Door3,-0.397222222,0.05,1,0,0,1.2128,optionLeft,70,3090,2,14,0,14,0,1,,,,,,,,,,,,,,,,,,,,,,,,,,,,,,,,,,,,,,,
,,,,,,,,2023-08-16_08h49.28.383,HF_wild_card,2022.2.4,Win32,61.21449559,6399baf217a79e6c3cd91cca,64d2fd46c836a06233681665,64dc7f0fa21d25c05cb512e9,,,,,,,sngl,resources/Empty.png,resources/DY.BMP,Door4,0.247222222,-0.001851852,1,0,0,0.6792,optionRight,80,3170,2,15,0,15,0,1,,,,,,,,,,,,,,,,,,,,,,,,,,,,,,,,,,,,,,,
,,,,,,,,2023-08-16_08h49.28.383,HF_wild_card,2022.2.4,Win32,61.21449559,6399baf217a79e6c3cd91cca,64d2fd46c836a06233681665,64dc7f0fa21d25c05cb512e9,,,,,,,decisionTrl,resources/DR.BMP,resources/DG.BMP,WildCard_NonEx,0.236111111,0.011111111,1,0,0,1.0967,optionRight,45,3215,2,16,0,16,0,1,,,,,,,,,,,,,,,,,,,,,,,,,,,,,,,,,,,,,,,
,,,,,,,,2023-08-16_08h49.28.383,HF_wild_card,2022.2.4,Win32,61.21449559,6399baf217a79e6c3cd91cca,64d2fd46c836a06233681665,64dc7f0fa21d25c05cb512e9,,,,,,,sngl,resources/DY.BMP,resources/Empty.png,Door4,-0.217592593,0.037037037,1,0,0,0.5981,optionLeft,60,3275,2,17,0,17,0,1,,,,,,,,,,,,,,,,,,,,,,,,,,,,,,,,,,,,,,,
,,,,,,,,2023-08-16_08h49.28.383,HF_wild_card,2022.2.4,Win32,61.21449559,6399baf217a79e6c3cd91cca,64d2fd46c836a06233681665,64dc7f0fa21d25c05cb512e9,,,,,,,ctch,resources/DBN.BMP,resources/DR.BMP,Door3,-0.259259259,0.018518519,1,0,0,0.8659,optionLeft,70,3345,2,18,0,18,0,1,,,,,,,,,,,,,,,,,,,,,,,,,,,,,,,,,,,,,,,
,,,,,,,,2023-08-16_08h49.28.383,HF_wild_card,2022.2.4,Win32,61.21449559,6399baf217a79e6c3cd91cca,64d2fd46c836a06233681665,64dc7f0fa21d25c05cb512e9,,,,,,,decisionTrl,resources/DY.BMP,resources/DBN.BMP,Door4,-0.210185185,0.066666667,1,0,0,2.3783,optionLeft,80,3425,2,19,0,19,0,1,,,,,,,,,,,,,,,,,,,,,,,,,,,,,,,,,,,,,,,
,,,,,,,,2023-08-16_08h49.28.383,HF_wild_card,2022.2.4,Win32,61.21449559,6399baf217a79e6c3cd91cca,64d2fd46c836a06233681665,64dc7f0fa21d25c05cb512e9,,,,,,,decisionTrl,resources/DB.BMP,resources/DR.BMP,Door1,-0.198148148,0.024074074,1,0,0,1.9794,optionLeft,30,3455,2,20,0,20,0,1,,,,,,,,,,,,,,,,,,,,,,,,,,,,,,,,,,,,,,,
,,,,,,,,2023-08-16_08h49.28.383,HF_wild_card,2022.2.4,Win32,61.21449559,6399baf217a79e6c3cd91cca,64d2fd46c836a06233681665,64dc7f0fa21d25c05cb512e9,,,,,,,sngl,resources/DG.BMP,resources/Empty.png,WildCard_NonEx,-0.231481481,0.022222222,1,0,0,0.9466,optionLeft,45,3500,2,21,0,21,0,1,,,,,,,,,,,,,,,,,,,,,,,,,,,,,,,,,,,,,,,
,,,,,,,,2023-08-16_08h49.28.383,HF_wild_card,2022.2.4,Win32,61.21449559,6399baf217a79e6c3cd91cca,64d2fd46c836a06233681665,64dc7f0fa21d25c05cb512e9,,,,,,,decisionTrl,resources/DBN.BMP,resources/DY.BMP,Door4,0.327777778,0.002777778,1,0,0,2.4291,optionRight,60,3560,2,22,0,22,0,1,,,,,,,,,,,,,,,,,,,,,,,,,,,,,,,,,,,,,,,
,,,,,,,,2023-08-16_08h49.28.383,HF_wild_card,2022.2.4,Win32,61.21449559,6399baf217a79e6c3cd91cca,64d2fd46c836a06233681665,64dc7f0fa21d25c05cb512e9,,,,,,,decisionTrl,resources/DR.BMP,resources/DB.BMP,Door1,0.228703704,-0.00462963,1,0,0,1.179,optionRight,30,3590,2,23,0,23,0,1,,,,,,,,,,,,,,,,,,,,,,,,,,,,,,,,,,,,,,,
,,,,,,,,2023-08-16_08h49.28.383,HF_wild_card,2022.2.4,Win32,61.21449559,6399baf217a79e6c3cd91cca,64d2fd46c836a06233681665,64dc7f0fa21d25c05cb512e9,,,,,,,sngl,resources/DR.BMP,resources/Empty.png,Door2,-0.285185185,0.062037037,1,0,0,0.8304,optionLeft,20,3610,2,24,0,24,0,1,,,,,,,,,,,,,,,,,,,,,,,,,,,,,,,,,,,,,,,
,,,,,,,,2023-08-16_08h49.28.383,HF_wild_card,2022.2.4,Win32,61.21449559,6399baf217a79e6c3cd91cca,64d2fd46c836a06233681665,64dc7f0fa21d25c05cb512e9,,,,,,,decisionTrl,resources/DG.BMP,resources/DBN.BMP,Door3,0.327777778,0.013888889,1,0,0,3.3968,optionRight,70,3680,2,25,0,25,0,1,,,,,,,,,,,,,,,,,,,,,,,,,,,,,,,,,,,,,,,
,,,,,,,,2023-08-16_08h49.28.383,HF_wild_card,2022.2.4,Win32,61.21449559,6399baf217a79e6c3cd91cca,64d2fd46c836a06233681665,64dc7f0fa21d25c05cb512e9,,,,,,,decisionTrl,resources/DBN.BMP,resources/DY.BMP,Door3,-0.283333333,0.031481481,1,0,0,1.3632,optionLeft,70,3750,2,26,0,26,0,1,,,,,,,,,,,,,,,,,,,,,,,,,,,,,,,,,,,,,,,
,,,,,,,,2023-08-16_08h49.28.383,HF_wild_card,2022.2.4,Win32,61.21449559,6399baf217a79e6c3cd91cca,64d2fd46c836a06233681665,64dc7f0fa21d25c05cb512e9,,,,,,,sngl,resources/Empty.png,resources/DB.BMP,Door1,0.243518519,0.011111111,1,0,0,0.5987,optionRight,30,3780,2,27,0,27,0,1,,,,,,,,,,,,,,,,,,,,,,,,,,,,,,,,,,,,,,,
,,,,,,,,2023-08-16_08h49.28.383,HF_wild_card,2022.2.4,Win32,61.21449559,6399baf217a79e6c3cd91cca,64d2fd46c836a06233681665,64dc7f0fa21d25c05cb512e9,,,,,,,ctch,resources/DB.BMP,resources/DY.BMP,Door4,0.271296296,0.025925926,1,0,0,0.9985,optionRight,60,3840,2,28,0,28,0,1,,,,,,,,,,,,,,,,,,,,,,,,,,,,,,,,,,,,,,,
,,,,,,,,2023-08-16_08h49.28.383,HF_wild_card,2022.2.4,Win32,61.21449559,6399baf217a79e6c3cd91cca,64d2fd46c836a06233681665,64dc7f0fa21d25c05cb512e9,,,,,,,ctch,resources/DB.BMP,resources/DY.BMP,Door4,0.27037037,0.022222222,1,0,0,0.798,optionRight,60,3900,2,29,0,29,0,1,,,,,,,,,,,,,,,,,,,,,,,,,,,,,,,,,,,,,,,
,,,,,,,,2023-08-16_08h49.28.383,HF_wild_card,2022.2.4,Win32,61.21449559,6399baf217a79e6c3cd91cca,64d2fd46c836a06233681665,64dc7f0fa21d25c05cb512e9,,,,,,,decisionTrl,resources/DG.BMP,resources/DY.BMP,WildCard_NonEx,-0.164814815,0.022222222,1,0,0,2.5817,optionLeft,55,3955,2,30,0,30,0,1,,,,,,,,,,,,,,,,,,,,,,,,,,,,,,,,,,,,,,,
,,,,,,,,2023-08-16_08h49.28.383,HF_wild_card,2022.2.4,Win32,61.21449559,6399baf217a79e6c3cd91cca,64d2fd46c836a06233681665,64dc7f0fa21d25c05cb512e9,,,,,,,decisionTrl,resources/DY.BMP,resources/DBN.BMP,Door3,0.303703704,-0.016666667,1,0,0,1.3459,optionRight,70,4025,2,31,0,31,0,1,,,,,,,,,,,,,,,,,,,,,,,,,,,,,,,,,,,,,,,
,,,,,,,,2023-08-16_08h49.28.383,HF_wild_card,2022.2.4,Win32,61.21449559,6399baf217a79e6c3cd91cca,64d2fd46c836a06233681665,64dc7f0fa21d25c05cb512e9,,,,,,,ctch,resources/DBN.BMP,resources/DR.BMP,Door3,-0.212037037,0.015740741,1,0,0,1.3461,optionLeft,70,4095,2,32,0,32,0,1,,,,,,,,,,,,,,,,,,,,,,,,,,,,,,,,,,,,,,,
,,,,,,,,2023-08-16_08h49.28.383,HF_wild_card,2022.2.4,Win32,61.21449559,6399baf217a79e6c3cd91cca,64d2fd46c836a06233681665,64dc7f0fa21d25c05cb512e9,,,,,,,decisionTrl,resources/DR.BMP,resources/DB.BMP,Door2,-0.281481481,0.056481481,1,0,0,1.2447,optionLeft,40,4135,2,33,0,33,0,1,,,,,,,,,,,,,,,,,,,,,,,,,,,,,,,,,,,,,,,
,,,,,,,,2023-08-16_08h49.28.383,HF_wild_card,2022.2.4,Win32,61.21449559,6399baf217a79e6c3cd91cca,64d2fd46c836a06233681665,64dc7f0fa21d25c05cb512e9,,,,,,,sngl,resources/DB.BMP,resources/Empty.png,Door1,-0.30462963,0.055555556,1,0,0,0.696,optionLeft,30,4165,2,34,0,34,0,1,,,,,,,,,,,,,,,,,,,,,,,,,,,,,,,,,,,,,,,
,,,,,,,,2023-08-16_08h49.28.383,HF_wild_card,2022.2.4,Win32,61.21449559,6399baf217a79e6c3cd91cca,64d2fd46c836a06233681665,64dc7f0fa21d25c05cb512e9,,,,,,,sngl,resources/Empty.png,resources/DBN.BMP,Door3,0.22962963,0.018518519,1,0,0,0.8459,optionRight,70,4235,2,35,0,35,0,1,,,,,,,,,,,,,,,,,,,,,,,,,,,,,,,,,,,,,,,
,,,,,,,,2023-08-16_08h49.28.383,HF_wild_card,2022.2.4,Win32,61.21449559,6399baf217a79e6c3cd91cca,64d2fd46c836a06233681665,64dc7f0fa21d25c05cb512e9,,,,,,,decisionTrl,resources/DY.BMP,resources/DBN.BMP,Door4,-0.225,0.036111111,1,0,0,2.8962,optionLeft,80,4315,2,36,0,36,0,1,,,,,,,,,,,,,,,,,,,,,,,,,,,,,,,,,,,,,,,
,,,,,,,,2023-08-16_08h49.28.383,HF_wild_card,2022.2.4,Win32,61.21449559,6399baf217a79e6c3cd91cca,64d2fd46c836a06233681665,64dc7f0fa21d25c05cb512e9,,,,,,,decisionTrl,resources/DG.BMP,resources/DR.BMP,WildCard_NonEx,-0.363888889,0.060185185,1,0,0,1.1467,optionLeft,45,4360,2,37,0,37,0,1,,,,,,,,,,,,,,,,,,,,,,,,,,,,,,,,,,,,,,,
,,,,,,,,2023-08-16_08h49.28.383,HF_wild_card,2022.2.4,Win32,61.21449559,6399baf217a79e6c3cd91cca,64d2fd46c836a06233681665,64dc7f0fa21d25c05cb512e9,,,,,,,ctch,resources/DR.BMP,resources/DBN.BMP,Door3,0.250925926,-0.013888889,1,0,0,1.6324,optionRight,70,4430,2,38,0,38,0,1,,,,,,,,,,,,,,,,,,,,,,,,,,,,,,,,,,,,,,,
,,,,,,,,2023-08-16_08h49.28.383,HF_wild_card,2022.2.4,Win32,61.21449559,6399baf217a79e6c3cd91cca,64d2fd46c836a06233681665,64dc7f0fa21d25c05cb512e9,,,,,,,decisionTrl,resources/DB.BMP,resources/DG.BMP,WildCard_NonEx,0.224074074,0.006481481,1,0,0,1.0286,optionRight,45,4475,2,39,0,39,0,1,,,,,,,,,,,,,,,,,,,,,,,,,,,,,,,,,,,,,,,
,,,,,,,,2023-08-16_08h49.28.383,HF_wild_card,2022.2.4,Win32,61.21449559,6399baf217a79e6c3cd91cca,64d2fd46c836a06233681665,64dc7f0fa21d25c05cb512e9,,,,,,,sngl,resources/DBN.BMP,resources/Empty.png,Door3,-0.223148148,0.035185185,1,0,0,0.6626,optionLeft,70,4545,2,40,0,40,0,1,,,,,,,,,,,,,,,,,,,,,,,,,,,,,,,,,,,,,,,
,,,,,,,,2023-08-16_08h49.28.383,HF_wild_card,2022.2.4,Win32,61.21449559,6399baf217a79e6c3cd91cca,64d2fd46c836a06233681665,64dc7f0fa21d25c05cb512e9,,,,,,,sngl,resources/Empty.png,resources/DG.BMP,WildCard_NonEx,0.232407407,-0.002777778,1,0,0,1.1459,optionRight,45,4590,2,41,0,41,0,1,,,,,,,,,,,,,,,,,,,,,,,,,,,,,,,,,,,,,,,
,,,,,,,,2023-08-16_08h49.28.383,HF_wild_card,2022.2.4,Win32,61.21449559,6399baf217a79e6c3cd91cca,64d2fd46c836a06233681665,64dc7f0fa21d25c05cb512e9,,,,,,,decisionTrl,resources/DB.BMP,resources/DR.BMP,Door1,-0.263888889,0.012962963,1,0,0,1.9798,optionLeft,30,4620,2,42,0,42,0,1,,,,,,,,,,,,,,,,,,,,,,,,,,,,,,,,,,,,,,,
,,,,,,,,2023-08-16_08h49.28.383,HF_wild_card,2022.2.4,Win32,61.21449559,6399baf217a79e6c3cd91cca,64d2fd46c836a06233681665,64dc7f0fa21d25c05cb512e9,,,,,,,ctch,resources/DR.BMP,resources/DBN.BMP,Door3,0.288888889,-0.010185185,1,0,0,1.2615,optionRight,70,4690,2,43,0,43,0,1,,,,,,,,,,,,,,,,,,,,,,,,,,,,,,,,,,,,,,,
,,,,,,,,2023-08-16_08h49.28.383,HF_wild_card,2022.2.4,Win32,61.21449559,6399baf217a79e6c3cd91cca,64d2fd46c836a06233681665,64dc7f0fa21d25c05cb512e9,,,,,,,,,,,,,,,,,,,,,,,,,,1,0,1,0,1,,,,,,,,,,,,,,,,,,,,,,,,,,,,,,,,,,
,,,,,,,,2023-08-16_08h49.28.383,HF_wild_card,2022.2.4,Win32,61.21449559,6399baf217a79e6c3cd91cca,64d2fd46c836a06233681665,64dc7f0fa21d25c05cb512e9,,,,,,,decisionTrl,resources/DY.BMP,resources/DG.BMP,Door4,-0.193518519,-0.141666667,1,0,0,3.3732,optionLeft,80,4770,3,0,0,0,0,1,,,,,,,,,,,,,,,,,,,,,,,,,,,,,,,,,,,,,,,
,,,,,,,,2023-08-16_08h49.28.383,HF_wild_card,2022.2.4,Win32,61.21449559,6399baf217a79e6c3cd91cca,64d2fd46c836a06233681665,64dc7f0fa21d25c05cb512e9,,,,,,,sngl,resources/DG.BMP,resources/Empty.png,WildCard_NonEx,-0.339814815,0.013888889,1,0,0,0.5955,optionLeft,55,4825,3,1,0,1,0,1,,,,,,,,,,,,,,,,,,,,,,,,,,,,,,,,,,,,,,,
,,,,,,,,2023-08-16_08h49.28.383,HF_wild_card,2022.2.4,Win32,61.21449559,6399baf217a79e6c3cd91cca,64d2fd46c836a06233681665,64dc7f0fa21d25c05cb512e9,,,,,,,ctch,resources/DR.BMP,resources/DBN.BMP,Door3,0.261111111,0.02037037,1,0,0,1.1658,optionRight,70,4895,3,2,0,2,0,1,,,,,,,,,,,,,,,,,,,,,,,,,,,,,,,,,,,,,,,
,,,,,,,,2023-08-16_08h49.28.383,HF_wild_card,2022.2.4,Win32,61.21449559,6399baf217a79e6c3cd91cca,64d2fd46c836a06233681665,64dc7f0fa21d25c05cb512e9,,,,,,,sngl,resources/DB.BMP,resources/Empty.png,Door1,-0.502777778,0.064814815,1,0,0,0.5793,optionLeft,30,4925,3,3,0,3,0,1,,,,,,,,,,,,,,,,,,,,,,,,,,,,,,,,,,,,,,,
,,,,,,,,2023-08-16_08h49.28.383,HF_wild_card,2022.2.4,Win32,61.21449559,6399baf217a79e6c3cd91cca,64d2fd46c836a06233681665,64dc7f0fa21d25c05cb512e9,,,,,,,decisionTrl,resources/DB.BMP,resources/DR.BMP,Door1,-0.290740741,0.02962963,1,0,0,1.7143,optionLeft,30,4955,3,4,0,4,0,1,,,,,,,,,,,,,,,,,,,,,,,,,,,,,,,,,,,,,,,
,,,,,,,,2023-08-16_08h49.28.383,HF_wild_card,2022.2.4,Win32,61.21449559,6399baf217a79e6c3cd91cca,64d2fd46c836a06233681665,64dc7f0fa21d25c05cb512e9,,,,,,,decisionTrl,resources/DR.BMP,resources/DB.BMP,Door2,-0.403703704,0.032407407,1,0,0,0.879,optionLeft,20,4975,3,5,0,5,0,1,,,,,,,,,,,,,,,,,,,,,,,,,,,,,,,,,,,,,,,
,,,,,,,,2023-08-16_08h49.28.383,HF_wild_card,2022.2.4,Win32,61.21449559,6399baf217a79e6c3cd91cca,64d2fd46c836a06233681665,64dc7f0fa21d25c05cb512e9,,,,,,,ctch,resources/DY.BMP,resources/DB.BMP,Door4,-0.193518519,0.012037037,1,0,0,0.9967,optionLeft,80,5055,3,6,0,6,0,1,,,,,,,,,,,,,,,,,,,,,,,,,,,,,,,,,,,,,,,
,,,,,,,,2023-08-16_08h49.28.383,HF_wild_card,2022.2.4,Win32,61.21449559,6399baf217a79e6c3cd91cca,64d2fd46c836a06233681665,64dc7f0fa21d25c05cb512e9,,,,,,,sngl,resources/Empty.png,resources/DR.BMP,Door2,0.278703704,-0.037037037,1,0,0,0.7304,optionRight,20,5075,3,7,0,7,0,1,,,,,,,,,,,,,,,,,,,,,,,,,,,,,,,,,,,,,,,
,,,,,,,,2023-08-16_08h49.28.383,HF_wild_card,2022.2.4,Win32,61.21449559,6399baf217a79e6c3cd91cca,64d2fd46c836a06233681665,64dc7f0fa21d25c05cb512e9,,,,,,,ctch,resources/DR.BMP,resources/DBN.BMP,Door3,0.25,-0.003703704,1,0,0,0.7294,optionRight,70,5145,3,8,0,8,0,1,,,,,,,,,,,,,,,,,,,,,,,,,,,,,,,,,,,,,,,
,,,,,,,,2023-08-16_08h49.28.383,HF_wild_card,2022.2.4,Win32,61.21449559,6399baf217a79e6c3cd91cca,64d2fd46c836a06233681665,64dc7f0fa21d25c05cb512e9,,,,,,,decisionTrl,resources/DBN.BMP,resources/DG.BMP,Door3,-0.269444444,0.043518519,1,0,0,0.943,optionLeft,70,5215,3,9,0,9,0,1,,,,,,,,,,,,,,,,,,,,,,,,,,,,,,,,,,,,,,,
,,,,,,,,2023-08-16_08h49.28.383,HF_wild_card,2022.2.4,Win32,61.21449559,6399baf217a79e6c3cd91cca,64d2fd46c836a06233681665,64dc7f0fa21d25c05cb512e9,,,,,,,decisionTrl,resources/DB.BMP,resources/DG.BMP,WildCard_NonEx,0.256481481,-0.00462963,1,0,0,0.8628,optionRight,45,5260,3,10,0,10,0,1,,,,,,,,,,,,,,,,,,,,,,,,,,,,,,,,,,,,,,,
,,,,,,,,2023-08-16_08h49.28.383,HF_wild_card,2022.2.4,Win32,61.21449559,6399baf217a79e6c3cd91cca,64d2fd46c836a06233681665,64dc7f0fa21d25c05cb512e9,,,,,,,decisionTrl,resources/DG.BMP,resources/DY.BMP,Door4,0.357407407,-0.001851852,1,0,0,1.1291,optionRight,60,5320,3,11,0,11,0,1,,,,,,,,,,,,,,,,,,,,,,,,,,,,,,,,,,,,,,,
,,,,,,,,2023-08-16_08h49.28.383,HF_wild_card,2022.2.4,Win32,61.21449559,6399baf217a79e6c3cd91cca,64d2fd46c836a06233681665,64dc7f0fa21d25c05cb512e9,,,,,,,sngl,resources/Empty.png,resources/DY.BMP,Door4,0.47037037,-0.028703704,1,0,0,0.613,optionRight,60,5380,3,12,0,12,0,1,,,,,,,,,,,,,,,,,,,,,,,,,,,,,,,,,,,,,,,
,,,,,,,,2023-08-16_08h49.28.383,HF_wild_card,2022.2.4,Win32,61.21449559,6399baf217a79e6c3cd91cca,64d2fd46c836a06233681665,64dc7f0fa21d25c05cb512e9,,,,,,,decisionTrl,resources/DG.BMP,resources/DBN.BMP,WildCard_NonEx,-0.230555556,-0.002777778,1,0,0,1.3636,optionLeft,55,5435,3,13,0,13,0,1,,,,,,,,,,,,,,,,,,,,,,,,,,,,,,,,,,,,,,,
,,,,,,,,2023-08-16_08h49.28.383,HF_wild_card,2022.2.4,Win32,61.21449559,6399baf217a79e6c3cd91cca,64d2fd46c836a06233681665,64dc7f0fa21d25c05cb512e9,,,,,,,ctch,resources/DB.BMP,resources/DY.BMP,Door4,0.306481481,-0.02962963,1,0,0,0.8809,optionRight,80,5515,3,14,0,14,0,1,,,,,,,,,,,,,,,,,,,,,,,,,,,,,,,,,,,,,,,
,,,,,,,,2023-08-16_08h49.28.383,HF_wild_card,2022.2.4,Win32,61.21449559,6399baf217a79e6c3cd91cca,64d2fd46c836a06233681665,64dc7f0fa21d25c05cb512e9,,,,,,,decisionTrl,resources/DG.BMP,resources/DR.BMP,WildCard_NonEx,-0.311111111,0.044444444,1,0,0,1.1633,optionLeft,55,5570,3,15,0,15,0,1,,,,,,,,,,,,,,,,,,,,,,,,,,,,,,,,,,,,,,,
,,,,,,,,2023-08-16_08h49.28.383,HF_wild_card,2022.2.4,Win32,61.21449559,6399baf217a79e6c3cd91cca,64d2fd46c836a06233681665,64dc7f0fa21d25c05cb512e9,,,,,,,decisionTrl,resources/DB.BMP,resources/DR.BMP,Door2,0.344444444,0.006481481,1,0,0,0.7468,optionRight,20,5590,3,16,0,16,0,1,,,,,,,,,,,,,,,,,,,,,,,,,,,,,,,,,,,,,,,
,,,,,,,,2023-08-16_08h49.28.383,HF_wild_card,2022.2.4,Win32,61.21449559,6399baf217a79e6c3cd91cca,64d2fd46c836a06233681665,64dc7f0fa21d25c05cb512e9,,,,,,,decisionTrl,resources/DY.BMP,resources/DBN.BMP,Door3,0.208333333,0.05,1,0,0,1.0469,optionRight,70,5660,3,17,0,17,0,1,,,,,,,,,,,,,,,,,,,,,,,,,,,,,,,,,,,,,,,
,,,,,,,,2023-08-16_08h49.28.383,HF_wild_card,2022.2.4,Win32,61.21449559,6399baf217a79e6c3cd91cca,64d2fd46c836a06233681665,64dc7f0fa21d25c05cb512e9,,,,,,,decisionTrl,resources/DR.BMP,resources/DB.BMP,Door1,0.364814815,0.005555556,1,0,0,1.4803,optionRight,30,5690,3,18,0,18,0,1,,,,,,,,,,,,,,,,,,,,,,,,,,,,,,,,,,,,,,,
,,,,,,,,2023-08-16_08h49.28.383,HF_wild_card,2022.2.4,Win32,61.21449559,6399baf217a79e6c3cd91cca,64d2fd46c836a06233681665,64dc7f0fa21d25c05cb512e9,,,,,,,ctch,resources/DBN.BMP,resources/DR.BMP,Door3,-0.249074074,0.032407407,1,0,0,1.1469,optionLeft,70,5760,3,19,0,19,0,1,,,,,,,,,,,,,,,,,,,,,,,,,,,,,,,,,,,,,,,
,,,,,,,,2023-08-16_08h49.28.383,HF_wild_card,2022.2.4,Win32,61.21449559,6399baf217a79e6c3cd91cca,64d2fd46c836a06233681665,64dc7f0fa21d25c05cb512e9,,,,,,,sngl,resources/Empty.png,resources/DBN.BMP,Door3,0.283333333,-0.000925926,1,0,0,0.6796,optionRight,70,5830,3,20,0,20,0,1,,,,,,,,,,,,,,,,,,,,,,,,,,,,,,,,,,,,,,,
,,,,,,,,2023-08-16_08h49.28.383,HF_wild_card,2022.2.4,Win32,61.21449559,6399baf217a79e6c3cd91cca,64d2fd46c836a06233681665,64dc7f0fa21d25c05cb512e9,,,,,,,decisionTrl,resources/DY.BMP,resources/DBN.BMP,Door3,0.287962963,-0.012962963,1,0,0,1.0637,optionRight,70,5900,3,21,0,21,0,1,,,,,,,,,,,,,,,,,,,,,,,,,,,,,,,,,,,,,,,
,,,,,,,,2023-08-16_08h49.28.383,HF_wild_card,2022.2.4,Win32,61.21449559,6399baf217a79e6c3cd91cca,64d2fd46c836a06233681665,64dc7f0fa21d25c05cb512e9,,,,,,,sngl,resources/DY.BMP,resources/Empty.png,Door4,-0.262037037,0.027777778,1,0,0,0.5631,optionLeft,80,5980,3,22,0,22,0,1,,,,,,,,,,,,,,,,,,,,,,,,,,,,,,,,,,,,,,,
,,,,,,,,2023-08-16_08h49.28.383,HF_wild_card,2022.2.4,Win32,61.21449559,6399baf217a79e6c3cd91cca,64d2fd46c836a06233681665,64dc7f0fa21d25c05cb512e9,,,,,,,sngl,resources/Empty.png,resources/DB.BMP,Door1,0.259259259,0.015740741,1,0,0,0.6955,optionRight,30,6010,3,23,0,23,0,1,,,,,,,,,,,,,,,,,,,,,,,,,,,,,,,,,,,,,,,
,,,,,,,,2023-08-16_08h49.28.383,HF_wild_card,2022.2.4,Win32,61.21449559,6399baf217a79e6c3cd91cca,64d2fd46c836a06233681665,64dc7f0fa21d25c05cb512e9,,,,,,,sngl,resources/Empty.png,resources/DG.BMP,WildCard_NonEx,0.428703704,-0.014814815,1,0,0,0.6134,optionRight,55,6065,3,24,0,24,0,1,,,,,,,,,,,,,,,,,,,,,,,,,,,,,,,,,,,,,,,
,,,,,,,,2023-08-16_08h49.28.383,HF_wild_card,2022.2.4,Win32,61.21449559,6399baf217a79e6c3cd91cca,64d2fd46c836a06233681665,64dc7f0fa21d25c05cb512e9,,,,,,,ctch,resources/DY.BMP,resources/DB.BMP,Door4,-0.136111111,0.028703704,1,0,0,0.9815,optionLeft,60,6125,3,25,0,25,0,1,,,,,,,,,,,,,,,,,,,,,,,,,,,,,,,,,,,,,,,
,,,,,,,,2023-08-16_08h49.28.383,HF_wild_card,2022.2.4,Win32,61.21449559,6399baf217a79e6c3cd91cca,64d2fd46c836a06233681665,64dc7f0fa21d25c05cb512e9,,,,,,,decisionTrl,resources/DBN.BMP,resources/DY.BMP,Door3,-0.421296296,0.081481481,1,0,0,0.9302,optionLeft,70,6195,3,26,0,26,0,1,,,,,,,,,,,,,,,,,,,,,,,,,,,,,,,,,,,,,,,
,,,,,,,,2023-08-16_08h49.28.383,HF_wild_card,2022.2.4,Win32,61.21449559,6399baf217a79e6c3cd91cca,64d2fd46c836a06233681665,64dc7f0fa21d25c05cb512e9,,,,,,,decisionTrl,resources/DBN.BMP,resources/DY.BMP,Door3,-0.236111111,0.028703704,1,0,0,0.58,optionLeft,70,6265,3,27,0,27,0,1,,,,,,,,,,,,,,,,,,,,,,,,,,,,,,,,,,,,,,,
,,,,,,,,2023-08-16_08h49.28.383,HF_wild_card,2022.2.4,Win32,61.21449559,6399baf217a79e6c3cd91cca,64d2fd46c836a06233681665,64dc7f0fa21d25c05cb512e9,,,,,,,decisionTrl,resources/DR.BMP,resources/DB.BMP,Door1,0.2,-0.055555556,1,0,0,1.2799,optionRight,30,6295,3,28,0,28,0,1,,,,,,,,,,,,,,,,,,,,,,,,,,,,,,,,,,,,,,,
,,,,,,,,2023-08-16_08h49.28.383,HF_wild_card,2022.2.4,Win32,61.21449559,6399baf217a79e6c3cd91cca,64d2fd46c836a06233681665,64dc7f0fa21d25c05cb512e9,,,,,,,sngl,resources/Empty.png,resources/DG.BMP,WildCard_NonEx,0.238888889,0.006481481,1,0,0,0.598,optionRight,45,6340,3,29,0,29,0,1,,,,,,,,,,,,,,,,,,,,,,,,,,,,,,,,,,,,,,,
,,,,,,,,2023-08-16_08h49.28.383,HF_wild_card,2022.2.4,Win32,61.21449559,6399baf217a79e6c3cd91cca,64d2fd46c836a06233681665,64dc7f0fa21d25c05cb512e9,,,,,,,decisionTrl,resources/DBN.BMP,resources/DY.BMP,Door3,-0.223148148,0.039814815,1,0,0,1.3634,optionLeft,70,6410,3,30,0,30,0,1,,,,,,,,,,,,,,,,,,,,,,,,,,,,,,,,,,,,,,,
,,,,,,,,2023-08-16_08h49.28.383,HF_wild_card,2022.2.4,Win32,61.21449559,6399baf217a79e6c3cd91cca,64d2fd46c836a06233681665,64dc7f0fa21d25c05cb512e9,,,,,,,sngl,resources/DBN.BMP,resources/Empty.png,Door3,-0.284259259,0.059259259,1,0,0,0.5976,optionLeft,70,6480,3,31,0,31,0,1,,,,,,,,,,,,,,,,,,,,,,,,,,,,,,,,,,,,,,,
,,,,,,,,2023-08-16_08h49.28.383,HF_wild_card,2022.2.4,Win32,61.21449559,6399baf217a79e6c3cd91cca,64d2fd46c836a06233681665,64dc7f0fa21d25c05cb512e9,,,,,,,sngl,resources/DG.BMP,resources/Empty.png,WildCard_NonEx,-0.314814815,0.050925926,1,0,0,0.5473,optionLeft,45,6525,3,32,0,32,0,1,,,,,,,,,,,,,,,,,,,,,,,,,,,,,,,,,,,,,,,
,,,,,,,,2023-08-16_08h49.28.383,HF_wild_card,2022.2.4,Win32,61.21449559,6399baf217a79e6c3cd91cca,64d2fd46c836a06233681665,64dc7f0fa21d25c05cb512e9,,,,,,,decisionTrl,resources/DG.BMP,resources/DB.BMP,WildCard_NonEx,-0.293518519,0.039814815,1,0,0,0.8805,optionLeft,55,6580,3,33,0,33,0,1,,,,,,,,,,,,,,,,,,,,,,,,,,,,,,,,,,,,,,,
,,,,,,,,2023-08-16_08h49.28.383,HF_wild_card,2022.2.4,Win32,61.21449559,6399baf217a79e6c3cd91cca,64d2fd46c836a06233681665,64dc7f0fa21d25c05cb512e9,,,,,,,decisionTrl,resources/DBN.BMP,resources/DY.BMP,Door4,0.249074074,0.003703704,1,0,0,1.4139,optionRight,60,6640,3,34,0,34,0,1,,,,,,,,,,,,,,,,,,,,,,,,,,,,,,,,,,,,,,,
,,,,,,,,2023-08-16_08h49.28.383,HF_wild_card,2022.2.4,Win32,61.21449559,6399baf217a79e6c3cd91cca,64d2fd46c836a06233681665,64dc7f0fa21d25c05cb512e9,,,,,,,decisionTrl,resources/DR.BMP,resources/DB.BMP,Door1,0.262037037,-0.011111111,1,0,0,1.199,optionRight,30,6670,3,35,0,35,0,1,,,,,,,,,,,,,,,,,,,,,,,,,,,,,,,,,,,,,,,
,,,,,,,,2023-08-16_08h49.28.383,HF_wild_card,2022.2.4,Win32,61.21449559,6399baf217a79e6c3cd91cca,64d2fd46c836a06233681665,64dc7f0fa21d25c05cb512e9,,,,,,,decisionTrl,resources/DY.BMP,resources/DBN.BMP,Door3,0.232407407,0.005555556,1,0,0,0.9802,optionRight,70,6740,3,36,0,36,0,1,,,,,,,,,,,,,,,,,,,,,,,,,,,,,,,,,,,,,,,
,,,,,,,,2023-08-16_08h49.28.383,HF_wild_card,2022.2.4,Win32,61.21449559,6399baf217a79e6c3cd91cca,64d2fd46c836a06233681665,64dc7f0fa21d25c05cb512e9,,,,,,,ctch,resources/DB.BMP,resources/DY.BMP,Door4,0.45462963,-0.038888889,1,0,0,0.8632,optionRight,80,6820,3,37,0,37,0,1,,,,,,,,,,,,,,,,,,,,,,,,,,,,,,,,,,,,,,,
,,,,,,,,2023-08-16_08h49.28.383,HF_wild_card,2022.2.4,Win32,61.21449559,6399baf217a79e6c3cd91cca,64d2fd46c836a06233681665,64dc7f0fa21d25c05cb512e9,,,,,,,decisionTrl,resources/DY.BMP,resources/DBN.BMP,Door4,-0.238888889,0.048148148,1,0,0,0.6133,optionLeft,80,6900,3,38,0,38,0,1,,,,,,,,,,,,,,,,,,,,,,,,,,,,,,,,,,,,,,,
,,,,,,,,2023-08-16_08h49.28.383,HF_wild_card,2022.2.4,Win32,61.21449559,6399baf217a79e6c3cd91cca,64d2fd46c836a06233681665,64dc7f0fa21d25c05cb512e9,,,,,,,decisionTrl,resources/DB.BMP,resources/DR.BMP,Door1,-0.221296296,0.032407407,1,0,0,0.8297,optionLeft,30,6930,3,39,0,39,0,1,,,,,,,,,,,,,,,,,,,,,,,,,,,,,,,,,,,,,,,
,,,,,,,,2023-08-16_08h49.28.383,HF_wild_card,2022.2.4,Win32,61.21449559,6399baf217a79e6c3cd91cca,64d2fd46c836a06233681665,64dc7f0fa21d25c05cb512e9,,,,,,,decisionTrl,resources/DB.BMP,resources/DR.BMP,Door1,-0.259259259,0.036111111,1,0,0,0.6465,optionLeft,30,6960,3,40,0,40,0,1,,,,,,,,,,,,,,,,,,,,,,,,,,,,,,,,,,,,,,,
,,,,,,,,2023-08-16_08h49.28.383,HF_wild_card,2022.2.4,Win32,61.21449559,6399baf217a79e6c3cd91cca,64d2fd46c836a06233681665,64dc7f0fa21d25c05cb512e9,,,,,,,decisionTrl,resources/DR.BMP,resources/DG.BMP,WildCard_NonEx,0.263888889,0,1,0,0,0.9967,optionRight,55,7015,3,41,0,41,0,1,,,,,,,,,,,,,,,,,,,,,,,,,,,,,,,,,,,,,,,
,,,,,,,,2023-08-16_08h49.28.383,HF_wild_card,2022.2.4,Win32,61.21449559,6399baf217a79e6c3cd91cca,64d2fd46c836a06233681665,64dc7f0fa21d25c05cb512e9,,,,,,,ctch,resources/DBN.BMP,resources/DR.BMP,Door3,-0.276851852,0.060185185,1,0,0,0.9635,optionLeft,70,7085,3,42,0,42,0,1,,,,,,,,,,,,,,,,,,,,,,,,,,,,,,,,,,,,,,,
,,,,,,,,2023-08-16_08h49.28.383,HF_wild_card,2022.2.4,Win32,61.21449559,6399baf217a79e6c3cd91cca,64d2fd46c836a06233681665,64dc7f0fa21d25c05cb512e9,,,,,,,sngl,resources/DR.BMP,resources/Empty.png,Door2,-0.224074074,0.050925926,1,0,0,0.5623,optionLeft,40,7125,3,43,0,43,0,1,,,,,,,,,,,,,,,,,,,,,,,,,,,,,,,,,,,,,,,
,,,,,,,,2023-08-16_08h49.28.383,HF_wild_card,2022.2.4,Win32,61.21449559,6399baf217a79e6c3cd91cca,64d2fd46c836a06233681665,64dc7f0fa21d25c05cb512e9,,,,,,,,,,,,,,,,,,,,,,,,,,2,0,2,0,1,,,,,,,,,,,,,,,,,,,,,,,,,,,,,,,,,,
,,,,,,,,2023-08-16_08h49.28.383,HF_wild_card,2022.2.4,Win32,61.21449559,6399baf217a79e6c3cd91cca,64d2fd46c836a06233681665,64dc7f0fa21d25c05cb512e9,,,,,,,ctch,resources/DY.BMP,resources/DB.BMP,Door4,-0.297222222,0.012037037,1,0,0,1.4896,optionLeft,60,7185,4,0,0,0,0,1,,,,,,,,,,,,,,,,,,,,,,,,,,,,,,,,,,,,,,,
,,,,,,,,2023-08-16_08h49.28.383,HF_wild_card,2022.2.4,Win32,61.21449559,6399baf217a79e6c3cd91cca,64d2fd46c836a06233681665,64dc7f0fa21d25c05cb512e9,,,,,,,decisionTrl,resources/DR.BMP,resources/DB.BMP,Door2,-0.466666667,0.086111111,1,0,0,1.9302,optionLeft,20,7205,4,1,0,1,0,1,,,,,,,,,,,,,,,,,,,,,,,,,,,,,,,,,,,,,,,
,,,,,,,,2023-08-16_08h49.28.383,HF_wild_card,2022.2.4,Win32,61.21449559,6399baf217a79e6c3cd91cca,64d2fd46c836a06233681665,64dc7f0fa21d25c05cb512e9,,,,,,,decisionTrl,resources/DP.BMP,resources/DBN.BMP,WildCard_Ex,-0.273148148,0.027777778,1,0,0,1.3632,optionLeft,95,7300,4,2,0,2,0,1,,,,,,,,,,,,,,,,,,,,,,,,,,,,,,,,,,,,,,,
,,,,,,,,2023-08-16_08h49.28.383,HF_wild_card,2022.2.4,Win32,61.21449559,6399baf217a79e6c3cd91cca,64d2fd46c836a06233681665,64dc7f0fa21d25c05cb512e9,,,,,,,decisionTrl,resources/DP.BMP,resources/DY.BMP,WildCard_Ex,-0.22962963,-0.026851852,1,0,0,0.7649,optionLeft,5,7305,4,3,0,3,0,1,,,,,,,,,,,,,,,,,,,,,,,,,,,,,,,,,,,,,,,
,,,,,,,,2023-08-16_08h49.28.383,HF_wild_card,2022.2.4,Win32,61.21449559,6399baf217a79e6c3cd91cca,64d2fd46c836a06233681665,64dc7f0fa21d25c05cb512e9,,,,,,,sngl,resources/DP.BMP,resources/Empty.png,WildCard_Ex,-0.259259259,0.022222222,1,0,0,0.8296,optionLeft,5,7310,4,4,0,4,0,1,,,,,,,,,,,,,,,,,,,,,,,,,,,,,,,,,,,,,,,
,,,,,,,,2023-08-16_08h49.28.383,HF_wild_card,2022.2.4,Win32,61.21449559,6399baf217a79e6c3cd91cca,64d2fd46c836a06233681665,64dc7f0fa21d25c05cb512e9,,,,,,,decisionTrl,resources/DY.BMP,resources/DBN.BMP,Door3,0.337962963,0.00462963,1,0,0,1.2804,optionRight,70,7380,4,5,0,5,0,1,,,,,,,,,,,,,,,,,,,,,,,,,,,,,,,,,,,,,,,
,,,,,,,,2023-08-16_08h49.28.383,HF_wild_card,2022.2.4,Win32,61.21449559,6399baf217a79e6c3cd91cca,64d2fd46c836a06233681665,64dc7f0fa21d25c05cb512e9,,,,,,,sngl,resources/DY.BMP,resources/Empty.png,Door4,-0.283333333,0.047222222,1,0,0,0.6643,optionLeft,60,7440,4,6,0,6,0,1,,,,,,,,,,,,,,,,,,,,,,,,,,,,,,,,,,,,,,,
,,,,,,,,2023-08-16_08h49.28.383,HF_wild_card,2022.2.4,Win32,61.21449559,6399baf217a79e6c3cd91cca,64d2fd46c836a06233681665,64dc7f0fa21d25c05cb512e9,,,,,,,decisionTrl,resources/DB.BMP,resources/DR.BMP,Door1,-0.372222222,0.023148148,1,0,0,1.0138,optionLeft,30,7470,4,7,0,7,0,1,,,,,,,,,,,,,,,,,,,,,,,,,,,,,,,,,,,,,,,
,,,,,,,,2023-08-16_08h49.28.383,HF_wild_card,2022.2.4,Win32,61.21449559,6399baf217a79e6c3cd91cca,64d2fd46c836a06233681665,64dc7f0fa21d25c05cb512e9,,,,,,,sngl,resources/Empty.png,resources/DB.BMP,Door1,0.191666667,0.008333333,1,0,0,0.6129,optionRight,30,7500,4,8,0,8,0,1,,,,,,,,,,,,,,,,,,,,,,,,,,,,,,,,,,,,,,,
,,,,,,,,2023-08-16_08h49.28.383,HF_wild_card,2022.2.4,Win32,61.21449559,6399baf217a79e6c3cd91cca,64d2fd46c836a06233681665,64dc7f0fa21d25c05cb512e9,,,,,,,decisionTrl,resources/DP.BMP,resources/DR.BMP,WildCard_Ex,-0.271296296,0.003703704,1,0,0,1.8801,optionLeft,5,7505,4,9,0,9,0,1,,,,,,,,,,,,,,,,,,,,,,,,,,,,,,,,,,,,,,,
,,,,,,,,2023-08-16_08h49.28.383,HF_wild_card,2022.2.4,Win32,61.21449559,6399baf217a79e6c3cd91cca,64d2fd46c836a06233681665,64dc7f0fa21d25c05cb512e9,,,,,,,decisionTrl,resources/DR.BMP,resources/DB.BMP,Door1,0.182407407,-0.005555556,1,0,0,1.1285,optionRight,30,7535,4,10,0,10,0,1,,,,,,,,,,,,,,,,,,,,,,,,,,,,,,,,,,,,,,,
,,,,,,,,2023-08-16_08h49.28.383,HF_wild_card,2022.2.4,Win32,61.21449559,6399baf217a79e6c3cd91cca,64d2fd46c836a06233681665,64dc7f0fa21d25c05cb512e9,,,,,,,ctch,resources/DBN.BMP,resources/DR.BMP,Door3,-0.363888889,0.037037037,1,0,0,0.7661,optionLeft,70,7605,4,11,0,11,0,1,,,,,,,,,,,,,,,,,,,,,,,,,,,,,,,,,,,,,,,
,,,,,,,,2023-08-16_08h49.28.383,HF_wild_card,2022.2.4,Win32,61.21449559,6399baf217a79e6c3cd91cca,64d2fd46c836a06233681665,64dc7f0fa21d25c05cb512e9,,,,,,,decisionTrl,resources/DBN.BMP,resources/DY.BMP,Door3,-0.358333333,0.019444444,1,0,0,1.2147,optionLeft,70,7675,4,12,0,12,0,1,,,,,,,,,,,,,,,,,,,,,,,,,,,,,,,,,,,,,,,
,,,,,,,,2023-08-16_08h49.28.383,HF_wild_card,2022.2.4,Win32,61.21449559,6399baf217a79e6c3cd91cca,64d2fd46c836a06233681665,64dc7f0fa21d25c05cb512e9,,,,,,,decisionTrl,resources/DY.BMP,resources/DP.BMP,WildCard_Ex,0.348148148,-0.013888889,1,0,0,1.7295,optionRight,95,7770,4,13,0,13,0,1,,,,,,,,,,,,,,,,,,,,,,,,,,,,,,,,,,,,,,,
,,,,,,,,2023-08-16_08h49.28.383,HF_wild_card,2022.2.4,Win32,61.21449559,6399baf217a79e6c3cd91cca,64d2fd46c836a06233681665,64dc7f0fa21d25c05cb512e9,,,,,,,sngl,resources/DB.BMP,resources/Empty.png,Door1,-0.291666667,0.024074074,1,0,0,0.7298,optionLeft,30,7800,4,14,0,14,0,1,,,,,,,,,,,,,,,,,,,,,,,,,,,,,,,,,,,,,,,
,,,,,,,,2023-08-16_08h49.28.383,HF_wild_card,2022.2.4,Win32,61.21449559,6399baf217a79e6c3cd91cca,64d2fd46c836a06233681665,64dc7f0fa21d25c05cb512e9,,,,,,,decisionTrl,resources/DBN.BMP,resources/DY.BMP,Door3,-0.297222222,-0.003703704,1,0,0,0.8308,optionLeft,70,7870,4,15,0,15,0,1,,,,,,,,,,,,,,,,,,,,,,,,,,,,,,,,,,,,,,,
,,,,,,,,2023-08-16_08h49.28.383,HF_wild_card,2022.2.4,Win32,61.21449559,6399baf217a79e6c3cd91cca,64d2fd46c836a06233681665,64dc7f0fa21d25c05cb512e9,,,,,,,decisionTrl,resources/DY.BMP,resources/DBN.BMP,Door4,-0.394444444,0.018518519,1,0,0,1.1958,optionLeft,80,7950,4,16,0,16,0,1,,,,,,,,,,,,,,,,,,,,,,,,,,,,,,,,,,,,,,,
,,,,,,,,2023-08-16_08h49.28.383,HF_wild_card,2022.2.4,Win32,61.21449559,6399baf217a79e6c3cd91cca,64d2fd46c836a06233681665,64dc7f0fa21d25c05cb512e9,,,,,,,ctch,resources/DY.BMP,resources/DB.BMP,Door4,-0.318518519,0.008333333,1,0,0,0.7643,optionLeft,80,8030,4,17,0,17,0,1,,,,,,,,,,,,,,,,,,,,,,,,,,,,,,,,,,,,,,,
,,,,,,,,2023-08-16_08h49.28.383,HF_wild_card,2022.2.4,Win32,61.21449559,6399baf217a79e6c3cd91cca,64d2fd46c836a06233681665,64dc7f0fa21d25c05cb512e9,,,,,,,sngl,resources/DP.BMP,resources/Empty.png,WildCard_Ex,-0.315740741,0.017592593,1,0,0,0.9807,optionLeft,95,8125,4,18,0,18,0,1,,,,,,,,,,,,,,,,,,,,,,,,,,,,,,,,,,,,,,,
,,,,,,,,2023-08-16_08h49.28.383,HF_wild_card,2022.2.4,Win32,61.21449559,6399baf217a79e6c3cd91cca,64d2fd46c836a06233681665,64dc7f0fa21d25c05cb512e9,,,,,,,decisionTrl,resources/DR.BMP,resources/DB.BMP,Door1,0.301851852,0.005555556,1,0,0,1.2981,optionRight,30,8155,4,19,0,19,0,1,,,,,,,,,,,,,,,,,,,,,,,,,,,,,,,,,,,,,,,
,,,,,,,,2023-08-16_08h49.28.383,HF_wild_card,2022.2.4,Win32,61.21449559,6399baf217a79e6c3cd91cca,64d2fd46c836a06233681665,64dc7f0fa21d25c05cb512e9,,,,,,,ctch,resources/DB.BMP,resources/DY.BMP,Door4,0.330555556,0.025,1,0,0,0.9979,optionRight,80,8235,4,20,0,20,0,1,,,,,,,,,,,,,,,,,,,,,,,,,,,,,,,,,,,,,,,
,,,,,,,,2023-08-16_08h49.28.383,HF_wild_card,2022.2.4,Win32,61.21449559,6399baf217a79e6c3cd91cca,64d2fd46c836a06233681665,64dc7f0fa21d25c05cb512e9,,,,,,,decisionTrl,resources/DB.BMP,resources/DR.BMP,Door1,-0.291666667,0.040740741,1,0,0,0.9958,optionLeft,30,8265,4,21,0,21,0,1,,,,,,,,,,,,,,,,,,,,,,,,,,,,,,,,,,,,,,,
,,,,,,,,2023-08-16_08h49.28.383,HF_wild_card,2022.2.4,Win32,61.21449559,6399baf217a79e6c3cd91cca,64d2fd46c836a06233681665,64dc7f0fa21d25c05cb512e9,,,,,,,sngl,resources/DR.BMP,resources/Empty.png,Door2,-0.236111111,0.000925926,1,0,0,0.5973,optionLeft,20,8285,4,22,0,22,0,1,,,,,,,,,,,,,,,,,,,,,,,,,,,,,,,,,,,,,,,
,,,,,,,,2023-08-16_08h49.28.383,HF_wild_card,2022.2.4,Win32,61.21449559,6399baf217a79e6c3cd91cca,64d2fd46c836a06233681665,64dc7f0fa21d25c05cb512e9,,,,,,,decisionTrl,resources/DR.BMP,resources/DP.BMP,WildCard_Ex,0.362962963,-0.009259259,1,0,0,1.0134,optionRight,5,8290,4,23,0,23,0,1,,,,,,,,,,,,,,,,,,,,,,,,,,,,,,,,,,,,,,,
,,,,,,,,2023-08-16_08h49.28.383,HF_wild_card,2022.2.4,Win32,61.21449559,6399baf217a79e6c3cd91cca,64d2fd46c836a06233681665,64dc7f0fa21d25c05cb512e9,,,,,,,ctch,resources/DR.BMP,resources/DBN.BMP,Door3,0.259259259,0.011111111,1,0,0,1.4793,optionRight,70,8360,4,24,0,24,0,1,,,,,,,,,,,,,,,,,,,,,,,,,,,,,,,,,,,,,,,
,,,,,,,,2023-08-16_08h49.28.383,HF_wild_card,2022.2.4,Win32,61.21449559,6399baf217a79e6c3cd91cca,64d2fd46c836a06233681665,64dc7f0fa21d25c05cb512e9,,,,,,,sngl,resources/Empty.png,resources/DBN.BMP,Door3,0.235185185,-0.013888889,1,0,0,0.6133,optionRight,70,8430,4,25,0,25,0,1,,,,,,,,,,,,,,,,,,,,,,,,,,,,,,,,,,,,,,,
,,,,,,,,2023-08-16_08h49.28.383,HF_wild_card,2022.2.4,Win32,61.21449559,6399baf217a79e6c3cd91cca,64d2fd46c836a06233681665,64dc7f0fa21d25c05cb512e9,,,,,,,decisionTrl,resources/DBN.BMP,resources/DP.BMP,Door3,-0.200925926,0.013888889,1,0,0,1.5641,optionLeft,70,8500,4,26,0,26,0,1,,,,,,,,,,,,,,,,,,,,,,,,,,,,,,,,,,,,,,,
,,,,,,,,2023-08-16_08h49.28.383,HF_wild_card,2022.2.4,Win32,61.21449559,6399baf217a79e6c3cd91cca,64d2fd46c836a06233681665,64dc7f0fa21d25c05cb512e9,,,,,,,decisionTrl,resources/DP.BMP,resources/DB.BMP,Door1,0.317592593,0.021296296,1,0,0,2.7452,optionRight,30,8530,4,27,0,27,0,1,,,,,,,,,,,,,,,,,,,,,,,,,,,,,,,,,,,,,,,
,,,,,,,,2023-08-16_08h49.28.383,HF_wild_card,2022.2.4,Win32,61.21449559,6399baf217a79e6c3cd91cca,64d2fd46c836a06233681665,64dc7f0fa21d25c05cb512e9,,,,,,,ctch,resources/DR.BMP,resources/DBN.BMP,Door3,0.381481481,-0.015740741,1,0,0,1.0154,optionRight,70,8600,4,28,0,28,0,1,,,,,,,,,,,,,,,,,,,,,,,,,,,,,,,,,,,,,,,
,,,,,,,,2023-08-16_08h49.28.383,HF_wild_card,2022.2.4,Win32,61.21449559,6399baf217a79e6c3cd91cca,64d2fd46c836a06233681665,64dc7f0fa21d25c05cb512e9,,,,,,,decisionTrl,resources/DR.BMP,resources/DB.BMP,Door1,0.328703704,-0.025,1,0,0,1.1634,optionRight,30,8630,4,29,0,29,0,1,,,,,,,,,,,,,,,,,,,,,,,,,,,,,,,,,,,,,,,
,,,,,,,,2023-08-16_08h49.28.383,HF_wild_card,2022.2.4,Win32,61.21449559,6399baf217a79e6c3cd91cca,64d2fd46c836a06233681665,64dc7f0fa21d25c05cb512e9,,,,,,,decisionTrl,resources/DB.BMP,resources/DR.BMP,Door1,-0.358333333,0.072222222,1,0,0,0.8987,optionLeft,30,8660,4,30,0,30,0,1,,,,,,,,,,,,,,,,,,,,,,,,,,,,,,,,,,,,,,,
,,,,,,,,2023-08-16_08h49.28.383,HF_wild_card,2022.2.4,Win32,61.21449559,6399baf217a79e6c3cd91cca,64d2fd46c836a06233681665,64dc7f0fa21d25c05cb512e9,,,,,,,decisionTrl,resources/DBN.BMP,resources/DY.BMP,Door4,0.308333333,0.035185185,1,0,0,1.696,optionRight,80,8740,4,31,0,31,0,1,,,,,,,,,,,,,,,,,,,,,,,,,,,,,,,,,,,,,,,
,,,,,,,,2023-08-16_08h49.28.383,HF_wild_card,2022.2.4,Win32,61.21449559,6399baf217a79e6c3cd91cca,64d2fd46c836a06233681665,64dc7f0fa21d25c05cb512e9,,,,,,,ctch,resources/DBN.BMP,resources/DR.BMP,Door3,-0.284259259,0.07037037,1,0,0,0.8794,optionLeft,70,8810,4,32,0,32,0,1,,,,,,,,,,,,,,,,,,,,,,,,,,,,,,,,,,,,,,,
,,,,,,,,2023-08-16_08h49.28.383,HF_wild_card,2022.2.4,Win32,61.21449559,6399baf217a79e6c3cd91cca,64d2fd46c836a06233681665,64dc7f0fa21d25c05cb512e9,,,,,,,decisionTrl,resources/DB.BMP,resources/DP.BMP,Door1,-0.234259259,0.05462963,1,0,0,1.4327,optionLeft,30,8840,4,33,0,33,0,1,,,,,,,,,,,,,,,,,,,,,,,,,,,,,,,,,,,,,,,
,,,,,,,,2023-08-16_08h49.28.383,HF_wild_card,2022.2.4,Win32,61.21449559,6399baf217a79e6c3cd91cca,64d2fd46c836a06233681665,64dc7f0fa21d25c05cb512e9,,,,,,,sngl,resources/Empty.png,resources/DR.BMP,Door2,0.351851852,0.022222222,1,0,0,0.7656,optionRight,40,8880,4,34,0,34,0,1,,,,,,,,,,,,,,,,,,,,,,,,,,,,,,,,,,,,,,,
,,,,,,,,2023-08-16_08h49.28.383,HF_wild_card,2022.2.4,Win32,61.21449559,6399baf217a79e6c3cd91cca,64d2fd46c836a06233681665,64dc7f0fa21d25c05cb512e9,,,,,,,ctch,resources/DB.BMP,resources/DY.BMP,Door4,0.315740741,0.026851852,1,0,0,0.9641,optionRight,80,8960,4,35,0,35,0,1,,,,,,,,,,,,,,,,,,,,,,,,,,,,,,,,,,,,,,,
,,,,,,,,2023-08-16_08h49.28.383,HF_wild_card,2022.2.4,Win32,61.21449559,6399baf217a79e6c3cd91cca,64d2fd46c836a06233681665,64dc7f0fa21d25c05cb512e9,,,,,,,decisionTrl,resources/DBN.BMP,resources/DY.BMP,Door4,0.294444444,-0.043518519,1,0,0,1.4631,optionRight,80,9040,4,36,0,36,0,1,,,,,,,,,,,,,,,,,,,,,,,,,,,,,,,,,,,,,,,
,,,,,,,,2023-08-16_08h49.28.383,HF_wild_card,2022.2.4,Win32,61.21449559,6399baf217a79e6c3cd91cca,64d2fd46c836a06233681665,64dc7f0fa21d25c05cb512e9,,,,,,,sngl,resources/Empty.png,resources/DY.BMP,Door4,0.383333333,-0.019444444,1,0,0,0.5623,optionRight,80,9120,4,37,0,37,0,1,,,,,,,,,,,,,,,,,,,,,,,,,,,,,,,,,,,,,,,
,,,,,,,,2023-08-16_08h49.28.383,HF_wild_card,2022.2.4,Win32,61.21449559,6399baf217a79e6c3cd91cca,64d2fd46c836a06233681665,64dc7f0fa21d25c05cb512e9,,,,,,,decisionTrl,resources/DB.BMP,resources/DR.BMP,Door2,0.284259259,0.023148148,1,0,0,1.4462,optionRight,20,9140,4,38,0,38,0,1,,,,,,,,,,,,,,,,,,,,,,,,,,,,,,,,,,,,,,,
,,,,,,,,2023-08-16_08h49.28.383,HF_wild_card,2022.2.4,Win32,61.21449559,6399baf217a79e6c3cd91cca,64d2fd46c836a06233681665,64dc7f0fa21d25c05cb512e9,,,,,,,sngl,resources/Empty.png,resources/DP.BMP,WildCard_Ex,0.405555556,-0.056481481,1,0,0,1.0962,optionRight,95,9235,4,39,0,39,0,1,,,,,,,,,,,,,,,,,,,,,,,,,,,,,,,,,,,,,,,
,,,,,,,,2023-08-16_08h49.28.383,HF_wild_card,2022.2.4,Win32,61.21449559,6399baf217a79e6c3cd91cca,64d2fd46c836a06233681665,64dc7f0fa21d25c05cb512e9,,,,,,,decisionTrl,resources/DY.BMP,resources/DBN.BMP,Door4,-0.190740741,0.003703704,1,0,0,2.0473,optionLeft,60,9295,4,40,0,40,0,1,,,,,,,,,,,,,,,,,,,,,,,,,,,,,,,,,,,,,,,
,,,,,,,,2023-08-16_08h49.28.383,HF_wild_card,2022.2.4,Win32,61.21449559,6399baf217a79e6c3cd91cca,64d2fd46c836a06233681665,64dc7f0fa21d25c05cb512e9,,,,,,,sngl,resources/DBN.BMP,resources/Empty.png,Door3,-0.243518519,0.023148148,1,0,0,0.6784,optionLeft,70,9365,4,41,0,41,0,1,,,,,,,,,,,,,,,,,,,,,,,,,,,,,,,,,,,,,,,
,,,,,,,,2023-08-16_08h49.28.383,HF_wild_card,2022.2.4,Win32,61.21449559,6399baf217a79e6c3cd91cca,64d2fd46c836a06233681665,64dc7f0fa21d25c05cb512e9,,,,,,,decisionTrl,resources/DY.BMP,resources/DBN.BMP,Door3,0.291666667,0.019444444,1,0,0,0.9646,optionRight,70,9435,4,42,0,42,0,1,,,,,,,,,,,,,,,,,,,,,,,,,,,,,,,,,,,,,,,
,,,,,,,,2023-08-16_08h49.28.383,HF_wild_card,2022.2.4,Win32,61.21449559,6399baf217a79e6c3cd91cca,64d2fd46c836a06233681665,64dc7f0fa21d25c05cb512e9,,,,,,,sngl,resources/Empty.png,resources/DP.BMP,WildCard_Ex,0.446296296,-0.011111111,1,0,0,0.8489,optionRight,5,9440,4,43,0,43,0,1,,,,,,,,,,,,,,,,,,,,,,,,,,,,,,,,,,,,,,,
,,,,,,,,2023-08-16_08h49.28.383,HF_wild_card,2022.2.4,Win32,61.21449559,6399baf217a79e6c3cd91cca,64d2fd46c836a06233681665,64dc7f0fa21d25c05cb512e9,,,,,,,,,,,,,,,,,,,,,,,,,,3,0,3,0,1,,,,,,,,,,,,,,,,,,,,,,,,,,,,,,,,,,
,,,,,,,,2023-08-16_08h49.28.383,HF_wild_card,2022.2.4,Win32,61.21449559,6399baf217a79e6c3cd91cca,64d2fd46c836a06233681665,64dc7f0fa21d25c05cb512e9,,,,,,,decisionTrl,resources/DR.BMP,resources/DB.BMP,Door1,0.219444444,0.022222222,1,0,0,1.0443,optionRight,30,9470,5,0,0,0,0,1,,,,,,,,,,,,,,,,,,,,,,,,,,,,,,,,,,,,,,,
,,,,,,,,2023-08-16_08h49.28.383,HF_wild_card,2022.2.4,Win32,61.21449559,6399baf217a79e6c3cd91cca,64d2fd46c836a06233681665,64dc7f0fa21d25c05cb512e9,,,,,,,sngl,resources/DR.BMP,resources/Empty.png,Door2,-0.205555556,0.012037037,1,0,0,0.5626,optionLeft,40,9510,5,1,0,1,0,1,,,,,,,,,,,,,,,,,,,,,,,,,,,,,,,,,,,,,,,
,,,,,,,,2023-08-16_08h49.28.383,HF_wild_card,2022.2.4,Win32,61.21449559,6399baf217a79e6c3cd91cca,64d2fd46c836a06233681665,64dc7f0fa21d25c05cb512e9,,,,,,,ctch,resources/DB.BMP,resources/DY.BMP,Door1,-0.177777778,0.010185185,1,0,0,0.8148,optionLeft,30,9540,5,2,0,2,0,1,,,,,,,,,,,,,,,,,,,,,,,,,,,,,,,,,,,,,,,
,,,,,,,,2023-08-16_08h49.28.383,HF_wild_card,2022.2.4,Win32,61.21449559,6399baf217a79e6c3cd91cca,64d2fd46c836a06233681665,64dc7f0fa21d25c05cb512e9,,,,,,,decisionTrl,resources/DR.BMP,resources/DB.BMP,Door2,-0.219444444,-0.000925926,1,0,0,1.2152,optionLeft,20,9560,5,3,0,3,0,1,,,,,,,,,,,,,,,,,,,,,,,,,,,,,,,,,,,,,,,
,,,,,,,,2023-08-16_08h49.28.383,HF_wild_card,2022.2.4,Win32,61.21449559,6399baf217a79e6c3cd91cca,64d2fd46c836a06233681665,64dc7f0fa21d25c05cb512e9,,,,,,,sngl,resources/DP.BMP,resources/Empty.png,WildCard_Ex,-0.2,0.012962963,1,0,0,0.5968,optionLeft,5,9565,5,4,0,4,0,1,,,,,,,,,,,,,,,,,,,,,,,,,,,,,,,,,,,,,,,
,,,,,,,,2023-08-16_08h49.28.383,HF_wild_card,2022.2.4,Win32,61.21449559,6399baf217a79e6c3cd91cca,64d2fd46c836a06233681665,64dc7f0fa21d25c05cb512e9,,,,,,,sngl,resources/Empty.png,resources/DY.BMP,Door4,0.256481481,0.012962963,1,0,0,0.582,optionRight,60,9625,5,5,0,5,0,1,,,,,,,,,,,,,,,,,,,,,,,,,,,,,,,,,,,,,,,
,,,,,,,,2023-08-16_08h49.28.383,HF_wild_card,2022.2.4,Win32,61.21449559,6399baf217a79e6c3cd91cca,64d2fd46c836a06233681665,64dc7f0fa21d25c05cb512e9,,,,,,,decisionTrl,resources/DB.BMP,resources/DR.BMP,Door1,-0.227777778,0.051851852,1,0,0,0.9277,optionLeft,30,9655,5,6,0,6,0,1,,,,,,,,,,,,,,,,,,,,,,,,,,,,,,,,,,,,,,,
,,,,,,,,2023-08-16_08h49.28.383,HF_wild_card,2022.2.4,Win32,61.21449559,6399baf217a79e6c3cd91cca,64d2fd46c836a06233681665,64dc7f0fa21d25c05cb512e9,,,,,,,ctch,resources/DBN.BMP,resources/DR.BMP,Door3,-0.291666667,0.011111111,1,0,0,0.7955,optionLeft,70,9725,5,7,0,7,0,1,,,,,,,,,,,,,,,,,,,,,,,,,,,,,,,,,,,,,,,
,,,,,,,,2023-08-16_08h49.28.383,HF_wild_card,2022.2.4,Win32,61.21449559,6399baf217a79e6c3cd91cca,64d2fd46c836a06233681665,64dc7f0fa21d25c05cb512e9,,,,,,,sngl,resources/Empty.png,resources/DP.BMP,WildCard_Ex,0.290740741,-0.017592593,1,0,0,0.6146,optionRight,5,9730,5,8,0,8,0,1,,,,,,,,,,,,,,,,,,,,,,,,,,,,,,,,,,,,,,,
,,,,,,,,2023-08-16_08h49.28.383,HF_wild_card,2022.2.4,Win32,61.21449559,6399baf217a79e6c3cd91cca,64d2fd46c836a06233681665,64dc7f0fa21d25c05cb512e9,,,,,,,ctch,resources/DY.BMP,resources/DB.BMP,Door4,-0.191666667,0.016666667,1,0,0,0.9132,optionLeft,80,9810,5,9,0,9,0,1,,,,,,,,,,,,,,,,,,,,,,,,,,,,,,,,,,,,,,,
,,,,,,,,2023-08-16_08h49.28.383,HF_wild_card,2022.2.4,Win32,61.21449559,6399baf217a79e6c3cd91cca,64d2fd46c836a06233681665,64dc7f0fa21d25c05cb512e9,,,,,,,decisionTrl,resources/DY.BMP,resources/DBN.BMP,Door4,-0.141666667,-0.007407407,1,0,0,0.7655,optionLeft,80,9890,5,10,0,10,0,1,,,,,,,,,,,,,,,,,,,,,,,,,,,,,,,,,,,,,,,
,,,,,,,,2023-08-16_08h49.28.383,HF_wild_card,2022.2.4,Win32,61.21449559,6399baf217a79e6c3cd91cca,64d2fd46c836a06233681665,64dc7f0fa21d25c05cb512e9,,,,,,,decisionTrl,resources/DP.BMP,resources/DBN.BMP,Door3,0.299074074,-0.022222222,1,0,0,1.3304,optionRight,70,9960,5,11,0,11,0,1,,,,,,,,,,,,,,,,,,,,,,,,,,,,,,,,,,,,,,,
,,,,,,,,2023-08-16_08h49.28.383,HF_wild_card,2022.2.4,Win32,61.21449559,6399baf217a79e6c3cd91cca,64d2fd46c836a06233681665,64dc7f0fa21d25c05cb512e9,,,,,,,decisionTrl,resources/DP.BMP,resources/DY.BMP,Door4,0.306481481,-0.008333333,1,0,0,1.6302,optionRight,80,10040,5,12,0,12,0,1,,,,,,,,,,,,,,,,,,,,,,,,,,,,,,,,,,,,,,,
,,,,,,,,2023-08-16_08h49.28.383,HF_wild_card,2022.2.4,Win32,61.21449559,6399baf217a79e6c3cd91cca,64d2fd46c836a06233681665,64dc7f0fa21d25c05cb512e9,,,,,,,sngl,resources/Empty.png,resources/DP.BMP,WildCard_Ex,0.280555556,0.002777778,1,0,0,0.699,optionRight,95,10135,5,13,0,13,0,1,,,,,,,,,,,,,,,,,,,,,,,,,,,,,,,,,,,,,,,
,,,,,,,,2023-08-16_08h49.28.383,HF_wild_card,2022.2.4,Win32,61.21449559,6399baf217a79e6c3cd91cca,64d2fd46c836a06233681665,64dc7f0fa21d25c05cb512e9,,,,,,,decisionTrl,resources/DBN.BMP,resources/DY.BMP,Door4,0.241666667,-0.018518519,1,0,0,1.3122,optionRight,60,10195,5,14,0,14,0,1,,,,,,,,,,,,,,,,,,,,,,,,,,,,,,,,,,,,,,,
,,,,,,,,2023-08-16_08h49.28.383,HF_wild_card,2022.2.4,Win32,61.21449559,6399baf217a79e6c3cd91cca,64d2fd46c836a06233681665,64dc7f0fa21d25c05cb512e9,,,,,,,decisionTrl,resources/DY.BMP,resources/DP.BMP,Door4,-0.306481481,0.015740741,1,0,0,1.363,optionLeft,60,10255,5,15,0,15,0,1,,,,,,,,,,,,,,,,,,,,,,,,,,,,,,,,,,,,,,,
,,,,,,,,2023-08-16_08h49.28.383,HF_wild_card,2022.2.4,Win32,61.21449559,6399baf217a79e6c3cd91cca,64d2fd46c836a06233681665,64dc7f0fa21d25c05cb512e9,,,,,,,sngl,resources/DY.BMP,resources/Empty.png,Door4,-0.260185185,-0.033333333,1,0,0,0.5633,optionLeft,80,10335,5,16,0,16,0,1,,,,,,,,,,,,,,,,,,,,,,,,,,,,,,,,,,,,,,,
,,,,,,,,2023-08-16_08h49.28.383,HF_wild_card,2022.2.4,Win32,61.21449559,6399baf217a79e6c3cd91cca,64d2fd46c836a06233681665,64dc7f0fa21d25c05cb512e9,,,,,,,ctch,resources/DR.BMP,resources/DBN.BMP,Door3,0.311111111,0.024074074,1,0,0,0.9314,optionRight,70,10405,5,17,0,17,0,1,,,,,,,,,,,,,,,,,,,,,,,,,,,,,,,,,,,,,,,
,,,,,,,,2023-08-16_08h49.28.383,HF_wild_card,2022.2.4,Win32,61.21449559,6399baf217a79e6c3cd91cca,64d2fd46c836a06233681665,64dc7f0fa21d25c05cb512e9,,,,,,,ctch,resources/DBN.BMP,resources/DR.BMP,Door3,-0.337962963,0.072222222,1,0,0,0.7973,optionLeft,70,10475,5,18,0,18,0,1,,,,,,,,,,,,,,,,,,,,,,,,,,,,,,,,,,,,,,,
,,,,,,,,2023-08-16_08h49.28.383,HF_wild_card,2022.2.4,Win32,61.21449559,6399baf217a79e6c3cd91cca,64d2fd46c836a06233681665,64dc7f0fa21d25c05cb512e9,,,,,,,sngl,resources/DP.BMP,resources/Empty.png,WildCard_Ex,-0.335185185,0.04537037,1,0,0,0.5983,optionLeft,95,10570,5,19,0,19,0,1,,,,,,,,,,,,,,,,,,,,,,,,,,,,,,,,,,,,,,,
,,,,,,,,2023-08-16_08h49.28.383,HF_wild_card,2022.2.4,Win32,61.21449559,6399baf217a79e6c3cd91cca,64d2fd46c836a06233681665,64dc7f0fa21d25c05cb512e9,,,,,,,decisionTrl,resources/DB.BMP,resources/DR.BMP,Door1,-0.197222222,-0.013888889,1,0,0,0.9124,optionLeft,30,10600,5,20,0,20,0,1,,,,,,,,,,,,,,,,,,,,,,,,,,,,,,,,,,,,,,,
,,,,,,,,2023-08-16_08h49.28.383,HF_wild_card,2022.2.4,Win32,61.21449559,6399baf217a79e6c3cd91cca,64d2fd46c836a06233681665,64dc7f0fa21d25c05cb512e9,,,,,,,ctch,resources/DB.BMP,resources/DY.BMP,Door4,0.276851852,-0.001851852,1,0,0,1.0977,optionRight,80,10680,5,21,0,21,0,1,,,,,,,,,,,,,,,,,,,,,,,,,,,,,,,,,,,,,,,
,,,,,,,,2023-08-16_08h49.28.383,HF_wild_card,2022.2.4,Win32,61.21449559,6399baf217a79e6c3cd91cca,64d2fd46c836a06233681665,64dc7f0fa21d25c05cb512e9,,,,,,,decisionTrl,resources/DBN.BMP,resources/DY.BMP,Door4,0.335185185,0.013888889,1,0,0,0.897,optionRight,60,10740,5,22,0,22,0,1,,,,,,,,,,,,,,,,,,,,,,,,,,,,,,,,,,,,,,,
,,,,,,,,2023-08-16_08h49.28.383,HF_wild_card,2022.2.4,Win32,61.21449559,6399baf217a79e6c3cd91cca,64d2fd46c836a06233681665,64dc7f0fa21d25c05cb512e9,,,,,,,sngl,resources/Empty.png,resources/DR.BMP,Door2,0.20462963,0.017592593,1,0,0,1.113,optionRight,20,10760,5,23,0,23,0,1,,,,,,,,,,,,,,,,,,,,,,,,,,,,,,,,,,,,,,,
,,,,,,,,2023-08-16_08h49.28.383,HF_wild_card,2022.2.4,Win32,61.21449559,6399baf217a79e6c3cd91cca,64d2fd46c836a06233681665,64dc7f0fa21d25c05cb512e9,,,,,,,decisionTrl,resources/DP.BMP,resources/DB.BMP,WildCard_Ex,-0.15,-0.001851852,1,0,0,1.7318,optionLeft,95,10855,5,24,0,24,0,1,,,,,,,,,,,,,,,,,,,,,,,,,,,,,,,,,,,,,,,
,,,,,,,,2023-08-16_08h49.28.383,HF_wild_card,2022.2.4,Win32,61.21449559,6399baf217a79e6c3cd91cca,64d2fd46c836a06233681665,64dc7f0fa21d25c05cb512e9,,,,,,,decisionTrl,resources/DP.BMP,resources/DR.BMP,WildCard_Ex,-0.219444444,-0.008333333,1,0,0,0.9649,optionLeft,95,10950,5,25,0,25,0,1,,,,,,,,,,,,,,,,,,,,,,,,,,,,,,,,,,,,,,,
,,,,,,,,2023-08-16_08h49.28.383,HF_wild_card,2022.2.4,Win32,61.21449559,6399baf217a79e6c3cd91cca,64d2fd46c836a06233681665,64dc7f0fa21d25c05cb512e9,,,,,,,decisionTrl,resources/DR.BMP,resources/DP.BMP,WildCard_Ex,0.156481481,0.00462963,1,0,0,1.1634,optionRight,5,10955,5,26,0,26,0,1,,,,,,,,,,,,,,,,,,,,,,,,,,,,,,,,,,,,,,,
,,,,,,,,2023-08-16_08h49.28.383,HF_wild_card,2022.2.4,Win32,61.21449559,6399baf217a79e6c3cd91cca,64d2fd46c836a06233681665,64dc7f0fa21d25c05cb512e9,,,,,,,decisionTrl,resources/DR.BMP,resources/DB.BMP,Door1,0.269444444,0.008333333,1,0,0,0.9965,optionRight,30,10985,5,27,0,27,0,1,,,,,,,,,,,,,,,,,,,,,,,,,,,,,,,,,,,,,,,
,,,,,,,,2023-08-16_08h49.28.383,HF_wild_card,2022.2.4,Win32,61.21449559,6399baf217a79e6c3cd91cca,64d2fd46c836a06233681665,64dc7f0fa21d25c05cb512e9,,,,,,,decisionTrl,resources/DB.BMP,resources/DR.BMP,Door1,-0.276851852,0.030555556,1,0,0,0.8148,optionLeft,30,11015,5,28,0,28,0,1,,,,,,,,,,,,,,,,,,,,,,,,,,,,,,,,,,,,,,,
,,,,,,,,2023-08-16_08h49.28.383,HF_wild_card,2022.2.4,Win32,61.21449559,6399baf217a79e6c3cd91cca,64d2fd46c836a06233681665,64dc7f0fa21d25c05cb512e9,,,,,,,sngl,resources/Empty.png,resources/DB.BMP,Door1,0.255555556,0.002777778,1,0,0,0.8298,optionRight,30,11045,5,29,0,29,0,1,,,,,,,,,,,,,,,,,,,,,,,,,,,,,,,,,,,,,,,
,,,,,,,,2023-08-16_08h49.28.383,HF_wild_card,2022.2.4,Win32,61.21449559,6399baf217a79e6c3cd91cca,64d2fd46c836a06233681665,64dc7f0fa21d25c05cb512e9,,,,,,,decisionTrl,resources/DY.BMP,resources/DBN.BMP,Door4,-0.216666667,0.022222222,1,0,0,1.0318,optionLeft,80,11125,5,30,0,30,0,1,,,,,,,,,,,,,,,,,,,,,,,,,,,,,,,,,,,,,,,
,,,,,,,,2023-08-16_08h49.28.383,HF_wild_card,2022.2.4,Win32,61.21449559,6399baf217a79e6c3cd91cca,64d2fd46c836a06233681665,64dc7f0fa21d25c05cb512e9,,,,,,,sngl,resources/DB.BMP,resources/Empty.png,Door1,-0.231481481,0.014814815,1,0,0,0.612,optionLeft,30,11155,5,31,0,31,0,1,,,,,,,,,,,,,,,,,,,,,,,,,,,,,,,,,,,,,,,
,,,,,,,,2023-08-16_08h49.28.383,HF_wild_card,2022.2.4,Win32,61.21449559,6399baf217a79e6c3cd91cca,64d2fd46c836a06233681665,64dc7f0fa21d25c05cb512e9,,,,,,,decisionTrl,resources/DY.BMP,resources/DBN.BMP,Door4,-0.276851852,0.034259259,1,0,0,1.0291,optionLeft,60,11215,5,32,0,32,0,1,,,,,,,,,,,,,,,,,,,,,,,,,,,,,,,,,,,,,,,
,,,,,,,,2023-08-16_08h49.28.383,HF_wild_card,2022.2.4,Win32,61.21449559,6399baf217a79e6c3cd91cca,64d2fd46c836a06233681665,64dc7f0fa21d25c05cb512e9,,,,,,,decisionTrl,resources/DBN.BMP,resources/DY.BMP,Door3,-0.241666667,-0.000925926,1,0,0,0.7298,optionLeft,70,11285,5,33,0,33,0,1,,,,,,,,,,,,,,,,,,,,,,,,,,,,,,,,,,,,,,,
,,,,,,,,2023-08-16_08h49.28.383,HF_wild_card,2022.2.4,Win32,61.21449559,6399baf217a79e6c3cd91cca,64d2fd46c836a06233681665,64dc7f0fa21d25c05cb512e9,,,,,,,decisionTrl,resources/DBN.BMP,resources/DP.BMP,Door3,-0.268518519,-0.000925926,1,0,0,1.196,optionLeft,70,11355,5,34,0,34,0,1,,,,,,,,,,,,,,,,,,,,,,,,,,,,,,,,,,,,,,,
,,,,,,,,2023-08-16_08h49.28.383,HF_wild_card,2022.2.4,Win32,61.21449559,6399baf217a79e6c3cd91cca,64d2fd46c836a06233681665,64dc7f0fa21d25c05cb512e9,,,,,,,ctch,resources/DY.BMP,resources/DB.BMP,Door4,-0.184259259,-0.007407407,1,0,0,0.7145,optionLeft,60,11415,5,35,0,35,0,1,,,,,,,,,,,,,,,,,,,,,,,,,,,,,,,,,,,,,,,
,,,,,,,,2023-08-16_08h49.28.383,HF_wild_card,2022.2.4,Win32,61.21449559,6399baf217a79e6c3cd91cca,64d2fd46c836a06233681665,64dc7f0fa21d25c05cb512e9,,,,,,,decisionTrl,resources/DB.BMP,resources/DR.BMP,Door1,-0.212962963,-0.010185185,1,0,0,0.7651,optionLeft,30,11445,5,36,0,36,0,1,,,,,,,,,,,,,,,,,,,,,,,,,,,,,,,,,,,,,,,
,,,,,,,,2023-08-16_08h49.28.383,HF_wild_card,2022.2.4,Win32,61.21449559,6399baf217a79e6c3cd91cca,64d2fd46c836a06233681665,64dc7f0fa21d25c05cb512e9,,,,,,,sngl,resources/DBN.BMP,resources/Empty.png,Door3,-0.144444444,-0.010185185,1,0,0,0.6158,optionLeft,70,11515,5,37,0,37,0,1,,,,,,,,,,,,,,,,,,,,,,,,,,,,,,,,,,,,,,,
,,,,,,,,2023-08-16_08h49.28.383,HF_wild_card,2022.2.4,Win32,61.21449559,6399baf217a79e6c3cd91cca,64d2fd46c836a06233681665,64dc7f0fa21d25c05cb512e9,,,,,,,decisionTrl,resources/DR.BMP,resources/DB.BMP,Door1,0.248148148,-0.000925926,1,0,0,1.4957,optionRight,30,11545,5,38,0,38,0,1,,,,,,,,,,,,,,,,,,,,,,,,,,,,,,,,,,,,,,,
,,,,,,,,2023-08-16_08h49.28.383,HF_wild_card,2022.2.4,Win32,61.21449559,6399baf217a79e6c3cd91cca,64d2fd46c836a06233681665,64dc7f0fa21d25c05cb512e9,,,,,,,decisionTrl,resources/DY.BMP,resources/DBN.BMP,Door3,0.337037037,-0.021296296,1,0,0,1.1795,optionRight,70,11615,5,39,0,39,0,1,,,,,,,,,,,,,,,,,,,,,,,,,,,,,,,,,,,,,,,
,,,,,,,,2023-08-16_08h49.28.383,HF_wild_card,2022.2.4,Win32,61.21449559,6399baf217a79e6c3cd91cca,64d2fd46c836a06233681665,64dc7f0fa21d25c05cb512e9,,,,,,,decisionTrl,resources/DB.BMP,resources/DP.BMP,Door1,-0.253703704,0,1,0,0,0.9612,optionLeft,30,11645,5,40,0,40,0,1,,,,,,,,,,,,,,,,,,,,,,,,,,,,,,,,,,,,,,,
,,,,,,,,2023-08-16_08h49.28.383,HF_wild_card,2022.2.4,Win32,61.21449559,6399baf217a79e6c3cd91cca,64d2fd46c836a06233681665,64dc7f0fa21d25c05cb512e9,,,,,,,ctch,resources/DR.BMP,resources/DBN.BMP,Door3,0.276851852,0.019444444,1,0,0,1.3123,optionRight,70,11715,5,41,0,41,0,1,,,,,,,,,,,,,,,,,,,,,,,,,,,,,,,,,,,,,,,
,,,,,,,,2023-08-16_08h49.28.383,HF_wild_card,2022.2.4,Win32,61.21449559,6399baf217a79e6c3cd91cca,64d2fd46c836a06233681665,64dc7f0fa21d25c05cb512e9,,,,,,,decisionTrl,resources/DBN.BMP,resources/DY.BMP,Door3,-0.331481481,0.024074074,1,0,0,0.7798,optionLeft,70,11785,5,42,0,42,0,1,,,,,,,,,,,,,,,,,,,,,,,,,,,,,,,,,,,,,,,
,,,,,,,,2023-08-16_08h49.28.383,HF_wild_card,2022.2.4,Win32,61.21449559,6399baf217a79e6c3cd91cca,64d2fd46c836a06233681665,64dc7f0fa21d25c05cb512e9,,,,,,,sngl,resources/Empty.png,resources/DBN.BMP,Door3,0.206481481,0.005555556,1,0,0,0.5989,optionRight,70,11855,5,43,0,43,0,1,,,,,,,,,,,,,,,,,,,,,,,,,,,,,,,,,,,,,,,
,,,,,,,,2023-08-16_08h49.28.383,HF_wild_card,2022.2.4,Win32,61.21449559,6399baf217a79e6c3cd91cca,64d2fd46c836a06233681665,64dc7f0fa21d25c05cb512e9,,,,,,,,,,,,,,,,,,,,,,,,,,4,0,4,0,1,,,,,,,,,,,,,,,,,,,,,,,,,,,,,,,,,,
,,,,,,,,2023-08-16_08h49.28.383,HF_wild_card,2022.2.4,Win32,61.21449559,6399baf217a79e6c3cd91cca,64d2fd46c836a06233681665,64dc7f0fa21d25c05cb512e9,,,,,,,decisionTrl,resources/DR.BMP,resources/DB.BMP,Door1,0.167592593,-0.052777778,1,0,0,1.0594,optionRight,30,11885,6,0,0,0,0,1,,,,,,,,,,,,,,,,,,,,,,,,,,,,,,,,,,,,,,,
,,,,,,,,2023-08-16_08h49.28.383,HF_wild_card,2022.2.4,Win32,61.21449559,6399baf217a79e6c3cd91cca,64d2fd46c836a06233681665,64dc7f0fa21d25c05cb512e9,,,,,,,decisionTrl,resources/DBN.BMP,resources/DP.BMP,Door3,-0.15,0.025925926,1,0,0,1.829,optionLeft,70,11955,6,1,0,1,0,1,,,,,,,,,,,,,,,,,,,,,,,,,,,,,,,,,,,,,,,
,,,,,,,,2023-08-16_08h49.28.383,HF_wild_card,2022.2.4,Win32,61.21449559,6399baf217a79e6c3cd91cca,64d2fd46c836a06233681665,64dc7f0fa21d25c05cb512e9,,,,,,,decisionTrl,resources/DR.BMP,resources/DB.BMP,Door1,0.269444444,0.012962963,1,0,0,1.0126,optionRight,30,11985,6,2,0,2,0,1,,,,,,,,,,,,,,,,,,,,,,,,,,,,,,,,,,,,,,,
,,,,,,,,2023-08-16_08h49.28.383,HF_wild_card,2022.2.4,Win32,61.21449559,6399baf217a79e6c3cd91cca,64d2fd46c836a06233681665,64dc7f0fa21d25c05cb512e9,,,,,,,decisionTrl,resources/DBN.BMP,resources/DY.BMP,Door3,-0.242592593,0.046296296,1,0,0,1.7147,optionLeft,70,12055,6,3,0,3,0,1,,,,,,,,,,,,,,,,,,,,,,,,,,,,,,,,,,,,,,,
,,,,,,,,2023-08-16_08h49.28.383,HF_wild_card,2022.2.4,Win32,61.21449559,6399baf217a79e6c3cd91cca,64d2fd46c836a06233681665,64dc7f0fa21d25c05cb512e9,,,,,,,sngl,resources/Empty.png,resources/DP.BMP,WildCard_Ex,0.315740741,-0.00462963,1,0,0,0.8804,optionRight,5,12060,6,4,0,4,0,1,,,,,,,,,,,,,,,,,,,,,,,,,,,,,,,,,,,,,,,
,,,,,,,,2023-08-16_08h49.28.383,HF_wild_card,2022.2.4,Win32,61.21449559,6399baf217a79e6c3cd91cca,64d2fd46c836a06233681665,64dc7f0fa21d25c05cb512e9,,,,,,,decisionTrl,resources/DY.BMP,resources/DBN.BMP,Door4,-0.290740741,-0.013888889,1,0,0,0.7965,optionLeft,60,12120,6,5,0,5,0,1,,,,,,,,,,,,,,,,,,,,,,,,,,,,,,,,,,,,,,,
,,,,,,,,2023-08-16_08h49.28.383,HF_wild_card,2022.2.4,Win32,61.21449559,6399baf217a79e6c3cd91cca,64d2fd46c836a06233681665,64dc7f0fa21d25c05cb512e9,,,,,,,decisionTrl,resources/DBN.BMP,resources/DY.BMP,Door3,-0.208333333,-0.024074074,1,0,0,0.874,optionLeft,70,12190,6,6,0,6,0,1,,,,,,,,,,,,,,,,,,,,,,,,,,,,,,,,,,,,,,,
,,,,,,,,2023-08-16_08h49.28.383,HF_wild_card,2022.2.4,Win32,61.21449559,6399baf217a79e6c3cd91cca,64d2fd46c836a06233681665,64dc7f0fa21d25c05cb512e9,,,,,,,decisionTrl,resources/DR.BMP,resources/DP.BMP,Door2,-0.323148148,0.016666667,1,0,0,4.9467,optionLeft,20,12210,6,7,0,7,0,1,,,,,,,,,,,,,,,,,,,,,,,,,,,,,,,,,,,,,,,
,,,,,,,,2023-08-16_08h49.28.383,HF_wild_card,2022.2.4,Win32,61.21449559,6399baf217a79e6c3cd91cca,64d2fd46c836a06233681665,64dc7f0fa21d25c05cb512e9,,,,,,,sngl,resources/DY.BMP,resources/Empty.png,Door4,-0.218518519,-0.013888889,1,0,0,0.6248,optionLeft,60,12270,6,8,0,8,0,1,,,,,,,,,,,,,,,,,,,,,,,,,,,,,,,,,,,,,,,
,,,,,,,,2023-08-16_08h49.28.383,HF_wild_card,2022.2.4,Win32,61.21449559,6399baf217a79e6c3cd91cca,64d2fd46c836a06233681665,64dc7f0fa21d25c05cb512e9,,,,,,,sngl,resources/Empty.png,resources/DY.BMP,Door4,0.389814815,-0.072222222,1,0,0,0.9631,optionRight,80,12350,6,9,0,9,0,1,,,,,,,,,,,,,,,,,,,,,,,,,,,,,,,,,,,,,,,
,,,,,,,,2023-08-16_08h49.28.383,HF_wild_card,2022.2.4,Win32,61.21449559,6399baf217a79e6c3cd91cca,64d2fd46c836a06233681665,64dc7f0fa21d25c05cb512e9,,,,,,,ctch,resources/DB.BMP,resources/DY.BMP,Door1,-0.223148148,-0.043518519,1,0,0,0.7298,optionLeft,30,12380,6,10,0,10,0,1,,,,,,,,,,,,,,,,,,,,,,,,,,,,,,,,,,,,,,,
,,,,,,,,2023-08-16_08h49.28.383,HF_wild_card,2022.2.4,Win32,61.21449559,6399baf217a79e6c3cd91cca,64d2fd46c836a06233681665,64dc7f0fa21d25c05cb512e9,,,,,,,decisionTrl,resources/DP.BMP,resources/DB.BMP,WildCard_Ex,-0.322222222,-0.02962963,1,0,0,0.7311,optionLeft,5,12385,6,11,0,11,0,1,,,,,,,,,,,,,,,,,,,,,,,,,,,,,,,,,,,,,,,
,,,,,,,,2023-08-16_08h49.28.383,HF_wild_card,2022.2.4,Win32,61.21449559,6399baf217a79e6c3cd91cca,64d2fd46c836a06233681665,64dc7f0fa21d25c05cb512e9,,,,,,,sngl,resources/Empty.png,resources/DR.BMP,Door2,0.334259259,0.051851852,1,0,0,0.88,optionRight,40,12425,6,12,0,12,0,1,,,,,,,,,,,,,,,,,,,,,,,,,,,,,,,,,,,,,,,
,,,,,,,,2023-08-16_08h49.28.383,HF_wild_card,2022.2.4,Win32,61.21449559,6399baf217a79e6c3cd91cca,64d2fd46c836a06233681665,64dc7f0fa21d25c05cb512e9,,,,,,,sngl,resources/DB.BMP,resources/Empty.png,Door1,-0.301851852,-0.035185185,1,0,0,0.5619,optionLeft,30,12455,6,13,0,13,0,1,,,,,,,,,,,,,,,,,,,,,,,,,,,,,,,,,,,,,,,
,,,,,,,,2023-08-16_08h49.28.383,HF_wild_card,2022.2.4,Win32,61.21449559,6399baf217a79e6c3cd91cca,64d2fd46c836a06233681665,64dc7f0fa21d25c05cb512e9,,,,,,,decisionTrl,resources/DY.BMP,resources/DBN.BMP,Door3,0.358333333,-0.022222222,1,0,0,0.9133,optionRight,70,12525,6,14,0,14,0,1,,,,,,,,,,,,,,,,,,,,,,,,,,,,,,,,,,,,,,,
,,,,,,,,2023-08-16_08h49.28.383,HF_wild_card,2022.2.4,Win32,61.21449559,6399baf217a79e6c3cd91cca,64d2fd46c836a06233681665,64dc7f0fa21d25c05cb512e9,,,,,,,decisionTrl,resources/DB.BMP,resources/DR.BMP,Door1,-0.189814815,-0.012037037,1,0,0,0.696,optionLeft,30,12555,6,15,0,15,0,1,,,,,,,,,,,,,,,,,,,,,,,,,,,,,,,,,,,,,,,
,,,,,,,,2023-08-16_08h49.28.383,HF_wild_card,2022.2.4,Win32,61.21449559,6399baf217a79e6c3cd91cca,64d2fd46c836a06233681665,64dc7f0fa21d25c05cb512e9,,,,,,,decisionTrl,resources/DY.BMP,resources/DBN.BMP,Door3,0.409259259,-0.019444444,1,0,0,1.5789,optionRight,70,12625,6,16,0,16,0,1,,,,,,,,,,,,,,,,,,,,,,,,,,,,,,,,,,,,,,,
,,,,,,,,2023-08-16_08h49.28.383,HF_wild_card,2022.2.4,Win32,61.21449559,6399baf217a79e6c3cd91cca,64d2fd46c836a06233681665,64dc7f0fa21d25c05cb512e9,,,,,,,decisionTrl,resources/DR.BMP,resources/DB.BMP,Door1,0.437037037,-0.027777778,1,0,0,1.3299,optionRight,30,12655,6,17,0,17,0,1,,,,,,,,,,,,,,,,,,,,,,,,,,,,,,,,,,,,,,,
,,,,,,,,2023-08-16_08h49.28.383,HF_wild_card,2022.2.4,Win32,61.21449559,6399baf217a79e6c3cd91cca,64d2fd46c836a06233681665,64dc7f0fa21d25c05cb512e9,,,,,,,sngl,resources/Empty.png,resources/DP.BMP,WildCard_Ex,0.276851852,0.02037037,1,0,0,0.5907,optionRight,95,12750,6,18,0,18,0,1,,,,,,,,,,,,,,,,,,,,,,,,,,,,,,,,,,,,,,,
,,,,,,,,2023-08-16_08h49.28.383,HF_wild_card,2022.2.4,Win32,61.21449559,6399baf217a79e6c3cd91cca,64d2fd46c836a06233681665,64dc7f0fa21d25c05cb512e9,,,,,,,decisionTrl,resources/DBN.BMP,resources/DY.BMP,Door3,-0.183333333,-0.025,1,0,0,0.6636,optionLeft,70,12820,6,19,0,19,0,1,,,,,,,,,,,,,,,,,,,,,,,,,,,,,,,,,,,,,,,
,,,,,,,,2023-08-16_08h49.28.383,HF_wild_card,2022.2.4,Win32,61.21449559,6399baf217a79e6c3cd91cca,64d2fd46c836a06233681665,64dc7f0fa21d25c05cb512e9,,,,,,,sngl,resources/DP.BMP,resources/Empty.png,WildCard_Ex,-0.228703704,-0.000925926,1,0,0,0.5618,optionLeft,5,12825,6,20,0,20,0,1,,,,,,,,,,,,,,,,,,,,,,,,,,,,,,,,,,,,,,,
,,,,,,,,2023-08-16_08h49.28.383,HF_wild_card,2022.2.4,Win32,61.21449559,6399baf217a79e6c3cd91cca,64d2fd46c836a06233681665,64dc7f0fa21d25c05cb512e9,,,,,,,ctch,resources/DR.BMP,resources/DBN.BMP,Door3,0.333333333,0.00462963,1,0,0,0.7294,optionRight,70,12895,6,21,0,21,0,1,,,,,,,,,,,,,,,,,,,,,,,,,,,,,,,,,,,,,,,
,,,,,,,,2023-08-16_08h49.28.383,HF_wild_card,2022.2.4,Win32,61.21449559,6399baf217a79e6c3cd91cca,64d2fd46c836a06233681665,64dc7f0fa21d25c05cb512e9,,,,,,,decisionTrl,resources/DB.BMP,resources/DR.BMP,Door1,-0.177777778,-0.001851852,1,0,0,0.7973,optionLeft,30,12925,6,22,0,22,0,1,,,,,,,,,,,,,,,,,,,,,,,,,,,,,,,,,,,,,,,
,,,,,,,,2023-08-16_08h49.28.383,HF_wild_card,2022.2.4,Win32,61.21449559,6399baf217a79e6c3cd91cca,64d2fd46c836a06233681665,64dc7f0fa21d25c05cb512e9,,,,,,,sngl,resources/Empty.png,resources/DB.BMP,Door1,0.319444444,0.036111111,1,0,0,0.5788,optionRight,30,12955,6,23,0,23,0,1,,,,,,,,,,,,,,,,,,,,,,,,,,,,,,,,,,,,,,,
,,,,,,,,2023-08-16_08h49.28.383,HF_wild_card,2022.2.4,Win32,61.21449559,6399baf217a79e6c3cd91cca,64d2fd46c836a06233681665,64dc7f0fa21d25c05cb512e9,,,,,,,sngl,resources/DR.BMP,resources/Empty.png,Door2,-0.150925926,0,1,0,0,0.5154,optionLeft,20,12975,6,24,0,24,0,1,,,,,,,,,,,,,,,,,,,,,,,,,,,,,,,,,,,,,,,
,,,,,,,,2023-08-16_08h49.28.383,HF_wild_card,2022.2.4,Win32,61.21449559,6399baf217a79e6c3cd91cca,64d2fd46c836a06233681665,64dc7f0fa21d25c05cb512e9,,,,,,,decisionTrl,resources/DB.BMP,resources/DR.BMP,Door1,-0.136111111,-0.008333333,1,0,0,1.6642,optionLeft,30,13005,6,25,0,25,0,1,,,,,,,,,,,,,,,,,,,,,,,,,,,,,,,,,,,,,,,
,,,,,,,,2023-08-16_08h49.28.383,HF_wild_card,2022.2.4,Win32,61.21449559,6399baf217a79e6c3cd91cca,64d2fd46c836a06233681665,64dc7f0fa21d25c05cb512e9,,,,,,,ctch,resources/DY.BMP,resources/DB.BMP,Door4,-0.134259259,-0.025,1,0,0,1.0962,optionLeft,80,13085,6,26,0,26,0,1,,,,,,,,,,,,,,,,,,,,,,,,,,,,,,,,,,,,,,,
,,,,,,,,2023-08-16_08h49.28.383,HF_wild_card,2022.2.4,Win32,61.21449559,6399baf217a79e6c3cd91cca,64d2fd46c836a06233681665,64dc7f0fa21d25c05cb512e9,,,,,,,ctch,resources/DBN.BMP,resources/DR.BMP,Door3,-0.247222222,-0.035185185,1,0,0,1.5467,optionLeft,70,13155,6,27,0,27,0,1,,,,,,,,,,,,,,,,,,,,,,,,,,,,,,,,,,,,,,,
,,,,,,,,2023-08-16_08h49.28.383,HF_wild_card,2022.2.4,Win32,61.21449559,6399baf217a79e6c3cd91cca,64d2fd46c836a06233681665,64dc7f0fa21d25c05cb512e9,,,,,,,decisionTrl,resources/DP.BMP,resources/DY.BMP,WildCard_Ex,-0.355555556,0.010185185,1,0,0,1.5821,optionLeft,95,13250,6,28,0,28,0,1,,,,,,,,,,,,,,,,,,,,,,,,,,,,,,,,,,,,,,,
,,,,,,,,2023-08-16_08h49.28.383,HF_wild_card,2022.2.4,Win32,61.21449559,6399baf217a79e6c3cd91cca,64d2fd46c836a06233681665,64dc7f0fa21d25c05cb512e9,,,,,,,ctch,resources/DY.BMP,resources/DB.BMP,Door4,-0.218518519,0.02037037,1,0,0,1.0736,optionLeft,60,13310,6,29,0,29,0,1,,,,,,,,,,,,,,,,,,,,,,,,,,,,,,,,,,,,,,,
,,,,,,,,2023-08-16_08h49.28.383,HF_wild_card,2022.2.4,Win32,61.21449559,6399baf217a79e6c3cd91cca,64d2fd46c836a06233681665,64dc7f0fa21d25c05cb512e9,,,,,,,decisionTrl,resources/DY.BMP,resources/DBN.BMP,Door4,-0.290740741,-0.011111111,1,0,0,0.676,optionLeft,60,13370,6,30,0,30,0,1,,,,,,,,,,,,,,,,,,,,,,,,,,,,,,,,,,,,,,,
,,,,,,,,2023-08-16_08h49.28.383,HF_wild_card,2022.2.4,Win32,61.21449559,6399baf217a79e6c3cd91cca,64d2fd46c836a06233681665,64dc7f0fa21d25c05cb512e9,,,,,,,sngl,resources/DBN.BMP,resources/Empty.png,Door3,-0.430555556,0.036111111,1,0,0,0.849,optionLeft,70,13440,6,31,0,31,0,1,,,,,,,,,,,,,,,,,,,,,,,,,,,,,,,,,,,,,,,
,,,,,,,,2023-08-16_08h49.28.383,HF_wild_card,2022.2.4,Win32,61.21449559,6399baf217a79e6c3cd91cca,64d2fd46c836a06233681665,64dc7f0fa21d25c05cb512e9,,,,,,,ctch,resources/DR.BMP,resources/DBN.BMP,Door3,0.45462963,0.085185185,1,0,0,1.1134,optionRight,70,13510,6,32,0,32,0,1,,,,,,,,,,,,,,,,,,,,,,,,,,,,,,,,,,,,,,,
,,,,,,,,2023-08-16_08h49.28.383,HF_wild_card,2022.2.4,Win32,61.21449559,6399baf217a79e6c3cd91cca,64d2fd46c836a06233681665,64dc7f0fa21d25c05cb512e9,,,,,,,sngl,resources/Empty.png,resources/DBN.BMP,Door3,0.509259259,0.067592593,1,0,0,1.6112,optionRight,70,13580,6,33,0,33,0,1,,,,,,,,,,,,,,,,,,,,,,,,,,,,,,,,,,,,,,,
,,,,,,,,2023-08-16_08h49.28.383,HF_wild_card,2022.2.4,Win32,61.21449559,6399baf217a79e6c3cd91cca,64d2fd46c836a06233681665,64dc7f0fa21d25c05cb512e9,,,,,,,decisionTrl,resources/DBN.BMP,resources/DY.BMP,Door3,-0.297222222,-0.018518519,1,0,0,0.8803,optionLeft,70,13650,6,34,0,34,0,1,,,,,,,,,,,,,,,,,,,,,,,,,,,,,,,,,,,,,,,
,,,,,,,,2023-08-16_08h49.28.383,HF_wild_card,2022.2.4,Win32,61.21449559,6399baf217a79e6c3cd91cca,64d2fd46c836a06233681665,64dc7f0fa21d25c05cb512e9,,,,,,,decisionTrl,resources/DP.BMP,resources/DR.BMP,WildCard_Ex,-0.311111111,0.003703704,1,0,0,0.7966,optionLeft,5,13655,6,35,0,35,0,1,,,,,,,,,,,,,,,,,,,,,,,,,,,,,,,,,,,,,,,
,,,,,,,,2023-08-16_08h49.28.383,HF_wild_card,2022.2.4,Win32,61.21449559,6399baf217a79e6c3cd91cca,64d2fd46c836a06233681665,64dc7f0fa21d25c05cb512e9,,,,,,,decisionTrl,resources/DB.BMP,resources/DR.BMP,Door1,-0.364814815,-0.019444444,1,0,0,0.7137,optionLeft,30,13685,6,36,0,36,0,1,,,,,,,,,,,,,,,,,,,,,,,,,,,,,,,,,,,,,,,
,,,,,,,,2023-08-16_08h49.28.383,HF_wild_card,2022.2.4,Win32,61.21449559,6399baf217a79e6c3cd91cca,64d2fd46c836a06233681665,64dc7f0fa21d25c05cb512e9,,,,,,,decisionTrl,resources/DY.BMP,resources/DP.BMP,WildCard_Ex,0.243518519,-0.00462963,1,0,0,0.8816,optionRight,5,13690,6,37,0,37,0,1,,,,,,,,,,,,,,,,,,,,,,,,,,,,,,,,,,,,,,,
,,,,,,,,2023-08-16_08h49.28.383,HF_wild_card,2022.2.4,Win32,61.21449559,6399baf217a79e6c3cd91cca,64d2fd46c836a06233681665,64dc7f0fa21d25c05cb512e9,,,,,,,sngl,resources/DP.BMP,resources/Empty.png,WildCard_Ex,-0.312962963,-0.030555556,1,0,0,0.5788,optionLeft,95,13785,6,38,0,38,0,1,,,,,,,,,,,,,,,,,,,,,,,,,,,,,,,,,,,,,,,
,,,,,,,,2023-08-16_08h49.28.383,HF_wild_card,2022.2.4,Win32,61.21449559,6399baf217a79e6c3cd91cca,64d2fd46c836a06233681665,64dc7f0fa21d25c05cb512e9,,,,,,,decisionTrl,resources/DP.BMP,resources/DBN.BMP,WildCard_Ex,-0.286111111,-0.012037037,1,0,0,0.5466,optionLeft,95,13880,6,39,0,39,0,1,,,,,,,,,,,,,,,,,,,,,,,,,,,,,,,,,,,,,,,
,,,,,,,,2023-08-16_08h49.28.383,HF_wild_card,2022.2.4,Win32,61.21449559,6399baf217a79e6c3cd91cca,64d2fd46c836a06233681665,64dc7f0fa21d25c05cb512e9,,,,,,,ctch,resources/DBN.BMP,resources/DR.BMP,Door3,-0.378703704,0.016666667,1,0,0,0.7628,optionLeft,70,13950,6,40,0,40,0,1,,,,,,,,,,,,,,,,,,,,,,,,,,,,,,,,,,,,,,,
,,,,,,,,2023-08-16_08h49.28.383,HF_wild_card,2022.2.4,Win32,61.21449559,6399baf217a79e6c3cd91cca,64d2fd46c836a06233681665,64dc7f0fa21d25c05cb512e9,,,,,,,decisionTrl,resources/DR.BMP,resources/DB.BMP,Door1,0.293518519,0.019444444,1,0,0,0.7637,optionRight,30,13980,6,41,0,41,0,1,,,,,,,,,,,,,,,,,,,,,,,,,,,,,,,,,,,,,,,
,,,,,,,,2023-08-16_08h49.28.383,HF_wild_card,2022.2.4,Win32,61.21449559,6399baf217a79e6c3cd91cca,64d2fd46c836a06233681665,64dc7f0fa21d25c05cb512e9,,,,,,,ctch,resources/DB.BMP,resources/DY.BMP,Door1,-0.225,-0.012037037,1,0,0,1.5489,optionLeft,30,14010,6,42,0,42,0,1,,,,,,,,,,,,,,,,,,,,,,,,,,,,,,,,,,,,,,,
,,,,,,,,2023-08-16_08h49.28.383,HF_wild_card,2022.2.4,Win32,61.21449559,6399baf217a79e6c3cd91cca,64d2fd46c836a06233681665,64dc7f0fa21d25c05cb512e9,,,,,,,decisionTrl,resources/DB.BMP,resources/DP.BMP,WildCard_Ex,0.280555556,0.000925926,1,0,0,0.6124,optionRight,95,14105,6,43,0,43,0,1,,,,,,,,,,,,,,,,,,,,,,,,,,,,,,,,,,,,,,,
,,,,,,,,2023-08-16_08h49.28.383,HF_wild_card,2022.2.4,Win32,61.21449559,6399baf217a79e6c3cd91cca,64d2fd46c836a06233681665,64dc7f0fa21d25c05cb512e9,,,,,,,,,,,,,,,,,,,,,,,,,,5,0,5,0,1,,,,,,,,,,,,,,,,,,,,,,,,,,,,,,,,,,
,,,,,,,,2023-08-16_08h49.28.383,HF_wild_card,2022.2.4,Win32,61.21449559,6399baf217a79e6c3cd91cca,64d2fd46c836a06233681665,64dc7f0fa21d25c05cb512e9,,,,,,,decisionTrl,resources/DY.BMP,resources/DBN.BMP,Door3,0.232407407,-0.103703704,1,0,0,1.6227,optionRight,70,14175,7,0,0,0,0,1,,,,,,,,,,,,,,,,,,,,,,,,,,,,,,,,,,,,,,,
,,,,,,,,2023-08-16_08h49.28.383,HF_wild_card,2022.2.4,Win32,61.21449559,6399baf217a79e6c3cd91cca,64d2fd46c836a06233681665,64dc7f0fa21d25c05cb512e9,,,,,,,decisionTrl,resources/DR.BMP,resources/DB.BMP,Door1,0.367592593,-0.012037037,1,0,0,0.9973,optionRight,30,14205,7,1,0,1,0,1,,,,,,,,,,,,,,,,,,,,,,,,,,,,,,,,,,,,,,,
,,,,,,,,2023-08-16_08h49.28.383,HF_wild_card,2022.2.4,Win32,61.21449559,6399baf217a79e6c3cd91cca,64d2fd46c836a06233681665,64dc7f0fa21d25c05cb512e9,,,,,,,decisionTrl,resources/DB.BMP,resources/DR.BMP,Door1,-0.250925926,-0.000925926,1,0,0,0.8484,optionLeft,30,14235,7,2,0,2,0,1,,,,,,,,,,,,,,,,,,,,,,,,,,,,,,,,,,,,,,,
,,,,,,,,2023-08-16_08h49.28.383,HF_wild_card,2022.2.4,Win32,61.21449559,6399baf217a79e6c3cd91cca,64d2fd46c836a06233681665,64dc7f0fa21d25c05cb512e9,,,,,,,decisionTrl,resources/DY.BMP,resources/DBN.BMP,Door3,0.150925926,-0.025,1,0,0,1.8316,optionRight,70,14305,7,3,0,3,0,1,,,,,,,,,,,,,,,,,,,,,,,,,,,,,,,,,,,,,,,
,,,,,,,,2023-08-16_08h49.28.383,HF_wild_card,2022.2.4,Win32,61.21449559,6399baf217a79e6c3cd91cca,64d2fd46c836a06233681665,64dc7f0fa21d25c05cb512e9,,,,,,,decisionTrl,resources/DB.BMP,resources/DR.BMP,Door1,-0.332407407,-0.002777778,1,0,0,0.7493,optionLeft,30,14335,7,4,0,4,0,1,,,,,,,,,,,,,,,,,,,,,,,,,,,,,,,,,,,,,,,
,,,,,,,,2023-08-16_08h49.28.383,HF_wild_card,2022.2.4,Win32,61.21449559,6399baf217a79e6c3cd91cca,64d2fd46c836a06233681665,64dc7f0fa21d25c05cb512e9,,,,,,,ctch,resources/DBN.BMP,resources/DR.BMP,Door3,-0.356481481,-0.012037037,1,0,0,0.8482,optionLeft,70,14405,7,5,0,5,0,1,,,,,,,,,,,,,,,,,,,,,,,,,,,,,,,,,,,,,,,
,,,,,,,,2023-08-16_08h49.28.383,HF_wild_card,2022.2.4,Win32,61.21449559,6399baf217a79e6c3cd91cca,64d2fd46c836a06233681665,64dc7f0fa21d25c05cb512e9,,,,,,,decisionTrl,resources/DBN.BMP,resources/DY.BMP,Door3,-0.384259259,-0.017592593,1,0,0,0.9482,optionLeft,70,14475,7,6,0,6,0,1,,,,,,,,,,,,,,,,,,,,,,,,,,,,,,,,,,,,,,,
,,,,,,,,2023-08-16_08h49.28.383,HF_wild_card,2022.2.4,Win32,61.21449559,6399baf217a79e6c3cd91cca,64d2fd46c836a06233681665,64dc7f0fa21d25c05cb512e9,,,,,,,ctch,resources/DR.BMP,resources/DBN.BMP,Door3,0.337962963,-0.015740741,1,0,0,0.7483,optionRight,70,14545,7,7,0,7,0,1,,,,,,,,,,,,,,,,,,,,,,,,,,,,,,,,,,,,,,,
,,,,,,,,2023-08-16_08h49.28.383,HF_wild_card,2022.2.4,Win32,61.21449559,6399baf217a79e6c3cd91cca,64d2fd46c836a06233681665,64dc7f0fa21d25c05cb512e9,,,,,,,decisionTrl,resources/DR.BMP,resources/DB.BMP,Door1,0.268518519,-0.017592593,1,0,0,0.915,optionRight,30,14575,7,8,0,8,0,1,,,,,,,,,,,,,,,,,,,,,,,,,,,,,,,,,,,,,,,
,,,,,,,,2023-08-16_08h49.28.383,HF_wild_card,2022.2.4,Win32,61.21449559,6399baf217a79e6c3cd91cca,64d2fd46c836a06233681665,64dc7f0fa21d25c05cb512e9,,,,,,,decisionTrl,resources/DB.BMP,resources/DR.BMP,Door1,-0.240740741,-0.012962963,1,0,0,0.7808,optionLeft,30,14605,7,9,0,9,0,1,,,,,,,,,,,,,,,,,,,,,,,,,,,,,,,,,,,,,,,
,,,,,,,,2023-08-16_08h49.28.383,HF_wild_card,2022.2.4,Win32,61.21449559,6399baf217a79e6c3cd91cca,64d2fd46c836a06233681665,64dc7f0fa21d25c05cb512e9,,,,,,,ctch,resources/DY.BMP,resources/DB.BMP,Door4,-0.374074074,-0.016666667,1,0,0,1.0143,optionLeft,80,14685,7,10,0,10,0,1,,,,,,,,,,,,,,,,,,,,,,,,,,,,,,,,,,,,,,,
,,,,,,,,2023-08-16_08h49.28.383,HF_wild_card,2022.2.4,Win32,61.21449559,6399baf217a79e6c3cd91cca,64d2fd46c836a06233681665,64dc7f0fa21d25c05cb512e9,,,,,,,decisionTrl,resources/DR.BMP,resources/DB.BMP,Door1,0.284259259,-0.011111111,1,0,0,1.8818,optionRight,30,14715,7,11,0,11,0,1,,,,,,,,,,,,,,,,,,,,,,,,,,,,,,,,,,,,,,,
,,,,,,,,2023-08-16_08h49.28.383,HF_wild_card,2022.2.4,Win32,61.21449559,6399baf217a79e6c3cd91cca,64d2fd46c836a06233681665,64dc7f0fa21d25c05cb512e9,,,,,,,ctch,resources/DBN.BMP,resources/DR.BMP,Door3,-0.285185185,0.008333333,1,0,0,0.809,optionLeft,70,14785,7,12,0,12,0,1,,,,,,,,,,,,,,,,,,,,,,,,,,,,,,,,,,,,,,,
,,,,,,,,2023-08-16_08h49.28.383,HF_wild_card,2022.2.4,Win32,61.21449559,6399baf217a79e6c3cd91cca,64d2fd46c836a06233681665,64dc7f0fa21d25c05cb512e9,,,,,,,decisionTrl,resources/DR.BMP,resources/DB.BMP,Door1,0.24537037,-0.001851852,1,0,0,0.893,optionRight,30,14815,7,13,0,13,0,1,,,,,,,,,,,,,,,,,,,,,,,,,,,,,,,,,,,,,,,
,,,,,,,,2023-08-16_08h49.28.383,HF_wild_card,2022.2.4,Win32,61.21449559,6399baf217a79e6c3cd91cca,64d2fd46c836a06233681665,64dc7f0fa21d25c05cb512e9,,,,,,,ctch,resources/DB.BMP,resources/DY.BMP,Door4,0.411111111,-0.017592593,1,0,0,1.3497,optionRight,80,14895,7,14,0,14,0,1,,,,,,,,,,,,,,,,,,,,,,,,,,,,,,,,,,,,,,,
,,,,,,,,2023-08-16_08h49.28.383,HF_wild_card,2022.2.4,Win32,61.21449559,6399baf217a79e6c3cd91cca,64d2fd46c836a06233681665,64dc7f0fa21d25c05cb512e9,,,,,,,decisionTrl,resources/DY.BMP,resources/DBN.BMP,Door3,0.278703704,0.006481481,1,0,0,1.3138,optionRight,70,14965,7,15,0,15,0,1,,,,,,,,,,,,,,,,,,,,,,,,,,,,,,,,,,,,,,,
,,,,,,,,2023-08-16_08h49.28.383,HF_wild_card,2022.2.4,Win32,61.21449559,6399baf217a79e6c3cd91cca,64d2fd46c836a06233681665,64dc7f0fa21d25c05cb512e9,,,,,,,ctch,resources/DB.BMP,resources/DY.BMP,Door4,0.274074074,0.025,1,0,0,6.7749,optionRight,60,15025,7,16,0,16,0,1,,,,,,,,,,,,,,,,,,,,,,,,,,,,,,,,,,,,,,,
,,,,,,,,2023-08-16_08h49.28.383,HF_wild_card,2022.2.4,Win32,61.21449559,6399baf217a79e6c3cd91cca,64d2fd46c836a06233681665,64dc7f0fa21d25c05cb512e9,,,,,,,decisionTrl,resources/DY.BMP,resources/DBN.BMP,Door4,-0.172222222,-0.015740741,1,0,0,0.9983,optionLeft,60,15085,7,17,0,17,0,1,,,,,,,,,,,,,,,,,,,,,,,,,,,,,,,,,,,,,,,
,,,,,,,,2023-08-16_08h49.28.383,HF_wild_card,2022.2.4,Win32,61.21449559,6399baf217a79e6c3cd91cca,64d2fd46c836a06233681665,64dc7f0fa21d25c05cb512e9,,,,,,,decisionTrl,resources/DBN.BMP,resources/DY.BMP,Door3,-0.342592593,0.040740741,1,0,0,1.3995,optionLeft,70,15155,7,18,0,18,0,1,,,,,,,,,,,,,,,,,,,,,,,,,,,,,,,,,,,,,,,
,,,,,,,,2023-08-16_08h49.28.383,HF_wild_card,2022.2.4,Win32,61.21449559,6399baf217a79e6c3cd91cca,64d2fd46c836a06233681665,64dc7f0fa21d25c05cb512e9,,,,,,,decisionTrl,resources/DBN.BMP,resources/DY.BMP,Door3,-0.375925926,0.030555556,1,0,0,1.1319,optionLeft,70,15225,7,19,0,19,0,1,,,,,,,,,,,,,,,,,,,,,,,,,,,,,,,,,,,,,,,
,,,,,,,,2023-08-16_08h49.28.383,HF_wild_card,2022.2.4,Win32,61.21449559,6399baf217a79e6c3cd91cca,64d2fd46c836a06233681665,64dc7f0fa21d25c05cb512e9,,,,,,,decisionTrl,resources/DBN.BMP,resources/DY.BMP,Door3,-0.3,-0.007407407,1,0,0,0.5824,optionLeft,70,15295,7,20,0,20,0,1,,,,,,,,,,,,,,,,,,,,,,,,,,,,,,,,,,,,,,,
,,,,,,,,2023-08-16_08h49.28.383,HF_wild_card,2022.2.4,Win32,61.21449559,6399baf217a79e6c3cd91cca,64d2fd46c836a06233681665,64dc7f0fa21d25c05cb512e9,,,,,,,decisionTrl,resources/DY.BMP,resources/DBN.BMP,Door3,0.386111111,-0.034259259,1,0,0,1.2478,optionRight,70,15365,7,21,0,21,0,1,,,,,,,,,,,,,,,,,,,,,,,,,,,,,,,,,,,,,,,
,,,,,,,,2023-08-16_08h49.28.383,HF_wild_card,2022.2.4,Win32,61.21449559,6399baf217a79e6c3cd91cca,64d2fd46c836a06233681665,64dc7f0fa21d25c05cb512e9,,,,,,,decisionTrl,resources/DR.BMP,resources/DB.BMP,Door1,0.241666667,0.006481481,1,0,0,0.932,optionRight,30,15395,7,22,0,22,0,1,,,,,,,,,,,,,,,,,,,,,,,,,,,,,,,,,,,,,,,
,,,,,,,,2023-08-16_08h49.28.383,HF_wild_card,2022.2.4,Win32,61.21449559,6399baf217a79e6c3cd91cca,64d2fd46c836a06233681665,64dc7f0fa21d25c05cb512e9,,,,,,,ctch,resources/DY.BMP,resources/DB.BMP,Door4,-0.238888889,0.002777778,1,0,0,1.0646,optionLeft,60,15455,7,23,0,23,0,1,,,,,,,,,,,,,,,,,,,,,,,,,,,,,,,,,,,,,,,
,,,,,,,,2023-08-16_08h49.28.383,HF_wild_card,2022.2.4,Win32,61.21449559,6399baf217a79e6c3cd91cca,64d2fd46c836a06233681665,64dc7f0fa21d25c05cb512e9,,,,,,,decisionTrl,resources/DB.BMP,resources/DR.BMP,Door1,-0.298148148,-0.030555556,1,0,0,0.681,optionLeft,30,15485,7,24,0,24,0,1,,,,,,,,,,,,,,,,,,,,,,,,,,,,,,,,,,,,,,,
,,,,,,,,2023-08-16_08h49.28.383,HF_wild_card,2022.2.4,Win32,61.21449559,6399baf217a79e6c3cd91cca,64d2fd46c836a06233681665,64dc7f0fa21d25c05cb512e9,,,,,,,decisionTrl,resources/DY.BMP,resources/DBN.BMP,Door3,0.346296296,-0.051851852,1,0,0,1.5816,optionRight,70,15555,7,25,0,25,0,1,,,,,,,,,,,,,,,,,,,,,,,,,,,,,,,,,,,,,,,
,,,,,,,,2023-08-16_08h49.28.383,HF_wild_card,2022.2.4,Win32,61.21449559,6399baf217a79e6c3cd91cca,64d2fd46c836a06233681665,64dc7f0fa21d25c05cb512e9,,,,,,,ctch,resources/DR.BMP,resources/DBN.BMP,Door3,0.287962963,0.008333333,1,0,0,0.6657,optionRight,70,15625,7,26,0,26,0,1,,,,,,,,,,,,,,,,,,,,,,,,,,,,,,,,,,,,,,,
,,,,,,,,2023-08-16_08h49.28.383,HF_wild_card,2022.2.4,Win32,61.21449559,6399baf217a79e6c3cd91cca,64d2fd46c836a06233681665,64dc7f0fa21d25c05cb512e9,,,,,,,ctch,resources/DY.BMP,resources/DB.BMP,Door4,-0.263888889,-0.014814815,1,0,0,0.7984,optionLeft,60,15685,7,27,0,27,0,1,,,,,,,,,,,,,,,,,,,,,,,,,,,,,,,,,,,,,,,
,,,,,,,,2023-08-16_08h49.28.383,HF_wild_card,2022.2.4,Win32,61.21449559,6399baf217a79e6c3cd91cca,64d2fd46c836a06233681665,64dc7f0fa21d25c05cb512e9,,,,,,,ctch,resources/DR.BMP,resources/DBN.BMP,Door3,0.306481481,-0.007407407,1,0,0,0.8127,optionRight,70,15755,7,28,0,28,0,1,,,,,,,,,,,,,,,,,,,,,,,,,,,,,,,,,,,,,,,
,,,,,,,,2023-08-16_08h49.28.383,HF_wild_card,2022.2.4,Win32,61.21449559,6399baf217a79e6c3cd91cca,64d2fd46c836a06233681665,64dc7f0fa21d25c05cb512e9,,,,,,,decisionTrl,resources/DB.BMP,resources/DR.BMP,Door1,-0.273148148,0.007407407,1,0,0,0.8642,optionLeft,30,15785,7,29,0,29,0,1,,,,,,,,,,,,,,,,,,,,,,,,,,,,,,,,,,,,,,,
,,,,,,,,2023-08-16_08h49.28.383,HF_wild_card,2022.2.4,Win32,61.21449559,6399baf217a79e6c3cd91cca,64d2fd46c836a06233681665,64dc7f0fa21d25c05cb512e9,,,,,,,decisionTrl,resources/DB.BMP,resources/DR.BMP,Door1,-0.289814815,-0.00462963,1,0,0,0.6495,optionLeft,30,15815,7,30,0,30,0,1,,,,,,,,,,,,,,,,,,,,,,,,,,,,,,,,,,,,,,,
,,,,,,,,2023-08-16_08h49.28.383,HF_wild_card,2022.2.4,Win32,61.21449559,6399baf217a79e6c3cd91cca,64d2fd46c836a06233681665,64dc7f0fa21d25c05cb512e9,,,,,,,ctch,resources/DBN.BMP,resources/DR.BMP,Door3,-0.512962963,0.014814815,1,0,0,0.9662,optionLeft,70,15885,7,31,0,31,0,1,,,,,,,,,,,,,,,,,,,,,,,,,,,,,,,,,,,,,,,
,,,,,,,,2023-08-16_08h49.28.383,HF_wild_card,2022.2.4,Win32,61.21449559,6399baf217a79e6c3cd91cca,64d2fd46c836a06233681665,64dc7f0fa21d25c05cb512e9,,,,,,,decisionTrl,resources/DBN.BMP,resources/DY.BMP,Door3,-0.303703704,0.002777778,1,0,0,1.1154,optionLeft,70,15955,7,32,0,32,0,1,,,,,,,,,,,,,,,,,,,,,,,,,,,,,,,,,,,,,,,
,,,,,,,,2023-08-16_08h49.28.383,HF_wild_card,2022.2.4,Win32,61.21449559,6399baf217a79e6c3cd91cca,64d2fd46c836a06233681665,64dc7f0fa21d25c05cb512e9,,,,,,,ctch,resources/DB.BMP,resources/DY.BMP,Door1,-0.22037037,-0.002777778,1,0,0,0.7666,optionLeft,30,15985,7,33,0,33,0,1,,,,,,,,,,,,,,,,,,,,,,,,,,,,,,,,,,,,,,,
,,,,,,,,2023-08-16_08h49.28.383,HF_wild_card,2022.2.4,Win32,61.21449559,6399baf217a79e6c3cd91cca,64d2fd46c836a06233681665,64dc7f0fa21d25c05cb512e9,,,,,,,decisionTrl,resources/DBN.BMP,resources/DY.BMP,Door3,-0.213888889,-0.003703704,1,0,0,0.9318,optionLeft,70,16055,7,34,0,34,0,1,,,,,,,,,,,,,,,,,,,,,,,,,,,,,,,,,,,,,,,
,,,,,,,,2023-08-16_08h49.28.383,HF_wild_card,2022.2.4,Win32,61.21449559,6399baf217a79e6c3cd91cca,64d2fd46c836a06233681665,64dc7f0fa21d25c05cb512e9,,,,,,,decisionTrl,resources/DR.BMP,resources/DB.BMP,Door1,0.267592593,-0.00462963,1,0,0,0.833,optionRight,30,16085,7,35,0,35,0,1,,,,,,,,,,,,,,,,,,,,,,,,,,,,,,,,,,,,,,,
,,,,,,,,2023-08-16_08h49.28.383,HF_wild_card,2022.2.4,Win32,61.21449559,6399baf217a79e6c3cd91cca,64d2fd46c836a06233681665,64dc7f0fa21d25c05cb512e9,,,,,,,,,,,,,,,,,,,,,,,,,,6,0,6,0,1,,,,,,,,,,,,,,,,,,,,,,,,,,,,,,,,,,
,,,,,,,,2023-08-16_08h49.28.383,HF_wild_card,2022.2.4,Win32,61.21449559,6399baf217a79e6c3cd91cca,64d2fd46c836a06233681665,64dc7f0fa21d25c05cb512e9,,,,,,,,,,,,,,,,,,,,,,,,,,,,,,,4,,,,,,,,,,,,,,,,,,,,,,,,,,,,,,,,,
,,,,,,,,2023-08-16_08h49.28.383,HF_wild_card,2022.2.4,Win32,61.21449559,6399baf217a79e6c3cd91cca,64d2fd46c836a06233681665,64dc7f0fa21d25c05cb512e9,,,,,,,,,,,,,,,,,,,,,,,,,,,,,,,,,,,,,,,,,,,,,,,,,,,,,,,,,,,,,,,,
,,,,,,,,2023-08-16_08h49.28.383,HF_wild_card,2022.2.4,Win32,61.21449559,6399baf217a79e6c3cd91cca,64d2fd46c836a06233681665,64dc7f0fa21d25c05cb512e9,,,,,,,,,,,,,,,,,,,,,,,,,,,,,,,,30,Door1,resources/DB.BMP,0,0,0,0,1,,,,,,,,,,,,,,,,,,,,,,,,,
,,,,,,,,2023-08-16_08h49.28.383,HF_wild_card,2022.2.4,Win32,61.21449559,6399baf217a79e6c3cd91cca,64d2fd46c836a06233681665,64dc7f0fa21d25c05cb512e9,,,,,,,,,,,,,,,,,,,,,,,,,,,,,,,,55,WC_nonExtreme,resources/DG.BMP,1,0,1,0,1,,,,,,,,,,,,,,,,,,,,,,,,,
,,,,,,,,2023-08-16_08h49.28.383,HF_wild_card,2022.2.4,Win32,61.21449559,6399baf217a79e6c3cd91cca,64d2fd46c836a06233681665,64dc7f0fa21d25c05cb512e9,,,,,,,,,,,,,,,,,,,,,,,,,,,,,,,,70,Door3,resources/DBN.BMP,2,0,2,0,1,,,,,,,,,,,,,,,,,,,,,,,,,
,,,,,,,,2023-08-16_08h49.28.383,HF_wild_card,2022.2.4,Win32,61.21449559,6399baf217a79e6c3cd91cca,64d2fd46c836a06233681665,64dc7f0fa21d25c05cb512e9,,,,,,,,,,,,,,,,,,,,,,,,,,,,,,,,95,WC_extreme,resources/DP.BMP,3,0,3,0,1,,,,,,,,,,,,,,,,,,,,,,,,,
,,,,,,,,2023-08-16_08h49.28.383,HF_wild_card,2022.2.4,Win32,61.21449559,6399baf217a79e6c3cd91cca,64d2fd46c836a06233681665,64dc7f0fa21d25c05cb512e9,,,,,,,,,,,,,,,,,,,,,,,,,,,,,,,,80,Door4,resources/DY.BMP,4,0,4,0,1,,,,,,,,,,,,,,,,,,,,,,,,,
,,,,,,,,2023-08-16_08h49.28.383,HF_wild_card,2022.2.4,Win32,61.21449559,6399baf217a79e6c3cd91cca,64d2fd46c836a06233681665,64dc7f0fa21d25c05cb512e9,,,,,,,,,,,,,,,,,,,,,,,,,,,,,,,,20,Door2,resources/DR.BMP,5,0,5,0,1,,,,,,,,,,,,,,,,,,,,,,,,,
,,,,,,,,2023-08-16_08h49.28.383,HF_wild_card,2022.2.4,Win32,61.21449559,6399baf217a79e6c3cd91cca,64d2fd46c836a06233681665,64dc7f0fa21d25c05cb512e9,,,,,,,,,,,,,,,,,,,,,,,,,,,,,,,,,,,,,,,,,,,,,,,,,,,,,,,,,,,,,,,,
,,,,,,,,2023-08-16_08h49.28.383,HF_wild_card,2022.2.4,Win32,61.21449559,6399baf217a79e6c3cd91cca,64d2fd46c836a06233681665,64dc7f0fa21d25c05cb512e9,,,,,,,,,,,,,,,,,,,,,,,,,,,,,,,,,,,,,,,,0,0,0,0,1,,,,,,,,,,,,,,,,,,,,
