Condition,Low fixed image (Door1),Low risky image (Door2),High fixed image (Door3),High risky image (Door4),Extreme Wild Card,NonExtreme Wild Card,,date,expName,psychopyVersion,OS,frameRate,PROLIFIC_PID,STUDY_ID,SESSION_ID,mouse_2.x,mouse_2.y,mouse_2.leftButton,mouse_2.midButton,mouse_2.rightButton,mouse_2.clicked_name,Trial Type,Left Option Image,Right Option Image,Chosen Door,mouse.x,mouse.y,mouse.leftButton,mouse.midButton,mouse.rightButton,mouse.time,mouse.clicked_name,Feedback,Cumulative Reward,Block,trial.thisRepN,trial.thisTrialN,trial.thisN,trial.thisIndex,trial.ran,blocks.thisRepN,blocks.thisTrialN,blocks.thisN,blocks.thisIndex,blocks.ran,Money conversion,First Outcome Reported,Shown Door (First Outcome),Displayed Image (First Outcome),outcomes.thisRepN,outcomes.thisTrialN,outcomes.thisN,outcomes.thisIndex,outcomes.ran,judgments.thisRepN,judgments.thisTrialN,judgments.thisN,judgments.thisIndex,judgments.ran,freqMouse.x,freqMouse.y,freqMouse.leftButton,freqMouse.midButton,freqMouse.rightButton,freqMouse.clicked_name,FQJ for first outcome,FQJ for second outcome,Shown Door,Displayed Image,trials.thisRepN,trials.thisTrialN,trials.thisN,trials.thisIndex,trials.ran,judgBlock.thisRepN,judgBlock.thisTrialN,judgBlock.thisN,judgBlock.thisIndex,judgBlock.ran
1,resources/DR.BMP,resources/DB.BMP,resources/DBN.BMP,resources/DG.BMP,resources/DY.BMP,resources/DP.BMP,,2023-08-06_08h34.30.513,HF_wild_card,2022.2.4,MacIntel,60.0240096,5d1f0e319eeb4b001689b623,64ce5acb97489d65b14ecc7a,64cf49528ec1c8c7684fce4c,,,,,,,,,,,,,,,,,,,,,,,,,,,,,,,,,,,,,,,,,,,,,,,,,,,,,,,,,,,,,,,,
,,,,,,,,2023-08-06_08h34.30.513,HF_wild_card,2022.2.4,MacIntel,60.0240096,5d1f0e319eeb4b001689b623,64ce5acb97489d65b14ecc7a,64cf49528ec1c8c7684fce4c,-0.024074074,-0.423148148,1,0,0,agree,,,,,,,,,,,,,,,,,,,,,,,,,,,,,,,,,,,,,,,,,,,,,,,,,,,,,,,,,,
,,,,,,,,2023-08-06_08h34.30.513,HF_wild_card,2022.2.4,MacIntel,60.0240096,5d1f0e319eeb4b001689b623,64ce5acb97489d65b14ecc7a,64cf49528ec1c8c7684fce4c,,,,,,,,,,,,,,,,,,,,,,,,,,,,,,,,,,,,,,,,,,,,,,,,,,,,,,,,,,,,,,,,
,,,,,,,,2023-08-06_08h34.30.513,HF_wild_card,2022.2.4,MacIntel,60.0240096,5d1f0e319eeb4b001689b623,64ce5acb97489d65b14ecc7a,64cf49528ec1c8c7684fce4c,,,,,,,decisionTrl,resources/DR.BMP,resources/DB.BMP,Door2,0.342592593,-0.084259259,1,0,0,3.659,optionRight,20,20,1,0,0,0,0,1,,,,,,,,,,,,,,,,,,,,,,,,,,,,,,,,,,,,,,,
,,,,,,,,2023-08-06_08h34.30.513,HF_wild_card,2022.2.4,MacIntel,60.0240096,5d1f0e319eeb4b001689b623,64ce5acb97489d65b14ecc7a,64cf49528ec1c8c7684fce4c,,,,,,,decisionTrl,resources/DBN.BMP,resources/DG.BMP,Door3,-0.237962963,-0.014814815,1,0,0,3.01,optionLeft,70,90,1,1,0,1,0,1,,,,,,,,,,,,,,,,,,,,,,,,,,,,,,,,,,,,,,,
,,,,,,,,2023-08-06_08h34.30.513,HF_wild_card,2022.2.4,MacIntel,60.0240096,5d1f0e319eeb4b001689b623,64ce5acb97489d65b14ecc7a,64cf49528ec1c8c7684fce4c,,,,,,,decisionTrl,resources/DG.BMP,resources/DBN.BMP,Door3,0.243518519,0.008333333,1,0,0,2.481,optionRight,70,160,1,2,0,2,0,1,,,,,,,,,,,,,,,,,,,,,,,,,,,,,,,,,,,,,,,
,,,,,,,,2023-08-06_08h34.30.513,HF_wild_card,2022.2.4,MacIntel,60.0240096,5d1f0e319eeb4b001689b623,64ce5acb97489d65b14ecc7a,64cf49528ec1c8c7684fce4c,,,,,,,decisionTrl,resources/DBN.BMP,resources/DG.BMP,Door4,0.225925926,-0.00462963,1,0,0,2.164,optionRight,60,220,1,3,0,3,0,1,,,,,,,,,,,,,,,,,,,,,,,,,,,,,,,,,,,,,,,
,,,,,,,,2023-08-06_08h34.30.513,HF_wild_card,2022.2.4,MacIntel,60.0240096,5d1f0e319eeb4b001689b623,64ce5acb97489d65b14ecc7a,64cf49528ec1c8c7684fce4c,,,,,,,sngl,resources/DR.BMP,resources/Empty.png,Door1,-0.356481481,-0.008333333,1,0,0,0.947,optionLeft,30,250,1,4,0,4,0,1,,,,,,,,,,,,,,,,,,,,,,,,,,,,,,,,,,,,,,,
,,,,,,,,2023-08-06_08h34.30.513,HF_wild_card,2022.2.4,MacIntel,60.0240096,5d1f0e319eeb4b001689b623,64ce5acb97489d65b14ecc7a,64cf49528ec1c8c7684fce4c,,,,,,,decisionTrl,resources/DBN.BMP,resources/DG.BMP,Door3,-0.296296296,-0.010185185,1,0,0,1.795,optionLeft,70,320,1,5,0,5,0,1,,,,,,,,,,,,,,,,,,,,,,,,,,,,,,,,,,,,,,,
,,,,,,,,2023-08-06_08h34.30.513,HF_wild_card,2022.2.4,MacIntel,60.0240096,5d1f0e319eeb4b001689b623,64ce5acb97489d65b14ecc7a,64cf49528ec1c8c7684fce4c,,,,,,,sngl,resources/DBN.BMP,resources/Empty.png,Door3,-0.323148148,-0.000925926,1,0,0,0.962,optionLeft,70,390,1,6,0,6,0,1,,,,,,,,,,,,,,,,,,,,,,,,,,,,,,,,,,,,,,,
,,,,,,,,2023-08-06_08h34.30.513,HF_wild_card,2022.2.4,MacIntel,60.0240096,5d1f0e319eeb4b001689b623,64ce5acb97489d65b14ecc7a,64cf49528ec1c8c7684fce4c,,,,,,,ctch,resources/DG.BMP,resources/DR.BMP,Door4,-0.138888889,-0.028703704,1,0,0,2.362,optionLeft,80,470,1,7,0,7,0,1,,,,,,,,,,,,,,,,,,,,,,,,,,,,,,,,,,,,,,,
,,,,,,,,2023-08-06_08h34.30.513,HF_wild_card,2022.2.4,MacIntel,60.0240096,5d1f0e319eeb4b001689b623,64ce5acb97489d65b14ecc7a,64cf49528ec1c8c7684fce4c,,,,,,,ctch,resources/DR.BMP,resources/DG.BMP,Door4,0.237037037,-0.016666667,1,0,0,0.864,optionRight,80,550,1,8,0,8,0,1,,,,,,,,,,,,,,,,,,,,,,,,,,,,,,,,,,,,,,,
,,,,,,,,2023-08-06_08h34.30.513,HF_wild_card,2022.2.4,MacIntel,60.0240096,5d1f0e319eeb4b001689b623,64ce5acb97489d65b14ecc7a,64cf49528ec1c8c7684fce4c,,,,,,,decisionTrl,resources/DG.BMP,resources/DP.BMP,WildCard_NonEx,0.190740741,-0.001851852,1,0,0,1.378,optionRight,55,605,1,9,0,9,0,1,,,,,,,,,,,,,,,,,,,,,,,,,,,,,,,,,,,,,,,
,,,,,,,,2023-08-06_08h34.30.513,HF_wild_card,2022.2.4,MacIntel,60.0240096,5d1f0e319eeb4b001689b623,64ce5acb97489d65b14ecc7a,64cf49528ec1c8c7684fce4c,,,,,,,decisionTrl,resources/DR.BMP,resources/DB.BMP,Door1,-0.215740741,-0.036111111,1,0,0,2.094,optionLeft,30,635,1,10,0,10,0,1,,,,,,,,,,,,,,,,,,,,,,,,,,,,,,,,,,,,,,,
,,,,,,,,2023-08-06_08h34.30.513,HF_wild_card,2022.2.4,MacIntel,60.0240096,5d1f0e319eeb4b001689b623,64ce5acb97489d65b14ecc7a,64cf49528ec1c8c7684fce4c,,,,,,,sngl,resources/DP.BMP,resources/Empty.png,WildCard_NonEx,-0.293518519,-0.019444444,1,0,0,0.748,optionLeft,55,690,1,11,0,11,0,1,,,,,,,,,,,,,,,,,,,,,,,,,,,,,,,,,,,,,,,
,,,,,,,,2023-08-06_08h34.30.513,HF_wild_card,2022.2.4,MacIntel,60.0240096,5d1f0e319eeb4b001689b623,64ce5acb97489d65b14ecc7a,64cf49528ec1c8c7684fce4c,,,,,,,decisionTrl,resources/DP.BMP,resources/DR.BMP,WildCard_NonEx,-0.303703704,-0.076851852,1,0,0,6.828,optionLeft,45,735,1,12,0,12,0,1,,,,,,,,,,,,,,,,,,,,,,,,,,,,,,,,,,,,,,,
,,,,,,,,2023-08-06_08h34.30.513,HF_wild_card,2022.2.4,MacIntel,60.0240096,5d1f0e319eeb4b001689b623,64ce5acb97489d65b14ecc7a,64cf49528ec1c8c7684fce4c,,,,,,,sngl,resources/DP.BMP,resources/Empty.png,WildCard_NonEx,-0.275925926,-0.014814815,1,0,0,0.899,optionLeft,45,780,1,13,0,13,0,1,,,,,,,,,,,,,,,,,,,,,,,,,,,,,,,,,,,,,,,
,,,,,,,,2023-08-06_08h34.30.513,HF_wild_card,2022.2.4,MacIntel,60.0240096,5d1f0e319eeb4b001689b623,64ce5acb97489d65b14ecc7a,64cf49528ec1c8c7684fce4c,,,,,,,decisionTrl,resources/DR.BMP,resources/DB.BMP,Door2,0.239814815,-0.025925926,1,0,0,2.613,optionRight,20,800,1,14,0,14,0,1,,,,,,,,,,,,,,,,,,,,,,,,,,,,,,,,,,,,,,,
,,,,,,,,2023-08-06_08h34.30.513,HF_wild_card,2022.2.4,MacIntel,60.0240096,5d1f0e319eeb4b001689b623,64ce5acb97489d65b14ecc7a,64cf49528ec1c8c7684fce4c,,,,,,,ctch,resources/DG.BMP,resources/DR.BMP,Door4,-0.243518519,-0.037037037,1,0,0,1.897,optionLeft,80,880,1,15,0,15,0,1,,,,,,,,,,,,,,,,,,,,,,,,,,,,,,,,,,,,,,,
,,,,,,,,2023-08-06_08h34.30.513,HF_wild_card,2022.2.4,MacIntel,60.0240096,5d1f0e319eeb4b001689b623,64ce5acb97489d65b14ecc7a,64cf49528ec1c8c7684fce4c,,,,,,,decisionTrl,resources/DR.BMP,resources/DP.BMP,Door1,-0.265740741,-0.038888889,1,0,0,6.048,optionLeft,30,910,1,16,0,16,0,1,,,,,,,,,,,,,,,,,,,,,,,,,,,,,,,,,,,,,,,
,,,,,,,,2023-08-06_08h34.30.513,HF_wild_card,2022.2.4,MacIntel,60.0240096,5d1f0e319eeb4b001689b623,64ce5acb97489d65b14ecc7a,64cf49528ec1c8c7684fce4c,,,,,,,sngl,resources/DB.BMP,resources/Empty.png,Door2,-0.3,-0.013888889,1,0,0,0.629,optionLeft,40,950,1,17,0,17,0,1,,,,,,,,,,,,,,,,,,,,,,,,,,,,,,,,,,,,,,,
,,,,,,,,2023-08-06_08h34.30.513,HF_wild_card,2022.2.4,MacIntel,60.0240096,5d1f0e319eeb4b001689b623,64ce5acb97489d65b14ecc7a,64cf49528ec1c8c7684fce4c,,,,,,,sngl,resources/Empty.png,resources/DP.BMP,WildCard_NonEx,0.247222222,-0.011111111,1,0,0,0.852,optionRight,55,1005,1,18,0,18,0,1,,,,,,,,,,,,,,,,,,,,,,,,,,,,,,,,,,,,,,,
,,,,,,,,2023-08-06_08h34.30.513,HF_wild_card,2022.2.4,MacIntel,60.0240096,5d1f0e319eeb4b001689b623,64ce5acb97489d65b14ecc7a,64cf49528ec1c8c7684fce4c,,,,,,,decisionTrl,resources/DG.BMP,resources/DBN.BMP,Door3,0.269444444,0.022222222,1,0,0,4.248,optionRight,70,1075,1,19,0,19,0,1,,,,,,,,,,,,,,,,,,,,,,,,,,,,,,,,,,,,,,,
,,,,,,,,2023-08-06_08h34.30.513,HF_wild_card,2022.2.4,MacIntel,60.0240096,5d1f0e319eeb4b001689b623,64ce5acb97489d65b14ecc7a,64cf49528ec1c8c7684fce4c,,,,,,,decisionTrl,resources/DB.BMP,resources/DR.BMP,Door1,0.252777778,-0.013888889,1,0,0,1.73,optionRight,30,1105,1,20,0,20,0,1,,,,,,,,,,,,,,,,,,,,,,,,,,,,,,,,,,,,,,,
,,,,,,,,2023-08-06_08h34.30.513,HF_wild_card,2022.2.4,MacIntel,60.0240096,5d1f0e319eeb4b001689b623,64ce5acb97489d65b14ecc7a,64cf49528ec1c8c7684fce4c,,,,,,,sngl,resources/DG.BMP,resources/Empty.png,Door4,-0.266666667,-0.024074074,1,0,0,0.629,optionLeft,80,1185,1,21,0,21,0,1,,,,,,,,,,,,,,,,,,,,,,,,,,,,,,,,,,,,,,,
,,,,,,,,2023-08-06_08h34.30.513,HF_wild_card,2022.2.4,MacIntel,60.0240096,5d1f0e319eeb4b001689b623,64ce5acb97489d65b14ecc7a,64cf49528ec1c8c7684fce4c,,,,,,,decisionTrl,resources/DB.BMP,resources/DP.BMP,WildCard_NonEx,0.186111111,0.015740741,1,0,0,2.096,optionRight,45,1230,1,22,0,22,0,1,,,,,,,,,,,,,,,,,,,,,,,,,,,,,,,,,,,,,,,
,,,,,,,,2023-08-06_08h34.30.513,HF_wild_card,2022.2.4,MacIntel,60.0240096,5d1f0e319eeb4b001689b623,64ce5acb97489d65b14ecc7a,64cf49528ec1c8c7684fce4c,,,,,,,ctch,resources/DB.BMP,resources/DBN.BMP,Door3,0.250925926,0.015740741,1,0,0,1.546,optionRight,70,1300,1,23,0,23,0,1,,,,,,,,,,,,,,,,,,,,,,,,,,,,,,,,,,,,,,,
,,,,,,,,2023-08-06_08h34.30.513,HF_wild_card,2022.2.4,MacIntel,60.0240096,5d1f0e319eeb4b001689b623,64ce5acb97489d65b14ecc7a,64cf49528ec1c8c7684fce4c,,,,,,,decisionTrl,resources/DP.BMP,resources/DG.BMP,WildCard_NonEx,-0.276851852,-0.000925926,1,0,0,1.563,optionLeft,55,1355,1,24,0,24,0,1,,,,,,,,,,,,,,,,,,,,,,,,,,,,,,,,,,,,,,,
,,,,,,,,2023-08-06_08h34.30.513,HF_wild_card,2022.2.4,MacIntel,60.0240096,5d1f0e319eeb4b001689b623,64ce5acb97489d65b14ecc7a,64cf49528ec1c8c7684fce4c,,,,,,,decisionTrl,resources/DG.BMP,resources/DBN.BMP,Door3,0.32037037,-0.006481481,1,0,0,1.012,optionRight,70,1425,1,25,0,25,0,1,,,,,,,,,,,,,,,,,,,,,,,,,,,,,,,,,,,,,,,
,,,,,,,,2023-08-06_08h34.30.513,HF_wild_card,2022.2.4,MacIntel,60.0240096,5d1f0e319eeb4b001689b623,64ce5acb97489d65b14ecc7a,64cf49528ec1c8c7684fce4c,,,,,,,sngl,resources/Empty.png,resources/DB.BMP,Door2,0.206481481,-0.014814815,1,0,0,0.912,optionRight,20,1445,1,26,0,26,0,1,,,,,,,,,,,,,,,,,,,,,,,,,,,,,,,,,,,,,,,
,,,,,,,,2023-08-06_08h34.30.513,HF_wild_card,2022.2.4,MacIntel,60.0240096,5d1f0e319eeb4b001689b623,64ce5acb97489d65b14ecc7a,64cf49528ec1c8c7684fce4c,,,,,,,sngl,resources/Empty.png,resources/DP.BMP,WildCard_NonEx,0.376851852,-0.012962963,1,0,0,0.797,optionRight,45,1490,1,27,0,27,0,1,,,,,,,,,,,,,,,,,,,,,,,,,,,,,,,,,,,,,,,
,,,,,,,,2023-08-06_08h34.30.513,HF_wild_card,2022.2.4,MacIntel,60.0240096,5d1f0e319eeb4b001689b623,64ce5acb97489d65b14ecc7a,64cf49528ec1c8c7684fce4c,,,,,,,decisionTrl,resources/DB.BMP,resources/DR.BMP,Door1,0.284259259,-0.014814815,1,0,0,1.901,optionRight,30,1520,1,28,0,28,0,1,,,,,,,,,,,,,,,,,,,,,,,,,,,,,,,,,,,,,,,
,,,,,,,,2023-08-06_08h34.30.513,HF_wild_card,2022.2.4,MacIntel,60.0240096,5d1f0e319eeb4b001689b623,64ce5acb97489d65b14ecc7a,64cf49528ec1c8c7684fce4c,,,,,,,sngl,resources/Empty.png,resources/DBN.BMP,Door3,0.382407407,-0.015740741,1,0,0,0.777,optionRight,70,1590,1,29,0,29,0,1,,,,,,,,,,,,,,,,,,,,,,,,,,,,,,,,,,,,,,,
,,,,,,,,2023-08-06_08h34.30.513,HF_wild_card,2022.2.4,MacIntel,60.0240096,5d1f0e319eeb4b001689b623,64ce5acb97489d65b14ecc7a,64cf49528ec1c8c7684fce4c,,,,,,,sngl,resources/Empty.png,resources/DR.BMP,Door1,0.297222222,-0.064814815,1,0,0,0.612,optionRight,30,1620,1,30,0,30,0,1,,,,,,,,,,,,,,,,,,,,,,,,,,,,,,,,,,,,,,,
,,,,,,,,2023-08-06_08h34.30.513,HF_wild_card,2022.2.4,MacIntel,60.0240096,5d1f0e319eeb4b001689b623,64ce5acb97489d65b14ecc7a,64cf49528ec1c8c7684fce4c,,,,,,,decisionTrl,resources/DBN.BMP,resources/DP.BMP,Door3,-0.312037037,-0.039814815,1,0,0,0.811,optionLeft,70,1690,1,31,0,31,0,1,,,,,,,,,,,,,,,,,,,,,,,,,,,,,,,,,,,,,,,
,,,,,,,,2023-08-06_08h34.30.513,HF_wild_card,2022.2.4,MacIntel,60.0240096,5d1f0e319eeb4b001689b623,64ce5acb97489d65b14ecc7a,64cf49528ec1c8c7684fce4c,,,,,,,sngl,resources/Empty.png,resources/DG.BMP,Door4,0.27962963,-0.074074074,1,0,0,0.613,optionRight,60,1750,1,32,0,32,0,1,,,,,,,,,,,,,,,,,,,,,,,,,,,,,,,,,,,,,,,
,,,,,,,,2023-08-06_08h34.30.513,HF_wild_card,2022.2.4,MacIntel,60.0240096,5d1f0e319eeb4b001689b623,64ce5acb97489d65b14ecc7a,64cf49528ec1c8c7684fce4c,,,,,,,ctch,resources/DBN.BMP,resources/DB.BMP,Door3,-0.177777778,0.025925926,1,0,0,0.911,optionLeft,70,1820,1,33,0,33,0,1,,,,,,,,,,,,,,,,,,,,,,,,,,,,,,,,,,,,,,,
,,,,,,,,2023-08-06_08h34.30.513,HF_wild_card,2022.2.4,MacIntel,60.0240096,5d1f0e319eeb4b001689b623,64ce5acb97489d65b14ecc7a,64cf49528ec1c8c7684fce4c,,,,,,,decisionTrl,resources/DR.BMP,resources/DB.BMP,Door1,-0.22962963,-0.031481481,1,0,0,1.513,optionLeft,30,1850,1,34,0,34,0,1,,,,,,,,,,,,,,,,,,,,,,,,,,,,,,,,,,,,,,,
,,,,,,,,2023-08-06_08h34.30.513,HF_wild_card,2022.2.4,MacIntel,60.0240096,5d1f0e319eeb4b001689b623,64ce5acb97489d65b14ecc7a,64cf49528ec1c8c7684fce4c,,,,,,,decisionTrl,resources/DP.BMP,resources/DB.BMP,WildCard_NonEx,-0.356481481,-0.047222222,1,0,0,1.497,optionLeft,55,1905,1,35,0,35,0,1,,,,,,,,,,,,,,,,,,,,,,,,,,,,,,,,,,,,,,,
,,,,,,,,2023-08-06_08h34.30.513,HF_wild_card,2022.2.4,MacIntel,60.0240096,5d1f0e319eeb4b001689b623,64ce5acb97489d65b14ecc7a,64cf49528ec1c8c7684fce4c,,,,,,,ctch,resources/DBN.BMP,resources/DB.BMP,Door3,-0.352777778,-0.022222222,1,0,0,0.68,optionLeft,70,1975,1,36,0,36,0,1,,,,,,,,,,,,,,,,,,,,,,,,,,,,,,,,,,,,,,,
,,,,,,,,2023-08-06_08h34.30.513,HF_wild_card,2022.2.4,MacIntel,60.0240096,5d1f0e319eeb4b001689b623,64ce5acb97489d65b14ecc7a,64cf49528ec1c8c7684fce4c,,,,,,,decisionTrl,resources/DG.BMP,resources/DBN.BMP,Door3,0.407407407,-0.04537037,1,0,0,0.852,optionRight,70,2045,1,37,0,37,0,1,,,,,,,,,,,,,,,,,,,,,,,,,,,,,,,,,,,,,,,
,,,,,,,,2023-08-06_08h34.30.513,HF_wild_card,2022.2.4,MacIntel,60.0240096,5d1f0e319eeb4b001689b623,64ce5acb97489d65b14ecc7a,64cf49528ec1c8c7684fce4c,,,,,,,decisionTrl,resources/DB.BMP,resources/DR.BMP,Door1,0.199074074,-0.052777778,1,0,0,2.431,optionRight,30,2075,1,38,0,38,0,1,,,,,,,,,,,,,,,,,,,,,,,,,,,,,,,,,,,,,,,
,,,,,,,,2023-08-06_08h34.30.513,HF_wild_card,2022.2.4,MacIntel,60.0240096,5d1f0e319eeb4b001689b623,64ce5acb97489d65b14ecc7a,64cf49528ec1c8c7684fce4c,,,,,,,decisionTrl,resources/DP.BMP,resources/DBN.BMP,Door3,0.246296296,0.001851852,1,0,0,0.763,optionRight,70,2145,1,39,0,39,0,1,,,,,,,,,,,,,,,,,,,,,,,,,,,,,,,,,,,,,,,
,,,,,,,,2023-08-06_08h34.30.513,HF_wild_card,2022.2.4,MacIntel,60.0240096,5d1f0e319eeb4b001689b623,64ce5acb97489d65b14ecc7a,64cf49528ec1c8c7684fce4c,,,,,,,ctch,resources/DR.BMP,resources/DG.BMP,Door4,0.223148148,-0.092592593,1,0,0,3.229,optionRight,60,2205,1,40,0,40,0,1,,,,,,,,,,,,,,,,,,,,,,,,,,,,,,,,,,,,,,,
,,,,,,,,2023-08-06_08h34.30.513,HF_wild_card,2022.2.4,MacIntel,60.0240096,5d1f0e319eeb4b001689b623,64ce5acb97489d65b14ecc7a,64cf49528ec1c8c7684fce4c,,,,,,,decisionTrl,resources/DB.BMP,resources/DR.BMP,Door1,0.293518519,-0.058333333,1,0,0,2.079,optionRight,30,2235,1,41,0,41,0,1,,,,,,,,,,,,,,,,,,,,,,,,,,,,,,,,,,,,,,,
,,,,,,,,2023-08-06_08h34.30.513,HF_wild_card,2022.2.4,MacIntel,60.0240096,5d1f0e319eeb4b001689b623,64ce5acb97489d65b14ecc7a,64cf49528ec1c8c7684fce4c,,,,,,,ctch,resources/DB.BMP,resources/DBN.BMP,Door3,0.269444444,-0.038888889,1,0,0,0.73,optionRight,70,2305,1,42,0,42,0,1,,,,,,,,,,,,,,,,,,,,,,,,,,,,,,,,,,,,,,,
,,,,,,,,2023-08-06_08h34.30.513,HF_wild_card,2022.2.4,MacIntel,60.0240096,5d1f0e319eeb4b001689b623,64ce5acb97489d65b14ecc7a,64cf49528ec1c8c7684fce4c,,,,,,,decisionTrl,resources/DBN.BMP,resources/DG.BMP,Door3,-0.306481481,0.072222222,1,0,0,0.713,optionLeft,70,2375,1,43,0,43,0,1,,,,,,,,,,,,,,,,,,,,,,,,,,,,,,,,,,,,,,,
,,,,,,,,2023-08-06_08h34.30.513,HF_wild_card,2022.2.4,MacIntel,60.0240096,5d1f0e319eeb4b001689b623,64ce5acb97489d65b14ecc7a,64cf49528ec1c8c7684fce4c,,,,,,,,,,,,,,,,,,,,,,,,,,0,0,0,0,1,,,,,,,,,,,,,,,,,,,,,,,,,,,,,,,,,,
,,,,,,,,2023-08-06_08h34.30.513,HF_wild_card,2022.2.4,MacIntel,60.0240096,5d1f0e319eeb4b001689b623,64ce5acb97489d65b14ecc7a,64cf49528ec1c8c7684fce4c,,,,,,,ctch,resources/DG.BMP,resources/DR.BMP,Door4,-0.515740741,0.077777778,1,0,0,1.83,optionLeft,60,2435,2,0,0,0,0,1,,,,,,,,,,,,,,,,,,,,,,,,,,,,,,,,,,,,,,,
,,,,,,,,2023-08-06_08h34.30.513,HF_wild_card,2022.2.4,MacIntel,60.0240096,5d1f0e319eeb4b001689b623,64ce5acb97489d65b14ecc7a,64cf49528ec1c8c7684fce4c,,,,,,,sngl,resources/Empty.png,resources/DP.BMP,WildCard_NonEx,0.519444444,-0.084259259,1,0,0,0.963,optionRight,55,2490,2,1,0,1,0,1,,,,,,,,,,,,,,,,,,,,,,,,,,,,,,,,,,,,,,,
,,,,,,,,2023-08-06_08h34.30.513,HF_wild_card,2022.2.4,MacIntel,60.0240096,5d1f0e319eeb4b001689b623,64ce5acb97489d65b14ecc7a,64cf49528ec1c8c7684fce4c,,,,,,,decisionTrl,resources/DBN.BMP,resources/DG.BMP,Door3,-0.280555556,-0.024074074,1,0,0,0.662,optionLeft,70,2560,2,2,0,2,0,1,,,,,,,,,,,,,,,,,,,,,,,,,,,,,,,,,,,,,,,
,,,,,,,,2023-08-06_08h34.30.513,HF_wild_card,2022.2.4,MacIntel,60.0240096,5d1f0e319eeb4b001689b623,64ce5acb97489d65b14ecc7a,64cf49528ec1c8c7684fce4c,,,,,,,sngl,resources/DP.BMP,resources/Empty.png,WildCard_NonEx,-0.269444444,-0.040740741,1,0,0,0.582,optionLeft,45,2605,2,3,0,3,0,1,,,,,,,,,,,,,,,,,,,,,,,,,,,,,,,,,,,,,,,
,,,,,,,,2023-08-06_08h34.30.513,HF_wild_card,2022.2.4,MacIntel,60.0240096,5d1f0e319eeb4b001689b623,64ce5acb97489d65b14ecc7a,64cf49528ec1c8c7684fce4c,,,,,,,decisionTrl,resources/DG.BMP,resources/DP.BMP,Door4,-0.215740741,-0.041666667,1,0,0,1.28,optionLeft,60,2665,2,4,0,4,0,1,,,,,,,,,,,,,,,,,,,,,,,,,,,,,,,,,,,,,,,
,,,,,,,,2023-08-06_08h34.30.513,HF_wild_card,2022.2.4,MacIntel,60.0240096,5d1f0e319eeb4b001689b623,64ce5acb97489d65b14ecc7a,64cf49528ec1c8c7684fce4c,,,,,,,ctch,resources/DG.BMP,resources/DR.BMP,Door1,0.347222222,-0.060185185,1,0,0,1.695,optionRight,30,2695,2,5,0,5,0,1,,,,,,,,,,,,,,,,,,,,,,,,,,,,,,,,,,,,,,,
,,,,,,,,2023-08-06_08h34.30.513,HF_wild_card,2022.2.4,MacIntel,60.0240096,5d1f0e319eeb4b001689b623,64ce5acb97489d65b14ecc7a,64cf49528ec1c8c7684fce4c,,,,,,,sngl,resources/Empty.png,resources/DR.BMP,Door1,0.419444444,0.023148148,1,0,0,0.546,optionRight,30,2725,2,6,0,6,0,1,,,,,,,,,,,,,,,,,,,,,,,,,,,,,,,,,,,,,,,
,,,,,,,,2023-08-06_08h34.30.513,HF_wild_card,2022.2.4,MacIntel,60.0240096,5d1f0e319eeb4b001689b623,64ce5acb97489d65b14ecc7a,64cf49528ec1c8c7684fce4c,,,,,,,decisionTrl,resources/DR.BMP,resources/DP.BMP,WildCard_NonEx,0.462037037,-0.02962963,1,0,0,1.245,optionRight,45,2770,2,7,0,7,0,1,,,,,,,,,,,,,,,,,,,,,,,,,,,,,,,,,,,,,,,
,,,,,,,,2023-08-06_08h34.30.513,HF_wild_card,2022.2.4,MacIntel,60.0240096,5d1f0e319eeb4b001689b623,64ce5acb97489d65b14ecc7a,64cf49528ec1c8c7684fce4c,,,,,,,decisionTrl,resources/DR.BMP,resources/DB.BMP,Door1,-0.426851852,-0.119444444,1,0,0,2.922,optionLeft,30,2800,2,8,0,8,0,1,,,,,,,,,,,,,,,,,,,,,,,,,,,,,,,,,,,,,,,
,,,,,,,,2023-08-06_08h34.30.513,HF_wild_card,2022.2.4,MacIntel,60.0240096,5d1f0e319eeb4b001689b623,64ce5acb97489d65b14ecc7a,64cf49528ec1c8c7684fce4c,,,,,,,ctch,resources/DBN.BMP,resources/DB.BMP,Door3,-0.312037037,-0.12037037,1,0,0,1.026,optionLeft,70,2870,2,9,0,9,0,1,,,,,,,,,,,,,,,,,,,,,,,,,,,,,,,,,,,,,,,
,,,,,,,,2023-08-06_08h34.30.513,HF_wild_card,2022.2.4,MacIntel,60.0240096,5d1f0e319eeb4b001689b623,64ce5acb97489d65b14ecc7a,64cf49528ec1c8c7684fce4c,,,,,,,sngl,resources/Empty.png,resources/DB.BMP,Door2,0.519444444,-0.071296296,1,0,0,0.576,optionRight,40,2910,2,10,0,10,0,1,,,,,,,,,,,,,,,,,,,,,,,,,,,,,,,,,,,,,,,
,,,,,,,,2023-08-06_08h34.30.513,HF_wild_card,2022.2.4,MacIntel,60.0240096,5d1f0e319eeb4b001689b623,64ce5acb97489d65b14ecc7a,64cf49528ec1c8c7684fce4c,,,,,,,sngl,resources/DR.BMP,resources/Empty.png,Door1,-0.247222222,-0.053703704,1,0,0,0.645,optionLeft,30,2940,2,11,0,11,0,1,,,,,,,,,,,,,,,,,,,,,,,,,,,,,,,,,,,,,,,
,,,,,,,,2023-08-06_08h34.30.513,HF_wild_card,2022.2.4,MacIntel,60.0240096,5d1f0e319eeb4b001689b623,64ce5acb97489d65b14ecc7a,64cf49528ec1c8c7684fce4c,,,,,,,decisionTrl,resources/DBN.BMP,resources/DG.BMP,Door3,-0.427777778,-0.059259259,1,0,0,0.876,optionLeft,70,3010,2,12,0,12,0,1,,,,,,,,,,,,,,,,,,,,,,,,,,,,,,,,,,,,,,,
,,,,,,,,2023-08-06_08h34.30.513,HF_wild_card,2022.2.4,MacIntel,60.0240096,5d1f0e319eeb4b001689b623,64ce5acb97489d65b14ecc7a,64cf49528ec1c8c7684fce4c,,,,,,,ctch,resources/DBN.BMP,resources/DB.BMP,Door3,-0.322222222,-0.075925926,1,0,0,0.745,optionLeft,70,3080,2,13,0,13,0,1,,,,,,,,,,,,,,,,,,,,,,,,,,,,,,,,,,,,,,,
,,,,,,,,2023-08-06_08h34.30.513,HF_wild_card,2022.2.4,MacIntel,60.0240096,5d1f0e319eeb4b001689b623,64ce5acb97489d65b14ecc7a,64cf49528ec1c8c7684fce4c,,,,,,,decisionTrl,resources/DR.BMP,resources/DB.BMP,Door2,0.311111111,-0.047222222,1,0,0,1.595,optionRight,40,3120,2,14,0,14,0,1,,,,,,,,,,,,,,,,,,,,,,,,,,,,,,,,,,,,,,,
,,,,,,,,2023-08-06_08h34.30.513,HF_wild_card,2022.2.4,MacIntel,60.0240096,5d1f0e319eeb4b001689b623,64ce5acb97489d65b14ecc7a,64cf49528ec1c8c7684fce4c,,,,,,,decisionTrl,resources/DB.BMP,resources/DR.BMP,Door2,-0.337962963,-0.078703704,1,0,0,1.195,optionLeft,40,3160,2,15,0,15,0,1,,,,,,,,,,,,,,,,,,,,,,,,,,,,,,,,,,,,,,,
,,,,,,,,2023-08-06_08h34.30.513,HF_wild_card,2022.2.4,MacIntel,60.0240096,5d1f0e319eeb4b001689b623,64ce5acb97489d65b14ecc7a,64cf49528ec1c8c7684fce4c,,,,,,,decisionTrl,resources/DR.BMP,resources/DB.BMP,Door2,0.344444444,-0.028703704,1,0,0,0.663,optionRight,40,3200,2,16,0,16,0,1,,,,,,,,,,,,,,,,,,,,,,,,,,,,,,,,,,,,,,,
,,,,,,,,2023-08-06_08h34.30.513,HF_wild_card,2022.2.4,MacIntel,60.0240096,5d1f0e319eeb4b001689b623,64ce5acb97489d65b14ecc7a,64cf49528ec1c8c7684fce4c,,,,,,,decisionTrl,resources/DG.BMP,resources/DBN.BMP,Door3,0.373148148,0.010185185,1,0,0,0.763,optionRight,70,3270,2,17,0,17,0,1,,,,,,,,,,,,,,,,,,,,,,,,,,,,,,,,,,,,,,,
,,,,,,,,2023-08-06_08h34.30.513,HF_wild_card,2022.2.4,MacIntel,60.0240096,5d1f0e319eeb4b001689b623,64ce5acb97489d65b14ecc7a,64cf49528ec1c8c7684fce4c,,,,,,,ctch,resources/DR.BMP,resources/DG.BMP,Door4,0.278703704,-0.057407407,1,0,0,2.209,optionRight,80,3350,2,18,0,18,0,1,,,,,,,,,,,,,,,,,,,,,,,,,,,,,,,,,,,,,,,
,,,,,,,,2023-08-06_08h34.30.513,HF_wild_card,2022.2.4,MacIntel,60.0240096,5d1f0e319eeb4b001689b623,64ce5acb97489d65b14ecc7a,64cf49528ec1c8c7684fce4c,,,,,,,ctch,resources/DB.BMP,resources/DBN.BMP,Door3,0.317592593,-0.027777778,1,0,0,0.711,optionRight,70,3420,2,19,0,19,0,1,,,,,,,,,,,,,,,,,,,,,,,,,,,,,,,,,,,,,,,
,,,,,,,,2023-08-06_08h34.30.513,HF_wild_card,2022.2.4,MacIntel,60.0240096,5d1f0e319eeb4b001689b623,64ce5acb97489d65b14ecc7a,64cf49528ec1c8c7684fce4c,,,,,,,sngl,resources/DB.BMP,resources/Empty.png,Door2,-0.286111111,-0.084259259,1,0,0,0.969,optionLeft,20,3440,2,20,0,20,0,1,,,,,,,,,,,,,,,,,,,,,,,,,,,,,,,,,,,,,,,
,,,,,,,,2023-08-06_08h34.30.513,HF_wild_card,2022.2.4,MacIntel,60.0240096,5d1f0e319eeb4b001689b623,64ce5acb97489d65b14ecc7a,64cf49528ec1c8c7684fce4c,,,,,,,sngl,resources/DBN.BMP,resources/Empty.png,Door3,-0.376851852,-0.075925926,1,0,0,0.679,optionLeft,70,3510,2,21,0,21,0,1,,,,,,,,,,,,,,,,,,,,,,,,,,,,,,,,,,,,,,,
,,,,,,,,2023-08-06_08h34.30.513,HF_wild_card,2022.2.4,MacIntel,60.0240096,5d1f0e319eeb4b001689b623,64ce5acb97489d65b14ecc7a,64cf49528ec1c8c7684fce4c,,,,,,,decisionTrl,resources/DBN.BMP,resources/DP.BMP,Door3,-0.206481481,-0.044444444,1,0,0,0.995,optionLeft,70,3580,2,22,0,22,0,1,,,,,,,,,,,,,,,,,,,,,,,,,,,,,,,,,,,,,,,
,,,,,,,,2023-08-06_08h34.30.513,HF_wild_card,2022.2.4,MacIntel,60.0240096,5d1f0e319eeb4b001689b623,64ce5acb97489d65b14ecc7a,64cf49528ec1c8c7684fce4c,,,,,,,decisionTrl,resources/DP.BMP,resources/DB.BMP,WildCard_NonEx,-0.275,-0.134259259,1,0,0,4.38,optionLeft,45,3625,2,23,0,23,0,1,,,,,,,,,,,,,,,,,,,,,,,,,,,,,,,,,,,,,,,
,,,,,,,,2023-08-06_08h34.30.513,HF_wild_card,2022.2.4,MacIntel,60.0240096,5d1f0e319eeb4b001689b623,64ce5acb97489d65b14ecc7a,64cf49528ec1c8c7684fce4c,,,,,,,sngl,resources/Empty.png,resources/DG.BMP,Door4,0.29537037,-0.034259259,1,0,0,0.946,optionRight,80,3705,2,24,0,24,0,1,,,,,,,,,,,,,,,,,,,,,,,,,,,,,,,,,,,,,,,
,,,,,,,,2023-08-06_08h34.30.513,HF_wild_card,2022.2.4,MacIntel,60.0240096,5d1f0e319eeb4b001689b623,64ce5acb97489d65b14ecc7a,64cf49528ec1c8c7684fce4c,,,,,,,decisionTrl,resources/DG.BMP,resources/DBN.BMP,Door3,0.376851852,-0.016666667,1,0,0,0.713,optionRight,70,3775,2,25,0,25,0,1,,,,,,,,,,,,,,,,,,,,,,,,,,,,,,,,,,,,,,,
,,,,,,,,2023-08-06_08h34.30.513,HF_wild_card,2022.2.4,MacIntel,60.0240096,5d1f0e319eeb4b001689b623,64ce5acb97489d65b14ecc7a,64cf49528ec1c8c7684fce4c,,,,,,,ctch,resources/DR.BMP,resources/DG.BMP,Door4,0.383333333,-0.012962963,1,0,0,0.812,optionRight,60,3835,2,26,0,26,0,1,,,,,,,,,,,,,,,,,,,,,,,,,,,,,,,,,,,,,,,
,,,,,,,,2023-08-06_08h34.30.513,HF_wild_card,2022.2.4,MacIntel,60.0240096,5d1f0e319eeb4b001689b623,64ce5acb97489d65b14ecc7a,64cf49528ec1c8c7684fce4c,,,,,,,decisionTrl,resources/DP.BMP,resources/DG.BMP,Door4,0.398148148,-0.002777778,1,0,0,0.729,optionRight,60,3895,2,27,0,27,0,1,,,,,,,,,,,,,,,,,,,,,,,,,,,,,,,,,,,,,,,
,,,,,,,,2023-08-06_08h34.30.513,HF_wild_card,2022.2.4,MacIntel,60.0240096,5d1f0e319eeb4b001689b623,64ce5acb97489d65b14ecc7a,64cf49528ec1c8c7684fce4c,,,,,,,decisionTrl,resources/DG.BMP,resources/DBN.BMP,Door3,0.47037037,-0.003703704,1,0,0,0.645,optionRight,70,3965,2,28,0,28,0,1,,,,,,,,,,,,,,,,,,,,,,,,,,,,,,,,,,,,,,,
,,,,,,,,2023-08-06_08h34.30.513,HF_wild_card,2022.2.4,MacIntel,60.0240096,5d1f0e319eeb4b001689b623,64ce5acb97489d65b14ecc7a,64cf49528ec1c8c7684fce4c,,,,,,,sngl,resources/Empty.png,resources/DP.BMP,WildCard_NonEx,0.275925926,-0.063888889,1,0,0,0.729,optionRight,45,4010,2,29,0,29,0,1,,,,,,,,,,,,,,,,,,,,,,,,,,,,,,,,,,,,,,,
,,,,,,,,2023-08-06_08h34.30.513,HF_wild_card,2022.2.4,MacIntel,60.0240096,5d1f0e319eeb4b001689b623,64ce5acb97489d65b14ecc7a,64cf49528ec1c8c7684fce4c,,,,,,,decisionTrl,resources/DB.BMP,resources/DR.BMP,Door2,-0.248148148,-0.062962963,1,0,0,3.496,optionLeft,20,4030,2,30,0,30,0,1,,,,,,,,,,,,,,,,,,,,,,,,,,,,,,,,,,,,,,,
,,,,,,,,2023-08-06_08h34.30.513,HF_wild_card,2022.2.4,MacIntel,60.0240096,5d1f0e319eeb4b001689b623,64ce5acb97489d65b14ecc7a,64cf49528ec1c8c7684fce4c,,,,,,,decisionTrl,resources/DP.BMP,resources/DR.BMP,WildCard_NonEx,-0.387962963,-0.091666667,1,0,0,1.678,optionLeft,55,4085,2,31,0,31,0,1,,,,,,,,,,,,,,,,,,,,,,,,,,,,,,,,,,,,,,,
,,,,,,,,2023-08-06_08h34.30.513,HF_wild_card,2022.2.4,MacIntel,60.0240096,5d1f0e319eeb4b001689b623,64ce5acb97489d65b14ecc7a,64cf49528ec1c8c7684fce4c,,,,,,,ctch,resources/DB.BMP,resources/DBN.BMP,Door3,0.321296296,-0.014814815,1,0,0,0.728,optionRight,70,4155,2,32,0,32,0,1,,,,,,,,,,,,,,,,,,,,,,,,,,,,,,,,,,,,,,,
,,,,,,,,2023-08-06_08h34.30.513,HF_wild_card,2022.2.4,MacIntel,60.0240096,5d1f0e319eeb4b001689b623,64ce5acb97489d65b14ecc7a,64cf49528ec1c8c7684fce4c,,,,,,,decisionTrl,resources/DB.BMP,resources/DP.BMP,WildCard_NonEx,0.30462963,-0.059259259,1,0,0,2.08,optionRight,55,4210,2,33,0,33,0,1,,,,,,,,,,,,,,,,,,,,,,,,,,,,,,,,,,,,,,,
,,,,,,,,2023-08-06_08h34.30.513,HF_wild_card,2022.2.4,MacIntel,60.0240096,5d1f0e319eeb4b001689b623,64ce5acb97489d65b14ecc7a,64cf49528ec1c8c7684fce4c,,,,,,,sngl,resources/Empty.png,resources/DBN.BMP,Door3,0.376851852,-0.022222222,1,0,0,0.513,optionRight,70,4280,2,34,0,34,0,1,,,,,,,,,,,,,,,,,,,,,,,,,,,,,,,,,,,,,,,
,,,,,,,,2023-08-06_08h34.30.513,HF_wild_card,2022.2.4,MacIntel,60.0240096,5d1f0e319eeb4b001689b623,64ce5acb97489d65b14ecc7a,64cf49528ec1c8c7684fce4c,,,,,,,decisionTrl,resources/DB.BMP,resources/DR.BMP,Door1,0.469444444,-0.000925926,1,0,0,1.796,optionRight,30,4310,2,35,0,35,0,1,,,,,,,,,,,,,,,,,,,,,,,,,,,,,,,,,,,,,,,
,,,,,,,,2023-08-06_08h34.30.513,HF_wild_card,2022.2.4,MacIntel,60.0240096,5d1f0e319eeb4b001689b623,64ce5acb97489d65b14ecc7a,64cf49528ec1c8c7684fce4c,,,,,,,sngl,resources/DP.BMP,resources/Empty.png,WildCard_NonEx,-0.278703704,-0.037037037,1,0,0,0.597,optionLeft,55,4365,2,36,0,36,0,1,,,,,,,,,,,,,,,,,,,,,,,,,,,,,,,,,,,,,,,
,,,,,,,,2023-08-06_08h34.30.513,HF_wild_card,2022.2.4,MacIntel,60.0240096,5d1f0e319eeb4b001689b623,64ce5acb97489d65b14ecc7a,64cf49528ec1c8c7684fce4c,,,,,,,decisionTrl,resources/DBN.BMP,resources/DG.BMP,Door3,-0.274074074,-0.031481481,1,0,0,1.479,optionLeft,70,4435,2,37,0,37,0,1,,,,,,,,,,,,,,,,,,,,,,,,,,,,,,,,,,,,,,,
,,,,,,,,2023-08-06_08h34.30.513,HF_wild_card,2022.2.4,MacIntel,60.0240096,5d1f0e319eeb4b001689b623,64ce5acb97489d65b14ecc7a,64cf49528ec1c8c7684fce4c,,,,,,,decisionTrl,resources/DBN.BMP,resources/DG.BMP,Door3,-0.335185185,-0.059259259,1,0,0,1.014,optionLeft,70,4505,2,38,0,38,0,1,,,,,,,,,,,,,,,,,,,,,,,,,,,,,,,,,,,,,,,
,,,,,,,,2023-08-06_08h34.30.513,HF_wild_card,2022.2.4,MacIntel,60.0240096,5d1f0e319eeb4b001689b623,64ce5acb97489d65b14ecc7a,64cf49528ec1c8c7684fce4c,,,,,,,sngl,resources/DG.BMP,resources/Empty.png,Door4,-0.282407407,-0.061111111,1,0,0,0.628,optionLeft,60,4565,2,39,0,39,0,1,,,,,,,,,,,,,,,,,,,,,,,,,,,,,,,,,,,,,,,
,,,,,,,,2023-08-06_08h34.30.513,HF_wild_card,2022.2.4,MacIntel,60.0240096,5d1f0e319eeb4b001689b623,64ce5acb97489d65b14ecc7a,64cf49528ec1c8c7684fce4c,,,,,,,decisionTrl,resources/DB.BMP,resources/DR.BMP,Door1,0.264814815,-0.072222222,1,0,0,1.06,optionRight,30,4595,2,40,0,40,0,1,,,,,,,,,,,,,,,,,,,,,,,,,,,,,,,,,,,,,,,
,,,,,,,,2023-08-06_08h34.30.513,HF_wild_card,2022.2.4,MacIntel,60.0240096,5d1f0e319eeb4b001689b623,64ce5acb97489d65b14ecc7a,64cf49528ec1c8c7684fce4c,,,,,,,decisionTrl,resources/DP.BMP,resources/DBN.BMP,Door3,0.285185185,0.017592593,1,0,0,0.661,optionRight,70,4665,2,41,0,41,0,1,,,,,,,,,,,,,,,,,,,,,,,,,,,,,,,,,,,,,,,
,,,,,,,,2023-08-06_08h34.30.513,HF_wild_card,2022.2.4,MacIntel,60.0240096,5d1f0e319eeb4b001689b623,64ce5acb97489d65b14ecc7a,64cf49528ec1c8c7684fce4c,,,,,,,decisionTrl,resources/DR.BMP,resources/DB.BMP,Door1,-0.219444444,-0.044444444,1,0,0,1.085,optionLeft,30,4695,2,42,0,42,0,1,,,,,,,,,,,,,,,,,,,,,,,,,,,,,,,,,,,,,,,
,,,,,,,,2023-08-06_08h34.30.513,HF_wild_card,2022.2.4,MacIntel,60.0240096,5d1f0e319eeb4b001689b623,64ce5acb97489d65b14ecc7a,64cf49528ec1c8c7684fce4c,,,,,,,decisionTrl,resources/DG.BMP,resources/DBN.BMP,Door3,0.344444444,-0.025,1,0,0,0.56,optionRight,70,4765,2,43,0,43,0,1,,,,,,,,,,,,,,,,,,,,,,,,,,,,,,,,,,,,,,,
,,,,,,,,2023-08-06_08h34.30.513,HF_wild_card,2022.2.4,MacIntel,60.0240096,5d1f0e319eeb4b001689b623,64ce5acb97489d65b14ecc7a,64cf49528ec1c8c7684fce4c,,,,,,,,,,,,,,,,,,,,,,,,,,1,0,1,0,1,,,,,,,,,,,,,,,,,,,,,,,,,,,,,,,,,,
,,,,,,,,2023-08-06_08h34.30.513,HF_wild_card,2022.2.4,MacIntel,60.0240096,5d1f0e319eeb4b001689b623,64ce5acb97489d65b14ecc7a,64cf49528ec1c8c7684fce4c,,,,,,,ctch,resources/DBN.BMP,resources/DB.BMP,Door3,-0.286111111,-0.060185185,1,0,0,1.263,optionLeft,70,4835,3,0,0,0,0,1,,,,,,,,,,,,,,,,,,,,,,,,,,,,,,,,,,,,,,,
,,,,,,,,2023-08-06_08h34.30.513,HF_wild_card,2022.2.4,MacIntel,60.0240096,5d1f0e319eeb4b001689b623,64ce5acb97489d65b14ecc7a,64cf49528ec1c8c7684fce4c,,,,,,,decisionTrl,resources/DB.BMP,resources/DR.BMP,Door1,0.25462963,-0.058333333,1,0,0,5.444,optionRight,30,4865,3,1,0,1,0,1,,,,,,,,,,,,,,,,,,,,,,,,,,,,,,,,,,,,,,,
,,,,,,,,2023-08-06_08h34.30.513,HF_wild_card,2022.2.4,MacIntel,60.0240096,5d1f0e319eeb4b001689b623,64ce5acb97489d65b14ecc7a,64cf49528ec1c8c7684fce4c,,,,,,,sngl,resources/DB.BMP,resources/Empty.png,Door2,-0.375925926,-0.07037037,1,0,0,1.428,optionLeft,40,4905,3,2,0,2,0,1,,,,,,,,,,,,,,,,,,,,,,,,,,,,,,,,,,,,,,,
,,,,,,,,2023-08-06_08h34.30.513,HF_wild_card,2022.2.4,MacIntel,60.0240096,5d1f0e319eeb4b001689b623,64ce5acb97489d65b14ecc7a,64cf49528ec1c8c7684fce4c,,,,,,,decisionTrl,resources/DBN.BMP,resources/DP.BMP,Door3,-0.213888889,0.007407407,1,0,0,1.429,optionLeft,70,4975,3,3,0,3,0,1,,,,,,,,,,,,,,,,,,,,,,,,,,,,,,,,,,,,,,,
,,,,,,,,2023-08-06_08h34.30.513,HF_wild_card,2022.2.4,MacIntel,60.0240096,5d1f0e319eeb4b001689b623,64ce5acb97489d65b14ecc7a,64cf49528ec1c8c7684fce4c,,,,,,,decisionTrl,resources/DR.BMP,resources/DB.BMP,Door1,-0.230555556,-0.02962963,1,0,0,1.294,optionLeft,30,5005,3,4,0,4,0,1,,,,,,,,,,,,,,,,,,,,,,,,,,,,,,,,,,,,,,,
,,,,,,,,2023-08-06_08h34.30.513,HF_wild_card,2022.2.4,MacIntel,60.0240096,5d1f0e319eeb4b001689b623,64ce5acb97489d65b14ecc7a,64cf49528ec1c8c7684fce4c,,,,,,,ctch,resources/DB.BMP,resources/DBN.BMP,Door3,0.447222222,0.009259259,1,0,0,0.893,optionRight,70,5075,3,5,0,5,0,1,,,,,,,,,,,,,,,,,,,,,,,,,,,,,,,,,,,,,,,
,,,,,,,,2023-08-06_08h34.30.513,HF_wild_card,2022.2.4,MacIntel,60.0240096,5d1f0e319eeb4b001689b623,64ce5acb97489d65b14ecc7a,64cf49528ec1c8c7684fce4c,,,,,,,decisionTrl,resources/DP.BMP,resources/DG.BMP,Door4,0.407407407,0.02037037,1,0,0,1.879,optionRight,80,5155,3,6,0,6,0,1,,,,,,,,,,,,,,,,,,,,,,,,,,,,,,,,,,,,,,,
,,,,,,,,2023-08-06_08h34.30.513,HF_wild_card,2022.2.4,MacIntel,60.0240096,5d1f0e319eeb4b001689b623,64ce5acb97489d65b14ecc7a,64cf49528ec1c8c7684fce4c,,,,,,,decisionTrl,resources/DP.BMP,resources/DR.BMP,WildCard_NonEx,-0.227777778,-0.026851852,1,0,0,2.096,optionLeft,55,5210,3,7,0,7,0,1,,,,,,,,,,,,,,,,,,,,,,,,,,,,,,,,,,,,,,,
,,,,,,,,2023-08-06_08h34.30.513,HF_wild_card,2022.2.4,MacIntel,60.0240096,5d1f0e319eeb4b001689b623,64ce5acb97489d65b14ecc7a,64cf49528ec1c8c7684fce4c,,,,,,,ctch,resources/DG.BMP,resources/DR.BMP,Door4,-0.248148148,-0.016666667,1,0,0,1.327,optionLeft,60,5270,3,8,0,8,0,1,,,,,,,,,,,,,,,,,,,,,,,,,,,,,,,,,,,,,,,
,,,,,,,,2023-08-06_08h34.30.513,HF_wild_card,2022.2.4,MacIntel,60.0240096,5d1f0e319eeb4b001689b623,64ce5acb97489d65b14ecc7a,64cf49528ec1c8c7684fce4c,,,,,,,sngl,resources/DP.BMP,resources/Empty.png,WildCard_NonEx,-0.303703704,-0.050925926,1,0,0,1.313,optionLeft,55,5325,3,9,0,9,0,1,,,,,,,,,,,,,,,,,,,,,,,,,,,,,,,,,,,,,,,
,,,,,,,,2023-08-06_08h34.30.513,HF_wild_card,2022.2.4,MacIntel,60.0240096,5d1f0e319eeb4b001689b623,64ce5acb97489d65b14ecc7a,64cf49528ec1c8c7684fce4c,,,,,,,sngl,resources/DP.BMP,resources/Empty.png,WildCard_NonEx,-0.315740741,-0.056481481,1,0,0,0.516,optionLeft,45,5370,3,10,0,10,0,1,,,,,,,,,,,,,,,,,,,,,,,,,,,,,,,,,,,,,,,
,,,,,,,,2023-08-06_08h34.30.513,HF_wild_card,2022.2.4,MacIntel,60.0240096,5d1f0e319eeb4b001689b623,64ce5acb97489d65b14ecc7a,64cf49528ec1c8c7684fce4c,,,,,,,decisionTrl,resources/DG.BMP,resources/DBN.BMP,Door3,0.259259259,-0.038888889,1,0,0,0.781,optionRight,70,5440,3,11,0,11,0,1,,,,,,,,,,,,,,,,,,,,,,,,,,,,,,,,,,,,,,,
,,,,,,,,2023-08-06_08h34.30.513,HF_wild_card,2022.2.4,MacIntel,60.0240096,5d1f0e319eeb4b001689b623,64ce5acb97489d65b14ecc7a,64cf49528ec1c8c7684fce4c,,,,,,,decisionTrl,resources/DB.BMP,resources/DR.BMP,Door2,-0.298148148,-0.02962963,1,0,0,2.361,optionLeft,40,5480,3,12,0,12,0,1,,,,,,,,,,,,,,,,,,,,,,,,,,,,,,,,,,,,,,,
,,,,,,,,2023-08-06_08h34.30.513,HF_wild_card,2022.2.4,MacIntel,60.0240096,5d1f0e319eeb4b001689b623,64ce5acb97489d65b14ecc7a,64cf49528ec1c8c7684fce4c,,,,,,,decisionTrl,resources/DP.BMP,resources/DB.BMP,WildCard_NonEx,-0.349074074,-0.053703704,1,0,0,1.313,optionLeft,55,5535,3,13,0,13,0,1,,,,,,,,,,,,,,,,,,,,,,,,,,,,,,,,,,,,,,,
,,,,,,,,2023-08-06_08h34.30.513,HF_wild_card,2022.2.4,MacIntel,60.0240096,5d1f0e319eeb4b001689b623,64ce5acb97489d65b14ecc7a,64cf49528ec1c8c7684fce4c,,,,,,,sngl,resources/DG.BMP,resources/Empty.png,Door4,-0.394444444,-0.078703704,1,0,0,0.57,optionLeft,80,5615,3,14,0,14,0,1,,,,,,,,,,,,,,,,,,,,,,,,,,,,,,,,,,,,,,,
,,,,,,,,2023-08-06_08h34.30.513,HF_wild_card,2022.2.4,MacIntel,60.0240096,5d1f0e319eeb4b001689b623,64ce5acb97489d65b14ecc7a,64cf49528ec1c8c7684fce4c,,,,,,,ctch,resources/DB.BMP,resources/DBN.BMP,Door3,0.262037037,-0.003703704,1,0,0,1.13,optionRight,70,5685,3,15,0,15,0,1,,,,,,,,,,,,,,,,,,,,,,,,,,,,,,,,,,,,,,,
,,,,,,,,2023-08-06_08h34.30.513,HF_wild_card,2022.2.4,MacIntel,60.0240096,5d1f0e319eeb4b001689b623,64ce5acb97489d65b14ecc7a,64cf49528ec1c8c7684fce4c,,,,,,,decisionTrl,resources/DBN.BMP,resources/DG.BMP,Door4,0.359259259,-0.087037037,1,0,0,3.027,optionRight,60,5745,3,16,0,16,0,1,,,,,,,,,,,,,,,,,,,,,,,,,,,,,,,,,,,,,,,
,,,,,,,,2023-08-06_08h34.30.513,HF_wild_card,2022.2.4,MacIntel,60.0240096,5d1f0e319eeb4b001689b623,64ce5acb97489d65b14ecc7a,64cf49528ec1c8c7684fce4c,,,,,,,decisionTrl,resources/DR.BMP,resources/DP.BMP,WildCard_NonEx,0.297222222,-0.090740741,1,0,0,2.015,optionRight,55,5800,3,17,0,17,0,1,,,,,,,,,,,,,,,,,,,,,,,,,,,,,,,,,,,,,,,
,,,,,,,,2023-08-06_08h34.30.513,HF_wild_card,2022.2.4,MacIntel,60.0240096,5d1f0e319eeb4b001689b623,64ce5acb97489d65b14ecc7a,64cf49528ec1c8c7684fce4c,,,,,,,decisionTrl,resources/DR.BMP,resources/DB.BMP,Door1,-0.193518519,-0.089814815,1,0,0,2.795,optionLeft,30,5830,3,18,0,18,0,1,,,,,,,,,,,,,,,,,,,,,,,,,,,,,,,,,,,,,,,
,,,,,,,,2023-08-06_08h34.30.513,HF_wild_card,2022.2.4,MacIntel,60.0240096,5d1f0e319eeb4b001689b623,64ce5acb97489d65b14ecc7a,64cf49528ec1c8c7684fce4c,,,,,,,decisionTrl,resources/DP.BMP,resources/DBN.BMP,Door3,0.325,-0.001851852,1,0,0,1.014,optionRight,70,5900,3,19,0,19,0,1,,,,,,,,,,,,,,,,,,,,,,,,,,,,,,,,,,,,,,,
,,,,,,,,2023-08-06_08h34.30.513,HF_wild_card,2022.2.4,MacIntel,60.0240096,5d1f0e319eeb4b001689b623,64ce5acb97489d65b14ecc7a,64cf49528ec1c8c7684fce4c,,,,,,,sngl,resources/Empty.png,resources/DR.BMP,Door1,0.456481481,-0.012037037,1,0,0,0.681,optionRight,30,5930,3,20,0,20,0,1,,,,,,,,,,,,,,,,,,,,,,,,,,,,,,,,,,,,,,,
,,,,,,,,2023-08-06_08h34.30.513,HF_wild_card,2022.2.4,MacIntel,60.0240096,5d1f0e319eeb4b001689b623,64ce5acb97489d65b14ecc7a,64cf49528ec1c8c7684fce4c,,,,,,,ctch,resources/DBN.BMP,resources/DB.BMP,Door3,-0.237962963,-0.037037037,1,0,0,0.794,optionLeft,70,6000,3,21,0,21,0,1,,,,,,,,,,,,,,,,,,,,,,,,,,,,,,,,,,,,,,,
,,,,,,,,2023-08-06_08h34.30.513,HF_wild_card,2022.2.4,MacIntel,60.0240096,5d1f0e319eeb4b001689b623,64ce5acb97489d65b14ecc7a,64cf49528ec1c8c7684fce4c,,,,,,,sngl,resources/DBN.BMP,resources/Empty.png,Door3,-0.271296296,-0.05462963,1,0,0,0.58,optionLeft,70,6070,3,22,0,22,0,1,,,,,,,,,,,,,,,,,,,,,,,,,,,,,,,,,,,,,,,
,,,,,,,,2023-08-06_08h34.30.513,HF_wild_card,2022.2.4,MacIntel,60.0240096,5d1f0e319eeb4b001689b623,64ce5acb97489d65b14ecc7a,64cf49528ec1c8c7684fce4c,,,,,,,decisionTrl,resources/DR.BMP,resources/DB.BMP,Door1,-0.186111111,-0.037962963,1,0,0,1.811,optionLeft,30,6100,3,23,0,23,0,1,,,,,,,,,,,,,,,,,,,,,,,,,,,,,,,,,,,,,,,
,,,,,,,,2023-08-06_08h34.30.513,HF_wild_card,2022.2.4,MacIntel,60.0240096,5d1f0e319eeb4b001689b623,64ce5acb97489d65b14ecc7a,64cf49528ec1c8c7684fce4c,,,,,,,ctch,resources/DR.BMP,resources/DG.BMP,Door4,0.314814815,-0.053703704,1,0,0,1.22,optionRight,60,6160,3,24,0,24,0,1,,,,,,,,,,,,,,,,,,,,,,,,,,,,,,,,,,,,,,,
,,,,,,,,2023-08-06_08h34.30.513,HF_wild_card,2022.2.4,MacIntel,60.0240096,5d1f0e319eeb4b001689b623,64ce5acb97489d65b14ecc7a,64cf49528ec1c8c7684fce4c,,,,,,,decisionTrl,resources/DG.BMP,resources/DBN.BMP,Door3,0.352777778,-0.036111111,1,0,0,0.763,optionRight,70,6230,3,25,0,25,0,1,,,,,,,,,,,,,,,,,,,,,,,,,,,,,,,,,,,,,,,
,,,,,,,,2023-08-06_08h34.30.513,HF_wild_card,2022.2.4,MacIntel,60.0240096,5d1f0e319eeb4b001689b623,64ce5acb97489d65b14ecc7a,64cf49528ec1c8c7684fce4c,,,,,,,decisionTrl,resources/DBN.BMP,resources/DG.BMP,Door3,-0.360185185,-0.109259259,1,0,0,1.295,optionLeft,70,6300,3,26,0,26,0,1,,,,,,,,,,,,,,,,,,,,,,,,,,,,,,,,,,,,,,,
,,,,,,,,2023-08-06_08h34.30.513,HF_wild_card,2022.2.4,MacIntel,60.0240096,5d1f0e319eeb4b001689b623,64ce5acb97489d65b14ecc7a,64cf49528ec1c8c7684fce4c,,,,,,,decisionTrl,resources/DB.BMP,resources/DP.BMP,WildCard_NonEx,0.171296296,-0.102777778,1,0,0,1.993,optionRight,55,6355,3,27,0,27,0,1,,,,,,,,,,,,,,,,,,,,,,,,,,,,,,,,,,,,,,,
,,,,,,,,2023-08-06_08h34.30.513,HF_wild_card,2022.2.4,MacIntel,60.0240096,5d1f0e319eeb4b001689b623,64ce5acb97489d65b14ecc7a,64cf49528ec1c8c7684fce4c,,,,,,,decisionTrl,resources/DR.BMP,resources/DB.BMP,Door2,0.430555556,-0.059259259,1,0,0,3.479,optionRight,40,6395,3,28,0,28,0,1,,,,,,,,,,,,,,,,,,,,,,,,,,,,,,,,,,,,,,,
,,,,,,,,2023-08-06_08h34.30.513,HF_wild_card,2022.2.4,MacIntel,60.0240096,5d1f0e319eeb4b001689b623,64ce5acb97489d65b14ecc7a,64cf49528ec1c8c7684fce4c,,,,,,,decisionTrl,resources/DG.BMP,resources/DBN.BMP,Door3,0.339814815,-0.073148148,1,0,0,1.148,optionRight,70,6465,3,29,0,29,0,1,,,,,,,,,,,,,,,,,,,,,,,,,,,,,,,,,,,,,,,
,,,,,,,,2023-08-06_08h34.30.513,HF_wild_card,2022.2.4,MacIntel,60.0240096,5d1f0e319eeb4b001689b623,64ce5acb97489d65b14ecc7a,64cf49528ec1c8c7684fce4c,,,,,,,decisionTrl,resources/DG.BMP,resources/DBN.BMP,Door3,0.257407407,-0.053703704,1,0,0,0.965,optionRight,70,6535,3,30,0,30,0,1,,,,,,,,,,,,,,,,,,,,,,,,,,,,,,,,,,,,,,,
,,,,,,,,2023-08-06_08h34.30.513,HF_wild_card,2022.2.4,MacIntel,60.0240096,5d1f0e319eeb4b001689b623,64ce5acb97489d65b14ecc7a,64cf49528ec1c8c7684fce4c,,,,,,,sngl,resources/Empty.png,resources/DB.BMP,Door2,0.262037037,-0.091666667,1,0,0,1.296,optionRight,20,6555,3,31,0,31,0,1,,,,,,,,,,,,,,,,,,,,,,,,,,,,,,,,,,,,,,,
,,,,,,,,2023-08-06_08h34.30.513,HF_wild_card,2022.2.4,MacIntel,60.0240096,5d1f0e319eeb4b001689b623,64ce5acb97489d65b14ecc7a,64cf49528ec1c8c7684fce4c,,,,,,,decisionTrl,resources/DG.BMP,resources/DP.BMP,Door4,-0.183333333,-0.156481481,1,0,0,1.514,optionLeft,60,6615,3,32,0,32,0,1,,,,,,,,,,,,,,,,,,,,,,,,,,,,,,,,,,,,,,,
,,,,,,,,2023-08-06_08h34.30.513,HF_wild_card,2022.2.4,MacIntel,60.0240096,5d1f0e319eeb4b001689b623,64ce5acb97489d65b14ecc7a,64cf49528ec1c8c7684fce4c,,,,,,,decisionTrl,resources/DBN.BMP,resources/DG.BMP,Door3,-0.206481481,-0.162037037,1,0,0,1.197,optionLeft,70,6685,3,33,0,33,0,1,,,,,,,,,,,,,,,,,,,,,,,,,,,,,,,,,,,,,,,
,,,,,,,,2023-08-06_08h34.30.513,HF_wild_card,2022.2.4,MacIntel,60.0240096,5d1f0e319eeb4b001689b623,64ce5acb97489d65b14ecc7a,64cf49528ec1c8c7684fce4c,,,,,,,sngl,resources/DR.BMP,resources/Empty.png,Door1,-0.181481481,-0.141666667,1,0,0,0.779,optionLeft,30,6715,3,34,0,34,0,1,,,,,,,,,,,,,,,,,,,,,,,,,,,,,,,,,,,,,,,
,,,,,,,,2023-08-06_08h34.30.513,HF_wild_card,2022.2.4,MacIntel,60.0240096,5d1f0e319eeb4b001689b623,64ce5acb97489d65b14ecc7a,64cf49528ec1c8c7684fce4c,,,,,,,decisionTrl,resources/DB.BMP,resources/DR.BMP,Door1,0.198148148,-0.141666667,1,0,0,1.961,optionRight,30,6745,3,35,0,35,0,1,,,,,,,,,,,,,,,,,,,,,,,,,,,,,,,,,,,,,,,
,,,,,,,,2023-08-06_08h34.30.513,HF_wild_card,2022.2.4,MacIntel,60.0240096,5d1f0e319eeb4b001689b623,64ce5acb97489d65b14ecc7a,64cf49528ec1c8c7684fce4c,,,,,,,decisionTrl,resources/DBN.BMP,resources/DG.BMP,Door3,-0.288888889,-0.098148148,1,0,0,0.962,optionLeft,70,6815,3,36,0,36,0,1,,,,,,,,,,,,,,,,,,,,,,,,,,,,,,,,,,,,,,,
,,,,,,,,2023-08-06_08h34.30.513,HF_wild_card,2022.2.4,MacIntel,60.0240096,5d1f0e319eeb4b001689b623,64ce5acb97489d65b14ecc7a,64cf49528ec1c8c7684fce4c,,,,,,,decisionTrl,resources/DB.BMP,resources/DR.BMP,Door2,-0.273148148,-0.084259259,1,0,0,2.997,optionLeft,20,6835,3,37,0,37,0,1,,,,,,,,,,,,,,,,,,,,,,,,,,,,,,,,,,,,,,,
,,,,,,,,2023-08-06_08h34.30.513,HF_wild_card,2022.2.4,MacIntel,60.0240096,5d1f0e319eeb4b001689b623,64ce5acb97489d65b14ecc7a,64cf49528ec1c8c7684fce4c,,,,,,,sngl,resources/Empty.png,resources/DBN.BMP,Door3,0.337037037,-0.037962963,1,0,0,0.562,optionRight,70,6905,3,38,0,38,0,1,,,,,,,,,,,,,,,,,,,,,,,,,,,,,,,,,,,,,,,
,,,,,,,,2023-08-06_08h34.30.513,HF_wild_card,2022.2.4,MacIntel,60.0240096,5d1f0e319eeb4b001689b623,64ce5acb97489d65b14ecc7a,64cf49528ec1c8c7684fce4c,,,,,,,sngl,resources/Empty.png,resources/DG.BMP,Door4,0.324074074,-0.064814815,1,0,0,0.629,optionRight,60,6965,3,39,0,39,0,1,,,,,,,,,,,,,,,,,,,,,,,,,,,,,,,,,,,,,,,
,,,,,,,,2023-08-06_08h34.30.513,HF_wild_card,2022.2.4,MacIntel,60.0240096,5d1f0e319eeb4b001689b623,64ce5acb97489d65b14ecc7a,64cf49528ec1c8c7684fce4c,,,,,,,ctch,resources/DR.BMP,resources/DG.BMP,Door4,0.411111111,-0.087037037,1,0,0,1.262,optionRight,60,7025,3,40,0,40,0,1,,,,,,,,,,,,,,,,,,,,,,,,,,,,,,,,,,,,,,,
,,,,,,,,2023-08-06_08h34.30.513,HF_wild_card,2022.2.4,MacIntel,60.0240096,5d1f0e319eeb4b001689b623,64ce5acb97489d65b14ecc7a,64cf49528ec1c8c7684fce4c,,,,,,,sngl,resources/Empty.png,resources/DP.BMP,WildCard_NonEx,0.263888889,-0.051851852,1,0,0,0.68,optionRight,45,7070,3,41,0,41,0,1,,,,,,,,,,,,,,,,,,,,,,,,,,,,,,,,,,,,,,,
,,,,,,,,2023-08-06_08h34.30.513,HF_wild_card,2022.2.4,MacIntel,60.0240096,5d1f0e319eeb4b001689b623,64ce5acb97489d65b14ecc7a,64cf49528ec1c8c7684fce4c,,,,,,,ctch,resources/DG.BMP,resources/DR.BMP,Door4,-0.25,-0.077777778,1,0,0,1.995,optionLeft,60,7130,3,42,0,42,0,1,,,,,,,,,,,,,,,,,,,,,,,,,,,,,,,,,,,,,,,
,,,,,,,,2023-08-06_08h34.30.513,HF_wild_card,2022.2.4,MacIntel,60.0240096,5d1f0e319eeb4b001689b623,64ce5acb97489d65b14ecc7a,64cf49528ec1c8c7684fce4c,,,,,,,sngl,resources/Empty.png,resources/DP.BMP,WildCard_NonEx,0.331481481,-0.1,1,0,0,2.497,optionRight,55,7185,3,43,0,43,0,1,,,,,,,,,,,,,,,,,,,,,,,,,,,,,,,,,,,,,,,
,,,,,,,,2023-08-06_08h34.30.513,HF_wild_card,2022.2.4,MacIntel,60.0240096,5d1f0e319eeb4b001689b623,64ce5acb97489d65b14ecc7a,64cf49528ec1c8c7684fce4c,,,,,,,,,,,,,,,,,,,,,,,,,,2,0,2,0,1,,,,,,,,,,,,,,,,,,,,,,,,,,,,,,,,,,
,,,,,,,,2023-08-06_08h34.30.513,HF_wild_card,2022.2.4,MacIntel,60.0240096,5d1f0e319eeb4b001689b623,64ce5acb97489d65b14ecc7a,64cf49528ec1c8c7684fce4c,,,,,,,decisionTrl,resources/DR.BMP,resources/DB.BMP,Door1,-0.249074074,-0.102777778,1,0,0,1.312,optionLeft,30,7215,4,0,0,0,0,1,,,,,,,,,,,,,,,,,,,,,,,,,,,,,,,,,,,,,,,
,,,,,,,,2023-08-06_08h34.30.513,HF_wild_card,2022.2.4,MacIntel,60.0240096,5d1f0e319eeb4b001689b623,64ce5acb97489d65b14ecc7a,64cf49528ec1c8c7684fce4c,,,,,,,decisionTrl,resources/DBN.BMP,resources/DG.BMP,Door3,-0.318518519,-0.049074074,1,0,0,1.212,optionLeft,70,7285,4,1,0,1,0,1,,,,,,,,,,,,,,,,,,,,,,,,,,,,,,,,,,,,,,,
,,,,,,,,2023-08-06_08h34.30.513,HF_wild_card,2022.2.4,MacIntel,60.0240096,5d1f0e319eeb4b001689b623,64ce5acb97489d65b14ecc7a,64cf49528ec1c8c7684fce4c,,,,,,,sngl,resources/DG.BMP,resources/Empty.png,Door4,-0.339814815,-0.034259259,1,0,0,0.578,optionLeft,60,7345,4,2,0,2,0,1,,,,,,,,,,,,,,,,,,,,,,,,,,,,,,,,,,,,,,,
,,,,,,,,2023-08-06_08h34.30.513,HF_wild_card,2022.2.4,MacIntel,60.0240096,5d1f0e319eeb4b001689b623,64ce5acb97489d65b14ecc7a,64cf49528ec1c8c7684fce4c,,,,,,,sngl,resources/DY.BMP,resources/Empty.png,WildCard_Ex,-0.313888889,-0.07037037,1,0,0,0.878,optionLeft,95,7440,4,3,0,3,0,1,,,,,,,,,,,,,,,,,,,,,,,,,,,,,,,,,,,,,,,
,,,,,,,,2023-08-06_08h34.30.513,HF_wild_card,2022.2.4,MacIntel,60.0240096,5d1f0e319eeb4b001689b623,64ce5acb97489d65b14ecc7a,64cf49528ec1c8c7684fce4c,,,,,,,sngl,resources/Empty.png,resources/DBN.BMP,Door3,0.318518519,-0.042592593,1,0,0,0.58,optionRight,70,7510,4,4,0,4,0,1,,,,,,,,,,,,,,,,,,,,,,,,,,,,,,,,,,,,,,,
,,,,,,,,2023-08-06_08h34.30.513,HF_wild_card,2022.2.4,MacIntel,60.0240096,5d1f0e319eeb4b001689b623,64ce5acb97489d65b14ecc7a,64cf49528ec1c8c7684fce4c,,,,,,,ctch,resources/DB.BMP,resources/DBN.BMP,Door3,0.314814815,-0.068518519,1,0,0,0.865,optionRight,70,7580,4,5,0,5,0,1,,,,,,,,,,,,,,,,,,,,,,,,,,,,,,,,,,,,,,,
,,,,,,,,2023-08-06_08h34.30.513,HF_wild_card,2022.2.4,MacIntel,60.0240096,5d1f0e319eeb4b001689b623,64ce5acb97489d65b14ecc7a,64cf49528ec1c8c7684fce4c,,,,,,,sngl,resources/Empty.png,resources/DB.BMP,Door2,0.261111111,-0.039814815,1,0,0,0.746,optionRight,40,7620,4,6,0,6,0,1,,,,,,,,,,,,,,,,,,,,,,,,,,,,,,,,,,,,,,,
,,,,,,,,2023-08-06_08h34.30.513,HF_wild_card,2022.2.4,MacIntel,60.0240096,5d1f0e319eeb4b001689b623,64ce5acb97489d65b14ecc7a,64cf49528ec1c8c7684fce4c,,,,,,,sngl,resources/DR.BMP,resources/Empty.png,Door1,-0.212962963,-0.042592593,1,0,0,0.996,optionLeft,30,7650,4,7,0,7,0,1,,,,,,,,,,,,,,,,,,,,,,,,,,,,,,,,,,,,,,,
,,,,,,,,2023-08-06_08h34.30.513,HF_wild_card,2022.2.4,MacIntel,60.0240096,5d1f0e319eeb4b001689b623,64ce5acb97489d65b14ecc7a,64cf49528ec1c8c7684fce4c,,,,,,,decisionTrl,resources/DG.BMP,resources/DBN.BMP,Door3,0.237037037,-0.05,1,0,0,1.497,optionRight,70,7720,4,8,0,8,0,1,,,,,,,,,,,,,,,,,,,,,,,,,,,,,,,,,,,,,,,
,,,,,,,,2023-08-06_08h34.30.513,HF_wild_card,2022.2.4,MacIntel,60.0240096,5d1f0e319eeb4b001689b623,64ce5acb97489d65b14ecc7a,64cf49528ec1c8c7684fce4c,,,,,,,sngl,resources/DY.BMP,resources/Empty.png,WildCard_Ex,-0.278703704,-0.043518519,1,0,0,0.831,optionLeft,5,7725,4,9,0,9,0,1,,,,,,,,,,,,,,,,,,,,,,,,,,,,,,,,,,,,,,,
,,,,,,,,2023-08-06_08h34.30.513,HF_wild_card,2022.2.4,MacIntel,60.0240096,5d1f0e319eeb4b001689b623,64ce5acb97489d65b14ecc7a,64cf49528ec1c8c7684fce4c,,,,,,,decisionTrl,resources/DR.BMP,resources/DB.BMP,Door2,0.261111111,-0.067592593,1,0,0,3.665,optionRight,20,7745,4,10,0,10,0,1,,,,,,,,,,,,,,,,,,,,,,,,,,,,,,,,,,,,,,,
,,,,,,,,2023-08-06_08h34.30.513,HF_wild_card,2022.2.4,MacIntel,60.0240096,5d1f0e319eeb4b001689b623,64ce5acb97489d65b14ecc7a,64cf49528ec1c8c7684fce4c,,,,,,,decisionTrl,resources/DY.BMP,resources/DBN.BMP,WildCard_Ex,-0.3,-0.099074074,1,0,0,1.863,optionLeft,95,7840,4,11,0,11,0,1,,,,,,,,,,,,,,,,,,,,,,,,,,,,,,,,,,,,,,,
,,,,,,,,2023-08-06_08h34.30.513,HF_wild_card,2022.2.4,MacIntel,60.0240096,5d1f0e319eeb4b001689b623,64ce5acb97489d65b14ecc7a,64cf49528ec1c8c7684fce4c,,,,,,,decisionTrl,resources/DB.BMP,resources/DR.BMP,Door1,0.259259259,-0.02962963,1,0,0,5.446,optionRight,30,7870,4,12,0,12,0,1,,,,,,,,,,,,,,,,,,,,,,,,,,,,,,,,,,,,,,,
,,,,,,,,2023-08-06_08h34.30.513,HF_wild_card,2022.2.4,MacIntel,60.0240096,5d1f0e319eeb4b001689b623,64ce5acb97489d65b14ecc7a,64cf49528ec1c8c7684fce4c,,,,,,,sngl,resources/Empty.png,resources/DG.BMP,Door4,0.301851852,-0.00462963,1,0,0,0.564,optionRight,80,7950,4,13,0,13,0,1,,,,,,,,,,,,,,,,,,,,,,,,,,,,,,,,,,,,,,,
,,,,,,,,2023-08-06_08h34.30.513,HF_wild_card,2022.2.4,MacIntel,60.0240096,5d1f0e319eeb4b001689b623,64ce5acb97489d65b14ecc7a,64cf49528ec1c8c7684fce4c,,,,,,,decisionTrl,resources/DB.BMP,resources/DR.BMP,Door1,0.300925926,-0.049074074,1,0,0,3.178,optionRight,30,7980,4,14,0,14,0,1,,,,,,,,,,,,,,,,,,,,,,,,,,,,,,,,,,,,,,,
,,,,,,,,2023-08-06_08h34.30.513,HF_wild_card,2022.2.4,MacIntel,60.0240096,5d1f0e319eeb4b001689b623,64ce5acb97489d65b14ecc7a,64cf49528ec1c8c7684fce4c,,,,,,,decisionTrl,resources/DR.BMP,resources/DB.BMP,Door2,0.259259259,-0.065740741,1,0,0,2.096,optionRight,20,8000,4,15,0,15,0,1,,,,,,,,,,,,,,,,,,,,,,,,,,,,,,,,,,,,,,,
,,,,,,,,2023-08-06_08h34.30.513,HF_wild_card,2022.2.4,MacIntel,60.0240096,5d1f0e319eeb4b001689b623,64ce5acb97489d65b14ecc7a,64cf49528ec1c8c7684fce4c,,,,,,,ctch,resources/DG.BMP,resources/DR.BMP,Door4,-0.289814815,-0.093518519,1,0,0,1.411,optionLeft,60,8060,4,16,0,16,0,1,,,,,,,,,,,,,,,,,,,,,,,,,,,,,,,,,,,,,,,
,,,,,,,,2023-08-06_08h34.30.513,HF_wild_card,2022.2.4,MacIntel,60.0240096,5d1f0e319eeb4b001689b623,64ce5acb97489d65b14ecc7a,64cf49528ec1c8c7684fce4c,,,,,,,ctch,resources/DR.BMP,resources/DG.BMP,Door4,0.267592593,-0.057407407,1,0,0,2.265,optionRight,80,8140,4,17,0,17,0,1,,,,,,,,,,,,,,,,,,,,,,,,,,,,,,,,,,,,,,,
,,,,,,,,2023-08-06_08h34.30.513,HF_wild_card,2022.2.4,MacIntel,60.0240096,5d1f0e319eeb4b001689b623,64ce5acb97489d65b14ecc7a,64cf49528ec1c8c7684fce4c,,,,,,,sngl,resources/Empty.png,resources/DY.BMP,WildCard_Ex,0.234259259,-0.039814815,1,0,0,1.146,optionRight,95,8235,4,18,0,18,0,1,,,,,,,,,,,,,,,,,,,,,,,,,,,,,,,,,,,,,,,
,,,,,,,,2023-08-06_08h34.30.513,HF_wild_card,2022.2.4,MacIntel,60.0240096,5d1f0e319eeb4b001689b623,64ce5acb97489d65b14ecc7a,64cf49528ec1c8c7684fce4c,,,,,,,sngl,resources/DB.BMP,resources/Empty.png,Door2,-0.293518519,-0.065740741,1,0,0,1.166,optionLeft,20,8255,4,19,0,19,0,1,,,,,,,,,,,,,,,,,,,,,,,,,,,,,,,,,,,,,,,
,,,,,,,,2023-08-06_08h34.30.513,HF_wild_card,2022.2.4,MacIntel,60.0240096,5d1f0e319eeb4b001689b623,64ce5acb97489d65b14ecc7a,64cf49528ec1c8c7684fce4c,,,,,,,decisionTrl,resources/DG.BMP,resources/DBN.BMP,Door3,0.290740741,-0.038888889,1,0,0,1.168,optionRight,70,8325,4,20,0,20,0,1,,,,,,,,,,,,,,,,,,,,,,,,,,,,,,,,,,,,,,,
,,,,,,,,2023-08-06_08h34.30.513,HF_wild_card,2022.2.4,MacIntel,60.0240096,5d1f0e319eeb4b001689b623,64ce5acb97489d65b14ecc7a,64cf49528ec1c8c7684fce4c,,,,,,,decisionTrl,resources/DY.BMP,resources/DB.BMP,WildCard_Ex,-0.218518519,-0.088888889,1,0,0,1.345,optionLeft,5,8330,4,21,0,21,0,1,,,,,,,,,,,,,,,,,,,,,,,,,,,,,,,,,,,,,,,
,,,,,,,,2023-08-06_08h34.30.513,HF_wild_card,2022.2.4,MacIntel,60.0240096,5d1f0e319eeb4b001689b623,64ce5acb97489d65b14ecc7a,64cf49528ec1c8c7684fce4c,,,,,,,ctch,resources/DG.BMP,resources/DR.BMP,Door4,-0.224074074,-0.155555556,1,0,0,1.114,optionLeft,80,8410,4,22,0,22,0,1,,,,,,,,,,,,,,,,,,,,,,,,,,,,,,,,,,,,,,,
,,,,,,,,2023-08-06_08h34.30.513,HF_wild_card,2022.2.4,MacIntel,60.0240096,5d1f0e319eeb4b001689b623,64ce5acb97489d65b14ecc7a,64cf49528ec1c8c7684fce4c,,,,,,,ctch,resources/DBN.BMP,resources/DB.BMP,Door3,-0.237037037,-0.173148148,1,0,0,2.029,optionLeft,70,8480,4,23,0,23,0,1,,,,,,,,,,,,,,,,,,,,,,,,,,,,,,,,,,,,,,,
,,,,,,,,2023-08-06_08h34.30.513,HF_wild_card,2022.2.4,MacIntel,60.0240096,5d1f0e319eeb4b001689b623,64ce5acb97489d65b14ecc7a,64cf49528ec1c8c7684fce4c,,,,,,,decisionTrl,resources/DBN.BMP,resources/DG.BMP,Door3,-0.187962963,-0.118518519,1,0,0,0.815,optionLeft,70,8550,4,24,0,24,0,1,,,,,,,,,,,,,,,,,,,,,,,,,,,,,,,,,,,,,,,
,,,,,,,,2023-08-06_08h34.30.513,HF_wild_card,2022.2.4,MacIntel,60.0240096,5d1f0e319eeb4b001689b623,64ce5acb97489d65b14ecc7a,64cf49528ec1c8c7684fce4c,,,,,,,decisionTrl,resources/DBN.BMP,resources/DG.BMP,Door3,-0.292592593,-0.137962963,1,0,0,0.73,optionLeft,70,8620,4,25,0,25,0,1,,,,,,,,,,,,,,,,,,,,,,,,,,,,,,,,,,,,,,,
,,,,,,,,2023-08-06_08h34.30.513,HF_wild_card,2022.2.4,MacIntel,60.0240096,5d1f0e319eeb4b001689b623,64ce5acb97489d65b14ecc7a,64cf49528ec1c8c7684fce4c,,,,,,,sngl,resources/DBN.BMP,resources/Empty.png,Door3,-0.252777778,-0.133333333,1,0,0,0.645,optionLeft,70,8690,4,26,0,26,0,1,,,,,,,,,,,,,,,,,,,,,,,,,,,,,,,,,,,,,,,
,,,,,,,,2023-08-06_08h34.30.513,HF_wild_card,2022.2.4,MacIntel,60.0240096,5d1f0e319eeb4b001689b623,64ce5acb97489d65b14ecc7a,64cf49528ec1c8c7684fce4c,,,,,,,decisionTrl,resources/DY.BMP,resources/DR.BMP,WildCard_Ex,-0.19537037,-0.144444444,1,0,0,1.762,optionLeft,5,8695,4,27,0,27,0,1,,,,,,,,,,,,,,,,,,,,,,,,,,,,,,,,,,,,,,,
,,,,,,,,2023-08-06_08h34.30.513,HF_wild_card,2022.2.4,MacIntel,60.0240096,5d1f0e319eeb4b001689b623,64ce5acb97489d65b14ecc7a,64cf49528ec1c8c7684fce4c,,,,,,,decisionTrl,resources/DBN.BMP,resources/DG.BMP,Door3,-0.239814815,-0.175925926,1,0,0,0.662,optionLeft,70,8765,4,28,0,28,0,1,,,,,,,,,,,,,,,,,,,,,,,,,,,,,,,,,,,,,,,
,,,,,,,,2023-08-06_08h34.30.513,HF_wild_card,2022.2.4,MacIntel,60.0240096,5d1f0e319eeb4b001689b623,64ce5acb97489d65b14ecc7a,64cf49528ec1c8c7684fce4c,,,,,,,sngl,resources/Empty.png,resources/DY.BMP,WildCard_Ex,0.30462963,-0.096296296,1,0,0,0.612,optionRight,5,8770,4,29,0,29,0,1,,,,,,,,,,,,,,,,,,,,,,,,,,,,,,,,,,,,,,,
,,,,,,,,2023-08-06_08h34.30.513,HF_wild_card,2022.2.4,MacIntel,60.0240096,5d1f0e319eeb4b001689b623,64ce5acb97489d65b14ecc7a,64cf49528ec1c8c7684fce4c,,,,,,,decisionTrl,resources/DG.BMP,resources/DY.BMP,WildCard_Ex,0.261111111,-0.083333333,1,0,0,1.295,optionRight,5,8775,4,30,0,30,0,1,,,,,,,,,,,,,,,,,,,,,,,,,,,,,,,,,,,,,,,
,,,,,,,,2023-08-06_08h34.30.513,HF_wild_card,2022.2.4,MacIntel,60.0240096,5d1f0e319eeb4b001689b623,64ce5acb97489d65b14ecc7a,64cf49528ec1c8c7684fce4c,,,,,,,decisionTrl,resources/DG.BMP,resources/DBN.BMP,Door3,0.3,-0.048148148,1,0,0,0.698,optionRight,70,8845,4,31,0,31,0,1,,,,,,,,,,,,,,,,,,,,,,,,,,,,,,,,,,,,,,,
,,,,,,,,2023-08-06_08h34.30.513,HF_wild_card,2022.2.4,MacIntel,60.0240096,5d1f0e319eeb4b001689b623,64ce5acb97489d65b14ecc7a,64cf49528ec1c8c7684fce4c,,,,,,,decisionTrl,resources/DB.BMP,resources/DR.BMP,Door2,-0.262037037,-0.077777778,1,0,0,1.077,optionLeft,20,8865,4,32,0,32,0,1,,,,,,,,,,,,,,,,,,,,,,,,,,,,,,,,,,,,,,,
,,,,,,,,2023-08-06_08h34.30.513,HF_wild_card,2022.2.4,MacIntel,60.0240096,5d1f0e319eeb4b001689b623,64ce5acb97489d65b14ecc7a,64cf49528ec1c8c7684fce4c,,,,,,,ctch,resources/DBN.BMP,resources/DB.BMP,Door3,-0.348148148,-0.12037037,1,0,0,0.594,optionLeft,70,8935,4,33,0,33,0,1,,,,,,,,,,,,,,,,,,,,,,,,,,,,,,,,,,,,,,,
,,,,,,,,2023-08-06_08h34.30.513,HF_wild_card,2022.2.4,MacIntel,60.0240096,5d1f0e319eeb4b001689b623,64ce5acb97489d65b14ecc7a,64cf49528ec1c8c7684fce4c,,,,,,,ctch,resources/DR.BMP,resources/DG.BMP,Door4,0.412037037,-0.04537037,1,0,0,1.194,optionRight,60,8995,4,34,0,34,0,1,,,,,,,,,,,,,,,,,,,,,,,,,,,,,,,,,,,,,,,
,,,,,,,,2023-08-06_08h34.30.513,HF_wild_card,2022.2.4,MacIntel,60.0240096,5d1f0e319eeb4b001689b623,64ce5acb97489d65b14ecc7a,64cf49528ec1c8c7684fce4c,,,,,,,decisionTrl,resources/DR.BMP,resources/DY.BMP,WildCard_Ex,0.450925926,-0.046296296,1,0,0,2.146,optionRight,5,9000,4,35,0,35,0,1,,,,,,,,,,,,,,,,,,,,,,,,,,,,,,,,,,,,,,,
,,,,,,,,2023-08-06_08h34.30.513,HF_wild_card,2022.2.4,MacIntel,60.0240096,5d1f0e319eeb4b001689b623,64ce5acb97489d65b14ecc7a,64cf49528ec1c8c7684fce4c,,,,,,,ctch,resources/DB.BMP,resources/DBN.BMP,Door3,0.288888889,-0.026851852,1,0,0,0.712,optionRight,70,9070,4,36,0,36,0,1,,,,,,,,,,,,,,,,,,,,,,,,,,,,,,,,,,,,,,,
,,,,,,,,2023-08-06_08h34.30.513,HF_wild_card,2022.2.4,MacIntel,60.0240096,5d1f0e319eeb4b001689b623,64ce5acb97489d65b14ecc7a,64cf49528ec1c8c7684fce4c,,,,,,,decisionTrl,resources/DR.BMP,resources/DB.BMP,Door1,-0.198148148,-0.090740741,1,0,0,3.661,optionLeft,30,9100,4,37,0,37,0,1,,,,,,,,,,,,,,,,,,,,,,,,,,,,,,,,,,,,,,,
,,,,,,,,2023-08-06_08h34.30.513,HF_wild_card,2022.2.4,MacIntel,60.0240096,5d1f0e319eeb4b001689b623,64ce5acb97489d65b14ecc7a,64cf49528ec1c8c7684fce4c,,,,,,,decisionTrl,resources/DB.BMP,resources/DR.BMP,Door1,0.310185185,-0.05,1,0,0,2.247,optionRight,30,9130,4,38,0,38,0,1,,,,,,,,,,,,,,,,,,,,,,,,,,,,,,,,,,,,,,,
,,,,,,,,2023-08-06_08h34.30.513,HF_wild_card,2022.2.4,MacIntel,60.0240096,5d1f0e319eeb4b001689b623,64ce5acb97489d65b14ecc7a,64cf49528ec1c8c7684fce4c,,,,,,,decisionTrl,resources/DY.BMP,resources/DG.BMP,WildCard_Ex,-0.27037037,-0.05,1,0,0,1.981,optionLeft,5,9135,4,39,0,39,0,1,,,,,,,,,,,,,,,,,,,,,,,,,,,,,,,,,,,,,,,
,,,,,,,,2023-08-06_08h34.30.513,HF_wild_card,2022.2.4,MacIntel,60.0240096,5d1f0e319eeb4b001689b623,64ce5acb97489d65b14ecc7a,64cf49528ec1c8c7684fce4c,,,,,,,sngl,resources/Empty.png,resources/DR.BMP,Door1,0.222222222,-0.022222222,1,0,0,0.513,optionRight,30,9165,4,40,0,40,0,1,,,,,,,,,,,,,,,,,,,,,,,,,,,,,,,,,,,,,,,
,,,,,,,,2023-08-06_08h34.30.513,HF_wild_card,2022.2.4,MacIntel,60.0240096,5d1f0e319eeb4b001689b623,64ce5acb97489d65b14ecc7a,64cf49528ec1c8c7684fce4c,,,,,,,decisionTrl,resources/DB.BMP,resources/DY.BMP,WildCard_Ex,0.324074074,-0.025,1,0,0,1.414,optionRight,95,9260,4,41,0,41,0,1,,,,,,,,,,,,,,,,,,,,,,,,,,,,,,,,,,,,,,,
,,,,,,,,2023-08-06_08h34.30.513,HF_wild_card,2022.2.4,MacIntel,60.0240096,5d1f0e319eeb4b001689b623,64ce5acb97489d65b14ecc7a,64cf49528ec1c8c7684fce4c,,,,,,,decisionTrl,resources/DBN.BMP,resources/DY.BMP,WildCard_Ex,0.191666667,-0.017592593,1,0,0,1.196,optionRight,95,9355,4,42,0,42,0,1,,,,,,,,,,,,,,,,,,,,,,,,,,,,,,,,,,,,,,,
,,,,,,,,2023-08-06_08h34.30.513,HF_wild_card,2022.2.4,MacIntel,60.0240096,5d1f0e319eeb4b001689b623,64ce5acb97489d65b14ecc7a,64cf49528ec1c8c7684fce4c,,,,,,,decisionTrl,resources/DG.BMP,resources/DBN.BMP,Door3,0.242592593,-0.036111111,1,0,0,1.129,optionRight,70,9425,4,43,0,43,0,1,,,,,,,,,,,,,,,,,,,,,,,,,,,,,,,,,,,,,,,
,,,,,,,,2023-08-06_08h34.30.513,HF_wild_card,2022.2.4,MacIntel,60.0240096,5d1f0e319eeb4b001689b623,64ce5acb97489d65b14ecc7a,64cf49528ec1c8c7684fce4c,,,,,,,,,,,,,,,,,,,,,,,,,,3,0,3,0,1,,,,,,,,,,,,,,,,,,,,,,,,,,,,,,,,,,
,,,,,,,,2023-08-06_08h34.30.513,HF_wild_card,2022.2.4,MacIntel,60.0240096,5d1f0e319eeb4b001689b623,64ce5acb97489d65b14ecc7a,64cf49528ec1c8c7684fce4c,,,,,,,sngl,resources/DG.BMP,resources/Empty.png,Door4,-0.287037037,-0.065740741,1,0,0,0.759,optionLeft,80,9505,5,0,0,0,0,1,,,,,,,,,,,,,,,,,,,,,,,,,,,,,,,,,,,,,,,
,,,,,,,,2023-08-06_08h34.30.513,HF_wild_card,2022.2.4,MacIntel,60.0240096,5d1f0e319eeb4b001689b623,64ce5acb97489d65b14ecc7a,64cf49528ec1c8c7684fce4c,,,,,,,ctch,resources/DR.BMP,resources/DG.BMP,Door4,0.188888889,-0.037037037,1,0,0,1.645,optionRight,80,9585,5,1,0,1,0,1,,,,,,,,,,,,,,,,,,,,,,,,,,,,,,,,,,,,,,,
,,,,,,,,2023-08-06_08h34.30.513,HF_wild_card,2022.2.4,MacIntel,60.0240096,5d1f0e319eeb4b001689b623,64ce5acb97489d65b14ecc7a,64cf49528ec1c8c7684fce4c,,,,,,,sngl,resources/Empty.png,resources/DB.BMP,Door2,0.259259259,-0.043518519,1,0,0,0.528,optionRight,20,9605,5,2,0,2,0,1,,,,,,,,,,,,,,,,,,,,,,,,,,,,,,,,,,,,,,,
,,,,,,,,2023-08-06_08h34.30.513,HF_wild_card,2022.2.4,MacIntel,60.0240096,5d1f0e319eeb4b001689b623,64ce5acb97489d65b14ecc7a,64cf49528ec1c8c7684fce4c,,,,,,,decisionTrl,resources/DBN.BMP,resources/DG.BMP,Door3,-0.334259259,-0.053703704,1,0,0,0.646,optionLeft,70,9675,5,3,0,3,0,1,,,,,,,,,,,,,,,,,,,,,,,,,,,,,,,,,,,,,,,
,,,,,,,,2023-08-06_08h34.30.513,HF_wild_card,2022.2.4,MacIntel,60.0240096,5d1f0e319eeb4b001689b623,64ce5acb97489d65b14ecc7a,64cf49528ec1c8c7684fce4c,,,,,,,decisionTrl,resources/DR.BMP,resources/DB.BMP,Door1,-0.347222222,-0.049074074,1,0,0,1.062,optionLeft,30,9705,5,4,0,4,0,1,,,,,,,,,,,,,,,,,,,,,,,,,,,,,,,,,,,,,,,
,,,,,,,,2023-08-06_08h34.30.513,HF_wild_card,2022.2.4,MacIntel,60.0240096,5d1f0e319eeb4b001689b623,64ce5acb97489d65b14ecc7a,64cf49528ec1c8c7684fce4c,,,,,,,sngl,resources/DBN.BMP,resources/Empty.png,Door3,-0.516666667,-0.003703704,1,0,0,0.78,optionLeft,70,9775,5,5,0,5,0,1,,,,,,,,,,,,,,,,,,,,,,,,,,,,,,,,,,,,,,,
,,,,,,,,2023-08-06_08h34.30.513,HF_wild_card,2022.2.4,MacIntel,60.0240096,5d1f0e319eeb4b001689b623,64ce5acb97489d65b14ecc7a,64cf49528ec1c8c7684fce4c,,,,,,,ctch,resources/DB.BMP,resources/DBN.BMP,Door3,0.374074074,-0.05,1,0,0,0.599,optionRight,70,9845,5,6,0,6,0,1,,,,,,,,,,,,,,,,,,,,,,,,,,,,,,,,,,,,,,,
,,,,,,,,2023-08-06_08h34.30.513,HF_wild_card,2022.2.4,MacIntel,60.0240096,5d1f0e319eeb4b001689b623,64ce5acb97489d65b14ecc7a,64cf49528ec1c8c7684fce4c,,,,,,,decisionTrl,resources/DG.BMP,resources/DBN.BMP,Door3,0.496296296,-0.005555556,1,0,0,0.549,optionRight,70,9915,5,7,0,7,0,1,,,,,,,,,,,,,,,,,,,,,,,,,,,,,,,,,,,,,,,
,,,,,,,,2023-08-06_08h34.30.513,HF_wild_card,2022.2.4,MacIntel,60.0240096,5d1f0e319eeb4b001689b623,64ce5acb97489d65b14ecc7a,64cf49528ec1c8c7684fce4c,,,,,,,decisionTrl,resources/DR.BMP,resources/DB.BMP,Door1,-0.158333333,-0.05462963,1,0,0,1.313,optionLeft,30,9945,5,8,0,8,0,1,,,,,,,,,,,,,,,,,,,,,,,,,,,,,,,,,,,,,,,
,,,,,,,,2023-08-06_08h34.30.513,HF_wild_card,2022.2.4,MacIntel,60.0240096,5d1f0e319eeb4b001689b623,64ce5acb97489d65b14ecc7a,64cf49528ec1c8c7684fce4c,,,,,,,decisionTrl,resources/DBN.BMP,resources/DG.BMP,Door3,-0.222222222,-0.050925926,1,0,0,1.814,optionLeft,70,10015,5,9,0,9,0,1,,,,,,,,,,,,,,,,,,,,,,,,,,,,,,,,,,,,,,,
,,,,,,,,2023-08-06_08h34.30.513,HF_wild_card,2022.2.4,MacIntel,60.0240096,5d1f0e319eeb4b001689b623,64ce5acb97489d65b14ecc7a,64cf49528ec1c8c7684fce4c,,,,,,,decisionTrl,resources/DBN.BMP,resources/DY.BMP,Door3,-0.225,-0.083333333,1,0,0,1.526,optionLeft,70,10085,5,10,0,10,0,1,,,,,,,,,,,,,,,,,,,,,,,,,,,,,,,,,,,,,,,
,,,,,,,,2023-08-06_08h34.30.513,HF_wild_card,2022.2.4,MacIntel,60.0240096,5d1f0e319eeb4b001689b623,64ce5acb97489d65b14ecc7a,64cf49528ec1c8c7684fce4c,,,,,,,decisionTrl,resources/DBN.BMP,resources/DG.BMP,Door3,-0.207407407,-0.003703704,1,0,0,16.813,optionLeft,70,10155,5,11,0,11,0,1,,,,,,,,,,,,,,,,,,,,,,,,,,,,,,,,,,,,,,,
,,,,,,,,2023-08-06_08h34.30.513,HF_wild_card,2022.2.4,MacIntel,60.0240096,5d1f0e319eeb4b001689b623,64ce5acb97489d65b14ecc7a,64cf49528ec1c8c7684fce4c,,,,,,,decisionTrl,resources/DR.BMP,resources/DY.BMP,WildCard_Ex,0.459259259,-0.136111111,1,0,0,1.804,optionRight,95,10250,5,12,0,12,0,1,,,,,,,,,,,,,,,,,,,,,,,,,,,,,,,,,,,,,,,
,,,,,,,,2023-08-06_08h34.30.513,HF_wild_card,2022.2.4,MacIntel,60.0240096,5d1f0e319eeb4b001689b623,64ce5acb97489d65b14ecc7a,64cf49528ec1c8c7684fce4c,,,,,,,sngl,resources/DB.BMP,resources/Empty.png,Door2,-0.269444444,-0.014814815,1,0,0,0.545,optionLeft,40,10290,5,13,0,13,0,1,,,,,,,,,,,,,,,,,,,,,,,,,,,,,,,,,,,,,,,
,,,,,,,,2023-08-06_08h34.30.513,HF_wild_card,2022.2.4,MacIntel,60.0240096,5d1f0e319eeb4b001689b623,64ce5acb97489d65b14ecc7a,64cf49528ec1c8c7684fce4c,,,,,,,ctch,resources/DG.BMP,resources/DR.BMP,Door4,-0.257407407,0.000925926,1,0,0,1.062,optionLeft,80,10370,5,14,0,14,0,1,,,,,,,,,,,,,,,,,,,,,,,,,,,,,,,,,,,,,,,
,,,,,,,,2023-08-06_08h34.30.513,HF_wild_card,2022.2.4,MacIntel,60.0240096,5d1f0e319eeb4b001689b623,64ce5acb97489d65b14ecc7a,64cf49528ec1c8c7684fce4c,,,,,,,sngl,resources/DR.BMP,resources/Empty.png,Door1,-0.327777778,0.00462963,1,0,0,0.515,optionLeft,30,10400,5,15,0,15,0,1,,,,,,,,,,,,,,,,,,,,,,,,,,,,,,,,,,,,,,,
,,,,,,,,2023-08-06_08h34.30.513,HF_wild_card,2022.2.4,MacIntel,60.0240096,5d1f0e319eeb4b001689b623,64ce5acb97489d65b14ecc7a,64cf49528ec1c8c7684fce4c,,,,,,,sngl,resources/DY.BMP,resources/Empty.png,WildCard_Ex,-0.227777778,-0.093518519,1,0,0,0.78,optionLeft,5,10405,5,16,0,16,0,1,,,,,,,,,,,,,,,,,,,,,,,,,,,,,,,,,,,,,,,
,,,,,,,,2023-08-06_08h34.30.513,HF_wild_card,2022.2.4,MacIntel,60.0240096,5d1f0e319eeb4b001689b623,64ce5acb97489d65b14ecc7a,64cf49528ec1c8c7684fce4c,,,,,,,ctch,resources/DR.BMP,resources/DG.BMP,Door4,0.361111111,-0.088888889,1,0,0,1.079,optionRight,60,10465,5,17,0,17,0,1,,,,,,,,,,,,,,,,,,,,,,,,,,,,,,,,,,,,,,,
,,,,,,,,2023-08-06_08h34.30.513,HF_wild_card,2022.2.4,MacIntel,60.0240096,5d1f0e319eeb4b001689b623,64ce5acb97489d65b14ecc7a,64cf49528ec1c8c7684fce4c,,,,,,,decisionTrl,resources/DR.BMP,resources/DB.BMP,Door1,-0.283333333,0.028703704,1,0,0,1.164,optionLeft,30,10495,5,18,0,18,0,1,,,,,,,,,,,,,,,,,,,,,,,,,,,,,,,,,,,,,,,
,,,,,,,,2023-08-06_08h34.30.513,HF_wild_card,2022.2.4,MacIntel,60.0240096,5d1f0e319eeb4b001689b623,64ce5acb97489d65b14ecc7a,64cf49528ec1c8c7684fce4c,,,,,,,ctch,resources/DG.BMP,resources/DR.BMP,Door4,-0.346296296,-0.001851852,1,0,0,0.846,optionLeft,80,10575,5,19,0,19,0,1,,,,,,,,,,,,,,,,,,,,,,,,,,,,,,,,,,,,,,,
,,,,,,,,2023-08-06_08h34.30.513,HF_wild_card,2022.2.4,MacIntel,60.0240096,5d1f0e319eeb4b001689b623,64ce5acb97489d65b14ecc7a,64cf49528ec1c8c7684fce4c,,,,,,,decisionTrl,resources/DB.BMP,resources/DR.BMP,Door1,0.322222222,-0.139814815,1,0,0,1.596,optionRight,30,10605,5,20,0,20,0,1,,,,,,,,,,,,,,,,,,,,,,,,,,,,,,,,,,,,,,,
,,,,,,,,2023-08-06_08h34.30.513,HF_wild_card,2022.2.4,MacIntel,60.0240096,5d1f0e319eeb4b001689b623,64ce5acb97489d65b14ecc7a,64cf49528ec1c8c7684fce4c,,,,,,,decisionTrl,resources/DB.BMP,resources/DY.BMP,WildCard_Ex,0.40462963,-0.067592593,1,0,0,3.265,optionRight,5,10610,5,21,0,21,0,1,,,,,,,,,,,,,,,,,,,,,,,,,,,,,,,,,,,,,,,
,,,,,,,,2023-08-06_08h34.30.513,HF_wild_card,2022.2.4,MacIntel,60.0240096,5d1f0e319eeb4b001689b623,64ce5acb97489d65b14ecc7a,64cf49528ec1c8c7684fce4c,,,,,,,sngl,resources/DY.BMP,resources/Empty.png,WildCard_Ex,-0.237037037,-0.010185185,1,0,0,0.53,optionLeft,95,10705,5,22,0,22,0,1,,,,,,,,,,,,,,,,,,,,,,,,,,,,,,,,,,,,,,,
,,,,,,,,2023-08-06_08h34.30.513,HF_wild_card,2022.2.4,MacIntel,60.0240096,5d1f0e319eeb4b001689b623,64ce5acb97489d65b14ecc7a,64cf49528ec1c8c7684fce4c,,,,,,,sngl,resources/Empty.png,resources/DY.BMP,WildCard_Ex,0.361111111,-0.068518519,1,0,0,0.494,optionRight,5,10710,5,23,0,23,0,1,,,,,,,,,,,,,,,,,,,,,,,,,,,,,,,,,,,,,,,
,,,,,,,,2023-08-06_08h34.30.513,HF_wild_card,2022.2.4,MacIntel,60.0240096,5d1f0e319eeb4b001689b623,64ce5acb97489d65b14ecc7a,64cf49528ec1c8c7684fce4c,,,,,,,sngl,resources/Empty.png,resources/DR.BMP,Door1,0.344444444,-0.047222222,1,0,0,0.596,optionRight,30,10740,5,24,0,24,0,1,,,,,,,,,,,,,,,,,,,,,,,,,,,,,,,,,,,,,,,
,,,,,,,,2023-08-06_08h34.30.513,HF_wild_card,2022.2.4,MacIntel,60.0240096,5d1f0e319eeb4b001689b623,64ce5acb97489d65b14ecc7a,64cf49528ec1c8c7684fce4c,,,,,,,decisionTrl,resources/DR.BMP,resources/DB.BMP,Door2,0.439814815,-0.062037037,1,0,0,2.411,optionRight,40,10780,5,25,0,25,0,1,,,,,,,,,,,,,,,,,,,,,,,,,,,,,,,,,,,,,,,
,,,,,,,,2023-08-06_08h34.30.513,HF_wild_card,2022.2.4,MacIntel,60.0240096,5d1f0e319eeb4b001689b623,64ce5acb97489d65b14ecc7a,64cf49528ec1c8c7684fce4c,,,,,,,decisionTrl,resources/DB.BMP,resources/DR.BMP,Door2,-0.321296296,-0.052777778,1,0,0,1.829,optionLeft,20,10800,5,26,0,26,0,1,,,,,,,,,,,,,,,,,,,,,,,,,,,,,,,,,,,,,,,
,,,,,,,,2023-08-06_08h34.30.513,HF_wild_card,2022.2.4,MacIntel,60.0240096,5d1f0e319eeb4b001689b623,64ce5acb97489d65b14ecc7a,64cf49528ec1c8c7684fce4c,,,,,,,sngl,resources/Empty.png,resources/DBN.BMP,Door3,0.415740741,-0.023148148,1,0,0,0.479,optionRight,70,10870,5,27,0,27,0,1,,,,,,,,,,,,,,,,,,,,,,,,,,,,,,,,,,,,,,,
,,,,,,,,2023-08-06_08h34.30.513,HF_wild_card,2022.2.4,MacIntel,60.0240096,5d1f0e319eeb4b001689b623,64ce5acb97489d65b14ecc7a,64cf49528ec1c8c7684fce4c,,,,,,,decisionTrl,resources/DB.BMP,resources/DR.BMP,Door1,0.42037037,-0.058333333,1,0,0,2.148,optionRight,30,10900,5,28,0,28,0,1,,,,,,,,,,,,,,,,,,,,,,,,,,,,,,,,,,,,,,,
,,,,,,,,2023-08-06_08h34.30.513,HF_wild_card,2022.2.4,MacIntel,60.0240096,5d1f0e319eeb4b001689b623,64ce5acb97489d65b14ecc7a,64cf49528ec1c8c7684fce4c,,,,,,,decisionTrl,resources/DG.BMP,resources/DBN.BMP,Door3,0.346296296,-0.027777778,1,0,0,0.61,optionRight,70,10970,5,29,0,29,0,1,,,,,,,,,,,,,,,,,,,,,,,,,,,,,,,,,,,,,,,
,,,,,,,,2023-08-06_08h34.30.513,HF_wild_card,2022.2.4,MacIntel,60.0240096,5d1f0e319eeb4b001689b623,64ce5acb97489d65b14ecc7a,64cf49528ec1c8c7684fce4c,,,,,,,decisionTrl,resources/DY.BMP,resources/DBN.BMP,Door3,0.353703704,0.031481481,1,0,0,2.114,optionRight,70,11040,5,30,0,30,0,1,,,,,,,,,,,,,,,,,,,,,,,,,,,,,,,,,,,,,,,
,,,,,,,,2023-08-06_08h34.30.513,HF_wild_card,2022.2.4,MacIntel,60.0240096,5d1f0e319eeb4b001689b623,64ce5acb97489d65b14ecc7a,64cf49528ec1c8c7684fce4c,,,,,,,decisionTrl,resources/DY.BMP,resources/DR.BMP,WildCard_Ex,-0.342592593,-0.04537037,1,0,0,1.912,optionLeft,95,11135,5,31,0,31,0,1,,,,,,,,,,,,,,,,,,,,,,,,,,,,,,,,,,,,,,,
,,,,,,,,2023-08-06_08h34.30.513,HF_wild_card,2022.2.4,MacIntel,60.0240096,5d1f0e319eeb4b001689b623,64ce5acb97489d65b14ecc7a,64cf49528ec1c8c7684fce4c,,,,,,,sngl,resources/Empty.png,resources/DG.BMP,Door4,0.32037037,-0.042592593,1,0,0,0.567,optionRight,60,11195,5,32,0,32,0,1,,,,,,,,,,,,,,,,,,,,,,,,,,,,,,,,,,,,,,,
,,,,,,,,2023-08-06_08h34.30.513,HF_wild_card,2022.2.4,MacIntel,60.0240096,5d1f0e319eeb4b001689b623,64ce5acb97489d65b14ecc7a,64cf49528ec1c8c7684fce4c,,,,,,,decisionTrl,resources/DG.BMP,resources/DBN.BMP,Door3,0.360185185,0.000925926,1,0,0,0.898,optionRight,70,11265,5,33,0,33,0,1,,,,,,,,,,,,,,,,,,,,,,,,,,,,,,,,,,,,,,,
,,,,,,,,2023-08-06_08h34.30.513,HF_wild_card,2022.2.4,MacIntel,60.0240096,5d1f0e319eeb4b001689b623,64ce5acb97489d65b14ecc7a,64cf49528ec1c8c7684fce4c,,,,,,,decisionTrl,resources/DBN.BMP,resources/DG.BMP,Door3,-0.341666667,-0.017592593,1,0,0,0.795,optionLeft,70,11335,5,34,0,34,0,1,,,,,,,,,,,,,,,,,,,,,,,,,,,,,,,,,,,,,,,
,,,,,,,,2023-08-06_08h34.30.513,HF_wild_card,2022.2.4,MacIntel,60.0240096,5d1f0e319eeb4b001689b623,64ce5acb97489d65b14ecc7a,64cf49528ec1c8c7684fce4c,,,,,,,decisionTrl,resources/DG.BMP,resources/DY.BMP,WildCard_Ex,0.480555556,-0.105555556,1,0,0,1.63,optionRight,5,11340,5,35,0,35,0,1,,,,,,,,,,,,,,,,,,,,,,,,,,,,,,,,,,,,,,,
,,,,,,,,2023-08-06_08h34.30.513,HF_wild_card,2022.2.4,MacIntel,60.0240096,5d1f0e319eeb4b001689b623,64ce5acb97489d65b14ecc7a,64cf49528ec1c8c7684fce4c,,,,,,,decisionTrl,resources/DY.BMP,resources/DG.BMP,WildCard_Ex,-0.339814815,0.012037037,1,0,0,0.681,optionLeft,5,11345,5,36,0,36,0,1,,,,,,,,,,,,,,,,,,,,,,,,,,,,,,,,,,,,,,,
,,,,,,,,2023-08-06_08h34.30.513,HF_wild_card,2022.2.4,MacIntel,60.0240096,5d1f0e319eeb4b001689b623,64ce5acb97489d65b14ecc7a,64cf49528ec1c8c7684fce4c,,,,,,,decisionTrl,resources/DB.BMP,resources/DR.BMP,Door2,-0.293518519,-0.017592593,1,0,0,1.013,optionLeft,20,11365,5,37,0,37,0,1,,,,,,,,,,,,,,,,,,,,,,,,,,,,,,,,,,,,,,,
,,,,,,,,2023-08-06_08h34.30.513,HF_wild_card,2022.2.4,MacIntel,60.0240096,5d1f0e319eeb4b001689b623,64ce5acb97489d65b14ecc7a,64cf49528ec1c8c7684fce4c,,,,,,,ctch,resources/DBN.BMP,resources/DB.BMP,Door3,-0.214814815,-0.021296296,1,0,0,0.761,optionLeft,70,11435,5,38,0,38,0,1,,,,,,,,,,,,,,,,,,,,,,,,,,,,,,,,,,,,,,,
,,,,,,,,2023-08-06_08h34.30.513,HF_wild_card,2022.2.4,MacIntel,60.0240096,5d1f0e319eeb4b001689b623,64ce5acb97489d65b14ecc7a,64cf49528ec1c8c7684fce4c,,,,,,,sngl,resources/Empty.png,resources/DY.BMP,WildCard_Ex,0.268518519,-0.053703704,1,0,0,0.512,optionRight,95,11530,5,39,0,39,0,1,,,,,,,,,,,,,,,,,,,,,,,,,,,,,,,,,,,,,,,
,,,,,,,,2023-08-06_08h34.30.513,HF_wild_card,2022.2.4,MacIntel,60.0240096,5d1f0e319eeb4b001689b623,64ce5acb97489d65b14ecc7a,64cf49528ec1c8c7684fce4c,,,,,,,ctch,resources/DBN.BMP,resources/DB.BMP,Door3,-0.284259259,-0.039814815,1,0,0,0.595,optionLeft,70,11600,5,40,0,40,0,1,,,,,,,,,,,,,,,,,,,,,,,,,,,,,,,,,,,,,,,
,,,,,,,,2023-08-06_08h34.30.513,HF_wild_card,2022.2.4,MacIntel,60.0240096,5d1f0e319eeb4b001689b623,64ce5acb97489d65b14ecc7a,64cf49528ec1c8c7684fce4c,,,,,,,decisionTrl,resources/DY.BMP,resources/DB.BMP,WildCard_Ex,-0.272222222,-0.017592593,1,0,0,1.43,optionLeft,5,11605,5,41,0,41,0,1,,,,,,,,,,,,,,,,,,,,,,,,,,,,,,,,,,,,,,,
,,,,,,,,2023-08-06_08h34.30.513,HF_wild_card,2022.2.4,MacIntel,60.0240096,5d1f0e319eeb4b001689b623,64ce5acb97489d65b14ecc7a,64cf49528ec1c8c7684fce4c,,,,,,,decisionTrl,resources/DG.BMP,resources/DBN.BMP,Door3,0.405555556,-0.044444444,1,0,0,0.763,optionRight,70,11675,5,42,0,42,0,1,,,,,,,,,,,,,,,,,,,,,,,,,,,,,,,,,,,,,,,
,,,,,,,,2023-08-06_08h34.30.513,HF_wild_card,2022.2.4,MacIntel,60.0240096,5d1f0e319eeb4b001689b623,64ce5acb97489d65b14ecc7a,64cf49528ec1c8c7684fce4c,,,,,,,ctch,resources/DB.BMP,resources/DBN.BMP,Door3,0.415740741,-0.04537037,1,0,0,3.314,optionRight,70,11745,5,43,0,43,0,1,,,,,,,,,,,,,,,,,,,,,,,,,,,,,,,,,,,,,,,
,,,,,,,,2023-08-06_08h34.30.513,HF_wild_card,2022.2.4,MacIntel,60.0240096,5d1f0e319eeb4b001689b623,64ce5acb97489d65b14ecc7a,64cf49528ec1c8c7684fce4c,,,,,,,,,,,,,,,,,,,,,,,,,,4,0,4,0,1,,,,,,,,,,,,,,,,,,,,,,,,,,,,,,,,,,
,,,,,,,,2023-08-06_08h34.30.513,HF_wild_card,2022.2.4,MacIntel,60.0240096,5d1f0e319eeb4b001689b623,64ce5acb97489d65b14ecc7a,64cf49528ec1c8c7684fce4c,,,,,,,sngl,resources/Empty.png,resources/DB.BMP,Door2,0.401851852,-0.087962963,1,0,0,1.533,optionRight,40,11785,6,0,0,0,0,1,,,,,,,,,,,,,,,,,,,,,,,,,,,,,,,,,,,,,,,
,,,,,,,,2023-08-06_08h34.30.513,HF_wild_card,2022.2.4,MacIntel,60.0240096,5d1f0e319eeb4b001689b623,64ce5acb97489d65b14ecc7a,64cf49528ec1c8c7684fce4c,,,,,,,ctch,resources/DBN.BMP,resources/DB.BMP,Door3,-0.393518519,-0.013888889,1,0,0,0.544,optionLeft,70,11855,6,1,0,1,0,1,,,,,,,,,,,,,,,,,,,,,,,,,,,,,,,,,,,,,,,
,,,,,,,,2023-08-06_08h34.30.513,HF_wild_card,2022.2.4,MacIntel,60.0240096,5d1f0e319eeb4b001689b623,64ce5acb97489d65b14ecc7a,64cf49528ec1c8c7684fce4c,,,,,,,decisionTrl,resources/DG.BMP,resources/DBN.BMP,Door3,0.382407407,-0.044444444,1,0,0,0.515,optionRight,70,11925,6,2,0,2,0,1,,,,,,,,,,,,,,,,,,,,,,,,,,,,,,,,,,,,,,,
,,,,,,,,2023-08-06_08h34.30.513,HF_wild_card,2022.2.4,MacIntel,60.0240096,5d1f0e319eeb4b001689b623,64ce5acb97489d65b14ecc7a,64cf49528ec1c8c7684fce4c,,,,,,,decisionTrl,resources/DY.BMP,resources/DBN.BMP,Door3,0.282407407,-0.026851852,1,0,0,0.564,optionRight,70,11995,6,3,0,3,0,1,,,,,,,,,,,,,,,,,,,,,,,,,,,,,,,,,,,,,,,
,,,,,,,,2023-08-06_08h34.30.513,HF_wild_card,2022.2.4,MacIntel,60.0240096,5d1f0e319eeb4b001689b623,64ce5acb97489d65b14ecc7a,64cf49528ec1c8c7684fce4c,,,,,,,ctch,resources/DBN.BMP,resources/DB.BMP,Door3,-0.310185185,-0.010185185,1,0,0,0.531,optionLeft,70,12065,6,4,0,4,0,1,,,,,,,,,,,,,,,,,,,,,,,,,,,,,,,,,,,,,,,
,,,,,,,,2023-08-06_08h34.30.513,HF_wild_card,2022.2.4,MacIntel,60.0240096,5d1f0e319eeb4b001689b623,64ce5acb97489d65b14ecc7a,64cf49528ec1c8c7684fce4c,,,,,,,ctch,resources/DR.BMP,resources/DG.BMP,Door4,0.287962963,-0.047222222,1,0,0,0.828,optionRight,60,12125,6,5,0,5,0,1,,,,,,,,,,,,,,,,,,,,,,,,,,,,,,,,,,,,,,,
,,,,,,,,2023-08-06_08h34.30.513,HF_wild_card,2022.2.4,MacIntel,60.0240096,5d1f0e319eeb4b001689b623,64ce5acb97489d65b14ecc7a,64cf49528ec1c8c7684fce4c,,,,,,,ctch,resources/DG.BMP,resources/DR.BMP,Door4,-0.169444444,-0.018518519,1,0,0,0.596,optionLeft,60,12185,6,6,0,6,0,1,,,,,,,,,,,,,,,,,,,,,,,,,,,,,,,,,,,,,,,
,,,,,,,,2023-08-06_08h34.30.513,HF_wild_card,2022.2.4,MacIntel,60.0240096,5d1f0e319eeb4b001689b623,64ce5acb97489d65b14ecc7a,64cf49528ec1c8c7684fce4c,,,,,,,decisionTrl,resources/DR.BMP,resources/DB.BMP,Door1,-0.332407407,-0.049074074,1,0,0,1.063,optionLeft,30,12215,6,7,0,7,0,1,,,,,,,,,,,,,,,,,,,,,,,,,,,,,,,,,,,,,,,
,,,,,,,,2023-08-06_08h34.30.513,HF_wild_card,2022.2.4,MacIntel,60.0240096,5d1f0e319eeb4b001689b623,64ce5acb97489d65b14ecc7a,64cf49528ec1c8c7684fce4c,,,,,,,decisionTrl,resources/DB.BMP,resources/DR.BMP,Door1,0.249074074,-0.089814815,1,0,0,1.779,optionRight,30,12245,6,8,0,8,0,1,,,,,,,,,,,,,,,,,,,,,,,,,,,,,,,,,,,,,,,
,,,,,,,,2023-08-06_08h34.30.513,HF_wild_card,2022.2.4,MacIntel,60.0240096,5d1f0e319eeb4b001689b623,64ce5acb97489d65b14ecc7a,64cf49528ec1c8c7684fce4c,,,,,,,ctch,resources/DR.BMP,resources/DG.BMP,Door4,0.375925926,-0.075925926,1,0,0,0.862,optionRight,60,12305,6,9,0,9,0,1,,,,,,,,,,,,,,,,,,,,,,,,,,,,,,,,,,,,,,,
,,,,,,,,2023-08-06_08h34.30.513,HF_wild_card,2022.2.4,MacIntel,60.0240096,5d1f0e319eeb4b001689b623,64ce5acb97489d65b14ecc7a,64cf49528ec1c8c7684fce4c,,,,,,,decisionTrl,resources/DY.BMP,resources/DR.BMP,WildCard_Ex,-0.143518519,-0.017592593,1,0,0,2.096,optionLeft,5,12310,6,10,0,10,0,1,,,,,,,,,,,,,,,,,,,,,,,,,,,,,,,,,,,,,,,
,,,,,,,,2023-08-06_08h34.30.513,HF_wild_card,2022.2.4,MacIntel,60.0240096,5d1f0e319eeb4b001689b623,64ce5acb97489d65b14ecc7a,64cf49528ec1c8c7684fce4c,,,,,,,decisionTrl,resources/DG.BMP,resources/DBN.BMP,Door3,0.297222222,-0.051851852,1,0,0,0.545,optionRight,70,12380,6,11,0,11,0,1,,,,,,,,,,,,,,,,,,,,,,,,,,,,,,,,,,,,,,,
,,,,,,,,2023-08-06_08h34.30.513,HF_wild_card,2022.2.4,MacIntel,60.0240096,5d1f0e319eeb4b001689b623,64ce5acb97489d65b14ecc7a,64cf49528ec1c8c7684fce4c,,,,,,,decisionTrl,resources/DR.BMP,resources/DB.BMP,Door1,-0.209259259,-0.057407407,1,0,0,1.083,optionLeft,30,12410,6,12,0,12,0,1,,,,,,,,,,,,,,,,,,,,,,,,,,,,,,,,,,,,,,,
,,,,,,,,2023-08-06_08h34.30.513,HF_wild_card,2022.2.4,MacIntel,60.0240096,5d1f0e319eeb4b001689b623,64ce5acb97489d65b14ecc7a,64cf49528ec1c8c7684fce4c,,,,,,,sngl,resources/Empty.png,resources/DBN.BMP,Door3,0.352777778,-0.100925926,1,0,0,0.459,optionRight,70,12480,6,13,0,13,0,1,,,,,,,,,,,,,,,,,,,,,,,,,,,,,,,,,,,,,,,
,,,,,,,,2023-08-06_08h34.30.513,HF_wild_card,2022.2.4,MacIntel,60.0240096,5d1f0e319eeb4b001689b623,64ce5acb97489d65b14ecc7a,64cf49528ec1c8c7684fce4c,,,,,,,decisionTrl,resources/DG.BMP,resources/DBN.BMP,Door3,0.469444444,-0.061111111,1,0,0,0.679,optionRight,70,12550,6,14,0,14,0,1,,,,,,,,,,,,,,,,,,,,,,,,,,,,,,,,,,,,,,,
,,,,,,,,2023-08-06_08h34.30.513,HF_wild_card,2022.2.4,MacIntel,60.0240096,5d1f0e319eeb4b001689b623,64ce5acb97489d65b14ecc7a,64cf49528ec1c8c7684fce4c,,,,,,,decisionTrl,resources/DR.BMP,resources/DB.BMP,Door1,-0.313888889,-0.139814815,1,0,0,1.195,optionLeft,30,12580,6,15,0,15,0,1,,,,,,,,,,,,,,,,,,,,,,,,,,,,,,,,,,,,,,,
,,,,,,,,2023-08-06_08h34.30.513,HF_wild_card,2022.2.4,MacIntel,60.0240096,5d1f0e319eeb4b001689b623,64ce5acb97489d65b14ecc7a,64cf49528ec1c8c7684fce4c,,,,,,,decisionTrl,resources/DB.BMP,resources/DR.BMP,Door1,0.309259259,-0.148148148,1,0,0,1.412,optionRight,30,12610,6,16,0,16,0,1,,,,,,,,,,,,,,,,,,,,,,,,,,,,,,,,,,,,,,,
,,,,,,,,2023-08-06_08h34.30.513,HF_wild_card,2022.2.4,MacIntel,60.0240096,5d1f0e319eeb4b001689b623,64ce5acb97489d65b14ecc7a,64cf49528ec1c8c7684fce4c,,,,,,,sngl,resources/DG.BMP,resources/Empty.png,Door4,-0.283333333,-0.058333333,1,0,0,0.68,optionLeft,60,12670,6,17,0,17,0,1,,,,,,,,,,,,,,,,,,,,,,,,,,,,,,,,,,,,,,,
,,,,,,,,2023-08-06_08h34.30.513,HF_wild_card,2022.2.4,MacIntel,60.0240096,5d1f0e319eeb4b001689b623,64ce5acb97489d65b14ecc7a,64cf49528ec1c8c7684fce4c,,,,,,,sngl,resources/DBN.BMP,resources/Empty.png,Door3,-0.399074074,-0.02037037,1,0,0,0.478,optionLeft,70,12740,6,18,0,18,0,1,,,,,,,,,,,,,,,,,,,,,,,,,,,,,,,,,,,,,,,
,,,,,,,,2023-08-06_08h34.30.513,HF_wild_card,2022.2.4,MacIntel,60.0240096,5d1f0e319eeb4b001689b623,64ce5acb97489d65b14ecc7a,64cf49528ec1c8c7684fce4c,,,,,,,decisionTrl,resources/DBN.BMP,resources/DG.BMP,Door3,-0.332407407,-0.009259259,1,0,0,0.663,optionLeft,70,12810,6,19,0,19,0,1,,,,,,,,,,,,,,,,,,,,,,,,,,,,,,,,,,,,,,,
,,,,,,,,2023-08-06_08h34.30.513,HF_wild_card,2022.2.4,MacIntel,60.0240096,5d1f0e319eeb4b001689b623,64ce5acb97489d65b14ecc7a,64cf49528ec1c8c7684fce4c,,,,,,,sngl,resources/Empty.png,resources/DR.BMP,Door1,0.258333333,-0.05,1,0,0,0.463,optionRight,30,12840,6,20,0,20,0,1,,,,,,,,,,,,,,,,,,,,,,,,,,,,,,,,,,,,,,,
,,,,,,,,2023-08-06_08h34.30.513,HF_wild_card,2022.2.4,MacIntel,60.0240096,5d1f0e319eeb4b001689b623,64ce5acb97489d65b14ecc7a,64cf49528ec1c8c7684fce4c,,,,,,,decisionTrl,resources/DB.BMP,resources/DR.BMP,Door1,0.371296296,-0.038888889,1,0,0,0.746,optionRight,30,12870,6,21,0,21,0,1,,,,,,,,,,,,,,,,,,,,,,,,,,,,,,,,,,,,,,,
,,,,,,,,2023-08-06_08h34.30.513,HF_wild_card,2022.2.4,MacIntel,60.0240096,5d1f0e319eeb4b001689b623,64ce5acb97489d65b14ecc7a,64cf49528ec1c8c7684fce4c,,,,,,,sngl,resources/DY.BMP,resources/Empty.png,WildCard_Ex,-0.34537037,-0.046296296,1,0,0,0.464,optionLeft,95,12965,6,22,0,22,0,1,,,,,,,,,,,,,,,,,,,,,,,,,,,,,,,,,,,,,,,
,,,,,,,,2023-08-06_08h34.30.513,HF_wild_card,2022.2.4,MacIntel,60.0240096,5d1f0e319eeb4b001689b623,64ce5acb97489d65b14ecc7a,64cf49528ec1c8c7684fce4c,,,,,,,decisionTrl,resources/DB.BMP,resources/DY.BMP,WildCard_Ex,0.362962963,-0.04537037,1,0,0,0.598,optionRight,5,12970,6,23,0,23,0,1,,,,,,,,,,,,,,,,,,,,,,,,,,,,,,,,,,,,,,,
,,,,,,,,2023-08-06_08h34.30.513,HF_wild_card,2022.2.4,MacIntel,60.0240096,5d1f0e319eeb4b001689b623,64ce5acb97489d65b14ecc7a,64cf49528ec1c8c7684fce4c,,,,,,,sngl,resources/DB.BMP,resources/Empty.png,Door2,-0.274074074,0.001851852,1,0,0,0.431,optionLeft,20,12990,6,24,0,24,0,1,,,,,,,,,,,,,,,,,,,,,,,,,,,,,,,,,,,,,,,
,,,,,,,,2023-08-06_08h34.30.513,HF_wild_card,2022.2.4,MacIntel,60.0240096,5d1f0e319eeb4b001689b623,64ce5acb97489d65b14ecc7a,64cf49528ec1c8c7684fce4c,,,,,,,sngl,resources/Empty.png,resources/DY.BMP,WildCard_Ex,0.508333333,-0.05462963,1,0,0,0.51,optionRight,95,13085,6,25,0,25,0,1,,,,,,,,,,,,,,,,,,,,,,,,,,,,,,,,,,,,,,,
,,,,,,,,2023-08-06_08h34.30.513,HF_wild_card,2022.2.4,MacIntel,60.0240096,5d1f0e319eeb4b001689b623,64ce5acb97489d65b14ecc7a,64cf49528ec1c8c7684fce4c,,,,,,,decisionTrl,resources/DY.BMP,resources/DG.BMP,Door4,0.460185185,-0.121296296,1,0,0,1.049,optionRight,60,13145,6,26,0,26,0,1,,,,,,,,,,,,,,,,,,,,,,,,,,,,,,,,,,,,,,,
,,,,,,,,2023-08-06_08h34.30.513,HF_wild_card,2022.2.4,MacIntel,60.0240096,5d1f0e319eeb4b001689b623,64ce5acb97489d65b14ecc7a,64cf49528ec1c8c7684fce4c,,,,,,,decisionTrl,resources/DBN.BMP,resources/DG.BMP,Door3,-0.256481481,-0.025925926,1,0,0,0.704,optionLeft,70,13215,6,27,0,27,0,1,,,,,,,,,,,,,,,,,,,,,,,,,,,,,,,,,,,,,,,
,,,,,,,,2023-08-06_08h34.30.513,HF_wild_card,2022.2.4,MacIntel,60.0240096,5d1f0e319eeb4b001689b623,64ce5acb97489d65b14ecc7a,64cf49528ec1c8c7684fce4c,,,,,,,decisionTrl,resources/DBN.BMP,resources/DY.BMP,Door3,-0.343518519,-0.084259259,1,0,0,1.094,optionLeft,70,13285,6,28,0,28,0,1,,,,,,,,,,,,,,,,,,,,,,,,,,,,,,,,,,,,,,,
,,,,,,,,2023-08-06_08h34.30.513,HF_wild_card,2022.2.4,MacIntel,60.0240096,5d1f0e319eeb4b001689b623,64ce5acb97489d65b14ecc7a,64cf49528ec1c8c7684fce4c,,,,,,,sngl,resources/DY.BMP,resources/Empty.png,WildCard_Ex,-0.181481481,-0.097222222,1,0,0,0.66,optionLeft,5,13290,6,29,0,29,0,1,,,,,,,,,,,,,,,,,,,,,,,,,,,,,,,,,,,,,,,
,,,,,,,,2023-08-06_08h34.30.513,HF_wild_card,2022.2.4,MacIntel,60.0240096,5d1f0e319eeb4b001689b623,64ce5acb97489d65b14ecc7a,64cf49528ec1c8c7684fce4c,,,,,,,decisionTrl,resources/DY.BMP,resources/DB.BMP,WildCard_Ex,-0.378703704,-0.030555556,1,0,0,2.412,optionLeft,95,13385,6,30,0,30,0,1,,,,,,,,,,,,,,,,,,,,,,,,,,,,,,,,,,,,,,,
,,,,,,,,2023-08-06_08h34.30.513,HF_wild_card,2022.2.4,MacIntel,60.0240096,5d1f0e319eeb4b001689b623,64ce5acb97489d65b14ecc7a,64cf49528ec1c8c7684fce4c,,,,,,,decisionTrl,resources/DR.BMP,resources/DY.BMP,WildCard_Ex,0.3,-0.080555556,1,0,0,1.763,optionRight,95,13480,6,31,0,31,0,1,,,,,,,,,,,,,,,,,,,,,,,,,,,,,,,,,,,,,,,
,,,,,,,,2023-08-06_08h34.30.513,HF_wild_card,2022.2.4,MacIntel,60.0240096,5d1f0e319eeb4b001689b623,64ce5acb97489d65b14ecc7a,64cf49528ec1c8c7684fce4c,,,,,,,ctch,resources/DB.BMP,resources/DBN.BMP,Door3,0.264814815,-0.023148148,1,0,0,0.815,optionRight,70,13550,6,32,0,32,0,1,,,,,,,,,,,,,,,,,,,,,,,,,,,,,,,,,,,,,,,
,,,,,,,,2023-08-06_08h34.30.513,HF_wild_card,2022.2.4,MacIntel,60.0240096,5d1f0e319eeb4b001689b623,64ce5acb97489d65b14ecc7a,64cf49528ec1c8c7684fce4c,,,,,,,decisionTrl,resources/DBN.BMP,resources/DG.BMP,Door3,-0.141666667,-0.007407407,1,0,0,0.564,optionLeft,70,13620,6,33,0,33,0,1,,,,,,,,,,,,,,,,,,,,,,,,,,,,,,,,,,,,,,,
,,,,,,,,2023-08-06_08h34.30.513,HF_wild_card,2022.2.4,MacIntel,60.0240096,5d1f0e319eeb4b001689b623,64ce5acb97489d65b14ecc7a,64cf49528ec1c8c7684fce4c,,,,,,,sngl,resources/DR.BMP,resources/Empty.png,Door1,-0.242592593,-0.037962963,1,0,0,0.731,optionLeft,30,13650,6,34,0,34,0,1,,,,,,,,,,,,,,,,,,,,,,,,,,,,,,,,,,,,,,,
,,,,,,,,2023-08-06_08h34.30.513,HF_wild_card,2022.2.4,MacIntel,60.0240096,5d1f0e319eeb4b001689b623,64ce5acb97489d65b14ecc7a,64cf49528ec1c8c7684fce4c,,,,,,,sngl,resources/Empty.png,resources/DY.BMP,WildCard_Ex,0.337037037,-0.050925926,1,0,0,0.798,optionRight,5,13655,6,35,0,35,0,1,,,,,,,,,,,,,,,,,,,,,,,,,,,,,,,,,,,,,,,
,,,,,,,,2023-08-06_08h34.30.513,HF_wild_card,2022.2.4,MacIntel,60.0240096,5d1f0e319eeb4b001689b623,64ce5acb97489d65b14ecc7a,64cf49528ec1c8c7684fce4c,,,,,,,ctch,resources/DB.BMP,resources/DBN.BMP,Door3,0.462037037,-0.019444444,1,0,0,1.247,optionRight,70,13725,6,36,0,36,0,1,,,,,,,,,,,,,,,,,,,,,,,,,,,,,,,,,,,,,,,
,,,,,,,,2023-08-06_08h34.30.513,HF_wild_card,2022.2.4,MacIntel,60.0240096,5d1f0e319eeb4b001689b623,64ce5acb97489d65b14ecc7a,64cf49528ec1c8c7684fce4c,,,,,,,decisionTrl,resources/DR.BMP,resources/DB.BMP,Door2,0.257407407,-0.040740741,1,0,0,2.73,optionRight,40,13765,6,37,0,37,0,1,,,,,,,,,,,,,,,,,,,,,,,,,,,,,,,,,,,,,,,
,,,,,,,,2023-08-06_08h34.30.513,HF_wild_card,2022.2.4,MacIntel,60.0240096,5d1f0e319eeb4b001689b623,64ce5acb97489d65b14ecc7a,64cf49528ec1c8c7684fce4c,,,,,,,decisionTrl,resources/DG.BMP,resources/DY.BMP,Door4,-0.20462963,-0.030555556,1,0,0,2.136,optionLeft,80,13845,6,38,0,38,0,1,,,,,,,,,,,,,,,,,,,,,,,,,,,,,,,,,,,,,,,
,,,,,,,,2023-08-06_08h34.30.513,HF_wild_card,2022.2.4,MacIntel,60.0240096,5d1f0e319eeb4b001689b623,64ce5acb97489d65b14ecc7a,64cf49528ec1c8c7684fce4c,,,,,,,decisionTrl,resources/DB.BMP,resources/DR.BMP,Door1,0.347222222,0.009259259,1,0,0,1.461,optionRight,30,13875,6,39,0,39,0,1,,,,,,,,,,,,,,,,,,,,,,,,,,,,,,,,,,,,,,,
,,,,,,,,2023-08-06_08h34.30.513,HF_wild_card,2022.2.4,MacIntel,60.0240096,5d1f0e319eeb4b001689b623,64ce5acb97489d65b14ecc7a,64cf49528ec1c8c7684fce4c,,,,,,,decisionTrl,resources/DG.BMP,resources/DBN.BMP,Door3,0.381481481,-0.073148148,1,0,0,0.679,optionRight,70,13945,6,40,0,40,0,1,,,,,,,,,,,,,,,,,,,,,,,,,,,,,,,,,,,,,,,
,,,,,,,,2023-08-06_08h34.30.513,HF_wild_card,2022.2.4,MacIntel,60.0240096,5d1f0e319eeb4b001689b623,64ce5acb97489d65b14ecc7a,64cf49528ec1c8c7684fce4c,,,,,,,sngl,resources/Empty.png,resources/DG.BMP,Door4,0.342592593,0.061111111,1,0,0,0.613,optionRight,80,14025,6,41,0,41,0,1,,,,,,,,,,,,,,,,,,,,,,,,,,,,,,,,,,,,,,,
,,,,,,,,2023-08-06_08h34.30.513,HF_wild_card,2022.2.4,MacIntel,60.0240096,5d1f0e319eeb4b001689b623,64ce5acb97489d65b14ecc7a,64cf49528ec1c8c7684fce4c,,,,,,,ctch,resources/DG.BMP,resources/DR.BMP,Door4,-0.275,-0.085185185,1,0,0,1.114,optionLeft,80,14105,6,42,0,42,0,1,,,,,,,,,,,,,,,,,,,,,,,,,,,,,,,,,,,,,,,
,,,,,,,,2023-08-06_08h34.30.513,HF_wild_card,2022.2.4,MacIntel,60.0240096,5d1f0e319eeb4b001689b623,64ce5acb97489d65b14ecc7a,64cf49528ec1c8c7684fce4c,,,,,,,decisionTrl,resources/DBN.BMP,resources/DG.BMP,Door3,-0.275,-0.027777778,1,0,0,0.846,optionLeft,70,14175,6,43,0,43,0,1,,,,,,,,,,,,,,,,,,,,,,,,,,,,,,,,,,,,,,,
,,,,,,,,2023-08-06_08h34.30.513,HF_wild_card,2022.2.4,MacIntel,60.0240096,5d1f0e319eeb4b001689b623,64ce5acb97489d65b14ecc7a,64cf49528ec1c8c7684fce4c,,,,,,,,,,,,,,,,,,,,,,,,,,5,0,5,0,1,,,,,,,,,,,,,,,,,,,,,,,,,,,,,,,,,,
,,,,,,,,2023-08-06_08h34.30.513,HF_wild_card,2022.2.4,MacIntel,60.0240096,5d1f0e319eeb4b001689b623,64ce5acb97489d65b14ecc7a,64cf49528ec1c8c7684fce4c,,,,,,,decisionTrl,resources/DBN.BMP,resources/DG.BMP,Door3,-0.240740741,-0.083333333,1,0,0,0.872,optionLeft,70,14245,7,0,0,0,0,1,,,,,,,,,,,,,,,,,,,,,,,,,,,,,,,,,,,,,,,
,,,,,,,,2023-08-06_08h34.30.513,HF_wild_card,2022.2.4,MacIntel,60.0240096,5d1f0e319eeb4b001689b623,64ce5acb97489d65b14ecc7a,64cf49528ec1c8c7684fce4c,,,,,,,ctch,resources/DB.BMP,resources/DBN.BMP,Door3,0.344444444,-0.051851852,1,0,0,1.264,optionRight,70,14315,7,1,0,1,0,1,,,,,,,,,,,,,,,,,,,,,,,,,,,,,,,,,,,,,,,
,,,,,,,,2023-08-06_08h34.30.513,HF_wild_card,2022.2.4,MacIntel,60.0240096,5d1f0e319eeb4b001689b623,64ce5acb97489d65b14ecc7a,64cf49528ec1c8c7684fce4c,,,,,,,decisionTrl,resources/DB.BMP,resources/DR.BMP,Door1,0.417592593,-0.056481481,1,0,0,4.031,optionRight,30,14345,7,2,0,2,0,1,,,,,,,,,,,,,,,,,,,,,,,,,,,,,,,,,,,,,,,
,,,,,,,,2023-08-06_08h34.30.513,HF_wild_card,2022.2.4,MacIntel,60.0240096,5d1f0e319eeb4b001689b623,64ce5acb97489d65b14ecc7a,64cf49528ec1c8c7684fce4c,,,,,,,decisionTrl,resources/DR.BMP,resources/DB.BMP,Door1,-0.381481481,-0.12037037,1,0,0,2.717,optionLeft,30,14375,7,3,0,3,0,1,,,,,,,,,,,,,,,,,,,,,,,,,,,,,,,,,,,,,,,
,,,,,,,,2023-08-06_08h34.30.513,HF_wild_card,2022.2.4,MacIntel,60.0240096,5d1f0e319eeb4b001689b623,64ce5acb97489d65b14ecc7a,64cf49528ec1c8c7684fce4c,,,,,,,decisionTrl,resources/DB.BMP,resources/DR.BMP,Door1,0.382407407,-0.099074074,1,0,0,1.114,optionRight,30,14405,7,4,0,4,0,1,,,,,,,,,,,,,,,,,,,,,,,,,,,,,,,,,,,,,,,
,,,,,,,,2023-08-06_08h34.30.513,HF_wild_card,2022.2.4,MacIntel,60.0240096,5d1f0e319eeb4b001689b623,64ce5acb97489d65b14ecc7a,64cf49528ec1c8c7684fce4c,,,,,,,decisionTrl,resources/DR.BMP,resources/DB.BMP,Door1,-0.500925926,-0.055555556,1,0,0,1.68,optionLeft,30,14435,7,5,0,5,0,1,,,,,,,,,,,,,,,,,,,,,,,,,,,,,,,,,,,,,,,
,,,,,,,,2023-08-06_08h34.30.513,HF_wild_card,2022.2.4,MacIntel,60.0240096,5d1f0e319eeb4b001689b623,64ce5acb97489d65b14ecc7a,64cf49528ec1c8c7684fce4c,,,,,,,decisionTrl,resources/DBN.BMP,resources/DG.BMP,Door3,-0.412037037,-0.02962963,1,0,0,0.665,optionLeft,70,14505,7,6,0,6,0,1,,,,,,,,,,,,,,,,,,,,,,,,,,,,,,,,,,,,,,,
,,,,,,,,2023-08-06_08h34.30.513,HF_wild_card,2022.2.4,MacIntel,60.0240096,5d1f0e319eeb4b001689b623,64ce5acb97489d65b14ecc7a,64cf49528ec1c8c7684fce4c,,,,,,,ctch,resources/DBN.BMP,resources/DB.BMP,Door3,-0.410185185,-0.044444444,1,0,0,0.543,optionLeft,70,14575,7,7,0,7,0,1,,,,,,,,,,,,,,,,,,,,,,,,,,,,,,,,,,,,,,,
,,,,,,,,2023-08-06_08h34.30.513,HF_wild_card,2022.2.4,MacIntel,60.0240096,5d1f0e319eeb4b001689b623,64ce5acb97489d65b14ecc7a,64cf49528ec1c8c7684fce4c,,,,,,,decisionTrl,resources/DBN.BMP,resources/DG.BMP,Door3,-0.275925926,-0.012037037,1,0,0,0.481,optionLeft,70,14645,7,8,0,8,0,1,,,,,,,,,,,,,,,,,,,,,,,,,,,,,,,,,,,,,,,
,,,,,,,,2023-08-06_08h34.30.513,HF_wild_card,2022.2.4,MacIntel,60.0240096,5d1f0e319eeb4b001689b623,64ce5acb97489d65b14ecc7a,64cf49528ec1c8c7684fce4c,,,,,,,decisionTrl,resources/DR.BMP,resources/DB.BMP,Door1,-0.450925926,-0.041666667,1,0,0,1.182,optionLeft,30,14675,7,9,0,9,0,1,,,,,,,,,,,,,,,,,,,,,,,,,,,,,,,,,,,,,,,
,,,,,,,,2023-08-06_08h34.30.513,HF_wild_card,2022.2.4,MacIntel,60.0240096,5d1f0e319eeb4b001689b623,64ce5acb97489d65b14ecc7a,64cf49528ec1c8c7684fce4c,,,,,,,ctch,resources/DR.BMP,resources/DG.BMP,Door1,-0.337037037,-0.012962963,1,0,0,0.498,optionLeft,30,14705,7,10,0,10,0,1,,,,,,,,,,,,,,,,,,,,,,,,,,,,,,,,,,,,,,,
,,,,,,,,2023-08-06_08h34.30.513,HF_wild_card,2022.2.4,MacIntel,60.0240096,5d1f0e319eeb4b001689b623,64ce5acb97489d65b14ecc7a,64cf49528ec1c8c7684fce4c,,,,,,,ctch,resources/DG.BMP,resources/DR.BMP,Door4,-0.227777778,-0.005555556,1,0,0,0.731,optionLeft,60,14765,7,11,0,11,0,1,,,,,,,,,,,,,,,,,,,,,,,,,,,,,,,,,,,,,,,
,,,,,,,,2023-08-06_08h34.30.513,HF_wild_card,2022.2.4,MacIntel,60.0240096,5d1f0e319eeb4b001689b623,64ce5acb97489d65b14ecc7a,64cf49528ec1c8c7684fce4c,,,,,,,decisionTrl,resources/DBN.BMP,resources/DG.BMP,Door3,-0.296296296,-0.012962963,1,0,0,0.682,optionLeft,70,14835,7,12,0,12,0,1,,,,,,,,,,,,,,,,,,,,,,,,,,,,,,,,,,,,,,,
,,,,,,,,2023-08-06_08h34.30.513,HF_wild_card,2022.2.4,MacIntel,60.0240096,5d1f0e319eeb4b001689b623,64ce5acb97489d65b14ecc7a,64cf49528ec1c8c7684fce4c,,,,,,,decisionTrl,resources/DBN.BMP,resources/DG.BMP,Door3,-0.218518519,-0.015740741,1,0,0,1.065,optionLeft,70,14905,7,13,0,13,0,1,,,,,,,,,,,,,,,,,,,,,,,,,,,,,,,,,,,,,,,
,,,,,,,,2023-08-06_08h34.30.513,HF_wild_card,2022.2.4,MacIntel,60.0240096,5d1f0e319eeb4b001689b623,64ce5acb97489d65b14ecc7a,64cf49528ec1c8c7684fce4c,,,,,,,decisionTrl,resources/DG.BMP,resources/DBN.BMP,Door3,0.426851852,-0.064814815,1,0,0,0.765,optionRight,70,14975,7,14,0,14,0,1,,,,,,,,,,,,,,,,,,,,,,,,,,,,,,,,,,,,,,,
,,,,,,,,2023-08-06_08h34.30.513,HF_wild_card,2022.2.4,MacIntel,60.0240096,5d1f0e319eeb4b001689b623,64ce5acb97489d65b14ecc7a,64cf49528ec1c8c7684fce4c,,,,,,,decisionTrl,resources/DG.BMP,resources/DBN.BMP,Door3,0.4,-0.02037037,1,0,0,0.699,optionRight,70,15045,7,15,0,15,0,1,,,,,,,,,,,,,,,,,,,,,,,,,,,,,,,,,,,,,,,
,,,,,,,,2023-08-06_08h34.30.513,HF_wild_card,2022.2.4,MacIntel,60.0240096,5d1f0e319eeb4b001689b623,64ce5acb97489d65b14ecc7a,64cf49528ec1c8c7684fce4c,,,,,,,decisionTrl,resources/DG.BMP,resources/DBN.BMP,Door3,0.460185185,-0.037962963,1,0,0,0.667,optionRight,70,15115,7,16,0,16,0,1,,,,,,,,,,,,,,,,,,,,,,,,,,,,,,,,,,,,,,,
,,,,,,,,2023-08-06_08h34.30.513,HF_wild_card,2022.2.4,MacIntel,60.0240096,5d1f0e319eeb4b001689b623,64ce5acb97489d65b14ecc7a,64cf49528ec1c8c7684fce4c,,,,,,,decisionTrl,resources/DBN.BMP,resources/DG.BMP,Door3,-0.269444444,-0.046296296,1,0,0,0.647,optionLeft,70,15185,7,17,0,17,0,1,,,,,,,,,,,,,,,,,,,,,,,,,,,,,,,,,,,,,,,
,,,,,,,,2023-08-06_08h34.30.513,HF_wild_card,2022.2.4,MacIntel,60.0240096,5d1f0e319eeb4b001689b623,64ce5acb97489d65b14ecc7a,64cf49528ec1c8c7684fce4c,,,,,,,decisionTrl,resources/DR.BMP,resources/DB.BMP,Door1,-0.224074074,-0.071296296,1,0,0,1.331,optionLeft,30,15215,7,18,0,18,0,1,,,,,,,,,,,,,,,,,,,,,,,,,,,,,,,,,,,,,,,
,,,,,,,,2023-08-06_08h34.30.513,HF_wild_card,2022.2.4,MacIntel,60.0240096,5d1f0e319eeb4b001689b623,64ce5acb97489d65b14ecc7a,64cf49528ec1c8c7684fce4c,,,,,,,ctch,resources/DBN.BMP,resources/DB.BMP,Door3,-0.201851852,-0.039814815,1,0,0,0.714,optionLeft,70,15285,7,19,0,19,0,1,,,,,,,,,,,,,,,,,,,,,,,,,,,,,,,,,,,,,,,
,,,,,,,,2023-08-06_08h34.30.513,HF_wild_card,2022.2.4,MacIntel,60.0240096,5d1f0e319eeb4b001689b623,64ce5acb97489d65b14ecc7a,64cf49528ec1c8c7684fce4c,,,,,,,ctch,resources/DR.BMP,resources/DG.BMP,Door4,0.202777778,-0.05,1,0,0,3.75,optionRight,80,15365,7,20,0,20,0,1,,,,,,,,,,,,,,,,,,,,,,,,,,,,,,,,,,,,,,,
,,,,,,,,2023-08-06_08h34.30.513,HF_wild_card,2022.2.4,MacIntel,60.0240096,5d1f0e319eeb4b001689b623,64ce5acb97489d65b14ecc7a,64cf49528ec1c8c7684fce4c,,,,,,,ctch,resources/DG.BMP,resources/DR.BMP,Door4,-0.186111111,-0.044444444,1,0,0,0.796,optionLeft,80,15445,7,21,0,21,0,1,,,,,,,,,,,,,,,,,,,,,,,,,,,,,,,,,,,,,,,
,,,,,,,,2023-08-06_08h34.30.513,HF_wild_card,2022.2.4,MacIntel,60.0240096,5d1f0e319eeb4b001689b623,64ce5acb97489d65b14ecc7a,64cf49528ec1c8c7684fce4c,,,,,,,decisionTrl,resources/DG.BMP,resources/DBN.BMP,Door3,0.389814815,-0.034259259,1,0,0,0.749,optionRight,70,15515,7,22,0,22,0,1,,,,,,,,,,,,,,,,,,,,,,,,,,,,,,,,,,,,,,,
,,,,,,,,2023-08-06_08h34.30.513,HF_wild_card,2022.2.4,MacIntel,60.0240096,5d1f0e319eeb4b001689b623,64ce5acb97489d65b14ecc7a,64cf49528ec1c8c7684fce4c,,,,,,,ctch,resources/DR.BMP,resources/DG.BMP,Door4,0.287037037,-0.064814815,1,0,0,1.032,optionRight,80,15595,7,23,0,23,0,1,,,,,,,,,,,,,,,,,,,,,,,,,,,,,,,,,,,,,,,
,,,,,,,,2023-08-06_08h34.30.513,HF_wild_card,2022.2.4,MacIntel,60.0240096,5d1f0e319eeb4b001689b623,64ce5acb97489d65b14ecc7a,64cf49528ec1c8c7684fce4c,,,,,,,ctch,resources/DB.BMP,resources/DBN.BMP,Door3,0.351851852,-0.040740741,1,0,0,0.781,optionRight,70,15665,7,24,0,24,0,1,,,,,,,,,,,,,,,,,,,,,,,,,,,,,,,,,,,,,,,
,,,,,,,,2023-08-06_08h34.30.513,HF_wild_card,2022.2.4,MacIntel,60.0240096,5d1f0e319eeb4b001689b623,64ce5acb97489d65b14ecc7a,64cf49528ec1c8c7684fce4c,,,,,,,decisionTrl,resources/DB.BMP,resources/DR.BMP,Door1,0.289814815,-0.060185185,1,0,0,1.031,optionRight,30,15695,7,25,0,25,0,1,,,,,,,,,,,,,,,,,,,,,,,,,,,,,,,,,,,,,,,
,,,,,,,,2023-08-06_08h34.30.513,HF_wild_card,2022.2.4,MacIntel,60.0240096,5d1f0e319eeb4b001689b623,64ce5acb97489d65b14ecc7a,64cf49528ec1c8c7684fce4c,,,,,,,decisionTrl,resources/DR.BMP,resources/DB.BMP,Door1,-0.138888889,-0.014814815,1,0,0,1.832,optionLeft,30,15725,7,26,0,26,0,1,,,,,,,,,,,,,,,,,,,,,,,,,,,,,,,,,,,,,,,
,,,,,,,,2023-08-06_08h34.30.513,HF_wild_card,2022.2.4,MacIntel,60.0240096,5d1f0e319eeb4b001689b623,64ce5acb97489d65b14ecc7a,64cf49528ec1c8c7684fce4c,,,,,,,decisionTrl,resources/DB.BMP,resources/DR.BMP,Door1,0.271296296,-0.048148148,1,0,0,1.113,optionRight,30,15755,7,27,0,27,0,1,,,,,,,,,,,,,,,,,,,,,,,,,,,,,,,,,,,,,,,
,,,,,,,,2023-08-06_08h34.30.513,HF_wild_card,2022.2.4,MacIntel,60.0240096,5d1f0e319eeb4b001689b623,64ce5acb97489d65b14ecc7a,64cf49528ec1c8c7684fce4c,,,,,,,ctch,resources/DB.BMP,resources/DBN.BMP,Door3,0.322222222,-0.050925926,1,0,0,0.781,optionRight,70,15825,7,28,0,28,0,1,,,,,,,,,,,,,,,,,,,,,,,,,,,,,,,,,,,,,,,
,,,,,,,,2023-08-06_08h34.30.513,HF_wild_card,2022.2.4,MacIntel,60.0240096,5d1f0e319eeb4b001689b623,64ce5acb97489d65b14ecc7a,64cf49528ec1c8c7684fce4c,,,,,,,ctch,resources/DG.BMP,resources/DR.BMP,Door4,-0.185185185,-0.023148148,1,0,0,1.365,optionLeft,80,15905,7,29,0,29,0,1,,,,,,,,,,,,,,,,,,,,,,,,,,,,,,,,,,,,,,,
,,,,,,,,2023-08-06_08h34.30.513,HF_wild_card,2022.2.4,MacIntel,60.0240096,5d1f0e319eeb4b001689b623,64ce5acb97489d65b14ecc7a,64cf49528ec1c8c7684fce4c,,,,,,,decisionTrl,resources/DR.BMP,resources/DB.BMP,Door1,-0.189814815,-0.034259259,1,0,0,1.796,optionLeft,30,15935,7,30,0,30,0,1,,,,,,,,,,,,,,,,,,,,,,,,,,,,,,,,,,,,,,,
,,,,,,,,2023-08-06_08h34.30.513,HF_wild_card,2022.2.4,MacIntel,60.0240096,5d1f0e319eeb4b001689b623,64ce5acb97489d65b14ecc7a,64cf49528ec1c8c7684fce4c,,,,,,,decisionTrl,resources/DB.BMP,resources/DR.BMP,Door1,0.293518519,-0.112962963,1,0,0,0.976,optionRight,30,15965,7,31,0,31,0,1,,,,,,,,,,,,,,,,,,,,,,,,,,,,,,,,,,,,,,,
,,,,,,,,2023-08-06_08h34.30.513,HF_wild_card,2022.2.4,MacIntel,60.0240096,5d1f0e319eeb4b001689b623,64ce5acb97489d65b14ecc7a,64cf49528ec1c8c7684fce4c,,,,,,,decisionTrl,resources/DG.BMP,resources/DBN.BMP,Door3,0.473148148,-0.075925926,1,0,0,0.848,optionRight,70,16035,7,32,0,32,0,1,,,,,,,,,,,,,,,,,,,,,,,,,,,,,,,,,,,,,,,
,,,,,,,,2023-08-06_08h34.30.513,HF_wild_card,2022.2.4,MacIntel,60.0240096,5d1f0e319eeb4b001689b623,64ce5acb97489d65b14ecc7a,64cf49528ec1c8c7684fce4c,,,,,,,decisionTrl,resources/DG.BMP,resources/DBN.BMP,Door3,0.271296296,-0.022222222,1,0,0,1.448,optionRight,70,16105,7,33,0,33,0,1,,,,,,,,,,,,,,,,,,,,,,,,,,,,,,,,,,,,,,,
,,,,,,,,2023-08-06_08h34.30.513,HF_wild_card,2022.2.4,MacIntel,60.0240096,5d1f0e319eeb4b001689b623,64ce5acb97489d65b14ecc7a,64cf49528ec1c8c7684fce4c,,,,,,,decisionTrl,resources/DB.BMP,resources/DR.BMP,Door1,0.298148148,-0.130555556,1,0,0,2.914,optionRight,30,16135,7,34,0,34,0,1,,,,,,,,,,,,,,,,,,,,,,,,,,,,,,,,,,,,,,,
,,,,,,,,2023-08-06_08h34.30.513,HF_wild_card,2022.2.4,MacIntel,60.0240096,5d1f0e319eeb4b001689b623,64ce5acb97489d65b14ecc7a,64cf49528ec1c8c7684fce4c,,,,,,,ctch,resources/DBN.BMP,resources/DB.BMP,Door3,-0.311111111,-0.008333333,1,0,0,0.697,optionLeft,70,16205,7,35,0,35,0,1,,,,,,,,,,,,,,,,,,,,,,,,,,,,,,,,,,,,,,,
,,,,,,,,2023-08-06_08h34.30.513,HF_wild_card,2022.2.4,MacIntel,60.0240096,5d1f0e319eeb4b001689b623,64ce5acb97489d65b14ecc7a,64cf49528ec1c8c7684fce4c,,,,,,,,,,,,,,,,,,,,,,,,,,6,0,6,0,1,,,,,,,,,,,,,,,,,,,,,,,,,,,,,,,,,,
,,,,,,,,2023-08-06_08h34.30.513,HF_wild_card,2022.2.4,MacIntel,60.0240096,5d1f0e319eeb4b001689b623,64ce5acb97489d65b14ecc7a,64cf49528ec1c8c7684fce4c,,,,,,,,,,,,,,,,,,,,,,,,,,,,,,,4,,,,,,,,,,,,,,,,,,,,,,,,,,,,,,,,,
,,,,,,,,2023-08-06_08h34.30.513,HF_wild_card,2022.2.4,MacIntel,60.0240096,5d1f0e319eeb4b001689b623,64ce5acb97489d65b14ecc7a,64cf49528ec1c8c7684fce4c,,,,,,,,,,,,,,,,,,,,,,,,,,,,,,,,,,,,,,,,,,,,,,,,,,,,,,,,,,,,,,,,
,,,,,,,,2023-08-06_08h34.30.513,HF_wild_card,2022.2.4,MacIntel,60.0240096,5d1f0e319eeb4b001689b623,64ce5acb97489d65b14ecc7a,64cf49528ec1c8c7684fce4c,,,,,,,,,,,,,,,,,,,,,,,,,,,,,,,,30,Door1,resources/DR.BMP,0,0,0,0,1,,,,,,,,,,,,,,,,,,,,,,,,,
,,,,,,,,2023-08-06_08h34.30.513,HF_wild_card,2022.2.4,MacIntel,60.0240096,5d1f0e319eeb4b001689b623,64ce5acb97489d65b14ecc7a,64cf49528ec1c8c7684fce4c,,,,,,,,,,,,,,,,,,,,,,,,,,,,,,,,20,Door2,resources/DB.BMP,1,0,1,0,1,,,,,,,,,,,,,,,,,,,,,,,,,
,,,,,,,,2023-08-06_08h34.30.513,HF_wild_card,2022.2.4,MacIntel,60.0240096,5d1f0e319eeb4b001689b623,64ce5acb97489d65b14ecc7a,64cf49528ec1c8c7684fce4c,,,,,,,,,,,,,,,,,,,,,,,,,,,,,,,,60,Door4,resources/DG.BMP,2,0,2,0,1,,,,,,,,,,,,,,,,,,,,,,,,,
,,,,,,,,2023-08-06_08h34.30.513,HF_wild_card,2022.2.4,MacIntel,60.0240096,5d1f0e319eeb4b001689b623,64ce5acb97489d65b14ecc7a,64cf49528ec1c8c7684fce4c,,,,,,,,,,,,,,,,,,,,,,,,,,,,,,,,70,Door3,resources/DBN.BMP,3,0,3,0,1,,,,,,,,,,,,,,,,,,,,,,,,,
,,,,,,,,2023-08-06_08h34.30.513,HF_wild_card,2022.2.4,MacIntel,60.0240096,5d1f0e319eeb4b001689b623,64ce5acb97489d65b14ecc7a,64cf49528ec1c8c7684fce4c,,,,,,,,,,,,,,,,,,,,,,,,,,,,,,,,95,WC_extreme,resources/DY.BMP,4,0,4,0,1,,,,,,,,,,,,,,,,,,,,,,,,,
