Condition,Low fixed image (Door1),Low risky image (Door2),High fixed image (Door3),High risky image (Door4),Extreme Wild Card,NonExtreme Wild Card,,date,expName,psychopyVersion,OS,frameRate,PROLIFIC_PID,STUDY_ID,SESSION_ID,mouse_2.x,mouse_2.y,mouse_2.leftButton,mouse_2.midButton,mouse_2.rightButton,mouse_2.clicked_name,Trial Type,Left Option Image,Right Option Image,Chosen Door,mouse.x,mouse.y,mouse.leftButton,mouse.midButton,mouse.rightButton,mouse.time,mouse.clicked_name,Feedback,Cumulative Reward,Block,trial.thisRepN,trial.thisTrialN,trial.thisN,trial.thisIndex,trial.ran,blocks.thisRepN,blocks.thisTrialN,blocks.thisN,blocks.thisIndex,blocks.ran,Money conversion,First Outcome Reported,Shown Door (First Outcome),Displayed Image (First Outcome),outcomes.thisRepN,outcomes.thisTrialN,outcomes.thisN,outcomes.thisIndex,outcomes.ran,judgments.thisRepN,judgments.thisTrialN,judgments.thisN,judgments.thisIndex,judgments.ran,freqMouse.x,freqMouse.y,freqMouse.leftButton,freqMouse.midButton,freqMouse.rightButton,freqMouse.clicked_name,FQJ for first outcome,FQJ for second outcome,Shown Door,Displayed Image,trials.thisRepN,trials.thisTrialN,trials.thisN,trials.thisIndex,trials.ran,judgBlock.thisRepN,judgBlock.thisTrialN,judgBlock.thisN,judgBlock.thisIndex,judgBlock.ran
0,resources/DG.BMP,resources/DBN.BMP,resources/DP.BMP,resources/DB.BMP,resources/DR.BMP,resources/DY.BMP,,2023-08-06_08h29.54.918,HF_wild_card,2022.2.4,Win32,60.0240096,63f3627e35e0e400ca50c26b,64ce5acb97489d65b14ecc7a,64cf4be23a5ec641e45aa512,,,,,,,,,,,,,,,,,,,,,,,,,,,,,,,,,,,,,,,,,,,,,,,,,,,,,,,,,,,,,,,,
,,,,,,,,2023-08-06_08h29.54.918,HF_wild_card,2022.2.4,Win32,60.0240096,63f3627e35e0e400ca50c26b,64ce5acb97489d65b14ecc7a,64cf4be23a5ec641e45aa512,-0.001157407,-0.424768519,1,0,0,agree,,,,,,,,,,,,,,,,,,,,,,,,,,,,,,,,,,,,,,,,,,,,,,,,,,,,,,,,,,
,,,,,,,,2023-08-06_08h29.54.918,HF_wild_card,2022.2.4,Win32,60.0240096,63f3627e35e0e400ca50c26b,64ce5acb97489d65b14ecc7a,64cf4be23a5ec641e45aa512,,,,,,,,,,,,,,,,,,,,,,,,,,,,,,,,,,,,,,,,,,,,,,,,,,,,,,,,,,,,,,,,
,,,,,,,,2023-08-06_08h29.54.918,HF_wild_card,2022.2.4,Win32,60.0240096,63f3627e35e0e400ca50c26b,64ce5acb97489d65b14ecc7a,64cf4be23a5ec641e45aa512,,,,,,,decisionTrl,resources/DR.BMP,resources/DB.BMP,WildCard_Ex,-0.390046296,-0.017361111,1,0,0,2.953,optionLeft,95,95,1,0,0,0,0,1,,,,,,,,,,,,,,,,,,,,,,,,,,,,,,,,,,,,,,,
,,,,,,,,2023-08-06_08h29.54.918,HF_wild_card,2022.2.4,Win32,60.0240096,63f3627e35e0e400ca50c26b,64ce5acb97489d65b14ecc7a,64cf4be23a5ec641e45aa512,,,,,,,sngl,resources/Empty.png,resources/DR.BMP,WildCard_Ex,0.251157407,0.03587963,1,0,0,1.797,optionRight,5,100,1,1,0,1,0,1,,,,,,,,,,,,,,,,,,,,,,,,,,,,,,,,,,,,,,,
,,,,,,,,2023-08-06_08h29.54.918,HF_wild_card,2022.2.4,Win32,60.0240096,63f3627e35e0e400ca50c26b,64ce5acb97489d65b14ecc7a,64cf4be23a5ec641e45aa512,,,,,,,sngl,resources/DP.BMP,resources/Empty.png,Door3,-0.362268519,-0.006944444,1,0,0,1.488,optionLeft,70,170,1,2,0,2,0,1,,,,,,,,,,,,,,,,,,,,,,,,,,,,,,,,,,,,,,,
,,,,,,,,2023-08-06_08h29.54.918,HF_wild_card,2022.2.4,Win32,60.0240096,63f3627e35e0e400ca50c26b,64ce5acb97489d65b14ecc7a,64cf4be23a5ec641e45aa512,,,,,,,decisionTrl,resources/DB.BMP,resources/DR.BMP,Door4,-0.412037037,-0.028935185,1,0,0,2.456,optionLeft,60,230,1,3,0,3,0,1,,,,,,,,,,,,,,,,,,,,,,,,,,,,,,,,,,,,,,,
,,,,,,,,2023-08-06_08h29.54.918,HF_wild_card,2022.2.4,Win32,60.0240096,63f3627e35e0e400ca50c26b,64ce5acb97489d65b14ecc7a,64cf4be23a5ec641e45aa512,,,,,,,sngl,resources/Empty.png,resources/DR.BMP,WildCard_Ex,0.34837963,-0.0625,1,0,0,0.961,optionRight,95,325,1,4,0,4,0,1,,,,,,,,,,,,,,,,,,,,,,,,,,,,,,,,,,,,,,,
,,,,,,,,2023-08-06_08h29.54.918,HF_wild_card,2022.2.4,Win32,60.0240096,63f3627e35e0e400ca50c26b,64ce5acb97489d65b14ecc7a,64cf4be23a5ec641e45aa512,,,,,,,decisionTrl,resources/DP.BMP,resources/DR.BMP,Door3,-0.44212963,0.090277778,1,0,0,2.987,optionLeft,70,395,1,5,0,5,0,1,,,,,,,,,,,,,,,,,,,,,,,,,,,,,,,,,,,,,,,
,,,,,,,,2023-08-06_08h29.54.918,HF_wild_card,2022.2.4,Win32,60.0240096,63f3627e35e0e400ca50c26b,64ce5acb97489d65b14ecc7a,64cf4be23a5ec641e45aa512,,,,,,,decisionTrl,resources/DP.BMP,resources/DB.BMP,Door4,0.351851852,0.19212963,1,0,0,2.378,optionRight,60,455,1,6,0,6,0,1,,,,,,,,,,,,,,,,,,,,,,,,,,,,,,,,,,,,,,,
,,,,,,,,2023-08-06_08h29.54.918,HF_wild_card,2022.2.4,Win32,60.0240096,63f3627e35e0e400ca50c26b,64ce5acb97489d65b14ecc7a,64cf4be23a5ec641e45aa512,,,,,,,ctch,resources/DBN.BMP,resources/DP.BMP,Door2,-0.3125,0.034722222,1,0,0,1.706,optionLeft,40,495,1,7,0,7,0,1,,,,,,,,,,,,,,,,,,,,,,,,,,,,,,,,,,,,,,,
,,,,,,,,2023-08-06_08h29.54.918,HF_wild_card,2022.2.4,Win32,60.0240096,63f3627e35e0e400ca50c26b,64ce5acb97489d65b14ecc7a,64cf4be23a5ec641e45aa512,,,,,,,decisionTrl,resources/DG.BMP,resources/DBN.BMP,Door1,-0.350694444,-0.018518519,1,0,0,1.424,optionLeft,30,525,1,8,0,8,0,1,,,,,,,,,,,,,,,,,,,,,,,,,,,,,,,,,,,,,,,
,,,,,,,,2023-08-06_08h29.54.918,HF_wild_card,2022.2.4,Win32,60.0240096,63f3627e35e0e400ca50c26b,64ce5acb97489d65b14ecc7a,64cf4be23a5ec641e45aa512,,,,,,,ctch,resources/DB.BMP,resources/DG.BMP,Door1,0.290509259,-0.039351852,1,0,0,1.765,optionRight,30,555,1,9,0,9,0,1,,,,,,,,,,,,,,,,,,,,,,,,,,,,,,,,,,,,,,,
,,,,,,,,2023-08-06_08h29.54.918,HF_wild_card,2022.2.4,Win32,60.0240096,63f3627e35e0e400ca50c26b,64ce5acb97489d65b14ecc7a,64cf4be23a5ec641e45aa512,,,,,,,decisionTrl,resources/DG.BMP,resources/DBN.BMP,Door1,-0.290509259,-0.037037037,1,0,0,1.721,optionLeft,30,585,1,10,0,10,0,1,,,,,,,,,,,,,,,,,,,,,,,,,,,,,,,,,,,,,,,
,,,,,,,,2023-08-06_08h29.54.918,HF_wild_card,2022.2.4,Win32,60.0240096,63f3627e35e0e400ca50c26b,64ce5acb97489d65b14ecc7a,64cf4be23a5ec641e45aa512,,,,,,,decisionTrl,resources/DBN.BMP,resources/DR.BMP,WildCard_Ex,0.415509259,-0.122685185,1,0,0,1.09,optionRight,95,680,1,11,0,11,0,1,,,,,,,,,,,,,,,,,,,,,,,,,,,,,,,,,,,,,,,
,,,,,,,,2023-08-06_08h29.54.918,HF_wild_card,2022.2.4,Win32,60.0240096,63f3627e35e0e400ca50c26b,64ce5acb97489d65b14ecc7a,64cf4be23a5ec641e45aa512,,,,,,,decisionTrl,resources/DBN.BMP,resources/DG.BMP,Door2,-0.311342593,0.039351852,1,0,0,1.092,optionLeft,40,720,1,12,0,12,0,1,,,,,,,,,,,,,,,,,,,,,,,,,,,,,,,,,,,,,,,
,,,,,,,,2023-08-06_08h29.54.918,HF_wild_card,2022.2.4,Win32,60.0240096,63f3627e35e0e400ca50c26b,64ce5acb97489d65b14ecc7a,64cf4be23a5ec641e45aa512,,,,,,,decisionTrl,resources/DB.BMP,resources/DP.BMP,Door4,-0.27662037,0.032407407,1,0,0,1.079,optionLeft,80,800,1,13,0,13,0,1,,,,,,,,,,,,,,,,,,,,,,,,,,,,,,,,,,,,,,,
,,,,,,,,2023-08-06_08h29.54.918,HF_wild_card,2022.2.4,Win32,60.0240096,63f3627e35e0e400ca50c26b,64ce5acb97489d65b14ecc7a,64cf4be23a5ec641e45aa512,,,,,,,decisionTrl,resources/DP.BMP,resources/DB.BMP,Door3,-0.288194444,-0.075231481,1,0,0,1.222,optionLeft,70,870,1,14,0,14,0,1,,,,,,,,,,,,,,,,,,,,,,,,,,,,,,,,,,,,,,,
,,,,,,,,2023-08-06_08h29.54.918,HF_wild_card,2022.2.4,Win32,60.0240096,63f3627e35e0e400ca50c26b,64ce5acb97489d65b14ecc7a,64cf4be23a5ec641e45aa512,,,,,,,sngl,resources/Empty.png,resources/DB.BMP,Door4,0.357638889,-0.082175926,1,0,0,1.025,optionRight,60,930,1,15,0,15,0,1,,,,,,,,,,,,,,,,,,,,,,,,,,,,,,,,,,,,,,,
,,,,,,,,2023-08-06_08h29.54.918,HF_wild_card,2022.2.4,Win32,60.0240096,63f3627e35e0e400ca50c26b,64ce5acb97489d65b14ecc7a,64cf4be23a5ec641e45aa512,,,,,,,ctch,resources/DB.BMP,resources/DG.BMP,Door4,-0.41087963,0.021990741,1,0,0,1.258,optionLeft,60,990,1,16,0,16,0,1,,,,,,,,,,,,,,,,,,,,,,,,,,,,,,,,,,,,,,,
,,,,,,,,2023-08-06_08h29.54.918,HF_wild_card,2022.2.4,Win32,60.0240096,63f3627e35e0e400ca50c26b,64ce5acb97489d65b14ecc7a,64cf4be23a5ec641e45aa512,,,,,,,decisionTrl,resources/DP.BMP,resources/DB.BMP,Door3,-0.366898148,-0.009259259,1,0,0,1.124,optionLeft,70,1060,1,17,0,17,0,1,,,,,,,,,,,,,,,,,,,,,,,,,,,,,,,,,,,,,,,
,,,,,,,,2023-08-06_08h29.54.918,HF_wild_card,2022.2.4,Win32,60.0240096,63f3627e35e0e400ca50c26b,64ce5acb97489d65b14ecc7a,64cf4be23a5ec641e45aa512,,,,,,,ctch,resources/DBN.BMP,resources/DP.BMP,Door3,0.315972222,-0.049768519,1,0,0,1.008,optionRight,70,1130,1,18,0,18,0,1,,,,,,,,,,,,,,,,,,,,,,,,,,,,,,,,,,,,,,,
,,,,,,,,2023-08-06_08h29.54.918,HF_wild_card,2022.2.4,Win32,60.0240096,63f3627e35e0e400ca50c26b,64ce5acb97489d65b14ecc7a,64cf4be23a5ec641e45aa512,,,,,,,decisionTrl,resources/DBN.BMP,resources/DG.BMP,Door1,0.322916667,0.001157407,1,0,0,0.896,optionRight,30,1160,1,19,0,19,0,1,,,,,,,,,,,,,,,,,,,,,,,,,,,,,,,,,,,,,,,
,,,,,,,,2023-08-06_08h29.54.918,HF_wild_card,2022.2.4,Win32,60.0240096,63f3627e35e0e400ca50c26b,64ce5acb97489d65b14ecc7a,64cf4be23a5ec641e45aa512,,,,,,,decisionTrl,resources/DB.BMP,resources/DP.BMP,Door4,0.019675926,-0.011574074,1,0,0,0.614,optionLeft,80,1240,1,20,0,20,0,1,,,,,,,,,,,,,,,,,,,,,,,,,,,,,,,,,,,,,,,
,,,,,,,,2023-08-06_08h29.54.918,HF_wild_card,2022.2.4,Win32,60.0240096,63f3627e35e0e400ca50c26b,64ce5acb97489d65b14ecc7a,64cf4be23a5ec641e45aa512,,,,,,,ctch,resources/DP.BMP,resources/DBN.BMP,Door3,-0.234953704,0.025462963,1,0,0,1.027,optionLeft,70,1310,1,21,0,21,0,1,,,,,,,,,,,,,,,,,,,,,,,,,,,,,,,,,,,,,,,
,,,,,,,,2023-08-06_08h29.54.918,HF_wild_card,2022.2.4,Win32,60.0240096,63f3627e35e0e400ca50c26b,64ce5acb97489d65b14ecc7a,64cf4be23a5ec641e45aa512,,,,,,,decisionTrl,resources/DP.BMP,resources/DB.BMP,Door3,-0.186342593,0.009259259,1,0,0,0.991,optionLeft,70,1380,1,22,0,22,0,1,,,,,,,,,,,,,,,,,,,,,,,,,,,,,,,,,,,,,,,
,,,,,,,,2023-08-06_08h29.54.918,HF_wild_card,2022.2.4,Win32,60.0240096,63f3627e35e0e400ca50c26b,64ce5acb97489d65b14ecc7a,64cf4be23a5ec641e45aa512,,,,,,,decisionTrl,resources/DR.BMP,resources/DG.BMP,WildCard_Ex,-0.335648148,-0.030092593,1,0,0,1.536,optionLeft,5,1385,1,23,0,23,0,1,,,,,,,,,,,,,,,,,,,,,,,,,,,,,,,,,,,,,,,
,,,,,,,,2023-08-06_08h29.54.918,HF_wild_card,2022.2.4,Win32,60.0240096,63f3627e35e0e400ca50c26b,64ce5acb97489d65b14ecc7a,64cf4be23a5ec641e45aa512,,,,,,,sngl,resources/Empty.png,resources/DP.BMP,Door3,0.359953704,-0.041666667,1,0,0,1.041,optionRight,70,1455,1,24,0,24,0,1,,,,,,,,,,,,,,,,,,,,,,,,,,,,,,,,,,,,,,,
,,,,,,,,2023-08-06_08h29.54.918,HF_wild_card,2022.2.4,Win32,60.0240096,63f3627e35e0e400ca50c26b,64ce5acb97489d65b14ecc7a,64cf4be23a5ec641e45aa512,,,,,,,decisionTrl,resources/DR.BMP,resources/DBN.BMP,WildCard_Ex,-0.47337963,0.052083333,1,0,0,1.109,optionLeft,5,1460,1,25,0,25,0,1,,,,,,,,,,,,,,,,,,,,,,,,,,,,,,,,,,,,,,,
,,,,,,,,2023-08-06_08h29.54.918,HF_wild_card,2022.2.4,Win32,60.0240096,63f3627e35e0e400ca50c26b,64ce5acb97489d65b14ecc7a,64cf4be23a5ec641e45aa512,,,,,,,sngl,resources/DG.BMP,resources/Empty.png,Door1,-0.283564815,0.085648148,1,0,0,0.926,optionLeft,30,1490,1,26,0,26,0,1,,,,,,,,,,,,,,,,,,,,,,,,,,,,,,,,,,,,,,,
,,,,,,,,2023-08-06_08h29.54.918,HF_wild_card,2022.2.4,Win32,60.0240096,63f3627e35e0e400ca50c26b,64ce5acb97489d65b14ecc7a,64cf4be23a5ec641e45aa512,,,,,,,decisionTrl,resources/DB.BMP,resources/DP.BMP,Door3,0.247685185,-0.070601852,1,0,0,1.058,optionRight,70,1560,1,27,0,27,0,1,,,,,,,,,,,,,,,,,,,,,,,,,,,,,,,,,,,,,,,
,,,,,,,,2023-08-06_08h29.54.918,HF_wild_card,2022.2.4,Win32,60.0240096,63f3627e35e0e400ca50c26b,64ce5acb97489d65b14ecc7a,64cf4be23a5ec641e45aa512,,,,,,,decisionTrl,resources/DG.BMP,resources/DBN.BMP,Door1,-0.336805556,0.013888889,1,0,0,0.926,optionLeft,30,1590,1,28,0,28,0,1,,,,,,,,,,,,,,,,,,,,,,,,,,,,,,,,,,,,,,,
,,,,,,,,2023-08-06_08h29.54.918,HF_wild_card,2022.2.4,Win32,60.0240096,63f3627e35e0e400ca50c26b,64ce5acb97489d65b14ecc7a,64cf4be23a5ec641e45aa512,,,,,,,decisionTrl,resources/DG.BMP,resources/DBN.BMP,Door1,-0.349537037,-0.043981481,1,0,0,1.022,optionLeft,30,1620,1,29,0,29,0,1,,,,,,,,,,,,,,,,,,,,,,,,,,,,,,,,,,,,,,,
,,,,,,,,2023-08-06_08h29.54.918,HF_wild_card,2022.2.4,Win32,60.0240096,63f3627e35e0e400ca50c26b,64ce5acb97489d65b14ecc7a,64cf4be23a5ec641e45aa512,,,,,,,decisionTrl,resources/DG.BMP,resources/DR.BMP,WildCard_Ex,0.344907407,-0.065972222,1,0,0,0.875,optionRight,5,1625,1,30,0,30,0,1,,,,,,,,,,,,,,,,,,,,,,,,,,,,,,,,,,,,,,,
,,,,,,,,2023-08-06_08h29.54.918,HF_wild_card,2022.2.4,Win32,60.0240096,63f3627e35e0e400ca50c26b,64ce5acb97489d65b14ecc7a,64cf4be23a5ec641e45aa512,,,,,,,ctch,resources/DP.BMP,resources/DBN.BMP,Door3,-0.180555556,0.002314815,1,0,0,0.743,optionLeft,70,1695,1,31,0,31,0,1,,,,,,,,,,,,,,,,,,,,,,,,,,,,,,,,,,,,,,,
,,,,,,,,2023-08-06_08h29.54.918,HF_wild_card,2022.2.4,Win32,60.0240096,63f3627e35e0e400ca50c26b,64ce5acb97489d65b14ecc7a,64cf4be23a5ec641e45aa512,,,,,,,ctch,resources/DG.BMP,resources/DB.BMP,Door4,0.292824074,-0.023148148,1,0,0,1.443,optionRight,60,1755,1,32,0,32,0,1,,,,,,,,,,,,,,,,,,,,,,,,,,,,,,,,,,,,,,,
,,,,,,,,2023-08-06_08h29.54.918,HF_wild_card,2022.2.4,Win32,60.0240096,63f3627e35e0e400ca50c26b,64ce5acb97489d65b14ecc7a,64cf4be23a5ec641e45aa512,,,,,,,decisionTrl,resources/DBN.BMP,resources/DG.BMP,Door2,-0.209490741,0.025462963,1,0,0,1.579,optionLeft,40,1795,1,33,0,33,0,1,,,,,,,,,,,,,,,,,,,,,,,,,,,,,,,,,,,,,,,
,,,,,,,,2023-08-06_08h29.54.918,HF_wild_card,2022.2.4,Win32,60.0240096,63f3627e35e0e400ca50c26b,64ce5acb97489d65b14ecc7a,64cf4be23a5ec641e45aa512,,,,,,,sngl,resources/Empty.png,resources/DBN.BMP,Door2,0.43287037,-0.025462963,1,0,0,1.217,optionRight,20,1815,1,34,0,34,0,1,,,,,,,,,,,,,,,,,,,,,,,,,,,,,,,,,,,,,,,
,,,,,,,,2023-08-06_08h29.54.918,HF_wild_card,2022.2.4,Win32,60.0240096,63f3627e35e0e400ca50c26b,64ce5acb97489d65b14ecc7a,64cf4be23a5ec641e45aa512,,,,,,,sngl,resources/DR.BMP,resources/Empty.png,WildCard_Ex,-0.290509259,-0.008101852,1,0,0,0.807,optionLeft,5,1820,1,35,0,35,0,1,,,,,,,,,,,,,,,,,,,,,,,,,,,,,,,,,,,,,,,
,,,,,,,,2023-08-06_08h29.54.918,HF_wild_card,2022.2.4,Win32,60.0240096,63f3627e35e0e400ca50c26b,64ce5acb97489d65b14ecc7a,64cf4be23a5ec641e45aa512,,,,,,,ctch,resources/DG.BMP,resources/DB.BMP,Door4,0.334490741,-0.003472222,1,0,0,1.11,optionRight,60,1880,1,36,0,36,0,1,,,,,,,,,,,,,,,,,,,,,,,,,,,,,,,,,,,,,,,
,,,,,,,,2023-08-06_08h29.54.918,HF_wild_card,2022.2.4,Win32,60.0240096,63f3627e35e0e400ca50c26b,64ce5acb97489d65b14ecc7a,64cf4be23a5ec641e45aa512,,,,,,,sngl,resources/DBN.BMP,resources/Empty.png,Door2,-0.321759259,0.052083333,1,0,0,0.692,optionLeft,40,1920,1,37,0,37,0,1,,,,,,,,,,,,,,,,,,,,,,,,,,,,,,,,,,,,,,,
,,,,,,,,2023-08-06_08h29.54.918,HF_wild_card,2022.2.4,Win32,60.0240096,63f3627e35e0e400ca50c26b,64ce5acb97489d65b14ecc7a,64cf4be23a5ec641e45aa512,,,,,,,decisionTrl,resources/DB.BMP,resources/DP.BMP,Door4,-0.179398148,0.039351852,1,0,0,0.908,optionLeft,80,2000,1,38,0,38,0,1,,,,,,,,,,,,,,,,,,,,,,,,,,,,,,,,,,,,,,,
,,,,,,,,2023-08-06_08h29.54.918,HF_wild_card,2022.2.4,Win32,60.0240096,63f3627e35e0e400ca50c26b,64ce5acb97489d65b14ecc7a,64cf4be23a5ec641e45aa512,,,,,,,decisionTrl,resources/DR.BMP,resources/DP.BMP,WildCard_Ex,-0.375,0.048611111,1,0,0,0.939,optionLeft,95,2095,1,39,0,39,0,1,,,,,,,,,,,,,,,,,,,,,,,,,,,,,,,,,,,,,,,
,,,,,,,,2023-08-06_08h29.54.918,HF_wild_card,2022.2.4,Win32,60.0240096,63f3627e35e0e400ca50c26b,64ce5acb97489d65b14ecc7a,64cf4be23a5ec641e45aa512,,,,,,,decisionTrl,resources/DBN.BMP,resources/DG.BMP,Door1,0.335648148,-0.05787037,1,0,0,0.957,optionRight,30,2125,1,40,0,40,0,1,,,,,,,,,,,,,,,,,,,,,,,,,,,,,,,,,,,,,,,
,,,,,,,,2023-08-06_08h29.54.918,HF_wild_card,2022.2.4,Win32,60.0240096,63f3627e35e0e400ca50c26b,64ce5acb97489d65b14ecc7a,64cf4be23a5ec641e45aa512,,,,,,,sngl,resources/DB.BMP,resources/Empty.png,Door4,-0.335648148,0.001157407,1,0,0,0.989,optionLeft,80,2205,1,41,0,41,0,1,,,,,,,,,,,,,,,,,,,,,,,,,,,,,,,,,,,,,,,
,,,,,,,,2023-08-06_08h29.54.918,HF_wild_card,2022.2.4,Win32,60.0240096,63f3627e35e0e400ca50c26b,64ce5acb97489d65b14ecc7a,64cf4be23a5ec641e45aa512,,,,,,,sngl,resources/DR.BMP,resources/Empty.png,WildCard_Ex,-0.25462963,0.049768519,1,0,0,0.799,optionLeft,95,2300,1,42,0,42,0,1,,,,,,,,,,,,,,,,,,,,,,,,,,,,,,,,,,,,,,,
,,,,,,,,2023-08-06_08h29.54.918,HF_wild_card,2022.2.4,Win32,60.0240096,63f3627e35e0e400ca50c26b,64ce5acb97489d65b14ecc7a,64cf4be23a5ec641e45aa512,,,,,,,sngl,resources/Empty.png,resources/DG.BMP,Door1,0.270833333,-0.059027778,1,0,0,0.726,optionRight,30,2330,1,43,0,43,0,1,,,,,,,,,,,,,,,,,,,,,,,,,,,,,,,,,,,,,,,
,,,,,,,,2023-08-06_08h29.54.918,HF_wild_card,2022.2.4,Win32,60.0240096,63f3627e35e0e400ca50c26b,64ce5acb97489d65b14ecc7a,64cf4be23a5ec641e45aa512,,,,,,,,,,,,,,,,,,,,,,,,,,0,0,0,0,1,,,,,,,,,,,,,,,,,,,,,,,,,,,,,,,,,,
,,,,,,,,2023-08-06_08h29.54.918,HF_wild_card,2022.2.4,Win32,60.0240096,63f3627e35e0e400ca50c26b,64ce5acb97489d65b14ecc7a,64cf4be23a5ec641e45aa512,,,,,,,sngl,resources/DBN.BMP,resources/Empty.png,Door2,-0.3125,0.063657407,1,0,0,1.315,optionLeft,20,2350,2,0,0,0,0,1,,,,,,,,,,,,,,,,,,,,,,,,,,,,,,,,,,,,,,,
,,,,,,,,2023-08-06_08h29.54.918,HF_wild_card,2022.2.4,Win32,60.0240096,63f3627e35e0e400ca50c26b,64ce5acb97489d65b14ecc7a,64cf4be23a5ec641e45aa512,,,,,,,decisionTrl,resources/DP.BMP,resources/DB.BMP,Door4,0.288194444,-0.069444444,1,0,0,0.895,optionRight,60,2410,2,1,0,1,0,1,,,,,,,,,,,,,,,,,,,,,,,,,,,,,,,,,,,,,,,
,,,,,,,,2023-08-06_08h29.54.918,HF_wild_card,2022.2.4,Win32,60.0240096,63f3627e35e0e400ca50c26b,64ce5acb97489d65b14ecc7a,64cf4be23a5ec641e45aa512,,,,,,,ctch,resources/DP.BMP,resources/DBN.BMP,Door3,-0.460648148,0.065972222,1,0,0,0.829,optionLeft,70,2480,2,2,0,2,0,1,,,,,,,,,,,,,,,,,,,,,,,,,,,,,,,,,,,,,,,
,,,,,,,,2023-08-06_08h29.54.918,HF_wild_card,2022.2.4,Win32,60.0240096,63f3627e35e0e400ca50c26b,64ce5acb97489d65b14ecc7a,64cf4be23a5ec641e45aa512,,,,,,,sngl,resources/DB.BMP,resources/Empty.png,Door4,-0.327546296,0.12962963,1,0,0,0.756,optionLeft,60,2540,2,3,0,3,0,1,,,,,,,,,,,,,,,,,,,,,,,,,,,,,,,,,,,,,,,
,,,,,,,,2023-08-06_08h29.54.918,HF_wild_card,2022.2.4,Win32,60.0240096,63f3627e35e0e400ca50c26b,64ce5acb97489d65b14ecc7a,64cf4be23a5ec641e45aa512,,,,,,,decisionTrl,resources/DG.BMP,resources/DBN.BMP,Door1,-0.385416667,-0.027777778,1,0,0,1.034,optionLeft,30,2570,2,4,0,4,0,1,,,,,,,,,,,,,,,,,,,,,,,,,,,,,,,,,,,,,,,
,,,,,,,,2023-08-06_08h29.54.918,HF_wild_card,2022.2.4,Win32,60.0240096,63f3627e35e0e400ca50c26b,64ce5acb97489d65b14ecc7a,64cf4be23a5ec641e45aa512,,,,,,,decisionTrl,resources/DB.BMP,resources/DR.BMP,Door4,-0.358796296,-0.048611111,1,0,0,1.907,optionLeft,80,2650,2,5,0,5,0,1,,,,,,,,,,,,,,,,,,,,,,,,,,,,,,,,,,,,,,,
,,,,,,,,2023-08-06_08h29.54.918,HF_wild_card,2022.2.4,Win32,60.0240096,63f3627e35e0e400ca50c26b,64ce5acb97489d65b14ecc7a,64cf4be23a5ec641e45aa512,,,,,,,ctch,resources/DP.BMP,resources/DBN.BMP,Door3,-0.265046296,-0.048611111,1,0,0,1.066,optionLeft,70,2720,2,6,0,6,0,1,,,,,,,,,,,,,,,,,,,,,,,,,,,,,,,,,,,,,,,
,,,,,,,,2023-08-06_08h29.54.918,HF_wild_card,2022.2.4,Win32,60.0240096,63f3627e35e0e400ca50c26b,64ce5acb97489d65b14ecc7a,64cf4be23a5ec641e45aa512,,,,,,,decisionTrl,resources/DR.BMP,resources/DP.BMP,WildCard_Ex,-0.305555556,0.048611111,1,0,0,1.709,optionLeft,95,2815,2,7,0,7,0,1,,,,,,,,,,,,,,,,,,,,,,,,,,,,,,,,,,,,,,,
,,,,,,,,2023-08-06_08h29.54.918,HF_wild_card,2022.2.4,Win32,60.0240096,63f3627e35e0e400ca50c26b,64ce5acb97489d65b14ecc7a,64cf4be23a5ec641e45aa512,,,,,,,decisionTrl,resources/DB.BMP,resources/DP.BMP,Door4,-0.409722222,0.085648148,1,0,0,3.206,optionLeft,60,2875,2,8,0,8,0,1,,,,,,,,,,,,,,,,,,,,,,,,,,,,,,,,,,,,,,,
,,,,,,,,2023-08-06_08h29.54.918,HF_wild_card,2022.2.4,Win32,60.0240096,63f3627e35e0e400ca50c26b,64ce5acb97489d65b14ecc7a,64cf4be23a5ec641e45aa512,,,,,,,sngl,resources/Empty.png,resources/DG.BMP,Door1,0.288194444,-0.025462963,1,0,0,0.798,optionRight,30,2905,2,9,0,9,0,1,,,,,,,,,,,,,,,,,,,,,,,,,,,,,,,,,,,,,,,
,,,,,,,,2023-08-06_08h29.54.918,HF_wild_card,2022.2.4,Win32,60.0240096,63f3627e35e0e400ca50c26b,64ce5acb97489d65b14ecc7a,64cf4be23a5ec641e45aa512,,,,,,,decisionTrl,resources/DBN.BMP,resources/DR.BMP,WildCard_Ex,0.320601852,-0.003472222,1,0,0,1.552,optionRight,95,3000,2,10,0,10,0,1,,,,,,,,,,,,,,,,,,,,,,,,,,,,,,,,,,,,,,,
,,,,,,,,2023-08-06_08h29.54.918,HF_wild_card,2022.2.4,Win32,60.0240096,63f3627e35e0e400ca50c26b,64ce5acb97489d65b14ecc7a,64cf4be23a5ec641e45aa512,,,,,,,sngl,resources/Empty.png,resources/DP.BMP,Door3,0.310185185,0.001157407,1,0,0,0.907,optionRight,70,3070,2,11,0,11,0,1,,,,,,,,,,,,,,,,,,,,,,,,,,,,,,,,,,,,,,,
,,,,,,,,2023-08-06_08h29.54.918,HF_wild_card,2022.2.4,Win32,60.0240096,63f3627e35e0e400ca50c26b,64ce5acb97489d65b14ecc7a,64cf4be23a5ec641e45aa512,,,,,,,ctch,resources/DBN.BMP,resources/DP.BMP,Door3,0.203703704,0.045138889,1,0,0,0.974,optionRight,70,3140,2,12,0,12,0,1,,,,,,,,,,,,,,,,,,,,,,,,,,,,,,,,,,,,,,,
,,,,,,,,2023-08-06_08h29.54.918,HF_wild_card,2022.2.4,Win32,60.0240096,63f3627e35e0e400ca50c26b,64ce5acb97489d65b14ecc7a,64cf4be23a5ec641e45aa512,,,,,,,decisionTrl,resources/DR.BMP,resources/DBN.BMP,WildCard_Ex,-0.30787037,0.011574074,1,0,0,0.763,optionLeft,95,3235,2,13,0,13,0,1,,,,,,,,,,,,,,,,,,,,,,,,,,,,,,,,,,,,,,,
,,,,,,,,2023-08-06_08h29.54.918,HF_wild_card,2022.2.4,Win32,60.0240096,63f3627e35e0e400ca50c26b,64ce5acb97489d65b14ecc7a,64cf4be23a5ec641e45aa512,,,,,,,ctch,resources/DG.BMP,resources/DB.BMP,Door4,0.229166667,0.006944444,1,0,0,2.108,optionRight,80,3315,2,14,0,14,0,1,,,,,,,,,,,,,,,,,,,,,,,,,,,,,,,,,,,,,,,
,,,,,,,,2023-08-06_08h29.54.918,HF_wild_card,2022.2.4,Win32,60.0240096,63f3627e35e0e400ca50c26b,64ce5acb97489d65b14ecc7a,64cf4be23a5ec641e45aa512,,,,,,,sngl,resources/Empty.png,resources/DR.BMP,WildCard_Ex,0.407407407,-0.12037037,1,0,0,3.907,optionRight,5,3320,2,15,0,15,0,1,,,,,,,,,,,,,,,,,,,,,,,,,,,,,,,,,,,,,,,
,,,,,,,,2023-08-06_08h29.54.918,HF_wild_card,2022.2.4,Win32,60.0240096,63f3627e35e0e400ca50c26b,64ce5acb97489d65b14ecc7a,64cf4be23a5ec641e45aa512,,,,,,,decisionTrl,resources/DB.BMP,resources/DP.BMP,Door4,-0.33912037,0.002314815,1,0,0,2.553,optionLeft,60,3380,2,16,0,16,0,1,,,,,,,,,,,,,,,,,,,,,,,,,,,,,,,,,,,,,,,
,,,,,,,,2023-08-06_08h29.54.918,HF_wild_card,2022.2.4,Win32,60.0240096,63f3627e35e0e400ca50c26b,64ce5acb97489d65b14ecc7a,64cf4be23a5ec641e45aa512,,,,,,,decisionTrl,resources/DP.BMP,resources/DB.BMP,Door3,-0.376157407,-0.025462963,1,0,0,1.413,optionLeft,70,3450,2,17,0,17,0,1,,,,,,,,,,,,,,,,,,,,,,,,,,,,,,,,,,,,,,,
,,,,,,,,2023-08-06_08h29.54.918,HF_wild_card,2022.2.4,Win32,60.0240096,63f3627e35e0e400ca50c26b,64ce5acb97489d65b14ecc7a,64cf4be23a5ec641e45aa512,,,,,,,sngl,resources/DR.BMP,resources/Empty.png,WildCard_Ex,-0.399305556,0.038194444,1,0,0,0.874,optionLeft,95,3545,2,18,0,18,0,1,,,,,,,,,,,,,,,,,,,,,,,,,,,,,,,,,,,,,,,
,,,,,,,,2023-08-06_08h29.54.918,HF_wild_card,2022.2.4,Win32,60.0240096,63f3627e35e0e400ca50c26b,64ce5acb97489d65b14ecc7a,64cf4be23a5ec641e45aa512,,,,,,,decisionTrl,resources/DR.BMP,resources/DB.BMP,Door4,0.305555556,-0.019675926,1,0,0,0.975,optionRight,80,3625,2,19,0,19,0,1,,,,,,,,,,,,,,,,,,,,,,,,,,,,,,,,,,,,,,,
,,,,,,,,2023-08-06_08h29.54.918,HF_wild_card,2022.2.4,Win32,60.0240096,63f3627e35e0e400ca50c26b,64ce5acb97489d65b14ecc7a,64cf4be23a5ec641e45aa512,,,,,,,sngl,resources/Empty.png,resources/DB.BMP,Door4,0.446759259,-0.085648148,1,0,0,0.759,optionRight,80,3705,2,20,0,20,0,1,,,,,,,,,,,,,,,,,,,,,,,,,,,,,,,,,,,,,,,
,,,,,,,,2023-08-06_08h29.54.918,HF_wild_card,2022.2.4,Win32,60.0240096,63f3627e35e0e400ca50c26b,64ce5acb97489d65b14ecc7a,64cf4be23a5ec641e45aa512,,,,,,,decisionTrl,resources/DG.BMP,resources/DR.BMP,Door1,-0.287037037,0.061342593,1,0,0,0.858,optionLeft,30,3735,2,21,0,21,0,1,,,,,,,,,,,,,,,,,,,,,,,,,,,,,,,,,,,,,,,
,,,,,,,,2023-08-06_08h29.54.918,HF_wild_card,2022.2.4,Win32,60.0240096,63f3627e35e0e400ca50c26b,64ce5acb97489d65b14ecc7a,64cf4be23a5ec641e45aa512,,,,,,,decisionTrl,resources/DB.BMP,resources/DP.BMP,Door3,0.331018519,0.018518519,1,0,0,0.858,optionRight,70,3805,2,22,0,22,0,1,,,,,,,,,,,,,,,,,,,,,,,,,,,,,,,,,,,,,,,
,,,,,,,,2023-08-06_08h29.54.918,HF_wild_card,2022.2.4,Win32,60.0240096,63f3627e35e0e400ca50c26b,64ce5acb97489d65b14ecc7a,64cf4be23a5ec641e45aa512,,,,,,,decisionTrl,resources/DR.BMP,resources/DG.BMP,WildCard_Ex,-0.315972222,-0.02662037,1,0,0,0.892,optionLeft,95,3900,2,23,0,23,0,1,,,,,,,,,,,,,,,,,,,,,,,,,,,,,,,,,,,,,,,
,,,,,,,,2023-08-06_08h29.54.918,HF_wild_card,2022.2.4,Win32,60.0240096,63f3627e35e0e400ca50c26b,64ce5acb97489d65b14ecc7a,64cf4be23a5ec641e45aa512,,,,,,,decisionTrl,resources/DBN.BMP,resources/DG.BMP,Door1,0.407407407,-0.075231481,1,0,0,0.73,optionRight,30,3930,2,24,0,24,0,1,,,,,,,,,,,,,,,,,,,,,,,,,,,,,,,,,,,,,,,
,,,,,,,,2023-08-06_08h29.54.918,HF_wild_card,2022.2.4,Win32,60.0240096,63f3627e35e0e400ca50c26b,64ce5acb97489d65b14ecc7a,64cf4be23a5ec641e45aa512,,,,,,,decisionTrl,resources/DP.BMP,resources/DB.BMP,Door3,-0.287037037,-0.006944444,1,0,0,0.787,optionLeft,70,4000,2,25,0,25,0,1,,,,,,,,,,,,,,,,,,,,,,,,,,,,,,,,,,,,,,,
,,,,,,,,2023-08-06_08h29.54.918,HF_wild_card,2022.2.4,Win32,60.0240096,63f3627e35e0e400ca50c26b,64ce5acb97489d65b14ecc7a,64cf4be23a5ec641e45aa512,,,,,,,decisionTrl,resources/DBN.BMP,resources/DG.BMP,Door1,0.275462963,-0.027777778,1,0,0,0.857,optionRight,30,4030,2,26,0,26,0,1,,,,,,,,,,,,,,,,,,,,,,,,,,,,,,,,,,,,,,,
,,,,,,,,2023-08-06_08h29.54.918,HF_wild_card,2022.2.4,Win32,60.0240096,63f3627e35e0e400ca50c26b,64ce5acb97489d65b14ecc7a,64cf4be23a5ec641e45aa512,,,,,,,ctch,resources/DB.BMP,resources/DG.BMP,Door4,-0.346064815,0.05787037,1,0,0,0.728,optionLeft,60,4090,2,27,0,27,0,1,,,,,,,,,,,,,,,,,,,,,,,,,,,,,,,,,,,,,,,
,,,,,,,,2023-08-06_08h29.54.918,HF_wild_card,2022.2.4,Win32,60.0240096,63f3627e35e0e400ca50c26b,64ce5acb97489d65b14ecc7a,64cf4be23a5ec641e45aa512,,,,,,,decisionTrl,resources/DG.BMP,resources/DBN.BMP,Door1,-0.224537037,-0.046296296,1,0,0,0.869,optionLeft,30,4120,2,28,0,28,0,1,,,,,,,,,,,,,,,,,,,,,,,,,,,,,,,,,,,,,,,
,,,,,,,,2023-08-06_08h29.54.918,HF_wild_card,2022.2.4,Win32,60.0240096,63f3627e35e0e400ca50c26b,64ce5acb97489d65b14ecc7a,64cf4be23a5ec641e45aa512,,,,,,,decisionTrl,resources/DP.BMP,resources/DB.BMP,Door4,0.280092593,0.020833333,1,0,0,0.876,optionRight,60,4180,2,29,0,29,0,1,,,,,,,,,,,,,,,,,,,,,,,,,,,,,,,,,,,,,,,
,,,,,,,,2023-08-06_08h29.54.918,HF_wild_card,2022.2.4,Win32,60.0240096,63f3627e35e0e400ca50c26b,64ce5acb97489d65b14ecc7a,64cf4be23a5ec641e45aa512,,,,,,,sngl,resources/Empty.png,resources/DR.BMP,WildCard_Ex,0.291666667,-0.025462963,1,0,0,0.723,optionRight,95,4275,2,30,0,30,0,1,,,,,,,,,,,,,,,,,,,,,,,,,,,,,,,,,,,,,,,
,,,,,,,,2023-08-06_08h29.54.918,HF_wild_card,2022.2.4,Win32,60.0240096,63f3627e35e0e400ca50c26b,64ce5acb97489d65b14ecc7a,64cf4be23a5ec641e45aa512,,,,,,,decisionTrl,resources/DB.BMP,resources/DP.BMP,Door4,-0.28125,0.034722222,1,0,0,0.632,optionLeft,60,4335,2,31,0,31,0,1,,,,,,,,,,,,,,,,,,,,,,,,,,,,,,,,,,,,,,,
,,,,,,,,2023-08-06_08h29.54.918,HF_wild_card,2022.2.4,Win32,60.0240096,63f3627e35e0e400ca50c26b,64ce5acb97489d65b14ecc7a,64cf4be23a5ec641e45aa512,,,,,,,decisionTrl,resources/DBN.BMP,resources/DG.BMP,Door1,0.27662037,-0.002314815,1,0,0,0.78,optionRight,30,4365,2,32,0,32,0,1,,,,,,,,,,,,,,,,,,,,,,,,,,,,,,,,,,,,,,,
,,,,,,,,2023-08-06_08h29.54.918,HF_wild_card,2022.2.4,Win32,60.0240096,63f3627e35e0e400ca50c26b,64ce5acb97489d65b14ecc7a,64cf4be23a5ec641e45aa512,,,,,,,ctch,resources/DB.BMP,resources/DG.BMP,Door4,-0.269675926,-0.018518519,1,0,0,0.741,optionLeft,80,4445,2,33,0,33,0,1,,,,,,,,,,,,,,,,,,,,,,,,,,,,,,,,,,,,,,,
,,,,,,,,2023-08-06_08h29.54.918,HF_wild_card,2022.2.4,Win32,60.0240096,63f3627e35e0e400ca50c26b,64ce5acb97489d65b14ecc7a,64cf4be23a5ec641e45aa512,,,,,,,sngl,resources/DR.BMP,resources/Empty.png,WildCard_Ex,-0.246527778,0.108796296,1,0,0,0.742,optionLeft,5,4450,2,34,0,34,0,1,,,,,,,,,,,,,,,,,,,,,,,,,,,,,,,,,,,,,,,
,,,,,,,,2023-08-06_08h29.54.918,HF_wild_card,2022.2.4,Win32,60.0240096,63f3627e35e0e400ca50c26b,64ce5acb97489d65b14ecc7a,64cf4be23a5ec641e45aa512,,,,,,,decisionTrl,resources/DP.BMP,resources/DR.BMP,WildCard_Ex,0.353009259,-0.06712963,1,0,0,0.789,optionRight,5,4455,2,35,0,35,0,1,,,,,,,,,,,,,,,,,,,,,,,,,,,,,,,,,,,,,,,
,,,,,,,,2023-08-06_08h29.54.918,HF_wild_card,2022.2.4,Win32,60.0240096,63f3627e35e0e400ca50c26b,64ce5acb97489d65b14ecc7a,64cf4be23a5ec641e45aa512,,,,,,,decisionTrl,resources/DG.BMP,resources/DBN.BMP,Door1,-0.244212963,0.121527778,1,0,0,0.724,optionLeft,30,4485,2,36,0,36,0,1,,,,,,,,,,,,,,,,,,,,,,,,,,,,,,,,,,,,,,,
,,,,,,,,2023-08-06_08h29.54.918,HF_wild_card,2022.2.4,Win32,60.0240096,63f3627e35e0e400ca50c26b,64ce5acb97489d65b14ecc7a,64cf4be23a5ec641e45aa512,,,,,,,ctch,resources/DG.BMP,resources/DB.BMP,Door1,-0.251157407,0.034722222,1,0,0,0.809,optionLeft,30,4515,2,37,0,37,0,1,,,,,,,,,,,,,,,,,,,,,,,,,,,,,,,,,,,,,,,
,,,,,,,,2023-08-06_08h29.54.918,HF_wild_card,2022.2.4,Win32,60.0240096,63f3627e35e0e400ca50c26b,64ce5acb97489d65b14ecc7a,64cf4be23a5ec641e45aa512,,,,,,,decisionTrl,resources/DG.BMP,resources/DBN.BMP,Door2,0.247685185,0.021990741,1,0,0,2.155,optionRight,40,4555,2,38,0,38,0,1,,,,,,,,,,,,,,,,,,,,,,,,,,,,,,,,,,,,,,,
,,,,,,,,2023-08-06_08h29.54.918,HF_wild_card,2022.2.4,Win32,60.0240096,63f3627e35e0e400ca50c26b,64ce5acb97489d65b14ecc7a,64cf4be23a5ec641e45aa512,,,,,,,sngl,resources/DP.BMP,resources/Empty.png,Door3,-0.290509259,0.016203704,1,0,0,0.639,optionLeft,70,4625,2,39,0,39,0,1,,,,,,,,,,,,,,,,,,,,,,,,,,,,,,,,,,,,,,,
,,,,,,,,2023-08-06_08h29.54.918,HF_wild_card,2022.2.4,Win32,60.0240096,63f3627e35e0e400ca50c26b,64ce5acb97489d65b14ecc7a,64cf4be23a5ec641e45aa512,,,,,,,ctch,resources/DBN.BMP,resources/DP.BMP,Door2,-0.239583333,0.033564815,1,0,0,0.674,optionLeft,20,4645,2,40,0,40,0,1,,,,,,,,,,,,,,,,,,,,,,,,,,,,,,,,,,,,,,,
,,,,,,,,2023-08-06_08h29.54.918,HF_wild_card,2022.2.4,Win32,60.0240096,63f3627e35e0e400ca50c26b,64ce5acb97489d65b14ecc7a,64cf4be23a5ec641e45aa512,,,,,,,sngl,resources/DG.BMP,resources/Empty.png,Door1,-0.199074074,0.037037037,1,0,0,0.751,optionLeft,30,4675,2,41,0,41,0,1,,,,,,,,,,,,,,,,,,,,,,,,,,,,,,,,,,,,,,,
,,,,,,,,2023-08-06_08h29.54.918,HF_wild_card,2022.2.4,Win32,60.0240096,63f3627e35e0e400ca50c26b,64ce5acb97489d65b14ecc7a,64cf4be23a5ec641e45aa512,,,,,,,sngl,resources/Empty.png,resources/DBN.BMP,Door2,0.189814815,-0.012731481,1,0,0,0.774,optionRight,40,4715,2,42,0,42,0,1,,,,,,,,,,,,,,,,,,,,,,,,,,,,,,,,,,,,,,,
,,,,,,,,2023-08-06_08h29.54.918,HF_wild_card,2022.2.4,Win32,60.0240096,63f3627e35e0e400ca50c26b,64ce5acb97489d65b14ecc7a,64cf4be23a5ec641e45aa512,,,,,,,decisionTrl,resources/DBN.BMP,resources/DG.BMP,Door1,0.31712963,-0.018518519,1,0,0,0.895,optionRight,30,4745,2,43,0,43,0,1,,,,,,,,,,,,,,,,,,,,,,,,,,,,,,,,,,,,,,,
,,,,,,,,2023-08-06_08h29.54.918,HF_wild_card,2022.2.4,Win32,60.0240096,63f3627e35e0e400ca50c26b,64ce5acb97489d65b14ecc7a,64cf4be23a5ec641e45aa512,,,,,,,,,,,,,,,,,,,,,,,,,,1,0,1,0,1,,,,,,,,,,,,,,,,,,,,,,,,,,,,,,,,,,
,,,,,,,,2023-08-06_08h29.54.918,HF_wild_card,2022.2.4,Win32,60.0240096,63f3627e35e0e400ca50c26b,64ce5acb97489d65b14ecc7a,64cf4be23a5ec641e45aa512,,,,,,,sngl,resources/DR.BMP,resources/Empty.png,WildCard_Ex,-0.34375,0.03125,1,0,0,0.948,optionLeft,5,4750,3,0,0,0,0,1,,,,,,,,,,,,,,,,,,,,,,,,,,,,,,,,,,,,,,,
,,,,,,,,2023-08-06_08h29.54.918,HF_wild_card,2022.2.4,Win32,60.0240096,63f3627e35e0e400ca50c26b,64ce5acb97489d65b14ecc7a,64cf4be23a5ec641e45aa512,,,,,,,decisionTrl,resources/DBN.BMP,resources/DG.BMP,Door1,0.201388889,0.05787037,1,0,0,6.39,optionRight,30,4780,3,1,0,1,0,1,,,,,,,,,,,,,,,,,,,,,,,,,,,,,,,,,,,,,,,
,,,,,,,,2023-08-06_08h29.54.918,HF_wild_card,2022.2.4,Win32,60.0240096,63f3627e35e0e400ca50c26b,64ce5acb97489d65b14ecc7a,64cf4be23a5ec641e45aa512,,,,,,,decisionTrl,resources/DG.BMP,resources/DBN.BMP,Door1,-0.327546296,0.063657407,1,0,0,4.422,optionLeft,30,4810,3,2,0,2,0,1,,,,,,,,,,,,,,,,,,,,,,,,,,,,,,,,,,,,,,,
,,,,,,,,2023-08-06_08h29.54.918,HF_wild_card,2022.2.4,Win32,60.0240096,63f3627e35e0e400ca50c26b,64ce5acb97489d65b14ecc7a,64cf4be23a5ec641e45aa512,,,,,,,sngl,resources/DBN.BMP,resources/Empty.png,Door2,-0.259259259,0.060185185,1,0,0,4.988,optionLeft,40,4850,3,3,0,3,0,1,,,,,,,,,,,,,,,,,,,,,,,,,,,,,,,,,,,,,,,
,,,,,,,,2023-08-06_08h29.54.918,HF_wild_card,2022.2.4,Win32,60.0240096,63f3627e35e0e400ca50c26b,64ce5acb97489d65b14ecc7a,64cf4be23a5ec641e45aa512,,,,,,,sngl,resources/Empty.png,resources/DB.BMP,Door4,0.334490741,-0.079861111,1,0,0,6.622,optionRight,60,4910,3,4,0,4,0,1,,,,,,,,,,,,,,,,,,,,,,,,,,,,,,,,,,,,,,,
,,,,,,,,2023-08-06_08h29.54.918,HF_wild_card,2022.2.4,Win32,60.0240096,63f3627e35e0e400ca50c26b,64ce5acb97489d65b14ecc7a,64cf4be23a5ec641e45aa512,,,,,,,sngl,resources/Empty.png,resources/DR.BMP,WildCard_Ex,0.337962963,-0.119212963,1,0,0,2.448,optionRight,5,4915,3,5,0,5,0,1,,,,,,,,,,,,,,,,,,,,,,,,,,,,,,,,,,,,,,,
,,,,,,,,2023-08-06_08h29.54.918,HF_wild_card,2022.2.4,Win32,60.0240096,63f3627e35e0e400ca50c26b,64ce5acb97489d65b14ecc7a,64cf4be23a5ec641e45aa512,,,,,,,decisionTrl,resources/DP.BMP,resources/DB.BMP,Door3,-0.414351852,0.053240741,1,0,0,1.891,optionLeft,70,4985,3,6,0,6,0,1,,,,,,,,,,,,,,,,,,,,,,,,,,,,,,,,,,,,,,,
,,,,,,,,2023-08-06_08h29.54.918,HF_wild_card,2022.2.4,Win32,60.0240096,63f3627e35e0e400ca50c26b,64ce5acb97489d65b14ecc7a,64cf4be23a5ec641e45aa512,,,,,,,ctch,resources/DP.BMP,resources/DBN.BMP,Door3,-0.295138889,-0.028935185,1,0,0,0.942,optionLeft,70,5055,3,7,0,7,0,1,,,,,,,,,,,,,,,,,,,,,,,,,,,,,,,,,,,,,,,
,,,,,,,,2023-08-06_08h29.54.918,HF_wild_card,2022.2.4,Win32,60.0240096,63f3627e35e0e400ca50c26b,64ce5acb97489d65b14ecc7a,64cf4be23a5ec641e45aa512,,,,,,,decisionTrl,resources/DR.BMP,resources/DG.BMP,WildCard_Ex,-0.350694444,0.059027778,1,0,0,0.875,optionLeft,95,5150,3,8,0,8,0,1,,,,,,,,,,,,,,,,,,,,,,,,,,,,,,,,,,,,,,,
,,,,,,,,2023-08-06_08h29.54.918,HF_wild_card,2022.2.4,Win32,60.0240096,63f3627e35e0e400ca50c26b,64ce5acb97489d65b14ecc7a,64cf4be23a5ec641e45aa512,,,,,,,sngl,resources/Empty.png,resources/DP.BMP,Door3,0.392361111,-0.048611111,1,0,0,0.708,optionRight,70,5220,3,9,0,9,0,1,,,,,,,,,,,,,,,,,,,,,,,,,,,,,,,,,,,,,,,
,,,,,,,,2023-08-06_08h29.54.918,HF_wild_card,2022.2.4,Win32,60.0240096,63f3627e35e0e400ca50c26b,64ce5acb97489d65b14ecc7a,64cf4be23a5ec641e45aa512,,,,,,,decisionTrl,resources/DBN.BMP,resources/DG.BMP,Door2,-0.386574074,0.083333333,1,0,0,0.659,optionLeft,20,5240,3,10,0,10,0,1,,,,,,,,,,,,,,,,,,,,,,,,,,,,,,,,,,,,,,,
,,,,,,,,2023-08-06_08h29.54.918,HF_wild_card,2022.2.4,Win32,60.0240096,63f3627e35e0e400ca50c26b,64ce5acb97489d65b14ecc7a,64cf4be23a5ec641e45aa512,,,,,,,decisionTrl,resources/DB.BMP,resources/DP.BMP,Door3,0.334490741,-0.002314815,1,0,0,0.825,optionRight,70,5310,3,11,0,11,0,1,,,,,,,,,,,,,,,,,,,,,,,,,,,,,,,,,,,,,,,
,,,,,,,,2023-08-06_08h29.54.918,HF_wild_card,2022.2.4,Win32,60.0240096,63f3627e35e0e400ca50c26b,64ce5acb97489d65b14ecc7a,64cf4be23a5ec641e45aa512,,,,,,,decisionTrl,resources/DR.BMP,resources/DB.BMP,Door4,0.395833333,-0.043981481,1,0,0,0.808,optionRight,80,5390,3,12,0,12,0,1,,,,,,,,,,,,,,,,,,,,,,,,,,,,,,,,,,,,,,,
,,,,,,,,2023-08-06_08h29.54.918,HF_wild_card,2022.2.4,Win32,60.0240096,63f3627e35e0e400ca50c26b,64ce5acb97489d65b14ecc7a,64cf4be23a5ec641e45aa512,,,,,,,sngl,resources/Empty.png,resources/DG.BMP,Door1,0.289351852,-0.090277778,1,0,0,0.826,optionRight,30,5420,3,13,0,13,0,1,,,,,,,,,,,,,,,,,,,,,,,,,,,,,,,,,,,,,,,
,,,,,,,,2023-08-06_08h29.54.918,HF_wild_card,2022.2.4,Win32,60.0240096,63f3627e35e0e400ca50c26b,64ce5acb97489d65b14ecc7a,64cf4be23a5ec641e45aa512,,,,,,,decisionTrl,resources/DG.BMP,resources/DR.BMP,Door1,-0.259259259,0.06712963,1,0,0,0.908,optionLeft,30,5450,3,14,0,14,0,1,,,,,,,,,,,,,,,,,,,,,,,,,,,,,,,,,,,,,,,
,,,,,,,,2023-08-06_08h29.54.918,HF_wild_card,2022.2.4,Win32,60.0240096,63f3627e35e0e400ca50c26b,64ce5acb97489d65b14ecc7a,64cf4be23a5ec641e45aa512,,,,,,,sngl,resources/Empty.png,resources/DR.BMP,WildCard_Ex,0.298611111,-0.024305556,1,0,0,0.667,optionRight,95,5545,3,15,0,15,0,1,,,,,,,,,,,,,,,,,,,,,,,,,,,,,,,,,,,,,,,
,,,,,,,,2023-08-06_08h29.54.918,HF_wild_card,2022.2.4,Win32,60.0240096,63f3627e35e0e400ca50c26b,64ce5acb97489d65b14ecc7a,64cf4be23a5ec641e45aa512,,,,,,,decisionTrl,resources/DP.BMP,resources/DR.BMP,Door3,-0.232638889,0.02662037,1,0,0,0.941,optionLeft,70,5615,3,16,0,16,0,1,,,,,,,,,,,,,,,,,,,,,,,,,,,,,,,,,,,,,,,
,,,,,,,,2023-08-06_08h29.54.918,HF_wild_card,2022.2.4,Win32,60.0240096,63f3627e35e0e400ca50c26b,64ce5acb97489d65b14ecc7a,64cf4be23a5ec641e45aa512,,,,,,,decisionTrl,resources/DP.BMP,resources/DB.BMP,Door4,0.263888889,-0.06712963,1,0,0,0.71,optionRight,60,5675,3,17,0,17,0,1,,,,,,,,,,,,,,,,,,,,,,,,,,,,,,,,,,,,,,,
,,,,,,,,2023-08-06_08h29.54.918,HF_wild_card,2022.2.4,Win32,60.0240096,63f3627e35e0e400ca50c26b,64ce5acb97489d65b14ecc7a,64cf4be23a5ec641e45aa512,,,,,,,decisionTrl,resources/DB.BMP,resources/DP.BMP,Door4,-0.37037037,0.010416667,1,0,0,0.813,optionLeft,80,5755,3,18,0,18,0,1,,,,,,,,,,,,,,,,,,,,,,,,,,,,,,,,,,,,,,,
,,,,,,,,2023-08-06_08h29.54.918,HF_wild_card,2022.2.4,Win32,60.0240096,63f3627e35e0e400ca50c26b,64ce5acb97489d65b14ecc7a,64cf4be23a5ec641e45aa512,,,,,,,ctch,resources/DP.BMP,resources/DBN.BMP,Door3,-0.260416667,0.020833333,1,0,0,1.036,optionLeft,70,5825,3,19,0,19,0,1,,,,,,,,,,,,,,,,,,,,,,,,,,,,,,,,,,,,,,,
,,,,,,,,2023-08-06_08h29.54.918,HF_wild_card,2022.2.4,Win32,60.0240096,63f3627e35e0e400ca50c26b,64ce5acb97489d65b14ecc7a,64cf4be23a5ec641e45aa512,,,,,,,decisionTrl,resources/DBN.BMP,resources/DG.BMP,Door1,0.349537037,-0.083333333,1,0,0,0.996,optionRight,30,5855,3,20,0,20,0,1,,,,,,,,,,,,,,,,,,,,,,,,,,,,,,,,,,,,,,,
,,,,,,,,2023-08-06_08h29.54.918,HF_wild_card,2022.2.4,Win32,60.0240096,63f3627e35e0e400ca50c26b,64ce5acb97489d65b14ecc7a,64cf4be23a5ec641e45aa512,,,,,,,sngl,resources/DB.BMP,resources/Empty.png,Door4,-0.225694444,0.006944444,1,0,0,5.011,optionLeft,80,5935,3,21,0,21,0,1,,,,,,,,,,,,,,,,,,,,,,,,,,,,,,,,,,,,,,,
,,,,,,,,2023-08-06_08h29.54.918,HF_wild_card,2022.2.4,Win32,60.0240096,63f3627e35e0e400ca50c26b,64ce5acb97489d65b14ecc7a,64cf4be23a5ec641e45aa512,,,,,,,decisionTrl,resources/DG.BMP,resources/DBN.BMP,Door1,-0.435185185,0.063657407,1,0,0,0.829,optionLeft,30,5965,3,22,0,22,0,1,,,,,,,,,,,,,,,,,,,,,,,,,,,,,,,,,,,,,,,
,,,,,,,,2023-08-06_08h29.54.918,HF_wild_card,2022.2.4,Win32,60.0240096,63f3627e35e0e400ca50c26b,64ce5acb97489d65b14ecc7a,64cf4be23a5ec641e45aa512,,,,,,,sngl,resources/DR.BMP,resources/Empty.png,WildCard_Ex,-0.318287037,0.130787037,1,0,0,0.689,optionLeft,95,6060,3,23,0,23,0,1,,,,,,,,,,,,,,,,,,,,,,,,,,,,,,,,,,,,,,,
,,,,,,,,2023-08-06_08h29.54.918,HF_wild_card,2022.2.4,Win32,60.0240096,63f3627e35e0e400ca50c26b,64ce5acb97489d65b14ecc7a,64cf4be23a5ec641e45aa512,,,,,,,decisionTrl,resources/DR.BMP,resources/DP.BMP,WildCard_Ex,-0.297453704,0.068287037,1,0,0,0.773,optionLeft,95,6155,3,24,0,24,0,1,,,,,,,,,,,,,,,,,,,,,,,,,,,,,,,,,,,,,,,
,,,,,,,,2023-08-06_08h29.54.918,HF_wild_card,2022.2.4,Win32,60.0240096,63f3627e35e0e400ca50c26b,64ce5acb97489d65b14ecc7a,64cf4be23a5ec641e45aa512,,,,,,,decisionTrl,resources/DB.BMP,resources/DR.BMP,Door4,-0.3125,0.157407407,1,0,0,0.907,optionLeft,80,6235,3,25,0,25,0,1,,,,,,,,,,,,,,,,,,,,,,,,,,,,,,,,,,,,,,,
,,,,,,,,2023-08-06_08h29.54.918,HF_wild_card,2022.2.4,Win32,60.0240096,63f3627e35e0e400ca50c26b,64ce5acb97489d65b14ecc7a,64cf4be23a5ec641e45aa512,,,,,,,ctch,resources/DG.BMP,resources/DB.BMP,Door1,-0.369212963,0.104166667,1,0,0,0.893,optionLeft,30,6265,3,26,0,26,0,1,,,,,,,,,,,,,,,,,,,,,,,,,,,,,,,,,,,,,,,
,,,,,,,,2023-08-06_08h29.54.918,HF_wild_card,2022.2.4,Win32,60.0240096,63f3627e35e0e400ca50c26b,64ce5acb97489d65b14ecc7a,64cf4be23a5ec641e45aa512,,,,,,,decisionTrl,resources/DR.BMP,resources/DBN.BMP,WildCard_Ex,-0.299768519,0.05787037,1,0,0,5.203,optionLeft,5,6270,3,27,0,27,0,1,,,,,,,,,,,,,,,,,,,,,,,,,,,,,,,,,,,,,,,
,,,,,,,,2023-08-06_08h29.54.918,HF_wild_card,2022.2.4,Win32,60.0240096,63f3627e35e0e400ca50c26b,64ce5acb97489d65b14ecc7a,64cf4be23a5ec641e45aa512,,,,,,,decisionTrl,resources/DBN.BMP,resources/DR.BMP,WildCard_Ex,0.283564815,-0.217592593,1,0,0,1.084,optionRight,5,6275,3,28,0,28,0,1,,,,,,,,,,,,,,,,,,,,,,,,,,,,,,,,,,,,,,,
,,,,,,,,2023-08-06_08h29.54.918,HF_wild_card,2022.2.4,Win32,60.0240096,63f3627e35e0e400ca50c26b,64ce5acb97489d65b14ecc7a,64cf4be23a5ec641e45aa512,,,,,,,ctch,resources/DBN.BMP,resources/DP.BMP,Door3,0.422453704,0.020833333,1,0,0,1.024,optionRight,70,6345,3,29,0,29,0,1,,,,,,,,,,,,,,,,,,,,,,,,,,,,,,,,,,,,,,,
,,,,,,,,2023-08-06_08h29.54.918,HF_wild_card,2022.2.4,Win32,60.0240096,63f3627e35e0e400ca50c26b,64ce5acb97489d65b14ecc7a,64cf4be23a5ec641e45aa512,,,,,,,decisionTrl,resources/DB.BMP,resources/DP.BMP,Door4,-0.37037037,0.027777778,1,0,0,0.924,optionLeft,60,6405,3,30,0,30,0,1,,,,,,,,,,,,,,,,,,,,,,,,,,,,,,,,,,,,,,,
,,,,,,,,2023-08-06_08h29.54.918,HF_wild_card,2022.2.4,Win32,60.0240096,63f3627e35e0e400ca50c26b,64ce5acb97489d65b14ecc7a,64cf4be23a5ec641e45aa512,,,,,,,ctch,resources/DG.BMP,resources/DB.BMP,Door1,-0.310185185,0.019675926,1,0,0,0.927,optionLeft,30,6435,3,31,0,31,0,1,,,,,,,,,,,,,,,,,,,,,,,,,,,,,,,,,,,,,,,
,,,,,,,,2023-08-06_08h29.54.918,HF_wild_card,2022.2.4,Win32,60.0240096,63f3627e35e0e400ca50c26b,64ce5acb97489d65b14ecc7a,64cf4be23a5ec641e45aa512,,,,,,,decisionTrl,resources/DG.BMP,resources/DBN.BMP,Door1,-0.237268519,-0.006944444,1,0,0,0.828,optionLeft,30,6465,3,32,0,32,0,1,,,,,,,,,,,,,,,,,,,,,,,,,,,,,,,,,,,,,,,
,,,,,,,,2023-08-06_08h29.54.918,HF_wild_card,2022.2.4,Win32,60.0240096,63f3627e35e0e400ca50c26b,64ce5acb97489d65b14ecc7a,64cf4be23a5ec641e45aa512,,,,,,,sngl,resources/DP.BMP,resources/Empty.png,Door3,-0.266203704,0.118055556,1,0,0,0.796,optionLeft,70,6535,3,33,0,33,0,1,,,,,,,,,,,,,,,,,,,,,,,,,,,,,,,,,,,,,,,
,,,,,,,,2023-08-06_08h29.54.918,HF_wild_card,2022.2.4,Win32,60.0240096,63f3627e35e0e400ca50c26b,64ce5acb97489d65b14ecc7a,64cf4be23a5ec641e45aa512,,,,,,,ctch,resources/DB.BMP,resources/DG.BMP,Door1,0.284722222,-0.020833333,1,0,0,0.835,optionRight,30,6565,3,34,0,34,0,1,,,,,,,,,,,,,,,,,,,,,,,,,,,,,,,,,,,,,,,
,,,,,,,,2023-08-06_08h29.54.918,HF_wild_card,2022.2.4,Win32,60.0240096,63f3627e35e0e400ca50c26b,64ce5acb97489d65b14ecc7a,64cf4be23a5ec641e45aa512,,,,,,,ctch,resources/DB.BMP,resources/DG.BMP,Door4,-0.3125,0.052083333,1,0,0,0.611,optionLeft,60,6625,3,35,0,35,0,1,,,,,,,,,,,,,,,,,,,,,,,,,,,,,,,,,,,,,,,
,,,,,,,,2023-08-06_08h29.54.918,HF_wild_card,2022.2.4,Win32,60.0240096,63f3627e35e0e400ca50c26b,64ce5acb97489d65b14ecc7a,64cf4be23a5ec641e45aa512,,,,,,,sngl,resources/DG.BMP,resources/Empty.png,Door1,-0.28125,0.126157407,1,0,0,0.771,optionLeft,30,6655,3,36,0,36,0,1,,,,,,,,,,,,,,,,,,,,,,,,,,,,,,,,,,,,,,,
,,,,,,,,2023-08-06_08h29.54.918,HF_wild_card,2022.2.4,Win32,60.0240096,63f3627e35e0e400ca50c26b,64ce5acb97489d65b14ecc7a,64cf4be23a5ec641e45aa512,,,,,,,decisionTrl,resources/DP.BMP,resources/DB.BMP,Door4,0.305555556,-0.032407407,1,0,0,0.773,optionRight,60,6715,3,37,0,37,0,1,,,,,,,,,,,,,,,,,,,,,,,,,,,,,,,,,,,,,,,
,,,,,,,,2023-08-06_08h29.54.918,HF_wild_card,2022.2.4,Win32,60.0240096,63f3627e35e0e400ca50c26b,64ce5acb97489d65b14ecc7a,64cf4be23a5ec641e45aa512,,,,,,,decisionTrl,resources/DG.BMP,resources/DBN.BMP,Door1,-0.292824074,0.059027778,1,0,0,0.735,optionLeft,30,6745,3,38,0,38,0,1,,,,,,,,,,,,,,,,,,,,,,,,,,,,,,,,,,,,,,,
,,,,,,,,2023-08-06_08h29.54.918,HF_wild_card,2022.2.4,Win32,60.0240096,63f3627e35e0e400ca50c26b,64ce5acb97489d65b14ecc7a,64cf4be23a5ec641e45aa512,,,,,,,ctch,resources/DBN.BMP,resources/DP.BMP,Door3,0.201388889,0.00462963,1,0,0,1.041,optionRight,70,6815,3,39,0,39,0,1,,,,,,,,,,,,,,,,,,,,,,,,,,,,,,,,,,,,,,,
,,,,,,,,2023-08-06_08h29.54.918,HF_wild_card,2022.2.4,Win32,60.0240096,63f3627e35e0e400ca50c26b,64ce5acb97489d65b14ecc7a,64cf4be23a5ec641e45aa512,,,,,,,sngl,resources/Empty.png,resources/DBN.BMP,Door2,0.265046296,-0.123842593,1,0,0,0.788,optionRight,20,6835,3,40,0,40,0,1,,,,,,,,,,,,,,,,,,,,,,,,,,,,,,,,,,,,,,,
,,,,,,,,2023-08-06_08h29.54.918,HF_wild_card,2022.2.4,Win32,60.0240096,63f3627e35e0e400ca50c26b,64ce5acb97489d65b14ecc7a,64cf4be23a5ec641e45aa512,,,,,,,decisionTrl,resources/DB.BMP,resources/DP.BMP,Door4,-0.239583333,0.048611111,1,0,0,0.76,optionLeft,60,6895,3,41,0,41,0,1,,,,,,,,,,,,,,,,,,,,,,,,,,,,,,,,,,,,,,,
,,,,,,,,2023-08-06_08h29.54.918,HF_wild_card,2022.2.4,Win32,60.0240096,63f3627e35e0e400ca50c26b,64ce5acb97489d65b14ecc7a,64cf4be23a5ec641e45aa512,,,,,,,decisionTrl,resources/DBN.BMP,resources/DG.BMP,Door1,0.344907407,-0.064814815,1,0,0,0.744,optionRight,30,6925,3,42,0,42,0,1,,,,,,,,,,,,,,,,,,,,,,,,,,,,,,,,,,,,,,,
,,,,,,,,2023-08-06_08h29.54.918,HF_wild_card,2022.2.4,Win32,60.0240096,63f3627e35e0e400ca50c26b,64ce5acb97489d65b14ecc7a,64cf4be23a5ec641e45aa512,,,,,,,decisionTrl,resources/DP.BMP,resources/DB.BMP,Door3,-0.216435185,0.043981481,1,0,0,0.713,optionLeft,70,6995,3,43,0,43,0,1,,,,,,,,,,,,,,,,,,,,,,,,,,,,,,,,,,,,,,,
,,,,,,,,2023-08-06_08h29.54.918,HF_wild_card,2022.2.4,Win32,60.0240096,63f3627e35e0e400ca50c26b,64ce5acb97489d65b14ecc7a,64cf4be23a5ec641e45aa512,,,,,,,,,,,,,,,,,,,,,,,,,,2,0,2,0,1,,,,,,,,,,,,,,,,,,,,,,,,,,,,,,,,,,
,,,,,,,,2023-08-06_08h29.54.918,HF_wild_card,2022.2.4,Win32,60.0240096,63f3627e35e0e400ca50c26b,64ce5acb97489d65b14ecc7a,64cf4be23a5ec641e45aa512,,,,,,,ctch,resources/DG.BMP,resources/DB.BMP,Door1,-0.269675926,-0.071759259,1,0,0,2.779,optionLeft,30,7025,4,0,0,0,0,1,,,,,,,,,,,,,,,,,,,,,,,,,,,,,,,,,,,,,,,
,,,,,,,,2023-08-06_08h29.54.918,HF_wild_card,2022.2.4,Win32,60.0240096,63f3627e35e0e400ca50c26b,64ce5acb97489d65b14ecc7a,64cf4be23a5ec641e45aa512,,,,,,,decisionTrl,resources/DP.BMP,resources/DB.BMP,Door4,0.228009259,-0.047453704,1,0,0,1.184,optionRight,60,7085,4,1,0,1,0,1,,,,,,,,,,,,,,,,,,,,,,,,,,,,,,,,,,,,,,,
,,,,,,,,2023-08-06_08h29.54.918,HF_wild_card,2022.2.4,Win32,60.0240096,63f3627e35e0e400ca50c26b,64ce5acb97489d65b14ecc7a,64cf4be23a5ec641e45aa512,,,,,,,decisionTrl,resources/DBN.BMP,resources/DG.BMP,Door1,0.548611111,0.028935185,1,0,0,1.041,optionRight,30,7115,4,2,0,2,0,1,,,,,,,,,,,,,,,,,,,,,,,,,,,,,,,,,,,,,,,
,,,,,,,,2023-08-06_08h29.54.918,HF_wild_card,2022.2.4,Win32,60.0240096,63f3627e35e0e400ca50c26b,64ce5acb97489d65b14ecc7a,64cf4be23a5ec641e45aa512,,,,,,,sngl,resources/Empty.png,resources/DY.BMP,WildCard_NonEx,0.494212963,-0.070601852,1,0,0,2.187,optionRight,45,7160,4,3,0,3,0,1,,,,,,,,,,,,,,,,,,,,,,,,,,,,,,,,,,,,,,,
,,,,,,,,2023-08-06_08h29.54.918,HF_wild_card,2022.2.4,Win32,60.0240096,63f3627e35e0e400ca50c26b,64ce5acb97489d65b14ecc7a,64cf4be23a5ec641e45aa512,,,,,,,ctch,resources/DB.BMP,resources/DG.BMP,Door4,-0.337962963,0.015046296,1,0,0,0.954,optionLeft,60,7220,4,4,0,4,0,1,,,,,,,,,,,,,,,,,,,,,,,,,,,,,,,,,,,,,,,
,,,,,,,,2023-08-06_08h29.54.918,HF_wild_card,2022.2.4,Win32,60.0240096,63f3627e35e0e400ca50c26b,64ce5acb97489d65b14ecc7a,64cf4be23a5ec641e45aa512,,,,,,,decisionTrl,resources/DB.BMP,resources/DP.BMP,Door3,0.27662037,-0.081018519,1,0,0,0.809,optionRight,70,7290,4,5,0,5,0,1,,,,,,,,,,,,,,,,,,,,,,,,,,,,,,,,,,,,,,,
,,,,,,,,2023-08-06_08h29.54.918,HF_wild_card,2022.2.4,Win32,60.0240096,63f3627e35e0e400ca50c26b,64ce5acb97489d65b14ecc7a,64cf4be23a5ec641e45aa512,,,,,,,ctch,resources/DB.BMP,resources/DG.BMP,Door4,-0.241898148,0.019675926,1,0,0,0.679,optionLeft,60,7350,4,6,0,6,0,1,,,,,,,,,,,,,,,,,,,,,,,,,,,,,,,,,,,,,,,
,,,,,,,,2023-08-06_08h29.54.918,HF_wild_card,2022.2.4,Win32,60.0240096,63f3627e35e0e400ca50c26b,64ce5acb97489d65b14ecc7a,64cf4be23a5ec641e45aa512,,,,,,,sngl,resources/Empty.png,resources/DB.BMP,Door4,0.368055556,-0.076388889,1,0,0,0.623,optionRight,80,7430,4,7,0,7,0,1,,,,,,,,,,,,,,,,,,,,,,,,,,,,,,,,,,,,,,,
,,,,,,,,2023-08-06_08h29.54.918,HF_wild_card,2022.2.4,Win32,60.0240096,63f3627e35e0e400ca50c26b,64ce5acb97489d65b14ecc7a,64cf4be23a5ec641e45aa512,,,,,,,decisionTrl,resources/DP.BMP,resources/DB.BMP,Door4,0.337962963,-0.020833333,1,0,0,2.006,optionRight,80,7510,4,8,0,8,0,1,,,,,,,,,,,,,,,,,,,,,,,,,,,,,,,,,,,,,,,
,,,,,,,,2023-08-06_08h29.54.918,HF_wild_card,2022.2.4,Win32,60.0240096,63f3627e35e0e400ca50c26b,64ce5acb97489d65b14ecc7a,64cf4be23a5ec641e45aa512,,,,,,,sngl,resources/Empty.png,resources/DP.BMP,Door3,0.278935185,-0.05787037,1,0,0,0.678,optionRight,70,7580,4,9,0,9,0,1,,,,,,,,,,,,,,,,,,,,,,,,,,,,,,,,,,,,,,,
,,,,,,,,2023-08-06_08h29.54.918,HF_wild_card,2022.2.4,Win32,60.0240096,63f3627e35e0e400ca50c26b,64ce5acb97489d65b14ecc7a,64cf4be23a5ec641e45aa512,,,,,,,sngl,resources/DP.BMP,resources/Empty.png,Door3,-0.240740741,0.053240741,1,0,0,0.692,optionLeft,70,7650,4,10,0,10,0,1,,,,,,,,,,,,,,,,,,,,,,,,,,,,,,,,,,,,,,,
,,,,,,,,2023-08-06_08h29.54.918,HF_wild_card,2022.2.4,Win32,60.0240096,63f3627e35e0e400ca50c26b,64ce5acb97489d65b14ecc7a,64cf4be23a5ec641e45aa512,,,,,,,decisionTrl,resources/DG.BMP,resources/DBN.BMP,Door1,-0.269675926,0.017361111,1,0,0,0.841,optionLeft,30,7680,4,11,0,11,0,1,,,,,,,,,,,,,,,,,,,,,,,,,,,,,,,,,,,,,,,
,,,,,,,,2023-08-06_08h29.54.918,HF_wild_card,2022.2.4,Win32,60.0240096,63f3627e35e0e400ca50c26b,64ce5acb97489d65b14ecc7a,64cf4be23a5ec641e45aa512,,,,,,,decisionTrl,resources/DY.BMP,resources/DG.BMP,WildCard_NonEx,-0.293981481,0.107638889,1,0,0,0.746,optionLeft,45,7725,4,12,0,12,0,1,,,,,,,,,,,,,,,,,,,,,,,,,,,,,,,,,,,,,,,
,,,,,,,,2023-08-06_08h29.54.918,HF_wild_card,2022.2.4,Win32,60.0240096,63f3627e35e0e400ca50c26b,64ce5acb97489d65b14ecc7a,64cf4be23a5ec641e45aa512,,,,,,,decisionTrl,resources/DG.BMP,resources/DBN.BMP,Door1,-0.288194444,-0.037037037,1,0,0,0.736,optionLeft,30,7755,4,13,0,13,0,1,,,,,,,,,,,,,,,,,,,,,,,,,,,,,,,,,,,,,,,
,,,,,,,,2023-08-06_08h29.54.918,HF_wild_card,2022.2.4,Win32,60.0240096,63f3627e35e0e400ca50c26b,64ce5acb97489d65b14ecc7a,64cf4be23a5ec641e45aa512,,,,,,,ctch,resources/DG.BMP,resources/DB.BMP,Door1,-0.186342593,0.087962963,1,0,0,0.694,optionLeft,30,7785,4,14,0,14,0,1,,,,,,,,,,,,,,,,,,,,,,,,,,,,,,,,,,,,,,,
,,,,,,,,2023-08-06_08h29.54.918,HF_wild_card,2022.2.4,Win32,60.0240096,63f3627e35e0e400ca50c26b,64ce5acb97489d65b14ecc7a,64cf4be23a5ec641e45aa512,,,,,,,sngl,resources/DG.BMP,resources/Empty.png,Door1,-0.253472222,0.076388889,1,0,0,0.673,optionLeft,30,7815,4,15,0,15,0,1,,,,,,,,,,,,,,,,,,,,,,,,,,,,,,,,,,,,,,,
,,,,,,,,2023-08-06_08h29.54.918,HF_wild_card,2022.2.4,Win32,60.0240096,63f3627e35e0e400ca50c26b,64ce5acb97489d65b14ecc7a,64cf4be23a5ec641e45aa512,,,,,,,decisionTrl,resources/DB.BMP,resources/DP.BMP,Door3,0.258101852,-0.042824074,1,0,0,0.707,optionRight,70,7885,4,16,0,16,0,1,,,,,,,,,,,,,,,,,,,,,,,,,,,,,,,,,,,,,,,
,,,,,,,,2023-08-06_08h29.54.918,HF_wild_card,2022.2.4,Win32,60.0240096,63f3627e35e0e400ca50c26b,64ce5acb97489d65b14ecc7a,64cf4be23a5ec641e45aa512,,,,,,,decisionTrl,resources/DY.BMP,resources/DBN.BMP,WildCard_NonEx,-0.314814815,0.178240741,1,0,0,0.637,optionLeft,55,7940,4,17,0,17,0,1,,,,,,,,,,,,,,,,,,,,,,,,,,,,,,,,,,,,,,,
,,,,,,,,2023-08-06_08h29.54.918,HF_wild_card,2022.2.4,Win32,60.0240096,63f3627e35e0e400ca50c26b,64ce5acb97489d65b14ecc7a,64cf4be23a5ec641e45aa512,,,,,,,decisionTrl,resources/DP.BMP,resources/DB.BMP,Door4,0.299768519,-0.006944444,1,0,0,0.994,optionRight,60,8000,4,18,0,18,0,1,,,,,,,,,,,,,,,,,,,,,,,,,,,,,,,,,,,,,,,
,,,,,,,,2023-08-06_08h29.54.918,HF_wild_card,2022.2.4,Win32,60.0240096,63f3627e35e0e400ca50c26b,64ce5acb97489d65b14ecc7a,64cf4be23a5ec641e45aa512,,,,,,,sngl,resources/DB.BMP,resources/Empty.png,Door4,-0.278935185,0.178240741,1,0,0,0.661,optionLeft,60,8060,4,19,0,19,0,1,,,,,,,,,,,,,,,,,,,,,,,,,,,,,,,,,,,,,,,
,,,,,,,,2023-08-06_08h29.54.918,HF_wild_card,2022.2.4,Win32,60.0240096,63f3627e35e0e400ca50c26b,64ce5acb97489d65b14ecc7a,64cf4be23a5ec641e45aa512,,,,,,,sngl,resources/DBN.BMP,resources/Empty.png,Door2,-0.217592593,0.025462963,1,0,0,0.707,optionLeft,20,8080,4,20,0,20,0,1,,,,,,,,,,,,,,,,,,,,,,,,,,,,,,,,,,,,,,,
,,,,,,,,2023-08-06_08h29.54.918,HF_wild_card,2022.2.4,Win32,60.0240096,63f3627e35e0e400ca50c26b,64ce5acb97489d65b14ecc7a,64cf4be23a5ec641e45aa512,,,,,,,sngl,resources/DY.BMP,resources/Empty.png,WildCard_NonEx,-0.181712963,0.096064815,1,0,0,0.655,optionLeft,45,8125,4,21,0,21,0,1,,,,,,,,,,,,,,,,,,,,,,,,,,,,,,,,,,,,,,,
,,,,,,,,2023-08-06_08h29.54.918,HF_wild_card,2022.2.4,Win32,60.0240096,63f3627e35e0e400ca50c26b,64ce5acb97489d65b14ecc7a,64cf4be23a5ec641e45aa512,,,,,,,ctch,resources/DP.BMP,resources/DBN.BMP,Door3,-0.309027778,0.0625,1,0,0,1.014,optionLeft,70,8195,4,22,0,22,0,1,,,,,,,,,,,,,,,,,,,,,,,,,,,,,,,,,,,,,,,
,,,,,,,,2023-08-06_08h29.54.918,HF_wild_card,2022.2.4,Win32,60.0240096,63f3627e35e0e400ca50c26b,64ce5acb97489d65b14ecc7a,64cf4be23a5ec641e45aa512,,,,,,,sngl,resources/Empty.png,resources/DY.BMP,WildCard_NonEx,0.265046296,-0.069444444,1,0,0,0.737,optionRight,55,8250,4,23,0,23,0,1,,,,,,,,,,,,,,,,,,,,,,,,,,,,,,,,,,,,,,,
,,,,,,,,2023-08-06_08h29.54.918,HF_wild_card,2022.2.4,Win32,60.0240096,63f3627e35e0e400ca50c26b,64ce5acb97489d65b14ecc7a,64cf4be23a5ec641e45aa512,,,,,,,ctch,resources/DBN.BMP,resources/DP.BMP,Door3,0.318287037,-0.090277778,1,0,0,1.074,optionRight,70,8320,4,24,0,24,0,1,,,,,,,,,,,,,,,,,,,,,,,,,,,,,,,,,,,,,,,
,,,,,,,,2023-08-06_08h29.54.918,HF_wild_card,2022.2.4,Win32,60.0240096,63f3627e35e0e400ca50c26b,64ce5acb97489d65b14ecc7a,64cf4be23a5ec641e45aa512,,,,,,,decisionTrl,resources/DBN.BMP,resources/DG.BMP,Door1,0.418981481,-0.061342593,1,0,0,1.037,optionRight,30,8350,4,25,0,25,0,1,,,,,,,,,,,,,,,,,,,,,,,,,,,,,,,,,,,,,,,
,,,,,,,,2023-08-06_08h29.54.918,HF_wild_card,2022.2.4,Win32,60.0240096,63f3627e35e0e400ca50c26b,64ce5acb97489d65b14ecc7a,64cf4be23a5ec641e45aa512,,,,,,,decisionTrl,resources/DB.BMP,resources/DP.BMP,Door4,-0.288194444,0.003472222,1,0,0,0.754,optionLeft,60,8410,4,26,0,26,0,1,,,,,,,,,,,,,,,,,,,,,,,,,,,,,,,,,,,,,,,
,,,,,,,,2023-08-06_08h29.54.918,HF_wild_card,2022.2.4,Win32,60.0240096,63f3627e35e0e400ca50c26b,64ce5acb97489d65b14ecc7a,64cf4be23a5ec641e45aa512,,,,,,,decisionTrl,resources/DG.BMP,resources/DBN.BMP,Door1,-0.219907407,0.076388889,1,0,0,0.959,optionLeft,30,8440,4,27,0,27,0,1,,,,,,,,,,,,,,,,,,,,,,,,,,,,,,,,,,,,,,,
,,,,,,,,2023-08-06_08h29.54.918,HF_wild_card,2022.2.4,Win32,60.0240096,63f3627e35e0e400ca50c26b,64ce5acb97489d65b14ecc7a,64cf4be23a5ec641e45aa512,,,,,,,sngl,resources/Empty.png,resources/DG.BMP,Door1,0.239583333,-0.078703704,1,0,0,0.691,optionRight,30,8470,4,28,0,28,0,1,,,,,,,,,,,,,,,,,,,,,,,,,,,,,,,,,,,,,,,
,,,,,,,,2023-08-06_08h29.54.918,HF_wild_card,2022.2.4,Win32,60.0240096,63f3627e35e0e400ca50c26b,64ce5acb97489d65b14ecc7a,64cf4be23a5ec641e45aa512,,,,,,,ctch,resources/DBN.BMP,resources/DP.BMP,Door3,0.170138889,0.002314815,1,0,0,1.037,optionRight,70,8540,4,29,0,29,0,1,,,,,,,,,,,,,,,,,,,,,,,,,,,,,,,,,,,,,,,
,,,,,,,,2023-08-06_08h29.54.918,HF_wild_card,2022.2.4,Win32,60.0240096,63f3627e35e0e400ca50c26b,64ce5acb97489d65b14ecc7a,64cf4be23a5ec641e45aa512,,,,,,,decisionTrl,resources/DP.BMP,resources/DB.BMP,Door3,-0.280092593,0.054398148,1,0,0,0.779,optionLeft,70,8610,4,30,0,30,0,1,,,,,,,,,,,,,,,,,,,,,,,,,,,,,,,,,,,,,,,
,,,,,,,,2023-08-06_08h29.54.918,HF_wild_card,2022.2.4,Win32,60.0240096,63f3627e35e0e400ca50c26b,64ce5acb97489d65b14ecc7a,64cf4be23a5ec641e45aa512,,,,,,,decisionTrl,resources/DY.BMP,resources/DP.BMP,Door3,0.416666667,-0.099537037,1,0,0,0.687,optionRight,70,8680,4,31,0,31,0,1,,,,,,,,,,,,,,,,,,,,,,,,,,,,,,,,,,,,,,,
,,,,,,,,2023-08-06_08h29.54.918,HF_wild_card,2022.2.4,Win32,60.0240096,63f3627e35e0e400ca50c26b,64ce5acb97489d65b14ecc7a,64cf4be23a5ec641e45aa512,,,,,,,decisionTrl,resources/DB.BMP,resources/DP.BMP,Door4,-0.244212963,0.108796296,1,0,0,0.608,optionLeft,80,8760,4,32,0,32,0,1,,,,,,,,,,,,,,,,,,,,,,,,,,,,,,,,,,,,,,,
,,,,,,,,2023-08-06_08h29.54.918,HF_wild_card,2022.2.4,Win32,60.0240096,63f3627e35e0e400ca50c26b,64ce5acb97489d65b14ecc7a,64cf4be23a5ec641e45aa512,,,,,,,sngl,resources/DY.BMP,resources/Empty.png,WildCard_NonEx,-0.145833333,-0.02662037,1,0,0,0.741,optionLeft,55,8815,4,33,0,33,0,1,,,,,,,,,,,,,,,,,,,,,,,,,,,,,,,,,,,,,,,
,,,,,,,,2023-08-06_08h29.54.918,HF_wild_card,2022.2.4,Win32,60.0240096,63f3627e35e0e400ca50c26b,64ce5acb97489d65b14ecc7a,64cf4be23a5ec641e45aa512,,,,,,,decisionTrl,resources/DY.BMP,resources/DB.BMP,Door4,0.270833333,-0.021990741,1,0,0,0.68,optionRight,60,8875,4,34,0,34,0,1,,,,,,,,,,,,,,,,,,,,,,,,,,,,,,,,,,,,,,,
,,,,,,,,2023-08-06_08h29.54.918,HF_wild_card,2022.2.4,Win32,60.0240096,63f3627e35e0e400ca50c26b,64ce5acb97489d65b14ecc7a,64cf4be23a5ec641e45aa512,,,,,,,decisionTrl,resources/DBN.BMP,resources/DG.BMP,Door2,-0.289351852,0.083333333,1,0,0,0.636,optionLeft,40,8915,4,35,0,35,0,1,,,,,,,,,,,,,,,,,,,,,,,,,,,,,,,,,,,,,,,
,,,,,,,,2023-08-06_08h29.54.918,HF_wild_card,2022.2.4,Win32,60.0240096,63f3627e35e0e400ca50c26b,64ce5acb97489d65b14ecc7a,64cf4be23a5ec641e45aa512,,,,,,,decisionTrl,resources/DP.BMP,resources/DY.BMP,WildCard_NonEx,0.255787037,0.005787037,1,0,0,0.706,optionRight,45,8960,4,36,0,36,0,1,,,,,,,,,,,,,,,,,,,,,,,,,,,,,,,,,,,,,,,
,,,,,,,,2023-08-06_08h29.54.918,HF_wild_card,2022.2.4,Win32,60.0240096,63f3627e35e0e400ca50c26b,64ce5acb97489d65b14ecc7a,64cf4be23a5ec641e45aa512,,,,,,,decisionTrl,resources/DBN.BMP,resources/DG.BMP,Door2,-0.324074074,0.094907407,1,0,0,0.627,optionLeft,40,9000,4,37,0,37,0,1,,,,,,,,,,,,,,,,,,,,,,,,,,,,,,,,,,,,,,,
,,,,,,,,2023-08-06_08h29.54.918,HF_wild_card,2022.2.4,Win32,60.0240096,63f3627e35e0e400ca50c26b,64ce5acb97489d65b14ecc7a,64cf4be23a5ec641e45aa512,,,,,,,decisionTrl,resources/DG.BMP,resources/DBN.BMP,Door1,-0.334490741,0.085648148,1,0,0,0.973,optionLeft,30,9030,4,38,0,38,0,1,,,,,,,,,,,,,,,,,,,,,,,,,,,,,,,,,,,,,,,
,,,,,,,,2023-08-06_08h29.54.918,HF_wild_card,2022.2.4,Win32,60.0240096,63f3627e35e0e400ca50c26b,64ce5acb97489d65b14ecc7a,64cf4be23a5ec641e45aa512,,,,,,,decisionTrl,resources/DB.BMP,resources/DY.BMP,WildCard_NonEx,0.27662037,-0.05787037,1,0,0,0.772,optionRight,55,9085,4,39,0,39,0,1,,,,,,,,,,,,,,,,,,,,,,,,,,,,,,,,,,,,,,,
,,,,,,,,2023-08-06_08h29.54.918,HF_wild_card,2022.2.4,Win32,60.0240096,63f3627e35e0e400ca50c26b,64ce5acb97489d65b14ecc7a,64cf4be23a5ec641e45aa512,,,,,,,decisionTrl,resources/DG.BMP,resources/DY.BMP,Door1,-0.179398148,0.074074074,1,0,0,0.87,optionLeft,30,9115,4,40,0,40,0,1,,,,,,,,,,,,,,,,,,,,,,,,,,,,,,,,,,,,,,,
,,,,,,,,2023-08-06_08h29.54.918,HF_wild_card,2022.2.4,Win32,60.0240096,63f3627e35e0e400ca50c26b,64ce5acb97489d65b14ecc7a,64cf4be23a5ec641e45aa512,,,,,,,decisionTrl,resources/DBN.BMP,resources/DY.BMP,WildCard_NonEx,0.206018519,-0.025462963,1,0,0,0.875,optionRight,45,9160,4,41,0,41,0,1,,,,,,,,,,,,,,,,,,,,,,,,,,,,,,,,,,,,,,,
,,,,,,,,2023-08-06_08h29.54.918,HF_wild_card,2022.2.4,Win32,60.0240096,63f3627e35e0e400ca50c26b,64ce5acb97489d65b14ecc7a,64cf4be23a5ec641e45aa512,,,,,,,sngl,resources/Empty.png,resources/DBN.BMP,Door2,0.178240741,-0.016203704,1,0,0,0.776,optionRight,40,9200,4,42,0,42,0,1,,,,,,,,,,,,,,,,,,,,,,,,,,,,,,,,,,,,,,,
,,,,,,,,2023-08-06_08h29.54.918,HF_wild_card,2022.2.4,Win32,60.0240096,63f3627e35e0e400ca50c26b,64ce5acb97489d65b14ecc7a,64cf4be23a5ec641e45aa512,,,,,,,ctch,resources/DP.BMP,resources/DBN.BMP,Door3,-0.284722222,0.08912037,1,0,0,0.735,optionLeft,70,9270,4,43,0,43,0,1,,,,,,,,,,,,,,,,,,,,,,,,,,,,,,,,,,,,,,,
,,,,,,,,2023-08-06_08h29.54.918,HF_wild_card,2022.2.4,Win32,60.0240096,63f3627e35e0e400ca50c26b,64ce5acb97489d65b14ecc7a,64cf4be23a5ec641e45aa512,,,,,,,,,,,,,,,,,,,,,,,,,,3,0,3,0,1,,,,,,,,,,,,,,,,,,,,,,,,,,,,,,,,,,
,,,,,,,,2023-08-06_08h29.54.918,HF_wild_card,2022.2.4,Win32,60.0240096,63f3627e35e0e400ca50c26b,64ce5acb97489d65b14ecc7a,64cf4be23a5ec641e45aa512,,,,,,,decisionTrl,resources/DP.BMP,resources/DY.BMP,Door3,-0.243055556,-0.18287037,1,0,0,1.444,optionLeft,70,9340,5,0,0,0,0,1,,,,,,,,,,,,,,,,,,,,,,,,,,,,,,,,,,,,,,,
,,,,,,,,2023-08-06_08h29.54.918,HF_wild_card,2022.2.4,Win32,60.0240096,63f3627e35e0e400ca50c26b,64ce5acb97489d65b14ecc7a,64cf4be23a5ec641e45aa512,,,,,,,decisionTrl,resources/DBN.BMP,resources/DG.BMP,Door1,0.292824074,0.001157407,1,0,0,1.916,optionRight,30,9370,5,1,0,1,0,1,,,,,,,,,,,,,,,,,,,,,,,,,,,,,,,,,,,,,,,
,,,,,,,,2023-08-06_08h29.54.918,HF_wild_card,2022.2.4,Win32,60.0240096,63f3627e35e0e400ca50c26b,64ce5acb97489d65b14ecc7a,64cf4be23a5ec641e45aa512,,,,,,,decisionTrl,resources/DBN.BMP,resources/DG.BMP,Door1,0.377314815,-0.131944444,1,0,0,1.923,optionRight,30,9400,5,2,0,2,0,1,,,,,,,,,,,,,,,,,,,,,,,,,,,,,,,,,,,,,,,
,,,,,,,,2023-08-06_08h29.54.918,HF_wild_card,2022.2.4,Win32,60.0240096,63f3627e35e0e400ca50c26b,64ce5acb97489d65b14ecc7a,64cf4be23a5ec641e45aa512,,,,,,,ctch,resources/DBN.BMP,resources/DP.BMP,Door3,-0.020833333,-0.006944444,1,0,0,0.14,optionRight,70,9470,5,3,0,3,0,1,,,,,,,,,,,,,,,,,,,,,,,,,,,,,,,,,,,,,,,
,,,,,,,,2023-08-06_08h29.54.918,HF_wild_card,2022.2.4,Win32,60.0240096,63f3627e35e0e400ca50c26b,64ce5acb97489d65b14ecc7a,64cf4be23a5ec641e45aa512,,,,,,,sngl,resources/DG.BMP,resources/Empty.png,Door1,-0.229166667,-0.005787037,1,0,0,3.132,optionLeft,30,9500,5,4,0,4,0,1,,,,,,,,,,,,,,,,,,,,,,,,,,,,,,,,,,,,,,,
,,,,,,,,2023-08-06_08h29.54.918,HF_wild_card,2022.2.4,Win32,60.0240096,63f3627e35e0e400ca50c26b,64ce5acb97489d65b14ecc7a,64cf4be23a5ec641e45aa512,,,,,,,ctch,resources/DP.BMP,resources/DBN.BMP,Door3,-0.340277778,-0.025462963,1,0,0,0.939,optionLeft,70,9570,5,5,0,5,0,1,,,,,,,,,,,,,,,,,,,,,,,,,,,,,,,,,,,,,,,
,,,,,,,,2023-08-06_08h29.54.918,HF_wild_card,2022.2.4,Win32,60.0240096,63f3627e35e0e400ca50c26b,64ce5acb97489d65b14ecc7a,64cf4be23a5ec641e45aa512,,,,,,,decisionTrl,resources/DY.BMP,resources/DG.BMP,WildCard_NonEx,-0.369212963,0.074074074,1,0,0,1.189,optionLeft,55,9625,5,6,0,6,0,1,,,,,,,,,,,,,,,,,,,,,,,,,,,,,,,,,,,,,,,
,,,,,,,,2023-08-06_08h29.54.918,HF_wild_card,2022.2.4,Win32,60.0240096,63f3627e35e0e400ca50c26b,64ce5acb97489d65b14ecc7a,64cf4be23a5ec641e45aa512,,,,,,,sngl,resources/DY.BMP,resources/Empty.png,WildCard_NonEx,-0.350694444,-0.016203704,1,0,0,2.583,optionLeft,55,9680,5,7,0,7,0,1,,,,,,,,,,,,,,,,,,,,,,,,,,,,,,,,,,,,,,,
,,,,,,,,2023-08-06_08h29.54.918,HF_wild_card,2022.2.4,Win32,60.0240096,63f3627e35e0e400ca50c26b,64ce5acb97489d65b14ecc7a,64cf4be23a5ec641e45aa512,,,,,,,decisionTrl,resources/DG.BMP,resources/DBN.BMP,Door1,-0.430555556,0.123842593,1,0,0,5.755,optionLeft,30,9710,5,8,0,8,0,1,,,,,,,,,,,,,,,,,,,,,,,,,,,,,,,,,,,,,,,
,,,,,,,,2023-08-06_08h29.54.918,HF_wild_card,2022.2.4,Win32,60.0240096,63f3627e35e0e400ca50c26b,64ce5acb97489d65b14ecc7a,64cf4be23a5ec641e45aa512,,,,,,,sngl,resources/Empty.png,resources/DG.BMP,Door1,0.358796296,-0.049768519,1,0,0,1.039,optionRight,30,9740,5,9,0,9,0,1,,,,,,,,,,,,,,,,,,,,,,,,,,,,,,,,,,,,,,,
,,,,,,,,2023-08-06_08h29.54.918,HF_wild_card,2022.2.4,Win32,60.0240096,63f3627e35e0e400ca50c26b,64ce5acb97489d65b14ecc7a,64cf4be23a5ec641e45aa512,,,,,,,decisionTrl,resources/DG.BMP,resources/DBN.BMP,Door1,-0.347222222,-0.034722222,1,0,0,0.976,optionLeft,30,9770,5,10,0,10,0,1,,,,,,,,,,,,,,,,,,,,,,,,,,,,,,,,,,,,,,,
,,,,,,,,2023-08-06_08h29.54.918,HF_wild_card,2022.2.4,Win32,60.0240096,63f3627e35e0e400ca50c26b,64ce5acb97489d65b14ecc7a,64cf4be23a5ec641e45aa512,,,,,,,sngl,resources/DB.BMP,resources/Empty.png,Door4,-0.305555556,0.082175926,1,0,0,1.131,optionLeft,80,9850,5,11,0,11,0,1,,,,,,,,,,,,,,,,,,,,,,,,,,,,,,,,,,,,,,,
,,,,,,,,2023-08-06_08h29.54.918,HF_wild_card,2022.2.4,Win32,60.0240096,63f3627e35e0e400ca50c26b,64ce5acb97489d65b14ecc7a,64cf4be23a5ec641e45aa512,,,,,,,sngl,resources/Empty.png,resources/DBN.BMP,Door2,0.271990741,-0.040509259,1,0,0,0.807,optionRight,20,9870,5,12,0,12,0,1,,,,,,,,,,,,,,,,,,,,,,,,,,,,,,,,,,,,,,,
,,,,,,,,2023-08-06_08h29.54.918,HF_wild_card,2022.2.4,Win32,60.0240096,63f3627e35e0e400ca50c26b,64ce5acb97489d65b14ecc7a,64cf4be23a5ec641e45aa512,,,,,,,sngl,resources/Empty.png,resources/DB.BMP,Door4,0.428240741,-0.208333333,1,0,0,1.551,optionRight,60,9930,5,13,0,13,0,1,,,,,,,,,,,,,,,,,,,,,,,,,,,,,,,,,,,,,,,
,,,,,,,,2023-08-06_08h29.54.918,HF_wild_card,2022.2.4,Win32,60.0240096,63f3627e35e0e400ca50c26b,64ce5acb97489d65b14ecc7a,64cf4be23a5ec641e45aa512,,,,,,,decisionTrl,resources/DBN.BMP,resources/DG.BMP,Door1,0.206018519,0.0625,1,0,0,1.48,optionRight,30,9960,5,14,0,14,0,1,,,,,,,,,,,,,,,,,,,,,,,,,,,,,,,,,,,,,,,
,,,,,,,,2023-08-06_08h29.54.918,HF_wild_card,2022.2.4,Win32,60.0240096,63f3627e35e0e400ca50c26b,64ce5acb97489d65b14ecc7a,64cf4be23a5ec641e45aa512,,,,,,,decisionTrl,resources/DP.BMP,resources/DB.BMP,Door3,-0.271990741,0.050925926,1,0,0,0.77,optionLeft,70,10030,5,15,0,15,0,1,,,,,,,,,,,,,,,,,,,,,,,,,,,,,,,,,,,,,,,
,,,,,,,,2023-08-06_08h29.54.918,HF_wild_card,2022.2.4,Win32,60.0240096,63f3627e35e0e400ca50c26b,64ce5acb97489d65b14ecc7a,64cf4be23a5ec641e45aa512,,,,,,,ctch,resources/DBN.BMP,resources/DP.BMP,Door3,0.30787037,-0.024305556,1,0,0,0.825,optionRight,70,10100,5,16,0,16,0,1,,,,,,,,,,,,,,,,,,,,,,,,,,,,,,,,,,,,,,,
,,,,,,,,2023-08-06_08h29.54.918,HF_wild_card,2022.2.4,Win32,60.0240096,63f3627e35e0e400ca50c26b,64ce5acb97489d65b14ecc7a,64cf4be23a5ec641e45aa512,,,,,,,decisionTrl,resources/DB.BMP,resources/DP.BMP,Door4,-0.289351852,0.113425926,1,0,0,0.692,optionLeft,60,10160,5,17,0,17,0,1,,,,,,,,,,,,,,,,,,,,,,,,,,,,,,,,,,,,,,,
,,,,,,,,2023-08-06_08h29.54.918,HF_wild_card,2022.2.4,Win32,60.0240096,63f3627e35e0e400ca50c26b,64ce5acb97489d65b14ecc7a,64cf4be23a5ec641e45aa512,,,,,,,sngl,resources/DBN.BMP,resources/Empty.png,Door2,-0.210648148,0.113425926,1,0,0,0.743,optionLeft,40,10200,5,18,0,18,0,1,,,,,,,,,,,,,,,,,,,,,,,,,,,,,,,,,,,,,,,
,,,,,,,,2023-08-06_08h29.54.918,HF_wild_card,2022.2.4,Win32,60.0240096,63f3627e35e0e400ca50c26b,64ce5acb97489d65b14ecc7a,64cf4be23a5ec641e45aa512,,,,,,,sngl,resources/DP.BMP,resources/Empty.png,Door3,-0.146990741,0.048611111,1,0,0,0.713,optionLeft,70,10270,5,19,0,19,0,1,,,,,,,,,,,,,,,,,,,,,,,,,,,,,,,,,,,,,,,
,,,,,,,,2023-08-06_08h29.54.918,HF_wild_card,2022.2.4,Win32,60.0240096,63f3627e35e0e400ca50c26b,64ce5acb97489d65b14ecc7a,64cf4be23a5ec641e45aa512,,,,,,,decisionTrl,resources/DY.BMP,resources/DBN.BMP,WildCard_NonEx,-0.390046296,-0.025462963,1,0,0,1.162,optionLeft,55,10325,5,20,0,20,0,1,,,,,,,,,,,,,,,,,,,,,,,,,,,,,,,,,,,,,,,
,,,,,,,,2023-08-06_08h29.54.918,HF_wild_card,2022.2.4,Win32,60.0240096,63f3627e35e0e400ca50c26b,64ce5acb97489d65b14ecc7a,64cf4be23a5ec641e45aa512,,,,,,,ctch,resources/DG.BMP,resources/DB.BMP,Door1,-0.326388889,-0.030092593,1,0,0,0.858,optionLeft,30,10355,5,21,0,21,0,1,,,,,,,,,,,,,,,,,,,,,,,,,,,,,,,,,,,,,,,
,,,,,,,,2023-08-06_08h29.54.918,HF_wild_card,2022.2.4,Win32,60.0240096,63f3627e35e0e400ca50c26b,64ce5acb97489d65b14ecc7a,64cf4be23a5ec641e45aa512,,,,,,,ctch,resources/DB.BMP,resources/DG.BMP,Door1,0.275462963,-0.068287037,1,0,0,0.739,optionRight,30,10385,5,22,0,22,0,1,,,,,,,,,,,,,,,,,,,,,,,,,,,,,,,,,,,,,,,
,,,,,,,,2023-08-06_08h29.54.918,HF_wild_card,2022.2.4,Win32,60.0240096,63f3627e35e0e400ca50c26b,64ce5acb97489d65b14ecc7a,64cf4be23a5ec641e45aa512,,,,,,,decisionTrl,resources/DB.BMP,resources/DP.BMP,Door4,-0.388888889,0.127314815,1,0,0,0.561,optionLeft,60,10445,5,23,0,23,0,1,,,,,,,,,,,,,,,,,,,,,,,,,,,,,,,,,,,,,,,
,,,,,,,,2023-08-06_08h29.54.918,HF_wild_card,2022.2.4,Win32,60.0240096,63f3627e35e0e400ca50c26b,64ce5acb97489d65b14ecc7a,64cf4be23a5ec641e45aa512,,,,,,,decisionTrl,resources/DY.BMP,resources/DP.BMP,WildCard_NonEx,-0.228009259,0.084490741,1,0,0,0.662,optionLeft,45,10490,5,24,0,24,0,1,,,,,,,,,,,,,,,,,,,,,,,,,,,,,,,,,,,,,,,
,,,,,,,,2023-08-06_08h29.54.918,HF_wild_card,2022.2.4,Win32,60.0240096,63f3627e35e0e400ca50c26b,64ce5acb97489d65b14ecc7a,64cf4be23a5ec641e45aa512,,,,,,,decisionTrl,resources/DY.BMP,resources/DB.BMP,Door4,0.340277778,0.039351852,1,0,0,1.027,optionRight,80,10570,5,25,0,25,0,1,,,,,,,,,,,,,,,,,,,,,,,,,,,,,,,,,,,,,,,
,,,,,,,,2023-08-06_08h29.54.918,HF_wild_card,2022.2.4,Win32,60.0240096,63f3627e35e0e400ca50c26b,64ce5acb97489d65b14ecc7a,64cf4be23a5ec641e45aa512,,,,,,,decisionTrl,resources/DG.BMP,resources/DBN.BMP,Door1,-0.288194444,0.094907407,1,0,0,0.674,optionLeft,30,10600,5,26,0,26,0,1,,,,,,,,,,,,,,,,,,,,,,,,,,,,,,,,,,,,,,,
,,,,,,,,2023-08-06_08h29.54.918,HF_wild_card,2022.2.4,Win32,60.0240096,63f3627e35e0e400ca50c26b,64ce5acb97489d65b14ecc7a,64cf4be23a5ec641e45aa512,,,,,,,sngl,resources/Empty.png,resources/DY.BMP,WildCard_NonEx,0.229166667,-0.068287037,1,0,0,0.708,optionRight,45,10645,5,27,0,27,0,1,,,,,,,,,,,,,,,,,,,,,,,,,,,,,,,,,,,,,,,
,,,,,,,,2023-08-06_08h29.54.918,HF_wild_card,2022.2.4,Win32,60.0240096,63f3627e35e0e400ca50c26b,64ce5acb97489d65b14ecc7a,64cf4be23a5ec641e45aa512,,,,,,,sngl,resources/Empty.png,resources/DP.BMP,Door3,0.25462963,-0.030092593,1,0,0,0.758,optionRight,70,10715,5,28,0,28,0,1,,,,,,,,,,,,,,,,,,,,,,,,,,,,,,,,,,,,,,,
,,,,,,,,2023-08-06_08h29.54.918,HF_wild_card,2022.2.4,Win32,60.0240096,63f3627e35e0e400ca50c26b,64ce5acb97489d65b14ecc7a,64cf4be23a5ec641e45aa512,,,,,,,sngl,resources/DY.BMP,resources/Empty.png,WildCard_NonEx,-0.233796296,0.104166667,1,0,0,0.924,optionLeft,45,10760,5,29,0,29,0,1,,,,,,,,,,,,,,,,,,,,,,,,,,,,,,,,,,,,,,,
,,,,,,,,2023-08-06_08h29.54.918,HF_wild_card,2022.2.4,Win32,60.0240096,63f3627e35e0e400ca50c26b,64ce5acb97489d65b14ecc7a,64cf4be23a5ec641e45aa512,,,,,,,decisionTrl,resources/DG.BMP,resources/DY.BMP,Door1,-0.303240741,0.006944444,1,0,0,0.916,optionLeft,30,10790,5,30,0,30,0,1,,,,,,,,,,,,,,,,,,,,,,,,,,,,,,,,,,,,,,,
,,,,,,,,2023-08-06_08h29.54.918,HF_wild_card,2022.2.4,Win32,60.0240096,63f3627e35e0e400ca50c26b,64ce5acb97489d65b14ecc7a,64cf4be23a5ec641e45aa512,,,,,,,decisionTrl,resources/DB.BMP,resources/DP.BMP,Door4,-0.203703704,0.0625,1,0,0,0.721,optionLeft,60,10850,5,31,0,31,0,1,,,,,,,,,,,,,,,,,,,,,,,,,,,,,,,,,,,,,,,
,,,,,,,,2023-08-06_08h29.54.918,HF_wild_card,2022.2.4,Win32,60.0240096,63f3627e35e0e400ca50c26b,64ce5acb97489d65b14ecc7a,64cf4be23a5ec641e45aa512,,,,,,,sngl,resources/Empty.png,resources/DY.BMP,WildCard_NonEx,0.237268519,-0.025462963,1,0,0,0.707,optionRight,55,10905,5,32,0,32,0,1,,,,,,,,,,,,,,,,,,,,,,,,,,,,,,,,,,,,,,,
,,,,,,,,2023-08-06_08h29.54.918,HF_wild_card,2022.2.4,Win32,60.0240096,63f3627e35e0e400ca50c26b,64ce5acb97489d65b14ecc7a,64cf4be23a5ec641e45aa512,,,,,,,decisionTrl,resources/DB.BMP,resources/DP.BMP,Door4,-0.236111111,0.115740741,1,0,0,0.607,optionLeft,80,10985,5,33,0,33,0,1,,,,,,,,,,,,,,,,,,,,,,,,,,,,,,,,,,,,,,,
,,,,,,,,2023-08-06_08h29.54.918,HF_wild_card,2022.2.4,Win32,60.0240096,63f3627e35e0e400ca50c26b,64ce5acb97489d65b14ecc7a,64cf4be23a5ec641e45aa512,,,,,,,decisionTrl,resources/DBN.BMP,resources/DG.BMP,Door1,0.150462963,0.050925926,1,0,0,0.879,optionRight,30,11015,5,34,0,34,0,1,,,,,,,,,,,,,,,,,,,,,,,,,,,,,,,,,,,,,,,
,,,,,,,,2023-08-06_08h29.54.918,HF_wild_card,2022.2.4,Win32,60.0240096,63f3627e35e0e400ca50c26b,64ce5acb97489d65b14ecc7a,64cf4be23a5ec641e45aa512,,,,,,,ctch,resources/DP.BMP,resources/DBN.BMP,Door3,-0.19212963,0.072916667,1,0,0,0.654,optionLeft,70,11085,5,35,0,35,0,1,,,,,,,,,,,,,,,,,,,,,,,,,,,,,,,,,,,,,,,
,,,,,,,,2023-08-06_08h29.54.918,HF_wild_card,2022.2.4,Win32,60.0240096,63f3627e35e0e400ca50c26b,64ce5acb97489d65b14ecc7a,64cf4be23a5ec641e45aa512,,,,,,,decisionTrl,resources/DB.BMP,resources/DY.BMP,Door4,-0.229166667,0.071759259,1,0,0,0.841,optionLeft,80,11165,5,36,0,36,0,1,,,,,,,,,,,,,,,,,,,,,,,,,,,,,,,,,,,,,,,
,,,,,,,,2023-08-06_08h29.54.918,HF_wild_card,2022.2.4,Win32,60.0240096,63f3627e35e0e400ca50c26b,64ce5acb97489d65b14ecc7a,64cf4be23a5ec641e45aa512,,,,,,,decisionTrl,resources/DP.BMP,resources/DB.BMP,Door3,-0.309027778,0.05787037,1,0,0,0.834,optionLeft,70,11235,5,37,0,37,0,1,,,,,,,,,,,,,,,,,,,,,,,,,,,,,,,,,,,,,,,
,,,,,,,,2023-08-06_08h29.54.918,HF_wild_card,2022.2.4,Win32,60.0240096,63f3627e35e0e400ca50c26b,64ce5acb97489d65b14ecc7a,64cf4be23a5ec641e45aa512,,,,,,,decisionTrl,resources/DG.BMP,resources/DBN.BMP,Door1,-0.265046296,0.116898148,1,0,0,0.858,optionLeft,30,11265,5,38,0,38,0,1,,,,,,,,,,,,,,,,,,,,,,,,,,,,,,,,,,,,,,,
,,,,,,,,2023-08-06_08h29.54.918,HF_wild_card,2022.2.4,Win32,60.0240096,63f3627e35e0e400ca50c26b,64ce5acb97489d65b14ecc7a,64cf4be23a5ec641e45aa512,,,,,,,decisionTrl,resources/DP.BMP,resources/DB.BMP,Door4,0.284722222,-0.047453704,1,0,0,0.974,optionRight,80,11345,5,39,0,39,0,1,,,,,,,,,,,,,,,,,,,,,,,,,,,,,,,,,,,,,,,
,,,,,,,,2023-08-06_08h29.54.918,HF_wild_card,2022.2.4,Win32,60.0240096,63f3627e35e0e400ca50c26b,64ce5acb97489d65b14ecc7a,64cf4be23a5ec641e45aa512,,,,,,,decisionTrl,resources/DBN.BMP,resources/DY.BMP,WildCard_NonEx,0.28587963,-0.075231481,1,0,0,0.758,optionRight,55,11400,5,40,0,40,0,1,,,,,,,,,,,,,,,,,,,,,,,,,,,,,,,,,,,,,,,
,,,,,,,,2023-08-06_08h29.54.918,HF_wild_card,2022.2.4,Win32,60.0240096,63f3627e35e0e400ca50c26b,64ce5acb97489d65b14ecc7a,64cf4be23a5ec641e45aa512,,,,,,,ctch,resources/DB.BMP,resources/DG.BMP,Door4,-0.127314815,0.016203704,1,0,0,0.824,optionLeft,80,11480,5,41,0,41,0,1,,,,,,,,,,,,,,,,,,,,,,,,,,,,,,,,,,,,,,,
,,,,,,,,2023-08-06_08h29.54.918,HF_wild_card,2022.2.4,Win32,60.0240096,63f3627e35e0e400ca50c26b,64ce5acb97489d65b14ecc7a,64cf4be23a5ec641e45aa512,,,,,,,ctch,resources/DG.BMP,resources/DB.BMP,Door4,-0.017361111,0.013888889,1,0,0,0.124,optionRight,80,11560,5,42,0,42,0,1,,,,,,,,,,,,,,,,,,,,,,,,,,,,,,,,,,,,,,,
,,,,,,,,2023-08-06_08h29.54.918,HF_wild_card,2022.2.4,Win32,60.0240096,63f3627e35e0e400ca50c26b,64ce5acb97489d65b14ecc7a,64cf4be23a5ec641e45aa512,,,,,,,decisionTrl,resources/DP.BMP,resources/DB.BMP,Door3,-0.24537037,0.027777778,1,0,0,0.492,optionLeft,70,11630,5,43,0,43,0,1,,,,,,,,,,,,,,,,,,,,,,,,,,,,,,,,,,,,,,,
,,,,,,,,2023-08-06_08h29.54.918,HF_wild_card,2022.2.4,Win32,60.0240096,63f3627e35e0e400ca50c26b,64ce5acb97489d65b14ecc7a,64cf4be23a5ec641e45aa512,,,,,,,,,,,,,,,,,,,,,,,,,,4,0,4,0,1,,,,,,,,,,,,,,,,,,,,,,,,,,,,,,,,,,
,,,,,,,,2023-08-06_08h29.54.918,HF_wild_card,2022.2.4,Win32,60.0240096,63f3627e35e0e400ca50c26b,64ce5acb97489d65b14ecc7a,64cf4be23a5ec641e45aa512,,,,,,,ctch,resources/DP.BMP,resources/DBN.BMP,Door3,-0.335648148,-0.019675926,1,0,0,1.921,optionLeft,70,11700,6,0,0,0,0,1,,,,,,,,,,,,,,,,,,,,,,,,,,,,,,,,,,,,,,,
,,,,,,,,2023-08-06_08h29.54.918,HF_wild_card,2022.2.4,Win32,60.0240096,63f3627e35e0e400ca50c26b,64ce5acb97489d65b14ecc7a,64cf4be23a5ec641e45aa512,,,,,,,decisionTrl,resources/DBN.BMP,resources/DG.BMP,Door1,0.306712963,-0.074074074,1,0,0,0.875,optionRight,30,11730,6,1,0,1,0,1,,,,,,,,,,,,,,,,,,,,,,,,,,,,,,,,,,,,,,,
,,,,,,,,2023-08-06_08h29.54.918,HF_wild_card,2022.2.4,Win32,60.0240096,63f3627e35e0e400ca50c26b,64ce5acb97489d65b14ecc7a,64cf4be23a5ec641e45aa512,,,,,,,ctch,resources/DG.BMP,resources/DB.BMP,Door4,0.212962963,-0.02662037,1,0,0,1.007,optionRight,80,11810,6,2,0,2,0,1,,,,,,,,,,,,,,,,,,,,,,,,,,,,,,,,,,,,,,,
,,,,,,,,2023-08-06_08h29.54.918,HF_wild_card,2022.2.4,Win32,60.0240096,63f3627e35e0e400ca50c26b,64ce5acb97489d65b14ecc7a,64cf4be23a5ec641e45aa512,,,,,,,decisionTrl,resources/DY.BMP,resources/DB.BMP,WildCard_NonEx,-0.219907407,0.076388889,1,0,0,0.824,optionLeft,45,11855,6,3,0,3,0,1,,,,,,,,,,,,,,,,,,,,,,,,,,,,,,,,,,,,,,,
,,,,,,,,2023-08-06_08h29.54.918,HF_wild_card,2022.2.4,Win32,60.0240096,63f3627e35e0e400ca50c26b,64ce5acb97489d65b14ecc7a,64cf4be23a5ec641e45aa512,,,,,,,ctch,resources/DG.BMP,resources/DB.BMP,Door1,-0.230324074,0.043981481,1,0,0,0.88,optionLeft,30,11885,6,4,0,4,0,1,,,,,,,,,,,,,,,,,,,,,,,,,,,,,,,,,,,,,,,
,,,,,,,,2023-08-06_08h29.54.918,HF_wild_card,2022.2.4,Win32,60.0240096,63f3627e35e0e400ca50c26b,64ce5acb97489d65b14ecc7a,64cf4be23a5ec641e45aa512,,,,,,,sngl,resources/DP.BMP,resources/Empty.png,Door3,-0.224537037,0.006944444,1,0,0,0.708,optionLeft,70,11955,6,5,0,5,0,1,,,,,,,,,,,,,,,,,,,,,,,,,,,,,,,,,,,,,,,
,,,,,,,,2023-08-06_08h29.54.918,HF_wild_card,2022.2.4,Win32,60.0240096,63f3627e35e0e400ca50c26b,64ce5acb97489d65b14ecc7a,64cf4be23a5ec641e45aa512,,,,,,,sngl,resources/DB.BMP,resources/Empty.png,Door4,-0.226851852,0.074074074,1,0,0,0.785,optionLeft,60,12015,6,6,0,6,0,1,,,,,,,,,,,,,,,,,,,,,,,,,,,,,,,,,,,,,,,
,,,,,,,,2023-08-06_08h29.54.918,HF_wild_card,2022.2.4,Win32,60.0240096,63f3627e35e0e400ca50c26b,64ce5acb97489d65b14ecc7a,64cf4be23a5ec641e45aa512,,,,,,,decisionTrl,resources/DG.BMP,resources/DY.BMP,WildCard_NonEx,0.3125,-0.083333333,1,0,0,0.727,optionRight,55,12070,6,7,0,7,0,1,,,,,,,,,,,,,,,,,,,,,,,,,,,,,,,,,,,,,,,
,,,,,,,,2023-08-06_08h29.54.918,HF_wild_card,2022.2.4,Win32,60.0240096,63f3627e35e0e400ca50c26b,64ce5acb97489d65b14ecc7a,64cf4be23a5ec641e45aa512,,,,,,,ctch,resources/DBN.BMP,resources/DP.BMP,Door3,0.211805556,-0.078703704,1,0,0,0.922,optionRight,70,12140,6,8,0,8,0,1,,,,,,,,,,,,,,,,,,,,,,,,,,,,,,,,,,,,,,,
,,,,,,,,2023-08-06_08h29.54.918,HF_wild_card,2022.2.4,Win32,60.0240096,63f3627e35e0e400ca50c26b,64ce5acb97489d65b14ecc7a,64cf4be23a5ec641e45aa512,,,,,,,decisionTrl,resources/DBN.BMP,resources/DG.BMP,Door1,0.324074074,-0.237268519,1,0,0,0.858,optionRight,30,12170,6,9,0,9,0,1,,,,,,,,,,,,,,,,,,,,,,,,,,,,,,,,,,,,,,,
,,,,,,,,2023-08-06_08h29.54.918,HF_wild_card,2022.2.4,Win32,60.0240096,63f3627e35e0e400ca50c26b,64ce5acb97489d65b14ecc7a,64cf4be23a5ec641e45aa512,,,,,,,ctch,resources/DB.BMP,resources/DG.BMP,Door4,-0.251157407,0.03125,1,0,0,0.888,optionLeft,80,12250,6,10,0,10,0,1,,,,,,,,,,,,,,,,,,,,,,,,,,,,,,,,,,,,,,,
,,,,,,,,2023-08-06_08h29.54.918,HF_wild_card,2022.2.4,Win32,60.0240096,63f3627e35e0e400ca50c26b,64ce5acb97489d65b14ecc7a,64cf4be23a5ec641e45aa512,,,,,,,decisionTrl,resources/DY.BMP,resources/DG.BMP,WildCard_NonEx,-0.3125,0.037037037,1,0,0,0.884,optionLeft,45,12295,6,11,0,11,0,1,,,,,,,,,,,,,,,,,,,,,,,,,,,,,,,,,,,,,,,
,,,,,,,,2023-08-06_08h29.54.918,HF_wild_card,2022.2.4,Win32,60.0240096,63f3627e35e0e400ca50c26b,64ce5acb97489d65b14ecc7a,64cf4be23a5ec641e45aa512,,,,,,,decisionTrl,resources/DBN.BMP,resources/DG.BMP,Door1,0.270833333,-0.079861111,1,0,0,0.739,optionRight,30,12325,6,12,0,12,0,1,,,,,,,,,,,,,,,,,,,,,,,,,,,,,,,,,,,,,,,
,,,,,,,,2023-08-06_08h29.54.918,HF_wild_card,2022.2.4,Win32,60.0240096,63f3627e35e0e400ca50c26b,64ce5acb97489d65b14ecc7a,64cf4be23a5ec641e45aa512,,,,,,,decisionTrl,resources/DG.BMP,resources/DBN.BMP,Door1,-0.211805556,0.069444444,1,0,0,0.776,optionLeft,30,12355,6,13,0,13,0,1,,,,,,,,,,,,,,,,,,,,,,,,,,,,,,,,,,,,,,,
,,,,,,,,2023-08-06_08h29.54.918,HF_wild_card,2022.2.4,Win32,60.0240096,63f3627e35e0e400ca50c26b,64ce5acb97489d65b14ecc7a,64cf4be23a5ec641e45aa512,,,,,,,decisionTrl,resources/DY.BMP,resources/DBN.BMP,WildCard_NonEx,-0.197916667,-0.083333333,1,0,0,0.772,optionLeft,45,12400,6,14,0,14,0,1,,,,,,,,,,,,,,,,,,,,,,,,,,,,,,,,,,,,,,,
,,,,,,,,2023-08-06_08h29.54.918,HF_wild_card,2022.2.4,Win32,60.0240096,63f3627e35e0e400ca50c26b,64ce5acb97489d65b14ecc7a,64cf4be23a5ec641e45aa512,,,,,,,decisionTrl,resources/DB.BMP,resources/DP.BMP,Door4,-0.222222222,0.091435185,1,0,0,0.808,optionLeft,60,12460,6,15,0,15,0,1,,,,,,,,,,,,,,,,,,,,,,,,,,,,,,,,,,,,,,,
,,,,,,,,2023-08-06_08h29.54.918,HF_wild_card,2022.2.4,Win32,60.0240096,63f3627e35e0e400ca50c26b,64ce5acb97489d65b14ecc7a,64cf4be23a5ec641e45aa512,,,,,,,sngl,resources/DY.BMP,resources/Empty.png,WildCard_NonEx,-0.119212963,0.054398148,1,0,0,0.707,optionLeft,45,12505,6,16,0,16,0,1,,,,,,,,,,,,,,,,,,,,,,,,,,,,,,,,,,,,,,,
,,,,,,,,2023-08-06_08h29.54.918,HF_wild_card,2022.2.4,Win32,60.0240096,63f3627e35e0e400ca50c26b,64ce5acb97489d65b14ecc7a,64cf4be23a5ec641e45aa512,,,,,,,sngl,resources/DBN.BMP,resources/Empty.png,Door2,-0.1875,0.075231481,1,0,0,1.142,optionLeft,20,12525,6,17,0,17,0,1,,,,,,,,,,,,,,,,,,,,,,,,,,,,,,,,,,,,,,,
,,,,,,,,2023-08-06_08h29.54.918,HF_wild_card,2022.2.4,Win32,60.0240096,63f3627e35e0e400ca50c26b,64ce5acb97489d65b14ecc7a,64cf4be23a5ec641e45aa512,,,,,,,decisionTrl,resources/DBN.BMP,resources/DG.BMP,Door1,0.420138889,0.144675926,1,0,0,0.825,optionRight,30,12555,6,18,0,18,0,1,,,,,,,,,,,,,,,,,,,,,,,,,,,,,,,,,,,,,,,
,,,,,,,,2023-08-06_08h29.54.918,HF_wild_card,2022.2.4,Win32,60.0240096,63f3627e35e0e400ca50c26b,64ce5acb97489d65b14ecc7a,64cf4be23a5ec641e45aa512,,,,,,,decisionTrl,resources/DG.BMP,resources/DBN.BMP,Door1,-0.385416667,0.178240741,1,0,0,0.876,optionLeft,30,12585,6,19,0,19,0,1,,,,,,,,,,,,,,,,,,,,,,,,,,,,,,,,,,,,,,,
,,,,,,,,2023-08-06_08h29.54.918,HF_wild_card,2022.2.4,Win32,60.0240096,63f3627e35e0e400ca50c26b,64ce5acb97489d65b14ecc7a,64cf4be23a5ec641e45aa512,,,,,,,decisionTrl,resources/DB.BMP,resources/DP.BMP,Door4,-0.217592593,-0.00462963,1,0,0,0.775,optionLeft,80,12665,6,20,0,20,0,1,,,,,,,,,,,,,,,,,,,,,,,,,,,,,,,,,,,,,,,
,,,,,,,,2023-08-06_08h29.54.918,HF_wild_card,2022.2.4,Win32,60.0240096,63f3627e35e0e400ca50c26b,64ce5acb97489d65b14ecc7a,64cf4be23a5ec641e45aa512,,,,,,,sngl,resources/Empty.png,resources/DY.BMP,WildCard_NonEx,0.363425926,-0.040509259,1,0,0,0.982,optionRight,45,12710,6,21,0,21,0,1,,,,,,,,,,,,,,,,,,,,,,,,,,,,,,,,,,,,,,,
,,,,,,,,2023-08-06_08h29.54.918,HF_wild_card,2022.2.4,Win32,60.0240096,63f3627e35e0e400ca50c26b,64ce5acb97489d65b14ecc7a,64cf4be23a5ec641e45aa512,,,,,,,decisionTrl,resources/DP.BMP,resources/DB.BMP,Door3,-0.258101852,-0.02662037,1,0,0,0.724,optionLeft,70,12780,6,22,0,22,0,1,,,,,,,,,,,,,,,,,,,,,,,,,,,,,,,,,,,,,,,
,,,,,,,,2023-08-06_08h29.54.918,HF_wild_card,2022.2.4,Win32,60.0240096,63f3627e35e0e400ca50c26b,64ce5acb97489d65b14ecc7a,64cf4be23a5ec641e45aa512,,,,,,,sngl,resources/Empty.png,resources/DP.BMP,Door3,0.327546296,0.141203704,1,0,0,0.759,optionRight,70,12850,6,23,0,23,0,1,,,,,,,,,,,,,,,,,,,,,,,,,,,,,,,,,,,,,,,
,,,,,,,,2023-08-06_08h29.54.918,HF_wild_card,2022.2.4,Win32,60.0240096,63f3627e35e0e400ca50c26b,64ce5acb97489d65b14ecc7a,64cf4be23a5ec641e45aa512,,,,,,,sngl,resources/Empty.png,resources/DBN.BMP,Door2,0.27662037,0.119212963,1,0,0,0.69,optionRight,40,12890,6,24,0,24,0,1,,,,,,,,,,,,,,,,,,,,,,,,,,,,,,,,,,,,,,,
,,,,,,,,2023-08-06_08h29.54.918,HF_wild_card,2022.2.4,Win32,60.0240096,63f3627e35e0e400ca50c26b,64ce5acb97489d65b14ecc7a,64cf4be23a5ec641e45aa512,,,,,,,decisionTrl,resources/DY.BMP,resources/DP.BMP,WildCard_NonEx,-0.326388889,0.030092593,1,0,0,0.762,optionLeft,45,12935,6,25,0,25,0,1,,,,,,,,,,,,,,,,,,,,,,,,,,,,,,,,,,,,,,,
,,,,,,,,2023-08-06_08h29.54.918,HF_wild_card,2022.2.4,Win32,60.0240096,63f3627e35e0e400ca50c26b,64ce5acb97489d65b14ecc7a,64cf4be23a5ec641e45aa512,,,,,,,sngl,resources/Empty.png,resources/DB.BMP,Door4,0.275462963,0.068287037,1,0,0,0.66,optionRight,80,13015,6,26,0,26,0,1,,,,,,,,,,,,,,,,,,,,,,,,,,,,,,,,,,,,,,,
,,,,,,,,2023-08-06_08h29.54.918,HF_wild_card,2022.2.4,Win32,60.0240096,63f3627e35e0e400ca50c26b,64ce5acb97489d65b14ecc7a,64cf4be23a5ec641e45aa512,,,,,,,sngl,resources/Empty.png,resources/DY.BMP,WildCard_NonEx,0.310185185,0.108796296,1,0,0,0.695,optionRight,55,13070,6,27,0,27,0,1,,,,,,,,,,,,,,,,,,,,,,,,,,,,,,,,,,,,,,,
,,,,,,,,2023-08-06_08h29.54.918,HF_wild_card,2022.2.4,Win32,60.0240096,63f3627e35e0e400ca50c26b,64ce5acb97489d65b14ecc7a,64cf4be23a5ec641e45aa512,,,,,,,decisionTrl,resources/DP.BMP,resources/DB.BMP,Door3,-0.266203704,0.039351852,1,0,0,0.74,optionLeft,70,13140,6,28,0,28,0,1,,,,,,,,,,,,,,,,,,,,,,,,,,,,,,,,,,,,,,,
,,,,,,,,2023-08-06_08h29.54.918,HF_wild_card,2022.2.4,Win32,60.0240096,63f3627e35e0e400ca50c26b,64ce5acb97489d65b14ecc7a,64cf4be23a5ec641e45aa512,,,,,,,decisionTrl,resources/DB.BMP,resources/DY.BMP,WildCard_NonEx,0.302083333,0.090277778,1,0,0,0.809,optionRight,45,13185,6,29,0,29,0,1,,,,,,,,,,,,,,,,,,,,,,,,,,,,,,,,,,,,,,,
,,,,,,,,2023-08-06_08h29.54.918,HF_wild_card,2022.2.4,Win32,60.0240096,63f3627e35e0e400ca50c26b,64ce5acb97489d65b14ecc7a,64cf4be23a5ec641e45aa512,,,,,,,decisionTrl,resources/DB.BMP,resources/DP.BMP,Door4,-0.202546296,-0.010416667,1,0,0,0.708,optionLeft,80,13265,6,30,0,30,0,1,,,,,,,,,,,,,,,,,,,,,,,,,,,,,,,,,,,,,,,
,,,,,,,,2023-08-06_08h29.54.918,HF_wild_card,2022.2.4,Win32,60.0240096,63f3627e35e0e400ca50c26b,64ce5acb97489d65b14ecc7a,64cf4be23a5ec641e45aa512,,,,,,,decisionTrl,resources/DP.BMP,resources/DY.BMP,WildCard_NonEx,0.190972222,0.039351852,1,0,0,0.742,optionRight,55,13320,6,31,0,31,0,1,,,,,,,,,,,,,,,,,,,,,,,,,,,,,,,,,,,,,,,
,,,,,,,,2023-08-06_08h29.54.918,HF_wild_card,2022.2.4,Win32,60.0240096,63f3627e35e0e400ca50c26b,64ce5acb97489d65b14ecc7a,64cf4be23a5ec641e45aa512,,,,,,,sngl,resources/DG.BMP,resources/Empty.png,Door1,-0.178240741,0.011574074,1,0,0,0.758,optionLeft,30,13350,6,32,0,32,0,1,,,,,,,,,,,,,,,,,,,,,,,,,,,,,,,,,,,,,,,
,,,,,,,,2023-08-06_08h29.54.918,HF_wild_card,2022.2.4,Win32,60.0240096,63f3627e35e0e400ca50c26b,64ce5acb97489d65b14ecc7a,64cf4be23a5ec641e45aa512,,,,,,,decisionTrl,resources/DB.BMP,resources/DP.BMP,Door3,0.289351852,0.065972222,1,0,0,0.679,optionRight,70,13420,6,33,0,33,0,1,,,,,,,,,,,,,,,,,,,,,,,,,,,,,,,,,,,,,,,
,,,,,,,,2023-08-06_08h29.54.918,HF_wild_card,2022.2.4,Win32,60.0240096,63f3627e35e0e400ca50c26b,64ce5acb97489d65b14ecc7a,64cf4be23a5ec641e45aa512,,,,,,,decisionTrl,resources/DG.BMP,resources/DBN.BMP,Door1,-0.189814815,-0.00462963,1,0,0,0.691,optionLeft,30,13450,6,34,0,34,0,1,,,,,,,,,,,,,,,,,,,,,,,,,,,,,,,,,,,,,,,
,,,,,,,,2023-08-06_08h29.54.918,HF_wild_card,2022.2.4,Win32,60.0240096,63f3627e35e0e400ca50c26b,64ce5acb97489d65b14ecc7a,64cf4be23a5ec641e45aa512,,,,,,,sngl,resources/Empty.png,resources/DG.BMP,Door1,0.248842593,0.094907407,1,0,0,0.672,optionRight,30,13480,6,35,0,35,0,1,,,,,,,,,,,,,,,,,,,,,,,,,,,,,,,,,,,,,,,
,,,,,,,,2023-08-06_08h29.54.918,HF_wild_card,2022.2.4,Win32,60.0240096,63f3627e35e0e400ca50c26b,64ce5acb97489d65b14ecc7a,64cf4be23a5ec641e45aa512,,,,,,,decisionTrl,resources/DP.BMP,resources/DB.BMP,Door4,0.188657407,0.043981481,1,0,0,1.121,optionRight,60,13540,6,36,0,36,0,1,,,,,,,,,,,,,,,,,,,,,,,,,,,,,,,,,,,,,,,
,,,,,,,,2023-08-06_08h29.54.918,HF_wild_card,2022.2.4,Win32,60.0240096,63f3627e35e0e400ca50c26b,64ce5acb97489d65b14ecc7a,64cf4be23a5ec641e45aa512,,,,,,,decisionTrl,resources/DBN.BMP,resources/DY.BMP,WildCard_NonEx,0.416666667,-0.133101852,1,0,0,0.958,optionRight,45,13585,6,37,0,37,0,1,,,,,,,,,,,,,,,,,,,,,,,,,,,,,,,,,,,,,,,
,,,,,,,,2023-08-06_08h29.54.918,HF_wild_card,2022.2.4,Win32,60.0240096,63f3627e35e0e400ca50c26b,64ce5acb97489d65b14ecc7a,64cf4be23a5ec641e45aa512,,,,,,,decisionTrl,resources/DG.BMP,resources/DBN.BMP,Door1,-0.306712963,0.024305556,1,0,0,0.709,optionLeft,30,13615,6,38,0,38,0,1,,,,,,,,,,,,,,,,,,,,,,,,,,,,,,,,,,,,,,,
,,,,,,,,2023-08-06_08h29.54.918,HF_wild_card,2022.2.4,Win32,60.0240096,63f3627e35e0e400ca50c26b,64ce5acb97489d65b14ecc7a,64cf4be23a5ec641e45aa512,,,,,,,ctch,resources/DBN.BMP,resources/DP.BMP,Door3,0.3125,-0.068287037,1,0,0,0.66,optionRight,70,13685,6,39,0,39,0,1,,,,,,,,,,,,,,,,,,,,,,,,,,,,,,,,,,,,,,,
,,,,,,,,2023-08-06_08h29.54.918,HF_wild_card,2022.2.4,Win32,60.0240096,63f3627e35e0e400ca50c26b,64ce5acb97489d65b14ecc7a,64cf4be23a5ec641e45aa512,,,,,,,ctch,resources/DB.BMP,resources/DG.BMP,Door1,0.228009259,-0.165509259,1,0,0,0.94,optionRight,30,13715,6,40,0,40,0,1,,,,,,,,,,,,,,,,,,,,,,,,,,,,,,,,,,,,,,,
,,,,,,,,2023-08-06_08h29.54.918,HF_wild_card,2022.2.4,Win32,60.0240096,63f3627e35e0e400ca50c26b,64ce5acb97489d65b14ecc7a,64cf4be23a5ec641e45aa512,,,,,,,sngl,resources/DY.BMP,resources/Empty.png,WildCard_NonEx,-0.217592593,0.017361111,1,0,0,0.792,optionLeft,55,13770,6,41,0,41,0,1,,,,,,,,,,,,,,,,,,,,,,,,,,,,,,,,,,,,,,,
,,,,,,,,2023-08-06_08h29.54.918,HF_wild_card,2022.2.4,Win32,60.0240096,63f3627e35e0e400ca50c26b,64ce5acb97489d65b14ecc7a,64cf4be23a5ec641e45aa512,,,,,,,ctch,resources/DP.BMP,resources/DBN.BMP,Door3,-0.30787037,0.010416667,1,0,0,0.974,optionLeft,70,13840,6,42,0,42,0,1,,,,,,,,,,,,,,,,,,,,,,,,,,,,,,,,,,,,,,,
,,,,,,,,2023-08-06_08h29.54.918,HF_wild_card,2022.2.4,Win32,60.0240096,63f3627e35e0e400ca50c26b,64ce5acb97489d65b14ecc7a,64cf4be23a5ec641e45aa512,,,,,,,decisionTrl,resources/DP.BMP,resources/DB.BMP,Door4,0.292824074,-0.028935185,1,0,0,1.025,optionRight,80,13920,6,43,0,43,0,1,,,,,,,,,,,,,,,,,,,,,,,,,,,,,,,,,,,,,,,
,,,,,,,,2023-08-06_08h29.54.918,HF_wild_card,2022.2.4,Win32,60.0240096,63f3627e35e0e400ca50c26b,64ce5acb97489d65b14ecc7a,64cf4be23a5ec641e45aa512,,,,,,,,,,,,,,,,,,,,,,,,,,5,0,5,0,1,,,,,,,,,,,,,,,,,,,,,,,,,,,,,,,,,,
,,,,,,,,2023-08-06_08h29.54.918,HF_wild_card,2022.2.4,Win32,60.0240096,63f3627e35e0e400ca50c26b,64ce5acb97489d65b14ecc7a,64cf4be23a5ec641e45aa512,,,,,,,decisionTrl,resources/DP.BMP,resources/DB.BMP,Door4,0.248842593,-0.094907407,1,0,0,1.804,optionRight,60,13980,7,0,0,0,0,1,,,,,,,,,,,,,,,,,,,,,,,,,,,,,,,,,,,,,,,
,,,,,,,,2023-08-06_08h29.54.918,HF_wild_card,2022.2.4,Win32,60.0240096,63f3627e35e0e400ca50c26b,64ce5acb97489d65b14ecc7a,64cf4be23a5ec641e45aa512,,,,,,,ctch,resources/DBN.BMP,resources/DP.BMP,Door3,0.375,-0.061342593,1,0,0,1.142,optionRight,70,14050,7,1,0,1,0,1,,,,,,,,,,,,,,,,,,,,,,,,,,,,,,,,,,,,,,,
,,,,,,,,2023-08-06_08h29.54.918,HF_wild_card,2022.2.4,Win32,60.0240096,63f3627e35e0e400ca50c26b,64ce5acb97489d65b14ecc7a,64cf4be23a5ec641e45aa512,,,,,,,decisionTrl,resources/DG.BMP,resources/DBN.BMP,Door1,-0.238425926,0.082175926,1,0,0,0.792,optionLeft,30,14080,7,2,0,2,0,1,,,,,,,,,,,,,,,,,,,,,,,,,,,,,,,,,,,,,,,
,,,,,,,,2023-08-06_08h29.54.918,HF_wild_card,2022.2.4,Win32,60.0240096,63f3627e35e0e400ca50c26b,64ce5acb97489d65b14ecc7a,64cf4be23a5ec641e45aa512,,,,,,,decisionTrl,resources/DBN.BMP,resources/DG.BMP,Door1,0.203703704,-0.039351852,1,0,0,0.858,optionRight,30,14110,7,3,0,3,0,1,,,,,,,,,,,,,,,,,,,,,,,,,,,,,,,,,,,,,,,
,,,,,,,,2023-08-06_08h29.54.918,HF_wild_card,2022.2.4,Win32,60.0240096,63f3627e35e0e400ca50c26b,64ce5acb97489d65b14ecc7a,64cf4be23a5ec641e45aa512,,,,,,,decisionTrl,resources/DB.BMP,resources/DP.BMP,Door4,-0.280092593,0.011574074,1,0,0,0.759,optionLeft,60,14170,7,4,0,4,0,1,,,,,,,,,,,,,,,,,,,,,,,,,,,,,,,,,,,,,,,
,,,,,,,,2023-08-06_08h29.54.918,HF_wild_card,2022.2.4,Win32,60.0240096,63f3627e35e0e400ca50c26b,64ce5acb97489d65b14ecc7a,64cf4be23a5ec641e45aa512,,,,,,,decisionTrl,resources/DP.BMP,resources/DB.BMP,Door4,0.328703704,-0.105324074,1,0,0,0.793,optionRight,60,14230,7,5,0,5,0,1,,,,,,,,,,,,,,,,,,,,,,,,,,,,,,,,,,,,,,,
,,,,,,,,2023-08-06_08h29.54.918,HF_wild_card,2022.2.4,Win32,60.0240096,63f3627e35e0e400ca50c26b,64ce5acb97489d65b14ecc7a,64cf4be23a5ec641e45aa512,,,,,,,decisionTrl,resources/DG.BMP,resources/DBN.BMP,Door1,-0.211805556,0.065972222,1,0,0,0.821,optionLeft,30,14260,7,6,0,6,0,1,,,,,,,,,,,,,,,,,,,,,,,,,,,,,,,,,,,,,,,
,,,,,,,,2023-08-06_08h29.54.918,HF_wild_card,2022.2.4,Win32,60.0240096,63f3627e35e0e400ca50c26b,64ce5acb97489d65b14ecc7a,64cf4be23a5ec641e45aa512,,,,,,,decisionTrl,resources/DBN.BMP,resources/DG.BMP,Door1,0.369212963,-0.135416667,1,0,0,0.792,optionRight,30,14290,7,7,0,7,0,1,,,,,,,,,,,,,,,,,,,,,,,,,,,,,,,,,,,,,,,
,,,,,,,,2023-08-06_08h29.54.918,HF_wild_card,2022.2.4,Win32,60.0240096,63f3627e35e0e400ca50c26b,64ce5acb97489d65b14ecc7a,64cf4be23a5ec641e45aa512,,,,,,,decisionTrl,resources/DBN.BMP,resources/DG.BMP,Door1,0.238425926,-0.005787037,1,0,0,0.83,optionRight,30,14320,7,8,0,8,0,1,,,,,,,,,,,,,,,,,,,,,,,,,,,,,,,,,,,,,,,
,,,,,,,,2023-08-06_08h29.54.918,HF_wild_card,2022.2.4,Win32,60.0240096,63f3627e35e0e400ca50c26b,64ce5acb97489d65b14ecc7a,64cf4be23a5ec641e45aa512,,,,,,,ctch,resources/DG.BMP,resources/DB.BMP,Door4,0.271990741,-0.082175926,1,0,0,0.976,optionRight,60,14380,7,9,0,9,0,1,,,,,,,,,,,,,,,,,,,,,,,,,,,,,,,,,,,,,,,
,,,,,,,,2023-08-06_08h29.54.918,HF_wild_card,2022.2.4,Win32,60.0240096,63f3627e35e0e400ca50c26b,64ce5acb97489d65b14ecc7a,64cf4be23a5ec641e45aa512,,,,,,,ctch,resources/DP.BMP,resources/DBN.BMP,Door3,-0.189814815,0.074074074,1,0,0,0.861,optionLeft,70,14450,7,10,0,10,0,1,,,,,,,,,,,,,,,,,,,,,,,,,,,,,,,,,,,,,,,
,,,,,,,,2023-08-06_08h29.54.918,HF_wild_card,2022.2.4,Win32,60.0240096,63f3627e35e0e400ca50c26b,64ce5acb97489d65b14ecc7a,64cf4be23a5ec641e45aa512,,,,,,,ctch,resources/DBN.BMP,resources/DP.BMP,Door3,0.274305556,-0.013888889,1,0,0,0.844,optionRight,70,14520,7,11,0,11,0,1,,,,,,,,,,,,,,,,,,,,,,,,,,,,,,,,,,,,,,,
,,,,,,,,2023-08-06_08h29.54.918,HF_wild_card,2022.2.4,Win32,60.0240096,63f3627e35e0e400ca50c26b,64ce5acb97489d65b14ecc7a,64cf4be23a5ec641e45aa512,,,,,,,decisionTrl,resources/DB.BMP,resources/DP.BMP,Door4,-0.023148148,0.006944444,1,0,0,0.161,optionLeft,80,14600,7,12,0,12,0,1,,,,,,,,,,,,,,,,,,,,,,,,,,,,,,,,,,,,,,,
,,,,,,,,2023-08-06_08h29.54.918,HF_wild_card,2022.2.4,Win32,60.0240096,63f3627e35e0e400ca50c26b,64ce5acb97489d65b14ecc7a,64cf4be23a5ec641e45aa512,,,,,,,decisionTrl,resources/DG.BMP,resources/DBN.BMP,Door1,-0.30787037,-0.001157407,1,0,0,0.964,optionLeft,30,14630,7,13,0,13,0,1,,,,,,,,,,,,,,,,,,,,,,,,,,,,,,,,,,,,,,,
,,,,,,,,2023-08-06_08h29.54.918,HF_wild_card,2022.2.4,Win32,60.0240096,63f3627e35e0e400ca50c26b,64ce5acb97489d65b14ecc7a,64cf4be23a5ec641e45aa512,,,,,,,ctch,resources/DG.BMP,resources/DB.BMP,Door1,-0.199074074,0.012731481,1,0,0,0.925,optionLeft,30,14660,7,14,0,14,0,1,,,,,,,,,,,,,,,,,,,,,,,,,,,,,,,,,,,,,,,
,,,,,,,,2023-08-06_08h29.54.918,HF_wild_card,2022.2.4,Win32,60.0240096,63f3627e35e0e400ca50c26b,64ce5acb97489d65b14ecc7a,64cf4be23a5ec641e45aa512,,,,,,,decisionTrl,resources/DP.BMP,resources/DB.BMP,Door4,0.363425926,0.00462963,1,0,0,0.828,optionRight,80,14740,7,15,0,15,0,1,,,,,,,,,,,,,,,,,,,,,,,,,,,,,,,,,,,,,,,
,,,,,,,,2023-08-06_08h29.54.918,HF_wild_card,2022.2.4,Win32,60.0240096,63f3627e35e0e400ca50c26b,64ce5acb97489d65b14ecc7a,64cf4be23a5ec641e45aa512,,,,,,,ctch,resources/DB.BMP,resources/DG.BMP,Door1,0.377314815,0.0625,1,0,0,0.905,optionRight,30,14770,7,16,0,16,0,1,,,,,,,,,,,,,,,,,,,,,,,,,,,,,,,,,,,,,,,
,,,,,,,,2023-08-06_08h29.54.918,HF_wild_card,2022.2.4,Win32,60.0240096,63f3627e35e0e400ca50c26b,64ce5acb97489d65b14ecc7a,64cf4be23a5ec641e45aa512,,,,,,,decisionTrl,resources/DB.BMP,resources/DP.BMP,Door4,-0.248842593,0.018518519,1,0,0,0.849,optionLeft,80,14850,7,17,0,17,0,1,,,,,,,,,,,,,,,,,,,,,,,,,,,,,,,,,,,,,,,
,,,,,,,,2023-08-06_08h29.54.918,HF_wild_card,2022.2.4,Win32,60.0240096,63f3627e35e0e400ca50c26b,64ce5acb97489d65b14ecc7a,64cf4be23a5ec641e45aa512,,,,,,,decisionTrl,resources/DG.BMP,resources/DBN.BMP,Door1,-0.206018519,0.024305556,1,0,0,0.89,optionLeft,30,14880,7,18,0,18,0,1,,,,,,,,,,,,,,,,,,,,,,,,,,,,,,,,,,,,,,,
,,,,,,,,2023-08-06_08h29.54.918,HF_wild_card,2022.2.4,Win32,60.0240096,63f3627e35e0e400ca50c26b,64ce5acb97489d65b14ecc7a,64cf4be23a5ec641e45aa512,,,,,,,decisionTrl,resources/DG.BMP,resources/DBN.BMP,Door2,0.293981481,-0.032407407,1,0,0,0.793,optionRight,40,14920,7,19,0,19,0,1,,,,,,,,,,,,,,,,,,,,,,,,,,,,,,,,,,,,,,,
,,,,,,,,2023-08-06_08h29.54.918,HF_wild_card,2022.2.4,Win32,60.0240096,63f3627e35e0e400ca50c26b,64ce5acb97489d65b14ecc7a,64cf4be23a5ec641e45aa512,,,,,,,decisionTrl,resources/DP.BMP,resources/DB.BMP,Door3,-0.002314815,0.024305556,1,0,0,0.126,optionLeft,70,14990,7,20,0,20,0,1,,,,,,,,,,,,,,,,,,,,,,,,,,,,,,,,,,,,,,,
,,,,,,,,2023-08-06_08h29.54.918,HF_wild_card,2022.2.4,Win32,60.0240096,63f3627e35e0e400ca50c26b,64ce5acb97489d65b14ecc7a,64cf4be23a5ec641e45aa512,,,,,,,ctch,resources/DG.BMP,resources/DB.BMP,Door4,0.353009259,0.104166667,1,0,0,0.636,optionRight,80,15070,7,21,0,21,0,1,,,,,,,,,,,,,,,,,,,,,,,,,,,,,,,,,,,,,,,
,,,,,,,,2023-08-06_08h29.54.918,HF_wild_card,2022.2.4,Win32,60.0240096,63f3627e35e0e400ca50c26b,64ce5acb97489d65b14ecc7a,64cf4be23a5ec641e45aa512,,,,,,,decisionTrl,resources/DP.BMP,resources/DB.BMP,Door3,-0.215277778,0.006944444,1,0,0,0.745,optionLeft,70,15140,7,22,0,22,0,1,,,,,,,,,,,,,,,,,,,,,,,,,,,,,,,,,,,,,,,
,,,,,,,,2023-08-06_08h29.54.918,HF_wild_card,2022.2.4,Win32,60.0240096,63f3627e35e0e400ca50c26b,64ce5acb97489d65b14ecc7a,64cf4be23a5ec641e45aa512,,,,,,,decisionTrl,resources/DBN.BMP,resources/DG.BMP,Door1,0.353009259,0.104166667,1,0,0,1.066,optionRight,30,15170,7,23,0,23,0,1,,,,,,,,,,,,,,,,,,,,,,,,,,,,,,,,,,,,,,,
,,,,,,,,2023-08-06_08h29.54.918,HF_wild_card,2022.2.4,Win32,60.0240096,63f3627e35e0e400ca50c26b,64ce5acb97489d65b14ecc7a,64cf4be23a5ec641e45aa512,,,,,,,ctch,resources/DP.BMP,resources/DBN.BMP,Door3,-0.240740741,0.016203704,1,0,0,0.641,optionLeft,70,15240,7,24,0,24,0,1,,,,,,,,,,,,,,,,,,,,,,,,,,,,,,,,,,,,,,,
,,,,,,,,2023-08-06_08h29.54.918,HF_wild_card,2022.2.4,Win32,60.0240096,63f3627e35e0e400ca50c26b,64ce5acb97489d65b14ecc7a,64cf4be23a5ec641e45aa512,,,,,,,ctch,resources/DB.BMP,resources/DG.BMP,Door1,0.291666667,-0.019675926,1,0,0,0.66,optionRight,30,15270,7,25,0,25,0,1,,,,,,,,,,,,,,,,,,,,,,,,,,,,,,,,,,,,,,,
,,,,,,,,2023-08-06_08h29.54.918,HF_wild_card,2022.2.4,Win32,60.0240096,63f3627e35e0e400ca50c26b,64ce5acb97489d65b14ecc7a,64cf4be23a5ec641e45aa512,,,,,,,decisionTrl,resources/DB.BMP,resources/DP.BMP,Door4,-0.211805556,0.043981481,1,0,0,0.732,optionLeft,80,15350,7,26,0,26,0,1,,,,,,,,,,,,,,,,,,,,,,,,,,,,,,,,,,,,,,,
,,,,,,,,2023-08-06_08h29.54.918,HF_wild_card,2022.2.4,Win32,60.0240096,63f3627e35e0e400ca50c26b,64ce5acb97489d65b14ecc7a,64cf4be23a5ec641e45aa512,,,,,,,decisionTrl,resources/DBN.BMP,resources/DG.BMP,Door1,0.353009259,-0.013888889,1,0,0,0.792,optionRight,30,15380,7,27,0,27,0,1,,,,,,,,,,,,,,,,,,,,,,,,,,,,,,,,,,,,,,,
,,,,,,,,2023-08-06_08h29.54.918,HF_wild_card,2022.2.4,Win32,60.0240096,63f3627e35e0e400ca50c26b,64ce5acb97489d65b14ecc7a,64cf4be23a5ec641e45aa512,,,,,,,decisionTrl,resources/DB.BMP,resources/DP.BMP,Door4,-0.322916667,0.0625,1,0,0,0.724,optionLeft,80,15460,7,28,0,28,0,1,,,,,,,,,,,,,,,,,,,,,,,,,,,,,,,,,,,,,,,
,,,,,,,,2023-08-06_08h29.54.918,HF_wild_card,2022.2.4,Win32,60.0240096,63f3627e35e0e400ca50c26b,64ce5acb97489d65b14ecc7a,64cf4be23a5ec641e45aa512,,,,,,,decisionTrl,resources/DBN.BMP,resources/DG.BMP,Door1,0.206018519,-0.002314815,1,0,0,0.742,optionRight,30,15490,7,29,0,29,0,1,,,,,,,,,,,,,,,,,,,,,,,,,,,,,,,,,,,,,,,
,,,,,,,,2023-08-06_08h29.54.918,HF_wild_card,2022.2.4,Win32,60.0240096,63f3627e35e0e400ca50c26b,64ce5acb97489d65b14ecc7a,64cf4be23a5ec641e45aa512,,,,,,,ctch,resources/DP.BMP,resources/DBN.BMP,Door3,-0.263888889,0.138888889,1,0,0,0.875,optionLeft,70,15560,7,30,0,30,0,1,,,,,,,,,,,,,,,,,,,,,,,,,,,,,,,,,,,,,,,
,,,,,,,,2023-08-06_08h29.54.918,HF_wild_card,2022.2.4,Win32,60.0240096,63f3627e35e0e400ca50c26b,64ce5acb97489d65b14ecc7a,64cf4be23a5ec641e45aa512,,,,,,,ctch,resources/DB.BMP,resources/DG.BMP,Door4,-0.193287037,0.033564815,1,0,0,0.766,optionLeft,80,15640,7,31,0,31,0,1,,,,,,,,,,,,,,,,,,,,,,,,,,,,,,,,,,,,,,,
,,,,,,,,2023-08-06_08h29.54.918,HF_wild_card,2022.2.4,Win32,60.0240096,63f3627e35e0e400ca50c26b,64ce5acb97489d65b14ecc7a,64cf4be23a5ec641e45aa512,,,,,,,ctch,resources/DBN.BMP,resources/DP.BMP,Door3,0.266203704,-0.028935185,1,0,0,0.846,optionRight,70,15710,7,32,0,32,0,1,,,,,,,,,,,,,,,,,,,,,,,,,,,,,,,,,,,,,,,
,,,,,,,,2023-08-06_08h29.54.918,HF_wild_card,2022.2.4,Win32,60.0240096,63f3627e35e0e400ca50c26b,64ce5acb97489d65b14ecc7a,64cf4be23a5ec641e45aa512,,,,,,,decisionTrl,resources/DP.BMP,resources/DB.BMP,Door3,-0.167824074,-0.018518519,1,0,0,0.813,optionLeft,70,15780,7,33,0,33,0,1,,,,,,,,,,,,,,,,,,,,,,,,,,,,,,,,,,,,,,,
,,,,,,,,2023-08-06_08h29.54.918,HF_wild_card,2022.2.4,Win32,60.0240096,63f3627e35e0e400ca50c26b,64ce5acb97489d65b14ecc7a,64cf4be23a5ec641e45aa512,,,,,,,decisionTrl,resources/DG.BMP,resources/DBN.BMP,Door1,-0.178240741,0.030092593,1,0,0,1.026,optionLeft,30,15810,7,34,0,34,0,1,,,,,,,,,,,,,,,,,,,,,,,,,,,,,,,,,,,,,,,
,,,,,,,,2023-08-06_08h29.54.918,HF_wild_card,2022.2.4,Win32,60.0240096,63f3627e35e0e400ca50c26b,64ce5acb97489d65b14ecc7a,64cf4be23a5ec641e45aa512,,,,,,,decisionTrl,resources/DB.BMP,resources/DP.BMP,Door4,-0.266203704,-0.002314815,1,0,0,0.726,optionLeft,60,15870,7,35,0,35,0,1,,,,,,,,,,,,,,,,,,,,,,,,,,,,,,,,,,,,,,,
,,,,,,,,2023-08-06_08h29.54.918,HF_wild_card,2022.2.4,Win32,60.0240096,63f3627e35e0e400ca50c26b,64ce5acb97489d65b14ecc7a,64cf4be23a5ec641e45aa512,,,,,,,,,,,,,,,,,,,,,,,,,,6,0,6,0,1,,,,,,,,,,,,,,,,,,,,,,,,,,,,,,,,,,
,,,,,,,,2023-08-06_08h29.54.918,HF_wild_card,2022.2.4,Win32,60.0240096,63f3627e35e0e400ca50c26b,64ce5acb97489d65b14ecc7a,64cf4be23a5ec641e45aa512,,,,,,,,,,,,,,,,,,,,,,,,,,,,,,,3,,,,,,,,,,,,,,,,,,,,,,,,,,,,,,,,,
,,,,,,,,2023-08-06_08h29.54.918,HF_wild_card,2022.2.4,Win32,60.0240096,63f3627e35e0e400ca50c26b,64ce5acb97489d65b14ecc7a,64cf4be23a5ec641e45aa512,,,,,,,,,,,,,,,,,,,,,,,,,,,,,,,,,,,,,,,,,,,,,,,,,,,,,,,,,,,,,,,,
,,,,,,,,2023-08-06_08h29.54.918,HF_wild_card,2022.2.4,Win32,60.0240096,63f3627e35e0e400ca50c26b,64ce5acb97489d65b14ecc7a,64cf4be23a5ec641e45aa512,,,,,,,,,,,,,,,,,,,,,,,,,,,,,,,,45,Door3,resources/DP.BMP,0,0,0,0,1,,,,,,,,,,,,,,,,,,,,,,,,,
,,,,,,,,2023-08-06_08h29.54.918,HF_wild_card,2022.2.4,Win32,60.0240096,63f3627e35e0e400ca50c26b,64ce5acb97489d65b14ecc7a,64cf4be23a5ec641e45aa512,,,,,,,,,,,,,,,,,,,,,,,,,,,,,,,,30,Door4,resources/DB.BMP,1,0,1,0,1,,,,,,,,,,,,,,,,,,,,,,,,,
,,,,,,,,2023-08-06_08h29.54.918,HF_wild_card,2022.2.4,Win32,60.0240096,63f3627e35e0e400ca50c26b,64ce5acb97489d65b14ecc7a,64cf4be23a5ec641e45aa512,,,,,,,,,,,,,,,,,,,,,,,,,,,,,,,,75,WC_nonExtreme,resources/DY.BMP,2,0,2,0,1,,,,,,,,,,,,,,,,,,,,,,,,,
,,,,,,,,2023-08-06_08h29.54.918,HF_wild_card,2022.2.4,Win32,60.0240096,63f3627e35e0e400ca50c26b,64ce5acb97489d65b14ecc7a,64cf4be23a5ec641e45aa512,,,,,,,,,,,,,,,,,,,,,,,,,,,,,,,,60,Door2,resources/DBN.BMP,3,0,3,0,1,,,,,,,,,,,,,,,,,,,,,,,,,
,,,,,,,,2023-08-06_08h29.54.918,HF_wild_card,2022.2.4,Win32,60.0240096,63f3627e35e0e400ca50c26b,64ce5acb97489d65b14ecc7a,64cf4be23a5ec641e45aa512,,,,,,,,,,,,,,,,,,,,,,,,,,,,,,,,60,Door1,resources/DG.BMP,4,0,4,0,1,,,,,,,,,,,,,,,,,,,,,,,,,
,,,,,,,,2023-08-06_08h29.54.918,HF_wild_card,2022.2.4,Win32,60.0240096,63f3627e35e0e400ca50c26b,64ce5acb97489d65b14ecc7a,64cf4be23a5ec641e45aa512,,,,,,,,,,,,,,,,,,,,,,,,,,,,,,,,95,WC_extreme,resources/DR.BMP,5,0,5,0,1,,,,,,,,,,,,,,,,,,,,,,,,,
,,,,,,,,2023-08-06_08h29.54.918,HF_wild_card,2022.2.4,Win32,60.0240096,63f3627e35e0e400ca50c26b,64ce5acb97489d65b14ecc7a,64cf4be23a5ec641e45aa512,,,,,,,,,,,,,,,,,,,,,,,,,,,,,,,,,,,,,,,,,,,,,,,,,,,,,,,,,,,,,,,,
,,,,,,,,2023-08-06_08h29.54.918,HF_wild_card,2022.2.4,Win32,60.0240096,63f3627e35e0e400ca50c26b,64ce5acb97489d65b14ecc7a,64cf4be23a5ec641e45aa512,,,,,,,,,,,,,,,,,,,,,,,,,,,,,,,,,,,,,,,,0,0,0,0,1,,,,,,,,,,,,,,,,,,,,
,,,,,,,,2023-08-06_08h29.54.918,HF_wild_card,2022.2.4,Win32,60.0240096,63f3627e35e0e400ca50c26b,64ce5acb97489d65b14ecc7a,64cf4be23a5ec641e45aa512,,,,,,,,,,,,,,,,,,,,,,,,,,,,,,,,,,,,,,,,1,0,1,0,1,,,,,,,,,,,,,,,,,,,,
,,,,,,,,2023-08-06_08h29.54.918,HF_wild_card,2022.2.4,Win32,60.0240096,63f3627e35e0e400ca50c26b,64ce5acb97489d65b14ecc7a,64cf4be23a5ec641e45aa512,,,,,,,,,,,,,,,,,,,,,,,,,,,,,,,,,,,,,,,,,,,,,-0.270833333,-0.407407407,1,0,0,yes,60%,30%,Door3,resources/DP.BMP,0,0,0,0,1,,,,,
