Condition,Low fixed image (Door1),Low risky image (Door2),High fixed image (Door3),High risky image (Door4),NonExtreme Wild Card 1,NonExtreme Wild Card 2,,date,expName,psychopyVersion,OS,frameRate,PROLIFIC_PID,STUDY_ID,SESSION_ID,mouse_2.x,mouse_2.y,mouse_2.leftButton,mouse_2.midButton,mouse_2.rightButton,mouse_2.clicked_name,Trial Type,Left Option Image,Right Option Image,Chosen Door,mouse.x,mouse.y,mouse.leftButton,mouse.midButton,mouse.rightButton,mouse.time,mouse.clicked_name,Feedback,Cumulative Reward,Block,trial.thisRepN,trial.thisTrialN,trial.thisN,trial.thisIndex,trial.ran,blocks.thisRepN,blocks.thisTrialN,blocks.thisN,blocks.thisIndex,blocks.ran,Money conversion,First Outcome Reported,Shown Door (First Outcome),Displayed Image (First Outcome),outcomes.thisRepN,outcomes.thisTrialN,outcomes.thisN,outcomes.thisIndex,outcomes.ran,judgments.thisRepN,judgments.thisTrialN,judgments.thisN,judgments.thisIndex,judgments.ran,freqMouse.x,freqMouse.y,freqMouse.leftButton,freqMouse.midButton,freqMouse.rightButton,freqMouse.clicked_name,FQJ for first outcome,FQJ for second outcome,Shown Door,Displayed Image,trials.thisRepN,trials.thisTrialN,trials.thisN,trials.thisIndex,trials.ran,judgBlock.thisRepN,judgBlock.thisTrialN,judgBlock.thisN,judgBlock.thisIndex,judgBlock.ran
2,resources/DR.BMP,resources/DP.BMP,resources/DG.BMP,resources/DBN.BMP,resources/DY.BMP,resources/DB.BMP,,2023-08-16_08h44.47.727,HF_wild_card,2022.2.4,Linux x86_64,60.06006006,6146fae1e27a56034fdcb5c5,64d2fd46c836a06233681665,64dc7e5754e17fa3494411ea,,,,,,,,,,,,,,,,,,,,,,,,,,,,,,,,,,,,,,,,,,,,,,,,,,,,,,,,,,,,,,,,
,,,,,,,,2023-08-16_08h44.47.727,HF_wild_card,2022.2.4,Linux x86_64,60.06006006,6146fae1e27a56034fdcb5c5,64d2fd46c836a06233681665,64dc7e5754e17fa3494411ea,0.002410173,-0.418106318,1,0,0,agree,,,,,,,,,,,,,,,,,,,,,,,,,,,,,,,,,,,,,,,,,,,,,,,,,,,,,,,,,,
,,,,,,,,2023-08-16_08h44.47.727,HF_wild_card,2022.2.4,Linux x86_64,60.06006006,6146fae1e27a56034fdcb5c5,64d2fd46c836a06233681665,64dc7e5754e17fa3494411ea,,,,,,,,,,,,,,,,,,,,,,,,,,,,,,,,,,,,,,,,,,,,,,,,,,,,,,,,,,,,,,,,
,,,,,,,,2023-08-16_08h44.47.727,HF_wild_card,2022.2.4,Linux x86_64,60.06006006,6146fae1e27a56034fdcb5c5,64d2fd46c836a06233681665,64dc7e5754e17fa3494411ea,,,,,,,decisionTrl,resources/DR.BMP,resources/DP.BMP,Door1,-0.128286839,-0.171046813,1,0,0,2.5678,optionLeft,30,30,1,0,0,0,0,1,,,,,,,,,,,,,,,,,,,,,,,,,,,,,,,,,,,,,,,
,,,,,,,,2023-08-16_08h44.47.727,HF_wild_card,2022.2.4,Linux x86_64,60.06006006,6146fae1e27a56034fdcb5c5,64d2fd46c836a06233681665,64dc7e5754e17fa3494411ea,,,,,,,sngl,resources/Empty.png,resources/DBN.BMP,Door4,0.385593096,-0.065696359,1,0,0,1.2082,optionRight,60,90,1,1,0,1,0,1,,,,,,,,,,,,,,,,,,,,,,,,,,,,,,,,,,,,,,,
,,,,,,,,2023-08-16_08h44.47.727,HF_wild_card,2022.2.4,Linux x86_64,60.06006006,6146fae1e27a56034fdcb5c5,64d2fd46c836a06233681665,64dc7e5754e17fa3494411ea,,,,,,,decisionTrl,resources/DB.BMP,resources/DP.BMP,WildCard_NonEx,-0.062397639,-0.016776522,1,0,0,1.43,optionLeft,55,145,1,2,0,2,0,1,,,,,,,,,,,,,,,,,,,,,,,,,,,,,,,,,,,,,,,
,,,,,,,,2023-08-16_08h44.47.727,HF_wild_card,2022.2.4,Linux x86_64,60.06006006,6146fae1e27a56034fdcb5c5,64d2fd46c836a06233681665,64dc7e5754e17fa3494411ea,,,,,,,sngl,resources/Empty.png,resources/DG.BMP,Door3,0.260045211,-0.061595996,1,0,0,1.1077,optionRight,70,215,1,3,0,3,0,1,,,,,,,,,,,,,,,,,,,,,,,,,,,,,,,,,,,,,,,
,,,,,,,,2023-08-16_08h44.47.727,HF_wild_card,2022.2.4,Linux x86_64,60.06006006,6146fae1e27a56034fdcb5c5,64d2fd46c836a06233681665,64dc7e5754e17fa3494411ea,,,,,,,ctch,resources/DP.BMP,resources/DG.BMP,Door3,0.284398238,-0.082293948,1,0,0,2.0774,optionRight,70,285,1,4,0,4,0,1,,,,,,,,,,,,,,,,,,,,,,,,,,,,,,,,,,,,,,,
,,,,,,,,2023-08-16_08h44.47.727,HF_wild_card,2022.2.4,Linux x86_64,60.06006006,6146fae1e27a56034fdcb5c5,64d2fd46c836a06233681665,64dc7e5754e17fa3494411ea,,,,,,,sngl,resources/DG.BMP,resources/Empty.png,Door3,-0.183812459,-0.024791042,1,0,0,0.8117,optionLeft,70,355,1,5,0,5,0,1,,,,,,,,,,,,,,,,,,,,,,,,,,,,,,,,,,,,,,,
,,,,,,,,2023-08-16_08h44.47.727,HF_wild_card,2022.2.4,Linux x86_64,60.06006006,6146fae1e27a56034fdcb5c5,64d2fd46c836a06233681665,64dc7e5754e17fa3494411ea,,,,,,,decisionTrl,resources/DR.BMP,resources/DP.BMP,Door1,-0.211255153,-0.106960098,1,0,0,1.0632,optionLeft,30,385,1,6,0,6,0,1,,,,,,,,,,,,,,,,,,,,,,,,,,,,,,,,,,,,,,,
,,,,,,,,2023-08-16_08h44.47.727,HF_wild_card,2022.2.4,Linux x86_64,60.06006006,6146fae1e27a56034fdcb5c5,64d2fd46c836a06233681665,64dc7e5754e17fa3494411ea,,,,,,,decisionTrl,resources/DP.BMP,resources/DR.BMP,Door2,-0.255789916,-0.258599758,1,0,0,1.0915,optionLeft,20,405,1,7,0,7,0,1,,,,,,,,,,,,,,,,,,,,,,,,,,,,,,,,,,,,,,,
,,,,,,,,2023-08-16_08h44.47.727,HF_wild_card,2022.2.4,Linux x86_64,60.06006006,6146fae1e27a56034fdcb5c5,64d2fd46c836a06233681665,64dc7e5754e17fa3494411ea,,,,,,,ctch,resources/DG.BMP,resources/DP.BMP,Door3,-0.222615321,-0.068314234,1,0,0,1.494,optionLeft,70,475,1,8,0,8,0,1,,,,,,,,,,,,,,,,,,,,,,,,,,,,,,,,,,,,,,,
,,,,,,,,2023-08-16_08h44.47.727,HF_wild_card,2022.2.4,Linux x86_64,60.06006006,6146fae1e27a56034fdcb5c5,64d2fd46c836a06233681665,64dc7e5754e17fa3494411ea,,,,,,,sngl,resources/Empty.png,resources/DB.BMP,WildCard_NonEx,0.363566478,-0.017500798,1,0,0,0.9417,optionRight,45,520,1,9,0,9,0,1,,,,,,,,,,,,,,,,,,,,,,,,,,,,,,,,,,,,,,,
,,,,,,,,2023-08-16_08h44.47.727,HF_wild_card,2022.2.4,Linux x86_64,60.06006006,6146fae1e27a56034fdcb5c5,64d2fd46c836a06233681665,64dc7e5754e17fa3494411ea,,,,,,,ctch,resources/DP.BMP,resources/DG.BMP,Door2,-0.159815868,0.007064899,1,0,0,1.52,optionLeft,40,560,1,10,0,10,0,1,,,,,,,,,,,,,,,,,,,,,,,,,,,,,,,,,,,,,,,
,,,,,,,,2023-08-16_08h44.47.727,HF_wild_card,2022.2.4,Linux x86_64,60.06006006,6146fae1e27a56034fdcb5c5,64d2fd46c836a06233681665,64dc7e5754e17fa3494411ea,,,,,,,decisionTrl,resources/DB.BMP,resources/DBN.BMP,Door4,0.554690679,0.083549182,1,0,0,0.7773,optionRight,60,620,1,11,0,11,0,1,,,,,,,,,,,,,,,,,,,,,,,,,,,,,,,,,,,,,,,
,,,,,,,,2023-08-16_08h44.47.727,HF_wild_card,2022.2.4,Linux x86_64,60.06006006,6146fae1e27a56034fdcb5c5,64d2fd46c836a06233681665,64dc7e5754e17fa3494411ea,,,,,,,decisionTrl,resources/DR.BMP,resources/DP.BMP,Door1,-0.311177651,-0.053953131,1,0,0,0.8179,optionLeft,30,650,1,12,0,12,0,1,,,,,,,,,,,,,,,,,,,,,,,,,,,,,,,,,,,,,,,
,,,,,,,,2023-08-16_08h44.47.727,HF_wild_card,2022.2.4,Linux x86_64,60.06006006,6146fae1e27a56034fdcb5c5,64d2fd46c836a06233681665,64dc7e5754e17fa3494411ea,,,,,,,ctch,resources/DBN.BMP,resources/DR.BMP,Door1,0.354533116,-0.016517679,1,0,0,0.7954,optionRight,30,680,1,13,0,13,0,1,,,,,,,,,,,,,,,,,,,,,,,,,,,,,,,,,,,,,,,
,,,,,,,,2023-08-16_08h44.47.727,HF_wild_card,2022.2.4,Linux x86_64,60.06006006,6146fae1e27a56034fdcb5c5,64d2fd46c836a06233681665,64dc7e5754e17fa3494411ea,,,,,,,decisionTrl,resources/DBN.BMP,resources/DG.BMP,Door3,0.112394015,-0.003931443,1,0,0,1.24,optionRight,70,750,1,14,0,14,0,1,,,,,,,,,,,,,,,,,,,,,,,,,,,,,,,,,,,,,,,
,,,,,,,,2023-08-16_08h44.47.727,HF_wild_card,2022.2.4,Linux x86_64,60.06006006,6146fae1e27a56034fdcb5c5,64d2fd46c836a06233681665,64dc7e5754e17fa3494411ea,,,,,,,decisionTrl,resources/DG.BMP,resources/DBN.BMP,Door3,-0.231098056,-0.009396752,1,0,0,1.3744,optionLeft,70,820,1,15,0,15,0,1,,,,,,,,,,,,,,,,,,,,,,,,,,,,,,,,,,,,,,,
,,,,,,,,2023-08-16_08h44.47.727,HF_wild_card,2022.2.4,Linux x86_64,60.06006006,6146fae1e27a56034fdcb5c5,64d2fd46c836a06233681665,64dc7e5754e17fa3494411ea,,,,,,,decisionTrl,resources/DBN.BMP,resources/DB.BMP,Door4,-0.205786864,-0.0289855,1,0,0,1.3385,optionLeft,60,880,1,16,0,16,0,1,,,,,,,,,,,,,,,,,,,,,,,,,,,,,,,,,,,,,,,
,,,,,,,,2023-08-16_08h44.47.727,HF_wild_card,2022.2.4,Linux x86_64,60.06006006,6146fae1e27a56034fdcb5c5,64d2fd46c836a06233681665,64dc7e5754e17fa3494411ea,,,,,,,sngl,resources/DBN.BMP,resources/Empty.png,Door4,-0.22150739,0.00384438,1,0,0,0.9647,optionLeft,80,960,1,17,0,17,0,1,,,,,,,,,,,,,,,,,,,,,,,,,,,,,,,,,,,,,,,
,,,,,,,,2023-08-16_08h44.47.727,HF_wild_card,2022.2.4,Linux x86_64,60.06006006,6146fae1e27a56034fdcb5c5,64d2fd46c836a06233681665,64dc7e5754e17fa3494411ea,,,,,,,decisionTrl,resources/DP.BMP,resources/DR.BMP,Door1,0.191993395,0.010282596,1,0,0,1.2537,optionRight,30,990,1,18,0,18,0,1,,,,,,,,,,,,,,,,,,,,,,,,,,,,,,,,,,,,,,,
,,,,,,,,2023-08-16_08h44.47.727,HF_wild_card,2022.2.4,Linux x86_64,60.06006006,6146fae1e27a56034fdcb5c5,64d2fd46c836a06233681665,64dc7e5754e17fa3494411ea,,,,,,,decisionTrl,resources/DP.BMP,resources/DR.BMP,Door2,-0.244952361,0.059208234,1,0,0,0.8999,optionLeft,40,1030,1,19,0,19,0,1,,,,,,,,,,,,,,,,,,,,,,,,,,,,,,,,,,,,,,,
,,,,,,,,2023-08-16_08h44.47.727,HF_wild_card,2022.2.4,Linux x86_64,60.06006006,6146fae1e27a56034fdcb5c5,64d2fd46c836a06233681665,64dc7e5754e17fa3494411ea,,,,,,,decisionTrl,resources/DG.BMP,resources/DBN.BMP,Door4,0.397875865,-0.083492359,1,0,0,2.9051,optionRight,60,1090,1,20,0,20,0,1,,,,,,,,,,,,,,,,,,,,,,,,,,,,,,,,,,,,,,,
,,,,,,,,2023-08-16_08h44.47.727,HF_wild_card,2022.2.4,Linux x86_64,60.06006006,6146fae1e27a56034fdcb5c5,64d2fd46c836a06233681665,64dc7e5754e17fa3494411ea,,,,,,,ctch,resources/DR.BMP,resources/DBN.BMP,Door4,0.371563832,-0.030984163,1,0,0,0.7378,optionRight,80,1170,1,21,0,21,0,1,,,,,,,,,,,,,,,,,,,,,,,,,,,,,,,,,,,,,,,
,,,,,,,,2023-08-16_08h44.47.727,HF_wild_card,2022.2.4,Linux x86_64,60.06006006,6146fae1e27a56034fdcb5c5,64d2fd46c836a06233681665,64dc7e5754e17fa3494411ea,,,,,,,decisionTrl,resources/DG.BMP,resources/DBN.BMP,Door3,-0.127077023,-0.046763976,1,0,0,1.8695,optionLeft,70,1240,1,22,0,22,0,1,,,,,,,,,,,,,,,,,,,,,,,,,,,,,,,,,,,,,,,
,,,,,,,,2023-08-16_08h44.47.727,HF_wild_card,2022.2.4,Linux x86_64,60.06006006,6146fae1e27a56034fdcb5c5,64d2fd46c836a06233681665,64dc7e5754e17fa3494411ea,,,,,,,decisionTrl,resources/DP.BMP,resources/DB.BMP,WildCard_NonEx,0.251218637,-0.053911765,1,0,0,1.3711,optionRight,55,1295,1,23,0,23,0,1,,,,,,,,,,,,,,,,,,,,,,,,,,,,,,,,,,,,,,,
,,,,,,,,2023-08-16_08h44.47.727,HF_wild_card,2022.2.4,Linux x86_64,60.06006006,6146fae1e27a56034fdcb5c5,64d2fd46c836a06233681665,64dc7e5754e17fa3494411ea,,,,,,,decisionTrl,resources/DBN.BMP,resources/DG.BMP,Door4,-0.291118145,-0.101687153,1,0,0,0.8079,optionLeft,60,1355,1,24,0,24,0,1,,,,,,,,,,,,,,,,,,,,,,,,,,,,,,,,,,,,,,,
,,,,,,,,2023-08-16_08h44.47.727,HF_wild_card,2022.2.4,Linux x86_64,60.06006006,6146fae1e27a56034fdcb5c5,64d2fd46c836a06233681665,64dc7e5754e17fa3494411ea,,,,,,,sngl,resources/Empty.png,resources/DP.BMP,Door2,0.235797008,-0.046207547,1,0,0,0.7743,optionRight,20,1375,1,25,0,25,0,1,,,,,,,,,,,,,,,,,,,,,,,,,,,,,,,,,,,,,,,
,,,,,,,,2023-08-16_08h44.47.727,HF_wild_card,2022.2.4,Linux x86_64,60.06006006,6146fae1e27a56034fdcb5c5,64d2fd46c836a06233681665,64dc7e5754e17fa3494411ea,,,,,,,decisionTrl,resources/DP.BMP,resources/DR.BMP,Door2,-0.150574287,-0.034940084,1,0,0,1.731,optionLeft,20,1395,1,26,0,26,0,1,,,,,,,,,,,,,,,,,,,,,,,,,,,,,,,,,,,,,,,
,,,,,,,,2023-08-16_08h44.47.727,HF_wild_card,2022.2.4,Linux x86_64,60.06006006,6146fae1e27a56034fdcb5c5,64d2fd46c836a06233681665,64dc7e5754e17fa3494411ea,,,,,,,decisionTrl,resources/DG.BMP,resources/DB.BMP,Door3,-0.272990425,-0.097968658,1,0,0,1.7096,optionLeft,70,1465,1,27,0,27,0,1,,,,,,,,,,,,,,,,,,,,,,,,,,,,,,,,,,,,,,,
,,,,,,,,2023-08-16_08h44.47.727,HF_wild_card,2022.2.4,Linux x86_64,60.06006006,6146fae1e27a56034fdcb5c5,64d2fd46c836a06233681665,64dc7e5754e17fa3494411ea,,,,,,,decisionTrl,resources/DR.BMP,resources/DP.BMP,Door2,0.327127457,-0.021474044,1,0,0,1.7924,optionRight,40,1505,1,28,0,28,0,1,,,,,,,,,,,,,,,,,,,,,,,,,,,,,,,,,,,,,,,
,,,,,,,,2023-08-16_08h44.47.727,HF_wild_card,2022.2.4,Linux x86_64,60.06006006,6146fae1e27a56034fdcb5c5,64d2fd46c836a06233681665,64dc7e5754e17fa3494411ea,,,,,,,decisionTrl,resources/DG.BMP,resources/DBN.BMP,Door4,0.186041355,0.009482145,1,0,0,0.9466,optionRight,80,1585,1,29,0,29,0,1,,,,,,,,,,,,,,,,,,,,,,,,,,,,,,,,,,,,,,,
,,,,,,,,2023-08-16_08h44.47.727,HF_wild_card,2022.2.4,Linux x86_64,60.06006006,6146fae1e27a56034fdcb5c5,64d2fd46c836a06233681665,64dc7e5754e17fa3494411ea,,,,,,,sngl,resources/Empty.png,resources/DB.BMP,WildCard_NonEx,0.289362748,0.002992709,1,0,0,0.8863,optionRight,55,1640,1,30,0,30,0,1,,,,,,,,,,,,,,,,,,,,,,,,,,,,,,,,,,,,,,,
,,,,,,,,2023-08-16_08h44.47.727,HF_wild_card,2022.2.4,Linux x86_64,60.06006006,6146fae1e27a56034fdcb5c5,64d2fd46c836a06233681665,64dc7e5754e17fa3494411ea,,,,,,,ctch,resources/DBN.BMP,resources/DR.BMP,Door4,-0.325600425,-0.100683053,1,0,0,0.8348,optionLeft,80,1720,1,31,0,31,0,1,,,,,,,,,,,,,,,,,,,,,,,,,,,,,,,,,,,,,,,
,,,,,,,,2023-08-16_08h44.47.727,HF_wild_card,2022.2.4,Linux x86_64,60.06006006,6146fae1e27a56034fdcb5c5,64d2fd46c836a06233681665,64dc7e5754e17fa3494411ea,,,,,,,decisionTrl,resources/DB.BMP,resources/DR.BMP,Door1,0.146495342,-0.047924717,1,0,0,1.2688,optionRight,30,1750,1,32,0,32,0,1,,,,,,,,,,,,,,,,,,,,,,,,,,,,,,,,,,,,,,,
,,,,,,,,2023-08-16_08h44.47.727,HF_wild_card,2022.2.4,Linux x86_64,60.06006006,6146fae1e27a56034fdcb5c5,64d2fd46c836a06233681665,64dc7e5754e17fa3494411ea,,,,,,,sngl,resources/DR.BMP,resources/Empty.png,Door1,-0.222050826,-0.068536282,1,0,0,0.9049,optionLeft,30,1780,1,33,0,33,0,1,,,,,,,,,,,,,,,,,,,,,,,,,,,,,,,,,,,,,,,
,,,,,,,,2023-08-16_08h44.47.727,HF_wild_card,2022.2.4,Linux x86_64,60.06006006,6146fae1e27a56034fdcb5c5,64d2fd46c836a06233681665,64dc7e5754e17fa3494411ea,,,,,,,sngl,resources/DP.BMP,resources/Empty.png,Door2,-0.381102204,-0.071467042,1,0,0,1.3786,optionLeft,40,1820,1,34,0,34,0,1,,,,,,,,,,,,,,,,,,,,,,,,,,,,,,,,,,,,,,,
,,,,,,,,2023-08-16_08h44.47.727,HF_wild_card,2022.2.4,Linux x86_64,60.06006006,6146fae1e27a56034fdcb5c5,64d2fd46c836a06233681665,64dc7e5754e17fa3494411ea,,,,,,,sngl,resources/DB.BMP,resources/Empty.png,WildCard_NonEx,-0.463305553,-0.061454256,1,0,0,1.0398,optionLeft,55,1875,1,35,0,35,0,1,,,,,,,,,,,,,,,,,,,,,,,,,,,,,,,,,,,,,,,
,,,,,,,,2023-08-16_08h44.47.727,HF_wild_card,2022.2.4,Linux x86_64,60.06006006,6146fae1e27a56034fdcb5c5,64d2fd46c836a06233681665,64dc7e5754e17fa3494411ea,,,,,,,decisionTrl,resources/DB.BMP,resources/DG.BMP,Door3,0.19291838,-0.026691834,1,0,0,1.3948,optionRight,70,1945,1,36,0,36,0,1,,,,,,,,,,,,,,,,,,,,,,,,,,,,,,,,,,,,,,,
,,,,,,,,2023-08-16_08h44.47.727,HF_wild_card,2022.2.4,Linux x86_64,60.06006006,6146fae1e27a56034fdcb5c5,64d2fd46c836a06233681665,64dc7e5754e17fa3494411ea,,,,,,,decisionTrl,resources/DBN.BMP,resources/DG.BMP,Door4,-0.182006756,0.00576659,1,0,0,1.2601,optionLeft,60,2005,1,37,0,37,0,1,,,,,,,,,,,,,,,,,,,,,,,,,,,,,,,,,,,,,,,
,,,,,,,,2023-08-16_08h44.47.727,HF_wild_card,2022.2.4,Linux x86_64,60.06006006,6146fae1e27a56034fdcb5c5,64d2fd46c836a06233681665,64dc7e5754e17fa3494411ea,,,,,,,ctch,resources/DR.BMP,resources/DBN.BMP,Door1,-0.174387773,-0.000384808,1,0,0,1.7746,optionLeft,30,2035,1,38,0,38,0,1,,,,,,,,,,,,,,,,,,,,,,,,,,,,,,,,,,,,,,,
,,,,,,,,2023-08-16_08h44.47.727,HF_wild_card,2022.2.4,Linux x86_64,60.06006006,6146fae1e27a56034fdcb5c5,64d2fd46c836a06233681665,64dc7e5754e17fa3494411ea,,,,,,,sngl,resources/Empty.png,resources/DR.BMP,Door1,0.123928865,0.023704489,1,0,0,0.892,optionRight,30,2065,1,39,0,39,0,1,,,,,,,,,,,,,,,,,,,,,,,,,,,,,,,,,,,,,,,
,,,,,,,,2023-08-16_08h44.47.727,HF_wild_card,2022.2.4,Linux x86_64,60.06006006,6146fae1e27a56034fdcb5c5,64d2fd46c836a06233681665,64dc7e5754e17fa3494411ea,,,,,,,sngl,resources/DB.BMP,resources/Empty.png,WildCard_NonEx,-0.168918133,-0.003969987,1,0,0,1.0125,optionLeft,45,2110,1,40,0,40,0,1,,,,,,,,,,,,,,,,,,,,,,,,,,,,,,,,,,,,,,,
,,,,,,,,2023-08-16_08h44.47.727,HF_wild_card,2022.2.4,Linux x86_64,60.06006006,6146fae1e27a56034fdcb5c5,64d2fd46c836a06233681665,64dc7e5754e17fa3494411ea,,,,,,,decisionTrl,resources/DBN.BMP,resources/DG.BMP,Door4,-0.147439321,0.065007488,1,0,0,1.2772,optionLeft,80,2190,1,41,0,41,0,1,,,,,,,,,,,,,,,,,,,,,,,,,,,,,,,,,,,,,,,
,,,,,,,,2023-08-16_08h44.47.727,HF_wild_card,2022.2.4,Linux x86_64,60.06006006,6146fae1e27a56034fdcb5c5,64d2fd46c836a06233681665,64dc7e5754e17fa3494411ea,,,,,,,decisionTrl,resources/DR.BMP,resources/DB.BMP,WildCard_NonEx,0.099265019,-0.007986148,1,0,0,1.2469,optionRight,45,2235,1,42,0,42,0,1,,,,,,,,,,,,,,,,,,,,,,,,,,,,,,,,,,,,,,,
,,,,,,,,2023-08-16_08h44.47.727,HF_wild_card,2022.2.4,Linux x86_64,60.06006006,6146fae1e27a56034fdcb5c5,64d2fd46c836a06233681665,64dc7e5754e17fa3494411ea,,,,,,,ctch,resources/DG.BMP,resources/DP.BMP,Door2,0.218827724,-0.029101412,1,0,0,2.3036,optionRight,20,2255,1,43,0,43,0,1,,,,,,,,,,,,,,,,,,,,,,,,,,,,,,,,,,,,,,,
,,,,,,,,2023-08-16_08h44.47.727,HF_wild_card,2022.2.4,Linux x86_64,60.06006006,6146fae1e27a56034fdcb5c5,64d2fd46c836a06233681665,64dc7e5754e17fa3494411ea,,,,,,,,,,,,,,,,,,,,,,,,,,0,0,0,0,1,,,,,,,,,,,,,,,,,,,,,,,,,,,,,,,,,,
,,,,,,,,2023-08-16_08h44.47.727,HF_wild_card,2022.2.4,Linux x86_64,60.06006006,6146fae1e27a56034fdcb5c5,64d2fd46c836a06233681665,64dc7e5754e17fa3494411ea,,,,,,,sngl,resources/Empty.png,resources/DB.BMP,WildCard_NonEx,0.294913848,-0.139444629,1,0,0,0.9884,optionRight,45,2300,2,0,0,0,0,1,,,,,,,,,,,,,,,,,,,,,,,,,,,,,,,,,,,,,,,
,,,,,,,,2023-08-16_08h44.47.727,HF_wild_card,2022.2.4,Linux x86_64,60.06006006,6146fae1e27a56034fdcb5c5,64d2fd46c836a06233681665,64dc7e5754e17fa3494411ea,,,,,,,decisionTrl,resources/DG.BMP,resources/DBN.BMP,Door4,0.276931365,-0.046336293,1,0,0,1.1455,optionRight,80,2380,2,1,0,1,0,1,,,,,,,,,,,,,,,,,,,,,,,,,,,,,,,,,,,,,,,
,,,,,,,,2023-08-16_08h44.47.727,HF_wild_card,2022.2.4,Linux x86_64,60.06006006,6146fae1e27a56034fdcb5c5,64d2fd46c836a06233681665,64dc7e5754e17fa3494411ea,,,,,,,decisionTrl,resources/DR.BMP,resources/DB.BMP,WildCard_NonEx,0.141650836,-0.042300145,1,0,0,1.1122,optionRight,45,2425,2,2,0,2,0,1,,,,,,,,,,,,,,,,,,,,,,,,,,,,,,,,,,,,,,,
,,,,,,,,2023-08-16_08h44.47.727,HF_wild_card,2022.2.4,Linux x86_64,60.06006006,6146fae1e27a56034fdcb5c5,64d2fd46c836a06233681665,64dc7e5754e17fa3494411ea,,,,,,,sngl,resources/DG.BMP,resources/Empty.png,Door3,-0.194104989,-0.045529683,1,0,0,0.9129,optionLeft,70,2495,2,3,0,3,0,1,,,,,,,,,,,,,,,,,,,,,,,,,,,,,,,,,,,,,,,
,,,,,,,,2023-08-16_08h44.47.727,HF_wild_card,2022.2.4,Linux x86_64,60.06006006,6146fae1e27a56034fdcb5c5,64d2fd46c836a06233681665,64dc7e5754e17fa3494411ea,,,,,,,decisionTrl,resources/DBN.BMP,resources/DG.BMP,Door4,-0.455927372,-0.079085787,1,0,0,1.2753,optionLeft,80,2575,2,4,0,4,0,1,,,,,,,,,,,,,,,,,,,,,,,,,,,,,,,,,,,,,,,
,,,,,,,,2023-08-16_08h44.47.727,HF_wild_card,2022.2.4,Linux x86_64,60.06006006,6146fae1e27a56034fdcb5c5,64d2fd46c836a06233681665,64dc7e5754e17fa3494411ea,,,,,,,decisionTrl,resources/DP.BMP,resources/DR.BMP,Door2,-0.146139145,-0.063408176,1,0,0,1.5033,optionLeft,20,2595,2,5,0,5,0,1,,,,,,,,,,,,,,,,,,,,,,,,,,,,,,,,,,,,,,,
,,,,,,,,2023-08-16_08h44.47.727,HF_wild_card,2022.2.4,Linux x86_64,60.06006006,6146fae1e27a56034fdcb5c5,64d2fd46c836a06233681665,64dc7e5754e17fa3494411ea,,,,,,,sngl,resources/DBN.BMP,resources/Empty.png,Door4,-0.231123567,-0.031347871,1,0,0,1.0588,optionLeft,60,2655,2,6,0,6,0,1,,,,,,,,,,,,,,,,,,,,,,,,,,,,,,,,,,,,,,,
,,,,,,,,2023-08-16_08h44.47.727,HF_wild_card,2022.2.4,Linux x86_64,60.06006006,6146fae1e27a56034fdcb5c5,64d2fd46c836a06233681665,64dc7e5754e17fa3494411ea,,,,,,,sngl,resources/DB.BMP,resources/Empty.png,WildCard_NonEx,-0.145884911,0.018953641,1,0,0,1.0995,optionLeft,55,2710,2,7,0,7,0,1,,,,,,,,,,,,,,,,,,,,,,,,,,,,,,,,,,,,,,,
,,,,,,,,2023-08-16_08h44.47.727,HF_wild_card,2022.2.4,Linux x86_64,60.06006006,6146fae1e27a56034fdcb5c5,64d2fd46c836a06233681665,64dc7e5754e17fa3494411ea,,,,,,,decisionTrl,resources/DB.BMP,resources/DR.BMP,Door1,0.222931862,-0.000665744,1,0,0,1.3785,optionRight,30,2740,2,8,0,8,0,1,,,,,,,,,,,,,,,,,,,,,,,,,,,,,,,,,,,,,,,
,,,,,,,,2023-08-16_08h44.47.727,HF_wild_card,2022.2.4,Linux x86_64,60.06006006,6146fae1e27a56034fdcb5c5,64d2fd46c836a06233681665,64dc7e5754e17fa3494411ea,,,,,,,ctch,resources/DG.BMP,resources/DP.BMP,Door3,-0.170751731,-0.022663236,1,0,0,1.1173,optionLeft,70,2810,2,9,0,9,0,1,,,,,,,,,,,,,,,,,,,,,,,,,,,,,,,,,,,,,,,
,,,,,,,,2023-08-16_08h44.47.727,HF_wild_card,2022.2.4,Linux x86_64,60.06006006,6146fae1e27a56034fdcb5c5,64d2fd46c836a06233681665,64dc7e5754e17fa3494411ea,,,,,,,decisionTrl,resources/DR.BMP,resources/DP.BMP,Door2,0.300449371,-0.060470144,1,0,0,2.1035,optionRight,40,2850,2,10,0,10,0,1,,,,,,,,,,,,,,,,,,,,,,,,,,,,,,,,,,,,,,,
,,,,,,,,2023-08-16_08h44.47.727,HF_wild_card,2022.2.4,Linux x86_64,60.06006006,6146fae1e27a56034fdcb5c5,64d2fd46c836a06233681665,64dc7e5754e17fa3494411ea,,,,,,,sngl,resources/Empty.png,resources/DP.BMP,Door2,0.249572515,-0.056382656,1,0,0,0.9569,optionRight,40,2890,2,11,0,11,0,1,,,,,,,,,,,,,,,,,,,,,,,,,,,,,,,,,,,,,,,
,,,,,,,,2023-08-16_08h44.47.727,HF_wild_card,2022.2.4,Linux x86_64,60.06006006,6146fae1e27a56034fdcb5c5,64d2fd46c836a06233681665,64dc7e5754e17fa3494411ea,,,,,,,decisionTrl,resources/DBN.BMP,resources/DG.BMP,Door4,-0.357918342,-0.05677096,1,0,0,1.0271,optionLeft,60,2950,2,12,0,12,0,1,,,,,,,,,,,,,,,,,,,,,,,,,,,,,,,,,,,,,,,
,,,,,,,,2023-08-16_08h44.47.727,HF_wild_card,2022.2.4,Linux x86_64,60.06006006,6146fae1e27a56034fdcb5c5,64d2fd46c836a06233681665,64dc7e5754e17fa3494411ea,,,,,,,ctch,resources/DBN.BMP,resources/DR.BMP,Door4,-0.144656658,-0.021468321,1,0,0,2.013,optionLeft,60,3010,2,13,0,13,0,1,,,,,,,,,,,,,,,,,,,,,,,,,,,,,,,,,,,,,,,
,,,,,,,,2023-08-16_08h44.47.727,HF_wild_card,2022.2.4,Linux x86_64,60.06006006,6146fae1e27a56034fdcb5c5,64d2fd46c836a06233681665,64dc7e5754e17fa3494411ea,,,,,,,ctch,resources/DBN.BMP,resources/DR.BMP,Door4,-0.303423365,-0.051141421,1,0,0,0.9649,optionLeft,60,3070,2,14,0,14,0,1,,,,,,,,,,,,,,,,,,,,,,,,,,,,,,,,,,,,,,,
,,,,,,,,2023-08-16_08h44.47.727,HF_wild_card,2022.2.4,Linux x86_64,60.06006006,6146fae1e27a56034fdcb5c5,64d2fd46c836a06233681665,64dc7e5754e17fa3494411ea,,,,,,,sngl,resources/Empty.png,resources/DB.BMP,WildCard_NonEx,0.160721302,-0.047627131,1,0,0,0.8104,optionRight,55,3125,2,15,0,15,0,1,,,,,,,,,,,,,,,,,,,,,,,,,,,,,,,,,,,,,,,
,,,,,,,,2023-08-16_08h44.47.727,HF_wild_card,2022.2.4,Linux x86_64,60.06006006,6146fae1e27a56034fdcb5c5,64d2fd46c836a06233681665,64dc7e5754e17fa3494411ea,,,,,,,sngl,resources/DB.BMP,resources/Empty.png,WildCard_NonEx,-0.263521155,-0.027134458,1,0,0,0.8213,optionLeft,45,3170,2,16,0,16,0,1,,,,,,,,,,,,,,,,,,,,,,,,,,,,,,,,,,,,,,,
,,,,,,,,2023-08-16_08h44.47.727,HF_wild_card,2022.2.4,Linux x86_64,60.06006006,6146fae1e27a56034fdcb5c5,64d2fd46c836a06233681665,64dc7e5754e17fa3494411ea,,,,,,,ctch,resources/DP.BMP,resources/DG.BMP,Door2,-0.222261747,-0.050688664,1,0,0,1.4558,optionLeft,40,3210,2,17,0,17,0,1,,,,,,,,,,,,,,,,,,,,,,,,,,,,,,,,,,,,,,,
,,,,,,,,2023-08-16_08h44.47.727,HF_wild_card,2022.2.4,Linux x86_64,60.06006006,6146fae1e27a56034fdcb5c5,64d2fd46c836a06233681665,64dc7e5754e17fa3494411ea,,,,,,,decisionTrl,resources/DB.BMP,resources/DP.BMP,Door2,0.179580609,-0.01342229,1,0,0,1.7695,optionRight,20,3230,2,18,0,18,0,1,,,,,,,,,,,,,,,,,,,,,,,,,,,,,,,,,,,,,,,
,,,,,,,,2023-08-16_08h44.47.727,HF_wild_card,2022.2.4,Linux x86_64,60.06006006,6146fae1e27a56034fdcb5c5,64d2fd46c836a06233681665,64dc7e5754e17fa3494411ea,,,,,,,decisionTrl,resources/DR.BMP,resources/DP.BMP,Door1,-0.166073243,-0.053156972,1,0,0,1.1427,optionLeft,30,3260,2,19,0,19,0,1,,,,,,,,,,,,,,,,,,,,,,,,,,,,,,,,,,,,,,,
,,,,,,,,2023-08-16_08h44.47.727,HF_wild_card,2022.2.4,Linux x86_64,60.06006006,6146fae1e27a56034fdcb5c5,64d2fd46c836a06233681665,64dc7e5754e17fa3494411ea,,,,,,,decisionTrl,resources/DBN.BMP,resources/DG.BMP,Door4,-0.296470086,-0.042270223,1,0,0,1.0774,optionLeft,80,3340,2,20,0,20,0,1,,,,,,,,,,,,,,,,,,,,,,,,,,,,,,,,,,,,,,,
,,,,,,,,2023-08-16_08h44.47.727,HF_wild_card,2022.2.4,Linux x86_64,60.06006006,6146fae1e27a56034fdcb5c5,64d2fd46c836a06233681665,64dc7e5754e17fa3494411ea,,,,,,,decisionTrl,resources/DB.BMP,resources/DG.BMP,Door3,0.280003866,-0.047326803,1,0,0,1.1921,optionRight,70,3410,2,21,0,21,0,1,,,,,,,,,,,,,,,,,,,,,,,,,,,,,,,,,,,,,,,
,,,,,,,,2023-08-16_08h44.47.727,HF_wild_card,2022.2.4,Linux x86_64,60.06006006,6146fae1e27a56034fdcb5c5,64d2fd46c836a06233681665,64dc7e5754e17fa3494411ea,,,,,,,sngl,resources/Empty.png,resources/DR.BMP,Door1,0.229558547,-0.047378103,1,0,0,0.994,optionRight,30,3440,2,22,0,22,0,1,,,,,,,,,,,,,,,,,,,,,,,,,,,,,,,,,,,,,,,
,,,,,,,,2023-08-16_08h44.47.727,HF_wild_card,2022.2.4,Linux x86_64,60.06006006,6146fae1e27a56034fdcb5c5,64d2fd46c836a06233681665,64dc7e5754e17fa3494411ea,,,,,,,decisionTrl,resources/DR.BMP,resources/DP.BMP,Door2,0.292818069,-0.041901032,1,0,0,1.0341,optionRight,40,3480,2,23,0,23,0,1,,,,,,,,,,,,,,,,,,,,,,,,,,,,,,,,,,,,,,,
,,,,,,,,2023-08-16_08h44.47.727,HF_wild_card,2022.2.4,Linux x86_64,60.06006006,6146fae1e27a56034fdcb5c5,64d2fd46c836a06233681665,64dc7e5754e17fa3494411ea,,,,,,,sngl,resources/DP.BMP,resources/Empty.png,Door2,-0.129893382,-0.091477871,1,0,0,0.9396,optionLeft,20,3500,2,24,0,24,0,1,,,,,,,,,,,,,,,,,,,,,,,,,,,,,,,,,,,,,,,
,,,,,,,,2023-08-16_08h44.47.727,HF_wild_card,2022.2.4,Linux x86_64,60.06006006,6146fae1e27a56034fdcb5c5,64d2fd46c836a06233681665,64dc7e5754e17fa3494411ea,,,,,,,decisionTrl,resources/DG.BMP,resources/DBN.BMP,Door4,0.179793676,-0.021240036,1,0,0,0.9137,optionRight,60,3560,2,25,0,25,0,1,,,,,,,,,,,,,,,,,,,,,,,,,,,,,,,,,,,,,,,
,,,,,,,,2023-08-16_08h44.47.727,HF_wild_card,2022.2.4,Linux x86_64,60.06006006,6146fae1e27a56034fdcb5c5,64d2fd46c836a06233681665,64dc7e5754e17fa3494411ea,,,,,,,decisionTrl,resources/DP.BMP,resources/DR.BMP,Door2,-0.392213583,-0.052791079,1,0,0,1.8245,optionLeft,20,3580,2,26,0,26,0,1,,,,,,,,,,,,,,,,,,,,,,,,,,,,,,,,,,,,,,,
,,,,,,,,2023-08-16_08h44.47.727,HF_wild_card,2022.2.4,Linux x86_64,60.06006006,6146fae1e27a56034fdcb5c5,64d2fd46c836a06233681665,64dc7e5754e17fa3494411ea,,,,,,,decisionTrl,resources/DR.BMP,resources/DP.BMP,Door1,-0.3130035,-0.038230896,1,0,0,1.2732,optionLeft,30,3610,2,27,0,27,0,1,,,,,,,,,,,,,,,,,,,,,,,,,,,,,,,,,,,,,,,
,,,,,,,,2023-08-16_08h44.47.727,HF_wild_card,2022.2.4,Linux x86_64,60.06006006,6146fae1e27a56034fdcb5c5,64d2fd46c836a06233681665,64dc7e5754e17fa3494411ea,,,,,,,ctch,resources/DR.BMP,resources/DBN.BMP,Door4,0.442380905,-0.012083928,1,0,0,1.4905,optionRight,80,3690,2,28,0,28,0,1,,,,,,,,,,,,,,,,,,,,,,,,,,,,,,,,,,,,,,,
,,,,,,,,2023-08-16_08h44.47.727,HF_wild_card,2022.2.4,Linux x86_64,60.06006006,6146fae1e27a56034fdcb5c5,64d2fd46c836a06233681665,64dc7e5754e17fa3494411ea,,,,,,,ctch,resources/DG.BMP,resources/DP.BMP,Door3,-0.108962695,0.001310825,1,0,0,2.1383,optionLeft,70,3760,2,29,0,29,0,1,,,,,,,,,,,,,,,,,,,,,,,,,,,,,,,,,,,,,,,
,,,,,,,,2023-08-16_08h44.47.727,HF_wild_card,2022.2.4,Linux x86_64,60.06006006,6146fae1e27a56034fdcb5c5,64d2fd46c836a06233681665,64dc7e5754e17fa3494411ea,,,,,,,decisionTrl,resources/DG.BMP,resources/DBN.BMP,Door4,0.266962131,-0.01212577,1,0,0,0.8676,optionRight,60,3820,2,30,0,30,0,1,,,,,,,,,,,,,,,,,,,,,,,,,,,,,,,,,,,,,,,
,,,,,,,,2023-08-16_08h44.47.727,HF_wild_card,2022.2.4,Linux x86_64,60.06006006,6146fae1e27a56034fdcb5c5,64d2fd46c836a06233681665,64dc7e5754e17fa3494411ea,,,,,,,ctch,resources/DP.BMP,resources/DG.BMP,Door3,0.35265851,-0.017428756,1,0,0,1.3779,optionRight,70,3890,2,31,0,31,0,1,,,,,,,,,,,,,,,,,,,,,,,,,,,,,,,,,,,,,,,
,,,,,,,,2023-08-16_08h44.47.727,HF_wild_card,2022.2.4,Linux x86_64,60.06006006,6146fae1e27a56034fdcb5c5,64d2fd46c836a06233681665,64dc7e5754e17fa3494411ea,,,,,,,decisionTrl,resources/DP.BMP,resources/DR.BMP,Door1,0.264022589,0.01599586,1,0,0,1.727,optionRight,30,3920,2,32,0,32,0,1,,,,,,,,,,,,,,,,,,,,,,,,,,,,,,,,,,,,,,,
,,,,,,,,2023-08-16_08h44.47.727,HF_wild_card,2022.2.4,Linux x86_64,60.06006006,6146fae1e27a56034fdcb5c5,64d2fd46c836a06233681665,64dc7e5754e17fa3494411ea,,,,,,,decisionTrl,resources/DP.BMP,resources/DB.BMP,Door2,-0.182654301,-0.032063007,1,0,0,1.5154,optionLeft,20,3940,2,33,0,33,0,1,,,,,,,,,,,,,,,,,,,,,,,,,,,,,,,,,,,,,,,
,,,,,,,,2023-08-16_08h44.47.727,HF_wild_card,2022.2.4,Linux x86_64,60.06006006,6146fae1e27a56034fdcb5c5,64d2fd46c836a06233681665,64dc7e5754e17fa3494411ea,,,,,,,decisionTrl,resources/DG.BMP,resources/DBN.BMP,Door4,0.344470263,0.011120677,1,0,0,0.7596,optionRight,60,4000,2,34,0,34,0,1,,,,,,,,,,,,,,,,,,,,,,,,,,,,,,,,,,,,,,,
,,,,,,,,2023-08-16_08h44.47.727,HF_wild_card,2022.2.4,Linux x86_64,60.06006006,6146fae1e27a56034fdcb5c5,64d2fd46c836a06233681665,64dc7e5754e17fa3494411ea,,,,,,,decisionTrl,resources/DG.BMP,resources/DB.BMP,Door3,-0.246608535,-0.007013837,1,0,0,1.0592,optionLeft,70,4070,2,35,0,35,0,1,,,,,,,,,,,,,,,,,,,,,,,,,,,,,,,,,,,,,,,
,,,,,,,,2023-08-16_08h44.47.727,HF_wild_card,2022.2.4,Linux x86_64,60.06006006,6146fae1e27a56034fdcb5c5,64d2fd46c836a06233681665,64dc7e5754e17fa3494411ea,,,,,,,decisionTrl,resources/DBN.BMP,resources/DG.BMP,Door3,0.285235723,-0.053892454,1,0,0,1.4575,optionRight,70,4140,2,36,0,36,0,1,,,,,,,,,,,,,,,,,,,,,,,,,,,,,,,,,,,,,,,
,,,,,,,,2023-08-16_08h44.47.727,HF_wild_card,2022.2.4,Linux x86_64,60.06006006,6146fae1e27a56034fdcb5c5,64d2fd46c836a06233681665,64dc7e5754e17fa3494411ea,,,,,,,sngl,resources/Empty.png,resources/DBN.BMP,Door4,0.277611891,-0.059861143,1,0,0,0.91,optionRight,80,4220,2,37,0,37,0,1,,,,,,,,,,,,,,,,,,,,,,,,,,,,,,,,,,,,,,,
,,,,,,,,2023-08-16_08h44.47.727,HF_wild_card,2022.2.4,Linux x86_64,60.06006006,6146fae1e27a56034fdcb5c5,64d2fd46c836a06233681665,64dc7e5754e17fa3494411ea,,,,,,,ctch,resources/DR.BMP,resources/DBN.BMP,Door4,0.228504578,-0.025039554,1,0,0,1.2004,optionRight,80,4300,2,38,0,38,0,1,,,,,,,,,,,,,,,,,,,,,,,,,,,,,,,,,,,,,,,
,,,,,,,,2023-08-16_08h44.47.727,HF_wild_card,2022.2.4,Linux x86_64,60.06006006,6146fae1e27a56034fdcb5c5,64d2fd46c836a06233681665,64dc7e5754e17fa3494411ea,,,,,,,decisionTrl,resources/DBN.BMP,resources/DB.BMP,Door4,-0.097655853,-0.027598778,1,0,0,0.7431,optionLeft,60,4360,2,39,0,39,0,1,,,,,,,,,,,,,,,,,,,,,,,,,,,,,,,,,,,,,,,
,,,,,,,,2023-08-16_08h44.47.727,HF_wild_card,2022.2.4,Linux x86_64,60.06006006,6146fae1e27a56034fdcb5c5,64d2fd46c836a06233681665,64dc7e5754e17fa3494411ea,,,,,,,decisionTrl,resources/DP.BMP,resources/DR.BMP,Door1,0.170401096,-0.018939495,1,0,0,1.211,optionRight,30,4390,2,40,0,40,0,1,,,,,,,,,,,,,,,,,,,,,,,,,,,,,,,,,,,,,,,
,,,,,,,,2023-08-16_08h44.47.727,HF_wild_card,2022.2.4,Linux x86_64,60.06006006,6146fae1e27a56034fdcb5c5,64d2fd46c836a06233681665,64dc7e5754e17fa3494411ea,,,,,,,sngl,resources/Empty.png,resources/DG.BMP,Door3,0.329659859,-0.071248174,1,0,0,0.7422,optionRight,70,4460,2,41,0,41,0,1,,,,,,,,,,,,,,,,,,,,,,,,,,,,,,,,,,,,,,,
,,,,,,,,2023-08-16_08h44.47.727,HF_wild_card,2022.2.4,Linux x86_64,60.06006006,6146fae1e27a56034fdcb5c5,64d2fd46c836a06233681665,64dc7e5754e17fa3494411ea,,,,,,,decisionTrl,resources/DB.BMP,resources/DBN.BMP,Door4,0.399865309,-0.064562043,1,0,0,0.8165,optionRight,80,4540,2,42,0,42,0,1,,,,,,,,,,,,,,,,,,,,,,,,,,,,,,,,,,,,,,,
,,,,,,,,2023-08-16_08h44.47.727,HF_wild_card,2022.2.4,Linux x86_64,60.06006006,6146fae1e27a56034fdcb5c5,64d2fd46c836a06233681665,64dc7e5754e17fa3494411ea,,,,,,,sngl,resources/DR.BMP,resources/Empty.png,Door1,-0.276466211,0.016192754,1,0,0,0.8721,optionLeft,30,4570,2,43,0,43,0,1,,,,,,,,,,,,,,,,,,,,,,,,,,,,,,,,,,,,,,,
,,,,,,,,2023-08-16_08h44.47.727,HF_wild_card,2022.2.4,Linux x86_64,60.06006006,6146fae1e27a56034fdcb5c5,64d2fd46c836a06233681665,64dc7e5754e17fa3494411ea,,,,,,,,,,,,,,,,,,,,,,,,,,1,0,1,0,1,,,,,,,,,,,,,,,,,,,,,,,,,,,,,,,,,,
,,,,,,,,2023-08-16_08h44.47.727,HF_wild_card,2022.2.4,Linux x86_64,60.06006006,6146fae1e27a56034fdcb5c5,64d2fd46c836a06233681665,64dc7e5754e17fa3494411ea,,,,,,,decisionTrl,resources/DBN.BMP,resources/DG.BMP,Door4,-0.262403846,-0.167857091,1,0,0,1.2765,optionLeft,60,4630,3,0,0,0,0,1,,,,,,,,,,,,,,,,,,,,,,,,,,,,,,,,,,,,,,,
,,,,,,,,2023-08-16_08h44.47.727,HF_wild_card,2022.2.4,Linux x86_64,60.06006006,6146fae1e27a56034fdcb5c5,64d2fd46c836a06233681665,64dc7e5754e17fa3494411ea,,,,,,,decisionTrl,resources/DBN.BMP,resources/DB.BMP,Door4,-0.268017014,-0.026830435,1,0,0,1.1458,optionLeft,60,4690,3,1,0,1,0,1,,,,,,,,,,,,,,,,,,,,,,,,,,,,,,,,,,,,,,,
,,,,,,,,2023-08-16_08h44.47.727,HF_wild_card,2022.2.4,Linux x86_64,60.06006006,6146fae1e27a56034fdcb5c5,64d2fd46c836a06233681665,64dc7e5754e17fa3494411ea,,,,,,,decisionTrl,resources/DG.BMP,resources/DBN.BMP,Door4,0.455572128,-0.092416843,1,0,0,0.8232,optionRight,80,4770,3,2,0,2,0,1,,,,,,,,,,,,,,,,,,,,,,,,,,,,,,,,,,,,,,,
,,,,,,,,2023-08-16_08h44.47.727,HF_wild_card,2022.2.4,Linux x86_64,60.06006006,6146fae1e27a56034fdcb5c5,64d2fd46c836a06233681665,64dc7e5754e17fa3494411ea,,,,,,,decisionTrl,resources/DB.BMP,resources/DBN.BMP,Door4,0.168929974,-0.032169342,1,0,0,1.3637,optionRight,60,4830,3,3,0,3,0,1,,,,,,,,,,,,,,,,,,,,,,,,,,,,,,,,,,,,,,,
,,,,,,,,2023-08-16_08h44.47.727,HF_wild_card,2022.2.4,Linux x86_64,60.06006006,6146fae1e27a56034fdcb5c5,64d2fd46c836a06233681665,64dc7e5754e17fa3494411ea,,,,,,,sngl,resources/DB.BMP,resources/Empty.png,WildCard_NonEx,-0.305533568,-0.014034947,1,0,0,0.9784,optionLeft,55,4885,3,4,0,4,0,1,,,,,,,,,,,,,,,,,,,,,,,,,,,,,,,,,,,,,,,
,,,,,,,,2023-08-16_08h44.47.727,HF_wild_card,2022.2.4,Linux x86_64,60.06006006,6146fae1e27a56034fdcb5c5,64d2fd46c836a06233681665,64dc7e5754e17fa3494411ea,,,,,,,ctch,resources/DG.BMP,resources/DP.BMP,Door3,-0.208358288,0.008195996,1,0,0,1.904,optionLeft,70,4955,3,5,0,5,0,1,,,,,,,,,,,,,,,,,,,,,,,,,,,,,,,,,,,,,,,
,,,,,,,,2023-08-16_08h44.47.727,HF_wild_card,2022.2.4,Linux x86_64,60.06006006,6146fae1e27a56034fdcb5c5,64d2fd46c836a06233681665,64dc7e5754e17fa3494411ea,,,,,,,decisionTrl,resources/DP.BMP,resources/DR.BMP,Door2,-0.144267003,0.015828689,1,0,0,1.7133,optionLeft,20,4975,3,6,0,6,0,1,,,,,,,,,,,,,,,,,,,,,,,,,,,,,,,,,,,,,,,
,,,,,,,,2023-08-16_08h44.47.727,HF_wild_card,2022.2.4,Linux x86_64,60.06006006,6146fae1e27a56034fdcb5c5,64d2fd46c836a06233681665,64dc7e5754e17fa3494411ea,,,,,,,decisionTrl,resources/DR.BMP,resources/DB.BMP,WildCard_NonEx,0.204298099,-0.062851826,1,0,0,1.3201,optionRight,45,5020,3,7,0,7,0,1,,,,,,,,,,,,,,,,,,,,,,,,,,,,,,,,,,,,,,,
,,,,,,,,2023-08-16_08h44.47.727,HF_wild_card,2022.2.4,Linux x86_64,60.06006006,6146fae1e27a56034fdcb5c5,64d2fd46c836a06233681665,64dc7e5754e17fa3494411ea,,,,,,,decisionTrl,resources/DBN.BMP,resources/DG.BMP,Door4,-0.216730118,0.031697194,1,0,0,0.8334,optionLeft,80,5100,3,8,0,8,0,1,,,,,,,,,,,,,,,,,,,,,,,,,,,,,,,,,,,,,,,
,,,,,,,,2023-08-16_08h44.47.727,HF_wild_card,2022.2.4,Linux x86_64,60.06006006,6146fae1e27a56034fdcb5c5,64d2fd46c836a06233681665,64dc7e5754e17fa3494411ea,,,,,,,ctch,resources/DR.BMP,resources/DBN.BMP,Door4,0.280814012,-0.06478552,1,0,0,0.8831,optionRight,60,5160,3,9,0,9,0,1,,,,,,,,,,,,,,,,,,,,,,,,,,,,,,,,,,,,,,,
,,,,,,,,2023-08-16_08h44.47.727,HF_wild_card,2022.2.4,Linux x86_64,60.06006006,6146fae1e27a56034fdcb5c5,64d2fd46c836a06233681665,64dc7e5754e17fa3494411ea,,,,,,,decisionTrl,resources/DBN.BMP,resources/DG.BMP,Door4,-0.272717277,-0.0082889,1,0,0,0.8111,optionLeft,80,5240,3,10,0,10,0,1,,,,,,,,,,,,,,,,,,,,,,,,,,,,,,,,,,,,,,,
,,,,,,,,2023-08-16_08h44.47.727,HF_wild_card,2022.2.4,Linux x86_64,60.06006006,6146fae1e27a56034fdcb5c5,64d2fd46c836a06233681665,64dc7e5754e17fa3494411ea,,,,,,,sngl,resources/Empty.png,resources/DG.BMP,Door3,0.289047718,-0.128964384,1,0,0,0.9416,optionRight,70,5310,3,11,0,11,0,1,,,,,,,,,,,,,,,,,,,,,,,,,,,,,,,,,,,,,,,
,,,,,,,,2023-08-16_08h44.47.727,HF_wild_card,2022.2.4,Linux x86_64,60.06006006,6146fae1e27a56034fdcb5c5,64d2fd46c836a06233681665,64dc7e5754e17fa3494411ea,,,,,,,ctch,resources/DR.BMP,resources/DBN.BMP,Door4,0.292548815,-0.110418677,1,0,0,1.0391,optionRight,60,5370,3,12,0,12,0,1,,,,,,,,,,,,,,,,,,,,,,,,,,,,,,,,,,,,,,,
,,,,,,,,2023-08-16_08h44.47.727,HF_wild_card,2022.2.4,Linux x86_64,60.06006006,6146fae1e27a56034fdcb5c5,64d2fd46c836a06233681665,64dc7e5754e17fa3494411ea,,,,,,,sngl,resources/DR.BMP,resources/Empty.png,Door1,-0.219508092,-0.054046114,1,0,0,1.3534,optionLeft,30,5400,3,13,0,13,0,1,,,,,,,,,,,,,,,,,,,,,,,,,,,,,,,,,,,,,,,
,,,,,,,,2023-08-16_08h44.47.727,HF_wild_card,2022.2.4,Linux x86_64,60.06006006,6146fae1e27a56034fdcb5c5,64d2fd46c836a06233681665,64dc7e5754e17fa3494411ea,,,,,,,decisionTrl,resources/DG.BMP,resources/DBN.BMP,Door4,0.276540756,-0.058160265,1,0,0,0.8725,optionRight,80,5480,3,14,0,14,0,1,,,,,,,,,,,,,,,,,,,,,,,,,,,,,,,,,,,,,,,
,,,,,,,,2023-08-16_08h44.47.727,HF_wild_card,2022.2.4,Linux x86_64,60.06006006,6146fae1e27a56034fdcb5c5,64d2fd46c836a06233681665,64dc7e5754e17fa3494411ea,,,,,,,decisionTrl,resources/DP.BMP,resources/DR.BMP,Door1,0.271147331,-0.081827799,1,0,0,1.5522,optionRight,30,5510,3,15,0,15,0,1,,,,,,,,,,,,,,,,,,,,,,,,,,,,,,,,,,,,,,,
,,,,,,,,2023-08-16_08h44.47.727,HF_wild_card,2022.2.4,Linux x86_64,60.06006006,6146fae1e27a56034fdcb5c5,64d2fd46c836a06233681665,64dc7e5754e17fa3494411ea,,,,,,,decisionTrl,resources/DR.BMP,resources/DP.BMP,Door2,0.215634902,-0.029275616,1,0,0,1.6102,optionRight,20,5530,3,16,0,16,0,1,,,,,,,,,,,,,,,,,,,,,,,,,,,,,,,,,,,,,,,
,,,,,,,,2023-08-16_08h44.47.727,HF_wild_card,2022.2.4,Linux x86_64,60.06006006,6146fae1e27a56034fdcb5c5,64d2fd46c836a06233681665,64dc7e5754e17fa3494411ea,,,,,,,decisionTrl,resources/DB.BMP,resources/DP.BMP,WildCard_NonEx,-0.220488628,-0.03799208,1,0,0,0.8436,optionLeft,45,5575,3,17,0,17,0,1,,,,,,,,,,,,,,,,,,,,,,,,,,,,,,,,,,,,,,,
,,,,,,,,2023-08-16_08h44.47.727,HF_wild_card,2022.2.4,Linux x86_64,60.06006006,6146fae1e27a56034fdcb5c5,64d2fd46c836a06233681665,64dc7e5754e17fa3494411ea,,,,,,,ctch,resources/DBN.BMP,resources/DR.BMP,Door4,-0.21812892,-0.013784488,1,0,0,1.0269,optionLeft,60,5635,3,18,0,18,0,1,,,,,,,,,,,,,,,,,,,,,,,,,,,,,,,,,,,,,,,
,,,,,,,,2023-08-16_08h44.47.727,HF_wild_card,2022.2.4,Linux x86_64,60.06006006,6146fae1e27a56034fdcb5c5,64d2fd46c836a06233681665,64dc7e5754e17fa3494411ea,,,,,,,decisionTrl,resources/DB.BMP,resources/DG.BMP,Door3,0.281615893,-0.124215603,1,0,0,0.9921,optionRight,70,5705,3,19,0,19,0,1,,,,,,,,,,,,,,,,,,,,,,,,,,,,,,,,,,,,,,,
,,,,,,,,2023-08-16_08h44.47.727,HF_wild_card,2022.2.4,Linux x86_64,60.06006006,6146fae1e27a56034fdcb5c5,64d2fd46c836a06233681665,64dc7e5754e17fa3494411ea,,,,,,,decisionTrl,resources/DP.BMP,resources/DR.BMP,Door1,0.330583175,-0.11620295,1,0,0,2.9139,optionRight,30,5735,3,20,0,20,0,1,,,,,,,,,,,,,,,,,,,,,,,,,,,,,,,,,,,,,,,
,,,,,,,,2023-08-16_08h44.47.727,HF_wild_card,2022.2.4,Linux x86_64,60.06006006,6146fae1e27a56034fdcb5c5,64d2fd46c836a06233681665,64dc7e5754e17fa3494411ea,,,,,,,decisionTrl,resources/DR.BMP,resources/DP.BMP,Door1,-0.414207935,-0.117406567,1,0,0,1.3275,optionLeft,30,5765,3,21,0,21,0,1,,,,,,,,,,,,,,,,,,,,,,,,,,,,,,,,,,,,,,,
,,,,,,,,2023-08-16_08h44.47.727,HF_wild_card,2022.2.4,Linux x86_64,60.06006006,6146fae1e27a56034fdcb5c5,64d2fd46c836a06233681665,64dc7e5754e17fa3494411ea,,,,,,,ctch,resources/DP.BMP,resources/DG.BMP,Door3,0.307527224,-0.154670437,1,0,0,1.8814,optionRight,70,5835,3,22,0,22,0,1,,,,,,,,,,,,,,,,,,,,,,,,,,,,,,,,,,,,,,,
,,,,,,,,2023-08-16_08h44.47.727,HF_wild_card,2022.2.4,Linux x86_64,60.06006006,6146fae1e27a56034fdcb5c5,64d2fd46c836a06233681665,64dc7e5754e17fa3494411ea,,,,,,,sngl,resources/DP.BMP,resources/Empty.png,Door2,-0.216092745,-0.061851899,1,0,0,1.0815,optionLeft,40,5875,3,23,0,23,0,1,,,,,,,,,,,,,,,,,,,,,,,,,,,,,,,,,,,,,,,
,,,,,,,,2023-08-16_08h44.47.727,HF_wild_card,2022.2.4,Linux x86_64,60.06006006,6146fae1e27a56034fdcb5c5,64d2fd46c836a06233681665,64dc7e5754e17fa3494411ea,,,,,,,sngl,resources/Empty.png,resources/DB.BMP,WildCard_NonEx,0.526102384,-0.058259209,1,0,0,0.7911,optionRight,55,5930,3,24,0,24,0,1,,,,,,,,,,,,,,,,,,,,,,,,,,,,,,,,,,,,,,,
,,,,,,,,2023-08-16_08h44.47.727,HF_wild_card,2022.2.4,Linux x86_64,60.06006006,6146fae1e27a56034fdcb5c5,64d2fd46c836a06233681665,64dc7e5754e17fa3494411ea,,,,,,,ctch,resources/DP.BMP,resources/DG.BMP,Door2,-0.228941639,-0.023445288,1,0,0,0.7513,optionLeft,40,5970,3,25,0,25,0,1,,,,,,,,,,,,,,,,,,,,,,,,,,,,,,,,,,,,,,,
,,,,,,,,2023-08-16_08h44.47.727,HF_wild_card,2022.2.4,Linux x86_64,60.06006006,6146fae1e27a56034fdcb5c5,64d2fd46c836a06233681665,64dc7e5754e17fa3494411ea,,,,,,,ctch,resources/DBN.BMP,resources/DR.BMP,Door4,-0.231021126,-0.017451684,1,0,0,1.0956,optionLeft,80,6050,3,26,0,26,0,1,,,,,,,,,,,,,,,,,,,,,,,,,,,,,,,,,,,,,,,
,,,,,,,,2023-08-16_08h44.47.727,HF_wild_card,2022.2.4,Linux x86_64,60.06006006,6146fae1e27a56034fdcb5c5,64d2fd46c836a06233681665,64dc7e5754e17fa3494411ea,,,,,,,decisionTrl,resources/DP.BMP,resources/DB.BMP,WildCard_NonEx,0.317538659,-0.076121052,1,0,0,1.2894,optionRight,55,6105,3,27,0,27,0,1,,,,,,,,,,,,,,,,,,,,,,,,,,,,,,,,,,,,,,,
,,,,,,,,2023-08-16_08h44.47.727,HF_wild_card,2022.2.4,Linux x86_64,60.06006006,6146fae1e27a56034fdcb5c5,64d2fd46c836a06233681665,64dc7e5754e17fa3494411ea,,,,,,,decisionTrl,resources/DG.BMP,resources/DBN.BMP,Door4,0.201471647,-0.019697547,1,0,0,0.9725,optionRight,80,6185,3,28,0,28,0,1,,,,,,,,,,,,,,,,,,,,,,,,,,,,,,,,,,,,,,,
,,,,,,,,2023-08-16_08h44.47.727,HF_wild_card,2022.2.4,Linux x86_64,60.06006006,6146fae1e27a56034fdcb5c5,64d2fd46c836a06233681665,64dc7e5754e17fa3494411ea,,,,,,,sngl,resources/DBN.BMP,resources/Empty.png,Door4,-0.171539386,0.002129277,1,0,0,1.7615,optionLeft,80,6265,3,29,0,29,0,1,,,,,,,,,,,,,,,,,,,,,,,,,,,,,,,,,,,,,,,
,,,,,,,,2023-08-16_08h44.47.727,HF_wild_card,2022.2.4,Linux x86_64,60.06006006,6146fae1e27a56034fdcb5c5,64d2fd46c836a06233681665,64dc7e5754e17fa3494411ea,,,,,,,decisionTrl,resources/DG.BMP,resources/DB.BMP,Door3,-0.111804247,-0.003750722,1,0,0,1.7047,optionLeft,70,6335,3,30,0,30,0,1,,,,,,,,,,,,,,,,,,,,,,,,,,,,,,,,,,,,,,,
,,,,,,,,2023-08-16_08h44.47.727,HF_wild_card,2022.2.4,Linux x86_64,60.06006006,6146fae1e27a56034fdcb5c5,64d2fd46c836a06233681665,64dc7e5754e17fa3494411ea,,,,,,,ctch,resources/DG.BMP,resources/DP.BMP,Door3,-0.333443205,-0.048904498,1,0,0,0.9932,optionLeft,70,6405,3,31,0,31,0,1,,,,,,,,,,,,,,,,,,,,,,,,,,,,,,,,,,,,,,,
,,,,,,,,2023-08-16_08h44.47.727,HF_wild_card,2022.2.4,Linux x86_64,60.06006006,6146fae1e27a56034fdcb5c5,64d2fd46c836a06233681665,64dc7e5754e17fa3494411ea,,,,,,,sngl,resources/Empty.png,resources/DBN.BMP,Door4,0.129135211,0.024376591,1,0,0,1.3417,optionRight,60,6465,3,32,0,32,0,1,,,,,,,,,,,,,,,,,,,,,,,,,,,,,,,,,,,,,,,
,,,,,,,,2023-08-16_08h44.47.727,HF_wild_card,2022.2.4,Linux x86_64,60.06006006,6146fae1e27a56034fdcb5c5,64d2fd46c836a06233681665,64dc7e5754e17fa3494411ea,,,,,,,sngl,resources/DG.BMP,resources/Empty.png,Door3,-0.207945585,-0.029587905,1,0,0,1.1958,optionLeft,70,6535,3,33,0,33,0,1,,,,,,,,,,,,,,,,,,,,,,,,,,,,,,,,,,,,,,,
,,,,,,,,2023-08-16_08h44.47.727,HF_wild_card,2022.2.4,Linux x86_64,60.06006006,6146fae1e27a56034fdcb5c5,64d2fd46c836a06233681665,64dc7e5754e17fa3494411ea,,,,,,,decisionTrl,resources/DBN.BMP,resources/DG.BMP,Door4,-0.221398036,-0.043591777,1,0,0,1.3786,optionLeft,60,6595,3,34,0,34,0,1,,,,,,,,,,,,,,,,,,,,,,,,,,,,,,,,,,,,,,,
,,,,,,,,2023-08-16_08h44.47.727,HF_wild_card,2022.2.4,Linux x86_64,60.06006006,6146fae1e27a56034fdcb5c5,64d2fd46c836a06233681665,64dc7e5754e17fa3494411ea,,,,,,,decisionTrl,resources/DG.BMP,resources/DBN.BMP,Door4,0.430077235,0.072037578,1,0,0,1.1106,optionRight,60,6655,3,35,0,35,0,1,,,,,,,,,,,,,,,,,,,,,,,,,,,,,,,,,,,,,,,
,,,,,,,,2023-08-16_08h44.47.727,HF_wild_card,2022.2.4,Linux x86_64,60.06006006,6146fae1e27a56034fdcb5c5,64d2fd46c836a06233681665,64dc7e5754e17fa3494411ea,,,,,,,decisionTrl,resources/DB.BMP,resources/DR.BMP,Door1,0.186214924,0.03705585,1,0,0,2.3788,optionRight,30,6685,3,36,0,36,0,1,,,,,,,,,,,,,,,,,,,,,,,,,,,,,,,,,,,,,,,
,,,,,,,,2023-08-16_08h44.47.727,HF_wild_card,2022.2.4,Linux x86_64,60.06006006,6146fae1e27a56034fdcb5c5,64d2fd46c836a06233681665,64dc7e5754e17fa3494411ea,,,,,,,decisionTrl,resources/DP.BMP,resources/DR.BMP,Door1,0.310608149,0.014376124,1,0,0,1.7876,optionRight,30,6715,3,37,0,37,0,1,,,,,,,,,,,,,,,,,,,,,,,,,,,,,,,,,,,,,,,
,,,,,,,,2023-08-16_08h44.47.727,HF_wild_card,2022.2.4,Linux x86_64,60.06006006,6146fae1e27a56034fdcb5c5,64d2fd46c836a06233681665,64dc7e5754e17fa3494411ea,,,,,,,sngl,resources/Empty.png,resources/DP.BMP,Door2,0.150628885,-0.000944257,1,0,0,1.2002,optionRight,20,6735,3,38,0,38,0,1,,,,,,,,,,,,,,,,,,,,,,,,,,,,,,,,,,,,,,,
,,,,,,,,2023-08-16_08h44.47.727,HF_wild_card,2022.2.4,Linux x86_64,60.06006006,6146fae1e27a56034fdcb5c5,64d2fd46c836a06233681665,64dc7e5754e17fa3494411ea,,,,,,,decisionTrl,resources/DR.BMP,resources/DP.BMP,Door1,-0.309347709,-0.025763114,1,0,0,1.2532,optionLeft,30,6765,3,39,0,39,0,1,,,,,,,,,,,,,,,,,,,,,,,,,,,,,,,,,,,,,,,
,,,,,,,,2023-08-16_08h44.47.727,HF_wild_card,2022.2.4,Linux x86_64,60.06006006,6146fae1e27a56034fdcb5c5,64d2fd46c836a06233681665,64dc7e5754e17fa3494411ea,,,,,,,decisionTrl,resources/DR.BMP,resources/DP.BMP,Door1,-0.343461752,-0.071639697,1,0,0,1.0963,optionLeft,30,6795,3,40,0,40,0,1,,,,,,,,,,,,,,,,,,,,,,,,,,,,,,,,,,,,,,,
,,,,,,,,2023-08-16_08h44.47.727,HF_wild_card,2022.2.4,Linux x86_64,60.06006006,6146fae1e27a56034fdcb5c5,64d2fd46c836a06233681665,64dc7e5754e17fa3494411ea,,,,,,,sngl,resources/DB.BMP,resources/Empty.png,WildCard_NonEx,-0.296401143,-0.04727145,1,0,0,1.2625,optionLeft,45,6840,3,41,0,41,0,1,,,,,,,,,,,,,,,,,,,,,,,,,,,,,,,,,,,,,,,
,,,,,,,,2023-08-16_08h44.47.727,HF_wild_card,2022.2.4,Linux x86_64,60.06006006,6146fae1e27a56034fdcb5c5,64d2fd46c836a06233681665,64dc7e5754e17fa3494411ea,,,,,,,sngl,resources/Empty.png,resources/DR.BMP,Door1,0.288431962,-0.056259632,1,0,0,1.1117,optionRight,30,6870,3,42,0,42,0,1,,,,,,,,,,,,,,,,,,,,,,,,,,,,,,,,,,,,,,,
,,,,,,,,2023-08-16_08h44.47.727,HF_wild_card,2022.2.4,Linux x86_64,60.06006006,6146fae1e27a56034fdcb5c5,64d2fd46c836a06233681665,64dc7e5754e17fa3494411ea,,,,,,,sngl,resources/Empty.png,resources/DB.BMP,WildCard_NonEx,0.228067478,0.032292525,1,0,0,0.9442,optionRight,45,6915,3,43,0,43,0,1,,,,,,,,,,,,,,,,,,,,,,,,,,,,,,,,,,,,,,,
,,,,,,,,2023-08-16_08h44.47.727,HF_wild_card,2022.2.4,Linux x86_64,60.06006006,6146fae1e27a56034fdcb5c5,64d2fd46c836a06233681665,64dc7e5754e17fa3494411ea,,,,,,,,,,,,,,,,,,,,,,,,,,2,0,2,0,1,,,,,,,,,,,,,,,,,,,,,,,,,,,,,,,,,,
,,,,,,,,2023-08-16_08h44.47.727,HF_wild_card,2022.2.4,Linux x86_64,60.06006006,6146fae1e27a56034fdcb5c5,64d2fd46c836a06233681665,64dc7e5754e17fa3494411ea,,,,,,,decisionTrl,resources/DG.BMP,resources/DBN.BMP,Door4,0.466170947,-0.008296132,1,0,0,1.0769,optionRight,60,6975,4,0,0,0,0,1,,,,,,,,,,,,,,,,,,,,,,,,,,,,,,,,,,,,,,,
,,,,,,,,2023-08-16_08h44.47.727,HF_wild_card,2022.2.4,Linux x86_64,60.06006006,6146fae1e27a56034fdcb5c5,64d2fd46c836a06233681665,64dc7e5754e17fa3494411ea,,,,,,,decisionTrl,resources/DR.BMP,resources/DP.BMP,Door2,0.196184238,0.012928128,1,0,0,1.1551,optionRight,40,7015,4,1,0,1,0,1,,,,,,,,,,,,,,,,,,,,,,,,,,,,,,,,,,,,,,,
,,,,,,,,2023-08-16_08h44.47.727,HF_wild_card,2022.2.4,Linux x86_64,60.06006006,6146fae1e27a56034fdcb5c5,64d2fd46c836a06233681665,64dc7e5754e17fa3494411ea,,,,,,,decisionTrl,resources/DG.BMP,resources/DBN.BMP,Door4,0.21296072,-0.021565994,1,0,0,1.0546,optionRight,80,7095,4,2,0,2,0,1,,,,,,,,,,,,,,,,,,,,,,,,,,,,,,,,,,,,,,,
,,,,,,,,2023-08-16_08h44.47.727,HF_wild_card,2022.2.4,Linux x86_64,60.06006006,6146fae1e27a56034fdcb5c5,64d2fd46c836a06233681665,64dc7e5754e17fa3494411ea,,,,,,,decisionTrl,resources/DR.BMP,resources/DP.BMP,Door1,-0.189441601,-0.047449271,1,0,0,1.5549,optionLeft,30,7125,4,3,0,3,0,1,,,,,,,,,,,,,,,,,,,,,,,,,,,,,,,,,,,,,,,
,,,,,,,,2023-08-16_08h44.47.727,HF_wild_card,2022.2.4,Linux x86_64,60.06006006,6146fae1e27a56034fdcb5c5,64d2fd46c836a06233681665,64dc7e5754e17fa3494411ea,,,,,,,ctch,resources/DBN.BMP,resources/DR.BMP,Door4,-0.230916659,-0.019240737,1,0,0,0.7902,optionLeft,80,7205,4,4,0,4,0,1,,,,,,,,,,,,,,,,,,,,,,,,,,,,,,,,,,,,,,,
,,,,,,,,2023-08-16_08h44.47.727,HF_wild_card,2022.2.4,Linux x86_64,60.06006006,6146fae1e27a56034fdcb5c5,64d2fd46c836a06233681665,64dc7e5754e17fa3494411ea,,,,,,,decisionTrl,resources/DP.BMP,resources/DR.BMP,Door1,0.272793452,0.038507183,1,0,0,6.2978,optionRight,30,7235,4,5,0,5,0,1,,,,,,,,,,,,,,,,,,,,,,,,,,,,,,,,,,,,,,,
,,,,,,,,2023-08-16_08h44.47.727,HF_wild_card,2022.2.4,Linux x86_64,60.06006006,6146fae1e27a56034fdcb5c5,64d2fd46c836a06233681665,64dc7e5754e17fa3494411ea,,,,,,,decisionTrl,resources/DBN.BMP,resources/DG.BMP,Door4,-0.185523748,0.018965562,1,0,0,1.0014,optionLeft,80,7315,4,6,0,6,0,1,,,,,,,,,,,,,,,,,,,,,,,,,,,,,,,,,,,,,,,
,,,,,,,,2023-08-16_08h44.47.727,HF_wild_card,2022.2.4,Linux x86_64,60.06006006,6146fae1e27a56034fdcb5c5,64d2fd46c836a06233681665,64dc7e5754e17fa3494411ea,,,,,,,decisionTrl,resources/DY.BMP,resources/DR.BMP,WildCard_Ex,-0.154975732,-0.022259196,1,0,0,5.3076,optionLeft,55,7370,4,7,0,7,0,1,,,,,,,,,,,,,,,,,,,,,,,,,,,,,,,,,,,,,,,
,,,,,,,,2023-08-16_08h44.47.727,HF_wild_card,2022.2.4,Linux x86_64,60.06006006,6146fae1e27a56034fdcb5c5,64d2fd46c836a06233681665,64dc7e5754e17fa3494411ea,,,,,,,sngl,resources/Empty.png,resources/DBN.BMP,Door4,0.15508016,0.013333281,1,0,0,0.8815,optionRight,80,7450,4,8,0,8,0,1,,,,,,,,,,,,,,,,,,,,,,,,,,,,,,,,,,,,,,,
,,,,,,,,2023-08-16_08h44.47.727,HF_wild_card,2022.2.4,Linux x86_64,60.06006006,6146fae1e27a56034fdcb5c5,64d2fd46c836a06233681665,64dc7e5754e17fa3494411ea,,,,,,,sngl,resources/DY.BMP,resources/Empty.png,WildCard_Ex,-0.181916714,-0.002546946,1,0,0,1.3594,optionLeft,55,7505,4,9,0,9,0,1,,,,,,,,,,,,,,,,,,,,,,,,,,,,,,,,,,,,,,,
,,,,,,,,2023-08-16_08h44.47.727,HF_wild_card,2022.2.4,Linux x86_64,60.06006006,6146fae1e27a56034fdcb5c5,64d2fd46c836a06233681665,64dc7e5754e17fa3494411ea,,,,,,,decisionTrl,resources/DBN.BMP,resources/DG.BMP,Door4,-0.217306455,-0.020571669,1,0,0,1.1019,optionLeft,60,7565,4,10,0,10,0,1,,,,,,,,,,,,,,,,,,,,,,,,,,,,,,,,,,,,,,,
,,,,,,,,2023-08-16_08h44.47.727,HF_wild_card,2022.2.4,Linux x86_64,60.06006006,6146fae1e27a56034fdcb5c5,64d2fd46c836a06233681665,64dc7e5754e17fa3494411ea,,,,,,,decisionTrl,resources/DP.BMP,resources/DR.BMP,Door2,-0.121036768,0.017734329,1,0,0,1.6114,optionLeft,20,7585,4,11,0,11,0,1,,,,,,,,,,,,,,,,,,,,,,,,,,,,,,,,,,,,,,,
,,,,,,,,2023-08-16_08h44.47.727,HF_wild_card,2022.2.4,Linux x86_64,60.06006006,6146fae1e27a56034fdcb5c5,64d2fd46c836a06233681665,64dc7e5754e17fa3494411ea,,,,,,,decisionTrl,resources/DR.BMP,resources/DP.BMP,Door2,0.161783536,-0.037532886,1,0,0,0.8929,optionRight,20,7605,4,12,0,12,0,1,,,,,,,,,,,,,,,,,,,,,,,,,,,,,,,,,,,,,,,
,,,,,,,,2023-08-16_08h44.47.727,HF_wild_card,2022.2.4,Linux x86_64,60.06006006,6146fae1e27a56034fdcb5c5,64d2fd46c836a06233681665,64dc7e5754e17fa3494411ea,,,,,,,decisionTrl,resources/DBN.BMP,resources/DG.BMP,Door4,-0.352486531,-0.0433472,1,0,0,3.7558,optionLeft,60,7665,4,13,0,13,0,1,,,,,,,,,,,,,,,,,,,,,,,,,,,,,,,,,,,,,,,
,,,,,,,,2023-08-16_08h44.47.727,HF_wild_card,2022.2.4,Linux x86_64,60.06006006,6146fae1e27a56034fdcb5c5,64d2fd46c836a06233681665,64dc7e5754e17fa3494411ea,,,,,,,sngl,resources/Empty.png,resources/DY.BMP,WildCard_Ex,0.244674206,-0.035429875,1,0,0,1.6908,optionRight,55,7720,4,14,0,14,0,1,,,,,,,,,,,,,,,,,,,,,,,,,,,,,,,,,,,,,,,
,,,,,,,,2023-08-16_08h44.47.727,HF_wild_card,2022.2.4,Linux x86_64,60.06006006,6146fae1e27a56034fdcb5c5,64d2fd46c836a06233681665,64dc7e5754e17fa3494411ea,,,,,,,sngl,resources/Empty.png,resources/DY.BMP,WildCard_Ex,0.254106919,0.000590722,1,0,0,0.6821,optionRight,45,7765,4,15,0,15,0,1,,,,,,,,,,,,,,,,,,,,,,,,,,,,,,,,,,,,,,,
,,,,,,,,2023-08-16_08h44.47.727,HF_wild_card,2022.2.4,Linux x86_64,60.06006006,6146fae1e27a56034fdcb5c5,64d2fd46c836a06233681665,64dc7e5754e17fa3494411ea,,,,,,,sngl,resources/DY.BMP,resources/Empty.png,WildCard_Ex,-0.274021546,0.014511824,1,0,0,0.8429,optionLeft,45,7810,4,16,0,16,0,1,,,,,,,,,,,,,,,,,,,,,,,,,,,,,,,,,,,,,,,
,,,,,,,,2023-08-16_08h44.47.727,HF_wild_card,2022.2.4,Linux x86_64,60.06006006,6146fae1e27a56034fdcb5c5,64d2fd46c836a06233681665,64dc7e5754e17fa3494411ea,,,,,,,decisionTrl,resources/DP.BMP,resources/DY.BMP,WildCard_Ex,0.253580809,-0.01809903,1,0,0,0.8278,optionRight,55,7865,4,17,0,17,0,1,,,,,,,,,,,,,,,,,,,,,,,,,,,,,,,,,,,,,,,
,,,,,,,,2023-08-16_08h44.47.727,HF_wild_card,2022.2.4,Linux x86_64,60.06006006,6146fae1e27a56034fdcb5c5,64d2fd46c836a06233681665,64dc7e5754e17fa3494411ea,,,,,,,decisionTrl,resources/DY.BMP,resources/DG.BMP,Door3,0.119496425,-0.017010729,1,0,0,1.214,optionRight,70,7935,4,18,0,18,0,1,,,,,,,,,,,,,,,,,,,,,,,,,,,,,,,,,,,,,,,
,,,,,,,,2023-08-16_08h44.47.727,HF_wild_card,2022.2.4,Linux x86_64,60.06006006,6146fae1e27a56034fdcb5c5,64d2fd46c836a06233681665,64dc7e5754e17fa3494411ea,,,,,,,decisionTrl,resources/DG.BMP,resources/DBN.BMP,Door4,0.254927635,0.006576737,1,0,0,1.0613,optionRight,60,7995,4,19,0,19,0,1,,,,,,,,,,,,,,,,,,,,,,,,,,,,,,,,,,,,,,,
,,,,,,,,2023-08-16_08h44.47.727,HF_wild_card,2022.2.4,Linux x86_64,60.06006006,6146fae1e27a56034fdcb5c5,64d2fd46c836a06233681665,64dc7e5754e17fa3494411ea,,,,,,,decisionTrl,resources/DY.BMP,resources/DBN.BMP,Door4,0.205073198,0.03220288,1,0,0,0.9267,optionRight,80,8075,4,20,0,20,0,1,,,,,,,,,,,,,,,,,,,,,,,,,,,,,,,,,,,,,,,
,,,,,,,,2023-08-16_08h44.47.727,HF_wild_card,2022.2.4,Linux x86_64,60.06006006,6146fae1e27a56034fdcb5c5,64d2fd46c836a06233681665,64dc7e5754e17fa3494411ea,,,,,,,sngl,resources/DBN.BMP,resources/Empty.png,Door4,-0.216406902,-0.062295397,1,0,0,0.851,optionLeft,60,8135,4,21,0,21,0,1,,,,,,,,,,,,,,,,,,,,,,,,,,,,,,,,,,,,,,,
,,,,,,,,2023-08-16_08h44.47.727,HF_wild_card,2022.2.4,Linux x86_64,60.06006006,6146fae1e27a56034fdcb5c5,64d2fd46c836a06233681665,64dc7e5754e17fa3494411ea,,,,,,,decisionTrl,resources/DY.BMP,resources/DP.BMP,WildCard_Ex,-0.151530266,-0.036841909,1,0,0,1.3679,optionLeft,55,8190,4,22,0,22,0,1,,,,,,,,,,,,,,,,,,,,,,,,,,,,,,,,,,,,,,,
,,,,,,,,2023-08-16_08h44.47.727,HF_wild_card,2022.2.4,Linux x86_64,60.06006006,6146fae1e27a56034fdcb5c5,64d2fd46c836a06233681665,64dc7e5754e17fa3494411ea,,,,,,,ctch,resources/DBN.BMP,resources/DR.BMP,Door4,-0.195482254,0.039264282,1,0,0,1.178,optionLeft,60,8250,4,23,0,23,0,1,,,,,,,,,,,,,,,,,,,,,,,,,,,,,,,,,,,,,,,
,,,,,,,,2023-08-16_08h44.47.727,HF_wild_card,2022.2.4,Linux x86_64,60.06006006,6146fae1e27a56034fdcb5c5,64d2fd46c836a06233681665,64dc7e5754e17fa3494411ea,,,,,,,decisionTrl,resources/DR.BMP,resources/DP.BMP,Door2,0.262144883,-0.001717448,1,0,0,0.8153,optionRight,40,8290,4,24,0,24,0,1,,,,,,,,,,,,,,,,,,,,,,,,,,,,,,,,,,,,,,,
,,,,,,,,2023-08-16_08h44.47.727,HF_wild_card,2022.2.4,Linux x86_64,60.06006006,6146fae1e27a56034fdcb5c5,64d2fd46c836a06233681665,64dc7e5754e17fa3494411ea,,,,,,,decisionTrl,resources/DBN.BMP,resources/DG.BMP,Door4,-0.214160522,0.03395776,1,0,0,0.7374,optionLeft,80,8370,4,25,0,25,0,1,,,,,,,,,,,,,,,,,,,,,,,,,,,,,,,,,,,,,,,
,,,,,,,,2023-08-16_08h44.47.727,HF_wild_card,2022.2.4,Linux x86_64,60.06006006,6146fae1e27a56034fdcb5c5,64d2fd46c836a06233681665,64dc7e5754e17fa3494411ea,,,,,,,ctch,resources/DG.BMP,resources/DP.BMP,Door2,0.334141413,-0.037162582,1,0,0,0.9766,optionRight,20,8390,4,26,0,26,0,1,,,,,,,,,,,,,,,,,,,,,,,,,,,,,,,,,,,,,,,
,,,,,,,,2023-08-16_08h44.47.727,HF_wild_card,2022.2.4,Linux x86_64,60.06006006,6146fae1e27a56034fdcb5c5,64d2fd46c836a06233681665,64dc7e5754e17fa3494411ea,,,,,,,decisionTrl,resources/DG.BMP,resources/DBN.BMP,Door4,0.307647149,-0.048658093,1,0,0,0.9932,optionRight,80,8470,4,27,0,27,0,1,,,,,,,,,,,,,,,,,,,,,,,,,,,,,,,,,,,,,,,
,,,,,,,,2023-08-16_08h44.47.727,HF_wild_card,2022.2.4,Linux x86_64,60.06006006,6146fae1e27a56034fdcb5c5,64d2fd46c836a06233681665,64dc7e5754e17fa3494411ea,,,,,,,decisionTrl,resources/DG.BMP,resources/DY.BMP,Door3,-0.259711504,-0.105414311,1,0,0,0.784,optionLeft,70,8540,4,28,0,28,0,1,,,,,,,,,,,,,,,,,,,,,,,,,,,,,,,,,,,,,,,
,,,,,,,,2023-08-16_08h44.47.727,HF_wild_card,2022.2.4,Linux x86_64,60.06006006,6146fae1e27a56034fdcb5c5,64d2fd46c836a06233681665,64dc7e5754e17fa3494411ea,,,,,,,sngl,resources/DG.BMP,resources/Empty.png,Door3,-0.175345659,-0.049041748,1,0,0,1.0887,optionLeft,70,8610,4,29,0,29,0,1,,,,,,,,,,,,,,,,,,,,,,,,,,,,,,,,,,,,,,,
,,,,,,,,2023-08-16_08h44.47.727,HF_wild_card,2022.2.4,Linux x86_64,60.06006006,6146fae1e27a56034fdcb5c5,64d2fd46c836a06233681665,64dc7e5754e17fa3494411ea,,,,,,,decisionTrl,resources/DP.BMP,resources/DR.BMP,Door2,-0.104317427,-0.005773425,1,0,0,1.1564,optionLeft,20,8630,4,30,0,30,0,1,,,,,,,,,,,,,,,,,,,,,,,,,,,,,,,,,,,,,,,
,,,,,,,,2023-08-16_08h44.47.727,HF_wild_card,2022.2.4,Linux x86_64,60.06006006,6146fae1e27a56034fdcb5c5,64d2fd46c836a06233681665,64dc7e5754e17fa3494411ea,,,,,,,ctch,resources/DG.BMP,resources/DP.BMP,Door2,0.303493738,-0.037638068,1,0,0,1.0403,optionRight,20,8650,4,31,0,31,0,1,,,,,,,,,,,,,,,,,,,,,,,,,,,,,,,,,,,,,,,
,,,,,,,,2023-08-16_08h44.47.727,HF_wild_card,2022.2.4,Linux x86_64,60.06006006,6146fae1e27a56034fdcb5c5,64d2fd46c836a06233681665,64dc7e5754e17fa3494411ea,,,,,,,ctch,resources/DP.BMP,resources/DG.BMP,Door2,-0.254891713,-0.021011273,1,0,0,1.6422,optionLeft,20,8670,4,32,0,32,0,1,,,,,,,,,,,,,,,,,,,,,,,,,,,,,,,,,,,,,,,
,,,,,,,,2023-08-16_08h44.47.727,HF_wild_card,2022.2.4,Linux x86_64,60.06006006,6146fae1e27a56034fdcb5c5,64d2fd46c836a06233681665,64dc7e5754e17fa3494411ea,,,,,,,sngl,resources/Empty.png,resources/DR.BMP,Door1,0.127301455,-0.021798134,1,0,0,1.1262,optionRight,30,8700,4,33,0,33,0,1,,,,,,,,,,,,,,,,,,,,,,,,,,,,,,,,,,,,,,,
,,,,,,,,2023-08-16_08h44.47.727,HF_wild_card,2022.2.4,Linux x86_64,60.06006006,6146fae1e27a56034fdcb5c5,64d2fd46c836a06233681665,64dc7e5754e17fa3494411ea,,,,,,,ctch,resources/DP.BMP,resources/DG.BMP,Door2,-0.458806594,-0.096510609,1,0,0,1.1935,optionLeft,40,8740,4,34,0,34,0,1,,,,,,,,,,,,,,,,,,,,,,,,,,,,,,,,,,,,,,,
,,,,,,,,2023-08-16_08h44.47.727,HF_wild_card,2022.2.4,Linux x86_64,60.06006006,6146fae1e27a56034fdcb5c5,64d2fd46c836a06233681665,64dc7e5754e17fa3494411ea,,,,,,,decisionTrl,resources/DBN.BMP,resources/DY.BMP,Door4,-0.464336952,-0.00690786,1,0,0,0.9269,optionLeft,80,8820,4,35,0,35,0,1,,,,,,,,,,,,,,,,,,,,,,,,,,,,,,,,,,,,,,,
,,,,,,,,2023-08-16_08h44.47.727,HF_wild_card,2022.2.4,Linux x86_64,60.06006006,6146fae1e27a56034fdcb5c5,64d2fd46c836a06233681665,64dc7e5754e17fa3494411ea,,,,,,,sngl,resources/DP.BMP,resources/Empty.png,Door2,-0.204417547,-0.042961558,1,0,0,1.269,optionLeft,20,8840,4,36,0,36,0,1,,,,,,,,,,,,,,,,,,,,,,,,,,,,,,,,,,,,,,,
,,,,,,,,2023-08-16_08h44.47.727,HF_wild_card,2022.2.4,Linux x86_64,60.06006006,6146fae1e27a56034fdcb5c5,64d2fd46c836a06233681665,64dc7e5754e17fa3494411ea,,,,,,,sngl,resources/Empty.png,resources/DG.BMP,Door3,0.215234121,-0.058346272,1,0,0,0.7877,optionRight,70,8910,4,37,0,37,0,1,,,,,,,,,,,,,,,,,,,,,,,,,,,,,,,,,,,,,,,
,,,,,,,,2023-08-16_08h44.47.727,HF_wild_card,2022.2.4,Linux x86_64,60.06006006,6146fae1e27a56034fdcb5c5,64d2fd46c836a06233681665,64dc7e5754e17fa3494411ea,,,,,,,sngl,resources/Empty.png,resources/DP.BMP,Door2,0.388958613,-0.049121817,1,0,0,0.8456,optionRight,40,8950,4,38,0,38,0,1,,,,,,,,,,,,,,,,,,,,,,,,,,,,,,,,,,,,,,,
,,,,,,,,2023-08-16_08h44.47.727,HF_wild_card,2022.2.4,Linux x86_64,60.06006006,6146fae1e27a56034fdcb5c5,64d2fd46c836a06233681665,64dc7e5754e17fa3494411ea,,,,,,,ctch,resources/DR.BMP,resources/DBN.BMP,Door4,0.292469978,-0.080964168,1,0,0,0.8272,optionRight,60,9010,4,39,0,39,0,1,,,,,,,,,,,,,,,,,,,,,,,,,,,,,,,,,,,,,,,
,,,,,,,,2023-08-16_08h44.47.727,HF_wild_card,2022.2.4,Linux x86_64,60.06006006,6146fae1e27a56034fdcb5c5,64d2fd46c836a06233681665,64dc7e5754e17fa3494411ea,,,,,,,decisionTrl,resources/DP.BMP,resources/DR.BMP,Door1,0.150924206,-0.030275583,1,0,0,1.0427,optionRight,30,9040,4,40,0,40,0,1,,,,,,,,,,,,,,,,,,,,,,,,,,,,,,,,,,,,,,,
,,,,,,,,2023-08-16_08h44.47.727,HF_wild_card,2022.2.4,Linux x86_64,60.06006006,6146fae1e27a56034fdcb5c5,64d2fd46c836a06233681665,64dc7e5754e17fa3494411ea,,,,,,,ctch,resources/DR.BMP,resources/DBN.BMP,Door4,0.384775718,0.003598849,1,0,0,0.8154,optionRight,80,9120,4,41,0,41,0,1,,,,,,,,,,,,,,,,,,,,,,,,,,,,,,,,,,,,,,,
,,,,,,,,2023-08-16_08h44.47.727,HF_wild_card,2022.2.4,Linux x86_64,60.06006006,6146fae1e27a56034fdcb5c5,64d2fd46c836a06233681665,64dc7e5754e17fa3494411ea,,,,,,,decisionTrl,resources/DR.BMP,resources/DY.BMP,Door1,-0.179351409,-0.01365908,1,0,0,0.8609,optionLeft,30,9150,4,42,0,42,0,1,,,,,,,,,,,,,,,,,,,,,,,,,,,,,,,,,,,,,,,
,,,,,,,,2023-08-16_08h44.47.727,HF_wild_card,2022.2.4,Linux x86_64,60.06006006,6146fae1e27a56034fdcb5c5,64d2fd46c836a06233681665,64dc7e5754e17fa3494411ea,,,,,,,sngl,resources/DR.BMP,resources/Empty.png,Door1,-0.268771887,-0.105067213,1,0,0,0.765,optionLeft,30,9180,4,43,0,43,0,1,,,,,,,,,,,,,,,,,,,,,,,,,,,,,,,,,,,,,,,
,,,,,,,,2023-08-16_08h44.47.727,HF_wild_card,2022.2.4,Linux x86_64,60.06006006,6146fae1e27a56034fdcb5c5,64d2fd46c836a06233681665,64dc7e5754e17fa3494411ea,,,,,,,,,,,,,,,,,,,,,,,,,,3,0,3,0,1,,,,,,,,,,,,,,,,,,,,,,,,,,,,,,,,,,
,,,,,,,,2023-08-16_08h44.47.727,HF_wild_card,2022.2.4,Linux x86_64,60.06006006,6146fae1e27a56034fdcb5c5,64d2fd46c836a06233681665,64dc7e5754e17fa3494411ea,,,,,,,decisionTrl,resources/DG.BMP,resources/DBN.BMP,Door4,0.163681587,-0.219493548,1,0,0,1.027,optionRight,80,9260,5,0,0,0,0,1,,,,,,,,,,,,,,,,,,,,,,,,,,,,,,,,,,,,,,,
,,,,,,,,2023-08-16_08h44.47.727,HF_wild_card,2022.2.4,Linux x86_64,60.06006006,6146fae1e27a56034fdcb5c5,64d2fd46c836a06233681665,64dc7e5754e17fa3494411ea,,,,,,,decisionTrl,resources/DY.BMP,resources/DP.BMP,WildCard_Ex,-0.249487837,-0.010911067,1,0,0,1.0417,optionLeft,45,9305,5,1,0,1,0,1,,,,,,,,,,,,,,,,,,,,,,,,,,,,,,,,,,,,,,,
,,,,,,,,2023-08-16_08h44.47.727,HF_wild_card,2022.2.4,Linux x86_64,60.06006006,6146fae1e27a56034fdcb5c5,64d2fd46c836a06233681665,64dc7e5754e17fa3494411ea,,,,,,,decisionTrl,resources/DBN.BMP,resources/DG.BMP,Door4,-0.240646362,0.032181501,1,0,0,0.9141,optionLeft,80,9385,5,2,0,2,0,1,,,,,,,,,,,,,,,,,,,,,,,,,,,,,,,,,,,,,,,
,,,,,,,,2023-08-16_08h44.47.727,HF_wild_card,2022.2.4,Linux x86_64,60.06006006,6146fae1e27a56034fdcb5c5,64d2fd46c836a06233681665,64dc7e5754e17fa3494411ea,,,,,,,decisionTrl,resources/DBN.BMP,resources/DG.BMP,Door4,-0.29292659,-0.003824751,1,0,0,0.9266,optionLeft,60,9445,5,3,0,3,0,1,,,,,,,,,,,,,,,,,,,,,,,,,,,,,,,,,,,,,,,
,,,,,,,,2023-08-16_08h44.47.727,HF_wild_card,2022.2.4,Linux x86_64,60.06006006,6146fae1e27a56034fdcb5c5,64d2fd46c836a06233681665,64dc7e5754e17fa3494411ea,,,,,,,sngl,resources/DR.BMP,resources/Empty.png,Door1,-0.16752402,-0.035870115,1,0,0,0.9195,optionLeft,30,9475,5,4,0,4,0,1,,,,,,,,,,,,,,,,,,,,,,,,,,,,,,,,,,,,,,,
,,,,,,,,2023-08-16_08h44.47.727,HF_wild_card,2022.2.4,Linux x86_64,60.06006006,6146fae1e27a56034fdcb5c5,64d2fd46c836a06233681665,64dc7e5754e17fa3494411ea,,,,,,,decisionTrl,resources/DR.BMP,resources/DP.BMP,Door2,0.227503618,-0.009085457,1,0,0,0.9588,optionRight,20,9495,5,5,0,5,0,1,,,,,,,,,,,,,,,,,,,,,,,,,,,,,,,,,,,,,,,
,,,,,,,,2023-08-16_08h44.47.727,HF_wild_card,2022.2.4,Linux x86_64,60.06006006,6146fae1e27a56034fdcb5c5,64d2fd46c836a06233681665,64dc7e5754e17fa3494411ea,,,,,,,ctch,resources/DR.BMP,resources/DBN.BMP,Door4,0.283847888,-0.032516599,1,0,0,0.9261,optionRight,60,9555,5,6,0,6,0,1,,,,,,,,,,,,,,,,,,,,,,,,,,,,,,,,,,,,,,,
,,,,,,,,2023-08-16_08h44.47.727,HF_wild_card,2022.2.4,Linux x86_64,60.06006006,6146fae1e27a56034fdcb5c5,64d2fd46c836a06233681665,64dc7e5754e17fa3494411ea,,,,,,,sngl,resources/DG.BMP,resources/Empty.png,Door3,-0.330105186,-0.022100965,1,0,0,0.6897,optionLeft,70,9625,5,7,0,7,0,1,,,,,,,,,,,,,,,,,,,,,,,,,,,,,,,,,,,,,,,
,,,,,,,,2023-08-16_08h44.47.727,HF_wild_card,2022.2.4,Linux x86_64,60.06006006,6146fae1e27a56034fdcb5c5,64d2fd46c836a06233681665,64dc7e5754e17fa3494411ea,,,,,,,sngl,resources/Empty.png,resources/DP.BMP,Door2,0.261696339,0.014275591,1,0,0,0.7555,optionRight,20,9645,5,8,0,8,0,1,,,,,,,,,,,,,,,,,,,,,,,,,,,,,,,,,,,,,,,
,,,,,,,,2023-08-16_08h44.47.727,HF_wild_card,2022.2.4,Linux x86_64,60.06006006,6146fae1e27a56034fdcb5c5,64d2fd46c836a06233681665,64dc7e5754e17fa3494411ea,,,,,,,ctch,resources/DR.BMP,resources/DBN.BMP,Door4,0.340052207,-0.001984954,1,0,0,0.854,optionRight,80,9725,5,9,0,9,0,1,,,,,,,,,,,,,,,,,,,,,,,,,,,,,,,,,,,,,,,
,,,,,,,,2023-08-16_08h44.47.727,HF_wild_card,2022.2.4,Linux x86_64,60.06006006,6146fae1e27a56034fdcb5c5,64d2fd46c836a06233681665,64dc7e5754e17fa3494411ea,,,,,,,decisionTrl,resources/DBN.BMP,resources/DG.BMP,Door4,-0.324601134,-0.013811986,1,0,0,0.9101,optionLeft,80,9805,5,10,0,10,0,1,,,,,,,,,,,,,,,,,,,,,,,,,,,,,,,,,,,,,,,
,,,,,,,,2023-08-16_08h44.47.727,HF_wild_card,2022.2.4,Linux x86_64,60.06006006,6146fae1e27a56034fdcb5c5,64d2fd46c836a06233681665,64dc7e5754e17fa3494411ea,,,,,,,sngl,resources/Empty.png,resources/DY.BMP,WildCard_Ex,0.326629718,-0.008371313,1,0,0,0.6595,optionRight,55,9860,5,11,0,11,0,1,,,,,,,,,,,,,,,,,,,,,,,,,,,,,,,,,,,,,,,
,,,,,,,,2023-08-16_08h44.47.727,HF_wild_card,2022.2.4,Linux x86_64,60.06006006,6146fae1e27a56034fdcb5c5,64d2fd46c836a06233681665,64dc7e5754e17fa3494411ea,,,,,,,decisionTrl,resources/DP.BMP,resources/DY.BMP,WildCard_Ex,0.334646066,-0.019336104,1,0,0,0.8986,optionRight,45,9905,5,12,0,12,0,1,,,,,,,,,,,,,,,,,,,,,,,,,,,,,,,,,,,,,,,
,,,,,,,,2023-08-16_08h44.47.727,HF_wild_card,2022.2.4,Linux x86_64,60.06006006,6146fae1e27a56034fdcb5c5,64d2fd46c836a06233681665,64dc7e5754e17fa3494411ea,,,,,,,ctch,resources/DG.BMP,resources/DP.BMP,Door2,0.291171153,-0.029043078,1,0,0,0.744,optionRight,20,9925,5,13,0,13,0,1,,,,,,,,,,,,,,,,,,,,,,,,,,,,,,,,,,,,,,,
,,,,,,,,2023-08-16_08h44.47.727,HF_wild_card,2022.2.4,Linux x86_64,60.06006006,6146fae1e27a56034fdcb5c5,64d2fd46c836a06233681665,64dc7e5754e17fa3494411ea,,,,,,,ctch,resources/DBN.BMP,resources/DR.BMP,Door4,-0.300902049,0.02296563,1,0,0,0.8884,optionLeft,80,10005,5,14,0,14,0,1,,,,,,,,,,,,,,,,,,,,,,,,,,,,,,,,,,,,,,,
,,,,,,,,2023-08-16_08h44.47.727,HF_wild_card,2022.2.4,Linux x86_64,60.06006006,6146fae1e27a56034fdcb5c5,64d2fd46c836a06233681665,64dc7e5754e17fa3494411ea,,,,,,,decisionTrl,resources/DG.BMP,resources/DY.BMP,Door3,-0.209774017,0.044902364,1,0,0,0.9535,optionLeft,70,10075,5,15,0,15,0,1,,,,,,,,,,,,,,,,,,,,,,,,,,,,,,,,,,,,,,,
,,,,,,,,2023-08-16_08h44.47.727,HF_wild_card,2022.2.4,Linux x86_64,60.06006006,6146fae1e27a56034fdcb5c5,64d2fd46c836a06233681665,64dc7e5754e17fa3494411ea,,,,,,,decisionTrl,resources/DY.BMP,resources/DG.BMP,WildCard_Ex,-0.205061515,0.057476997,1,0,0,1.0569,optionLeft,45,10120,5,16,0,16,0,1,,,,,,,,,,,,,,,,,,,,,,,,,,,,,,,,,,,,,,,
,,,,,,,,2023-08-16_08h44.47.727,HF_wild_card,2022.2.4,Linux x86_64,60.06006006,6146fae1e27a56034fdcb5c5,64d2fd46c836a06233681665,64dc7e5754e17fa3494411ea,,,,,,,sngl,resources/DY.BMP,resources/Empty.png,WildCard_Ex,-0.230268955,0.025595387,1,0,0,0.9616,optionLeft,45,10165,5,17,0,17,0,1,,,,,,,,,,,,,,,,,,,,,,,,,,,,,,,,,,,,,,,
,,,,,,,,2023-08-16_08h44.47.727,HF_wild_card,2022.2.4,Linux x86_64,60.06006006,6146fae1e27a56034fdcb5c5,64d2fd46c836a06233681665,64dc7e5754e17fa3494411ea,,,,,,,decisionTrl,resources/DG.BMP,resources/DBN.BMP,Door4,0.222751935,0.020145496,1,0,0,0.8416,optionRight,80,10245,5,18,0,18,0,1,,,,,,,,,,,,,,,,,,,,,,,,,,,,,,,,,,,,,,,
,,,,,,,,2023-08-16_08h44.47.727,HF_wild_card,2022.2.4,Linux x86_64,60.06006006,6146fae1e27a56034fdcb5c5,64d2fd46c836a06233681665,64dc7e5754e17fa3494411ea,,,,,,,decisionTrl,resources/DBN.BMP,resources/DG.BMP,Door4,-0.336912235,0.174331506,1,0,0,0.9956,optionLeft,60,10305,5,19,0,19,0,1,,,,,,,,,,,,,,,,,,,,,,,,,,,,,,,,,,,,,,,
,,,,,,,,2023-08-16_08h44.47.727,HF_wild_card,2022.2.4,Linux x86_64,60.06006006,6146fae1e27a56034fdcb5c5,64d2fd46c836a06233681665,64dc7e5754e17fa3494411ea,,,,,,,decisionTrl,resources/DBN.BMP,resources/DY.BMP,Door4,-0.164420525,0.045202454,1,0,0,0.7918,optionLeft,60,10365,5,20,0,20,0,1,,,,,,,,,,,,,,,,,,,,,,,,,,,,,,,,,,,,,,,
,,,,,,,,2023-08-16_08h44.47.727,HF_wild_card,2022.2.4,Linux x86_64,60.06006006,6146fae1e27a56034fdcb5c5,64d2fd46c836a06233681665,64dc7e5754e17fa3494411ea,,,,,,,ctch,resources/DP.BMP,resources/DG.BMP,Door3,0.163093805,0.034259359,1,0,0,1.0758,optionRight,70,10435,5,21,0,21,0,1,,,,,,,,,,,,,,,,,,,,,,,,,,,,,,,,,,,,,,,
,,,,,,,,2023-08-16_08h44.47.727,HF_wild_card,2022.2.4,Linux x86_64,60.06006006,6146fae1e27a56034fdcb5c5,64d2fd46c836a06233681665,64dc7e5754e17fa3494411ea,,,,,,,decisionTrl,resources/DP.BMP,resources/DR.BMP,Door1,0.227119843,0.005066991,1,0,0,1.0555,optionRight,30,10465,5,22,0,22,0,1,,,,,,,,,,,,,,,,,,,,,,,,,,,,,,,,,,,,,,,
,,,,,,,,2023-08-16_08h44.47.727,HF_wild_card,2022.2.4,Linux x86_64,60.06006006,6146fae1e27a56034fdcb5c5,64d2fd46c836a06233681665,64dc7e5754e17fa3494411ea,,,,,,,decisionTrl,resources/DY.BMP,resources/DR.BMP,WildCard_Ex,-0.167519093,0.113700986,1,0,0,1.5592,optionLeft,45,10510,5,23,0,23,0,1,,,,,,,,,,,,,,,,,,,,,,,,,,,,,,,,,,,,,,,
,,,,,,,,2023-08-16_08h44.47.727,HF_wild_card,2022.2.4,Linux x86_64,60.06006006,6146fae1e27a56034fdcb5c5,64d2fd46c836a06233681665,64dc7e5754e17fa3494411ea,,,,,,,sngl,resources/Empty.png,resources/DR.BMP,Door1,0.301968495,-0.020579656,1,0,0,0.8618,optionRight,30,10540,5,24,0,24,0,1,,,,,,,,,,,,,,,,,,,,,,,,,,,,,,,,,,,,,,,
,,,,,,,,2023-08-16_08h44.47.727,HF_wild_card,2022.2.4,Linux x86_64,60.06006006,6146fae1e27a56034fdcb5c5,64d2fd46c836a06233681665,64dc7e5754e17fa3494411ea,,,,,,,decisionTrl,resources/DR.BMP,resources/DP.BMP,Door2,0.175714413,-0.00039649,1,0,0,1.2544,optionRight,20,10560,5,25,0,25,0,1,,,,,,,,,,,,,,,,,,,,,,,,,,,,,,,,,,,,,,,
,,,,,,,,2023-08-16_08h44.47.727,HF_wild_card,2022.2.4,Linux x86_64,60.06006006,6146fae1e27a56034fdcb5c5,64d2fd46c836a06233681665,64dc7e5754e17fa3494411ea,,,,,,,decisionTrl,resources/DG.BMP,resources/DBN.BMP,Door4,0.188741922,0.072533727,1,0,0,1.4016,optionRight,60,10620,5,26,0,26,0,1,,,,,,,,,,,,,,,,,,,,,,,,,,,,,,,,,,,,,,,
,,,,,,,,2023-08-16_08h44.47.727,HF_wild_card,2022.2.4,Linux x86_64,60.06006006,6146fae1e27a56034fdcb5c5,64d2fd46c836a06233681665,64dc7e5754e17fa3494411ea,,,,,,,decisionTrl,resources/DR.BMP,resources/DP.BMP,Door2,0.320411126,0.146140496,1,0,0,1.1242,optionRight,20,10640,5,27,0,27,0,1,,,,,,,,,,,,,,,,,,,,,,,,,,,,,,,,,,,,,,,
,,,,,,,,2023-08-16_08h44.47.727,HF_wild_card,2022.2.4,Linux x86_64,60.06006006,6146fae1e27a56034fdcb5c5,64d2fd46c836a06233681665,64dc7e5754e17fa3494411ea,,,,,,,sngl,resources/Empty.png,resources/DG.BMP,Door3,0.225548665,0.008005301,1,0,0,1.0087,optionRight,70,10710,5,28,0,28,0,1,,,,,,,,,,,,,,,,,,,,,,,,,,,,,,,,,,,,,,,
,,,,,,,,2023-08-16_08h44.47.727,HF_wild_card,2022.2.4,Linux x86_64,60.06006006,6146fae1e27a56034fdcb5c5,64d2fd46c836a06233681665,64dc7e5754e17fa3494411ea,,,,,,,decisionTrl,resources/DR.BMP,resources/DP.BMP,Door2,0.197469393,0.082913955,1,0,0,1.1952,optionRight,20,10730,5,29,0,29,0,1,,,,,,,,,,,,,,,,,,,,,,,,,,,,,,,,,,,,,,,
,,,,,,,,2023-08-16_08h44.47.727,HF_wild_card,2022.2.4,Linux x86_64,60.06006006,6146fae1e27a56034fdcb5c5,64d2fd46c836a06233681665,64dc7e5754e17fa3494411ea,,,,,,,sngl,resources/Empty.png,resources/DY.BMP,WildCard_Ex,0.239939531,-0.030586362,1,0,0,0.9225,optionRight,45,10775,5,30,0,30,0,1,,,,,,,,,,,,,,,,,,,,,,,,,,,,,,,,,,,,,,,
,,,,,,,,2023-08-16_08h44.47.727,HF_wild_card,2022.2.4,Linux x86_64,60.06006006,6146fae1e27a56034fdcb5c5,64d2fd46c836a06233681665,64dc7e5754e17fa3494411ea,,,,,,,decisionTrl,resources/DP.BMP,resources/DR.BMP,Door2,-0.161354621,0.003442367,1,0,0,1.2098,optionLeft,20,10795,5,31,0,31,0,1,,,,,,,,,,,,,,,,,,,,,,,,,,,,,,,,,,,,,,,
,,,,,,,,2023-08-16_08h44.47.727,HF_wild_card,2022.2.4,Linux x86_64,60.06006006,6146fae1e27a56034fdcb5c5,64d2fd46c836a06233681665,64dc7e5754e17fa3494411ea,,,,,,,decisionTrl,resources/DG.BMP,resources/DBN.BMP,Door4,0.160333474,-0.021840453,1,0,0,0.7736,optionRight,60,10855,5,32,0,32,0,1,,,,,,,,,,,,,,,,,,,,,,,,,,,,,,,,,,,,,,,
,,,,,,,,2023-08-16_08h44.47.727,HF_wild_card,2022.2.4,Linux x86_64,60.06006006,6146fae1e27a56034fdcb5c5,64d2fd46c836a06233681665,64dc7e5754e17fa3494411ea,,,,,,,decisionTrl,resources/DY.BMP,resources/DBN.BMP,Door4,0.252389113,0.011431575,1,0,0,0.8014,optionRight,60,10915,5,33,0,33,0,1,,,,,,,,,,,,,,,,,,,,,,,,,,,,,,,,,,,,,,,
,,,,,,,,2023-08-16_08h44.47.727,HF_wild_card,2022.2.4,Linux x86_64,60.06006006,6146fae1e27a56034fdcb5c5,64d2fd46c836a06233681665,64dc7e5754e17fa3494411ea,,,,,,,ctch,resources/DG.BMP,resources/DP.BMP,Door3,-0.228977084,0.019746939,1,0,0,1.1098,optionLeft,70,10985,5,34,0,34,0,1,,,,,,,,,,,,,,,,,,,,,,,,,,,,,,,,,,,,,,,
,,,,,,,,2023-08-16_08h44.47.727,HF_wild_card,2022.2.4,Linux x86_64,60.06006006,6146fae1e27a56034fdcb5c5,64d2fd46c836a06233681665,64dc7e5754e17fa3494411ea,,,,,,,decisionTrl,resources/DP.BMP,resources/DR.BMP,Door1,0.219992717,0.026135842,1,0,0,0.8704,optionRight,30,11015,5,35,0,35,0,1,,,,,,,,,,,,,,,,,,,,,,,,,,,,,,,,,,,,,,,
,,,,,,,,2023-08-16_08h44.47.727,HF_wild_card,2022.2.4,Linux x86_64,60.06006006,6146fae1e27a56034fdcb5c5,64d2fd46c836a06233681665,64dc7e5754e17fa3494411ea,,,,,,,sngl,resources/Empty.png,resources/DBN.BMP,Door4,0.259469112,-0.006663164,1,0,0,0.7403,optionRight,60,11075,5,36,0,36,0,1,,,,,,,,,,,,,,,,,,,,,,,,,,,,,,,,,,,,,,,
,,,,,,,,2023-08-16_08h44.47.727,HF_wild_card,2022.2.4,Linux x86_64,60.06006006,6146fae1e27a56034fdcb5c5,64d2fd46c836a06233681665,64dc7e5754e17fa3494411ea,,,,,,,sngl,resources/DBN.BMP,resources/Empty.png,Door4,-0.262661298,-0.032157898,1,0,0,0.7012,optionLeft,80,11155,5,37,0,37,0,1,,,,,,,,,,,,,,,,,,,,,,,,,,,,,,,,,,,,,,,
,,,,,,,,2023-08-16_08h44.47.727,HF_wild_card,2022.2.4,Linux x86_64,60.06006006,6146fae1e27a56034fdcb5c5,64d2fd46c836a06233681665,64dc7e5754e17fa3494411ea,,,,,,,ctch,resources/DP.BMP,resources/DG.BMP,Door3,0.252387762,-0.018326402,1,0,0,1.525,optionRight,70,11225,5,38,0,38,0,1,,,,,,,,,,,,,,,,,,,,,,,,,,,,,,,,,,,,,,,
,,,,,,,,2023-08-16_08h44.47.727,HF_wild_card,2022.2.4,Linux x86_64,60.06006006,6146fae1e27a56034fdcb5c5,64d2fd46c836a06233681665,64dc7e5754e17fa3494411ea,,,,,,,decisionTrl,resources/DR.BMP,resources/DY.BMP,WildCard_Ex,0.226566315,-0.009004156,1,0,0,1.9087,optionRight,45,11270,5,39,0,39,0,1,,,,,,,,,,,,,,,,,,,,,,,,,,,,,,,,,,,,,,,
,,,,,,,,2023-08-16_08h44.47.727,HF_wild_card,2022.2.4,Linux x86_64,60.06006006,6146fae1e27a56034fdcb5c5,64d2fd46c836a06233681665,64dc7e5754e17fa3494411ea,,,,,,,sngl,resources/DY.BMP,resources/Empty.png,WildCard_Ex,-0.204355955,-0.034468452,1,0,0,0.7916,optionLeft,55,11325,5,40,0,40,0,1,,,,,,,,,,,,,,,,,,,,,,,,,,,,,,,,,,,,,,,
,,,,,,,,2023-08-16_08h44.47.727,HF_wild_card,2022.2.4,Linux x86_64,60.06006006,6146fae1e27a56034fdcb5c5,64d2fd46c836a06233681665,64dc7e5754e17fa3494411ea,,,,,,,ctch,resources/DBN.BMP,resources/DR.BMP,Door4,-0.095784267,-0.012851477,1,0,0,1.4433,optionLeft,60,11385,5,41,0,41,0,1,,,,,,,,,,,,,,,,,,,,,,,,,,,,,,,,,,,,,,,
,,,,,,,,2023-08-16_08h44.47.727,HF_wild_card,2022.2.4,Linux x86_64,60.06006006,6146fae1e27a56034fdcb5c5,64d2fd46c836a06233681665,64dc7e5754e17fa3494411ea,,,,,,,sngl,resources/DP.BMP,resources/Empty.png,Door2,-0.162427505,-0.010006785,1,0,0,3.413,optionLeft,40,11425,5,42,0,42,0,1,,,,,,,,,,,,,,,,,,,,,,,,,,,,,,,,,,,,,,,
,,,,,,,,2023-08-16_08h44.47.727,HF_wild_card,2022.2.4,Linux x86_64,60.06006006,6146fae1e27a56034fdcb5c5,64d2fd46c836a06233681665,64dc7e5754e17fa3494411ea,,,,,,,decisionTrl,resources/DP.BMP,resources/DR.BMP,Door2,-0.149925391,-0.012858669,1,0,0,1.7808,optionLeft,40,11465,5,43,0,43,0,1,,,,,,,,,,,,,,,,,,,,,,,,,,,,,,,,,,,,,,,
,,,,,,,,2023-08-16_08h44.47.727,HF_wild_card,2022.2.4,Linux x86_64,60.06006006,6146fae1e27a56034fdcb5c5,64d2fd46c836a06233681665,64dc7e5754e17fa3494411ea,,,,,,,,,,,,,,,,,,,,,,,,,,4,0,4,0,1,,,,,,,,,,,,,,,,,,,,,,,,,,,,,,,,,,
,,,,,,,,2023-08-16_08h44.47.727,HF_wild_card,2022.2.4,Linux x86_64,60.06006006,6146fae1e27a56034fdcb5c5,64d2fd46c836a06233681665,64dc7e5754e17fa3494411ea,,,,,,,sngl,resources/DY.BMP,resources/Empty.png,WildCard_Ex,-0.291497389,-0.134673158,1,0,0,0.9104,optionLeft,45,11510,6,0,0,0,0,1,,,,,,,,,,,,,,,,,,,,,,,,,,,,,,,,,,,,,,,
,,,,,,,,2023-08-16_08h44.47.727,HF_wild_card,2022.2.4,Linux x86_64,60.06006006,6146fae1e27a56034fdcb5c5,64d2fd46c836a06233681665,64dc7e5754e17fa3494411ea,,,,,,,ctch,resources/DR.BMP,resources/DBN.BMP,Door4,0.287171284,0.046007117,1,0,0,0.875,optionRight,80,11590,6,1,0,1,0,1,,,,,,,,,,,,,,,,,,,,,,,,,,,,,,,,,,,,,,,
,,,,,,,,2023-08-16_08h44.47.727,HF_wild_card,2022.2.4,Linux x86_64,60.06006006,6146fae1e27a56034fdcb5c5,64d2fd46c836a06233681665,64dc7e5754e17fa3494411ea,,,,,,,decisionTrl,resources/DY.BMP,resources/DP.BMP,Door2,0.286462069,-0.023090045,1,0,0,1.0418,optionRight,40,11630,6,2,0,2,0,1,,,,,,,,,,,,,,,,,,,,,,,,,,,,,,,,,,,,,,,
,,,,,,,,2023-08-16_08h44.47.727,HF_wild_card,2022.2.4,Linux x86_64,60.06006006,6146fae1e27a56034fdcb5c5,64d2fd46c836a06233681665,64dc7e5754e17fa3494411ea,,,,,,,decisionTrl,resources/DP.BMP,resources/DY.BMP,WildCard_Ex,0.262889544,0.045653502,1,0,0,1.0392,optionRight,45,11675,6,3,0,3,0,1,,,,,,,,,,,,,,,,,,,,,,,,,,,,,,,,,,,,,,,
,,,,,,,,2023-08-16_08h44.47.727,HF_wild_card,2022.2.4,Linux x86_64,60.06006006,6146fae1e27a56034fdcb5c5,64d2fd46c836a06233681665,64dc7e5754e17fa3494411ea,,,,,,,sngl,resources/Empty.png,resources/DP.BMP,Door2,0.2156624,-0.006914139,1,0,0,0.7013,optionRight,40,11715,6,4,0,4,0,1,,,,,,,,,,,,,,,,,,,,,,,,,,,,,,,,,,,,,,,
,,,,,,,,2023-08-16_08h44.47.727,HF_wild_card,2022.2.4,Linux x86_64,60.06006006,6146fae1e27a56034fdcb5c5,64d2fd46c836a06233681665,64dc7e5754e17fa3494411ea,,,,,,,sngl,resources/Empty.png,resources/DG.BMP,Door3,0.265362581,-0.005785584,1,0,0,0.6846,optionRight,70,11785,6,5,0,5,0,1,,,,,,,,,,,,,,,,,,,,,,,,,,,,,,,,,,,,,,,
,,,,,,,,2023-08-16_08h44.47.727,HF_wild_card,2022.2.4,Linux x86_64,60.06006006,6146fae1e27a56034fdcb5c5,64d2fd46c836a06233681665,64dc7e5754e17fa3494411ea,,,,,,,sngl,resources/Empty.png,resources/DY.BMP,WildCard_Ex,0.359098911,0.035304507,1,0,0,0.7132,optionRight,45,11830,6,6,0,6,0,1,,,,,,,,,,,,,,,,,,,,,,,,,,,,,,,,,,,,,,,
,,,,,,,,2023-08-16_08h44.47.727,HF_wild_card,2022.2.4,Linux x86_64,60.06006006,6146fae1e27a56034fdcb5c5,64d2fd46c836a06233681665,64dc7e5754e17fa3494411ea,,,,,,,sngl,resources/DY.BMP,resources/Empty.png,WildCard_Ex,-0.150396824,-0.008786877,1,0,0,0.8777,optionLeft,55,11885,6,7,0,7,0,1,,,,,,,,,,,,,,,,,,,,,,,,,,,,,,,,,,,,,,,
,,,,,,,,2023-08-16_08h44.47.727,HF_wild_card,2022.2.4,Linux x86_64,60.06006006,6146fae1e27a56034fdcb5c5,64d2fd46c836a06233681665,64dc7e5754e17fa3494411ea,,,,,,,sngl,resources/DG.BMP,resources/Empty.png,Door3,-0.146248897,-0.044954538,1,0,0,0.7112,optionLeft,70,11955,6,8,0,8,0,1,,,,,,,,,,,,,,,,,,,,,,,,,,,,,,,,,,,,,,,
,,,,,,,,2023-08-16_08h44.47.727,HF_wild_card,2022.2.4,Linux x86_64,60.06006006,6146fae1e27a56034fdcb5c5,64d2fd46c836a06233681665,64dc7e5754e17fa3494411ea,,,,,,,decisionTrl,resources/DP.BMP,resources/DR.BMP,Door1,0.329681953,-0.078193307,1,0,0,0.9452,optionRight,30,11985,6,9,0,9,0,1,,,,,,,,,,,,,,,,,,,,,,,,,,,,,,,,,,,,,,,
,,,,,,,,2023-08-16_08h44.47.727,HF_wild_card,2022.2.4,Linux x86_64,60.06006006,6146fae1e27a56034fdcb5c5,64d2fd46c836a06233681665,64dc7e5754e17fa3494411ea,,,,,,,decisionTrl,resources/DBN.BMP,resources/DG.BMP,Door4,-0.311929941,-0.07019031,1,0,0,3.4561,optionLeft,60,12045,6,10,0,10,0,1,,,,,,,,,,,,,,,,,,,,,,,,,,,,,,,,,,,,,,,
,,,,,,,,2023-08-16_08h44.47.727,HF_wild_card,2022.2.4,Linux x86_64,60.06006006,6146fae1e27a56034fdcb5c5,64d2fd46c836a06233681665,64dc7e5754e17fa3494411ea,,,,,,,decisionTrl,resources/DR.BMP,resources/DP.BMP,Door2,0.203030189,0.064680099,1,0,0,2.0521,optionRight,40,12085,6,11,0,11,0,1,,,,,,,,,,,,,,,,,,,,,,,,,,,,,,,,,,,,,,,
,,,,,,,,2023-08-16_08h44.47.727,HF_wild_card,2022.2.4,Linux x86_64,60.06006006,6146fae1e27a56034fdcb5c5,64d2fd46c836a06233681665,64dc7e5754e17fa3494411ea,,,,,,,decisionTrl,resources/DBN.BMP,resources/DG.BMP,Door4,-0.225839218,-0.046751459,1,0,0,0.8867,optionLeft,80,12165,6,12,0,12,0,1,,,,,,,,,,,,,,,,,,,,,,,,,,,,,,,,,,,,,,,
,,,,,,,,2023-08-16_08h44.47.727,HF_wild_card,2022.2.4,Linux x86_64,60.06006006,6146fae1e27a56034fdcb5c5,64d2fd46c836a06233681665,64dc7e5754e17fa3494411ea,,,,,,,decisionTrl,resources/DP.BMP,resources/DR.BMP,Door2,-0.204548279,-0.026659369,1,0,0,1.1455,optionLeft,20,12185,6,13,0,13,0,1,,,,,,,,,,,,,,,,,,,,,,,,,,,,,,,,,,,,,,,
,,,,,,,,2023-08-16_08h44.47.727,HF_wild_card,2022.2.4,Linux x86_64,60.06006006,6146fae1e27a56034fdcb5c5,64d2fd46c836a06233681665,64dc7e5754e17fa3494411ea,,,,,,,decisionTrl,resources/DG.BMP,resources/DBN.BMP,Door4,0.3034664,0.027514935,1,0,0,9.4648,optionRight,80,12265,6,14,0,14,0,1,,,,,,,,,,,,,,,,,,,,,,,,,,,,,,,,,,,,,,,
,,,,,,,,2023-08-16_08h44.47.727,HF_wild_card,2022.2.4,Linux x86_64,60.06006006,6146fae1e27a56034fdcb5c5,64d2fd46c836a06233681665,64dc7e5754e17fa3494411ea,,,,,,,ctch,resources/DG.BMP,resources/DP.BMP,Door3,-0.158880313,0.014062961,1,0,0,1.2451,optionLeft,70,12335,6,15,0,15,0,1,,,,,,,,,,,,,,,,,,,,,,,,,,,,,,,,,,,,,,,
,,,,,,,,2023-08-16_08h44.47.727,HF_wild_card,2022.2.4,Linux x86_64,60.06006006,6146fae1e27a56034fdcb5c5,64d2fd46c836a06233681665,64dc7e5754e17fa3494411ea,,,,,,,sngl,resources/DBN.BMP,resources/Empty.png,Door4,-0.158073743,-0.014300346,1,0,0,1.6246,optionLeft,60,12395,6,16,0,16,0,1,,,,,,,,,,,,,,,,,,,,,,,,,,,,,,,,,,,,,,,
,,,,,,,,2023-08-16_08h44.47.727,HF_wild_card,2022.2.4,Linux x86_64,60.06006006,6146fae1e27a56034fdcb5c5,64d2fd46c836a06233681665,64dc7e5754e17fa3494411ea,,,,,,,ctch,resources/DBN.BMP,resources/DR.BMP,Door4,-0.211715301,0.011700948,1,0,0,2.8381,optionLeft,80,12475,6,17,0,17,0,1,,,,,,,,,,,,,,,,,,,,,,,,,,,,,,,,,,,,,,,
,,,,,,,,2023-08-16_08h44.47.727,HF_wild_card,2022.2.4,Linux x86_64,60.06006006,6146fae1e27a56034fdcb5c5,64d2fd46c836a06233681665,64dc7e5754e17fa3494411ea,,,,,,,decisionTrl,resources/DBN.BMP,resources/DY.BMP,Door4,-0.167031924,0.007238348,1,0,0,0.8079,optionLeft,80,12555,6,18,0,18,0,1,,,,,,,,,,,,,,,,,,,,,,,,,,,,,,,,,,,,,,,
,,,,,,,,2023-08-16_08h44.47.727,HF_wild_card,2022.2.4,Linux x86_64,60.06006006,6146fae1e27a56034fdcb5c5,64d2fd46c836a06233681665,64dc7e5754e17fa3494411ea,,,,,,,sngl,resources/DP.BMP,resources/Empty.png,Door2,-0.210754077,0.017579238,1,0,0,1.0448,optionLeft,20,12575,6,19,0,19,0,1,,,,,,,,,,,,,,,,,,,,,,,,,,,,,,,,,,,,,,,
,,,,,,,,2023-08-16_08h44.47.727,HF_wild_card,2022.2.4,Linux x86_64,60.06006006,6146fae1e27a56034fdcb5c5,64d2fd46c836a06233681665,64dc7e5754e17fa3494411ea,,,,,,,decisionTrl,resources/DBN.BMP,resources/DG.BMP,Door4,-0.231430054,0.002896825,1,0,0,0.8282,optionLeft,80,12655,6,20,0,20,0,1,,,,,,,,,,,,,,,,,,,,,,,,,,,,,,,,,,,,,,,
,,,,,,,,2023-08-16_08h44.47.727,HF_wild_card,2022.2.4,Linux x86_64,60.06006006,6146fae1e27a56034fdcb5c5,64d2fd46c836a06233681665,64dc7e5754e17fa3494411ea,,,,,,,decisionTrl,resources/DG.BMP,resources/DBN.BMP,Door4,0.436161598,0.009318948,1,0,0,0.7556,optionRight,60,12715,6,21,0,21,0,1,,,,,,,,,,,,,,,,,,,,,,,,,,,,,,,,,,,,,,,
,,,,,,,,2023-08-16_08h44.47.727,HF_wild_card,2022.2.4,Linux x86_64,60.06006006,6146fae1e27a56034fdcb5c5,64d2fd46c836a06233681665,64dc7e5754e17fa3494411ea,,,,,,,sngl,resources/Empty.png,resources/DR.BMP,Door1,0.141605934,-0.031145096,1,0,0,0.8502,optionRight,30,12745,6,22,0,22,0,1,,,,,,,,,,,,,,,,,,,,,,,,,,,,,,,,,,,,,,,
,,,,,,,,2023-08-16_08h44.47.727,HF_wild_card,2022.2.4,Linux x86_64,60.06006006,6146fae1e27a56034fdcb5c5,64d2fd46c836a06233681665,64dc7e5754e17fa3494411ea,,,,,,,decisionTrl,resources/DR.BMP,resources/DP.BMP,Door1,-0.142595927,0.001086116,1,0,0,1.1819,optionLeft,30,12775,6,23,0,23,0,1,,,,,,,,,,,,,,,,,,,,,,,,,,,,,,,,,,,,,,,
,,,,,,,,2023-08-16_08h44.47.727,HF_wild_card,2022.2.4,Linux x86_64,60.06006006,6146fae1e27a56034fdcb5c5,64d2fd46c836a06233681665,64dc7e5754e17fa3494411ea,,,,,,,decisionTrl,resources/DG.BMP,resources/DY.BMP,WildCard_Ex,0.168790261,-0.023602168,1,0,0,1.1423,optionRight,45,12820,6,24,0,24,0,1,,,,,,,,,,,,,,,,,,,,,,,,,,,,,,,,,,,,,,,
,,,,,,,,2023-08-16_08h44.47.727,HF_wild_card,2022.2.4,Linux x86_64,60.06006006,6146fae1e27a56034fdcb5c5,64d2fd46c836a06233681665,64dc7e5754e17fa3494411ea,,,,,,,decisionTrl,resources/DBN.BMP,resources/DG.BMP,Door4,-0.206684907,-0.055517038,1,0,0,0.8339,optionLeft,60,12880,6,25,0,25,0,1,,,,,,,,,,,,,,,,,,,,,,,,,,,,,,,,,,,,,,,
,,,,,,,,2023-08-16_08h44.47.727,HF_wild_card,2022.2.4,Linux x86_64,60.06006006,6146fae1e27a56034fdcb5c5,64d2fd46c836a06233681665,64dc7e5754e17fa3494411ea,,,,,,,sngl,resources/Empty.png,resources/DBN.BMP,Door4,0.19011124,-0.034869671,1,0,0,0.8438,optionRight,80,12960,6,26,0,26,0,1,,,,,,,,,,,,,,,,,,,,,,,,,,,,,,,,,,,,,,,
,,,,,,,,2023-08-16_08h44.47.727,HF_wild_card,2022.2.4,Linux x86_64,60.06006006,6146fae1e27a56034fdcb5c5,64d2fd46c836a06233681665,64dc7e5754e17fa3494411ea,,,,,,,decisionTrl,resources/DY.BMP,resources/DBN.BMP,Door4,0.140696208,-0.015596032,1,0,0,0.9461,optionRight,80,13040,6,27,0,27,0,1,,,,,,,,,,,,,,,,,,,,,,,,,,,,,,,,,,,,,,,
,,,,,,,,2023-08-16_08h44.47.727,HF_wild_card,2022.2.4,Linux x86_64,60.06006006,6146fae1e27a56034fdcb5c5,64d2fd46c836a06233681665,64dc7e5754e17fa3494411ea,,,,,,,decisionTrl,resources/DY.BMP,resources/DG.BMP,WildCard_Ex,-0.129510164,-0.006350358,1,0,0,0.9753,optionLeft,45,13085,6,28,0,28,0,1,,,,,,,,,,,,,,,,,,,,,,,,,,,,,,,,,,,,,,,
,,,,,,,,2023-08-16_08h44.47.727,HF_wild_card,2022.2.4,Linux x86_64,60.06006006,6146fae1e27a56034fdcb5c5,64d2fd46c836a06233681665,64dc7e5754e17fa3494411ea,,,,,,,decisionTrl,resources/DR.BMP,resources/DP.BMP,Door2,0.204273383,-0.001885215,1,0,0,0.9985,optionRight,40,13125,6,29,0,29,0,1,,,,,,,,,,,,,,,,,,,,,,,,,,,,,,,,,,,,,,,
,,,,,,,,2023-08-16_08h44.47.727,HF_wild_card,2022.2.4,Linux x86_64,60.06006006,6146fae1e27a56034fdcb5c5,64d2fd46c836a06233681665,64dc7e5754e17fa3494411ea,,,,,,,decisionTrl,resources/DG.BMP,resources/DBN.BMP,Door4,0.172762156,-0.021877567,1,0,0,0.8292,optionRight,60,13185,6,30,0,30,0,1,,,,,,,,,,,,,,,,,,,,,,,,,,,,,,,,,,,,,,,
,,,,,,,,2023-08-16_08h44.47.727,HF_wild_card,2022.2.4,Linux x86_64,60.06006006,6146fae1e27a56034fdcb5c5,64d2fd46c836a06233681665,64dc7e5754e17fa3494411ea,,,,,,,decisionTrl,resources/DR.BMP,resources/DP.BMP,Door1,-0.158083121,-0.044425488,1,0,0,1.072,optionLeft,30,13215,6,31,0,31,0,1,,,,,,,,,,,,,,,,,,,,,,,,,,,,,,,,,,,,,,,
,,,,,,,,2023-08-16_08h44.47.727,HF_wild_card,2022.2.4,Linux x86_64,60.06006006,6146fae1e27a56034fdcb5c5,64d2fd46c836a06233681665,64dc7e5754e17fa3494411ea,,,,,,,ctch,resources/DBN.BMP,resources/DR.BMP,Door4,-0.156626781,-0.002920945,1,0,0,0.9128,optionLeft,80,13295,6,32,0,32,0,1,,,,,,,,,,,,,,,,,,,,,,,,,,,,,,,,,,,,,,,
,,,,,,,,2023-08-16_08h44.47.727,HF_wild_card,2022.2.4,Linux x86_64,60.06006006,6146fae1e27a56034fdcb5c5,64d2fd46c836a06233681665,64dc7e5754e17fa3494411ea,,,,,,,ctch,resources/DG.BMP,resources/DP.BMP,Door3,-0.179949999,0.011797627,1,0,0,1.1938,optionLeft,70,13365,6,33,0,33,0,1,,,,,,,,,,,,,,,,,,,,,,,,,,,,,,,,,,,,,,,
,,,,,,,,2023-08-16_08h44.47.727,HF_wild_card,2022.2.4,Linux x86_64,60.06006006,6146fae1e27a56034fdcb5c5,64d2fd46c836a06233681665,64dc7e5754e17fa3494411ea,,,,,,,sngl,resources/DR.BMP,resources/Empty.png,Door1,-0.151336511,-0.008530498,1,0,0,0.8698,optionLeft,30,13395,6,34,0,34,0,1,,,,,,,,,,,,,,,,,,,,,,,,,,,,,,,,,,,,,,,
,,,,,,,,2023-08-16_08h44.47.727,HF_wild_card,2022.2.4,Linux x86_64,60.06006006,6146fae1e27a56034fdcb5c5,64d2fd46c836a06233681665,64dc7e5754e17fa3494411ea,,,,,,,sngl,resources/Empty.png,resources/DY.BMP,WildCard_Ex,0.178361575,-0.01450936,1,0,0,0.7892,optionRight,55,13450,6,35,0,35,0,1,,,,,,,,,,,,,,,,,,,,,,,,,,,,,,,,,,,,,,,
,,,,,,,,2023-08-16_08h44.47.727,HF_wild_card,2022.2.4,Linux x86_64,60.06006006,6146fae1e27a56034fdcb5c5,64d2fd46c836a06233681665,64dc7e5754e17fa3494411ea,,,,,,,decisionTrl,resources/DR.BMP,resources/DY.BMP,WildCard_Ex,0.205331484,-0.062820077,1,0,0,1.3078,optionRight,45,13495,6,36,0,36,0,1,,,,,,,,,,,,,,,,,,,,,,,,,,,,,,,,,,,,,,,
,,,,,,,,2023-08-16_08h44.47.727,HF_wild_card,2022.2.4,Linux x86_64,60.06006006,6146fae1e27a56034fdcb5c5,64d2fd46c836a06233681665,64dc7e5754e17fa3494411ea,,,,,,,decisionTrl,resources/DG.BMP,resources/DBN.BMP,Door4,0.209402005,-0.013577263,1,0,0,0.6998,optionRight,80,13575,6,37,0,37,0,1,,,,,,,,,,,,,,,,,,,,,,,,,,,,,,,,,,,,,,,
,,,,,,,,2023-08-16_08h44.47.727,HF_wild_card,2022.2.4,Linux x86_64,60.06006006,6146fae1e27a56034fdcb5c5,64d2fd46c836a06233681665,64dc7e5754e17fa3494411ea,,,,,,,ctch,resources/DR.BMP,resources/DBN.BMP,Door4,0.233077923,-0.038355033,1,0,0,0.6735,optionRight,80,13655,6,38,0,38,0,1,,,,,,,,,,,,,,,,,,,,,,,,,,,,,,,,,,,,,,,
,,,,,,,,2023-08-16_08h44.47.727,HF_wild_card,2022.2.4,Linux x86_64,60.06006006,6146fae1e27a56034fdcb5c5,64d2fd46c836a06233681665,64dc7e5754e17fa3494411ea,,,,,,,decisionTrl,resources/DP.BMP,resources/DR.BMP,Door1,0.236178557,-0.05042549,1,0,0,1.8773,optionRight,30,13685,6,39,0,39,0,1,,,,,,,,,,,,,,,,,,,,,,,,,,,,,,,,,,,,,,,
,,,,,,,,2023-08-16_08h44.47.727,HF_wild_card,2022.2.4,Linux x86_64,60.06006006,6146fae1e27a56034fdcb5c5,64d2fd46c836a06233681665,64dc7e5754e17fa3494411ea,,,,,,,ctch,resources/DP.BMP,resources/DG.BMP,Door2,-0.188013077,-0.028908809,1,0,0,1.6532,optionLeft,20,13705,6,40,0,40,0,1,,,,,,,,,,,,,,,,,,,,,,,,,,,,,,,,,,,,,,,
,,,,,,,,2023-08-16_08h44.47.727,HF_wild_card,2022.2.4,Linux x86_64,60.06006006,6146fae1e27a56034fdcb5c5,64d2fd46c836a06233681665,64dc7e5754e17fa3494411ea,,,,,,,decisionTrl,resources/DP.BMP,resources/DR.BMP,Door1,0.200112502,-0.006329854,1,0,0,1.1766,optionRight,30,13735,6,41,0,41,0,1,,,,,,,,,,,,,,,,,,,,,,,,,,,,,,,,,,,,,,,
,,,,,,,,2023-08-16_08h44.47.727,HF_wild_card,2022.2.4,Linux x86_64,60.06006006,6146fae1e27a56034fdcb5c5,64d2fd46c836a06233681665,64dc7e5754e17fa3494411ea,,,,,,,decisionTrl,resources/DY.BMP,resources/DR.BMP,WildCard_Ex,-0.247495214,-0.018890897,1,0,0,0.9073,optionLeft,45,13780,6,42,0,42,0,1,,,,,,,,,,,,,,,,,,,,,,,,,,,,,,,,,,,,,,,
,,,,,,,,2023-08-16_08h44.47.727,HF_wild_card,2022.2.4,Linux x86_64,60.06006006,6146fae1e27a56034fdcb5c5,64d2fd46c836a06233681665,64dc7e5754e17fa3494411ea,,,,,,,ctch,resources/DP.BMP,resources/DG.BMP,Door3,0.192316055,-0.018248916,1,0,0,1.6232,optionRight,70,13850,6,43,0,43,0,1,,,,,,,,,,,,,,,,,,,,,,,,,,,,,,,,,,,,,,,
,,,,,,,,2023-08-16_08h44.47.727,HF_wild_card,2022.2.4,Linux x86_64,60.06006006,6146fae1e27a56034fdcb5c5,64d2fd46c836a06233681665,64dc7e5754e17fa3494411ea,,,,,,,,,,,,,,,,,,,,,,,,,,5,0,5,0,1,,,,,,,,,,,,,,,,,,,,,,,,,,,,,,,,,,
,,,,,,,,2023-08-16_08h44.47.727,HF_wild_card,2022.2.4,Linux x86_64,60.06006006,6146fae1e27a56034fdcb5c5,64d2fd46c836a06233681665,64dc7e5754e17fa3494411ea,,,,,,,decisionTrl,resources/DP.BMP,resources/DR.BMP,Door1,0.15993468,-0.117567221,1,0,0,1.2684,optionRight,30,13880,7,0,0,0,0,1,,,,,,,,,,,,,,,,,,,,,,,,,,,,,,,,,,,,,,,
,,,,,,,,2023-08-16_08h44.47.727,HF_wild_card,2022.2.4,Linux x86_64,60.06006006,6146fae1e27a56034fdcb5c5,64d2fd46c836a06233681665,64dc7e5754e17fa3494411ea,,,,,,,ctch,resources/DR.BMP,resources/DBN.BMP,Door4,0.38337326,-0.045169989,1,0,0,0.7709,optionRight,60,13940,7,1,0,1,0,1,,,,,,,,,,,,,,,,,,,,,,,,,,,,,,,,,,,,,,,
,,,,,,,,2023-08-16_08h44.47.727,HF_wild_card,2022.2.4,Linux x86_64,60.06006006,6146fae1e27a56034fdcb5c5,64d2fd46c836a06233681665,64dc7e5754e17fa3494411ea,,,,,,,decisionTrl,resources/DG.BMP,resources/DBN.BMP,Door4,0.185394208,-0.01198558,1,0,0,0.6945,optionRight,60,14000,7,2,0,2,0,1,,,,,,,,,,,,,,,,,,,,,,,,,,,,,,,,,,,,,,,
,,,,,,,,2023-08-16_08h44.47.727,HF_wild_card,2022.2.4,Linux x86_64,60.06006006,6146fae1e27a56034fdcb5c5,64d2fd46c836a06233681665,64dc7e5754e17fa3494411ea,,,,,,,decisionTrl,resources/DG.BMP,resources/DBN.BMP,Door4,0.218120575,0.013485312,1,0,0,0.7636,optionRight,60,14060,7,3,0,3,0,1,,,,,,,,,,,,,,,,,,,,,,,,,,,,,,,,,,,,,,,
,,,,,,,,2023-08-16_08h44.47.727,HF_wild_card,2022.2.4,Linux x86_64,60.06006006,6146fae1e27a56034fdcb5c5,64d2fd46c836a06233681665,64dc7e5754e17fa3494411ea,,,,,,,decisionTrl,resources/DBN.BMP,resources/DG.BMP,Door4,-0.151225567,0.015130361,1,0,0,1.2627,optionLeft,80,14140,7,4,0,4,0,1,,,,,,,,,,,,,,,,,,,,,,,,,,,,,,,,,,,,,,,
,,,,,,,,2023-08-16_08h44.47.727,HF_wild_card,2022.2.4,Linux x86_64,60.06006006,6146fae1e27a56034fdcb5c5,64d2fd46c836a06233681665,64dc7e5754e17fa3494411ea,,,,,,,ctch,resources/DBN.BMP,resources/DR.BMP,Door4,-0.414349834,-0.000889023,1,0,0,0.8091,optionLeft,60,14200,7,5,0,5,0,1,,,,,,,,,,,,,,,,,,,,,,,,,,,,,,,,,,,,,,,
,,,,,,,,2023-08-16_08h44.47.727,HF_wild_card,2022.2.4,Linux x86_64,60.06006006,6146fae1e27a56034fdcb5c5,64d2fd46c836a06233681665,64dc7e5754e17fa3494411ea,,,,,,,decisionTrl,resources/DG.BMP,resources/DBN.BMP,Door3,-0.122398297,0.009997606,1,0,0,1.1942,optionLeft,70,14270,7,6,0,6,0,1,,,,,,,,,,,,,,,,,,,,,,,,,,,,,,,,,,,,,,,
,,,,,,,,2023-08-16_08h44.47.727,HF_wild_card,2022.2.4,Linux x86_64,60.06006006,6146fae1e27a56034fdcb5c5,64d2fd46c836a06233681665,64dc7e5754e17fa3494411ea,,,,,,,ctch,resources/DBN.BMP,resources/DR.BMP,Door4,-0.126312971,0.034397483,1,0,0,0.874,optionLeft,80,14350,7,7,0,7,0,1,,,,,,,,,,,,,,,,,,,,,,,,,,,,,,,,,,,,,,,
,,,,,,,,2023-08-16_08h44.47.727,HF_wild_card,2022.2.4,Linux x86_64,60.06006006,6146fae1e27a56034fdcb5c5,64d2fd46c836a06233681665,64dc7e5754e17fa3494411ea,,,,,,,decisionTrl,resources/DP.BMP,resources/DR.BMP,Door1,0.175013781,0.028611541,1,0,0,1.551,optionRight,30,14380,7,8,0,8,0,1,,,,,,,,,,,,,,,,,,,,,,,,,,,,,,,,,,,,,,,
,,,,,,,,2023-08-16_08h44.47.727,HF_wild_card,2022.2.4,Linux x86_64,60.06006006,6146fae1e27a56034fdcb5c5,64d2fd46c836a06233681665,64dc7e5754e17fa3494411ea,,,,,,,decisionTrl,resources/DP.BMP,resources/DR.BMP,Door1,0.225174268,0.009881496,1,0,0,0.8159,optionRight,30,14410,7,9,0,9,0,1,,,,,,,,,,,,,,,,,,,,,,,,,,,,,,,,,,,,,,,
,,,,,,,,2023-08-16_08h44.47.727,HF_wild_card,2022.2.4,Linux x86_64,60.06006006,6146fae1e27a56034fdcb5c5,64d2fd46c836a06233681665,64dc7e5754e17fa3494411ea,,,,,,,ctch,resources/DR.BMP,resources/DBN.BMP,Door4,0.204598188,0.012931863,1,0,0,0.7964,optionRight,60,14470,7,10,0,10,0,1,,,,,,,,,,,,,,,,,,,,,,,,,,,,,,,,,,,,,,,
,,,,,,,,2023-08-16_08h44.47.727,HF_wild_card,2022.2.4,Linux x86_64,60.06006006,6146fae1e27a56034fdcb5c5,64d2fd46c836a06233681665,64dc7e5754e17fa3494411ea,,,,,,,decisionTrl,resources/DBN.BMP,resources/DG.BMP,Door4,-0.209975561,0.03916351,1,0,0,1.297,optionLeft,80,14550,7,11,0,11,0,1,,,,,,,,,,,,,,,,,,,,,,,,,,,,,,,,,,,,,,,
,,,,,,,,2023-08-16_08h44.47.727,HF_wild_card,2022.2.4,Linux x86_64,60.06006006,6146fae1e27a56034fdcb5c5,64d2fd46c836a06233681665,64dc7e5754e17fa3494411ea,,,,,,,decisionTrl,resources/DG.BMP,resources/DBN.BMP,Door4,0.174555143,0.022383809,1,0,0,0.8317,optionRight,80,14630,7,12,0,12,0,1,,,,,,,,,,,,,,,,,,,,,,,,,,,,,,,,,,,,,,,
,,,,,,,,2023-08-16_08h44.47.727,HF_wild_card,2022.2.4,Linux x86_64,60.06006006,6146fae1e27a56034fdcb5c5,64d2fd46c836a06233681665,64dc7e5754e17fa3494411ea,,,,,,,decisionTrl,resources/DP.BMP,resources/DR.BMP,Door2,-0.104366302,-0.003694574,1,0,0,1.4017,optionLeft,40,14670,7,13,0,13,0,1,,,,,,,,,,,,,,,,,,,,,,,,,,,,,,,,,,,,,,,
,,,,,,,,2023-08-16_08h44.47.727,HF_wild_card,2022.2.4,Linux x86_64,60.06006006,6146fae1e27a56034fdcb5c5,64d2fd46c836a06233681665,64dc7e5754e17fa3494411ea,,,,,,,decisionTrl,resources/DR.BMP,resources/DP.BMP,Door2,0.244467894,0.052936435,1,0,0,1.325,optionRight,20,14690,7,14,0,14,0,1,,,,,,,,,,,,,,,,,,,,,,,,,,,,,,,,,,,,,,,
,,,,,,,,2023-08-16_08h44.47.727,HF_wild_card,2022.2.4,Linux x86_64,60.06006006,6146fae1e27a56034fdcb5c5,64d2fd46c836a06233681665,64dc7e5754e17fa3494411ea,,,,,,,decisionTrl,resources/DBN.BMP,resources/DG.BMP,Door4,-0.194739421,0.006545941,1,0,0,1.0373,optionLeft,80,14770,7,15,0,15,0,1,,,,,,,,,,,,,,,,,,,,,,,,,,,,,,,,,,,,,,,
,,,,,,,,2023-08-16_08h44.47.727,HF_wild_card,2022.2.4,Linux x86_64,60.06006006,6146fae1e27a56034fdcb5c5,64d2fd46c836a06233681665,64dc7e5754e17fa3494411ea,,,,,,,ctch,resources/DG.BMP,resources/DP.BMP,Door3,-0.179316998,0.007165273,1,0,0,0.8162,optionLeft,70,14840,7,16,0,16,0,1,,,,,,,,,,,,,,,,,,,,,,,,,,,,,,,,,,,,,,,
,,,,,,,,2023-08-16_08h44.47.727,HF_wild_card,2022.2.4,Linux x86_64,60.06006006,6146fae1e27a56034fdcb5c5,64d2fd46c836a06233681665,64dc7e5754e17fa3494411ea,,,,,,,decisionTrl,resources/DBN.BMP,resources/DG.BMP,Door4,-0.125793934,0.015595992,1,0,0,0.9528,optionLeft,60,14900,7,17,0,17,0,1,,,,,,,,,,,,,,,,,,,,,,,,,,,,,,,,,,,,,,,
,,,,,,,,2023-08-16_08h44.47.727,HF_wild_card,2022.2.4,Linux x86_64,60.06006006,6146fae1e27a56034fdcb5c5,64d2fd46c836a06233681665,64dc7e5754e17fa3494411ea,,,,,,,decisionTrl,resources/DR.BMP,resources/DP.BMP,Door2,0.236791929,-0.02423056,1,0,0,0.8945,optionRight,40,14940,7,18,0,18,0,1,,,,,,,,,,,,,,,,,,,,,,,,,,,,,,,,,,,,,,,
,,,,,,,,2023-08-16_08h44.47.727,HF_wild_card,2022.2.4,Linux x86_64,60.06006006,6146fae1e27a56034fdcb5c5,64d2fd46c836a06233681665,64dc7e5754e17fa3494411ea,,,,,,,decisionTrl,resources/DBN.BMP,resources/DG.BMP,Door4,-0.298448324,-0.07828629,1,0,0,0.851,optionLeft,80,15020,7,19,0,19,0,1,,,,,,,,,,,,,,,,,,,,,,,,,,,,,,,,,,,,,,,
,,,,,,,,2023-08-16_08h44.47.727,HF_wild_card,2022.2.4,Linux x86_64,60.06006006,6146fae1e27a56034fdcb5c5,64d2fd46c836a06233681665,64dc7e5754e17fa3494411ea,,,,,,,decisionTrl,resources/DR.BMP,resources/DP.BMP,Door2,0.106794596,-0.017431974,1,0,0,1.0608,optionRight,20,15040,7,20,0,20,0,1,,,,,,,,,,,,,,,,,,,,,,,,,,,,,,,,,,,,,,,
,,,,,,,,2023-08-16_08h44.47.727,HF_wild_card,2022.2.4,Linux x86_64,60.06006006,6146fae1e27a56034fdcb5c5,64d2fd46c836a06233681665,64dc7e5754e17fa3494411ea,,,,,,,decisionTrl,resources/DG.BMP,resources/DBN.BMP,Door4,0.169575373,-0.015420318,1,0,0,1.1186,optionRight,80,15120,7,21,0,21,0,1,,,,,,,,,,,,,,,,,,,,,,,,,,,,,,,,,,,,,,,
,,,,,,,,2023-08-16_08h44.47.727,HF_wild_card,2022.2.4,Linux x86_64,60.06006006,6146fae1e27a56034fdcb5c5,64d2fd46c836a06233681665,64dc7e5754e17fa3494411ea,,,,,,,ctch,resources/DP.BMP,resources/DG.BMP,Door3,0.146738211,-0.003677646,1,0,0,1.0815,optionRight,70,15190,7,22,0,22,0,1,,,,,,,,,,,,,,,,,,,,,,,,,,,,,,,,,,,,,,,
,,,,,,,,2023-08-16_08h44.47.727,HF_wild_card,2022.2.4,Linux x86_64,60.06006006,6146fae1e27a56034fdcb5c5,64d2fd46c836a06233681665,64dc7e5754e17fa3494411ea,,,,,,,ctch,resources/DBN.BMP,resources/DR.BMP,Door4,-0.139326493,0.006870906,1,0,0,1.3123,optionLeft,60,15250,7,23,0,23,0,1,,,,,,,,,,,,,,,,,,,,,,,,,,,,,,,,,,,,,,,
,,,,,,,,2023-08-16_08h44.47.727,HF_wild_card,2022.2.4,Linux x86_64,60.06006006,6146fae1e27a56034fdcb5c5,64d2fd46c836a06233681665,64dc7e5754e17fa3494411ea,,,,,,,decisionTrl,resources/DG.BMP,resources/DBN.BMP,Door4,0.231090387,-0.008630196,1,0,0,0.8435,optionRight,60,15310,7,24,0,24,0,1,,,,,,,,,,,,,,,,,,,,,,,,,,,,,,,,,,,,,,,
,,,,,,,,2023-08-16_08h44.47.727,HF_wild_card,2022.2.4,Linux x86_64,60.06006006,6146fae1e27a56034fdcb5c5,64d2fd46c836a06233681665,64dc7e5754e17fa3494411ea,,,,,,,decisionTrl,resources/DR.BMP,resources/DP.BMP,Door2,0.223104954,-0.020445267,1,0,0,1.4101,optionRight,20,15330,7,25,0,25,0,1,,,,,,,,,,,,,,,,,,,,,,,,,,,,,,,,,,,,,,,
,,,,,,,,2023-08-16_08h44.47.727,HF_wild_card,2022.2.4,Linux x86_64,60.06006006,6146fae1e27a56034fdcb5c5,64d2fd46c836a06233681665,64dc7e5754e17fa3494411ea,,,,,,,decisionTrl,resources/DR.BMP,resources/DP.BMP,Door2,0.214634816,-0.029286981,1,0,0,0.9912,optionRight,20,15350,7,26,0,26,0,1,,,,,,,,,,,,,,,,,,,,,,,,,,,,,,,,,,,,,,,
,,,,,,,,2023-08-16_08h44.47.727,HF_wild_card,2022.2.4,Linux x86_64,60.06006006,6146fae1e27a56034fdcb5c5,64d2fd46c836a06233681665,64dc7e5754e17fa3494411ea,,,,,,,decisionTrl,resources/DP.BMP,resources/DR.BMP,Door2,-0.217415889,-0.051282247,1,0,0,1.1935,optionLeft,20,15370,7,27,0,27,0,1,,,,,,,,,,,,,,,,,,,,,,,,,,,,,,,,,,,,,,,
,,,,,,,,2023-08-16_08h44.47.727,HF_wild_card,2022.2.4,Linux x86_64,60.06006006,6146fae1e27a56034fdcb5c5,64d2fd46c836a06233681665,64dc7e5754e17fa3494411ea,,,,,,,ctch,resources/DG.BMP,resources/DP.BMP,Door3,-0.128675222,0.066301425,1,0,0,1.3958,optionLeft,70,15440,7,28,0,28,0,1,,,,,,,,,,,,,,,,,,,,,,,,,,,,,,,,,,,,,,,
,,,,,,,,2023-08-16_08h44.47.727,HF_wild_card,2022.2.4,Linux x86_64,60.06006006,6146fae1e27a56034fdcb5c5,64d2fd46c836a06233681665,64dc7e5754e17fa3494411ea,,,,,,,ctch,resources/DP.BMP,resources/DG.BMP,Door3,0.179418008,-0.043010195,1,0,0,0.9978,optionRight,70,15510,7,29,0,29,0,1,,,,,,,,,,,,,,,,,,,,,,,,,,,,,,,,,,,,,,,
,,,,,,,,2023-08-16_08h44.47.727,HF_wild_card,2022.2.4,Linux x86_64,60.06006006,6146fae1e27a56034fdcb5c5,64d2fd46c836a06233681665,64dc7e5754e17fa3494411ea,,,,,,,decisionTrl,resources/DR.BMP,resources/DP.BMP,Door1,-0.157093922,-0.003328045,1,0,0,1.093,optionLeft,30,15540,7,30,0,30,0,1,,,,,,,,,,,,,,,,,,,,,,,,,,,,,,,,,,,,,,,
,,,,,,,,2023-08-16_08h44.47.727,HF_wild_card,2022.2.4,Linux x86_64,60.06006006,6146fae1e27a56034fdcb5c5,64d2fd46c836a06233681665,64dc7e5754e17fa3494411ea,,,,,,,ctch,resources/DR.BMP,resources/DBN.BMP,Door4,0.14810888,-0.038915873,1,0,0,0.8091,optionRight,60,15600,7,31,0,31,0,1,,,,,,,,,,,,,,,,,,,,,,,,,,,,,,,,,,,,,,,
,,,,,,,,2023-08-16_08h44.47.727,HF_wild_card,2022.2.4,Linux x86_64,60.06006006,6146fae1e27a56034fdcb5c5,64d2fd46c836a06233681665,64dc7e5754e17fa3494411ea,,,,,,,decisionTrl,resources/DP.BMP,resources/DR.BMP,Door1,0.237732569,-0.003140132,1,0,0,0.9851,optionRight,30,15630,7,32,0,32,0,1,,,,,,,,,,,,,,,,,,,,,,,,,,,,,,,,,,,,,,,
,,,,,,,,2023-08-16_08h44.47.727,HF_wild_card,2022.2.4,Linux x86_64,60.06006006,6146fae1e27a56034fdcb5c5,64d2fd46c836a06233681665,64dc7e5754e17fa3494411ea,,,,,,,ctch,resources/DP.BMP,resources/DG.BMP,Door3,0.287434657,-0.019961158,1,0,0,1.1371,optionRight,70,15700,7,33,0,33,0,1,,,,,,,,,,,,,,,,,,,,,,,,,,,,,,,,,,,,,,,
,,,,,,,,2023-08-16_08h44.47.727,HF_wild_card,2022.2.4,Linux x86_64,60.06006006,6146fae1e27a56034fdcb5c5,64d2fd46c836a06233681665,64dc7e5754e17fa3494411ea,,,,,,,ctch,resources/DG.BMP,resources/DP.BMP,Door3,-0.160545985,0.011473338,1,0,0,1.0777,optionLeft,70,15770,7,34,0,34,0,1,,,,,,,,,,,,,,,,,,,,,,,,,,,,,,,,,,,,,,,
,,,,,,,,2023-08-16_08h44.47.727,HF_wild_card,2022.2.4,Linux x86_64,60.06006006,6146fae1e27a56034fdcb5c5,64d2fd46c836a06233681665,64dc7e5754e17fa3494411ea,,,,,,,decisionTrl,resources/DBN.BMP,resources/DG.BMP,Door4,-0.280576905,0.004851937,1,0,0,0.9745,optionLeft,80,15850,7,35,0,35,0,1,,,,,,,,,,,,,,,,,,,,,,,,,,,,,,,,,,,,,,,
