Condition,Low fixed image (Door1),Low risky image (Door2),High fixed image (Door3),High risky image (Door4),Extreme Wild Card,NonExtreme Wild Card,,date,expName,psychopyVersion,OS,frameRate,PROLIFIC_PID,STUDY_ID,SESSION_ID,mouse_2.x,mouse_2.y,mouse_2.leftButton,mouse_2.midButton,mouse_2.rightButton,mouse_2.clicked_name,Trial Type,Left Option Image,Right Option Image,Chosen Door,mouse.x,mouse.y,mouse.leftButton,mouse.midButton,mouse.rightButton,mouse.time,mouse.clicked_name,Feedback,Cumulative Reward,Block,trial.thisRepN,trial.thisTrialN,trial.thisN,trial.thisIndex,trial.ran,blocks.thisRepN,blocks.thisTrialN,blocks.thisN,blocks.thisIndex,blocks.ran,Money conversion,First Outcome Reported,Shown Door (First Outcome),Displayed Image (First Outcome),outcomes.thisRepN,outcomes.thisTrialN,outcomes.thisN,outcomes.thisIndex,outcomes.ran,judgments.thisRepN,judgments.thisTrialN,judgments.thisN,judgments.thisIndex,judgments.ran,freqMouse.x,freqMouse.y,freqMouse.leftButton,freqMouse.midButton,freqMouse.rightButton,freqMouse.clicked_name,FQJ for first outcome,FQJ for second outcome,Shown Door,Displayed Image,trials.thisRepN,trials.thisTrialN,trials.thisN,trials.thisIndex,trials.ran,judgBlock.thisRepN,judgBlock.thisTrialN,judgBlock.thisN,judgBlock.thisIndex,judgBlock.ran
0,resources/DY.BMP,resources/DR.BMP,resources/DB.BMP,resources/DP.BMP,resources/DBN.BMP,resources/DG.BMP,,2023-08-16_08h27.11.339,HF_wild_card,2022.2.4,Win32,59.95203837,62a0e117625b3e346ccb377f,64d2fd46c836a06233681665,64dc7a4244bd2eb2c4e6c125,,,,,,,,,,,,,,,,,,,,,,,,,,,,,,,,,,,,,,,,,,,,,,,,,,,,,,,,,,,,,,,,
,,,,,,,,2023-08-16_08h27.11.339,HF_wild_card,2022.2.4,Win32,59.95203837,62a0e117625b3e346ccb377f,64d2fd46c836a06233681665,64dc7a4244bd2eb2c4e6c125,-0.029947917,-0.42578125,1,0,0,agree,,,,,,,,,,,,,,,,,,,,,,,,,,,,,,,,,,,,,,,,,,,,,,,,,,,,,,,,,,
,,,,,,,,2023-08-16_08h27.11.339,HF_wild_card,2022.2.4,Win32,59.95203837,62a0e117625b3e346ccb377f,64d2fd46c836a06233681665,64dc7a4244bd2eb2c4e6c125,,,,,,,,,,,,,,,,,,,,,,,,,,,,,,,,,,,,,,,,,,,,,,,,,,,,,,,,,,,,,,,,
,,,,,,,,2023-08-16_08h27.11.339,HF_wild_card,2022.2.4,Win32,59.95203837,62a0e117625b3e346ccb377f,64d2fd46c836a06233681665,64dc7a4244bd2eb2c4e6c125,,,,,,,ctch,resources/DP.BMP,resources/DY.BMP,Door4,-0.270833333,-0.201822917,1,0,0,2.7979,optionLeft,60,60,1,0,0,0,0,1,,,,,,,,,,,,,,,,,,,,,,,,,,,,,,,,,,,,,,,
,,,,,,,,2023-08-16_08h27.11.339,HF_wild_card,2022.2.4,Win32,59.95203837,62a0e117625b3e346ccb377f,64d2fd46c836a06233681665,64dc7a4244bd2eb2c4e6c125,,,,,,,decisionTrl,resources/DB.BMP,resources/DP.BMP,Door4,0.223958333,-0.134114583,1,0,0,4.4946,optionRight,60,120,1,1,0,1,0,1,,,,,,,,,,,,,,,,,,,,,,,,,,,,,,,,,,,,,,,
,,,,,,,,2023-08-16_08h27.11.339,HF_wild_card,2022.2.4,Win32,59.95203837,62a0e117625b3e346ccb377f,64d2fd46c836a06233681665,64dc7a4244bd2eb2c4e6c125,,,,,,,decisionTrl,resources/DBN.BMP,resources/DR.BMP,Door2,0.213541667,-0.053385417,1,0,0,2.9421,optionRight,40,160,1,2,0,2,0,1,,,,,,,,,,,,,,,,,,,,,,,,,,,,,,,,,,,,,,,
,,,,,,,,2023-08-16_08h27.11.339,HF_wild_card,2022.2.4,Win32,59.95203837,62a0e117625b3e346ccb377f,64d2fd46c836a06233681665,64dc7a4244bd2eb2c4e6c125,,,,,,,sngl,resources/DBN.BMP,resources/Empty.png,WildCard_Ex,-0.372395833,-0.045572917,1,0,0,1.9619,optionLeft,5,165,1,3,0,3,0,1,,,,,,,,,,,,,,,,,,,,,,,,,,,,,,,,,,,,,,,
,,,,,,,,2023-08-16_08h27.11.339,HF_wild_card,2022.2.4,Win32,59.95203837,62a0e117625b3e346ccb377f,64d2fd46c836a06233681665,64dc7a4244bd2eb2c4e6c125,,,,,,,sngl,resources/Empty.png,resources/DP.BMP,Door4,0.408854167,-0.045572917,1,0,0,1.2616,optionRight,60,225,1,4,0,4,0,1,,,,,,,,,,,,,,,,,,,,,,,,,,,,,,,,,,,,,,,
,,,,,,,,2023-08-16_08h27.11.339,HF_wild_card,2022.2.4,Win32,59.95203837,62a0e117625b3e346ccb377f,64d2fd46c836a06233681665,64dc7a4244bd2eb2c4e6c125,,,,,,,decisionTrl,resources/DY.BMP,resources/DBN.BMP,Door1,-0.325520833,-0.041666667,1,0,0,2.7114,optionLeft,30,255,1,5,0,5,0,1,,,,,,,,,,,,,,,,,,,,,,,,,,,,,,,,,,,,,,,
,,,,,,,,2023-08-16_08h27.11.339,HF_wild_card,2022.2.4,Win32,59.95203837,62a0e117625b3e346ccb377f,64d2fd46c836a06233681665,64dc7a4244bd2eb2c4e6c125,,,,,,,decisionTrl,resources/DP.BMP,resources/DBN.BMP,Door4,-0.444010417,-0.022135417,1,0,0,1.4626,optionLeft,80,335,1,6,0,6,0,1,,,,,,,,,,,,,,,,,,,,,,,,,,,,,,,,,,,,,,,
,,,,,,,,2023-08-16_08h27.11.339,HF_wild_card,2022.2.4,Win32,59.95203837,62a0e117625b3e346ccb377f,64d2fd46c836a06233681665,64dc7a4244bd2eb2c4e6c125,,,,,,,sngl,resources/Empty.png,resources/DB.BMP,Door3,0.368489583,0.010416667,1,0,0,1.6147,optionRight,70,405,1,7,0,7,0,1,,,,,,,,,,,,,,,,,,,,,,,,,,,,,,,,,,,,,,,
,,,,,,,,2023-08-16_08h27.11.339,HF_wild_card,2022.2.4,Win32,59.95203837,62a0e117625b3e346ccb377f,64d2fd46c836a06233681665,64dc7a4244bd2eb2c4e6c125,,,,,,,decisionTrl,resources/DY.BMP,resources/DR.BMP,Door1,-0.359375,-0.049479167,1,0,0,4.1455,optionLeft,30,435,1,8,0,8,0,1,,,,,,,,,,,,,,,,,,,,,,,,,,,,,,,,,,,,,,,
,,,,,,,,2023-08-16_08h27.11.339,HF_wild_card,2022.2.4,Win32,59.95203837,62a0e117625b3e346ccb377f,64d2fd46c836a06233681665,64dc7a4244bd2eb2c4e6c125,,,,,,,ctch,resources/DR.BMP,resources/DB.BMP,Door2,-0.46875,-0.080729167,1,0,0,2.112,optionLeft,20,455,1,9,0,9,0,1,,,,,,,,,,,,,,,,,,,,,,,,,,,,,,,,,,,,,,,
,,,,,,,,2023-08-16_08h27.11.339,HF_wild_card,2022.2.4,Win32,59.95203837,62a0e117625b3e346ccb377f,64d2fd46c836a06233681665,64dc7a4244bd2eb2c4e6c125,,,,,,,decisionTrl,resources/DR.BMP,resources/DBN.BMP,Door2,-0.276041667,-0.05078125,1,0,0,1.2946,optionLeft,40,495,1,10,0,10,0,1,,,,,,,,,,,,,,,,,,,,,,,,,,,,,,,,,,,,,,,
,,,,,,,,2023-08-16_08h27.11.339,HF_wild_card,2022.2.4,Win32,59.95203837,62a0e117625b3e346ccb377f,64d2fd46c836a06233681665,64dc7a4244bd2eb2c4e6c125,,,,,,,ctch,resources/DB.BMP,resources/DR.BMP,Door2,0.359375,-0.045572917,1,0,0,2.679,optionRight,40,535,1,11,0,11,0,1,,,,,,,,,,,,,,,,,,,,,,,,,,,,,,,,,,,,,,,
,,,,,,,,2023-08-16_08h27.11.339,HF_wild_card,2022.2.4,Win32,59.95203837,62a0e117625b3e346ccb377f,64d2fd46c836a06233681665,64dc7a4244bd2eb2c4e6c125,,,,,,,decisionTrl,resources/DR.BMP,resources/DY.BMP,Door2,-0.34765625,-0.119791667,1,0,0,2.8123,optionLeft,40,575,1,12,0,12,0,1,,,,,,,,,,,,,,,,,,,,,,,,,,,,,,,,,,,,,,,
,,,,,,,,2023-08-16_08h27.11.339,HF_wild_card,2022.2.4,Win32,59.95203837,62a0e117625b3e346ccb377f,64d2fd46c836a06233681665,64dc7a4244bd2eb2c4e6c125,,,,,,,decisionTrl,resources/DY.BMP,resources/DR.BMP,Door2,0.276041667,-0.0234375,1,0,0,1.8952,optionRight,40,615,1,13,0,13,0,1,,,,,,,,,,,,,,,,,,,,,,,,,,,,,,,,,,,,,,,
,,,,,,,,2023-08-16_08h27.11.339,HF_wild_card,2022.2.4,Win32,59.95203837,62a0e117625b3e346ccb377f,64d2fd46c836a06233681665,64dc7a4244bd2eb2c4e6c125,,,,,,,decisionTrl,resources/DB.BMP,resources/DP.BMP,Door4,0.380208333,-0.041666667,1,0,0,1.512,optionRight,80,695,1,14,0,14,0,1,,,,,,,,,,,,,,,,,,,,,,,,,,,,,,,,,,,,,,,
,,,,,,,,2023-08-16_08h27.11.339,HF_wild_card,2022.2.4,Win32,59.95203837,62a0e117625b3e346ccb377f,64d2fd46c836a06233681665,64dc7a4244bd2eb2c4e6c125,,,,,,,decisionTrl,resources/DBN.BMP,resources/DY.BMP,Door1,0.299479167,-0.032552083,1,0,0,1.4629,optionRight,30,725,1,15,0,15,0,1,,,,,,,,,,,,,,,,,,,,,,,,,,,,,,,,,,,,,,,
,,,,,,,,2023-08-16_08h27.11.339,HF_wild_card,2022.2.4,Win32,59.95203837,62a0e117625b3e346ccb377f,64d2fd46c836a06233681665,64dc7a4244bd2eb2c4e6c125,,,,,,,ctch,resources/DP.BMP,resources/DY.BMP,Door4,-0.4609375,-0.065104167,1,0,0,1.5789,optionLeft,80,805,1,16,0,16,0,1,,,,,,,,,,,,,,,,,,,,,,,,,,,,,,,,,,,,,,,
,,,,,,,,2023-08-16_08h27.11.339,HF_wild_card,2022.2.4,Win32,59.95203837,62a0e117625b3e346ccb377f,64d2fd46c836a06233681665,64dc7a4244bd2eb2c4e6c125,,,,,,,decisionTrl,resources/DP.BMP,resources/DB.BMP,Door4,-0.358072917,-0.059895833,1,0,0,2.6453,optionLeft,80,885,1,17,0,17,0,1,,,,,,,,,,,,,,,,,,,,,,,,,,,,,,,,,,,,,,,
,,,,,,,,2023-08-16_08h27.11.339,HF_wild_card,2022.2.4,Win32,59.95203837,62a0e117625b3e346ccb377f,64d2fd46c836a06233681665,64dc7a4244bd2eb2c4e6c125,,,,,,,decisionTrl,resources/DY.BMP,resources/DR.BMP,Door1,-0.274739583,-0.040364583,1,0,0,3.5122,optionLeft,30,915,1,18,0,18,0,1,,,,,,,,,,,,,,,,,,,,,,,,,,,,,,,,,,,,,,,
,,,,,,,,2023-08-16_08h27.11.339,HF_wild_card,2022.2.4,Win32,59.95203837,62a0e117625b3e346ccb377f,64d2fd46c836a06233681665,64dc7a4244bd2eb2c4e6c125,,,,,,,decisionTrl,resources/DR.BMP,resources/DY.BMP,Door2,-0.399739583,-0.02734375,1,0,0,1.3114,optionLeft,20,935,1,19,0,19,0,1,,,,,,,,,,,,,,,,,,,,,,,,,,,,,,,,,,,,,,,
,,,,,,,,2023-08-16_08h27.11.339,HF_wild_card,2022.2.4,Win32,59.95203837,62a0e117625b3e346ccb377f,64d2fd46c836a06233681665,64dc7a4244bd2eb2c4e6c125,,,,,,,sngl,resources/DBN.BMP,resources/Empty.png,WildCard_Ex,-0.450520833,-0.092447917,1,0,0,1.679,optionLeft,95,1030,1,20,0,20,0,1,,,,,,,,,,,,,,,,,,,,,,,,,,,,,,,,,,,,,,,
,,,,,,,,2023-08-16_08h27.11.339,HF_wild_card,2022.2.4,Win32,59.95203837,62a0e117625b3e346ccb377f,64d2fd46c836a06233681665,64dc7a4244bd2eb2c4e6c125,,,,,,,sngl,resources/DB.BMP,resources/Empty.png,Door3,-0.337239583,-0.03125,1,0,0,1.1783,optionLeft,70,1100,1,21,0,21,0,1,,,,,,,,,,,,,,,,,,,,,,,,,,,,,,,,,,,,,,,
,,,,,,,,2023-08-16_08h27.11.339,HF_wild_card,2022.2.4,Win32,59.95203837,62a0e117625b3e346ccb377f,64d2fd46c836a06233681665,64dc7a4244bd2eb2c4e6c125,,,,,,,sngl,resources/Empty.png,resources/DBN.BMP,WildCard_Ex,0.385416667,0.03125,1,0,0,1.4288,optionRight,95,1195,1,22,0,22,0,1,,,,,,,,,,,,,,,,,,,,,,,,,,,,,,,,,,,,,,,
,,,,,,,,2023-08-16_08h27.11.339,HF_wild_card,2022.2.4,Win32,59.95203837,62a0e117625b3e346ccb377f,64d2fd46c836a06233681665,64dc7a4244bd2eb2c4e6c125,,,,,,,decisionTrl,resources/DP.BMP,resources/DB.BMP,Door4,-0.3671875,-0.048177083,1,0,0,3.6006,optionLeft,80,1275,1,23,0,23,0,1,,,,,,,,,,,,,,,,,,,,,,,,,,,,,,,,,,,,,,,
,,,,,,,,2023-08-16_08h27.11.339,HF_wild_card,2022.2.4,Win32,59.95203837,62a0e117625b3e346ccb377f,64d2fd46c836a06233681665,64dc7a4244bd2eb2c4e6c125,,,,,,,decisionTrl,resources/DP.BMP,resources/DB.BMP,Door4,-0.446614583,-0.115885417,1,0,0,1.2647,optionLeft,60,1335,1,24,0,24,0,1,,,,,,,,,,,,,,,,,,,,,,,,,,,,,,,,,,,,,,,
,,,,,,,,2023-08-16_08h27.11.339,HF_wild_card,2022.2.4,Win32,59.95203837,62a0e117625b3e346ccb377f,64d2fd46c836a06233681665,64dc7a4244bd2eb2c4e6c125,,,,,,,decisionTrl,resources/DB.BMP,resources/DP.BMP,Door4,0.42578125,-0.03515625,1,0,0,1.3087,optionRight,80,1415,1,25,0,25,0,1,,,,,,,,,,,,,,,,,,,,,,,,,,,,,,,,,,,,,,,
,,,,,,,,2023-08-16_08h27.11.339,HF_wild_card,2022.2.4,Win32,59.95203837,62a0e117625b3e346ccb377f,64d2fd46c836a06233681665,64dc7a4244bd2eb2c4e6c125,,,,,,,sngl,resources/Empty.png,resources/DBN.BMP,WildCard_Ex,0.243489583,0.00390625,1,0,0,1.4632,optionRight,5,1420,1,26,0,26,0,1,,,,,,,,,,,,,,,,,,,,,,,,,,,,,,,,,,,,,,,
,,,,,,,,2023-08-16_08h27.11.339,HF_wild_card,2022.2.4,Win32,59.95203837,62a0e117625b3e346ccb377f,64d2fd46c836a06233681665,64dc7a4244bd2eb2c4e6c125,,,,,,,ctch,resources/DB.BMP,resources/DR.BMP,Door3,-0.333333333,0.037760417,1,0,0,3.6312,optionLeft,70,1490,1,27,0,27,0,1,,,,,,,,,,,,,,,,,,,,,,,,,,,,,,,,,,,,,,,
,,,,,,,,2023-08-16_08h27.11.339,HF_wild_card,2022.2.4,Win32,59.95203837,62a0e117625b3e346ccb377f,64d2fd46c836a06233681665,64dc7a4244bd2eb2c4e6c125,,,,,,,ctch,resources/DR.BMP,resources/DB.BMP,Door3,0.32421875,-0.0234375,1,0,0,1.1124,optionRight,70,1560,1,28,0,28,0,1,,,,,,,,,,,,,,,,,,,,,,,,,,,,,,,,,,,,,,,
,,,,,,,,2023-08-16_08h27.11.339,HF_wild_card,2022.2.4,Win32,59.95203837,62a0e117625b3e346ccb377f,64d2fd46c836a06233681665,64dc7a4244bd2eb2c4e6c125,,,,,,,decisionTrl,resources/DB.BMP,resources/DBN.BMP,Door3,-0.296875,-0.057291667,1,0,0,1.3614,optionLeft,70,1630,1,29,0,29,0,1,,,,,,,,,,,,,,,,,,,,,,,,,,,,,,,,,,,,,,,
,,,,,,,,2023-08-16_08h27.11.339,HF_wild_card,2022.2.4,Win32,59.95203837,62a0e117625b3e346ccb377f,64d2fd46c836a06233681665,64dc7a4244bd2eb2c4e6c125,,,,,,,decisionTrl,resources/DR.BMP,resources/DY.BMP,Door2,-0.502604167,-0.092447917,1,0,0,3.3977,optionLeft,40,1670,1,30,0,30,0,1,,,,,,,,,,,,,,,,,,,,,,,,,,,,,,,,,,,,,,,
,,,,,,,,2023-08-16_08h27.11.339,HF_wild_card,2022.2.4,Win32,59.95203837,62a0e117625b3e346ccb377f,64d2fd46c836a06233681665,64dc7a4244bd2eb2c4e6c125,,,,,,,decisionTrl,resources/DBN.BMP,resources/DP.BMP,Door4,0.25390625,-0.020833333,1,0,0,1.849,optionRight,80,1750,1,31,0,31,0,1,,,,,,,,,,,,,,,,,,,,,,,,,,,,,,,,,,,,,,,
,,,,,,,,2023-08-16_08h27.11.339,HF_wild_card,2022.2.4,Win32,59.95203837,62a0e117625b3e346ccb377f,64d2fd46c836a06233681665,64dc7a4244bd2eb2c4e6c125,,,,,,,sngl,resources/DR.BMP,resources/Empty.png,Door2,-0.282552083,-0.020833333,1,0,0,1.7953,optionLeft,40,1790,1,32,0,32,0,1,,,,,,,,,,,,,,,,,,,,,,,,,,,,,,,,,,,,,,,
,,,,,,,,2023-08-16_08h27.11.339,HF_wild_card,2022.2.4,Win32,59.95203837,62a0e117625b3e346ccb377f,64d2fd46c836a06233681665,64dc7a4244bd2eb2c4e6c125,,,,,,,sngl,resources/DY.BMP,resources/Empty.png,Door1,-0.236979167,-0.018229167,1,0,0,1.1606,optionLeft,30,1820,1,33,0,33,0,1,,,,,,,,,,,,,,,,,,,,,,,,,,,,,,,,,,,,,,,
,,,,,,,,2023-08-16_08h27.11.339,HF_wild_card,2022.2.4,Win32,59.95203837,62a0e117625b3e346ccb377f,64d2fd46c836a06233681665,64dc7a4244bd2eb2c4e6c125,,,,,,,decisionTrl,resources/DB.BMP,resources/DP.BMP,Door4,0.411458333,-0.041666667,1,0,0,2.9642,optionRight,60,1880,1,34,0,34,0,1,,,,,,,,,,,,,,,,,,,,,,,,,,,,,,,,,,,,,,,
,,,,,,,,2023-08-16_08h27.11.339,HF_wild_card,2022.2.4,Win32,59.95203837,62a0e117625b3e346ccb377f,64d2fd46c836a06233681665,64dc7a4244bd2eb2c4e6c125,,,,,,,sngl,resources/Empty.png,resources/DY.BMP,Door1,0.356770833,0.02734375,1,0,0,1.1976,optionRight,30,1910,1,35,0,35,0,1,,,,,,,,,,,,,,,,,,,,,,,,,,,,,,,,,,,,,,,
,,,,,,,,2023-08-16_08h27.11.339,HF_wild_card,2022.2.4,Win32,59.95203837,62a0e117625b3e346ccb377f,64d2fd46c836a06233681665,64dc7a4244bd2eb2c4e6c125,,,,,,,decisionTrl,resources/DBN.BMP,resources/DB.BMP,Door3,0.3125,-0.088541667,1,0,0,2.0449,optionRight,70,1980,1,36,0,36,0,1,,,,,,,,,,,,,,,,,,,,,,,,,,,,,,,,,,,,,,,
,,,,,,,,2023-08-16_08h27.11.339,HF_wild_card,2022.2.4,Win32,59.95203837,62a0e117625b3e346ccb377f,64d2fd46c836a06233681665,64dc7a4244bd2eb2c4e6c125,,,,,,,sngl,resources/Empty.png,resources/DR.BMP,Door2,0.276041667,-0.032552083,1,0,0,1.065,optionRight,20,2000,1,37,0,37,0,1,,,,,,,,,,,,,,,,,,,,,,,,,,,,,,,,,,,,,,,
,,,,,,,,2023-08-16_08h27.11.339,HF_wild_card,2022.2.4,Win32,59.95203837,62a0e117625b3e346ccb377f,64d2fd46c836a06233681665,64dc7a4244bd2eb2c4e6c125,,,,,,,decisionTrl,resources/DR.BMP,resources/DY.BMP,Door1,0.376302083,-0.041666667,1,0,0,1.3773,optionRight,30,2030,1,38,0,38,0,1,,,,,,,,,,,,,,,,,,,,,,,,,,,,,,,,,,,,,,,
,,,,,,,,2023-08-16_08h27.11.339,HF_wild_card,2022.2.4,Win32,59.95203837,62a0e117625b3e346ccb377f,64d2fd46c836a06233681665,64dc7a4244bd2eb2c4e6c125,,,,,,,sngl,resources/DP.BMP,resources/Empty.png,Door4,-0.264322917,0.015625,1,0,0,1.1291,optionLeft,80,2110,1,39,0,39,0,1,,,,,,,,,,,,,,,,,,,,,,,,,,,,,,,,,,,,,,,
,,,,,,,,2023-08-16_08h27.11.339,HF_wild_card,2022.2.4,Win32,59.95203837,62a0e117625b3e346ccb377f,64d2fd46c836a06233681665,64dc7a4244bd2eb2c4e6c125,,,,,,,decisionTrl,resources/DY.BMP,resources/DR.BMP,Door2,0.2734375,0.002604167,1,0,0,4.4534,optionRight,20,2130,1,40,0,40,0,1,,,,,,,,,,,,,,,,,,,,,,,,,,,,,,,,,,,,,,,
,,,,,,,,2023-08-16_08h27.11.339,HF_wild_card,2022.2.4,Win32,59.95203837,62a0e117625b3e346ccb377f,64d2fd46c836a06233681665,64dc7a4244bd2eb2c4e6c125,,,,,,,ctch,resources/DY.BMP,resources/DP.BMP,Door4,0.35546875,-0.01171875,1,0,0,2.5947,optionRight,80,2210,1,41,0,41,0,1,,,,,,,,,,,,,,,,,,,,,,,,,,,,,,,,,,,,,,,
,,,,,,,,2023-08-16_08h27.11.339,HF_wild_card,2022.2.4,Win32,59.95203837,62a0e117625b3e346ccb377f,64d2fd46c836a06233681665,64dc7a4244bd2eb2c4e6c125,,,,,,,ctch,resources/DY.BMP,resources/DP.BMP,Door4,0.38671875,-0.053385417,1,0,0,1.2442,optionRight,60,2270,1,42,0,42,0,1,,,,,,,,,,,,,,,,,,,,,,,,,,,,,,,,,,,,,,,
,,,,,,,,2023-08-16_08h27.11.339,HF_wild_card,2022.2.4,Win32,59.95203837,62a0e117625b3e346ccb377f,64d2fd46c836a06233681665,64dc7a4244bd2eb2c4e6c125,,,,,,,decisionTrl,resources/DP.BMP,resources/DB.BMP,Door3,0.36328125,-0.061197917,1,0,0,3.7953,optionRight,70,2340,1,43,0,43,0,1,,,,,,,,,,,,,,,,,,,,,,,,,,,,,,,,,,,,,,,
,,,,,,,,2023-08-16_08h27.11.339,HF_wild_card,2022.2.4,Win32,59.95203837,62a0e117625b3e346ccb377f,64d2fd46c836a06233681665,64dc7a4244bd2eb2c4e6c125,,,,,,,,,,,,,,,,,,,,,,,,,,0,0,0,0,1,,,,,,,,,,,,,,,,,,,,,,,,,,,,,,,,,,
,,,,,,,,2023-08-16_08h27.11.339,HF_wild_card,2022.2.4,Win32,59.95203837,62a0e117625b3e346ccb377f,64d2fd46c836a06233681665,64dc7a4244bd2eb2c4e6c125,,,,,,,decisionTrl,resources/DR.BMP,resources/DBN.BMP,Door2,-0.391927083,-0.134114583,1,0,0,1.5899,optionLeft,40,2380,2,0,0,0,0,1,,,,,,,,,,,,,,,,,,,,,,,,,,,,,,,,,,,,,,,
,,,,,,,,2023-08-16_08h27.11.339,HF_wild_card,2022.2.4,Win32,59.95203837,62a0e117625b3e346ccb377f,64d2fd46c836a06233681665,64dc7a4244bd2eb2c4e6c125,,,,,,,sngl,resources/DBN.BMP,resources/Empty.png,WildCard_Ex,-0.390625,-0.029947917,1,0,0,1.0822,optionLeft,95,2475,2,1,0,1,0,1,,,,,,,,,,,,,,,,,,,,,,,,,,,,,,,,,,,,,,,
,,,,,,,,2023-08-16_08h27.11.339,HF_wild_card,2022.2.4,Win32,59.95203837,62a0e117625b3e346ccb377f,64d2fd46c836a06233681665,64dc7a4244bd2eb2c4e6c125,,,,,,,sngl,resources/DP.BMP,resources/Empty.png,Door4,-0.424479167,-0.040364583,1,0,0,1.0623,optionLeft,60,2535,2,2,0,2,0,1,,,,,,,,,,,,,,,,,,,,,,,,,,,,,,,,,,,,,,,
,,,,,,,,2023-08-16_08h27.11.339,HF_wild_card,2022.2.4,Win32,59.95203837,62a0e117625b3e346ccb377f,64d2fd46c836a06233681665,64dc7a4244bd2eb2c4e6c125,,,,,,,decisionTrl,resources/DY.BMP,resources/DBN.BMP,WildCard_Ex,0.444010417,-0.010416667,1,0,0,0.9955,optionRight,5,2540,2,3,0,3,0,1,,,,,,,,,,,,,,,,,,,,,,,,,,,,,,,,,,,,,,,
,,,,,,,,2023-08-16_08h27.11.339,HF_wild_card,2022.2.4,Win32,59.95203837,62a0e117625b3e346ccb377f,64d2fd46c836a06233681665,64dc7a4244bd2eb2c4e6c125,,,,,,,decisionTrl,resources/DR.BMP,resources/DY.BMP,Door2,-0.3515625,-0.041666667,1,0,0,1.7786,optionLeft,40,2580,2,4,0,4,0,1,,,,,,,,,,,,,,,,,,,,,,,,,,,,,,,,,,,,,,,
,,,,,,,,2023-08-16_08h27.11.339,HF_wild_card,2022.2.4,Win32,59.95203837,62a0e117625b3e346ccb377f,64d2fd46c836a06233681665,64dc7a4244bd2eb2c4e6c125,,,,,,,decisionTrl,resources/DBN.BMP,resources/DR.BMP,WildCard_Ex,-0.31640625,-0.013020833,1,0,0,1.0288,optionLeft,95,2675,2,5,0,5,0,1,,,,,,,,,,,,,,,,,,,,,,,,,,,,,,,,,,,,,,,
,,,,,,,,2023-08-16_08h27.11.339,HF_wild_card,2022.2.4,Win32,59.95203837,62a0e117625b3e346ccb377f,64d2fd46c836a06233681665,64dc7a4244bd2eb2c4e6c125,,,,,,,decisionTrl,resources/DB.BMP,resources/DP.BMP,Door3,-0.376302083,-0.0625,1,0,0,1.779,optionLeft,70,2745,2,6,0,6,0,1,,,,,,,,,,,,,,,,,,,,,,,,,,,,,,,,,,,,,,,
,,,,,,,,2023-08-16_08h27.11.339,HF_wild_card,2022.2.4,Win32,59.95203837,62a0e117625b3e346ccb377f,64d2fd46c836a06233681665,64dc7a4244bd2eb2c4e6c125,,,,,,,decisionTrl,resources/DBN.BMP,resources/DB.BMP,WildCard_Ex,-0.3515625,-0.015625,1,0,0,1.6118,optionLeft,5,2750,2,7,0,7,0,1,,,,,,,,,,,,,,,,,,,,,,,,,,,,,,,,,,,,,,,
,,,,,,,,2023-08-16_08h27.11.339,HF_wild_card,2022.2.4,Win32,59.95203837,62a0e117625b3e346ccb377f,64d2fd46c836a06233681665,64dc7a4244bd2eb2c4e6c125,,,,,,,decisionTrl,resources/DY.BMP,resources/DR.BMP,Door2,0.326822917,0.016927083,1,0,0,1.9612,optionRight,40,2790,2,8,0,8,0,1,,,,,,,,,,,,,,,,,,,,,,,,,,,,,,,,,,,,,,,
,,,,,,,,2023-08-16_08h27.11.339,HF_wild_card,2022.2.4,Win32,59.95203837,62a0e117625b3e346ccb377f,64d2fd46c836a06233681665,64dc7a4244bd2eb2c4e6c125,,,,,,,ctch,resources/DY.BMP,resources/DP.BMP,Door4,0.203125,-0.016927083,1,0,0,1.5771,optionRight,80,2870,2,9,0,9,0,1,,,,,,,,,,,,,,,,,,,,,,,,,,,,,,,,,,,,,,,
,,,,,,,,2023-08-16_08h27.11.339,HF_wild_card,2022.2.4,Win32,59.95203837,62a0e117625b3e346ccb377f,64d2fd46c836a06233681665,64dc7a4244bd2eb2c4e6c125,,,,,,,ctch,resources/DY.BMP,resources/DP.BMP,Door4,0.294270833,-0.03125,1,0,0,1.4293,optionRight,80,2950,2,10,0,10,0,1,,,,,,,,,,,,,,,,,,,,,,,,,,,,,,,,,,,,,,,
,,,,,,,,2023-08-16_08h27.11.339,HF_wild_card,2022.2.4,Win32,59.95203837,62a0e117625b3e346ccb377f,64d2fd46c836a06233681665,64dc7a4244bd2eb2c4e6c125,,,,,,,decisionTrl,resources/DP.BMP,resources/DB.BMP,Door4,-0.3359375,-0.048177083,1,0,0,1.1123,optionLeft,80,3030,2,11,0,11,0,1,,,,,,,,,,,,,,,,,,,,,,,,,,,,,,,,,,,,,,,
,,,,,,,,2023-08-16_08h27.11.339,HF_wild_card,2022.2.4,Win32,59.95203837,62a0e117625b3e346ccb377f,64d2fd46c836a06233681665,64dc7a4244bd2eb2c4e6c125,,,,,,,decisionTrl,resources/DB.BMP,resources/DP.BMP,Door3,-0.291666667,-0.055989583,1,0,0,2.4624,optionLeft,70,3100,2,12,0,12,0,1,,,,,,,,,,,,,,,,,,,,,,,,,,,,,,,,,,,,,,,
,,,,,,,,2023-08-16_08h27.11.339,HF_wild_card,2022.2.4,Win32,59.95203837,62a0e117625b3e346ccb377f,64d2fd46c836a06233681665,64dc7a4244bd2eb2c4e6c125,,,,,,,decisionTrl,resources/DBN.BMP,resources/DY.BMP,WildCard_Ex,-0.31640625,-0.046875,1,0,0,1.2446,optionLeft,5,3105,2,13,0,13,0,1,,,,,,,,,,,,,,,,,,,,,,,,,,,,,,,,,,,,,,,
,,,,,,,,2023-08-16_08h27.11.339,HF_wild_card,2022.2.4,Win32,59.95203837,62a0e117625b3e346ccb377f,64d2fd46c836a06233681665,64dc7a4244bd2eb2c4e6c125,,,,,,,decisionTrl,resources/DR.BMP,resources/DY.BMP,Door1,0.43359375,0.04296875,1,0,0,4.5946,optionRight,30,3135,2,14,0,14,0,1,,,,,,,,,,,,,,,,,,,,,,,,,,,,,,,,,,,,,,,
,,,,,,,,2023-08-16_08h27.11.339,HF_wild_card,2022.2.4,Win32,59.95203837,62a0e117625b3e346ccb377f,64d2fd46c836a06233681665,64dc7a4244bd2eb2c4e6c125,,,,,,,decisionTrl,resources/DP.BMP,resources/DBN.BMP,WildCard_Ex,0.217447917,0.006510417,1,0,0,1.2814,optionRight,5,3140,2,15,0,15,0,1,,,,,,,,,,,,,,,,,,,,,,,,,,,,,,,,,,,,,,,
,,,,,,,,2023-08-16_08h27.11.339,HF_wild_card,2022.2.4,Win32,59.95203837,62a0e117625b3e346ccb377f,64d2fd46c836a06233681665,64dc7a4244bd2eb2c4e6c125,,,,,,,sngl,resources/Empty.png,resources/DY.BMP,Door1,0.26171875,-0.016927083,1,0,0,1.0619,optionRight,30,3170,2,16,0,16,0,1,,,,,,,,,,,,,,,,,,,,,,,,,,,,,,,,,,,,,,,
,,,,,,,,2023-08-16_08h27.11.339,HF_wild_card,2022.2.4,Win32,59.95203837,62a0e117625b3e346ccb377f,64d2fd46c836a06233681665,64dc7a4244bd2eb2c4e6c125,,,,,,,sngl,resources/DB.BMP,resources/Empty.png,Door3,-0.3828125,-0.0625,1,0,0,0.8611,optionLeft,70,3240,2,17,0,17,0,1,,,,,,,,,,,,,,,,,,,,,,,,,,,,,,,,,,,,,,,
,,,,,,,,2023-08-16_08h27.11.339,HF_wild_card,2022.2.4,Win32,59.95203837,62a0e117625b3e346ccb377f,64d2fd46c836a06233681665,64dc7a4244bd2eb2c4e6c125,,,,,,,decisionTrl,resources/DB.BMP,resources/DP.BMP,Door4,0.274739583,-0.00390625,1,0,0,2.5616,optionRight,60,3300,2,18,0,18,0,1,,,,,,,,,,,,,,,,,,,,,,,,,,,,,,,,,,,,,,,
,,,,,,,,2023-08-16_08h27.11.339,HF_wild_card,2022.2.4,Win32,59.95203837,62a0e117625b3e346ccb377f,64d2fd46c836a06233681665,64dc7a4244bd2eb2c4e6c125,,,,,,,ctch,resources/DR.BMP,resources/DB.BMP,Door3,0.22265625,0.0078125,1,0,0,1.4455,optionRight,70,3370,2,19,0,19,0,1,,,,,,,,,,,,,,,,,,,,,,,,,,,,,,,,,,,,,,,
,,,,,,,,2023-08-16_08h27.11.339,HF_wild_card,2022.2.4,Win32,59.95203837,62a0e117625b3e346ccb377f,64d2fd46c836a06233681665,64dc7a4244bd2eb2c4e6c125,,,,,,,decisionTrl,resources/DR.BMP,resources/DY.BMP,Door2,-0.2734375,-0.015625,1,0,0,2.4294,optionLeft,20,3390,2,20,0,20,0,1,,,,,,,,,,,,,,,,,,,,,,,,,,,,,,,,,,,,,,,
,,,,,,,,2023-08-16_08h27.11.339,HF_wild_card,2022.2.4,Win32,59.95203837,62a0e117625b3e346ccb377f,64d2fd46c836a06233681665,64dc7a4244bd2eb2c4e6c125,,,,,,,sngl,resources/DY.BMP,resources/Empty.png,Door1,-0.286458333,-0.002604167,1,0,0,0.9782,optionLeft,30,3420,2,21,0,21,0,1,,,,,,,,,,,,,,,,,,,,,,,,,,,,,,,,,,,,,,,
,,,,,,,,2023-08-16_08h27.11.339,HF_wild_card,2022.2.4,Win32,59.95203837,62a0e117625b3e346ccb377f,64d2fd46c836a06233681665,64dc7a4244bd2eb2c4e6c125,,,,,,,decisionTrl,resources/DB.BMP,resources/DP.BMP,Door4,0.229166667,0.006510417,1,0,0,2.8776,optionRight,80,3500,2,22,0,22,0,1,,,,,,,,,,,,,,,,,,,,,,,,,,,,,,,,,,,,,,,
,,,,,,,,2023-08-16_08h27.11.339,HF_wild_card,2022.2.4,Win32,59.95203837,62a0e117625b3e346ccb377f,64d2fd46c836a06233681665,64dc7a4244bd2eb2c4e6c125,,,,,,,sngl,resources/DR.BMP,resources/Empty.png,Door2,-0.381510417,-0.065104167,1,0,0,1.0789,optionLeft,20,3520,2,23,0,23,0,1,,,,,,,,,,,,,,,,,,,,,,,,,,,,,,,,,,,,,,,
,,,,,,,,2023-08-16_08h27.11.339,HF_wild_card,2022.2.4,Win32,59.95203837,62a0e117625b3e346ccb377f,64d2fd46c836a06233681665,64dc7a4244bd2eb2c4e6c125,,,,,,,sngl,resources/DBN.BMP,resources/Empty.png,WildCard_Ex,-0.32421875,-0.076822917,1,0,0,1.0784,optionLeft,5,3525,2,24,0,24,0,1,,,,,,,,,,,,,,,,,,,,,,,,,,,,,,,,,,,,,,,
,,,,,,,,2023-08-16_08h27.11.339,HF_wild_card,2022.2.4,Win32,59.95203837,62a0e117625b3e346ccb377f,64d2fd46c836a06233681665,64dc7a4244bd2eb2c4e6c125,,,,,,,decisionTrl,resources/DBN.BMP,resources/DP.BMP,Door4,0.412760417,-0.109375,1,0,0,1.529,optionRight,80,3605,2,25,0,25,0,1,,,,,,,,,,,,,,,,,,,,,,,,,,,,,,,,,,,,,,,
,,,,,,,,2023-08-16_08h27.11.339,HF_wild_card,2022.2.4,Win32,59.95203837,62a0e117625b3e346ccb377f,64d2fd46c836a06233681665,64dc7a4244bd2eb2c4e6c125,,,,,,,decisionTrl,resources/DR.BMP,resources/DY.BMP,Door1,0.348958333,-0.067708333,1,0,0,2.1444,optionRight,30,3635,2,26,0,26,0,1,,,,,,,,,,,,,,,,,,,,,,,,,,,,,,,,,,,,,,,
,,,,,,,,2023-08-16_08h27.11.339,HF_wild_card,2022.2.4,Win32,59.95203837,62a0e117625b3e346ccb377f,64d2fd46c836a06233681665,64dc7a4244bd2eb2c4e6c125,,,,,,,decisionTrl,resources/DP.BMP,resources/DB.BMP,Door4,-0.388020833,-0.069010417,1,0,0,1.2633,optionLeft,80,3715,2,27,0,27,0,1,,,,,,,,,,,,,,,,,,,,,,,,,,,,,,,,,,,,,,,
,,,,,,,,2023-08-16_08h27.11.339,HF_wild_card,2022.2.4,Win32,59.95203837,62a0e117625b3e346ccb377f,64d2fd46c836a06233681665,64dc7a4244bd2eb2c4e6c125,,,,,,,decisionTrl,resources/DB.BMP,resources/DBN.BMP,Door3,-0.166666667,-0.10546875,1,0,0,2.6284,optionLeft,70,3785,2,28,0,28,0,1,,,,,,,,,,,,,,,,,,,,,,,,,,,,,,,,,,,,,,,
,,,,,,,,2023-08-16_08h27.11.339,HF_wild_card,2022.2.4,Win32,59.95203837,62a0e117625b3e346ccb377f,64d2fd46c836a06233681665,64dc7a4244bd2eb2c4e6c125,,,,,,,ctch,resources/DP.BMP,resources/DY.BMP,Door4,-0.397135417,-0.110677083,1,0,0,1.0609,optionLeft,80,3865,2,29,0,29,0,1,,,,,,,,,,,,,,,,,,,,,,,,,,,,,,,,,,,,,,,
,,,,,,,,2023-08-16_08h27.11.339,HF_wild_card,2022.2.4,Win32,59.95203837,62a0e117625b3e346ccb377f,64d2fd46c836a06233681665,64dc7a4244bd2eb2c4e6c125,,,,,,,sngl,resources/Empty.png,resources/DB.BMP,Door3,0.2734375,-0.001302083,1,0,0,0.9599,optionRight,70,3935,2,30,0,30,0,1,,,,,,,,,,,,,,,,,,,,,,,,,,,,,,,,,,,,,,,
,,,,,,,,2023-08-16_08h27.11.339,HF_wild_card,2022.2.4,Win32,59.95203837,62a0e117625b3e346ccb377f,64d2fd46c836a06233681665,64dc7a4244bd2eb2c4e6c125,,,,,,,sngl,resources/Empty.png,resources/DP.BMP,Door4,0.309895833,0.014322917,1,0,0,0.9574,optionRight,80,4015,2,31,0,31,0,1,,,,,,,,,,,,,,,,,,,,,,,,,,,,,,,,,,,,,,,
,,,,,,,,2023-08-16_08h27.11.339,HF_wild_card,2022.2.4,Win32,59.95203837,62a0e117625b3e346ccb377f,64d2fd46c836a06233681665,64dc7a4244bd2eb2c4e6c125,,,,,,,ctch,resources/DR.BMP,resources/DB.BMP,Door3,0.322916667,-0.02734375,1,0,0,1.7577,optionRight,70,4085,2,32,0,32,0,1,,,,,,,,,,,,,,,,,,,,,,,,,,,,,,,,,,,,,,,
,,,,,,,,2023-08-16_08h27.11.339,HF_wild_card,2022.2.4,Win32,59.95203837,62a0e117625b3e346ccb377f,64d2fd46c836a06233681665,64dc7a4244bd2eb2c4e6c125,,,,,,,decisionTrl,resources/DY.BMP,resources/DR.BMP,Door1,-0.256510417,-0.075520833,1,0,0,3.5286,optionLeft,30,4115,2,33,0,33,0,1,,,,,,,,,,,,,,,,,,,,,,,,,,,,,,,,,,,,,,,
,,,,,,,,2023-08-16_08h27.11.339,HF_wild_card,2022.2.4,Win32,59.95203837,62a0e117625b3e346ccb377f,64d2fd46c836a06233681665,64dc7a4244bd2eb2c4e6c125,,,,,,,ctch,resources/DB.BMP,resources/DR.BMP,Door3,-0.217447917,-0.048177083,1,0,0,1.3453,optionLeft,70,4185,2,34,0,34,0,1,,,,,,,,,,,,,,,,,,,,,,,,,,,,,,,,,,,,,,,
,,,,,,,,2023-08-16_08h27.11.339,HF_wild_card,2022.2.4,Win32,59.95203837,62a0e117625b3e346ccb377f,64d2fd46c836a06233681665,64dc7a4244bd2eb2c4e6c125,,,,,,,decisionTrl,resources/DP.BMP,resources/DB.BMP,Door4,-0.377604167,-0.110677083,1,0,0,1.0955,optionLeft,60,4245,2,35,0,35,0,1,,,,,,,,,,,,,,,,,,,,,,,,,,,,,,,,,,,,,,,
,,,,,,,,2023-08-16_08h27.11.339,HF_wild_card,2022.2.4,Win32,59.95203837,62a0e117625b3e346ccb377f,64d2fd46c836a06233681665,64dc7a4244bd2eb2c4e6c125,,,,,,,decisionTrl,resources/DY.BMP,resources/DR.BMP,Door2,0.352864583,-0.044270833,1,0,0,2.5122,optionRight,20,4265,2,36,0,36,0,1,,,,,,,,,,,,,,,,,,,,,,,,,,,,,,,,,,,,,,,
,,,,,,,,2023-08-16_08h27.11.339,HF_wild_card,2022.2.4,Win32,59.95203837,62a0e117625b3e346ccb377f,64d2fd46c836a06233681665,64dc7a4244bd2eb2c4e6c125,,,,,,,decisionTrl,resources/DP.BMP,resources/DB.BMP,Door4,-0.296875,-0.075520833,1,0,0,1.2124,optionLeft,60,4325,2,37,0,37,0,1,,,,,,,,,,,,,,,,,,,,,,,,,,,,,,,,,,,,,,,
,,,,,,,,2023-08-16_08h27.11.339,HF_wild_card,2022.2.4,Win32,59.95203837,62a0e117625b3e346ccb377f,64d2fd46c836a06233681665,64dc7a4244bd2eb2c4e6c125,,,,,,,ctch,resources/DB.BMP,resources/DR.BMP,Door3,-0.3359375,-0.061197917,1,0,0,1.0327,optionLeft,70,4395,2,38,0,38,0,1,,,,,,,,,,,,,,,,,,,,,,,,,,,,,,,,,,,,,,,
,,,,,,,,2023-08-16_08h27.11.339,HF_wild_card,2022.2.4,Win32,59.95203837,62a0e117625b3e346ccb377f,64d2fd46c836a06233681665,64dc7a4244bd2eb2c4e6c125,,,,,,,sngl,resources/Empty.png,resources/DBN.BMP,WildCard_Ex,0.231770833,0.014322917,1,0,0,1.0442,optionRight,95,4490,2,39,0,39,0,1,,,,,,,,,,,,,,,,,,,,,,,,,,,,,,,,,,,,,,,
,,,,,,,,2023-08-16_08h27.11.339,HF_wild_card,2022.2.4,Win32,59.95203837,62a0e117625b3e346ccb377f,64d2fd46c836a06233681665,64dc7a4244bd2eb2c4e6c125,,,,,,,sngl,resources/Empty.png,resources/DR.BMP,Door2,0.325520833,-0.0078125,1,0,0,1.0622,optionRight,40,4530,2,40,0,40,0,1,,,,,,,,,,,,,,,,,,,,,,,,,,,,,,,,,,,,,,,
,,,,,,,,2023-08-16_08h27.11.339,HF_wild_card,2022.2.4,Win32,59.95203837,62a0e117625b3e346ccb377f,64d2fd46c836a06233681665,64dc7a4244bd2eb2c4e6c125,,,,,,,decisionTrl,resources/DY.BMP,resources/DR.BMP,Door2,0.255208333,-0.018229167,1,0,0,1.3656,optionRight,20,4550,2,41,0,41,0,1,,,,,,,,,,,,,,,,,,,,,,,,,,,,,,,,,,,,,,,
,,,,,,,,2023-08-16_08h27.11.339,HF_wild_card,2022.2.4,Win32,59.95203837,62a0e117625b3e346ccb377f,64d2fd46c836a06233681665,64dc7a4244bd2eb2c4e6c125,,,,,,,ctch,resources/DP.BMP,resources/DY.BMP,Door4,-0.3125,-0.024739583,1,0,0,1.1455,optionLeft,60,4610,2,42,0,42,0,1,,,,,,,,,,,,,,,,,,,,,,,,,,,,,,,,,,,,,,,
,,,,,,,,2023-08-16_08h27.11.339,HF_wild_card,2022.2.4,Win32,59.95203837,62a0e117625b3e346ccb377f,64d2fd46c836a06233681665,64dc7a4244bd2eb2c4e6c125,,,,,,,sngl,resources/Empty.png,resources/DBN.BMP,WildCard_Ex,0.25390625,0.022135417,1,0,0,0.929,optionRight,5,4615,2,43,0,43,0,1,,,,,,,,,,,,,,,,,,,,,,,,,,,,,,,,,,,,,,,
,,,,,,,,2023-08-16_08h27.11.339,HF_wild_card,2022.2.4,Win32,59.95203837,62a0e117625b3e346ccb377f,64d2fd46c836a06233681665,64dc7a4244bd2eb2c4e6c125,,,,,,,,,,,,,,,,,,,,,,,,,,1,0,1,0,1,,,,,,,,,,,,,,,,,,,,,,,,,,,,,,,,,,
,,,,,,,,2023-08-16_08h27.11.339,HF_wild_card,2022.2.4,Win32,59.95203837,62a0e117625b3e346ccb377f,64d2fd46c836a06233681665,64dc7a4244bd2eb2c4e6c125,,,,,,,decisionTrl,resources/DB.BMP,resources/DP.BMP,Door4,0.43359375,-0.138020833,1,0,0,1.4306,optionRight,80,4695,3,0,0,0,0,1,,,,,,,,,,,,,,,,,,,,,,,,,,,,,,,,,,,,,,,
,,,,,,,,2023-08-16_08h27.11.339,HF_wild_card,2022.2.4,Win32,59.95203837,62a0e117625b3e346ccb377f,64d2fd46c836a06233681665,64dc7a4244bd2eb2c4e6c125,,,,,,,decisionTrl,resources/DR.BMP,resources/DY.BMP,Door1,0.4765625,-0.055989583,1,0,0,2.1105,optionRight,30,4725,3,1,0,1,0,1,,,,,,,,,,,,,,,,,,,,,,,,,,,,,,,,,,,,,,,
,,,,,,,,2023-08-16_08h27.11.339,HF_wild_card,2022.2.4,Win32,59.95203837,62a0e117625b3e346ccb377f,64d2fd46c836a06233681665,64dc7a4244bd2eb2c4e6c125,,,,,,,ctch,resources/DP.BMP,resources/DY.BMP,Door4,-0.43359375,-0.059895833,1,0,0,1.1276,optionLeft,60,4785,3,2,0,2,0,1,,,,,,,,,,,,,,,,,,,,,,,,,,,,,,,,,,,,,,,
,,,,,,,,2023-08-16_08h27.11.339,HF_wild_card,2022.2.4,Win32,59.95203837,62a0e117625b3e346ccb377f,64d2fd46c836a06233681665,64dc7a4244bd2eb2c4e6c125,,,,,,,decisionTrl,resources/DR.BMP,resources/DY.BMP,Door1,0.317708333,-0.03125,1,0,0,2.9128,optionRight,30,4815,3,3,0,3,0,1,,,,,,,,,,,,,,,,,,,,,,,,,,,,,,,,,,,,,,,
,,,,,,,,2023-08-16_08h27.11.339,HF_wild_card,2022.2.4,Win32,59.95203837,62a0e117625b3e346ccb377f,64d2fd46c836a06233681665,64dc7a4244bd2eb2c4e6c125,,,,,,,ctch,resources/DY.BMP,resources/DP.BMP,Door4,0.264322917,-0.009114583,1,0,0,1.1623,optionRight,60,4875,3,4,0,4,0,1,,,,,,,,,,,,,,,,,,,,,,,,,,,,,,,,,,,,,,,
,,,,,,,,2023-08-16_08h27.11.339,HF_wild_card,2022.2.4,Win32,59.95203837,62a0e117625b3e346ccb377f,64d2fd46c836a06233681665,64dc7a4244bd2eb2c4e6c125,,,,,,,sngl,resources/DBN.BMP,resources/Empty.png,WildCard_Ex,-0.32421875,0.002604167,1,0,0,1.0348,optionLeft,95,4970,3,5,0,5,0,1,,,,,,,,,,,,,,,,,,,,,,,,,,,,,,,,,,,,,,,
,,,,,,,,2023-08-16_08h27.11.339,HF_wild_card,2022.2.4,Win32,59.95203837,62a0e117625b3e346ccb377f,64d2fd46c836a06233681665,64dc7a4244bd2eb2c4e6c125,,,,,,,decisionTrl,resources/DY.BMP,resources/DBN.BMP,WildCard_Ex,0.274739583,-0.014322917,1,0,0,1.4791,optionRight,5,4975,3,6,0,6,0,1,,,,,,,,,,,,,,,,,,,,,,,,,,,,,,,,,,,,,,,
,,,,,,,,2023-08-16_08h27.11.339,HF_wild_card,2022.2.4,Win32,59.95203837,62a0e117625b3e346ccb377f,64d2fd46c836a06233681665,64dc7a4244bd2eb2c4e6c125,,,,,,,decisionTrl,resources/DB.BMP,resources/DP.BMP,Door3,-0.291666667,-0.096354167,1,0,0,3.062,optionLeft,70,5045,3,7,0,7,0,1,,,,,,,,,,,,,,,,,,,,,,,,,,,,,,,,,,,,,,,
,,,,,,,,2023-08-16_08h27.11.339,HF_wild_card,2022.2.4,Win32,59.95203837,62a0e117625b3e346ccb377f,64d2fd46c836a06233681665,64dc7a4244bd2eb2c4e6c125,,,,,,,ctch,resources/DR.BMP,resources/DB.BMP,Door3,0.32421875,-0.046875,1,0,0,1.5625,optionRight,70,5115,3,8,0,8,0,1,,,,,,,,,,,,,,,,,,,,,,,,,,,,,,,,,,,,,,,
,,,,,,,,2023-08-16_08h27.11.339,HF_wild_card,2022.2.4,Win32,59.95203837,62a0e117625b3e346ccb377f,64d2fd46c836a06233681665,64dc7a4244bd2eb2c4e6c125,,,,,,,sngl,resources/DB.BMP,resources/Empty.png,Door3,-0.360677083,-0.087239583,1,0,0,0.9624,optionLeft,70,5185,3,9,0,9,0,1,,,,,,,,,,,,,,,,,,,,,,,,,,,,,,,,,,,,,,,
,,,,,,,,2023-08-16_08h27.11.339,HF_wild_card,2022.2.4,Win32,59.95203837,62a0e117625b3e346ccb377f,64d2fd46c836a06233681665,64dc7a4244bd2eb2c4e6c125,,,,,,,decisionTrl,resources/DBN.BMP,resources/DR.BMP,WildCard_Ex,-0.31640625,-0.075520833,1,0,0,1.9287,optionLeft,95,5280,3,10,0,10,0,1,,,,,,,,,,,,,,,,,,,,,,,,,,,,,,,,,,,,,,,
,,,,,,,,2023-08-16_08h27.11.339,HF_wild_card,2022.2.4,Win32,59.95203837,62a0e117625b3e346ccb377f,64d2fd46c836a06233681665,64dc7a4244bd2eb2c4e6c125,,,,,,,sngl,resources/DY.BMP,resources/Empty.png,Door1,-0.295572917,-0.03515625,1,0,0,3.5124,optionLeft,30,5310,3,11,0,11,0,1,,,,,,,,,,,,,,,,,,,,,,,,,,,,,,,,,,,,,,,
,,,,,,,,2023-08-16_08h27.11.339,HF_wild_card,2022.2.4,Win32,59.95203837,62a0e117625b3e346ccb377f,64d2fd46c836a06233681665,64dc7a4244bd2eb2c4e6c125,,,,,,,sngl,resources/Empty.png,resources/DB.BMP,Door3,0.352864583,0.028645833,1,0,0,0.9958,optionRight,70,5380,3,12,0,12,0,1,,,,,,,,,,,,,,,,,,,,,,,,,,,,,,,,,,,,,,,
,,,,,,,,2023-08-16_08h27.11.339,HF_wild_card,2022.2.4,Win32,59.95203837,62a0e117625b3e346ccb377f,64d2fd46c836a06233681665,64dc7a4244bd2eb2c4e6c125,,,,,,,decisionTrl,resources/DBN.BMP,resources/DB.BMP,WildCard_Ex,-0.274739583,-0.05078125,1,0,0,2.3123,optionLeft,95,5475,3,13,0,13,0,1,,,,,,,,,,,,,,,,,,,,,,,,,,,,,,,,,,,,,,,
,,,,,,,,2023-08-16_08h27.11.339,HF_wild_card,2022.2.4,Win32,59.95203837,62a0e117625b3e346ccb377f,64d2fd46c836a06233681665,64dc7a4244bd2eb2c4e6c125,,,,,,,decisionTrl,resources/DY.BMP,resources/DR.BMP,Door1,-0.279947917,-0.02734375,1,0,0,4.1295,optionLeft,30,5505,3,14,0,14,0,1,,,,,,,,,,,,,,,,,,,,,,,,,,,,,,,,,,,,,,,
,,,,,,,,2023-08-16_08h27.11.339,HF_wild_card,2022.2.4,Win32,59.95203837,62a0e117625b3e346ccb377f,64d2fd46c836a06233681665,64dc7a4244bd2eb2c4e6c125,,,,,,,decisionTrl,resources/DR.BMP,resources/DBN.BMP,WildCard_Ex,0.453125,-0.088541667,1,0,0,3.9789,optionRight,5,5510,3,15,0,15,0,1,,,,,,,,,,,,,,,,,,,,,,,,,,,,,,,,,,,,,,,
,,,,,,,,2023-08-16_08h27.11.339,HF_wild_card,2022.2.4,Win32,59.95203837,62a0e117625b3e346ccb377f,64d2fd46c836a06233681665,64dc7a4244bd2eb2c4e6c125,,,,,,,ctch,resources/DB.BMP,resources/DR.BMP,Door3,-0.375,-0.091145833,1,0,0,1.2123,optionLeft,70,5580,3,16,0,16,0,1,,,,,,,,,,,,,,,,,,,,,,,,,,,,,,,,,,,,,,,
,,,,,,,,2023-08-16_08h27.11.339,HF_wild_card,2022.2.4,Win32,59.95203837,62a0e117625b3e346ccb377f,64d2fd46c836a06233681665,64dc7a4244bd2eb2c4e6c125,,,,,,,sngl,resources/Empty.png,resources/DR.BMP,Door2,0.428385417,-0.028645833,1,0,0,1.0447,optionRight,20,5600,3,17,0,17,0,1,,,,,,,,,,,,,,,,,,,,,,,,,,,,,,,,,,,,,,,
,,,,,,,,2023-08-16_08h27.11.339,HF_wild_card,2022.2.4,Win32,59.95203837,62a0e117625b3e346ccb377f,64d2fd46c836a06233681665,64dc7a4244bd2eb2c4e6c125,,,,,,,decisionTrl,resources/DP.BMP,resources/DB.BMP,Door4,-0.321614583,-0.040364583,1,0,0,1.1627,optionLeft,60,5660,3,18,0,18,0,1,,,,,,,,,,,,,,,,,,,,,,,,,,,,,,,,,,,,,,,
,,,,,,,,2023-08-16_08h27.11.339,HF_wild_card,2022.2.4,Win32,59.95203837,62a0e117625b3e346ccb377f,64d2fd46c836a06233681665,64dc7a4244bd2eb2c4e6c125,,,,,,,decisionTrl,resources/DP.BMP,resources/DB.BMP,Door3,0.27734375,-0.079427083,1,0,0,1.9781,optionRight,70,5730,3,19,0,19,0,1,,,,,,,,,,,,,,,,,,,,,,,,,,,,,,,,,,,,,,,
,,,,,,,,2023-08-16_08h27.11.339,HF_wild_card,2022.2.4,Win32,59.95203837,62a0e117625b3e346ccb377f,64d2fd46c836a06233681665,64dc7a4244bd2eb2c4e6c125,,,,,,,decisionTrl,resources/DB.BMP,resources/DP.BMP,Door3,-0.25,-0.026041667,1,0,0,1.379,optionLeft,70,5800,3,20,0,20,0,1,,,,,,,,,,,,,,,,,,,,,,,,,,,,,,,,,,,,,,,
,,,,,,,,2023-08-16_08h27.11.339,HF_wild_card,2022.2.4,Win32,59.95203837,62a0e117625b3e346ccb377f,64d2fd46c836a06233681665,64dc7a4244bd2eb2c4e6c125,,,,,,,decisionTrl,resources/DR.BMP,resources/DY.BMP,Door1,0.233072917,-0.029947917,1,0,0,2.5934,optionRight,30,5830,3,21,0,21,0,1,,,,,,,,,,,,,,,,,,,,,,,,,,,,,,,,,,,,,,,
,,,,,,,,2023-08-16_08h27.11.339,HF_wild_card,2022.2.4,Win32,59.95203837,62a0e117625b3e346ccb377f,64d2fd46c836a06233681665,64dc7a4244bd2eb2c4e6c125,,,,,,,decisionTrl,resources/DP.BMP,resources/DB.BMP,Door3,0.268229167,0.005208333,1,0,0,1.4953,optionRight,70,5900,3,22,0,22,0,1,,,,,,,,,,,,,,,,,,,,,,,,,,,,,,,,,,,,,,,
,,,,,,,,2023-08-16_08h27.11.339,HF_wild_card,2022.2.4,Win32,59.95203837,62a0e117625b3e346ccb377f,64d2fd46c836a06233681665,64dc7a4244bd2eb2c4e6c125,,,,,,,sngl,resources/DR.BMP,resources/Empty.png,Door2,-0.321614583,-0.018229167,1,0,0,1.0795,optionLeft,40,5940,3,23,0,23,0,1,,,,,,,,,,,,,,,,,,,,,,,,,,,,,,,,,,,,,,,
,,,,,,,,2023-08-16_08h27.11.339,HF_wild_card,2022.2.4,Win32,59.95203837,62a0e117625b3e346ccb377f,64d2fd46c836a06233681665,64dc7a4244bd2eb2c4e6c125,,,,,,,decisionTrl,resources/DY.BMP,resources/DR.BMP,Door2,0.19140625,0.001302083,1,0,0,0.9792,optionRight,20,5960,3,24,0,24,0,1,,,,,,,,,,,,,,,,,,,,,,,,,,,,,,,,,,,,,,,
,,,,,,,,2023-08-16_08h27.11.339,HF_wild_card,2022.2.4,Win32,59.95203837,62a0e117625b3e346ccb377f,64d2fd46c836a06233681665,64dc7a4244bd2eb2c4e6c125,,,,,,,ctch,resources/DB.BMP,resources/DR.BMP,Door2,0.303385417,-0.010416667,1,0,0,0.996,optionRight,40,6000,3,25,0,25,0,1,,,,,,,,,,,,,,,,,,,,,,,,,,,,,,,,,,,,,,,
,,,,,,,,2023-08-16_08h27.11.339,HF_wild_card,2022.2.4,Win32,59.95203837,62a0e117625b3e346ccb377f,64d2fd46c836a06233681665,64dc7a4244bd2eb2c4e6c125,,,,,,,ctch,resources/DP.BMP,resources/DY.BMP,Door4,-0.498697917,-0.118489583,1,0,0,3.3959,optionLeft,60,6060,3,26,0,26,0,1,,,,,,,,,,,,,,,,,,,,,,,,,,,,,,,,,,,,,,,
,,,,,,,,2023-08-16_08h27.11.339,HF_wild_card,2022.2.4,Win32,59.95203837,62a0e117625b3e346ccb377f,64d2fd46c836a06233681665,64dc7a4244bd2eb2c4e6c125,,,,,,,sngl,resources/Empty.png,resources/DP.BMP,Door4,0.30078125,-0.049479167,1,0,0,1.0961,optionRight,60,6120,3,27,0,27,0,1,,,,,,,,,,,,,,,,,,,,,,,,,,,,,,,,,,,,,,,
,,,,,,,,2023-08-16_08h27.11.339,HF_wild_card,2022.2.4,Win32,59.95203837,62a0e117625b3e346ccb377f,64d2fd46c836a06233681665,64dc7a4244bd2eb2c4e6c125,,,,,,,decisionTrl,resources/DY.BMP,resources/DR.BMP,Door1,-0.32421875,-0.024739583,1,0,0,3.3958,optionLeft,30,6150,3,28,0,28,0,1,,,,,,,,,,,,,,,,,,,,,,,,,,,,,,,,,,,,,,,
,,,,,,,,2023-08-16_08h27.11.339,HF_wild_card,2022.2.4,Win32,59.95203837,62a0e117625b3e346ccb377f,64d2fd46c836a06233681665,64dc7a4244bd2eb2c4e6c125,,,,,,,sngl,resources/Empty.png,resources/DBN.BMP,WildCard_Ex,0.229166667,0.022135417,1,0,0,1.1788,optionRight,95,6245,3,29,0,29,0,1,,,,,,,,,,,,,,,,,,,,,,,,,,,,,,,,,,,,,,,
,,,,,,,,2023-08-16_08h27.11.339,HF_wild_card,2022.2.4,Win32,59.95203837,62a0e117625b3e346ccb377f,64d2fd46c836a06233681665,64dc7a4244bd2eb2c4e6c125,,,,,,,decisionTrl,resources/DB.BMP,resources/DBN.BMP,WildCard_Ex,0.2265625,-0.005208333,1,0,0,1.4945,optionRight,5,6250,3,30,0,30,0,1,,,,,,,,,,,,,,,,,,,,,,,,,,,,,,,,,,,,,,,
,,,,,,,,2023-08-16_08h27.11.339,HF_wild_card,2022.2.4,Win32,59.95203837,62a0e117625b3e346ccb377f,64d2fd46c836a06233681665,64dc7a4244bd2eb2c4e6c125,,,,,,,decisionTrl,resources/DBN.BMP,resources/DY.BMP,WildCard_Ex,-0.28125,-0.009114583,1,0,0,1.0288,optionLeft,95,6345,3,31,0,31,0,1,,,,,,,,,,,,,,,,,,,,,,,,,,,,,,,,,,,,,,,
,,,,,,,,2023-08-16_08h27.11.339,HF_wild_card,2022.2.4,Win32,59.95203837,62a0e117625b3e346ccb377f,64d2fd46c836a06233681665,64dc7a4244bd2eb2c4e6c125,,,,,,,decisionTrl,resources/DP.BMP,resources/DBN.BMP,Door4,-0.282552083,-0.061197917,1,0,0,3.3458,optionLeft,60,6405,3,32,0,32,0,1,,,,,,,,,,,,,,,,,,,,,,,,,,,,,,,,,,,,,,,
,,,,,,,,2023-08-16_08h27.11.339,HF_wild_card,2022.2.4,Win32,59.95203837,62a0e117625b3e346ccb377f,64d2fd46c836a06233681665,64dc7a4244bd2eb2c4e6c125,,,,,,,decisionTrl,resources/DR.BMP,resources/DY.BMP,Door2,-0.341145833,-0.053385417,1,0,0,2.0954,optionLeft,20,6425,3,33,0,33,0,1,,,,,,,,,,,,,,,,,,,,,,,,,,,,,,,,,,,,,,,
,,,,,,,,2023-08-16_08h27.11.339,HF_wild_card,2022.2.4,Win32,59.95203837,62a0e117625b3e346ccb377f,64d2fd46c836a06233681665,64dc7a4244bd2eb2c4e6c125,,,,,,,decisionTrl,resources/DB.BMP,resources/DP.BMP,Door3,-0.239583333,-0.0703125,1,0,0,1.9274,optionLeft,70,6495,3,34,0,34,0,1,,,,,,,,,,,,,,,,,,,,,,,,,,,,,,,,,,,,,,,
,,,,,,,,2023-08-16_08h27.11.339,HF_wild_card,2022.2.4,Win32,59.95203837,62a0e117625b3e346ccb377f,64d2fd46c836a06233681665,64dc7a4244bd2eb2c4e6c125,,,,,,,decisionTrl,resources/DP.BMP,resources/DB.BMP,Door3,0.22265625,0.005208333,1,0,0,1.1264,optionRight,70,6565,3,35,0,35,0,1,,,,,,,,,,,,,,,,,,,,,,,,,,,,,,,,,,,,,,,
,,,,,,,,2023-08-16_08h27.11.339,HF_wild_card,2022.2.4,Win32,59.95203837,62a0e117625b3e346ccb377f,64d2fd46c836a06233681665,64dc7a4244bd2eb2c4e6c125,,,,,,,sngl,resources/Empty.png,resources/DY.BMP,Door1,0.260416667,-0.046875,1,0,0,1.0624,optionRight,30,6595,3,36,0,36,0,1,,,,,,,,,,,,,,,,,,,,,,,,,,,,,,,,,,,,,,,
,,,,,,,,2023-08-16_08h27.11.339,HF_wild_card,2022.2.4,Win32,59.95203837,62a0e117625b3e346ccb377f,64d2fd46c836a06233681665,64dc7a4244bd2eb2c4e6c125,,,,,,,decisionTrl,resources/DBN.BMP,resources/DP.BMP,WildCard_Ex,-0.272135417,-0.014322917,1,0,0,1.6175,optionLeft,95,6690,3,37,0,37,0,1,,,,,,,,,,,,,,,,,,,,,,,,,,,,,,,,,,,,,,,
,,,,,,,,2023-08-16_08h27.11.339,HF_wild_card,2022.2.4,Win32,59.95203837,62a0e117625b3e346ccb377f,64d2fd46c836a06233681665,64dc7a4244bd2eb2c4e6c125,,,,,,,decisionTrl,resources/DY.BMP,resources/DR.BMP,Door2,0.26953125,-0.022135417,1,0,0,1.4129,optionRight,20,6710,3,38,0,38,0,1,,,,,,,,,,,,,,,,,,,,,,,,,,,,,,,,,,,,,,,
,,,,,,,,2023-08-16_08h27.11.339,HF_wild_card,2022.2.4,Win32,59.95203837,62a0e117625b3e346ccb377f,64d2fd46c836a06233681665,64dc7a4244bd2eb2c4e6c125,,,,,,,ctch,resources/DY.BMP,resources/DP.BMP,Door4,0.212239583,-0.022135417,1,0,0,1.8135,optionRight,80,6790,3,39,0,39,0,1,,,,,,,,,,,,,,,,,,,,,,,,,,,,,,,,,,,,,,,
,,,,,,,,2023-08-16_08h27.11.339,HF_wild_card,2022.2.4,Win32,59.95203837,62a0e117625b3e346ccb377f,64d2fd46c836a06233681665,64dc7a4244bd2eb2c4e6c125,,,,,,,sngl,resources/DP.BMP,resources/Empty.png,Door4,-0.30859375,-0.03515625,1,0,0,1.0455,optionLeft,80,6870,3,40,0,40,0,1,,,,,,,,,,,,,,,,,,,,,,,,,,,,,,,,,,,,,,,
,,,,,,,,2023-08-16_08h27.11.339,HF_wild_card,2022.2.4,Win32,59.95203837,62a0e117625b3e346ccb377f,64d2fd46c836a06233681665,64dc7a4244bd2eb2c4e6c125,,,,,,,sngl,resources/DBN.BMP,resources/Empty.png,WildCard_Ex,-0.451822917,-0.05859375,1,0,0,1.0296,optionLeft,5,6875,3,41,0,41,0,1,,,,,,,,,,,,,,,,,,,,,,,,,,,,,,,,,,,,,,,
,,,,,,,,2023-08-16_08h27.11.339,HF_wild_card,2022.2.4,Win32,59.95203837,62a0e117625b3e346ccb377f,64d2fd46c836a06233681665,64dc7a4244bd2eb2c4e6c125,,,,,,,ctch,resources/DR.BMP,resources/DB.BMP,Door3,0.315104167,-0.009114583,1,0,0,4.1293,optionRight,70,6945,3,42,0,42,0,1,,,,,,,,,,,,,,,,,,,,,,,,,,,,,,,,,,,,,,,
,,,,,,,,2023-08-16_08h27.11.339,HF_wild_card,2022.2.4,Win32,59.95203837,62a0e117625b3e346ccb377f,64d2fd46c836a06233681665,64dc7a4244bd2eb2c4e6c125,,,,,,,sngl,resources/Empty.png,resources/DBN.BMP,WildCard_Ex,0.235677083,-0.0078125,1,0,0,1.1123,optionRight,5,6950,3,43,0,43,0,1,,,,,,,,,,,,,,,,,,,,,,,,,,,,,,,,,,,,,,,
,,,,,,,,2023-08-16_08h27.11.339,HF_wild_card,2022.2.4,Win32,59.95203837,62a0e117625b3e346ccb377f,64d2fd46c836a06233681665,64dc7a4244bd2eb2c4e6c125,,,,,,,,,,,,,,,,,,,,,,,,,,2,0,2,0,1,,,,,,,,,,,,,,,,,,,,,,,,,,,,,,,,,,
,,,,,,,,2023-08-16_08h27.11.339,HF_wild_card,2022.2.4,Win32,59.95203837,62a0e117625b3e346ccb377f,64d2fd46c836a06233681665,64dc7a4244bd2eb2c4e6c125,,,,,,,sngl,resources/DY.BMP,resources/Empty.png,Door1,-0.450520833,-0.145833333,1,0,0,1.1162,optionLeft,30,6980,4,0,0,0,0,1,,,,,,,,,,,,,,,,,,,,,,,,,,,,,,,,,,,,,,,
,,,,,,,,2023-08-16_08h27.11.339,HF_wild_card,2022.2.4,Win32,59.95203837,62a0e117625b3e346ccb377f,64d2fd46c836a06233681665,64dc7a4244bd2eb2c4e6c125,,,,,,,decisionTrl,resources/DB.BMP,resources/DG.BMP,WildCard_NonEx,0.2890625,-0.013020833,1,0,0,3.0289,optionRight,55,7035,4,1,0,1,0,1,,,,,,,,,,,,,,,,,,,,,,,,,,,,,,,,,,,,,,,
,,,,,,,,2023-08-16_08h27.11.339,HF_wild_card,2022.2.4,Win32,59.95203837,62a0e117625b3e346ccb377f,64d2fd46c836a06233681665,64dc7a4244bd2eb2c4e6c125,,,,,,,sngl,resources/Empty.png,resources/DB.BMP,Door3,0.272135417,-0.001302083,1,0,0,1.062,optionRight,70,7105,4,2,0,2,0,1,,,,,,,,,,,,,,,,,,,,,,,,,,,,,,,,,,,,,,,
,,,,,,,,2023-08-16_08h27.11.339,HF_wild_card,2022.2.4,Win32,59.95203837,62a0e117625b3e346ccb377f,64d2fd46c836a06233681665,64dc7a4244bd2eb2c4e6c125,,,,,,,sngl,resources/Empty.png,resources/DP.BMP,Door4,0.28125,-0.013020833,1,0,0,0.9474,optionRight,80,7185,4,3,0,3,0,1,,,,,,,,,,,,,,,,,,,,,,,,,,,,,,,,,,,,,,,
,,,,,,,,2023-08-16_08h27.11.339,HF_wild_card,2022.2.4,Win32,59.95203837,62a0e117625b3e346ccb377f,64d2fd46c836a06233681665,64dc7a4244bd2eb2c4e6c125,,,,,,,ctch,resources/DB.BMP,resources/DR.BMP,Door3,-0.420572917,-0.071614583,1,0,0,1.4308,optionLeft,70,7255,4,4,0,4,0,1,,,,,,,,,,,,,,,,,,,,,,,,,,,,,,,,,,,,,,,
,,,,,,,,2023-08-16_08h27.11.339,HF_wild_card,2022.2.4,Win32,59.95203837,62a0e117625b3e346ccb377f,64d2fd46c836a06233681665,64dc7a4244bd2eb2c4e6c125,,,,,,,ctch,resources/DP.BMP,resources/DY.BMP,Door4,-0.3125,-0.127604167,1,0,0,2.0303,optionLeft,60,7315,4,5,0,5,0,1,,,,,,,,,,,,,,,,,,,,,,,,,,,,,,,,,,,,,,,
,,,,,,,,2023-08-16_08h27.11.339,HF_wild_card,2022.2.4,Win32,59.95203837,62a0e117625b3e346ccb377f,64d2fd46c836a06233681665,64dc7a4244bd2eb2c4e6c125,,,,,,,decisionTrl,resources/DY.BMP,resources/DR.BMP,Door2,0.174479167,-0.022135417,1,0,0,2.242,optionRight,20,7335,4,6,0,6,0,1,,,,,,,,,,,,,,,,,,,,,,,,,,,,,,,,,,,,,,,
,,,,,,,,2023-08-16_08h27.11.339,HF_wild_card,2022.2.4,Win32,59.95203837,62a0e117625b3e346ccb377f,64d2fd46c836a06233681665,64dc7a4244bd2eb2c4e6c125,,,,,,,decisionTrl,resources/DB.BMP,resources/DP.BMP,Door4,0.303385417,-0.032552083,1,0,0,3.1847,optionRight,80,7415,4,7,0,7,0,1,,,,,,,,,,,,,,,,,,,,,,,,,,,,,,,,,,,,,,,
,,,,,,,,2023-08-16_08h27.11.339,HF_wild_card,2022.2.4,Win32,59.95203837,62a0e117625b3e346ccb377f,64d2fd46c836a06233681665,64dc7a4244bd2eb2c4e6c125,,,,,,,decisionTrl,resources/DY.BMP,resources/DR.BMP,Door1,-0.364583333,-0.0703125,1,0,0,2.5641,optionLeft,30,7445,4,8,0,8,0,1,,,,,,,,,,,,,,,,,,,,,,,,,,,,,,,,,,,,,,,
,,,,,,,,2023-08-16_08h27.11.339,HF_wild_card,2022.2.4,Win32,59.95203837,62a0e117625b3e346ccb377f,64d2fd46c836a06233681665,64dc7a4244bd2eb2c4e6c125,,,,,,,decisionTrl,resources/DG.BMP,resources/DY.BMP,WildCard_NonEx,-0.364583333,-0.03515625,1,0,0,1.3143,optionLeft,45,7490,4,9,0,9,0,1,,,,,,,,,,,,,,,,,,,,,,,,,,,,,,,,,,,,,,,
,,,,,,,,2023-08-16_08h27.11.339,HF_wild_card,2022.2.4,Win32,59.95203837,62a0e117625b3e346ccb377f,64d2fd46c836a06233681665,64dc7a4244bd2eb2c4e6c125,,,,,,,ctch,resources/DR.BMP,resources/DB.BMP,Door3,0.158854167,-0.024739583,1,0,0,1.9981,optionRight,70,7560,4,10,0,10,0,1,,,,,,,,,,,,,,,,,,,,,,,,,,,,,,,,,,,,,,,
,,,,,,,,2023-08-16_08h27.11.339,HF_wild_card,2022.2.4,Win32,59.95203837,62a0e117625b3e346ccb377f,64d2fd46c836a06233681665,64dc7a4244bd2eb2c4e6c125,,,,,,,decisionTrl,resources/DG.BMP,resources/DP.BMP,Door4,0.2890625,0.01953125,1,0,0,3.5298,optionRight,80,7640,4,11,0,11,0,1,,,,,,,,,,,,,,,,,,,,,,,,,,,,,,,,,,,,,,,
,,,,,,,,2023-08-16_08h27.11.339,HF_wild_card,2022.2.4,Win32,59.95203837,62a0e117625b3e346ccb377f,64d2fd46c836a06233681665,64dc7a4244bd2eb2c4e6c125,,,,,,,decisionTrl,resources/DB.BMP,resources/DP.BMP,Door4,0.247395833,-0.037760417,1,0,0,1.3584,optionRight,60,7700,4,12,0,12,0,1,,,,,,,,,,,,,,,,,,,,,,,,,,,,,,,,,,,,,,,
,,,,,,,,2023-08-16_08h27.11.339,HF_wild_card,2022.2.4,Win32,59.95203837,62a0e117625b3e346ccb377f,64d2fd46c836a06233681665,64dc7a4244bd2eb2c4e6c125,,,,,,,decisionTrl,resources/DY.BMP,resources/DR.BMP,Door2,0.2421875,-0.087239583,1,0,0,6.3975,optionRight,20,7720,4,13,0,13,0,1,,,,,,,,,,,,,,,,,,,,,,,,,,,,,,,,,,,,,,,
,,,,,,,,2023-08-16_08h27.11.339,HF_wild_card,2022.2.4,Win32,59.95203837,62a0e117625b3e346ccb377f,64d2fd46c836a06233681665,64dc7a4244bd2eb2c4e6c125,,,,,,,decisionTrl,resources/DY.BMP,resources/DG.BMP,WildCard_NonEx,0.205729167,-0.002604167,1,0,0,1.3858,optionRight,45,7765,4,14,0,14,0,1,,,,,,,,,,,,,,,,,,,,,,,,,,,,,,,,,,,,,,,
,,,,,,,,2023-08-16_08h27.11.339,HF_wild_card,2022.2.4,Win32,59.95203837,62a0e117625b3e346ccb377f,64d2fd46c836a06233681665,64dc7a4244bd2eb2c4e6c125,,,,,,,ctch,resources/DR.BMP,resources/DB.BMP,Door3,0.177083333,-0.041666667,1,0,0,3.3458,optionRight,70,7835,4,15,0,15,0,1,,,,,,,,,,,,,,,,,,,,,,,,,,,,,,,,,,,,,,,
,,,,,,,,2023-08-16_08h27.11.339,HF_wild_card,2022.2.4,Win32,59.95203837,62a0e117625b3e346ccb377f,64d2fd46c836a06233681665,64dc7a4244bd2eb2c4e6c125,,,,,,,decisionTrl,resources/DG.BMP,resources/DB.BMP,Door3,0.252604167,-0.020833333,1,0,0,4.3087,optionRight,70,7905,4,16,0,16,0,1,,,,,,,,,,,,,,,,,,,,,,,,,,,,,,,,,,,,,,,
,,,,,,,,2023-08-16_08h27.11.339,HF_wild_card,2022.2.4,Win32,59.95203837,62a0e117625b3e346ccb377f,64d2fd46c836a06233681665,64dc7a4244bd2eb2c4e6c125,,,,,,,ctch,resources/DB.BMP,resources/DR.BMP,Door3,-0.358072917,-0.0703125,1,0,0,2.8413,optionLeft,70,7975,4,17,0,17,0,1,,,,,,,,,,,,,,,,,,,,,,,,,,,,,,,,,,,,,,,
,,,,,,,,2023-08-16_08h27.11.339,HF_wild_card,2022.2.4,Win32,59.95203837,62a0e117625b3e346ccb377f,64d2fd46c836a06233681665,64dc7a4244bd2eb2c4e6c125,,,,,,,sngl,resources/DR.BMP,resources/Empty.png,Door2,-0.313802083,-0.075520833,1,0,0,1.1146,optionLeft,20,7995,4,18,0,18,0,1,,,,,,,,,,,,,,,,,,,,,,,,,,,,,,,,,,,,,,,
,,,,,,,,2023-08-16_08h27.11.339,HF_wild_card,2022.2.4,Win32,59.95203837,62a0e117625b3e346ccb377f,64d2fd46c836a06233681665,64dc7a4244bd2eb2c4e6c125,,,,,,,decisionTrl,resources/DG.BMP,resources/DR.BMP,WildCard_NonEx,-0.3203125,-0.065104167,1,0,0,1.2311,optionLeft,55,8050,4,19,0,19,0,1,,,,,,,,,,,,,,,,,,,,,,,,,,,,,,,,,,,,,,,
,,,,,,,,2023-08-16_08h27.11.339,HF_wild_card,2022.2.4,Win32,59.95203837,62a0e117625b3e346ccb377f,64d2fd46c836a06233681665,64dc7a4244bd2eb2c4e6c125,,,,,,,sngl,resources/Empty.png,resources/DG.BMP,WildCard_NonEx,0.014322917,0.010416667,1,0,0,0.3468,optionRight,45,8095,4,20,0,20,0,1,,,,,,,,,,,,,,,,,,,,,,,,,,,,,,,,,,,,,,,
,,,,,,,,2023-08-16_08h27.11.339,HF_wild_card,2022.2.4,Win32,59.95203837,62a0e117625b3e346ccb377f,64d2fd46c836a06233681665,64dc7a4244bd2eb2c4e6c125,,,,,,,decisionTrl,resources/DR.BMP,resources/DY.BMP,Door2,-0.30078125,-0.014322917,1,0,0,6.1338,optionLeft,20,8115,4,21,0,21,0,1,,,,,,,,,,,,,,,,,,,,,,,,,,,,,,,,,,,,,,,
,,,,,,,,2023-08-16_08h27.11.339,HF_wild_card,2022.2.4,Win32,59.95203837,62a0e117625b3e346ccb377f,64d2fd46c836a06233681665,64dc7a4244bd2eb2c4e6c125,,,,,,,decisionTrl,resources/DR.BMP,resources/DY.BMP,Door1,0.356770833,-0.015625,1,0,0,1.4516,optionRight,30,8145,4,22,0,22,0,1,,,,,,,,,,,,,,,,,,,,,,,,,,,,,,,,,,,,,,,
,,,,,,,,2023-08-16_08h27.11.339,HF_wild_card,2022.2.4,Win32,59.95203837,62a0e117625b3e346ccb377f,64d2fd46c836a06233681665,64dc7a4244bd2eb2c4e6c125,,,,,,,sngl,resources/DB.BMP,resources/Empty.png,Door3,-0.184895833,-0.01171875,1,0,0,3.4742,optionLeft,70,8215,4,23,0,23,0,1,,,,,,,,,,,,,,,,,,,,,,,,,,,,,,,,,,,,,,,
,,,,,,,,2023-08-16_08h27.11.339,HF_wild_card,2022.2.4,Win32,59.95203837,62a0e117625b3e346ccb377f,64d2fd46c836a06233681665,64dc7a4244bd2eb2c4e6c125,,,,,,,decisionTrl,resources/DP.BMP,resources/DB.BMP,Door3,0.15234375,-0.0078125,1,0,0,3.1137,optionRight,70,8285,4,24,0,24,0,1,,,,,,,,,,,,,,,,,,,,,,,,,,,,,,,,,,,,,,,
,,,,,,,,2023-08-16_08h27.11.339,HF_wild_card,2022.2.4,Win32,59.95203837,62a0e117625b3e346ccb377f,64d2fd46c836a06233681665,64dc7a4244bd2eb2c4e6c125,,,,,,,ctch,resources/DY.BMP,resources/DP.BMP,Door4,0.286458333,-0.048177083,1,0,0,1.175,optionRight,80,8365,4,25,0,25,0,1,,,,,,,,,,,,,,,,,,,,,,,,,,,,,,,,,,,,,,,
,,,,,,,,2023-08-16_08h27.11.339,HF_wild_card,2022.2.4,Win32,59.95203837,62a0e117625b3e346ccb377f,64d2fd46c836a06233681665,64dc7a4244bd2eb2c4e6c125,,,,,,,sngl,resources/DP.BMP,resources/Empty.png,Door4,-0.31640625,-0.091145833,1,0,0,1.0421,optionLeft,60,8425,4,26,0,26,0,1,,,,,,,,,,,,,,,,,,,,,,,,,,,,,,,,,,,,,,,
,,,,,,,,2023-08-16_08h27.11.339,HF_wild_card,2022.2.4,Win32,59.95203837,62a0e117625b3e346ccb377f,64d2fd46c836a06233681665,64dc7a4244bd2eb2c4e6c125,,,,,,,decisionTrl,resources/DR.BMP,resources/DY.BMP,Door1,0.220052083,-0.033854167,1,0,0,2.9305,optionRight,30,8455,4,27,0,27,0,1,,,,,,,,,,,,,,,,,,,,,,,,,,,,,,,,,,,,,,,
,,,,,,,,2023-08-16_08h27.11.339,HF_wild_card,2022.2.4,Win32,59.95203837,62a0e117625b3e346ccb377f,64d2fd46c836a06233681665,64dc7a4244bd2eb2c4e6c125,,,,,,,ctch,resources/DY.BMP,resources/DP.BMP,Door4,0.315104167,-0.111979167,1,0,0,1.181,optionRight,60,8515,4,28,0,28,0,1,,,,,,,,,,,,,,,,,,,,,,,,,,,,,,,,,,,,,,,
,,,,,,,,2023-08-16_08h27.11.339,HF_wild_card,2022.2.4,Win32,59.95203837,62a0e117625b3e346ccb377f,64d2fd46c836a06233681665,64dc7a4244bd2eb2c4e6c125,,,,,,,sngl,resources/Empty.png,resources/DR.BMP,Door2,0.391927083,-0.0625,1,0,0,1.0579,optionRight,40,8555,4,29,0,29,0,1,,,,,,,,,,,,,,,,,,,,,,,,,,,,,,,,,,,,,,,
,,,,,,,,2023-08-16_08h27.11.339,HF_wild_card,2022.2.4,Win32,59.95203837,62a0e117625b3e346ccb377f,64d2fd46c836a06233681665,64dc7a4244bd2eb2c4e6c125,,,,,,,decisionTrl,resources/DB.BMP,resources/DP.BMP,Door3,-0.298177083,-0.108072917,1,0,0,2.8423,optionLeft,70,8625,4,30,0,30,0,1,,,,,,,,,,,,,,,,,,,,,,,,,,,,,,,,,,,,,,,
,,,,,,,,2023-08-16_08h27.11.339,HF_wild_card,2022.2.4,Win32,59.95203837,62a0e117625b3e346ccb377f,64d2fd46c836a06233681665,64dc7a4244bd2eb2c4e6c125,,,,,,,sngl,resources/Empty.png,resources/DY.BMP,Door1,0.260416667,-0.029947917,1,0,0,1.3139,optionRight,30,8655,4,31,0,31,0,1,,,,,,,,,,,,,,,,,,,,,,,,,,,,,,,,,,,,,,,
,,,,,,,,2023-08-16_08h27.11.339,HF_wild_card,2022.2.4,Win32,59.95203837,62a0e117625b3e346ccb377f,64d2fd46c836a06233681665,64dc7a4244bd2eb2c4e6c125,,,,,,,sngl,resources/DG.BMP,resources/Empty.png,WildCard_NonEx,-0.393229167,-0.044270833,1,0,0,1.0141,optionLeft,45,8700,4,32,0,32,0,1,,,,,,,,,,,,,,,,,,,,,,,,,,,,,,,,,,,,,,,
,,,,,,,,2023-08-16_08h27.11.339,HF_wild_card,2022.2.4,Win32,59.95203837,62a0e117625b3e346ccb377f,64d2fd46c836a06233681665,64dc7a4244bd2eb2c4e6c125,,,,,,,sngl,resources/Empty.png,resources/DG.BMP,WildCard_NonEx,0.190104167,-0.015625,1,0,0,0.977,optionRight,55,8755,4,33,0,33,0,1,,,,,,,,,,,,,,,,,,,,,,,,,,,,,,,,,,,,,,,
,,,,,,,,2023-08-16_08h27.11.339,HF_wild_card,2022.2.4,Win32,59.95203837,62a0e117625b3e346ccb377f,64d2fd46c836a06233681665,64dc7a4244bd2eb2c4e6c125,,,,,,,decisionTrl,resources/DY.BMP,resources/DR.BMP,Door1,-0.225260417,-0.040364583,1,0,0,3.3674,optionLeft,30,8785,4,34,0,34,0,1,,,,,,,,,,,,,,,,,,,,,,,,,,,,,,,,,,,,,,,
,,,,,,,,2023-08-16_08h27.11.339,HF_wild_card,2022.2.4,Win32,59.95203837,62a0e117625b3e346ccb377f,64d2fd46c836a06233681665,64dc7a4244bd2eb2c4e6c125,,,,,,,decisionTrl,resources/DB.BMP,resources/DP.BMP,Door3,-0.265625,-0.036458333,1,0,0,1.7583,optionLeft,70,8855,4,35,0,35,0,1,,,,,,,,,,,,,,,,,,,,,,,,,,,,,,,,,,,,,,,
,,,,,,,,2023-08-16_08h27.11.339,HF_wild_card,2022.2.4,Win32,59.95203837,62a0e117625b3e346ccb377f,64d2fd46c836a06233681665,64dc7a4244bd2eb2c4e6c125,,,,,,,decisionTrl,resources/DP.BMP,resources/DG.BMP,Door4,-0.17578125,-0.020833333,1,0,0,3.0976,optionLeft,60,8915,4,36,0,36,0,1,,,,,,,,,,,,,,,,,,,,,,,,,,,,,,,,,,,,,,,
,,,,,,,,2023-08-16_08h27.11.339,HF_wild_card,2022.2.4,Win32,59.95203837,62a0e117625b3e346ccb377f,64d2fd46c836a06233681665,64dc7a4244bd2eb2c4e6c125,,,,,,,decisionTrl,resources/DP.BMP,resources/DB.BMP,Door3,0.236979167,-0.028645833,1,0,0,2.7637,optionRight,70,8985,4,37,0,37,0,1,,,,,,,,,,,,,,,,,,,,,,,,,,,,,,,,,,,,,,,
,,,,,,,,2023-08-16_08h27.11.339,HF_wild_card,2022.2.4,Win32,59.95203837,62a0e117625b3e346ccb377f,64d2fd46c836a06233681665,64dc7a4244bd2eb2c4e6c125,,,,,,,decisionTrl,resources/DP.BMP,resources/DB.BMP,Door3,0.188802083,-0.026041667,1,0,0,1.1744,optionRight,70,9055,4,38,0,38,0,1,,,,,,,,,,,,,,,,,,,,,,,,,,,,,,,,,,,,,,,
,,,,,,,,2023-08-16_08h27.11.339,HF_wild_card,2022.2.4,Win32,59.95203837,62a0e117625b3e346ccb377f,64d2fd46c836a06233681665,64dc7a4244bd2eb2c4e6c125,,,,,,,decisionTrl,resources/DR.BMP,resources/DG.BMP,WildCard_NonEx,0.28515625,-0.016927083,1,0,0,1.3471,optionRight,55,9110,4,39,0,39,0,1,,,,,,,,,,,,,,,,,,,,,,,,,,,,,,,,,,,,,,,
,,,,,,,,2023-08-16_08h27.11.339,HF_wild_card,2022.2.4,Win32,59.95203837,62a0e117625b3e346ccb377f,64d2fd46c836a06233681665,64dc7a4244bd2eb2c4e6c125,,,,,,,sngl,resources/DG.BMP,resources/Empty.png,WildCard_NonEx,-0.315104167,-0.084635417,1,0,0,1.3977,optionLeft,55,9165,4,40,0,40,0,1,,,,,,,,,,,,,,,,,,,,,,,,,,,,,,,,,,,,,,,
,,,,,,,,2023-08-16_08h27.11.339,HF_wild_card,2022.2.4,Win32,59.95203837,62a0e117625b3e346ccb377f,64d2fd46c836a06233681665,64dc7a4244bd2eb2c4e6c125,,,,,,,decisionTrl,resources/DP.BMP,resources/DB.BMP,Door3,0.169270833,-0.015625,1,0,0,1.8279,optionRight,70,9235,4,41,0,41,0,1,,,,,,,,,,,,,,,,,,,,,,,,,,,,,,,,,,,,,,,
,,,,,,,,2023-08-16_08h27.11.339,HF_wild_card,2022.2.4,Win32,59.95203837,62a0e117625b3e346ccb377f,64d2fd46c836a06233681665,64dc7a4244bd2eb2c4e6c125,,,,,,,decisionTrl,resources/DR.BMP,resources/DY.BMP,Door2,-0.399739583,-0.095052083,1,0,0,9.2353,optionLeft,40,9275,4,42,0,42,0,1,,,,,,,,,,,,,,,,,,,,,,,,,,,,,,,,,,,,,,,
,,,,,,,,2023-08-16_08h27.11.339,HF_wild_card,2022.2.4,Win32,59.95203837,62a0e117625b3e346ccb377f,64d2fd46c836a06233681665,64dc7a4244bd2eb2c4e6c125,,,,,,,ctch,resources/DP.BMP,resources/DY.BMP,Door4,-0.28515625,-0.114583333,1,0,0,2.0791,optionLeft,80,9355,4,43,0,43,0,1,,,,,,,,,,,,,,,,,,,,,,,,,,,,,,,,,,,,,,,
,,,,,,,,2023-08-16_08h27.11.339,HF_wild_card,2022.2.4,Win32,59.95203837,62a0e117625b3e346ccb377f,64d2fd46c836a06233681665,64dc7a4244bd2eb2c4e6c125,,,,,,,,,,,,,,,,,,,,,,,,,,3,0,3,0,1,,,,,,,,,,,,,,,,,,,,,,,,,,,,,,,,,,
,,,,,,,,2023-08-16_08h27.11.339,HF_wild_card,2022.2.4,Win32,59.95203837,62a0e117625b3e346ccb377f,64d2fd46c836a06233681665,64dc7a4244bd2eb2c4e6c125,,,,,,,sngl,resources/DY.BMP,resources/Empty.png,Door1,-0.494791667,-0.078125,1,0,0,1.2293,optionLeft,30,9385,5,0,0,0,0,1,,,,,,,,,,,,,,,,,,,,,,,,,,,,,,,,,,,,,,,
,,,,,,,,2023-08-16_08h27.11.339,HF_wild_card,2022.2.4,Win32,59.95203837,62a0e117625b3e346ccb377f,64d2fd46c836a06233681665,64dc7a4244bd2eb2c4e6c125,,,,,,,decisionTrl,resources/DR.BMP,resources/DY.BMP,Door2,-0.3203125,-0.076822917,1,0,0,1.2611,optionLeft,40,9425,5,1,0,1,0,1,,,,,,,,,,,,,,,,,,,,,,,,,,,,,,,,,,,,,,,
,,,,,,,,2023-08-16_08h27.11.339,HF_wild_card,2022.2.4,Win32,59.95203837,62a0e117625b3e346ccb377f,64d2fd46c836a06233681665,64dc7a4244bd2eb2c4e6c125,,,,,,,sngl,resources/DG.BMP,resources/Empty.png,WildCard_NonEx,-0.391927083,-0.005208333,1,0,0,1.0289,optionLeft,45,9470,5,2,0,2,0,1,,,,,,,,,,,,,,,,,,,,,,,,,,,,,,,,,,,,,,,
,,,,,,,,2023-08-16_08h27.11.339,HF_wild_card,2022.2.4,Win32,59.95203837,62a0e117625b3e346ccb377f,64d2fd46c836a06233681665,64dc7a4244bd2eb2c4e6c125,,,,,,,ctch,resources/DB.BMP,resources/DR.BMP,Door3,0.001302083,0.002604167,1,0,0,0.6962,optionLeft,70,9540,5,3,0,3,0,1,,,,,,,,,,,,,,,,,,,,,,,,,,,,,,,,,,,,,,,
,,,,,,,,2023-08-16_08h27.11.339,HF_wild_card,2022.2.4,Win32,59.95203837,62a0e117625b3e346ccb377f,64d2fd46c836a06233681665,64dc7a4244bd2eb2c4e6c125,,,,,,,sngl,resources/Empty.png,resources/DG.BMP,WildCard_NonEx,0.454427083,-0.009114583,1,0,0,0.9457,optionRight,55,9595,5,4,0,4,0,1,,,,,,,,,,,,,,,,,,,,,,,,,,,,,,,,,,,,,,,
,,,,,,,,2023-08-16_08h27.11.339,HF_wild_card,2022.2.4,Win32,59.95203837,62a0e117625b3e346ccb377f,64d2fd46c836a06233681665,64dc7a4244bd2eb2c4e6c125,,,,,,,decisionTrl,resources/DG.BMP,resources/DR.BMP,WildCard_NonEx,-0.22265625,-0.041666667,1,0,0,1.4627,optionLeft,55,9650,5,5,0,5,0,1,,,,,,,,,,,,,,,,,,,,,,,,,,,,,,,,,,,,,,,
,,,,,,,,2023-08-16_08h27.11.339,HF_wild_card,2022.2.4,Win32,59.95203837,62a0e117625b3e346ccb377f,64d2fd46c836a06233681665,64dc7a4244bd2eb2c4e6c125,,,,,,,decisionTrl,resources/DP.BMP,resources/DB.BMP,Door3,0.23828125,-0.028645833,1,0,0,1.9954,optionRight,70,9720,5,6,0,6,0,1,,,,,,,,,,,,,,,,,,,,,,,,,,,,,,,,,,,,,,,
,,,,,,,,2023-08-16_08h27.11.339,HF_wild_card,2022.2.4,Win32,59.95203837,62a0e117625b3e346ccb377f,64d2fd46c836a06233681665,64dc7a4244bd2eb2c4e6c125,,,,,,,ctch,resources/DP.BMP,resources/DY.BMP,Door4,-0.16796875,-0.071614583,1,0,0,1.3963,optionLeft,80,9800,5,7,0,7,0,1,,,,,,,,,,,,,,,,,,,,,,,,,,,,,,,,,,,,,,,
,,,,,,,,2023-08-16_08h27.11.339,HF_wild_card,2022.2.4,Win32,59.95203837,62a0e117625b3e346ccb377f,64d2fd46c836a06233681665,64dc7a4244bd2eb2c4e6c125,,,,,,,sngl,resources/DR.BMP,resources/Empty.png,Door2,-0.423177083,-0.127604167,1,0,0,1.079,optionLeft,40,9840,5,8,0,8,0,1,,,,,,,,,,,,,,,,,,,,,,,,,,,,,,,,,,,,,,,
,,,,,,,,2023-08-16_08h27.11.339,HF_wild_card,2022.2.4,Win32,59.95203837,62a0e117625b3e346ccb377f,64d2fd46c836a06233681665,64dc7a4244bd2eb2c4e6c125,,,,,,,sngl,resources/Empty.png,resources/DG.BMP,WildCard_NonEx,0.311197917,-0.03125,1,0,0,1.0788,optionRight,45,9885,5,9,0,9,0,1,,,,,,,,,,,,,,,,,,,,,,,,,,,,,,,,,,,,,,,
,,,,,,,,2023-08-16_08h27.11.339,HF_wild_card,2022.2.4,Win32,59.95203837,62a0e117625b3e346ccb377f,64d2fd46c836a06233681665,64dc7a4244bd2eb2c4e6c125,,,,,,,sngl,resources/Empty.png,resources/DB.BMP,Door3,0.313802083,-0.02734375,1,0,0,0.978,optionRight,70,9955,5,10,0,10,0,1,,,,,,,,,,,,,,,,,,,,,,,,,,,,,,,,,,,,,,,
,,,,,,,,2023-08-16_08h27.11.339,HF_wild_card,2022.2.4,Win32,59.95203837,62a0e117625b3e346ccb377f,64d2fd46c836a06233681665,64dc7a4244bd2eb2c4e6c125,,,,,,,decisionTrl,resources/DY.BMP,resources/DR.BMP,Door2,0.192708333,-0.095052083,1,0,0,3.0122,optionRight,40,9995,5,11,0,11,0,1,,,,,,,,,,,,,,,,,,,,,,,,,,,,,,,,,,,,,,,
,,,,,,,,2023-08-16_08h27.11.339,HF_wild_card,2022.2.4,Win32,59.95203837,62a0e117625b3e346ccb377f,64d2fd46c836a06233681665,64dc7a4244bd2eb2c4e6c125,,,,,,,decisionTrl,resources/DY.BMP,resources/DR.BMP,Door2,0.2734375,-0.0859375,1,0,0,1.2627,optionRight,20,10015,5,12,0,12,0,1,,,,,,,,,,,,,,,,,,,,,,,,,,,,,,,,,,,,,,,
,,,,,,,,2023-08-16_08h27.11.339,HF_wild_card,2022.2.4,Win32,59.95203837,62a0e117625b3e346ccb377f,64d2fd46c836a06233681665,64dc7a4244bd2eb2c4e6c125,,,,,,,decisionTrl,resources/DB.BMP,resources/DG.BMP,Door3,-0.345052083,-0.063802083,1,0,0,2.0806,optionLeft,70,10085,5,13,0,13,0,1,,,,,,,,,,,,,,,,,,,,,,,,,,,,,,,,,,,,,,,
,,,,,,,,2023-08-16_08h27.11.339,HF_wild_card,2022.2.4,Win32,59.95203837,62a0e117625b3e346ccb377f,64d2fd46c836a06233681665,64dc7a4244bd2eb2c4e6c125,,,,,,,sngl,resources/Empty.png,resources/DP.BMP,Door4,0.2890625,-0.009114583,1,0,0,1.0274,optionRight,60,10145,5,14,0,14,0,1,,,,,,,,,,,,,,,,,,,,,,,,,,,,,,,,,,,,,,,
,,,,,,,,2023-08-16_08h27.11.339,HF_wild_card,2022.2.4,Win32,59.95203837,62a0e117625b3e346ccb377f,64d2fd46c836a06233681665,64dc7a4244bd2eb2c4e6c125,,,,,,,decisionTrl,resources/DP.BMP,resources/DB.BMP,Door3,0.375,-0.063802083,1,0,0,1.4953,optionRight,70,10215,5,15,0,15,0,1,,,,,,,,,,,,,,,,,,,,,,,,,,,,,,,,,,,,,,,
,,,,,,,,2023-08-16_08h27.11.339,HF_wild_card,2022.2.4,Win32,59.95203837,62a0e117625b3e346ccb377f,64d2fd46c836a06233681665,64dc7a4244bd2eb2c4e6c125,,,,,,,sngl,resources/DG.BMP,resources/Empty.png,WildCard_NonEx,-0.313802083,-0.040364583,1,0,0,1.1626,optionLeft,55,10270,5,16,0,16,0,1,,,,,,,,,,,,,,,,,,,,,,,,,,,,,,,,,,,,,,,
,,,,,,,,2023-08-16_08h27.11.339,HF_wild_card,2022.2.4,Win32,59.95203837,62a0e117625b3e346ccb377f,64d2fd46c836a06233681665,64dc7a4244bd2eb2c4e6c125,,,,,,,decisionTrl,resources/DR.BMP,resources/DY.BMP,Door2,-0.33984375,-0.118489583,1,0,0,2.7447,optionLeft,40,10310,5,17,0,17,0,1,,,,,,,,,,,,,,,,,,,,,,,,,,,,,,,,,,,,,,,
,,,,,,,,2023-08-16_08h27.11.339,HF_wild_card,2022.2.4,Win32,59.95203837,62a0e117625b3e346ccb377f,64d2fd46c836a06233681665,64dc7a4244bd2eb2c4e6c125,,,,,,,decisionTrl,resources/DR.BMP,resources/DY.BMP,Door2,-0.26171875,-0.126302083,1,0,0,1.2786,optionLeft,20,10330,5,18,0,18,0,1,,,,,,,,,,,,,,,,,,,,,,,,,,,,,,,,,,,,,,,
,,,,,,,,2023-08-16_08h27.11.339,HF_wild_card,2022.2.4,Win32,59.95203837,62a0e117625b3e346ccb377f,64d2fd46c836a06233681665,64dc7a4244bd2eb2c4e6c125,,,,,,,ctch,resources/DR.BMP,resources/DB.BMP,Door3,0.184895833,-0.032552083,1,0,0,1.8126,optionRight,70,10400,5,19,0,19,0,1,,,,,,,,,,,,,,,,,,,,,,,,,,,,,,,,,,,,,,,
,,,,,,,,2023-08-16_08h27.11.339,HF_wild_card,2022.2.4,Win32,59.95203837,62a0e117625b3e346ccb377f,64d2fd46c836a06233681665,64dc7a4244bd2eb2c4e6c125,,,,,,,decisionTrl,resources/DB.BMP,resources/DP.BMP,Door4,0.296875,-0.079427083,1,0,0,2.6446,optionRight,80,10480,5,20,0,20,0,1,,,,,,,,,,,,,,,,,,,,,,,,,,,,,,,,,,,,,,,
,,,,,,,,2023-08-16_08h27.11.339,HF_wild_card,2022.2.4,Win32,59.95203837,62a0e117625b3e346ccb377f,64d2fd46c836a06233681665,64dc7a4244bd2eb2c4e6c125,,,,,,,decisionTrl,resources/DP.BMP,resources/DB.BMP,Door3,0.1875,-0.03125,1,0,0,1.2793,optionRight,70,10550,5,21,0,21,0,1,,,,,,,,,,,,,,,,,,,,,,,,,,,,,,,,,,,,,,,
,,,,,,,,2023-08-16_08h27.11.339,HF_wild_card,2022.2.4,Win32,59.95203837,62a0e117625b3e346ccb377f,64d2fd46c836a06233681665,64dc7a4244bd2eb2c4e6c125,,,,,,,decisionTrl,resources/DB.BMP,resources/DP.BMP,Door4,0.166666667,-0.016927083,1,0,0,1.0124,optionRight,80,10630,5,22,0,22,0,1,,,,,,,,,,,,,,,,,,,,,,,,,,,,,,,,,,,,,,,
,,,,,,,,2023-08-16_08h27.11.339,HF_wild_card,2022.2.4,Win32,59.95203837,62a0e117625b3e346ccb377f,64d2fd46c836a06233681665,64dc7a4244bd2eb2c4e6c125,,,,,,,decisionTrl,resources/DG.BMP,resources/DB.BMP,Door3,0.203125,-0.022135417,1,0,0,2.0626,optionRight,70,10700,5,23,0,23,0,1,,,,,,,,,,,,,,,,,,,,,,,,,,,,,,,,,,,,,,,
,,,,,,,,2023-08-16_08h27.11.339,HF_wild_card,2022.2.4,Win32,59.95203837,62a0e117625b3e346ccb377f,64d2fd46c836a06233681665,64dc7a4244bd2eb2c4e6c125,,,,,,,decisionTrl,resources/DP.BMP,resources/DG.BMP,Door4,-0.1640625,-0.013020833,1,0,0,3.4626,optionLeft,80,10780,5,24,0,24,0,1,,,,,,,,,,,,,,,,,,,,,,,,,,,,,,,,,,,,,,,
,,,,,,,,2023-08-16_08h27.11.339,HF_wild_card,2022.2.4,Win32,59.95203837,62a0e117625b3e346ccb377f,64d2fd46c836a06233681665,64dc7a4244bd2eb2c4e6c125,,,,,,,ctch,resources/DY.BMP,resources/DP.BMP,Door4,0.220052083,0.037760417,1,0,0,1.8169,optionRight,60,10840,5,25,0,25,0,1,,,,,,,,,,,,,,,,,,,,,,,,,,,,,,,,,,,,,,,
,,,,,,,,2023-08-16_08h27.11.339,HF_wild_card,2022.2.4,Win32,59.95203837,62a0e117625b3e346ccb377f,64d2fd46c836a06233681665,64dc7a4244bd2eb2c4e6c125,,,,,,,decisionTrl,resources/DY.BMP,resources/DR.BMP,Door2,0.17578125,-0.069010417,1,0,0,2.9453,optionRight,20,10860,5,26,0,26,0,1,,,,,,,,,,,,,,,,,,,,,,,,,,,,,,,,,,,,,,,
,,,,,,,,2023-08-16_08h27.11.339,HF_wild_card,2022.2.4,Win32,59.95203837,62a0e117625b3e346ccb377f,64d2fd46c836a06233681665,64dc7a4244bd2eb2c4e6c125,,,,,,,decisionTrl,resources/DR.BMP,resources/DY.BMP,Door2,-0.295572917,-0.03125,1,0,0,1.6795,optionLeft,40,10900,5,27,0,27,0,1,,,,,,,,,,,,,,,,,,,,,,,,,,,,,,,,,,,,,,,
,,,,,,,,2023-08-16_08h27.11.339,HF_wild_card,2022.2.4,Win32,59.95203837,62a0e117625b3e346ccb377f,64d2fd46c836a06233681665,64dc7a4244bd2eb2c4e6c125,,,,,,,decisionTrl,resources/DB.BMP,resources/DP.BMP,Door4,0.173177083,-0.0078125,1,0,0,2.0179,optionRight,60,10960,5,28,0,28,0,1,,,,,,,,,,,,,,,,,,,,,,,,,,,,,,,,,,,,,,,
,,,,,,,,2023-08-16_08h27.11.339,HF_wild_card,2022.2.4,Win32,59.95203837,62a0e117625b3e346ccb377f,64d2fd46c836a06233681665,64dc7a4244bd2eb2c4e6c125,,,,,,,decisionTrl,resources/DY.BMP,resources/DR.BMP,Door2,0.171875,-0.04296875,1,0,0,2.4485,optionRight,20,10980,5,29,0,29,0,1,,,,,,,,,,,,,,,,,,,,,,,,,,,,,,,,,,,,,,,
,,,,,,,,2023-08-16_08h27.11.339,HF_wild_card,2022.2.4,Win32,59.95203837,62a0e117625b3e346ccb377f,64d2fd46c836a06233681665,64dc7a4244bd2eb2c4e6c125,,,,,,,ctch,resources/DB.BMP,resources/DR.BMP,Door3,-0.2421875,0.010416667,1,0,0,1.7624,optionLeft,70,11050,5,30,0,30,0,1,,,,,,,,,,,,,,,,,,,,,,,,,,,,,,,,,,,,,,,
,,,,,,,,2023-08-16_08h27.11.339,HF_wild_card,2022.2.4,Win32,59.95203837,62a0e117625b3e346ccb377f,64d2fd46c836a06233681665,64dc7a4244bd2eb2c4e6c125,,,,,,,ctch,resources/DR.BMP,resources/DB.BMP,Door3,0.200520833,-0.014322917,1,0,0,1.0125,optionRight,70,11120,5,31,0,31,0,1,,,,,,,,,,,,,,,,,,,,,,,,,,,,,,,,,,,,,,,
,,,,,,,,2023-08-16_08h27.11.339,HF_wild_card,2022.2.4,Win32,59.95203837,62a0e117625b3e346ccb377f,64d2fd46c836a06233681665,64dc7a4244bd2eb2c4e6c125,,,,,,,sngl,resources/Empty.png,resources/DY.BMP,Door1,0.2578125,-0.049479167,1,0,0,1.6277,optionRight,30,11150,5,32,0,32,0,1,,,,,,,,,,,,,,,,,,,,,,,,,,,,,,,,,,,,,,,
,,,,,,,,2023-08-16_08h27.11.339,HF_wild_card,2022.2.4,Win32,59.95203837,62a0e117625b3e346ccb377f,64d2fd46c836a06233681665,64dc7a4244bd2eb2c4e6c125,,,,,,,sngl,resources/DB.BMP,resources/Empty.png,Door3,-0.244791667,0.02734375,1,0,0,1.4785,optionLeft,70,11220,5,33,0,33,0,1,,,,,,,,,,,,,,,,,,,,,,,,,,,,,,,,,,,,,,,
,,,,,,,,2023-08-16_08h27.11.339,HF_wild_card,2022.2.4,Win32,59.95203837,62a0e117625b3e346ccb377f,64d2fd46c836a06233681665,64dc7a4244bd2eb2c4e6c125,,,,,,,decisionTrl,resources/DG.BMP,resources/DY.BMP,WildCard_NonEx,-0.265625,0.00390625,1,0,0,2.0459,optionLeft,45,11265,5,34,0,34,0,1,,,,,,,,,,,,,,,,,,,,,,,,,,,,,,,,,,,,,,,
,,,,,,,,2023-08-16_08h27.11.339,HF_wild_card,2022.2.4,Win32,59.95203837,62a0e117625b3e346ccb377f,64d2fd46c836a06233681665,64dc7a4244bd2eb2c4e6c125,,,,,,,sngl,resources/Empty.png,resources/DR.BMP,Door2,0.208333333,-0.013020833,1,0,0,0.9625,optionRight,20,11285,5,35,0,35,0,1,,,,,,,,,,,,,,,,,,,,,,,,,,,,,,,,,,,,,,,
,,,,,,,,2023-08-16_08h27.11.339,HF_wild_card,2022.2.4,Win32,59.95203837,62a0e117625b3e346ccb377f,64d2fd46c836a06233681665,64dc7a4244bd2eb2c4e6c125,,,,,,,decisionTrl,resources/DB.BMP,resources/DP.BMP,Door4,0.196614583,-0.022135417,1,0,0,2.029,optionRight,60,11345,5,36,0,36,0,1,,,,,,,,,,,,,,,,,,,,,,,,,,,,,,,,,,,,,,,
,,,,,,,,2023-08-16_08h27.11.339,HF_wild_card,2022.2.4,Win32,59.95203837,62a0e117625b3e346ccb377f,64d2fd46c836a06233681665,64dc7a4244bd2eb2c4e6c125,,,,,,,sngl,resources/DP.BMP,resources/Empty.png,Door4,-0.26171875,-0.098958333,1,0,0,1.1828,optionLeft,80,11425,5,37,0,37,0,1,,,,,,,,,,,,,,,,,,,,,,,,,,,,,,,,,,,,,,,
,,,,,,,,2023-08-16_08h27.11.339,HF_wild_card,2022.2.4,Win32,59.95203837,62a0e117625b3e346ccb377f,64d2fd46c836a06233681665,64dc7a4244bd2eb2c4e6c125,,,,,,,decisionTrl,resources/DG.BMP,resources/DP.BMP,Door4,0.18359375,0.006510417,1,0,0,1.3628,optionRight,60,11485,5,38,0,38,0,1,,,,,,,,,,,,,,,,,,,,,,,,,,,,,,,,,,,,,,,
,,,,,,,,2023-08-16_08h27.11.339,HF_wild_card,2022.2.4,Win32,59.95203837,62a0e117625b3e346ccb377f,64d2fd46c836a06233681665,64dc7a4244bd2eb2c4e6c125,,,,,,,decisionTrl,resources/DP.BMP,resources/DB.BMP,Door3,0.149739583,0.014322917,1,0,0,1.479,optionRight,70,11555,5,39,0,39,0,1,,,,,,,,,,,,,,,,,,,,,,,,,,,,,,,,,,,,,,,
,,,,,,,,2023-08-16_08h27.11.339,HF_wild_card,2022.2.4,Win32,59.95203837,62a0e117625b3e346ccb377f,64d2fd46c836a06233681665,64dc7a4244bd2eb2c4e6c125,,,,,,,ctch,resources/DY.BMP,resources/DP.BMP,Door4,0.149739583,-0.013020833,1,0,0,1.2625,optionRight,60,11615,5,40,0,40,0,1,,,,,,,,,,,,,,,,,,,,,,,,,,,,,,,,,,,,,,,
,,,,,,,,2023-08-16_08h27.11.339,HF_wild_card,2022.2.4,Win32,59.95203837,62a0e117625b3e346ccb377f,64d2fd46c836a06233681665,64dc7a4244bd2eb2c4e6c125,,,,,,,decisionTrl,resources/DY.BMP,resources/DG.BMP,WildCard_NonEx,0.346354167,-0.010416667,1,0,0,1.4959,optionRight,55,11670,5,41,0,41,0,1,,,,,,,,,,,,,,,,,,,,,,,,,,,,,,,,,,,,,,,
,,,,,,,,2023-08-16_08h27.11.339,HF_wild_card,2022.2.4,Win32,59.95203837,62a0e117625b3e346ccb377f,64d2fd46c836a06233681665,64dc7a4244bd2eb2c4e6c125,,,,,,,decisionTrl,resources/DR.BMP,resources/DG.BMP,WildCard_NonEx,0.298177083,0.013020833,1,0,0,1.6293,optionRight,45,11715,5,42,0,42,0,1,,,,,,,,,,,,,,,,,,,,,,,,,,,,,,,,,,,,,,,
,,,,,,,,2023-08-16_08h27.11.339,HF_wild_card,2022.2.4,Win32,59.95203837,62a0e117625b3e346ccb377f,64d2fd46c836a06233681665,64dc7a4244bd2eb2c4e6c125,,,,,,,ctch,resources/DP.BMP,resources/DY.BMP,Door4,-0.278645833,-0.067708333,1,0,0,1.8613,optionLeft,60,11775,5,43,0,43,0,1,,,,,,,,,,,,,,,,,,,,,,,,,,,,,,,,,,,,,,,
,,,,,,,,2023-08-16_08h27.11.339,HF_wild_card,2022.2.4,Win32,59.95203837,62a0e117625b3e346ccb377f,64d2fd46c836a06233681665,64dc7a4244bd2eb2c4e6c125,,,,,,,,,,,,,,,,,,,,,,,,,,4,0,4,0,1,,,,,,,,,,,,,,,,,,,,,,,,,,,,,,,,,,
,,,,,,,,2023-08-16_08h27.11.339,HF_wild_card,2022.2.4,Win32,59.95203837,62a0e117625b3e346ccb377f,64d2fd46c836a06233681665,64dc7a4244bd2eb2c4e6c125,,,,,,,sngl,resources/Empty.png,resources/DG.BMP,WildCard_NonEx,0.58984375,-0.001302083,1,0,0,1.2413,optionRight,55,11830,6,0,0,0,0,1,,,,,,,,,,,,,,,,,,,,,,,,,,,,,,,,,,,,,,,
,,,,,,,,2023-08-16_08h27.11.339,HF_wild_card,2022.2.4,Win32,59.95203837,62a0e117625b3e346ccb377f,64d2fd46c836a06233681665,64dc7a4244bd2eb2c4e6c125,,,,,,,decisionTrl,resources/DB.BMP,resources/DP.BMP,Door4,0.38671875,-0.03125,1,0,0,1.5914,optionRight,80,11910,6,1,0,1,0,1,,,,,,,,,,,,,,,,,,,,,,,,,,,,,,,,,,,,,,,
,,,,,,,,2023-08-16_08h27.11.339,HF_wild_card,2022.2.4,Win32,59.95203837,62a0e117625b3e346ccb377f,64d2fd46c836a06233681665,64dc7a4244bd2eb2c4e6c125,,,,,,,decisionTrl,resources/DB.BMP,resources/DP.BMP,Door4,0.234375,-0.005208333,1,0,0,0.9792,optionRight,60,11970,6,2,0,2,0,1,,,,,,,,,,,,,,,,,,,,,,,,,,,,,,,,,,,,,,,
,,,,,,,,2023-08-16_08h27.11.339,HF_wild_card,2022.2.4,Win32,59.95203837,62a0e117625b3e346ccb377f,64d2fd46c836a06233681665,64dc7a4244bd2eb2c4e6c125,,,,,,,decisionTrl,resources/DR.BMP,resources/DY.BMP,Door2,-0.177083333,-0.072916667,1,0,0,1.4619,optionLeft,20,11990,6,3,0,3,0,1,,,,,,,,,,,,,,,,,,,,,,,,,,,,,,,,,,,,,,,
,,,,,,,,2023-08-16_08h27.11.339,HF_wild_card,2022.2.4,Win32,59.95203837,62a0e117625b3e346ccb377f,64d2fd46c836a06233681665,64dc7a4244bd2eb2c4e6c125,,,,,,,decisionTrl,resources/DR.BMP,resources/DY.BMP,Door1,0.141927083,0.006510417,1,0,0,1.3623,optionRight,30,12020,6,4,0,4,0,1,,,,,,,,,,,,,,,,,,,,,,,,,,,,,,,,,,,,,,,
,,,,,,,,2023-08-16_08h27.11.339,HF_wild_card,2022.2.4,Win32,59.95203837,62a0e117625b3e346ccb377f,64d2fd46c836a06233681665,64dc7a4244bd2eb2c4e6c125,,,,,,,decisionTrl,resources/DB.BMP,resources/DP.BMP,Door4,0.138020833,-0.0390625,1,0,0,1.379,optionRight,80,12100,6,5,0,5,0,1,,,,,,,,,,,,,,,,,,,,,,,,,,,,,,,,,,,,,,,
,,,,,,,,2023-08-16_08h27.11.339,HF_wild_card,2022.2.4,Win32,59.95203837,62a0e117625b3e346ccb377f,64d2fd46c836a06233681665,64dc7a4244bd2eb2c4e6c125,,,,,,,sngl,resources/Empty.png,resources/DR.BMP,Door2,0.2265625,-0.002604167,1,0,0,1.0609,optionRight,40,12140,6,6,0,6,0,1,,,,,,,,,,,,,,,,,,,,,,,,,,,,,,,,,,,,,,,
,,,,,,,,2023-08-16_08h27.11.339,HF_wild_card,2022.2.4,Win32,59.95203837,62a0e117625b3e346ccb377f,64d2fd46c836a06233681665,64dc7a4244bd2eb2c4e6c125,,,,,,,decisionTrl,resources/DP.BMP,resources/DB.BMP,Door3,0.397135417,-0.078125,1,0,0,1.3955,optionRight,70,12210,6,7,0,7,0,1,,,,,,,,,,,,,,,,,,,,,,,,,,,,,,,,,,,,,,,
,,,,,,,,2023-08-16_08h27.11.339,HF_wild_card,2022.2.4,Win32,59.95203837,62a0e117625b3e346ccb377f,64d2fd46c836a06233681665,64dc7a4244bd2eb2c4e6c125,,,,,,,sngl,resources/Empty.png,resources/DP.BMP,Door4,0.346354167,-0.078125,1,0,0,0.9452,optionRight,80,12290,6,8,0,8,0,1,,,,,,,,,,,,,,,,,,,,,,,,,,,,,,,,,,,,,,,
,,,,,,,,2023-08-16_08h27.11.339,HF_wild_card,2022.2.4,Win32,59.95203837,62a0e117625b3e346ccb377f,64d2fd46c836a06233681665,64dc7a4244bd2eb2c4e6c125,,,,,,,decisionTrl,resources/DG.BMP,resources/DR.BMP,WildCard_NonEx,-0.373697917,0.016927083,1,0,0,7.5296,optionLeft,55,12345,6,9,0,9,0,1,,,,,,,,,,,,,,,,,,,,,,,,,,,,,,,,,,,,,,,
,,,,,,,,2023-08-16_08h27.11.339,HF_wild_card,2022.2.4,Win32,59.95203837,62a0e117625b3e346ccb377f,64d2fd46c836a06233681665,64dc7a4244bd2eb2c4e6c125,,,,,,,sngl,resources/DB.BMP,resources/Empty.png,Door3,-0.407552083,-0.076822917,1,0,0,1.1484,optionLeft,70,12415,6,10,0,10,0,1,,,,,,,,,,,,,,,,,,,,,,,,,,,,,,,,,,,,,,,
,,,,,,,,2023-08-16_08h27.11.339,HF_wild_card,2022.2.4,Win32,59.95203837,62a0e117625b3e346ccb377f,64d2fd46c836a06233681665,64dc7a4244bd2eb2c4e6c125,,,,,,,decisionTrl,resources/DG.BMP,resources/DB.BMP,Door3,0.243489583,-0.0859375,1,0,0,1.7626,optionRight,70,12485,6,11,0,11,0,1,,,,,,,,,,,,,,,,,,,,,,,,,,,,,,,,,,,,,,,
,,,,,,,,2023-08-16_08h27.11.339,HF_wild_card,2022.2.4,Win32,59.95203837,62a0e117625b3e346ccb377f,64d2fd46c836a06233681665,64dc7a4244bd2eb2c4e6c125,,,,,,,decisionTrl,resources/DY.BMP,resources/DG.BMP,WildCard_NonEx,0.203125,0,1,0,0,1.1957,optionRight,55,12540,6,12,0,12,0,1,,,,,,,,,,,,,,,,,,,,,,,,,,,,,,,,,,,,,,,
,,,,,,,,2023-08-16_08h27.11.339,HF_wild_card,2022.2.4,Win32,59.95203837,62a0e117625b3e346ccb377f,64d2fd46c836a06233681665,64dc7a4244bd2eb2c4e6c125,,,,,,,decisionTrl,resources/DP.BMP,resources/DG.BMP,Door4,-0.337239583,-0.080729167,1,0,0,2.0958,optionLeft,80,12620,6,13,0,13,0,1,,,,,,,,,,,,,,,,,,,,,,,,,,,,,,,,,,,,,,,
,,,,,,,,2023-08-16_08h27.11.339,HF_wild_card,2022.2.4,Win32,59.95203837,62a0e117625b3e346ccb377f,64d2fd46c836a06233681665,64dc7a4244bd2eb2c4e6c125,,,,,,,sngl,resources/DY.BMP,resources/Empty.png,Door1,-0.229166667,-0.036458333,1,0,0,1.0457,optionLeft,30,12650,6,14,0,14,0,1,,,,,,,,,,,,,,,,,,,,,,,,,,,,,,,,,,,,,,,
,,,,,,,,2023-08-16_08h27.11.339,HF_wild_card,2022.2.4,Win32,59.95203837,62a0e117625b3e346ccb377f,64d2fd46c836a06233681665,64dc7a4244bd2eb2c4e6c125,,,,,,,sngl,resources/DR.BMP,resources/Empty.png,Door2,-0.395833333,-0.071614583,1,0,0,2.0126,optionLeft,20,12670,6,15,0,15,0,1,,,,,,,,,,,,,,,,,,,,,,,,,,,,,,,,,,,,,,,
,,,,,,,,2023-08-16_08h27.11.339,HF_wild_card,2022.2.4,Win32,59.95203837,62a0e117625b3e346ccb377f,64d2fd46c836a06233681665,64dc7a4244bd2eb2c4e6c125,,,,,,,sngl,resources/DP.BMP,resources/Empty.png,Door4,-0.403645833,-0.076822917,1,0,0,1.1794,optionLeft,60,12730,6,16,0,16,0,1,,,,,,,,,,,,,,,,,,,,,,,,,,,,,,,,,,,,,,,
,,,,,,,,2023-08-16_08h27.11.339,HF_wild_card,2022.2.4,Win32,59.95203837,62a0e117625b3e346ccb377f,64d2fd46c836a06233681665,64dc7a4244bd2eb2c4e6c125,,,,,,,sngl,resources/Empty.png,resources/DG.BMP,WildCard_NonEx,0.365885417,0.018229167,1,0,0,0.9121,optionRight,45,12775,6,17,0,17,0,1,,,,,,,,,,,,,,,,,,,,,,,,,,,,,,,,,,,,,,,
,,,,,,,,2023-08-16_08h27.11.339,HF_wild_card,2022.2.4,Win32,59.95203837,62a0e117625b3e346ccb377f,64d2fd46c836a06233681665,64dc7a4244bd2eb2c4e6c125,,,,,,,decisionTrl,resources/DG.BMP,resources/DP.BMP,Door4,0.247395833,-0.028645833,1,0,0,2.559,optionRight,60,12835,6,18,0,18,0,1,,,,,,,,,,,,,,,,,,,,,,,,,,,,,,,,,,,,,,,
,,,,,,,,2023-08-16_08h27.11.339,HF_wild_card,2022.2.4,Win32,59.95203837,62a0e117625b3e346ccb377f,64d2fd46c836a06233681665,64dc7a4244bd2eb2c4e6c125,,,,,,,decisionTrl,resources/DR.BMP,resources/DG.BMP,WildCard_NonEx,0.19921875,-0.005208333,1,0,0,1.1125,optionRight,45,12880,6,19,0,19,0,1,,,,,,,,,,,,,,,,,,,,,,,,,,,,,,,,,,,,,,,
,,,,,,,,2023-08-16_08h27.11.339,HF_wild_card,2022.2.4,Win32,59.95203837,62a0e117625b3e346ccb377f,64d2fd46c836a06233681665,64dc7a4244bd2eb2c4e6c125,,,,,,,decisionTrl,resources/DR.BMP,resources/DY.BMP,Door1,0.291666667,-0.040364583,1,0,0,3.1289,optionRight,30,12910,6,20,0,20,0,1,,,,,,,,,,,,,,,,,,,,,,,,,,,,,,,,,,,,,,,
,,,,,,,,2023-08-16_08h27.11.339,HF_wild_card,2022.2.4,Win32,59.95203837,62a0e117625b3e346ccb377f,64d2fd46c836a06233681665,64dc7a4244bd2eb2c4e6c125,,,,,,,decisionTrl,resources/DY.BMP,resources/DR.BMP,Door1,-0.235677083,-0.06640625,1,0,0,1.1786,optionLeft,30,12940,6,21,0,21,0,1,,,,,,,,,,,,,,,,,,,,,,,,,,,,,,,,,,,,,,,
,,,,,,,,2023-08-16_08h27.11.339,HF_wild_card,2022.2.4,Win32,59.95203837,62a0e117625b3e346ccb377f,64d2fd46c836a06233681665,64dc7a4244bd2eb2c4e6c125,,,,,,,decisionTrl,resources/DY.BMP,resources/DR.BMP,Door1,-0.235677083,-0.098958333,1,0,0,1.4114,optionLeft,30,12970,6,22,0,22,0,1,,,,,,,,,,,,,,,,,,,,,,,,,,,,,,,,,,,,,,,
,,,,,,,,2023-08-16_08h27.11.339,HF_wild_card,2022.2.4,Win32,59.95203837,62a0e117625b3e346ccb377f,64d2fd46c836a06233681665,64dc7a4244bd2eb2c4e6c125,,,,,,,ctch,resources/DR.BMP,resources/DB.BMP,Door3,0.256510417,-0.067708333,1,0,0,1.4124,optionRight,70,13040,6,23,0,23,0,1,,,,,,,,,,,,,,,,,,,,,,,,,,,,,,,,,,,,,,,
,,,,,,,,2023-08-16_08h27.11.339,HF_wild_card,2022.2.4,Win32,59.95203837,62a0e117625b3e346ccb377f,64d2fd46c836a06233681665,64dc7a4244bd2eb2c4e6c125,,,,,,,decisionTrl,resources/DB.BMP,resources/DG.BMP,Door3,-0.31640625,-0.10546875,1,0,0,1.7955,optionLeft,70,13110,6,24,0,24,0,1,,,,,,,,,,,,,,,,,,,,,,,,,,,,,,,,,,,,,,,
,,,,,,,,2023-08-16_08h27.11.339,HF_wild_card,2022.2.4,Win32,59.95203837,62a0e117625b3e346ccb377f,64d2fd46c836a06233681665,64dc7a4244bd2eb2c4e6c125,,,,,,,decisionTrl,resources/DP.BMP,resources/DB.BMP,Door3,0.270833333,-0.002604167,1,0,0,1.9783,optionRight,70,13180,6,25,0,25,0,1,,,,,,,,,,,,,,,,,,,,,,,,,,,,,,,,,,,,,,,
,,,,,,,,2023-08-16_08h27.11.339,HF_wild_card,2022.2.4,Win32,59.95203837,62a0e117625b3e346ccb377f,64d2fd46c836a06233681665,64dc7a4244bd2eb2c4e6c125,,,,,,,decisionTrl,resources/DR.BMP,resources/DY.BMP,Door2,-0.338541667,-0.05078125,1,0,0,2.0956,optionLeft,20,13200,6,26,0,26,0,1,,,,,,,,,,,,,,,,,,,,,,,,,,,,,,,,,,,,,,,
,,,,,,,,2023-08-16_08h27.11.339,HF_wild_card,2022.2.4,Win32,59.95203837,62a0e117625b3e346ccb377f,64d2fd46c836a06233681665,64dc7a4244bd2eb2c4e6c125,,,,,,,ctch,resources/DP.BMP,resources/DY.BMP,Door4,-0.252604167,-0.07421875,1,0,0,3.0794,optionLeft,80,13280,6,27,0,27,0,1,,,,,,,,,,,,,,,,,,,,,,,,,,,,,,,,,,,,,,,
,,,,,,,,2023-08-16_08h27.11.339,HF_wild_card,2022.2.4,Win32,59.95203837,62a0e117625b3e346ccb377f,64d2fd46c836a06233681665,64dc7a4244bd2eb2c4e6c125,,,,,,,decisionTrl,resources/DB.BMP,resources/DP.BMP,Door4,0.140625,-0.022135417,1,0,0,1.6788,optionRight,60,13340,6,28,0,28,0,1,,,,,,,,,,,,,,,,,,,,,,,,,,,,,,,,,,,,,,,
,,,,,,,,2023-08-16_08h27.11.339,HF_wild_card,2022.2.4,Win32,59.95203837,62a0e117625b3e346ccb377f,64d2fd46c836a06233681665,64dc7a4244bd2eb2c4e6c125,,,,,,,ctch,resources/DB.BMP,resources/DR.BMP,Door3,-0.4609375,-0.151041667,1,0,0,1.3617,optionLeft,70,13410,6,29,0,29,0,1,,,,,,,,,,,,,,,,,,,,,,,,,,,,,,,,,,,,,,,
,,,,,,,,2023-08-16_08h27.11.339,HF_wild_card,2022.2.4,Win32,59.95203837,62a0e117625b3e346ccb377f,64d2fd46c836a06233681665,64dc7a4244bd2eb2c4e6c125,,,,,,,decisionTrl,resources/DP.BMP,resources/DB.BMP,Door3,0.270833333,0.01171875,1,0,0,1.4453,optionRight,70,13480,6,30,0,30,0,1,,,,,,,,,,,,,,,,,,,,,,,,,,,,,,,,,,,,,,,
,,,,,,,,2023-08-16_08h27.11.339,HF_wild_card,2022.2.4,Win32,59.95203837,62a0e117625b3e346ccb377f,64d2fd46c836a06233681665,64dc7a4244bd2eb2c4e6c125,,,,,,,sngl,resources/DG.BMP,resources/Empty.png,WildCard_NonEx,-0.330729167,-0.041666667,1,0,0,0.9669,optionLeft,55,13535,6,31,0,31,0,1,,,,,,,,,,,,,,,,,,,,,,,,,,,,,,,,,,,,,,,
,,,,,,,,2023-08-16_08h27.11.339,HF_wild_card,2022.2.4,Win32,59.95203837,62a0e117625b3e346ccb377f,64d2fd46c836a06233681665,64dc7a4244bd2eb2c4e6c125,,,,,,,ctch,resources/DY.BMP,resources/DP.BMP,Door4,0.333333333,-0.020833333,1,0,0,1.7609,optionRight,60,13595,6,32,0,32,0,1,,,,,,,,,,,,,,,,,,,,,,,,,,,,,,,,,,,,,,,
,,,,,,,,2023-08-16_08h27.11.339,HF_wild_card,2022.2.4,Win32,59.95203837,62a0e117625b3e346ccb377f,64d2fd46c836a06233681665,64dc7a4244bd2eb2c4e6c125,,,,,,,decisionTrl,resources/DP.BMP,resources/DB.BMP,Door3,0.268229167,0.00390625,1,0,0,8.0627,optionRight,70,13665,6,33,0,33,0,1,,,,,,,,,,,,,,,,,,,,,,,,,,,,,,,,,,,,,,,
,,,,,,,,2023-08-16_08h27.11.339,HF_wild_card,2022.2.4,Win32,59.95203837,62a0e117625b3e346ccb377f,64d2fd46c836a06233681665,64dc7a4244bd2eb2c4e6c125,,,,,,,sngl,resources/Empty.png,resources/DY.BMP,Door1,0.3671875,-0.0234375,1,0,0,1.0277,optionRight,30,13695,6,34,0,34,0,1,,,,,,,,,,,,,,,,,,,,,,,,,,,,,,,,,,,,,,,
,,,,,,,,2023-08-16_08h27.11.339,HF_wild_card,2022.2.4,Win32,59.95203837,62a0e117625b3e346ccb377f,64d2fd46c836a06233681665,64dc7a4244bd2eb2c4e6c125,,,,,,,decisionTrl,resources/DG.BMP,resources/DY.BMP,WildCard_NonEx,-0.458333333,-0.119791667,1,0,0,1.4786,optionLeft,45,13740,6,35,0,35,0,1,,,,,,,,,,,,,,,,,,,,,,,,,,,,,,,,,,,,,,,
,,,,,,,,2023-08-16_08h27.11.339,HF_wild_card,2022.2.4,Win32,59.95203837,62a0e117625b3e346ccb377f,64d2fd46c836a06233681665,64dc7a4244bd2eb2c4e6c125,,,,,,,decisionTrl,resources/DY.BMP,resources/DR.BMP,Door2,0.19140625,-0.016927083,1,0,0,2.8117,optionRight,20,13760,6,36,0,36,0,1,,,,,,,,,,,,,,,,,,,,,,,,,,,,,,,,,,,,,,,
,,,,,,,,2023-08-16_08h27.11.339,HF_wild_card,2022.2.4,Win32,59.95203837,62a0e117625b3e346ccb377f,64d2fd46c836a06233681665,64dc7a4244bd2eb2c4e6c125,,,,,,,sngl,resources/DG.BMP,resources/Empty.png,WildCard_NonEx,-0.407552083,-0.08203125,1,0,0,1.0292,optionLeft,45,13805,6,37,0,37,0,1,,,,,,,,,,,,,,,,,,,,,,,,,,,,,,,,,,,,,,,
,,,,,,,,2023-08-16_08h27.11.339,HF_wild_card,2022.2.4,Win32,59.95203837,62a0e117625b3e346ccb377f,64d2fd46c836a06233681665,64dc7a4244bd2eb2c4e6c125,,,,,,,ctch,resources/DR.BMP,resources/DB.BMP,Door3,0.0078125,-0.022135417,1,0,0,0.1285,optionRight,70,13875,6,38,0,38,0,1,,,,,,,,,,,,,,,,,,,,,,,,,,,,,,,,,,,,,,,
,,,,,,,,2023-08-16_08h27.11.339,HF_wild_card,2022.2.4,Win32,59.95203837,62a0e117625b3e346ccb377f,64d2fd46c836a06233681665,64dc7a4244bd2eb2c4e6c125,,,,,,,ctch,resources/DB.BMP,resources/DR.BMP,Door3,-0.223958333,-0.069010417,1,0,0,1.0616,optionLeft,70,13945,6,39,0,39,0,1,,,,,,,,,,,,,,,,,,,,,,,,,,,,,,,,,,,,,,,
,,,,,,,,2023-08-16_08h27.11.339,HF_wild_card,2022.2.4,Win32,59.95203837,62a0e117625b3e346ccb377f,64d2fd46c836a06233681665,64dc7a4244bd2eb2c4e6c125,,,,,,,decisionTrl,resources/DY.BMP,resources/DR.BMP,Door1,-0.25390625,-0.06640625,1,0,0,3.0479,optionLeft,30,13975,6,40,0,40,0,1,,,,,,,,,,,,,,,,,,,,,,,,,,,,,,,,,,,,,,,
,,,,,,,,2023-08-16_08h27.11.339,HF_wild_card,2022.2.4,Win32,59.95203837,62a0e117625b3e346ccb377f,64d2fd46c836a06233681665,64dc7a4244bd2eb2c4e6c125,,,,,,,ctch,resources/DY.BMP,resources/DP.BMP,Door4,0.274739583,-0.022135417,1,0,0,1.3574,optionRight,60,14035,6,41,0,41,0,1,,,,,,,,,,,,,,,,,,,,,,,,,,,,,,,,,,,,,,,
,,,,,,,,2023-08-16_08h27.11.339,HF_wild_card,2022.2.4,Win32,59.95203837,62a0e117625b3e346ccb377f,64d2fd46c836a06233681665,64dc7a4244bd2eb2c4e6c125,,,,,,,sngl,resources/Empty.png,resources/DB.BMP,Door3,0.3203125,-0.026041667,1,0,0,0.9589,optionRight,70,14105,6,42,0,42,0,1,,,,,,,,,,,,,,,,,,,,,,,,,,,,,,,,,,,,,,,
,,,,,,,,2023-08-16_08h27.11.339,HF_wild_card,2022.2.4,Win32,59.95203837,62a0e117625b3e346ccb377f,64d2fd46c836a06233681665,64dc7a4244bd2eb2c4e6c125,,,,,,,ctch,resources/DP.BMP,resources/DY.BMP,Door4,-0.325520833,-0.0390625,1,0,0,1.4478,optionLeft,60,14165,6,43,0,43,0,1,,,,,,,,,,,,,,,,,,,,,,,,,,,,,,,,,,,,,,,
,,,,,,,,2023-08-16_08h27.11.339,HF_wild_card,2022.2.4,Win32,59.95203837,62a0e117625b3e346ccb377f,64d2fd46c836a06233681665,64dc7a4244bd2eb2c4e6c125,,,,,,,,,,,,,,,,,,,,,,,,,,5,0,5,0,1,,,,,,,,,,,,,,,,,,,,,,,,,,,,,,,,,,
,,,,,,,,2023-08-16_08h27.11.339,HF_wild_card,2022.2.4,Win32,59.95203837,62a0e117625b3e346ccb377f,64d2fd46c836a06233681665,64dc7a4244bd2eb2c4e6c125,,,,,,,decisionTrl,resources/DB.BMP,resources/DP.BMP,Door4,0.221354167,-0.201822917,1,0,0,1.6564,optionRight,60,14225,7,0,0,0,0,1,,,,,,,,,,,,,,,,,,,,,,,,,,,,,,,,,,,,,,,
,,,,,,,,2023-08-16_08h27.11.339,HF_wild_card,2022.2.4,Win32,59.95203837,62a0e117625b3e346ccb377f,64d2fd46c836a06233681665,64dc7a4244bd2eb2c4e6c125,,,,,,,ctch,resources/DP.BMP,resources/DY.BMP,Door4,-0.248697917,-0.032552083,1,0,0,1.5836,optionLeft,60,14285,7,1,0,1,0,1,,,,,,,,,,,,,,,,,,,,,,,,,,,,,,,,,,,,,,,
,,,,,,,,2023-08-16_08h27.11.339,HF_wild_card,2022.2.4,Win32,59.95203837,62a0e117625b3e346ccb377f,64d2fd46c836a06233681665,64dc7a4244bd2eb2c4e6c125,,,,,,,decisionTrl,resources/DR.BMP,resources/DY.BMP,Door1,0.303385417,-0.010416667,1,0,0,2.4479,optionRight,30,14315,7,2,0,2,0,1,,,,,,,,,,,,,,,,,,,,,,,,,,,,,,,,,,,,,,,
,,,,,,,,2023-08-16_08h27.11.339,HF_wild_card,2022.2.4,Win32,59.95203837,62a0e117625b3e346ccb377f,64d2fd46c836a06233681665,64dc7a4244bd2eb2c4e6c125,,,,,,,decisionTrl,resources/DY.BMP,resources/DR.BMP,Door1,-0.2109375,0.0078125,1,0,0,1.53,optionLeft,30,14345,7,3,0,3,0,1,,,,,,,,,,,,,,,,,,,,,,,,,,,,,,,,,,,,,,,
,,,,,,,,2023-08-16_08h27.11.339,HF_wild_card,2022.2.4,Win32,59.95203837,62a0e117625b3e346ccb377f,64d2fd46c836a06233681665,64dc7a4244bd2eb2c4e6c125,,,,,,,decisionTrl,resources/DR.BMP,resources/DY.BMP,Door1,0.266927083,0.00390625,1,0,0,1.547,optionRight,30,14375,7,4,0,4,0,1,,,,,,,,,,,,,,,,,,,,,,,,,,,,,,,,,,,,,,,
,,,,,,,,2023-08-16_08h27.11.339,HF_wild_card,2022.2.4,Win32,59.95203837,62a0e117625b3e346ccb377f,64d2fd46c836a06233681665,64dc7a4244bd2eb2c4e6c125,,,,,,,ctch,resources/DB.BMP,resources/DR.BMP,Door3,-0.227864583,0.005208333,1,0,0,1.4299,optionLeft,70,14445,7,5,0,5,0,1,,,,,,,,,,,,,,,,,,,,,,,,,,,,,,,,,,,,,,,
,,,,,,,,2023-08-16_08h27.11.339,HF_wild_card,2022.2.4,Win32,59.95203837,62a0e117625b3e346ccb377f,64d2fd46c836a06233681665,64dc7a4244bd2eb2c4e6c125,,,,,,,decisionTrl,resources/DR.BMP,resources/DY.BMP,Door1,0.166666667,-0.01953125,1,0,0,1.4968,optionRight,30,14475,7,6,0,6,0,1,,,,,,,,,,,,,,,,,,,,,,,,,,,,,,,,,,,,,,,
,,,,,,,,2023-08-16_08h27.11.339,HF_wild_card,2022.2.4,Win32,59.95203837,62a0e117625b3e346ccb377f,64d2fd46c836a06233681665,64dc7a4244bd2eb2c4e6c125,,,,,,,decisionTrl,resources/DB.BMP,resources/DP.BMP,Door4,0.235677083,-0.013020833,1,0,0,3.3994,optionRight,80,14555,7,7,0,7,0,1,,,,,,,,,,,,,,,,,,,,,,,,,,,,,,,,,,,,,,,
,,,,,,,,2023-08-16_08h27.11.339,HF_wild_card,2022.2.4,Win32,59.95203837,62a0e117625b3e346ccb377f,64d2fd46c836a06233681665,64dc7a4244bd2eb2c4e6c125,,,,,,,decisionTrl,resources/DB.BMP,resources/DP.BMP,Door3,-0.264322917,-0.018229167,1,0,0,2.6029,optionLeft,70,14625,7,8,0,8,0,1,,,,,,,,,,,,,,,,,,,,,,,,,,,,,,,,,,,,,,,
,,,,,,,,2023-08-16_08h27.11.339,HF_wild_card,2022.2.4,Win32,59.95203837,62a0e117625b3e346ccb377f,64d2fd46c836a06233681665,64dc7a4244bd2eb2c4e6c125,,,,,,,decisionTrl,resources/DP.BMP,resources/DB.BMP,Door3,0.291666667,-0.041666667,1,0,0,1.5288,optionRight,70,14695,7,9,0,9,0,1,,,,,,,,,,,,,,,,,,,,,,,,,,,,,,,,,,,,,,,
,,,,,,,,2023-08-16_08h27.11.339,HF_wild_card,2022.2.4,Win32,59.95203837,62a0e117625b3e346ccb377f,64d2fd46c836a06233681665,64dc7a4244bd2eb2c4e6c125,,,,,,,ctch,resources/DR.BMP,resources/DB.BMP,Door3,0.229166667,-0.014322917,1,0,0,1.1629,optionRight,70,14765,7,10,0,10,0,1,,,,,,,,,,,,,,,,,,,,,,,,,,,,,,,,,,,,,,,
,,,,,,,,2023-08-16_08h27.11.339,HF_wild_card,2022.2.4,Win32,59.95203837,62a0e117625b3e346ccb377f,64d2fd46c836a06233681665,64dc7a4244bd2eb2c4e6c125,,,,,,,decisionTrl,resources/DP.BMP,resources/DB.BMP,Door3,0.188802083,0.006510417,1,0,0,1.9641,optionRight,70,14835,7,11,0,11,0,1,,,,,,,,,,,,,,,,,,,,,,,,,,,,,,,,,,,,,,,
,,,,,,,,2023-08-16_08h27.11.339,HF_wild_card,2022.2.4,Win32,59.95203837,62a0e117625b3e346ccb377f,64d2fd46c836a06233681665,64dc7a4244bd2eb2c4e6c125,,,,,,,decisionTrl,resources/DP.BMP,resources/DB.BMP,Door3,0.221354167,0.006510417,1,0,0,2.1125,optionRight,70,14905,7,12,0,12,0,1,,,,,,,,,,,,,,,,,,,,,,,,,,,,,,,,,,,,,,,
,,,,,,,,2023-08-16_08h27.11.339,HF_wild_card,2022.2.4,Win32,59.95203837,62a0e117625b3e346ccb377f,64d2fd46c836a06233681665,64dc7a4244bd2eb2c4e6c125,,,,,,,ctch,resources/DY.BMP,resources/DP.BMP,Door4,0.248697917,-0.00390625,1,0,0,1.7607,optionRight,80,14985,7,13,0,13,0,1,,,,,,,,,,,,,,,,,,,,,,,,,,,,,,,,,,,,,,,
,,,,,,,,2023-08-16_08h27.11.339,HF_wild_card,2022.2.4,Win32,59.95203837,62a0e117625b3e346ccb377f,64d2fd46c836a06233681665,64dc7a4244bd2eb2c4e6c125,,,,,,,ctch,resources/DP.BMP,resources/DY.BMP,Door4,-0.350260417,-0.049479167,1,0,0,2.7126,optionLeft,80,15065,7,14,0,14,0,1,,,,,,,,,,,,,,,,,,,,,,,,,,,,,,,,,,,,,,,
,,,,,,,,2023-08-16_08h27.11.339,HF_wild_card,2022.2.4,Win32,59.95203837,62a0e117625b3e346ccb377f,64d2fd46c836a06233681665,64dc7a4244bd2eb2c4e6c125,,,,,,,decisionTrl,resources/DB.BMP,resources/DP.BMP,Door4,0.18359375,-0.002604167,1,0,0,6.7495,optionRight,60,15125,7,15,0,15,0,1,,,,,,,,,,,,,,,,,,,,,,,,,,,,,,,,,,,,,,,
,,,,,,,,2023-08-16_08h27.11.339,HF_wild_card,2022.2.4,Win32,59.95203837,62a0e117625b3e346ccb377f,64d2fd46c836a06233681665,64dc7a4244bd2eb2c4e6c125,,,,,,,ctch,resources/DY.BMP,resources/DP.BMP,Door4,0.24609375,-0.0078125,1,0,0,1.2975,optionRight,80,15205,7,16,0,16,0,1,,,,,,,,,,,,,,,,,,,,,,,,,,,,,,,,,,,,,,,
,,,,,,,,2023-08-16_08h27.11.339,HF_wild_card,2022.2.4,Win32,59.95203837,62a0e117625b3e346ccb377f,64d2fd46c836a06233681665,64dc7a4244bd2eb2c4e6c125,,,,,,,ctch,resources/DY.BMP,resources/DP.BMP,Door4,0.302083333,-0.029947917,1,0,0,1.2647,optionRight,60,15265,7,17,0,17,0,1,,,,,,,,,,,,,,,,,,,,,,,,,,,,,,,,,,,,,,,
,,,,,,,,2023-08-16_08h27.11.339,HF_wild_card,2022.2.4,Win32,59.95203837,62a0e117625b3e346ccb377f,64d2fd46c836a06233681665,64dc7a4244bd2eb2c4e6c125,,,,,,,decisionTrl,resources/DB.BMP,resources/DP.BMP,Door3,-0.3203125,-0.044270833,1,0,0,3.5528,optionLeft,70,15335,7,18,0,18,0,1,,,,,,,,,,,,,,,,,,,,,,,,,,,,,,,,,,,,,,,
,,,,,,,,2023-08-16_08h27.11.339,HF_wild_card,2022.2.4,Win32,59.95203837,62a0e117625b3e346ccb377f,64d2fd46c836a06233681665,64dc7a4244bd2eb2c4e6c125,,,,,,,decisionTrl,resources/DY.BMP,resources/DR.BMP,Door1,-0.255208333,-0.041666667,1,0,0,2.3647,optionLeft,30,15365,7,19,0,19,0,1,,,,,,,,,,,,,,,,,,,,,,,,,,,,,,,,,,,,,,,
,,,,,,,,2023-08-16_08h27.11.339,HF_wild_card,2022.2.4,Win32,59.95203837,62a0e117625b3e346ccb377f,64d2fd46c836a06233681665,64dc7a4244bd2eb2c4e6c125,,,,,,,decisionTrl,resources/DY.BMP,resources/DR.BMP,Door1,-0.436197917,-0.102864583,1,0,0,1.4975,optionLeft,30,15395,7,20,0,20,0,1,,,,,,,,,,,,,,,,,,,,,,,,,,,,,,,,,,,,,,,
,,,,,,,,2023-08-16_08h27.11.339,HF_wild_card,2022.2.4,Win32,59.95203837,62a0e117625b3e346ccb377f,64d2fd46c836a06233681665,64dc7a4244bd2eb2c4e6c125,,,,,,,ctch,resources/DB.BMP,resources/DR.BMP,Door3,-0.239583333,-0.006510417,1,0,0,1.296,optionLeft,70,15465,7,21,0,21,0,1,,,,,,,,,,,,,,,,,,,,,,,,,,,,,,,,,,,,,,,
,,,,,,,,2023-08-16_08h27.11.339,HF_wild_card,2022.2.4,Win32,59.95203837,62a0e117625b3e346ccb377f,64d2fd46c836a06233681665,64dc7a4244bd2eb2c4e6c125,,,,,,,decisionTrl,resources/DY.BMP,resources/DR.BMP,Door1,-0.276041667,-0.020833333,1,0,0,1.5646,optionLeft,30,15495,7,22,0,22,0,1,,,,,,,,,,,,,,,,,,,,,,,,,,,,,,,,,,,,,,,
,,,,,,,,2023-08-16_08h27.11.339,HF_wild_card,2022.2.4,Win32,59.95203837,62a0e117625b3e346ccb377f,64d2fd46c836a06233681665,64dc7a4244bd2eb2c4e6c125,,,,,,,decisionTrl,resources/DB.BMP,resources/DP.BMP,Door4,0.368489583,-0.018229167,1,0,0,6.0806,optionRight,60,15555,7,23,0,23,0,1,,,,,,,,,,,,,,,,,,,,,,,,,,,,,,,,,,,,,,,
,,,,,,,,2023-08-16_08h27.11.339,HF_wild_card,2022.2.4,Win32,59.95203837,62a0e117625b3e346ccb377f,64d2fd46c836a06233681665,64dc7a4244bd2eb2c4e6c125,,,,,,,ctch,resources/DR.BMP,resources/DB.BMP,Door3,0.259114583,-0.010416667,1,0,0,1.3977,optionRight,70,15625,7,24,0,24,0,1,,,,,,,,,,,,,,,,,,,,,,,,,,,,,,,,,,,,,,,
,,,,,,,,2023-08-16_08h27.11.339,HF_wild_card,2022.2.4,Win32,59.95203837,62a0e117625b3e346ccb377f,64d2fd46c836a06233681665,64dc7a4244bd2eb2c4e6c125,,,,,,,ctch,resources/DP.BMP,resources/DY.BMP,Door4,-0.399739583,-0.076822917,1,0,0,1.8798,optionLeft,80,15705,7,25,0,25,0,1,,,,,,,,,,,,,,,,,,,,,,,,,,,,,,,,,,,,,,,
,,,,,,,,2023-08-16_08h27.11.339,HF_wild_card,2022.2.4,Win32,59.95203837,62a0e117625b3e346ccb377f,64d2fd46c836a06233681665,64dc7a4244bd2eb2c4e6c125,,,,,,,decisionTrl,resources/DP.BMP,resources/DB.BMP,Door3,0.26171875,-0.00390625,1,0,0,1.4978,optionRight,70,15775,7,26,0,26,0,1,,,,,,,,,,,,,,,,,,,,,,,,,,,,,,,,,,,,,,,
,,,,,,,,2023-08-16_08h27.11.339,HF_wild_card,2022.2.4,Win32,59.95203837,62a0e117625b3e346ccb377f,64d2fd46c836a06233681665,64dc7a4244bd2eb2c4e6c125,,,,,,,decisionTrl,resources/DR.BMP,resources/DY.BMP,Door1,0.296875,-0.014322917,1,0,0,1.3304,optionRight,30,15805,7,27,0,27,0,1,,,,,,,,,,,,,,,,,,,,,,,,,,,,,,,,,,,,,,,
,,,,,,,,2023-08-16_08h27.11.339,HF_wild_card,2022.2.4,Win32,59.95203837,62a0e117625b3e346ccb377f,64d2fd46c836a06233681665,64dc7a4244bd2eb2c4e6c125,,,,,,,decisionTrl,resources/DP.BMP,resources/DB.BMP,Door3,0.477864583,-0.0546875,1,0,0,1.598,optionRight,70,15875,7,28,0,28,0,1,,,,,,,,,,,,,,,,,,,,,,,,,,,,,,,,,,,,,,,
,,,,,,,,2023-08-16_08h27.11.339,HF_wild_card,2022.2.4,Win32,59.95203837,62a0e117625b3e346ccb377f,64d2fd46c836a06233681665,64dc7a4244bd2eb2c4e6c125,,,,,,,decisionTrl,resources/DP.BMP,resources/DB.BMP,Door3,0.30859375,-0.006510417,1,0,0,1.213,optionRight,70,15945,7,29,0,29,0,1,,,,,,,,,,,,,,,,,,,,,,,,,,,,,,,,,,,,,,,
,,,,,,,,2023-08-16_08h27.11.339,HF_wild_card,2022.2.4,Win32,59.95203837,62a0e117625b3e346ccb377f,64d2fd46c836a06233681665,64dc7a4244bd2eb2c4e6c125,,,,,,,decisionTrl,resources/DR.BMP,resources/DY.BMP,Door1,0.296875,0.006510417,1,0,0,1.5975,optionRight,30,15975,7,30,0,30,0,1,,,,,,,,,,,,,,,,,,,,,,,,,,,,,,,,,,,,,,,
,,,,,,,,2023-08-16_08h27.11.339,HF_wild_card,2022.2.4,Win32,59.95203837,62a0e117625b3e346ccb377f,64d2fd46c836a06233681665,64dc7a4244bd2eb2c4e6c125,,,,,,,ctch,resources/DB.BMP,resources/DR.BMP,Door3,-0.39453125,-0.10546875,1,0,0,1.6958,optionLeft,70,16045,7,31,0,31,0,1,,,,,,,,,,,,,,,,,,,,,,,,,,,,,,,,,,,,,,,
,,,,,,,,2023-08-16_08h27.11.339,HF_wild_card,2022.2.4,Win32,59.95203837,62a0e117625b3e346ccb377f,64d2fd46c836a06233681665,64dc7a4244bd2eb2c4e6c125,,,,,,,decisionTrl,resources/DY.BMP,resources/DR.BMP,Door1,-0.302083333,-0.018229167,1,0,0,1.8968,optionLeft,30,16075,7,32,0,32,0,1,,,,,,,,,,,,,,,,,,,,,,,,,,,,,,,,,,,,,,,
,,,,,,,,2023-08-16_08h27.11.339,HF_wild_card,2022.2.4,Win32,59.95203837,62a0e117625b3e346ccb377f,64d2fd46c836a06233681665,64dc7a4244bd2eb2c4e6c125,,,,,,,decisionTrl,resources/DY.BMP,resources/DR.BMP,Door1,-0.377604167,-0.06640625,1,0,0,1.2297,optionLeft,30,16105,7,33,0,33,0,1,,,,,,,,,,,,,,,,,,,,,,,,,,,,,,,,,,,,,,,
,,,,,,,,2023-08-16_08h27.11.339,HF_wild_card,2022.2.4,Win32,59.95203837,62a0e117625b3e346ccb377f,64d2fd46c836a06233681665,64dc7a4244bd2eb2c4e6c125,,,,,,,decisionTrl,resources/DR.BMP,resources/DY.BMP,Door1,0.213541667,-0.009114583,1,0,0,1.3126,optionRight,30,16135,7,34,0,34,0,1,,,,,,,,,,,,,,,,,,,,,,,,,,,,,,,,,,,,,,,
,,,,,,,,2023-08-16_08h27.11.339,HF_wild_card,2022.2.4,Win32,59.95203837,62a0e117625b3e346ccb377f,64d2fd46c836a06233681665,64dc7a4244bd2eb2c4e6c125,,,,,,,ctch,resources/DR.BMP,resources/DB.BMP,Door3,0.365885417,-0.02734375,1,0,0,1.3132,optionRight,70,16205,7,35,0,35,0,1,,,,,,,,,,,,,,,,,,,,,,,,,,,,,,,,,,,,,,,
,,,,,,,,2023-08-16_08h27.11.339,HF_wild_card,2022.2.4,Win32,59.95203837,62a0e117625b3e346ccb377f,64d2fd46c836a06233681665,64dc7a4244bd2eb2c4e6c125,,,,,,,,,,,,,,,,,,,,,,,,,,6,0,6,0,1,,,,,,,,,,,,,,,,,,,,,,,,,,,,,,,,,,
,,,,,,,,2023-08-16_08h27.11.339,HF_wild_card,2022.2.4,Win32,59.95203837,62a0e117625b3e346ccb377f,64d2fd46c836a06233681665,64dc7a4244bd2eb2c4e6c125,,,,,,,,,,,,,,,,,,,,,,,,,,,,,,,4,,,,,,,,,,,,,,,,,,,,,,,,,,,,,,,,,
,,,,,,,,2023-08-16_08h27.11.339,HF_wild_card,2022.2.4,Win32,59.95203837,62a0e117625b3e346ccb377f,64d2fd46c836a06233681665,64dc7a4244bd2eb2c4e6c125,,,,,,,,,,,,,,,,,,,,,,,,,,,,,,,,,,,,,,,,,,,,,,,,,,,,,,,,,,,,,,,,
,,,,,,,,2023-08-16_08h27.11.339,HF_wild_card,2022.2.4,Win32,59.95203837,62a0e117625b3e346ccb377f,64d2fd46c836a06233681665,64dc7a4244bd2eb2c4e6c125,,,,,,,,,,,,,,,,,,,,,,,,,,,,,,,,40,Door1,resources/DY.BMP,0,0,0,0,1,,,,,,,,,,,,,,,,,,,,,,,,,
,,,,,,,,2023-08-16_08h27.11.339,HF_wild_card,2022.2.4,Win32,59.95203837,62a0e117625b3e346ccb377f,64d2fd46c836a06233681665,64dc7a4244bd2eb2c4e6c125,,,,,,,,,,,,,,,,,,,,,,,,,,,,,,,,5,WC_extreme,resources/DBN.BMP,1,0,1,0,1,,,,,,,,,,,,,,,,,,,,,,,,,
,,,,,,,,2023-08-16_08h27.11.339,HF_wild_card,2022.2.4,Win32,59.95203837,62a0e117625b3e346ccb377f,64d2fd46c836a06233681665,64dc7a4244bd2eb2c4e6c125,,,,,,,,,,,,,,,,,,,,,,,,,,,,,,,,70,Door3,resources/DB.BMP,2,0,2,0,1,,,,,,,,,,,,,,,,,,,,,,,,,
,,,,,,,,2023-08-16_08h27.11.339,HF_wild_card,2022.2.4,Win32,59.95203837,62a0e117625b3e346ccb377f,64d2fd46c836a06233681665,64dc7a4244bd2eb2c4e6c125,,,,,,,,,,,,,,,,,,,,,,,,,,,,,,,,55,WC_nonExtreme,resources/DG.BMP,3,0,3,0,1,,,,,,,,,,,,,,,,,,,,,,,,,
,,,,,,,,2023-08-16_08h27.11.339,HF_wild_card,2022.2.4,Win32,59.95203837,62a0e117625b3e346ccb377f,64d2fd46c836a06233681665,64dc7a4244bd2eb2c4e6c125,,,,,,,,,,,,,,,,,,,,,,,,,,,,,,,,20,Door2,resources/DR.BMP,4,0,4,0,1,,,,,,,,,,,,,,,,,,,,,,,,,
,,,,,,,,2023-08-16_08h27.11.339,HF_wild_card,2022.2.4,Win32,59.95203837,62a0e117625b3e346ccb377f,64d2fd46c836a06233681665,64dc7a4244bd2eb2c4e6c125,,,,,,,,,,,,,,,,,,,,,,,,,,,,,,,,80,Door4,resources/DP.BMP,5,0,5,0,1,,,,,,,,,,,,,,,,,,,,,,,,,
,,,,,,,,2023-08-16_08h27.11.339,HF_wild_card,2022.2.4,Win32,59.95203837,62a0e117625b3e346ccb377f,64d2fd46c836a06233681665,64dc7a4244bd2eb2c4e6c125,,,,,,,,,,,,,,,,,,,,,,,,,,,,,,,,,,,,,,,,,,,,,,,,,,,,,,,,,,,,,,,,
,,,,,,,,2023-08-16_08h27.11.339,HF_wild_card,2022.2.4,Win32,59.95203837,62a0e117625b3e346ccb377f,64d2fd46c836a06233681665,64dc7a4244bd2eb2c4e6c125,,,,,,,,,,,,,,,,,,,,,,,,,,,,,,,,,,,,,,,,0,0,0,0,1,,,,,,,,,,,,,,,,,,,,
