Condition,Low fixed image (Door1),Low risky image (Door2),High fixed image (Door3),High risky image (Door4),Extreme Wild Card,NonExtreme Wild Card,,date,expName,psychopyVersion,OS,frameRate,PROLIFIC_PID,STUDY_ID,SESSION_ID,mouse_2.x,mouse_2.y,mouse_2.leftButton,mouse_2.midButton,mouse_2.rightButton,mouse_2.clicked_name,Trial Type,Left Option Image,Right Option Image,Chosen Door,mouse.x,mouse.y,mouse.leftButton,mouse.midButton,mouse.rightButton,mouse.time,mouse.clicked_name,Feedback,Cumulative Reward,Block,trial.thisRepN,trial.thisTrialN,trial.thisN,trial.thisIndex,trial.ran,blocks.thisRepN,blocks.thisTrialN,blocks.thisN,blocks.thisIndex,blocks.ran,Money conversion,First Outcome Reported,Shown Door (First Outcome),Displayed Image (First Outcome),outcomes.thisRepN,outcomes.thisTrialN,outcomes.thisN,outcomes.thisIndex,outcomes.ran,judgments.thisRepN,judgments.thisTrialN,judgments.thisN,judgments.thisIndex,judgments.ran,freqMouse.x,freqMouse.y,freqMouse.leftButton,freqMouse.midButton,freqMouse.rightButton,freqMouse.clicked_name,FQJ for first outcome,FQJ for second outcome,Shown Door,Displayed Image,trials.thisRepN,trials.thisTrialN,trials.thisN,trials.thisIndex,trials.ran,judgBlock.thisRepN,judgBlock.thisTrialN,judgBlock.thisN,judgBlock.thisIndex,judgBlock.ran
1,resources/DB.BMP,resources/DBN.BMP,resources/DP.BMP,resources/DG.BMP,resources/DY.BMP,resources/DR.BMP,,2023-08-16_08h48.20.699,HF_wild_card,2022.2.4,Win32,60.03842459,63ea42ea3e9be106c194b5ee,64d2fd46c836a06233681665,64dc7ecd757c7ab4466f0a48,,,,,,,,,,,,,,,,,,,,,,,,,,,,,,,,,,,,,,,,,,,,,,,,,,,,,,,,,,,,,,,,
,,,,,,,,2023-08-16_08h48.20.699,HF_wild_card,2022.2.4,Win32,60.03842459,63ea42ea3e9be106c194b5ee,64d2fd46c836a06233681665,64dc7ecd757c7ab4466f0a48,0.007407407,-0.424074074,1,0,0,agree,,,,,,,,,,,,,,,,,,,,,,,,,,,,,,,,,,,,,,,,,,,,,,,,,,,,,,,,,,
,,,,,,,,2023-08-16_08h48.20.699,HF_wild_card,2022.2.4,Win32,60.03842459,63ea42ea3e9be106c194b5ee,64d2fd46c836a06233681665,64dc7ecd757c7ab4466f0a48,,,,,,,,,,,,,,,,,,,,,,,,,,,,,,,,,,,,,,,,,,,,,,,,,,,,,,,,,,,,,,,,
,,,,,,,,2023-08-16_08h48.20.699,HF_wild_card,2022.2.4,Win32,60.03842459,63ea42ea3e9be106c194b5ee,64d2fd46c836a06233681665,64dc7ecd757c7ab4466f0a48,,,,,,,decisionTrl,resources/DB.BMP,resources/DBN.BMP,Door1,-0.403703704,0.00462963,1,0,0,3.8674,optionLeft,30,30,1,0,0,0,0,1,,,,,,,,,,,,,,,,,,,,,,,,,,,,,,,,,,,,,,,
,,,,,,,,2023-08-16_08h48.20.699,HF_wild_card,2022.2.4,Win32,60.03842459,63ea42ea3e9be106c194b5ee,64d2fd46c836a06233681665,64dc7ecd757c7ab4466f0a48,,,,,,,decisionTrl,resources/DP.BMP,resources/DG.BMP,Door4,0.32037037,0.002777778,1,0,0,4.3968,optionRight,60,90,1,1,0,1,0,1,,,,,,,,,,,,,,,,,,,,,,,,,,,,,,,,,,,,,,,
,,,,,,,,2023-08-16_08h48.20.699,HF_wild_card,2022.2.4,Win32,60.03842459,63ea42ea3e9be106c194b5ee,64d2fd46c836a06233681665,64dc7ecd757c7ab4466f0a48,,,,,,,decisionTrl,resources/DR.BMP,resources/DBN.BMP,WildCard_NonEx,-0.378703704,-0.042592593,1,0,0,2.8293,optionLeft,55,145,1,2,0,2,0,1,,,,,,,,,,,,,,,,,,,,,,,,,,,,,,,,,,,,,,,
,,,,,,,,2023-08-16_08h48.20.699,HF_wild_card,2022.2.4,Win32,60.03842459,63ea42ea3e9be106c194b5ee,64d2fd46c836a06233681665,64dc7ecd757c7ab4466f0a48,,,,,,,decisionTrl,resources/DBN.BMP,resources/DB.BMP,Door1,0.372222222,0,1,0,0,3.0986,optionRight,30,175,1,3,0,3,0,1,,,,,,,,,,,,,,,,,,,,,,,,,,,,,,,,,,,,,,,
,,,,,,,,2023-08-16_08h48.20.699,HF_wild_card,2022.2.4,Win32,60.03842459,63ea42ea3e9be106c194b5ee,64d2fd46c836a06233681665,64dc7ecd757c7ab4466f0a48,,,,,,,decisionTrl,resources/DG.BMP,resources/DP.BMP,Door4,-0.34537037,0.007407407,1,0,0,3.7117,optionLeft,60,235,1,4,0,4,0,1,,,,,,,,,,,,,,,,,,,,,,,,,,,,,,,,,,,,,,,
,,,,,,,,2023-08-16_08h48.20.699,HF_wild_card,2022.2.4,Win32,60.03842459,63ea42ea3e9be106c194b5ee,64d2fd46c836a06233681665,64dc7ecd757c7ab4466f0a48,,,,,,,decisionTrl,resources/DG.BMP,resources/DP.BMP,Door4,-0.341666667,0.019444444,1,0,0,1.9194,optionLeft,80,315,1,5,0,5,0,1,,,,,,,,,,,,,,,,,,,,,,,,,,,,,,,,,,,,,,,
,,,,,,,,2023-08-16_08h48.20.699,HF_wild_card,2022.2.4,Win32,60.03842459,63ea42ea3e9be106c194b5ee,64d2fd46c836a06233681665,64dc7ecd757c7ab4466f0a48,,,,,,,sngl,resources/Empty.png,resources/DR.BMP,WildCard_NonEx,0.30462963,0.030555556,1,0,0,1.3319,optionRight,45,360,1,6,0,6,0,1,,,,,,,,,,,,,,,,,,,,,,,,,,,,,,,,,,,,,,,
,,,,,,,,2023-08-16_08h48.20.699,HF_wild_card,2022.2.4,Win32,60.03842459,63ea42ea3e9be106c194b5ee,64d2fd46c836a06233681665,64dc7ecd757c7ab4466f0a48,,,,,,,ctch,resources/DG.BMP,resources/DB.BMP,Door1,0.45,0.010185185,1,0,0,3.6982,optionRight,30,390,1,7,0,7,0,1,,,,,,,,,,,,,,,,,,,,,,,,,,,,,,,,,,,,,,,
,,,,,,,,2023-08-16_08h48.20.699,HF_wild_card,2022.2.4,Win32,60.03842459,63ea42ea3e9be106c194b5ee,64d2fd46c836a06233681665,64dc7ecd757c7ab4466f0a48,,,,,,,ctch,resources/DBN.BMP,resources/DP.BMP,Door2,-0.299074074,0.008333333,1,0,0,1.6025,optionLeft,20,410,1,8,0,8,0,1,,,,,,,,,,,,,,,,,,,,,,,,,,,,,,,,,,,,,,,
,,,,,,,,2023-08-16_08h48.20.699,HF_wild_card,2022.2.4,Win32,60.03842459,63ea42ea3e9be106c194b5ee,64d2fd46c836a06233681665,64dc7ecd757c7ab4466f0a48,,,,,,,sngl,resources/Empty.png,resources/DBN.BMP,Door2,0.340740741,0.048148148,1,0,0,1.244,optionRight,20,430,1,9,0,9,0,1,,,,,,,,,,,,,,,,,,,,,,,,,,,,,,,,,,,,,,,
,,,,,,,,2023-08-16_08h48.20.699,HF_wild_card,2022.2.4,Win32,60.03842459,63ea42ea3e9be106c194b5ee,64d2fd46c836a06233681665,64dc7ecd757c7ab4466f0a48,,,,,,,decisionTrl,resources/DP.BMP,resources/DG.BMP,Door4,0.367592593,0.027777778,1,0,0,1.7863,optionRight,80,510,1,10,0,10,0,1,,,,,,,,,,,,,,,,,,,,,,,,,,,,,,,,,,,,,,,
,,,,,,,,2023-08-16_08h48.20.699,HF_wild_card,2022.2.4,Win32,60.03842459,63ea42ea3e9be106c194b5ee,64d2fd46c836a06233681665,64dc7ecd757c7ab4466f0a48,,,,,,,decisionTrl,resources/DR.BMP,resources/DB.BMP,WildCard_NonEx,-0.386111111,0.022222222,1,0,0,2.0153,optionLeft,55,565,1,11,0,11,0,1,,,,,,,,,,,,,,,,,,,,,,,,,,,,,,,,,,,,,,,
,,,,,,,,2023-08-16_08h48.20.699,HF_wild_card,2022.2.4,Win32,60.03842459,63ea42ea3e9be106c194b5ee,64d2fd46c836a06233681665,64dc7ecd757c7ab4466f0a48,,,,,,,decisionTrl,resources/DG.BMP,resources/DR.BMP,Door4,-0.362037037,0.012037037,1,0,0,3.2816,optionLeft,80,645,1,12,0,12,0,1,,,,,,,,,,,,,,,,,,,,,,,,,,,,,,,,,,,,,,,
,,,,,,,,2023-08-16_08h48.20.699,HF_wild_card,2022.2.4,Win32,60.03842459,63ea42ea3e9be106c194b5ee,64d2fd46c836a06233681665,64dc7ecd757c7ab4466f0a48,,,,,,,decisionTrl,resources/DBN.BMP,resources/DB.BMP,Door1,0.430555556,0.021296296,1,0,0,1.5142,optionRight,30,675,1,13,0,13,0,1,,,,,,,,,,,,,,,,,,,,,,,,,,,,,,,,,,,,,,,
,,,,,,,,2023-08-16_08h48.20.699,HF_wild_card,2022.2.4,Win32,60.03842459,63ea42ea3e9be106c194b5ee,64d2fd46c836a06233681665,64dc7ecd757c7ab4466f0a48,,,,,,,sngl,resources/Empty.png,resources/DG.BMP,Door4,0.351851852,0.042592593,1,0,0,1.2314,optionRight,60,735,1,14,0,14,0,1,,,,,,,,,,,,,,,,,,,,,,,,,,,,,,,,,,,,,,,
,,,,,,,,2023-08-16_08h48.20.699,HF_wild_card,2022.2.4,Win32,60.03842459,63ea42ea3e9be106c194b5ee,64d2fd46c836a06233681665,64dc7ecd757c7ab4466f0a48,,,,,,,decisionTrl,resources/DBN.BMP,resources/DR.BMP,WildCard_NonEx,0.355555556,0.027777778,1,0,0,1.8484,optionRight,55,790,1,15,0,15,0,1,,,,,,,,,,,,,,,,,,,,,,,,,,,,,,,,,,,,,,,
,,,,,,,,2023-08-16_08h48.20.699,HF_wild_card,2022.2.4,Win32,60.03842459,63ea42ea3e9be106c194b5ee,64d2fd46c836a06233681665,64dc7ecd757c7ab4466f0a48,,,,,,,ctch,resources/DB.BMP,resources/DG.BMP,Door1,-0.35,-0.033333333,1,0,0,3.1335,optionLeft,30,820,1,16,0,16,0,1,,,,,,,,,,,,,,,,,,,,,,,,,,,,,,,,,,,,,,,
,,,,,,,,2023-08-16_08h48.20.699,HF_wild_card,2022.2.4,Win32,60.03842459,63ea42ea3e9be106c194b5ee,64d2fd46c836a06233681665,64dc7ecd757c7ab4466f0a48,,,,,,,sngl,resources/DG.BMP,resources/Empty.png,Door4,-0.378703704,0.007407407,1,0,0,0.7846,optionLeft,80,900,1,17,0,17,0,1,,,,,,,,,,,,,,,,,,,,,,,,,,,,,,,,,,,,,,,
,,,,,,,,2023-08-16_08h48.20.699,HF_wild_card,2022.2.4,Win32,60.03842459,63ea42ea3e9be106c194b5ee,64d2fd46c836a06233681665,64dc7ecd757c7ab4466f0a48,,,,,,,sngl,resources/DB.BMP,resources/Empty.png,Door1,-0.411111111,0.015740741,1,0,0,1.1821,optionLeft,30,930,1,18,0,18,0,1,,,,,,,,,,,,,,,,,,,,,,,,,,,,,,,,,,,,,,,
,,,,,,,,2023-08-16_08h48.20.699,HF_wild_card,2022.2.4,Win32,60.03842459,63ea42ea3e9be106c194b5ee,64d2fd46c836a06233681665,64dc7ecd757c7ab4466f0a48,,,,,,,decisionTrl,resources/DB.BMP,resources/DR.BMP,WildCard_NonEx,0.414814815,0.02037037,1,0,0,0.9025,optionRight,45,975,1,19,0,19,0,1,,,,,,,,,,,,,,,,,,,,,,,,,,,,,,,,,,,,,,,
,,,,,,,,2023-08-16_08h48.20.699,HF_wild_card,2022.2.4,Win32,60.03842459,63ea42ea3e9be106c194b5ee,64d2fd46c836a06233681665,64dc7ecd757c7ab4466f0a48,,,,,,,sngl,resources/Empty.png,resources/DP.BMP,Door3,0.319444444,0.014814815,1,0,0,1.0272,optionRight,70,1045,1,20,0,20,0,1,,,,,,,,,,,,,,,,,,,,,,,,,,,,,,,,,,,,,,,
,,,,,,,,2023-08-16_08h48.20.699,HF_wild_card,2022.2.4,Win32,60.03842459,63ea42ea3e9be106c194b5ee,64d2fd46c836a06233681665,64dc7ecd757c7ab4466f0a48,,,,,,,sngl,resources/Empty.png,resources/DR.BMP,WildCard_NonEx,0.346296296,0.016666667,1,0,0,0.9649,optionRight,55,1100,1,21,0,21,0,1,,,,,,,,,,,,,,,,,,,,,,,,,,,,,,,,,,,,,,,
,,,,,,,,2023-08-16_08h48.20.699,HF_wild_card,2022.2.4,Win32,60.03842459,63ea42ea3e9be106c194b5ee,64d2fd46c836a06233681665,64dc7ecd757c7ab4466f0a48,,,,,,,decisionTrl,resources/DBN.BMP,resources/DB.BMP,Door1,0.375925926,0.016666667,1,0,0,1.6502,optionRight,30,1130,1,22,0,22,0,1,,,,,,,,,,,,,,,,,,,,,,,,,,,,,,,,,,,,,,,
,,,,,,,,2023-08-16_08h48.20.699,HF_wild_card,2022.2.4,Win32,60.03842459,63ea42ea3e9be106c194b5ee,64d2fd46c836a06233681665,64dc7ecd757c7ab4466f0a48,,,,,,,sngl,resources/DR.BMP,resources/Empty.png,WildCard_NonEx,-0.387962963,0.026851852,1,0,0,0.9024,optionLeft,45,1175,1,23,0,23,0,1,,,,,,,,,,,,,,,,,,,,,,,,,,,,,,,,,,,,,,,
,,,,,,,,2023-08-16_08h48.20.699,HF_wild_card,2022.2.4,Win32,60.03842459,63ea42ea3e9be106c194b5ee,64d2fd46c836a06233681665,64dc7ecd757c7ab4466f0a48,,,,,,,decisionTrl,resources/DBN.BMP,resources/DB.BMP,Door1,0.369444444,0.002777778,1,0,0,1.1986,optionRight,30,1205,1,24,0,24,0,1,,,,,,,,,,,,,,,,,,,,,,,,,,,,,,,,,,,,,,,
,,,,,,,,2023-08-16_08h48.20.699,HF_wild_card,2022.2.4,Win32,60.03842459,63ea42ea3e9be106c194b5ee,64d2fd46c836a06233681665,64dc7ecd757c7ab4466f0a48,,,,,,,ctch,resources/DP.BMP,resources/DBN.BMP,Door3,-0.356481481,-0.008333333,1,0,0,2.8485,optionLeft,70,1275,1,25,0,25,0,1,,,,,,,,,,,,,,,,,,,,,,,,,,,,,,,,,,,,,,,
,,,,,,,,2023-08-16_08h48.20.699,HF_wild_card,2022.2.4,Win32,60.03842459,63ea42ea3e9be106c194b5ee,64d2fd46c836a06233681665,64dc7ecd757c7ab4466f0a48,,,,,,,decisionTrl,resources/DB.BMP,resources/DBN.BMP,Door2,0.330555556,0.035185185,1,0,0,3.1984,optionRight,20,1295,1,26,0,26,0,1,,,,,,,,,,,,,,,,,,,,,,,,,,,,,,,,,,,,,,,
,,,,,,,,2023-08-16_08h48.20.699,HF_wild_card,2022.2.4,Win32,60.03842459,63ea42ea3e9be106c194b5ee,64d2fd46c836a06233681665,64dc7ecd757c7ab4466f0a48,,,,,,,decisionTrl,resources/DP.BMP,resources/DG.BMP,Door4,0.369444444,0.010185185,1,0,0,1.7474,optionRight,80,1375,1,27,0,27,0,1,,,,,,,,,,,,,,,,,,,,,,,,,,,,,,,,,,,,,,,
,,,,,,,,2023-08-16_08h48.20.699,HF_wild_card,2022.2.4,Win32,60.03842459,63ea42ea3e9be106c194b5ee,64d2fd46c836a06233681665,64dc7ecd757c7ab4466f0a48,,,,,,,decisionTrl,resources/DB.BMP,resources/DBN.BMP,Door1,-0.480555556,0.000925926,1,0,0,5.2526,optionLeft,30,1405,1,28,0,28,0,1,,,,,,,,,,,,,,,,,,,,,,,,,,,,,,,,,,,,,,,
,,,,,,,,2023-08-16_08h48.20.699,HF_wild_card,2022.2.4,Win32,60.03842459,63ea42ea3e9be106c194b5ee,64d2fd46c836a06233681665,64dc7ecd757c7ab4466f0a48,,,,,,,sngl,resources/Empty.png,resources/DB.BMP,Door1,0.299074074,0.021296296,1,0,0,1.0939,optionRight,30,1435,1,29,0,29,0,1,,,,,,,,,,,,,,,,,,,,,,,,,,,,,,,,,,,,,,,
,,,,,,,,2023-08-16_08h48.20.699,HF_wild_card,2022.2.4,Win32,60.03842459,63ea42ea3e9be106c194b5ee,64d2fd46c836a06233681665,64dc7ecd757c7ab4466f0a48,,,,,,,decisionTrl,resources/DP.BMP,resources/DG.BMP,Door4,0.359259259,0.04537037,1,0,0,2.9278,optionRight,80,1515,1,30,0,30,0,1,,,,,,,,,,,,,,,,,,,,,,,,,,,,,,,,,,,,,,,
,,,,,,,,2023-08-16_08h48.20.699,HF_wild_card,2022.2.4,Win32,60.03842459,63ea42ea3e9be106c194b5ee,64d2fd46c836a06233681665,64dc7ecd757c7ab4466f0a48,,,,,,,decisionTrl,resources/DG.BMP,resources/DP.BMP,Door4,-0.349074074,0.010185185,1,0,0,1.0649,optionLeft,80,1595,1,31,0,31,0,1,,,,,,,,,,,,,,,,,,,,,,,,,,,,,,,,,,,,,,,
,,,,,,,,2023-08-16_08h48.20.699,HF_wild_card,2022.2.4,Win32,60.03842459,63ea42ea3e9be106c194b5ee,64d2fd46c836a06233681665,64dc7ecd757c7ab4466f0a48,,,,,,,sngl,resources/DP.BMP,resources/Empty.png,Door3,-0.334259259,0.065740741,1,0,0,0.886,optionLeft,70,1665,1,32,0,32,0,1,,,,,,,,,,,,,,,,,,,,,,,,,,,,,,,,,,,,,,,
,,,,,,,,2023-08-16_08h48.20.699,HF_wild_card,2022.2.4,Win32,60.03842459,63ea42ea3e9be106c194b5ee,64d2fd46c836a06233681665,64dc7ecd757c7ab4466f0a48,,,,,,,decisionTrl,resources/DR.BMP,resources/DP.BMP,Door3,0.322222222,0.025925926,1,0,0,1.569,optionRight,70,1735,1,33,0,33,0,1,,,,,,,,,,,,,,,,,,,,,,,,,,,,,,,,,,,,,,,
,,,,,,,,2023-08-16_08h48.20.699,HF_wild_card,2022.2.4,Win32,60.03842459,63ea42ea3e9be106c194b5ee,64d2fd46c836a06233681665,64dc7ecd757c7ab4466f0a48,,,,,,,decisionTrl,resources/DP.BMP,resources/DR.BMP,Door3,-0.275,0.025,1,0,0,0.8649,optionLeft,70,1805,1,34,0,34,0,1,,,,,,,,,,,,,,,,,,,,,,,,,,,,,,,,,,,,,,,
,,,,,,,,2023-08-16_08h48.20.699,HF_wild_card,2022.2.4,Win32,60.03842459,63ea42ea3e9be106c194b5ee,64d2fd46c836a06233681665,64dc7ecd757c7ab4466f0a48,,,,,,,decisionTrl,resources/DR.BMP,resources/DG.BMP,Door4,0.398148148,0.007407407,1,0,0,2.5005,optionRight,60,1865,1,35,0,35,0,1,,,,,,,,,,,,,,,,,,,,,,,,,,,,,,,,,,,,,,,
,,,,,,,,2023-08-16_08h48.20.699,HF_wild_card,2022.2.4,Win32,60.03842459,63ea42ea3e9be106c194b5ee,64d2fd46c836a06233681665,64dc7ecd757c7ab4466f0a48,,,,,,,sngl,resources/DBN.BMP,resources/Empty.png,Door2,-0.408333333,0.038888889,1,0,0,0.9152,optionLeft,40,1905,1,36,0,36,0,1,,,,,,,,,,,,,,,,,,,,,,,,,,,,,,,,,,,,,,,
,,,,,,,,2023-08-16_08h48.20.699,HF_wild_card,2022.2.4,Win32,60.03842459,63ea42ea3e9be106c194b5ee,64d2fd46c836a06233681665,64dc7ecd757c7ab4466f0a48,,,,,,,decisionTrl,resources/DB.BMP,resources/DBN.BMP,Door1,-0.358333333,0.011111111,1,0,0,2.2939,optionLeft,30,1935,1,37,0,37,0,1,,,,,,,,,,,,,,,,,,,,,,,,,,,,,,,,,,,,,,,
,,,,,,,,2023-08-16_08h48.20.699,HF_wild_card,2022.2.4,Win32,60.03842459,63ea42ea3e9be106c194b5ee,64d2fd46c836a06233681665,64dc7ecd757c7ab4466f0a48,,,,,,,ctch,resources/DP.BMP,resources/DBN.BMP,Door3,-0.358333333,0.012962963,1,0,0,1.2488,optionLeft,70,2005,1,38,0,38,0,1,,,,,,,,,,,,,,,,,,,,,,,,,,,,,,,,,,,,,,,
,,,,,,,,2023-08-16_08h48.20.699,HF_wild_card,2022.2.4,Win32,60.03842459,63ea42ea3e9be106c194b5ee,64d2fd46c836a06233681665,64dc7ecd757c7ab4466f0a48,,,,,,,decisionTrl,resources/DG.BMP,resources/DP.BMP,Door4,-0.386111111,-0.013888889,1,0,0,2.5149,optionLeft,60,2065,1,39,0,39,0,1,,,,,,,,,,,,,,,,,,,,,,,,,,,,,,,,,,,,,,,
,,,,,,,,2023-08-16_08h48.20.699,HF_wild_card,2022.2.4,Win32,60.03842459,63ea42ea3e9be106c194b5ee,64d2fd46c836a06233681665,64dc7ecd757c7ab4466f0a48,,,,,,,ctch,resources/DBN.BMP,resources/DP.BMP,Door3,0.363888889,0.018518519,1,0,0,0.9921,optionRight,70,2135,1,40,0,40,0,1,,,,,,,,,,,,,,,,,,,,,,,,,,,,,,,,,,,,,,,
,,,,,,,,2023-08-16_08h48.20.699,HF_wild_card,2022.2.4,Win32,60.03842459,63ea42ea3e9be106c194b5ee,64d2fd46c836a06233681665,64dc7ecd757c7ab4466f0a48,,,,,,,ctch,resources/DB.BMP,resources/DG.BMP,Door4,0.316666667,0.036111111,1,0,0,2.4624,optionRight,60,2195,1,41,0,41,0,1,,,,,,,,,,,,,,,,,,,,,,,,,,,,,,,,,,,,,,,
,,,,,,,,2023-08-16_08h48.20.699,HF_wild_card,2022.2.4,Win32,60.03842459,63ea42ea3e9be106c194b5ee,64d2fd46c836a06233681665,64dc7ecd757c7ab4466f0a48,,,,,,,ctch,resources/DG.BMP,resources/DB.BMP,Door4,-0.365740741,0.011111111,1,0,0,0.9632,optionLeft,60,2255,1,42,0,42,0,1,,,,,,,,,,,,,,,,,,,,,,,,,,,,,,,,,,,,,,,
,,,,,,,,2023-08-16_08h48.20.699,HF_wild_card,2022.2.4,Win32,60.03842459,63ea42ea3e9be106c194b5ee,64d2fd46c836a06233681665,64dc7ecd757c7ab4466f0a48,,,,,,,sngl,resources/DR.BMP,resources/Empty.png,WildCard_NonEx,-0.378703704,0.017592593,1,0,0,0.7821,optionLeft,55,2310,1,43,0,43,0,1,,,,,,,,,,,,,,,,,,,,,,,,,,,,,,,,,,,,,,,
,,,,,,,,2023-08-16_08h48.20.699,HF_wild_card,2022.2.4,Win32,60.03842459,63ea42ea3e9be106c194b5ee,64d2fd46c836a06233681665,64dc7ecd757c7ab4466f0a48,,,,,,,,,,,,,,,,,,,,,,,,,,0,0,0,0,1,,,,,,,,,,,,,,,,,,,,,,,,,,,,,,,,,,
,,,,,,,,2023-08-16_08h48.20.699,HF_wild_card,2022.2.4,Win32,60.03842459,63ea42ea3e9be106c194b5ee,64d2fd46c836a06233681665,64dc7ecd757c7ab4466f0a48,,,,,,,ctch,resources/DB.BMP,resources/DG.BMP,Door4,0.432407407,0.033333333,1,0,0,1.9394,optionRight,60,2370,2,0,0,0,0,1,,,,,,,,,,,,,,,,,,,,,,,,,,,,,,,,,,,,,,,
,,,,,,,,2023-08-16_08h48.20.699,HF_wild_card,2022.2.4,Win32,60.03842459,63ea42ea3e9be106c194b5ee,64d2fd46c836a06233681665,64dc7ecd757c7ab4466f0a48,,,,,,,sngl,resources/Empty.png,resources/DR.BMP,WildCard_NonEx,0.358333333,0.040740741,1,0,0,0.8927,optionRight,55,2425,2,1,0,1,0,1,,,,,,,,,,,,,,,,,,,,,,,,,,,,,,,,,,,,,,,
,,,,,,,,2023-08-16_08h48.20.699,HF_wild_card,2022.2.4,Win32,60.03842459,63ea42ea3e9be106c194b5ee,64d2fd46c836a06233681665,64dc7ecd757c7ab4466f0a48,,,,,,,ctch,resources/DP.BMP,resources/DBN.BMP,Door3,-0.353703704,0.040740741,1,0,0,1.3153,optionLeft,70,2495,2,2,0,2,0,1,,,,,,,,,,,,,,,,,,,,,,,,,,,,,,,,,,,,,,,
,,,,,,,,2023-08-16_08h48.20.699,HF_wild_card,2022.2.4,Win32,60.03842459,63ea42ea3e9be106c194b5ee,64d2fd46c836a06233681665,64dc7ecd757c7ab4466f0a48,,,,,,,decisionTrl,resources/DP.BMP,resources/DG.BMP,Door4,0.387962963,0.014814815,1,0,0,1.5144,optionRight,80,2575,2,3,0,3,0,1,,,,,,,,,,,,,,,,,,,,,,,,,,,,,,,,,,,,,,,
,,,,,,,,2023-08-16_08h48.20.699,HF_wild_card,2022.2.4,Win32,60.03842459,63ea42ea3e9be106c194b5ee,64d2fd46c836a06233681665,64dc7ecd757c7ab4466f0a48,,,,,,,decisionTrl,resources/DG.BMP,resources/DP.BMP,Door4,-0.374074074,0.025,1,0,0,1.3988,optionLeft,80,2655,2,4,0,4,0,1,,,,,,,,,,,,,,,,,,,,,,,,,,,,,,,,,,,,,,,
,,,,,,,,2023-08-16_08h48.20.699,HF_wild_card,2022.2.4,Win32,60.03842459,63ea42ea3e9be106c194b5ee,64d2fd46c836a06233681665,64dc7ecd757c7ab4466f0a48,,,,,,,decisionTrl,resources/DG.BMP,resources/DR.BMP,Door4,-0.366666667,0.028703704,1,0,0,1.7821,optionLeft,60,2715,2,5,0,5,0,1,,,,,,,,,,,,,,,,,,,,,,,,,,,,,,,,,,,,,,,
,,,,,,,,2023-08-16_08h48.20.699,HF_wild_card,2022.2.4,Win32,60.03842459,63ea42ea3e9be106c194b5ee,64d2fd46c836a06233681665,64dc7ecd757c7ab4466f0a48,,,,,,,decisionTrl,resources/DG.BMP,resources/DP.BMP,Door4,-0.325925926,0.037037037,1,0,0,0.9979,optionLeft,80,2795,2,6,0,6,0,1,,,,,,,,,,,,,,,,,,,,,,,,,,,,,,,,,,,,,,,
,,,,,,,,2023-08-16_08h48.20.699,HF_wild_card,2022.2.4,Win32,60.03842459,63ea42ea3e9be106c194b5ee,64d2fd46c836a06233681665,64dc7ecd757c7ab4466f0a48,,,,,,,sngl,resources/Empty.png,resources/DR.BMP,WildCard_NonEx,0.377777778,0.02962963,1,0,0,0.732,optionRight,45,2840,2,7,0,7,0,1,,,,,,,,,,,,,,,,,,,,,,,,,,,,,,,,,,,,,,,
,,,,,,,,2023-08-16_08h48.20.699,HF_wild_card,2022.2.4,Win32,60.03842459,63ea42ea3e9be106c194b5ee,64d2fd46c836a06233681665,64dc7ecd757c7ab4466f0a48,,,,,,,decisionTrl,resources/DP.BMP,resources/DG.BMP,Door3,-0.394444444,0.055555556,1,0,0,0.9486,optionLeft,70,2910,2,8,0,8,0,1,,,,,,,,,,,,,,,,,,,,,,,,,,,,,,,,,,,,,,,
,,,,,,,,2023-08-16_08h48.20.699,HF_wild_card,2022.2.4,Win32,60.03842459,63ea42ea3e9be106c194b5ee,64d2fd46c836a06233681665,64dc7ecd757c7ab4466f0a48,,,,,,,decisionTrl,resources/DBN.BMP,resources/DB.BMP,Door1,0.338888889,0.035185185,1,0,0,0.9983,optionRight,30,2940,2,9,0,9,0,1,,,,,,,,,,,,,,,,,,,,,,,,,,,,,,,,,,,,,,,
,,,,,,,,2023-08-16_08h48.20.699,HF_wild_card,2022.2.4,Win32,60.03842459,63ea42ea3e9be106c194b5ee,64d2fd46c836a06233681665,64dc7ecd757c7ab4466f0a48,,,,,,,decisionTrl,resources/DB.BMP,resources/DBN.BMP,Door1,-0.408333333,0.049074074,1,0,0,0.8472,optionLeft,30,2970,2,10,0,10,0,1,,,,,,,,,,,,,,,,,,,,,,,,,,,,,,,,,,,,,,,
,,,,,,,,2023-08-16_08h48.20.699,HF_wild_card,2022.2.4,Win32,60.03842459,63ea42ea3e9be106c194b5ee,64d2fd46c836a06233681665,64dc7ecd757c7ab4466f0a48,,,,,,,ctch,resources/DG.BMP,resources/DB.BMP,Door4,-0.35,0.016666667,1,0,0,1.5468,optionLeft,60,3030,2,11,0,11,0,1,,,,,,,,,,,,,,,,,,,,,,,,,,,,,,,,,,,,,,,
,,,,,,,,2023-08-16_08h48.20.699,HF_wild_card,2022.2.4,Win32,60.03842459,63ea42ea3e9be106c194b5ee,64d2fd46c836a06233681665,64dc7ecd757c7ab4466f0a48,,,,,,,decisionTrl,resources/DR.BMP,resources/DBN.BMP,WildCard_NonEx,-0.323148148,-0.001851852,1,0,0,1.098,optionLeft,45,3075,2,12,0,12,0,1,,,,,,,,,,,,,,,,,,,,,,,,,,,,,,,,,,,,,,,
,,,,,,,,2023-08-16_08h48.20.699,HF_wild_card,2022.2.4,Win32,60.03842459,63ea42ea3e9be106c194b5ee,64d2fd46c836a06233681665,64dc7ecd757c7ab4466f0a48,,,,,,,decisionTrl,resources/DP.BMP,resources/DG.BMP,Door4,0.337037037,0.026851852,1,0,0,2.0154,optionRight,80,3155,2,13,0,13,0,1,,,,,,,,,,,,,,,,,,,,,,,,,,,,,,,,,,,,,,,
,,,,,,,,2023-08-16_08h48.20.699,HF_wild_card,2022.2.4,Win32,60.03842459,63ea42ea3e9be106c194b5ee,64d2fd46c836a06233681665,64dc7ecd757c7ab4466f0a48,,,,,,,ctch,resources/DBN.BMP,resources/DP.BMP,Door3,0.325,0.02037037,1,0,0,1.8143,optionRight,70,3225,2,14,0,14,0,1,,,,,,,,,,,,,,,,,,,,,,,,,,,,,,,,,,,,,,,
,,,,,,,,2023-08-16_08h48.20.699,HF_wild_card,2022.2.4,Win32,60.03842459,63ea42ea3e9be106c194b5ee,64d2fd46c836a06233681665,64dc7ecd757c7ab4466f0a48,,,,,,,decisionTrl,resources/DG.BMP,resources/DP.BMP,Door4,-0.376851852,-0.009259259,1,0,0,1.38,optionLeft,60,3285,2,15,0,15,0,1,,,,,,,,,,,,,,,,,,,,,,,,,,,,,,,,,,,,,,,
,,,,,,,,2023-08-16_08h48.20.699,HF_wild_card,2022.2.4,Win32,60.03842459,63ea42ea3e9be106c194b5ee,64d2fd46c836a06233681665,64dc7ecd757c7ab4466f0a48,,,,,,,sngl,resources/DBN.BMP,resources/Empty.png,Door2,-0.42962963,0.075,1,0,0,2.3987,optionLeft,20,3305,2,16,0,16,0,1,,,,,,,,,,,,,,,,,,,,,,,,,,,,,,,,,,,,,,,
,,,,,,,,2023-08-16_08h48.20.699,HF_wild_card,2022.2.4,Win32,60.03842459,63ea42ea3e9be106c194b5ee,64d2fd46c836a06233681665,64dc7ecd757c7ab4466f0a48,,,,,,,decisionTrl,resources/DBN.BMP,resources/DB.BMP,Door1,0.353703704,0.067592593,1,0,0,1.798,optionRight,30,3335,2,17,0,17,0,1,,,,,,,,,,,,,,,,,,,,,,,,,,,,,,,,,,,,,,,
,,,,,,,,2023-08-16_08h48.20.699,HF_wild_card,2022.2.4,Win32,60.03842459,63ea42ea3e9be106c194b5ee,64d2fd46c836a06233681665,64dc7ecd757c7ab4466f0a48,,,,,,,decisionTrl,resources/DB.BMP,resources/DBN.BMP,Door1,-0.387962963,0.025,1,0,0,1.3152,optionLeft,30,3365,2,18,0,18,0,1,,,,,,,,,,,,,,,,,,,,,,,,,,,,,,,,,,,,,,,
,,,,,,,,2023-08-16_08h48.20.699,HF_wild_card,2022.2.4,Win32,60.03842459,63ea42ea3e9be106c194b5ee,64d2fd46c836a06233681665,64dc7ecd757c7ab4466f0a48,,,,,,,sngl,resources/Empty.png,resources/DG.BMP,Door4,0.332407407,0.046296296,1,0,0,0.7487,optionRight,80,3445,2,19,0,19,0,1,,,,,,,,,,,,,,,,,,,,,,,,,,,,,,,,,,,,,,,
,,,,,,,,2023-08-16_08h48.20.699,HF_wild_card,2022.2.4,Win32,60.03842459,63ea42ea3e9be106c194b5ee,64d2fd46c836a06233681665,64dc7ecd757c7ab4466f0a48,,,,,,,sngl,resources/DG.BMP,resources/Empty.png,Door4,-0.362037037,0.012037037,1,0,0,0.5982,optionLeft,60,3505,2,20,0,20,0,1,,,,,,,,,,,,,,,,,,,,,,,,,,,,,,,,,,,,,,,
,,,,,,,,2023-08-16_08h48.20.699,HF_wild_card,2022.2.4,Win32,60.03842459,63ea42ea3e9be106c194b5ee,64d2fd46c836a06233681665,64dc7ecd757c7ab4466f0a48,,,,,,,sngl,resources/DB.BMP,resources/Empty.png,Door1,-0.316666667,0.041666667,1,0,0,2.3321,optionLeft,30,3535,2,21,0,21,0,1,,,,,,,,,,,,,,,,,,,,,,,,,,,,,,,,,,,,,,,
,,,,,,,,2023-08-16_08h48.20.699,HF_wild_card,2022.2.4,Win32,60.03842459,63ea42ea3e9be106c194b5ee,64d2fd46c836a06233681665,64dc7ecd757c7ab4466f0a48,,,,,,,sngl,resources/Empty.png,resources/DBN.BMP,Door2,0.333333333,0.086111111,1,0,0,1.732,optionRight,40,3575,2,22,0,22,0,1,,,,,,,,,,,,,,,,,,,,,,,,,,,,,,,,,,,,,,,
,,,,,,,,2023-08-16_08h48.20.699,HF_wild_card,2022.2.4,Win32,60.03842459,63ea42ea3e9be106c194b5ee,64d2fd46c836a06233681665,64dc7ecd757c7ab4466f0a48,,,,,,,sngl,resources/DR.BMP,resources/Empty.png,WildCard_NonEx,-0.360185185,0.062037037,1,0,0,1.4957,optionLeft,45,3620,2,23,0,23,0,1,,,,,,,,,,,,,,,,,,,,,,,,,,,,,,,,,,,,,,,
,,,,,,,,2023-08-16_08h48.20.699,HF_wild_card,2022.2.4,Win32,60.03842459,63ea42ea3e9be106c194b5ee,64d2fd46c836a06233681665,64dc7ecd757c7ab4466f0a48,,,,,,,sngl,resources/Empty.png,resources/DP.BMP,Door3,0.297222222,0.07962963,1,0,0,0.9811,optionRight,70,3690,2,24,0,24,0,1,,,,,,,,,,,,,,,,,,,,,,,,,,,,,,,,,,,,,,,
,,,,,,,,2023-08-16_08h48.20.699,HF_wild_card,2022.2.4,Win32,60.03842459,63ea42ea3e9be106c194b5ee,64d2fd46c836a06233681665,64dc7ecd757c7ab4466f0a48,,,,,,,decisionTrl,resources/DP.BMP,resources/DR.BMP,Door3,-0.346296296,0.040740741,1,0,0,2.5485,optionLeft,70,3760,2,25,0,25,0,1,,,,,,,,,,,,,,,,,,,,,,,,,,,,,,,,,,,,,,,
,,,,,,,,2023-08-16_08h48.20.699,HF_wild_card,2022.2.4,Win32,60.03842459,63ea42ea3e9be106c194b5ee,64d2fd46c836a06233681665,64dc7ecd757c7ab4466f0a48,,,,,,,ctch,resources/DP.BMP,resources/DBN.BMP,Door3,-0.383333333,0.015740741,1,0,0,2.3157,optionLeft,70,3830,2,26,0,26,0,1,,,,,,,,,,,,,,,,,,,,,,,,,,,,,,,,,,,,,,,
,,,,,,,,2023-08-16_08h48.20.699,HF_wild_card,2022.2.4,Win32,60.03842459,63ea42ea3e9be106c194b5ee,64d2fd46c836a06233681665,64dc7ecd757c7ab4466f0a48,,,,,,,decisionTrl,resources/DBN.BMP,resources/DB.BMP,Door1,0.366666667,0.062037037,1,0,0,2.0634,optionRight,30,3860,2,27,0,27,0,1,,,,,,,,,,,,,,,,,,,,,,,,,,,,,,,,,,,,,,,
,,,,,,,,2023-08-16_08h48.20.699,HF_wild_card,2022.2.4,Win32,60.03842459,63ea42ea3e9be106c194b5ee,64d2fd46c836a06233681665,64dc7ecd757c7ab4466f0a48,,,,,,,decisionTrl,resources/DB.BMP,resources/DBN.BMP,Door1,-0.35,0.075925926,1,0,0,3.5636,optionLeft,30,3890,2,28,0,28,0,1,,,,,,,,,,,,,,,,,,,,,,,,,,,,,,,,,,,,,,,
,,,,,,,,2023-08-16_08h48.20.699,HF_wild_card,2022.2.4,Win32,60.03842459,63ea42ea3e9be106c194b5ee,64d2fd46c836a06233681665,64dc7ecd757c7ab4466f0a48,,,,,,,decisionTrl,resources/DR.BMP,resources/DB.BMP,WildCard_NonEx,-0.347222222,0.068518519,1,0,0,2.099,optionLeft,55,3945,2,29,0,29,0,1,,,,,,,,,,,,,,,,,,,,,,,,,,,,,,,,,,,,,,,
,,,,,,,,2023-08-16_08h48.20.699,HF_wild_card,2022.2.4,Win32,60.03842459,63ea42ea3e9be106c194b5ee,64d2fd46c836a06233681665,64dc7ecd757c7ab4466f0a48,,,,,,,ctch,resources/DBN.BMP,resources/DP.BMP,Door3,0.284259259,0.051851852,1,0,0,1.349,optionRight,70,4015,2,30,0,30,0,1,,,,,,,,,,,,,,,,,,,,,,,,,,,,,,,,,,,,,,,
,,,,,,,,2023-08-16_08h48.20.699,HF_wild_card,2022.2.4,Win32,60.03842459,63ea42ea3e9be106c194b5ee,64d2fd46c836a06233681665,64dc7ecd757c7ab4466f0a48,,,,,,,decisionTrl,resources/DBN.BMP,resources/DB.BMP,Door1,0.285185185,0.032407407,1,0,0,1.7657,optionRight,30,4045,2,31,0,31,0,1,,,,,,,,,,,,,,,,,,,,,,,,,,,,,,,,,,,,,,,
,,,,,,,,2023-08-16_08h48.20.699,HF_wild_card,2022.2.4,Win32,60.03842459,63ea42ea3e9be106c194b5ee,64d2fd46c836a06233681665,64dc7ecd757c7ab4466f0a48,,,,,,,decisionTrl,resources/DBN.BMP,resources/DR.BMP,WildCard_NonEx,0.342592593,0.074074074,1,0,0,1.0655,optionRight,45,4090,2,32,0,32,0,1,,,,,,,,,,,,,,,,,,,,,,,,,,,,,,,,,,,,,,,
,,,,,,,,2023-08-16_08h48.20.699,HF_wild_card,2022.2.4,Win32,60.03842459,63ea42ea3e9be106c194b5ee,64d2fd46c836a06233681665,64dc7ecd757c7ab4466f0a48,,,,,,,decisionTrl,resources/DG.BMP,resources/DP.BMP,Door4,-0.378703704,0.051851852,1,0,0,2.3145,optionLeft,80,4170,2,33,0,33,0,1,,,,,,,,,,,,,,,,,,,,,,,,,,,,,,,,,,,,,,,
,,,,,,,,2023-08-16_08h48.20.699,HF_wild_card,2022.2.4,Win32,60.03842459,63ea42ea3e9be106c194b5ee,64d2fd46c836a06233681665,64dc7ecd757c7ab4466f0a48,,,,,,,sngl,resources/DR.BMP,resources/Empty.png,WildCard_NonEx,-0.399074074,0.072222222,1,0,0,0.9806,optionLeft,55,4225,2,34,0,34,0,1,,,,,,,,,,,,,,,,,,,,,,,,,,,,,,,,,,,,,,,
,,,,,,,,2023-08-16_08h48.20.699,HF_wild_card,2022.2.4,Win32,60.03842459,63ea42ea3e9be106c194b5ee,64d2fd46c836a06233681665,64dc7ecd757c7ab4466f0a48,,,,,,,ctch,resources/DG.BMP,resources/DB.BMP,Door4,-0.323148148,0.064814815,1,0,0,3.6651,optionLeft,60,4285,2,35,0,35,0,1,,,,,,,,,,,,,,,,,,,,,,,,,,,,,,,,,,,,,,,
,,,,,,,,2023-08-16_08h48.20.699,HF_wild_card,2022.2.4,Win32,60.03842459,63ea42ea3e9be106c194b5ee,64d2fd46c836a06233681665,64dc7ecd757c7ab4466f0a48,,,,,,,sngl,resources/DP.BMP,resources/Empty.png,Door3,-0.437962963,0.076851852,1,0,0,0.6487,optionLeft,70,4355,2,36,0,36,0,1,,,,,,,,,,,,,,,,,,,,,,,,,,,,,,,,,,,,,,,
,,,,,,,,2023-08-16_08h48.20.699,HF_wild_card,2022.2.4,Win32,60.03842459,63ea42ea3e9be106c194b5ee,64d2fd46c836a06233681665,64dc7ecd757c7ab4466f0a48,,,,,,,decisionTrl,resources/DR.BMP,resources/DG.BMP,Door4,0.391666667,0.084259259,1,0,0,1.5805,optionRight,60,4415,2,37,0,37,0,1,,,,,,,,,,,,,,,,,,,,,,,,,,,,,,,,,,,,,,,
,,,,,,,,2023-08-16_08h48.20.699,HF_wild_card,2022.2.4,Win32,60.03842459,63ea42ea3e9be106c194b5ee,64d2fd46c836a06233681665,64dc7ecd757c7ab4466f0a48,,,,,,,decisionTrl,resources/DR.BMP,resources/DP.BMP,Door3,0.330555556,0.105555556,1,0,0,2.7988,optionRight,70,4485,2,38,0,38,0,1,,,,,,,,,,,,,,,,,,,,,,,,,,,,,,,,,,,,,,,
,,,,,,,,2023-08-16_08h48.20.699,HF_wild_card,2022.2.4,Win32,60.03842459,63ea42ea3e9be106c194b5ee,64d2fd46c836a06233681665,64dc7ecd757c7ab4466f0a48,,,,,,,sngl,resources/Empty.png,resources/DB.BMP,Door1,0.392592593,0.049074074,1,0,0,0.615,optionRight,30,4515,2,39,0,39,0,1,,,,,,,,,,,,,,,,,,,,,,,,,,,,,,,,,,,,,,,
,,,,,,,,2023-08-16_08h48.20.699,HF_wild_card,2022.2.4,Win32,60.03842459,63ea42ea3e9be106c194b5ee,64d2fd46c836a06233681665,64dc7ecd757c7ab4466f0a48,,,,,,,ctch,resources/DB.BMP,resources/DG.BMP,Door4,0.346296296,0.063888889,1,0,0,1.0966,optionRight,80,4595,2,40,0,40,0,1,,,,,,,,,,,,,,,,,,,,,,,,,,,,,,,,,,,,,,,
,,,,,,,,2023-08-16_08h48.20.699,HF_wild_card,2022.2.4,Win32,60.03842459,63ea42ea3e9be106c194b5ee,64d2fd46c836a06233681665,64dc7ecd757c7ab4466f0a48,,,,,,,decisionTrl,resources/DB.BMP,resources/DR.BMP,WildCard_NonEx,0.410185185,0.046296296,1,0,0,2.6161,optionRight,45,4640,2,41,0,41,0,1,,,,,,,,,,,,,,,,,,,,,,,,,,,,,,,,,,,,,,,
,,,,,,,,2023-08-16_08h48.20.699,HF_wild_card,2022.2.4,Win32,60.03842459,63ea42ea3e9be106c194b5ee,64d2fd46c836a06233681665,64dc7ecd757c7ab4466f0a48,,,,,,,decisionTrl,resources/DP.BMP,resources/DG.BMP,Door4,0.376851852,0.038888889,1,0,0,2.3769,optionRight,60,4700,2,42,0,42,0,1,,,,,,,,,,,,,,,,,,,,,,,,,,,,,,,,,,,,,,,
,,,,,,,,2023-08-16_08h48.20.699,HF_wild_card,2022.2.4,Win32,60.03842459,63ea42ea3e9be106c194b5ee,64d2fd46c836a06233681665,64dc7ecd757c7ab4466f0a48,,,,,,,decisionTrl,resources/DB.BMP,resources/DBN.BMP,Door1,-0.386111111,0.053703704,1,0,0,2.1612,optionLeft,30,4730,2,43,0,43,0,1,,,,,,,,,,,,,,,,,,,,,,,,,,,,,,,,,,,,,,,
,,,,,,,,2023-08-16_08h48.20.699,HF_wild_card,2022.2.4,Win32,60.03842459,63ea42ea3e9be106c194b5ee,64d2fd46c836a06233681665,64dc7ecd757c7ab4466f0a48,,,,,,,,,,,,,,,,,,,,,,,,,,1,0,1,0,1,,,,,,,,,,,,,,,,,,,,,,,,,,,,,,,,,,
,,,,,,,,2023-08-16_08h48.20.699,HF_wild_card,2022.2.4,Win32,60.03842459,63ea42ea3e9be106c194b5ee,64d2fd46c836a06233681665,64dc7ecd757c7ab4466f0a48,,,,,,,ctch,resources/DBN.BMP,resources/DP.BMP,Door3,0.392592593,-0.007407407,1,0,0,1.558,optionRight,70,4800,3,0,0,0,0,1,,,,,,,,,,,,,,,,,,,,,,,,,,,,,,,,,,,,,,,
,,,,,,,,2023-08-16_08h48.20.699,HF_wild_card,2022.2.4,Win32,60.03842459,63ea42ea3e9be106c194b5ee,64d2fd46c836a06233681665,64dc7ecd757c7ab4466f0a48,,,,,,,sngl,resources/Empty.png,resources/DB.BMP,Door1,0.383333333,0.049074074,1,0,0,1.1827,optionRight,30,4830,3,1,0,1,0,1,,,,,,,,,,,,,,,,,,,,,,,,,,,,,,,,,,,,,,,
,,,,,,,,2023-08-16_08h48.20.699,HF_wild_card,2022.2.4,Win32,60.03842459,63ea42ea3e9be106c194b5ee,64d2fd46c836a06233681665,64dc7ecd757c7ab4466f0a48,,,,,,,decisionTrl,resources/DB.BMP,resources/DBN.BMP,Door2,0.368518519,0.075,1,0,0,1.2491,optionRight,20,4850,3,2,0,2,0,1,,,,,,,,,,,,,,,,,,,,,,,,,,,,,,,,,,,,,,,
,,,,,,,,2023-08-16_08h48.20.699,HF_wild_card,2022.2.4,Win32,60.03842459,63ea42ea3e9be106c194b5ee,64d2fd46c836a06233681665,64dc7ecd757c7ab4466f0a48,,,,,,,sngl,resources/DBN.BMP,resources/Empty.png,Door2,-0.350925926,0.050925926,1,0,0,0.8798,optionLeft,40,4890,3,3,0,3,0,1,,,,,,,,,,,,,,,,,,,,,,,,,,,,,,,,,,,,,,,
,,,,,,,,2023-08-16_08h48.20.699,HF_wild_card,2022.2.4,Win32,60.03842459,63ea42ea3e9be106c194b5ee,64d2fd46c836a06233681665,64dc7ecd757c7ab4466f0a48,,,,,,,sngl,resources/Empty.png,resources/DBN.BMP,Door2,0.364814815,0.069444444,1,0,0,0.8452,optionRight,20,4910,3,4,0,4,0,1,,,,,,,,,,,,,,,,,,,,,,,,,,,,,,,,,,,,,,,
,,,,,,,,2023-08-16_08h48.20.699,HF_wild_card,2022.2.4,Win32,60.03842459,63ea42ea3e9be106c194b5ee,64d2fd46c836a06233681665,64dc7ecd757c7ab4466f0a48,,,,,,,decisionTrl,resources/DB.BMP,resources/DBN.BMP,Door1,-0.32037037,0.062962963,1,0,0,0.9147,optionLeft,30,4940,3,5,0,5,0,1,,,,,,,,,,,,,,,,,,,,,,,,,,,,,,,,,,,,,,,
,,,,,,,,2023-08-16_08h48.20.699,HF_wild_card,2022.2.4,Win32,60.03842459,63ea42ea3e9be106c194b5ee,64d2fd46c836a06233681665,64dc7ecd757c7ab4466f0a48,,,,,,,decisionTrl,resources/DG.BMP,resources/DR.BMP,Door4,-0.267592593,0.05462963,1,0,0,1.7504,optionLeft,60,5000,3,6,0,6,0,1,,,,,,,,,,,,,,,,,,,,,,,,,,,,,,,,,,,,,,,
,,,,,,,,2023-08-16_08h48.20.699,HF_wild_card,2022.2.4,Win32,60.03842459,63ea42ea3e9be106c194b5ee,64d2fd46c836a06233681665,64dc7ecd757c7ab4466f0a48,,,,,,,decisionTrl,resources/DBN.BMP,resources/DB.BMP,Door1,0.35462963,0.075,1,0,0,1.1955,optionRight,30,5030,3,7,0,7,0,1,,,,,,,,,,,,,,,,,,,,,,,,,,,,,,,,,,,,,,,
,,,,,,,,2023-08-16_08h48.20.699,HF_wild_card,2022.2.4,Win32,60.03842459,63ea42ea3e9be106c194b5ee,64d2fd46c836a06233681665,64dc7ecd757c7ab4466f0a48,,,,,,,sngl,resources/DR.BMP,resources/Empty.png,WildCard_NonEx,-0.301851852,0.032407407,1,0,0,0.6819,optionLeft,55,5085,3,8,0,8,0,1,,,,,,,,,,,,,,,,,,,,,,,,,,,,,,,,,,,,,,,
,,,,,,,,2023-08-16_08h48.20.699,HF_wild_card,2022.2.4,Win32,60.03842459,63ea42ea3e9be106c194b5ee,64d2fd46c836a06233681665,64dc7ecd757c7ab4466f0a48,,,,,,,decisionTrl,resources/DBN.BMP,resources/DR.BMP,WildCard_NonEx,0.457407407,0.055555556,1,0,0,0.9698,optionRight,55,5140,3,9,0,9,0,1,,,,,,,,,,,,,,,,,,,,,,,,,,,,,,,,,,,,,,,
,,,,,,,,2023-08-16_08h48.20.699,HF_wild_card,2022.2.4,Win32,60.03842459,63ea42ea3e9be106c194b5ee,64d2fd46c836a06233681665,64dc7ecd757c7ab4466f0a48,,,,,,,sngl,resources/Empty.png,resources/DR.BMP,WildCard_NonEx,0.318518519,0.049074074,1,0,0,0.5947,optionRight,45,5185,3,10,0,10,0,1,,,,,,,,,,,,,,,,,,,,,,,,,,,,,,,,,,,,,,,
,,,,,,,,2023-08-16_08h48.20.699,HF_wild_card,2022.2.4,Win32,60.03842459,63ea42ea3e9be106c194b5ee,64d2fd46c836a06233681665,64dc7ecd757c7ab4466f0a48,,,,,,,decisionTrl,resources/DG.BMP,resources/DP.BMP,Door4,-0.301851852,0.021296296,1,0,0,1.7482,optionLeft,60,5245,3,11,0,11,0,1,,,,,,,,,,,,,,,,,,,,,,,,,,,,,,,,,,,,,,,
,,,,,,,,2023-08-16_08h48.20.699,HF_wild_card,2022.2.4,Win32,60.03842459,63ea42ea3e9be106c194b5ee,64d2fd46c836a06233681665,64dc7ecd757c7ab4466f0a48,,,,,,,ctch,resources/DBN.BMP,resources/DP.BMP,Door3,0.301851852,0.066666667,1,0,0,0.9069,optionRight,70,5315,3,12,0,12,0,1,,,,,,,,,,,,,,,,,,,,,,,,,,,,,,,,,,,,,,,
,,,,,,,,2023-08-16_08h48.20.699,HF_wild_card,2022.2.4,Win32,60.03842459,63ea42ea3e9be106c194b5ee,64d2fd46c836a06233681665,64dc7ecd757c7ab4466f0a48,,,,,,,decisionTrl,resources/DG.BMP,resources/DP.BMP,Door4,-0.340740741,0.062962963,1,0,0,1.3823,optionLeft,60,5375,3,13,0,13,0,1,,,,,,,,,,,,,,,,,,,,,,,,,,,,,,,,,,,,,,,
,,,,,,,,2023-08-16_08h48.20.699,HF_wild_card,2022.2.4,Win32,60.03842459,63ea42ea3e9be106c194b5ee,64d2fd46c836a06233681665,64dc7ecd757c7ab4466f0a48,,,,,,,ctch,resources/DP.BMP,resources/DBN.BMP,Door3,-0.290740741,0.037037037,1,0,0,0.9312,optionLeft,70,5445,3,14,0,14,0,1,,,,,,,,,,,,,,,,,,,,,,,,,,,,,,,,,,,,,,,
,,,,,,,,2023-08-16_08h48.20.699,HF_wild_card,2022.2.4,Win32,60.03842459,63ea42ea3e9be106c194b5ee,64d2fd46c836a06233681665,64dc7ecd757c7ab4466f0a48,,,,,,,ctch,resources/DG.BMP,resources/DB.BMP,Door4,-0.375,0.064814815,1,0,0,1.1531,optionLeft,80,5525,3,15,0,15,0,1,,,,,,,,,,,,,,,,,,,,,,,,,,,,,,,,,,,,,,,
,,,,,,,,2023-08-16_08h48.20.699,HF_wild_card,2022.2.4,Win32,60.03842459,63ea42ea3e9be106c194b5ee,64d2fd46c836a06233681665,64dc7ecd757c7ab4466f0a48,,,,,,,decisionTrl,resources/DBN.BMP,resources/DB.BMP,Door1,0.339814815,0.071296296,1,0,0,1.1803,optionRight,30,5555,3,16,0,16,0,1,,,,,,,,,,,,,,,,,,,,,,,,,,,,,,,,,,,,,,,
,,,,,,,,2023-08-16_08h48.20.699,HF_wild_card,2022.2.4,Win32,60.03842459,63ea42ea3e9be106c194b5ee,64d2fd46c836a06233681665,64dc7ecd757c7ab4466f0a48,,,,,,,decisionTrl,resources/DB.BMP,resources/DBN.BMP,Door2,0.310185185,0.085185185,1,0,0,1.5007,optionRight,40,5595,3,17,0,17,0,1,,,,,,,,,,,,,,,,,,,,,,,,,,,,,,,,,,,,,,,
,,,,,,,,2023-08-16_08h48.20.699,HF_wild_card,2022.2.4,Win32,60.03842459,63ea42ea3e9be106c194b5ee,64d2fd46c836a06233681665,64dc7ecd757c7ab4466f0a48,,,,,,,sngl,resources/Empty.png,resources/DP.BMP,Door3,0.376851852,0.110185185,1,0,0,0.8155,optionRight,70,5665,3,18,0,18,0,1,,,,,,,,,,,,,,,,,,,,,,,,,,,,,,,,,,,,,,,
,,,,,,,,2023-08-16_08h48.20.699,HF_wild_card,2022.2.4,Win32,60.03842459,63ea42ea3e9be106c194b5ee,64d2fd46c836a06233681665,64dc7ecd757c7ab4466f0a48,,,,,,,decisionTrl,resources/DP.BMP,resources/DG.BMP,Door4,0.308333333,0.083333333,1,0,0,1.8992,optionRight,80,5745,3,19,0,19,0,1,,,,,,,,,,,,,,,,,,,,,,,,,,,,,,,,,,,,,,,
,,,,,,,,2023-08-16_08h48.20.699,HF_wild_card,2022.2.4,Win32,60.03842459,63ea42ea3e9be106c194b5ee,64d2fd46c836a06233681665,64dc7ecd757c7ab4466f0a48,,,,,,,decisionTrl,resources/DP.BMP,resources/DG.BMP,Door4,0.321296296,0.069444444,1,0,0,1.1287,optionRight,80,5825,3,20,0,20,0,1,,,,,,,,,,,,,,,,,,,,,,,,,,,,,,,,,,,,,,,
,,,,,,,,2023-08-16_08h48.20.699,HF_wild_card,2022.2.4,Win32,60.03842459,63ea42ea3e9be106c194b5ee,64d2fd46c836a06233681665,64dc7ecd757c7ab4466f0a48,,,,,,,decisionTrl,resources/DBN.BMP,resources/DB.BMP,Door1,0.275,0.098148148,1,0,0,1.6503,optionRight,30,5855,3,21,0,21,0,1,,,,,,,,,,,,,,,,,,,,,,,,,,,,,,,,,,,,,,,
,,,,,,,,2023-08-16_08h48.20.699,HF_wild_card,2022.2.4,Win32,60.03842459,63ea42ea3e9be106c194b5ee,64d2fd46c836a06233681665,64dc7ecd757c7ab4466f0a48,,,,,,,decisionTrl,resources/DR.BMP,resources/DG.BMP,Door4,0.362037037,0.066666667,1,0,0,1.3475,optionRight,80,5935,3,22,0,22,0,1,,,,,,,,,,,,,,,,,,,,,,,,,,,,,,,,,,,,,,,
,,,,,,,,2023-08-16_08h48.20.699,HF_wild_card,2022.2.4,Win32,60.03842459,63ea42ea3e9be106c194b5ee,64d2fd46c836a06233681665,64dc7ecd757c7ab4466f0a48,,,,,,,sngl,resources/DP.BMP,resources/Empty.png,Door3,-0.388888889,0.061111111,1,0,0,0.7262,optionLeft,70,6005,3,23,0,23,0,1,,,,,,,,,,,,,,,,,,,,,,,,,,,,,,,,,,,,,,,
,,,,,,,,2023-08-16_08h48.20.699,HF_wild_card,2022.2.4,Win32,60.03842459,63ea42ea3e9be106c194b5ee,64d2fd46c836a06233681665,64dc7ecd757c7ab4466f0a48,,,,,,,sngl,resources/Empty.png,resources/DR.BMP,WildCard_NonEx,0.367592593,0.082407407,1,0,0,1.4825,optionRight,55,6060,3,24,0,24,0,1,,,,,,,,,,,,,,,,,,,,,,,,,,,,,,,,,,,,,,,
,,,,,,,,2023-08-16_08h48.20.699,HF_wild_card,2022.2.4,Win32,60.03842459,63ea42ea3e9be106c194b5ee,64d2fd46c836a06233681665,64dc7ecd757c7ab4466f0a48,,,,,,,decisionTrl,resources/DP.BMP,resources/DG.BMP,Door4,0.387037037,0.036111111,1,0,0,0.9691,optionRight,60,6120,3,25,0,25,0,1,,,,,,,,,,,,,,,,,,,,,,,,,,,,,,,,,,,,,,,
,,,,,,,,2023-08-16_08h48.20.699,HF_wild_card,2022.2.4,Win32,60.03842459,63ea42ea3e9be106c194b5ee,64d2fd46c836a06233681665,64dc7ecd757c7ab4466f0a48,,,,,,,sngl,resources/Empty.png,resources/DG.BMP,Door4,0.325925926,0.043518519,1,0,0,0.7536,optionRight,60,6180,3,26,0,26,0,1,,,,,,,,,,,,,,,,,,,,,,,,,,,,,,,,,,,,,,,
,,,,,,,,2023-08-16_08h48.20.699,HF_wild_card,2022.2.4,Win32,60.03842459,63ea42ea3e9be106c194b5ee,64d2fd46c836a06233681665,64dc7ecd757c7ab4466f0a48,,,,,,,ctch,resources/DB.BMP,resources/DG.BMP,Door4,0.34537037,0.032407407,1,0,0,0.8658,optionRight,80,6260,3,27,0,27,0,1,,,,,,,,,,,,,,,,,,,,,,,,,,,,,,,,,,,,,,,
,,,,,,,,2023-08-16_08h48.20.699,HF_wild_card,2022.2.4,Win32,60.03842459,63ea42ea3e9be106c194b5ee,64d2fd46c836a06233681665,64dc7ecd757c7ab4466f0a48,,,,,,,decisionTrl,resources/DG.BMP,resources/DP.BMP,Door4,-0.35462963,0.042592593,1,0,0,0.9252,optionLeft,60,6320,3,28,0,28,0,1,,,,,,,,,,,,,,,,,,,,,,,,,,,,,,,,,,,,,,,
,,,,,,,,2023-08-16_08h48.20.699,HF_wild_card,2022.2.4,Win32,60.03842459,63ea42ea3e9be106c194b5ee,64d2fd46c836a06233681665,64dc7ecd757c7ab4466f0a48,,,,,,,decisionTrl,resources/DB.BMP,resources/DBN.BMP,Door2,0.386111111,0.076851852,1,0,0,3.3611,optionRight,20,6340,3,29,0,29,0,1,,,,,,,,,,,,,,,,,,,,,,,,,,,,,,,,,,,,,,,
,,,,,,,,2023-08-16_08h48.20.699,HF_wild_card,2022.2.4,Win32,60.03842459,63ea42ea3e9be106c194b5ee,64d2fd46c836a06233681665,64dc7ecd757c7ab4466f0a48,,,,,,,decisionTrl,resources/DR.BMP,resources/DBN.BMP,WildCard_NonEx,-0.341666667,0.072222222,1,0,0,1.1147,optionLeft,45,6385,3,30,0,30,0,1,,,,,,,,,,,,,,,,,,,,,,,,,,,,,,,,,,,,,,,
,,,,,,,,2023-08-16_08h48.20.699,HF_wild_card,2022.2.4,Win32,60.03842459,63ea42ea3e9be106c194b5ee,64d2fd46c836a06233681665,64dc7ecd757c7ab4466f0a48,,,,,,,decisionTrl,resources/DR.BMP,resources/DP.BMP,WildCard_NonEx,-0.380555556,0.048148148,1,0,0,5.8266,optionLeft,55,6440,3,31,0,31,0,1,,,,,,,,,,,,,,,,,,,,,,,,,,,,,,,,,,,,,,,
,,,,,,,,2023-08-16_08h48.20.699,HF_wild_card,2022.2.4,Win32,60.03842459,63ea42ea3e9be106c194b5ee,64d2fd46c836a06233681665,64dc7ecd757c7ab4466f0a48,,,,,,,decisionTrl,resources/DG.BMP,resources/DP.BMP,Door4,-0.392592593,0.056481481,1,0,0,1.0993,optionLeft,60,6500,3,32,0,32,0,1,,,,,,,,,,,,,,,,,,,,,,,,,,,,,,,,,,,,,,,
,,,,,,,,2023-08-16_08h48.20.699,HF_wild_card,2022.2.4,Win32,60.03842459,63ea42ea3e9be106c194b5ee,64d2fd46c836a06233681665,64dc7ecd757c7ab4466f0a48,,,,,,,decisionTrl,resources/DR.BMP,resources/DB.BMP,WildCard_NonEx,-0.343518519,0.060185185,1,0,0,1.097,optionLeft,45,6545,3,33,0,33,0,1,,,,,,,,,,,,,,,,,,,,,,,,,,,,,,,,,,,,,,,
,,,,,,,,2023-08-16_08h48.20.699,HF_wild_card,2022.2.4,Win32,60.03842459,63ea42ea3e9be106c194b5ee,64d2fd46c836a06233681665,64dc7ecd757c7ab4466f0a48,,,,,,,ctch,resources/DP.BMP,resources/DBN.BMP,Door3,-0.373148148,0.051851852,1,0,0,1.8306,optionLeft,70,6615,3,34,0,34,0,1,,,,,,,,,,,,,,,,,,,,,,,,,,,,,,,,,,,,,,,
,,,,,,,,2023-08-16_08h48.20.699,HF_wild_card,2022.2.4,Win32,60.03842459,63ea42ea3e9be106c194b5ee,64d2fd46c836a06233681665,64dc7ecd757c7ab4466f0a48,,,,,,,ctch,resources/DB.BMP,resources/DG.BMP,Door4,0.398148148,0.073148148,1,0,0,0.9865,optionRight,80,6695,3,35,0,35,0,1,,,,,,,,,,,,,,,,,,,,,,,,,,,,,,,,,,,,,,,
,,,,,,,,2023-08-16_08h48.20.699,HF_wild_card,2022.2.4,Win32,60.03842459,63ea42ea3e9be106c194b5ee,64d2fd46c836a06233681665,64dc7ecd757c7ab4466f0a48,,,,,,,decisionTrl,resources/DP.BMP,resources/DG.BMP,Door4,0.39537037,0.077777778,1,0,0,0.782,optionRight,60,6755,3,36,0,36,0,1,,,,,,,,,,,,,,,,,,,,,,,,,,,,,,,,,,,,,,,
,,,,,,,,2023-08-16_08h48.20.699,HF_wild_card,2022.2.4,Win32,60.03842459,63ea42ea3e9be106c194b5ee,64d2fd46c836a06233681665,64dc7ecd757c7ab4466f0a48,,,,,,,ctch,resources/DG.BMP,resources/DB.BMP,Door4,-0.346296296,0.078703704,1,0,0,0.8991,optionLeft,80,6835,3,37,0,37,0,1,,,,,,,,,,,,,,,,,,,,,,,,,,,,,,,,,,,,,,,
,,,,,,,,2023-08-16_08h48.20.699,HF_wild_card,2022.2.4,Win32,60.03842459,63ea42ea3e9be106c194b5ee,64d2fd46c836a06233681665,64dc7ecd757c7ab4466f0a48,,,,,,,sngl,resources/DG.BMP,resources/Empty.png,Door4,-0.392592593,0.046296296,1,0,0,0.7654,optionLeft,80,6915,3,38,0,38,0,1,,,,,,,,,,,,,,,,,,,,,,,,,,,,,,,,,,,,,,,
,,,,,,,,2023-08-16_08h48.20.699,HF_wild_card,2022.2.4,Win32,60.03842459,63ea42ea3e9be106c194b5ee,64d2fd46c836a06233681665,64dc7ecd757c7ab4466f0a48,,,,,,,decisionTrl,resources/DB.BMP,resources/DR.BMP,WildCard_NonEx,0.376851852,0.057407407,1,0,0,1.6989,optionRight,55,6970,3,39,0,39,0,1,,,,,,,,,,,,,,,,,,,,,,,,,,,,,,,,,,,,,,,
,,,,,,,,2023-08-16_08h48.20.699,HF_wild_card,2022.2.4,Win32,60.03842459,63ea42ea3e9be106c194b5ee,64d2fd46c836a06233681665,64dc7ecd757c7ab4466f0a48,,,,,,,decisionTrl,resources/DBN.BMP,resources/DB.BMP,Door1,0.357407407,0.066666667,1,0,0,1.394,optionRight,30,7000,3,40,0,40,0,1,,,,,,,,,,,,,,,,,,,,,,,,,,,,,,,,,,,,,,,
,,,,,,,,2023-08-16_08h48.20.699,HF_wild_card,2022.2.4,Win32,60.03842459,63ea42ea3e9be106c194b5ee,64d2fd46c836a06233681665,64dc7ecd757c7ab4466f0a48,,,,,,,sngl,resources/DR.BMP,resources/Empty.png,WildCard_NonEx,-0.380555556,0.075925926,1,0,0,0.7653,optionLeft,45,7045,3,41,0,41,0,1,,,,,,,,,,,,,,,,,,,,,,,,,,,,,,,,,,,,,,,
,,,,,,,,2023-08-16_08h48.20.699,HF_wild_card,2022.2.4,Win32,60.03842459,63ea42ea3e9be106c194b5ee,64d2fd46c836a06233681665,64dc7ecd757c7ab4466f0a48,,,,,,,decisionTrl,resources/DP.BMP,resources/DR.BMP,Door3,-0.4,0.023148148,1,0,0,1.4789,optionLeft,70,7115,3,42,0,42,0,1,,,,,,,,,,,,,,,,,,,,,,,,,,,,,,,,,,,,,,,
,,,,,,,,2023-08-16_08h48.20.699,HF_wild_card,2022.2.4,Win32,60.03842459,63ea42ea3e9be106c194b5ee,64d2fd46c836a06233681665,64dc7ecd757c7ab4466f0a48,,,,,,,sngl,resources/DB.BMP,resources/Empty.png,Door1,-0.372222222,0.039814815,1,0,0,0.7992,optionLeft,30,7145,3,43,0,43,0,1,,,,,,,,,,,,,,,,,,,,,,,,,,,,,,,,,,,,,,,
,,,,,,,,2023-08-16_08h48.20.699,HF_wild_card,2022.2.4,Win32,60.03842459,63ea42ea3e9be106c194b5ee,64d2fd46c836a06233681665,64dc7ecd757c7ab4466f0a48,,,,,,,,,,,,,,,,,,,,,,,,,,2,0,2,0,1,,,,,,,,,,,,,,,,,,,,,,,,,,,,,,,,,,
,,,,,,,,2023-08-16_08h48.20.699,HF_wild_card,2022.2.4,Win32,60.03842459,63ea42ea3e9be106c194b5ee,64d2fd46c836a06233681665,64dc7ecd757c7ab4466f0a48,,,,,,,sngl,resources/Empty.png,resources/DY.BMP,WildCard_Ex,0.408333333,0.064814815,1,0,0,1.444,optionRight,95,7240,4,0,0,0,0,1,,,,,,,,,,,,,,,,,,,,,,,,,,,,,,,,,,,,,,,
,,,,,,,,2023-08-16_08h48.20.699,HF_wild_card,2022.2.4,Win32,60.03842459,63ea42ea3e9be106c194b5ee,64d2fd46c836a06233681665,64dc7ecd757c7ab4466f0a48,,,,,,,sngl,resources/Empty.png,resources/DY.BMP,WildCard_Ex,0.39537037,0.04537037,1,0,0,0.8183,optionRight,5,7245,4,1,0,1,0,1,,,,,,,,,,,,,,,,,,,,,,,,,,,,,,,,,,,,,,,
,,,,,,,,2023-08-16_08h48.20.699,HF_wild_card,2022.2.4,Win32,60.03842459,63ea42ea3e9be106c194b5ee,64d2fd46c836a06233681665,64dc7ecd757c7ab4466f0a48,,,,,,,sngl,resources/DB.BMP,resources/Empty.png,Door1,-0.405555556,0.058333333,1,0,0,1.232,optionLeft,30,7275,4,2,0,2,0,1,,,,,,,,,,,,,,,,,,,,,,,,,,,,,,,,,,,,,,,
,,,,,,,,2023-08-16_08h48.20.699,HF_wild_card,2022.2.4,Win32,60.03842459,63ea42ea3e9be106c194b5ee,64d2fd46c836a06233681665,64dc7ecd757c7ab4466f0a48,,,,,,,decisionTrl,resources/DP.BMP,resources/DG.BMP,Door4,0.411111111,0.022222222,1,0,0,2.4334,optionRight,60,7335,4,3,0,3,0,1,,,,,,,,,,,,,,,,,,,,,,,,,,,,,,,,,,,,,,,
,,,,,,,,2023-08-16_08h48.20.699,HF_wild_card,2022.2.4,Win32,60.03842459,63ea42ea3e9be106c194b5ee,64d2fd46c836a06233681665,64dc7ecd757c7ab4466f0a48,,,,,,,decisionTrl,resources/DBN.BMP,resources/DB.BMP,Door1,0.310185185,0.000925926,1,0,0,1.8646,optionRight,30,7365,4,4,0,4,0,1,,,,,,,,,,,,,,,,,,,,,,,,,,,,,,,,,,,,,,,
,,,,,,,,2023-08-16_08h48.20.699,HF_wild_card,2022.2.4,Win32,60.03842459,63ea42ea3e9be106c194b5ee,64d2fd46c836a06233681665,64dc7ecd757c7ab4466f0a48,,,,,,,decisionTrl,resources/DP.BMP,resources/DG.BMP,Door4,0.399074074,0.048148148,1,0,0,2.4929,optionRight,60,7425,4,5,0,5,0,1,,,,,,,,,,,,,,,,,,,,,,,,,,,,,,,,,,,,,,,
,,,,,,,,2023-08-16_08h48.20.699,HF_wild_card,2022.2.4,Win32,60.03842459,63ea42ea3e9be106c194b5ee,64d2fd46c836a06233681665,64dc7ecd757c7ab4466f0a48,,,,,,,decisionTrl,resources/DG.BMP,resources/DP.BMP,Door4,-0.357407407,0.04537037,1,0,0,1.3977,optionLeft,80,7505,4,6,0,6,0,1,,,,,,,,,,,,,,,,,,,,,,,,,,,,,,,,,,,,,,,
,,,,,,,,2023-08-16_08h48.20.699,HF_wild_card,2022.2.4,Win32,60.03842459,63ea42ea3e9be106c194b5ee,64d2fd46c836a06233681665,64dc7ecd757c7ab4466f0a48,,,,,,,decisionTrl,resources/DY.BMP,resources/DP.BMP,WildCard_Ex,-0.361111111,0.048148148,1,0,0,1.3156,optionLeft,5,7510,4,7,0,7,0,1,,,,,,,,,,,,,,,,,,,,,,,,,,,,,,,,,,,,,,,
,,,,,,,,2023-08-16_08h48.20.699,HF_wild_card,2022.2.4,Win32,60.03842459,63ea42ea3e9be106c194b5ee,64d2fd46c836a06233681665,64dc7ecd757c7ab4466f0a48,,,,,,,decisionTrl,resources/DBN.BMP,resources/DB.BMP,Door1,0.381481481,0.069444444,1,0,0,1.6804,optionRight,30,7540,4,8,0,8,0,1,,,,,,,,,,,,,,,,,,,,,,,,,,,,,,,,,,,,,,,
,,,,,,,,2023-08-16_08h48.20.699,HF_wild_card,2022.2.4,Win32,60.03842459,63ea42ea3e9be106c194b5ee,64d2fd46c836a06233681665,64dc7ecd757c7ab4466f0a48,,,,,,,ctch,resources/DG.BMP,resources/DB.BMP,Door4,-0.383333333,0.038888889,1,0,0,1.0487,optionLeft,60,7600,4,9,0,9,0,1,,,,,,,,,,,,,,,,,,,,,,,,,,,,,,,,,,,,,,,
,,,,,,,,2023-08-16_08h48.20.699,HF_wild_card,2022.2.4,Win32,60.03842459,63ea42ea3e9be106c194b5ee,64d2fd46c836a06233681665,64dc7ecd757c7ab4466f0a48,,,,,,,ctch,resources/DBN.BMP,resources/DP.BMP,Door3,0.362962963,0.046296296,1,0,0,1.3485,optionRight,70,7670,4,10,0,10,0,1,,,,,,,,,,,,,,,,,,,,,,,,,,,,,,,,,,,,,,,
,,,,,,,,2023-08-16_08h48.20.699,HF_wild_card,2022.2.4,Win32,60.03842459,63ea42ea3e9be106c194b5ee,64d2fd46c836a06233681665,64dc7ecd757c7ab4466f0a48,,,,,,,decisionTrl,resources/DG.BMP,resources/DY.BMP,WildCard_Ex,0.40462963,0.078703704,1,0,0,1.1787,optionRight,5,7675,4,11,0,11,0,1,,,,,,,,,,,,,,,,,,,,,,,,,,,,,,,,,,,,,,,
,,,,,,,,2023-08-16_08h48.20.699,HF_wild_card,2022.2.4,Win32,60.03842459,63ea42ea3e9be106c194b5ee,64d2fd46c836a06233681665,64dc7ecd757c7ab4466f0a48,,,,,,,sngl,resources/DG.BMP,resources/Empty.png,Door4,-0.419444444,0.040740741,1,0,0,0.7979,optionLeft,60,7735,4,12,0,12,0,1,,,,,,,,,,,,,,,,,,,,,,,,,,,,,,,,,,,,,,,
,,,,,,,,2023-08-16_08h48.20.699,HF_wild_card,2022.2.4,Win32,60.03842459,63ea42ea3e9be106c194b5ee,64d2fd46c836a06233681665,64dc7ecd757c7ab4466f0a48,,,,,,,sngl,resources/Empty.png,resources/DG.BMP,Door4,0.377777778,0.078703704,1,0,0,0.6946,optionRight,80,7815,4,13,0,13,0,1,,,,,,,,,,,,,,,,,,,,,,,,,,,,,,,,,,,,,,,
,,,,,,,,2023-08-16_08h48.20.699,HF_wild_card,2022.2.4,Win32,60.03842459,63ea42ea3e9be106c194b5ee,64d2fd46c836a06233681665,64dc7ecd757c7ab4466f0a48,,,,,,,decisionTrl,resources/DY.BMP,resources/DBN.BMP,Door2,0.353703704,0.062962963,1,0,0,0.9488,optionRight,40,7855,4,14,0,14,0,1,,,,,,,,,,,,,,,,,,,,,,,,,,,,,,,,,,,,,,,
,,,,,,,,2023-08-16_08h48.20.699,HF_wild_card,2022.2.4,Win32,60.03842459,63ea42ea3e9be106c194b5ee,64d2fd46c836a06233681665,64dc7ecd757c7ab4466f0a48,,,,,,,decisionTrl,resources/DY.BMP,resources/DG.BMP,Door4,0.401851852,0.046296296,1,0,0,1.1279,optionRight,60,7915,4,15,0,15,0,1,,,,,,,,,,,,,,,,,,,,,,,,,,,,,,,,,,,,,,,
,,,,,,,,2023-08-16_08h48.20.699,HF_wild_card,2022.2.4,Win32,60.03842459,63ea42ea3e9be106c194b5ee,64d2fd46c836a06233681665,64dc7ecd757c7ab4466f0a48,,,,,,,decisionTrl,resources/DP.BMP,resources/DY.BMP,Door3,-0.386111111,0.039814815,1,0,0,0.9618,optionLeft,70,7985,4,16,0,16,0,1,,,,,,,,,,,,,,,,,,,,,,,,,,,,,,,,,,,,,,,
,,,,,,,,2023-08-16_08h48.20.699,HF_wild_card,2022.2.4,Win32,60.03842459,63ea42ea3e9be106c194b5ee,64d2fd46c836a06233681665,64dc7ecd757c7ab4466f0a48,,,,,,,decisionTrl,resources/DB.BMP,resources/DBN.BMP,Door1,-0.367592593,0.051851852,1,0,0,1.1028,optionLeft,30,8015,4,17,0,17,0,1,,,,,,,,,,,,,,,,,,,,,,,,,,,,,,,,,,,,,,,
,,,,,,,,2023-08-16_08h48.20.699,HF_wild_card,2022.2.4,Win32,60.03842459,63ea42ea3e9be106c194b5ee,64d2fd46c836a06233681665,64dc7ecd757c7ab4466f0a48,,,,,,,sngl,resources/Empty.png,resources/DBN.BMP,Door2,0.360185185,0.061111111,1,0,0,0.811,optionRight,40,8055,4,18,0,18,0,1,,,,,,,,,,,,,,,,,,,,,,,,,,,,,,,,,,,,,,,
,,,,,,,,2023-08-16_08h48.20.699,HF_wild_card,2022.2.4,Win32,60.03842459,63ea42ea3e9be106c194b5ee,64d2fd46c836a06233681665,64dc7ecd757c7ab4466f0a48,,,,,,,sngl,resources/DY.BMP,resources/Empty.png,WildCard_Ex,-0.393518519,0.042592593,1,0,0,0.8667,optionLeft,5,8060,4,19,0,19,0,1,,,,,,,,,,,,,,,,,,,,,,,,,,,,,,,,,,,,,,,
,,,,,,,,2023-08-16_08h48.20.699,HF_wild_card,2022.2.4,Win32,60.03842459,63ea42ea3e9be106c194b5ee,64d2fd46c836a06233681665,64dc7ecd757c7ab4466f0a48,,,,,,,ctch,resources/DG.BMP,resources/DB.BMP,Door4,-0.374074074,0.030555556,1,0,0,1.1978,optionLeft,60,8120,4,20,0,20,0,1,,,,,,,,,,,,,,,,,,,,,,,,,,,,,,,,,,,,,,,
,,,,,,,,2023-08-16_08h48.20.699,HF_wild_card,2022.2.4,Win32,60.03842459,63ea42ea3e9be106c194b5ee,64d2fd46c836a06233681665,64dc7ecd757c7ab4466f0a48,,,,,,,decisionTrl,resources/DBN.BMP,resources/DB.BMP,Door1,0.375,0.046296296,1,0,0,1.0809,optionRight,30,8150,4,21,0,21,0,1,,,,,,,,,,,,,,,,,,,,,,,,,,,,,,,,,,,,,,,
,,,,,,,,2023-08-16_08h48.20.699,HF_wild_card,2022.2.4,Win32,60.03842459,63ea42ea3e9be106c194b5ee,64d2fd46c836a06233681665,64dc7ecd757c7ab4466f0a48,,,,,,,decisionTrl,resources/DG.BMP,resources/DP.BMP,Door4,-0.352777778,0.04537037,1,0,0,1.1031,optionLeft,60,8210,4,22,0,22,0,1,,,,,,,,,,,,,,,,,,,,,,,,,,,,,,,,,,,,,,,
,,,,,,,,2023-08-16_08h48.20.699,HF_wild_card,2022.2.4,Win32,60.03842459,63ea42ea3e9be106c194b5ee,64d2fd46c836a06233681665,64dc7ecd757c7ab4466f0a48,,,,,,,sngl,resources/Empty.png,resources/DB.BMP,Door1,0.443518519,0.043518519,1,0,0,0.7628,optionRight,30,8240,4,23,0,23,0,1,,,,,,,,,,,,,,,,,,,,,,,,,,,,,,,,,,,,,,,
,,,,,,,,2023-08-16_08h48.20.699,HF_wild_card,2022.2.4,Win32,60.03842459,63ea42ea3e9be106c194b5ee,64d2fd46c836a06233681665,64dc7ecd757c7ab4466f0a48,,,,,,,decisionTrl,resources/DB.BMP,resources/DY.BMP,Door1,-0.388888889,0.040740741,1,0,0,1.3656,optionLeft,30,8270,4,24,0,24,0,1,,,,,,,,,,,,,,,,,,,,,,,,,,,,,,,,,,,,,,,
,,,,,,,,2023-08-16_08h48.20.699,HF_wild_card,2022.2.4,Win32,60.03842459,63ea42ea3e9be106c194b5ee,64d2fd46c836a06233681665,64dc7ecd757c7ab4466f0a48,,,,,,,sngl,resources/Empty.png,resources/DP.BMP,Door3,0.437962963,0.035185185,1,0,0,0.7486,optionRight,70,8340,4,25,0,25,0,1,,,,,,,,,,,,,,,,,,,,,,,,,,,,,,,,,,,,,,,
,,,,,,,,2023-08-16_08h48.20.699,HF_wild_card,2022.2.4,Win32,60.03842459,63ea42ea3e9be106c194b5ee,64d2fd46c836a06233681665,64dc7ecd757c7ab4466f0a48,,,,,,,ctch,resources/DB.BMP,resources/DG.BMP,Door4,0.406481481,0.031481481,1,0,0,1.4464,optionRight,60,8400,4,26,0,26,0,1,,,,,,,,,,,,,,,,,,,,,,,,,,,,,,,,,,,,,,,
,,,,,,,,2023-08-16_08h48.20.699,HF_wild_card,2022.2.4,Win32,60.03842459,63ea42ea3e9be106c194b5ee,64d2fd46c836a06233681665,64dc7ecd757c7ab4466f0a48,,,,,,,ctch,resources/DB.BMP,resources/DG.BMP,Door4,0.437962963,0.039814815,1,0,0,0.6962,optionRight,60,8460,4,27,0,27,0,1,,,,,,,,,,,,,,,,,,,,,,,,,,,,,,,,,,,,,,,
,,,,,,,,2023-08-16_08h48.20.699,HF_wild_card,2022.2.4,Win32,60.03842459,63ea42ea3e9be106c194b5ee,64d2fd46c836a06233681665,64dc7ecd757c7ab4466f0a48,,,,,,,decisionTrl,resources/DB.BMP,resources/DBN.BMP,Door1,-0.372222222,0.062037037,1,0,0,0.9652,optionLeft,30,8490,4,28,0,28,0,1,,,,,,,,,,,,,,,,,,,,,,,,,,,,,,,,,,,,,,,
,,,,,,,,2023-08-16_08h48.20.699,HF_wild_card,2022.2.4,Win32,60.03842459,63ea42ea3e9be106c194b5ee,64d2fd46c836a06233681665,64dc7ecd757c7ab4466f0a48,,,,,,,decisionTrl,resources/DP.BMP,resources/DG.BMP,Door4,0.402777778,0.027777778,1,0,0,1.2101,optionRight,60,8550,4,29,0,29,0,1,,,,,,,,,,,,,,,,,,,,,,,,,,,,,,,,,,,,,,,
,,,,,,,,2023-08-16_08h48.20.699,HF_wild_card,2022.2.4,Win32,60.03842459,63ea42ea3e9be106c194b5ee,64d2fd46c836a06233681665,64dc7ecd757c7ab4466f0a48,,,,,,,decisionTrl,resources/DG.BMP,resources/DP.BMP,Door4,-0.360185185,0.031481481,1,0,0,1.7165,optionLeft,80,8630,4,30,0,30,0,1,,,,,,,,,,,,,,,,,,,,,,,,,,,,,,,,,,,,,,,
,,,,,,,,2023-08-16_08h48.20.699,HF_wild_card,2022.2.4,Win32,60.03842459,63ea42ea3e9be106c194b5ee,64d2fd46c836a06233681665,64dc7ecd757c7ab4466f0a48,,,,,,,decisionTrl,resources/DB.BMP,resources/DBN.BMP,Door2,0.472222222,0.07962963,1,0,0,1.3947,optionRight,40,8670,4,31,0,31,0,1,,,,,,,,,,,,,,,,,,,,,,,,,,,,,,,,,,,,,,,
,,,,,,,,2023-08-16_08h48.20.699,HF_wild_card,2022.2.4,Win32,60.03842459,63ea42ea3e9be106c194b5ee,64d2fd46c836a06233681665,64dc7ecd757c7ab4466f0a48,,,,,,,ctch,resources/DBN.BMP,resources/DP.BMP,Door3,0.425925926,0.049074074,1,0,0,0.9487,optionRight,70,8740,4,32,0,32,0,1,,,,,,,,,,,,,,,,,,,,,,,,,,,,,,,,,,,,,,,
,,,,,,,,2023-08-16_08h48.20.699,HF_wild_card,2022.2.4,Win32,60.03842459,63ea42ea3e9be106c194b5ee,64d2fd46c836a06233681665,64dc7ecd757c7ab4466f0a48,,,,,,,decisionTrl,resources/DB.BMP,resources/DBN.BMP,Door1,-0.402777778,0.042592593,1,0,0,1.1481,optionLeft,30,8770,4,33,0,33,0,1,,,,,,,,,,,,,,,,,,,,,,,,,,,,,,,,,,,,,,,
,,,,,,,,2023-08-16_08h48.20.699,HF_wild_card,2022.2.4,Win32,60.03842459,63ea42ea3e9be106c194b5ee,64d2fd46c836a06233681665,64dc7ecd757c7ab4466f0a48,,,,,,,sngl,resources/DY.BMP,resources/Empty.png,WildCard_Ex,-0.335185185,0.017592593,1,0,0,0.9141,optionLeft,95,8865,4,34,0,34,0,1,,,,,,,,,,,,,,,,,,,,,,,,,,,,,,,,,,,,,,,
,,,,,,,,2023-08-16_08h48.20.699,HF_wild_card,2022.2.4,Win32,60.03842459,63ea42ea3e9be106c194b5ee,64d2fd46c836a06233681665,64dc7ecd757c7ab4466f0a48,,,,,,,sngl,resources/DP.BMP,resources/Empty.png,Door3,-0.389814815,0.034259259,1,0,0,0.7914,optionLeft,70,8935,4,35,0,35,0,1,,,,,,,,,,,,,,,,,,,,,,,,,,,,,,,,,,,,,,,
,,,,,,,,2023-08-16_08h48.20.699,HF_wild_card,2022.2.4,Win32,60.03842459,63ea42ea3e9be106c194b5ee,64d2fd46c836a06233681665,64dc7ecd757c7ab4466f0a48,,,,,,,sngl,resources/DBN.BMP,resources/Empty.png,Door2,-0.384259259,0.05,1,0,0,1.2074,optionLeft,20,8955,4,36,0,36,0,1,,,,,,,,,,,,,,,,,,,,,,,,,,,,,,,,,,,,,,,
,,,,,,,,2023-08-16_08h48.20.699,HF_wild_card,2022.2.4,Win32,60.03842459,63ea42ea3e9be106c194b5ee,64d2fd46c836a06233681665,64dc7ecd757c7ab4466f0a48,,,,,,,decisionTrl,resources/DBN.BMP,resources/DY.BMP,Door2,-0.40462963,0.036111111,1,0,0,1.7479,optionLeft,40,8995,4,37,0,37,0,1,,,,,,,,,,,,,,,,,,,,,,,,,,,,,,,,,,,,,,,
,,,,,,,,2023-08-16_08h48.20.699,HF_wild_card,2022.2.4,Win32,60.03842459,63ea42ea3e9be106c194b5ee,64d2fd46c836a06233681665,64dc7ecd757c7ab4466f0a48,,,,,,,ctch,resources/DP.BMP,resources/DBN.BMP,Door3,-0.387962963,0.036111111,1,0,0,1.4617,optionLeft,70,9065,4,38,0,38,0,1,,,,,,,,,,,,,,,,,,,,,,,,,,,,,,,,,,,,,,,
,,,,,,,,2023-08-16_08h48.20.699,HF_wild_card,2022.2.4,Win32,60.03842459,63ea42ea3e9be106c194b5ee,64d2fd46c836a06233681665,64dc7ecd757c7ab4466f0a48,,,,,,,decisionTrl,resources/DY.BMP,resources/DB.BMP,Door1,0.343518519,0.032407407,1,0,0,0.994,optionRight,30,9095,4,39,0,39,0,1,,,,,,,,,,,,,,,,,,,,,,,,,,,,,,,,,,,,,,,
,,,,,,,,2023-08-16_08h48.20.699,HF_wild_card,2022.2.4,Win32,60.03842459,63ea42ea3e9be106c194b5ee,64d2fd46c836a06233681665,64dc7ecd757c7ab4466f0a48,,,,,,,decisionTrl,resources/DG.BMP,resources/DP.BMP,Door4,-0.385185185,0.049074074,1,0,0,0.9143,optionLeft,60,9155,4,40,0,40,0,1,,,,,,,,,,,,,,,,,,,,,,,,,,,,,,,,,,,,,,,
,,,,,,,,2023-08-16_08h48.20.699,HF_wild_card,2022.2.4,Win32,60.03842459,63ea42ea3e9be106c194b5ee,64d2fd46c836a06233681665,64dc7ecd757c7ab4466f0a48,,,,,,,ctch,resources/DP.BMP,resources/DBN.BMP,Door3,-0.385185185,0.042592593,1,0,0,1.2461,optionLeft,70,9225,4,41,0,41,0,1,,,,,,,,,,,,,,,,,,,,,,,,,,,,,,,,,,,,,,,
,,,,,,,,2023-08-16_08h48.20.699,HF_wild_card,2022.2.4,Win32,60.03842459,63ea42ea3e9be106c194b5ee,64d2fd46c836a06233681665,64dc7ecd757c7ab4466f0a48,,,,,,,decisionTrl,resources/DP.BMP,resources/DG.BMP,Door4,0.321296296,0.030555556,1,0,0,2.1824,optionRight,80,9305,4,42,0,42,0,1,,,,,,,,,,,,,,,,,,,,,,,,,,,,,,,,,,,,,,,
,,,,,,,,2023-08-16_08h48.20.699,HF_wild_card,2022.2.4,Win32,60.03842459,63ea42ea3e9be106c194b5ee,64d2fd46c836a06233681665,64dc7ecd757c7ab4466f0a48,,,,,,,decisionTrl,resources/DBN.BMP,resources/DB.BMP,Door1,0.385185185,0.05,1,0,0,1.4788,optionRight,30,9335,4,43,0,43,0,1,,,,,,,,,,,,,,,,,,,,,,,,,,,,,,,,,,,,,,,
,,,,,,,,2023-08-16_08h48.20.699,HF_wild_card,2022.2.4,Win32,60.03842459,63ea42ea3e9be106c194b5ee,64d2fd46c836a06233681665,64dc7ecd757c7ab4466f0a48,,,,,,,,,,,,,,,,,,,,,,,,,,3,0,3,0,1,,,,,,,,,,,,,,,,,,,,,,,,,,,,,,,,,,
,,,,,,,,2023-08-16_08h48.20.699,HF_wild_card,2022.2.4,Win32,60.03842459,63ea42ea3e9be106c194b5ee,64d2fd46c836a06233681665,64dc7ecd757c7ab4466f0a48,,,,,,,decisionTrl,resources/DY.BMP,resources/DB.BMP,Door1,0.436111111,0.050925926,1,0,0,1.1069,optionRight,30,9365,5,0,0,0,0,1,,,,,,,,,,,,,,,,,,,,,,,,,,,,,,,,,,,,,,,
,,,,,,,,2023-08-16_08h48.20.699,HF_wild_card,2022.2.4,Win32,60.03842459,63ea42ea3e9be106c194b5ee,64d2fd46c836a06233681665,64dc7ecd757c7ab4466f0a48,,,,,,,sngl,resources/DG.BMP,resources/Empty.png,Door4,-0.368518519,0.033333333,1,0,0,0.6988,optionLeft,80,9445,5,1,0,1,0,1,,,,,,,,,,,,,,,,,,,,,,,,,,,,,,,,,,,,,,,
,,,,,,,,2023-08-16_08h48.20.699,HF_wild_card,2022.2.4,Win32,60.03842459,63ea42ea3e9be106c194b5ee,64d2fd46c836a06233681665,64dc7ecd757c7ab4466f0a48,,,,,,,decisionTrl,resources/DG.BMP,resources/DP.BMP,Door4,-0.414814815,0.032407407,1,0,0,1.8613,optionLeft,60,9505,5,2,0,2,0,1,,,,,,,,,,,,,,,,,,,,,,,,,,,,,,,,,,,,,,,
,,,,,,,,2023-08-16_08h48.20.699,HF_wild_card,2022.2.4,Win32,60.03842459,63ea42ea3e9be106c194b5ee,64d2fd46c836a06233681665,64dc7ecd757c7ab4466f0a48,,,,,,,sngl,resources/Empty.png,resources/DB.BMP,Door1,0.444444444,0.036111111,1,0,0,0.8142,optionRight,30,9535,5,3,0,3,0,1,,,,,,,,,,,,,,,,,,,,,,,,,,,,,,,,,,,,,,,
,,,,,,,,2023-08-16_08h48.20.699,HF_wild_card,2022.2.4,Win32,60.03842459,63ea42ea3e9be106c194b5ee,64d2fd46c836a06233681665,64dc7ecd757c7ab4466f0a48,,,,,,,decisionTrl,resources/DB.BMP,resources/DBN.BMP,Door2,0.372222222,0.084259259,1,0,0,1.1819,optionRight,40,9575,5,4,0,4,0,1,,,,,,,,,,,,,,,,,,,,,,,,,,,,,,,,,,,,,,,
,,,,,,,,2023-08-16_08h48.20.699,HF_wild_card,2022.2.4,Win32,60.03842459,63ea42ea3e9be106c194b5ee,64d2fd46c836a06233681665,64dc7ecd757c7ab4466f0a48,,,,,,,sngl,resources/DB.BMP,resources/Empty.png,Door1,-0.327777778,0.047222222,1,0,0,0.6923,optionLeft,30,9605,5,5,0,5,0,1,,,,,,,,,,,,,,,,,,,,,,,,,,,,,,,,,,,,,,,
,,,,,,,,2023-08-16_08h48.20.699,HF_wild_card,2022.2.4,Win32,60.03842459,63ea42ea3e9be106c194b5ee,64d2fd46c836a06233681665,64dc7ecd757c7ab4466f0a48,,,,,,,ctch,resources/DBN.BMP,resources/DP.BMP,Door3,0.368518519,0.032407407,1,0,0,1.3793,optionRight,70,9675,5,6,0,6,0,1,,,,,,,,,,,,,,,,,,,,,,,,,,,,,,,,,,,,,,,
,,,,,,,,2023-08-16_08h48.20.699,HF_wild_card,2022.2.4,Win32,60.03842459,63ea42ea3e9be106c194b5ee,64d2fd46c836a06233681665,64dc7ecd757c7ab4466f0a48,,,,,,,ctch,resources/DB.BMP,resources/DG.BMP,Door4,0.348148148,0.05,1,0,0,1.0105,optionRight,60,9735,5,7,0,7,0,1,,,,,,,,,,,,,,,,,,,,,,,,,,,,,,,,,,,,,,,
,,,,,,,,2023-08-16_08h48.20.699,HF_wild_card,2022.2.4,Win32,60.03842459,63ea42ea3e9be106c194b5ee,64d2fd46c836a06233681665,64dc7ecd757c7ab4466f0a48,,,,,,,decisionTrl,resources/DY.BMP,resources/DP.BMP,Door3,0.361111111,0.028703704,1,0,0,0.9151,optionRight,70,9805,5,8,0,8,0,1,,,,,,,,,,,,,,,,,,,,,,,,,,,,,,,,,,,,,,,
,,,,,,,,2023-08-16_08h48.20.699,HF_wild_card,2022.2.4,Win32,60.03842459,63ea42ea3e9be106c194b5ee,64d2fd46c836a06233681665,64dc7ecd757c7ab4466f0a48,,,,,,,decisionTrl,resources/DP.BMP,resources/DG.BMP,Door4,0.398148148,0.032407407,1,0,0,2.6821,optionRight,80,9885,5,9,0,9,0,1,,,,,,,,,,,,,,,,,,,,,,,,,,,,,,,,,,,,,,,
,,,,,,,,2023-08-16_08h48.20.699,HF_wild_card,2022.2.4,Win32,60.03842459,63ea42ea3e9be106c194b5ee,64d2fd46c836a06233681665,64dc7ecd757c7ab4466f0a48,,,,,,,decisionTrl,resources/DB.BMP,resources/DBN.BMP,Door2,0.319444444,0.048148148,1,0,0,1.0168,optionRight,20,9905,5,10,0,10,0,1,,,,,,,,,,,,,,,,,,,,,,,,,,,,,,,,,,,,,,,
,,,,,,,,2023-08-16_08h48.20.699,HF_wild_card,2022.2.4,Win32,60.03842459,63ea42ea3e9be106c194b5ee,64d2fd46c836a06233681665,64dc7ecd757c7ab4466f0a48,,,,,,,sngl,resources/DBN.BMP,resources/Empty.png,Door2,-0.353703704,0.051851852,1,0,0,0.8982,optionLeft,40,9945,5,11,0,11,0,1,,,,,,,,,,,,,,,,,,,,,,,,,,,,,,,,,,,,,,,
,,,,,,,,2023-08-16_08h48.20.699,HF_wild_card,2022.2.4,Win32,60.03842459,63ea42ea3e9be106c194b5ee,64d2fd46c836a06233681665,64dc7ecd757c7ab4466f0a48,,,,,,,decisionTrl,resources/DG.BMP,resources/DP.BMP,Door4,-0.362037037,0.023148148,1,0,0,1.4875,optionLeft,80,10025,5,12,0,12,0,1,,,,,,,,,,,,,,,,,,,,,,,,,,,,,,,,,,,,,,,
,,,,,,,,2023-08-16_08h48.20.699,HF_wild_card,2022.2.4,Win32,60.03842459,63ea42ea3e9be106c194b5ee,64d2fd46c836a06233681665,64dc7ecd757c7ab4466f0a48,,,,,,,ctch,resources/DG.BMP,resources/DB.BMP,Door4,-0.375,0.05,1,0,0,1.6804,optionLeft,60,10085,5,13,0,13,0,1,,,,,,,,,,,,,,,,,,,,,,,,,,,,,,,,,,,,,,,
,,,,,,,,2023-08-16_08h48.20.699,HF_wild_card,2022.2.4,Win32,60.03842459,63ea42ea3e9be106c194b5ee,64d2fd46c836a06233681665,64dc7ecd757c7ab4466f0a48,,,,,,,decisionTrl,resources/DG.BMP,resources/DY.BMP,Door4,-0.357407407,0.039814815,1,0,0,1.1823,optionLeft,80,10165,5,14,0,14,0,1,,,,,,,,,,,,,,,,,,,,,,,,,,,,,,,,,,,,,,,
,,,,,,,,2023-08-16_08h48.20.699,HF_wild_card,2022.2.4,Win32,60.03842459,63ea42ea3e9be106c194b5ee,64d2fd46c836a06233681665,64dc7ecd757c7ab4466f0a48,,,,,,,decisionTrl,resources/DBN.BMP,resources/DY.BMP,Door2,-0.416666667,0.060185185,1,0,0,2.7278,optionLeft,40,10205,5,15,0,15,0,1,,,,,,,,,,,,,,,,,,,,,,,,,,,,,,,,,,,,,,,
,,,,,,,,2023-08-16_08h48.20.699,HF_wild_card,2022.2.4,Win32,60.03842459,63ea42ea3e9be106c194b5ee,64d2fd46c836a06233681665,64dc7ecd757c7ab4466f0a48,,,,,,,sngl,resources/Empty.png,resources/DG.BMP,Door4,0.456481481,0.04537037,1,0,0,0.8616,optionRight,60,10265,5,16,0,16,0,1,,,,,,,,,,,,,,,,,,,,,,,,,,,,,,,,,,,,,,,
,,,,,,,,2023-08-16_08h48.20.699,HF_wild_card,2022.2.4,Win32,60.03842459,63ea42ea3e9be106c194b5ee,64d2fd46c836a06233681665,64dc7ecd757c7ab4466f0a48,,,,,,,sngl,resources/DY.BMP,resources/Empty.png,WildCard_Ex,-0.353703704,0.039814815,1,0,0,1.0254,optionLeft,5,10270,5,17,0,17,0,1,,,,,,,,,,,,,,,,,,,,,,,,,,,,,,,,,,,,,,,
,,,,,,,,2023-08-16_08h48.20.699,HF_wild_card,2022.2.4,Win32,60.03842459,63ea42ea3e9be106c194b5ee,64d2fd46c836a06233681665,64dc7ecd757c7ab4466f0a48,,,,,,,decisionTrl,resources/DY.BMP,resources/DG.BMP,Door4,0.383333333,0.030555556,1,0,0,0.9611,optionRight,60,10330,5,18,0,18,0,1,,,,,,,,,,,,,,,,,,,,,,,,,,,,,,,,,,,,,,,
,,,,,,,,2023-08-16_08h48.20.699,HF_wild_card,2022.2.4,Win32,60.03842459,63ea42ea3e9be106c194b5ee,64d2fd46c836a06233681665,64dc7ecd757c7ab4466f0a48,,,,,,,decisionTrl,resources/DP.BMP,resources/DG.BMP,Door4,0.399074074,0.064814815,1,0,0,1.2763,optionRight,80,10410,5,19,0,19,0,1,,,,,,,,,,,,,,,,,,,,,,,,,,,,,,,,,,,,,,,
,,,,,,,,2023-08-16_08h48.20.699,HF_wild_card,2022.2.4,Win32,60.03842459,63ea42ea3e9be106c194b5ee,64d2fd46c836a06233681665,64dc7ecd757c7ab4466f0a48,,,,,,,sngl,resources/DY.BMP,resources/Empty.png,WildCard_Ex,-0.315740741,0.031481481,1,0,0,0.8517,optionLeft,95,10505,5,20,0,20,0,1,,,,,,,,,,,,,,,,,,,,,,,,,,,,,,,,,,,,,,,
,,,,,,,,2023-08-16_08h48.20.699,HF_wild_card,2022.2.4,Win32,60.03842459,63ea42ea3e9be106c194b5ee,64d2fd46c836a06233681665,64dc7ecd757c7ab4466f0a48,,,,,,,sngl,resources/Empty.png,resources/DY.BMP,WildCard_Ex,0.39537037,0.042592593,1,0,0,0.8946,optionRight,95,10600,5,21,0,21,0,1,,,,,,,,,,,,,,,,,,,,,,,,,,,,,,,,,,,,,,,
,,,,,,,,2023-08-16_08h48.20.699,HF_wild_card,2022.2.4,Win32,60.03842459,63ea42ea3e9be106c194b5ee,64d2fd46c836a06233681665,64dc7ecd757c7ab4466f0a48,,,,,,,sngl,resources/DP.BMP,resources/Empty.png,Door3,-0.371296296,0.023148148,1,0,0,0.7257,optionLeft,70,10670,5,22,0,22,0,1,,,,,,,,,,,,,,,,,,,,,,,,,,,,,,,,,,,,,,,
,,,,,,,,2023-08-16_08h48.20.699,HF_wild_card,2022.2.4,Win32,60.03842459,63ea42ea3e9be106c194b5ee,64d2fd46c836a06233681665,64dc7ecd757c7ab4466f0a48,,,,,,,decisionTrl,resources/DP.BMP,resources/DG.BMP,Door4,0.416666667,0.042592593,1,0,0,1.5368,optionRight,60,10730,5,23,0,23,0,1,,,,,,,,,,,,,,,,,,,,,,,,,,,,,,,,,,,,,,,
,,,,,,,,2023-08-16_08h48.20.699,HF_wild_card,2022.2.4,Win32,60.03842459,63ea42ea3e9be106c194b5ee,64d2fd46c836a06233681665,64dc7ecd757c7ab4466f0a48,,,,,,,decisionTrl,resources/DP.BMP,resources/DY.BMP,Door3,-0.397222222,0.02037037,1,0,0,1.5277,optionLeft,70,10800,5,24,0,24,0,1,,,,,,,,,,,,,,,,,,,,,,,,,,,,,,,,,,,,,,,
,,,,,,,,2023-08-16_08h48.20.699,HF_wild_card,2022.2.4,Win32,60.03842459,63ea42ea3e9be106c194b5ee,64d2fd46c836a06233681665,64dc7ecd757c7ab4466f0a48,,,,,,,decisionTrl,resources/DG.BMP,resources/DP.BMP,Door4,-0.381481481,0.035185185,1,0,0,1.3318,optionLeft,60,10860,5,25,0,25,0,1,,,,,,,,,,,,,,,,,,,,,,,,,,,,,,,,,,,,,,,
,,,,,,,,2023-08-16_08h48.20.699,HF_wild_card,2022.2.4,Win32,60.03842459,63ea42ea3e9be106c194b5ee,64d2fd46c836a06233681665,64dc7ecd757c7ab4466f0a48,,,,,,,ctch,resources/DG.BMP,resources/DB.BMP,Door4,-0.402777778,0.036111111,1,0,0,1.1155,optionLeft,80,10940,5,26,0,26,0,1,,,,,,,,,,,,,,,,,,,,,,,,,,,,,,,,,,,,,,,
,,,,,,,,2023-08-16_08h48.20.699,HF_wild_card,2022.2.4,Win32,60.03842459,63ea42ea3e9be106c194b5ee,64d2fd46c836a06233681665,64dc7ecd757c7ab4466f0a48,,,,,,,sngl,resources/Empty.png,resources/DP.BMP,Door3,0.422222222,0.041666667,1,0,0,0.718,optionRight,70,11010,5,27,0,27,0,1,,,,,,,,,,,,,,,,,,,,,,,,,,,,,,,,,,,,,,,
,,,,,,,,2023-08-16_08h48.20.699,HF_wild_card,2022.2.4,Win32,60.03842459,63ea42ea3e9be106c194b5ee,64d2fd46c836a06233681665,64dc7ecd757c7ab4466f0a48,,,,,,,decisionTrl,resources/DBN.BMP,resources/DB.BMP,Door1,0.392592593,0.037037037,1,0,0,1.3489,optionRight,30,11040,5,28,0,28,0,1,,,,,,,,,,,,,,,,,,,,,,,,,,,,,,,,,,,,,,,
,,,,,,,,2023-08-16_08h48.20.699,HF_wild_card,2022.2.4,Win32,60.03842459,63ea42ea3e9be106c194b5ee,64d2fd46c836a06233681665,64dc7ecd757c7ab4466f0a48,,,,,,,ctch,resources/DB.BMP,resources/DG.BMP,Door4,0.380555556,0.055555556,1,0,0,1.0477,optionRight,60,11100,5,29,0,29,0,1,,,,,,,,,,,,,,,,,,,,,,,,,,,,,,,,,,,,,,,
,,,,,,,,2023-08-16_08h48.20.699,HF_wild_card,2022.2.4,Win32,60.03842459,63ea42ea3e9be106c194b5ee,64d2fd46c836a06233681665,64dc7ecd757c7ab4466f0a48,,,,,,,decisionTrl,resources/DP.BMP,resources/DG.BMP,Door4,0.392592593,0.034259259,1,0,0,0.9139,optionRight,80,11180,5,30,0,30,0,1,,,,,,,,,,,,,,,,,,,,,,,,,,,,,,,,,,,,,,,
,,,,,,,,2023-08-16_08h48.20.699,HF_wild_card,2022.2.4,Win32,60.03842459,63ea42ea3e9be106c194b5ee,64d2fd46c836a06233681665,64dc7ecd757c7ab4466f0a48,,,,,,,ctch,resources/DP.BMP,resources/DBN.BMP,Door3,-0.368518519,0.031481481,1,0,0,0.9982,optionLeft,70,11250,5,31,0,31,0,1,,,,,,,,,,,,,,,,,,,,,,,,,,,,,,,,,,,,,,,
,,,,,,,,2023-08-16_08h48.20.699,HF_wild_card,2022.2.4,Win32,60.03842459,63ea42ea3e9be106c194b5ee,64d2fd46c836a06233681665,64dc7ecd757c7ab4466f0a48,,,,,,,decisionTrl,resources/DB.BMP,resources/DBN.BMP,Door1,-0.372222222,0.017592593,1,0,0,1.0619,optionLeft,30,11280,5,32,0,32,0,1,,,,,,,,,,,,,,,,,,,,,,,,,,,,,,,,,,,,,,,
,,,,,,,,2023-08-16_08h48.20.699,HF_wild_card,2022.2.4,Win32,60.03842459,63ea42ea3e9be106c194b5ee,64d2fd46c836a06233681665,64dc7ecd757c7ab4466f0a48,,,,,,,ctch,resources/DP.BMP,resources/DBN.BMP,Door2,0.364814815,0.041666667,1,0,0,0.7132,optionRight,20,11300,5,33,0,33,0,1,,,,,,,,,,,,,,,,,,,,,,,,,,,,,,,,,,,,,,,
,,,,,,,,2023-08-16_08h48.20.699,HF_wild_card,2022.2.4,Win32,60.03842459,63ea42ea3e9be106c194b5ee,64d2fd46c836a06233681665,64dc7ecd757c7ab4466f0a48,,,,,,,decisionTrl,resources/DB.BMP,resources/DY.BMP,Door1,-0.318518519,0.024074074,1,0,0,1.2473,optionLeft,30,11330,5,34,0,34,0,1,,,,,,,,,,,,,,,,,,,,,,,,,,,,,,,,,,,,,,,
,,,,,,,,2023-08-16_08h48.20.699,HF_wild_card,2022.2.4,Win32,60.03842459,63ea42ea3e9be106c194b5ee,64d2fd46c836a06233681665,64dc7ecd757c7ab4466f0a48,,,,,,,sngl,resources/Empty.png,resources/DY.BMP,WildCard_Ex,0.482407407,0.055555556,1,0,0,0.7113,optionRight,5,11335,5,35,0,35,0,1,,,,,,,,,,,,,,,,,,,,,,,,,,,,,,,,,,,,,,,
,,,,,,,,2023-08-16_08h48.20.699,HF_wild_card,2022.2.4,Win32,60.03842459,63ea42ea3e9be106c194b5ee,64d2fd46c836a06233681665,64dc7ecd757c7ab4466f0a48,,,,,,,decisionTrl,resources/DB.BMP,resources/DBN.BMP,Door1,-0.351851852,0.031481481,1,0,0,1.0649,optionLeft,30,11365,5,36,0,36,0,1,,,,,,,,,,,,,,,,,,,,,,,,,,,,,,,,,,,,,,,
,,,,,,,,2023-08-16_08h48.20.699,HF_wild_card,2022.2.4,Win32,60.03842459,63ea42ea3e9be106c194b5ee,64d2fd46c836a06233681665,64dc7ecd757c7ab4466f0a48,,,,,,,decisionTrl,resources/DBN.BMP,resources/DB.BMP,Door1,0.349074074,0.033333333,1,0,0,1.3835,optionRight,30,11395,5,37,0,37,0,1,,,,,,,,,,,,,,,,,,,,,,,,,,,,,,,,,,,,,,,
,,,,,,,,2023-08-16_08h48.20.699,HF_wild_card,2022.2.4,Win32,60.03842459,63ea42ea3e9be106c194b5ee,64d2fd46c836a06233681665,64dc7ecd757c7ab4466f0a48,,,,,,,decisionTrl,resources/DG.BMP,resources/DP.BMP,Door4,-0.362037037,0.033333333,1,0,0,1.0886,optionLeft,60,11455,5,38,0,38,0,1,,,,,,,,,,,,,,,,,,,,,,,,,,,,,,,,,,,,,,,
,,,,,,,,2023-08-16_08h48.20.699,HF_wild_card,2022.2.4,Win32,60.03842459,63ea42ea3e9be106c194b5ee,64d2fd46c836a06233681665,64dc7ecd757c7ab4466f0a48,,,,,,,decisionTrl,resources/DBN.BMP,resources/DB.BMP,Door1,0.375,0.039814815,1,0,0,1.2113,optionRight,30,11485,5,39,0,39,0,1,,,,,,,,,,,,,,,,,,,,,,,,,,,,,,,,,,,,,,,
,,,,,,,,2023-08-16_08h48.20.699,HF_wild_card,2022.2.4,Win32,60.03842459,63ea42ea3e9be106c194b5ee,64d2fd46c836a06233681665,64dc7ecd757c7ab4466f0a48,,,,,,,decisionTrl,resources/DBN.BMP,resources/DB.BMP,Door1,0.414814815,0.048148148,1,0,0,0.8156,optionRight,30,11515,5,40,0,40,0,1,,,,,,,,,,,,,,,,,,,,,,,,,,,,,,,,,,,,,,,
,,,,,,,,2023-08-16_08h48.20.699,HF_wild_card,2022.2.4,Win32,60.03842459,63ea42ea3e9be106c194b5ee,64d2fd46c836a06233681665,64dc7ecd757c7ab4466f0a48,,,,,,,sngl,resources/Empty.png,resources/DBN.BMP,Door2,0.392592593,0.052777778,1,0,0,0.6787,optionRight,20,11535,5,41,0,41,0,1,,,,,,,,,,,,,,,,,,,,,,,,,,,,,,,,,,,,,,,
,,,,,,,,2023-08-16_08h48.20.699,HF_wild_card,2022.2.4,Win32,60.03842459,63ea42ea3e9be106c194b5ee,64d2fd46c836a06233681665,64dc7ecd757c7ab4466f0a48,,,,,,,ctch,resources/DBN.BMP,resources/DP.BMP,Door3,0.324074074,0.038888889,1,0,0,2.1616,optionRight,70,11605,5,42,0,42,0,1,,,,,,,,,,,,,,,,,,,,,,,,,,,,,,,,,,,,,,,
,,,,,,,,2023-08-16_08h48.20.699,HF_wild_card,2022.2.4,Win32,60.03842459,63ea42ea3e9be106c194b5ee,64d2fd46c836a06233681665,64dc7ecd757c7ab4466f0a48,,,,,,,decisionTrl,resources/DY.BMP,resources/DBN.BMP,Door2,0.352777778,0.062037037,1,0,0,2.8118,optionRight,20,11625,5,43,0,43,0,1,,,,,,,,,,,,,,,,,,,,,,,,,,,,,,,,,,,,,,,
,,,,,,,,2023-08-16_08h48.20.699,HF_wild_card,2022.2.4,Win32,60.03842459,63ea42ea3e9be106c194b5ee,64d2fd46c836a06233681665,64dc7ecd757c7ab4466f0a48,,,,,,,,,,,,,,,,,,,,,,,,,,4,0,4,0,1,,,,,,,,,,,,,,,,,,,,,,,,,,,,,,,,,,
,,,,,,,,2023-08-16_08h48.20.699,HF_wild_card,2022.2.4,Win32,60.03842459,63ea42ea3e9be106c194b5ee,64d2fd46c836a06233681665,64dc7ecd757c7ab4466f0a48,,,,,,,sngl,resources/DY.BMP,resources/Empty.png,WildCard_Ex,-0.378703704,0.031481481,1,0,0,0.7646,optionLeft,95,11720,6,0,0,0,0,1,,,,,,,,,,,,,,,,,,,,,,,,,,,,,,,,,,,,,,,
,,,,,,,,2023-08-16_08h48.20.699,HF_wild_card,2022.2.4,Win32,60.03842459,63ea42ea3e9be106c194b5ee,64d2fd46c836a06233681665,64dc7ecd757c7ab4466f0a48,,,,,,,decisionTrl,resources/DP.BMP,resources/DG.BMP,Door4,0.372222222,0.049074074,1,0,0,1.7155,optionRight,60,11780,6,1,0,1,0,1,,,,,,,,,,,,,,,,,,,,,,,,,,,,,,,,,,,,,,,
,,,,,,,,2023-08-16_08h48.20.699,HF_wild_card,2022.2.4,Win32,60.03842459,63ea42ea3e9be106c194b5ee,64d2fd46c836a06233681665,64dc7ecd757c7ab4466f0a48,,,,,,,sngl,resources/DG.BMP,resources/Empty.png,Door4,-0.313888889,0.02037037,1,0,0,0.7153,optionLeft,60,11840,6,2,0,2,0,1,,,,,,,,,,,,,,,,,,,,,,,,,,,,,,,,,,,,,,,
,,,,,,,,2023-08-16_08h48.20.699,HF_wild_card,2022.2.4,Win32,60.03842459,63ea42ea3e9be106c194b5ee,64d2fd46c836a06233681665,64dc7ecd757c7ab4466f0a48,,,,,,,ctch,resources/DBN.BMP,resources/DP.BMP,Door3,0.357407407,0.02962963,1,0,0,1.0654,optionRight,70,11910,6,3,0,3,0,1,,,,,,,,,,,,,,,,,,,,,,,,,,,,,,,,,,,,,,,
,,,,,,,,2023-08-16_08h48.20.699,HF_wild_card,2022.2.4,Win32,60.03842459,63ea42ea3e9be106c194b5ee,64d2fd46c836a06233681665,64dc7ecd757c7ab4466f0a48,,,,,,,decisionTrl,resources/DBN.BMP,resources/DB.BMP,Door1,0.353703704,0.02962963,1,0,0,1.1317,optionRight,30,11940,6,4,0,4,0,1,,,,,,,,,,,,,,,,,,,,,,,,,,,,,,,,,,,,,,,
,,,,,,,,2023-08-16_08h48.20.699,HF_wild_card,2022.2.4,Win32,60.03842459,63ea42ea3e9be106c194b5ee,64d2fd46c836a06233681665,64dc7ecd757c7ab4466f0a48,,,,,,,decisionTrl,resources/DY.BMP,resources/DBN.BMP,WildCard_Ex,-0.272222222,0.025925926,1,0,0,1.9421,optionLeft,5,11945,6,5,0,5,0,1,,,,,,,,,,,,,,,,,,,,,,,,,,,,,,,,,,,,,,,
,,,,,,,,2023-08-16_08h48.20.699,HF_wild_card,2022.2.4,Win32,60.03842459,63ea42ea3e9be106c194b5ee,64d2fd46c836a06233681665,64dc7ecd757c7ab4466f0a48,,,,,,,decisionTrl,resources/DP.BMP,resources/DY.BMP,Door3,-0.314814815,0.044444444,1,0,0,2.0225,optionLeft,70,12015,6,6,0,6,0,1,,,,,,,,,,,,,,,,,,,,,,,,,,,,,,,,,,,,,,,
,,,,,,,,2023-08-16_08h48.20.699,HF_wild_card,2022.2.4,Win32,60.03842459,63ea42ea3e9be106c194b5ee,64d2fd46c836a06233681665,64dc7ecd757c7ab4466f0a48,,,,,,,decisionTrl,resources/DG.BMP,resources/DP.BMP,Door4,-0.286111111,0.038888889,1,0,0,0.9809,optionLeft,60,12075,6,7,0,7,0,1,,,,,,,,,,,,,,,,,,,,,,,,,,,,,,,,,,,,,,,
,,,,,,,,2023-08-16_08h48.20.699,HF_wild_card,2022.2.4,Win32,60.03842459,63ea42ea3e9be106c194b5ee,64d2fd46c836a06233681665,64dc7ecd757c7ab4466f0a48,,,,,,,decisionTrl,resources/DY.BMP,resources/DP.BMP,Door3,0.37962963,0.036111111,1,0,0,1.0821,optionRight,70,12145,6,8,0,8,0,1,,,,,,,,,,,,,,,,,,,,,,,,,,,,,,,,,,,,,,,
,,,,,,,,2023-08-16_08h48.20.699,HF_wild_card,2022.2.4,Win32,60.03842459,63ea42ea3e9be106c194b5ee,64d2fd46c836a06233681665,64dc7ecd757c7ab4466f0a48,,,,,,,decisionTrl,resources/DY.BMP,resources/DB.BMP,Door1,0.469444444,0.039814815,1,0,0,1.7325,optionRight,30,12175,6,9,0,9,0,1,,,,,,,,,,,,,,,,,,,,,,,,,,,,,,,,,,,,,,,
,,,,,,,,2023-08-16_08h48.20.699,HF_wild_card,2022.2.4,Win32,60.03842459,63ea42ea3e9be106c194b5ee,64d2fd46c836a06233681665,64dc7ecd757c7ab4466f0a48,,,,,,,ctch,resources/DG.BMP,resources/DB.BMP,Door4,-0.317592593,0.025,1,0,0,0.8452,optionLeft,80,12255,6,10,0,10,0,1,,,,,,,,,,,,,,,,,,,,,,,,,,,,,,,,,,,,,,,
,,,,,,,,2023-08-16_08h48.20.699,HF_wild_card,2022.2.4,Win32,60.03842459,63ea42ea3e9be106c194b5ee,64d2fd46c836a06233681665,64dc7ecd757c7ab4466f0a48,,,,,,,ctch,resources/DB.BMP,resources/DG.BMP,Door4,0.35462963,0.034259259,1,0,0,1.1153,optionRight,60,12315,6,11,0,11,0,1,,,,,,,,,,,,,,,,,,,,,,,,,,,,,,,,,,,,,,,
,,,,,,,,2023-08-16_08h48.20.699,HF_wild_card,2022.2.4,Win32,60.03842459,63ea42ea3e9be106c194b5ee,64d2fd46c836a06233681665,64dc7ecd757c7ab4466f0a48,,,,,,,decisionTrl,resources/DG.BMP,resources/DP.BMP,Door4,-0.316666667,0.003703704,1,0,0,0.9648,optionLeft,60,12375,6,12,0,12,0,1,,,,,,,,,,,,,,,,,,,,,,,,,,,,,,,,,,,,,,,
,,,,,,,,2023-08-16_08h48.20.699,HF_wild_card,2022.2.4,Win32,60.03842459,63ea42ea3e9be106c194b5ee,64d2fd46c836a06233681665,64dc7ecd757c7ab4466f0a48,,,,,,,decisionTrl,resources/DB.BMP,resources/DY.BMP,Door1,-0.392592593,0.009259259,1,0,0,0.9806,optionLeft,30,12405,6,13,0,13,0,1,,,,,,,,,,,,,,,,,,,,,,,,,,,,,,,,,,,,,,,
,,,,,,,,2023-08-16_08h48.20.699,HF_wild_card,2022.2.4,Win32,60.03842459,63ea42ea3e9be106c194b5ee,64d2fd46c836a06233681665,64dc7ecd757c7ab4466f0a48,,,,,,,sngl,resources/DB.BMP,resources/Empty.png,Door1,-0.325,0.011111111,1,0,0,0.7822,optionLeft,30,12435,6,14,0,14,0,1,,,,,,,,,,,,,,,,,,,,,,,,,,,,,,,,,,,,,,,
,,,,,,,,2023-08-16_08h48.20.699,HF_wild_card,2022.2.4,Win32,60.03842459,63ea42ea3e9be106c194b5ee,64d2fd46c836a06233681665,64dc7ecd757c7ab4466f0a48,,,,,,,decisionTrl,resources/DB.BMP,resources/DBN.BMP,Door2,0.349074074,0.02962963,1,0,0,1.1987,optionRight,40,12475,6,15,0,15,0,1,,,,,,,,,,,,,,,,,,,,,,,,,,,,,,,,,,,,,,,
,,,,,,,,2023-08-16_08h48.20.699,HF_wild_card,2022.2.4,Win32,60.03842459,63ea42ea3e9be106c194b5ee,64d2fd46c836a06233681665,64dc7ecd757c7ab4466f0a48,,,,,,,sngl,resources/DY.BMP,resources/Empty.png,WildCard_Ex,-0.262037037,0.019444444,1,0,0,1.4326,optionLeft,5,12480,6,16,0,16,0,1,,,,,,,,,,,,,,,,,,,,,,,,,,,,,,,,,,,,,,,
,,,,,,,,2023-08-16_08h48.20.699,HF_wild_card,2022.2.4,Win32,60.03842459,63ea42ea3e9be106c194b5ee,64d2fd46c836a06233681665,64dc7ecd757c7ab4466f0a48,,,,,,,ctch,resources/DP.BMP,resources/DBN.BMP,Door3,-0.265740741,0.011111111,1,0,0,1.2987,optionLeft,70,12550,6,17,0,17,0,1,,,,,,,,,,,,,,,,,,,,,,,,,,,,,,,,,,,,,,,
,,,,,,,,2023-08-16_08h48.20.699,HF_wild_card,2022.2.4,Win32,60.03842459,63ea42ea3e9be106c194b5ee,64d2fd46c836a06233681665,64dc7ecd757c7ab4466f0a48,,,,,,,ctch,resources/DG.BMP,resources/DB.BMP,Door4,-0.342592593,0.056481481,1,0,0,1.0986,optionLeft,80,12630,6,18,0,18,0,1,,,,,,,,,,,,,,,,,,,,,,,,,,,,,,,,,,,,,,,
,,,,,,,,2023-08-16_08h48.20.699,HF_wild_card,2022.2.4,Win32,60.03842459,63ea42ea3e9be106c194b5ee,64d2fd46c836a06233681665,64dc7ecd757c7ab4466f0a48,,,,,,,decisionTrl,resources/DBN.BMP,resources/DY.BMP,Door2,-0.27962963,0.065740741,1,0,0,1.3281,optionLeft,40,12670,6,19,0,19,0,1,,,,,,,,,,,,,,,,,,,,,,,,,,,,,,,,,,,,,,,
,,,,,,,,2023-08-16_08h48.20.699,HF_wild_card,2022.2.4,Win32,60.03842459,63ea42ea3e9be106c194b5ee,64d2fd46c836a06233681665,64dc7ecd757c7ab4466f0a48,,,,,,,sngl,resources/Empty.png,resources/DG.BMP,Door4,0.271296296,0.047222222,1,0,0,0.6987,optionRight,80,12750,6,20,0,20,0,1,,,,,,,,,,,,,,,,,,,,,,,,,,,,,,,,,,,,,,,
,,,,,,,,2023-08-16_08h48.20.699,HF_wild_card,2022.2.4,Win32,60.03842459,63ea42ea3e9be106c194b5ee,64d2fd46c836a06233681665,64dc7ecd757c7ab4466f0a48,,,,,,,decisionTrl,resources/DP.BMP,resources/DG.BMP,Door4,0.471296296,0.053703704,1,0,0,1.5156,optionRight,80,12830,6,21,0,21,0,1,,,,,,,,,,,,,,,,,,,,,,,,,,,,,,,,,,,,,,,
,,,,,,,,2023-08-16_08h48.20.699,HF_wild_card,2022.2.4,Win32,60.03842459,63ea42ea3e9be106c194b5ee,64d2fd46c836a06233681665,64dc7ecd757c7ab4466f0a48,,,,,,,sngl,resources/DBN.BMP,resources/Empty.png,Door2,-0.284259259,0.075925926,1,0,0,0.9154,optionLeft,20,12850,6,22,0,22,0,1,,,,,,,,,,,,,,,,,,,,,,,,,,,,,,,,,,,,,,,
,,,,,,,,2023-08-16_08h48.20.699,HF_wild_card,2022.2.4,Win32,60.03842459,63ea42ea3e9be106c194b5ee,64d2fd46c836a06233681665,64dc7ecd757c7ab4466f0a48,,,,,,,sngl,resources/Empty.png,resources/DP.BMP,Door3,0.351851852,0.030555556,1,0,0,0.5666,optionRight,70,12920,6,23,0,23,0,1,,,,,,,,,,,,,,,,,,,,,,,,,,,,,,,,,,,,,,,
,,,,,,,,2023-08-16_08h48.20.699,HF_wild_card,2022.2.4,Win32,60.03842459,63ea42ea3e9be106c194b5ee,64d2fd46c836a06233681665,64dc7ecd757c7ab4466f0a48,,,,,,,decisionTrl,resources/DG.BMP,resources/DP.BMP,Door4,-0.316666667,0.05,1,0,0,1.3657,optionLeft,60,12980,6,24,0,24,0,1,,,,,,,,,,,,,,,,,,,,,,,,,,,,,,,,,,,,,,,
,,,,,,,,2023-08-16_08h48.20.699,HF_wild_card,2022.2.4,Win32,60.03842459,63ea42ea3e9be106c194b5ee,64d2fd46c836a06233681665,64dc7ecd757c7ab4466f0a48,,,,,,,decisionTrl,resources/DB.BMP,resources/DBN.BMP,Door1,-0.3,0.041666667,1,0,0,1.0129,optionLeft,30,13010,6,25,0,25,0,1,,,,,,,,,,,,,,,,,,,,,,,,,,,,,,,,,,,,,,,
,,,,,,,,2023-08-16_08h48.20.699,HF_wild_card,2022.2.4,Win32,60.03842459,63ea42ea3e9be106c194b5ee,64d2fd46c836a06233681665,64dc7ecd757c7ab4466f0a48,,,,,,,decisionTrl,resources/DP.BMP,resources/DG.BMP,Door4,0.405555556,0.075925926,1,0,0,0.9149,optionRight,80,13090,6,26,0,26,0,1,,,,,,,,,,,,,,,,,,,,,,,,,,,,,,,,,,,,,,,
,,,,,,,,2023-08-16_08h48.20.699,HF_wild_card,2022.2.4,Win32,60.03842459,63ea42ea3e9be106c194b5ee,64d2fd46c836a06233681665,64dc7ecd757c7ab4466f0a48,,,,,,,sngl,resources/Empty.png,resources/DBN.BMP,Door2,0.35462963,0.071296296,1,0,0,0.766,optionRight,40,13130,6,27,0,27,0,1,,,,,,,,,,,,,,,,,,,,,,,,,,,,,,,,,,,,,,,
,,,,,,,,2023-08-16_08h48.20.699,HF_wild_card,2022.2.4,Win32,60.03842459,63ea42ea3e9be106c194b5ee,64d2fd46c836a06233681665,64dc7ecd757c7ab4466f0a48,,,,,,,decisionTrl,resources/DB.BMP,resources/DBN.BMP,Door1,-0.356481481,0.025925926,1,0,0,0.9992,optionLeft,30,13160,6,28,0,28,0,1,,,,,,,,,,,,,,,,,,,,,,,,,,,,,,,,,,,,,,,
,,,,,,,,2023-08-16_08h48.20.699,HF_wild_card,2022.2.4,Win32,60.03842459,63ea42ea3e9be106c194b5ee,64d2fd46c836a06233681665,64dc7ecd757c7ab4466f0a48,,,,,,,sngl,resources/DP.BMP,resources/Empty.png,Door3,-0.385185185,-0.002777778,1,0,0,0.7117,optionLeft,70,13230,6,29,0,29,0,1,,,,,,,,,,,,,,,,,,,,,,,,,,,,,,,,,,,,,,,
,,,,,,,,2023-08-16_08h48.20.699,HF_wild_card,2022.2.4,Win32,60.03842459,63ea42ea3e9be106c194b5ee,64d2fd46c836a06233681665,64dc7ecd757c7ab4466f0a48,,,,,,,ctch,resources/DBN.BMP,resources/DP.BMP,Door3,0.344444444,0.055555556,1,0,0,0.6988,optionRight,70,13300,6,30,0,30,0,1,,,,,,,,,,,,,,,,,,,,,,,,,,,,,,,,,,,,,,,
,,,,,,,,2023-08-16_08h48.20.699,HF_wild_card,2022.2.4,Win32,60.03842459,63ea42ea3e9be106c194b5ee,64d2fd46c836a06233681665,64dc7ecd757c7ab4466f0a48,,,,,,,ctch,resources/DP.BMP,resources/DBN.BMP,Door2,0.325925926,0.099074074,1,0,0,0.7989,optionRight,20,13320,6,31,0,31,0,1,,,,,,,,,,,,,,,,,,,,,,,,,,,,,,,,,,,,,,,
,,,,,,,,2023-08-16_08h48.20.699,HF_wild_card,2022.2.4,Win32,60.03842459,63ea42ea3e9be106c194b5ee,64d2fd46c836a06233681665,64dc7ecd757c7ab4466f0a48,,,,,,,decisionTrl,resources/DBN.BMP,resources/DB.BMP,Door1,0.372222222,0.052777778,1,0,0,1.1807,optionRight,30,13350,6,32,0,32,0,1,,,,,,,,,,,,,,,,,,,,,,,,,,,,,,,,,,,,,,,
,,,,,,,,2023-08-16_08h48.20.699,HF_wild_card,2022.2.4,Win32,60.03842459,63ea42ea3e9be106c194b5ee,64d2fd46c836a06233681665,64dc7ecd757c7ab4466f0a48,,,,,,,sngl,resources/Empty.png,resources/DY.BMP,WildCard_Ex,0.365740741,0.085185185,1,0,0,0.6154,optionRight,95,13445,6,33,0,33,0,1,,,,,,,,,,,,,,,,,,,,,,,,,,,,,,,,,,,,,,,
,,,,,,,,2023-08-16_08h48.20.699,HF_wild_card,2022.2.4,Win32,60.03842459,63ea42ea3e9be106c194b5ee,64d2fd46c836a06233681665,64dc7ecd757c7ab4466f0a48,,,,,,,sngl,resources/Empty.png,resources/DB.BMP,Door1,0.312037037,0.036111111,1,0,0,0.5989,optionRight,30,13475,6,34,0,34,0,1,,,,,,,,,,,,,,,,,,,,,,,,,,,,,,,,,,,,,,,
,,,,,,,,2023-08-16_08h48.20.699,HF_wild_card,2022.2.4,Win32,60.03842459,63ea42ea3e9be106c194b5ee,64d2fd46c836a06233681665,64dc7ecd757c7ab4466f0a48,,,,,,,ctch,resources/DB.BMP,resources/DG.BMP,Door4,0.39537037,0.087962963,1,0,0,1.1648,optionRight,60,13535,6,35,0,35,0,1,,,,,,,,,,,,,,,,,,,,,,,,,,,,,,,,,,,,,,,
,,,,,,,,2023-08-16_08h48.20.699,HF_wild_card,2022.2.4,Win32,60.03842459,63ea42ea3e9be106c194b5ee,64d2fd46c836a06233681665,64dc7ecd757c7ab4466f0a48,,,,,,,decisionTrl,resources/DB.BMP,resources/DBN.BMP,Door1,-0.401851852,0.051851852,1,0,0,1.8453,optionLeft,30,13565,6,36,0,36,0,1,,,,,,,,,,,,,,,,,,,,,,,,,,,,,,,,,,,,,,,
,,,,,,,,2023-08-16_08h48.20.699,HF_wild_card,2022.2.4,Win32,60.03842459,63ea42ea3e9be106c194b5ee,64d2fd46c836a06233681665,64dc7ecd757c7ab4466f0a48,,,,,,,decisionTrl,resources/DG.BMP,resources/DY.BMP,Door4,-0.218518519,0.039814815,1,0,0,1.6821,optionLeft,80,13645,6,37,0,37,0,1,,,,,,,,,,,,,,,,,,,,,,,,,,,,,,,,,,,,,,,
,,,,,,,,2023-08-16_08h48.20.699,HF_wild_card,2022.2.4,Win32,60.03842459,63ea42ea3e9be106c194b5ee,64d2fd46c836a06233681665,64dc7ecd757c7ab4466f0a48,,,,,,,decisionTrl,resources/DY.BMP,resources/DG.BMP,Door4,0.441666667,0.091666667,1,0,0,0.7487,optionRight,60,13705,6,38,0,38,0,1,,,,,,,,,,,,,,,,,,,,,,,,,,,,,,,,,,,,,,,
,,,,,,,,2023-08-16_08h48.20.699,HF_wild_card,2022.2.4,Win32,60.03842459,63ea42ea3e9be106c194b5ee,64d2fd46c836a06233681665,64dc7ecd757c7ab4466f0a48,,,,,,,sngl,resources/Empty.png,resources/DY.BMP,WildCard_Ex,0.344444444,0.086111111,1,0,0,0.6312,optionRight,5,13710,6,39,0,39,0,1,,,,,,,,,,,,,,,,,,,,,,,,,,,,,,,,,,,,,,,
,,,,,,,,2023-08-16_08h48.20.699,HF_wild_card,2022.2.4,Win32,60.03842459,63ea42ea3e9be106c194b5ee,64d2fd46c836a06233681665,64dc7ecd757c7ab4466f0a48,,,,,,,decisionTrl,resources/DBN.BMP,resources/DB.BMP,Door1,0.362962963,0.068518519,1,0,0,1.2994,optionRight,30,13740,6,40,0,40,0,1,,,,,,,,,,,,,,,,,,,,,,,,,,,,,,,,,,,,,,,
,,,,,,,,2023-08-16_08h48.20.699,HF_wild_card,2022.2.4,Win32,60.03842459,63ea42ea3e9be106c194b5ee,64d2fd46c836a06233681665,64dc7ecd757c7ab4466f0a48,,,,,,,decisionTrl,resources/DP.BMP,resources/DG.BMP,Door4,0.283333333,0.025,1,0,0,1.2323,optionRight,60,13800,6,41,0,41,0,1,,,,,,,,,,,,,,,,,,,,,,,,,,,,,,,,,,,,,,,
,,,,,,,,2023-08-16_08h48.20.699,HF_wild_card,2022.2.4,Win32,60.03842459,63ea42ea3e9be106c194b5ee,64d2fd46c836a06233681665,64dc7ecd757c7ab4466f0a48,,,,,,,decisionTrl,resources/DG.BMP,resources/DP.BMP,Door4,-0.367592593,0.005555556,1,0,0,2.8958,optionLeft,60,13860,6,42,0,42,0,1,,,,,,,,,,,,,,,,,,,,,,,,,,,,,,,,,,,,,,,
,,,,,,,,2023-08-16_08h48.20.699,HF_wild_card,2022.2.4,Win32,60.03842459,63ea42ea3e9be106c194b5ee,64d2fd46c836a06233681665,64dc7ecd757c7ab4466f0a48,,,,,,,decisionTrl,resources/DBN.BMP,resources/DB.BMP,Door1,0.303703704,0.024074074,1,0,0,1.4489,optionRight,30,13890,6,43,0,43,0,1,,,,,,,,,,,,,,,,,,,,,,,,,,,,,,,,,,,,,,,
,,,,,,,,2023-08-16_08h48.20.699,HF_wild_card,2022.2.4,Win32,60.03842459,63ea42ea3e9be106c194b5ee,64d2fd46c836a06233681665,64dc7ecd757c7ab4466f0a48,,,,,,,,,,,,,,,,,,,,,,,,,,5,0,5,0,1,,,,,,,,,,,,,,,,,,,,,,,,,,,,,,,,,,
,,,,,,,,2023-08-16_08h48.20.699,HF_wild_card,2022.2.4,Win32,60.03842459,63ea42ea3e9be106c194b5ee,64d2fd46c836a06233681665,64dc7ecd757c7ab4466f0a48,,,,,,,decisionTrl,resources/DG.BMP,resources/DP.BMP,Door4,-0.352777778,0.012962963,1,0,0,1.95,optionLeft,80,13970,7,0,0,0,0,1,,,,,,,,,,,,,,,,,,,,,,,,,,,,,,,,,,,,,,,
,,,,,,,,2023-08-16_08h48.20.699,HF_wild_card,2022.2.4,Win32,60.03842459,63ea42ea3e9be106c194b5ee,64d2fd46c836a06233681665,64dc7ecd757c7ab4466f0a48,,,,,,,decisionTrl,resources/DP.BMP,resources/DG.BMP,Door4,0.327777778,0.031481481,1,0,0,1.182,optionRight,60,14030,7,1,0,1,0,1,,,,,,,,,,,,,,,,,,,,,,,,,,,,,,,,,,,,,,,
,,,,,,,,2023-08-16_08h48.20.699,HF_wild_card,2022.2.4,Win32,60.03842459,63ea42ea3e9be106c194b5ee,64d2fd46c836a06233681665,64dc7ecd757c7ab4466f0a48,,,,,,,ctch,resources/DP.BMP,resources/DBN.BMP,Door3,-0.321296296,0.02962963,1,0,0,1.3307,optionLeft,70,14100,7,2,0,2,0,1,,,,,,,,,,,,,,,,,,,,,,,,,,,,,,,,,,,,,,,
,,,,,,,,2023-08-16_08h48.20.699,HF_wild_card,2022.2.4,Win32,60.03842459,63ea42ea3e9be106c194b5ee,64d2fd46c836a06233681665,64dc7ecd757c7ab4466f0a48,,,,,,,decisionTrl,resources/DG.BMP,resources/DP.BMP,Door4,-0.382407407,0.012962963,1,0,0,3.2827,optionLeft,60,14160,7,3,0,3,0,1,,,,,,,,,,,,,,,,,,,,,,,,,,,,,,,,,,,,,,,
,,,,,,,,2023-08-16_08h48.20.699,HF_wild_card,2022.2.4,Win32,60.03842459,63ea42ea3e9be106c194b5ee,64d2fd46c836a06233681665,64dc7ecd757c7ab4466f0a48,,,,,,,decisionTrl,resources/DP.BMP,resources/DG.BMP,Door4,0.35462963,0.037037037,1,0,0,1.0328,optionRight,60,14220,7,4,0,4,0,1,,,,,,,,,,,,,,,,,,,,,,,,,,,,,,,,,,,,,,,
,,,,,,,,2023-08-16_08h48.20.699,HF_wild_card,2022.2.4,Win32,60.03842459,63ea42ea3e9be106c194b5ee,64d2fd46c836a06233681665,64dc7ecd757c7ab4466f0a48,,,,,,,ctch,resources/DB.BMP,resources/DG.BMP,Door4,0.349074074,0.030555556,1,0,0,1.2494,optionRight,80,14300,7,5,0,5,0,1,,,,,,,,,,,,,,,,,,,,,,,,,,,,,,,,,,,,,,,
,,,,,,,,2023-08-16_08h48.20.699,HF_wild_card,2022.2.4,Win32,60.03842459,63ea42ea3e9be106c194b5ee,64d2fd46c836a06233681665,64dc7ecd757c7ab4466f0a48,,,,,,,ctch,resources/DP.BMP,resources/DBN.BMP,Door3,-0.382407407,0.000925926,1,0,0,1.4329,optionLeft,70,14370,7,6,0,6,0,1,,,,,,,,,,,,,,,,,,,,,,,,,,,,,,,,,,,,,,,
,,,,,,,,2023-08-16_08h48.20.699,HF_wild_card,2022.2.4,Win32,60.03842459,63ea42ea3e9be106c194b5ee,64d2fd46c836a06233681665,64dc7ecd757c7ab4466f0a48,,,,,,,ctch,resources/DBN.BMP,resources/DP.BMP,Door3,0.344444444,-0.001851852,1,0,0,2.3992,optionRight,70,14440,7,7,0,7,0,1,,,,,,,,,,,,,,,,,,,,,,,,,,,,,,,,,,,,,,,
,,,,,,,,2023-08-16_08h48.20.699,HF_wild_card,2022.2.4,Win32,60.03842459,63ea42ea3e9be106c194b5ee,64d2fd46c836a06233681665,64dc7ecd757c7ab4466f0a48,,,,,,,decisionTrl,resources/DB.BMP,resources/DBN.BMP,Door2,0.419444444,0.039814815,1,0,0,1.5661,optionRight,40,14480,7,8,0,8,0,1,,,,,,,,,,,,,,,,,,,,,,,,,,,,,,,,,,,,,,,
,,,,,,,,2023-08-16_08h48.20.699,HF_wild_card,2022.2.4,Win32,60.03842459,63ea42ea3e9be106c194b5ee,64d2fd46c836a06233681665,64dc7ecd757c7ab4466f0a48,,,,,,,decisionTrl,resources/DP.BMP,resources/DG.BMP,Door4,0.363888889,0.034259259,1,0,0,1.1159,optionRight,60,14540,7,9,0,9,0,1,,,,,,,,,,,,,,,,,,,,,,,,,,,,,,,,,,,,,,,
,,,,,,,,2023-08-16_08h48.20.699,HF_wild_card,2022.2.4,Win32,60.03842459,63ea42ea3e9be106c194b5ee,64d2fd46c836a06233681665,64dc7ecd757c7ab4466f0a48,,,,,,,decisionTrl,resources/DBN.BMP,resources/DB.BMP,Door1,0.425925926,0.015740741,1,0,0,1.4319,optionRight,30,14570,7,10,0,10,0,1,,,,,,,,,,,,,,,,,,,,,,,,,,,,,,,,,,,,,,,
,,,,,,,,2023-08-16_08h48.20.699,HF_wild_card,2022.2.4,Win32,60.03842459,63ea42ea3e9be106c194b5ee,64d2fd46c836a06233681665,64dc7ecd757c7ab4466f0a48,,,,,,,decisionTrl,resources/DBN.BMP,resources/DB.BMP,Door1,0.358333333,0.021296296,1,0,0,0.9317,optionRight,30,14600,7,11,0,11,0,1,,,,,,,,,,,,,,,,,,,,,,,,,,,,,,,,,,,,,,,
,,,,,,,,2023-08-16_08h48.20.699,HF_wild_card,2022.2.4,Win32,60.03842459,63ea42ea3e9be106c194b5ee,64d2fd46c836a06233681665,64dc7ecd757c7ab4466f0a48,,,,,,,ctch,resources/DG.BMP,resources/DB.BMP,Door4,-0.356481481,0.017592593,1,0,0,0.9993,optionLeft,80,14680,7,12,0,12,0,1,,,,,,,,,,,,,,,,,,,,,,,,,,,,,,,,,,,,,,,
,,,,,,,,2023-08-16_08h48.20.699,HF_wild_card,2022.2.4,Win32,60.03842459,63ea42ea3e9be106c194b5ee,64d2fd46c836a06233681665,64dc7ecd757c7ab4466f0a48,,,,,,,decisionTrl,resources/DBN.BMP,resources/DB.BMP,Door1,0.339814815,0.010185185,1,0,0,1.2495,optionRight,30,14710,7,13,0,13,0,1,,,,,,,,,,,,,,,,,,,,,,,,,,,,,,,,,,,,,,,
,,,,,,,,2023-08-16_08h48.20.699,HF_wild_card,2022.2.4,Win32,60.03842459,63ea42ea3e9be106c194b5ee,64d2fd46c836a06233681665,64dc7ecd757c7ab4466f0a48,,,,,,,ctch,resources/DG.BMP,resources/DB.BMP,Door4,-0.311111111,0.018518519,1,0,0,0.9649,optionLeft,60,14770,7,14,0,14,0,1,,,,,,,,,,,,,,,,,,,,,,,,,,,,,,,,,,,,,,,
,,,,,,,,2023-08-16_08h48.20.699,HF_wild_card,2022.2.4,Win32,60.03842459,63ea42ea3e9be106c194b5ee,64d2fd46c836a06233681665,64dc7ecd757c7ab4466f0a48,,,,,,,decisionTrl,resources/DBN.BMP,resources/DB.BMP,Door1,0.336111111,0.007407407,1,0,0,1.0159,optionRight,30,14800,7,15,0,15,0,1,,,,,,,,,,,,,,,,,,,,,,,,,,,,,,,,,,,,,,,
,,,,,,,,2023-08-16_08h48.20.699,HF_wild_card,2022.2.4,Win32,60.03842459,63ea42ea3e9be106c194b5ee,64d2fd46c836a06233681665,64dc7ecd757c7ab4466f0a48,,,,,,,decisionTrl,resources/DB.BMP,resources/DBN.BMP,Door1,-0.360185185,0.02962963,1,0,0,1.1492,optionLeft,30,14830,7,16,0,16,0,1,,,,,,,,,,,,,,,,,,,,,,,,,,,,,,,,,,,,,,,
,,,,,,,,2023-08-16_08h48.20.699,HF_wild_card,2022.2.4,Win32,60.03842459,63ea42ea3e9be106c194b5ee,64d2fd46c836a06233681665,64dc7ecd757c7ab4466f0a48,,,,,,,decisionTrl,resources/DP.BMP,resources/DG.BMP,Door4,0.332407407,0.028703704,1,0,0,1.0659,optionRight,60,14890,7,17,0,17,0,1,,,,,,,,,,,,,,,,,,,,,,,,,,,,,,,,,,,,,,,
,,,,,,,,2023-08-16_08h48.20.699,HF_wild_card,2022.2.4,Win32,60.03842459,63ea42ea3e9be106c194b5ee,64d2fd46c836a06233681665,64dc7ecd757c7ab4466f0a48,,,,,,,ctch,resources/DP.BMP,resources/DBN.BMP,Door3,-0.347222222,0.016666667,1,0,0,1.681,optionLeft,70,14960,7,18,0,18,0,1,,,,,,,,,,,,,,,,,,,,,,,,,,,,,,,,,,,,,,,
,,,,,,,,2023-08-16_08h48.20.699,HF_wild_card,2022.2.4,Win32,60.03842459,63ea42ea3e9be106c194b5ee,64d2fd46c836a06233681665,64dc7ecd757c7ab4466f0a48,,,,,,,decisionTrl,resources/DP.BMP,resources/DG.BMP,Door4,0.353703704,0.016666667,1,0,0,1.1828,optionRight,60,15020,7,19,0,19,0,1,,,,,,,,,,,,,,,,,,,,,,,,,,,,,,,,,,,,,,,
,,,,,,,,2023-08-16_08h48.20.699,HF_wild_card,2022.2.4,Win32,60.03842459,63ea42ea3e9be106c194b5ee,64d2fd46c836a06233681665,64dc7ecd757c7ab4466f0a48,,,,,,,decisionTrl,resources/DP.BMP,resources/DG.BMP,Door4,0.316666667,0.036111111,1,0,0,1.1483,optionRight,80,15100,7,20,0,20,0,1,,,,,,,,,,,,,,,,,,,,,,,,,,,,,,,,,,,,,,,
,,,,,,,,2023-08-16_08h48.20.699,HF_wild_card,2022.2.4,Win32,60.03842459,63ea42ea3e9be106c194b5ee,64d2fd46c836a06233681665,64dc7ecd757c7ab4466f0a48,,,,,,,decisionTrl,resources/DG.BMP,resources/DP.BMP,Door4,-0.360185185,0.040740741,1,0,0,0.9992,optionLeft,80,15180,7,21,0,21,0,1,,,,,,,,,,,,,,,,,,,,,,,,,,,,,,,,,,,,,,,
,,,,,,,,2023-08-16_08h48.20.699,HF_wild_card,2022.2.4,Win32,60.03842459,63ea42ea3e9be106c194b5ee,64d2fd46c836a06233681665,64dc7ecd757c7ab4466f0a48,,,,,,,ctch,resources/DB.BMP,resources/DG.BMP,Door4,0.350925926,0.006481481,1,0,0,0.9658,optionRight,80,15260,7,22,0,22,0,1,,,,,,,,,,,,,,,,,,,,,,,,,,,,,,,,,,,,,,,
,,,,,,,,2023-08-16_08h48.20.699,HF_wild_card,2022.2.4,Win32,60.03842459,63ea42ea3e9be106c194b5ee,64d2fd46c836a06233681665,64dc7ecd757c7ab4466f0a48,,,,,,,ctch,resources/DG.BMP,resources/DB.BMP,Door4,-0.312962963,0.031481481,1,0,0,1.0653,optionLeft,80,15340,7,23,0,23,0,1,,,,,,,,,,,,,,,,,,,,,,,,,,,,,,,,,,,,,,,
,,,,,,,,2023-08-16_08h48.20.699,HF_wild_card,2022.2.4,Win32,60.03842459,63ea42ea3e9be106c194b5ee,64d2fd46c836a06233681665,64dc7ecd757c7ab4466f0a48,,,,,,,decisionTrl,resources/DG.BMP,resources/DP.BMP,Door4,-0.323148148,0,1,0,0,1.5829,optionLeft,60,15400,7,24,0,24,0,1,,,,,,,,,,,,,,,,,,,,,,,,,,,,,,,,,,,,,,,
,,,,,,,,2023-08-16_08h48.20.699,HF_wild_card,2022.2.4,Win32,60.03842459,63ea42ea3e9be106c194b5ee,64d2fd46c836a06233681665,64dc7ecd757c7ab4466f0a48,,,,,,,decisionTrl,resources/DB.BMP,resources/DBN.BMP,Door2,0.349074074,0.011111111,1,0,0,1.1494,optionRight,40,15440,7,25,0,25,0,1,,,,,,,,,,,,,,,,,,,,,,,,,,,,,,,,,,,,,,,
,,,,,,,,2023-08-16_08h48.20.699,HF_wild_card,2022.2.4,Win32,60.03842459,63ea42ea3e9be106c194b5ee,64d2fd46c836a06233681665,64dc7ecd757c7ab4466f0a48,,,,,,,decisionTrl,resources/DG.BMP,resources/DP.BMP,Door4,-0.289814815,0.062962963,1,0,0,1.2161,optionLeft,60,15500,7,26,0,26,0,1,,,,,,,,,,,,,,,,,,,,,,,,,,,,,,,,,,,,,,,
,,,,,,,,2023-08-16_08h48.20.699,HF_wild_card,2022.2.4,Win32,60.03842459,63ea42ea3e9be106c194b5ee,64d2fd46c836a06233681665,64dc7ecd757c7ab4466f0a48,,,,,,,ctch,resources/DBN.BMP,resources/DP.BMP,Door3,0.427777778,0.035185185,1,0,0,1.1993,optionRight,70,15570,7,27,0,27,0,1,,,,,,,,,,,,,,,,,,,,,,,,,,,,,,,,,,,,,,,
,,,,,,,,2023-08-16_08h48.20.699,HF_wild_card,2022.2.4,Win32,60.03842459,63ea42ea3e9be106c194b5ee,64d2fd46c836a06233681665,64dc7ecd757c7ab4466f0a48,,,,,,,ctch,resources/DBN.BMP,resources/DP.BMP,Door3,0.363888889,0.023148148,1,0,0,0.7473,optionRight,70,15640,7,28,0,28,0,1,,,,,,,,,,,,,,,,,,,,,,,,,,,,,,,,,,,,,,,
,,,,,,,,2023-08-16_08h48.20.699,HF_wild_card,2022.2.4,Win32,60.03842459,63ea42ea3e9be106c194b5ee,64d2fd46c836a06233681665,64dc7ecd757c7ab4466f0a48,,,,,,,decisionTrl,resources/DB.BMP,resources/DBN.BMP,Door2,0.34537037,0.067592593,1,0,0,1.031,optionRight,20,15660,7,29,0,29,0,1,,,,,,,,,,,,,,,,,,,,,,,,,,,,,,,,,,,,,,,
,,,,,,,,2023-08-16_08h48.20.699,HF_wild_card,2022.2.4,Win32,60.03842459,63ea42ea3e9be106c194b5ee,64d2fd46c836a06233681665,64dc7ecd757c7ab4466f0a48,,,,,,,decisionTrl,resources/DB.BMP,resources/DBN.BMP,Door2,0.336111111,0.05,1,0,0,0.9497,optionRight,40,15700,7,30,0,30,0,1,,,,,,,,,,,,,,,,,,,,,,,,,,,,,,,,,,,,,,,
,,,,,,,,2023-08-16_08h48.20.699,HF_wild_card,2022.2.4,Win32,60.03842459,63ea42ea3e9be106c194b5ee,64d2fd46c836a06233681665,64dc7ecd757c7ab4466f0a48,,,,,,,decisionTrl,resources/DBN.BMP,resources/DB.BMP,Door1,0.384259259,0.019444444,1,0,0,0.7993,optionRight,30,15730,7,31,0,31,0,1,,,,,,,,,,,,,,,,,,,,,,,,,,,,,,,,,,,,,,,
,,,,,,,,2023-08-16_08h48.20.699,HF_wild_card,2022.2.4,Win32,60.03842459,63ea42ea3e9be106c194b5ee,64d2fd46c836a06233681665,64dc7ecd757c7ab4466f0a48,,,,,,,decisionTrl,resources/DB.BMP,resources/DBN.BMP,Door1,-0.364814815,-0.000925926,1,0,0,0.9495,optionLeft,30,15760,7,32,0,32,0,1,,,,,,,,,,,,,,,,,,,,,,,,,,,,,,,,,,,,,,,
,,,,,,,,2023-08-16_08h48.20.699,HF_wild_card,2022.2.4,Win32,60.03842459,63ea42ea3e9be106c194b5ee,64d2fd46c836a06233681665,64dc7ecd757c7ab4466f0a48,,,,,,,decisionTrl,resources/DG.BMP,resources/DP.BMP,Door4,-0.340740741,0.012037037,1,0,0,0.9642,optionLeft,80,15840,7,33,0,33,0,1,,,,,,,,,,,,,,,,,,,,,,,,,,,,,,,,,,,,,,,
,,,,,,,,2023-08-16_08h48.20.699,HF_wild_card,2022.2.4,Win32,60.03842459,63ea42ea3e9be106c194b5ee,64d2fd46c836a06233681665,64dc7ecd757c7ab4466f0a48,,,,,,,ctch,resources/DB.BMP,resources/DG.BMP,Door4,0.487037037,0.007407407,1,0,0,1.197,optionRight,60,15900,7,34,0,34,0,1,,,,,,,,,,,,,,,,,,,,,,,,,,,,,,,,,,,,,,,
,,,,,,,,2023-08-16_08h48.20.699,HF_wild_card,2022.2.4,Win32,60.03842459,63ea42ea3e9be106c194b5ee,64d2fd46c836a06233681665,64dc7ecd757c7ab4466f0a48,,,,,,,decisionTrl,resources/DBN.BMP,resources/DB.BMP,Door1,0.327777778,0.008333333,1,0,0,1.6161,optionRight,30,15930,7,35,0,35,0,1,,,,,,,,,,,,,,,,,,,,,,,,,,,,,,,,,,,,,,,
,,,,,,,,2023-08-16_08h48.20.699,HF_wild_card,2022.2.4,Win32,60.03842459,63ea42ea3e9be106c194b5ee,64d2fd46c836a06233681665,64dc7ecd757c7ab4466f0a48,,,,,,,,,,,,,,,,,,,,,,,,,,6,0,6,0,1,,,,,,,,,,,,,,,,,,,,,,,,,,,,,,,,,,
,,,,,,,,2023-08-16_08h48.20.699,HF_wild_card,2022.2.4,Win32,60.03842459,63ea42ea3e9be106c194b5ee,64d2fd46c836a06233681665,64dc7ecd757c7ab4466f0a48,,,,,,,,,,,,,,,,,,,,,,,,,,,,,,,3,,,,,,,,,,,,,,,,,,,,,,,,,,,,,,,,,
,,,,,,,,2023-08-16_08h48.20.699,HF_wild_card,2022.2.4,Win32,60.03842459,63ea42ea3e9be106c194b5ee,64d2fd46c836a06233681665,64dc7ecd757c7ab4466f0a48,,,,,,,,,,,,,,,,,,,,,,,,,,,,,,,,,,,,,,,,,,,,,,,,,,,,,,,,,,,,,,,,
,,,,,,,,2023-08-16_08h48.20.699,HF_wild_card,2022.2.4,Win32,60.03842459,63ea42ea3e9be106c194b5ee,64d2fd46c836a06233681665,64dc7ecd757c7ab4466f0a48,,,,,,,,,,,,,,,,,,,,,,,,,,,,,,,,40,Door1,resources/DB.BMP,0,0,0,0,1,,,,,,,,,,,,,,,,,,,,,,,,,
,,,,,,,,2023-08-16_08h48.20.699,HF_wild_card,2022.2.4,Win32,60.03842459,63ea42ea3e9be106c194b5ee,64d2fd46c836a06233681665,64dc7ecd757c7ab4466f0a48,,,,,,,,,,,,,,,,,,,,,,,,,,,,,,,,20,Door2,resources/DBN.BMP,1,0,1,0,1,,,,,,,,,,,,,,,,,,,,,,,,,
,,,,,,,,2023-08-16_08h48.20.699,HF_wild_card,2022.2.4,Win32,60.03842459,63ea42ea3e9be106c194b5ee,64d2fd46c836a06233681665,64dc7ecd757c7ab4466f0a48,,,,,,,,,,,,,,,,,,,,,,,,,,,,,,,,5,WC_extreme,resources/DY.BMP,2,0,2,0,1,,,,,,,,,,,,,,,,,,,,,,,,,
,,,,,,,,2023-08-16_08h48.20.699,HF_wild_card,2022.2.4,Win32,60.03842459,63ea42ea3e9be106c194b5ee,64d2fd46c836a06233681665,64dc7ecd757c7ab4466f0a48,,,,,,,,,,,,,,,,,,,,,,,,,,,,,,,,60,Door3,resources/DP.BMP,3,0,3,0,1,,,,,,,,,,,,,,,,,,,,,,,,,
,,,,,,,,2023-08-16_08h48.20.699,HF_wild_card,2022.2.4,Win32,60.03842459,63ea42ea3e9be106c194b5ee,64d2fd46c836a06233681665,64dc7ecd757c7ab4466f0a48,,,,,,,,,,,,,,,,,,,,,,,,,,,,,,,,40,WC_nonExtreme,resources/DR.BMP,4,0,4,0,1,,,,,,,,,,,,,,,,,,,,,,,,,
,,,,,,,,2023-08-16_08h48.20.699,HF_wild_card,2022.2.4,Win32,60.03842459,63ea42ea3e9be106c194b5ee,64d2fd46c836a06233681665,64dc7ecd757c7ab4466f0a48,,,,,,,,,,,,,,,,,,,,,,,,,,,,,,,,70,Door4,resources/DG.BMP,5,0,5,0,1,,,,,,,,,,,,,,,,,,,,,,,,,
,,,,,,,,2023-08-16_08h48.20.699,HF_wild_card,2022.2.4,Win32,60.03842459,63ea42ea3e9be106c194b5ee,64d2fd46c836a06233681665,64dc7ecd757c7ab4466f0a48,,,,,,,,,,,,,,,,,,,,,,,,,,,,,,,,,,,,,,,,,,,,,,,,,,,,,,,,,,,,,,,,
,,,,,,,,2023-08-16_08h48.20.699,HF_wild_card,2022.2.4,Win32,60.03842459,63ea42ea3e9be106c194b5ee,64d2fd46c836a06233681665,64dc7ecd757c7ab4466f0a48,,,,,,,,,,,,,,,,,,,,,,,,,,,,,,,,,,,,,,,,0,0,0,0,1,,,,,,,,,,,,,,,,,,,,
,,,,,,,,2023-08-16_08h48.20.699,HF_wild_card,2022.2.4,Win32,60.03842459,63ea42ea3e9be106c194b5ee,64d2fd46c836a06233681665,64dc7ecd757c7ab4466f0a48,,,,,,,,,,,,,,,,,,,,,,,,,,,,,,,,,,,,,,,,1,0,1,0,1,,,,,,,,,,,,,,,,,,,,
