Condition,Low fixed image (Door1),Low risky image (Door2),High fixed image (Door3),High risky image (Door4),NonExtreme Wild Card 1,NonExtreme Wild Card 2,,date,expName,psychopyVersion,OS,frameRate,PROLIFIC_PID,STUDY_ID,SESSION_ID,mouse_2.x,mouse_2.y,mouse_2.leftButton,mouse_2.midButton,mouse_2.rightButton,mouse_2.clicked_name,Trial Type,Left Option Image,Right Option Image,Chosen Door,mouse.x,mouse.y,mouse.leftButton,mouse.midButton,mouse.rightButton,mouse.time,mouse.clicked_name,Feedback,Cumulative Reward,Block,trial.thisRepN,trial.thisTrialN,trial.thisN,trial.thisIndex,trial.ran,blocks.thisRepN,blocks.thisTrialN,blocks.thisN,blocks.thisIndex,blocks.ran,Money conversion,First Outcome Reported,Shown Door (First Outcome),Displayed Image (First Outcome),outcomes.thisRepN,outcomes.thisTrialN,outcomes.thisN,outcomes.thisIndex,outcomes.ran,judgments.thisRepN,judgments.thisTrialN,judgments.thisN,judgments.thisIndex,judgments.ran,freqMouse.x,freqMouse.y,freqMouse.leftButton,freqMouse.midButton,freqMouse.rightButton,freqMouse.clicked_name,FQJ for first outcome,FQJ for second outcome,Shown Door,Displayed Image,trials.thisRepN,trials.thisTrialN,trials.thisN,trials.thisIndex,trials.ran,judgBlock.thisRepN,judgBlock.thisTrialN,judgBlock.thisN,judgBlock.thisIndex,judgBlock.ran
2,resources/DBN.BMP,resources/DB.BMP,resources/DR.BMP,resources/DY.BMP,resources/DG.BMP,resources/DP.BMP,5d2a1b1a4588590018cf6fd4,2023-08-16_08h44.41.110,HF_wild_card,2022.2.4,Linux x86_64,59.99520038,5d2a1b1a4588590018cf6fd4,64d2fd46c836a06233681665,64dc7e46201c200f1b779d46,,,,,,,,,,,,,,,,,,,,,,,,,,,,,,,,,,,,,,,,,,,,,,,,,,,,,,,,,,,,,,,,
,,,,,,,5d2a1b1a4588590018cf6fd4,2023-08-16_08h44.41.110,HF_wild_card,2022.2.4,Linux x86_64,59.99520038,5d2a1b1a4588590018cf6fd4,64d2fd46c836a06233681665,64dc7e46201c200f1b779d46,0.009288011,-0.420422236,1,0,0,agree,,,,,,,,,,,,,,,,,,,,,,,,,,,,,,,,,,,,,,,,,,,,,,,,,,,,,,,,,,
,,,,,,,5d2a1b1a4588590018cf6fd4,2023-08-16_08h44.41.110,HF_wild_card,2022.2.4,Linux x86_64,59.99520038,5d2a1b1a4588590018cf6fd4,64d2fd46c836a06233681665,64dc7e46201c200f1b779d46,,,,,,,,,,,,,,,,,,,,,,,,,,,,,,,,,,,,,,,,,,,,,,,,,,,,,,,,,,,,,,,,
,,,,,,,5d2a1b1a4588590018cf6fd4,2023-08-16_08h44.41.110,HF_wild_card,2022.2.4,Linux x86_64,59.99520038,5d2a1b1a4588590018cf6fd4,64d2fd46c836a06233681665,64dc7e46201c200f1b779d46,,,,,,,decisionTrl,resources/DB.BMP,resources/DBN.BMP,Door2,-0.315690253,-0.074690995,1,0,0,1.5144,optionLeft,20,20,1,0,0,0,0,1,,,,,,,,,,,,,,,,,,,,,,,,,,,,,,,,,,,,,,,
,,,,,,,5d2a1b1a4588590018cf6fd4,2023-08-16_08h44.41.110,HF_wild_card,2022.2.4,Linux x86_64,59.99520038,5d2a1b1a4588590018cf6fd4,64d2fd46c836a06233681665,64dc7e46201c200f1b779d46,,,,,,,decisionTrl,resources/DY.BMP,resources/DR.BMP,Door4,-0.423263726,0.009258129,1,0,0,1.0666,optionLeft,80,100,1,1,0,1,0,1,,,,,,,,,,,,,,,,,,,,,,,,,,,,,,,,,,,,,,,
,,,,,,,5d2a1b1a4588590018cf6fd4,2023-08-16_08h44.41.110,HF_wild_card,2022.2.4,Linux x86_64,59.99520038,5d2a1b1a4588590018cf6fd4,64d2fd46c836a06233681665,64dc7e46201c200f1b779d46,,,,,,,sngl,resources/DB.BMP,resources/Empty.png,Door2,-0.505755142,-0.012759562,1,0,0,0.9263,optionLeft,40,140,1,2,0,2,0,1,,,,,,,,,,,,,,,,,,,,,,,,,,,,,,,,,,,,,,,
,,,,,,,5d2a1b1a4588590018cf6fd4,2023-08-16_08h44.41.110,HF_wild_card,2022.2.4,Linux x86_64,59.99520038,5d2a1b1a4588590018cf6fd4,64d2fd46c836a06233681665,64dc7e46201c200f1b779d46,,,,,,,sngl,resources/Empty.png,resources/DBN.BMP,Door1,0.367875982,-0.014001316,1,0,0,1.266,optionRight,30,170,1,3,0,3,0,1,,,,,,,,,,,,,,,,,,,,,,,,,,,,,,,,,,,,,,,
,,,,,,,5d2a1b1a4588590018cf6fd4,2023-08-16_08h44.41.110,HF_wild_card,2022.2.4,Linux x86_64,59.99520038,5d2a1b1a4588590018cf6fd4,64d2fd46c836a06233681665,64dc7e46201c200f1b779d46,,,,,,,ctch,resources/DBN.BMP,resources/DY.BMP,Door4,0.228117978,-0.019103898,1,0,0,0.8049,optionRight,60,230,1,4,0,4,0,1,,,,,,,,,,,,,,,,,,,,,,,,,,,,,,,,,,,,,,,
,,,,,,,5d2a1b1a4588590018cf6fd4,2023-08-16_08h44.41.110,HF_wild_card,2022.2.4,Linux x86_64,59.99520038,5d2a1b1a4588590018cf6fd4,64d2fd46c836a06233681665,64dc7e46201c200f1b779d46,,,,,,,ctch,resources/DB.BMP,resources/DR.BMP,Door2,-0.620456802,-0.015561669,1,0,0,0.5477,optionLeft,20,250,1,5,0,5,0,1,,,,,,,,,,,,,,,,,,,,,,,,,,,,,,,,,,,,,,,
,,,,,,,5d2a1b1a4588590018cf6fd4,2023-08-16_08h44.41.110,HF_wild_card,2022.2.4,Linux x86_64,59.99520038,5d2a1b1a4588590018cf6fd4,64d2fd46c836a06233681665,64dc7e46201c200f1b779d46,,,,,,,decisionTrl,resources/DR.BMP,resources/DY.BMP,Door3,-0.226851216,0.010685214,1,0,0,0.8819,optionLeft,70,320,1,6,0,6,0,1,,,,,,,,,,,,,,,,,,,,,,,,,,,,,,,,,,,,,,,
,,,,,,,5d2a1b1a4588590018cf6fd4,2023-08-16_08h44.41.110,HF_wild_card,2022.2.4,Linux x86_64,59.99520038,5d2a1b1a4588590018cf6fd4,64d2fd46c836a06233681665,64dc7e46201c200f1b779d46,,,,,,,decisionTrl,resources/DR.BMP,resources/DY.BMP,Door4,0.428279029,-0.060068554,1,0,0,0.4687,optionRight,60,380,1,7,0,7,0,1,,,,,,,,,,,,,,,,,,,,,,,,,,,,,,,,,,,,,,,
,,,,,,,5d2a1b1a4588590018cf6fd4,2023-08-16_08h44.41.110,HF_wild_card,2022.2.4,Linux x86_64,59.99520038,5d2a1b1a4588590018cf6fd4,64d2fd46c836a06233681665,64dc7e46201c200f1b779d46,,,,,,,decisionTrl,resources/DBN.BMP,resources/DP.BMP,WildCard_NonEx,0.60752911,-0.043746489,1,0,0,0.6698,optionRight,55,435,1,8,0,8,0,1,,,,,,,,,,,,,,,,,,,,,,,,,,,,,,,,,,,,,,,
,,,,,,,5d2a1b1a4588590018cf6fd4,2023-08-16_08h44.41.110,HF_wild_card,2022.2.4,Linux x86_64,59.99520038,5d2a1b1a4588590018cf6fd4,64d2fd46c836a06233681665,64dc7e46201c200f1b779d46,,,,,,,sngl,resources/Empty.png,resources/DB.BMP,Door2,0.394212652,-0.036507607,1,0,0,0.5807,optionRight,20,455,1,9,0,9,0,1,,,,,,,,,,,,,,,,,,,,,,,,,,,,,,,,,,,,,,,
,,,,,,,5d2a1b1a4588590018cf6fd4,2023-08-16_08h44.41.110,HF_wild_card,2022.2.4,Linux x86_64,59.99520038,5d2a1b1a4588590018cf6fd4,64d2fd46c836a06233681665,64dc7e46201c200f1b779d46,,,,,,,ctch,resources/DB.BMP,resources/DR.BMP,Door2,-0.234634894,0.001953584,1,0,0,0.5118,optionLeft,20,475,1,10,0,10,0,1,,,,,,,,,,,,,,,,,,,,,,,,,,,,,,,,,,,,,,,
,,,,,,,5d2a1b1a4588590018cf6fd4,2023-08-16_08h44.41.110,HF_wild_card,2022.2.4,Linux x86_64,59.99520038,5d2a1b1a4588590018cf6fd4,64d2fd46c836a06233681665,64dc7e46201c200f1b779d46,,,,,,,decisionTrl,resources/DP.BMP,resources/DR.BMP,WildCard_NonEx,-0.191470747,-0.008261398,1,0,0,0.7097,optionLeft,45,520,1,11,0,11,0,1,,,,,,,,,,,,,,,,,,,,,,,,,,,,,,,,,,,,,,,
,,,,,,,5d2a1b1a4588590018cf6fd4,2023-08-16_08h44.41.110,HF_wild_card,2022.2.4,Linux x86_64,59.99520038,5d2a1b1a4588590018cf6fd4,64d2fd46c836a06233681665,64dc7e46201c200f1b779d46,,,,,,,decisionTrl,resources/DP.BMP,resources/DB.BMP,Door2,0.346459424,-0.01189193,1,0,0,0.5951,optionRight,40,560,1,12,0,12,0,1,,,,,,,,,,,,,,,,,,,,,,,,,,,,,,,,,,,,,,,
,,,,,,,5d2a1b1a4588590018cf6fd4,2023-08-16_08h44.41.110,HF_wild_card,2022.2.4,Linux x86_64,59.99520038,5d2a1b1a4588590018cf6fd4,64d2fd46c836a06233681665,64dc7e46201c200f1b779d46,,,,,,,decisionTrl,resources/DY.BMP,resources/DR.BMP,Door4,-0.202975026,-0.003411999,1,0,0,0.5939,optionLeft,60,620,1,13,0,13,0,1,,,,,,,,,,,,,,,,,,,,,,,,,,,,,,,,,,,,,,,
,,,,,,,5d2a1b1a4588590018cf6fd4,2023-08-16_08h44.41.110,HF_wild_card,2022.2.4,Linux x86_64,59.99520038,5d2a1b1a4588590018cf6fd4,64d2fd46c836a06233681665,64dc7e46201c200f1b779d46,,,,,,,sngl,resources/DP.BMP,resources/Empty.png,WildCard_NonEx,-0.316446481,-0.000197234,1,0,0,0.612,optionLeft,45,665,1,14,0,14,0,1,,,,,,,,,,,,,,,,,,,,,,,,,,,,,,,,,,,,,,,
,,,,,,,5d2a1b1a4588590018cf6fd4,2023-08-16_08h44.41.110,HF_wild_card,2022.2.4,Linux x86_64,59.99520038,5d2a1b1a4588590018cf6fd4,64d2fd46c836a06233681665,64dc7e46201c200f1b779d46,,,,,,,decisionTrl,resources/DBN.BMP,resources/DB.BMP,Door1,-0.353378508,0.040386942,1,0,0,1.3082,optionLeft,30,695,1,15,0,15,0,1,,,,,,,,,,,,,,,,,,,,,,,,,,,,,,,,,,,,,,,
,,,,,,,5d2a1b1a4588590018cf6fd4,2023-08-16_08h44.41.110,HF_wild_card,2022.2.4,Linux x86_64,59.99520038,5d2a1b1a4588590018cf6fd4,64d2fd46c836a06233681665,64dc7e46201c200f1b779d46,,,,,,,sngl,resources/DP.BMP,resources/Empty.png,WildCard_NonEx,-0.371949832,0.000204899,1,0,0,0.6286,optionLeft,55,750,1,16,0,16,0,1,,,,,,,,,,,,,,,,,,,,,,,,,,,,,,,,,,,,,,,
,,,,,,,5d2a1b1a4588590018cf6fd4,2023-08-16_08h44.41.110,HF_wild_card,2022.2.4,Linux x86_64,59.99520038,5d2a1b1a4588590018cf6fd4,64d2fd46c836a06233681665,64dc7e46201c200f1b779d46,,,,,,,decisionTrl,resources/DBN.BMP,resources/DB.BMP,Door2,0.333893246,-0.022600527,1,0,0,0.691,optionRight,40,790,1,17,0,17,0,1,,,,,,,,,,,,,,,,,,,,,,,,,,,,,,,,,,,,,,,
,,,,,,,5d2a1b1a4588590018cf6fd4,2023-08-16_08h44.41.110,HF_wild_card,2022.2.4,Linux x86_64,59.99520038,5d2a1b1a4588590018cf6fd4,64d2fd46c836a06233681665,64dc7e46201c200f1b779d46,,,,,,,decisionTrl,resources/DP.BMP,resources/DBN.BMP,WildCard_NonEx,-0.238364961,0.018480301,1,0,0,0.6814,optionLeft,45,835,1,18,0,18,0,1,,,,,,,,,,,,,,,,,,,,,,,,,,,,,,,,,,,,,,,
,,,,,,,5d2a1b1a4588590018cf6fd4,2023-08-16_08h44.41.110,HF_wild_card,2022.2.4,Linux x86_64,59.99520038,5d2a1b1a4588590018cf6fd4,64d2fd46c836a06233681665,64dc7e46201c200f1b779d46,,,,,,,decisionTrl,resources/DB.BMP,resources/DP.BMP,Door2,-0.345036719,-0.00725679,1,0,0,0.8805,optionLeft,20,855,1,19,0,19,0,1,,,,,,,,,,,,,,,,,,,,,,,,,,,,,,,,,,,,,,,
,,,,,,,5d2a1b1a4588590018cf6fd4,2023-08-16_08h44.41.110,HF_wild_card,2022.2.4,Linux x86_64,59.99520038,5d2a1b1a4588590018cf6fd4,64d2fd46c836a06233681665,64dc7e46201c200f1b779d46,,,,,,,decisionTrl,resources/DY.BMP,resources/DR.BMP,Door3,0.24148383,0.013488805,1,0,0,0.8692,optionRight,70,925,1,20,0,20,0,1,,,,,,,,,,,,,,,,,,,,,,,,,,,,,,,,,,,,,,,
,,,,,,,5d2a1b1a4588590018cf6fd4,2023-08-16_08h44.41.110,HF_wild_card,2022.2.4,Linux x86_64,59.99520038,5d2a1b1a4588590018cf6fd4,64d2fd46c836a06233681665,64dc7e46201c200f1b779d46,,,,,,,decisionTrl,resources/DB.BMP,resources/DBN.BMP,Door2,-0.434990106,0.017068121,1,0,0,0.9027,optionLeft,40,965,1,21,0,21,0,1,,,,,,,,,,,,,,,,,,,,,,,,,,,,,,,,,,,,,,,
,,,,,,,5d2a1b1a4588590018cf6fd4,2023-08-16_08h44.41.110,HF_wild_card,2022.2.4,Linux x86_64,59.99520038,5d2a1b1a4588590018cf6fd4,64d2fd46c836a06233681665,64dc7e46201c200f1b779d46,,,,,,,sngl,resources/DY.BMP,resources/Empty.png,Door4,-0.388784091,0.017992938,1,0,0,0.9177,optionLeft,80,1045,1,22,0,22,0,1,,,,,,,,,,,,,,,,,,,,,,,,,,,,,,,,,,,,,,,
,,,,,,,5d2a1b1a4588590018cf6fd4,2023-08-16_08h44.41.110,HF_wild_card,2022.2.4,Linux x86_64,59.99520038,5d2a1b1a4588590018cf6fd4,64d2fd46c836a06233681665,64dc7e46201c200f1b779d46,,,,,,,decisionTrl,resources/DY.BMP,resources/DP.BMP,WildCard_NonEx,0.252993548,-0.001328186,1,0,0,0.5717,optionRight,45,1090,1,23,0,23,0,1,,,,,,,,,,,,,,,,,,,,,,,,,,,,,,,,,,,,,,,
,,,,,,,5d2a1b1a4588590018cf6fd4,2023-08-16_08h44.41.110,HF_wild_card,2022.2.4,Linux x86_64,59.99520038,5d2a1b1a4588590018cf6fd4,64d2fd46c836a06233681665,64dc7e46201c200f1b779d46,,,,,,,ctch,resources/DR.BMP,resources/DB.BMP,Door2,0.251473674,-0.006184154,1,0,0,0.8149,optionRight,20,1110,1,24,0,24,0,1,,,,,,,,,,,,,,,,,,,,,,,,,,,,,,,,,,,,,,,
,,,,,,,5d2a1b1a4588590018cf6fd4,2023-08-16_08h44.41.110,HF_wild_card,2022.2.4,Linux x86_64,59.99520038,5d2a1b1a4588590018cf6fd4,64d2fd46c836a06233681665,64dc7e46201c200f1b779d46,,,,,,,sngl,resources/Empty.png,resources/DP.BMP,WildCard_NonEx,0.377093704,-0.024897646,1,0,0,0.5597,optionRight,45,1155,1,25,0,25,0,1,,,,,,,,,,,,,,,,,,,,,,,,,,,,,,,,,,,,,,,
,,,,,,,5d2a1b1a4588590018cf6fd4,2023-08-16_08h44.41.110,HF_wild_card,2022.2.4,Linux x86_64,59.99520038,5d2a1b1a4588590018cf6fd4,64d2fd46c836a06233681665,64dc7e46201c200f1b779d46,,,,,,,sngl,resources/Empty.png,resources/DP.BMP,WildCard_NonEx,0.374927238,-0.052003154,1,0,0,1.4205,optionRight,55,1210,1,26,0,26,0,1,,,,,,,,,,,,,,,,,,,,,,,,,,,,,,,,,,,,,,,
,,,,,,,5d2a1b1a4588590018cf6fd4,2023-08-16_08h44.41.110,HF_wild_card,2022.2.4,Linux x86_64,59.99520038,5d2a1b1a4588590018cf6fd4,64d2fd46c836a06233681665,64dc7e46201c200f1b779d46,,,,,,,sngl,resources/DBN.BMP,resources/Empty.png,Door1,-0.325251014,0.035714927,1,0,0,1.029,optionLeft,30,1240,1,27,0,27,0,1,,,,,,,,,,,,,,,,,,,,,,,,,,,,,,,,,,,,,,,
,,,,,,,5d2a1b1a4588590018cf6fd4,2023-08-16_08h44.41.110,HF_wild_card,2022.2.4,Linux x86_64,59.99520038,5d2a1b1a4588590018cf6fd4,64d2fd46c836a06233681665,64dc7e46201c200f1b779d46,,,,,,,ctch,resources/DBN.BMP,resources/DY.BMP,Door4,0.287546723,0.004882848,1,0,0,0.7615,optionRight,80,1320,1,28,0,28,0,1,,,,,,,,,,,,,,,,,,,,,,,,,,,,,,,,,,,,,,,
,,,,,,,5d2a1b1a4588590018cf6fd4,2023-08-16_08h44.41.110,HF_wild_card,2022.2.4,Linux x86_64,59.99520038,5d2a1b1a4588590018cf6fd4,64d2fd46c836a06233681665,64dc7e46201c200f1b779d46,,,,,,,sngl,resources/DR.BMP,resources/Empty.png,Door3,-0.401490565,0.023979929,1,0,0,0.6455,optionLeft,70,1390,1,29,0,29,0,1,,,,,,,,,,,,,,,,,,,,,,,,,,,,,,,,,,,,,,,
,,,,,,,5d2a1b1a4588590018cf6fd4,2023-08-16_08h44.41.110,HF_wild_card,2022.2.4,Linux x86_64,59.99520038,5d2a1b1a4588590018cf6fd4,64d2fd46c836a06233681665,64dc7e46201c200f1b779d46,,,,,,,decisionTrl,resources/DB.BMP,resources/DBN.BMP,Door2,-0.280282268,-0.013801645,1,0,0,0.8621,optionLeft,20,1410,1,30,0,30,0,1,,,,,,,,,,,,,,,,,,,,,,,,,,,,,,,,,,,,,,,
,,,,,,,5d2a1b1a4588590018cf6fd4,2023-08-16_08h44.41.110,HF_wild_card,2022.2.4,Linux x86_64,59.99520038,5d2a1b1a4588590018cf6fd4,64d2fd46c836a06233681665,64dc7e46201c200f1b779d46,,,,,,,decisionTrl,resources/DR.BMP,resources/DY.BMP,Door3,-0.269693304,0.031215385,1,0,0,0.647,optionLeft,70,1480,1,31,0,31,0,1,,,,,,,,,,,,,,,,,,,,,,,,,,,,,,,,,,,,,,,
,,,,,,,5d2a1b1a4588590018cf6fd4,2023-08-16_08h44.41.110,HF_wild_card,2022.2.4,Linux x86_64,59.99520038,5d2a1b1a4588590018cf6fd4,64d2fd46c836a06233681665,64dc7e46201c200f1b779d46,,,,,,,ctch,resources/DY.BMP,resources/DBN.BMP,Door4,-0.341523842,0.024647642,1,0,0,0.5867,optionLeft,60,1540,1,32,0,32,0,1,,,,,,,,,,,,,,,,,,,,,,,,,,,,,,,,,,,,,,,
,,,,,,,5d2a1b1a4588590018cf6fd4,2023-08-16_08h44.41.110,HF_wild_card,2022.2.4,Linux x86_64,59.99520038,5d2a1b1a4588590018cf6fd4,64d2fd46c836a06233681665,64dc7e46201c200f1b779d46,,,,,,,decisionTrl,resources/DP.BMP,resources/DY.BMP,Door4,0.315084245,-0.032804948,1,0,0,0.6469,optionRight,80,1620,1,33,0,33,0,1,,,,,,,,,,,,,,,,,,,,,,,,,,,,,,,,,,,,,,,
,,,,,,,5d2a1b1a4588590018cf6fd4,2023-08-16_08h44.41.110,HF_wild_card,2022.2.4,Linux x86_64,59.99520038,5d2a1b1a4588590018cf6fd4,64d2fd46c836a06233681665,64dc7e46201c200f1b779d46,,,,,,,decisionTrl,resources/DR.BMP,resources/DP.BMP,WildCard_NonEx,0.307829822,-0.017500489,1,0,0,1.2298,optionRight,55,1675,1,34,0,34,0,1,,,,,,,,,,,,,,,,,,,,,,,,,,,,,,,,,,,,,,,
,,,,,,,5d2a1b1a4588590018cf6fd4,2023-08-16_08h44.41.110,HF_wild_card,2022.2.4,Linux x86_64,59.99520038,5d2a1b1a4588590018cf6fd4,64d2fd46c836a06233681665,64dc7e46201c200f1b779d46,,,,,,,decisionTrl,resources/DB.BMP,resources/DBN.BMP,Door2,-0.231606166,0.003649676,1,0,0,0.8163,optionLeft,20,1695,1,35,0,35,0,1,,,,,,,,,,,,,,,,,,,,,,,,,,,,,,,,,,,,,,,
,,,,,,,5d2a1b1a4588590018cf6fd4,2023-08-16_08h44.41.110,HF_wild_card,2022.2.4,Linux x86_64,59.99520038,5d2a1b1a4588590018cf6fd4,64d2fd46c836a06233681665,64dc7e46201c200f1b779d46,,,,,,,sngl,resources/Empty.png,resources/DY.BMP,Door4,0.274177622,-0.001754584,1,0,0,0.6679,optionRight,60,1755,1,36,0,36,0,1,,,,,,,,,,,,,,,,,,,,,,,,,,,,,,,,,,,,,,,
,,,,,,,5d2a1b1a4588590018cf6fd4,2023-08-16_08h44.41.110,HF_wild_card,2022.2.4,Linux x86_64,59.99520038,5d2a1b1a4588590018cf6fd4,64d2fd46c836a06233681665,64dc7e46201c200f1b779d46,,,,,,,decisionTrl,resources/DBN.BMP,resources/DB.BMP,Door2,0.454273224,0.003523473,1,0,0,0.7036,optionRight,40,1795,1,37,0,37,0,1,,,,,,,,,,,,,,,,,,,,,,,,,,,,,,,,,,,,,,,
,,,,,,,5d2a1b1a4588590018cf6fd4,2023-08-16_08h44.41.110,HF_wild_card,2022.2.4,Linux x86_64,59.99520038,5d2a1b1a4588590018cf6fd4,64d2fd46c836a06233681665,64dc7e46201c200f1b779d46,,,,,,,decisionTrl,resources/DR.BMP,resources/DY.BMP,Door4,0.443487521,-0.047162268,1,0,0,1.5293,optionRight,80,1875,1,38,0,38,0,1,,,,,,,,,,,,,,,,,,,,,,,,,,,,,,,,,,,,,,,
,,,,,,,5d2a1b1a4588590018cf6fd4,2023-08-16_08h44.41.110,HF_wild_card,2022.2.4,Linux x86_64,59.99520038,5d2a1b1a4588590018cf6fd4,64d2fd46c836a06233681665,64dc7e46201c200f1b779d46,,,,,,,ctch,resources/DR.BMP,resources/DB.BMP,Door3,-0.406255016,0.052437994,1,0,0,0.8319,optionLeft,70,1945,1,39,0,39,0,1,,,,,,,,,,,,,,,,,,,,,,,,,,,,,,,,,,,,,,,
,,,,,,,5d2a1b1a4588590018cf6fd4,2023-08-16_08h44.41.110,HF_wild_card,2022.2.4,Linux x86_64,59.99520038,5d2a1b1a4588590018cf6fd4,64d2fd46c836a06233681665,64dc7e46201c200f1b779d46,,,,,,,ctch,resources/DY.BMP,resources/DBN.BMP,Door4,-0.333832529,0.041011987,1,0,0,1.2363,optionLeft,60,2005,1,40,0,40,0,1,,,,,,,,,,,,,,,,,,,,,,,,,,,,,,,,,,,,,,,
,,,,,,,5d2a1b1a4588590018cf6fd4,2023-08-16_08h44.41.110,HF_wild_card,2022.2.4,Linux x86_64,59.99520038,5d2a1b1a4588590018cf6fd4,64d2fd46c836a06233681665,64dc7e46201c200f1b779d46,,,,,,,decisionTrl,resources/DY.BMP,resources/DR.BMP,Door3,0.278577663,-0.008988098,1,0,0,1.5845,optionRight,70,2075,1,41,0,41,0,1,,,,,,,,,,,,,,,,,,,,,,,,,,,,,,,,,,,,,,,
,,,,,,,5d2a1b1a4588590018cf6fd4,2023-08-16_08h44.41.110,HF_wild_card,2022.2.4,Linux x86_64,59.99520038,5d2a1b1a4588590018cf6fd4,64d2fd46c836a06233681665,64dc7e46201c200f1b779d46,,,,,,,sngl,resources/Empty.png,resources/DR.BMP,Door3,0.3743799,0.013266316,1,0,0,0.7786,optionRight,70,2145,1,42,0,42,0,1,,,,,,,,,,,,,,,,,,,,,,,,,,,,,,,,,,,,,,,
,,,,,,,5d2a1b1a4588590018cf6fd4,2023-08-16_08h44.41.110,HF_wild_card,2022.2.4,Linux x86_64,59.99520038,5d2a1b1a4588590018cf6fd4,64d2fd46c836a06233681665,64dc7e46201c200f1b779d46,,,,,,,decisionTrl,resources/DBN.BMP,resources/DB.BMP,Door2,0.483531104,-0.014574086,1,0,0,0.7165,optionRight,40,2185,1,43,0,43,0,1,,,,,,,,,,,,,,,,,,,,,,,,,,,,,,,,,,,,,,,
,,,,,,,5d2a1b1a4588590018cf6fd4,2023-08-16_08h44.41.110,HF_wild_card,2022.2.4,Linux x86_64,59.99520038,5d2a1b1a4588590018cf6fd4,64d2fd46c836a06233681665,64dc7e46201c200f1b779d46,,,,,,,,,,,,,,,,,,,,,,,,,,0,0,0,0,1,,,,,,,,,,,,,,,,,,,,,,,,,,,,,,,,,,
,,,,,,,5d2a1b1a4588590018cf6fd4,2023-08-16_08h44.41.110,HF_wild_card,2022.2.4,Linux x86_64,59.99520038,5d2a1b1a4588590018cf6fd4,64d2fd46c836a06233681665,64dc7e46201c200f1b779d46,,,,,,,ctch,resources/DY.BMP,resources/DBN.BMP,Door4,-0.27570124,0.017631813,1,0,0,1.116,optionLeft,60,2245,2,0,0,0,0,1,,,,,,,,,,,,,,,,,,,,,,,,,,,,,,,,,,,,,,,
,,,,,,,5d2a1b1a4588590018cf6fd4,2023-08-16_08h44.41.110,HF_wild_card,2022.2.4,Linux x86_64,59.99520038,5d2a1b1a4588590018cf6fd4,64d2fd46c836a06233681665,64dc7e46201c200f1b779d46,,,,,,,ctch,resources/DBN.BMP,resources/DY.BMP,Door4,0.520085794,0.043523824,1,0,0,0.8305,optionRight,80,2325,2,1,0,1,0,1,,,,,,,,,,,,,,,,,,,,,,,,,,,,,,,,,,,,,,,
,,,,,,,5d2a1b1a4588590018cf6fd4,2023-08-16_08h44.41.110,HF_wild_card,2022.2.4,Linux x86_64,59.99520038,5d2a1b1a4588590018cf6fd4,64d2fd46c836a06233681665,64dc7e46201c200f1b779d46,,,,,,,sngl,resources/Empty.png,resources/DY.BMP,Door4,0.450359062,0.03674002,1,0,0,0.5497,optionRight,80,2405,2,2,0,2,0,1,,,,,,,,,,,,,,,,,,,,,,,,,,,,,,,,,,,,,,,
,,,,,,,5d2a1b1a4588590018cf6fd4,2023-08-16_08h44.41.110,HF_wild_card,2022.2.4,Linux x86_64,59.99520038,5d2a1b1a4588590018cf6fd4,64d2fd46c836a06233681665,64dc7e46201c200f1b779d46,,,,,,,ctch,resources/DB.BMP,resources/DR.BMP,Door3,0.284548159,-0.016474194,1,0,0,0.9963,optionRight,70,2475,2,3,0,3,0,1,,,,,,,,,,,,,,,,,,,,,,,,,,,,,,,,,,,,,,,
,,,,,,,5d2a1b1a4588590018cf6fd4,2023-08-16_08h44.41.110,HF_wild_card,2022.2.4,Linux x86_64,59.99520038,5d2a1b1a4588590018cf6fd4,64d2fd46c836a06233681665,64dc7e46201c200f1b779d46,,,,,,,decisionTrl,resources/DR.BMP,resources/DP.BMP,Door3,-0.39770695,0.005570023,1,0,0,0.6453,optionLeft,70,2545,2,4,0,4,0,1,,,,,,,,,,,,,,,,,,,,,,,,,,,,,,,,,,,,,,,
,,,,,,,5d2a1b1a4588590018cf6fd4,2023-08-16_08h44.41.110,HF_wild_card,2022.2.4,Linux x86_64,59.99520038,5d2a1b1a4588590018cf6fd4,64d2fd46c836a06233681665,64dc7e46201c200f1b779d46,,,,,,,decisionTrl,resources/DBN.BMP,resources/DB.BMP,Door2,0.292455532,0.000416968,1,0,0,0.7943,optionRight,40,2585,2,5,0,5,0,1,,,,,,,,,,,,,,,,,,,,,,,,,,,,,,,,,,,,,,,
,,,,,,,5d2a1b1a4588590018cf6fd4,2023-08-16_08h44.41.110,HF_wild_card,2022.2.4,Linux x86_64,59.99520038,5d2a1b1a4588590018cf6fd4,64d2fd46c836a06233681665,64dc7e46201c200f1b779d46,,,,,,,decisionTrl,resources/DBN.BMP,resources/DB.BMP,Door2,0.277254387,-0.00786467,1,0,0,0.6909,optionRight,20,2605,2,6,0,6,0,1,,,,,,,,,,,,,,,,,,,,,,,,,,,,,,,,,,,,,,,
,,,,,,,5d2a1b1a4588590018cf6fd4,2023-08-16_08h44.41.110,HF_wild_card,2022.2.4,Linux x86_64,59.99520038,5d2a1b1a4588590018cf6fd4,64d2fd46c836a06233681665,64dc7e46201c200f1b779d46,,,,,,,ctch,resources/DR.BMP,resources/DB.BMP,Door3,-0.283878397,-0.02011119,1,0,0,1.08,optionLeft,70,2675,2,7,0,7,0,1,,,,,,,,,,,,,,,,,,,,,,,,,,,,,,,,,,,,,,,
,,,,,,,5d2a1b1a4588590018cf6fd4,2023-08-16_08h44.41.110,HF_wild_card,2022.2.4,Linux x86_64,59.99520038,5d2a1b1a4588590018cf6fd4,64d2fd46c836a06233681665,64dc7e46201c200f1b779d46,,,,,,,decisionTrl,resources/DP.BMP,resources/DB.BMP,WildCard_NonEx,-0.185838275,-0.005925108,1,0,0,0.833,optionLeft,45,2720,2,8,0,8,0,1,,,,,,,,,,,,,,,,,,,,,,,,,,,,,,,,,,,,,,,
,,,,,,,5d2a1b1a4588590018cf6fd4,2023-08-16_08h44.41.110,HF_wild_card,2022.2.4,Linux x86_64,59.99520038,5d2a1b1a4588590018cf6fd4,64d2fd46c836a06233681665,64dc7e46201c200f1b779d46,,,,,,,ctch,resources/DBN.BMP,resources/DY.BMP,Door1,-0.383537116,-0.001549862,1,0,0,1.1804,optionLeft,30,2750,2,9,0,9,0,1,,,,,,,,,,,,,,,,,,,,,,,,,,,,,,,,,,,,,,,
,,,,,,,5d2a1b1a4588590018cf6fd4,2023-08-16_08h44.41.110,HF_wild_card,2022.2.4,Linux x86_64,59.99520038,5d2a1b1a4588590018cf6fd4,64d2fd46c836a06233681665,64dc7e46201c200f1b779d46,,,,,,,decisionTrl,resources/DB.BMP,resources/DBN.BMP,Door2,-0.322144614,0.008300534,1,0,0,0.8098,optionLeft,40,2790,2,10,0,10,0,1,,,,,,,,,,,,,,,,,,,,,,,,,,,,,,,,,,,,,,,
,,,,,,,5d2a1b1a4588590018cf6fd4,2023-08-16_08h44.41.110,HF_wild_card,2022.2.4,Linux x86_64,59.99520038,5d2a1b1a4588590018cf6fd4,64d2fd46c836a06233681665,64dc7e46201c200f1b779d46,,,,,,,decisionTrl,resources/DR.BMP,resources/DY.BMP,Door4,0.206685313,-0.022706456,1,0,0,0.9296,optionRight,80,2870,2,11,0,11,0,1,,,,,,,,,,,,,,,,,,,,,,,,,,,,,,,,,,,,,,,
,,,,,,,5d2a1b1a4588590018cf6fd4,2023-08-16_08h44.41.110,HF_wild_card,2022.2.4,Linux x86_64,59.99520038,5d2a1b1a4588590018cf6fd4,64d2fd46c836a06233681665,64dc7e46201c200f1b779d46,,,,,,,sngl,resources/DR.BMP,resources/Empty.png,Door3,-0.2800714,0.02644002,1,0,0,0.7441,optionLeft,70,2940,2,12,0,12,0,1,,,,,,,,,,,,,,,,,,,,,,,,,,,,,,,,,,,,,,,
,,,,,,,5d2a1b1a4588590018cf6fd4,2023-08-16_08h44.41.110,HF_wild_card,2022.2.4,Linux x86_64,59.99520038,5d2a1b1a4588590018cf6fd4,64d2fd46c836a06233681665,64dc7e46201c200f1b779d46,,,,,,,decisionTrl,resources/DY.BMP,resources/DR.BMP,Door4,-0.539848222,0.019893788,1,0,0,0.6324,optionLeft,60,3000,2,13,0,13,0,1,,,,,,,,,,,,,,,,,,,,,,,,,,,,,,,,,,,,,,,
,,,,,,,5d2a1b1a4588590018cf6fd4,2023-08-16_08h44.41.110,HF_wild_card,2022.2.4,Linux x86_64,59.99520038,5d2a1b1a4588590018cf6fd4,64d2fd46c836a06233681665,64dc7e46201c200f1b779d46,,,,,,,decisionTrl,resources/DBN.BMP,resources/DB.BMP,Door2,0.398726711,-0.021251537,1,0,0,0.6635,optionRight,40,3040,2,14,0,14,0,1,,,,,,,,,,,,,,,,,,,,,,,,,,,,,,,,,,,,,,,
,,,,,,,5d2a1b1a4588590018cf6fd4,2023-08-16_08h44.41.110,HF_wild_card,2022.2.4,Linux x86_64,59.99520038,5d2a1b1a4588590018cf6fd4,64d2fd46c836a06233681665,64dc7e46201c200f1b779d46,,,,,,,decisionTrl,resources/DB.BMP,resources/DP.BMP,WildCard_NonEx,0.382499554,-0.054688878,1,0,0,0.8897,optionRight,45,3085,2,15,0,15,0,1,,,,,,,,,,,,,,,,,,,,,,,,,,,,,,,,,,,,,,,
,,,,,,,5d2a1b1a4588590018cf6fd4,2023-08-16_08h44.41.110,HF_wild_card,2022.2.4,Linux x86_64,59.99520038,5d2a1b1a4588590018cf6fd4,64d2fd46c836a06233681665,64dc7e46201c200f1b779d46,,,,,,,ctch,resources/DY.BMP,resources/DBN.BMP,Door4,-0.277221468,-0.006748305,1,0,0,0.6488,optionLeft,60,3145,2,16,0,16,0,1,,,,,,,,,,,,,,,,,,,,,,,,,,,,,,,,,,,,,,,
,,,,,,,5d2a1b1a4588590018cf6fd4,2023-08-16_08h44.41.110,HF_wild_card,2022.2.4,Linux x86_64,59.99520038,5d2a1b1a4588590018cf6fd4,64d2fd46c836a06233681665,64dc7e46201c200f1b779d46,,,,,,,decisionTrl,resources/DY.BMP,resources/DR.BMP,Door4,-0.505553599,0.012865031,1,0,0,1.3625,optionLeft,80,3225,2,17,0,17,0,1,,,,,,,,,,,,,,,,,,,,,,,,,,,,,,,,,,,,,,,
,,,,,,,5d2a1b1a4588590018cf6fd4,2023-08-16_08h44.41.110,HF_wild_card,2022.2.4,Linux x86_64,59.99520038,5d2a1b1a4588590018cf6fd4,64d2fd46c836a06233681665,64dc7e46201c200f1b779d46,,,,,,,sngl,resources/Empty.png,resources/DP.BMP,WildCard_NonEx,0.365562722,-0.025777923,1,0,0,0.6347,optionRight,45,3270,2,18,0,18,0,1,,,,,,,,,,,,,,,,,,,,,,,,,,,,,,,,,,,,,,,
,,,,,,,5d2a1b1a4588590018cf6fd4,2023-08-16_08h44.41.110,HF_wild_card,2022.2.4,Linux x86_64,59.99520038,5d2a1b1a4588590018cf6fd4,64d2fd46c836a06233681665,64dc7e46201c200f1b779d46,,,,,,,sngl,resources/DP.BMP,resources/Empty.png,WildCard_NonEx,-0.172250536,0.031306726,1,0,0,0.542,optionLeft,45,3315,2,19,0,19,0,1,,,,,,,,,,,,,,,,,,,,,,,,,,,,,,,,,,,,,,,
,,,,,,,5d2a1b1a4588590018cf6fd4,2023-08-16_08h44.41.110,HF_wild_card,2022.2.4,Linux x86_64,59.99520038,5d2a1b1a4588590018cf6fd4,64d2fd46c836a06233681665,64dc7e46201c200f1b779d46,,,,,,,decisionTrl,resources/DR.BMP,resources/DY.BMP,Door4,0.312536593,0.031752374,1,0,0,0.6951,optionRight,80,3395,2,20,0,20,0,1,,,,,,,,,,,,,,,,,,,,,,,,,,,,,,,,,,,,,,,
,,,,,,,5d2a1b1a4588590018cf6fd4,2023-08-16_08h44.41.110,HF_wild_card,2022.2.4,Linux x86_64,59.99520038,5d2a1b1a4588590018cf6fd4,64d2fd46c836a06233681665,64dc7e46201c200f1b779d46,,,,,,,sngl,resources/Empty.png,resources/DB.BMP,Door2,0.296114109,-0.012311476,1,0,0,1.2438,optionRight,40,3435,2,21,0,21,0,1,,,,,,,,,,,,,,,,,,,,,,,,,,,,,,,,,,,,,,,
,,,,,,,5d2a1b1a4588590018cf6fd4,2023-08-16_08h44.41.110,HF_wild_card,2022.2.4,Linux x86_64,59.99520038,5d2a1b1a4588590018cf6fd4,64d2fd46c836a06233681665,64dc7e46201c200f1b779d46,,,,,,,decisionTrl,resources/DP.BMP,resources/DR.BMP,WildCard_NonEx,-0.264014915,-0.010472686,1,0,0,0.6822,optionLeft,45,3480,2,22,0,22,0,1,,,,,,,,,,,,,,,,,,,,,,,,,,,,,,,,,,,,,,,
,,,,,,,5d2a1b1a4588590018cf6fd4,2023-08-16_08h44.41.110,HF_wild_card,2022.2.4,Linux x86_64,59.99520038,5d2a1b1a4588590018cf6fd4,64d2fd46c836a06233681665,64dc7e46201c200f1b779d46,,,,,,,decisionTrl,resources/DBN.BMP,resources/DB.BMP,Door2,0.437427803,-0.002712003,1,0,0,0.7173,optionRight,20,3500,2,23,0,23,0,1,,,,,,,,,,,,,,,,,,,,,,,,,,,,,,,,,,,,,,,
,,,,,,,5d2a1b1a4588590018cf6fd4,2023-08-16_08h44.41.110,HF_wild_card,2022.2.4,Linux x86_64,59.99520038,5d2a1b1a4588590018cf6fd4,64d2fd46c836a06233681665,64dc7e46201c200f1b779d46,,,,,,,decisionTrl,resources/DR.BMP,resources/DY.BMP,Door4,0.404496087,-0.008655018,1,0,0,0.6274,optionRight,80,3580,2,24,0,24,0,1,,,,,,,,,,,,,,,,,,,,,,,,,,,,,,,,,,,,,,,
,,,,,,,5d2a1b1a4588590018cf6fd4,2023-08-16_08h44.41.110,HF_wild_card,2022.2.4,Linux x86_64,59.99520038,5d2a1b1a4588590018cf6fd4,64d2fd46c836a06233681665,64dc7e46201c200f1b779d46,,,,,,,decisionTrl,resources/DBN.BMP,resources/DP.BMP,WildCard_NonEx,0.41970359,-0.01245043,1,0,0,0.7967,optionRight,45,3625,2,25,0,25,0,1,,,,,,,,,,,,,,,,,,,,,,,,,,,,,,,,,,,,,,,
,,,,,,,5d2a1b1a4588590018cf6fd4,2023-08-16_08h44.41.110,HF_wild_card,2022.2.4,Linux x86_64,59.99520038,5d2a1b1a4588590018cf6fd4,64d2fd46c836a06233681665,64dc7e46201c200f1b779d46,,,,,,,ctch,resources/DB.BMP,resources/DR.BMP,Door3,0.200895521,-0.020770991,1,0,0,1.4114,optionRight,70,3695,2,26,0,26,0,1,,,,,,,,,,,,,,,,,,,,,,,,,,,,,,,,,,,,,,,
,,,,,,,5d2a1b1a4588590018cf6fd4,2023-08-16_08h44.41.110,HF_wild_card,2022.2.4,Linux x86_64,59.99520038,5d2a1b1a4588590018cf6fd4,64d2fd46c836a06233681665,64dc7e46201c200f1b779d46,,,,,,,decisionTrl,resources/DY.BMP,resources/DR.BMP,Door4,-0.261387578,0.0199485,1,0,0,0.8337,optionLeft,80,3775,2,27,0,27,0,1,,,,,,,,,,,,,,,,,,,,,,,,,,,,,,,,,,,,,,,
,,,,,,,5d2a1b1a4588590018cf6fd4,2023-08-16_08h44.41.110,HF_wild_card,2022.2.4,Linux x86_64,59.99520038,5d2a1b1a4588590018cf6fd4,64d2fd46c836a06233681665,64dc7e46201c200f1b779d46,,,,,,,sngl,resources/Empty.png,resources/DR.BMP,Door3,0.199634269,-0.012635796,1,0,0,0.7223,optionRight,70,3845,2,28,0,28,0,1,,,,,,,,,,,,,,,,,,,,,,,,,,,,,,,,,,,,,,,
,,,,,,,5d2a1b1a4588590018cf6fd4,2023-08-16_08h44.41.110,HF_wild_card,2022.2.4,Linux x86_64,59.99520038,5d2a1b1a4588590018cf6fd4,64d2fd46c836a06233681665,64dc7e46201c200f1b779d46,,,,,,,sngl,resources/DB.BMP,resources/Empty.png,Door2,-0.32484655,0.010136004,1,0,0,0.8545,optionLeft,20,3865,2,29,0,29,0,1,,,,,,,,,,,,,,,,,,,,,,,,,,,,,,,,,,,,,,,
,,,,,,,5d2a1b1a4588590018cf6fd4,2023-08-16_08h44.41.110,HF_wild_card,2022.2.4,Linux x86_64,59.99520038,5d2a1b1a4588590018cf6fd4,64d2fd46c836a06233681665,64dc7e46201c200f1b779d46,,,,,,,sngl,resources/DP.BMP,resources/Empty.png,WildCard_NonEx,-0.453467157,-0.010496457,1,0,0,0.7621,optionLeft,55,3920,2,30,0,30,0,1,,,,,,,,,,,,,,,,,,,,,,,,,,,,,,,,,,,,,,,
,,,,,,,5d2a1b1a4588590018cf6fd4,2023-08-16_08h44.41.110,HF_wild_card,2022.2.4,Linux x86_64,59.99520038,5d2a1b1a4588590018cf6fd4,64d2fd46c836a06233681665,64dc7e46201c200f1b779d46,,,,,,,sngl,resources/DY.BMP,resources/Empty.png,Door4,-0.312629417,0.010407448,1,0,0,0.5642,optionLeft,60,3980,2,31,0,31,0,1,,,,,,,,,,,,,,,,,,,,,,,,,,,,,,,,,,,,,,,
,,,,,,,5d2a1b1a4588590018cf6fd4,2023-08-16_08h44.41.110,HF_wild_card,2022.2.4,Linux x86_64,59.99520038,5d2a1b1a4588590018cf6fd4,64d2fd46c836a06233681665,64dc7e46201c200f1b779d46,,,,,,,decisionTrl,resources/DP.BMP,resources/DY.BMP,Door4,0.436951955,0.028345002,1,0,0,1.0408,optionRight,80,4060,2,32,0,32,0,1,,,,,,,,,,,,,,,,,,,,,,,,,,,,,,,,,,,,,,,
,,,,,,,5d2a1b1a4588590018cf6fd4,2023-08-16_08h44.41.110,HF_wild_card,2022.2.4,Linux x86_64,59.99520038,5d2a1b1a4588590018cf6fd4,64d2fd46c836a06233681665,64dc7e46201c200f1b779d46,,,,,,,decisionTrl,resources/DB.BMP,resources/DBN.BMP,Door1,0.349490554,-0.002014443,1,0,0,0.7138,optionRight,30,4090,2,33,0,33,0,1,,,,,,,,,,,,,,,,,,,,,,,,,,,,,,,,,,,,,,,
,,,,,,,5d2a1b1a4588590018cf6fd4,2023-08-16_08h44.41.110,HF_wild_card,2022.2.4,Linux x86_64,59.99520038,5d2a1b1a4588590018cf6fd4,64d2fd46c836a06233681665,64dc7e46201c200f1b779d46,,,,,,,decisionTrl,resources/DB.BMP,resources/DBN.BMP,Door1,0.392211349,-0.006717152,1,0,0,0.5463,optionRight,30,4120,2,34,0,34,0,1,,,,,,,,,,,,,,,,,,,,,,,,,,,,,,,,,,,,,,,
,,,,,,,5d2a1b1a4588590018cf6fd4,2023-08-16_08h44.41.110,HF_wild_card,2022.2.4,Linux x86_64,59.99520038,5d2a1b1a4588590018cf6fd4,64d2fd46c836a06233681665,64dc7e46201c200f1b779d46,,,,,,,decisionTrl,resources/DB.BMP,resources/DBN.BMP,Door1,-0.00791034,0.002395912,1,0,0,0.147,optionRight,30,4150,2,35,0,35,0,1,,,,,,,,,,,,,,,,,,,,,,,,,,,,,,,,,,,,,,,
,,,,,,,5d2a1b1a4588590018cf6fd4,2023-08-16_08h44.41.110,HF_wild_card,2022.2.4,Linux x86_64,59.99520038,5d2a1b1a4588590018cf6fd4,64d2fd46c836a06233681665,64dc7e46201c200f1b779d46,,,,,,,decisionTrl,resources/DY.BMP,resources/DR.BMP,Door4,-0.323774267,0.002960205,1,0,0,0.6819,optionLeft,80,4230,2,36,0,36,0,1,,,,,,,,,,,,,,,,,,,,,,,,,,,,,,,,,,,,,,,
,,,,,,,5d2a1b1a4588590018cf6fd4,2023-08-16_08h44.41.110,HF_wild_card,2022.2.4,Linux x86_64,59.99520038,5d2a1b1a4588590018cf6fd4,64d2fd46c836a06233681665,64dc7e46201c200f1b779d46,,,,,,,decisionTrl,resources/DY.BMP,resources/DP.BMP,Door4,-0.342622474,0.0060292,1,0,0,1.5313,optionLeft,60,4290,2,37,0,37,0,1,,,,,,,,,,,,,,,,,,,,,,,,,,,,,,,,,,,,,,,
,,,,,,,5d2a1b1a4588590018cf6fd4,2023-08-16_08h44.41.110,HF_wild_card,2022.2.4,Linux x86_64,59.99520038,5d2a1b1a4588590018cf6fd4,64d2fd46c836a06233681665,64dc7e46201c200f1b779d46,,,,,,,ctch,resources/DR.BMP,resources/DB.BMP,Door3,-0.336195027,-0.003568861,1,0,0,3.9743,optionLeft,70,4360,2,38,0,38,0,1,,,,,,,,,,,,,,,,,,,,,,,,,,,,,,,,,,,,,,,
,,,,,,,5d2a1b1a4588590018cf6fd4,2023-08-16_08h44.41.110,HF_wild_card,2022.2.4,Linux x86_64,59.99520038,5d2a1b1a4588590018cf6fd4,64d2fd46c836a06233681665,64dc7e46201c200f1b779d46,,,,,,,sngl,resources/DBN.BMP,resources/Empty.png,Door1,-0.510119332,0.031176991,1,0,0,1.0958,optionLeft,30,4390,2,39,0,39,0,1,,,,,,,,,,,,,,,,,,,,,,,,,,,,,,,,,,,,,,,
,,,,,,,5d2a1b1a4588590018cf6fd4,2023-08-16_08h44.41.110,HF_wild_card,2022.2.4,Linux x86_64,59.99520038,5d2a1b1a4588590018cf6fd4,64d2fd46c836a06233681665,64dc7e46201c200f1b779d46,,,,,,,sngl,resources/Empty.png,resources/DP.BMP,WildCard_NonEx,0.304523468,-0.071199029,1,0,0,0.8302,optionRight,55,4445,2,40,0,40,0,1,,,,,,,,,,,,,,,,,,,,,,,,,,,,,,,,,,,,,,,
,,,,,,,5d2a1b1a4588590018cf6fd4,2023-08-16_08h44.41.110,HF_wild_card,2022.2.4,Linux x86_64,59.99520038,5d2a1b1a4588590018cf6fd4,64d2fd46c836a06233681665,64dc7e46201c200f1b779d46,,,,,,,decisionTrl,resources/DP.BMP,resources/DBN.BMP,WildCard_NonEx,-0.277245698,-0.048280045,1,0,0,0.6732,optionLeft,55,4500,2,41,0,41,0,1,,,,,,,,,,,,,,,,,,,,,,,,,,,,,,,,,,,,,,,
,,,,,,,5d2a1b1a4588590018cf6fd4,2023-08-16_08h44.41.110,HF_wild_card,2022.2.4,Linux x86_64,59.99520038,5d2a1b1a4588590018cf6fd4,64d2fd46c836a06233681665,64dc7e46201c200f1b779d46,,,,,,,decisionTrl,resources/DR.BMP,resources/DY.BMP,Door4,0.298222436,-0.015027541,1,0,0,0.6379,optionRight,80,4580,2,42,0,42,0,1,,,,,,,,,,,,,,,,,,,,,,,,,,,,,,,,,,,,,,,
,,,,,,,5d2a1b1a4588590018cf6fd4,2023-08-16_08h44.41.110,HF_wild_card,2022.2.4,Linux x86_64,59.99520038,5d2a1b1a4588590018cf6fd4,64d2fd46c836a06233681665,64dc7e46201c200f1b779d46,,,,,,,sngl,resources/Empty.png,resources/DBN.BMP,Door1,0.499245396,-0.026647744,1,0,0,0.9146,optionRight,30,4610,2,43,0,43,0,1,,,,,,,,,,,,,,,,,,,,,,,,,,,,,,,,,,,,,,,
,,,,,,,5d2a1b1a4588590018cf6fd4,2023-08-16_08h44.41.110,HF_wild_card,2022.2.4,Linux x86_64,59.99520038,5d2a1b1a4588590018cf6fd4,64d2fd46c836a06233681665,64dc7e46201c200f1b779d46,,,,,,,,,,,,,,,,,,,,,,,,,,1,0,1,0,1,,,,,,,,,,,,,,,,,,,,,,,,,,,,,,,,,,
,,,,,,,5d2a1b1a4588590018cf6fd4,2023-08-16_08h44.41.110,HF_wild_card,2022.2.4,Linux x86_64,59.99520038,5d2a1b1a4588590018cf6fd4,64d2fd46c836a06233681665,64dc7e46201c200f1b779d46,,,,,,,decisionTrl,resources/DBN.BMP,resources/DP.BMP,WildCard_NonEx,0.464212206,-0.145220792,1,0,0,0.7684,optionRight,45,4655,3,0,0,0,0,1,,,,,,,,,,,,,,,,,,,,,,,,,,,,,,,,,,,,,,,
,,,,,,,5d2a1b1a4588590018cf6fd4,2023-08-16_08h44.41.110,HF_wild_card,2022.2.4,Linux x86_64,59.99520038,5d2a1b1a4588590018cf6fd4,64d2fd46c836a06233681665,64dc7e46201c200f1b779d46,,,,,,,decisionTrl,resources/DB.BMP,resources/DBN.BMP,Door2,-0.71370992,-0.10419457,1,0,0,0.5896,optionLeft,20,4675,3,1,0,1,0,1,,,,,,,,,,,,,,,,,,,,,,,,,,,,,,,,,,,,,,,
,,,,,,,5d2a1b1a4588590018cf6fd4,2023-08-16_08h44.41.110,HF_wild_card,2022.2.4,Linux x86_64,59.99520038,5d2a1b1a4588590018cf6fd4,64d2fd46c836a06233681665,64dc7e46201c200f1b779d46,,,,,,,decisionTrl,resources/DY.BMP,resources/DR.BMP,Door4,-0.326134682,0.007915391,1,0,0,0.6126,optionLeft,60,4735,3,2,0,2,0,1,,,,,,,,,,,,,,,,,,,,,,,,,,,,,,,,,,,,,,,
,,,,,,,5d2a1b1a4588590018cf6fd4,2023-08-16_08h44.41.110,HF_wild_card,2022.2.4,Linux x86_64,59.99520038,5d2a1b1a4588590018cf6fd4,64d2fd46c836a06233681665,64dc7e46201c200f1b779d46,,,,,,,sngl,resources/Empty.png,resources/DB.BMP,Door2,0.357390086,0.009380093,1,0,0,0.5133,optionRight,20,4755,3,3,0,3,0,1,,,,,,,,,,,,,,,,,,,,,,,,,,,,,,,,,,,,,,,
,,,,,,,5d2a1b1a4588590018cf6fd4,2023-08-16_08h44.41.110,HF_wild_card,2022.2.4,Linux x86_64,59.99520038,5d2a1b1a4588590018cf6fd4,64d2fd46c836a06233681665,64dc7e46201c200f1b779d46,,,,,,,decisionTrl,resources/DBN.BMP,resources/DB.BMP,Door2,0.313660092,-0.010441709,1,0,0,0.6784,optionRight,40,4795,3,4,0,4,0,1,,,,,,,,,,,,,,,,,,,,,,,,,,,,,,,,,,,,,,,
,,,,,,,5d2a1b1a4588590018cf6fd4,2023-08-16_08h44.41.110,HF_wild_card,2022.2.4,Linux x86_64,59.99520038,5d2a1b1a4588590018cf6fd4,64d2fd46c836a06233681665,64dc7e46201c200f1b779d46,,,,,,,decisionTrl,resources/DR.BMP,resources/DP.BMP,Door3,-0.344373103,0.006796272,1,0,0,0.6978,optionLeft,70,4865,3,5,0,5,0,1,,,,,,,,,,,,,,,,,,,,,,,,,,,,,,,,,,,,,,,
,,,,,,,5d2a1b1a4588590018cf6fd4,2023-08-16_08h44.41.110,HF_wild_card,2022.2.4,Linux x86_64,59.99520038,5d2a1b1a4588590018cf6fd4,64d2fd46c836a06233681665,64dc7e46201c200f1b779d46,,,,,,,decisionTrl,resources/DR.BMP,resources/DY.BMP,Door4,0.363092917,-0.001724243,1,0,0,0.469,optionRight,80,4945,3,6,0,6,0,1,,,,,,,,,,,,,,,,,,,,,,,,,,,,,,,,,,,,,,,
,,,,,,,5d2a1b1a4588590018cf6fd4,2023-08-16_08h44.41.110,HF_wild_card,2022.2.4,Linux x86_64,59.99520038,5d2a1b1a4588590018cf6fd4,64d2fd46c836a06233681665,64dc7e46201c200f1b779d46,,,,,,,sngl,resources/Empty.png,resources/DBN.BMP,Door1,0.262213389,0.022027404,1,0,0,0.7795,optionRight,30,4975,3,7,0,7,0,1,,,,,,,,,,,,,,,,,,,,,,,,,,,,,,,,,,,,,,,
,,,,,,,5d2a1b1a4588590018cf6fd4,2023-08-16_08h44.41.110,HF_wild_card,2022.2.4,Linux x86_64,59.99520038,5d2a1b1a4588590018cf6fd4,64d2fd46c836a06233681665,64dc7e46201c200f1b779d46,,,,,,,decisionTrl,resources/DY.BMP,resources/DP.BMP,Door4,-0.273563738,0.017998413,1,0,0,0.7134,optionLeft,80,5055,3,8,0,8,0,1,,,,,,,,,,,,,,,,,,,,,,,,,,,,,,,,,,,,,,,
,,,,,,,5d2a1b1a4588590018cf6fd4,2023-08-16_08h44.41.110,HF_wild_card,2022.2.4,Linux x86_64,59.99520038,5d2a1b1a4588590018cf6fd4,64d2fd46c836a06233681665,64dc7e46201c200f1b779d46,,,,,,,sngl,resources/DP.BMP,resources/Empty.png,WildCard_NonEx,-0.183559771,0.018700035,1,0,0,0.5374,optionLeft,45,5100,3,9,0,9,0,1,,,,,,,,,,,,,,,,,,,,,,,,,,,,,,,,,,,,,,,
,,,,,,,5d2a1b1a4588590018cf6fd4,2023-08-16_08h44.41.110,HF_wild_card,2022.2.4,Linux x86_64,59.99520038,5d2a1b1a4588590018cf6fd4,64d2fd46c836a06233681665,64dc7e46201c200f1b779d46,,,,,,,decisionTrl,resources/DP.BMP,resources/DR.BMP,WildCard_NonEx,-0.282779764,-0.017630683,1,0,0,0.9912,optionLeft,45,5145,3,10,0,10,0,1,,,,,,,,,,,,,,,,,,,,,,,,,,,,,,,,,,,,,,,
,,,,,,,5d2a1b1a4588590018cf6fd4,2023-08-16_08h44.41.110,HF_wild_card,2022.2.4,Linux x86_64,59.99520038,5d2a1b1a4588590018cf6fd4,64d2fd46c836a06233681665,64dc7e46201c200f1b779d46,,,,,,,decisionTrl,resources/DR.BMP,resources/DY.BMP,Door4,0.392086877,-0.012699445,1,0,0,0.6305,optionRight,60,5205,3,11,0,11,0,1,,,,,,,,,,,,,,,,,,,,,,,,,,,,,,,,,,,,,,,
,,,,,,,5d2a1b1a4588590018cf6fd4,2023-08-16_08h44.41.110,HF_wild_card,2022.2.4,Linux x86_64,59.99520038,5d2a1b1a4588590018cf6fd4,64d2fd46c836a06233681665,64dc7e46201c200f1b779d46,,,,,,,decisionTrl,resources/DY.BMP,resources/DR.BMP,Door4,-0.241852442,-0.011431623,1,0,0,0.6888,optionLeft,80,5285,3,12,0,12,0,1,,,,,,,,,,,,,,,,,,,,,,,,,,,,,,,,,,,,,,,
,,,,,,,5d2a1b1a4588590018cf6fd4,2023-08-16_08h44.41.110,HF_wild_card,2022.2.4,Linux x86_64,59.99520038,5d2a1b1a4588590018cf6fd4,64d2fd46c836a06233681665,64dc7e46201c200f1b779d46,,,,,,,sngl,resources/Empty.png,resources/DR.BMP,Door3,0.37590041,0.024999936,1,0,0,0.6728,optionRight,70,5355,3,13,0,13,0,1,,,,,,,,,,,,,,,,,,,,,,,,,,,,,,,,,,,,,,,
,,,,,,,5d2a1b1a4588590018cf6fd4,2023-08-16_08h44.41.110,HF_wild_card,2022.2.4,Linux x86_64,59.99520038,5d2a1b1a4588590018cf6fd4,64d2fd46c836a06233681665,64dc7e46201c200f1b779d46,,,,,,,ctch,resources/DB.BMP,resources/DR.BMP,Door3,0.400425522,-0.000426858,1,0,0,0.8702,optionRight,70,5425,3,14,0,14,0,1,,,,,,,,,,,,,,,,,,,,,,,,,,,,,,,,,,,,,,,
,,,,,,,5d2a1b1a4588590018cf6fd4,2023-08-16_08h44.41.110,HF_wild_card,2022.2.4,Linux x86_64,59.99520038,5d2a1b1a4588590018cf6fd4,64d2fd46c836a06233681665,64dc7e46201c200f1b779d46,,,,,,,decisionTrl,resources/DR.BMP,resources/DY.BMP,Door4,0.45141983,-0.009448016,1,0,0,0.5991,optionRight,80,5505,3,15,0,15,0,1,,,,,,,,,,,,,,,,,,,,,,,,,,,,,,,,,,,,,,,
,,,,,,,5d2a1b1a4588590018cf6fd4,2023-08-16_08h44.41.110,HF_wild_card,2022.2.4,Linux x86_64,59.99520038,5d2a1b1a4588590018cf6fd4,64d2fd46c836a06233681665,64dc7e46201c200f1b779d46,,,,,,,ctch,resources/DBN.BMP,resources/DY.BMP,Door4,0.454917908,0.021325005,1,0,0,0.7354,optionRight,60,5565,3,16,0,16,0,1,,,,,,,,,,,,,,,,,,,,,,,,,,,,,,,,,,,,,,,
,,,,,,,5d2a1b1a4588590018cf6fd4,2023-08-16_08h44.41.110,HF_wild_card,2022.2.4,Linux x86_64,59.99520038,5d2a1b1a4588590018cf6fd4,64d2fd46c836a06233681665,64dc7e46201c200f1b779d46,,,,,,,decisionTrl,resources/DBN.BMP,resources/DB.BMP,Door2,0.314348433,-0.00148473,1,0,0,0.6353,optionRight,40,5605,3,17,0,17,0,1,,,,,,,,,,,,,,,,,,,,,,,,,,,,,,,,,,,,,,,
,,,,,,,5d2a1b1a4588590018cf6fd4,2023-08-16_08h44.41.110,HF_wild_card,2022.2.4,Linux x86_64,59.99520038,5d2a1b1a4588590018cf6fd4,64d2fd46c836a06233681665,64dc7e46201c200f1b779d46,,,,,,,ctch,resources/DY.BMP,resources/DBN.BMP,Door4,-0.269299331,0.052558828,1,0,0,0.6017,optionLeft,80,5685,3,18,0,18,0,1,,,,,,,,,,,,,,,,,,,,,,,,,,,,,,,,,,,,,,,
,,,,,,,5d2a1b1a4588590018cf6fd4,2023-08-16_08h44.41.110,HF_wild_card,2022.2.4,Linux x86_64,59.99520038,5d2a1b1a4588590018cf6fd4,64d2fd46c836a06233681665,64dc7e46201c200f1b779d46,,,,,,,decisionTrl,resources/DB.BMP,resources/DBN.BMP,Door2,-0.312958364,0.050038797,1,0,0,0.8686,optionLeft,40,5725,3,19,0,19,0,1,,,,,,,,,,,,,,,,,,,,,,,,,,,,,,,,,,,,,,,
,,,,,,,5d2a1b1a4588590018cf6fd4,2023-08-16_08h44.41.110,HF_wild_card,2022.2.4,Linux x86_64,59.99520038,5d2a1b1a4588590018cf6fd4,64d2fd46c836a06233681665,64dc7e46201c200f1b779d46,,,,,,,decisionTrl,resources/DBN.BMP,resources/DB.BMP,Door2,0.439954122,-0.009970276,1,0,0,0.694,optionRight,20,5745,3,20,0,20,0,1,,,,,,,,,,,,,,,,,,,,,,,,,,,,,,,,,,,,,,,
,,,,,,,5d2a1b1a4588590018cf6fd4,2023-08-16_08h44.41.110,HF_wild_card,2022.2.4,Linux x86_64,59.99520038,5d2a1b1a4588590018cf6fd4,64d2fd46c836a06233681665,64dc7e46201c200f1b779d46,,,,,,,decisionTrl,resources/DP.BMP,resources/DB.BMP,WildCard_NonEx,-0.402643098,-0.078350774,1,0,0,1.1241,optionLeft,55,5800,3,21,0,21,0,1,,,,,,,,,,,,,,,,,,,,,,,,,,,,,,,,,,,,,,,
,,,,,,,5d2a1b1a4588590018cf6fd4,2023-08-16_08h44.41.110,HF_wild_card,2022.2.4,Linux x86_64,59.99520038,5d2a1b1a4588590018cf6fd4,64d2fd46c836a06233681665,64dc7e46201c200f1b779d46,,,,,,,sngl,resources/Empty.png,resources/DP.BMP,WildCard_NonEx,0.376705028,0.018086681,1,0,0,0.9338,optionRight,45,5845,3,22,0,22,0,1,,,,,,,,,,,,,,,,,,,,,,,,,,,,,,,,,,,,,,,
,,,,,,,5d2a1b1a4588590018cf6fd4,2023-08-16_08h44.41.110,HF_wild_card,2022.2.4,Linux x86_64,59.99520038,5d2a1b1a4588590018cf6fd4,64d2fd46c836a06233681665,64dc7e46201c200f1b779d46,,,,,,,ctch,resources/DY.BMP,resources/DBN.BMP,Door4,-0.42687794,-0.05907645,1,0,0,0.6273,optionLeft,60,5905,3,23,0,23,0,1,,,,,,,,,,,,,,,,,,,,,,,,,,,,,,,,,,,,,,,
,,,,,,,5d2a1b1a4588590018cf6fd4,2023-08-16_08h44.41.110,HF_wild_card,2022.2.4,Linux x86_64,59.99520038,5d2a1b1a4588590018cf6fd4,64d2fd46c836a06233681665,64dc7e46201c200f1b779d46,,,,,,,sngl,resources/DR.BMP,resources/Empty.png,Door3,-0.316132722,0.007016994,1,0,0,0.9379,optionLeft,70,5975,3,24,0,24,0,1,,,,,,,,,,,,,,,,,,,,,,,,,,,,,,,,,,,,,,,
,,,,,,,5d2a1b1a4588590018cf6fd4,2023-08-16_08h44.41.110,HF_wild_card,2022.2.4,Linux x86_64,59.99520038,5d2a1b1a4588590018cf6fd4,64d2fd46c836a06233681665,64dc7e46201c200f1b779d46,,,,,,,ctch,resources/DR.BMP,resources/DB.BMP,Door2,0.300954042,-0.019857619,1,0,0,0.6509,optionRight,40,6015,3,25,0,25,0,1,,,,,,,,,,,,,,,,,,,,,,,,,,,,,,,,,,,,,,,
,,,,,,,5d2a1b1a4588590018cf6fd4,2023-08-16_08h44.41.110,HF_wild_card,2022.2.4,Linux x86_64,59.99520038,5d2a1b1a4588590018cf6fd4,64d2fd46c836a06233681665,64dc7e46201c200f1b779d46,,,,,,,decisionTrl,resources/DR.BMP,resources/DY.BMP,Door4,0.469431135,-0.010510091,1,0,0,0.9906,optionRight,60,6075,3,26,0,26,0,1,,,,,,,,,,,,,,,,,,,,,,,,,,,,,,,,,,,,,,,
,,,,,,,5d2a1b1a4588590018cf6fd4,2023-08-16_08h44.41.110,HF_wild_card,2022.2.4,Linux x86_64,59.99520038,5d2a1b1a4588590018cf6fd4,64d2fd46c836a06233681665,64dc7e46201c200f1b779d46,,,,,,,ctch,resources/DR.BMP,resources/DB.BMP,Door3,-0.394885876,-0.007381545,1,0,0,0.6756,optionLeft,70,6145,3,27,0,27,0,1,,,,,,,,,,,,,,,,,,,,,,,,,,,,,,,,,,,,,,,
,,,,,,,5d2a1b1a4588590018cf6fd4,2023-08-16_08h44.41.110,HF_wild_card,2022.2.4,Linux x86_64,59.99520038,5d2a1b1a4588590018cf6fd4,64d2fd46c836a06233681665,64dc7e46201c200f1b779d46,,,,,,,sngl,resources/Empty.png,resources/DY.BMP,Door4,0.296255253,-0.059347718,1,0,0,0.603,optionRight,60,6205,3,28,0,28,0,1,,,,,,,,,,,,,,,,,,,,,,,,,,,,,,,,,,,,,,,
,,,,,,,5d2a1b1a4588590018cf6fd4,2023-08-16_08h44.41.110,HF_wild_card,2022.2.4,Linux x86_64,59.99520038,5d2a1b1a4588590018cf6fd4,64d2fd46c836a06233681665,64dc7e46201c200f1b779d46,,,,,,,decisionTrl,resources/DP.BMP,resources/DY.BMP,WildCard_NonEx,-0.210395884,0.033696598,1,0,0,1.696,optionLeft,55,6260,3,29,0,29,0,1,,,,,,,,,,,,,,,,,,,,,,,,,,,,,,,,,,,,,,,
,,,,,,,5d2a1b1a4588590018cf6fd4,2023-08-16_08h44.41.110,HF_wild_card,2022.2.4,Linux x86_64,59.99520038,5d2a1b1a4588590018cf6fd4,64d2fd46c836a06233681665,64dc7e46201c200f1b779d46,,,,,,,decisionTrl,resources/DP.BMP,resources/DBN.BMP,WildCard_NonEx,-0.311616332,-0.004324454,1,0,0,0.7615,optionLeft,55,6315,3,30,0,30,0,1,,,,,,,,,,,,,,,,,,,,,,,,,,,,,,,,,,,,,,,
,,,,,,,5d2a1b1a4588590018cf6fd4,2023-08-16_08h44.41.110,HF_wild_card,2022.2.4,Linux x86_64,59.99520038,5d2a1b1a4588590018cf6fd4,64d2fd46c836a06233681665,64dc7e46201c200f1b779d46,,,,,,,decisionTrl,resources/DB.BMP,resources/DBN.BMP,Door2,-0.369747056,-0.033048912,1,0,0,0.8181,optionLeft,20,6335,3,31,0,31,0,1,,,,,,,,,,,,,,,,,,,,,,,,,,,,,,,,,,,,,,,
,,,,,,,5d2a1b1a4588590018cf6fd4,2023-08-16_08h44.41.110,HF_wild_card,2022.2.4,Linux x86_64,59.99520038,5d2a1b1a4588590018cf6fd4,64d2fd46c836a06233681665,64dc7e46201c200f1b779d46,,,,,,,sngl,resources/DP.BMP,resources/Empty.png,WildCard_NonEx,-0.386654818,0.017239359,1,0,0,0.5486,optionLeft,55,6390,3,32,0,32,0,1,,,,,,,,,,,,,,,,,,,,,,,,,,,,,,,,,,,,,,,
,,,,,,,5d2a1b1a4588590018cf6fd4,2023-08-16_08h44.41.110,HF_wild_card,2022.2.4,Linux x86_64,59.99520038,5d2a1b1a4588590018cf6fd4,64d2fd46c836a06233681665,64dc7e46201c200f1b779d46,,,,,,,decisionTrl,resources/DY.BMP,resources/DR.BMP,Door3,0.553317459,-0.049026772,1,0,0,1.4101,optionRight,70,6460,3,33,0,33,0,1,,,,,,,,,,,,,,,,,,,,,,,,,,,,,,,,,,,,,,,
,,,,,,,5d2a1b1a4588590018cf6fd4,2023-08-16_08h44.41.110,HF_wild_card,2022.2.4,Linux x86_64,59.99520038,5d2a1b1a4588590018cf6fd4,64d2fd46c836a06233681665,64dc7e46201c200f1b779d46,,,,,,,decisionTrl,resources/DB.BMP,resources/DP.BMP,WildCard_NonEx,0.298660702,-0.076599298,1,0,0,1.1802,optionRight,45,6505,3,34,0,34,0,1,,,,,,,,,,,,,,,,,,,,,,,,,,,,,,,,,,,,,,,
,,,,,,,5d2a1b1a4588590018cf6fd4,2023-08-16_08h44.41.110,HF_wild_card,2022.2.4,Linux x86_64,59.99520038,5d2a1b1a4588590018cf6fd4,64d2fd46c836a06233681665,64dc7e46201c200f1b779d46,,,,,,,decisionTrl,resources/DB.BMP,resources/DBN.BMP,Door2,-0.296594584,0.0187089,1,0,0,0.8342,optionLeft,20,6525,3,35,0,35,0,1,,,,,,,,,,,,,,,,,,,,,,,,,,,,,,,,,,,,,,,
,,,,,,,5d2a1b1a4588590018cf6fd4,2023-08-16_08h44.41.110,HF_wild_card,2022.2.4,Linux x86_64,59.99520038,5d2a1b1a4588590018cf6fd4,64d2fd46c836a06233681665,64dc7e46201c200f1b779d46,,,,,,,sngl,resources/DY.BMP,resources/Empty.png,Door4,-0.278595465,0.071945614,1,0,0,1.5549,optionLeft,80,6605,3,36,0,36,0,1,,,,,,,,,,,,,,,,,,,,,,,,,,,,,,,,,,,,,,,
,,,,,,,5d2a1b1a4588590018cf6fd4,2023-08-16_08h44.41.110,HF_wild_card,2022.2.4,Linux x86_64,59.99520038,5d2a1b1a4588590018cf6fd4,64d2fd46c836a06233681665,64dc7e46201c200f1b779d46,,,,,,,ctch,resources/DB.BMP,resources/DR.BMP,Door3,0.373035996,-0.0138962,1,0,0,1.1358,optionRight,70,6675,3,37,0,37,0,1,,,,,,,,,,,,,,,,,,,,,,,,,,,,,,,,,,,,,,,
,,,,,,,5d2a1b1a4588590018cf6fd4,2023-08-16_08h44.41.110,HF_wild_card,2022.2.4,Linux x86_64,59.99520038,5d2a1b1a4588590018cf6fd4,64d2fd46c836a06233681665,64dc7e46201c200f1b779d46,,,,,,,decisionTrl,resources/DBN.BMP,resources/DB.BMP,Door2,0.331164183,0.042129693,1,0,0,0.9512,optionRight,40,6715,3,38,0,38,0,1,,,,,,,,,,,,,,,,,,,,,,,,,,,,,,,,,,,,,,,
,,,,,,,5d2a1b1a4588590018cf6fd4,2023-08-16_08h44.41.110,HF_wild_card,2022.2.4,Linux x86_64,59.99520038,5d2a1b1a4588590018cf6fd4,64d2fd46c836a06233681665,64dc7e46201c200f1b779d46,,,,,,,decisionTrl,resources/DY.BMP,resources/DR.BMP,Door4,-0.247245718,0.031721292,1,0,0,0.6392,optionLeft,80,6795,3,39,0,39,0,1,,,,,,,,,,,,,,,,,,,,,,,,,,,,,,,,,,,,,,,
,,,,,,,5d2a1b1a4588590018cf6fd4,2023-08-16_08h44.41.110,HF_wild_card,2022.2.4,Linux x86_64,59.99520038,5d2a1b1a4588590018cf6fd4,64d2fd46c836a06233681665,64dc7e46201c200f1b779d46,,,,,,,ctch,resources/DBN.BMP,resources/DY.BMP,Door4,0.377321738,-0.020632214,1,0,0,0.6474,optionRight,60,6855,3,40,0,40,0,1,,,,,,,,,,,,,,,,,,,,,,,,,,,,,,,,,,,,,,,
,,,,,,,5d2a1b1a4588590018cf6fd4,2023-08-16_08h44.41.110,HF_wild_card,2022.2.4,Linux x86_64,59.99520038,5d2a1b1a4588590018cf6fd4,64d2fd46c836a06233681665,64dc7e46201c200f1b779d46,,,,,,,sngl,resources/DBN.BMP,resources/Empty.png,Door1,-0.318619092,0.057596101,1,0,0,1.1304,optionLeft,30,6885,3,41,0,41,0,1,,,,,,,,,,,,,,,,,,,,,,,,,,,,,,,,,,,,,,,
,,,,,,,5d2a1b1a4588590018cf6fd4,2023-08-16_08h44.41.110,HF_wild_card,2022.2.4,Linux x86_64,59.99520038,5d2a1b1a4588590018cf6fd4,64d2fd46c836a06233681665,64dc7e46201c200f1b779d46,,,,,,,sngl,resources/DB.BMP,resources/Empty.png,Door2,-0.446851766,0.10034759,1,0,0,0.7925,optionLeft,40,6925,3,42,0,42,0,1,,,,,,,,,,,,,,,,,,,,,,,,,,,,,,,,,,,,,,,
,,,,,,,5d2a1b1a4588590018cf6fd4,2023-08-16_08h44.41.110,HF_wild_card,2022.2.4,Linux x86_64,59.99520038,5d2a1b1a4588590018cf6fd4,64d2fd46c836a06233681665,64dc7e46201c200f1b779d46,,,,,,,sngl,resources/Empty.png,resources/DP.BMP,WildCard_NonEx,0.346326616,-0.049755874,1,0,0,0.6684,optionRight,55,6980,3,43,0,43,0,1,,,,,,,,,,,,,,,,,,,,,,,,,,,,,,,,,,,,,,,
,,,,,,,5d2a1b1a4588590018cf6fd4,2023-08-16_08h44.41.110,HF_wild_card,2022.2.4,Linux x86_64,59.99520038,5d2a1b1a4588590018cf6fd4,64d2fd46c836a06233681665,64dc7e46201c200f1b779d46,,,,,,,,,,,,,,,,,,,,,,,,,,2,0,2,0,1,,,,,,,,,,,,,,,,,,,,,,,,,,,,,,,,,,
,,,,,,,5d2a1b1a4588590018cf6fd4,2023-08-16_08h44.41.110,HF_wild_card,2022.2.4,Linux x86_64,59.99520038,5d2a1b1a4588590018cf6fd4,64d2fd46c836a06233681665,64dc7e46201c200f1b779d46,,,,,,,decisionTrl,resources/DY.BMP,resources/DR.BMP,Door4,-0.24210619,0.125122282,1,0,0,1.2045,optionLeft,80,7060,4,0,0,0,0,1,,,,,,,,,,,,,,,,,,,,,,,,,,,,,,,,,,,,,,,
,,,,,,,5d2a1b1a4588590018cf6fd4,2023-08-16_08h44.41.110,HF_wild_card,2022.2.4,Linux x86_64,59.99520038,5d2a1b1a4588590018cf6fd4,64d2fd46c836a06233681665,64dc7e46201c200f1b779d46,,,,,,,ctch,resources/DBN.BMP,resources/DY.BMP,Door4,0.290778761,-0.017956875,1,0,0,0.5228,optionRight,60,7120,4,1,0,1,0,1,,,,,,,,,,,,,,,,,,,,,,,,,,,,,,,,,,,,,,,
,,,,,,,5d2a1b1a4588590018cf6fd4,2023-08-16_08h44.41.110,HF_wild_card,2022.2.4,Linux x86_64,59.99520038,5d2a1b1a4588590018cf6fd4,64d2fd46c836a06233681665,64dc7e46201c200f1b779d46,,,,,,,decisionTrl,resources/DR.BMP,resources/DG.BMP,WildCard_Ex,0.439588617,0.007053446,1,0,0,0.9118,optionRight,55,7175,4,2,0,2,0,1,,,,,,,,,,,,,,,,,,,,,,,,,,,,,,,,,,,,,,,
,,,,,,,5d2a1b1a4588590018cf6fd4,2023-08-16_08h44.41.110,HF_wild_card,2022.2.4,Linux x86_64,59.99520038,5d2a1b1a4588590018cf6fd4,64d2fd46c836a06233681665,64dc7e46201c200f1b779d46,,,,,,,ctch,resources/DR.BMP,resources/DB.BMP,Door3,-0.388981678,0.067860603,1,0,0,1.1978,optionLeft,70,7245,4,3,0,3,0,1,,,,,,,,,,,,,,,,,,,,,,,,,,,,,,,,,,,,,,,
,,,,,,,5d2a1b1a4588590018cf6fd4,2023-08-16_08h44.41.110,HF_wild_card,2022.2.4,Linux x86_64,59.99520038,5d2a1b1a4588590018cf6fd4,64d2fd46c836a06233681665,64dc7e46201c200f1b779d46,,,,,,,sngl,resources/Empty.png,resources/DY.BMP,Door4,0.450525496,-0.053248052,1,0,0,0.5244,optionRight,80,7325,4,4,0,4,0,1,,,,,,,,,,,,,,,,,,,,,,,,,,,,,,,,,,,,,,,
,,,,,,,5d2a1b1a4588590018cf6fd4,2023-08-16_08h44.41.110,HF_wild_card,2022.2.4,Linux x86_64,59.99520038,5d2a1b1a4588590018cf6fd4,64d2fd46c836a06233681665,64dc7e46201c200f1b779d46,,,,,,,decisionTrl,resources/DR.BMP,resources/DY.BMP,Door4,0.325792525,-0.072999248,1,0,0,0.9479,optionRight,80,7405,4,5,0,5,0,1,,,,,,,,,,,,,,,,,,,,,,,,,,,,,,,,,,,,,,,
,,,,,,,5d2a1b1a4588590018cf6fd4,2023-08-16_08h44.41.110,HF_wild_card,2022.2.4,Linux x86_64,59.99520038,5d2a1b1a4588590018cf6fd4,64d2fd46c836a06233681665,64dc7e46201c200f1b779d46,,,,,,,ctch,resources/DR.BMP,resources/DB.BMP,Door3,-0.323038348,-0.012763483,1,0,0,1.2547,optionLeft,70,7475,4,6,0,6,0,1,,,,,,,,,,,,,,,,,,,,,,,,,,,,,,,,,,,,,,,
,,,,,,,5d2a1b1a4588590018cf6fd4,2023-08-16_08h44.41.110,HF_wild_card,2022.2.4,Linux x86_64,59.99520038,5d2a1b1a4588590018cf6fd4,64d2fd46c836a06233681665,64dc7e46201c200f1b779d46,,,,,,,decisionTrl,resources/DG.BMP,resources/DBN.BMP,WildCard_Ex,-0.462520776,-0.026896441,1,0,0,0.6418,optionLeft,45,7520,4,7,0,7,0,1,,,,,,,,,,,,,,,,,,,,,,,,,,,,,,,,,,,,,,,
,,,,,,,5d2a1b1a4588590018cf6fd4,2023-08-16_08h44.41.110,HF_wild_card,2022.2.4,Linux x86_64,59.99520038,5d2a1b1a4588590018cf6fd4,64d2fd46c836a06233681665,64dc7e46201c200f1b779d46,,,,,,,decisionTrl,resources/DR.BMP,resources/DY.BMP,Door4,0.482163606,-0.076390125,1,0,0,0.9636,optionRight,80,7600,4,8,0,8,0,1,,,,,,,,,,,,,,,,,,,,,,,,,,,,,,,,,,,,,,,
,,,,,,,5d2a1b1a4588590018cf6fd4,2023-08-16_08h44.41.110,HF_wild_card,2022.2.4,Linux x86_64,59.99520038,5d2a1b1a4588590018cf6fd4,64d2fd46c836a06233681665,64dc7e46201c200f1b779d46,,,,,,,decisionTrl,resources/DB.BMP,resources/DG.BMP,WildCard_Ex,0.366389804,0.006245684,1,0,0,0.6653,optionRight,45,7645,4,9,0,9,0,1,,,,,,,,,,,,,,,,,,,,,,,,,,,,,,,,,,,,,,,
,,,,,,,5d2a1b1a4588590018cf6fd4,2023-08-16_08h44.41.110,HF_wild_card,2022.2.4,Linux x86_64,59.99520038,5d2a1b1a4588590018cf6fd4,64d2fd46c836a06233681665,64dc7e46201c200f1b779d46,,,,,,,decisionTrl,resources/DBN.BMP,resources/DB.BMP,Door2,0.322133241,-0.047306096,1,0,0,0.694,optionRight,20,7665,4,10,0,10,0,1,,,,,,,,,,,,,,,,,,,,,,,,,,,,,,,,,,,,,,,
,,,,,,,5d2a1b1a4588590018cf6fd4,2023-08-16_08h44.41.110,HF_wild_card,2022.2.4,Linux x86_64,59.99520038,5d2a1b1a4588590018cf6fd4,64d2fd46c836a06233681665,64dc7e46201c200f1b779d46,,,,,,,sngl,resources/DBN.BMP,resources/Empty.png,Door1,-0.34668269,0.059221656,1,0,0,0.9618,optionLeft,30,7695,4,11,0,11,0,1,,,,,,,,,,,,,,,,,,,,,,,,,,,,,,,,,,,,,,,
,,,,,,,5d2a1b1a4588590018cf6fd4,2023-08-16_08h44.41.110,HF_wild_card,2022.2.4,Linux x86_64,59.99520038,5d2a1b1a4588590018cf6fd4,64d2fd46c836a06233681665,64dc7e46201c200f1b779d46,,,,,,,sngl,resources/Empty.png,resources/DR.BMP,Door3,0.339635355,-0.029439538,1,0,0,0.6638,optionRight,70,7765,4,12,0,12,0,1,,,,,,,,,,,,,,,,,,,,,,,,,,,,,,,,,,,,,,,
,,,,,,,5d2a1b1a4588590018cf6fd4,2023-08-16_08h44.41.110,HF_wild_card,2022.2.4,Linux x86_64,59.99520038,5d2a1b1a4588590018cf6fd4,64d2fd46c836a06233681665,64dc7e46201c200f1b779d46,,,,,,,sngl,resources/DY.BMP,resources/Empty.png,Door4,-0.402800701,-0.005519549,1,0,0,0.5612,optionLeft,60,7825,4,13,0,13,0,1,,,,,,,,,,,,,,,,,,,,,,,,,,,,,,,,,,,,,,,
,,,,,,,5d2a1b1a4588590018cf6fd4,2023-08-16_08h44.41.110,HF_wild_card,2022.2.4,Linux x86_64,59.99520038,5d2a1b1a4588590018cf6fd4,64d2fd46c836a06233681665,64dc7e46201c200f1b779d46,,,,,,,ctch,resources/DB.BMP,resources/DR.BMP,Door3,0.386885325,-0.04720204,1,0,0,1.8894,optionRight,70,7895,4,14,0,14,0,1,,,,,,,,,,,,,,,,,,,,,,,,,,,,,,,,,,,,,,,
,,,,,,,5d2a1b1a4588590018cf6fd4,2023-08-16_08h44.41.110,HF_wild_card,2022.2.4,Linux x86_64,59.99520038,5d2a1b1a4588590018cf6fd4,64d2fd46c836a06233681665,64dc7e46201c200f1b779d46,,,,,,,decisionTrl,resources/DG.BMP,resources/DY.BMP,WildCard_Ex,-0.449378226,-0.03041172,1,0,0,0.6985,optionLeft,55,7950,4,15,0,15,0,1,,,,,,,,,,,,,,,,,,,,,,,,,,,,,,,,,,,,,,,
,,,,,,,5d2a1b1a4588590018cf6fd4,2023-08-16_08h44.41.110,HF_wild_card,2022.2.4,Linux x86_64,59.99520038,5d2a1b1a4588590018cf6fd4,64d2fd46c836a06233681665,64dc7e46201c200f1b779d46,,,,,,,decisionTrl,resources/DB.BMP,resources/DBN.BMP,Door1,0.434997982,0.032012833,1,0,0,1.2644,optionRight,30,7980,4,16,0,16,0,1,,,,,,,,,,,,,,,,,,,,,,,,,,,,,,,,,,,,,,,
,,,,,,,5d2a1b1a4588590018cf6fd4,2023-08-16_08h44.41.110,HF_wild_card,2022.2.4,Linux x86_64,59.99520038,5d2a1b1a4588590018cf6fd4,64d2fd46c836a06233681665,64dc7e46201c200f1b779d46,,,,,,,decisionTrl,resources/DBN.BMP,resources/DB.BMP,Door2,0.364760222,0.003574689,1,0,0,0.8479,optionRight,40,8020,4,17,0,17,0,1,,,,,,,,,,,,,,,,,,,,,,,,,,,,,,,,,,,,,,,
,,,,,,,5d2a1b1a4588590018cf6fd4,2023-08-16_08h44.41.110,HF_wild_card,2022.2.4,Linux x86_64,59.99520038,5d2a1b1a4588590018cf6fd4,64d2fd46c836a06233681665,64dc7e46201c200f1b779d46,,,,,,,sngl,resources/DG.BMP,resources/Empty.png,WildCard_Ex,-0.256972348,0.072576452,1,0,0,0.5292,optionLeft,55,8075,4,18,0,18,0,1,,,,,,,,,,,,,,,,,,,,,,,,,,,,,,,,,,,,,,,
,,,,,,,5d2a1b1a4588590018cf6fd4,2023-08-16_08h44.41.110,HF_wild_card,2022.2.4,Linux x86_64,59.99520038,5d2a1b1a4588590018cf6fd4,64d2fd46c836a06233681665,64dc7e46201c200f1b779d46,,,,,,,decisionTrl,resources/DG.BMP,resources/DB.BMP,WildCard_Ex,-0.620371518,0.148277177,1,0,0,0.7503,optionLeft,45,8120,4,19,0,19,0,1,,,,,,,,,,,,,,,,,,,,,,,,,,,,,,,,,,,,,,,
,,,,,,,5d2a1b1a4588590018cf6fd4,2023-08-16_08h44.41.110,HF_wild_card,2022.2.4,Linux x86_64,59.99520038,5d2a1b1a4588590018cf6fd4,64d2fd46c836a06233681665,64dc7e46201c200f1b779d46,,,,,,,ctch,resources/DBN.BMP,resources/DY.BMP,Door4,0.363017047,0.000544407,1,0,0,0.5975,optionRight,60,8180,4,20,0,20,0,1,,,,,,,,,,,,,,,,,,,,,,,,,,,,,,,,,,,,,,,
,,,,,,,5d2a1b1a4588590018cf6fd4,2023-08-16_08h44.41.110,HF_wild_card,2022.2.4,Linux x86_64,59.99520038,5d2a1b1a4588590018cf6fd4,64d2fd46c836a06233681665,64dc7e46201c200f1b779d46,,,,,,,sngl,resources/DG.BMP,resources/Empty.png,WildCard_Ex,-0.211649365,0.021499281,1,0,0,0.5461,optionLeft,45,8225,4,21,0,21,0,1,,,,,,,,,,,,,,,,,,,,,,,,,,,,,,,,,,,,,,,
,,,,,,,5d2a1b1a4588590018cf6fd4,2023-08-16_08h44.41.110,HF_wild_card,2022.2.4,Linux x86_64,59.99520038,5d2a1b1a4588590018cf6fd4,64d2fd46c836a06233681665,64dc7e46201c200f1b779d46,,,,,,,decisionTrl,resources/DB.BMP,resources/DBN.BMP,Door2,-0.422056799,0.019946558,1,0,0,0.8722,optionLeft,40,8265,4,22,0,22,0,1,,,,,,,,,,,,,,,,,,,,,,,,,,,,,,,,,,,,,,,
,,,,,,,5d2a1b1a4588590018cf6fd4,2023-08-16_08h44.41.110,HF_wild_card,2022.2.4,Linux x86_64,59.99520038,5d2a1b1a4588590018cf6fd4,64d2fd46c836a06233681665,64dc7e46201c200f1b779d46,,,,,,,sngl,resources/Empty.png,resources/DB.BMP,Door2,0.36710287,-0.035389653,1,0,0,0.5933,optionRight,40,8305,4,23,0,23,0,1,,,,,,,,,,,,,,,,,,,,,,,,,,,,,,,,,,,,,,,
,,,,,,,5d2a1b1a4588590018cf6fd4,2023-08-16_08h44.41.110,HF_wild_card,2022.2.4,Linux x86_64,59.99520038,5d2a1b1a4588590018cf6fd4,64d2fd46c836a06233681665,64dc7e46201c200f1b779d46,,,,,,,sngl,resources/Empty.png,resources/DG.BMP,WildCard_Ex,0.347065396,0.0009417,1,0,0,0.6166,optionRight,55,8360,4,24,0,24,0,1,,,,,,,,,,,,,,,,,,,,,,,,,,,,,,,,,,,,,,,
,,,,,,,5d2a1b1a4588590018cf6fd4,2023-08-16_08h44.41.110,HF_wild_card,2022.2.4,Linux x86_64,59.99520038,5d2a1b1a4588590018cf6fd4,64d2fd46c836a06233681665,64dc7e46201c200f1b779d46,,,,,,,decisionTrl,resources/DY.BMP,resources/DG.BMP,Door4,-0.365261996,-0.000515761,1,0,0,0.8787,optionLeft,60,8420,4,25,0,25,0,1,,,,,,,,,,,,,,,,,,,,,,,,,,,,,,,,,,,,,,,
,,,,,,,5d2a1b1a4588590018cf6fd4,2023-08-16_08h44.41.110,HF_wild_card,2022.2.4,Linux x86_64,59.99520038,5d2a1b1a4588590018cf6fd4,64d2fd46c836a06233681665,64dc7e46201c200f1b779d46,,,,,,,decisionTrl,resources/DR.BMP,resources/DY.BMP,Door4,0.423346484,-0.061955028,1,0,0,0.9424,optionRight,80,8500,4,26,0,26,0,1,,,,,,,,,,,,,,,,,,,,,,,,,,,,,,,,,,,,,,,
,,,,,,,5d2a1b1a4588590018cf6fd4,2023-08-16_08h44.41.110,HF_wild_card,2022.2.4,Linux x86_64,59.99520038,5d2a1b1a4588590018cf6fd4,64d2fd46c836a06233681665,64dc7e46201c200f1b779d46,,,,,,,decisionTrl,resources/DY.BMP,resources/DR.BMP,Door4,-0.36433061,-0.014715407,1,0,0,0.6913,optionLeft,80,8580,4,27,0,27,0,1,,,,,,,,,,,,,,,,,,,,,,,,,,,,,,,,,,,,,,,
,,,,,,,5d2a1b1a4588590018cf6fd4,2023-08-16_08h44.41.110,HF_wild_card,2022.2.4,Linux x86_64,59.99520038,5d2a1b1a4588590018cf6fd4,64d2fd46c836a06233681665,64dc7e46201c200f1b779d46,,,,,,,ctch,resources/DY.BMP,resources/DBN.BMP,Door4,-0.509384332,-0.030253481,1,0,0,0.6008,optionLeft,60,8640,4,28,0,28,0,1,,,,,,,,,,,,,,,,,,,,,,,,,,,,,,,,,,,,,,,
,,,,,,,5d2a1b1a4588590018cf6fd4,2023-08-16_08h44.41.110,HF_wild_card,2022.2.4,Linux x86_64,59.99520038,5d2a1b1a4588590018cf6fd4,64d2fd46c836a06233681665,64dc7e46201c200f1b779d46,,,,,,,ctch,resources/DB.BMP,resources/DR.BMP,Door3,0.357782293,-0.074681777,1,0,0,1.4175,optionRight,70,8710,4,29,0,29,0,1,,,,,,,,,,,,,,,,,,,,,,,,,,,,,,,,,,,,,,,
,,,,,,,5d2a1b1a4588590018cf6fd4,2023-08-16_08h44.41.110,HF_wild_card,2022.2.4,Linux x86_64,59.99520038,5d2a1b1a4588590018cf6fd4,64d2fd46c836a06233681665,64dc7e46201c200f1b779d46,,,,,,,sngl,resources/Empty.png,resources/DBN.BMP,Door1,0.318980182,-0.003847935,1,0,0,0.8681,optionRight,30,8740,4,30,0,30,0,1,,,,,,,,,,,,,,,,,,,,,,,,,,,,,,,,,,,,,,,
,,,,,,,5d2a1b1a4588590018cf6fd4,2023-08-16_08h44.41.110,HF_wild_card,2022.2.4,Linux x86_64,59.99520038,5d2a1b1a4588590018cf6fd4,64d2fd46c836a06233681665,64dc7e46201c200f1b779d46,,,,,,,decisionTrl,resources/DR.BMP,resources/DY.BMP,Door4,0.402935311,0.053875782,1,0,0,1.3146,optionRight,60,8800,4,31,0,31,0,1,,,,,,,,,,,,,,,,,,,,,,,,,,,,,,,,,,,,,,,
,,,,,,,5d2a1b1a4588590018cf6fd4,2023-08-16_08h44.41.110,HF_wild_card,2022.2.4,Linux x86_64,59.99520038,5d2a1b1a4588590018cf6fd4,64d2fd46c836a06233681665,64dc7e46201c200f1b779d46,,,,,,,decisionTrl,resources/DB.BMP,resources/DBN.BMP,Door2,-0.299194159,-0.04615593,1,0,0,1.5506,optionLeft,40,8840,4,32,0,32,0,1,,,,,,,,,,,,,,,,,,,,,,,,,,,,,,,,,,,,,,,
,,,,,,,5d2a1b1a4588590018cf6fd4,2023-08-16_08h44.41.110,HF_wild_card,2022.2.4,Linux x86_64,59.99520038,5d2a1b1a4588590018cf6fd4,64d2fd46c836a06233681665,64dc7e46201c200f1b779d46,,,,,,,decisionTrl,resources/DBN.BMP,resources/DB.BMP,Door2,0.327966619,0.0418402,1,0,0,0.7306,optionRight,20,8860,4,33,0,33,0,1,,,,,,,,,,,,,,,,,,,,,,,,,,,,,,,,,,,,,,,
,,,,,,,5d2a1b1a4588590018cf6fd4,2023-08-16_08h44.41.110,HF_wild_card,2022.2.4,Linux x86_64,59.99520038,5d2a1b1a4588590018cf6fd4,64d2fd46c836a06233681665,64dc7e46201c200f1b779d46,,,,,,,decisionTrl,resources/DBN.BMP,resources/DB.BMP,Door2,0.264747478,0.024361434,1,0,0,0.7818,optionRight,40,8900,4,34,0,34,0,1,,,,,,,,,,,,,,,,,,,,,,,,,,,,,,,,,,,,,,,
,,,,,,,5d2a1b1a4588590018cf6fd4,2023-08-16_08h44.41.110,HF_wild_card,2022.2.4,Linux x86_64,59.99520038,5d2a1b1a4588590018cf6fd4,64d2fd46c836a06233681665,64dc7e46201c200f1b779d46,,,,,,,sngl,resources/Empty.png,resources/DG.BMP,WildCard_Ex,0.31794329,-0.029421029,1,0,0,0.6129,optionRight,45,8945,4,35,0,35,0,1,,,,,,,,,,,,,,,,,,,,,,,,,,,,,,,,,,,,,,,
,,,,,,,5d2a1b1a4588590018cf6fd4,2023-08-16_08h44.41.110,HF_wild_card,2022.2.4,Linux x86_64,59.99520038,5d2a1b1a4588590018cf6fd4,64d2fd46c836a06233681665,64dc7e46201c200f1b779d46,,,,,,,decisionTrl,resources/DB.BMP,resources/DBN.BMP,Door2,-0.330638638,-0.018840931,1,0,0,0.7942,optionLeft,40,8985,4,36,0,36,0,1,,,,,,,,,,,,,,,,,,,,,,,,,,,,,,,,,,,,,,,
,,,,,,,5d2a1b1a4588590018cf6fd4,2023-08-16_08h44.41.110,HF_wild_card,2022.2.4,Linux x86_64,59.99520038,5d2a1b1a4588590018cf6fd4,64d2fd46c836a06233681665,64dc7e46201c200f1b779d46,,,,,,,ctch,resources/DY.BMP,resources/DBN.BMP,Door4,-0.323570711,-0.019874184,1,0,0,0.7312,optionLeft,80,9065,4,37,0,37,0,1,,,,,,,,,,,,,,,,,,,,,,,,,,,,,,,,,,,,,,,
,,,,,,,5d2a1b1a4588590018cf6fd4,2023-08-16_08h44.41.110,HF_wild_card,2022.2.4,Linux x86_64,59.99520038,5d2a1b1a4588590018cf6fd4,64d2fd46c836a06233681665,64dc7e46201c200f1b779d46,,,,,,,decisionTrl,resources/DBN.BMP,resources/DG.BMP,WildCard_Ex,0.296598081,-0.084832086,1,0,0,0.6994,optionRight,45,9110,4,38,0,38,0,1,,,,,,,,,,,,,,,,,,,,,,,,,,,,,,,,,,,,,,,
,,,,,,,5d2a1b1a4588590018cf6fd4,2023-08-16_08h44.41.110,HF_wild_card,2022.2.4,Linux x86_64,59.99520038,5d2a1b1a4588590018cf6fd4,64d2fd46c836a06233681665,64dc7e46201c200f1b779d46,,,,,,,decisionTrl,resources/DY.BMP,resources/DR.BMP,Door4,-0.332363764,0.006662192,1,0,0,1.3484,optionLeft,60,9170,4,39,0,39,0,1,,,,,,,,,,,,,,,,,,,,,,,,,,,,,,,,,,,,,,,
,,,,,,,5d2a1b1a4588590018cf6fd4,2023-08-16_08h44.41.110,HF_wild_card,2022.2.4,Linux x86_64,59.99520038,5d2a1b1a4588590018cf6fd4,64d2fd46c836a06233681665,64dc7e46201c200f1b779d46,,,,,,,decisionTrl,resources/DG.BMP,resources/DR.BMP,WildCard_Ex,-0.393155734,-0.028848719,1,0,0,0.734,optionLeft,45,9215,4,40,0,40,0,1,,,,,,,,,,,,,,,,,,,,,,,,,,,,,,,,,,,,,,,
,,,,,,,5d2a1b1a4588590018cf6fd4,2023-08-16_08h44.41.110,HF_wild_card,2022.2.4,Linux x86_64,59.99520038,5d2a1b1a4588590018cf6fd4,64d2fd46c836a06233681665,64dc7e46201c200f1b779d46,,,,,,,decisionTrl,resources/DY.BMP,resources/DR.BMP,Door4,-0.304490478,-0.023621842,1,0,0,0.9197,optionLeft,80,9295,4,41,0,41,0,1,,,,,,,,,,,,,,,,,,,,,,,,,,,,,,,,,,,,,,,
,,,,,,,5d2a1b1a4588590018cf6fd4,2023-08-16_08h44.41.110,HF_wild_card,2022.2.4,Linux x86_64,59.99520038,5d2a1b1a4588590018cf6fd4,64d2fd46c836a06233681665,64dc7e46201c200f1b779d46,,,,,,,sngl,resources/DR.BMP,resources/Empty.png,Door3,-0.415706423,-0.015920674,1,0,0,1.2151,optionLeft,70,9365,4,42,0,42,0,1,,,,,,,,,,,,,,,,,,,,,,,,,,,,,,,,,,,,,,,
,,,,,,,5d2a1b1a4588590018cf6fd4,2023-08-16_08h44.41.110,HF_wild_card,2022.2.4,Linux x86_64,59.99520038,5d2a1b1a4588590018cf6fd4,64d2fd46c836a06233681665,64dc7e46201c200f1b779d46,,,,,,,sngl,resources/DB.BMP,resources/Empty.png,Door2,-0.229313603,0.012871742,1,0,0,0.6238,optionLeft,20,9385,4,43,0,43,0,1,,,,,,,,,,,,,,,,,,,,,,,,,,,,,,,,,,,,,,,
,,,,,,,5d2a1b1a4588590018cf6fd4,2023-08-16_08h44.41.110,HF_wild_card,2022.2.4,Linux x86_64,59.99520038,5d2a1b1a4588590018cf6fd4,64d2fd46c836a06233681665,64dc7e46201c200f1b779d46,,,,,,,,,,,,,,,,,,,,,,,,,,3,0,3,0,1,,,,,,,,,,,,,,,,,,,,,,,,,,,,,,,,,,
,,,,,,,5d2a1b1a4588590018cf6fd4,2023-08-16_08h44.41.110,HF_wild_card,2022.2.4,Linux x86_64,59.99520038,5d2a1b1a4588590018cf6fd4,64d2fd46c836a06233681665,64dc7e46201c200f1b779d46,,,,,,,ctch,resources/DY.BMP,resources/DBN.BMP,Door4,-0.398969226,0.024358961,1,0,0,0.5826,optionLeft,80,9465,5,0,0,0,0,1,,,,,,,,,,,,,,,,,,,,,,,,,,,,,,,,,,,,,,,
,,,,,,,5d2a1b1a4588590018cf6fd4,2023-08-16_08h44.41.110,HF_wild_card,2022.2.4,Linux x86_64,59.99520038,5d2a1b1a4588590018cf6fd4,64d2fd46c836a06233681665,64dc7e46201c200f1b779d46,,,,,,,ctch,resources/DY.BMP,resources/DBN.BMP,Door4,-0.260436517,0.034669417,1,0,0,0.5386,optionLeft,80,9545,5,1,0,1,0,1,,,,,,,,,,,,,,,,,,,,,,,,,,,,,,,,,,,,,,,
,,,,,,,5d2a1b1a4588590018cf6fd4,2023-08-16_08h44.41.110,HF_wild_card,2022.2.4,Linux x86_64,59.99520038,5d2a1b1a4588590018cf6fd4,64d2fd46c836a06233681665,64dc7e46201c200f1b779d46,,,,,,,sngl,resources/DY.BMP,resources/Empty.png,Door4,-0.385070271,0.062696775,1,0,0,0.5408,optionLeft,80,9625,5,2,0,2,0,1,,,,,,,,,,,,,,,,,,,,,,,,,,,,,,,,,,,,,,,
,,,,,,,5d2a1b1a4588590018cf6fd4,2023-08-16_08h44.41.110,HF_wild_card,2022.2.4,Linux x86_64,59.99520038,5d2a1b1a4588590018cf6fd4,64d2fd46c836a06233681665,64dc7e46201c200f1b779d46,,,,,,,ctch,resources/DBN.BMP,resources/DY.BMP,Door4,0.42226198,-0.007746555,1,0,0,0.497,optionRight,80,9705,5,3,0,3,0,1,,,,,,,,,,,,,,,,,,,,,,,,,,,,,,,,,,,,,,,
,,,,,,,5d2a1b1a4588590018cf6fd4,2023-08-16_08h44.41.110,HF_wild_card,2022.2.4,Linux x86_64,59.99520038,5d2a1b1a4588590018cf6fd4,64d2fd46c836a06233681665,64dc7e46201c200f1b779d46,,,,,,,decisionTrl,resources/DY.BMP,resources/DR.BMP,Door4,-0.489689403,0.005112542,1,0,0,0.5406,optionLeft,60,9765,5,4,0,4,0,1,,,,,,,,,,,,,,,,,,,,,,,,,,,,,,,,,,,,,,,
,,,,,,,5d2a1b1a4588590018cf6fd4,2023-08-16_08h44.41.110,HF_wild_card,2022.2.4,Linux x86_64,59.99520038,5d2a1b1a4588590018cf6fd4,64d2fd46c836a06233681665,64dc7e46201c200f1b779d46,,,,,,,decisionTrl,resources/DY.BMP,resources/DR.BMP,Door4,-0.467792652,0.01927344,1,0,0,0.794,optionLeft,60,9825,5,5,0,5,0,1,,,,,,,,,,,,,,,,,,,,,,,,,,,,,,,,,,,,,,,
,,,,,,,5d2a1b1a4588590018cf6fd4,2023-08-16_08h44.41.110,HF_wild_card,2022.2.4,Linux x86_64,59.99520038,5d2a1b1a4588590018cf6fd4,64d2fd46c836a06233681665,64dc7e46201c200f1b779d46,,,,,,,sngl,resources/Empty.png,resources/DG.BMP,WildCard_Ex,0.56359058,-0.035893158,1,0,0,0.5551,optionRight,45,9870,5,6,0,6,0,1,,,,,,,,,,,,,,,,,,,,,,,,,,,,,,,,,,,,,,,
,,,,,,,5d2a1b1a4588590018cf6fd4,2023-08-16_08h44.41.110,HF_wild_card,2022.2.4,Linux x86_64,59.99520038,5d2a1b1a4588590018cf6fd4,64d2fd46c836a06233681665,64dc7e46201c200f1b779d46,,,,,,,ctch,resources/DB.BMP,resources/DR.BMP,Door3,0.263633022,0.002351549,1,0,0,1.0771,optionRight,70,9940,5,7,0,7,0,1,,,,,,,,,,,,,,,,,,,,,,,,,,,,,,,,,,,,,,,
,,,,,,,5d2a1b1a4588590018cf6fd4,2023-08-16_08h44.41.110,HF_wild_card,2022.2.4,Linux x86_64,59.99520038,5d2a1b1a4588590018cf6fd4,64d2fd46c836a06233681665,64dc7e46201c200f1b779d46,,,,,,,decisionTrl,resources/DB.BMP,resources/DBN.BMP,Door2,-0.269017608,0.024879738,1,0,0,0.7966,optionLeft,20,9960,5,8,0,8,0,1,,,,,,,,,,,,,,,,,,,,,,,,,,,,,,,,,,,,,,,
,,,,,,,5d2a1b1a4588590018cf6fd4,2023-08-16_08h44.41.110,HF_wild_card,2022.2.4,Linux x86_64,59.99520038,5d2a1b1a4588590018cf6fd4,64d2fd46c836a06233681665,64dc7e46201c200f1b779d46,,,,,,,decisionTrl,resources/DR.BMP,resources/DY.BMP,Door4,0.424631048,0.048689666,1,0,0,0.5669,optionRight,80,10040,5,9,0,9,0,1,,,,,,,,,,,,,,,,,,,,,,,,,,,,,,,,,,,,,,,
,,,,,,,5d2a1b1a4588590018cf6fd4,2023-08-16_08h44.41.110,HF_wild_card,2022.2.4,Linux x86_64,59.99520038,5d2a1b1a4588590018cf6fd4,64d2fd46c836a06233681665,64dc7e46201c200f1b779d46,,,,,,,sngl,resources/Empty.png,resources/DR.BMP,Door3,0.400459996,-0.060779112,1,0,0,0.8926,optionRight,70,10110,5,10,0,10,0,1,,,,,,,,,,,,,,,,,,,,,,,,,,,,,,,,,,,,,,,
,,,,,,,5d2a1b1a4588590018cf6fd4,2023-08-16_08h44.41.110,HF_wild_card,2022.2.4,Linux x86_64,59.99520038,5d2a1b1a4588590018cf6fd4,64d2fd46c836a06233681665,64dc7e46201c200f1b779d46,,,,,,,sngl,resources/Empty.png,resources/DB.BMP,Door2,0.396984524,-0.064227069,1,0,0,0.9291,optionRight,20,10130,5,11,0,11,0,1,,,,,,,,,,,,,,,,,,,,,,,,,,,,,,,,,,,,,,,
,,,,,,,5d2a1b1a4588590018cf6fd4,2023-08-16_08h44.41.110,HF_wild_card,2022.2.4,Linux x86_64,59.99520038,5d2a1b1a4588590018cf6fd4,64d2fd46c836a06233681665,64dc7e46201c200f1b779d46,,,,,,,decisionTrl,resources/DB.BMP,resources/DBN.BMP,Door2,-0.341930354,-0.010437118,1,0,0,0.5959,optionLeft,20,10150,5,12,0,12,0,1,,,,,,,,,,,,,,,,,,,,,,,,,,,,,,,,,,,,,,,
,,,,,,,5d2a1b1a4588590018cf6fd4,2023-08-16_08h44.41.110,HF_wild_card,2022.2.4,Linux x86_64,59.99520038,5d2a1b1a4588590018cf6fd4,64d2fd46c836a06233681665,64dc7e46201c200f1b779d46,,,,,,,decisionTrl,resources/DR.BMP,resources/DY.BMP,Door4,0.495220749,-0.001770832,1,0,0,0.607,optionRight,60,10210,5,13,0,13,0,1,,,,,,,,,,,,,,,,,,,,,,,,,,,,,,,,,,,,,,,
,,,,,,,5d2a1b1a4588590018cf6fd4,2023-08-16_08h44.41.110,HF_wild_card,2022.2.4,Linux x86_64,59.99520038,5d2a1b1a4588590018cf6fd4,64d2fd46c836a06233681665,64dc7e46201c200f1b779d46,,,,,,,sngl,resources/DB.BMP,resources/Empty.png,Door2,-0.338212402,-0.013032101,1,0,0,0.565,optionLeft,40,10250,5,14,0,14,0,1,,,,,,,,,,,,,,,,,,,,,,,,,,,,,,,,,,,,,,,
,,,,,,,5d2a1b1a4588590018cf6fd4,2023-08-16_08h44.41.110,HF_wild_card,2022.2.4,Linux x86_64,59.99520038,5d2a1b1a4588590018cf6fd4,64d2fd46c836a06233681665,64dc7e46201c200f1b779d46,,,,,,,decisionTrl,resources/DG.BMP,resources/DY.BMP,Door4,0.493228771,-0.01224705,1,0,0,0.4792,optionRight,60,10310,5,15,0,15,0,1,,,,,,,,,,,,,,,,,,,,,,,,,,,,,,,,,,,,,,,
,,,,,,,5d2a1b1a4588590018cf6fd4,2023-08-16_08h44.41.110,HF_wild_card,2022.2.4,Linux x86_64,59.99520038,5d2a1b1a4588590018cf6fd4,64d2fd46c836a06233681665,64dc7e46201c200f1b779d46,,,,,,,decisionTrl,resources/DY.BMP,resources/DG.BMP,WildCard_Ex,0.305782177,0.007901898,1,0,0,0.6162,optionRight,45,10355,5,16,0,16,0,1,,,,,,,,,,,,,,,,,,,,,,,,,,,,,,,,,,,,,,,
,,,,,,,5d2a1b1a4588590018cf6fd4,2023-08-16_08h44.41.110,HF_wild_card,2022.2.4,Linux x86_64,59.99520038,5d2a1b1a4588590018cf6fd4,64d2fd46c836a06233681665,64dc7e46201c200f1b779d46,,,,,,,sngl,resources/Empty.png,resources/DG.BMP,WildCard_Ex,0.46899739,0.014931502,1,0,0,0.5309,optionRight,55,10410,5,17,0,17,0,1,,,,,,,,,,,,,,,,,,,,,,,,,,,,,,,,,,,,,,,
,,,,,,,5d2a1b1a4588590018cf6fd4,2023-08-16_08h44.41.110,HF_wild_card,2022.2.4,Linux x86_64,59.99520038,5d2a1b1a4588590018cf6fd4,64d2fd46c836a06233681665,64dc7e46201c200f1b779d46,,,,,,,ctch,resources/DR.BMP,resources/DB.BMP,Door3,-0.361750285,0.021666103,1,0,0,1.0789,optionLeft,70,10480,5,18,0,18,0,1,,,,,,,,,,,,,,,,,,,,,,,,,,,,,,,,,,,,,,,
,,,,,,,5d2a1b1a4588590018cf6fd4,2023-08-16_08h44.41.110,HF_wild_card,2022.2.4,Linux x86_64,59.99520038,5d2a1b1a4588590018cf6fd4,64d2fd46c836a06233681665,64dc7e46201c200f1b779d46,,,,,,,decisionTrl,resources/DB.BMP,resources/DG.BMP,WildCard_Ex,0.456414258,-0.030463501,1,0,0,0.8655,optionRight,55,10535,5,19,0,19,0,1,,,,,,,,,,,,,,,,,,,,,,,,,,,,,,,,,,,,,,,
,,,,,,,5d2a1b1a4588590018cf6fd4,2023-08-16_08h44.41.110,HF_wild_card,2022.2.4,Linux x86_64,59.99520038,5d2a1b1a4588590018cf6fd4,64d2fd46c836a06233681665,64dc7e46201c200f1b779d46,,,,,,,sngl,resources/Empty.png,resources/DBN.BMP,Door1,0.481933735,0.011669795,1,0,0,0.8817,optionRight,30,10565,5,20,0,20,0,1,,,,,,,,,,,,,,,,,,,,,,,,,,,,,,,,,,,,,,,
,,,,,,,5d2a1b1a4588590018cf6fd4,2023-08-16_08h44.41.110,HF_wild_card,2022.2.4,Linux x86_64,59.99520038,5d2a1b1a4588590018cf6fd4,64d2fd46c836a06233681665,64dc7e46201c200f1b779d46,,,,,,,decisionTrl,resources/DBN.BMP,resources/DB.BMP,Door2,0.274127678,0.008898523,1,0,0,0.6092,optionRight,40,10605,5,21,0,21,0,1,,,,,,,,,,,,,,,,,,,,,,,,,,,,,,,,,,,,,,,
,,,,,,,5d2a1b1a4588590018cf6fd4,2023-08-16_08h44.41.110,HF_wild_card,2022.2.4,Linux x86_64,59.99520038,5d2a1b1a4588590018cf6fd4,64d2fd46c836a06233681665,64dc7e46201c200f1b779d46,,,,,,,sngl,resources/DR.BMP,resources/Empty.png,Door3,-0.340747904,0.011851876,1,0,0,0.5815,optionLeft,70,10675,5,22,0,22,0,1,,,,,,,,,,,,,,,,,,,,,,,,,,,,,,,,,,,,,,,
,,,,,,,5d2a1b1a4588590018cf6fd4,2023-08-16_08h44.41.110,HF_wild_card,2022.2.4,Linux x86_64,59.99520038,5d2a1b1a4588590018cf6fd4,64d2fd46c836a06233681665,64dc7e46201c200f1b779d46,,,,,,,decisionTrl,resources/DBN.BMP,resources/DB.BMP,Door2,0.376352805,0.02342708,1,0,0,1.0631,optionRight,20,10695,5,23,0,23,0,1,,,,,,,,,,,,,,,,,,,,,,,,,,,,,,,,,,,,,,,
,,,,,,,5d2a1b1a4588590018cf6fd4,2023-08-16_08h44.41.110,HF_wild_card,2022.2.4,Linux x86_64,59.99520038,5d2a1b1a4588590018cf6fd4,64d2fd46c836a06233681665,64dc7e46201c200f1b779d46,,,,,,,decisionTrl,resources/DB.BMP,resources/DBN.BMP,Door2,-0.334557251,-0.023720918,1,0,0,1.4747,optionLeft,40,10735,5,24,0,24,0,1,,,,,,,,,,,,,,,,,,,,,,,,,,,,,,,,,,,,,,,
,,,,,,,5d2a1b1a4588590018cf6fd4,2023-08-16_08h44.41.110,HF_wild_card,2022.2.4,Linux x86_64,59.99520038,5d2a1b1a4588590018cf6fd4,64d2fd46c836a06233681665,64dc7e46201c200f1b779d46,,,,,,,decisionTrl,resources/DR.BMP,resources/DY.BMP,Door4,0.361689956,0.010949629,1,0,0,0.7295,optionRight,60,10795,5,25,0,25,0,1,,,,,,,,,,,,,,,,,,,,,,,,,,,,,,,,,,,,,,,
,,,,,,,5d2a1b1a4588590018cf6fd4,2023-08-16_08h44.41.110,HF_wild_card,2022.2.4,Linux x86_64,59.99520038,5d2a1b1a4588590018cf6fd4,64d2fd46c836a06233681665,64dc7e46201c200f1b779d46,,,,,,,decisionTrl,resources/DG.BMP,resources/DR.BMP,WildCard_Ex,-0.266497012,0.044537226,1,0,0,0.8629,optionLeft,55,10850,5,26,0,26,0,1,,,,,,,,,,,,,,,,,,,,,,,,,,,,,,,,,,,,,,,
,,,,,,,5d2a1b1a4588590018cf6fd4,2023-08-16_08h44.41.110,HF_wild_card,2022.2.4,Linux x86_64,59.99520038,5d2a1b1a4588590018cf6fd4,64d2fd46c836a06233681665,64dc7e46201c200f1b779d46,,,,,,,sngl,resources/Empty.png,resources/DY.BMP,Door4,0.385842217,0.036543705,1,0,0,0.5266,optionRight,60,10910,5,27,0,27,0,1,,,,,,,,,,,,,,,,,,,,,,,,,,,,,,,,,,,,,,,
,,,,,,,5d2a1b1a4588590018cf6fd4,2023-08-16_08h44.41.110,HF_wild_card,2022.2.4,Linux x86_64,59.99520038,5d2a1b1a4588590018cf6fd4,64d2fd46c836a06233681665,64dc7e46201c200f1b779d46,,,,,,,decisionTrl,resources/DBN.BMP,resources/DG.BMP,WildCard_Ex,-0.007432514,0.003842107,1,0,0,0.2152,optionRight,55,10965,5,28,0,28,0,1,,,,,,,,,,,,,,,,,,,,,,,,,,,,,,,,,,,,,,,
,,,,,,,5d2a1b1a4588590018cf6fd4,2023-08-16_08h44.41.110,HF_wild_card,2022.2.4,Linux x86_64,59.99520038,5d2a1b1a4588590018cf6fd4,64d2fd46c836a06233681665,64dc7e46201c200f1b779d46,,,,,,,ctch,resources/DB.BMP,resources/DR.BMP,Door3,0.343791679,0.047654894,1,0,0,0.8072,optionRight,70,11035,5,29,0,29,0,1,,,,,,,,,,,,,,,,,,,,,,,,,,,,,,,,,,,,,,,
,,,,,,,5d2a1b1a4588590018cf6fd4,2023-08-16_08h44.41.110,HF_wild_card,2022.2.4,Linux x86_64,59.99520038,5d2a1b1a4588590018cf6fd4,64d2fd46c836a06233681665,64dc7e46201c200f1b779d46,,,,,,,decisionTrl,resources/DY.BMP,resources/DR.BMP,Door4,-0.353114411,0.030234478,1,0,0,0.5776,optionLeft,60,11095,5,30,0,30,0,1,,,,,,,,,,,,,,,,,,,,,,,,,,,,,,,,,,,,,,,
,,,,,,,5d2a1b1a4588590018cf6fd4,2023-08-16_08h44.41.110,HF_wild_card,2022.2.4,Linux x86_64,59.99520038,5d2a1b1a4588590018cf6fd4,64d2fd46c836a06233681665,64dc7e46201c200f1b779d46,,,,,,,ctch,resources/DBN.BMP,resources/DY.BMP,Door4,0.38646147,-0.030225401,1,0,0,0.5075,optionRight,60,11155,5,31,0,31,0,1,,,,,,,,,,,,,,,,,,,,,,,,,,,,,,,,,,,,,,,
,,,,,,,5d2a1b1a4588590018cf6fd4,2023-08-16_08h44.41.110,HF_wild_card,2022.2.4,Linux x86_64,59.99520038,5d2a1b1a4588590018cf6fd4,64d2fd46c836a06233681665,64dc7e46201c200f1b779d46,,,,,,,decisionTrl,resources/DBN.BMP,resources/DB.BMP,Door2,0.301565665,-0.014556991,1,0,0,0.7044,optionRight,20,11175,5,32,0,32,0,1,,,,,,,,,,,,,,,,,,,,,,,,,,,,,,,,,,,,,,,
,,,,,,,5d2a1b1a4588590018cf6fd4,2023-08-16_08h44.41.110,HF_wild_card,2022.2.4,Linux x86_64,59.99520038,5d2a1b1a4588590018cf6fd4,64d2fd46c836a06233681665,64dc7e46201c200f1b779d46,,,,,,,decisionTrl,resources/DG.BMP,resources/DBN.BMP,WildCard_Ex,-0.539356691,0.051520136,1,0,0,0.4997,optionLeft,45,11220,5,33,0,33,0,1,,,,,,,,,,,,,,,,,,,,,,,,,,,,,,,,,,,,,,,
,,,,,,,5d2a1b1a4588590018cf6fd4,2023-08-16_08h44.41.110,HF_wild_card,2022.2.4,Linux x86_64,59.99520038,5d2a1b1a4588590018cf6fd4,64d2fd46c836a06233681665,64dc7e46201c200f1b779d46,,,,,,,decisionTrl,resources/DR.BMP,resources/DG.BMP,WildCard_Ex,0.543892048,-0.081701561,1,0,0,1.2553,optionRight,45,11265,5,34,0,34,0,1,,,,,,,,,,,,,,,,,,,,,,,,,,,,,,,,,,,,,,,
,,,,,,,5d2a1b1a4588590018cf6fd4,2023-08-16_08h44.41.110,HF_wild_card,2022.2.4,Linux x86_64,59.99520038,5d2a1b1a4588590018cf6fd4,64d2fd46c836a06233681665,64dc7e46201c200f1b779d46,,,,,,,decisionTrl,resources/DY.BMP,resources/DR.BMP,Door4,-0.348835239,-0.028856242,1,0,0,0.5135,optionLeft,60,11325,5,35,0,35,0,1,,,,,,,,,,,,,,,,,,,,,,,,,,,,,,,,,,,,,,,
,,,,,,,5d2a1b1a4588590018cf6fd4,2023-08-16_08h44.41.110,HF_wild_card,2022.2.4,Linux x86_64,59.99520038,5d2a1b1a4588590018cf6fd4,64d2fd46c836a06233681665,64dc7e46201c200f1b779d46,,,,,,,decisionTrl,resources/DG.BMP,resources/DB.BMP,WildCard_Ex,-0.361495513,0.019373752,1,0,0,0.7491,optionLeft,55,11380,5,36,0,36,0,1,,,,,,,,,,,,,,,,,,,,,,,,,,,,,,,,,,,,,,,
,,,,,,,5d2a1b1a4588590018cf6fd4,2023-08-16_08h44.41.110,HF_wild_card,2022.2.4,Linux x86_64,59.99520038,5d2a1b1a4588590018cf6fd4,64d2fd46c836a06233681665,64dc7e46201c200f1b779d46,,,,,,,decisionTrl,resources/DB.BMP,resources/DBN.BMP,Door2,-0.365836532,0.006633547,1,0,0,0.6449,optionLeft,20,11400,5,37,0,37,0,1,,,,,,,,,,,,,,,,,,,,,,,,,,,,,,,,,,,,,,,
,,,,,,,5d2a1b1a4588590018cf6fd4,2023-08-16_08h44.41.110,HF_wild_card,2022.2.4,Linux x86_64,59.99520038,5d2a1b1a4588590018cf6fd4,64d2fd46c836a06233681665,64dc7e46201c200f1b779d46,,,,,,,sngl,resources/DG.BMP,resources/Empty.png,WildCard_Ex,-0.289619234,-0.03374075,1,0,0,0.6289,optionLeft,45,11445,5,38,0,38,0,1,,,,,,,,,,,,,,,,,,,,,,,,,,,,,,,,,,,,,,,
,,,,,,,5d2a1b1a4588590018cf6fd4,2023-08-16_08h44.41.110,HF_wild_card,2022.2.4,Linux x86_64,59.99520038,5d2a1b1a4588590018cf6fd4,64d2fd46c836a06233681665,64dc7e46201c200f1b779d46,,,,,,,decisionTrl,resources/DR.BMP,resources/DY.BMP,Door4,0.383507199,-0.016780677,1,0,0,0.6122,optionRight,60,11505,5,39,0,39,0,1,,,,,,,,,,,,,,,,,,,,,,,,,,,,,,,,,,,,,,,
,,,,,,,5d2a1b1a4588590018cf6fd4,2023-08-16_08h44.41.110,HF_wild_card,2022.2.4,Linux x86_64,59.99520038,5d2a1b1a4588590018cf6fd4,64d2fd46c836a06233681665,64dc7e46201c200f1b779d46,,,,,,,decisionTrl,resources/DBN.BMP,resources/DB.BMP,Door2,0.315789117,-0.002144955,1,0,0,0.8008,optionRight,20,11525,5,40,0,40,0,1,,,,,,,,,,,,,,,,,,,,,,,,,,,,,,,,,,,,,,,
,,,,,,,5d2a1b1a4588590018cf6fd4,2023-08-16_08h44.41.110,HF_wild_card,2022.2.4,Linux x86_64,59.99520038,5d2a1b1a4588590018cf6fd4,64d2fd46c836a06233681665,64dc7e46201c200f1b779d46,,,,,,,sngl,resources/DBN.BMP,resources/Empty.png,Door1,-0.316154798,0.044584733,1,0,0,0.8786,optionLeft,30,11555,5,41,0,41,0,1,,,,,,,,,,,,,,,,,,,,,,,,,,,,,,,,,,,,,,,
,,,,,,,5d2a1b1a4588590018cf6fd4,2023-08-16_08h44.41.110,HF_wild_card,2022.2.4,Linux x86_64,59.99520038,5d2a1b1a4588590018cf6fd4,64d2fd46c836a06233681665,64dc7e46201c200f1b779d46,,,,,,,sngl,resources/DG.BMP,resources/Empty.png,WildCard_Ex,-0.338979756,0.007205433,1,0,0,0.5482,optionLeft,55,11610,5,42,0,42,0,1,,,,,,,,,,,,,,,,,,,,,,,,,,,,,,,,,,,,,,,
,,,,,,,5d2a1b1a4588590018cf6fd4,2023-08-16_08h44.41.110,HF_wild_card,2022.2.4,Linux x86_64,59.99520038,5d2a1b1a4588590018cf6fd4,64d2fd46c836a06233681665,64dc7e46201c200f1b779d46,,,,,,,ctch,resources/DR.BMP,resources/DB.BMP,Door3,-0.282111627,-0.000596576,1,0,0,0.8324,optionLeft,70,11680,5,43,0,43,0,1,,,,,,,,,,,,,,,,,,,,,,,,,,,,,,,,,,,,,,,
,,,,,,,5d2a1b1a4588590018cf6fd4,2023-08-16_08h44.41.110,HF_wild_card,2022.2.4,Linux x86_64,59.99520038,5d2a1b1a4588590018cf6fd4,64d2fd46c836a06233681665,64dc7e46201c200f1b779d46,,,,,,,,,,,,,,,,,,,,,,,,,,4,0,4,0,1,,,,,,,,,,,,,,,,,,,,,,,,,,,,,,,,,,
,,,,,,,5d2a1b1a4588590018cf6fd4,2023-08-16_08h44.41.110,HF_wild_card,2022.2.4,Linux x86_64,59.99520038,5d2a1b1a4588590018cf6fd4,64d2fd46c836a06233681665,64dc7e46201c200f1b779d46,,,,,,,ctch,resources/DB.BMP,resources/DR.BMP,Door3,0.324521524,-0.044753357,1,0,0,1.0691,optionRight,70,11750,6,0,0,0,0,1,,,,,,,,,,,,,,,,,,,,,,,,,,,,,,,,,,,,,,,
,,,,,,,5d2a1b1a4588590018cf6fd4,2023-08-16_08h44.41.110,HF_wild_card,2022.2.4,Linux x86_64,59.99520038,5d2a1b1a4588590018cf6fd4,64d2fd46c836a06233681665,64dc7e46201c200f1b779d46,,,,,,,sngl,resources/Empty.png,resources/DB.BMP,Door2,0.361929858,-0.004823014,1,0,0,0.7021,optionRight,40,11790,6,1,0,1,0,1,,,,,,,,,,,,,,,,,,,,,,,,,,,,,,,,,,,,,,,
,,,,,,,5d2a1b1a4588590018cf6fd4,2023-08-16_08h44.41.110,HF_wild_card,2022.2.4,Linux x86_64,59.99520038,5d2a1b1a4588590018cf6fd4,64d2fd46c836a06233681665,64dc7e46201c200f1b779d46,,,,,,,sngl,resources/Empty.png,resources/DY.BMP,Door4,0.388557575,-0.024076744,1,0,0,0.5339,optionRight,80,11870,6,2,0,2,0,1,,,,,,,,,,,,,,,,,,,,,,,,,,,,,,,,,,,,,,,
,,,,,,,5d2a1b1a4588590018cf6fd4,2023-08-16_08h44.41.110,HF_wild_card,2022.2.4,Linux x86_64,59.99520038,5d2a1b1a4588590018cf6fd4,64d2fd46c836a06233681665,64dc7e46201c200f1b779d46,,,,,,,sngl,resources/DG.BMP,resources/Empty.png,WildCard_Ex,-0.322057406,-0.012955242,1,0,0,0.6249,optionLeft,45,11915,6,3,0,3,0,1,,,,,,,,,,,,,,,,,,,,,,,,,,,,,,,,,,,,,,,
,,,,,,,5d2a1b1a4588590018cf6fd4,2023-08-16_08h44.41.110,HF_wild_card,2022.2.4,Linux x86_64,59.99520038,5d2a1b1a4588590018cf6fd4,64d2fd46c836a06233681665,64dc7e46201c200f1b779d46,,,,,,,sngl,resources/DBN.BMP,resources/Empty.png,Door1,-0.419125557,0.000596894,1,0,0,0.6263,optionLeft,30,11945,6,4,0,4,0,1,,,,,,,,,,,,,,,,,,,,,,,,,,,,,,,,,,,,,,,
,,,,,,,5d2a1b1a4588590018cf6fd4,2023-08-16_08h44.41.110,HF_wild_card,2022.2.4,Linux x86_64,59.99520038,5d2a1b1a4588590018cf6fd4,64d2fd46c836a06233681665,64dc7e46201c200f1b779d46,,,,,,,decisionTrl,resources/DB.BMP,resources/DBN.BMP,Door2,-0.243577816,0.010923492,1,0,0,0.7017,optionLeft,40,11985,6,5,0,5,0,1,,,,,,,,,,,,,,,,,,,,,,,,,,,,,,,,,,,,,,,
,,,,,,,5d2a1b1a4588590018cf6fd4,2023-08-16_08h44.41.110,HF_wild_card,2022.2.4,Linux x86_64,59.99520038,5d2a1b1a4588590018cf6fd4,64d2fd46c836a06233681665,64dc7e46201c200f1b779d46,,,,,,,ctch,resources/DBN.BMP,resources/DY.BMP,Door4,0.303014826,0.000382211,1,0,0,0.5299,optionRight,80,12065,6,6,0,6,0,1,,,,,,,,,,,,,,,,,,,,,,,,,,,,,,,,,,,,,,,
,,,,,,,5d2a1b1a4588590018cf6fd4,2023-08-16_08h44.41.110,HF_wild_card,2022.2.4,Linux x86_64,59.99520038,5d2a1b1a4588590018cf6fd4,64d2fd46c836a06233681665,64dc7e46201c200f1b779d46,,,,,,,ctch,resources/DY.BMP,resources/DBN.BMP,Door4,-0.240326917,-0.003512594,1,0,0,0.4988,optionLeft,80,12145,6,7,0,7,0,1,,,,,,,,,,,,,,,,,,,,,,,,,,,,,,,,,,,,,,,
,,,,,,,5d2a1b1a4588590018cf6fd4,2023-08-16_08h44.41.110,HF_wild_card,2022.2.4,Linux x86_64,59.99520038,5d2a1b1a4588590018cf6fd4,64d2fd46c836a06233681665,64dc7e46201c200f1b779d46,,,,,,,decisionTrl,resources/DG.BMP,resources/DB.BMP,WildCard_Ex,-0.459365386,-0.045499802,1,0,0,0.9943,optionLeft,45,12190,6,8,0,8,0,1,,,,,,,,,,,,,,,,,,,,,,,,,,,,,,,,,,,,,,,
,,,,,,,5d2a1b1a4588590018cf6fd4,2023-08-16_08h44.41.110,HF_wild_card,2022.2.4,Linux x86_64,59.99520038,5d2a1b1a4588590018cf6fd4,64d2fd46c836a06233681665,64dc7e46201c200f1b779d46,,,,,,,decisionTrl,resources/DY.BMP,resources/DR.BMP,Door4,-0.416147833,0.029435582,1,0,0,0.5157,optionLeft,80,12270,6,9,0,9,0,1,,,,,,,,,,,,,,,,,,,,,,,,,,,,,,,,,,,,,,,
,,,,,,,5d2a1b1a4588590018cf6fd4,2023-08-16_08h44.41.110,HF_wild_card,2022.2.4,Linux x86_64,59.99520038,5d2a1b1a4588590018cf6fd4,64d2fd46c836a06233681665,64dc7e46201c200f1b779d46,,,,,,,sngl,resources/DY.BMP,resources/Empty.png,Door4,-0.218833429,0.008173907,1,0,0,0.5151,optionLeft,60,12330,6,10,0,10,0,1,,,,,,,,,,,,,,,,,,,,,,,,,,,,,,,,,,,,,,,
,,,,,,,5d2a1b1a4588590018cf6fd4,2023-08-16_08h44.41.110,HF_wild_card,2022.2.4,Linux x86_64,59.99520038,5d2a1b1a4588590018cf6fd4,64d2fd46c836a06233681665,64dc7e46201c200f1b779d46,,,,,,,decisionTrl,resources/DR.BMP,resources/DY.BMP,Door4,0.364545893,0.025391685,1,0,0,0.5635,optionRight,60,12390,6,11,0,11,0,1,,,,,,,,,,,,,,,,,,,,,,,,,,,,,,,,,,,,,,,
,,,,,,,5d2a1b1a4588590018cf6fd4,2023-08-16_08h44.41.110,HF_wild_card,2022.2.4,Linux x86_64,59.99520038,5d2a1b1a4588590018cf6fd4,64d2fd46c836a06233681665,64dc7e46201c200f1b779d46,,,,,,,decisionTrl,resources/DB.BMP,resources/DBN.BMP,Door2,-0.264496132,-4.80369E-05,1,0,0,0.5139,optionLeft,20,12410,6,12,0,12,0,1,,,,,,,,,,,,,,,,,,,,,,,,,,,,,,,,,,,,,,,
,,,,,,,5d2a1b1a4588590018cf6fd4,2023-08-16_08h44.41.110,HF_wild_card,2022.2.4,Linux x86_64,59.99520038,5d2a1b1a4588590018cf6fd4,64d2fd46c836a06233681665,64dc7e46201c200f1b779d46,,,,,,,ctch,resources/DR.BMP,resources/DB.BMP,Door2,0.352296759,0.026559512,1,0,0,0.5454,optionRight,20,12430,6,13,0,13,0,1,,,,,,,,,,,,,,,,,,,,,,,,,,,,,,,,,,,,,,,
,,,,,,,5d2a1b1a4588590018cf6fd4,2023-08-16_08h44.41.110,HF_wild_card,2022.2.4,Linux x86_64,59.99520038,5d2a1b1a4588590018cf6fd4,64d2fd46c836a06233681665,64dc7e46201c200f1b779d46,,,,,,,decisionTrl,resources/DR.BMP,resources/DY.BMP,Door4,0.265955819,-0.004625285,1,0,0,0.7235,optionRight,60,12490,6,14,0,14,0,1,,,,,,,,,,,,,,,,,,,,,,,,,,,,,,,,,,,,,,,
,,,,,,,5d2a1b1a4588590018cf6fd4,2023-08-16_08h44.41.110,HF_wild_card,2022.2.4,Linux x86_64,59.99520038,5d2a1b1a4588590018cf6fd4,64d2fd46c836a06233681665,64dc7e46201c200f1b779d46,,,,,,,decisionTrl,resources/DR.BMP,resources/DG.BMP,Door3,-0.326403477,0.025655958,1,0,0,0.7333,optionLeft,70,12560,6,15,0,15,0,1,,,,,,,,,,,,,,,,,,,,,,,,,,,,,,,,,,,,,,,
,,,,,,,5d2a1b1a4588590018cf6fd4,2023-08-16_08h44.41.110,HF_wild_card,2022.2.4,Linux x86_64,59.99520038,5d2a1b1a4588590018cf6fd4,64d2fd46c836a06233681665,64dc7e46201c200f1b779d46,,,,,,,ctch,resources/DB.BMP,resources/DR.BMP,Door3,0.418917479,0.069689751,1,0,0,1.397,optionRight,70,12630,6,16,0,16,0,1,,,,,,,,,,,,,,,,,,,,,,,,,,,,,,,,,,,,,,,
,,,,,,,5d2a1b1a4588590018cf6fd4,2023-08-16_08h44.41.110,HF_wild_card,2022.2.4,Linux x86_64,59.99520038,5d2a1b1a4588590018cf6fd4,64d2fd46c836a06233681665,64dc7e46201c200f1b779d46,,,,,,,sngl,resources/Empty.png,resources/DBN.BMP,Door1,0.361046968,0.049216518,1,0,0,1.6278,optionRight,30,12660,6,17,0,17,0,1,,,,,,,,,,,,,,,,,,,,,,,,,,,,,,,,,,,,,,,
,,,,,,,5d2a1b1a4588590018cf6fd4,2023-08-16_08h44.41.110,HF_wild_card,2022.2.4,Linux x86_64,59.99520038,5d2a1b1a4588590018cf6fd4,64d2fd46c836a06233681665,64dc7e46201c200f1b779d46,,,,,,,decisionTrl,resources/DBN.BMP,resources/DB.BMP,Door2,0.489724477,0.025747264,1,0,0,0.9897,optionRight,40,12700,6,18,0,18,0,1,,,,,,,,,,,,,,,,,,,,,,,,,,,,,,,,,,,,,,,
,,,,,,,5d2a1b1a4588590018cf6fd4,2023-08-16_08h44.41.110,HF_wild_card,2022.2.4,Linux x86_64,59.99520038,5d2a1b1a4588590018cf6fd4,64d2fd46c836a06233681665,64dc7e46201c200f1b779d46,,,,,,,decisionTrl,resources/DR.BMP,resources/DY.BMP,Door4,0.233866586,0.048416314,1,0,0,0.8957,optionRight,80,12780,6,19,0,19,0,1,,,,,,,,,,,,,,,,,,,,,,,,,,,,,,,,,,,,,,,
,,,,,,,5d2a1b1a4588590018cf6fd4,2023-08-16_08h44.41.110,HF_wild_card,2022.2.4,Linux x86_64,59.99520038,5d2a1b1a4588590018cf6fd4,64d2fd46c836a06233681665,64dc7e46201c200f1b779d46,,,,,,,decisionTrl,resources/DBN.BMP,resources/DB.BMP,Door2,0.308508838,-0.008061798,1,0,0,0.8032,optionRight,40,12820,6,20,0,20,0,1,,,,,,,,,,,,,,,,,,,,,,,,,,,,,,,,,,,,,,,
,,,,,,,5d2a1b1a4588590018cf6fd4,2023-08-16_08h44.41.110,HF_wild_card,2022.2.4,Linux x86_64,59.99520038,5d2a1b1a4588590018cf6fd4,64d2fd46c836a06233681665,64dc7e46201c200f1b779d46,,,,,,,ctch,resources/DY.BMP,resources/DBN.BMP,Door4,-0.505447423,0.076170109,1,0,0,0.4976,optionLeft,60,12880,6,21,0,21,0,1,,,,,,,,,,,,,,,,,,,,,,,,,,,,,,,,,,,,,,,
,,,,,,,5d2a1b1a4588590018cf6fd4,2023-08-16_08h44.41.110,HF_wild_card,2022.2.4,Linux x86_64,59.99520038,5d2a1b1a4588590018cf6fd4,64d2fd46c836a06233681665,64dc7e46201c200f1b779d46,,,,,,,decisionTrl,resources/DY.BMP,resources/DR.BMP,Door4,-0.317382459,-0.00712981,1,0,0,0.5416,optionLeft,80,12960,6,22,0,22,0,1,,,,,,,,,,,,,,,,,,,,,,,,,,,,,,,,,,,,,,,
,,,,,,,5d2a1b1a4588590018cf6fd4,2023-08-16_08h44.41.110,HF_wild_card,2022.2.4,Linux x86_64,59.99520038,5d2a1b1a4588590018cf6fd4,64d2fd46c836a06233681665,64dc7e46201c200f1b779d46,,,,,,,decisionTrl,resources/DBN.BMP,resources/DB.BMP,Door2,0.238301524,-0.081051862,1,0,0,1.3164,optionRight,20,12980,6,23,0,23,0,1,,,,,,,,,,,,,,,,,,,,,,,,,,,,,,,,,,,,,,,
,,,,,,,5d2a1b1a4588590018cf6fd4,2023-08-16_08h44.41.110,HF_wild_card,2022.2.4,Linux x86_64,59.99520038,5d2a1b1a4588590018cf6fd4,64d2fd46c836a06233681665,64dc7e46201c200f1b779d46,,,,,,,sngl,resources/DR.BMP,resources/Empty.png,Door3,-0.258197361,-0.086298907,1,0,0,0.5824,optionLeft,70,13050,6,24,0,24,0,1,,,,,,,,,,,,,,,,,,,,,,,,,,,,,,,,,,,,,,,
,,,,,,,5d2a1b1a4588590018cf6fd4,2023-08-16_08h44.41.110,HF_wild_card,2022.2.4,Linux x86_64,59.99520038,5d2a1b1a4588590018cf6fd4,64d2fd46c836a06233681665,64dc7e46201c200f1b779d46,,,,,,,decisionTrl,resources/DG.BMP,resources/DY.BMP,Door4,0.320843591,0.001254258,1,0,0,0.7793,optionRight,60,13110,6,25,0,25,0,1,,,,,,,,,,,,,,,,,,,,,,,,,,,,,,,,,,,,,,,
,,,,,,,5d2a1b1a4588590018cf6fd4,2023-08-16_08h44.41.110,HF_wild_card,2022.2.4,Linux x86_64,59.99520038,5d2a1b1a4588590018cf6fd4,64d2fd46c836a06233681665,64dc7e46201c200f1b779d46,,,,,,,decisionTrl,resources/DB.BMP,resources/DBN.BMP,Door2,-0.548900074,0.010008388,1,0,0,0.5871,optionLeft,40,13150,6,26,0,26,0,1,,,,,,,,,,,,,,,,,,,,,,,,,,,,,,,,,,,,,,,
,,,,,,,5d2a1b1a4588590018cf6fd4,2023-08-16_08h44.41.110,HF_wild_card,2022.2.4,Linux x86_64,59.99520038,5d2a1b1a4588590018cf6fd4,64d2fd46c836a06233681665,64dc7e46201c200f1b779d46,,,,,,,decisionTrl,resources/DY.BMP,resources/DG.BMP,Door4,-0.326981933,-0.050029154,1,0,0,0.6134,optionLeft,80,13230,6,27,0,27,0,1,,,,,,,,,,,,,,,,,,,,,,,,,,,,,,,,,,,,,,,
,,,,,,,5d2a1b1a4588590018cf6fd4,2023-08-16_08h44.41.110,HF_wild_card,2022.2.4,Linux x86_64,59.99520038,5d2a1b1a4588590018cf6fd4,64d2fd46c836a06233681665,64dc7e46201c200f1b779d46,,,,,,,decisionTrl,resources/DG.BMP,resources/DR.BMP,WildCard_Ex,-0.353193495,-0.037885948,1,0,0,1.8296,optionLeft,55,13285,6,28,0,28,0,1,,,,,,,,,,,,,,,,,,,,,,,,,,,,,,,,,,,,,,,
,,,,,,,5d2a1b1a4588590018cf6fd4,2023-08-16_08h44.41.110,HF_wild_card,2022.2.4,Linux x86_64,59.99520038,5d2a1b1a4588590018cf6fd4,64d2fd46c836a06233681665,64dc7e46201c200f1b779d46,,,,,,,decisionTrl,resources/DBN.BMP,resources/DB.BMP,Door2,0.418750057,-0.06383087,1,0,0,0.7463,optionRight,20,13305,6,29,0,29,0,1,,,,,,,,,,,,,,,,,,,,,,,,,,,,,,,,,,,,,,,
,,,,,,,5d2a1b1a4588590018cf6fd4,2023-08-16_08h44.41.110,HF_wild_card,2022.2.4,Linux x86_64,59.99520038,5d2a1b1a4588590018cf6fd4,64d2fd46c836a06233681665,64dc7e46201c200f1b779d46,,,,,,,decisionTrl,resources/DB.BMP,resources/DBN.BMP,Door2,-0.381267795,-0.026187084,1,0,0,0.6011,optionLeft,20,13325,6,30,0,30,0,1,,,,,,,,,,,,,,,,,,,,,,,,,,,,,,,,,,,,,,,
,,,,,,,5d2a1b1a4588590018cf6fd4,2023-08-16_08h44.41.110,HF_wild_card,2022.2.4,Linux x86_64,59.99520038,5d2a1b1a4588590018cf6fd4,64d2fd46c836a06233681665,64dc7e46201c200f1b779d46,,,,,,,sngl,resources/DG.BMP,resources/Empty.png,WildCard_Ex,-0.286779686,-0.046587979,1,0,0,0.7632,optionLeft,55,13380,6,31,0,31,0,1,,,,,,,,,,,,,,,,,,,,,,,,,,,,,,,,,,,,,,,
,,,,,,,5d2a1b1a4588590018cf6fd4,2023-08-16_08h44.41.110,HF_wild_card,2022.2.4,Linux x86_64,59.99520038,5d2a1b1a4588590018cf6fd4,64d2fd46c836a06233681665,64dc7e46201c200f1b779d46,,,,,,,sngl,resources/Empty.png,resources/DR.BMP,Door3,0.387691215,-0.017021744,1,0,0,0.9594,optionRight,70,13450,6,32,0,32,0,1,,,,,,,,,,,,,,,,,,,,,,,,,,,,,,,,,,,,,,,
,,,,,,,5d2a1b1a4588590018cf6fd4,2023-08-16_08h44.41.110,HF_wild_card,2022.2.4,Linux x86_64,59.99520038,5d2a1b1a4588590018cf6fd4,64d2fd46c836a06233681665,64dc7e46201c200f1b779d46,,,,,,,decisionTrl,resources/DG.BMP,resources/DBN.BMP,WildCard_Ex,-0.32630659,-0.020214293,1,0,0,0.6215,optionLeft,45,13495,6,33,0,33,0,1,,,,,,,,,,,,,,,,,,,,,,,,,,,,,,,,,,,,,,,
,,,,,,,5d2a1b1a4588590018cf6fd4,2023-08-16_08h44.41.110,HF_wild_card,2022.2.4,Linux x86_64,59.99520038,5d2a1b1a4588590018cf6fd4,64d2fd46c836a06233681665,64dc7e46201c200f1b779d46,,,,,,,decisionTrl,resources/DB.BMP,resources/DG.BMP,WildCard_Ex,0.294074376,-0.042778121,1,0,0,0.9684,optionRight,45,13540,6,34,0,34,0,1,,,,,,,,,,,,,,,,,,,,,,,,,,,,,,,,,,,,,,,
,,,,,,,5d2a1b1a4588590018cf6fd4,2023-08-16_08h44.41.110,HF_wild_card,2022.2.4,Linux x86_64,59.99520038,5d2a1b1a4588590018cf6fd4,64d2fd46c836a06233681665,64dc7e46201c200f1b779d46,,,,,,,decisionTrl,resources/DBN.BMP,resources/DG.BMP,WildCard_Ex,0.274999477,-0.063769658,1,0,0,0.6625,optionRight,45,13585,6,35,0,35,0,1,,,,,,,,,,,,,,,,,,,,,,,,,,,,,,,,,,,,,,,
,,,,,,,5d2a1b1a4588590018cf6fd4,2023-08-16_08h44.41.110,HF_wild_card,2022.2.4,Linux x86_64,59.99520038,5d2a1b1a4588590018cf6fd4,64d2fd46c836a06233681665,64dc7e46201c200f1b779d46,,,,,,,sngl,resources/DB.BMP,resources/Empty.png,Door2,-0.302843659,-0.015480995,1,0,0,0.73,optionLeft,20,13605,6,36,0,36,0,1,,,,,,,,,,,,,,,,,,,,,,,,,,,,,,,,,,,,,,,
,,,,,,,5d2a1b1a4588590018cf6fd4,2023-08-16_08h44.41.110,HF_wild_card,2022.2.4,Linux x86_64,59.99520038,5d2a1b1a4588590018cf6fd4,64d2fd46c836a06233681665,64dc7e46201c200f1b779d46,,,,,,,ctch,resources/DBN.BMP,resources/DY.BMP,Door4,0.250188192,-0.021671048,1,0,0,0.5959,optionRight,80,13685,6,37,0,37,0,1,,,,,,,,,,,,,,,,,,,,,,,,,,,,,,,,,,,,,,,
,,,,,,,5d2a1b1a4588590018cf6fd4,2023-08-16_08h44.41.110,HF_wild_card,2022.2.4,Linux x86_64,59.99520038,5d2a1b1a4588590018cf6fd4,64d2fd46c836a06233681665,64dc7e46201c200f1b779d46,,,,,,,ctch,resources/DR.BMP,resources/DB.BMP,Door3,-0.331872622,0.0159993,1,0,0,0.9275,optionLeft,70,13755,6,38,0,38,0,1,,,,,,,,,,,,,,,,,,,,,,,,,,,,,,,,,,,,,,,
,,,,,,,5d2a1b1a4588590018cf6fd4,2023-08-16_08h44.41.110,HF_wild_card,2022.2.4,Linux x86_64,59.99520038,5d2a1b1a4588590018cf6fd4,64d2fd46c836a06233681665,64dc7e46201c200f1b779d46,,,,,,,sngl,resources/Empty.png,resources/DG.BMP,WildCard_Ex,0.414230912,0.02423124,1,0,0,0.6115,optionRight,45,13800,6,39,0,39,0,1,,,,,,,,,,,,,,,,,,,,,,,,,,,,,,,,,,,,,,,
,,,,,,,5d2a1b1a4588590018cf6fd4,2023-08-16_08h44.41.110,HF_wild_card,2022.2.4,Linux x86_64,59.99520038,5d2a1b1a4588590018cf6fd4,64d2fd46c836a06233681665,64dc7e46201c200f1b779d46,,,,,,,decisionTrl,resources/DY.BMP,resources/DR.BMP,Door4,-0.298922998,0.005178416,1,0,0,0.6976,optionLeft,80,13880,6,40,0,40,0,1,,,,,,,,,,,,,,,,,,,,,,,,,,,,,,,,,,,,,,,
,,,,,,,5d2a1b1a4588590018cf6fd4,2023-08-16_08h44.41.110,HF_wild_card,2022.2.4,Linux x86_64,59.99520038,5d2a1b1a4588590018cf6fd4,64d2fd46c836a06233681665,64dc7e46201c200f1b779d46,,,,,,,decisionTrl,resources/DR.BMP,resources/DY.BMP,Door4,0.4079871,-0.007902993,1,0,0,0.5971,optionRight,80,13960,6,41,0,41,0,1,,,,,,,,,,,,,,,,,,,,,,,,,,,,,,,,,,,,,,,
,,,,,,,5d2a1b1a4588590018cf6fd4,2023-08-16_08h44.41.110,HF_wild_card,2022.2.4,Linux x86_64,59.99520038,5d2a1b1a4588590018cf6fd4,64d2fd46c836a06233681665,64dc7e46201c200f1b779d46,,,,,,,decisionTrl,resources/DY.BMP,resources/DR.BMP,Door4,-0.324193919,-0.002385811,1,0,0,0.4924,optionLeft,80,14040,6,42,0,42,0,1,,,,,,,,,,,,,,,,,,,,,,,,,,,,,,,,,,,,,,,
,,,,,,,5d2a1b1a4588590018cf6fd4,2023-08-16_08h44.41.110,HF_wild_card,2022.2.4,Linux x86_64,59.99520038,5d2a1b1a4588590018cf6fd4,64d2fd46c836a06233681665,64dc7e46201c200f1b779d46,,,,,,,sngl,resources/Empty.png,resources/DG.BMP,WildCard_Ex,0.251107675,0.070671965,1,0,0,0.6094,optionRight,55,14095,6,43,0,43,0,1,,,,,,,,,,,,,,,,,,,,,,,,,,,,,,,,,,,,,,,
,,,,,,,5d2a1b1a4588590018cf6fd4,2023-08-16_08h44.41.110,HF_wild_card,2022.2.4,Linux x86_64,59.99520038,5d2a1b1a4588590018cf6fd4,64d2fd46c836a06233681665,64dc7e46201c200f1b779d46,,,,,,,,,,,,,,,,,,,,,,,,,,5,0,5,0,1,,,,,,,,,,,,,,,,,,,,,,,,,,,,,,,,,,
,,,,,,,5d2a1b1a4588590018cf6fd4,2023-08-16_08h44.41.110,HF_wild_card,2022.2.4,Linux x86_64,59.99520038,5d2a1b1a4588590018cf6fd4,64d2fd46c836a06233681665,64dc7e46201c200f1b779d46,,,,,,,ctch,resources/DY.BMP,resources/DBN.BMP,Door4,-0.428739901,0.074492596,1,0,0,0.6883,optionLeft,80,14175,7,0,0,0,0,1,,,,,,,,,,,,,,,,,,,,,,,,,,,,,,,,,,,,,,,
,,,,,,,5d2a1b1a4588590018cf6fd4,2023-08-16_08h44.41.110,HF_wild_card,2022.2.4,Linux x86_64,59.99520038,5d2a1b1a4588590018cf6fd4,64d2fd46c836a06233681665,64dc7e46201c200f1b779d46,,,,,,,decisionTrl,resources/DBN.BMP,resources/DB.BMP,Door2,0.296898171,0.059576635,1,0,0,0.6637,optionRight,20,14195,7,1,0,1,0,1,,,,,,,,,,,,,,,,,,,,,,,,,,,,,,,,,,,,,,,
,,,,,,,5d2a1b1a4588590018cf6fd4,2023-08-16_08h44.41.110,HF_wild_card,2022.2.4,Linux x86_64,59.99520038,5d2a1b1a4588590018cf6fd4,64d2fd46c836a06233681665,64dc7e46201c200f1b779d46,,,,,,,decisionTrl,resources/DY.BMP,resources/DR.BMP,Door4,-0.310804332,0.051945757,1,0,0,0.6318,optionLeft,80,14275,7,2,0,2,0,1,,,,,,,,,,,,,,,,,,,,,,,,,,,,,,,,,,,,,,,
,,,,,,,5d2a1b1a4588590018cf6fd4,2023-08-16_08h44.41.110,HF_wild_card,2022.2.4,Linux x86_64,59.99520038,5d2a1b1a4588590018cf6fd4,64d2fd46c836a06233681665,64dc7e46201c200f1b779d46,,,,,,,decisionTrl,resources/DBN.BMP,resources/DB.BMP,Door2,0.404253783,0.008706446,1,0,0,0.5496,optionRight,40,14315,7,3,0,3,0,1,,,,,,,,,,,,,,,,,,,,,,,,,,,,,,,,,,,,,,,
,,,,,,,5d2a1b1a4588590018cf6fd4,2023-08-16_08h44.41.110,HF_wild_card,2022.2.4,Linux x86_64,59.99520038,5d2a1b1a4588590018cf6fd4,64d2fd46c836a06233681665,64dc7e46201c200f1b779d46,,,,,,,ctch,resources/DBN.BMP,resources/DY.BMP,Door4,0.518556524,-0.003536189,1,0,0,0.5992,optionRight,80,14395,7,4,0,4,0,1,,,,,,,,,,,,,,,,,,,,,,,,,,,,,,,,,,,,,,,
,,,,,,,5d2a1b1a4588590018cf6fd4,2023-08-16_08h44.41.110,HF_wild_card,2022.2.4,Linux x86_64,59.99520038,5d2a1b1a4588590018cf6fd4,64d2fd46c836a06233681665,64dc7e46201c200f1b779d46,,,,,,,ctch,resources/DB.BMP,resources/DR.BMP,Door3,0.343669185,0.004943742,1,0,0,0.8141,optionRight,70,14465,7,5,0,5,0,1,,,,,,,,,,,,,,,,,,,,,,,,,,,,,,,,,,,,,,,
,,,,,,,5d2a1b1a4588590018cf6fd4,2023-08-16_08h44.41.110,HF_wild_card,2022.2.4,Linux x86_64,59.99520038,5d2a1b1a4588590018cf6fd4,64d2fd46c836a06233681665,64dc7e46201c200f1b779d46,,,,,,,decisionTrl,resources/DY.BMP,resources/DR.BMP,Door4,-0.399647854,0.018925737,1,0,0,0.5767,optionLeft,80,14545,7,6,0,6,0,1,,,,,,,,,,,,,,,,,,,,,,,,,,,,,,,,,,,,,,,
,,,,,,,5d2a1b1a4588590018cf6fd4,2023-08-16_08h44.41.110,HF_wild_card,2022.2.4,Linux x86_64,59.99520038,5d2a1b1a4588590018cf6fd4,64d2fd46c836a06233681665,64dc7e46201c200f1b779d46,,,,,,,ctch,resources/DB.BMP,resources/DR.BMP,Door3,0.320551696,-0.01182376,1,0,0,0.9315,optionRight,70,14615,7,7,0,7,0,1,,,,,,,,,,,,,,,,,,,,,,,,,,,,,,,,,,,,,,,
,,,,,,,5d2a1b1a4588590018cf6fd4,2023-08-16_08h44.41.110,HF_wild_card,2022.2.4,Linux x86_64,59.99520038,5d2a1b1a4588590018cf6fd4,64d2fd46c836a06233681665,64dc7e46201c200f1b779d46,,,,,,,decisionTrl,resources/DY.BMP,resources/DR.BMP,Door4,-0.277877313,-0.030522629,1,0,0,0.6443,optionLeft,80,14695,7,8,0,8,0,1,,,,,,,,,,,,,,,,,,,,,,,,,,,,,,,,,,,,,,,
,,,,,,,5d2a1b1a4588590018cf6fd4,2023-08-16_08h44.41.110,HF_wild_card,2022.2.4,Linux x86_64,59.99520038,5d2a1b1a4588590018cf6fd4,64d2fd46c836a06233681665,64dc7e46201c200f1b779d46,,,,,,,decisionTrl,resources/DB.BMP,resources/DBN.BMP,Door2,-0.46765988,0.034207344,1,0,0,1.0792,optionLeft,20,14715,7,9,0,9,0,1,,,,,,,,,,,,,,,,,,,,,,,,,,,,,,,,,,,,,,,
,,,,,,,5d2a1b1a4588590018cf6fd4,2023-08-16_08h44.41.110,HF_wild_card,2022.2.4,Linux x86_64,59.99520038,5d2a1b1a4588590018cf6fd4,64d2fd46c836a06233681665,64dc7e46201c200f1b779d46,,,,,,,ctch,resources/DR.BMP,resources/DB.BMP,Door3,-0.276317667,0.006149221,1,0,0,1.2302,optionLeft,70,14785,7,10,0,10,0,1,,,,,,,,,,,,,,,,,,,,,,,,,,,,,,,,,,,,,,,
,,,,,,,5d2a1b1a4588590018cf6fd4,2023-08-16_08h44.41.110,HF_wild_card,2022.2.4,Linux x86_64,59.99520038,5d2a1b1a4588590018cf6fd4,64d2fd46c836a06233681665,64dc7e46201c200f1b779d46,,,,,,,ctch,resources/DB.BMP,resources/DR.BMP,Door3,0.434021985,-0.035300043,1,0,0,0.799,optionRight,70,14855,7,11,0,11,0,1,,,,,,,,,,,,,,,,,,,,,,,,,,,,,,,,,,,,,,,
,,,,,,,5d2a1b1a4588590018cf6fd4,2023-08-16_08h44.41.110,HF_wild_card,2022.2.4,Linux x86_64,59.99520038,5d2a1b1a4588590018cf6fd4,64d2fd46c836a06233681665,64dc7e46201c200f1b779d46,,,,,,,ctch,resources/DBN.BMP,resources/DY.BMP,Door4,0.253398683,-0.017163948,1,0,0,0.6031,optionRight,80,14935,7,12,0,12,0,1,,,,,,,,,,,,,,,,,,,,,,,,,,,,,,,,,,,,,,,
,,,,,,,5d2a1b1a4588590018cf6fd4,2023-08-16_08h44.41.110,HF_wild_card,2022.2.4,Linux x86_64,59.99520038,5d2a1b1a4588590018cf6fd4,64d2fd46c836a06233681665,64dc7e46201c200f1b779d46,,,,,,,decisionTrl,resources/DB.BMP,resources/DBN.BMP,Door2,-0.407524709,0.003546821,1,0,0,0.7789,optionLeft,40,14975,7,13,0,13,0,1,,,,,,,,,,,,,,,,,,,,,,,,,,,,,,,,,,,,,,,
