Condition,Low fixed image (Door1),Low risky image (Door2),High fixed image (Door3),High risky image (Door4),Extreme Wild Card,NonExtreme Wild Card,,date,expName,psychopyVersion,OS,frameRate,PROLIFIC_PID,STUDY_ID,SESSION_ID,mouse_2.x,mouse_2.y,mouse_2.leftButton,mouse_2.midButton,mouse_2.rightButton,mouse_2.clicked_name,Trial Type,Left Option Image,Right Option Image,Chosen Door,mouse.x,mouse.y,mouse.leftButton,mouse.midButton,mouse.rightButton,mouse.time,mouse.clicked_name,Feedback,Cumulative Reward,Block,trial.thisRepN,trial.thisTrialN,trial.thisN,trial.thisIndex,trial.ran,blocks.thisRepN,blocks.thisTrialN,blocks.thisN,blocks.thisIndex,blocks.ran,Money conversion,First Outcome Reported,Shown Door (First Outcome),Displayed Image (First Outcome),outcomes.thisRepN,outcomes.thisTrialN,outcomes.thisN,outcomes.thisIndex,outcomes.ran,judgments.thisRepN,judgments.thisTrialN,judgments.thisN,judgments.thisIndex,judgments.ran,freqMouse.x,freqMouse.y,freqMouse.leftButton,freqMouse.midButton,freqMouse.rightButton,freqMouse.clicked_name,FQJ for first outcome,FQJ for second outcome,Shown Door,Displayed Image,trials.thisRepN,trials.thisTrialN,trials.thisN,trials.thisIndex,trials.ran,judgBlock.thisRepN,judgBlock.thisTrialN,judgBlock.thisN,judgBlock.thisIndex,judgBlock.ran
0,resources/DB.BMP,resources/DG.BMP,resources/DY.BMP,resources/DR.BMP,resources/DP.BMP,resources/DBN.BMP,,2023-08-16_08h48.12.482,HF_wild_card,2022.2.4,Win32,60.57302078,610708c5efbf18e4295facc3,64d2fd46c836a06233681665,64dc7cd0aa9367f4d27f3766,,,,,,,,,,,,,,,,,,,,,,,,,,,,,,,,,,,,,,,,,,,,,,,,,,,,,,,,,,,,,,,,
,,,,,,,,2023-08-16_08h48.12.482,HF_wild_card,2022.2.4,Win32,60.57302078,610708c5efbf18e4295facc3,64d2fd46c836a06233681665,64dc7cd0aa9367f4d27f3766,-0.007853843,-0.421137912,1,0,0,agree,,,,,,,,,,,,,,,,,,,,,,,,,,,,,,,,,,,,,,,,,,,,,,,,,,,,,,,,,,
,,,,,,,,2023-08-16_08h48.12.482,HF_wild_card,2022.2.4,Win32,60.57302078,610708c5efbf18e4295facc3,64d2fd46c836a06233681665,64dc7cd0aa9367f4d27f3766,,,,,,,,,,,,,,,,,,,,,,,,,,,,,,,,,,,,,,,,,,,,,,,,,,,,,,,,,,,,,,,,
,,,,,,,,2023-08-16_08h48.12.482,HF_wild_card,2022.2.4,Win32,60.57302078,610708c5efbf18e4295facc3,64d2fd46c836a06233681665,64dc7cd0aa9367f4d27f3766,,,,,,,decisionTrl,resources/DP.BMP,resources/DY.BMP,WildCard_Ex,-0.383166579,-0.087526607,1,0,0,3.5916,optionLeft,95,95,1,0,0,0,0,1,,,,,,,,,,,,,,,,,,,,,,,,,,,,,,,,,,,,,,,
,,,,,,,,2023-08-16_08h48.12.482,HF_wild_card,2022.2.4,Win32,60.57302078,610708c5efbf18e4295facc3,64d2fd46c836a06233681665,64dc7cd0aa9367f4d27f3766,,,,,,,sngl,resources/DG.BMP,resources/Empty.png,Door2,-0.329418077,0.003289832,1,0,0,1.2143,optionLeft,40,135,1,1,0,1,0,1,,,,,,,,,,,,,,,,,,,,,,,,,,,,,,,,,,,,,,,
,,,,,,,,2023-08-16_08h48.12.482,HF_wild_card,2022.2.4,Win32,60.57302078,610708c5efbf18e4295facc3,64d2fd46c836a06233681665,64dc7cd0aa9367f4d27f3766,,,,,,,ctch,resources/DG.BMP,resources/DY.BMP,Door3,0.272935686,-0.029144614,1,0,0,1.582,optionRight,70,205,1,2,0,2,0,1,,,,,,,,,,,,,,,,,,,,,,,,,,,,,,,,,,,,,,,
,,,,,,,,2023-08-16_08h48.12.482,HF_wild_card,2022.2.4,Win32,60.57302078,610708c5efbf18e4295facc3,64d2fd46c836a06233681665,64dc7cd0aa9367f4d27f3766,,,,,,,ctch,resources/DG.BMP,resources/DY.BMP,Door3,0.356338548,-0.024511121,1,0,0,1.1819,optionRight,70,275,1,3,0,3,0,1,,,,,,,,,,,,,,,,,,,,,,,,,,,,,,,,,,,,,,,
,,,,,,,,2023-08-16_08h48.12.482,HF_wild_card,2022.2.4,Win32,60.57302078,610708c5efbf18e4295facc3,64d2fd46c836a06233681665,64dc7cd0aa9367f4d27f3766,,,,,,,sngl,resources/Empty.png,resources/DR.BMP,Door4,0.385066134,-0.011537371,1,0,0,0.8482,optionRight,60,335,1,4,0,4,0,1,,,,,,,,,,,,,,,,,,,,,,,,,,,,,,,,,,,,,,,
,,,,,,,,2023-08-16_08h48.12.482,HF_wild_card,2022.2.4,Win32,60.57302078,610708c5efbf18e4295facc3,64d2fd46c836a06233681665,64dc7cd0aa9367f4d27f3766,,,,,,,decisionTrl,resources/DG.BMP,resources/DB.BMP,Door2,-0.343318554,-0.010610645,1,0,0,1.5142,optionLeft,40,375,1,5,0,5,0,1,,,,,,,,,,,,,,,,,,,,,,,,,,,,,,,,,,,,,,,
,,,,,,,,2023-08-16_08h48.12.482,HF_wild_card,2022.2.4,Win32,60.57302078,610708c5efbf18e4295facc3,64d2fd46c836a06233681665,64dc7cd0aa9367f4d27f3766,,,,,,,sngl,resources/DP.BMP,resources/Empty.png,WildCard_Ex,-0.343318554,-0.007830559,1,0,0,0.7314,optionLeft,95,470,1,6,0,6,0,1,,,,,,,,,,,,,,,,,,,,,,,,,,,,,,,,,,,,,,,
,,,,,,,,2023-08-16_08h48.12.482,HF_wild_card,2022.2.4,Win32,60.57302078,610708c5efbf18e4295facc3,64d2fd46c836a06233681665,64dc7cd0aa9367f4d27f3766,,,,,,,sngl,resources/Empty.png,resources/DP.BMP,WildCard_Ex,0.56577238,-0.10513385,1,0,0,0.6476,optionRight,95,565,1,7,0,7,0,1,,,,,,,,,,,,,,,,,,,,,,,,,,,,,,,,,,,,,,,
,,,,,,,,2023-08-16_08h48.12.482,HF_wild_card,2022.2.4,Win32,60.57302078,610708c5efbf18e4295facc3,64d2fd46c836a06233681665,64dc7cd0aa9367f4d27f3766,,,,,,,decisionTrl,resources/DP.BMP,resources/DG.BMP,WildCard_Ex,-0.320151093,-0.010610645,1,0,0,0.9643,optionLeft,5,570,1,8,0,8,0,1,,,,,,,,,,,,,,,,,,,,,,,,,,,,,,,,,,,,,,,
,,,,,,,,2023-08-16_08h48.12.482,HF_wild_card,2022.2.4,Win32,60.57302078,610708c5efbf18e4295facc3,64d2fd46c836a06233681665,64dc7cd0aa9367f4d27f3766,,,,,,,decisionTrl,resources/DY.BMP,resources/DR.BMP,Door3,-0.374826274,-0.018024223,1,0,0,0.8984,optionLeft,70,640,1,9,0,9,0,1,,,,,,,,,,,,,,,,,,,,,,,,,,,,,,,,,,,,,,,
,,,,,,,,2023-08-16_08h48.12.482,HF_wild_card,2022.2.4,Win32,60.57302078,610708c5efbf18e4295facc3,64d2fd46c836a06233681665,64dc7cd0aa9367f4d27f3766,,,,,,,decisionTrl,resources/DG.BMP,resources/DB.BMP,Door1,0.411940455,-0.0921601,1,0,0,2.3646,optionRight,30,670,1,10,0,10,0,1,,,,,,,,,,,,,,,,,,,,,,,,,,,,,,,,,,,,,,,
,,,,,,,,2023-08-16_08h48.12.482,HF_wild_card,2022.2.4,Win32,60.57302078,610708c5efbf18e4295facc3,64d2fd46c836a06233681665,64dc7cd0aa9367f4d27f3766,,,,,,,sngl,resources/DR.BMP,resources/Empty.png,Door4,-0.349805453,0.125613968,1,0,0,3.5899,optionLeft,80,750,1,11,0,11,0,1,,,,,,,,,,,,,,,,,,,,,,,,,,,,,,,,,,,,,,,
,,,,,,,,2023-08-16_08h48.12.482,HF_wild_card,2022.2.4,Win32,60.57302078,610708c5efbf18e4295facc3,64d2fd46c836a06233681665,64dc7cd0aa9367f4d27f3766,,,,,,,decisionTrl,resources/DY.BMP,resources/DP.BMP,WildCard_Ex,0.285909484,-0.034704832,1,0,0,0.9316,optionRight,5,755,1,12,0,12,0,1,,,,,,,,,,,,,,,,,,,,,,,,,,,,,,,,,,,,,,,
,,,,,,,,2023-08-16_08h48.12.482,HF_wild_card,2022.2.4,Win32,60.57302078,610708c5efbf18e4295facc3,64d2fd46c836a06233681665,64dc7cd0aa9367f4d27f3766,,,,,,,decisionTrl,resources/DB.BMP,resources/DG.BMP,Door1,-0.360925797,-0.007830559,1,0,0,0.9052,optionLeft,30,785,1,13,0,13,0,1,,,,,,,,,,,,,,,,,,,,,,,,,,,,,,,,,,,,,,,
,,,,,,,,2023-08-16_08h48.12.482,HF_wild_card,2022.2.4,Win32,60.57302078,610708c5efbf18e4295facc3,64d2fd46c836a06233681665,64dc7cd0aa9367f4d27f3766,,,,,,,decisionTrl,resources/DG.BMP,resources/DB.BMP,Door2,-0.322004499,-0.022657715,1,0,0,0.6383,optionLeft,20,805,1,14,0,14,0,1,,,,,,,,,,,,,,,,,,,,,,,,,,,,,,,,,,,,,,,
,,,,,,,,2023-08-16_08h48.12.482,HF_wild_card,2022.2.4,Win32,60.57302078,610708c5efbf18e4295facc3,64d2fd46c836a06233681665,64dc7cd0aa9367f4d27f3766,,,,,,,ctch,resources/DR.BMP,resources/DB.BMP,Door1,0.297029828,-0.005050473,1,0,0,0.7657,optionRight,30,835,1,15,0,15,0,1,,,,,,,,,,,,,,,,,,,,,,,,,,,,,,,,,,,,,,,
,,,,,,,,2023-08-16_08h48.12.482,HF_wild_card,2022.2.4,Win32,60.57302078,610708c5efbf18e4295facc3,64d2fd46c836a06233681665,64dc7cd0aa9367f4d27f3766,,,,,,,decisionTrl,resources/DR.BMP,resources/DY.BMP,Door4,-0.388726751,0.024603887,1,0,0,0.7418,optionLeft,80,915,1,16,0,16,0,1,,,,,,,,,,,,,,,,,,,,,,,,,,,,,,,,,,,,,,,
,,,,,,,,2023-08-16_08h48.12.482,HF_wild_card,2022.2.4,Win32,60.57302078,610708c5efbf18e4295facc3,64d2fd46c836a06233681665,64dc7cd0aa9367f4d27f3766,,,,,,,ctch,resources/DR.BMP,resources/DB.BMP,Door4,-0.357219031,0.033870872,1,0,0,0.872,optionLeft,80,995,1,17,0,17,0,1,,,,,,,,,,,,,,,,,,,,,,,,,,,,,,,,,,,,,,,
,,,,,,,,2023-08-16_08h48.12.482,HF_wild_card,2022.2.4,Win32,60.57302078,610708c5efbf18e4295facc3,64d2fd46c836a06233681665,64dc7cd0aa9367f4d27f3766,,,,,,,sngl,resources/Empty.png,resources/DB.BMP,Door1,0.417500627,-0.045825177,1,0,0,0.8482,optionRight,30,1025,1,18,0,18,0,1,,,,,,,,,,,,,,,,,,,,,,,,,,,,,,,,,,,,,,,
,,,,,,,,2023-08-16_08h48.12.482,HF_wild_card,2022.2.4,Win32,60.57302078,610708c5efbf18e4295facc3,64d2fd46c836a06233681665,64dc7cd0aa9367f4d27f3766,,,,,,,decisionTrl,resources/DR.BMP,resources/DY.BMP,Door4,-0.331271484,-0.027291208,1,0,0,0.5818,optionLeft,60,1085,1,19,0,19,0,1,,,,,,,,,,,,,,,,,,,,,,,,,,,,,,,,,,,,,,,
,,,,,,,,2023-08-16_08h48.12.482,HF_wild_card,2022.2.4,Win32,60.57302078,610708c5efbf18e4295facc3,64d2fd46c836a06233681665,64dc7cd0aa9367f4d27f3766,,,,,,,ctch,resources/DB.BMP,resources/DR.BMP,Door1,-0.288643373,-0.077332943,1,0,0,0.8313,optionLeft,30,1115,1,20,0,20,0,1,,,,,,,,,,,,,,,,,,,,,,,,,,,,,,,,,,,,,,,
,,,,,,,,2023-08-16_08h48.12.482,HF_wild_card,2022.2.4,Win32,60.57302078,610708c5efbf18e4295facc3,64d2fd46c836a06233681665,64dc7cd0aa9367f4d27f3766,,,,,,,decisionTrl,resources/DB.BMP,resources/DP.BMP,WildCard_Ex,0.346144837,-0.059725654,1,0,0,0.7641,optionRight,95,1210,1,21,0,21,0,1,,,,,,,,,,,,,,,,,,,,,,,,,,,,,,,,,,,,,,,
,,,,,,,,2023-08-16_08h48.12.482,HF_wild_card,2022.2.4,Win32,60.57302078,610708c5efbf18e4295facc3,64d2fd46c836a06233681665,64dc7cd0aa9367f4d27f3766,,,,,,,decisionTrl,resources/DR.BMP,resources/DY.BMP,Door3,0.322050695,-0.019877629,1,0,0,0.6813,optionRight,70,1280,1,22,0,22,0,1,,,,,,,,,,,,,,,,,,,,,,,,,,,,,,,,,,,,,,,
,,,,,,,,2023-08-16_08h48.12.482,HF_wild_card,2022.2.4,Win32,60.57302078,610708c5efbf18e4295facc3,64d2fd46c836a06233681665,64dc7cd0aa9367f4d27f3766,,,,,,,ctch,resources/DY.BMP,resources/DG.BMP,Door3,-0.348878726,-0.041191684,1,0,0,0.8984,optionLeft,70,1350,1,23,0,23,0,1,,,,,,,,,,,,,,,,,,,,,,,,,,,,,,,,,,,,,,,
,,,,,,,,2023-08-16_08h48.12.482,HF_wild_card,2022.2.4,Win32,60.57302078,610708c5efbf18e4295facc3,64d2fd46c836a06233681665,64dc7cd0aa9367f4d27f3766,,,,,,,sngl,resources/DB.BMP,resources/Empty.png,Door1,-0.267329318,-0.003197066,1,0,0,0.765,optionLeft,30,1380,1,24,0,24,0,1,,,,,,,,,,,,,,,,,,,,,,,,,,,,,,,,,,,,,,,
,,,,,,,,2023-08-16_08h48.12.482,HF_wild_card,2022.2.4,Win32,60.57302078,610708c5efbf18e4295facc3,64d2fd46c836a06233681665,64dc7cd0aa9367f4d27f3766,,,,,,,decisionTrl,resources/DR.BMP,resources/DP.BMP,WildCard_Ex,0.30259,-0.052312075,1,0,0,0.7313,optionRight,95,1475,1,25,0,25,0,1,,,,,,,,,,,,,,,,,,,,,,,,,,,,,,,,,,,,,,,
,,,,,,,,2023-08-16_08h48.12.482,HF_wild_card,2022.2.4,Win32,60.57302078,610708c5efbf18e4295facc3,64d2fd46c836a06233681665,64dc7cd0aa9367f4d27f3766,,,,,,,decisionTrl,resources/DR.BMP,resources/DY.BMP,Door3,0.264595428,-0.040265005,1,0,0,0.8818,optionRight,70,1545,1,26,0,26,0,1,,,,,,,,,,,,,,,,,,,,,,,,,,,,,,,,,,,,,,,
,,,,,,,,2023-08-16_08h48.12.482,HF_wild_card,2022.2.4,Win32,60.57302078,610708c5efbf18e4295facc3,64d2fd46c836a06233681665,64dc7cd0aa9367f4d27f3766,,,,,,,decisionTrl,resources/DB.BMP,resources/DG.BMP,Door1,-0.296056952,0.024603887,1,0,0,0.698,optionLeft,30,1575,1,27,0,27,0,1,,,,,,,,,,,,,,,,,,,,,,,,,,,,,,,,,,,,,,,
,,,,,,,,2023-08-16_08h48.12.482,HF_wild_card,2022.2.4,Win32,60.57302078,610708c5efbf18e4295facc3,64d2fd46c836a06233681665,64dc7cd0aa9367f4d27f3766,,,,,,,decisionTrl,resources/DP.BMP,resources/DR.BMP,WildCard_Ex,-0.261769099,-0.006903879,1,0,0,0.815,optionLeft,95,1670,1,28,0,28,0,1,,,,,,,,,,,,,,,,,,,,,,,,,,,,,,,,,,,,,,,
,,,,,,,,2023-08-16_08h48.12.482,HF_wild_card,2022.2.4,Win32,60.57302078,610708c5efbf18e4295facc3,64d2fd46c836a06233681665,64dc7cd0aa9367f4d27f3766,,,,,,,ctch,resources/DB.BMP,resources/DR.BMP,Door4,0.265522155,-0.052312075,1,0,0,0.6317,optionRight,80,1750,1,29,0,29,0,1,,,,,,,,,,,,,,,,,,,,,,,,,,,,,,,,,,,,,,,
,,,,,,,,2023-08-16_08h48.12.482,HF_wild_card,2022.2.4,Win32,60.57302078,610708c5efbf18e4295facc3,64d2fd46c836a06233681665,64dc7cd0aa9367f4d27f3766,,,,,,,decisionTrl,resources/DG.BMP,resources/DB.BMP,Door2,-0.349805453,-0.058798974,1,0,0,0.6985,optionLeft,40,1790,1,30,0,30,0,1,,,,,,,,,,,,,,,,,,,,,,,,,,,,,,,,,,,,,,,
,,,,,,,,2023-08-16_08h48.12.482,HF_wild_card,2022.2.4,Win32,60.57302078,610708c5efbf18e4295facc3,64d2fd46c836a06233681665,64dc7cd0aa9367f4d27f3766,,,,,,,sngl,resources/DP.BMP,resources/Empty.png,WildCard_Ex,-0.382239852,-0.047678583,1,0,0,0.6815,optionLeft,5,1795,1,31,0,31,0,1,,,,,,,,,,,,,,,,,,,,,,,,,,,,,,,,,,,,,,,
,,,,,,,,2023-08-16_08h48.12.482,HF_wild_card,2022.2.4,Win32,60.57302078,610708c5efbf18e4295facc3,64d2fd46c836a06233681665,64dc7cd0aa9367f4d27f3766,,,,,,,decisionTrl,resources/DB.BMP,resources/DG.BMP,Door1,-0.221921075,-0.0319247,1,0,0,1.0481,optionLeft,30,1825,1,32,0,32,0,1,,,,,,,,,,,,,,,,,,,,,,,,,,,,,,,,,,,,,,,
,,,,,,,,2023-08-16_08h48.12.482,HF_wild_card,2022.2.4,Win32,60.57302078,610708c5efbf18e4295facc3,64d2fd46c836a06233681665,64dc7cd0aa9367f4d27f3766,,,,,,,decisionTrl,resources/DP.BMP,resources/DB.BMP,Door1,0.299809914,-0.07455281,1,0,0,0.6317,optionRight,30,1855,1,33,0,33,0,1,,,,,,,,,,,,,,,,,,,,,,,,,,,,,,,,,,,,,,,
,,,,,,,,2023-08-16_08h48.12.482,HF_wild_card,2022.2.4,Win32,60.57302078,610708c5efbf18e4295facc3,64d2fd46c836a06233681665,64dc7cd0aa9367f4d27f3766,,,,,,,decisionTrl,resources/DY.BMP,resources/DR.BMP,Door3,-0.314590921,0.002363106,1,0,0,0.6644,optionLeft,70,1925,1,34,0,34,0,1,,,,,,,,,,,,,,,,,,,,,,,,,,,,,,,,,,,,,,,
,,,,,,,,2023-08-16_08h48.12.482,HF_wild_card,2022.2.4,Win32,60.57302078,610708c5efbf18e4295facc3,64d2fd46c836a06233681665,64dc7cd0aa9367f4d27f3766,,,,,,,ctch,resources/DY.BMP,resources/DG.BMP,Door3,-0.296983631,-0.003197066,1,0,0,0.5479,optionLeft,70,1995,1,35,0,35,0,1,,,,,,,,,,,,,,,,,,,,,,,,,,,,,,,,,,,,,,,
,,,,,,,,2023-08-16_08h48.12.482,HF_wild_card,2022.2.4,Win32,60.57302078,610708c5efbf18e4295facc3,64d2fd46c836a06233681665,64dc7cd0aa9367f4d27f3766,,,,,,,sngl,resources/Empty.png,resources/DG.BMP,Door2,0.299809914,-0.07455281,1,0,0,0.6819,optionRight,20,2015,1,36,0,36,0,1,,,,,,,,,,,,,,,,,,,,,,,,,,,,,,,,,,,,,,,
,,,,,,,,2023-08-16_08h48.12.482,HF_wild_card,2022.2.4,Win32,60.57302078,610708c5efbf18e4295facc3,64d2fd46c836a06233681665,64dc7cd0aa9367f4d27f3766,,,,,,,decisionTrl,resources/DG.BMP,resources/DP.BMP,WildCard_Ex,0.322977422,-0.010610645,1,0,0,0.7146,optionRight,95,2110,1,37,0,37,0,1,,,,,,,,,,,,,,,,,,,,,,,,,,,,,,,,,,,,,,,
,,,,,,,,2023-08-16_08h48.12.482,HF_wild_card,2022.2.4,Win32,60.57302078,610708c5efbf18e4295facc3,64d2fd46c836a06233681665,64dc7cd0aa9367f4d27f3766,,,,,,,decisionTrl,resources/DB.BMP,resources/DG.BMP,Door1,-0.293276866,-0.025437848,1,0,0,0.6817,optionLeft,30,2140,1,38,0,38,0,1,,,,,,,,,,,,,,,,,,,,,,,,,,,,,,,,,,,,,,,
,,,,,,,,2023-08-16_08h48.12.482,HF_wild_card,2022.2.4,Win32,60.57302078,610708c5efbf18e4295facc3,64d2fd46c836a06233681665,64dc7cd0aa9367f4d27f3766,,,,,,,decisionTrl,resources/DY.BMP,resources/DR.BMP,Door3,-0.337758335,-0.03007134,1,0,0,0.7988,optionLeft,70,2210,1,39,0,39,0,1,,,,,,,,,,,,,,,,,,,,,,,,,,,,,,,,,,,,,,,
,,,,,,,,2023-08-16_08h48.12.482,HF_wild_card,2022.2.4,Win32,60.57302078,610708c5efbf18e4295facc3,64d2fd46c836a06233681665,64dc7cd0aa9367f4d27f3766,,,,,,,decisionTrl,resources/DY.BMP,resources/DR.BMP,Door4,0.564845467,-0.006903879,1,0,0,0.8648,optionRight,80,2290,1,40,0,40,0,1,,,,,,,,,,,,,,,,,,,,,,,,,,,,,,,,,,,,,,,
,,,,,,,,2023-08-16_08h48.12.482,HF_wild_card,2022.2.4,Win32,60.57302078,610708c5efbf18e4295facc3,64d2fd46c836a06233681665,64dc7cd0aa9367f4d27f3766,,,,,,,sngl,resources/DY.BMP,resources/Empty.png,Door3,-0.180219691,0.008850004,1,0,0,0.5478,optionLeft,70,2360,1,41,0,41,0,1,,,,,,,,,,,,,,,,,,,,,,,,,,,,,,,,,,,,,,,
,,,,,,,,2023-08-16_08h48.12.482,HF_wild_card,2022.2.4,Win32,60.57302078,610708c5efbf18e4295facc3,64d2fd46c836a06233681665,64dc7cd0aa9367f4d27f3766,,,,,,,sngl,resources/Empty.png,resources/DY.BMP,Door3,0.470322262,-0.0319247,1,0,0,0.5484,optionRight,70,2430,1,42,0,42,0,1,,,,,,,,,,,,,,,,,,,,,,,,,,,,,,,,,,,,,,,
,,,,,,,,2023-08-16_08h48.12.482,HF_wild_card,2022.2.4,Win32,60.57302078,610708c5efbf18e4295facc3,64d2fd46c836a06233681665,64dc7cd0aa9367f4d27f3766,,,,,,,sngl,resources/Empty.png,resources/DP.BMP,WildCard_Ex,0.423987526,0.0005097,1,0,0,0.5479,optionRight,5,2435,1,43,0,43,0,1,,,,,,,,,,,,,,,,,,,,,,,,,,,,,,,,,,,,,,,
,,,,,,,,2023-08-16_08h48.12.482,HF_wild_card,2022.2.4,Win32,60.57302078,610708c5efbf18e4295facc3,64d2fd46c836a06233681665,64dc7cd0aa9367f4d27f3766,,,,,,,,,,,,,,,,,,,,,,,,,,0,0,0,0,1,,,,,,,,,,,,,,,,,,,,,,,,,,,,,,,,,,
,,,,,,,,2023-08-16_08h48.12.482,HF_wild_card,2022.2.4,Win32,60.57302078,610708c5efbf18e4295facc3,64d2fd46c836a06233681665,64dc7cd0aa9367f4d27f3766,,,,,,,ctch,resources/DG.BMP,resources/DY.BMP,Door3,0.402673471,-0.140348382,1,0,0,0.8079,optionRight,70,2505,2,0,0,0,0,1,,,,,,,,,,,,,,,,,,,,,,,,,,,,,,,,,,,,,,,
,,,,,,,,2023-08-16_08h48.12.482,HF_wild_card,2022.2.4,Win32,60.57302078,610708c5efbf18e4295facc3,64d2fd46c836a06233681665,64dc7cd0aa9367f4d27f3766,,,,,,,sngl,resources/Empty.png,resources/DY.BMP,Door3,0.349851649,-0.019877629,1,0,0,0.5152,optionRight,70,2575,2,1,0,1,0,1,,,,,,,,,,,,,,,,,,,,,,,,,,,,,,,,,,,,,,,
,,,,,,,,2023-08-16_08h48.12.482,HF_wild_card,2022.2.4,Win32,60.57302078,610708c5efbf18e4295facc3,64d2fd46c836a06233681665,64dc7cd0aa9367f4d27f3766,,,,,,,sngl,resources/DG.BMP,resources/Empty.png,Door2,-0.145931839,0.032944146,1,0,0,0.6817,optionLeft,20,2595,2,2,0,2,0,1,,,,,,,,,,,,,,,,,,,,,,,,,,,,,,,,,,,,,,,
,,,,,,,,2023-08-16_08h48.12.482,HF_wild_card,2022.2.4,Win32,60.57302078,610708c5efbf18e4295facc3,64d2fd46c836a06233681665,64dc7cd0aa9367f4d27f3766,,,,,,,decisionTrl,resources/DY.BMP,resources/DR.BMP,Door3,-0.221921075,-0.027291208,1,0,0,0.5815,optionLeft,70,2665,2,3,0,3,0,1,,,,,,,,,,,,,,,,,,,,,,,,,,,,,,,,,,,,,,,
,,,,,,,,2023-08-16_08h48.12.482,HF_wild_card,2022.2.4,Win32,60.57302078,610708c5efbf18e4295facc3,64d2fd46c836a06233681665,64dc7cd0aa9367f4d27f3766,,,,,,,sngl,resources/DR.BMP,resources/Empty.png,Door4,-0.196900254,0.027383973,1,0,0,0.598,optionLeft,60,2725,2,4,0,4,0,1,,,,,,,,,,,,,,,,,,,,,,,,,,,,,,,,,,,,,,,
,,,,,,,,2023-08-16_08h48.12.482,HF_wild_card,2022.2.4,Win32,60.57302078,610708c5efbf18e4295facc3,64d2fd46c836a06233681665,64dc7cd0aa9367f4d27f3766,,,,,,,sngl,resources/DP.BMP,resources/Empty.png,WildCard_Ex,-0.26084242,-0.013390684,1,0,0,0.4482,optionLeft,5,2730,2,5,0,5,0,1,,,,,,,,,,,,,,,,,,,,,,,,,,,,,,,,,,,,,,,
,,,,,,,,2023-08-16_08h48.12.482,HF_wild_card,2022.2.4,Win32,60.57302078,610708c5efbf18e4295facc3,64d2fd46c836a06233681665,64dc7cd0aa9367f4d27f3766,,,,,,,decisionTrl,resources/DP.BMP,resources/DR.BMP,Door4,0.376725876,-0.027291208,1,0,0,0.4982,optionRight,60,2790,2,6,0,6,0,1,,,,,,,,,,,,,,,,,,,,,,,,,,,,,,,,,,,,,,,
,,,,,,,,2023-08-16_08h48.12.482,HF_wild_card,2022.2.4,Win32,60.57302078,610708c5efbf18e4295facc3,64d2fd46c836a06233681665,64dc7cd0aa9367f4d27f3766,,,,,,,decisionTrl,resources/DR.BMP,resources/DY.BMP,Door4,-0.27381617,0.020897075,1,0,0,0.4986,optionLeft,60,2850,2,7,0,7,0,1,,,,,,,,,,,,,,,,,,,,,,,,,,,,,,,,,,,,,,,
,,,,,,,,2023-08-16_08h48.12.482,HF_wild_card,2022.2.4,Win32,60.57302078,610708c5efbf18e4295facc3,64d2fd46c836a06233681665,64dc7cd0aa9367f4d27f3766,,,,,,,decisionTrl,resources/DB.BMP,resources/DG.BMP,Door1,-0.255282201,-0.018950949,1,0,0,0.4477,optionLeft,30,2880,2,8,0,8,0,1,,,,,,,,,,,,,,,,,,,,,,,,,,,,,,,,,,,,,,,
,,,,,,,,2023-08-16_08h48.12.482,HF_wild_card,2022.2.4,Win32,60.57302078,610708c5efbf18e4295facc3,64d2fd46c836a06233681665,64dc7cd0aa9367f4d27f3766,,,,,,,decisionTrl,resources/DY.BMP,resources/DR.BMP,Door3,-0.298837038,-0.048605263,1,0,0,0.5316,optionLeft,70,2950,2,9,0,9,0,1,,,,,,,,,,,,,,,,,,,,,,,,,,,,,,,,,,,,,,,
,,,,,,,,2023-08-16_08h48.12.482,HF_wild_card,2022.2.4,Win32,60.57302078,610708c5efbf18e4295facc3,64d2fd46c836a06233681665,64dc7cd0aa9367f4d27f3766,,,,,,,decisionTrl,resources/DY.BMP,resources/DR.BMP,Door4,0.31741725,-0.071772724,1,0,0,0.6106,optionRight,80,3030,2,10,0,10,0,1,,,,,,,,,,,,,,,,,,,,,,,,,,,,,,,,,,,,,,,
,,,,,,,,2023-08-16_08h48.12.482,HF_wild_card,2022.2.4,Win32,60.57302078,610708c5efbf18e4295facc3,64d2fd46c836a06233681665,64dc7cd0aa9367f4d27f3766,,,,,,,decisionTrl,resources/DB.BMP,resources/DG.BMP,Door1,-0.307177296,-0.027291208,1,0,0,0.4647,optionLeft,30,3060,2,11,0,11,0,1,,,,,,,,,,,,,,,,,,,,,,,,,,,,,,,,,,,,,,,
,,,,,,,,2023-08-16_08h48.12.482,HF_wild_card,2022.2.4,Win32,60.57302078,610708c5efbf18e4295facc3,64d2fd46c836a06233681665,64dc7cd0aa9367f4d27f3766,,,,,,,decisionTrl,resources/DR.BMP,resources/DP.BMP,WildCard_Ex,0.460128738,-0.083819795,1,0,0,0.4648,optionRight,5,3065,2,12,0,12,0,1,,,,,,,,,,,,,,,,,,,,,,,,,,,,,,,,,,,,,,,
,,,,,,,,2023-08-16_08h48.12.482,HF_wild_card,2022.2.4,Win32,60.57302078,610708c5efbf18e4295facc3,64d2fd46c836a06233681665,64dc7cd0aa9367f4d27f3766,,,,,,,ctch,resources/DR.BMP,resources/DB.BMP,Door1,0.251621631,-0.025437848,1,0,0,0.7986,optionRight,30,3095,2,13,0,13,0,1,,,,,,,,,,,,,,,,,,,,,,,,,,,,,,,,,,,,,,,
,,,,,,,,2023-08-16_08h48.12.482,HF_wild_card,2022.2.4,Win32,60.57302078,610708c5efbf18e4295facc3,64d2fd46c836a06233681665,64dc7cd0aa9367f4d27f3766,,,,,,,ctch,resources/DY.BMP,resources/DG.BMP,Door3,-0.331271484,-0.010610645,1,0,0,0.665,optionLeft,70,3165,2,14,0,14,0,1,,,,,,,,,,,,,,,,,,,,,,,,,,,,,,,,,,,,,,,
,,,,,,,,2023-08-16_08h48.12.482,HF_wild_card,2022.2.4,Win32,60.57302078,610708c5efbf18e4295facc3,64d2fd46c836a06233681665,64dc7cd0aa9367f4d27f3766,,,,,,,decisionTrl,resources/DP.BMP,resources/DG.BMP,Door2,0.151538254,-0.007830559,1,0,0,0.7146,optionRight,20,3185,2,15,0,15,0,1,,,,,,,,,,,,,,,,,,,,,,,,,,,,,,,,,,,,,,,
,,,,,,,,2023-08-16_08h48.12.482,HF_wild_card,2022.2.4,Win32,60.57302078,610708c5efbf18e4295facc3,64d2fd46c836a06233681665,64dc7cd0aa9367f4d27f3766,,,,,,,decisionTrl,resources/DR.BMP,resources/DY.BMP,Door4,-0.277522982,-0.038411598,1,0,0,0.4149,optionLeft,60,3245,2,16,0,16,0,1,,,,,,,,,,,,,,,,,,,,,,,,,,,,,,,,,,,,,,,
,,,,,,,,2023-08-16_08h48.12.482,HF_wild_card,2022.2.4,Win32,60.57302078,610708c5efbf18e4295facc3,64d2fd46c836a06233681665,64dc7cd0aa9367f4d27f3766,,,,,,,ctch,resources/DB.BMP,resources/DR.BMP,Door4,0.22752749,-0.028217934,1,0,0,0.748,optionRight,80,3325,2,17,0,17,0,1,,,,,,,,,,,,,,,,,,,,,,,,,,,,,,,,,,,,,,,
,,,,,,,,2023-08-16_08h48.12.482,HF_wild_card,2022.2.4,Win32,60.57302078,610708c5efbf18e4295facc3,64d2fd46c836a06233681665,64dc7cd0aa9367f4d27f3766,,,,,,,sngl,resources/DB.BMP,resources/Empty.png,Door1,-0.347952047,-0.077332943,1,0,0,0.5143,optionLeft,30,3355,2,18,0,18,0,1,,,,,,,,,,,,,,,,,,,,,,,,,,,,,,,,,,,,,,,
,,,,,,,,2023-08-16_08h48.12.482,HF_wild_card,2022.2.4,Win32,60.57302078,610708c5efbf18e4295facc3,64d2fd46c836a06233681665,64dc7cd0aa9367f4d27f3766,,,,,,,decisionTrl,resources/DG.BMP,resources/DB.BMP,Door2,-0.284009881,-0.075479537,1,0,0,0.5484,optionLeft,20,3375,2,19,0,19,0,1,,,,,,,,,,,,,,,,,,,,,,,,,,,,,,,,,,,,,,,
,,,,,,,,2023-08-16_08h48.12.482,HF_wild_card,2022.2.4,Win32,60.57302078,610708c5efbf18e4295facc3,64d2fd46c836a06233681665,64dc7cd0aa9367f4d27f3766,,,,,,,decisionTrl,resources/DG.BMP,resources/DB.BMP,Door1,0.396186572,-0.0319247,1,0,0,0.532,optionRight,30,3405,2,20,0,20,0,1,,,,,,,,,,,,,,,,,,,,,,,,,,,,,,,,,,,,,,,
,,,,,,,,2023-08-16_08h48.12.482,HF_wild_card,2022.2.4,Win32,60.57302078,610708c5efbf18e4295facc3,64d2fd46c836a06233681665,64dc7cd0aa9367f4d27f3766,,,,,,,decisionTrl,resources/DY.BMP,resources/DP.BMP,Door3,-0.259915693,-0.020804356,1,0,0,0.5813,optionLeft,70,3475,2,21,0,21,0,1,,,,,,,,,,,,,,,,,,,,,,,,,,,,,,,,,,,,,,,
,,,,,,,,2023-08-16_08h48.12.482,HF_wild_card,2022.2.4,Win32,60.57302078,610708c5efbf18e4295facc3,64d2fd46c836a06233681665,64dc7cd0aa9367f4d27f3766,,,,,,,sngl,resources/Empty.png,resources/DG.BMP,Door2,0.266448788,-0.032851426,1,0,0,0.5318,optionRight,40,3515,2,22,0,22,0,1,,,,,,,,,,,,,,,,,,,,,,,,,,,,,,,,,,,,,,,
,,,,,,,,2023-08-16_08h48.12.482,HF_wild_card,2022.2.4,Win32,60.57302078,610708c5efbf18e4295facc3,64d2fd46c836a06233681665,64dc7cd0aa9367f4d27f3766,,,,,,,decisionTrl,resources/DG.BMP,resources/DP.BMP,WildCard_Ex,0.18304602,-0.033778106,1,0,0,0.7314,optionRight,95,3610,2,23,0,23,0,1,,,,,,,,,,,,,,,,,,,,,,,,,,,,,,,,,,,,,,,
,,,,,,,,2023-08-16_08h48.12.482,HF_wild_card,2022.2.4,Win32,60.57302078,610708c5efbf18e4295facc3,64d2fd46c836a06233681665,64dc7cd0aa9367f4d27f3766,,,,,,,sngl,resources/Empty.png,resources/DP.BMP,WildCard_Ex,0.451788479,-0.013390684,1,0,0,0.4762,optionRight,95,3705,2,24,0,24,0,1,,,,,,,,,,,,,,,,,,,,,,,,,,,,,,,,,,,,,,,
,,,,,,,,2023-08-16_08h48.12.482,HF_wild_card,2022.2.4,Win32,60.57302078,610708c5efbf18e4295facc3,64d2fd46c836a06233681665,64dc7cd0aa9367f4d27f3766,,,,,,,sngl,resources/Empty.png,resources/DB.BMP,Door1,0.178412481,-0.011537371,1,0,0,0.6653,optionRight,30,3735,2,25,0,25,0,1,,,,,,,,,,,,,,,,,,,,,,,,,,,,,,,,,,,,,,,
,,,,,,,,2023-08-16_08h48.12.482,HF_wild_card,2022.2.4,Win32,60.57302078,610708c5efbf18e4295facc3,64d2fd46c836a06233681665,64dc7cd0aa9367f4d27f3766,,,,,,,ctch,resources/DG.BMP,resources/DY.BMP,Door3,0.293323015,0.0005097,1,0,0,1.4646,optionRight,70,3805,2,26,0,26,0,1,,,,,,,,,,,,,,,,,,,,,,,,,,,,,,,,,,,,,,,
,,,,,,,,2023-08-16_08h48.12.482,HF_wild_card,2022.2.4,Win32,60.57302078,610708c5efbf18e4295facc3,64d2fd46c836a06233681665,64dc7cd0aa9367f4d27f3766,,,,,,,decisionTrl,resources/DB.BMP,resources/DG.BMP,Door1,-0.167245847,-0.016170863,1,0,0,0.4644,optionLeft,30,3835,2,27,0,27,0,1,,,,,,,,,,,,,,,,,,,,,,,,,,,,,,,,,,,,,,,
,,,,,,,,2023-08-16_08h48.12.482,HF_wild_card,2022.2.4,Win32,60.57302078,610708c5efbf18e4295facc3,64d2fd46c836a06233681665,64dc7cd0aa9367f4d27f3766,,,,,,,ctch,resources/DB.BMP,resources/DR.BMP,Door4,0.416573901,-0.054165481,1,0,0,0.9648,optionRight,80,3915,2,28,0,28,0,1,,,,,,,,,,,,,,,,,,,,,,,,,,,,,,,,,,,,,,,
,,,,,,,,2023-08-16_08h48.12.482,HF_wild_card,2022.2.4,Win32,60.57302078,610708c5efbf18e4295facc3,64d2fd46c836a06233681665,64dc7cd0aa9367f4d27f3766,,,,,,,ctch,resources/DR.BMP,resources/DB.BMP,Door4,-0.271036084,-0.0319247,1,0,0,0.6483,optionLeft,80,3995,2,29,0,29,0,1,,,,,,,,,,,,,,,,,,,,,,,,,,,,,,,,,,,,,,,
,,,,,,,,2023-08-16_08h48.12.482,HF_wild_card,2022.2.4,Win32,60.57302078,610708c5efbf18e4295facc3,64d2fd46c836a06233681665,64dc7cd0aa9367f4d27f3766,,,,,,,ctch,resources/DY.BMP,resources/DG.BMP,Door3,-0.239528364,-0.038411598,1,0,0,0.6649,optionLeft,70,4065,2,30,0,30,0,1,,,,,,,,,,,,,,,,,,,,,,,,,,,,,,,,,,,,,,,
,,,,,,,,2023-08-16_08h48.12.482,HF_wild_card,2022.2.4,Win32,60.57302078,610708c5efbf18e4295facc3,64d2fd46c836a06233681665,64dc7cd0aa9367f4d27f3766,,,,,,,sngl,resources/Empty.png,resources/DR.BMP,Door4,0.272935686,-0.016170863,1,0,0,0.6815,optionRight,80,4145,2,31,0,31,0,1,,,,,,,,,,,,,,,,,,,,,,,,,,,,,,,,,,,,,,,
,,,,,,,,2023-08-16_08h48.12.482,HF_wild_card,2022.2.4,Win32,60.57302078,610708c5efbf18e4295facc3,64d2fd46c836a06233681665,64dc7cd0aa9367f4d27f3766,,,,,,,sngl,resources/DP.BMP,resources/Empty.png,WildCard_Ex,-0.302543803,-0.002270386,1,0,0,0.6481,optionLeft,95,4240,2,32,0,32,0,1,,,,,,,,,,,,,,,,,,,,,,,,,,,,,,,,,,,,,,,
,,,,,,,,2023-08-16_08h48.12.482,HF_wild_card,2022.2.4,Win32,60.57302078,610708c5efbf18e4295facc3,64d2fd46c836a06233681665,64dc7cd0aa9367f4d27f3766,,,,,,,decisionTrl,resources/DY.BMP,resources/DR.BMP,Door3,-0.197826934,-0.0319247,1,0,0,0.5311,optionLeft,70,4310,2,33,0,33,0,1,,,,,,,,,,,,,,,,,,,,,,,,,,,,,,,,,,,,,,,
,,,,,,,,2023-08-16_08h48.12.482,HF_wild_card,2022.2.4,Win32,60.57302078,610708c5efbf18e4295facc3,64d2fd46c836a06233681665,64dc7cd0aa9367f4d27f3766,,,,,,,sngl,resources/DY.BMP,resources/Empty.png,Door3,-0.156125457,-0.050458669,1,0,0,0.6651,optionLeft,70,4380,2,34,0,34,0,1,,,,,,,,,,,,,,,,,,,,,,,,,,,,,,,,,,,,,,,
,,,,,,,,2023-08-16_08h48.12.482,HF_wild_card,2022.2.4,Win32,60.57302078,610708c5efbf18e4295facc3,64d2fd46c836a06233681665,64dc7cd0aa9367f4d27f3766,,,,,,,decisionTrl,resources/DG.BMP,resources/DB.BMP,Door2,-0.211727411,-0.039338278,1,0,0,1.0306,optionLeft,40,4420,2,35,0,35,0,1,,,,,,,,,,,,,,,,,,,,,,,,,,,,,,,,,,,,,,,
,,,,,,,,2023-08-16_08h48.12.482,HF_wild_card,2022.2.4,Win32,60.57302078,610708c5efbf18e4295facc3,64d2fd46c836a06233681665,64dc7cd0aa9367f4d27f3766,,,,,,,decisionTrl,resources/DB.BMP,resources/DG.BMP,Door2,0.267375514,-0.029144614,1,0,0,0.6982,optionRight,20,4440,2,36,0,36,0,1,,,,,,,,,,,,,,,,,,,,,,,,,,,,,,,,,,,,,,,
,,,,,,,,2023-08-16_08h48.12.482,HF_wild_card,2022.2.4,Win32,60.57302078,610708c5efbf18e4295facc3,64d2fd46c836a06233681665,64dc7cd0aa9367f4d27f3766,,,,,,,sngl,resources/Empty.png,resources/DP.BMP,WildCard_Ex,0.182119294,-0.034704832,1,0,0,0.698,optionRight,5,4445,2,37,0,37,0,1,,,,,,,,,,,,,,,,,,,,,,,,,,,,,,,,,,,,,,,
,,,,,,,,2023-08-16_08h48.12.482,HF_wild_card,2022.2.4,Win32,60.57302078,610708c5efbf18e4295facc3,64d2fd46c836a06233681665,64dc7cd0aa9367f4d27f3766,,,,,,,decisionTrl,resources/DP.BMP,resources/DB.BMP,WildCard_Ex,-0.343318554,-0.009683965,1,0,0,0.5317,optionLeft,5,4450,2,38,0,38,0,1,,,,,,,,,,,,,,,,,,,,,,,,,,,,,,,,,,,,,,,
,,,,,,,,2023-08-16_08h48.12.482,HF_wild_card,2022.2.4,Win32,60.57302078,610708c5efbf18e4295facc3,64d2fd46c836a06233681665,64dc7cd0aa9367f4d27f3766,,,,,,,decisionTrl,resources/DR.BMP,resources/DY.BMP,Door3,0.457348651,-0.0319247,1,0,0,0.548,optionRight,70,4520,2,39,0,39,0,1,,,,,,,,,,,,,,,,,,,,,,,,,,,,,,,,,,,,,,,
,,,,,,,,2023-08-16_08h48.12.482,HF_wild_card,2022.2.4,Win32,60.57302078,610708c5efbf18e4295facc3,64d2fd46c836a06233681665,64dc7cd0aa9367f4d27f3766,,,,,,,decisionTrl,resources/DG.BMP,resources/DB.BMP,Door2,-0.372046188,0.040357724,1,0,0,0.465,optionLeft,40,4560,2,40,0,40,0,1,,,,,,,,,,,,,,,,,,,,,,,,,,,,,,,,,,,,,,,
,,,,,,,,2023-08-16_08h48.12.482,HF_wild_card,2022.2.4,Win32,60.57302078,610708c5efbf18e4295facc3,64d2fd46c836a06233681665,64dc7cd0aa9367f4d27f3766,,,,,,,decisionTrl,resources/DP.BMP,resources/DY.BMP,WildCard_Ex,-0.217287583,0.007923325,1,0,0,0.365,optionLeft,5,4565,2,41,0,41,0,1,,,,,,,,,,,,,,,,,,,,,,,,,,,,,,,,,,,,,,,
,,,,,,,,2023-08-16_08h48.12.482,HF_wild_card,2022.2.4,Win32,60.57302078,610708c5efbf18e4295facc3,64d2fd46c836a06233681665,64dc7cd0aa9367f4d27f3766,,,,,,,decisionTrl,resources/DB.BMP,resources/DP.BMP,WildCard_Ex,0.347071563,-0.012464051,1,0,0,0.3816,optionRight,95,4660,2,42,0,42,0,1,,,,,,,,,,,,,,,,,,,,,,,,,,,,,,,,,,,,,,,
,,,,,,,,2023-08-16_08h48.12.482,HF_wild_card,2022.2.4,Win32,60.57302078,610708c5efbf18e4295facc3,64d2fd46c836a06233681665,64dc7cd0aa9367f4d27f3766,,,,,,,decisionTrl,resources/DR.BMP,resources/DY.BMP,Door4,-0.193193442,-0.024511121,1,0,0,1.6146,optionLeft,60,4720,2,43,0,43,0,1,,,,,,,,,,,,,,,,,,,,,,,,,,,,,,,,,,,,,,,
,,,,,,,,2023-08-16_08h48.12.482,HF_wild_card,2022.2.4,Win32,60.57302078,610708c5efbf18e4295facc3,64d2fd46c836a06233681665,64dc7cd0aa9367f4d27f3766,,,,,,,,,,,,,,,,,,,,,,,,,,1,0,1,0,1,,,,,,,,,,,,,,,,,,,,,,,,,,,,,,,,,,
,,,,,,,,2023-08-16_08h48.12.482,HF_wild_card,2022.2.4,Win32,60.57302078,610708c5efbf18e4295facc3,64d2fd46c836a06233681665,64dc7cd0aa9367f4d27f3766,,,,,,,sngl,resources/DB.BMP,resources/Empty.png,Door1,-0.411894212,-0.106987256,1,0,0,0.6092,optionLeft,30,4750,3,0,0,0,0,1,,,,,,,,,,,,,,,,,,,,,,,,,,,,,,,,,,,,,,,
,,,,,,,,2023-08-16_08h48.12.482,HF_wild_card,2022.2.4,Win32,60.57302078,610708c5efbf18e4295facc3,64d2fd46c836a06233681665,64dc7cd0aa9367f4d27f3766,,,,,,,decisionTrl,resources/DP.BMP,resources/DG.BMP,WildCard_Ex,-0.277522982,-0.078259623,1,0,0,0.7815,optionLeft,95,4845,3,1,0,1,0,1,,,,,,,,,,,,,,,,,,,,,,,,,,,,,,,,,,,,,,,
,,,,,,,,2023-08-16_08h48.12.482,HF_wild_card,2022.2.4,Win32,60.57302078,610708c5efbf18e4295facc3,64d2fd46c836a06233681665,64dc7cd0aa9367f4d27f3766,,,,,,,ctch,resources/DY.BMP,resources/DG.BMP,Door3,-0.398920415,-0.045825177,1,0,0,0.5764,optionLeft,70,4915,3,2,0,2,0,1,,,,,,,,,,,,,,,,,,,,,,,,,,,,,,,,,,,,,,,
,,,,,,,,2023-08-16_08h48.12.482,HF_wild_card,2022.2.4,Win32,60.57302078,610708c5efbf18e4295facc3,64d2fd46c836a06233681665,64dc7cd0aa9367f4d27f3766,,,,,,,decisionTrl,resources/DB.BMP,resources/DG.BMP,Door2,0.281275945,-0.008757285,1,0,0,0.515,optionRight,20,4935,3,3,0,3,0,1,,,,,,,,,,,,,,,,,,,,,,,,,,,,,,,,,,,,,,,
,,,,,,,,2023-08-16_08h48.12.482,HF_wild_card,2022.2.4,Win32,60.57302078,610708c5efbf18e4295facc3,64d2fd46c836a06233681665,64dc7cd0aa9367f4d27f3766,,,,,,,decisionTrl,resources/DY.BMP,resources/DP.BMP,Door3,-0.211727411,0.013483497,1,0,0,0.8648,optionLeft,70,5005,3,4,0,4,0,1,,,,,,,,,,,,,,,,,,,,,,,,,,,,,,,,,,,,,,,
,,,,,,,,2023-08-16_08h48.12.482,HF_wild_card,2022.2.4,Win32,60.57302078,610708c5efbf18e4295facc3,64d2fd46c836a06233681665,64dc7cd0aa9367f4d27f3766,,,,,,,decisionTrl,resources/DY.BMP,resources/DR.BMP,Door3,-0.221921075,-0.029144614,1,0,0,0.5817,optionLeft,70,5075,3,5,0,5,0,1,,,,,,,,,,,,,,,,,,,,,,,,,,,,,,,,,,,,,,,
,,,,,,,,2023-08-16_08h48.12.482,HF_wild_card,2022.2.4,Win32,60.57302078,610708c5efbf18e4295facc3,64d2fd46c836a06233681665,64dc7cd0aa9367f4d27f3766,,,,,,,sngl,resources/Empty.png,resources/DP.BMP,WildCard_Ex,0.355411821,-0.011537371,1,0,0,0.4797,optionRight,95,5170,3,6,0,6,0,1,,,,,,,,,,,,,,,,,,,,,,,,,,,,,,,,,,,,,,,
,,,,,,,,2023-08-16_08h48.12.482,HF_wild_card,2022.2.4,Win32,60.57302078,610708c5efbf18e4295facc3,64d2fd46c836a06233681665,64dc7cd0aa9367f4d27f3766,,,,,,,decisionTrl,resources/DB.BMP,resources/DG.BMP,Door2,0.238647834,-0.026364528,1,0,0,1.7479,optionRight,40,5210,3,7,0,7,0,1,,,,,,,,,,,,,,,,,,,,,,,,,,,,,,,,,,,,,,,
,,,,,,,,2023-08-16_08h48.12.482,HF_wild_card,2022.2.4,Win32,60.57302078,610708c5efbf18e4295facc3,64d2fd46c836a06233681665,64dc7cd0aa9367f4d27f3766,,,,,,,sngl,resources/DG.BMP,resources/Empty.png,Door2,-0.222847801,-0.038411598,1,0,0,0.5145,optionLeft,40,5250,3,8,0,8,0,1,,,,,,,,,,,,,,,,,,,,,,,,,,,,,,,,,,,,,,,
,,,,,,,,2023-08-16_08h48.12.482,HF_wild_card,2022.2.4,Win32,60.57302078,610708c5efbf18e4295facc3,64d2fd46c836a06233681665,64dc7cd0aa9367f4d27f3766,,,,,,,sngl,resources/DR.BMP,resources/Empty.png,Door4,-0.297910358,-0.075479537,1,0,0,0.6472,optionLeft,80,5330,3,9,0,9,0,1,,,,,,,,,,,,,,,,,,,,,,,,,,,,,,,,,,,,,,,
,,,,,,,,2023-08-16_08h48.12.482,HF_wild_card,2022.2.4,Win32,60.57302078,610708c5efbf18e4295facc3,64d2fd46c836a06233681665,64dc7cd0aa9367f4d27f3766,,,,,,,decisionTrl,resources/DP.BMP,resources/DB.BMP,WildCard_Ex,-0.279376389,-0.07455281,1,0,0,0.6976,optionLeft,95,5425,3,10,0,10,0,1,,,,,,,,,,,,,,,,,,,,,,,,,,,,,,,,,,,,,,,
,,,,,,,,2023-08-16_08h48.12.482,HF_wild_card,2022.2.4,Win32,60.57302078,610708c5efbf18e4295facc3,64d2fd46c836a06233681665,64dc7cd0aa9367f4d27f3766,,,,,,,decisionTrl,resources/DG.BMP,resources/DB.BMP,Door2,-0.282156475,-0.042118411,1,0,0,1.031,optionLeft,40,5465,3,11,0,11,0,1,,,,,,,,,,,,,,,,,,,,,,,,,,,,,,,,,,,,,,,
,,,,,,,,2023-08-16_08h48.12.482,HF_wild_card,2022.2.4,Win32,60.57302078,610708c5efbf18e4295facc3,64d2fd46c836a06233681665,64dc7cd0aa9367f4d27f3766,,,,,,,ctch,resources/DR.BMP,resources/DB.BMP,Door4,-0.210800731,-0.054165481,1,0,0,0.5649,optionLeft,80,5545,3,12,0,12,0,1,,,,,,,,,,,,,,,,,,,,,,,,,,,,,,,,,,,,,,,
,,,,,,,,2023-08-16_08h48.12.482,HF_wild_card,2022.2.4,Win32,60.57302078,610708c5efbf18e4295facc3,64d2fd46c836a06233681665,64dc7cd0aa9367f4d27f3766,,,,,,,decisionTrl,resources/DG.BMP,resources/DB.BMP,Door2,-0.266402592,-0.07455281,1,0,0,0.6318,optionLeft,20,5565,3,13,0,13,0,1,,,,,,,,,,,,,,,,,,,,,,,,,,,,,,,,,,,,,,,
,,,,,,,,2023-08-16_08h48.12.482,HF_wild_card,2022.2.4,Win32,60.57302078,610708c5efbf18e4295facc3,64d2fd46c836a06233681665,64dc7cd0aa9367f4d27f3766,,,,,,,decisionTrl,resources/DY.BMP,resources/DR.BMP,Door3,-0.195973528,-0.068065958,1,0,0,0.582,optionLeft,70,5635,3,14,0,14,0,1,,,,,,,,,,,,,,,,,,,,,,,,,,,,,,,,,,,,,,,
,,,,,,,,2023-08-16_08h48.12.482,HF_wild_card,2022.2.4,Win32,60.57302078,610708c5efbf18e4295facc3,64d2fd46c836a06233681665,64dc7cd0aa9367f4d27f3766,,,,,,,decisionTrl,resources/DR.BMP,resources/DY.BMP,Door4,-0.202460426,-0.059725654,1,0,0,0.4984,optionLeft,60,5695,3,15,0,15,0,1,,,,,,,,,,,,,,,,,,,,,,,,,,,,,,,,,,,,,,,
,,,,,,,,2023-08-16_08h48.12.482,HF_wild_card,2022.2.4,Win32,60.57302078,610708c5efbf18e4295facc3,64d2fd46c836a06233681665,64dc7cd0aa9367f4d27f3766,,,,,,,decisionTrl,resources/DP.BMP,resources/DR.BMP,WildCard_Ex,-0.178366285,-0.018950949,1,0,0,0.6487,optionLeft,95,5790,3,16,0,16,0,1,,,,,,,,,,,,,,,,,,,,,,,,,,,,,,,,,,,,,,,
,,,,,,,,2023-08-16_08h48.12.482,HF_wild_card,2022.2.4,Win32,60.57302078,610708c5efbf18e4295facc3,64d2fd46c836a06233681665,64dc7cd0aa9367f4d27f3766,,,,,,,ctch,resources/DG.BMP,resources/DY.BMP,Door3,0.322050695,0.019043669,1,0,0,0.5648,optionRight,70,5860,3,17,0,17,0,1,,,,,,,,,,,,,,,,,,,,,,,,,,,,,,,,,,,,,,,
,,,,,,,,2023-08-16_08h48.12.482,HF_wild_card,2022.2.4,Win32,60.57302078,610708c5efbf18e4295facc3,64d2fd46c836a06233681665,64dc7cd0aa9367f4d27f3766,,,,,,,decisionTrl,resources/DY.BMP,resources/DR.BMP,Door3,-0.256208927,-0.027291208,1,0,0,0.5648,optionLeft,70,5930,3,18,0,18,0,1,,,,,,,,,,,,,,,,,,,,,,,,,,,,,,,,,,,,,,,
,,,,,,,,2023-08-16_08h48.12.482,HF_wild_card,2022.2.4,Win32,60.57302078,610708c5efbf18e4295facc3,64d2fd46c836a06233681665,64dc7cd0aa9367f4d27f3766,,,,,,,decisionTrl,resources/DG.BMP,resources/DB.BMP,Door1,0.232161029,-0.044898497,1,0,0,1.0149,optionRight,30,5960,3,19,0,19,0,1,,,,,,,,,,,,,,,,,,,,,,,,,,,,,,,,,,,,,,,
,,,,,,,,2023-08-16_08h48.12.482,HF_wild_card,2022.2.4,Win32,60.57302078,610708c5efbf18e4295facc3,64d2fd46c836a06233681665,64dc7cd0aa9367f4d27f3766,,,,,,,sngl,resources/DY.BMP,resources/Empty.png,Door3,-0.182073051,-0.052312075,1,0,0,0.5234,optionLeft,70,6030,3,20,0,20,0,1,,,,,,,,,,,,,,,,,,,,,,,,,,,,,,,,,,,,,,,
,,,,,,,,2023-08-16_08h48.12.482,HF_wild_card,2022.2.4,Win32,60.57302078,610708c5efbf18e4295facc3,64d2fd46c836a06233681665,64dc7cd0aa9367f4d27f3766,,,,,,,ctch,resources/DG.BMP,resources/DY.BMP,Door3,0.173779036,-0.024511121,1,0,0,0.6484,optionRight,70,6100,3,21,0,21,0,1,,,,,,,,,,,,,,,,,,,,,,,,,,,,,,,,,,,,,,,
,,,,,,,,2023-08-16_08h48.12.482,HF_wild_card,2022.2.4,Win32,60.57302078,610708c5efbf18e4295facc3,64d2fd46c836a06233681665,64dc7cd0aa9367f4d27f3766,,,,,,,decisionTrl,resources/DR.BMP,resources/DY.BMP,Door4,-0.255282201,-0.056018888,1,0,0,0.6485,optionLeft,80,6180,3,22,0,22,0,1,,,,,,,,,,,,,,,,,,,,,,,,,,,,,,,,,,,,,,,
,,,,,,,,2023-08-16_08h48.12.482,HF_wild_card,2022.2.4,Win32,60.57302078,610708c5efbf18e4295facc3,64d2fd46c836a06233681665,64dc7cd0aa9367f4d27f3766,,,,,,,decisionTrl,resources/DR.BMP,resources/DP.BMP,WildCard_Ex,0.297029828,-0.021731035,1,0,0,0.5147,optionRight,95,6275,3,23,0,23,0,1,,,,,,,,,,,,,,,,,,,,,,,,,,,,,,,,,,,,,,,
,,,,,,,,2023-08-16_08h48.12.482,HF_wild_card,2022.2.4,Win32,60.57302078,610708c5efbf18e4295facc3,64d2fd46c836a06233681665,64dc7cd0aa9367f4d27f3766,,,,,,,sngl,resources/Empty.png,resources/DB.BMP,Door1,0.283129398,-0.018950949,1,0,0,0.6983,optionRight,30,6305,3,24,0,24,0,1,,,,,,,,,,,,,,,,,,,,,,,,,,,,,,,,,,,,,,,
,,,,,,,,2023-08-16_08h48.12.482,HF_wild_card,2022.2.4,Win32,60.57302078,610708c5efbf18e4295facc3,64d2fd46c836a06233681665,64dc7cd0aa9367f4d27f3766,,,,,,,decisionTrl,resources/DG.BMP,resources/DB.BMP,Door2,-0.156125457,-0.036558192,1,0,0,0.565,optionLeft,40,6345,3,25,0,25,0,1,,,,,,,,,,,,,,,,,,,,,,,,,,,,,,,,,,,,,,,
,,,,,,,,2023-08-16_08h48.12.482,HF_wild_card,2022.2.4,Win32,60.57302078,610708c5efbf18e4295facc3,64d2fd46c836a06233681665,64dc7cd0aa9367f4d27f3766,,,,,,,ctch,resources/DR.BMP,resources/DB.BMP,Door4,-0.246015263,-0.081039709,1,0,0,1.1976,optionLeft,80,6425,3,26,0,26,0,1,,,,,,,,,,,,,,,,,,,,,,,,,,,,,,,,,,,,,,,
,,,,,,,,2023-08-16_08h48.12.482,HF_wild_card,2022.2.4,Win32,60.57302078,610708c5efbf18e4295facc3,64d2fd46c836a06233681665,64dc7cd0aa9367f4d27f3766,,,,,,,ctch,resources/DB.BMP,resources/DR.BMP,Door4,0.193239638,-0.056945567,1,0,0,0.8476,optionRight,60,6485,3,27,0,27,0,1,,,,,,,,,,,,,,,,,,,,,,,,,,,,,,,,,,,,,,,
,,,,,,,,2023-08-16_08h48.12.482,HF_wild_card,2022.2.4,Win32,60.57302078,610708c5efbf18e4295facc3,64d2fd46c836a06233681665,64dc7cd0aa9367f4d27f3766,,,,,,,sngl,resources/Empty.png,resources/DG.BMP,Door2,0.222894044,-0.026364528,1,0,0,0.598,optionRight,20,6505,3,28,0,28,0,1,,,,,,,,,,,,,,,,,,,,,,,,,,,,,,,,,,,,,,,
,,,,,,,,2023-08-16_08h48.12.482,HF_wild_card,2022.2.4,Win32,60.57302078,610708c5efbf18e4295facc3,64d2fd46c836a06233681665,64dc7cd0aa9367f4d27f3766,,,,,,,decisionTrl,resources/DP.BMP,resources/DY.BMP,WildCard_Ex,-0.294203545,-0.056945567,1,0,0,0.5819,optionLeft,5,6510,3,29,0,29,0,1,,,,,,,,,,,,,,,,,,,,,,,,,,,,,,,,,,,,,,,
,,,,,,,,2023-08-16_08h48.12.482,HF_wild_card,2022.2.4,Win32,60.57302078,610708c5efbf18e4295facc3,64d2fd46c836a06233681665,64dc7cd0aa9367f4d27f3766,,,,,,,sngl,resources/DP.BMP,resources/Empty.png,WildCard_Ex,-0.219140989,-0.072699451,1,0,0,0.7813,optionLeft,5,6515,3,30,0,30,0,1,,,,,,,,,,,,,,,,,,,,,,,,,,,,,,,,,,,,,,,
,,,,,,,,2023-08-16_08h48.12.482,HF_wild_card,2022.2.4,Win32,60.57302078,610708c5efbf18e4295facc3,64d2fd46c836a06233681665,64dc7cd0aa9367f4d27f3766,,,,,,,sngl,resources/Empty.png,resources/DP.BMP,WildCard_Ex,0.400820018,-0.029144614,1,0,0,0.7985,optionRight,5,6520,3,31,0,31,0,1,,,,,,,,,,,,,,,,,,,,,,,,,,,,,,,,,,,,,,,
,,,,,,,,2023-08-16_08h48.12.482,HF_wild_card,2022.2.4,Win32,60.57302078,610708c5efbf18e4295facc3,64d2fd46c836a06233681665,64dc7cd0aa9367f4d27f3766,,,,,,,decisionTrl,resources/DR.BMP,resources/DY.BMP,Door3,0.363752079,0.01163009,1,0,0,0.7815,optionRight,70,6590,3,32,0,32,0,1,,,,,,,,,,,,,,,,,,,,,,,,,,,,,,,,,,,,,,,
,,,,,,,,2023-08-16_08h48.12.482,HF_wild_card,2022.2.4,Win32,60.57302078,610708c5efbf18e4295facc3,64d2fd46c836a06233681665,64dc7cd0aa9367f4d27f3766,,,,,,,sngl,resources/DP.BMP,resources/Empty.png,WildCard_Ex,-0.179292965,-0.020804356,1,0,0,0.9316,optionLeft,95,6685,3,33,0,33,0,1,,,,,,,,,,,,,,,,,,,,,,,,,,,,,,,,,,,,,,,
,,,,,,,,2023-08-16_08h48.12.482,HF_wild_card,2022.2.4,Win32,60.57302078,610708c5efbf18e4295facc3,64d2fd46c836a06233681665,64dc7cd0aa9367f4d27f3766,,,,,,,decisionTrl,resources/DR.BMP,resources/DY.BMP,Door3,0.27200896,0.001436426,1,0,0,0.6476,optionRight,70,6755,3,34,0,34,0,1,,,,,,,,,,,,,,,,,,,,,,,,,,,,,,,,,,,,,,,
,,,,,,,,2023-08-16_08h48.12.482,HF_wild_card,2022.2.4,Win32,60.57302078,610708c5efbf18e4295facc3,64d2fd46c836a06233681665,64dc7cd0aa9367f4d27f3766,,,,,,,decisionTrl,resources/DB.BMP,resources/DP.BMP,WildCard_Ex,0.276642499,0.009776684,1,0,0,0.4814,optionRight,5,6760,3,35,0,35,0,1,,,,,,,,,,,,,,,,,,,,,,,,,,,,,,,,,,,,,,,
,,,,,,,,2023-08-16_08h48.12.482,HF_wild_card,2022.2.4,Win32,60.57302078,610708c5efbf18e4295facc3,64d2fd46c836a06233681665,64dc7cd0aa9367f4d27f3766,,,,,,,ctch,resources/DB.BMP,resources/DR.BMP,Door1,-0.162612402,-0.002270386,1,0,0,0.4316,optionLeft,30,6790,3,36,0,36,0,1,,,,,,,,,,,,,,,,,,,,,,,,,,,,,,,,,,,,,,,
,,,,,,,,2023-08-16_08h48.12.482,HF_wild_card,2022.2.4,Win32,60.57302078,610708c5efbf18e4295facc3,64d2fd46c836a06233681665,64dc7cd0aa9367f4d27f3766,,,,,,,decisionTrl,resources/DG.BMP,resources/DP.BMP,WildCard_Ex,0.275715773,-0.007830559,1,0,0,0.5476,optionRight,95,6885,3,37,0,37,0,1,,,,,,,,,,,,,,,,,,,,,,,,,,,,,,,,,,,,,,,
,,,,,,,,2023-08-16_08h48.12.482,HF_wild_card,2022.2.4,Win32,60.57302078,610708c5efbf18e4295facc3,64d2fd46c836a06233681665,64dc7cd0aa9367f4d27f3766,,,,,,,sngl,resources/Empty.png,resources/DR.BMP,Door4,0.194166364,-0.005977152,1,0,0,0.5808,optionRight,60,6945,3,38,0,38,0,1,,,,,,,,,,,,,,,,,,,,,,,,,,,,,,,,,,,,,,,
,,,,,,,,2023-08-16_08h48.12.482,HF_wild_card,2022.2.4,Win32,60.57302078,610708c5efbf18e4295facc3,64d2fd46c836a06233681665,64dc7cd0aa9367f4d27f3766,,,,,,,sngl,resources/Empty.png,resources/DY.BMP,Door3,0.304443453,0.006069918,1,0,0,0.5477,optionRight,70,7015,3,39,0,39,0,1,,,,,,,,,,,,,,,,,,,,,,,,,,,,,,,,,,,,,,,
,,,,,,,,2023-08-16_08h48.12.482,HF_wild_card,2022.2.4,Win32,60.57302078,610708c5efbf18e4295facc3,64d2fd46c836a06233681665,64dc7cd0aa9367f4d27f3766,,,,,,,ctch,resources/DY.BMP,resources/DG.BMP,Door3,-0.251575435,0.0005097,1,0,0,0.5811,optionLeft,70,7085,3,40,0,40,0,1,,,,,,,,,,,,,,,,,,,,,,,,,,,,,,,,,,,,,,,
,,,,,,,,2023-08-16_08h48.12.482,HF_wild_card,2022.2.4,Win32,60.57302078,610708c5efbf18e4295facc3,64d2fd46c836a06233681665,64dc7cd0aa9367f4d27f3766,,,,,,,decisionTrl,resources/DB.BMP,resources/DG.BMP,Door1,-0.176512879,0.006069918,1,0,0,0.8318,optionLeft,30,7115,3,41,0,41,0,1,,,,,,,,,,,,,,,,,,,,,,,,,,,,,,,,,,,,,,,
,,,,,,,,2023-08-16_08h48.12.482,HF_wild_card,2022.2.4,Win32,60.57302078,610708c5efbf18e4295facc3,64d2fd46c836a06233681665,64dc7cd0aa9367f4d27f3766,,,,,,,decisionTrl,resources/DY.BMP,resources/DR.BMP,Door3,-0.222847801,-0.013390684,1,0,0,0.7817,optionLeft,70,7185,3,42,0,42,0,1,,,,,,,,,,,,,,,,,,,,,,,,,,,,,,,,,,,,,,,
,,,,,,,,2023-08-16_08h48.12.482,HF_wild_card,2022.2.4,Win32,60.57302078,610708c5efbf18e4295facc3,64d2fd46c836a06233681665,64dc7cd0aa9367f4d27f3766,,,,,,,decisionTrl,resources/DB.BMP,resources/DG.BMP,Door1,-0.1690993,0.001436426,1,0,0,1.6652,optionLeft,30,7215,3,43,0,43,0,1,,,,,,,,,,,,,,,,,,,,,,,,,,,,,,,,,,,,,,,
,,,,,,,,2023-08-16_08h48.12.482,HF_wild_card,2022.2.4,Win32,60.57302078,610708c5efbf18e4295facc3,64d2fd46c836a06233681665,64dc7cd0aa9367f4d27f3766,,,,,,,,,,,,,,,,,,,,,,,,,,2,0,2,0,1,,,,,,,,,,,,,,,,,,,,,,,,,,,,,,,,,,
,,,,,,,,2023-08-16_08h48.12.482,HF_wild_card,2022.2.4,Win32,60.57302078,610708c5efbf18e4295facc3,64d2fd46c836a06233681665,64dc7cd0aa9367f4d27f3766,,,,,,,decisionTrl,resources/DR.BMP,resources/DY.BMP,Door4,-0.314590921,-0.161662437,1,0,0,0.7092,optionLeft,80,7295,4,0,0,0,0,1,,,,,,,,,,,,,,,,,,,,,,,,,,,,,,,,,,,,,,,
,,,,,,,,2023-08-16_08h48.12.482,HF_wild_card,2022.2.4,Win32,60.57302078,610708c5efbf18e4295facc3,64d2fd46c836a06233681665,64dc7cd0aa9367f4d27f3766,,,,,,,decisionTrl,resources/DBN.BMP,resources/DB.BMP,WildCard_NonEx,-0.197826934,0.04221113,1,0,0,1.4312,optionLeft,55,7350,4,1,0,1,0,1,,,,,,,,,,,,,,,,,,,,,,,,,,,,,,,,,,,,,,,
,,,,,,,,2023-08-16_08h48.12.482,HF_wild_card,2022.2.4,Win32,60.57302078,610708c5efbf18e4295facc3,64d2fd46c836a06233681665,64dc7cd0aa9367f4d27f3766,,,,,,,decisionTrl,resources/DY.BMP,resources/DBN.BMP,WildCard_NonEx,0.24142792,0.005143192,1,0,0,0.9983,optionRight,55,7405,4,2,0,2,0,1,,,,,,,,,,,,,,,,,,,,,,,,,,,,,,,,,,,,,,,
,,,,,,,,2023-08-16_08h48.12.482,HF_wild_card,2022.2.4,Win32,60.57302078,610708c5efbf18e4295facc3,64d2fd46c836a06233681665,64dc7cd0aa9367f4d27f3766,,,,,,,decisionTrl,resources/DR.BMP,resources/DBN.BMP,WildCard_NonEx,0.178412481,-0.010610645,1,0,0,0.732,optionRight,55,7460,4,3,0,3,0,1,,,,,,,,,,,,,,,,,,,,,,,,,,,,,,,,,,,,,,,
,,,,,,,,2023-08-16_08h48.12.482,HF_wild_card,2022.2.4,Win32,60.57302078,610708c5efbf18e4295facc3,64d2fd46c836a06233681665,64dc7cd0aa9367f4d27f3766,,,,,,,decisionTrl,resources/DY.BMP,resources/DR.BMP,Door3,-0.262695826,-0.018024223,1,0,0,0.5817,optionLeft,70,7530,4,4,0,4,0,1,,,,,,,,,,,,,,,,,,,,,,,,,,,,,,,,,,,,,,,
,,,,,,,,2023-08-16_08h48.12.482,HF_wild_card,2022.2.4,Win32,60.57302078,610708c5efbf18e4295facc3,64d2fd46c836a06233681665,64dc7cd0aa9367f4d27f3766,,,,,,,ctch,resources/DY.BMP,resources/DG.BMP,Door3,-0.148711925,-0.025437848,1,0,0,1.0481,optionLeft,70,7600,4,5,0,5,0,1,,,,,,,,,,,,,,,,,,,,,,,,,,,,,,,,,,,,,,,
,,,,,,,,2023-08-16_08h48.12.482,HF_wild_card,2022.2.4,Win32,60.57302078,610708c5efbf18e4295facc3,64d2fd46c836a06233681665,64dc7cd0aa9367f4d27f3766,,,,,,,sngl,resources/Empty.png,resources/DB.BMP,Door1,0.344291477,0.013483497,1,0,0,0.6819,optionRight,30,7630,4,6,0,6,0,1,,,,,,,,,,,,,,,,,,,,,,,,,,,,,,,,,,,,,,,
,,,,,,,,2023-08-16_08h48.12.482,HF_wild_card,2022.2.4,Win32,60.57302078,610708c5efbf18e4295facc3,64d2fd46c836a06233681665,64dc7cd0aa9367f4d27f3766,,,,,,,decisionTrl,resources/DB.BMP,resources/DG.BMP,Door2,0.332244406,-0.042118411,1,0,0,1.1483,optionRight,40,7670,4,7,0,7,0,1,,,,,,,,,,,,,,,,,,,,,,,,,,,,,,,,,,,,,,,
,,,,,,,,2023-08-16_08h48.12.482,HF_wild_card,2022.2.4,Win32,60.57302078,610708c5efbf18e4295facc3,64d2fd46c836a06233681665,64dc7cd0aa9367f4d27f3766,,,,,,,decisionTrl,resources/DBN.BMP,resources/DR.BMP,Door4,0.304443453,-0.044898497,1,0,0,1.0093,optionRight,80,7750,4,8,0,8,0,1,,,,,,,,,,,,,,,,,,,,,,,,,,,,,,,,,,,,,,,
,,,,,,,,2023-08-16_08h48.12.482,HF_wild_card,2022.2.4,Win32,60.57302078,610708c5efbf18e4295facc3,64d2fd46c836a06233681665,64dc7cd0aa9367f4d27f3766,,,,,,,decisionTrl,resources/DB.BMP,resources/DG.BMP,Door1,-0.280303068,-0.013390684,1,0,0,1.2317,optionLeft,30,7780,4,9,0,9,0,1,,,,,,,,,,,,,,,,,,,,,,,,,,,,,,,,,,,,,,,
,,,,,,,,2023-08-16_08h48.12.482,HF_wild_card,2022.2.4,Win32,60.57302078,610708c5efbf18e4295facc3,64d2fd46c836a06233681665,64dc7cd0aa9367f4d27f3766,,,,,,,ctch,resources/DB.BMP,resources/DR.BMP,Door4,0.368385618,-0.017097543,1,0,0,1.0149,optionRight,80,7860,4,10,0,10,0,1,,,,,,,,,,,,,,,,,,,,,,,,,,,,,,,,,,,,,,,
,,,,,,,,2023-08-16_08h48.12.482,HF_wild_card,2022.2.4,Win32,60.57302078,610708c5efbf18e4295facc3,64d2fd46c836a06233681665,64dc7cd0aa9367f4d27f3766,,,,,,,decisionTrl,resources/DB.BMP,resources/DBN.BMP,Door1,-0.244161857,-0.0319247,1,0,0,1.0819,optionLeft,30,7890,4,11,0,11,0,1,,,,,,,,,,,,,,,,,,,,,,,,,,,,,,,,,,,,,,,
,,,,,,,,2023-08-16_08h48.12.482,HF_wild_card,2022.2.4,Win32,60.57302078,610708c5efbf18e4295facc3,64d2fd46c836a06233681665,64dc7cd0aa9367f4d27f3766,,,,,,,decisionTrl,resources/DR.BMP,resources/DY.BMP,Door3,0.212700333,-0.026364528,1,0,0,0.8648,optionRight,70,7960,4,12,0,12,0,1,,,,,,,,,,,,,,,,,,,,,,,,,,,,,,,,,,,,,,,
,,,,,,,,2023-08-16_08h48.12.482,HF_wild_card,2022.2.4,Win32,60.57302078,610708c5efbf18e4295facc3,64d2fd46c836a06233681665,64dc7cd0aa9367f4d27f3766,,,,,,,decisionTrl,resources/DBN.BMP,resources/DG.BMP,WildCard_NonEx,-0.256208927,-0.004123793,1,0,0,1.698,optionLeft,55,8015,4,13,0,13,0,1,,,,,,,,,,,,,,,,,,,,,,,,,,,,,,,,,,,,,,,
,,,,,,,,2023-08-16_08h48.12.482,HF_wild_card,2022.2.4,Win32,60.57302078,610708c5efbf18e4295facc3,64d2fd46c836a06233681665,64dc7cd0aa9367f4d27f3766,,,,,,,decisionTrl,resources/DG.BMP,resources/DB.BMP,Door2,-0.265475912,-0.023584442,1,0,0,1.565,optionLeft,20,8035,4,14,0,14,0,1,,,,,,,,,,,,,,,,,,,,,,,,,,,,,,,,,,,,,,,
,,,,,,,,2023-08-16_08h48.12.482,HF_wild_card,2022.2.4,Win32,60.57302078,610708c5efbf18e4295facc3,64d2fd46c836a06233681665,64dc7cd0aa9367f4d27f3766,,,,,,,sngl,resources/DG.BMP,resources/Empty.png,Door2,-0.213580817,-0.023584442,1,0,0,0.6483,optionLeft,20,8055,4,15,0,15,0,1,,,,,,,,,,,,,,,,,,,,,,,,,,,,,,,,,,,,,,,
,,,,,,,,2023-08-16_08h48.12.482,HF_wild_card,2022.2.4,Win32,60.57302078,610708c5efbf18e4295facc3,64d2fd46c836a06233681665,64dc7cd0aa9367f4d27f3766,,,,,,,decisionTrl,resources/DG.BMP,resources/DB.BMP,Door1,0.28868957,-0.0319247,1,0,0,0.6318,optionRight,30,8085,4,16,0,16,0,1,,,,,,,,,,,,,,,,,,,,,,,,,,,,,,,,,,,,,,,
,,,,,,,,2023-08-16_08h48.12.482,HF_wild_card,2022.2.4,Win32,60.57302078,610708c5efbf18e4295facc3,64d2fd46c836a06233681665,64dc7cd0aa9367f4d27f3766,,,,,,,ctch,resources/DG.BMP,resources/DY.BMP,Door3,0.277569225,-0.012464051,1,0,0,0.7985,optionRight,70,8155,4,17,0,17,0,1,,,,,,,,,,,,,,,,,,,,,,,,,,,,,,,,,,,,,,,
,,,,,,,,2023-08-16_08h48.12.482,HF_wild_card,2022.2.4,Win32,60.57302078,610708c5efbf18e4295facc3,64d2fd46c836a06233681665,64dc7cd0aa9367f4d27f3766,,,,,,,decisionTrl,resources/DB.BMP,resources/DG.BMP,Door1,-0.197826934,-0.035631512,1,0,0,1.8648,optionLeft,30,8185,4,18,0,18,0,1,,,,,,,,,,,,,,,,,,,,,,,,,,,,,,,,,,,,,,,
,,,,,,,,2023-08-16_08h48.12.482,HF_wild_card,2022.2.4,Win32,60.57302078,610708c5efbf18e4295facc3,64d2fd46c836a06233681665,64dc7cd0aa9367f4d27f3766,,,,,,,decisionTrl,resources/DR.BMP,resources/DY.BMP,Door3,0.283129398,-0.00134366,1,0,0,0.9142,optionRight,70,8255,4,19,0,19,0,1,,,,,,,,,,,,,,,,,,,,,,,,,,,,,,,,,,,,,,,
,,,,,,,,2023-08-16_08h48.12.482,HF_wild_card,2022.2.4,Win32,60.57302078,610708c5efbf18e4295facc3,64d2fd46c836a06233681665,64dc7cd0aa9367f4d27f3766,,,,,,,ctch,resources/DR.BMP,resources/DB.BMP,Door4,-0.297910358,-0.029144614,1,0,0,0.7485,optionLeft,60,8315,4,20,0,20,0,1,,,,,,,,,,,,,,,,,,,,,,,,,,,,,,,,,,,,,,,
,,,,,,,,2023-08-16_08h48.12.482,HF_wild_card,2022.2.4,Win32,60.57302078,610708c5efbf18e4295facc3,64d2fd46c836a06233681665,64dc7cd0aa9367f4d27f3766,,,,,,,ctch,resources/DR.BMP,resources/DB.BMP,Door4,-0.215434223,-0.014317457,1,0,0,0.998,optionLeft,60,8375,4,21,0,21,0,1,,,,,,,,,,,,,,,,,,,,,,,,,,,,,,,,,,,,,,,
,,,,,,,,2023-08-16_08h48.12.482,HF_wild_card,2022.2.4,Win32,60.57302078,610708c5efbf18e4295facc3,64d2fd46c836a06233681665,64dc7cd0aa9367f4d27f3766,,,,,,,sngl,resources/Empty.png,resources/DBN.BMP,WildCard_NonEx,0.296103195,-0.014317457,1,0,0,0.8982,optionRight,45,8420,4,22,0,22,0,1,,,,,,,,,,,,,,,,,,,,,,,,,,,,,,,,,,,,,,,
,,,,,,,,2023-08-16_08h48.12.482,HF_wild_card,2022.2.4,Win32,60.57302078,610708c5efbf18e4295facc3,64d2fd46c836a06233681665,64dc7cd0aa9367f4d27f3766,,,,,,,sngl,resources/DBN.BMP,resources/Empty.png,WildCard_NonEx,-0.221921075,-0.008757285,1,0,0,0.548,optionLeft,55,8475,4,23,0,23,0,1,,,,,,,,,,,,,,,,,,,,,,,,,,,,,,,,,,,,,,,
,,,,,,,,2023-08-16_08h48.12.482,HF_wild_card,2022.2.4,Win32,60.57302078,610708c5efbf18e4295facc3,64d2fd46c836a06233681665,64dc7cd0aa9367f4d27f3766,,,,,,,ctch,resources/DB.BMP,resources/DR.BMP,Door4,0.273862413,0.032017419,1,0,0,0.9821,optionRight,80,8555,4,24,0,24,0,1,,,,,,,,,,,,,,,,,,,,,,,,,,,,,,,,,,,,,,,
,,,,,,,,2023-08-16_08h48.12.482,HF_wild_card,2022.2.4,Win32,60.57302078,610708c5efbf18e4295facc3,64d2fd46c836a06233681665,64dc7cd0aa9367f4d27f3766,,,,,,,decisionTrl,resources/DG.BMP,resources/DB.BMP,Door2,-0.132031362,0.029237333,1,0,0,1.5152,optionLeft,20,8575,4,25,0,25,0,1,,,,,,,,,,,,,,,,,,,,,,,,,,,,,,,,,,,,,,,
,,,,,,,,2023-08-16_08h48.12.482,HF_wild_card,2022.2.4,Win32,60.57302078,610708c5efbf18e4295facc3,64d2fd46c836a06233681665,64dc7cd0aa9367f4d27f3766,,,,,,,decisionTrl,resources/DY.BMP,resources/DR.BMP,Door3,-0.178366285,-0.03007134,1,0,0,0.8481,optionLeft,70,8645,4,26,0,26,0,1,,,,,,,,,,,,,,,,,,,,,,,,,,,,,,,,,,,,,,,
,,,,,,,,2023-08-16_08h48.12.482,HF_wild_card,2022.2.4,Win32,60.57302078,610708c5efbf18e4295facc3,64d2fd46c836a06233681665,64dc7cd0aa9367f4d27f3766,,,,,,,sngl,resources/Empty.png,resources/DY.BMP,Door3,0.414720541,0.056111607,1,0,0,0.5653,optionRight,70,8715,4,27,0,27,0,1,,,,,,,,,,,,,,,,,,,,,,,,,,,,,,,,,,,,,,,
,,,,,,,,2023-08-16_08h48.12.482,HF_wild_card,2022.2.4,Win32,60.57302078,610708c5efbf18e4295facc3,64d2fd46c836a06233681665,64dc7cd0aa9367f4d27f3766,,,,,,,decisionTrl,resources/DG.BMP,resources/DBN.BMP,WildCard_NonEx,0.282202671,-0.00041698,1,0,0,0.8322,optionRight,55,8770,4,28,0,28,0,1,,,,,,,,,,,,,,,,,,,,,,,,,,,,,,,,,,,,,,,
,,,,,,,,2023-08-16_08h48.12.482,HF_wild_card,2022.2.4,Win32,60.57302078,610708c5efbf18e4295facc3,64d2fd46c836a06233681665,64dc7cd0aa9367f4d27f3766,,,,,,,sngl,resources/DB.BMP,resources/Empty.png,Door1,-0.261769099,-0.003197066,1,0,0,0.6481,optionLeft,30,8800,4,29,0,29,0,1,,,,,,,,,,,,,,,,,,,,,,,,,,,,,,,,,,,,,,,
,,,,,,,,2023-08-16_08h48.12.482,HF_wild_card,2022.2.4,Win32,60.57302078,610708c5efbf18e4295facc3,64d2fd46c836a06233681665,64dc7cd0aa9367f4d27f3766,,,,,,,ctch,resources/DG.BMP,resources/DY.BMP,Door3,0.189532825,-0.022657715,1,0,0,0.9146,optionRight,70,8870,4,30,0,30,0,1,,,,,,,,,,,,,,,,,,,,,,,,,,,,,,,,,,,,,,,
,,,,,,,,2023-08-16_08h48.12.482,HF_wild_card,2022.2.4,Win32,60.57302078,610708c5efbf18e4295facc3,64d2fd46c836a06233681665,64dc7cd0aa9367f4d27f3766,,,,,,,decisionTrl,resources/DY.BMP,resources/DR.BMP,Door3,-0.285863241,-0.020804356,1,0,0,0.4981,optionLeft,70,8940,4,31,0,31,0,1,,,,,,,,,,,,,,,,,,,,,,,,,,,,,,,,,,,,,,,
,,,,,,,,2023-08-16_08h48.12.482,HF_wild_card,2022.2.4,Win32,60.57302078,610708c5efbf18e4295facc3,64d2fd46c836a06233681665,64dc7cd0aa9367f4d27f3766,,,,,,,decisionTrl,resources/DG.BMP,resources/DB.BMP,Door2,-0.181146371,0.018116989,1,0,0,0.593,optionLeft,20,8960,4,32,0,32,0,1,,,,,,,,,,,,,,,,,,,,,,,,,,,,,,,,,,,,,,,
,,,,,,,,2023-08-16_08h48.12.482,HF_wild_card,2022.2.4,Win32,60.57302078,610708c5efbf18e4295facc3,64d2fd46c836a06233681665,64dc7cd0aa9367f4d27f3766,,,,,,,decisionTrl,resources/DR.BMP,resources/DY.BMP,Door3,0.193239638,0.0005097,1,0,0,0.6315,optionRight,70,9030,4,33,0,33,0,1,,,,,,,,,,,,,,,,,,,,,,,,,,,,,,,,,,,,,,,
,,,,,,,,2023-08-16_08h48.12.482,HF_wild_card,2022.2.4,Win32,60.57302078,610708c5efbf18e4295facc3,64d2fd46c836a06233681665,64dc7cd0aa9367f4d27f3766,,,,,,,sngl,resources/Empty.png,resources/DR.BMP,Door4,0.263668702,0.014410176,1,0,0,0.4978,optionRight,80,9110,4,34,0,34,0,1,,,,,,,,,,,,,,,,,,,,,,,,,,,,,,,,,,,,,,,
,,,,,,,,2023-08-16_08h48.12.482,HF_wild_card,2022.2.4,Win32,60.57302078,610708c5efbf18e4295facc3,64d2fd46c836a06233681665,64dc7cd0aa9367f4d27f3766,,,,,,,sngl,resources/DR.BMP,resources/Empty.png,Door4,-0.277522982,-0.006903879,1,0,0,0.4645,optionLeft,60,9170,4,35,0,35,0,1,,,,,,,,,,,,,,,,,,,,,,,,,,,,,,,,,,,,,,,
,,,,,,,,2023-08-16_08h48.12.482,HF_wild_card,2022.2.4,Win32,60.57302078,610708c5efbf18e4295facc3,64d2fd46c836a06233681665,64dc7cd0aa9367f4d27f3766,,,,,,,ctch,resources/DY.BMP,resources/DG.BMP,Door3,-0.362779203,-0.043045091,1,0,0,1.2819,optionLeft,70,9240,4,36,0,36,0,1,,,,,,,,,,,,,,,,,,,,,,,,,,,,,,,,,,,,,,,
,,,,,,,,2023-08-16_08h48.12.482,HF_wild_card,2022.2.4,Win32,60.57302078,610708c5efbf18e4295facc3,64d2fd46c836a06233681665,64dc7cd0aa9367f4d27f3766,,,,,,,decisionTrl,resources/DY.BMP,resources/DR.BMP,Door3,-0.469349479,-0.071772724,1,0,0,0.5147,optionLeft,70,9310,4,37,0,37,0,1,,,,,,,,,,,,,,,,,,,,,,,,,,,,,,,,,,,,,,,
,,,,,,,,2023-08-16_08h48.12.482,HF_wild_card,2022.2.4,Win32,60.57302078,610708c5efbf18e4295facc3,64d2fd46c836a06233681665,64dc7cd0aa9367f4d27f3766,,,,,,,sngl,resources/DY.BMP,resources/Empty.png,Door3,-0.373899594,-0.049531989,1,0,0,0.4652,optionLeft,70,9380,4,38,0,38,0,1,,,,,,,,,,,,,,,,,,,,,,,,,,,,,,,,,,,,,,,
,,,,,,,,2023-08-16_08h48.12.482,HF_wild_card,2022.2.4,Win32,60.57302078,610708c5efbf18e4295facc3,64d2fd46c836a06233681665,64dc7cd0aa9367f4d27f3766,,,,,,,sngl,resources/DBN.BMP,resources/Empty.png,WildCard_NonEx,-0.201533746,0.033870872,1,0,0,0.7824,optionLeft,45,9425,4,39,0,39,0,1,,,,,,,,,,,,,,,,,,,,,,,,,,,,,,,,,,,,,,,
,,,,,,,,2023-08-16_08h48.12.482,HF_wild_card,2022.2.4,Win32,60.57302078,610708c5efbf18e4295facc3,64d2fd46c836a06233681665,64dc7cd0aa9367f4d27f3766,,,,,,,sngl,resources/Empty.png,resources/DBN.BMP,WildCard_NonEx,0.165438684,0.006996598,1,0,0,0.5654,optionRight,55,9480,4,40,0,40,0,1,,,,,,,,,,,,,,,,,,,,,,,,,,,,,,,,,,,,,,,
,,,,,,,,2023-08-16_08h48.12.482,HF_wild_card,2022.2.4,Win32,60.57302078,610708c5efbf18e4295facc3,64d2fd46c836a06233681665,64dc7cd0aa9367f4d27f3766,,,,,,,sngl,resources/Empty.png,resources/DG.BMP,Door2,0.315563797,0.024603887,1,0,0,0.5153,optionRight,40,9520,4,41,0,41,0,1,,,,,,,,,,,,,,,,,,,,,,,,,,,,,,,,,,,,,,,
,,,,,,,,2023-08-16_08h48.12.482,HF_wild_card,2022.2.4,Win32,60.57302078,610708c5efbf18e4295facc3,64d2fd46c836a06233681665,64dc7cd0aa9367f4d27f3766,,,,,,,decisionTrl,resources/DBN.BMP,resources/DY.BMP,Door3,0.217333779,0.0005097,1,0,0,0.7489,optionRight,70,9590,4,42,0,42,0,1,,,,,,,,,,,,,,,,,,,,,,,,,,,,,,,,,,,,,,,
,,,,,,,,2023-08-16_08h48.12.482,HF_wild_card,2022.2.4,Win32,60.57302078,610708c5efbf18e4295facc3,64d2fd46c836a06233681665,64dc7cd0aa9367f4d27f3766,,,,,,,decisionTrl,resources/DB.BMP,resources/DG.BMP,Door2,0.242354647,-0.022657715,1,0,0,1.1486,optionRight,20,9610,4,43,0,43,0,1,,,,,,,,,,,,,,,,,,,,,,,,,,,,,,,,,,,,,,,
,,,,,,,,2023-08-16_08h48.12.482,HF_wild_card,2022.2.4,Win32,60.57302078,610708c5efbf18e4295facc3,64d2fd46c836a06233681665,64dc7cd0aa9367f4d27f3766,,,,,,,,,,,,,,,,,,,,,,,,,,3,0,3,0,1,,,,,,,,,,,,,,,,,,,,,,,,,,,,,,,,,,
,,,,,,,,2023-08-16_08h48.12.482,HF_wild_card,2022.2.4,Win32,60.57302078,610708c5efbf18e4295facc3,64d2fd46c836a06233681665,64dc7cd0aa9367f4d27f3766,,,,,,,decisionTrl,resources/DB.BMP,resources/DG.BMP,Door1,-0.270109404,-0.130154718,1,0,0,0.7267,optionLeft,30,9640,5,0,0,0,0,1,,,,,,,,,,,,,,,,,,,,,,,,,,,,,,,,,,,,,,,
,,,,,,,,2023-08-16_08h48.12.482,HF_wild_card,2022.2.4,Win32,60.57302078,610708c5efbf18e4295facc3,64d2fd46c836a06233681665,64dc7cd0aa9367f4d27f3766,,,,,,,sngl,resources/Empty.png,resources/DG.BMP,Door2,0.309076898,-0.011537371,1,0,0,0.4821,optionRight,20,9660,5,1,0,1,0,1,,,,,,,,,,,,,,,,,,,,,,,,,,,,,,,,,,,,,,,
,,,,,,,,2023-08-16_08h48.12.482,HF_wild_card,2022.2.4,Win32,60.57302078,610708c5efbf18e4295facc3,64d2fd46c836a06233681665,64dc7cd0aa9367f4d27f3766,,,,,,,decisionTrl,resources/DG.BMP,resources/DB.BMP,Door1,0.330390954,-0.00134366,1,0,0,0.6987,optionRight,30,9690,5,2,0,2,0,1,,,,,,,,,,,,,,,,,,,,,,,,,,,,,,,,,,,,,,,
,,,,,,,,2023-08-16_08h48.12.482,HF_wild_card,2022.2.4,Win32,60.57302078,610708c5efbf18e4295facc3,64d2fd46c836a06233681665,64dc7cd0aa9367f4d27f3766,,,,,,,sngl,resources/DR.BMP,resources/Empty.png,Door4,-0.225627888,-0.025437848,1,0,0,0.532,optionLeft,80,9770,5,3,0,3,0,1,,,,,,,,,,,,,,,,,,,,,,,,,,,,,,,,,,,,,,,
,,,,,,,,2023-08-16_08h48.12.482,HF_wild_card,2022.2.4,Win32,60.57302078,610708c5efbf18e4295facc3,64d2fd46c836a06233681665,64dc7cd0aa9367f4d27f3766,,,,,,,decisionTrl,resources/DR.BMP,resources/DY.BMP,Door4,-0.265475912,-0.029144614,1,0,0,0.6653,optionLeft,60,9830,5,4,0,4,0,1,,,,,,,,,,,,,,,,,,,,,,,,,,,,,,,,,,,,,,,
,,,,,,,,2023-08-16_08h48.12.482,HF_wild_card,2022.2.4,Win32,60.57302078,610708c5efbf18e4295facc3,64d2fd46c836a06233681665,64dc7cd0aa9367f4d27f3766,,,,,,,ctch,resources/DG.BMP,resources/DY.BMP,Door3,0.355411821,0.0005097,1,0,0,0.5155,optionRight,70,9900,5,5,0,5,0,1,,,,,,,,,,,,,,,,,,,,,,,,,,,,,,,,,,,,,,,
,,,,,,,,2023-08-16_08h48.12.482,HF_wild_card,2022.2.4,Win32,60.57302078,610708c5efbf18e4295facc3,64d2fd46c836a06233681665,64dc7cd0aa9367f4d27f3766,,,,,,,decisionTrl,resources/DY.BMP,resources/DR.BMP,Door4,0.19694645,-0.022657715,1,0,0,1.1487,optionRight,60,9960,5,6,0,6,0,1,,,,,,,,,,,,,,,,,,,,,,,,,,,,,,,,,,,,,,,
,,,,,,,,2023-08-16_08h48.12.482,HF_wild_card,2022.2.4,Win32,60.57302078,610708c5efbf18e4295facc3,64d2fd46c836a06233681665,64dc7cd0aa9367f4d27f3766,,,,,,,decisionTrl,resources/DBN.BMP,resources/DB.BMP,WildCard_NonEx,-0.24230845,-0.014317457,1,0,0,1.3154,optionLeft,45,10005,5,7,0,7,0,1,,,,,,,,,,,,,,,,,,,,,,,,,,,,,,,,,,,,,,,
,,,,,,,,2023-08-16_08h48.12.482,HF_wild_card,2022.2.4,Win32,60.57302078,610708c5efbf18e4295facc3,64d2fd46c836a06233681665,64dc7cd0aa9367f4d27f3766,,,,,,,decisionTrl,resources/DR.BMP,resources/DBN.BMP,Door4,-0.339611742,-0.032851426,1,0,0,0.6486,optionLeft,80,10085,5,8,0,8,0,1,,,,,,,,,,,,,,,,,,,,,,,,,,,,,,,,,,,,,,,
,,,,,,,,2023-08-16_08h48.12.482,HF_wild_card,2022.2.4,Win32,60.57302078,610708c5efbf18e4295facc3,64d2fd46c836a06233681665,64dc7cd0aa9367f4d27f3766,,,,,,,decisionTrl,resources/DG.BMP,resources/DB.BMP,Door2,-0.203387106,-0.020804356,1,0,0,1.1815,optionLeft,20,10105,5,9,0,9,0,1,,,,,,,,,,,,,,,,,,,,,,,,,,,,,,,,,,,,,,,
,,,,,,,,2023-08-16_08h48.12.482,HF_wild_card,2022.2.4,Win32,60.57302078,610708c5efbf18e4295facc3,64d2fd46c836a06233681665,64dc7cd0aa9367f4d27f3766,,,,,,,sngl,resources/DBN.BMP,resources/Empty.png,WildCard_NonEx,-0.322931179,-0.048605263,1,0,0,0.4992,optionLeft,55,10160,5,10,0,10,0,1,,,,,,,,,,,,,,,,,,,,,,,,,,,,,,,,,,,,,,,
,,,,,,,,2023-08-16_08h48.12.482,HF_wild_card,2022.2.4,Win32,60.57302078,610708c5efbf18e4295facc3,64d2fd46c836a06233681665,64dc7cd0aa9367f4d27f3766,,,,,,,decisionTrl,resources/DR.BMP,resources/DY.BMP,Door4,-0.27381617,-0.009683965,1,0,0,0.3656,optionLeft,60,10220,5,11,0,11,0,1,,,,,,,,,,,,,,,,,,,,,,,,,,,,,,,,,,,,,,,
,,,,,,,,2023-08-16_08h48.12.482,HF_wild_card,2022.2.4,Win32,60.57302078,610708c5efbf18e4295facc3,64d2fd46c836a06233681665,64dc7cd0aa9367f4d27f3766,,,,,,,decisionTrl,resources/DR.BMP,resources/DY.BMP,Door3,0.141344543,0.005143192,1,0,0,0.5152,optionRight,70,10290,5,12,0,12,0,1,,,,,,,,,,,,,,,,,,,,,,,,,,,,,,,,,,,,,,,
,,,,,,,,2023-08-16_08h48.12.482,HF_wild_card,2022.2.4,Win32,60.57302078,610708c5efbf18e4295facc3,64d2fd46c836a06233681665,64dc7cd0aa9367f4d27f3766,,,,,,,sngl,resources/Empty.png,resources/DBN.BMP,WildCard_NonEx,0.25625517,0.054258201,1,0,0,0.5155,optionRight,55,10345,5,13,0,13,0,1,,,,,,,,,,,,,,,,,,,,,,,,,,,,,,,,,,,,,,,
,,,,,,,,2023-08-16_08h48.12.482,HF_wild_card,2022.2.4,Win32,60.57302078,610708c5efbf18e4295facc3,64d2fd46c836a06233681665,64dc7cd0aa9367f4d27f3766,,,,,,,decisionTrl,resources/DG.BMP,resources/DB.BMP,Door2,-0.194120168,-0.013390684,1,0,0,1.2987,optionLeft,40,10385,5,14,0,14,0,1,,,,,,,,,,,,,,,,,,,,,,,,,,,,,,,,,,,,,,,
,,,,,,,,2023-08-16_08h48.12.482,HF_wild_card,2022.2.4,Win32,60.57302078,610708c5efbf18e4295facc3,64d2fd46c836a06233681665,64dc7cd0aa9367f4d27f3766,,,,,,,decisionTrl,resources/DG.BMP,resources/DB.BMP,Door2,-0.234894872,-0.034704832,1,0,0,0.5985,optionLeft,40,10425,5,15,0,15,0,1,,,,,,,,,,,,,,,,,,,,,,,,,,,,,,,,,,,,,,,
,,,,,,,,2023-08-16_08h48.12.482,HF_wild_card,2022.2.4,Win32,60.57302078,610708c5efbf18e4295facc3,64d2fd46c836a06233681665,64dc7cd0aa9367f4d27f3766,,,,,,,decisionTrl,resources/DY.BMP,resources/DR.BMP,Door3,-0.210800731,0.003289832,1,0,0,0.8315,optionLeft,70,10495,5,16,0,16,0,1,,,,,,,,,,,,,,,,,,,,,,,,,,,,,,,,,,,,,,,
,,,,,,,,2023-08-16_08h48.12.482,HF_wild_card,2022.2.4,Win32,60.57302078,610708c5efbf18e4295facc3,64d2fd46c836a06233681665,64dc7cd0aa9367f4d27f3766,,,,,,,sngl,resources/DY.BMP,resources/Empty.png,Door3,-0.300690444,-0.005977152,1,0,0,0.4656,optionLeft,70,10565,5,17,0,17,0,1,,,,,,,,,,,,,,,,,,,,,,,,,,,,,,,,,,,,,,,
,,,,,,,,2023-08-16_08h48.12.482,HF_wild_card,2022.2.4,Win32,60.57302078,610708c5efbf18e4295facc3,64d2fd46c836a06233681665,64dc7cd0aa9367f4d27f3766,,,,,,,decisionTrl,resources/DBN.BMP,resources/DR.BMP,Door4,0.382286048,-0.047678583,1,0,0,0.6153,optionRight,60,10625,5,18,0,18,0,1,,,,,,,,,,,,,,,,,,,,,,,,,,,,,,,,,,,,,,,
,,,,,,,,2023-08-16_08h48.12.482,HF_wild_card,2022.2.4,Win32,60.57302078,610708c5efbf18e4295facc3,64d2fd46c836a06233681665,64dc7cd0aa9367f4d27f3766,,,,,,,ctch,resources/DG.BMP,resources/DY.BMP,Door2,-0.157978909,0.052404794,1,0,0,0.5437,optionLeft,20,10645,5,19,0,19,0,1,,,,,,,,,,,,,,,,,,,,,,,,,,,,,,,,,,,,,,,
,,,,,,,,2023-08-16_08h48.12.482,HF_wild_card,2022.2.4,Win32,60.57302078,610708c5efbf18e4295facc3,64d2fd46c836a06233681665,64dc7cd0aa9367f4d27f3766,,,,,,,decisionTrl,resources/DBN.BMP,resources/DY.BMP,Door3,0.439741222,0.019043669,1,0,0,0.499,optionRight,70,10715,5,20,0,20,0,1,,,,,,,,,,,,,,,,,,,,,,,,,,,,,,,,,,,,,,,
,,,,,,,,2023-08-16_08h48.12.482,HF_wild_card,2022.2.4,Win32,60.57302078,610708c5efbf18e4295facc3,64d2fd46c836a06233681665,64dc7cd0aa9367f4d27f3766,,,,,,,decisionTrl,resources/DBN.BMP,resources/DG.BMP,WildCard_NonEx,-0.167245847,-0.00134366,1,0,0,1.682,optionLeft,55,10770,5,21,0,21,0,1,,,,,,,,,,,,,,,,,,,,,,,,,,,,,,,,,,,,,,,
,,,,,,,,2023-08-16_08h48.12.482,HF_wild_card,2022.2.4,Win32,60.57302078,610708c5efbf18e4295facc3,64d2fd46c836a06233681665,64dc7cd0aa9367f4d27f3766,,,,,,,ctch,resources/DR.BMP,resources/DB.BMP,Door4,-0.233968146,-0.023584442,1,0,0,1.1985,optionLeft,80,10850,5,22,0,22,0,1,,,,,,,,,,,,,,,,,,,,,,,,,,,,,,,,,,,,,,,
,,,,,,,,2023-08-16_08h48.12.482,HF_wild_card,2022.2.4,Win32,60.57302078,610708c5efbf18e4295facc3,64d2fd46c836a06233681665,64dc7cd0aa9367f4d27f3766,,,,,,,decisionTrl,resources/DY.BMP,resources/DBN.BMP,Door3,-0.195046848,0.020897075,1,0,0,0.8485,optionLeft,70,10920,5,23,0,23,0,1,,,,,,,,,,,,,,,,,,,,,,,,,,,,,,,,,,,,,,,
,,,,,,,,2023-08-16_08h48.12.482,HF_wild_card,2022.2.4,Win32,60.57302078,610708c5efbf18e4295facc3,64d2fd46c836a06233681665,64dc7cd0aa9367f4d27f3766,,,,,,,sngl,resources/Empty.png,resources/DB.BMP,Door1,0.226600764,0.001436426,1,0,0,0.5272,optionRight,30,10950,5,24,0,24,0,1,,,,,,,,,,,,,,,,,,,,,,,,,,,,,,,,,,,,,,,
,,,,,,,,2023-08-16_08h48.12.482,HF_wild_card,2022.2.4,Win32,60.57302078,610708c5efbf18e4295facc3,64d2fd46c836a06233681665,64dc7cd0aa9367f4d27f3766,,,,,,,decisionTrl,resources/DB.BMP,resources/DG.BMP,Door1,-0.307177296,-0.015244137,1,0,0,0.5156,optionLeft,30,10980,5,25,0,25,0,1,,,,,,,,,,,,,,,,,,,,,,,,,,,,,,,,,,,,,,,
,,,,,,,,2023-08-16_08h48.12.482,HF_wild_card,2022.2.4,Win32,60.57302078,610708c5efbf18e4295facc3,64d2fd46c836a06233681665,64dc7cd0aa9367f4d27f3766,,,,,,,decisionTrl,resources/DB.BMP,resources/DG.BMP,Door2,0.290542929,-0.021731035,1,0,0,1.1149,optionRight,40,11020,5,26,0,26,0,1,,,,,,,,,,,,,,,,,,,,,,,,,,,,,,,,,,,,,,,
,,,,,,,,2023-08-16_08h48.12.482,HF_wild_card,2022.2.4,Win32,60.57302078,610708c5efbf18e4295facc3,64d2fd46c836a06233681665,64dc7cd0aa9367f4d27f3766,,,,,,,decisionTrl,resources/DY.BMP,resources/DR.BMP,Door3,-0.357219031,0.049624708,1,0,0,0.8604,optionLeft,70,11090,5,27,0,27,0,1,,,,,,,,,,,,,,,,,,,,,,,,,,,,,,,,,,,,,,,
,,,,,,,,2023-08-16_08h48.12.482,HF_wild_card,2022.2.4,Win32,60.57302078,610708c5efbf18e4295facc3,64d2fd46c836a06233681665,64dc7cd0aa9367f4d27f3766,,,,,,,ctch,resources/DY.BMP,resources/DG.BMP,Door3,-0.235821552,0.01163009,1,0,0,0.749,optionLeft,70,11160,5,28,0,28,0,1,,,,,,,,,,,,,,,,,,,,,,,,,,,,,,,,,,,,,,,
,,,,,,,,2023-08-16_08h48.12.482,HF_wild_card,2022.2.4,Win32,60.57302078,610708c5efbf18e4295facc3,64d2fd46c836a06233681665,64dc7cd0aa9367f4d27f3766,,,,,,,sngl,resources/Empty.png,resources/DBN.BMP,WildCard_NonEx,0.301663367,0.028310653,1,0,0,0.7484,optionRight,45,11205,5,29,0,29,0,1,,,,,,,,,,,,,,,,,,,,,,,,,,,,,,,,,,,,,,,
,,,,,,,,2023-08-16_08h48.12.482,HF_wild_card,2022.2.4,Win32,60.57302078,610708c5efbf18e4295facc3,64d2fd46c836a06233681665,64dc7cd0aa9367f4d27f3766,,,,,,,ctch,resources/DB.BMP,resources/DR.BMP,Door4,0.204360075,-0.016170863,1,0,0,1.165,optionRight,60,11265,5,30,0,30,0,1,,,,,,,,,,,,,,,,,,,,,,,,,,,,,,,,,,,,,,,
,,,,,,,,2023-08-16_08h48.12.482,HF_wild_card,2022.2.4,Win32,60.57302078,610708c5efbf18e4295facc3,64d2fd46c836a06233681665,64dc7cd0aa9367f4d27f3766,,,,,,,decisionTrl,resources/DG.BMP,resources/DBN.BMP,WildCard_NonEx,0.357265274,-0.018024223,1,0,0,3.8982,optionRight,55,11320,5,31,0,31,0,1,,,,,,,,,,,,,,,,,,,,,,,,,,,,,,,,,,,,,,,
,,,,,,,,2023-08-16_08h48.12.482,HF_wild_card,2022.2.4,Win32,60.57302078,610708c5efbf18e4295facc3,64d2fd46c836a06233681665,64dc7cd0aa9367f4d27f3766,,,,,,,sngl,resources/DG.BMP,resources/Empty.png,Door2,-0.296056952,0.021823755,1,0,0,0.8153,optionLeft,40,11360,5,32,0,32,0,1,,,,,,,,,,,,,,,,,,,,,,,,,,,,,,,,,,,,,,,
,,,,,,,,2023-08-16_08h48.12.482,HF_wild_card,2022.2.4,Win32,60.57302078,610708c5efbf18e4295facc3,64d2fd46c836a06233681665,64dc7cd0aa9367f4d27f3766,,,,,,,decisionTrl,resources/DB.BMP,resources/DG.BMP,Door2,0.349851649,0.021823755,1,0,0,1.182,optionRight,20,11380,5,33,0,33,0,1,,,,,,,,,,,,,,,,,,,,,,,,,,,,,,,,,,,,,,,
,,,,,,,,2023-08-16_08h48.12.482,HF_wild_card,2022.2.4,Win32,60.57302078,610708c5efbf18e4295facc3,64d2fd46c836a06233681665,64dc7cd0aa9367f4d27f3766,,,,,,,ctch,resources/DR.BMP,resources/DB.BMP,Door4,-0.246941943,0.018116989,1,0,0,0.7818,optionLeft,60,11440,5,34,0,34,0,1,,,,,,,,,,,,,,,,,,,,,,,,,,,,,,,,,,,,,,,
,,,,,,,,2023-08-16_08h48.12.482,HF_wild_card,2022.2.4,Win32,60.57302078,610708c5efbf18e4295facc3,64d2fd46c836a06233681665,64dc7cd0aa9367f4d27f3766,,,,,,,sngl,resources/DB.BMP,resources/Empty.png,Door1,-0.174659472,-0.018024223,1,0,0,0.7156,optionLeft,30,11470,5,35,0,35,0,1,,,,,,,,,,,,,,,,,,,,,,,,,,,,,,,,,,,,,,,
,,,,,,,,2023-08-16_08h48.12.482,HF_wild_card,2022.2.4,Win32,60.57302078,610708c5efbf18e4295facc3,64d2fd46c836a06233681665,64dc7cd0aa9367f4d27f3766,,,,,,,sngl,resources/Empty.png,resources/DY.BMP,Door3,0.103349971,0.024603887,1,0,0,0.7322,optionRight,70,11540,5,36,0,36,0,1,,,,,,,,,,,,,,,,,,,,,,,,,,,,,,,,,,,,,,,
,,,,,,,,2023-08-16_08h48.12.482,HF_wild_card,2022.2.4,Win32,60.57302078,610708c5efbf18e4295facc3,64d2fd46c836a06233681665,64dc7cd0aa9367f4d27f3766,,,,,,,decisionTrl,resources/DY.BMP,resources/DR.BMP,Door3,-0.371119508,-0.003197066,1,0,0,0.7987,optionLeft,70,11610,5,37,0,37,0,1,,,,,,,,,,,,,,,,,,,,,,,,,,,,,,,,,,,,,,,
,,,,,,,,2023-08-16_08h48.12.482,HF_wild_card,2022.2.4,Win32,60.57302078,610708c5efbf18e4295facc3,64d2fd46c836a06233681665,64dc7cd0aa9367f4d27f3766,,,,,,,decisionTrl,resources/DR.BMP,resources/DY.BMP,Door3,0.262741882,0.015336903,1,0,0,0.682,optionRight,70,11680,5,38,0,38,0,1,,,,,,,,,,,,,,,,,,,,,,,,,,,,,,,,,,,,,,,
,,,,,,,,2023-08-16_08h48.12.482,HF_wild_card,2022.2.4,Win32,60.57302078,610708c5efbf18e4295facc3,64d2fd46c836a06233681665,64dc7cd0aa9367f4d27f3766,,,,,,,ctch,resources/DY.BMP,resources/DG.BMP,Door3,-0.296983631,-0.007830559,1,0,0,1.0814,optionLeft,70,11750,5,39,0,39,0,1,,,,,,,,,,,,,,,,,,,,,,,,,,,,,,,,,,,,,,,
,,,,,,,,2023-08-16_08h48.12.482,HF_wild_card,2022.2.4,Win32,60.57302078,610708c5efbf18e4295facc3,64d2fd46c836a06233681665,64dc7cd0aa9367f4d27f3766,,,,,,,sngl,resources/Empty.png,resources/DR.BMP,Door4,0.298883281,0.025530567,1,0,0,0.7488,optionRight,60,11810,5,40,0,40,0,1,,,,,,,,,,,,,,,,,,,,,,,,,,,,,,,,,,,,,,,
,,,,,,,,2023-08-16_08h48.12.482,HF_wild_card,2022.2.4,Win32,60.57302078,610708c5efbf18e4295facc3,64d2fd46c836a06233681665,64dc7cd0aa9367f4d27f3766,,,,,,,ctch,resources/DB.BMP,resources/DR.BMP,Door4,0.121883941,0.008850004,1,0,0,0.9154,optionRight,80,11890,5,41,0,41,0,1,,,,,,,,,,,,,,,,,,,,,,,,,,,,,,,,,,,,,,,
,,,,,,,,2023-08-16_08h48.12.482,HF_wild_card,2022.2.4,Win32,60.57302078,610708c5efbf18e4295facc3,64d2fd46c836a06233681665,64dc7cd0aa9367f4d27f3766,,,,,,,sngl,resources/DBN.BMP,resources/Empty.png,WildCard_NonEx,-0.228407974,0.04128445,1,0,0,0.8446,optionLeft,45,11935,5,42,0,42,0,1,,,,,,,,,,,,,,,,,,,,,,,,,,,,,,,,,,,,,,,
,,,,,,,,2023-08-16_08h48.12.482,HF_wild_card,2022.2.4,Win32,60.57302078,610708c5efbf18e4295facc3,64d2fd46c836a06233681665,64dc7cd0aa9367f4d27f3766,,,,,,,decisionTrl,resources/DB.BMP,resources/DBN.BMP,WildCard_NonEx,0.220113865,0.020897075,1,0,0,1.3984,optionRight,45,11980,5,43,0,43,0,1,,,,,,,,,,,,,,,,,,,,,,,,,,,,,,,,,,,,,,,
,,,,,,,,2023-08-16_08h48.12.482,HF_wild_card,2022.2.4,Win32,60.57302078,610708c5efbf18e4295facc3,64d2fd46c836a06233681665,64dc7cd0aa9367f4d27f3766,,,,,,,,,,,,,,,,,,,,,,,,,,4,0,4,0,1,,,,,,,,,,,,,,,,,,,,,,,,,,,,,,,,,,
,,,,,,,,2023-08-16_08h48.12.482,HF_wild_card,2022.2.4,Win32,60.57302078,610708c5efbf18e4295facc3,64d2fd46c836a06233681665,64dc7cd0aa9367f4d27f3766,,,,,,,sngl,resources/Empty.png,resources/DBN.BMP,WildCard_NonEx,0.181192567,-0.189463391,1,0,0,0.9768,optionRight,45,12025,6,0,0,0,0,1,,,,,,,,,,,,,,,,,,,,,,,,,,,,,,,,,,,,,,,
,,,,,,,,2023-08-16_08h48.12.482,HF_wild_card,2022.2.4,Win32,60.57302078,610708c5efbf18e4295facc3,64d2fd46c836a06233681665,64dc7cd0aa9367f4d27f3766,,,,,,,decisionTrl,resources/DG.BMP,resources/DB.BMP,Door2,-0.170952707,-0.009683965,1,0,0,0.7775,optionLeft,20,12045,6,1,0,1,0,1,,,,,,,,,,,,,,,,,,,,,,,,,,,,,,,,,,,,,,,
,,,,,,,,2023-08-16_08h48.12.482,HF_wild_card,2022.2.4,Win32,60.57302078,610708c5efbf18e4295facc3,64d2fd46c836a06233681665,64dc7cd0aa9367f4d27f3766,,,,,,,decisionTrl,resources/DR.BMP,resources/DY.BMP,Door3,0.253475084,0.038504318,1,0,0,2.1321,optionRight,70,12115,6,2,0,2,0,1,,,,,,,,,,,,,,,,,,,,,,,,,,,,,,,,,,,,,,,
,,,,,,,,2023-08-16_08h48.12.482,HF_wild_card,2022.2.4,Win32,60.57302078,610708c5efbf18e4295facc3,64d2fd46c836a06233681665,64dc7cd0aa9367f4d27f3766,,,,,,,decisionTrl,resources/DB.BMP,resources/DG.BMP,Door2,0.203433349,0.020897075,1,0,0,0.9319,optionRight,20,12135,6,3,0,3,0,1,,,,,,,,,,,,,,,,,,,,,,,,,,,,,,,,,,,,,,,
,,,,,,,,2023-08-16_08h48.12.482,HF_wild_card,2022.2.4,Win32,60.57302078,610708c5efbf18e4295facc3,64d2fd46c836a06233681665,64dc7cd0aa9367f4d27f3766,,,,,,,decisionTrl,resources/DG.BMP,resources/DB.BMP,Door1,0.253475084,-0.033778106,1,0,0,1.2481,optionRight,30,12165,6,4,0,4,0,1,,,,,,,,,,,,,,,,,,,,,,,,,,,,,,,,,,,,,,,
,,,,,,,,2023-08-16_08h48.12.482,HF_wild_card,2022.2.4,Win32,60.57302078,610708c5efbf18e4295facc3,64d2fd46c836a06233681665,64dc7cd0aa9367f4d27f3766,,,,,,,decisionTrl,resources/DG.BMP,resources/DB.BMP,Door1,0.280349311,0.035724232,1,0,0,0.6824,optionRight,30,12195,6,5,0,5,0,1,,,,,,,,,,,,,,,,,,,,,,,,,,,,,,,,,,,,,,,
,,,,,,,,2023-08-16_08h48.12.482,HF_wild_card,2022.2.4,Win32,60.57302078,610708c5efbf18e4295facc3,64d2fd46c836a06233681665,64dc7cd0aa9367f4d27f3766,,,,,,,ctch,resources/DY.BMP,resources/DG.BMP,Door3,-0.185779863,-0.022657715,1,0,0,0.9988,optionLeft,70,12265,6,6,0,6,0,1,,,,,,,,,,,,,,,,,,,,,,,,,,,,,,,,,,,,,,,
,,,,,,,,2023-08-16_08h48.12.482,HF_wild_card,2022.2.4,Win32,60.57302078,610708c5efbf18e4295facc3,64d2fd46c836a06233681665,64dc7cd0aa9367f4d27f3766,,,,,,,decisionTrl,resources/DY.BMP,resources/DR.BMP,Door3,-0.214507497,-0.011537371,1,0,0,0.6653,optionLeft,70,12335,6,7,0,7,0,1,,,,,,,,,,,,,,,,,,,,,,,,,,,,,,,,,,,,,,,
,,,,,,,,2023-08-16_08h48.12.482,HF_wild_card,2022.2.4,Win32,60.57302078,610708c5efbf18e4295facc3,64d2fd46c836a06233681665,64dc7cd0aa9367f4d27f3766,,,,,,,sngl,resources/DBN.BMP,resources/Empty.png,WildCard_NonEx,-0.083842986,0.005143192,1,0,0,0.9988,optionLeft,45,12380,6,8,0,8,0,1,,,,,,,,,,,,,,,,,,,,,,,,,,,,,,,,,,,,,,,
,,,,,,,,2023-08-16_08h48.12.482,HF_wild_card,2022.2.4,Win32,60.57302078,610708c5efbf18e4295facc3,64d2fd46c836a06233681665,64dc7cd0aa9367f4d27f3766,,,,,,,ctch,resources/DG.BMP,resources/DY.BMP,Door3,0.383212775,0.070938764,1,0,0,1.2487,optionRight,70,12450,6,9,0,9,0,1,,,,,,,,,,,,,,,,,,,,,,,,,,,,,,,,,,,,,,,
,,,,,,,,2023-08-16_08h48.12.482,HF_wild_card,2022.2.4,Win32,60.57302078,610708c5efbf18e4295facc3,64d2fd46c836a06233681665,64dc7cd0aa9367f4d27f3766,,,,,,,sngl,resources/Empty.png,resources/DBN.BMP,WildCard_NonEx,0.233087662,0.036650958,1,0,0,0.831,optionRight,55,12505,6,10,0,10,0,1,,,,,,,,,,,,,,,,,,,,,,,,,,,,,,,,,,,,,,,
,,,,,,,,2023-08-16_08h48.12.482,HF_wild_card,2022.2.4,Win32,60.57302078,610708c5efbf18e4295facc3,64d2fd46c836a06233681665,64dc7cd0aa9367f4d27f3766,,,,,,,sngl,resources/Empty.png,resources/DY.BMP,Door3,0.246061459,0.049624708,1,0,0,0.7653,optionRight,70,12575,6,11,0,11,0,1,,,,,,,,,,,,,,,,,,,,,,,,,,,,,,,,,,,,,,,
,,,,,,,,2023-08-16_08h48.12.482,HF_wild_card,2022.2.4,Win32,60.57302078,610708c5efbf18e4295facc3,64d2fd46c836a06233681665,64dc7cd0aa9367f4d27f3766,,,,,,,decisionTrl,resources/DR.BMP,resources/DY.BMP,Door4,-0.355365625,0.002363106,1,0,0,1.2985,optionLeft,80,12655,6,12,0,12,0,1,,,,,,,,,,,,,,,,,,,,,,,,,,,,,,,,,,,,,,,
,,,,,,,,2023-08-16_08h48.12.482,HF_wild_card,2022.2.4,Win32,60.57302078,610708c5efbf18e4295facc3,64d2fd46c836a06233681665,64dc7cd0aa9367f4d27f3766,,,,,,,sngl,resources/Empty.png,resources/DG.BMP,Door2,0.176559122,0.007923325,1,0,0,0.7656,optionRight,40,12695,6,13,0,13,0,1,,,,,,,,,,,,,,,,,,,,,,,,,,,,,,,,,,,,,,,
,,,,,,,,2023-08-16_08h48.12.482,HF_wild_card,2022.2.4,Win32,60.57302078,610708c5efbf18e4295facc3,64d2fd46c836a06233681665,64dc7cd0aa9367f4d27f3766,,,,,,,decisionTrl,resources/DR.BMP,resources/DBN.BMP,Door4,-0.246015263,-0.017097543,1,0,0,1.5317,optionLeft,60,12755,6,14,0,14,0,1,,,,,,,,,,,,,,,,,,,,,,,,,,,,,,,,,,,,,,,
,,,,,,,,2023-08-16_08h48.12.482,HF_wild_card,2022.2.4,Win32,60.57302078,610708c5efbf18e4295facc3,64d2fd46c836a06233681665,64dc7cd0aa9367f4d27f3766,,,,,,,ctch,resources/DR.BMP,resources/DB.BMP,Door4,-0.257135607,-0.013390684,1,0,0,0.7654,optionLeft,60,12815,6,15,0,15,0,1,,,,,,,,,,,,,,,,,,,,,,,,,,,,,,,,,,,,,,,
,,,,,,,,2023-08-16_08h48.12.482,HF_wild_card,2022.2.4,Win32,60.57302078,610708c5efbf18e4295facc3,64d2fd46c836a06233681665,64dc7cd0aa9367f4d27f3766,,,,,,,sngl,resources/DBN.BMP,resources/Empty.png,WildCard_NonEx,-0.309030702,-0.006903879,1,0,0,1.0155,optionLeft,55,12870,6,16,0,16,0,1,,,,,,,,,,,,,,,,,,,,,,,,,,,,,,,,,,,,,,,
,,,,,,,,2023-08-16_08h48.12.482,HF_wild_card,2022.2.4,Win32,60.57302078,610708c5efbf18e4295facc3,64d2fd46c836a06233681665,64dc7cd0aa9367f4d27f3766,,,,,,,sngl,resources/Empty.png,resources/DR.BMP,Door4,0.363752079,0.002363106,1,0,0,0.7819,optionRight,80,12950,6,17,0,17,0,1,,,,,,,,,,,,,,,,,,,,,,,,,,,,,,,,,,,,,,,
,,,,,,,,2023-08-16_08h48.12.482,HF_wild_card,2022.2.4,Win32,60.57302078,610708c5efbf18e4295facc3,64d2fd46c836a06233681665,64dc7cd0aa9367f4d27f3766,,,,,,,decisionTrl,resources/DY.BMP,resources/DR.BMP,Door3,-0.213580817,0.015336903,1,0,0,1.2985,optionLeft,70,13020,6,18,0,18,0,1,,,,,,,,,,,,,,,,,,,,,,,,,,,,,,,,,,,,,,,
,,,,,,,,2023-08-16_08h48.12.482,HF_wild_card,2022.2.4,Win32,60.57302078,610708c5efbf18e4295facc3,64d2fd46c836a06233681665,64dc7cd0aa9367f4d27f3766,,,,,,,decisionTrl,resources/DB.BMP,resources/DBN.BMP,WildCard_NonEx,0.297029828,0.032944146,1,0,0,2.0315,optionRight,45,13065,6,19,0,19,0,1,,,,,,,,,,,,,,,,,,,,,,,,,,,,,,,,,,,,,,,
,,,,,,,,2023-08-16_08h48.12.482,HF_wild_card,2022.2.4,Win32,60.57302078,610708c5efbf18e4295facc3,64d2fd46c836a06233681665,64dc7cd0aa9367f4d27f3766,,,,,,,decisionTrl,resources/DBN.BMP,resources/DB.BMP,WildCard_NonEx,-0.219140989,-0.011537371,1,0,0,0.8988,optionLeft,55,13120,6,20,0,20,0,1,,,,,,,,,,,,,,,,,,,,,,,,,,,,,,,,,,,,,,,
,,,,,,,,2023-08-16_08h48.12.482,HF_wild_card,2022.2.4,Win32,60.57302078,610708c5efbf18e4295facc3,64d2fd46c836a06233681665,64dc7cd0aa9367f4d27f3766,,,,,,,decisionTrl,resources/DBN.BMP,resources/DR.BMP,Door4,0.260888616,-0.009683965,1,0,0,1.282,optionRight,80,13200,6,21,0,21,0,1,,,,,,,,,,,,,,,,,,,,,,,,,,,,,,,,,,,,,,,
,,,,,,,,2023-08-16_08h48.12.482,HF_wild_card,2022.2.4,Win32,60.57302078,610708c5efbf18e4295facc3,64d2fd46c836a06233681665,64dc7cd0aa9367f4d27f3766,,,,,,,decisionTrl,resources/DY.BMP,resources/DR.BMP,Door3,-0.268255998,0.01163009,1,0,0,0.932,optionLeft,70,13270,6,22,0,22,0,1,,,,,,,,,,,,,,,,,,,,,,,,,,,,,,,,,,,,,,,
,,,,,,,,2023-08-16_08h48.12.482,HF_wild_card,2022.2.4,Win32,60.57302078,610708c5efbf18e4295facc3,64d2fd46c836a06233681665,64dc7cd0aa9367f4d27f3766,,,,,,,sngl,resources/DG.BMP,resources/Empty.png,Door2,-0.217287583,-0.049531989,1,0,0,0.6473,optionLeft,20,13290,6,23,0,23,0,1,,,,,,,,,,,,,,,,,,,,,,,,,,,,,,,,,,,,,,,
,,,,,,,,2023-08-16_08h48.12.482,HF_wild_card,2022.2.4,Win32,60.57302078,610708c5efbf18e4295facc3,64d2fd46c836a06233681665,64dc7cd0aa9367f4d27f3766,,,,,,,sngl,resources/Empty.png,resources/DB.BMP,Door1,0.215480419,0.027383973,1,0,0,0.7154,optionRight,30,13320,6,24,0,24,0,1,,,,,,,,,,,,,,,,,,,,,,,,,,,,,,,,,,,,,,,
,,,,,,,,2023-08-16_08h48.12.482,HF_wild_card,2022.2.4,Win32,60.57302078,610708c5efbf18e4295facc3,64d2fd46c836a06233681665,64dc7cd0aa9367f4d27f3766,,,,,,,decisionTrl,resources/DB.BMP,resources/DG.BMP,Door1,-0.223774481,-0.014317457,1,0,0,2.1988,optionLeft,30,13350,6,25,0,25,0,1,,,,,,,,,,,,,,,,,,,,,,,,,,,,,,,,,,,,,,,
,,,,,,,,2023-08-16_08h48.12.482,HF_wild_card,2022.2.4,Win32,60.57302078,610708c5efbf18e4295facc3,64d2fd46c836a06233681665,64dc7cd0aa9367f4d27f3766,,,,,,,decisionTrl,resources/DB.BMP,resources/DG.BMP,Door1,-0.309030702,-0.035631512,1,0,0,0.649,optionLeft,30,13380,6,26,0,26,0,1,,,,,,,,,,,,,,,,,,,,,,,,,,,,,,,,,,,,,,,
,,,,,,,,2023-08-16_08h48.12.482,HF_wild_card,2022.2.4,Win32,60.57302078,610708c5efbf18e4295facc3,64d2fd46c836a06233681665,64dc7cd0aa9367f4d27f3766,,,,,,,sngl,resources/DR.BMP,resources/Empty.png,Door4,-0.216360903,-0.027291208,1,0,0,0.6655,optionLeft,60,13440,6,27,0,27,0,1,,,,,,,,,,,,,,,,,,,,,,,,,,,,,,,,,,,,,,,
,,,,,,,,2023-08-16_08h48.12.482,HF_wild_card,2022.2.4,Win32,60.57302078,610708c5efbf18e4295facc3,64d2fd46c836a06233681665,64dc7cd0aa9367f4d27f3766,,,,,,,decisionTrl,resources/DR.BMP,resources/DY.BMP,Door3,0.309076898,0.0005097,1,0,0,0.9817,optionRight,70,13510,6,28,0,28,0,1,,,,,,,,,,,,,,,,,,,,,,,,,,,,,,,,,,,,,,,
,,,,,,,,2023-08-16_08h48.12.482,HF_wild_card,2022.2.4,Win32,60.57302078,610708c5efbf18e4295facc3,64d2fd46c836a06233681665,64dc7cd0aa9367f4d27f3766,,,,,,,decisionTrl,resources/DY.BMP,resources/DR.BMP,Door3,-0.264549185,0.006996598,1,0,0,0.7154,optionLeft,70,13580,6,29,0,29,0,1,,,,,,,,,,,,,,,,,,,,,,,,,,,,,,,,,,,,,,,
,,,,,,,,2023-08-16_08h48.12.482,HF_wild_card,2022.2.4,Win32,60.57302078,610708c5efbf18e4295facc3,64d2fd46c836a06233681665,64dc7cd0aa9367f4d27f3766,,,,,,,ctch,resources/DB.BMP,resources/DR.BMP,Door4,0.335024492,0.01163009,1,0,0,0.8818,optionRight,60,13640,6,30,0,30,0,1,,,,,,,,,,,,,,,,,,,,,,,,,,,,,,,,,,,,,,,
,,,,,,,,2023-08-16_08h48.12.482,HF_wild_card,2022.2.4,Win32,60.57302078,610708c5efbf18e4295facc3,64d2fd46c836a06233681665,64dc7cd0aa9367f4d27f3766,,,,,,,decisionTrl,resources/DR.BMP,resources/DY.BMP,Door4,-0.293276866,0.002363106,1,0,0,0.7821,optionLeft,80,13720,6,31,0,31,0,1,,,,,,,,,,,,,,,,,,,,,,,,,,,,,,,,,,,,,,,
,,,,,,,,2023-08-16_08h48.12.482,HF_wild_card,2022.2.4,Win32,60.57302078,610708c5efbf18e4295facc3,64d2fd46c836a06233681665,64dc7cd0aa9367f4d27f3766,,,,,,,ctch,resources/DR.BMP,resources/DB.BMP,Door4,-0.393360243,-0.004123793,1,0,0,0.7483,optionLeft,60,13780,6,32,0,32,0,1,,,,,,,,,,,,,,,,,,,,,,,,,,,,,,,,,,,,,,,
,,,,,,,,2023-08-16_08h48.12.482,HF_wild_card,2022.2.4,Win32,60.57302078,610708c5efbf18e4295facc3,64d2fd46c836a06233681665,64dc7cd0aa9367f4d27f3766,,,,,,,ctch,resources/DY.BMP,resources/DG.BMP,Door3,-0.228407974,-0.033778106,1,0,0,0.6818,optionLeft,70,13850,6,33,0,33,0,1,,,,,,,,,,,,,,,,,,,,,,,,,,,,,,,,,,,,,,,
,,,,,,,,2023-08-16_08h48.12.482,HF_wild_card,2022.2.4,Win32,60.57302078,610708c5efbf18e4295facc3,64d2fd46c836a06233681665,64dc7cd0aa9367f4d27f3766,,,,,,,decisionTrl,resources/DY.BMP,resources/DBN.BMP,Door3,-0.300690444,-0.005050473,1,0,0,0.6656,optionLeft,70,13920,6,34,0,34,0,1,,,,,,,,,,,,,,,,,,,,,,,,,,,,,,,,,,,,,,,
,,,,,,,,2023-08-16_08h48.12.482,HF_wild_card,2022.2.4,Win32,60.57302078,610708c5efbf18e4295facc3,64d2fd46c836a06233681665,64dc7cd0aa9367f4d27f3766,,,,,,,sngl,resources/DY.BMP,resources/Empty.png,Door3,-0.210800731,0.006069918,1,0,0,0.5492,optionLeft,70,13990,6,35,0,35,0,1,,,,,,,,,,,,,,,,,,,,,,,,,,,,,,,,,,,,,,,
,,,,,,,,2023-08-16_08h48.12.482,HF_wild_card,2022.2.4,Win32,60.57302078,610708c5efbf18e4295facc3,64d2fd46c836a06233681665,64dc7cd0aa9367f4d27f3766,,,,,,,decisionTrl,resources/DG.BMP,resources/DB.BMP,Door2,-0.164465761,-0.038411598,1,0,0,1.4154,optionLeft,40,14030,6,36,0,36,0,1,,,,,,,,,,,,,,,,,,,,,,,,,,,,,,,,,,,,,,,
,,,,,,,,2023-08-16_08h48.12.482,HF_wild_card,2022.2.4,Win32,60.57302078,610708c5efbf18e4295facc3,64d2fd46c836a06233681665,64dc7cd0aa9367f4d27f3766,,,,,,,decisionTrl,resources/DBN.BMP,resources/DY.BMP,Door3,0.27200896,-0.003197066,1,0,0,0.865,optionRight,70,14100,6,37,0,37,0,1,,,,,,,,,,,,,,,,,,,,,,,,,,,,,,,,,,,,,,,
,,,,,,,,2023-08-16_08h48.12.482,HF_wild_card,2022.2.4,Win32,60.57302078,610708c5efbf18e4295facc3,64d2fd46c836a06233681665,64dc7cd0aa9367f4d27f3766,,,,,,,decisionTrl,resources/DBN.BMP,resources/DG.BMP,WildCard_NonEx,-0.141298347,-0.005050473,1,0,0,1.7275,optionLeft,55,14155,6,38,0,38,0,1,,,,,,,,,,,,,,,,,,,,,,,,,,,,,,,,,,,,,,,
,,,,,,,,2023-08-16_08h48.12.482,HF_wild_card,2022.2.4,Win32,60.57302078,610708c5efbf18e4295facc3,64d2fd46c836a06233681665,64dc7cd0aa9367f4d27f3766,,,,,,,decisionTrl,resources/DB.BMP,resources/DG.BMP,Door2,0.254401717,0.010703411,1,0,0,0.9316,optionRight,20,14175,6,39,0,39,0,1,,,,,,,,,,,,,,,,,,,,,,,,,,,,,,,,,,,,,,,
,,,,,,,,2023-08-16_08h48.12.482,HF_wild_card,2022.2.4,Win32,60.57302078,610708c5efbf18e4295facc3,64d2fd46c836a06233681665,64dc7cd0aa9367f4d27f3766,,,,,,,decisionTrl,resources/DG.BMP,resources/DBN.BMP,WildCard_NonEx,0.238647834,0.021823755,1,0,0,0.9987,optionRight,55,14230,6,40,0,40,0,1,,,,,,,,,,,,,,,,,,,,,,,,,,,,,,,,,,,,,,,
,,,,,,,,2023-08-16_08h48.12.482,HF_wild_card,2022.2.4,Win32,60.57302078,610708c5efbf18e4295facc3,64d2fd46c836a06233681665,64dc7cd0aa9367f4d27f3766,,,,,,,ctch,resources/DG.BMP,resources/DY.BMP,Door3,0.346144837,-0.057872247,1,0,0,1.1153,optionRight,70,14300,6,41,0,41,0,1,,,,,,,,,,,,,,,,,,,,,,,,,,,,,,,,,,,,,,,
,,,,,,,,2023-08-16_08h48.12.482,HF_wild_card,2022.2.4,Win32,60.57302078,610708c5efbf18e4295facc3,64d2fd46c836a06233681665,64dc7cd0aa9367f4d27f3766,,,,,,,sngl,resources/DB.BMP,resources/Empty.png,Door1,-0.300690444,0.005143192,1,0,0,0.8322,optionLeft,30,14330,6,42,0,42,0,1,,,,,,,,,,,,,,,,,,,,,,,,,,,,,,,,,,,,,,,
,,,,,,,,2023-08-16_08h48.12.482,HF_wild_card,2022.2.4,Win32,60.57302078,610708c5efbf18e4295facc3,64d2fd46c836a06233681665,64dc7cd0aa9367f4d27f3766,,,,,,,ctch,resources/DB.BMP,resources/DR.BMP,Door4,0.272935686,0.023677161,1,0,0,0.9986,optionRight,60,14390,6,43,0,43,0,1,,,,,,,,,,,,,,,,,,,,,,,,,,,,,,,,,,,,,,,
,,,,,,,,2023-08-16_08h48.12.482,HF_wild_card,2022.2.4,Win32,60.57302078,610708c5efbf18e4295facc3,64d2fd46c836a06233681665,64dc7cd0aa9367f4d27f3766,,,,,,,,,,,,,,,,,,,,,,,,,,5,0,5,0,1,,,,,,,,,,,,,,,,,,,,,,,,,,,,,,,,,,
,,,,,,,,2023-08-16_08h48.12.482,HF_wild_card,2022.2.4,Win32,60.57302078,610708c5efbf18e4295facc3,64d2fd46c836a06233681665,64dc7cd0aa9367f4d27f3766,,,,,,,decisionTrl,resources/DG.BMP,resources/DB.BMP,Door2,-0.261769099,-0.034704832,1,0,0,1.0251,optionLeft,20,14410,7,0,0,0,0,1,,,,,,,,,,,,,,,,,,,,,,,,,,,,,,,,,,,,,,,
,,,,,,,,2023-08-16_08h48.12.482,HF_wild_card,2022.2.4,Win32,60.57302078,610708c5efbf18e4295facc3,64d2fd46c836a06233681665,64dc7cd0aa9367f4d27f3766,,,,,,,ctch,resources/DB.BMP,resources/DR.BMP,Door4,0.292396382,-0.013390684,1,0,0,0.8658,optionRight,60,14470,7,1,0,1,0,1,,,,,,,,,,,,,,,,,,,,,,,,,,,,,,,,,,,,,,,
,,,,,,,,2023-08-16_08h48.12.482,HF_wild_card,2022.2.4,Win32,60.57302078,610708c5efbf18e4295facc3,64d2fd46c836a06233681665,64dc7cd0aa9367f4d27f3766,,,,,,,decisionTrl,resources/DG.BMP,resources/DB.BMP,Door1,0.28868957,-0.021731035,1,0,0,1.7657,optionRight,30,14500,7,2,0,2,0,1,,,,,,,,,,,,,,,,,,,,,,,,,,,,,,,,,,,,,,,
,,,,,,,,2023-08-16_08h48.12.482,HF_wild_card,2022.2.4,Win32,60.57302078,610708c5efbf18e4295facc3,64d2fd46c836a06233681665,64dc7cd0aa9367f4d27f3766,,,,,,,ctch,resources/DR.BMP,resources/DB.BMP,Door4,-0.182999777,-0.041191684,1,0,0,0.6327,optionLeft,80,14580,7,3,0,3,0,1,,,,,,,,,,,,,,,,,,,,,,,,,,,,,,,,,,,,,,,
,,,,,,,,2023-08-16_08h48.12.482,HF_wild_card,2022.2.4,Win32,60.57302078,610708c5efbf18e4295facc3,64d2fd46c836a06233681665,64dc7cd0aa9367f4d27f3766,,,,,,,decisionTrl,resources/DR.BMP,resources/DY.BMP,Door3,0.297029828,0.007923325,1,0,0,0.6825,optionRight,70,14650,7,4,0,4,0,1,,,,,,,,,,,,,,,,,,,,,,,,,,,,,,,,,,,,,,,
,,,,,,,,2023-08-16_08h48.12.482,HF_wild_card,2022.2.4,Win32,60.57302078,610708c5efbf18e4295facc3,64d2fd46c836a06233681665,64dc7cd0aa9367f4d27f3766,,,,,,,decisionTrl,resources/DB.BMP,resources/DG.BMP,Door1,-0.227481294,-0.038411598,1,0,0,2.3329,optionLeft,30,14680,7,5,0,5,0,1,,,,,,,,,,,,,,,,,,,,,,,,,,,,,,,,,,,,,,,
,,,,,,,,2023-08-16_08h48.12.482,HF_wild_card,2022.2.4,Win32,60.57302078,610708c5efbf18e4295facc3,64d2fd46c836a06233681665,64dc7cd0aa9367f4d27f3766,,,,,,,ctch,resources/DG.BMP,resources/DY.BMP,Door3,0.320197336,-0.047678583,1,0,0,0.7983,optionRight,70,14750,7,6,0,6,0,1,,,,,,,,,,,,,,,,,,,,,,,,,,,,,,,,,,,,,,,
,,,,,,,,2023-08-16_08h48.12.482,HF_wild_card,2022.2.4,Win32,60.57302078,610708c5efbf18e4295facc3,64d2fd46c836a06233681665,64dc7cd0aa9367f4d27f3766,,,,,,,decisionTrl,resources/DY.BMP,resources/DR.BMP,Door4,0.280349311,-0.052312075,1,0,0,1.4995,optionRight,80,14830,7,7,0,7,0,1,,,,,,,,,,,,,,,,,,,,,,,,,,,,,,,,,,,,,,,
,,,,,,,,2023-08-16_08h48.12.482,HF_wild_card,2022.2.4,Win32,60.57302078,610708c5efbf18e4295facc3,64d2fd46c836a06233681665,64dc7cd0aa9367f4d27f3766,,,,,,,ctch,resources/DG.BMP,resources/DY.BMP,Door3,0.353558462,-0.018950949,1,0,0,0.6326,optionRight,70,14900,7,8,0,8,0,1,,,,,,,,,,,,,,,,,,,,,,,,,,,,,,,,,,,,,,,
,,,,,,,,2023-08-16_08h48.12.482,HF_wild_card,2022.2.4,Win32,60.57302078,610708c5efbf18e4295facc3,64d2fd46c836a06233681665,64dc7cd0aa9367f4d27f3766,,,,,,,decisionTrl,resources/DY.BMP,resources/DR.BMP,Door3,-0.267329318,-0.033778106,1,0,0,0.616,optionLeft,70,14970,7,9,0,9,0,1,,,,,,,,,,,,,,,,,,,,,,,,,,,,,,,,,,,,,,,
,,,,,,,,2023-08-16_08h48.12.482,HF_wild_card,2022.2.4,Win32,60.57302078,610708c5efbf18e4295facc3,64d2fd46c836a06233681665,64dc7cd0aa9367f4d27f3766,,,,,,,decisionTrl,resources/DR.BMP,resources/DY.BMP,Door4,-0.227481294,-0.034704832,1,0,0,0.7659,optionLeft,60,15030,7,10,0,10,0,1,,,,,,,,,,,,,,,,,,,,,,,,,,,,,,,,,,,,,,,
,,,,,,,,2023-08-16_08h48.12.482,HF_wild_card,2022.2.4,Win32,60.57302078,610708c5efbf18e4295facc3,64d2fd46c836a06233681665,64dc7cd0aa9367f4d27f3766,,,,,,,decisionTrl,resources/DG.BMP,resources/DB.BMP,Door1,0.311856984,-0.018950949,1,0,0,1.5825,optionRight,30,15060,7,11,0,11,0,1,,,,,,,,,,,,,,,,,,,,,,,,,,,,,,,,,,,,,,,
,,,,,,,,2023-08-16_08h48.12.482,HF_wild_card,2022.2.4,Win32,60.57302078,610708c5efbf18e4295facc3,64d2fd46c836a06233681665,64dc7cd0aa9367f4d27f3766,,,,,,,decisionTrl,resources/DY.BMP,resources/DR.BMP,Door3,-0.221921075,-0.003197066,1,0,0,1.6994,optionLeft,70,15130,7,12,0,12,0,1,,,,,,,,,,,,,,,,,,,,,,,,,,,,,,,,,,,,,,,
,,,,,,,,2023-08-16_08h48.12.482,HF_wild_card,2022.2.4,Win32,60.57302078,610708c5efbf18e4295facc3,64d2fd46c836a06233681665,64dc7cd0aa9367f4d27f3766,,,,,,,ctch,resources/DG.BMP,resources/DY.BMP,Door3,0.297956554,-0.03007134,1,0,0,0.8326,optionRight,70,15200,7,13,0,13,0,1,,,,,,,,,,,,,,,,,,,,,,,,,,,,,,,,,,,,,,,
,,,,,,,,2023-08-16_08h48.12.482,HF_wild_card,2022.2.4,Win32,60.57302078,610708c5efbf18e4295facc3,64d2fd46c836a06233681665,64dc7cd0aa9367f4d27f3766,,,,,,,decisionTrl,resources/DR.BMP,resources/DY.BMP,Door4,-0.296983631,-0.025437848,1,0,0,0.8162,optionLeft,80,15280,7,14,0,14,0,1,,,,,,,,,,,,,,,,,,,,,,,,,,,,,,,,,,,,,,,
,,,,,,,,2023-08-16_08h48.12.482,HF_wild_card,2022.2.4,Win32,60.57302078,610708c5efbf18e4295facc3,64d2fd46c836a06233681665,64dc7cd0aa9367f4d27f3766,,,,,,,ctch,resources/DY.BMP,resources/DG.BMP,Door3,-0.280303068,-0.025437848,1,0,0,0.6328,optionLeft,70,15350,7,15,0,15,0,1,,,,,,,,,,,,,,,,,,,,,,,,,,,,,,,,,,,,,,,
,,,,,,,,2023-08-16_08h48.12.482,HF_wild_card,2022.2.4,Win32,60.57302078,610708c5efbf18e4295facc3,64d2fd46c836a06233681665,64dc7cd0aa9367f4d27f3766,,,,,,,ctch,resources/DB.BMP,resources/DR.BMP,Door4,0.368385618,-0.004123793,1,0,0,0.8993,optionRight,60,15410,7,16,0,16,0,1,,,,,,,,,,,,,,,,,,,,,,,,,,,,,,,,,,,,,,,
,,,,,,,,2023-08-16_08h48.12.482,HF_wild_card,2022.2.4,Win32,60.57302078,610708c5efbf18e4295facc3,64d2fd46c836a06233681665,64dc7cd0aa9367f4d27f3766,,,,,,,decisionTrl,resources/DG.BMP,resources/DB.BMP,Door1,0.243281373,0.032944146,1,0,0,1.2991,optionRight,30,15440,7,17,0,17,0,1,,,,,,,,,,,,,,,,,,,,,,,,,,,,,,,,,,,,,,,
,,,,,,,,2023-08-16_08h48.12.482,HF_wild_card,2022.2.4,Win32,60.57302078,610708c5efbf18e4295facc3,64d2fd46c836a06233681665,64dc7cd0aa9367f4d27f3766,,,,,,,decisionTrl,resources/DB.BMP,resources/DG.BMP,Door1,-0.285863241,0.001436426,1,0,0,1.6659,optionLeft,30,15470,7,18,0,18,0,1,,,,,,,,,,,,,,,,,,,,,,,,,,,,,,,,,,,,,,,
,,,,,,,,2023-08-16_08h48.12.482,HF_wild_card,2022.2.4,Win32,60.57302078,610708c5efbf18e4295facc3,64d2fd46c836a06233681665,64dc7cd0aa9367f4d27f3766,,,,,,,decisionTrl,resources/DB.BMP,resources/DG.BMP,Door1,-0.238601638,-0.006903879,1,0,0,0.6162,optionLeft,30,15500,7,19,0,19,0,1,,,,,,,,,,,,,,,,,,,,,,,,,,,,,,,,,,,,,,,
,,,,,,,,2023-08-16_08h48.12.482,HF_wild_card,2022.2.4,Win32,60.57302078,610708c5efbf18e4295facc3,64d2fd46c836a06233681665,64dc7cd0aa9367f4d27f3766,,,,,,,decisionTrl,resources/DG.BMP,resources/DB.BMP,Door2,-0.268255998,-0.006903879,1,0,0,0.5491,optionLeft,40,15540,7,20,0,20,0,1,,,,,,,,,,,,,,,,,,,,,,,,,,,,,,,,,,,,,,,
,,,,,,,,2023-08-16_08h48.12.482,HF_wild_card,2022.2.4,Win32,60.57302078,610708c5efbf18e4295facc3,64d2fd46c836a06233681665,64dc7cd0aa9367f4d27f3766,,,,,,,decisionTrl,resources/DR.BMP,resources/DY.BMP,Door4,-0.315517601,-0.00134366,1,0,0,0.8325,optionLeft,60,15600,7,21,0,21,0,1,,,,,,,,,,,,,,,,,,,,,,,,,,,,,,,,,,,,,,,
,,,,,,,,2023-08-16_08h48.12.482,HF_wild_card,2022.2.4,Win32,60.57302078,610708c5efbf18e4295facc3,64d2fd46c836a06233681665,64dc7cd0aa9367f4d27f3766,,,,,,,decisionTrl,resources/DY.BMP,resources/DR.BMP,Door3,-0.280303068,0.004216512,1,0,0,0.8327,optionLeft,70,15670,7,22,0,22,0,1,,,,,,,,,,,,,,,,,,,,,,,,,,,,,,,,,,,,,,,
,,,,,,,,2023-08-16_08h48.12.482,HF_wild_card,2022.2.4,Win32,60.57302078,610708c5efbf18e4295facc3,64d2fd46c836a06233681665,64dc7cd0aa9367f4d27f3766,,,,,,,decisionTrl,resources/DG.BMP,resources/DB.BMP,Door1,0.2701556,-0.039338278,1,0,0,1.1159,optionRight,30,15700,7,23,0,23,0,1,,,,,,,,,,,,,,,,,,,,,,,,,,,,,,,,,,,,,,,
,,,,,,,,2023-08-16_08h48.12.482,HF_wild_card,2022.2.4,Win32,60.57302078,610708c5efbf18e4295facc3,64d2fd46c836a06233681665,64dc7cd0aa9367f4d27f3766,,,,,,,decisionTrl,resources/DR.BMP,resources/DY.BMP,Door3,0.33317104,-0.032851426,1,0,0,0.7495,optionRight,70,15770,7,24,0,24,0,1,,,,,,,,,,,,,,,,,,,,,,,,,,,,,,,,,,,,,,,
,,,,,,,,2023-08-16_08h48.12.482,HF_wild_card,2022.2.4,Win32,60.57302078,610708c5efbf18e4295facc3,64d2fd46c836a06233681665,64dc7cd0aa9367f4d27f3766,,,,,,,ctch,resources/DB.BMP,resources/DR.BMP,Door4,0.410087002,0.022750481,1,0,0,0.8661,optionRight,60,15830,7,25,0,25,0,1,,,,,,,,,,,,,,,,,,,,,,,,,,,,,,,,,,,,,,,
,,,,,,,,2023-08-16_08h48.12.482,HF_wild_card,2022.2.4,Win32,60.57302078,610708c5efbf18e4295facc3,64d2fd46c836a06233681665,64dc7cd0aa9367f4d27f3766,,,,,,,ctch,resources/DR.BMP,resources/DB.BMP,Door4,-0.248795349,0.019970395,1,0,0,0.8946,optionLeft,60,15890,7,26,0,26,0,1,,,,,,,,,,,,,,,,,,,,,,,,,,,,,,,,,,,,,,,
,,,,,,,,2023-08-16_08h48.12.482,HF_wild_card,2022.2.4,Win32,60.57302078,610708c5efbf18e4295facc3,64d2fd46c836a06233681665,64dc7cd0aa9367f4d27f3766,,,,,,,decisionTrl,resources/DR.BMP,resources/DY.BMP,Door3,0.296103195,0.015336903,1,0,0,0.9493,optionRight,70,15960,7,27,0,27,0,1,,,,,,,,,,,,,,,,,,,,,,,,,,,,,,,,,,,,,,,
,,,,,,,,2023-08-16_08h48.12.482,HF_wild_card,2022.2.4,Win32,60.57302078,610708c5efbf18e4295facc3,64d2fd46c836a06233681665,64dc7cd0aa9367f4d27f3766,,,,,,,ctch,resources/DY.BMP,resources/DG.BMP,Door3,-0.258062334,-0.020804356,1,0,0,0.5993,optionLeft,70,16030,7,28,0,28,0,1,,,,,,,,,,,,,,,,,,,,,,,,,,,,,,,,,,,,,,,
,,,,,,,,2023-08-16_08h48.12.482,HF_wild_card,2022.2.4,Win32,60.57302078,610708c5efbf18e4295facc3,64d2fd46c836a06233681665,64dc7cd0aa9367f4d27f3766,,,,,,,decisionTrl,resources/DY.BMP,resources/DR.BMP,Door3,-0.322931179,-0.029144614,1,0,0,0.4829,optionLeft,70,16100,7,29,0,29,0,1,,,,,,,,,,,,,,,,,,,,,,,,,,,,,,,,,,,,,,,
,,,,,,,,2023-08-16_08h48.12.482,HF_wild_card,2022.2.4,Win32,60.57302078,610708c5efbf18e4295facc3,64d2fd46c836a06233681665,64dc7cd0aa9367f4d27f3766,,,,,,,ctch,resources/DY.BMP,resources/DG.BMP,Door3,-0.26084242,-0.012464051,1,0,0,0.4995,optionLeft,70,16170,7,30,0,30,0,1,,,,,,,,,,,,,,,,,,,,,,,,,,,,,,,,,,,,,,,
,,,,,,,,2023-08-16_08h48.12.482,HF_wild_card,2022.2.4,Win32,60.57302078,610708c5efbf18e4295facc3,64d2fd46c836a06233681665,64dc7cd0aa9367f4d27f3766,,,,,,,decisionTrl,resources/DY.BMP,resources/DR.BMP,Door3,-0.277522982,0.006996598,1,0,0,0.5159,optionLeft,70,16240,7,31,0,31,0,1,,,,,,,,,,,,,,,,,,,,,,,,,,,,,,,,,,,,,,,
,,,,,,,,2023-08-16_08h48.12.482,HF_wild_card,2022.2.4,Win32,60.57302078,610708c5efbf18e4295facc3,64d2fd46c836a06233681665,64dc7cd0aa9367f4d27f3766,,,,,,,decisionTrl,resources/DB.BMP,resources/DG.BMP,Door1,-0.235821552,0.032944146,1,0,0,1.9159,optionLeft,30,16270,7,32,0,32,0,1,,,,,,,,,,,,,,,,,,,,,,,,,,,,,,,,,,,,,,,
,,,,,,,,2023-08-16_08h48.12.482,HF_wild_card,2022.2.4,Win32,60.57302078,610708c5efbf18e4295facc3,64d2fd46c836a06233681665,64dc7cd0aa9367f4d27f3766,,,,,,,decisionTrl,resources/DB.BMP,resources/DG.BMP,Door1,-0.235821552,-0.012464051,1,0,0,0.4996,optionLeft,30,16300,7,33,0,33,0,1,,,,,,,,,,,,,,,,,,,,,,,,,,,,,,,,,,,,,,,
,,,,,,,,2023-08-16_08h48.12.482,HF_wild_card,2022.2.4,Win32,60.57302078,610708c5efbf18e4295facc3,64d2fd46c836a06233681665,64dc7cd0aa9367f4d27f3766,,,,,,,decisionTrl,resources/DB.BMP,resources/DG.BMP,Door1,-0.220994395,-0.0319247,1,0,0,0.4996,optionLeft,30,16330,7,34,0,34,0,1,,,,,,,,,,,,,,,,,,,,,,,,,,,,,,,,,,,,,,,
,,,,,,,,2023-08-16_08h48.12.482,HF_wild_card,2022.2.4,Win32,60.57302078,610708c5efbf18e4295facc3,64d2fd46c836a06233681665,64dc7cd0aa9367f4d27f3766,,,,,,,ctch,resources/DR.BMP,resources/DB.BMP,Door4,-0.364632609,-0.023584442,1,0,0,0.7661,optionLeft,80,16410,7,35,0,35,0,1,,,,,,,,,,,,,,,,,,,,,,,,,,,,,,,,,,,,,,,
,,,,,,,,2023-08-16_08h48.12.482,HF_wild_card,2022.2.4,Win32,60.57302078,610708c5efbf18e4295facc3,64d2fd46c836a06233681665,64dc7cd0aa9367f4d27f3766,,,,,,,,,,,,,,,,,,,,,,,,,,6,0,6,0,1,,,,,,,,,,,,,,,,,,,,,,,,,,,,,,,,,,
,,,,,,,,2023-08-16_08h48.12.482,HF_wild_card,2022.2.4,Win32,60.57302078,610708c5efbf18e4295facc3,64d2fd46c836a06233681665,64dc7cd0aa9367f4d27f3766,,,,,,,,,,,,,,,,,,,,,,,,,,,,,,,4,,,,,,,,,,,,,,,,,,,,,,,,,,,,,,,,,
,,,,,,,,2023-08-16_08h48.12.482,HF_wild_card,2022.2.4,Win32,60.57302078,610708c5efbf18e4295facc3,64d2fd46c836a06233681665,64dc7cd0aa9367f4d27f3766,,,,,,,,,,,,,,,,,,,,,,,,,,,,,,,,,,,,,,,,,,,,,,,,,,,,,,,,,,,,,,,,
,,,,,,,,2023-08-16_08h48.12.482,HF_wild_card,2022.2.4,Win32,60.57302078,610708c5efbf18e4295facc3,64d2fd46c836a06233681665,64dc7cd0aa9367f4d27f3766,,,,,,,,,,,,,,,,,,,,,,,,,,,,,,,,30,Door1,resources/DB.BMP,0,0,0,0,1,,,,,,,,,,,,,,,,,,,,,,,,,
,,,,,,,,2023-08-16_08h48.12.482,HF_wild_card,2022.2.4,Win32,60.57302078,610708c5efbf18e4295facc3,64d2fd46c836a06233681665,64dc7cd0aa9367f4d27f3766,,,,,,,,,,,,,,,,,,,,,,,,,,,,,,,,20,Door2,resources/DG.BMP,1,0,1,0,1,,,,,,,,,,,,,,,,,,,,,,,,,
,,,,,,,,2023-08-16_08h48.12.482,HF_wild_card,2022.2.4,Win32,60.57302078,610708c5efbf18e4295facc3,64d2fd46c836a06233681665,64dc7cd0aa9367f4d27f3766,,,,,,,,,,,,,,,,,,,,,,,,,,,,,,,,80,Door3,resources/DY.BMP,2,0,2,0,1,,,,,,,,,,,,,,,,,,,,,,,,,
,,,,,,,,2023-08-16_08h48.12.482,HF_wild_card,2022.2.4,Win32,60.57302078,610708c5efbf18e4295facc3,64d2fd46c836a06233681665,64dc7cd0aa9367f4d27f3766,,,,,,,,,,,,,,,,,,,,,,,,,,,,,,,,55,WC_nonExtreme,resources/DBN.BMP,3,0,3,0,1,,,,,,,,,,,,,,,,,,,,,,,,,
,,,,,,,,2023-08-16_08h48.12.482,HF_wild_card,2022.2.4,Win32,60.57302078,610708c5efbf18e4295facc3,64d2fd46c836a06233681665,64dc7cd0aa9367f4d27f3766,,,,,,,,,,,,,,,,,,,,,,,,,,,,,,,,60,Door4,resources/DR.BMP,4,0,4,0,1,,,,,,,,,,,,,,,,,,,,,,,,,
,,,,,,,,2023-08-16_08h48.12.482,HF_wild_card,2022.2.4,Win32,60.57302078,610708c5efbf18e4295facc3,64d2fd46c836a06233681665,64dc7cd0aa9367f4d27f3766,,,,,,,,,,,,,,,,,,,,,,,,,,,,,,,,95,WC_extreme,resources/DP.BMP,5,0,5,0,1,,,,,,,,,,,,,,,,,,,,,,,,,
,,,,,,,,2023-08-16_08h48.12.482,HF_wild_card,2022.2.4,Win32,60.57302078,610708c5efbf18e4295facc3,64d2fd46c836a06233681665,64dc7cd0aa9367f4d27f3766,,,,,,,,,,,,,,,,,,,,,,,,,,,,,,,,,,,,,,,,,,,,,,,,,,,,,,,,,,,,,,,,
