Condition,Low fixed image (Door1),Low risky image (Door2),High fixed image (Door3),High risky image (Door4),Extreme Wild Card,NonExtreme Wild Card,,date,expName,psychopyVersion,OS,frameRate,PROLIFIC_PID,STUDY_ID,SESSION_ID,mouse_2.x,mouse_2.y,mouse_2.leftButton,mouse_2.midButton,mouse_2.rightButton,mouse_2.clicked_name,Trial Type,Left Option Image,Right Option Image,Chosen Door,mouse.x,mouse.y,mouse.leftButton,mouse.midButton,mouse.rightButton,mouse.time,mouse.clicked_name,Feedback,Cumulative Reward,Block,trial.thisRepN,trial.thisTrialN,trial.thisN,trial.thisIndex,trial.ran,blocks.thisRepN,blocks.thisTrialN,blocks.thisN,blocks.thisIndex,blocks.ran,Money conversion,First Outcome Reported,Shown Door (First Outcome),Displayed Image (First Outcome),outcomes.thisRepN,outcomes.thisTrialN,outcomes.thisN,outcomes.thisIndex,outcomes.ran,judgments.thisRepN,judgments.thisTrialN,judgments.thisN,judgments.thisIndex,judgments.ran,freqMouse.x,freqMouse.y,freqMouse.leftButton,freqMouse.midButton,freqMouse.rightButton,freqMouse.clicked_name,FQJ for first outcome,FQJ for second outcome,Shown Door,Displayed Image,trials.thisRepN,trials.thisTrialN,trials.thisN,trials.thisIndex,trials.ran,judgBlock.thisRepN,judgBlock.thisTrialN,judgBlock.thisN,judgBlock.thisIndex,judgBlock.ran
1,resources/DBN.BMP,resources/DB.BMP,resources/DG.BMP,resources/DY.BMP,resources/DR.BMP,resources/DP.BMP,,2023-08-16_08h37.26.435,HF_wild_card,2022.2.4,Win32,60.07810153,5ca48653ed23650001328d9d,64d2fd46c836a06233681665,64dc7c953314e6750d2ae994,,,,,,,,,,,,,,,,,,,,,,,,,,,,,,,,,,,,,,,,,,,,,,,,,,,,,,,,,,,,,,,,
,,,,,,,,2023-08-16_08h37.26.435,HF_wild_card,2022.2.4,Win32,60.07810153,5ca48653ed23650001328d9d,64d2fd46c836a06233681665,64dc7c953314e6750d2ae994,0.028703704,-0.430555556,1,0,0,agree,,,,,,,,,,,,,,,,,,,,,,,,,,,,,,,,,,,,,,,,,,,,,,,,,,,,,,,,,,
,,,,,,,,2023-08-16_08h37.26.435,HF_wild_card,2022.2.4,Win32,60.07810153,5ca48653ed23650001328d9d,64d2fd46c836a06233681665,64dc7c953314e6750d2ae994,,,,,,,,,,,,,,,,,,,,,,,,,,,,,,,,,,,,,,,,,,,,,,,,,,,,,,,,,,,,,,,,
,,,,,,,,2023-08-16_08h37.26.435,HF_wild_card,2022.2.4,Win32,60.07810153,5ca48653ed23650001328d9d,64d2fd46c836a06233681665,64dc7c953314e6750d2ae994,,,,,,,decisionTrl,resources/DG.BMP,resources/DY.BMP,Door3,-0.303703704,-0.062037037,1,0,0,1.906,optionLeft,70,70,1,0,0,0,0,1,,,,,,,,,,,,,,,,,,,,,,,,,,,,,,,,,,,,,,,
,,,,,,,,2023-08-16_08h37.26.435,HF_wild_card,2022.2.4,Win32,60.07810153,5ca48653ed23650001328d9d,64d2fd46c836a06233681665,64dc7c953314e6750d2ae994,,,,,,,sngl,resources/Empty.png,resources/DP.BMP,WildCard_NonEx,0.260185185,0.057407407,1,0,0,1.3099,optionRight,55,125,1,1,0,1,0,1,,,,,,,,,,,,,,,,,,,,,,,,,,,,,,,,,,,,,,,
,,,,,,,,2023-08-16_08h37.26.435,HF_wild_card,2022.2.4,Win32,60.07810153,5ca48653ed23650001328d9d,64d2fd46c836a06233681665,64dc7c953314e6750d2ae994,,,,,,,decisionTrl,resources/DBN.BMP,resources/DB.BMP,Door1,-0.238888889,0.00462963,1,0,0,1.8617,optionLeft,30,155,1,2,0,2,0,1,,,,,,,,,,,,,,,,,,,,,,,,,,,,,,,,,,,,,,,
,,,,,,,,2023-08-16_08h37.26.435,HF_wild_card,2022.2.4,Win32,60.07810153,5ca48653ed23650001328d9d,64d2fd46c836a06233681665,64dc7c953314e6750d2ae994,,,,,,,decisionTrl,resources/DY.BMP,resources/DG.BMP,Door4,-0.313888889,-0.030555556,1,0,0,1.8249,optionLeft,60,215,1,3,0,3,0,1,,,,,,,,,,,,,,,,,,,,,,,,,,,,,,,,,,,,,,,
,,,,,,,,2023-08-16_08h37.26.435,HF_wild_card,2022.2.4,Win32,60.07810153,5ca48653ed23650001328d9d,64d2fd46c836a06233681665,64dc7c953314e6750d2ae994,,,,,,,decisionTrl,resources/DBN.BMP,resources/DP.BMP,Door1,-0.35,0.04537037,1,0,0,1.4307,optionLeft,30,245,1,4,0,4,0,1,,,,,,,,,,,,,,,,,,,,,,,,,,,,,,,,,,,,,,,
,,,,,,,,2023-08-16_08h37.26.435,HF_wild_card,2022.2.4,Win32,60.07810153,5ca48653ed23650001328d9d,64d2fd46c836a06233681665,64dc7c953314e6750d2ae994,,,,,,,ctch,resources/DY.BMP,resources/DBN.BMP,Door4,-0.277777778,0.022222222,1,0,0,2.0294,optionLeft,80,325,1,5,0,5,0,1,,,,,,,,,,,,,,,,,,,,,,,,,,,,,,,,,,,,,,,
,,,,,,,,2023-08-16_08h37.26.435,HF_wild_card,2022.2.4,Win32,60.07810153,5ca48653ed23650001328d9d,64d2fd46c836a06233681665,64dc7c953314e6750d2ae994,,,,,,,ctch,resources/DBN.BMP,resources/DY.BMP,Door4,0.374074074,0.007407407,1,0,0,1.1001,optionRight,80,405,1,6,0,6,0,1,,,,,,,,,,,,,,,,,,,,,,,,,,,,,,,,,,,,,,,
,,,,,,,,2023-08-16_08h37.26.435,HF_wild_card,2022.2.4,Win32,60.07810153,5ca48653ed23650001328d9d,64d2fd46c836a06233681665,64dc7c953314e6750d2ae994,,,,,,,sngl,resources/DG.BMP,resources/Empty.png,Door3,-0.335185185,-0.008333333,1,0,0,1.2624,optionLeft,70,475,1,7,0,7,0,1,,,,,,,,,,,,,,,,,,,,,,,,,,,,,,,,,,,,,,,
,,,,,,,,2023-08-16_08h37.26.435,HF_wild_card,2022.2.4,Win32,60.07810153,5ca48653ed23650001328d9d,64d2fd46c836a06233681665,64dc7c953314e6750d2ae994,,,,,,,ctch,resources/DY.BMP,resources/DBN.BMP,Door4,-0.384259259,0.035185185,1,0,0,1.3121,optionLeft,80,555,1,8,0,8,0,1,,,,,,,,,,,,,,,,,,,,,,,,,,,,,,,,,,,,,,,
,,,,,,,,2023-08-16_08h37.26.435,HF_wild_card,2022.2.4,Win32,60.07810153,5ca48653ed23650001328d9d,64d2fd46c836a06233681665,64dc7c953314e6750d2ae994,,,,,,,decisionTrl,resources/DP.BMP,resources/DG.BMP,Door3,0.314814815,0.003703704,1,0,0,1.6927,optionRight,70,625,1,9,0,9,0,1,,,,,,,,,,,,,,,,,,,,,,,,,,,,,,,,,,,,,,,
,,,,,,,,2023-08-16_08h37.26.435,HF_wild_card,2022.2.4,Win32,60.07810153,5ca48653ed23650001328d9d,64d2fd46c836a06233681665,64dc7c953314e6750d2ae994,,,,,,,decisionTrl,resources/DY.BMP,resources/DG.BMP,Door4,-0.218518519,0.000925926,1,0,0,1.6761,optionLeft,80,705,1,10,0,10,0,1,,,,,,,,,,,,,,,,,,,,,,,,,,,,,,,,,,,,,,,
,,,,,,,,2023-08-16_08h37.26.435,HF_wild_card,2022.2.4,Win32,60.07810153,5ca48653ed23650001328d9d,64d2fd46c836a06233681665,64dc7c953314e6750d2ae994,,,,,,,decisionTrl,resources/DB.BMP,resources/DBN.BMP,Door2,-0.400925926,-0.016666667,1,0,0,1.6142,optionLeft,40,745,1,11,0,11,0,1,,,,,,,,,,,,,,,,,,,,,,,,,,,,,,,,,,,,,,,
,,,,,,,,2023-08-16_08h37.26.435,HF_wild_card,2022.2.4,Win32,60.07810153,5ca48653ed23650001328d9d,64d2fd46c836a06233681665,64dc7c953314e6750d2ae994,,,,,,,sngl,resources/Empty.png,resources/DB.BMP,Door2,0.37037037,-0.010185185,1,0,0,0.6316,optionRight,20,765,1,12,0,12,0,1,,,,,,,,,,,,,,,,,,,,,,,,,,,,,,,,,,,,,,,
,,,,,,,,2023-08-16_08h37.26.435,HF_wild_card,2022.2.4,Win32,60.07810153,5ca48653ed23650001328d9d,64d2fd46c836a06233681665,64dc7c953314e6750d2ae994,,,,,,,ctch,resources/DG.BMP,resources/DB.BMP,Door3,-0.29537037,0.008333333,1,0,0,1.1463,optionLeft,70,835,1,13,0,13,0,1,,,,,,,,,,,,,,,,,,,,,,,,,,,,,,,,,,,,,,,
,,,,,,,,2023-08-16_08h37.26.435,HF_wild_card,2022.2.4,Win32,60.07810153,5ca48653ed23650001328d9d,64d2fd46c836a06233681665,64dc7c953314e6750d2ae994,,,,,,,ctch,resources/DG.BMP,resources/DB.BMP,Door3,-0.305555556,-0.005555556,1,0,0,0.6746,optionLeft,70,905,1,14,0,14,0,1,,,,,,,,,,,,,,,,,,,,,,,,,,,,,,,,,,,,,,,
,,,,,,,,2023-08-16_08h37.26.435,HF_wild_card,2022.2.4,Win32,60.07810153,5ca48653ed23650001328d9d,64d2fd46c836a06233681665,64dc7c953314e6750d2ae994,,,,,,,decisionTrl,resources/DY.BMP,resources/DG.BMP,Door4,-0.275,-0.013888889,1,0,0,1.3813,optionLeft,60,965,1,15,0,15,0,1,,,,,,,,,,,,,,,,,,,,,,,,,,,,,,,,,,,,,,,
,,,,,,,,2023-08-16_08h37.26.435,HF_wild_card,2022.2.4,Win32,60.07810153,5ca48653ed23650001328d9d,64d2fd46c836a06233681665,64dc7c953314e6750d2ae994,,,,,,,decisionTrl,resources/DP.BMP,resources/DY.BMP,WildCard_NonEx,-0.34537037,-0.024074074,1,0,0,1.5439,optionLeft,45,1010,1,16,0,16,0,1,,,,,,,,,,,,,,,,,,,,,,,,,,,,,,,,,,,,,,,
,,,,,,,,2023-08-16_08h37.26.435,HF_wild_card,2022.2.4,Win32,60.07810153,5ca48653ed23650001328d9d,64d2fd46c836a06233681665,64dc7c953314e6750d2ae994,,,,,,,ctch,resources/DBN.BMP,resources/DY.BMP,Door4,0.468518519,-0.002777778,1,0,0,0.9968,optionRight,60,1070,1,17,0,17,0,1,,,,,,,,,,,,,,,,,,,,,,,,,,,,,,,,,,,,,,,
,,,,,,,,2023-08-16_08h37.26.435,HF_wild_card,2022.2.4,Win32,60.07810153,5ca48653ed23650001328d9d,64d2fd46c836a06233681665,64dc7c953314e6750d2ae994,,,,,,,decisionTrl,resources/DB.BMP,resources/DBN.BMP,Door2,-0.387962963,0.006481481,1,0,0,1.5853,optionLeft,40,1110,1,18,0,18,0,1,,,,,,,,,,,,,,,,,,,,,,,,,,,,,,,,,,,,,,,
,,,,,,,,2023-08-16_08h37.26.435,HF_wild_card,2022.2.4,Win32,60.07810153,5ca48653ed23650001328d9d,64d2fd46c836a06233681665,64dc7c953314e6750d2ae994,,,,,,,decisionTrl,resources/DG.BMP,resources/DP.BMP,Door3,-0.332407407,0,1,0,0,2.8467,optionLeft,70,1180,1,19,0,19,0,1,,,,,,,,,,,,,,,,,,,,,,,,,,,,,,,,,,,,,,,
,,,,,,,,2023-08-16_08h37.26.435,HF_wild_card,2022.2.4,Win32,60.07810153,5ca48653ed23650001328d9d,64d2fd46c836a06233681665,64dc7c953314e6750d2ae994,,,,,,,sngl,resources/DY.BMP,resources/Empty.png,Door4,-0.289814815,-0.027777778,1,0,0,0.8224,optionLeft,80,1260,1,20,0,20,0,1,,,,,,,,,,,,,,,,,,,,,,,,,,,,,,,,,,,,,,,
,,,,,,,,2023-08-16_08h37.26.435,HF_wild_card,2022.2.4,Win32,60.07810153,5ca48653ed23650001328d9d,64d2fd46c836a06233681665,64dc7c953314e6750d2ae994,,,,,,,decisionTrl,resources/DB.BMP,resources/DP.BMP,WildCard_NonEx,0.285185185,-0.006481481,1,0,0,4.2655,optionRight,55,1315,1,21,0,21,0,1,,,,,,,,,,,,,,,,,,,,,,,,,,,,,,,,,,,,,,,
,,,,,,,,2023-08-16_08h37.26.435,HF_wild_card,2022.2.4,Win32,60.07810153,5ca48653ed23650001328d9d,64d2fd46c836a06233681665,64dc7c953314e6750d2ae994,,,,,,,sngl,resources/DB.BMP,resources/Empty.png,Door2,-0.417592593,-0.00462963,1,0,0,0.5983,optionLeft,40,1355,1,22,0,22,0,1,,,,,,,,,,,,,,,,,,,,,,,,,,,,,,,,,,,,,,,
,,,,,,,,2023-08-16_08h37.26.435,HF_wild_card,2022.2.4,Win32,60.07810153,5ca48653ed23650001328d9d,64d2fd46c836a06233681665,64dc7c953314e6750d2ae994,,,,,,,sngl,resources/Empty.png,resources/DP.BMP,WildCard_NonEx,0.261111111,-0.018518519,1,0,0,0.6776,optionRight,45,1400,1,23,0,23,0,1,,,,,,,,,,,,,,,,,,,,,,,,,,,,,,,,,,,,,,,
,,,,,,,,2023-08-16_08h37.26.435,HF_wild_card,2022.2.4,Win32,60.07810153,5ca48653ed23650001328d9d,64d2fd46c836a06233681665,64dc7c953314e6750d2ae994,,,,,,,ctch,resources/DB.BMP,resources/DG.BMP,Door3,0.278703704,-0.00462963,1,0,0,1.0103,optionRight,70,1470,1,24,0,24,0,1,,,,,,,,,,,,,,,,,,,,,,,,,,,,,,,,,,,,,,,
,,,,,,,,2023-08-16_08h37.26.435,HF_wild_card,2022.2.4,Win32,60.07810153,5ca48653ed23650001328d9d,64d2fd46c836a06233681665,64dc7c953314e6750d2ae994,,,,,,,decisionTrl,resources/DG.BMP,resources/DY.BMP,Door4,0.419444444,0.003703704,1,0,0,2.3482,optionRight,60,1530,1,25,0,25,0,1,,,,,,,,,,,,,,,,,,,,,,,,,,,,,,,,,,,,,,,
,,,,,,,,2023-08-16_08h37.26.435,HF_wild_card,2022.2.4,Win32,60.07810153,5ca48653ed23650001328d9d,64d2fd46c836a06233681665,64dc7c953314e6750d2ae994,,,,,,,sngl,resources/DP.BMP,resources/Empty.png,WildCard_NonEx,-0.37037037,0.002777778,1,0,0,0.5809,optionLeft,45,1575,1,26,0,26,0,1,,,,,,,,,,,,,,,,,,,,,,,,,,,,,,,,,,,,,,,
,,,,,,,,2023-08-16_08h37.26.435,HF_wild_card,2022.2.4,Win32,60.07810153,5ca48653ed23650001328d9d,64d2fd46c836a06233681665,64dc7c953314e6750d2ae994,,,,,,,ctch,resources/DB.BMP,resources/DG.BMP,Door3,0.231481481,-0.013888889,1,0,0,2.7322,optionRight,70,1645,1,27,0,27,0,1,,,,,,,,,,,,,,,,,,,,,,,,,,,,,,,,,,,,,,,
,,,,,,,,2023-08-16_08h37.26.435,HF_wild_card,2022.2.4,Win32,60.07810153,5ca48653ed23650001328d9d,64d2fd46c836a06233681665,64dc7c953314e6750d2ae994,,,,,,,decisionTrl,resources/DBN.BMP,resources/DB.BMP,Door2,0.536111111,-0.040740741,1,0,0,1.8444,optionRight,40,1685,1,28,0,28,0,1,,,,,,,,,,,,,,,,,,,,,,,,,,,,,,,,,,,,,,,
,,,,,,,,2023-08-16_08h37.26.435,HF_wild_card,2022.2.4,Win32,60.07810153,5ca48653ed23650001328d9d,64d2fd46c836a06233681665,64dc7c953314e6750d2ae994,,,,,,,decisionTrl,resources/DY.BMP,resources/DP.BMP,Door4,-0.274074074,-0.00462963,1,0,0,1.2642,optionLeft,80,1765,1,29,0,29,0,1,,,,,,,,,,,,,,,,,,,,,,,,,,,,,,,,,,,,,,,
,,,,,,,,2023-08-16_08h37.26.435,HF_wild_card,2022.2.4,Win32,60.07810153,5ca48653ed23650001328d9d,64d2fd46c836a06233681665,64dc7c953314e6750d2ae994,,,,,,,decisionTrl,resources/DB.BMP,resources/DBN.BMP,Door2,-0.180555556,-0.000925926,1,0,0,1.109,optionLeft,40,1805,1,30,0,30,0,1,,,,,,,,,,,,,,,,,,,,,,,,,,,,,,,,,,,,,,,
,,,,,,,,2023-08-16_08h37.26.435,HF_wild_card,2022.2.4,Win32,60.07810153,5ca48653ed23650001328d9d,64d2fd46c836a06233681665,64dc7c953314e6750d2ae994,,,,,,,sngl,resources/Empty.png,resources/DBN.BMP,Door1,0.347222222,0.00462963,1,0,0,0.815,optionRight,30,1835,1,31,0,31,0,1,,,,,,,,,,,,,,,,,,,,,,,,,,,,,,,,,,,,,,,
,,,,,,,,2023-08-16_08h37.26.435,HF_wild_card,2022.2.4,Win32,60.07810153,5ca48653ed23650001328d9d,64d2fd46c836a06233681665,64dc7c953314e6750d2ae994,,,,,,,decisionTrl,resources/DBN.BMP,resources/DB.BMP,Door2,0.412962963,-0.012037037,1,0,0,0.8258,optionRight,40,1875,1,32,0,32,0,1,,,,,,,,,,,,,,,,,,,,,,,,,,,,,,,,,,,,,,,
,,,,,,,,2023-08-16_08h37.26.435,HF_wild_card,2022.2.4,Win32,60.07810153,5ca48653ed23650001328d9d,64d2fd46c836a06233681665,64dc7c953314e6750d2ae994,,,,,,,sngl,resources/Empty.png,resources/DY.BMP,Door4,0.177777778,-0.002777778,1,0,0,0.6148,optionRight,60,1935,1,33,0,33,0,1,,,,,,,,,,,,,,,,,,,,,,,,,,,,,,,,,,,,,,,
,,,,,,,,2023-08-16_08h37.26.435,HF_wild_card,2022.2.4,Win32,60.07810153,5ca48653ed23650001328d9d,64d2fd46c836a06233681665,64dc7c953314e6750d2ae994,,,,,,,decisionTrl,resources/DP.BMP,resources/DBN.BMP,WildCard_NonEx,-0.365740741,0.003703704,1,0,0,1.3492,optionLeft,55,1990,1,34,0,34,0,1,,,,,,,,,,,,,,,,,,,,,,,,,,,,,,,,,,,,,,,
,,,,,,,,2023-08-16_08h37.26.435,HF_wild_card,2022.2.4,Win32,60.07810153,5ca48653ed23650001328d9d,64d2fd46c836a06233681665,64dc7c953314e6750d2ae994,,,,,,,decisionTrl,resources/DBN.BMP,resources/DB.BMP,Door2,0.460185185,0.002777778,1,0,0,1.3809,optionRight,20,2010,1,35,0,35,0,1,,,,,,,,,,,,,,,,,,,,,,,,,,,,,,,,,,,,,,,
,,,,,,,,2023-08-16_08h37.26.435,HF_wild_card,2022.2.4,Win32,60.07810153,5ca48653ed23650001328d9d,64d2fd46c836a06233681665,64dc7c953314e6750d2ae994,,,,,,,sngl,resources/DBN.BMP,resources/Empty.png,Door1,-0.35462963,0.037962963,1,0,0,0.5984,optionLeft,30,2040,1,36,0,36,0,1,,,,,,,,,,,,,,,,,,,,,,,,,,,,,,,,,,,,,,,
,,,,,,,,2023-08-16_08h37.26.435,HF_wild_card,2022.2.4,Win32,60.07810153,5ca48653ed23650001328d9d,64d2fd46c836a06233681665,64dc7c953314e6750d2ae994,,,,,,,sngl,resources/Empty.png,resources/DG.BMP,Door3,0.4,0.003703704,1,0,0,0.6304,optionRight,70,2110,1,37,0,37,0,1,,,,,,,,,,,,,,,,,,,,,,,,,,,,,,,,,,,,,,,
,,,,,,,,2023-08-16_08h37.26.435,HF_wild_card,2022.2.4,Win32,60.07810153,5ca48653ed23650001328d9d,64d2fd46c836a06233681665,64dc7c953314e6750d2ae994,,,,,,,decisionTrl,resources/DB.BMP,resources/DBN.BMP,Door2,-0.336111111,0.052777778,1,0,0,2.1092,optionLeft,20,2130,1,38,0,38,0,1,,,,,,,,,,,,,,,,,,,,,,,,,,,,,,,,,,,,,,,
,,,,,,,,2023-08-16_08h37.26.435,HF_wild_card,2022.2.4,Win32,60.07810153,5ca48653ed23650001328d9d,64d2fd46c836a06233681665,64dc7c953314e6750d2ae994,,,,,,,decisionTrl,resources/DG.BMP,resources/DY.BMP,Door4,0.336111111,-0.023148148,1,0,0,1.7815,optionRight,60,2190,1,39,0,39,0,1,,,,,,,,,,,,,,,,,,,,,,,,,,,,,,,,,,,,,,,
,,,,,,,,2023-08-16_08h37.26.435,HF_wild_card,2022.2.4,Win32,60.07810153,5ca48653ed23650001328d9d,64d2fd46c836a06233681665,64dc7c953314e6750d2ae994,,,,,,,decisionTrl,resources/DP.BMP,resources/DB.BMP,WildCard_NonEx,-0.293518519,-0.005555556,1,0,0,1.7162,optionLeft,45,2235,1,40,0,40,0,1,,,,,,,,,,,,,,,,,,,,,,,,,,,,,,,,,,,,,,,
,,,,,,,,2023-08-16_08h37.26.435,HF_wild_card,2022.2.4,Win32,60.07810153,5ca48653ed23650001328d9d,64d2fd46c836a06233681665,64dc7c953314e6750d2ae994,,,,,,,decisionTrl,resources/DG.BMP,resources/DY.BMP,Door3,-0.339814815,-0.019444444,1,0,0,2.0491,optionLeft,70,2305,1,41,0,41,0,1,,,,,,,,,,,,,,,,,,,,,,,,,,,,,,,,,,,,,,,
,,,,,,,,2023-08-16_08h37.26.435,HF_wild_card,2022.2.4,Win32,60.07810153,5ca48653ed23650001328d9d,64d2fd46c836a06233681665,64dc7c953314e6750d2ae994,,,,,,,decisionTrl,resources/DY.BMP,resources/DG.BMP,Door3,0.293518519,0.002777778,1,0,0,0.8487,optionRight,70,2375,1,42,0,42,0,1,,,,,,,,,,,,,,,,,,,,,,,,,,,,,,,,,,,,,,,
,,,,,,,,2023-08-16_08h37.26.435,HF_wild_card,2022.2.4,Win32,60.07810153,5ca48653ed23650001328d9d,64d2fd46c836a06233681665,64dc7c953314e6750d2ae994,,,,,,,sngl,resources/DP.BMP,resources/Empty.png,WildCard_NonEx,-0.267592593,-0.005555556,1,0,0,0.6942,optionLeft,55,2430,1,43,0,43,0,1,,,,,,,,,,,,,,,,,,,,,,,,,,,,,,,,,,,,,,,
,,,,,,,,2023-08-16_08h37.26.435,HF_wild_card,2022.2.4,Win32,60.07810153,5ca48653ed23650001328d9d,64d2fd46c836a06233681665,64dc7c953314e6750d2ae994,,,,,,,,,,,,,,,,,,,,,,,,,,0,0,0,0,1,,,,,,,,,,,,,,,,,,,,,,,,,,,,,,,,,,
,,,,,,,,2023-08-16_08h37.26.435,HF_wild_card,2022.2.4,Win32,60.07810153,5ca48653ed23650001328d9d,64d2fd46c836a06233681665,64dc7c953314e6750d2ae994,,,,,,,sngl,resources/Empty.png,resources/DBN.BMP,Door1,0.278703704,-0.181481481,1,0,0,0.7666,optionRight,30,2460,2,0,0,0,0,1,,,,,,,,,,,,,,,,,,,,,,,,,,,,,,,,,,,,,,,
,,,,,,,,2023-08-16_08h37.26.435,HF_wild_card,2022.2.4,Win32,60.07810153,5ca48653ed23650001328d9d,64d2fd46c836a06233681665,64dc7c953314e6750d2ae994,,,,,,,decisionTrl,resources/DY.BMP,resources/DG.BMP,Door3,0.266666667,0.040740741,1,0,0,1.2778,optionRight,70,2530,2,1,0,1,0,1,,,,,,,,,,,,,,,,,,,,,,,,,,,,,,,,,,,,,,,
,,,,,,,,2023-08-16_08h37.26.435,HF_wild_card,2022.2.4,Win32,60.07810153,5ca48653ed23650001328d9d,64d2fd46c836a06233681665,64dc7c953314e6750d2ae994,,,,,,,decisionTrl,resources/DG.BMP,resources/DY.BMP,Door4,0.218518519,0.025,1,0,0,0.8438,optionRight,60,2590,2,2,0,2,0,1,,,,,,,,,,,,,,,,,,,,,,,,,,,,,,,,,,,,,,,
,,,,,,,,2023-08-16_08h37.26.435,HF_wild_card,2022.2.4,Win32,60.07810153,5ca48653ed23650001328d9d,64d2fd46c836a06233681665,64dc7c953314e6750d2ae994,,,,,,,sngl,resources/DG.BMP,resources/Empty.png,Door3,-0.681481481,0.069444444,1,0,0,0.5315,optionLeft,70,2660,2,3,0,3,0,1,,,,,,,,,,,,,,,,,,,,,,,,,,,,,,,,,,,,,,,
,,,,,,,,2023-08-16_08h37.26.435,HF_wild_card,2022.2.4,Win32,60.07810153,5ca48653ed23650001328d9d,64d2fd46c836a06233681665,64dc7c953314e6750d2ae994,,,,,,,ctch,resources/DB.BMP,resources/DG.BMP,Door3,0.362962963,0.006481481,1,0,0,0.6481,optionRight,70,2730,2,4,0,4,0,1,,,,,,,,,,,,,,,,,,,,,,,,,,,,,,,,,,,,,,,
,,,,,,,,2023-08-16_08h37.26.435,HF_wild_card,2022.2.4,Win32,60.07810153,5ca48653ed23650001328d9d,64d2fd46c836a06233681665,64dc7c953314e6750d2ae994,,,,,,,decisionTrl,resources/DB.BMP,resources/DBN.BMP,Door1,0.287962963,0.038888889,1,0,0,1.2023,optionRight,30,2760,2,5,0,5,0,1,,,,,,,,,,,,,,,,,,,,,,,,,,,,,,,,,,,,,,,
,,,,,,,,2023-08-16_08h37.26.435,HF_wild_card,2022.2.4,Win32,60.07810153,5ca48653ed23650001328d9d,64d2fd46c836a06233681665,64dc7c953314e6750d2ae994,,,,,,,decisionTrl,resources/DG.BMP,resources/DP.BMP,WildCard_NonEx,0.29537037,0.008333333,1,0,0,1.9323,optionRight,55,2815,2,6,0,6,0,1,,,,,,,,,,,,,,,,,,,,,,,,,,,,,,,,,,,,,,,
,,,,,,,,2023-08-16_08h37.26.435,HF_wild_card,2022.2.4,Win32,60.07810153,5ca48653ed23650001328d9d,64d2fd46c836a06233681665,64dc7c953314e6750d2ae994,,,,,,,decisionTrl,resources/DP.BMP,resources/DBN.BMP,WildCard_NonEx,-0.35462963,-0.010185185,1,0,0,1.164,optionLeft,55,2870,2,7,0,7,0,1,,,,,,,,,,,,,,,,,,,,,,,,,,,,,,,,,,,,,,,
,,,,,,,,2023-08-16_08h37.26.435,HF_wild_card,2022.2.4,Win32,60.07810153,5ca48653ed23650001328d9d,64d2fd46c836a06233681665,64dc7c953314e6750d2ae994,,,,,,,sngl,resources/Empty.png,resources/DB.BMP,Door2,0.261111111,0.018518519,1,0,0,0.6244,optionRight,40,2910,2,8,0,8,0,1,,,,,,,,,,,,,,,,,,,,,,,,,,,,,,,,,,,,,,,
,,,,,,,,2023-08-16_08h37.26.435,HF_wild_card,2022.2.4,Win32,60.07810153,5ca48653ed23650001328d9d,64d2fd46c836a06233681665,64dc7c953314e6750d2ae994,,,,,,,decisionTrl,resources/DG.BMP,resources/DY.BMP,Door4,0.192592593,-0.008333333,1,0,0,1.8976,optionRight,80,2990,2,9,0,9,0,1,,,,,,,,,,,,,,,,,,,,,,,,,,,,,,,,,,,,,,,
,,,,,,,,2023-08-16_08h37.26.435,HF_wild_card,2022.2.4,Win32,60.07810153,5ca48653ed23650001328d9d,64d2fd46c836a06233681665,64dc7c953314e6750d2ae994,,,,,,,sngl,resources/DY.BMP,resources/Empty.png,Door4,-0.159259259,0.002777778,1,0,0,0.6165,optionLeft,60,3050,2,10,0,10,0,1,,,,,,,,,,,,,,,,,,,,,,,,,,,,,,,,,,,,,,,
,,,,,,,,2023-08-16_08h37.26.435,HF_wild_card,2022.2.4,Win32,60.07810153,5ca48653ed23650001328d9d,64d2fd46c836a06233681665,64dc7c953314e6750d2ae994,,,,,,,decisionTrl,resources/DB.BMP,resources/DP.BMP,WildCard_NonEx,0.2,0.007407407,1,0,0,2.0449,optionRight,45,3095,2,11,0,11,0,1,,,,,,,,,,,,,,,,,,,,,,,,,,,,,,,,,,,,,,,
,,,,,,,,2023-08-16_08h37.26.435,HF_wild_card,2022.2.4,Win32,60.07810153,5ca48653ed23650001328d9d,64d2fd46c836a06233681665,64dc7c953314e6750d2ae994,,,,,,,decisionTrl,resources/DBN.BMP,resources/DP.BMP,WildCard_NonEx,0.355555556,0.015740741,1,0,0,0.9597,optionRight,45,3140,2,12,0,12,0,1,,,,,,,,,,,,,,,,,,,,,,,,,,,,,,,,,,,,,,,
,,,,,,,,2023-08-16_08h37.26.435,HF_wild_card,2022.2.4,Win32,60.07810153,5ca48653ed23650001328d9d,64d2fd46c836a06233681665,64dc7c953314e6750d2ae994,,,,,,,ctch,resources/DY.BMP,resources/DBN.BMP,Door4,-0.203703704,0.001851852,1,0,0,6.6464,optionLeft,80,3220,2,13,0,13,0,1,,,,,,,,,,,,,,,,,,,,,,,,,,,,,,,,,,,,,,,
,,,,,,,,2023-08-16_08h37.26.435,HF_wild_card,2022.2.4,Win32,60.07810153,5ca48653ed23650001328d9d,64d2fd46c836a06233681665,64dc7c953314e6750d2ae994,,,,,,,decisionTrl,resources/DP.BMP,resources/DG.BMP,Door3,0.218518519,0.006481481,1,0,0,1.5911,optionRight,70,3290,2,14,0,14,0,1,,,,,,,,,,,,,,,,,,,,,,,,,,,,,,,,,,,,,,,
,,,,,,,,2023-08-16_08h37.26.435,HF_wild_card,2022.2.4,Win32,60.07810153,5ca48653ed23650001328d9d,64d2fd46c836a06233681665,64dc7c953314e6750d2ae994,,,,,,,decisionTrl,resources/DB.BMP,resources/DBN.BMP,Door1,0.2,0.026851852,1,0,0,0.7976,optionRight,30,3320,2,15,0,15,0,1,,,,,,,,,,,,,,,,,,,,,,,,,,,,,,,,,,,,,,,
,,,,,,,,2023-08-16_08h37.26.435,HF_wild_card,2022.2.4,Win32,60.07810153,5ca48653ed23650001328d9d,64d2fd46c836a06233681665,64dc7c953314e6750d2ae994,,,,,,,decisionTrl,resources/DBN.BMP,resources/DB.BMP,Door1,-0.219444444,0.003703704,1,0,0,1.6477,optionLeft,30,3350,2,16,0,16,0,1,,,,,,,,,,,,,,,,,,,,,,,,,,,,,,,,,,,,,,,
,,,,,,,,2023-08-16_08h37.26.435,HF_wild_card,2022.2.4,Win32,60.07810153,5ca48653ed23650001328d9d,64d2fd46c836a06233681665,64dc7c953314e6750d2ae994,,,,,,,decisionTrl,resources/DG.BMP,resources/DY.BMP,Door3,-0.255555556,-0.00462963,1,0,0,1.3959,optionLeft,70,3420,2,17,0,17,0,1,,,,,,,,,,,,,,,,,,,,,,,,,,,,,,,,,,,,,,,
,,,,,,,,2023-08-16_08h37.26.435,HF_wild_card,2022.2.4,Win32,60.07810153,5ca48653ed23650001328d9d,64d2fd46c836a06233681665,64dc7c953314e6750d2ae994,,,,,,,decisionTrl,resources/DB.BMP,resources/DBN.BMP,Door1,0.202777778,0.007407407,1,0,0,1.1483,optionRight,30,3450,2,18,0,18,0,1,,,,,,,,,,,,,,,,,,,,,,,,,,,,,,,,,,,,,,,
,,,,,,,,2023-08-16_08h37.26.435,HF_wild_card,2022.2.4,Win32,60.07810153,5ca48653ed23650001328d9d,64d2fd46c836a06233681665,64dc7c953314e6750d2ae994,,,,,,,sngl,resources/Empty.png,resources/DG.BMP,Door3,0.228703704,0.000925926,1,0,0,0.5963,optionRight,70,3520,2,19,0,19,0,1,,,,,,,,,,,,,,,,,,,,,,,,,,,,,,,,,,,,,,,
,,,,,,,,2023-08-16_08h37.26.435,HF_wild_card,2022.2.4,Win32,60.07810153,5ca48653ed23650001328d9d,64d2fd46c836a06233681665,64dc7c953314e6750d2ae994,,,,,,,sngl,resources/DP.BMP,resources/Empty.png,WildCard_NonEx,-0.244444444,-0.010185185,1,0,0,0.5778,optionLeft,45,3565,2,20,0,20,0,1,,,,,,,,,,,,,,,,,,,,,,,,,,,,,,,,,,,,,,,
,,,,,,,,2023-08-16_08h37.26.435,HF_wild_card,2022.2.4,Win32,60.07810153,5ca48653ed23650001328d9d,64d2fd46c836a06233681665,64dc7c953314e6750d2ae994,,,,,,,ctch,resources/DY.BMP,resources/DBN.BMP,Door4,-0.255555556,-0.008333333,1,0,0,0.9976,optionLeft,60,3625,2,21,0,21,0,1,,,,,,,,,,,,,,,,,,,,,,,,,,,,,,,,,,,,,,,
,,,,,,,,2023-08-16_08h37.26.435,HF_wild_card,2022.2.4,Win32,60.07810153,5ca48653ed23650001328d9d,64d2fd46c836a06233681665,64dc7c953314e6750d2ae994,,,,,,,ctch,resources/DB.BMP,resources/DG.BMP,Door3,0.215740741,0.009259259,1,0,0,2.0775,optionRight,70,3695,2,22,0,22,0,1,,,,,,,,,,,,,,,,,,,,,,,,,,,,,,,,,,,,,,,
,,,,,,,,2023-08-16_08h37.26.435,HF_wild_card,2022.2.4,Win32,60.07810153,5ca48653ed23650001328d9d,64d2fd46c836a06233681665,64dc7c953314e6750d2ae994,,,,,,,decisionTrl,resources/DBN.BMP,resources/DB.BMP,Door2,0.217592593,0.00462963,1,0,0,1.0975,optionRight,40,3735,2,23,0,23,0,1,,,,,,,,,,,,,,,,,,,,,,,,,,,,,,,,,,,,,,,
,,,,,,,,2023-08-16_08h37.26.435,HF_wild_card,2022.2.4,Win32,60.07810153,5ca48653ed23650001328d9d,64d2fd46c836a06233681665,64dc7c953314e6750d2ae994,,,,,,,ctch,resources/DBN.BMP,resources/DY.BMP,Door4,0.140740741,-0.000925926,1,0,0,1.131,optionRight,60,3795,2,24,0,24,0,1,,,,,,,,,,,,,,,,,,,,,,,,,,,,,,,,,,,,,,,
,,,,,,,,2023-08-16_08h37.26.435,HF_wild_card,2022.2.4,Win32,60.07810153,5ca48653ed23650001328d9d,64d2fd46c836a06233681665,64dc7c953314e6750d2ae994,,,,,,,decisionTrl,resources/DP.BMP,resources/DY.BMP,Door4,0.193518519,0.033333333,1,0,0,3.6819,optionRight,80,3875,2,25,0,25,0,1,,,,,,,,,,,,,,,,,,,,,,,,,,,,,,,,,,,,,,,
,,,,,,,,2023-08-16_08h37.26.435,HF_wild_card,2022.2.4,Win32,60.07810153,5ca48653ed23650001328d9d,64d2fd46c836a06233681665,64dc7c953314e6750d2ae994,,,,,,,decisionTrl,resources/DY.BMP,resources/DG.BMP,Door4,-0.221296296,-0.015740741,1,0,0,1.3154,optionLeft,60,3935,2,26,0,26,0,1,,,,,,,,,,,,,,,,,,,,,,,,,,,,,,,,,,,,,,,
,,,,,,,,2023-08-16_08h37.26.435,HF_wild_card,2022.2.4,Win32,60.07810153,5ca48653ed23650001328d9d,64d2fd46c836a06233681665,64dc7c953314e6750d2ae994,,,,,,,sngl,resources/Empty.png,resources/DY.BMP,Door4,0.191666667,0.013888889,1,0,0,0.5605,optionRight,80,4015,2,27,0,27,0,1,,,,,,,,,,,,,,,,,,,,,,,,,,,,,,,,,,,,,,,
,,,,,,,,2023-08-16_08h37.26.435,HF_wild_card,2022.2.4,Win32,60.07810153,5ca48653ed23650001328d9d,64d2fd46c836a06233681665,64dc7c953314e6750d2ae994,,,,,,,ctch,resources/DG.BMP,resources/DB.BMP,Door3,-0.196296296,-0.011111111,1,0,0,2.1145,optionLeft,70,4085,2,28,0,28,0,1,,,,,,,,,,,,,,,,,,,,,,,,,,,,,,,,,,,,,,,
,,,,,,,,2023-08-16_08h37.26.435,HF_wild_card,2022.2.4,Win32,60.07810153,5ca48653ed23650001328d9d,64d2fd46c836a06233681665,64dc7c953314e6750d2ae994,,,,,,,decisionTrl,resources/DG.BMP,resources/DY.BMP,Door4,0.350925926,0.059259259,1,0,0,2.3827,optionRight,60,4145,2,29,0,29,0,1,,,,,,,,,,,,,,,,,,,,,,,,,,,,,,,,,,,,,,,
,,,,,,,,2023-08-16_08h37.26.435,HF_wild_card,2022.2.4,Win32,60.07810153,5ca48653ed23650001328d9d,64d2fd46c836a06233681665,64dc7c953314e6750d2ae994,,,,,,,decisionTrl,resources/DP.BMP,resources/DB.BMP,WildCard_NonEx,-0.163888889,0,1,0,0,0.9313,optionLeft,55,4200,2,30,0,30,0,1,,,,,,,,,,,,,,,,,,,,,,,,,,,,,,,,,,,,,,,
,,,,,,,,2023-08-16_08h37.26.435,HF_wild_card,2022.2.4,Win32,60.07810153,5ca48653ed23650001328d9d,64d2fd46c836a06233681665,64dc7c953314e6750d2ae994,,,,,,,ctch,resources/DBN.BMP,resources/DY.BMP,Door4,0.200925926,0.013888889,1,0,0,0.898,optionRight,60,4260,2,31,0,31,0,1,,,,,,,,,,,,,,,,,,,,,,,,,,,,,,,,,,,,,,,
,,,,,,,,2023-08-16_08h37.26.435,HF_wild_card,2022.2.4,Win32,60.07810153,5ca48653ed23650001328d9d,64d2fd46c836a06233681665,64dc7c953314e6750d2ae994,,,,,,,sngl,resources/Empty.png,resources/DP.BMP,WildCard_NonEx,0.246296296,0.013888889,1,0,0,0.6306,optionRight,45,4305,2,32,0,32,0,1,,,,,,,,,,,,,,,,,,,,,,,,,,,,,,,,,,,,,,,
,,,,,,,,2023-08-16_08h37.26.435,HF_wild_card,2022.2.4,Win32,60.07810153,5ca48653ed23650001328d9d,64d2fd46c836a06233681665,64dc7c953314e6750d2ae994,,,,,,,sngl,resources/DB.BMP,resources/Empty.png,Door2,-0.225925926,-0.008333333,1,0,0,0.4927,optionLeft,20,4325,2,33,0,33,0,1,,,,,,,,,,,,,,,,,,,,,,,,,,,,,,,,,,,,,,,
,,,,,,,,2023-08-16_08h37.26.435,HF_wild_card,2022.2.4,Win32,60.07810153,5ca48653ed23650001328d9d,64d2fd46c836a06233681665,64dc7c953314e6750d2ae994,,,,,,,sngl,resources/Empty.png,resources/DP.BMP,WildCard_NonEx,0.237037037,0.028703704,1,0,0,0.6095,optionRight,55,4380,2,34,0,34,0,1,,,,,,,,,,,,,,,,,,,,,,,,,,,,,,,,,,,,,,,
,,,,,,,,2023-08-16_08h37.26.435,HF_wild_card,2022.2.4,Win32,60.07810153,5ca48653ed23650001328d9d,64d2fd46c836a06233681665,64dc7c953314e6750d2ae994,,,,,,,decisionTrl,resources/DY.BMP,resources/DG.BMP,Door4,-0.278703704,0.024074074,1,0,0,1.5641,optionLeft,60,4440,2,35,0,35,0,1,,,,,,,,,,,,,,,,,,,,,,,,,,,,,,,,,,,,,,,
,,,,,,,,2023-08-16_08h37.26.435,HF_wild_card,2022.2.4,Win32,60.07810153,5ca48653ed23650001328d9d,64d2fd46c836a06233681665,64dc7c953314e6750d2ae994,,,,,,,decisionTrl,resources/DBN.BMP,resources/DB.BMP,Door2,0.366666667,0.027777778,1,0,0,0.8314,optionRight,20,4460,2,36,0,36,0,1,,,,,,,,,,,,,,,,,,,,,,,,,,,,,,,,,,,,,,,
,,,,,,,,2023-08-16_08h37.26.435,HF_wild_card,2022.2.4,Win32,60.07810153,5ca48653ed23650001328d9d,64d2fd46c836a06233681665,64dc7c953314e6750d2ae994,,,,,,,ctch,resources/DG.BMP,resources/DB.BMP,Door3,-0.29537037,0.019444444,1,0,0,0.9776,optionLeft,70,4530,2,37,0,37,0,1,,,,,,,,,,,,,,,,,,,,,,,,,,,,,,,,,,,,,,,
,,,,,,,,2023-08-16_08h37.26.435,HF_wild_card,2022.2.4,Win32,60.07810153,5ca48653ed23650001328d9d,64d2fd46c836a06233681665,64dc7c953314e6750d2ae994,,,,,,,decisionTrl,resources/DY.BMP,resources/DP.BMP,Door4,-0.206481481,0.035185185,1,0,0,1.8825,optionLeft,80,4610,2,38,0,38,0,1,,,,,,,,,,,,,,,,,,,,,,,,,,,,,,,,,,,,,,,
,,,,,,,,2023-08-16_08h37.26.435,HF_wild_card,2022.2.4,Win32,60.07810153,5ca48653ed23650001328d9d,64d2fd46c836a06233681665,64dc7c953314e6750d2ae994,,,,,,,sngl,resources/DBN.BMP,resources/Empty.png,Door1,-0.214814815,0.040740741,1,0,0,0.8789,optionLeft,30,4640,2,39,0,39,0,1,,,,,,,,,,,,,,,,,,,,,,,,,,,,,,,,,,,,,,,
,,,,,,,,2023-08-16_08h37.26.435,HF_wild_card,2022.2.4,Win32,60.07810153,5ca48653ed23650001328d9d,64d2fd46c836a06233681665,64dc7c953314e6750d2ae994,,,,,,,sngl,resources/DP.BMP,resources/Empty.png,WildCard_NonEx,-0.272222222,0.04537037,1,0,0,0.528,optionLeft,55,4695,2,40,0,40,0,1,,,,,,,,,,,,,,,,,,,,,,,,,,,,,,,,,,,,,,,
,,,,,,,,2023-08-16_08h37.26.435,HF_wild_card,2022.2.4,Win32,60.07810153,5ca48653ed23650001328d9d,64d2fd46c836a06233681665,64dc7c953314e6750d2ae994,,,,,,,decisionTrl,resources/DBN.BMP,resources/DB.BMP,Door1,-0.271296296,0.022222222,1,0,0,2.5327,optionLeft,30,4725,2,41,0,41,0,1,,,,,,,,,,,,,,,,,,,,,,,,,,,,,,,,,,,,,,,
,,,,,,,,2023-08-16_08h37.26.435,HF_wild_card,2022.2.4,Win32,60.07810153,5ca48653ed23650001328d9d,64d2fd46c836a06233681665,64dc7c953314e6750d2ae994,,,,,,,decisionTrl,resources/DY.BMP,resources/DG.BMP,Door3,0.162037037,0.005555556,1,0,0,1.3823,optionRight,70,4795,2,42,0,42,0,1,,,,,,,,,,,,,,,,,,,,,,,,,,,,,,,,,,,,,,,
,,,,,,,,2023-08-16_08h37.26.435,HF_wild_card,2022.2.4,Win32,60.07810153,5ca48653ed23650001328d9d,64d2fd46c836a06233681665,64dc7c953314e6750d2ae994,,,,,,,decisionTrl,resources/DB.BMP,resources/DBN.BMP,Door1,0.308333333,0.007407407,1,0,0,0.9484,optionRight,30,4825,2,43,0,43,0,1,,,,,,,,,,,,,,,,,,,,,,,,,,,,,,,,,,,,,,,
,,,,,,,,2023-08-16_08h37.26.435,HF_wild_card,2022.2.4,Win32,60.07810153,5ca48653ed23650001328d9d,64d2fd46c836a06233681665,64dc7c953314e6750d2ae994,,,,,,,,,,,,,,,,,,,,,,,,,,1,0,1,0,1,,,,,,,,,,,,,,,,,,,,,,,,,,,,,,,,,,
,,,,,,,,2023-08-16_08h37.26.435,HF_wild_card,2022.2.4,Win32,60.07810153,5ca48653ed23650001328d9d,64d2fd46c836a06233681665,64dc7c953314e6750d2ae994,,,,,,,decisionTrl,resources/DY.BMP,resources/DG.BMP,Door3,0.231481481,-0.000925926,1,0,0,2.6849,optionRight,70,4895,3,0,0,0,0,1,,,,,,,,,,,,,,,,,,,,,,,,,,,,,,,,,,,,,,,
,,,,,,,,2023-08-16_08h37.26.435,HF_wild_card,2022.2.4,Win32,60.07810153,5ca48653ed23650001328d9d,64d2fd46c836a06233681665,64dc7c953314e6750d2ae994,,,,,,,decisionTrl,resources/DBN.BMP,resources/DB.BMP,Door1,-0.164814815,-0.009259259,1,0,0,1.2799,optionLeft,30,4925,3,1,0,1,0,1,,,,,,,,,,,,,,,,,,,,,,,,,,,,,,,,,,,,,,,
,,,,,,,,2023-08-16_08h37.26.435,HF_wild_card,2022.2.4,Win32,60.07810153,5ca48653ed23650001328d9d,64d2fd46c836a06233681665,64dc7c953314e6750d2ae994,,,,,,,ctch,resources/DG.BMP,resources/DB.BMP,Door3,-0.231481481,-0.007407407,1,0,0,3.4461,optionLeft,70,4995,3,2,0,2,0,1,,,,,,,,,,,,,,,,,,,,,,,,,,,,,,,,,,,,,,,
,,,,,,,,2023-08-16_08h37.26.435,HF_wild_card,2022.2.4,Win32,60.07810153,5ca48653ed23650001328d9d,64d2fd46c836a06233681665,64dc7c953314e6750d2ae994,,,,,,,decisionTrl,resources/DBN.BMP,resources/DB.BMP,Door1,-0.29537037,0.035185185,1,0,0,1.4652,optionLeft,30,5025,3,3,0,3,0,1,,,,,,,,,,,,,,,,,,,,,,,,,,,,,,,,,,,,,,,
,,,,,,,,2023-08-16_08h37.26.435,HF_wild_card,2022.2.4,Win32,60.07810153,5ca48653ed23650001328d9d,64d2fd46c836a06233681665,64dc7c953314e6750d2ae994,,,,,,,ctch,resources/DB.BMP,resources/DG.BMP,Door3,0.302777778,0.039814815,1,0,0,0.8607,optionRight,70,5095,3,4,0,4,0,1,,,,,,,,,,,,,,,,,,,,,,,,,,,,,,,,,,,,,,,
,,,,,,,,2023-08-16_08h37.26.435,HF_wild_card,2022.2.4,Win32,60.07810153,5ca48653ed23650001328d9d,64d2fd46c836a06233681665,64dc7c953314e6750d2ae994,,,,,,,ctch,resources/DBN.BMP,resources/DY.BMP,Door4,0.361111111,0.030555556,1,0,0,1.1478,optionRight,60,5155,3,5,0,5,0,1,,,,,,,,,,,,,,,,,,,,,,,,,,,,,,,,,,,,,,,
,,,,,,,,2023-08-16_08h37.26.435,HF_wild_card,2022.2.4,Win32,60.07810153,5ca48653ed23650001328d9d,64d2fd46c836a06233681665,64dc7c953314e6750d2ae994,,,,,,,decisionTrl,resources/DG.BMP,resources/DP.BMP,Door3,-0.408333333,-0.053703704,1,0,0,1.3998,optionLeft,70,5225,3,6,0,6,0,1,,,,,,,,,,,,,,,,,,,,,,,,,,,,,,,,,,,,,,,
,,,,,,,,2023-08-16_08h37.26.435,HF_wild_card,2022.2.4,Win32,60.07810153,5ca48653ed23650001328d9d,64d2fd46c836a06233681665,64dc7c953314e6750d2ae994,,,,,,,sngl,resources/DY.BMP,resources/Empty.png,Door4,-0.403703704,-0.025925926,1,0,0,0.6331,optionLeft,80,5305,3,7,0,7,0,1,,,,,,,,,,,,,,,,,,,,,,,,,,,,,,,,,,,,,,,
,,,,,,,,2023-08-16_08h37.26.435,HF_wild_card,2022.2.4,Win32,60.07810153,5ca48653ed23650001328d9d,64d2fd46c836a06233681665,64dc7c953314e6750d2ae994,,,,,,,decisionTrl,resources/DG.BMP,resources/DY.BMP,Door4,0.406481481,0.037962963,1,0,0,0.6491,optionRight,80,5385,3,8,0,8,0,1,,,,,,,,,,,,,,,,,,,,,,,,,,,,,,,,,,,,,,,
,,,,,,,,2023-08-16_08h37.26.435,HF_wild_card,2022.2.4,Win32,60.07810153,5ca48653ed23650001328d9d,64d2fd46c836a06233681665,64dc7c953314e6750d2ae994,,,,,,,sngl,resources/DBN.BMP,resources/Empty.png,Door1,-0.331481481,-0.02037037,1,0,0,0.5972,optionLeft,30,5415,3,9,0,9,0,1,,,,,,,,,,,,,,,,,,,,,,,,,,,,,,,,,,,,,,,
,,,,,,,,2023-08-16_08h37.26.435,HF_wild_card,2022.2.4,Win32,60.07810153,5ca48653ed23650001328d9d,64d2fd46c836a06233681665,64dc7c953314e6750d2ae994,,,,,,,decisionTrl,resources/DBN.BMP,resources/DB.BMP,Door2,0.268518519,0.035185185,1,0,0,1.5314,optionRight,40,5455,3,10,0,10,0,1,,,,,,,,,,,,,,,,,,,,,,,,,,,,,,,,,,,,,,,
,,,,,,,,2023-08-16_08h37.26.435,HF_wild_card,2022.2.4,Win32,60.07810153,5ca48653ed23650001328d9d,64d2fd46c836a06233681665,64dc7c953314e6750d2ae994,,,,,,,decisionTrl,resources/DB.BMP,resources/DBN.BMP,Door2,-0.343518519,0.042592593,1,0,0,1.9161,optionLeft,20,5475,3,11,0,11,0,1,,,,,,,,,,,,,,,,,,,,,,,,,,,,,,,,,,,,,,,
,,,,,,,,2023-08-16_08h37.26.435,HF_wild_card,2022.2.4,Win32,60.07810153,5ca48653ed23650001328d9d,64d2fd46c836a06233681665,64dc7c953314e6750d2ae994,,,,,,,decisionTrl,resources/DG.BMP,resources/DY.BMP,Door4,0.313888889,0.040740741,1,0,0,1.161,optionRight,80,5555,3,12,0,12,0,1,,,,,,,,,,,,,,,,,,,,,,,,,,,,,,,,,,,,,,,
,,,,,,,,2023-08-16_08h37.26.435,HF_wild_card,2022.2.4,Win32,60.07810153,5ca48653ed23650001328d9d,64d2fd46c836a06233681665,64dc7c953314e6750d2ae994,,,,,,,sngl,resources/DB.BMP,resources/Empty.png,Door2,-0.292592593,-0.016666667,1,0,0,0.7282,optionLeft,40,5595,3,13,0,13,0,1,,,,,,,,,,,,,,,,,,,,,,,,,,,,,,,,,,,,,,,
,,,,,,,,2023-08-16_08h37.26.435,HF_wild_card,2022.2.4,Win32,60.07810153,5ca48653ed23650001328d9d,64d2fd46c836a06233681665,64dc7c953314e6750d2ae994,,,,,,,sngl,resources/Empty.png,resources/DB.BMP,Door2,0.35462963,0.025,1,0,0,0.5313,optionRight,20,5615,3,14,0,14,0,1,,,,,,,,,,,,,,,,,,,,,,,,,,,,,,,,,,,,,,,
,,,,,,,,2023-08-16_08h37.26.435,HF_wild_card,2022.2.4,Win32,60.07810153,5ca48653ed23650001328d9d,64d2fd46c836a06233681665,64dc7c953314e6750d2ae994,,,,,,,decisionTrl,resources/DP.BMP,resources/DG.BMP,Door3,0.212962963,0.033333333,1,0,0,2.0952,optionRight,70,5685,3,15,0,15,0,1,,,,,,,,,,,,,,,,,,,,,,,,,,,,,,,,,,,,,,,
,,,,,,,,2023-08-16_08h37.26.435,HF_wild_card,2022.2.4,Win32,60.07810153,5ca48653ed23650001328d9d,64d2fd46c836a06233681665,64dc7c953314e6750d2ae994,,,,,,,decisionTrl,resources/DP.BMP,resources/DB.BMP,WildCard_NonEx,-0.2,-0.013888889,1,0,0,1.1142,optionLeft,55,5740,3,16,0,16,0,1,,,,,,,,,,,,,,,,,,,,,,,,,,,,,,,,,,,,,,,
,,,,,,,,2023-08-16_08h37.26.435,HF_wild_card,2022.2.4,Win32,60.07810153,5ca48653ed23650001328d9d,64d2fd46c836a06233681665,64dc7c953314e6750d2ae994,,,,,,,sngl,resources/Empty.png,resources/DG.BMP,Door3,0.200925926,0.02962963,1,0,0,0.611,optionRight,70,5810,3,17,0,17,0,1,,,,,,,,,,,,,,,,,,,,,,,,,,,,,,,,,,,,,,,
,,,,,,,,2023-08-16_08h37.26.435,HF_wild_card,2022.2.4,Win32,60.07810153,5ca48653ed23650001328d9d,64d2fd46c836a06233681665,64dc7c953314e6750d2ae994,,,,,,,ctch,resources/DBN.BMP,resources/DY.BMP,Door4,0.209259259,0.010185185,1,0,0,1.2812,optionRight,60,5870,3,18,0,18,0,1,,,,,,,,,,,,,,,,,,,,,,,,,,,,,,,,,,,,,,,
,,,,,,,,2023-08-16_08h37.26.435,HF_wild_card,2022.2.4,Win32,60.07810153,5ca48653ed23650001328d9d,64d2fd46c836a06233681665,64dc7c953314e6750d2ae994,,,,,,,decisionTrl,resources/DG.BMP,resources/DY.BMP,Door3,-0.211111111,0.027777778,1,0,0,1.4815,optionLeft,70,5940,3,19,0,19,0,1,,,,,,,,,,,,,,,,,,,,,,,,,,,,,,,,,,,,,,,
,,,,,,,,2023-08-16_08h37.26.435,HF_wild_card,2022.2.4,Win32,60.07810153,5ca48653ed23650001328d9d,64d2fd46c836a06233681665,64dc7c953314e6750d2ae994,,,,,,,sngl,resources/DP.BMP,resources/Empty.png,WildCard_NonEx,-0.119444444,0.016666667,1,0,0,0.598,optionLeft,55,5995,3,20,0,20,0,1,,,,,,,,,,,,,,,,,,,,,,,,,,,,,,,,,,,,,,,
,,,,,,,,2023-08-16_08h37.26.435,HF_wild_card,2022.2.4,Win32,60.07810153,5ca48653ed23650001328d9d,64d2fd46c836a06233681665,64dc7c953314e6750d2ae994,,,,,,,sngl,resources/Empty.png,resources/DP.BMP,WildCard_NonEx,0.306481481,0.037962963,1,0,0,0.5096,optionRight,45,6040,3,21,0,21,0,1,,,,,,,,,,,,,,,,,,,,,,,,,,,,,,,,,,,,,,,
,,,,,,,,2023-08-16_08h37.26.435,HF_wild_card,2022.2.4,Win32,60.07810153,5ca48653ed23650001328d9d,64d2fd46c836a06233681665,64dc7c953314e6750d2ae994,,,,,,,decisionTrl,resources/DB.BMP,resources/DBN.BMP,Door1,0.267592593,0.037962963,1,0,0,1.5768,optionRight,30,6070,3,22,0,22,0,1,,,,,,,,,,,,,,,,,,,,,,,,,,,,,,,,,,,,,,,
,,,,,,,,2023-08-16_08h37.26.435,HF_wild_card,2022.2.4,Win32,60.07810153,5ca48653ed23650001328d9d,64d2fd46c836a06233681665,64dc7c953314e6750d2ae994,,,,,,,decisionTrl,resources/DP.BMP,resources/DBN.BMP,WildCard_NonEx,-0.176851852,-0.014814815,1,0,0,2.3158,optionLeft,45,6115,3,23,0,23,0,1,,,,,,,,,,,,,,,,,,,,,,,,,,,,,,,,,,,,,,,
,,,,,,,,2023-08-16_08h37.26.435,HF_wild_card,2022.2.4,Win32,60.07810153,5ca48653ed23650001328d9d,64d2fd46c836a06233681665,64dc7c953314e6750d2ae994,,,,,,,sngl,resources/Empty.png,resources/DBN.BMP,Door1,0.291666667,0.041666667,1,0,0,0.8149,optionRight,30,6145,3,24,0,24,0,1,,,,,,,,,,,,,,,,,,,,,,,,,,,,,,,,,,,,,,,
,,,,,,,,2023-08-16_08h37.26.435,HF_wild_card,2022.2.4,Win32,60.07810153,5ca48653ed23650001328d9d,64d2fd46c836a06233681665,64dc7c953314e6750d2ae994,,,,,,,decisionTrl,resources/DY.BMP,resources/DG.BMP,Door4,-0.247222222,0.001851852,1,0,0,1.1617,optionLeft,80,6225,3,25,0,25,0,1,,,,,,,,,,,,,,,,,,,,,,,,,,,,,,,,,,,,,,,
,,,,,,,,2023-08-16_08h37.26.435,HF_wild_card,2022.2.4,Win32,60.07810153,5ca48653ed23650001328d9d,64d2fd46c836a06233681665,64dc7c953314e6750d2ae994,,,,,,,ctch,resources/DB.BMP,resources/DG.BMP,Door3,0.241666667,0.023148148,1,0,0,1.3645,optionRight,70,6295,3,26,0,26,0,1,,,,,,,,,,,,,,,,,,,,,,,,,,,,,,,,,,,,,,,
,,,,,,,,2023-08-16_08h37.26.435,HF_wild_card,2022.2.4,Win32,60.07810153,5ca48653ed23650001328d9d,64d2fd46c836a06233681665,64dc7c953314e6750d2ae994,,,,,,,ctch,resources/DG.BMP,resources/DB.BMP,Door3,-0.20462963,-0.009259259,1,0,0,0.8968,optionLeft,70,6365,3,27,0,27,0,1,,,,,,,,,,,,,,,,,,,,,,,,,,,,,,,,,,,,,,,
,,,,,,,,2023-08-16_08h37.26.435,HF_wild_card,2022.2.4,Win32,60.07810153,5ca48653ed23650001328d9d,64d2fd46c836a06233681665,64dc7c953314e6750d2ae994,,,,,,,decisionTrl,resources/DB.BMP,resources/DBN.BMP,Door1,0.348148148,0.025,1,0,0,1.3981,optionRight,30,6395,3,28,0,28,0,1,,,,,,,,,,,,,,,,,,,,,,,,,,,,,,,,,,,,,,,
,,,,,,,,2023-08-16_08h37.26.435,HF_wild_card,2022.2.4,Win32,60.07810153,5ca48653ed23650001328d9d,64d2fd46c836a06233681665,64dc7c953314e6750d2ae994,,,,,,,sngl,resources/Empty.png,resources/DY.BMP,Door4,0.217592593,0.011111111,1,0,0,0.5483,optionRight,60,6455,3,29,0,29,0,1,,,,,,,,,,,,,,,,,,,,,,,,,,,,,,,,,,,,,,,
,,,,,,,,2023-08-16_08h37.26.435,HF_wild_card,2022.2.4,Win32,60.07810153,5ca48653ed23650001328d9d,64d2fd46c836a06233681665,64dc7c953314e6750d2ae994,,,,,,,sngl,resources/DP.BMP,resources/Empty.png,WildCard_NonEx,-0.166666667,-0.017592593,1,0,0,0.5648,optionLeft,45,6500,3,30,0,30,0,1,,,,,,,,,,,,,,,,,,,,,,,,,,,,,,,,,,,,,,,
,,,,,,,,2023-08-16_08h37.26.435,HF_wild_card,2022.2.4,Win32,60.07810153,5ca48653ed23650001328d9d,64d2fd46c836a06233681665,64dc7c953314e6750d2ae994,,,,,,,decisionTrl,resources/DB.BMP,resources/DP.BMP,WildCard_NonEx,0.2,0.003703704,1,0,0,0.7639,optionRight,45,6545,3,31,0,31,0,1,,,,,,,,,,,,,,,,,,,,,,,,,,,,,,,,,,,,,,,
,,,,,,,,2023-08-16_08h37.26.435,HF_wild_card,2022.2.4,Win32,60.07810153,5ca48653ed23650001328d9d,64d2fd46c836a06233681665,64dc7c953314e6750d2ae994,,,,,,,ctch,resources/DY.BMP,resources/DBN.BMP,Door4,-0.30462963,-0.016666667,1,0,0,0.9699,optionLeft,60,6605,3,32,0,32,0,1,,,,,,,,,,,,,,,,,,,,,,,,,,,,,,,,,,,,,,,
,,,,,,,,2023-08-16_08h37.26.435,HF_wild_card,2022.2.4,Win32,60.07810153,5ca48653ed23650001328d9d,64d2fd46c836a06233681665,64dc7c953314e6750d2ae994,,,,,,,decisionTrl,resources/DBN.BMP,resources/DP.BMP,WildCard_NonEx,0.181481481,0.009259259,1,0,0,1.9587,optionRight,55,6660,3,33,0,33,0,1,,,,,,,,,,,,,,,,,,,,,,,,,,,,,,,,,,,,,,,
,,,,,,,,2023-08-16_08h37.26.435,HF_wild_card,2022.2.4,Win32,60.07810153,5ca48653ed23650001328d9d,64d2fd46c836a06233681665,64dc7c953314e6750d2ae994,,,,,,,decisionTrl,resources/DY.BMP,resources/DG.BMP,Door4,-0.185185185,-0.015740741,1,0,0,1.2715,optionLeft,60,6720,3,34,0,34,0,1,,,,,,,,,,,,,,,,,,,,,,,,,,,,,,,,,,,,,,,
,,,,,,,,2023-08-16_08h37.26.435,HF_wild_card,2022.2.4,Win32,60.07810153,5ca48653ed23650001328d9d,64d2fd46c836a06233681665,64dc7c953314e6750d2ae994,,,,,,,decisionTrl,resources/DBN.BMP,resources/DB.BMP,Door1,-0.231481481,-0.023148148,1,0,0,1.1147,optionLeft,30,6750,3,35,0,35,0,1,,,,,,,,,,,,,,,,,,,,,,,,,,,,,,,,,,,,,,,
,,,,,,,,2023-08-16_08h37.26.435,HF_wild_card,2022.2.4,Win32,60.07810153,5ca48653ed23650001328d9d,64d2fd46c836a06233681665,64dc7c953314e6750d2ae994,,,,,,,ctch,resources/DY.BMP,resources/DBN.BMP,Door4,-0.188888889,-0.022222222,1,0,0,0.9083,optionLeft,80,6830,3,36,0,36,0,1,,,,,,,,,,,,,,,,,,,,,,,,,,,,,,,,,,,,,,,
,,,,,,,,2023-08-16_08h37.26.435,HF_wild_card,2022.2.4,Win32,60.07810153,5ca48653ed23650001328d9d,64d2fd46c836a06233681665,64dc7c953314e6750d2ae994,,,,,,,decisionTrl,resources/DY.BMP,resources/DP.BMP,Door4,-0.15462963,0.002777778,1,0,0,0.7003,optionLeft,60,6890,3,37,0,37,0,1,,,,,,,,,,,,,,,,,,,,,,,,,,,,,,,,,,,,,,,
,,,,,,,,2023-08-16_08h37.26.435,HF_wild_card,2022.2.4,Win32,60.07810153,5ca48653ed23650001328d9d,64d2fd46c836a06233681665,64dc7c953314e6750d2ae994,,,,,,,sngl,resources/Empty.png,resources/DP.BMP,WildCard_NonEx,0.297222222,0.037037037,1,0,0,0.6887,optionRight,55,6945,3,38,0,38,0,1,,,,,,,,,,,,,,,,,,,,,,,,,,,,,,,,,,,,,,,
,,,,,,,,2023-08-16_08h37.26.435,HF_wild_card,2022.2.4,Win32,60.07810153,5ca48653ed23650001328d9d,64d2fd46c836a06233681665,64dc7c953314e6750d2ae994,,,,,,,decisionTrl,resources/DG.BMP,resources/DY.BMP,Door4,0.356481481,0.025,1,0,0,0.9111,optionRight,80,7025,3,39,0,39,0,1,,,,,,,,,,,,,,,,,,,,,,,,,,,,,,,,,,,,,,,
,,,,,,,,2023-08-16_08h37.26.435,HF_wild_card,2022.2.4,Win32,60.07810153,5ca48653ed23650001328d9d,64d2fd46c836a06233681665,64dc7c953314e6750d2ae994,,,,,,,decisionTrl,resources/DB.BMP,resources/DBN.BMP,Door1,0.274074074,0.025,1,0,0,1.5064,optionRight,30,7055,3,40,0,40,0,1,,,,,,,,,,,,,,,,,,,,,,,,,,,,,,,,,,,,,,,
,,,,,,,,2023-08-16_08h37.26.435,HF_wild_card,2022.2.4,Win32,60.07810153,5ca48653ed23650001328d9d,64d2fd46c836a06233681665,64dc7c953314e6750d2ae994,,,,,,,decisionTrl,resources/DY.BMP,resources/DG.BMP,Door4,-0.163888889,-0.012037037,1,0,0,1.0156,optionLeft,80,7135,3,41,0,41,0,1,,,,,,,,,,,,,,,,,,,,,,,,,,,,,,,,,,,,,,,
,,,,,,,,2023-08-16_08h37.26.435,HF_wild_card,2022.2.4,Win32,60.07810153,5ca48653ed23650001328d9d,64d2fd46c836a06233681665,64dc7c953314e6750d2ae994,,,,,,,decisionTrl,resources/DP.BMP,resources/DY.BMP,Door4,0.275,0.031481481,1,0,0,0.7153,optionRight,80,7215,3,42,0,42,0,1,,,,,,,,,,,,,,,,,,,,,,,,,,,,,,,,,,,,,,,
,,,,,,,,2023-08-16_08h37.26.435,HF_wild_card,2022.2.4,Win32,60.07810153,5ca48653ed23650001328d9d,64d2fd46c836a06233681665,64dc7c953314e6750d2ae994,,,,,,,sngl,resources/DG.BMP,resources/Empty.png,Door3,-0.269444444,0.032407407,1,0,0,0.5984,optionLeft,70,7285,3,43,0,43,0,1,,,,,,,,,,,,,,,,,,,,,,,,,,,,,,,,,,,,,,,
,,,,,,,,2023-08-16_08h37.26.435,HF_wild_card,2022.2.4,Win32,60.07810153,5ca48653ed23650001328d9d,64d2fd46c836a06233681665,64dc7c953314e6750d2ae994,,,,,,,,,,,,,,,,,,,,,,,,,,2,0,2,0,1,,,,,,,,,,,,,,,,,,,,,,,,,,,,,,,,,,
,,,,,,,,2023-08-16_08h37.26.435,HF_wild_card,2022.2.4,Win32,60.07810153,5ca48653ed23650001328d9d,64d2fd46c836a06233681665,64dc7c953314e6750d2ae994,,,,,,,decisionTrl,resources/DBN.BMP,resources/DB.BMP,Door1,-0.469444444,-0.053703704,1,0,0,1.0537,optionLeft,30,7315,4,0,0,0,0,1,,,,,,,,,,,,,,,,,,,,,,,,,,,,,,,,,,,,,,,
,,,,,,,,2023-08-16_08h37.26.435,HF_wild_card,2022.2.4,Win32,60.07810153,5ca48653ed23650001328d9d,64d2fd46c836a06233681665,64dc7c953314e6750d2ae994,,,,,,,ctch,resources/DG.BMP,resources/DB.BMP,Door3,-0.291666667,-0.001851852,1,0,0,1.713,optionLeft,70,7385,4,1,0,1,0,1,,,,,,,,,,,,,,,,,,,,,,,,,,,,,,,,,,,,,,,
,,,,,,,,2023-08-16_08h37.26.435,HF_wild_card,2022.2.4,Win32,60.07810153,5ca48653ed23650001328d9d,64d2fd46c836a06233681665,64dc7c953314e6750d2ae994,,,,,,,ctch,resources/DB.BMP,resources/DG.BMP,Door3,0.217592593,0.02037037,1,0,0,0.997,optionRight,70,7455,4,2,0,2,0,1,,,,,,,,,,,,,,,,,,,,,,,,,,,,,,,,,,,,,,,
,,,,,,,,2023-08-16_08h37.26.435,HF_wild_card,2022.2.4,Win32,60.07810153,5ca48653ed23650001328d9d,64d2fd46c836a06233681665,64dc7c953314e6750d2ae994,,,,,,,decisionTrl,resources/DR.BMP,resources/DB.BMP,WildCard_Ex,-0.178703704,0.002777778,1,0,0,0.9149,optionLeft,95,7550,4,3,0,3,0,1,,,,,,,,,,,,,,,,,,,,,,,,,,,,,,,,,,,,,,,
,,,,,,,,2023-08-16_08h37.26.435,HF_wild_card,2022.2.4,Win32,60.07810153,5ca48653ed23650001328d9d,64d2fd46c836a06233681665,64dc7c953314e6750d2ae994,,,,,,,sngl,resources/Empty.png,resources/DR.BMP,WildCard_Ex,0.319444444,0.008333333,1,0,0,0.5154,optionRight,95,7645,4,4,0,4,0,1,,,,,,,,,,,,,,,,,,,,,,,,,,,,,,,,,,,,,,,
,,,,,,,,2023-08-16_08h37.26.435,HF_wild_card,2022.2.4,Win32,60.07810153,5ca48653ed23650001328d9d,64d2fd46c836a06233681665,64dc7c953314e6750d2ae994,,,,,,,decisionTrl,resources/DBN.BMP,resources/DB.BMP,Door1,-0.200925926,-0.001851852,1,0,0,0.9622,optionLeft,30,7675,4,5,0,5,0,1,,,,,,,,,,,,,,,,,,,,,,,,,,,,,,,,,,,,,,,
,,,,,,,,2023-08-16_08h37.26.435,HF_wild_card,2022.2.4,Win32,60.07810153,5ca48653ed23650001328d9d,64d2fd46c836a06233681665,64dc7c953314e6750d2ae994,,,,,,,sngl,resources/Empty.png,resources/DB.BMP,Door2,0.192592593,0.005555556,1,0,0,0.9823,optionRight,40,7715,4,6,0,6,0,1,,,,,,,,,,,,,,,,,,,,,,,,,,,,,,,,,,,,,,,
,,,,,,,,2023-08-16_08h37.26.435,HF_wild_card,2022.2.4,Win32,60.07810153,5ca48653ed23650001328d9d,64d2fd46c836a06233681665,64dc7c953314e6750d2ae994,,,,,,,ctch,resources/DY.BMP,resources/DBN.BMP,Door4,-0.225925926,-0.007407407,1,0,0,0.9434,optionLeft,60,7775,4,7,0,7,0,1,,,,,,,,,,,,,,,,,,,,,,,,,,,,,,,,,,,,,,,
,,,,,,,,2023-08-16_08h37.26.435,HF_wild_card,2022.2.4,Win32,60.07810153,5ca48653ed23650001328d9d,64d2fd46c836a06233681665,64dc7c953314e6750d2ae994,,,,,,,ctch,resources/DBN.BMP,resources/DY.BMP,Door4,0.362037037,-0.00462963,1,0,0,0.6646,optionRight,80,7855,4,8,0,8,0,1,,,,,,,,,,,,,,,,,,,,,,,,,,,,,,,,,,,,,,,
,,,,,,,,2023-08-16_08h37.26.435,HF_wild_card,2022.2.4,Win32,60.07810153,5ca48653ed23650001328d9d,64d2fd46c836a06233681665,64dc7c953314e6750d2ae994,,,,,,,decisionTrl,resources/DG.BMP,resources/DR.BMP,WildCard_Ex,0.428703704,0.003703704,1,0,0,1.0251,optionRight,95,7950,4,9,0,9,0,1,,,,,,,,,,,,,,,,,,,,,,,,,,,,,,,,,,,,,,,
,,,,,,,,2023-08-16_08h37.26.435,HF_wild_card,2022.2.4,Win32,60.07810153,5ca48653ed23650001328d9d,64d2fd46c836a06233681665,64dc7c953314e6750d2ae994,,,,,,,sngl,resources/DR.BMP,resources/Empty.png,WildCard_Ex,-0.278703704,-0.007407407,1,0,0,0.4782,optionLeft,5,7955,4,10,0,10,0,1,,,,,,,,,,,,,,,,,,,,,,,,,,,,,,,,,,,,,,,
,,,,,,,,2023-08-16_08h37.26.435,HF_wild_card,2022.2.4,Win32,60.07810153,5ca48653ed23650001328d9d,64d2fd46c836a06233681665,64dc7c953314e6750d2ae994,,,,,,,decisionTrl,resources/DB.BMP,resources/DBN.BMP,Door1,0.277777778,0.026851852,1,0,0,2.5108,optionRight,30,7985,4,11,0,11,0,1,,,,,,,,,,,,,,,,,,,,,,,,,,,,,,,,,,,,,,,
,,,,,,,,2023-08-16_08h37.26.435,HF_wild_card,2022.2.4,Win32,60.07810153,5ca48653ed23650001328d9d,64d2fd46c836a06233681665,64dc7c953314e6750d2ae994,,,,,,,decisionTrl,resources/DB.BMP,resources/DBN.BMP,Door1,0.25,0.036111111,1,0,0,0.8622,optionRight,30,8015,4,12,0,12,0,1,,,,,,,,,,,,,,,,,,,,,,,,,,,,,,,,,,,,,,,
,,,,,,,,2023-08-16_08h37.26.435,HF_wild_card,2022.2.4,Win32,60.07810153,5ca48653ed23650001328d9d,64d2fd46c836a06233681665,64dc7c953314e6750d2ae994,,,,,,,sngl,resources/Empty.png,resources/DR.BMP,WildCard_Ex,0.378703704,0.003703704,1,0,0,0.4942,optionRight,5,8020,4,13,0,13,0,1,,,,,,,,,,,,,,,,,,,,,,,,,,,,,,,,,,,,,,,
,,,,,,,,2023-08-16_08h37.26.435,HF_wild_card,2022.2.4,Win32,60.07810153,5ca48653ed23650001328d9d,64d2fd46c836a06233681665,64dc7c953314e6750d2ae994,,,,,,,decisionTrl,resources/DBN.BMP,resources/DR.BMP,Door1,-0.316666667,0.022222222,1,0,0,2.3319,optionLeft,30,8050,4,14,0,14,0,1,,,,,,,,,,,,,,,,,,,,,,,,,,,,,,,,,,,,,,,
,,,,,,,,2023-08-16_08h37.26.435,HF_wild_card,2022.2.4,Win32,60.07810153,5ca48653ed23650001328d9d,64d2fd46c836a06233681665,64dc7c953314e6750d2ae994,,,,,,,sngl,resources/DY.BMP,resources/Empty.png,Door4,-0.273148148,0.018518519,1,0,0,0.5648,optionLeft,60,8110,4,15,0,15,0,1,,,,,,,,,,,,,,,,,,,,,,,,,,,,,,,,,,,,,,,
,,,,,,,,2023-08-16_08h37.26.435,HF_wild_card,2022.2.4,Win32,60.07810153,5ca48653ed23650001328d9d,64d2fd46c836a06233681665,64dc7c953314e6750d2ae994,,,,,,,decisionTrl,resources/DY.BMP,resources/DG.BMP,Door3,0.191666667,0.017592593,1,0,0,1.3799,optionRight,70,8180,4,16,0,16,0,1,,,,,,,,,,,,,,,,,,,,,,,,,,,,,,,,,,,,,,,
,,,,,,,,2023-08-16_08h37.26.435,HF_wild_card,2022.2.4,Win32,60.07810153,5ca48653ed23650001328d9d,64d2fd46c836a06233681665,64dc7c953314e6750d2ae994,,,,,,,decisionTrl,resources/DG.BMP,resources/DY.BMP,Door4,0.153703704,0.016666667,1,0,0,0.71,optionRight,80,8260,4,17,0,17,0,1,,,,,,,,,,,,,,,,,,,,,,,,,,,,,,,,,,,,,,,
,,,,,,,,2023-08-16_08h37.26.435,HF_wild_card,2022.2.4,Win32,60.07810153,5ca48653ed23650001328d9d,64d2fd46c836a06233681665,64dc7c953314e6750d2ae994,,,,,,,decisionTrl,resources/DB.BMP,resources/DBN.BMP,Door1,0.262037037,0.033333333,1,0,0,1.1764,optionRight,30,8290,4,18,0,18,0,1,,,,,,,,,,,,,,,,,,,,,,,,,,,,,,,,,,,,,,,
,,,,,,,,2023-08-16_08h37.26.435,HF_wild_card,2022.2.4,Win32,60.07810153,5ca48653ed23650001328d9d,64d2fd46c836a06233681665,64dc7c953314e6750d2ae994,,,,,,,ctch,resources/DG.BMP,resources/DB.BMP,Door3,-0.227777778,-0.014814815,1,0,0,1.8817,optionLeft,70,8360,4,19,0,19,0,1,,,,,,,,,,,,,,,,,,,,,,,,,,,,,,,,,,,,,,,
,,,,,,,,2023-08-16_08h37.26.435,HF_wild_card,2022.2.4,Win32,60.07810153,5ca48653ed23650001328d9d,64d2fd46c836a06233681665,64dc7c953314e6750d2ae994,,,,,,,decisionTrl,resources/DR.BMP,resources/DY.BMP,Door4,0.276851852,0.005555556,1,0,0,1.0648,optionRight,80,8440,4,20,0,20,0,1,,,,,,,,,,,,,,,,,,,,,,,,,,,,,,,,,,,,,,,
,,,,,,,,2023-08-16_08h37.26.435,HF_wild_card,2022.2.4,Win32,60.07810153,5ca48653ed23650001328d9d,64d2fd46c836a06233681665,64dc7c953314e6750d2ae994,,,,,,,decisionTrl,resources/DG.BMP,resources/DY.BMP,Door4,0.349074074,0.040740741,1,0,0,0.8551,optionRight,60,8500,4,21,0,21,0,1,,,,,,,,,,,,,,,,,,,,,,,,,,,,,,,,,,,,,,,
,,,,,,,,2023-08-16_08h37.26.435,HF_wild_card,2022.2.4,Win32,60.07810153,5ca48653ed23650001328d9d,64d2fd46c836a06233681665,64dc7c953314e6750d2ae994,,,,,,,sngl,resources/Empty.png,resources/DBN.BMP,Door1,0.225925926,0.038888889,1,0,0,0.5973,optionRight,30,8530,4,22,0,22,0,1,,,,,,,,,,,,,,,,,,,,,,,,,,,,,,,,,,,,,,,
,,,,,,,,2023-08-16_08h37.26.435,HF_wild_card,2022.2.4,Win32,60.07810153,5ca48653ed23650001328d9d,64d2fd46c836a06233681665,64dc7c953314e6750d2ae994,,,,,,,sngl,resources/DR.BMP,resources/Empty.png,WildCard_Ex,-0.223148148,0,1,0,0,0.4483,optionLeft,95,8625,4,23,0,23,0,1,,,,,,,,,,,,,,,,,,,,,,,,,,,,,,,,,,,,,,,
,,,,,,,,2023-08-16_08h37.26.435,HF_wild_card,2022.2.4,Win32,60.07810153,5ca48653ed23650001328d9d,64d2fd46c836a06233681665,64dc7c953314e6750d2ae994,,,,,,,decisionTrl,resources/DY.BMP,resources/DR.BMP,Door4,-0.228703704,0.005555556,1,0,0,0.6314,optionLeft,60,8685,4,24,0,24,0,1,,,,,,,,,,,,,,,,,,,,,,,,,,,,,,,,,,,,,,,
,,,,,,,,2023-08-16_08h37.26.435,HF_wild_card,2022.2.4,Win32,60.07810153,5ca48653ed23650001328d9d,64d2fd46c836a06233681665,64dc7c953314e6750d2ae994,,,,,,,ctch,resources/DY.BMP,resources/DBN.BMP,Door4,-0.189814815,0.006481481,1,0,0,0.5642,optionLeft,80,8765,4,25,0,25,0,1,,,,,,,,,,,,,,,,,,,,,,,,,,,,,,,,,,,,,,,
,,,,,,,,2023-08-16_08h37.26.435,HF_wild_card,2022.2.4,Win32,60.07810153,5ca48653ed23650001328d9d,64d2fd46c836a06233681665,64dc7c953314e6750d2ae994,,,,,,,decisionTrl,resources/DB.BMP,resources/DR.BMP,WildCard_Ex,0.147222222,0.015740741,1,0,0,1.2309,optionRight,95,8860,4,26,0,26,0,1,,,,,,,,,,,,,,,,,,,,,,,,,,,,,,,,,,,,,,,
,,,,,,,,2023-08-16_08h37.26.435,HF_wild_card,2022.2.4,Win32,60.07810153,5ca48653ed23650001328d9d,64d2fd46c836a06233681665,64dc7c953314e6750d2ae994,,,,,,,ctch,resources/DB.BMP,resources/DG.BMP,Door3,0.132407407,0.015740741,1,0,0,1.313,optionRight,70,8930,4,27,0,27,0,1,,,,,,,,,,,,,,,,,,,,,,,,,,,,,,,,,,,,,,,
,,,,,,,,2023-08-16_08h37.26.435,HF_wild_card,2022.2.4,Win32,60.07810153,5ca48653ed23650001328d9d,64d2fd46c836a06233681665,64dc7c953314e6750d2ae994,,,,,,,sngl,resources/DBN.BMP,resources/Empty.png,Door1,-0.243518519,0.009259259,1,0,0,0.9106,optionLeft,30,8960,4,28,0,28,0,1,,,,,,,,,,,,,,,,,,,,,,,,,,,,,,,,,,,,,,,
,,,,,,,,2023-08-16_08h37.26.435,HF_wild_card,2022.2.4,Win32,60.07810153,5ca48653ed23650001328d9d,64d2fd46c836a06233681665,64dc7c953314e6750d2ae994,,,,,,,decisionTrl,resources/DB.BMP,resources/DBN.BMP,Door1,0.247222222,0.05462963,1,0,0,2.9151,optionRight,30,8990,4,29,0,29,0,1,,,,,,,,,,,,,,,,,,,,,,,,,,,,,,,,,,,,,,,
,,,,,,,,2023-08-16_08h37.26.435,HF_wild_card,2022.2.4,Win32,60.07810153,5ca48653ed23650001328d9d,64d2fd46c836a06233681665,64dc7c953314e6750d2ae994,,,,,,,decisionTrl,resources/DY.BMP,resources/DG.BMP,Door4,-0.200925926,-0.000925926,1,0,0,1.3841,optionLeft,80,9070,4,30,0,30,0,1,,,,,,,,,,,,,,,,,,,,,,,,,,,,,,,,,,,,,,,
,,,,,,,,2023-08-16_08h37.26.435,HF_wild_card,2022.2.4,Win32,60.07810153,5ca48653ed23650001328d9d,64d2fd46c836a06233681665,64dc7c953314e6750d2ae994,,,,,,,ctch,resources/DBN.BMP,resources/DY.BMP,Door4,0.217592593,0.032407407,1,0,0,0.645,optionRight,80,9150,4,31,0,31,0,1,,,,,,,,,,,,,,,,,,,,,,,,,,,,,,,,,,,,,,,
,,,,,,,,2023-08-16_08h37.26.435,HF_wild_card,2022.2.4,Win32,60.07810153,5ca48653ed23650001328d9d,64d2fd46c836a06233681665,64dc7c953314e6750d2ae994,,,,,,,decisionTrl,resources/DY.BMP,resources/DG.BMP,Door4,-0.272222222,-0.007407407,1,0,0,0.7093,optionLeft,60,9210,4,32,0,32,0,1,,,,,,,,,,,,,,,,,,,,,,,,,,,,,,,,,,,,,,,
,,,,,,,,2023-08-16_08h37.26.435,HF_wild_card,2022.2.4,Win32,60.07810153,5ca48653ed23650001328d9d,64d2fd46c836a06233681665,64dc7c953314e6750d2ae994,,,,,,,sngl,resources/Empty.png,resources/DY.BMP,Door4,0.231481481,0.011111111,1,0,0,0.548,optionRight,80,9290,4,33,0,33,0,1,,,,,,,,,,,,,,,,,,,,,,,,,,,,,,,,,,,,,,,
,,,,,,,,2023-08-16_08h37.26.435,HF_wild_card,2022.2.4,Win32,60.07810153,5ca48653ed23650001328d9d,64d2fd46c836a06233681665,64dc7c953314e6750d2ae994,,,,,,,decisionTrl,resources/DR.BMP,resources/DG.BMP,WildCard_Ex,-0.276851852,-0.018518519,1,0,0,0.9695,optionLeft,5,9295,4,34,0,34,0,1,,,,,,,,,,,,,,,,,,,,,,,,,,,,,,,,,,,,,,,
,,,,,,,,2023-08-16_08h37.26.435,HF_wild_card,2022.2.4,Win32,60.07810153,5ca48653ed23650001328d9d,64d2fd46c836a06233681665,64dc7c953314e6750d2ae994,,,,,,,sngl,resources/DG.BMP,resources/Empty.png,Door3,-0.219444444,0.015740741,1,0,0,0.5228,optionLeft,70,9365,4,35,0,35,0,1,,,,,,,,,,,,,,,,,,,,,,,,,,,,,,,,,,,,,,,
,,,,,,,,2023-08-16_08h37.26.435,HF_wild_card,2022.2.4,Win32,60.07810153,5ca48653ed23650001328d9d,64d2fd46c836a06233681665,64dc7c953314e6750d2ae994,,,,,,,sngl,resources/Empty.png,resources/DG.BMP,Door3,0.207407407,0.040740741,1,0,0,0.5142,optionRight,70,9435,4,36,0,36,0,1,,,,,,,,,,,,,,,,,,,,,,,,,,,,,,,,,,,,,,,
,,,,,,,,2023-08-16_08h37.26.435,HF_wild_card,2022.2.4,Win32,60.07810153,5ca48653ed23650001328d9d,64d2fd46c836a06233681665,64dc7c953314e6750d2ae994,,,,,,,decisionTrl,resources/DBN.BMP,resources/DB.BMP,Door1,-0.213888889,0.021296296,1,0,0,0.862,optionLeft,30,9465,4,37,0,37,0,1,,,,,,,,,,,,,,,,,,,,,,,,,,,,,,,,,,,,,,,
,,,,,,,,2023-08-16_08h37.26.435,HF_wild_card,2022.2.4,Win32,60.07810153,5ca48653ed23650001328d9d,64d2fd46c836a06233681665,64dc7c953314e6750d2ae994,,,,,,,sngl,resources/DB.BMP,resources/Empty.png,Door2,-0.235185185,0.013888889,1,0,0,0.5284,optionLeft,20,9485,4,38,0,38,0,1,,,,,,,,,,,,,,,,,,,,,,,,,,,,,,,,,,,,,,,
,,,,,,,,2023-08-16_08h37.26.435,HF_wild_card,2022.2.4,Win32,60.07810153,5ca48653ed23650001328d9d,64d2fd46c836a06233681665,64dc7c953314e6750d2ae994,,,,,,,decisionTrl,resources/DY.BMP,resources/DG.BMP,Door4,-0.190740741,0.001851852,1,0,0,0.7091,optionLeft,80,9565,4,39,0,39,0,1,,,,,,,,,,,,,,,,,,,,,,,,,,,,,,,,,,,,,,,
,,,,,,,,2023-08-16_08h37.26.435,HF_wild_card,2022.2.4,Win32,60.07810153,5ca48653ed23650001328d9d,64d2fd46c836a06233681665,64dc7c953314e6750d2ae994,,,,,,,decisionTrl,resources/DR.BMP,resources/DBN.BMP,Door1,0.222222222,0.011111111,1,0,0,1.9826,optionRight,30,9595,4,40,0,40,0,1,,,,,,,,,,,,,,,,,,,,,,,,,,,,,,,,,,,,,,,
,,,,,,,,2023-08-16_08h37.26.435,HF_wild_card,2022.2.4,Win32,60.07810153,5ca48653ed23650001328d9d,64d2fd46c836a06233681665,64dc7c953314e6750d2ae994,,,,,,,decisionTrl,resources/DBN.BMP,resources/DB.BMP,Door1,-0.17962963,0.005555556,1,0,0,0.628,optionLeft,30,9625,4,41,0,41,0,1,,,,,,,,,,,,,,,,,,,,,,,,,,,,,,,,,,,,,,,
,,,,,,,,2023-08-16_08h37.26.435,HF_wild_card,2022.2.4,Win32,60.07810153,5ca48653ed23650001328d9d,64d2fd46c836a06233681665,64dc7c953314e6750d2ae994,,,,,,,decisionTrl,resources/DG.BMP,resources/DY.BMP,Door4,0.2,0.026851852,1,0,0,1.0123,optionRight,80,9705,4,42,0,42,0,1,,,,,,,,,,,,,,,,,,,,,,,,,,,,,,,,,,,,,,,
,,,,,,,,2023-08-16_08h37.26.435,HF_wild_card,2022.2.4,Win32,60.07810153,5ca48653ed23650001328d9d,64d2fd46c836a06233681665,64dc7c953314e6750d2ae994,,,,,,,decisionTrl,resources/DG.BMP,resources/DY.BMP,Door4,0.316666667,0.024074074,1,0,0,0.9161,optionRight,80,9785,4,43,0,43,0,1,,,,,,,,,,,,,,,,,,,,,,,,,,,,,,,,,,,,,,,
,,,,,,,,2023-08-16_08h37.26.435,HF_wild_card,2022.2.4,Win32,60.07810153,5ca48653ed23650001328d9d,64d2fd46c836a06233681665,64dc7c953314e6750d2ae994,,,,,,,,,,,,,,,,,,,,,,,,,,3,0,3,0,1,,,,,,,,,,,,,,,,,,,,,,,,,,,,,,,,,,
,,,,,,,,2023-08-16_08h37.26.435,HF_wild_card,2022.2.4,Win32,60.07810153,5ca48653ed23650001328d9d,64d2fd46c836a06233681665,64dc7c953314e6750d2ae994,,,,,,,sngl,resources/Empty.png,resources/DR.BMP,WildCard_Ex,0.427777778,0.082407407,1,0,0,0.5883,optionRight,95,9880,5,0,0,0,0,1,,,,,,,,,,,,,,,,,,,,,,,,,,,,,,,,,,,,,,,
,,,,,,,,2023-08-16_08h37.26.435,HF_wild_card,2022.2.4,Win32,60.07810153,5ca48653ed23650001328d9d,64d2fd46c836a06233681665,64dc7c953314e6750d2ae994,,,,,,,decisionTrl,resources/DB.BMP,resources/DBN.BMP,Door1,0.343518519,0.012037037,1,0,0,1.7651,optionRight,30,9910,5,1,0,1,0,1,,,,,,,,,,,,,,,,,,,,,,,,,,,,,,,,,,,,,,,
,,,,,,,,2023-08-16_08h37.26.435,HF_wild_card,2022.2.4,Win32,60.07810153,5ca48653ed23650001328d9d,64d2fd46c836a06233681665,64dc7c953314e6750d2ae994,,,,,,,ctch,resources/DG.BMP,resources/DB.BMP,Door3,-0.226851852,-0.001851852,1,0,0,1.298,optionLeft,70,9980,5,2,0,2,0,1,,,,,,,,,,,,,,,,,,,,,,,,,,,,,,,,,,,,,,,
,,,,,,,,2023-08-16_08h37.26.435,HF_wild_card,2022.2.4,Win32,60.07810153,5ca48653ed23650001328d9d,64d2fd46c836a06233681665,64dc7c953314e6750d2ae994,,,,,,,decisionTrl,resources/DG.BMP,resources/DY.BMP,Door4,0.375925926,0.021296296,1,0,0,0.9986,optionRight,80,10060,5,3,0,3,0,1,,,,,,,,,,,,,,,,,,,,,,,,,,,,,,,,,,,,,,,
,,,,,,,,2023-08-16_08h37.26.435,HF_wild_card,2022.2.4,Win32,60.07810153,5ca48653ed23650001328d9d,64d2fd46c836a06233681665,64dc7c953314e6750d2ae994,,,,,,,sngl,resources/Empty.png,resources/DBN.BMP,Door1,0.236111111,0.021296296,1,0,0,0.6644,optionRight,30,10090,5,4,0,4,0,1,,,,,,,,,,,,,,,,,,,,,,,,,,,,,,,,,,,,,,,
,,,,,,,,2023-08-16_08h37.26.435,HF_wild_card,2022.2.4,Win32,60.07810153,5ca48653ed23650001328d9d,64d2fd46c836a06233681665,64dc7c953314e6750d2ae994,,,,,,,decisionTrl,resources/DY.BMP,resources/DG.BMP,Door4,-0.162962963,0.014814815,1,0,0,0.9643,optionLeft,60,10150,5,5,0,5,0,1,,,,,,,,,,,,,,,,,,,,,,,,,,,,,,,,,,,,,,,
,,,,,,,,2023-08-16_08h37.26.435,HF_wild_card,2022.2.4,Win32,60.07810153,5ca48653ed23650001328d9d,64d2fd46c836a06233681665,64dc7c953314e6750d2ae994,,,,,,,decisionTrl,resources/DBN.BMP,resources/DB.BMP,Door1,-0.358333333,0.012037037,1,0,0,0.9981,optionLeft,30,10180,5,6,0,6,0,1,,,,,,,,,,,,,,,,,,,,,,,,,,,,,,,,,,,,,,,
,,,,,,,,2023-08-16_08h37.26.435,HF_wild_card,2022.2.4,Win32,60.07810153,5ca48653ed23650001328d9d,64d2fd46c836a06233681665,64dc7c953314e6750d2ae994,,,,,,,decisionTrl,resources/DY.BMP,resources/DG.BMP,Door4,-0.175,0.009259259,1,0,0,0.7974,optionLeft,60,10240,5,7,0,7,0,1,,,,,,,,,,,,,,,,,,,,,,,,,,,,,,,,,,,,,,,
,,,,,,,,2023-08-16_08h37.26.435,HF_wild_card,2022.2.4,Win32,60.07810153,5ca48653ed23650001328d9d,64d2fd46c836a06233681665,64dc7c953314e6750d2ae994,,,,,,,ctch,resources/DG.BMP,resources/DB.BMP,Door3,-0.078703704,0.016666667,1,0,0,1.4311,optionLeft,70,10310,5,8,0,8,0,1,,,,,,,,,,,,,,,,,,,,,,,,,,,,,,,,,,,,,,,
,,,,,,,,2023-08-16_08h37.26.435,HF_wild_card,2022.2.4,Win32,60.07810153,5ca48653ed23650001328d9d,64d2fd46c836a06233681665,64dc7c953314e6750d2ae994,,,,,,,sngl,resources/Empty.png,resources/DY.BMP,Door4,0.216666667,0.007407407,1,0,0,0.531,optionRight,60,10370,5,9,0,9,0,1,,,,,,,,,,,,,,,,,,,,,,,,,,,,,,,,,,,,,,,
,,,,,,,,2023-08-16_08h37.26.435,HF_wild_card,2022.2.4,Win32,60.07810153,5ca48653ed23650001328d9d,64d2fd46c836a06233681665,64dc7c953314e6750d2ae994,,,,,,,ctch,resources/DB.BMP,resources/DG.BMP,Door3,0.223148148,0.006481481,1,0,0,0.9137,optionRight,70,10440,5,10,0,10,0,1,,,,,,,,,,,,,,,,,,,,,,,,,,,,,,,,,,,,,,,
,,,,,,,,2023-08-16_08h37.26.435,HF_wild_card,2022.2.4,Win32,60.07810153,5ca48653ed23650001328d9d,64d2fd46c836a06233681665,64dc7c953314e6750d2ae994,,,,,,,ctch,resources/DY.BMP,resources/DBN.BMP,Door4,-0.187962963,-0.019444444,1,0,0,0.7107,optionLeft,80,10520,5,11,0,11,0,1,,,,,,,,,,,,,,,,,,,,,,,,,,,,,,,,,,,,,,,
,,,,,,,,2023-08-16_08h37.26.435,HF_wild_card,2022.2.4,Win32,60.07810153,5ca48653ed23650001328d9d,64d2fd46c836a06233681665,64dc7c953314e6750d2ae994,,,,,,,sngl,resources/DG.BMP,resources/Empty.png,Door3,-0.269444444,-0.002777778,1,0,0,0.5651,optionLeft,70,10590,5,12,0,12,0,1,,,,,,,,,,,,,,,,,,,,,,,,,,,,,,,,,,,,,,,
,,,,,,,,2023-08-16_08h37.26.435,HF_wild_card,2022.2.4,Win32,60.07810153,5ca48653ed23650001328d9d,64d2fd46c836a06233681665,64dc7c953314e6750d2ae994,,,,,,,sngl,resources/DY.BMP,resources/Empty.png,Door4,-0.248148148,0.001851852,1,0,0,0.4792,optionLeft,80,10670,5,13,0,13,0,1,,,,,,,,,,,,,,,,,,,,,,,,,,,,,,,,,,,,,,,
,,,,,,,,2023-08-16_08h37.26.435,HF_wild_card,2022.2.4,Win32,60.07810153,5ca48653ed23650001328d9d,64d2fd46c836a06233681665,64dc7c953314e6750d2ae994,,,,,,,decisionTrl,resources/DY.BMP,resources/DR.BMP,Door4,-0.369444444,-0.005555556,1,0,0,1.1167,optionLeft,60,10730,5,14,0,14,0,1,,,,,,,,,,,,,,,,,,,,,,,,,,,,,,,,,,,,,,,
,,,,,,,,2023-08-16_08h37.26.435,HF_wild_card,2022.2.4,Win32,60.07810153,5ca48653ed23650001328d9d,64d2fd46c836a06233681665,64dc7c953314e6750d2ae994,,,,,,,sngl,resources/Empty.png,resources/DR.BMP,WildCard_Ex,0.15,0.014814815,1,0,0,0.6813,optionRight,5,10735,5,15,0,15,0,1,,,,,,,,,,,,,,,,,,,,,,,,,,,,,,,,,,,,,,,
,,,,,,,,2023-08-16_08h37.26.435,HF_wild_card,2022.2.4,Win32,60.07810153,5ca48653ed23650001328d9d,64d2fd46c836a06233681665,64dc7c953314e6750d2ae994,,,,,,,sngl,resources/DB.BMP,resources/Empty.png,Door2,-0.213888889,-0.015740741,1,0,0,0.5104,optionLeft,40,10775,5,16,0,16,0,1,,,,,,,,,,,,,,,,,,,,,,,,,,,,,,,,,,,,,,,
,,,,,,,,2023-08-16_08h37.26.435,HF_wild_card,2022.2.4,Win32,60.07810153,5ca48653ed23650001328d9d,64d2fd46c836a06233681665,64dc7c953314e6750d2ae994,,,,,,,decisionTrl,resources/DG.BMP,resources/DY.BMP,Door4,0.293518519,0.021296296,1,0,0,0.9451,optionRight,60,10835,5,17,0,17,0,1,,,,,,,,,,,,,,,,,,,,,,,,,,,,,,,,,,,,,,,
,,,,,,,,2023-08-16_08h37.26.435,HF_wild_card,2022.2.4,Win32,60.07810153,5ca48653ed23650001328d9d,64d2fd46c836a06233681665,64dc7c953314e6750d2ae994,,,,,,,decisionTrl,resources/DBN.BMP,resources/DB.BMP,Door2,0.200925926,0.038888889,1,0,0,0.7425,optionRight,40,10875,5,18,0,18,0,1,,,,,,,,,,,,,,,,,,,,,,,,,,,,,,,,,,,,,,,
,,,,,,,,2023-08-16_08h37.26.435,HF_wild_card,2022.2.4,Win32,60.07810153,5ca48653ed23650001328d9d,64d2fd46c836a06233681665,64dc7c953314e6750d2ae994,,,,,,,decisionTrl,resources/DB.BMP,resources/DBN.BMP,Door1,0.311111111,0.015740741,1,0,0,1.8799,optionRight,30,10905,5,19,0,19,0,1,,,,,,,,,,,,,,,,,,,,,,,,,,,,,,,,,,,,,,,
,,,,,,,,2023-08-16_08h37.26.435,HF_wild_card,2022.2.4,Win32,60.07810153,5ca48653ed23650001328d9d,64d2fd46c836a06233681665,64dc7c953314e6750d2ae994,,,,,,,decisionTrl,resources/DR.BMP,resources/DB.BMP,WildCard_Ex,-0.075925926,0.00462963,1,0,0,2.3761,optionLeft,5,10910,5,20,0,20,0,1,,,,,,,,,,,,,,,,,,,,,,,,,,,,,,,,,,,,,,,
,,,,,,,,2023-08-16_08h37.26.435,HF_wild_card,2022.2.4,Win32,60.07810153,5ca48653ed23650001328d9d,64d2fd46c836a06233681665,64dc7c953314e6750d2ae994,,,,,,,sngl,resources/DR.BMP,resources/Empty.png,WildCard_Ex,-0.216666667,0,1,0,0,0.5113,optionLeft,95,11005,5,21,0,21,0,1,,,,,,,,,,,,,,,,,,,,,,,,,,,,,,,,,,,,,,,
,,,,,,,,2023-08-16_08h37.26.435,HF_wild_card,2022.2.4,Win32,60.07810153,5ca48653ed23650001328d9d,64d2fd46c836a06233681665,64dc7c953314e6750d2ae994,,,,,,,sngl,resources/DBN.BMP,resources/Empty.png,Door1,-0.211111111,0.000925926,1,0,0,0.4989,optionLeft,30,11035,5,22,0,22,0,1,,,,,,,,,,,,,,,,,,,,,,,,,,,,,,,,,,,,,,,
,,,,,,,,2023-08-16_08h37.26.435,HF_wild_card,2022.2.4,Win32,60.07810153,5ca48653ed23650001328d9d,64d2fd46c836a06233681665,64dc7c953314e6750d2ae994,,,,,,,sngl,resources/Empty.png,resources/DG.BMP,Door3,0.340740741,0.040740741,1,0,0,0.4769,optionRight,70,11105,5,23,0,23,0,1,,,,,,,,,,,,,,,,,,,,,,,,,,,,,,,,,,,,,,,
,,,,,,,,2023-08-16_08h37.26.435,HF_wild_card,2022.2.4,Win32,60.07810153,5ca48653ed23650001328d9d,64d2fd46c836a06233681665,64dc7c953314e6750d2ae994,,,,,,,decisionTrl,resources/DB.BMP,resources/DR.BMP,Door2,-0.108333333,0.00462963,1,0,0,2.416,optionLeft,20,11125,5,24,0,24,0,1,,,,,,,,,,,,,,,,,,,,,,,,,,,,,,,,,,,,,,,
,,,,,,,,2023-08-16_08h37.26.435,HF_wild_card,2022.2.4,Win32,60.07810153,5ca48653ed23650001328d9d,64d2fd46c836a06233681665,64dc7c953314e6750d2ae994,,,,,,,ctch,resources/DY.BMP,resources/DBN.BMP,Door4,-0.17037037,0.001851852,1,0,0,0.7991,optionLeft,60,11185,5,25,0,25,0,1,,,,,,,,,,,,,,,,,,,,,,,,,,,,,,,,,,,,,,,
,,,,,,,,2023-08-16_08h37.26.435,HF_wild_card,2022.2.4,Win32,60.07810153,5ca48653ed23650001328d9d,64d2fd46c836a06233681665,64dc7c953314e6750d2ae994,,,,,,,ctch,resources/DBN.BMP,resources/DY.BMP,Door4,0.175925926,0.039814815,1,0,0,0.8962,optionRight,80,11265,5,26,0,26,0,1,,,,,,,,,,,,,,,,,,,,,,,,,,,,,,,,,,,,,,,
,,,,,,,,2023-08-16_08h37.26.435,HF_wild_card,2022.2.4,Win32,60.07810153,5ca48653ed23650001328d9d,64d2fd46c836a06233681665,64dc7c953314e6750d2ae994,,,,,,,decisionTrl,resources/DG.BMP,resources/DY.BMP,Door4,0.131481481,0.025,1,0,0,0.6161,optionRight,80,11345,5,27,0,27,0,1,,,,,,,,,,,,,,,,,,,,,,,,,,,,,,,,,,,,,,,
,,,,,,,,2023-08-16_08h37.26.435,HF_wild_card,2022.2.4,Win32,60.07810153,5ca48653ed23650001328d9d,64d2fd46c836a06233681665,64dc7c953314e6750d2ae994,,,,,,,ctch,resources/DBN.BMP,resources/DY.BMP,Door4,0.169444444,0.002777778,1,0,0,0.5484,optionRight,60,11405,5,28,0,28,0,1,,,,,,,,,,,,,,,,,,,,,,,,,,,,,,,,,,,,,,,
,,,,,,,,2023-08-16_08h37.26.435,HF_wild_card,2022.2.4,Win32,60.07810153,5ca48653ed23650001328d9d,64d2fd46c836a06233681665,64dc7c953314e6750d2ae994,,,,,,,decisionTrl,resources/DB.BMP,resources/DBN.BMP,Door1,0.174074074,-0.000925926,1,0,0,0.9934,optionRight,30,11435,5,29,0,29,0,1,,,,,,,,,,,,,,,,,,,,,,,,,,,,,,,,,,,,,,,
,,,,,,,,2023-08-16_08h37.26.435,HF_wild_card,2022.2.4,Win32,60.07810153,5ca48653ed23650001328d9d,64d2fd46c836a06233681665,64dc7c953314e6750d2ae994,,,,,,,decisionTrl,resources/DR.BMP,resources/DBN.BMP,Door1,0.223148148,0.060185185,1,0,0,1.3935,optionRight,30,11465,5,30,0,30,0,1,,,,,,,,,,,,,,,,,,,,,,,,,,,,,,,,,,,,,,,
,,,,,,,,2023-08-16_08h37.26.435,HF_wild_card,2022.2.4,Win32,60.07810153,5ca48653ed23650001328d9d,64d2fd46c836a06233681665,64dc7c953314e6750d2ae994,,,,,,,decisionTrl,resources/DBN.BMP,resources/DR.BMP,Door1,-0.128703704,-0.007407407,1,0,0,0.9487,optionLeft,30,11495,5,31,0,31,0,1,,,,,,,,,,,,,,,,,,,,,,,,,,,,,,,,,,,,,,,
,,,,,,,,2023-08-16_08h37.26.435,HF_wild_card,2022.2.4,Win32,60.07810153,5ca48653ed23650001328d9d,64d2fd46c836a06233681665,64dc7c953314e6750d2ae994,,,,,,,sngl,resources/DR.BMP,resources/Empty.png,WildCard_Ex,-0.155555556,-0.000925926,1,0,0,0.581,optionLeft,5,11500,5,32,0,32,0,1,,,,,,,,,,,,,,,,,,,,,,,,,,,,,,,,,,,,,,,
,,,,,,,,2023-08-16_08h37.26.435,HF_wild_card,2022.2.4,Win32,60.07810153,5ca48653ed23650001328d9d,64d2fd46c836a06233681665,64dc7c953314e6750d2ae994,,,,,,,decisionTrl,resources/DG.BMP,resources/DY.BMP,Door4,0.380555556,0.064814815,1,0,0,0.7146,optionRight,80,11580,5,33,0,33,0,1,,,,,,,,,,,,,,,,,,,,,,,,,,,,,,,,,,,,,,,
,,,,,,,,2023-08-16_08h37.26.435,HF_wild_card,2022.2.4,Win32,60.07810153,5ca48653ed23650001328d9d,64d2fd46c836a06233681665,64dc7c953314e6750d2ae994,,,,,,,ctch,resources/DB.BMP,resources/DG.BMP,Door3,0.289814815,0.021296296,1,0,0,1.1791,optionRight,70,11650,5,34,0,34,0,1,,,,,,,,,,,,,,,,,,,,,,,,,,,,,,,,,,,,,,,
,,,,,,,,2023-08-16_08h37.26.435,HF_wild_card,2022.2.4,Win32,60.07810153,5ca48653ed23650001328d9d,64d2fd46c836a06233681665,64dc7c953314e6750d2ae994,,,,,,,decisionTrl,resources/DY.BMP,resources/DG.BMP,Door4,-0.2,0.00462963,1,0,0,0.8779,optionLeft,60,11710,5,35,0,35,0,1,,,,,,,,,,,,,,,,,,,,,,,,,,,,,,,,,,,,,,,
,,,,,,,,2023-08-16_08h37.26.435,HF_wild_card,2022.2.4,Win32,60.07810153,5ca48653ed23650001328d9d,64d2fd46c836a06233681665,64dc7c953314e6750d2ae994,,,,,,,decisionTrl,resources/DR.BMP,resources/DY.BMP,Door4,0.425925926,0.068518519,1,0,0,0.7252,optionRight,80,11790,5,36,0,36,0,1,,,,,,,,,,,,,,,,,,,,,,,,,,,,,,,,,,,,,,,
,,,,,,,,2023-08-16_08h37.26.435,HF_wild_card,2022.2.4,Win32,60.07810153,5ca48653ed23650001328d9d,64d2fd46c836a06233681665,64dc7c953314e6750d2ae994,,,,,,,decisionTrl,resources/DG.BMP,resources/DR.BMP,Door3,-0.262962963,-0.000925926,1,0,0,1.5151,optionLeft,70,11860,5,37,0,37,0,1,,,,,,,,,,,,,,,,,,,,,,,,,,,,,,,,,,,,,,,
,,,,,,,,2023-08-16_08h37.26.435,HF_wild_card,2022.2.4,Win32,60.07810153,5ca48653ed23650001328d9d,64d2fd46c836a06233681665,64dc7c953314e6750d2ae994,,,,,,,sngl,resources/Empty.png,resources/DB.BMP,Door2,0.280555556,0.016666667,1,0,0,0.6095,optionRight,20,11880,5,38,0,38,0,1,,,,,,,,,,,,,,,,,,,,,,,,,,,,,,,,,,,,,,,
,,,,,,,,2023-08-16_08h37.26.435,HF_wild_card,2022.2.4,Win32,60.07810153,5ca48653ed23650001328d9d,64d2fd46c836a06233681665,64dc7c953314e6750d2ae994,,,,,,,decisionTrl,resources/DY.BMP,resources/DG.BMP,Door4,-0.314814815,0.000925926,1,0,0,0.7096,optionLeft,80,11960,5,39,0,39,0,1,,,,,,,,,,,,,,,,,,,,,,,,,,,,,,,,,,,,,,,
,,,,,,,,2023-08-16_08h37.26.435,HF_wild_card,2022.2.4,Win32,60.07810153,5ca48653ed23650001328d9d,64d2fd46c836a06233681665,64dc7c953314e6750d2ae994,,,,,,,decisionTrl,resources/DBN.BMP,resources/DB.BMP,Door1,-0.189814815,0.024074074,1,0,0,1.462,optionLeft,30,11990,5,40,0,40,0,1,,,,,,,,,,,,,,,,,,,,,,,,,,,,,,,,,,,,,,,
,,,,,,,,2023-08-16_08h37.26.435,HF_wild_card,2022.2.4,Win32,60.07810153,5ca48653ed23650001328d9d,64d2fd46c836a06233681665,64dc7c953314e6750d2ae994,,,,,,,decisionTrl,resources/DR.BMP,resources/DG.BMP,Door3,0.138888889,0.017592593,1,0,0,1.0106,optionRight,70,12060,5,41,0,41,0,1,,,,,,,,,,,,,,,,,,,,,,,,,,,,,,,,,,,,,,,
,,,,,,,,2023-08-16_08h37.26.435,HF_wild_card,2022.2.4,Win32,60.07810153,5ca48653ed23650001328d9d,64d2fd46c836a06233681665,64dc7c953314e6750d2ae994,,,,,,,decisionTrl,resources/DB.BMP,resources/DBN.BMP,Door1,0.253703704,0.025925926,1,0,0,1.3939,optionRight,30,12090,5,42,0,42,0,1,,,,,,,,,,,,,,,,,,,,,,,,,,,,,,,,,,,,,,,
,,,,,,,,2023-08-16_08h37.26.435,HF_wild_card,2022.2.4,Win32,60.07810153,5ca48653ed23650001328d9d,64d2fd46c836a06233681665,64dc7c953314e6750d2ae994,,,,,,,decisionTrl,resources/DBN.BMP,resources/DB.BMP,Door1,-0.302777778,0.012037037,1,0,0,1.0763,optionLeft,30,12120,5,43,0,43,0,1,,,,,,,,,,,,,,,,,,,,,,,,,,,,,,,,,,,,,,,
,,,,,,,,2023-08-16_08h37.26.435,HF_wild_card,2022.2.4,Win32,60.07810153,5ca48653ed23650001328d9d,64d2fd46c836a06233681665,64dc7c953314e6750d2ae994,,,,,,,,,,,,,,,,,,,,,,,,,,4,0,4,0,1,,,,,,,,,,,,,,,,,,,,,,,,,,,,,,,,,,
,,,,,,,,2023-08-16_08h37.26.435,HF_wild_card,2022.2.4,Win32,60.07810153,5ca48653ed23650001328d9d,64d2fd46c836a06233681665,64dc7c953314e6750d2ae994,,,,,,,ctch,resources/DBN.BMP,resources/DY.BMP,Door4,0.353703704,-0.052777778,1,0,0,0.8221,optionRight,80,12200,6,0,0,0,0,1,,,,,,,,,,,,,,,,,,,,,,,,,,,,,,,,,,,,,,,
,,,,,,,,2023-08-16_08h37.26.435,HF_wild_card,2022.2.4,Win32,60.07810153,5ca48653ed23650001328d9d,64d2fd46c836a06233681665,64dc7c953314e6750d2ae994,,,,,,,decisionTrl,resources/DB.BMP,resources/DBN.BMP,Door1,0.180555556,0.032407407,1,0,0,1.6315,optionRight,30,12230,6,1,0,1,0,1,,,,,,,,,,,,,,,,,,,,,,,,,,,,,,,,,,,,,,,
,,,,,,,,2023-08-16_08h37.26.435,HF_wild_card,2022.2.4,Win32,60.07810153,5ca48653ed23650001328d9d,64d2fd46c836a06233681665,64dc7c953314e6750d2ae994,,,,,,,decisionTrl,resources/DY.BMP,resources/DG.BMP,Door4,-0.286111111,-0.038888889,1,0,0,0.8964,optionLeft,60,12290,6,2,0,2,0,1,,,,,,,,,,,,,,,,,,,,,,,,,,,,,,,,,,,,,,,
,,,,,,,,2023-08-16_08h37.26.435,HF_wild_card,2022.2.4,Win32,60.07810153,5ca48653ed23650001328d9d,64d2fd46c836a06233681665,64dc7c953314e6750d2ae994,,,,,,,decisionTrl,resources/DBN.BMP,resources/DR.BMP,Door1,-0.202777778,-0.012037037,1,0,0,1.8151,optionLeft,30,12320,6,3,0,3,0,1,,,,,,,,,,,,,,,,,,,,,,,,,,,,,,,,,,,,,,,
,,,,,,,,2023-08-16_08h37.26.435,HF_wild_card,2022.2.4,Win32,60.07810153,5ca48653ed23650001328d9d,64d2fd46c836a06233681665,64dc7c953314e6750d2ae994,,,,,,,sngl,resources/DY.BMP,resources/Empty.png,Door4,-0.247222222,0.038888889,1,0,0,0.5306,optionLeft,60,12380,6,4,0,4,0,1,,,,,,,,,,,,,,,,,,,,,,,,,,,,,,,,,,,,,,,
,,,,,,,,2023-08-16_08h37.26.435,HF_wild_card,2022.2.4,Win32,60.07810153,5ca48653ed23650001328d9d,64d2fd46c836a06233681665,64dc7c953314e6750d2ae994,,,,,,,decisionTrl,resources/DY.BMP,resources/DG.BMP,Door4,-0.300925926,-0.00462963,1,0,0,0.6481,optionLeft,60,12440,6,5,0,5,0,1,,,,,,,,,,,,,,,,,,,,,,,,,,,,,,,,,,,,,,,
,,,,,,,,2023-08-16_08h37.26.435,HF_wild_card,2022.2.4,Win32,60.07810153,5ca48653ed23650001328d9d,64d2fd46c836a06233681665,64dc7c953314e6750d2ae994,,,,,,,decisionTrl,resources/DB.BMP,resources/DR.BMP,WildCard_Ex,0.260185185,0.003703704,1,0,0,1.6734,optionRight,5,12445,6,6,0,6,0,1,,,,,,,,,,,,,,,,,,,,,,,,,,,,,,,,,,,,,,,
,,,,,,,,2023-08-16_08h37.26.435,HF_wild_card,2022.2.4,Win32,60.07810153,5ca48653ed23650001328d9d,64d2fd46c836a06233681665,64dc7c953314e6750d2ae994,,,,,,,sngl,resources/Empty.png,resources/DR.BMP,WildCard_Ex,0.2,0.040740741,1,0,0,0.4985,optionRight,95,12540,6,7,0,7,0,1,,,,,,,,,,,,,,,,,,,,,,,,,,,,,,,,,,,,,,,
,,,,,,,,2023-08-16_08h37.26.435,HF_wild_card,2022.2.4,Win32,60.07810153,5ca48653ed23650001328d9d,64d2fd46c836a06233681665,64dc7c953314e6750d2ae994,,,,,,,sngl,resources/DR.BMP,resources/Empty.png,WildCard_Ex,-0.226851852,-0.023148148,1,0,0,0.5311,optionLeft,95,12635,6,8,0,8,0,1,,,,,,,,,,,,,,,,,,,,,,,,,,,,,,,,,,,,,,,
,,,,,,,,2023-08-16_08h37.26.435,HF_wild_card,2022.2.4,Win32,60.07810153,5ca48653ed23650001328d9d,64d2fd46c836a06233681665,64dc7c953314e6750d2ae994,,,,,,,decisionTrl,resources/DB.BMP,resources/DBN.BMP,Door1,0.275925926,-0.001851852,1,0,0,1.8981,optionRight,30,12665,6,9,0,9,0,1,,,,,,,,,,,,,,,,,,,,,,,,,,,,,,,,,,,,,,,
,,,,,,,,2023-08-16_08h37.26.435,HF_wild_card,2022.2.4,Win32,60.07810153,5ca48653ed23650001328d9d,64d2fd46c836a06233681665,64dc7c953314e6750d2ae994,,,,,,,decisionTrl,resources/DG.BMP,resources/DY.BMP,Door4,0.230555556,0.032407407,1,0,0,0.7147,optionRight,80,12745,6,10,0,10,0,1,,,,,,,,,,,,,,,,,,,,,,,,,,,,,,,,,,,,,,,
,,,,,,,,2023-08-16_08h37.26.435,HF_wild_card,2022.2.4,Win32,60.07810153,5ca48653ed23650001328d9d,64d2fd46c836a06233681665,64dc7c953314e6750d2ae994,,,,,,,decisionTrl,resources/DY.BMP,resources/DG.BMP,Door4,-0.158333333,0.007407407,1,0,0,0.6156,optionLeft,60,12805,6,11,0,11,0,1,,,,,,,,,,,,,,,,,,,,,,,,,,,,,,,,,,,,,,,
,,,,,,,,2023-08-16_08h37.26.435,HF_wild_card,2022.2.4,Win32,60.07810153,5ca48653ed23650001328d9d,64d2fd46c836a06233681665,64dc7c953314e6750d2ae994,,,,,,,ctch,resources/DY.BMP,resources/DBN.BMP,Door4,-0.281481481,-0.013888889,1,0,0,0.5977,optionLeft,80,12885,6,12,0,12,0,1,,,,,,,,,,,,,,,,,,,,,,,,,,,,,,,,,,,,,,,
,,,,,,,,2023-08-16_08h37.26.435,HF_wild_card,2022.2.4,Win32,60.07810153,5ca48653ed23650001328d9d,64d2fd46c836a06233681665,64dc7c953314e6750d2ae994,,,,,,,sngl,resources/Empty.png,resources/DR.BMP,WildCard_Ex,0.306481481,0.00462963,1,0,0,0.5463,optionRight,5,12890,6,13,0,13,0,1,,,,,,,,,,,,,,,,,,,,,,,,,,,,,,,,,,,,,,,
,,,,,,,,2023-08-16_08h37.26.435,HF_wild_card,2022.2.4,Win32,60.07810153,5ca48653ed23650001328d9d,64d2fd46c836a06233681665,64dc7c953314e6750d2ae994,,,,,,,decisionTrl,resources/DG.BMP,resources/DY.BMP,Door4,0.310185185,0.035185185,1,0,0,0.6478,optionRight,80,12970,6,14,0,14,0,1,,,,,,,,,,,,,,,,,,,,,,,,,,,,,,,,,,,,,,,
,,,,,,,,2023-08-16_08h37.26.435,HF_wild_card,2022.2.4,Win32,60.07810153,5ca48653ed23650001328d9d,64d2fd46c836a06233681665,64dc7c953314e6750d2ae994,,,,,,,decisionTrl,resources/DBN.BMP,resources/DB.BMP,Door1,-0.167592593,0.009259259,1,0,0,1.2987,optionLeft,30,13000,6,15,0,15,0,1,,,,,,,,,,,,,,,,,,,,,,,,,,,,,,,,,,,,,,,
,,,,,,,,2023-08-16_08h37.26.435,HF_wild_card,2022.2.4,Win32,60.07810153,5ca48653ed23650001328d9d,64d2fd46c836a06233681665,64dc7c953314e6750d2ae994,,,,,,,sngl,resources/Empty.png,resources/DG.BMP,Door3,0.226851852,0.000925926,1,0,0,0.5817,optionRight,70,13070,6,16,0,16,0,1,,,,,,,,,,,,,,,,,,,,,,,,,,,,,,,,,,,,,,,
,,,,,,,,2023-08-16_08h37.26.435,HF_wild_card,2022.2.4,Win32,60.07810153,5ca48653ed23650001328d9d,64d2fd46c836a06233681665,64dc7c953314e6750d2ae994,,,,,,,decisionTrl,resources/DBN.BMP,resources/DB.BMP,Door1,-0.142592593,0.061111111,1,0,0,1.9951,optionLeft,30,13100,6,17,0,17,0,1,,,,,,,,,,,,,,,,,,,,,,,,,,,,,,,,,,,,,,,
,,,,,,,,2023-08-16_08h37.26.435,HF_wild_card,2022.2.4,Win32,60.07810153,5ca48653ed23650001328d9d,64d2fd46c836a06233681665,64dc7c953314e6750d2ae994,,,,,,,decisionTrl,resources/DG.BMP,resources/DY.BMP,Door4,0.225925926,0.062962963,1,0,0,0.6645,optionRight,60,13160,6,18,0,18,0,1,,,,,,,,,,,,,,,,,,,,,,,,,,,,,,,,,,,,,,,
,,,,,,,,2023-08-16_08h37.26.435,HF_wild_card,2022.2.4,Win32,60.07810153,5ca48653ed23650001328d9d,64d2fd46c836a06233681665,64dc7c953314e6750d2ae994,,,,,,,decisionTrl,resources/DBN.BMP,resources/DB.BMP,Door1,-0.250925926,0.023148148,1,0,0,1.6818,optionLeft,30,13190,6,19,0,19,0,1,,,,,,,,,,,,,,,,,,,,,,,,,,,,,,,,,,,,,,,
,,,,,,,,2023-08-16_08h37.26.435,HF_wild_card,2022.2.4,Win32,60.07810153,5ca48653ed23650001328d9d,64d2fd46c836a06233681665,64dc7c953314e6750d2ae994,,,,,,,sngl,resources/Empty.png,resources/DB.BMP,Door2,0.246296296,0.00462963,1,0,0,0.616,optionRight,40,13230,6,20,0,20,0,1,,,,,,,,,,,,,,,,,,,,,,,,,,,,,,,,,,,,,,,
,,,,,,,,2023-08-16_08h37.26.435,HF_wild_card,2022.2.4,Win32,60.07810153,5ca48653ed23650001328d9d,64d2fd46c836a06233681665,64dc7c953314e6750d2ae994,,,,,,,ctch,resources/DG.BMP,resources/DB.BMP,Door3,-0.253703704,0.017592593,1,0,0,1.6145,optionLeft,70,13300,6,21,0,21,0,1,,,,,,,,,,,,,,,,,,,,,,,,,,,,,,,,,,,,,,,
,,,,,,,,2023-08-16_08h37.26.435,HF_wild_card,2022.2.4,Win32,60.07810153,5ca48653ed23650001328d9d,64d2fd46c836a06233681665,64dc7c953314e6750d2ae994,,,,,,,decisionTrl,resources/DY.BMP,resources/DR.BMP,Door4,-0.17962963,0.018518519,1,0,0,0.6771,optionLeft,80,13380,6,22,0,22,0,1,,,,,,,,,,,,,,,,,,,,,,,,,,,,,,,,,,,,,,,
,,,,,,,,2023-08-16_08h37.26.435,HF_wild_card,2022.2.4,Win32,60.07810153,5ca48653ed23650001328d9d,64d2fd46c836a06233681665,64dc7c953314e6750d2ae994,,,,,,,decisionTrl,resources/DY.BMP,resources/DG.BMP,Door4,-0.212962963,0.025,1,0,0,0.6264,optionLeft,60,13440,6,23,0,23,0,1,,,,,,,,,,,,,,,,,,,,,,,,,,,,,,,,,,,,,,,
,,,,,,,,2023-08-16_08h37.26.435,HF_wild_card,2022.2.4,Win32,60.07810153,5ca48653ed23650001328d9d,64d2fd46c836a06233681665,64dc7c953314e6750d2ae994,,,,,,,decisionTrl,resources/DB.BMP,resources/DBN.BMP,Door1,0.307407407,0.012037037,1,0,0,1.5645,optionRight,30,13470,6,24,0,24,0,1,,,,,,,,,,,,,,,,,,,,,,,,,,,,,,,,,,,,,,,
,,,,,,,,2023-08-16_08h37.26.435,HF_wild_card,2022.2.4,Win32,60.07810153,5ca48653ed23650001328d9d,64d2fd46c836a06233681665,64dc7c953314e6750d2ae994,,,,,,,decisionTrl,resources/DR.BMP,resources/DG.BMP,WildCard_Ex,-0.172222222,0.036111111,1,0,0,1.1152,optionLeft,5,13475,6,25,0,25,0,1,,,,,,,,,,,,,,,,,,,,,,,,,,,,,,,,,,,,,,,
,,,,,,,,2023-08-16_08h37.26.435,HF_wild_card,2022.2.4,Win32,60.07810153,5ca48653ed23650001328d9d,64d2fd46c836a06233681665,64dc7c953314e6750d2ae994,,,,,,,ctch,resources/DB.BMP,resources/DG.BMP,Door3,0.265740741,0.008333333,1,0,0,0.5476,optionRight,70,13545,6,26,0,26,0,1,,,,,,,,,,,,,,,,,,,,,,,,,,,,,,,,,,,,,,,
,,,,,,,,2023-08-16_08h37.26.435,HF_wild_card,2022.2.4,Win32,60.07810153,5ca48653ed23650001328d9d,64d2fd46c836a06233681665,64dc7c953314e6750d2ae994,,,,,,,sngl,resources/DR.BMP,resources/Empty.png,WildCard_Ex,-0.25,0.015740741,1,0,0,0.531,optionLeft,5,13550,6,27,0,27,0,1,,,,,,,,,,,,,,,,,,,,,,,,,,,,,,,,,,,,,,,
,,,,,,,,2023-08-16_08h37.26.435,HF_wild_card,2022.2.4,Win32,60.07810153,5ca48653ed23650001328d9d,64d2fd46c836a06233681665,64dc7c953314e6750d2ae994,,,,,,,decisionTrl,resources/DR.BMP,resources/DBN.BMP,Door1,0.350925926,0.015740741,1,0,0,1.4275,optionRight,30,13580,6,28,0,28,0,1,,,,,,,,,,,,,,,,,,,,,,,,,,,,,,,,,,,,,,,
,,,,,,,,2023-08-16_08h37.26.435,HF_wild_card,2022.2.4,Win32,60.07810153,5ca48653ed23650001328d9d,64d2fd46c836a06233681665,64dc7c953314e6750d2ae994,,,,,,,ctch,resources/DY.BMP,resources/DBN.BMP,Door4,-0.342592593,-0.011111111,1,0,0,3.0312,optionLeft,80,13660,6,29,0,29,0,1,,,,,,,,,,,,,,,,,,,,,,,,,,,,,,,,,,,,,,,
,,,,,,,,2023-08-16_08h37.26.435,HF_wild_card,2022.2.4,Win32,60.07810153,5ca48653ed23650001328d9d,64d2fd46c836a06233681665,64dc7c953314e6750d2ae994,,,,,,,sngl,resources/Empty.png,resources/DBN.BMP,Door1,0.278703704,0.02037037,1,0,0,0.7662,optionRight,30,13690,6,30,0,30,0,1,,,,,,,,,,,,,,,,,,,,,,,,,,,,,,,,,,,,,,,
,,,,,,,,2023-08-16_08h37.26.435,HF_wild_card,2022.2.4,Win32,60.07810153,5ca48653ed23650001328d9d,64d2fd46c836a06233681665,64dc7c953314e6750d2ae994,,,,,,,decisionTrl,resources/DG.BMP,resources/DY.BMP,Door4,0.262962963,0.028703704,1,0,0,1.5134,optionRight,60,13750,6,31,0,31,0,1,,,,,,,,,,,,,,,,,,,,,,,,,,,,,,,,,,,,,,,
,,,,,,,,2023-08-16_08h37.26.435,HF_wild_card,2022.2.4,Win32,60.07810153,5ca48653ed23650001328d9d,64d2fd46c836a06233681665,64dc7c953314e6750d2ae994,,,,,,,sngl,resources/DG.BMP,resources/Empty.png,Door3,-0.176851852,0.031481481,1,0,0,0.8761,optionLeft,70,13820,6,32,0,32,0,1,,,,,,,,,,,,,,,,,,,,,,,,,,,,,,,,,,,,,,,
,,,,,,,,2023-08-16_08h37.26.435,HF_wild_card,2022.2.4,Win32,60.07810153,5ca48653ed23650001328d9d,64d2fd46c836a06233681665,64dc7c953314e6750d2ae994,,,,,,,ctch,resources/DG.BMP,resources/DB.BMP,Door3,-0.275925926,0.033333333,1,0,0,0.8468,optionLeft,70,13890,6,33,0,33,0,1,,,,,,,,,,,,,,,,,,,,,,,,,,,,,,,,,,,,,,,
,,,,,,,,2023-08-16_08h37.26.435,HF_wild_card,2022.2.4,Win32,60.07810153,5ca48653ed23650001328d9d,64d2fd46c836a06233681665,64dc7c953314e6750d2ae994,,,,,,,decisionTrl,resources/DR.BMP,resources/DB.BMP,WildCard_Ex,-0.278703704,0.052777778,1,0,0,2.3109,optionLeft,5,13895,6,34,0,34,0,1,,,,,,,,,,,,,,,,,,,,,,,,,,,,,,,,,,,,,,,
,,,,,,,,2023-08-16_08h37.26.435,HF_wild_card,2022.2.4,Win32,60.07810153,5ca48653ed23650001328d9d,64d2fd46c836a06233681665,64dc7c953314e6750d2ae994,,,,,,,ctch,resources/DB.BMP,resources/DG.BMP,Door3,0.262037037,0.041666667,1,0,0,1.0799,optionRight,70,13965,6,35,0,35,0,1,,,,,,,,,,,,,,,,,,,,,,,,,,,,,,,,,,,,,,,
,,,,,,,,2023-08-16_08h37.26.435,HF_wild_card,2022.2.4,Win32,60.07810153,5ca48653ed23650001328d9d,64d2fd46c836a06233681665,64dc7c953314e6750d2ae994,,,,,,,ctch,resources/DBN.BMP,resources/DY.BMP,Door4,0.180555556,0.003703704,1,0,0,1.1494,optionRight,60,14025,6,36,0,36,0,1,,,,,,,,,,,,,,,,,,,,,,,,,,,,,,,,,,,,,,,
,,,,,,,,2023-08-16_08h37.26.435,HF_wild_card,2022.2.4,Win32,60.07810153,5ca48653ed23650001328d9d,64d2fd46c836a06233681665,64dc7c953314e6750d2ae994,,,,,,,decisionTrl,resources/DR.BMP,resources/DY.BMP,Door4,0.148148148,0.007407407,1,0,0,3.0098,optionRight,60,14085,6,37,0,37,0,1,,,,,,,,,,,,,,,,,,,,,,,,,,,,,,,,,,,,,,,
,,,,,,,,2023-08-16_08h37.26.435,HF_wild_card,2022.2.4,Win32,60.07810153,5ca48653ed23650001328d9d,64d2fd46c836a06233681665,64dc7c953314e6750d2ae994,,,,,,,sngl,resources/Empty.png,resources/DY.BMP,Door4,0.152777778,-0.007407407,1,0,0,0.6397,optionRight,80,14165,6,38,0,38,0,1,,,,,,,,,,,,,,,,,,,,,,,,,,,,,,,,,,,,,,,
,,,,,,,,2023-08-16_08h37.26.435,HF_wild_card,2022.2.4,Win32,60.07810153,5ca48653ed23650001328d9d,64d2fd46c836a06233681665,64dc7c953314e6750d2ae994,,,,,,,decisionTrl,resources/DB.BMP,resources/DBN.BMP,Door1,0.263888889,0.007407407,1,0,0,1.7061,optionRight,30,14195,6,39,0,39,0,1,,,,,,,,,,,,,,,,,,,,,,,,,,,,,,,,,,,,,,,
,,,,,,,,2023-08-16_08h37.26.435,HF_wild_card,2022.2.4,Win32,60.07810153,5ca48653ed23650001328d9d,64d2fd46c836a06233681665,64dc7c953314e6750d2ae994,,,,,,,decisionTrl,resources/DBN.BMP,resources/DB.BMP,Door1,-0.233333333,0.038888889,1,0,0,1.1642,optionLeft,30,14225,6,40,0,40,0,1,,,,,,,,,,,,,,,,,,,,,,,,,,,,,,,,,,,,,,,
,,,,,,,,2023-08-16_08h37.26.435,HF_wild_card,2022.2.4,Win32,60.07810153,5ca48653ed23650001328d9d,64d2fd46c836a06233681665,64dc7c953314e6750d2ae994,,,,,,,sngl,resources/DBN.BMP,resources/Empty.png,Door1,-0.211111111,0.037962963,1,0,0,0.7656,optionLeft,30,14255,6,41,0,41,0,1,,,,,,,,,,,,,,,,,,,,,,,,,,,,,,,,,,,,,,,
,,,,,,,,2023-08-16_08h37.26.435,HF_wild_card,2022.2.4,Win32,60.07810153,5ca48653ed23650001328d9d,64d2fd46c836a06233681665,64dc7c953314e6750d2ae994,,,,,,,sngl,resources/DB.BMP,resources/Empty.png,Door2,-0.218518519,0.003703704,1,0,0,0.5316,optionLeft,20,14275,6,42,0,42,0,1,,,,,,,,,,,,,,,,,,,,,,,,,,,,,,,,,,,,,,,
,,,,,,,,2023-08-16_08h37.26.435,HF_wild_card,2022.2.4,Win32,60.07810153,5ca48653ed23650001328d9d,64d2fd46c836a06233681665,64dc7c953314e6750d2ae994,,,,,,,decisionTrl,resources/DG.BMP,resources/DR.BMP,Door3,-0.328703704,0.04537037,1,0,0,1.2142,optionLeft,70,14345,6,43,0,43,0,1,,,,,,,,,,,,,,,,,,,,,,,,,,,,,,,,,,,,,,,
,,,,,,,,2023-08-16_08h37.26.435,HF_wild_card,2022.2.4,Win32,60.07810153,5ca48653ed23650001328d9d,64d2fd46c836a06233681665,64dc7c953314e6750d2ae994,,,,,,,,,,,,,,,,,,,,,,,,,,5,0,5,0,1,,,,,,,,,,,,,,,,,,,,,,,,,,,,,,,,,,
,,,,,,,,2023-08-16_08h37.26.435,HF_wild_card,2022.2.4,Win32,60.07810153,5ca48653ed23650001328d9d,64d2fd46c836a06233681665,64dc7c953314e6750d2ae994,,,,,,,decisionTrl,resources/DBN.BMP,resources/DB.BMP,Door1,-0.125925926,-0.102777778,1,0,0,1.3039,optionLeft,30,14375,7,0,0,0,0,1,,,,,,,,,,,,,,,,,,,,,,,,,,,,,,,,,,,,,,,
,,,,,,,,2023-08-16_08h37.26.435,HF_wild_card,2022.2.4,Win32,60.07810153,5ca48653ed23650001328d9d,64d2fd46c836a06233681665,64dc7c953314e6750d2ae994,,,,,,,ctch,resources/DBN.BMP,resources/DY.BMP,Door4,0.341666667,0.008333333,1,0,0,0.7963,optionRight,80,14455,7,1,0,1,0,1,,,,,,,,,,,,,,,,,,,,,,,,,,,,,,,,,,,,,,,
,,,,,,,,2023-08-16_08h37.26.435,HF_wild_card,2022.2.4,Win32,60.07810153,5ca48653ed23650001328d9d,64d2fd46c836a06233681665,64dc7c953314e6750d2ae994,,,,,,,ctch,resources/DB.BMP,resources/DG.BMP,Door3,0.282407407,0.019444444,1,0,0,0.962,optionRight,70,14525,7,2,0,2,0,1,,,,,,,,,,,,,,,,,,,,,,,,,,,,,,,,,,,,,,,
,,,,,,,,2023-08-16_08h37.26.435,HF_wild_card,2022.2.4,Win32,60.07810153,5ca48653ed23650001328d9d,64d2fd46c836a06233681665,64dc7c953314e6750d2ae994,,,,,,,decisionTrl,resources/DBN.BMP,resources/DB.BMP,Door1,-0.298148148,0.016666667,1,0,0,0.879,optionLeft,30,14555,7,3,0,3,0,1,,,,,,,,,,,,,,,,,,,,,,,,,,,,,,,,,,,,,,,
,,,,,,,,2023-08-16_08h37.26.435,HF_wild_card,2022.2.4,Win32,60.07810153,5ca48653ed23650001328d9d,64d2fd46c836a06233681665,64dc7c953314e6750d2ae994,,,,,,,decisionTrl,resources/DG.BMP,resources/DY.BMP,Door4,0.313888889,0.009259259,1,0,0,1.0163,optionRight,80,14635,7,4,0,4,0,1,,,,,,,,,,,,,,,,,,,,,,,,,,,,,,,,,,,,,,,
,,,,,,,,2023-08-16_08h37.26.435,HF_wild_card,2022.2.4,Win32,60.07810153,5ca48653ed23650001328d9d,64d2fd46c836a06233681665,64dc7c953314e6750d2ae994,,,,,,,ctch,resources/DY.BMP,resources/DBN.BMP,Door4,-0.308333333,-0.007407407,1,0,0,0.8495,optionLeft,80,14715,7,5,0,5,0,1,,,,,,,,,,,,,,,,,,,,,,,,,,,,,,,,,,,,,,,
,,,,,,,,2023-08-16_08h37.26.435,HF_wild_card,2022.2.4,Win32,60.07810153,5ca48653ed23650001328d9d,64d2fd46c836a06233681665,64dc7c953314e6750d2ae994,,,,,,,decisionTrl,resources/DBN.BMP,resources/DB.BMP,Door1,-0.55,-0.047222222,1,0,0,0.9986,optionLeft,30,14745,7,6,0,6,0,1,,,,,,,,,,,,,,,,,,,,,,,,,,,,,,,,,,,,,,,
,,,,,,,,2023-08-16_08h37.26.435,HF_wild_card,2022.2.4,Win32,60.07810153,5ca48653ed23650001328d9d,64d2fd46c836a06233681665,64dc7c953314e6750d2ae994,,,,,,,decisionTrl,resources/DG.BMP,resources/DY.BMP,Door4,0.153703704,0.023148148,1,0,0,0.7994,optionRight,60,14805,7,7,0,7,0,1,,,,,,,,,,,,,,,,,,,,,,,,,,,,,,,,,,,,,,,
,,,,,,,,2023-08-16_08h37.26.435,HF_wild_card,2022.2.4,Win32,60.07810153,5ca48653ed23650001328d9d,64d2fd46c836a06233681665,64dc7c953314e6750d2ae994,,,,,,,decisionTrl,resources/DBN.BMP,resources/DB.BMP,Door1,-0.200925926,-0.00462963,1,0,0,0.9324,optionLeft,30,14835,7,8,0,8,0,1,,,,,,,,,,,,,,,,,,,,,,,,,,,,,,,,,,,,,,,
,,,,,,,,2023-08-16_08h37.26.435,HF_wild_card,2022.2.4,Win32,60.07810153,5ca48653ed23650001328d9d,64d2fd46c836a06233681665,64dc7c953314e6750d2ae994,,,,,,,ctch,resources/DB.BMP,resources/DG.BMP,Door3,0.284259259,0.019444444,1,0,0,1.8152,optionRight,70,14905,7,9,0,9,0,1,,,,,,,,,,,,,,,,,,,,,,,,,,,,,,,,,,,,,,,
,,,,,,,,2023-08-16_08h37.26.435,HF_wild_card,2022.2.4,Win32,60.07810153,5ca48653ed23650001328d9d,64d2fd46c836a06233681665,64dc7c953314e6750d2ae994,,,,,,,decisionTrl,resources/DG.BMP,resources/DY.BMP,Door4,0.20462963,0.042592593,1,0,0,0.7996,optionRight,80,14985,7,10,0,10,0,1,,,,,,,,,,,,,,,,,,,,,,,,,,,,,,,,,,,,,,,
,,,,,,,,2023-08-16_08h37.26.435,HF_wild_card,2022.2.4,Win32,60.07810153,5ca48653ed23650001328d9d,64d2fd46c836a06233681665,64dc7c953314e6750d2ae994,,,,,,,decisionTrl,resources/DY.BMP,resources/DG.BMP,Door4,-0.186111111,0.001851852,1,0,0,0.6483,optionLeft,60,15045,7,11,0,11,0,1,,,,,,,,,,,,,,,,,,,,,,,,,,,,,,,,,,,,,,,
,,,,,,,,2023-08-16_08h37.26.435,HF_wild_card,2022.2.4,Win32,60.07810153,5ca48653ed23650001328d9d,64d2fd46c836a06233681665,64dc7c953314e6750d2ae994,,,,,,,decisionTrl,resources/DBN.BMP,resources/DB.BMP,Door1,-0.392592593,0.00462963,1,0,0,1.0312,optionLeft,30,15075,7,12,0,12,0,1,,,,,,,,,,,,,,,,,,,,,,,,,,,,,,,,,,,,,,,
,,,,,,,,2023-08-16_08h37.26.435,HF_wild_card,2022.2.4,Win32,60.07810153,5ca48653ed23650001328d9d,64d2fd46c836a06233681665,64dc7c953314e6750d2ae994,,,,,,,decisionTrl,resources/DG.BMP,resources/DY.BMP,Door4,0.187962963,0.028703704,1,0,0,0.7472,optionRight,80,15155,7,13,0,13,0,1,,,,,,,,,,,,,,,,,,,,,,,,,,,,,,,,,,,,,,,
,,,,,,,,2023-08-16_08h37.26.435,HF_wild_card,2022.2.4,Win32,60.07810153,5ca48653ed23650001328d9d,64d2fd46c836a06233681665,64dc7c953314e6750d2ae994,,,,,,,ctch,resources/DBN.BMP,resources/DY.BMP,Door4,0.171296296,0.035185185,1,0,0,0.6155,optionRight,80,15235,7,14,0,14,0,1,,,,,,,,,,,,,,,,,,,,,,,,,,,,,,,,,,,,,,,
,,,,,,,,2023-08-16_08h37.26.435,HF_wild_card,2022.2.4,Win32,60.07810153,5ca48653ed23650001328d9d,64d2fd46c836a06233681665,64dc7c953314e6750d2ae994,,,,,,,ctch,resources/DB.BMP,resources/DG.BMP,Door3,0.262962963,0.036111111,1,0,0,1.0835,optionRight,70,15305,7,15,0,15,0,1,,,,,,,,,,,,,,,,,,,,,,,,,,,,,,,,,,,,,,,
,,,,,,,,2023-08-16_08h37.26.435,HF_wild_card,2022.2.4,Win32,60.07810153,5ca48653ed23650001328d9d,64d2fd46c836a06233681665,64dc7c953314e6750d2ae994,,,,,,,decisionTrl,resources/DB.BMP,resources/DBN.BMP,Door1,0.255555556,0.031481481,1,0,0,0.7463,optionRight,30,15335,7,16,0,16,0,1,,,,,,,,,,,,,,,,,,,,,,,,,,,,,,,,,,,,,,,
,,,,,,,,2023-08-16_08h37.26.435,HF_wild_card,2022.2.4,Win32,60.07810153,5ca48653ed23650001328d9d,64d2fd46c836a06233681665,64dc7c953314e6750d2ae994,,,,,,,decisionTrl,resources/DG.BMP,resources/DY.BMP,Door4,0.171296296,0.023148148,1,0,0,0.6487,optionRight,60,15395,7,17,0,17,0,1,,,,,,,,,,,,,,,,,,,,,,,,,,,,,,,,,,,,,,,
,,,,,,,,2023-08-16_08h37.26.435,HF_wild_card,2022.2.4,Win32,60.07810153,5ca48653ed23650001328d9d,64d2fd46c836a06233681665,64dc7c953314e6750d2ae994,,,,,,,decisionTrl,resources/DB.BMP,resources/DBN.BMP,Door1,0.24537037,0.019444444,1,0,0,1.6988,optionRight,30,15425,7,18,0,18,0,1,,,,,,,,,,,,,,,,,,,,,,,,,,,,,,,,,,,,,,,
,,,,,,,,2023-08-16_08h37.26.435,HF_wild_card,2022.2.4,Win32,60.07810153,5ca48653ed23650001328d9d,64d2fd46c836a06233681665,64dc7c953314e6750d2ae994,,,,,,,ctch,resources/DG.BMP,resources/DB.BMP,Door3,-0.246296296,-0.008333333,1,0,0,1.2166,optionLeft,70,15495,7,19,0,19,0,1,,,,,,,,,,,,,,,,,,,,,,,,,,,,,,,,,,,,,,,
,,,,,,,,2023-08-16_08h37.26.435,HF_wild_card,2022.2.4,Win32,60.07810153,5ca48653ed23650001328d9d,64d2fd46c836a06233681665,64dc7c953314e6750d2ae994,,,,,,,decisionTrl,resources/DY.BMP,resources/DG.BMP,Door4,-0.202777778,-0.003703704,1,0,0,0.666,optionLeft,60,15555,7,20,0,20,0,1,,,,,,,,,,,,,,,,,,,,,,,,,,,,,,,,,,,,,,,
,,,,,,,,2023-08-16_08h37.26.435,HF_wild_card,2022.2.4,Win32,60.07810153,5ca48653ed23650001328d9d,64d2fd46c836a06233681665,64dc7c953314e6750d2ae994,,,,,,,decisionTrl,resources/DB.BMP,resources/DBN.BMP,Door1,0.150925926,0.017592593,1,0,0,2.0294,optionRight,30,15585,7,21,0,21,0,1,,,,,,,,,,,,,,,,,,,,,,,,,,,,,,,,,,,,,,,
,,,,,,,,2023-08-16_08h37.26.435,HF_wild_card,2022.2.4,Win32,60.07810153,5ca48653ed23650001328d9d,64d2fd46c836a06233681665,64dc7c953314e6750d2ae994,,,,,,,decisionTrl,resources/DBN.BMP,resources/DB.BMP,Door1,-0.187037037,-0.013888889,1,0,0,1.5328,optionLeft,30,15615,7,22,0,22,0,1,,,,,,,,,,,,,,,,,,,,,,,,,,,,,,,,,,,,,,,
,,,,,,,,2023-08-16_08h37.26.435,HF_wild_card,2022.2.4,Win32,60.07810153,5ca48653ed23650001328d9d,64d2fd46c836a06233681665,64dc7c953314e6750d2ae994,,,,,,,decisionTrl,resources/DY.BMP,resources/DG.BMP,Door4,-0.17037037,-0.011111111,1,0,0,0.6822,optionLeft,80,15695,7,23,0,23,0,1,,,,,,,,,,,,,,,,,,,,,,,,,,,,,,,,,,,,,,,
,,,,,,,,2023-08-16_08h37.26.435,HF_wild_card,2022.2.4,Win32,60.07810153,5ca48653ed23650001328d9d,64d2fd46c836a06233681665,64dc7c953314e6750d2ae994,,,,,,,decisionTrl,resources/DB.BMP,resources/DBN.BMP,Door1,0.211111111,-0.003703704,1,0,0,1.0501,optionRight,30,15725,7,24,0,24,0,1,,,,,,,,,,,,,,,,,,,,,,,,,,,,,,,,,,,,,,,
,,,,,,,,2023-08-16_08h37.26.435,HF_wild_card,2022.2.4,Win32,60.07810153,5ca48653ed23650001328d9d,64d2fd46c836a06233681665,64dc7c953314e6750d2ae994,,,,,,,ctch,resources/DG.BMP,resources/DB.BMP,Door3,-0.228703704,-0.003703704,1,0,0,1.6796,optionLeft,70,15795,7,25,0,25,0,1,,,,,,,,,,,,,,,,,,,,,,,,,,,,,,,,,,,,,,,
,,,,,,,,2023-08-16_08h37.26.435,HF_wild_card,2022.2.4,Win32,60.07810153,5ca48653ed23650001328d9d,64d2fd46c836a06233681665,64dc7c953314e6750d2ae994,,,,,,,ctch,resources/DG.BMP,resources/DB.BMP,Door3,-0.164814815,-0.025,1,0,0,0.7652,optionLeft,70,15865,7,26,0,26,0,1,,,,,,,,,,,,,,,,,,,,,,,,,,,,,,,,,,,,,,,
,,,,,,,,2023-08-16_08h37.26.435,HF_wild_card,2022.2.4,Win32,60.07810153,5ca48653ed23650001328d9d,64d2fd46c836a06233681665,64dc7c953314e6750d2ae994,,,,,,,decisionTrl,resources/DB.BMP,resources/DBN.BMP,Door1,0.102777778,0.013888889,1,0,0,1.0649,optionRight,30,15895,7,27,0,27,0,1,,,,,,,,,,,,,,,,,,,,,,,,,,,,,,,,,,,,,,,
,,,,,,,,2023-08-16_08h37.26.435,HF_wild_card,2022.2.4,Win32,60.07810153,5ca48653ed23650001328d9d,64d2fd46c836a06233681665,64dc7c953314e6750d2ae994,,,,,,,decisionTrl,resources/DY.BMP,resources/DG.BMP,Door4,-0.167592593,-0.026851852,1,0,0,0.6325,optionLeft,60,15955,7,28,0,28,0,1,,,,,,,,,,,,,,,,,,,,,,,,,,,,,,,,,,,,,,,
,,,,,,,,2023-08-16_08h37.26.435,HF_wild_card,2022.2.4,Win32,60.07810153,5ca48653ed23650001328d9d,64d2fd46c836a06233681665,64dc7c953314e6750d2ae994,,,,,,,ctch,resources/DY.BMP,resources/DBN.BMP,Door4,-0.174074074,-0.028703704,1,0,0,0.7146,optionLeft,80,16035,7,29,0,29,0,1,,,,,,,,,,,,,,,,,,,,,,,,,,,,,,,,,,,,,,,
,,,,,,,,2023-08-16_08h37.26.435,HF_wild_card,2022.2.4,Win32,60.07810153,5ca48653ed23650001328d9d,64d2fd46c836a06233681665,64dc7c953314e6750d2ae994,,,,,,,decisionTrl,resources/DB.BMP,resources/DBN.BMP,Door1,0.175925926,0,1,0,0,0.9826,optionRight,30,16065,7,30,0,30,0,1,,,,,,,,,,,,,,,,,,,,,,,,,,,,,,,,,,,,,,,
,,,,,,,,2023-08-16_08h37.26.435,HF_wild_card,2022.2.4,Win32,60.07810153,5ca48653ed23650001328d9d,64d2fd46c836a06233681665,64dc7c953314e6750d2ae994,,,,,,,ctch,resources/DY.BMP,resources/DBN.BMP,Door4,-0.207407407,-0.026851852,1,0,0,0.5967,optionLeft,60,16125,7,31,0,31,0,1,,,,,,,,,,,,,,,,,,,,,,,,,,,,,,,,,,,,,,,
,,,,,,,,2023-08-16_08h37.26.435,HF_wild_card,2022.2.4,Win32,60.07810153,5ca48653ed23650001328d9d,64d2fd46c836a06233681665,64dc7c953314e6750d2ae994,,,,,,,decisionTrl,resources/DY.BMP,resources/DG.BMP,Door4,-0.127777778,0.007407407,1,0,0,0.5815,optionLeft,60,16185,7,32,0,32,0,1,,,,,,,,,,,,,,,,,,,,,,,,,,,,,,,,,,,,,,,
,,,,,,,,2023-08-16_08h37.26.435,HF_wild_card,2022.2.4,Win32,60.07810153,5ca48653ed23650001328d9d,64d2fd46c836a06233681665,64dc7c953314e6750d2ae994,,,,,,,decisionTrl,resources/DG.BMP,resources/DY.BMP,Door4,0.148148148,0.023148148,1,0,0,0.6488,optionRight,80,16265,7,33,0,33,0,1,,,,,,,,,,,,,,,,,,,,,,,,,,,,,,,,,,,,,,,
,,,,,,,,2023-08-16_08h37.26.435,HF_wild_card,2022.2.4,Win32,60.07810153,5ca48653ed23650001328d9d,64d2fd46c836a06233681665,64dc7c953314e6750d2ae994,,,,,,,ctch,resources/DBN.BMP,resources/DY.BMP,Door4,0.111111111,0.014814815,1,0,0,0.6324,optionRight,80,16345,7,34,0,34,0,1,,,,,,,,,,,,,,,,,,,,,,,,,,,,,,,,,,,,,,,
,,,,,,,,2023-08-16_08h37.26.435,HF_wild_card,2022.2.4,Win32,60.07810153,5ca48653ed23650001328d9d,64d2fd46c836a06233681665,64dc7c953314e6750d2ae994,,,,,,,decisionTrl,resources/DY.BMP,resources/DG.BMP,Door4,-0.235185185,-0.002777778,1,0,0,0.5829,optionLeft,80,16425,7,35,0,35,0,1,,,,,,,,,,,,,,,,,,,,,,,,,,,,,,,,,,,,,,,
,,,,,,,,2023-08-16_08h37.26.435,HF_wild_card,2022.2.4,Win32,60.07810153,5ca48653ed23650001328d9d,64d2fd46c836a06233681665,64dc7c953314e6750d2ae994,,,,,,,,,,,,,,,,,,,,,,,,,,6,0,6,0,1,,,,,,,,,,,,,,,,,,,,,,,,,,,,,,,,,,
,,,,,,,,2023-08-16_08h37.26.435,HF_wild_card,2022.2.4,Win32,60.07810153,5ca48653ed23650001328d9d,64d2fd46c836a06233681665,64dc7c953314e6750d2ae994,,,,,,,,,,,,,,,,,,,,,,,,,,,,,,,4,,,,,,,,,,,,,,,,,,,,,,,,,,,,,,,,,
,,,,,,,,2023-08-16_08h37.26.435,HF_wild_card,2022.2.4,Win32,60.07810153,5ca48653ed23650001328d9d,64d2fd46c836a06233681665,64dc7c953314e6750d2ae994,,,,,,,,,,,,,,,,,,,,,,,,,,,,,,,,,,,,,,,,,,,,,,,,,,,,,,,,,,,,,,,,
,,,,,,,,2023-08-16_08h37.26.435,HF_wild_card,2022.2.4,Win32,60.07810153,5ca48653ed23650001328d9d,64d2fd46c836a06233681665,64dc7c953314e6750d2ae994,,,,,,,,,,,,,,,,,,,,,,,,,,,,,,,,30,Door1,resources/DBN.BMP,0,0,0,0,1,,,,,,,,,,,,,,,,,,,,,,,,,
,,,,,,,,2023-08-16_08h37.26.435,HF_wild_card,2022.2.4,Win32,60.07810153,5ca48653ed23650001328d9d,64d2fd46c836a06233681665,64dc7c953314e6750d2ae994,,,,,,,,,,,,,,,,,,,,,,,,,,,,,,,,80,Door4,resources/DY.BMP,1,0,1,0,1,,,,,,,,,,,,,,,,,,,,,,,,,
,,,,,,,,2023-08-16_08h37.26.435,HF_wild_card,2022.2.4,Win32,60.07810153,5ca48653ed23650001328d9d,64d2fd46c836a06233681665,64dc7c953314e6750d2ae994,,,,,,,,,,,,,,,,,,,,,,,,,,,,,,,,5,WC_extreme,resources/DR.BMP,2,0,2,0,1,,,,,,,,,,,,,,,,,,,,,,,,,
,,,,,,,,2023-08-16_08h37.26.435,HF_wild_card,2022.2.4,Win32,60.07810153,5ca48653ed23650001328d9d,64d2fd46c836a06233681665,64dc7c953314e6750d2ae994,,,,,,,,,,,,,,,,,,,,,,,,,,,,,,,,20,Door2,resources/DB.BMP,3,0,3,0,1,,,,,,,,,,,,,,,,,,,,,,,,,
,,,,,,,,2023-08-16_08h37.26.435,HF_wild_card,2022.2.4,Win32,60.07810153,5ca48653ed23650001328d9d,64d2fd46c836a06233681665,64dc7c953314e6750d2ae994,,,,,,,,,,,,,,,,,,,,,,,,,,,,,,,,45,WC_nonExtreme,resources/DP.BMP,4,0,4,0,1,,,,,,,,,,,,,,,,,,,,,,,,,
,,,,,,,,2023-08-16_08h37.26.435,HF_wild_card,2022.2.4,Win32,60.07810153,5ca48653ed23650001328d9d,64d2fd46c836a06233681665,64dc7c953314e6750d2ae994,,,,,,,,,,,,,,,,,,,,,,,,,,,,,,,,60,Door3,resources/DG.BMP,5,0,5,0,1,,,,,,,,,,,,,,,,,,,,,,,,,
,,,,,,,,2023-08-16_08h37.26.435,HF_wild_card,2022.2.4,Win32,60.07810153,5ca48653ed23650001328d9d,64d2fd46c836a06233681665,64dc7c953314e6750d2ae994,,,,,,,,,,,,,,,,,,,,,,,,,,,,,,,,,,,,,,,,,,,,,,,,,,,,,,,,,,,,,,,,
,,,,,,,,2023-08-16_08h37.26.435,HF_wild_card,2022.2.4,Win32,60.07810153,5ca48653ed23650001328d9d,64d2fd46c836a06233681665,64dc7c953314e6750d2ae994,,,,,,,,,,,,,,,,,,,,,,,,,,,,,,,,,,,,,,,,0,0,0,0,1,,,,,,,,,,,,,,,,,,,,
