Condition,Low fixed image (Door1),Low risky image (Door2),High fixed image (Door3),High risky image (Door4),Extreme Wild Card,NonExtreme Wild Card,,date,expName,psychopyVersion,OS,frameRate,PROLIFIC_PID,STUDY_ID,SESSION_ID,mouse_2.x,mouse_2.y,mouse_2.leftButton,mouse_2.midButton,mouse_2.rightButton,mouse_2.clicked_name,Trial Type,Left Option Image,Right Option Image,Chosen Door,mouse.x,mouse.y,mouse.leftButton,mouse.midButton,mouse.rightButton,mouse.time,mouse.clicked_name,Feedback,Cumulative Reward,Block,trial.thisRepN,trial.thisTrialN,trial.thisN,trial.thisIndex,trial.ran,blocks.thisRepN,blocks.thisTrialN,blocks.thisN,blocks.thisIndex,blocks.ran,Money conversion,First Outcome Reported,Shown Door (First Outcome),Displayed Image (First Outcome),outcomes.thisRepN,outcomes.thisTrialN,outcomes.thisN,outcomes.thisIndex,outcomes.ran,judgments.thisRepN,judgments.thisTrialN,judgments.thisN,judgments.thisIndex,judgments.ran,freqMouse.x,freqMouse.y,freqMouse.leftButton,freqMouse.midButton,freqMouse.rightButton,freqMouse.clicked_name,FQJ for first outcome,FQJ for second outcome,Shown Door,Displayed Image,trials.thisRepN,trials.thisTrialN,trials.thisN,trials.thisIndex,trials.ran,judgBlock.thisRepN,judgBlock.thisTrialN,judgBlock.thisN,judgBlock.thisIndex,judgBlock.ran
0,resources/DY.BMP,resources/DB.BMP,resources/DBN.BMP,resources/DP.BMP,resources/DG.BMP,resources/DR.BMP,,2023-08-16_08h31.56.122,HF_wild_card,2022.2.4,MacIntel,55.55555556,5f50d2ed14987325962c64dc,64d2fd46c836a06233681665,64dc7b57c943422f0853d2c3,,,,,,,,,,,,,,,,,,,,,,,,,,,,,,,,,,,,,,,,,,,,,,,,,,,,,,,,,,,,,,,,
,,,,,,,,2023-08-16_08h31.56.122,HF_wild_card,2022.2.4,MacIntel,55.55555556,5f50d2ed14987325962c64dc,64d2fd46c836a06233681665,64dc7b57c943422f0853d2c3,-0.017985612,-0.411270983,1,0,0,agree,,,,,,,,,,,,,,,,,,,,,,,,,,,,,,,,,,,,,,,,,,,,,,,,,,,,,,,,,,
,,,,,,,,2023-08-16_08h31.56.122,HF_wild_card,2022.2.4,MacIntel,55.55555556,5f50d2ed14987325962c64dc,64d2fd46c836a06233681665,64dc7b57c943422f0853d2c3,,,,,,,,,,,,,,,,,,,,,,,,,,,,,,,,,,,,,,,,,,,,,,,,,,,,,,,,,,,,,,,,
,,,,,,,,2023-08-16_08h31.56.122,HF_wild_card,2022.2.4,MacIntel,55.55555556,5f50d2ed14987325962c64dc,64d2fd46c836a06233681665,64dc7b57c943422f0853d2c3,,,,,,,decisionTrl,resources/DBN.BMP,resources/DP.BMP,Door3,-0.242206235,-0.121103118,1,0,0,3.956,optionLeft,70,70,1,0,0,0,0,1,,,,,,,,,,,,,,,,,,,,,,,,,,,,,,,,,,,,,,,
,,,,,,,,2023-08-16_08h31.56.122,HF_wild_card,2022.2.4,MacIntel,55.55555556,5f50d2ed14987325962c64dc,64d2fd46c836a06233681665,64dc7b57c943422f0853d2c3,,,,,,,sngl,resources/DP.BMP,resources/Empty.png,Door4,0.354916067,-0.106714628,1,0,0,2.012,optionLeft,80,150,1,1,0,1,0,1,,,,,,,,,,,,,,,,,,,,,,,,,,,,,,,,,,,,,,,
,,,,,,,,2023-08-16_08h31.56.122,HF_wild_card,2022.2.4,MacIntel,55.55555556,5f50d2ed14987325962c64dc,64d2fd46c836a06233681665,64dc7b57c943422f0853d2c3,,,,,,,decisionTrl,resources/DY.BMP,resources/DB.BMP,Door1,-0.25059952,-0.085131894,1,0,0,2.362,optionLeft,30,180,1,2,0,2,0,1,,,,,,,,,,,,,,,,,,,,,,,,,,,,,,,,,,,,,,,
,,,,,,,,2023-08-16_08h31.56.122,HF_wild_card,2022.2.4,MacIntel,55.55555556,5f50d2ed14987325962c64dc,64d2fd46c836a06233681665,64dc7b57c943422f0853d2c3,,,,,,,ctch,resources/DP.BMP,resources/DY.BMP,Door4,-0.217026379,-0.107913669,1,0,0,1.413,optionLeft,80,260,1,3,0,3,0,1,,,,,,,,,,,,,,,,,,,,,,,,,,,,,,,,,,,,,,,
,,,,,,,,2023-08-16_08h31.56.122,HF_wild_card,2022.2.4,MacIntel,55.55555556,5f50d2ed14987325962c64dc,64d2fd46c836a06233681665,64dc7b57c943422f0853d2c3,,,,,,,ctch,resources/DBN.BMP,resources/DB.BMP,Door2,0.46882494,0.019184652,1,0,0,2.495,optionRight,40,300,1,4,0,4,0,1,,,,,,,,,,,,,,,,,,,,,,,,,,,,,,,,,,,,,,,
,,,,,,,,2023-08-16_08h31.56.122,HF_wild_card,2022.2.4,MacIntel,55.55555556,5f50d2ed14987325962c64dc,64d2fd46c836a06233681665,64dc7b57c943422f0853d2c3,,,,,,,decisionTrl,resources/DBN.BMP,resources/DP.BMP,Door3,-0.272182254,-0.059952038,1,0,0,1.32,optionLeft,70,370,1,5,0,5,0,1,,,,,,,,,,,,,,,,,,,,,,,,,,,,,,,,,,,,,,,
,,,,,,,,2023-08-16_08h31.56.122,HF_wild_card,2022.2.4,MacIntel,55.55555556,5f50d2ed14987325962c64dc,64d2fd46c836a06233681665,64dc7b57c943422f0853d2c3,,,,,,,ctch,resources/DY.BMP,resources/DP.BMP,Door4,0.368105516,0.003597122,1,0,0,0.83,optionRight,60,430,1,6,0,6,0,1,,,,,,,,,,,,,,,,,,,,,,,,,,,,,,,,,,,,,,,
,,,,,,,,2023-08-16_08h31.56.122,HF_wild_card,2022.2.4,MacIntel,55.55555556,5f50d2ed14987325962c64dc,64d2fd46c836a06233681665,64dc7b57c943422f0853d2c3,,,,,,,sngl,resources/Empty.png,resources/DG.BMP,WildCard_Ex,0.402877698,-0.011990408,1,0,0,0.789,optionRight,95,525,1,7,0,7,0,1,,,,,,,,,,,,,,,,,,,,,,,,,,,,,,,,,,,,,,,
,,,,,,,,2023-08-16_08h31.56.122,HF_wild_card,2022.2.4,MacIntel,55.55555556,5f50d2ed14987325962c64dc,64d2fd46c836a06233681665,64dc7b57c943422f0853d2c3,,,,,,,decisionTrl,resources/DY.BMP,resources/DB.BMP,Door2,0.37529976,-0.041966427,1,0,0,2.948,optionRight,40,565,1,8,0,8,0,1,,,,,,,,,,,,,,,,,,,,,,,,,,,,,,,,,,,,,,,
,,,,,,,,2023-08-16_08h31.56.122,HF_wild_card,2022.2.4,MacIntel,55.55555556,5f50d2ed14987325962c64dc,64d2fd46c836a06233681665,64dc7b57c943422f0853d2c3,,,,,,,decisionTrl,resources/DG.BMP,resources/DP.BMP,WildCard_Ex,-0.310551559,-0.063549161,1,0,0,1.825,optionLeft,95,660,1,9,0,9,0,1,,,,,,,,,,,,,,,,,,,,,,,,,,,,,,,,,,,,,,,
,,,,,,,,2023-08-16_08h31.56.122,HF_wild_card,2022.2.4,MacIntel,55.55555556,5f50d2ed14987325962c64dc,64d2fd46c836a06233681665,64dc7b57c943422f0853d2c3,,,,,,,decisionTrl,resources/DP.BMP,resources/DBN.BMP,Door4,-0.262589928,-0.023980815,1,0,0,1.764,optionLeft,60,720,1,10,0,10,0,1,,,,,,,,,,,,,,,,,,,,,,,,,,,,,,,,,,,,,,,
,,,,,,,,2023-08-16_08h31.56.122,HF_wild_card,2022.2.4,MacIntel,55.55555556,5f50d2ed14987325962c64dc,64d2fd46c836a06233681665,64dc7b57c943422f0853d2c3,,,,,,,decisionTrl,resources/DB.BMP,resources/DY.BMP,Door2,-0.387290168,-0.010791367,1,0,0,2.332,optionLeft,40,760,1,11,0,11,0,1,,,,,,,,,,,,,,,,,,,,,,,,,,,,,,,,,,,,,,,
,,,,,,,,2023-08-16_08h31.56.122,HF_wild_card,2022.2.4,MacIntel,55.55555556,5f50d2ed14987325962c64dc,64d2fd46c836a06233681665,64dc7b57c943422f0853d2c3,,,,,,,decisionTrl,resources/DG.BMP,resources/DY.BMP,WildCard_Ex,-0.310551559,-0.008393285,1,0,0,1.028,optionLeft,5,765,1,12,0,12,0,1,,,,,,,,,,,,,,,,,,,,,,,,,,,,,,,,,,,,,,,
,,,,,,,,2023-08-16_08h31.56.122,HF_wild_card,2022.2.4,MacIntel,55.55555556,5f50d2ed14987325962c64dc,64d2fd46c836a06233681665,64dc7b57c943422f0853d2c3,,,,,,,decisionTrl,resources/DBN.BMP,resources/DP.BMP,Door4,0.410071942,0.064748201,1,0,0,2.537,optionRight,60,825,1,13,0,13,0,1,,,,,,,,,,,,,,,,,,,,,,,,,,,,,,,,,,,,,,,
,,,,,,,,2023-08-16_08h31.56.122,HF_wild_card,2022.2.4,MacIntel,55.55555556,5f50d2ed14987325962c64dc,64d2fd46c836a06233681665,64dc7b57c943422f0853d2c3,,,,,,,decisionTrl,resources/DP.BMP,resources/DBN.BMP,Door4,-0.262589928,-0.135491607,1,0,0,2.348,optionLeft,80,905,1,14,0,14,0,1,,,,,,,,,,,,,,,,,,,,,,,,,,,,,,,,,,,,,,,
,,,,,,,,2023-08-16_08h31.56.122,HF_wild_card,2022.2.4,MacIntel,55.55555556,5f50d2ed14987325962c64dc,64d2fd46c836a06233681665,64dc7b57c943422f0853d2c3,,,,,,,sngl,resources/Empty.png,resources/DB.BMP,Door2,0.413669065,0.118705036,1,0,0,0.899,optionRight,20,925,1,15,0,15,0,1,,,,,,,,,,,,,,,,,,,,,,,,,,,,,,,,,,,,,,,
,,,,,,,,2023-08-16_08h31.56.122,HF_wild_card,2022.2.4,MacIntel,55.55555556,5f50d2ed14987325962c64dc,64d2fd46c836a06233681665,64dc7b57c943422f0853d2c3,,,,,,,sngl,resources/Empty.png,resources/DBN.BMP,Door3,0.404076739,0.152278177,1,0,0,0.72,optionRight,70,995,1,16,0,16,0,1,,,,,,,,,,,,,,,,,,,,,,,,,,,,,,,,,,,,,,,
,,,,,,,,2023-08-16_08h31.56.122,HF_wild_card,2022.2.4,MacIntel,55.55555556,5f50d2ed14987325962c64dc,64d2fd46c836a06233681665,64dc7b57c943422f0853d2c3,,,,,,,decisionTrl,resources/DP.BMP,resources/DG.BMP,Door4,-0.284172662,-0.160671463,1,0,0,1.205,optionLeft,80,1075,1,17,0,17,0,1,,,,,,,,,,,,,,,,,,,,,,,,,,,,,,,,,,,,,,,
,,,,,,,,2023-08-16_08h31.56.122,HF_wild_card,2022.2.4,MacIntel,55.55555556,5f50d2ed14987325962c64dc,64d2fd46c836a06233681665,64dc7b57c943422f0853d2c3,,,,,,,decisionTrl,resources/DP.BMP,resources/DBN.BMP,Door4,-0.245803357,-0.139088729,1,0,0,2.193,optionLeft,80,1155,1,18,0,18,0,1,,,,,,,,,,,,,,,,,,,,,,,,,,,,,,,,,,,,,,,
,,,,,,,,2023-08-16_08h31.56.122,HF_wild_card,2022.2.4,MacIntel,55.55555556,5f50d2ed14987325962c64dc,64d2fd46c836a06233681665,64dc7b57c943422f0853d2c3,,,,,,,decisionTrl,resources/DP.BMP,resources/DBN.BMP,Door4,-0.303357314,-0.010791367,1,0,0,1.192,optionLeft,80,1235,1,19,0,19,0,1,,,,,,,,,,,,,,,,,,,,,,,,,,,,,,,,,,,,,,,
,,,,,,,,2023-08-16_08h31.56.122,HF_wild_card,2022.2.4,MacIntel,55.55555556,5f50d2ed14987325962c64dc,64d2fd46c836a06233681665,64dc7b57c943422f0853d2c3,,,,,,,decisionTrl,resources/DY.BMP,resources/DG.BMP,WildCard_Ex,0.460431655,0.051558753,1,0,0,1.491,optionRight,95,1330,1,20,0,20,0,1,,,,,,,,,,,,,,,,,,,,,,,,,,,,,,,,,,,,,,,
,,,,,,,,2023-08-16_08h31.56.122,HF_wild_card,2022.2.4,MacIntel,55.55555556,5f50d2ed14987325962c64dc,64d2fd46c836a06233681665,64dc7b57c943422f0853d2c3,,,,,,,sngl,resources/DB.BMP,resources/Empty.png,Door2,-0.164268585,-0.121103118,1,0,0,0.765,optionLeft,40,1370,1,21,0,21,0,1,,,,,,,,,,,,,,,,,,,,,,,,,,,,,,,,,,,,,,,
,,,,,,,,2023-08-16_08h31.56.122,HF_wild_card,2022.2.4,MacIntel,55.55555556,5f50d2ed14987325962c64dc,64d2fd46c836a06233681665,64dc7b57c943422f0853d2c3,,,,,,,sngl,resources/DY.BMP,resources/Empty.png,Door1,-0.149880096,-0.134292566,1,0,0,0.684,optionLeft,30,1400,1,22,0,22,0,1,,,,,,,,,,,,,,,,,,,,,,,,,,,,,,,,,,,,,,,
,,,,,,,,2023-08-16_08h31.56.122,HF_wild_card,2022.2.4,MacIntel,55.55555556,5f50d2ed14987325962c64dc,64d2fd46c836a06233681665,64dc7b57c943422f0853d2c3,,,,,,,sngl,resources/DG.BMP,resources/Empty.png,WildCard_Ex,-0.288968825,-0.145083933,1,0,0,1.048,optionLeft,95,1495,1,23,0,23,0,1,,,,,,,,,,,,,,,,,,,,,,,,,,,,,,,,,,,,,,,
,,,,,,,,2023-08-16_08h31.56.122,HF_wild_card,2022.2.4,MacIntel,55.55555556,5f50d2ed14987325962c64dc,64d2fd46c836a06233681665,64dc7b57c943422f0853d2c3,,,,,,,decisionTrl,resources/DBN.BMP,resources/DP.BMP,Door4,0.368105516,0.010791367,1,0,0,0.796,optionRight,60,1555,1,24,0,24,0,1,,,,,,,,,,,,,,,,,,,,,,,,,,,,,,,,,,,,,,,
,,,,,,,,2023-08-16_08h31.56.122,HF_wild_card,2022.2.4,MacIntel,55.55555556,5f50d2ed14987325962c64dc,64d2fd46c836a06233681665,64dc7b57c943422f0853d2c3,,,,,,,decisionTrl,resources/DB.BMP,resources/DY.BMP,Door1,0.425659472,0.055155875,1,0,0,1.362,optionRight,30,1585,1,25,0,25,0,1,,,,,,,,,,,,,,,,,,,,,,,,,,,,,,,,,,,,,,,
,,,,,,,,2023-08-16_08h31.56.122,HF_wild_card,2022.2.4,MacIntel,55.55555556,5f50d2ed14987325962c64dc,64d2fd46c836a06233681665,64dc7b57c943422f0853d2c3,,,,,,,ctch,resources/DY.BMP,resources/DP.BMP,Door4,0.366906475,0.034772182,1,0,0,0.694,optionRight,60,1645,1,26,0,26,0,1,,,,,,,,,,,,,,,,,,,,,,,,,,,,,,,,,,,,,,,
,,,,,,,,2023-08-16_08h31.56.122,HF_wild_card,2022.2.4,MacIntel,55.55555556,5f50d2ed14987325962c64dc,64d2fd46c836a06233681665,64dc7b57c943422f0853d2c3,,,,,,,decisionTrl,resources/DG.BMP,resources/DBN.BMP,Door3,0.362110312,0.032374101,1,0,0,0.813,optionRight,70,1715,1,27,0,27,0,1,,,,,,,,,,,,,,,,,,,,,,,,,,,,,,,,,,,,,,,
,,,,,,,,2023-08-16_08h31.56.122,HF_wild_card,2022.2.4,MacIntel,55.55555556,5f50d2ed14987325962c64dc,64d2fd46c836a06233681665,64dc7b57c943422f0853d2c3,,,,,,,ctch,resources/DP.BMP,resources/DY.BMP,Door4,-0.238609113,-0.183453237,1,0,0,0.757,optionLeft,60,1775,1,28,0,28,0,1,,,,,,,,,,,,,,,,,,,,,,,,,,,,,,,,,,,,,,,
,,,,,,,,2023-08-16_08h31.56.122,HF_wild_card,2022.2.4,MacIntel,55.55555556,5f50d2ed14987325962c64dc,64d2fd46c836a06233681665,64dc7b57c943422f0853d2c3,,,,,,,decisionTrl,resources/DB.BMP,resources/DY.BMP,Door2,-0.238609113,-0.117505995,1,0,0,1.095,optionLeft,20,1795,1,29,0,29,0,1,,,,,,,,,,,,,,,,,,,,,,,,,,,,,,,,,,,,,,,
,,,,,,,,2023-08-16_08h31.56.122,HF_wild_card,2022.2.4,MacIntel,55.55555556,5f50d2ed14987325962c64dc,64d2fd46c836a06233681665,64dc7b57c943422f0853d2c3,,,,,,,sngl,resources/DBN.BMP,resources/Empty.png,Door3,-0.236211031,-0.165467626,1,0,0,0.684,optionLeft,70,1865,1,30,0,30,0,1,,,,,,,,,,,,,,,,,,,,,,,,,,,,,,,,,,,,,,,
,,,,,,,,2023-08-16_08h31.56.122,HF_wild_card,2022.2.4,MacIntel,55.55555556,5f50d2ed14987325962c64dc,64d2fd46c836a06233681665,64dc7b57c943422f0853d2c3,,,,,,,decisionTrl,resources/DBN.BMP,resources/DG.BMP,WildCard_Ex,0.401678657,-0.035971223,1,0,0,3.606,optionRight,5,1870,1,31,0,31,0,1,,,,,,,,,,,,,,,,,,,,,,,,,,,,,,,,,,,,,,,
,,,,,,,,2023-08-16_08h31.56.122,HF_wild_card,2022.2.4,MacIntel,55.55555556,5f50d2ed14987325962c64dc,64d2fd46c836a06233681665,64dc7b57c943422f0853d2c3,,,,,,,ctch,resources/DB.BMP,resources/DBN.BMP,Door3,0.405275779,0.007194245,1,0,0,0.75,optionRight,70,1940,1,32,0,32,0,1,,,,,,,,,,,,,,,,,,,,,,,,,,,,,,,,,,,,,,,
,,,,,,,,2023-08-16_08h31.56.122,HF_wild_card,2022.2.4,MacIntel,55.55555556,5f50d2ed14987325962c64dc,64d2fd46c836a06233681665,64dc7b57c943422f0853d2c3,,,,,,,sngl,resources/Empty.png,resources/DY.BMP,Door1,0.368105516,0.029976019,1,0,0,1.153,optionRight,30,1970,1,33,0,33,0,1,,,,,,,,,,,,,,,,,,,,,,,,,,,,,,,,,,,,,,,
,,,,,,,,2023-08-16_08h31.56.122,HF_wild_card,2022.2.4,MacIntel,55.55555556,5f50d2ed14987325962c64dc,64d2fd46c836a06233681665,64dc7b57c943422f0853d2c3,,,,,,,decisionTrl,resources/DY.BMP,resources/DB.BMP,Door1,-0.383693046,0.028776978,1,0,0,1.238,optionLeft,30,2000,1,34,0,34,0,1,,,,,,,,,,,,,,,,,,,,,,,,,,,,,,,,,,,,,,,
,,,,,,,,2023-08-16_08h31.56.122,HF_wild_card,2022.2.4,MacIntel,55.55555556,5f50d2ed14987325962c64dc,64d2fd46c836a06233681665,64dc7b57c943422f0853d2c3,,,,,,,ctch,resources/DBN.BMP,resources/DB.BMP,Door3,-0.419664269,-0.001199041,1,0,0,0.748,optionLeft,70,2070,1,35,0,35,0,1,,,,,,,,,,,,,,,,,,,,,,,,,,,,,,,,,,,,,,,
,,,,,,,,2023-08-16_08h31.56.122,HF_wild_card,2022.2.4,MacIntel,55.55555556,5f50d2ed14987325962c64dc,64d2fd46c836a06233681665,64dc7b57c943422f0853d2c3,,,,,,,sngl,resources/Empty.png,resources/DG.BMP,WildCard_Ex,0.436450839,0.076738609,1,0,0,0.615,optionRight,5,2075,1,36,0,36,0,1,,,,,,,,,,,,,,,,,,,,,,,,,,,,,,,,,,,,,,,
,,,,,,,,2023-08-16_08h31.56.122,HF_wild_card,2022.2.4,MacIntel,55.55555556,5f50d2ed14987325962c64dc,64d2fd46c836a06233681665,64dc7b57c943422f0853d2c3,,,,,,,decisionTrl,resources/DY.BMP,resources/DB.BMP,Door2,0.372901679,0.063549161,1,0,0,2.201,optionRight,20,2095,1,37,0,37,0,1,,,,,,,,,,,,,,,,,,,,,,,,,,,,,,,,,,,,,,,
,,,,,,,,2023-08-16_08h31.56.122,HF_wild_card,2022.2.4,MacIntel,55.55555556,5f50d2ed14987325962c64dc,64d2fd46c836a06233681665,64dc7b57c943422f0853d2c3,,,,,,,decisionTrl,resources/DB.BMP,resources/DG.BMP,Door2,-0.387290168,0.01558753,1,0,0,1.848,optionLeft,40,2135,1,38,0,38,0,1,,,,,,,,,,,,,,,,,,,,,,,,,,,,,,,,,,,,,,,
,,,,,,,,2023-08-16_08h31.56.122,HF_wild_card,2022.2.4,MacIntel,55.55555556,5f50d2ed14987325962c64dc,64d2fd46c836a06233681665,64dc7b57c943422f0853d2c3,,,,,,,sngl,resources/Empty.png,resources/DP.BMP,Door4,0.392086331,0.052757794,1,0,0,0.626,optionRight,60,2195,1,39,0,39,0,1,,,,,,,,,,,,,,,,,,,,,,,,,,,,,,,,,,,,,,,
,,,,,,,,2023-08-16_08h31.56.122,HF_wild_card,2022.2.4,MacIntel,55.55555556,5f50d2ed14987325962c64dc,64d2fd46c836a06233681665,64dc7b57c943422f0853d2c3,,,,,,,decisionTrl,resources/DG.BMP,resources/DB.BMP,WildCard_Ex,-0.383693046,-0.002398082,1,0,0,0.533,optionLeft,95,2290,1,40,0,40,0,1,,,,,,,,,,,,,,,,,,,,,,,,,,,,,,,,,,,,,,,
,,,,,,,,2023-08-16_08h31.56.122,HF_wild_card,2022.2.4,MacIntel,55.55555556,5f50d2ed14987325962c64dc,64d2fd46c836a06233681665,64dc7b57c943422f0853d2c3,,,,,,,decisionTrl,resources/DB.BMP,resources/DY.BMP,Door2,-0.384892086,0.007194245,1,0,0,2.244,optionLeft,40,2330,1,41,0,41,0,1,,,,,,,,,,,,,,,,,,,,,,,,,,,,,,,,,,,,,,,
,,,,,,,,2023-08-16_08h31.56.122,HF_wild_card,2022.2.4,MacIntel,55.55555556,5f50d2ed14987325962c64dc,64d2fd46c836a06233681665,64dc7b57c943422f0853d2c3,,,,,,,sngl,resources/DG.BMP,resources/Empty.png,WildCard_Ex,-0.402877698,0.029976019,1,0,0,0.704,optionLeft,5,2335,1,42,0,42,0,1,,,,,,,,,,,,,,,,,,,,,,,,,,,,,,,,,,,,,,,
,,,,,,,,2023-08-16_08h31.56.122,HF_wild_card,2022.2.4,MacIntel,55.55555556,5f50d2ed14987325962c64dc,64d2fd46c836a06233681665,64dc7b57c943422f0853d2c3,,,,,,,ctch,resources/DB.BMP,resources/DBN.BMP,Door3,0.363309353,0.028776978,1,0,0,1.08,optionRight,70,2405,1,43,0,43,0,1,,,,,,,,,,,,,,,,,,,,,,,,,,,,,,,,,,,,,,,
,,,,,,,,2023-08-16_08h31.56.122,HF_wild_card,2022.2.4,MacIntel,55.55555556,5f50d2ed14987325962c64dc,64d2fd46c836a06233681665,64dc7b57c943422f0853d2c3,,,,,,,,,,,,,,,,,,,,,,,,,,0,0,0,0,1,,,,,,,,,,,,,,,,,,,,,,,,,,,,,,,,,,
,,,,,,,,2023-08-16_08h31.56.122,HF_wild_card,2022.2.4,MacIntel,55.55555556,5f50d2ed14987325962c64dc,64d2fd46c836a06233681665,64dc7b57c943422f0853d2c3,,,,,,,sngl,resources/DBN.BMP,resources/Empty.png,Door3,-0.420863309,0.127098321,1,0,0,0.957,optionLeft,70,2475,2,0,0,0,0,1,,,,,,,,,,,,,,,,,,,,,,,,,,,,,,,,,,,,,,,
,,,,,,,,2023-08-16_08h31.56.122,HF_wild_card,2022.2.4,MacIntel,55.55555556,5f50d2ed14987325962c64dc,64d2fd46c836a06233681665,64dc7b57c943422f0853d2c3,,,,,,,decisionTrl,resources/DBN.BMP,resources/DP.BMP,Door3,-0.40647482,0.073141487,1,0,0,0.594,optionLeft,70,2545,2,1,0,1,0,1,,,,,,,,,,,,,,,,,,,,,,,,,,,,,,,,,,,,,,,
,,,,,,,,2023-08-16_08h31.56.122,HF_wild_card,2022.2.4,MacIntel,55.55555556,5f50d2ed14987325962c64dc,64d2fd46c836a06233681665,64dc7b57c943422f0853d2c3,,,,,,,sngl,resources/Empty.png,resources/DP.BMP,Door4,0.40647482,0.064748201,1,0,0,0.607,optionRight,80,2625,2,2,0,2,0,1,,,,,,,,,,,,,,,,,,,,,,,,,,,,,,,,,,,,,,,
,,,,,,,,2023-08-16_08h31.56.122,HF_wild_card,2022.2.4,MacIntel,55.55555556,5f50d2ed14987325962c64dc,64d2fd46c836a06233681665,64dc7b57c943422f0853d2c3,,,,,,,decisionTrl,resources/DBN.BMP,resources/DP.BMP,Door3,-0.410071942,0.040767386,1,0,0,0.484,optionLeft,70,2695,2,3,0,3,0,1,,,,,,,,,,,,,,,,,,,,,,,,,,,,,,,,,,,,,,,
,,,,,,,,2023-08-16_08h31.56.122,HF_wild_card,2022.2.4,MacIntel,55.55555556,5f50d2ed14987325962c64dc,64d2fd46c836a06233681665,64dc7b57c943422f0853d2c3,,,,,,,ctch,resources/DP.BMP,resources/DY.BMP,Door1,0.321342926,0.059952038,1,0,0,0.592,optionRight,30,2725,2,4,0,4,0,1,,,,,,,,,,,,,,,,,,,,,,,,,,,,,,,,,,,,,,,
,,,,,,,,2023-08-16_08h31.56.122,HF_wild_card,2022.2.4,MacIntel,55.55555556,5f50d2ed14987325962c64dc,64d2fd46c836a06233681665,64dc7b57c943422f0853d2c3,,,,,,,decisionTrl,resources/DY.BMP,resources/DB.BMP,Door2,0.387290168,0.082733813,1,0,0,1.292,optionRight,40,2765,2,5,0,5,0,1,,,,,,,,,,,,,,,,,,,,,,,,,,,,,,,,,,,,,,,
,,,,,,,,2023-08-16_08h31.56.122,HF_wild_card,2022.2.4,MacIntel,55.55555556,5f50d2ed14987325962c64dc,64d2fd46c836a06233681665,64dc7b57c943422f0853d2c3,,,,,,,ctch,resources/DBN.BMP,resources/DB.BMP,Door3,-0.411270983,-0.008393285,1,0,0,0.619,optionLeft,70,2835,2,6,0,6,0,1,,,,,,,,,,,,,,,,,,,,,,,,,,,,,,,,,,,,,,,
,,,,,,,,2023-08-16_08h31.56.122,HF_wild_card,2022.2.4,MacIntel,55.55555556,5f50d2ed14987325962c64dc,64d2fd46c836a06233681665,64dc7b57c943422f0853d2c3,,,,,,,ctch,resources/DP.BMP,resources/DY.BMP,Door4,-0.432853717,0.003597122,1,0,0,1.059,optionLeft,60,2895,2,7,0,7,0,1,,,,,,,,,,,,,,,,,,,,,,,,,,,,,,,,,,,,,,,
,,,,,,,,2023-08-16_08h31.56.122,HF_wild_card,2022.2.4,MacIntel,55.55555556,5f50d2ed14987325962c64dc,64d2fd46c836a06233681665,64dc7b57c943422f0853d2c3,,,,,,,decisionTrl,resources/DY.BMP,resources/DB.BMP,Door2,0.288968825,0.041966427,1,0,0,0.692,optionRight,40,2935,2,8,0,8,0,1,,,,,,,,,,,,,,,,,,,,,,,,,,,,,,,,,,,,,,,
,,,,,,,,2023-08-16_08h31.56.122,HF_wild_card,2022.2.4,MacIntel,55.55555556,5f50d2ed14987325962c64dc,64d2fd46c836a06233681665,64dc7b57c943422f0853d2c3,,,,,,,sngl,resources/Empty.png,resources/DG.BMP,WildCard_Ex,0.378896882,0.075539568,1,0,0,0.615,optionRight,5,2940,2,9,0,9,0,1,,,,,,,,,,,,,,,,,,,,,,,,,,,,,,,,,,,,,,,
,,,,,,,,2023-08-16_08h31.56.122,HF_wild_card,2022.2.4,MacIntel,55.55555556,5f50d2ed14987325962c64dc,64d2fd46c836a06233681665,64dc7b57c943422f0853d2c3,,,,,,,ctch,resources/DB.BMP,resources/DBN.BMP,Door3,0.411270983,0.063549161,1,0,0,1.664,optionRight,70,3010,2,10,0,10,0,1,,,,,,,,,,,,,,,,,,,,,,,,,,,,,,,,,,,,,,,
,,,,,,,,2023-08-16_08h31.56.122,HF_wild_card,2022.2.4,MacIntel,55.55555556,5f50d2ed14987325962c64dc,64d2fd46c836a06233681665,64dc7b57c943422f0853d2c3,,,,,,,decisionTrl,resources/DP.BMP,resources/DBN.BMP,Door3,0.380095923,0.105515588,1,0,0,0.914,optionRight,70,3080,2,11,0,11,0,1,,,,,,,,,,,,,,,,,,,,,,,,,,,,,,,,,,,,,,,
,,,,,,,,2023-08-16_08h31.56.122,HF_wild_card,2022.2.4,MacIntel,55.55555556,5f50d2ed14987325962c64dc,64d2fd46c836a06233681665,64dc7b57c943422f0853d2c3,,,,,,,sngl,resources/Empty.png,resources/DBN.BMP,Door3,0.419664269,0.123501199,1,0,0,0.577,optionRight,70,3150,2,12,0,12,0,1,,,,,,,,,,,,,,,,,,,,,,,,,,,,,,,,,,,,,,,
,,,,,,,,2023-08-16_08h31.56.122,HF_wild_card,2022.2.4,MacIntel,55.55555556,5f50d2ed14987325962c64dc,64d2fd46c836a06233681665,64dc7b57c943422f0853d2c3,,,,,,,decisionTrl,resources/DBN.BMP,resources/DP.BMP,Door3,-0.430455635,0.057553957,1,0,0,0.775,optionLeft,70,3220,2,13,0,13,0,1,,,,,,,,,,,,,,,,,,,,,,,,,,,,,,,,,,,,,,,
,,,,,,,,2023-08-16_08h31.56.122,HF_wild_card,2022.2.4,MacIntel,55.55555556,5f50d2ed14987325962c64dc,64d2fd46c836a06233681665,64dc7b57c943422f0853d2c3,,,,,,,ctch,resources/DB.BMP,resources/DBN.BMP,Door3,0.405275779,0.115107914,1,0,0,0.653,optionRight,70,3290,2,14,0,14,0,1,,,,,,,,,,,,,,,,,,,,,,,,,,,,,,,,,,,,,,,
,,,,,,,,2023-08-16_08h31.56.122,HF_wild_card,2022.2.4,MacIntel,55.55555556,5f50d2ed14987325962c64dc,64d2fd46c836a06233681665,64dc7b57c943422f0853d2c3,,,,,,,sngl,resources/Empty.png,resources/DY.BMP,Door1,0.407673861,0.049160671,1,0,0,0.723,optionRight,30,3320,2,15,0,15,0,1,,,,,,,,,,,,,,,,,,,,,,,,,,,,,,,,,,,,,,,
,,,,,,,,2023-08-16_08h31.56.122,HF_wild_card,2022.2.4,MacIntel,55.55555556,5f50d2ed14987325962c64dc,64d2fd46c836a06233681665,64dc7b57c943422f0853d2c3,,,,,,,decisionTrl,resources/DB.BMP,resources/DY.BMP,Door2,-0.442446043,0.028776978,1,0,0,0.925,optionLeft,20,3340,2,16,0,16,0,1,,,,,,,,,,,,,,,,,,,,,,,,,,,,,,,,,,,,,,,
,,,,,,,,2023-08-16_08h31.56.122,HF_wild_card,2022.2.4,MacIntel,55.55555556,5f50d2ed14987325962c64dc,64d2fd46c836a06233681665,64dc7b57c943422f0853d2c3,,,,,,,decisionTrl,resources/DY.BMP,resources/DB.BMP,Door1,-0.464028777,0.023980815,1,0,0,0.637,optionLeft,30,3370,2,17,0,17,0,1,,,,,,,,,,,,,,,,,,,,,,,,,,,,,,,,,,,,,,,
,,,,,,,,2023-08-16_08h31.56.122,HF_wild_card,2022.2.4,MacIntel,55.55555556,5f50d2ed14987325962c64dc,64d2fd46c836a06233681665,64dc7b57c943422f0853d2c3,,,,,,,sngl,resources/DP.BMP,resources/Empty.png,Door4,-0.444844125,0.011990408,1,0,0,0.639,optionLeft,60,3430,2,18,0,18,0,1,,,,,,,,,,,,,,,,,,,,,,,,,,,,,,,,,,,,,,,
,,,,,,,,2023-08-16_08h31.56.122,HF_wild_card,2022.2.4,MacIntel,55.55555556,5f50d2ed14987325962c64dc,64d2fd46c836a06233681665,64dc7b57c943422f0853d2c3,,,,,,,decisionTrl,resources/DP.BMP,resources/DBN.BMP,Door4,-0.488009592,0.021582734,1,0,0,0.717,optionLeft,80,3510,2,19,0,19,0,1,,,,,,,,,,,,,,,,,,,,,,,,,,,,,,,,,,,,,,,
,,,,,,,,2023-08-16_08h31.56.122,HF_wild_card,2022.2.4,MacIntel,55.55555556,5f50d2ed14987325962c64dc,64d2fd46c836a06233681665,64dc7b57c943422f0853d2c3,,,,,,,decisionTrl,resources/DP.BMP,resources/DBN.BMP,Door3,0.377697842,0.112709832,1,0,0,0.694,optionRight,70,3580,2,20,0,20,0,1,,,,,,,,,,,,,,,,,,,,,,,,,,,,,,,,,,,,,,,
,,,,,,,,2023-08-16_08h31.56.122,HF_wild_card,2022.2.4,MacIntel,55.55555556,5f50d2ed14987325962c64dc,64d2fd46c836a06233681665,64dc7b57c943422f0853d2c3,,,,,,,decisionTrl,resources/DG.BMP,resources/DB.BMP,WildCard_Ex,-0.494004796,0.045563549,1,0,0,1.312,optionLeft,5,3585,2,21,0,21,0,1,,,,,,,,,,,,,,,,,,,,,,,,,,,,,,,,,,,,,,,
,,,,,,,,2023-08-16_08h31.56.122,HF_wild_card,2022.2.4,MacIntel,55.55555556,5f50d2ed14987325962c64dc,64d2fd46c836a06233681665,64dc7b57c943422f0853d2c3,,,,,,,ctch,resources/DY.BMP,resources/DP.BMP,Door4,0.340527578,0.047961631,1,0,0,1.021,optionRight,60,3645,2,22,0,22,0,1,,,,,,,,,,,,,,,,,,,,,,,,,,,,,,,,,,,,,,,
,,,,,,,,2023-08-16_08h31.56.122,HF_wild_card,2022.2.4,MacIntel,55.55555556,5f50d2ed14987325962c64dc,64d2fd46c836a06233681665,64dc7b57c943422f0853d2c3,,,,,,,decisionTrl,resources/DB.BMP,resources/DY.BMP,Door2,-0.464028777,0.011990408,1,0,0,1.615,optionLeft,40,3685,2,23,0,23,0,1,,,,,,,,,,,,,,,,,,,,,,,,,,,,,,,,,,,,,,,
,,,,,,,,2023-08-16_08h31.56.122,HF_wild_card,2022.2.4,MacIntel,55.55555556,5f50d2ed14987325962c64dc,64d2fd46c836a06233681665,64dc7b57c943422f0853d2c3,,,,,,,decisionTrl,resources/DP.BMP,resources/DG.BMP,WildCard_Ex,0.377697842,0.061151079,1,0,0,1.076,optionRight,5,3690,2,24,0,24,0,1,,,,,,,,,,,,,,,,,,,,,,,,,,,,,,,,,,,,,,,
,,,,,,,,2023-08-16_08h31.56.122,HF_wild_card,2022.2.4,MacIntel,55.55555556,5f50d2ed14987325962c64dc,64d2fd46c836a06233681665,64dc7b57c943422f0853d2c3,,,,,,,decisionTrl,resources/DY.BMP,resources/DG.BMP,Door1,-0.436450839,0.019184652,1,0,0,0.994,optionLeft,30,3720,2,25,0,25,0,1,,,,,,,,,,,,,,,,,,,,,,,,,,,,,,,,,,,,,,,
,,,,,,,,2023-08-16_08h31.56.122,HF_wild_card,2022.2.4,MacIntel,55.55555556,5f50d2ed14987325962c64dc,64d2fd46c836a06233681665,64dc7b57c943422f0853d2c3,,,,,,,decisionTrl,resources/DBN.BMP,resources/DP.BMP,Door3,-0.431654676,0.055155875,1,0,0,1.331,optionLeft,70,3790,2,26,0,26,0,1,,,,,,,,,,,,,,,,,,,,,,,,,,,,,,,,,,,,,,,
,,,,,,,,2023-08-16_08h31.56.122,HF_wild_card,2022.2.4,MacIntel,55.55555556,5f50d2ed14987325962c64dc,64d2fd46c836a06233681665,64dc7b57c943422f0853d2c3,,,,,,,ctch,resources/DBN.BMP,resources/DB.BMP,Door3,-0.401678657,0.029976019,1,0,0,0.618,optionLeft,70,3860,2,27,0,27,0,1,,,,,,,,,,,,,,,,,,,,,,,,,,,,,,,,,,,,,,,
,,,,,,,,2023-08-16_08h31.56.122,HF_wild_card,2022.2.4,MacIntel,55.55555556,5f50d2ed14987325962c64dc,64d2fd46c836a06233681665,64dc7b57c943422f0853d2c3,,,,,,,sngl,resources/DG.BMP,resources/Empty.png,WildCard_Ex,-0.412470024,0.068345324,1,0,0,0.592,optionLeft,95,3955,2,28,0,28,0,1,,,,,,,,,,,,,,,,,,,,,,,,,,,,,,,,,,,,,,,
,,,,,,,,2023-08-16_08h31.56.122,HF_wild_card,2022.2.4,MacIntel,55.55555556,5f50d2ed14987325962c64dc,64d2fd46c836a06233681665,64dc7b57c943422f0853d2c3,,,,,,,decisionTrl,resources/DG.BMP,resources/DBN.BMP,WildCard_Ex,-0.430455635,0.008393285,1,0,0,0.611,optionLeft,5,3960,2,29,0,29,0,1,,,,,,,,,,,,,,,,,,,,,,,,,,,,,,,,,,,,,,,
,,,,,,,,2023-08-16_08h31.56.122,HF_wild_card,2022.2.4,MacIntel,55.55555556,5f50d2ed14987325962c64dc,64d2fd46c836a06233681665,64dc7b57c943422f0853d2c3,,,,,,,decisionTrl,resources/DBN.BMP,resources/DG.BMP,Door3,-0.398081535,0.041966427,1,0,0,0.579,optionLeft,70,4030,2,30,0,30,0,1,,,,,,,,,,,,,,,,,,,,,,,,,,,,,,,,,,,,,,,
,,,,,,,,2023-08-16_08h31.56.122,HF_wild_card,2022.2.4,MacIntel,55.55555556,5f50d2ed14987325962c64dc,64d2fd46c836a06233681665,64dc7b57c943422f0853d2c3,,,,,,,decisionTrl,resources/DB.BMP,resources/DY.BMP,Door1,0.377697842,0.058752998,1,0,0,1.101,optionRight,30,4060,2,31,0,31,0,1,,,,,,,,,,,,,,,,,,,,,,,,,,,,,,,,,,,,,,,
,,,,,,,,2023-08-16_08h31.56.122,HF_wild_card,2022.2.4,MacIntel,55.55555556,5f50d2ed14987325962c64dc,64d2fd46c836a06233681665,64dc7b57c943422f0853d2c3,,,,,,,decisionTrl,resources/DB.BMP,resources/DG.BMP,WildCard_Ex,0.356115108,0.076738609,1,0,0,0.842,optionRight,95,4155,2,32,0,32,0,1,,,,,,,,,,,,,,,,,,,,,,,,,,,,,,,,,,,,,,,
,,,,,,,,2023-08-16_08h31.56.122,HF_wild_card,2022.2.4,MacIntel,55.55555556,5f50d2ed14987325962c64dc,64d2fd46c836a06233681665,64dc7b57c943422f0853d2c3,,,,,,,sngl,resources/Empty.png,resources/DG.BMP,WildCard_Ex,0.407673861,0.094724221,1,0,0,0.56,optionRight,95,4250,2,33,0,33,0,1,,,,,,,,,,,,,,,,,,,,,,,,,,,,,,,,,,,,,,,
,,,,,,,,2023-08-16_08h31.56.122,HF_wild_card,2022.2.4,MacIntel,55.55555556,5f50d2ed14987325962c64dc,64d2fd46c836a06233681665,64dc7b57c943422f0853d2c3,,,,,,,ctch,resources/DY.BMP,resources/DP.BMP,Door1,-0.440047962,0.002398082,1,0,0,0.598,optionLeft,30,4280,2,34,0,34,0,1,,,,,,,,,,,,,,,,,,,,,,,,,,,,,,,,,,,,,,,
,,,,,,,,2023-08-16_08h31.56.122,HF_wild_card,2022.2.4,MacIntel,55.55555556,5f50d2ed14987325962c64dc,64d2fd46c836a06233681665,64dc7b57c943422f0853d2c3,,,,,,,sngl,resources/Empty.png,resources/DB.BMP,Door2,0.435251799,0.026378897,1,0,0,0.559,optionRight,40,4320,2,35,0,35,0,1,,,,,,,,,,,,,,,,,,,,,,,,,,,,,,,,,,,,,,,
,,,,,,,,2023-08-16_08h31.56.122,HF_wild_card,2022.2.4,MacIntel,55.55555556,5f50d2ed14987325962c64dc,64d2fd46c836a06233681665,64dc7b57c943422f0853d2c3,,,,,,,sngl,resources/DB.BMP,resources/Empty.png,Door2,-0.424460432,-0.003597122,1,0,0,0.496,optionLeft,20,4340,2,36,0,36,0,1,,,,,,,,,,,,,,,,,,,,,,,,,,,,,,,,,,,,,,,
,,,,,,,,2023-08-16_08h31.56.122,HF_wild_card,2022.2.4,MacIntel,55.55555556,5f50d2ed14987325962c64dc,64d2fd46c836a06233681665,64dc7b57c943422f0853d2c3,,,,,,,decisionTrl,resources/DY.BMP,resources/DB.BMP,Door2,0.402877698,0.055155875,1,0,0,0.65,optionRight,20,4360,2,37,0,37,0,1,,,,,,,,,,,,,,,,,,,,,,,,,,,,,,,,,,,,,,,
,,,,,,,,2023-08-16_08h31.56.122,HF_wild_card,2022.2.4,MacIntel,55.55555556,5f50d2ed14987325962c64dc,64d2fd46c836a06233681665,64dc7b57c943422f0853d2c3,,,,,,,decisionTrl,resources/DB.BMP,resources/DY.BMP,Door2,-0.442446043,0.007194245,1,0,0,0.552,optionLeft,20,4380,2,38,0,38,0,1,,,,,,,,,,,,,,,,,,,,,,,,,,,,,,,,,,,,,,,
,,,,,,,,2023-08-16_08h31.56.122,HF_wild_card,2022.2.4,MacIntel,55.55555556,5f50d2ed14987325962c64dc,64d2fd46c836a06233681665,64dc7b57c943422f0853d2c3,,,,,,,decisionTrl,resources/DP.BMP,resources/DBN.BMP,Door3,0.351318945,0.003597122,1,0,0,0.831,optionRight,70,4450,2,39,0,39,0,1,,,,,,,,,,,,,,,,,,,,,,,,,,,,,,,,,,,,,,,
,,,,,,,,2023-08-16_08h31.56.122,HF_wild_card,2022.2.4,MacIntel,55.55555556,5f50d2ed14987325962c64dc,64d2fd46c836a06233681665,64dc7b57c943422f0853d2c3,,,,,,,decisionTrl,resources/DG.BMP,resources/DP.BMP,Door4,0.308153477,-0.037170264,1,0,0,0.733,optionRight,60,4510,2,40,0,40,0,1,,,,,,,,,,,,,,,,,,,,,,,,,,,,,,,,,,,,,,,
,,,,,,,,2023-08-16_08h31.56.122,HF_wild_card,2022.2.4,MacIntel,55.55555556,5f50d2ed14987325962c64dc,64d2fd46c836a06233681665,64dc7b57c943422f0853d2c3,,,,,,,sngl,resources/DG.BMP,resources/Empty.png,WildCard_Ex,-0.424460432,0.023980815,1,0,0,0.62,optionLeft,5,4515,2,41,0,41,0,1,,,,,,,,,,,,,,,,,,,,,,,,,,,,,,,,,,,,,,,
,,,,,,,,2023-08-16_08h31.56.122,HF_wild_card,2022.2.4,MacIntel,55.55555556,5f50d2ed14987325962c64dc,64d2fd46c836a06233681665,64dc7b57c943422f0853d2c3,,,,,,,decisionTrl,resources/DG.BMP,resources/DY.BMP,WildCard_Ex,-0.430455635,0.010791367,1,0,0,0.88,optionLeft,95,4610,2,42,0,42,0,1,,,,,,,,,,,,,,,,,,,,,,,,,,,,,,,,,,,,,,,
,,,,,,,,2023-08-16_08h31.56.122,HF_wild_card,2022.2.4,MacIntel,55.55555556,5f50d2ed14987325962c64dc,64d2fd46c836a06233681665,64dc7b57c943422f0853d2c3,,,,,,,sngl,resources/DY.BMP,resources/Empty.png,Door1,-0.428057554,0.017985612,1,0,0,0.553,optionLeft,30,4640,2,43,0,43,0,1,,,,,,,,,,,,,,,,,,,,,,,,,,,,,,,,,,,,,,,
,,,,,,,,2023-08-16_08h31.56.122,HF_wild_card,2022.2.4,MacIntel,55.55555556,5f50d2ed14987325962c64dc,64d2fd46c836a06233681665,64dc7b57c943422f0853d2c3,,,,,,,,,,,,,,,,,,,,,,,,,,1,0,1,0,1,,,,,,,,,,,,,,,,,,,,,,,,,,,,,,,,,,
,,,,,,,,2023-08-16_08h31.56.122,HF_wild_card,2022.2.4,MacIntel,55.55555556,5f50d2ed14987325962c64dc,64d2fd46c836a06233681665,64dc7b57c943422f0853d2c3,,,,,,,decisionTrl,resources/DG.BMP,resources/DP.BMP,Door4,0.382494005,-0.010791367,1,0,0,1.606,optionRight,60,4700,3,0,0,0,0,1,,,,,,,,,,,,,,,,,,,,,,,,,,,,,,,,,,,,,,,
,,,,,,,,2023-08-16_08h31.56.122,HF_wild_card,2022.2.4,MacIntel,55.55555556,5f50d2ed14987325962c64dc,64d2fd46c836a06233681665,64dc7b57c943422f0853d2c3,,,,,,,decisionTrl,resources/DBN.BMP,resources/DG.BMP,Door3,-0.393285372,0.058752998,1,0,0,1.093,optionLeft,70,4770,3,1,0,1,0,1,,,,,,,,,,,,,,,,,,,,,,,,,,,,,,,,,,,,,,,
,,,,,,,,2023-08-16_08h31.56.122,HF_wild_card,2022.2.4,MacIntel,55.55555556,5f50d2ed14987325962c64dc,64d2fd46c836a06233681665,64dc7b57c943422f0853d2c3,,,,,,,decisionTrl,resources/DP.BMP,resources/DBN.BMP,Door3,0.441247002,0.035971223,1,0,0,1.377,optionRight,70,4840,3,2,0,2,0,1,,,,,,,,,,,,,,,,,,,,,,,,,,,,,,,,,,,,,,,
,,,,,,,,2023-08-16_08h31.56.122,HF_wild_card,2022.2.4,MacIntel,55.55555556,5f50d2ed14987325962c64dc,64d2fd46c836a06233681665,64dc7b57c943422f0853d2c3,,,,,,,ctch,resources/DP.BMP,resources/DY.BMP,Door4,-0.363309353,-0.044364508,1,0,0,0.629,optionLeft,60,4900,3,3,0,3,0,1,,,,,,,,,,,,,,,,,,,,,,,,,,,,,,,,,,,,,,,
,,,,,,,,2023-08-16_08h31.56.122,HF_wild_card,2022.2.4,MacIntel,55.55555556,5f50d2ed14987325962c64dc,64d2fd46c836a06233681665,64dc7b57c943422f0853d2c3,,,,,,,decisionTrl,resources/DB.BMP,resources/DY.BMP,Door1,0.411270983,0.088729017,1,0,0,0.723,optionRight,30,4930,3,4,0,4,0,1,,,,,,,,,,,,,,,,,,,,,,,,,,,,,,,,,,,,,,,
,,,,,,,,2023-08-16_08h31.56.122,HF_wild_card,2022.2.4,MacIntel,55.55555556,5f50d2ed14987325962c64dc,64d2fd46c836a06233681665,64dc7b57c943422f0853d2c3,,,,,,,sngl,resources/DBN.BMP,resources/Empty.png,Door3,-0.418465228,-0.028776978,1,0,0,0.557,optionLeft,70,5000,3,5,0,5,0,1,,,,,,,,,,,,,,,,,,,,,,,,,,,,,,,,,,,,,,,
,,,,,,,,2023-08-16_08h31.56.122,HF_wild_card,2022.2.4,MacIntel,55.55555556,5f50d2ed14987325962c64dc,64d2fd46c836a06233681665,64dc7b57c943422f0853d2c3,,,,,,,sngl,resources/Empty.png,resources/DG.BMP,WildCard_Ex,0.309352518,-0.013189448,1,0,0,0.85,optionRight,95,5095,3,6,0,6,0,1,,,,,,,,,,,,,,,,,,,,,,,,,,,,,,,,,,,,,,,
,,,,,,,,2023-08-16_08h31.56.122,HF_wild_card,2022.2.4,MacIntel,55.55555556,5f50d2ed14987325962c64dc,64d2fd46c836a06233681665,64dc7b57c943422f0853d2c3,,,,,,,sngl,resources/Empty.png,resources/DP.BMP,Door4,0.452038369,0.04676259,1,0,0,0.923,optionRight,60,5155,3,7,0,7,0,1,,,,,,,,,,,,,,,,,,,,,,,,,,,,,,,,,,,,,,,
,,,,,,,,2023-08-16_08h31.56.122,HF_wild_card,2022.2.4,MacIntel,55.55555556,5f50d2ed14987325962c64dc,64d2fd46c836a06233681665,64dc7b57c943422f0853d2c3,,,,,,,decisionTrl,resources/DBN.BMP,resources/DP.BMP,Door3,-0.404076739,0.003597122,1,0,0,0.681,optionLeft,70,5225,3,8,0,8,0,1,,,,,,,,,,,,,,,,,,,,,,,,,,,,,,,,,,,,,,,
,,,,,,,,2023-08-16_08h31.56.122,HF_wild_card,2022.2.4,MacIntel,55.55555556,5f50d2ed14987325962c64dc,64d2fd46c836a06233681665,64dc7b57c943422f0853d2c3,,,,,,,decisionTrl,resources/DBN.BMP,resources/DP.BMP,Door3,-0.430455635,0.021582734,1,0,0,0.946,optionLeft,70,5295,3,9,0,9,0,1,,,,,,,,,,,,,,,,,,,,,,,,,,,,,,,,,,,,,,,
,,,,,,,,2023-08-16_08h31.56.122,HF_wild_card,2022.2.4,MacIntel,55.55555556,5f50d2ed14987325962c64dc,64d2fd46c836a06233681665,64dc7b57c943422f0853d2c3,,,,,,,ctch,resources/DY.BMP,resources/DP.BMP,Door4,0.400479616,0.009592326,1,0,0,2.999,optionRight,80,5375,3,10,0,10,0,1,,,,,,,,,,,,,,,,,,,,,,,,,,,,,,,,,,,,,,,
,,,,,,,,2023-08-16_08h31.56.122,HF_wild_card,2022.2.4,MacIntel,55.55555556,5f50d2ed14987325962c64dc,64d2fd46c836a06233681665,64dc7b57c943422f0853d2c3,,,,,,,decisionTrl,resources/DP.BMP,resources/DBN.BMP,Door3,0.416067146,-0.023980815,1,0,0,0.996,optionRight,70,5445,3,11,0,11,0,1,,,,,,,,,,,,,,,,,,,,,,,,,,,,,,,,,,,,,,,
,,,,,,,,2023-08-16_08h31.56.122,HF_wild_card,2022.2.4,MacIntel,55.55555556,5f50d2ed14987325962c64dc,64d2fd46c836a06233681665,64dc7b57c943422f0853d2c3,,,,,,,decisionTrl,resources/DB.BMP,resources/DY.BMP,Door2,-0.472422062,-0.019184652,1,0,0,1.031,optionLeft,40,5485,3,12,0,12,0,1,,,,,,,,,,,,,,,,,,,,,,,,,,,,,,,,,,,,,,,
,,,,,,,,2023-08-16_08h31.56.122,HF_wild_card,2022.2.4,MacIntel,55.55555556,5f50d2ed14987325962c64dc,64d2fd46c836a06233681665,64dc7b57c943422f0853d2c3,,,,,,,sngl,resources/Empty.png,resources/DY.BMP,Door1,0.420863309,0.03117506,1,0,0,0.732,optionRight,30,5515,3,13,0,13,0,1,,,,,,,,,,,,,,,,,,,,,,,,,,,,,,,,,,,,,,,
,,,,,,,,2023-08-16_08h31.56.122,HF_wild_card,2022.2.4,MacIntel,55.55555556,5f50d2ed14987325962c64dc,64d2fd46c836a06233681665,64dc7b57c943422f0853d2c3,,,,,,,sngl,resources/Empty.png,resources/DG.BMP,WildCard_Ex,0.411270983,0.07793765,1,0,0,0.611,optionRight,5,5520,3,14,0,14,0,1,,,,,,,,,,,,,,,,,,,,,,,,,,,,,,,,,,,,,,,
,,,,,,,,2023-08-16_08h31.56.122,HF_wild_card,2022.2.4,MacIntel,55.55555556,5f50d2ed14987325962c64dc,64d2fd46c836a06233681665,64dc7b57c943422f0853d2c3,,,,,,,decisionTrl,resources/DY.BMP,resources/DB.BMP,Door2,0.426858513,0.081534772,1,0,0,1.377,optionRight,20,5540,3,15,0,15,0,1,,,,,,,,,,,,,,,,,,,,,,,,,,,,,,,,,,,,,,,
,,,,,,,,2023-08-16_08h31.56.122,HF_wild_card,2022.2.4,MacIntel,55.55555556,5f50d2ed14987325962c64dc,64d2fd46c836a06233681665,64dc7b57c943422f0853d2c3,,,,,,,sngl,resources/DY.BMP,resources/Empty.png,Door1,-0.420863309,0.011990408,1,0,0,0.583,optionLeft,30,5570,3,16,0,16,0,1,,,,,,,,,,,,,,,,,,,,,,,,,,,,,,,,,,,,,,,
,,,,,,,,2023-08-16_08h31.56.122,HF_wild_card,2022.2.4,MacIntel,55.55555556,5f50d2ed14987325962c64dc,64d2fd46c836a06233681665,64dc7b57c943422f0853d2c3,,,,,,,sngl,resources/DG.BMP,resources/Empty.png,WildCard_Ex,-0.416067146,0.009592326,1,0,0,0.619,optionLeft,95,5665,3,17,0,17,0,1,,,,,,,,,,,,,,,,,,,,,,,,,,,,,,,,,,,,,,,
,,,,,,,,2023-08-16_08h31.56.122,HF_wild_card,2022.2.4,MacIntel,55.55555556,5f50d2ed14987325962c64dc,64d2fd46c836a06233681665,64dc7b57c943422f0853d2c3,,,,,,,decisionTrl,resources/DB.BMP,resources/DY.BMP,Door2,-0.430455635,0.003597122,1,0,0,1.002,optionLeft,20,5685,3,18,0,18,0,1,,,,,,,,,,,,,,,,,,,,,,,,,,,,,,,,,,,,,,,
,,,,,,,,2023-08-16_08h31.56.122,HF_wild_card,2022.2.4,MacIntel,55.55555556,5f50d2ed14987325962c64dc,64d2fd46c836a06233681665,64dc7b57c943422f0853d2c3,,,,,,,decisionTrl,resources/DB.BMP,resources/DG.BMP,WildCard_Ex,0.388489209,0.049160671,1,0,0,1.441,optionRight,95,5780,3,19,0,19,0,1,,,,,,,,,,,,,,,,,,,,,,,,,,,,,,,,,,,,,,,
,,,,,,,,2023-08-16_08h31.56.122,HF_wild_card,2022.2.4,MacIntel,55.55555556,5f50d2ed14987325962c64dc,64d2fd46c836a06233681665,64dc7b57c943422f0853d2c3,,,,,,,decisionTrl,resources/DP.BMP,resources/DBN.BMP,Door3,0.407673861,0.047961631,1,0,0,0.848,optionRight,70,5850,3,20,0,20,0,1,,,,,,,,,,,,,,,,,,,,,,,,,,,,,,,,,,,,,,,
,,,,,,,,2023-08-16_08h31.56.122,HF_wild_card,2022.2.4,MacIntel,55.55555556,5f50d2ed14987325962c64dc,64d2fd46c836a06233681665,64dc7b57c943422f0853d2c3,,,,,,,decisionTrl,resources/DP.BMP,resources/DBN.BMP,Door3,0.334532374,0.017985612,1,0,0,0.601,optionRight,70,5920,3,21,0,21,0,1,,,,,,,,,,,,,,,,,,,,,,,,,,,,,,,,,,,,,,,
,,,,,,,,2023-08-16_08h31.56.122,HF_wild_card,2022.2.4,MacIntel,55.55555556,5f50d2ed14987325962c64dc,64d2fd46c836a06233681665,64dc7b57c943422f0853d2c3,,,,,,,ctch,resources/DB.BMP,resources/DBN.BMP,Door3,0.374100719,0.050359712,1,0,0,0.668,optionRight,70,5990,3,22,0,22,0,1,,,,,,,,,,,,,,,,,,,,,,,,,,,,,,,,,,,,,,,
,,,,,,,,2023-08-16_08h31.56.122,HF_wild_card,2022.2.4,MacIntel,55.55555556,5f50d2ed14987325962c64dc,64d2fd46c836a06233681665,64dc7b57c943422f0853d2c3,,,,,,,decisionTrl,resources/DY.BMP,resources/DB.BMP,Door2,0.294964029,-0.094724221,1,0,0,1.055,optionRight,40,6030,3,23,0,23,0,1,,,,,,,,,,,,,,,,,,,,,,,,,,,,,,,,,,,,,,,
,,,,,,,,2023-08-16_08h31.56.122,HF_wild_card,2022.2.4,MacIntel,55.55555556,5f50d2ed14987325962c64dc,64d2fd46c836a06233681665,64dc7b57c943422f0853d2c3,,,,,,,decisionTrl,resources/DY.BMP,resources/DB.BMP,Door2,0.286570743,-0.065947242,1,0,0,0.632,optionRight,20,6050,3,24,0,24,0,1,,,,,,,,,,,,,,,,,,,,,,,,,,,,,,,,,,,,,,,
,,,,,,,,2023-08-16_08h31.56.122,HF_wild_card,2022.2.4,MacIntel,55.55555556,5f50d2ed14987325962c64dc,64d2fd46c836a06233681665,64dc7b57c943422f0853d2c3,,,,,,,ctch,resources/DBN.BMP,resources/DB.BMP,Door3,-0.430455635,0.009592326,1,0,0,0.783,optionLeft,70,6120,3,25,0,25,0,1,,,,,,,,,,,,,,,,,,,,,,,,,,,,,,,,,,,,,,,
,,,,,,,,2023-08-16_08h31.56.122,HF_wild_card,2022.2.4,MacIntel,55.55555556,5f50d2ed14987325962c64dc,64d2fd46c836a06233681665,64dc7b57c943422f0853d2c3,,,,,,,decisionTrl,resources/DG.BMP,resources/DBN.BMP,Door3,0.384892086,0.073141487,1,0,0,0.565,optionRight,70,6190,3,26,0,26,0,1,,,,,,,,,,,,,,,,,,,,,,,,,,,,,,,,,,,,,,,
,,,,,,,,2023-08-16_08h31.56.122,HF_wild_card,2022.2.4,MacIntel,55.55555556,5f50d2ed14987325962c64dc,64d2fd46c836a06233681665,64dc7b57c943422f0853d2c3,,,,,,,sngl,resources/Empty.png,resources/DBN.BMP,Door3,0.411270983,0.086330935,1,0,0,0.603,optionRight,70,6260,3,27,0,27,0,1,,,,,,,,,,,,,,,,,,,,,,,,,,,,,,,,,,,,,,,
,,,,,,,,2023-08-16_08h31.56.122,HF_wild_card,2022.2.4,MacIntel,55.55555556,5f50d2ed14987325962c64dc,64d2fd46c836a06233681665,64dc7b57c943422f0853d2c3,,,,,,,sngl,resources/DB.BMP,resources/Empty.png,Door2,-0.43764988,0.034772182,1,0,0,0.685,optionLeft,40,6300,3,28,0,28,0,1,,,,,,,,,,,,,,,,,,,,,,,,,,,,,,,,,,,,,,,
,,,,,,,,2023-08-16_08h31.56.122,HF_wild_card,2022.2.4,MacIntel,55.55555556,5f50d2ed14987325962c64dc,64d2fd46c836a06233681665,64dc7b57c943422f0853d2c3,,,,,,,ctch,resources/DP.BMP,resources/DY.BMP,Door4,-0.429256595,0.094724221,1,0,0,1.283,optionLeft,80,6380,3,29,0,29,0,1,,,,,,,,,,,,,,,,,,,,,,,,,,,,,,,,,,,,,,,
,,,,,,,,2023-08-16_08h31.56.122,HF_wild_card,2022.2.4,MacIntel,55.55555556,5f50d2ed14987325962c64dc,64d2fd46c836a06233681665,64dc7b57c943422f0853d2c3,,,,,,,decisionTrl,resources/DP.BMP,resources/DG.BMP,Door4,-0.412470024,0.098321343,1,0,0,0.946,optionLeft,60,6440,3,30,0,30,0,1,,,,,,,,,,,,,,,,,,,,,,,,,,,,,,,,,,,,,,,
,,,,,,,,2023-08-16_08h31.56.122,HF_wild_card,2022.2.4,MacIntel,55.55555556,5f50d2ed14987325962c64dc,64d2fd46c836a06233681665,64dc7b57c943422f0853d2c3,,,,,,,ctch,resources/DB.BMP,resources/DBN.BMP,Door3,0.42206235,0.055155875,1,0,0,0.73,optionRight,70,6510,3,31,0,31,0,1,,,,,,,,,,,,,,,,,,,,,,,,,,,,,,,,,,,,,,,
,,,,,,,,2023-08-16_08h31.56.122,HF_wild_card,2022.2.4,MacIntel,55.55555556,5f50d2ed14987325962c64dc,64d2fd46c836a06233681665,64dc7b57c943422f0853d2c3,,,,,,,decisionTrl,resources/DBN.BMP,resources/DP.BMP,Door3,-0.429256595,0.095923261,1,0,0,0.566,optionLeft,70,6580,3,32,0,32,0,1,,,,,,,,,,,,,,,,,,,,,,,,,,,,,,,,,,,,,,,
,,,,,,,,2023-08-16_08h31.56.122,HF_wild_card,2022.2.4,MacIntel,55.55555556,5f50d2ed14987325962c64dc,64d2fd46c836a06233681665,64dc7b57c943422f0853d2c3,,,,,,,decisionTrl,resources/DG.BMP,resources/DY.BMP,WildCard_Ex,-0.418465228,0.118705036,1,0,0,2.085,optionLeft,5,6585,3,33,0,33,0,1,,,,,,,,,,,,,,,,,,,,,,,,,,,,,,,,,,,,,,,
,,,,,,,,2023-08-16_08h31.56.122,HF_wild_card,2022.2.4,MacIntel,55.55555556,5f50d2ed14987325962c64dc,64d2fd46c836a06233681665,64dc7b57c943422f0853d2c3,,,,,,,ctch,resources/DBN.BMP,resources/DB.BMP,Door3,-0.425659472,0.107913669,1,0,0,0.646,optionLeft,70,6655,3,34,0,34,0,1,,,,,,,,,,,,,,,,,,,,,,,,,,,,,,,,,,,,,,,
,,,,,,,,2023-08-16_08h31.56.122,HF_wild_card,2022.2.4,MacIntel,55.55555556,5f50d2ed14987325962c64dc,64d2fd46c836a06233681665,64dc7b57c943422f0853d2c3,,,,,,,decisionTrl,resources/DY.BMP,resources/DB.BMP,Door2,0.336930456,-0.003597122,1,0,0,2.116,optionRight,20,6675,3,35,0,35,0,1,,,,,,,,,,,,,,,,,,,,,,,,,,,,,,,,,,,,,,,
,,,,,,,,2023-08-16_08h31.56.122,HF_wild_card,2022.2.4,MacIntel,55.55555556,5f50d2ed14987325962c64dc,64d2fd46c836a06233681665,64dc7b57c943422f0853d2c3,,,,,,,decisionTrl,resources/DG.BMP,resources/DB.BMP,WildCard_Ex,-0.43764988,0.107913669,1,0,0,0.75,optionLeft,95,6770,3,36,0,36,0,1,,,,,,,,,,,,,,,,,,,,,,,,,,,,,,,,,,,,,,,
,,,,,,,,2023-08-16_08h31.56.122,HF_wild_card,2022.2.4,MacIntel,55.55555556,5f50d2ed14987325962c64dc,64d2fd46c836a06233681665,64dc7b57c943422f0853d2c3,,,,,,,sngl,resources/Empty.png,resources/DB.BMP,Door2,0.411270983,0.033573141,1,0,0,0.586,optionRight,20,6790,3,37,0,37,0,1,,,,,,,,,,,,,,,,,,,,,,,,,,,,,,,,,,,,,,,
,,,,,,,,2023-08-16_08h31.56.122,HF_wild_card,2022.2.4,MacIntel,55.55555556,5f50d2ed14987325962c64dc,64d2fd46c836a06233681665,64dc7b57c943422f0853d2c3,,,,,,,decisionTrl,resources/DB.BMP,resources/DY.BMP,Door2,-0.448441247,0.064748201,1,0,0,1.049,optionLeft,40,6830,3,38,0,38,0,1,,,,,,,,,,,,,,,,,,,,,,,,,,,,,,,,,,,,,,,
,,,,,,,,2023-08-16_08h31.56.122,HF_wild_card,2022.2.4,MacIntel,55.55555556,5f50d2ed14987325962c64dc,64d2fd46c836a06233681665,64dc7b57c943422f0853d2c3,,,,,,,sngl,resources/DG.BMP,resources/Empty.png,WildCard_Ex,-0.43764988,0.005995204,1,0,0,0.579,optionLeft,5,6835,3,39,0,39,0,1,,,,,,,,,,,,,,,,,,,,,,,,,,,,,,,,,,,,,,,
,,,,,,,,2023-08-16_08h31.56.122,HF_wild_card,2022.2.4,MacIntel,55.55555556,5f50d2ed14987325962c64dc,64d2fd46c836a06233681665,64dc7b57c943422f0853d2c3,,,,,,,ctch,resources/DY.BMP,resources/DP.BMP,Door4,0.424460432,0.039568345,1,0,0,0.962,optionRight,60,6895,3,40,0,40,0,1,,,,,,,,,,,,,,,,,,,,,,,,,,,,,,,,,,,,,,,
,,,,,,,,2023-08-16_08h31.56.122,HF_wild_card,2022.2.4,MacIntel,55.55555556,5f50d2ed14987325962c64dc,64d2fd46c836a06233681665,64dc7b57c943422f0853d2c3,,,,,,,sngl,resources/DP.BMP,resources/Empty.png,Door4,-0.418465228,0.002398082,1,0,0,0.481,optionLeft,80,6975,3,41,0,41,0,1,,,,,,,,,,,,,,,,,,,,,,,,,,,,,,,,,,,,,,,
,,,,,,,,2023-08-16_08h31.56.122,HF_wild_card,2022.2.4,MacIntel,55.55555556,5f50d2ed14987325962c64dc,64d2fd46c836a06233681665,64dc7b57c943422f0853d2c3,,,,,,,decisionTrl,resources/DY.BMP,resources/DG.BMP,WildCard_Ex,0.417266187,0.037170264,1,0,0,1.737,optionRight,95,7070,3,42,0,42,0,1,,,,,,,,,,,,,,,,,,,,,,,,,,,,,,,,,,,,,,,
,,,,,,,,2023-08-16_08h31.56.122,HF_wild_card,2022.2.4,MacIntel,55.55555556,5f50d2ed14987325962c64dc,64d2fd46c836a06233681665,64dc7b57c943422f0853d2c3,,,,,,,decisionTrl,resources/DBN.BMP,resources/DP.BMP,Door3,-0.46882494,0.01558753,1,0,0,0.831,optionLeft,70,7140,3,43,0,43,0,1,,,,,,,,,,,,,,,,,,,,,,,,,,,,,,,,,,,,,,,
,,,,,,,,2023-08-16_08h31.56.122,HF_wild_card,2022.2.4,MacIntel,55.55555556,5f50d2ed14987325962c64dc,64d2fd46c836a06233681665,64dc7b57c943422f0853d2c3,,,,,,,,,,,,,,,,,,,,,,,,,,2,0,2,0,1,,,,,,,,,,,,,,,,,,,,,,,,,,,,,,,,,,
,,,,,,,,2023-08-16_08h31.56.122,HF_wild_card,2022.2.4,MacIntel,55.55555556,5f50d2ed14987325962c64dc,64d2fd46c836a06233681665,64dc7b57c943422f0853d2c3,,,,,,,decisionTrl,resources/DR.BMP,resources/DB.BMP,WildCard_NonEx,-0.471223022,0.020383693,1,0,0,1.547,optionLeft,55,7195,4,0,0,0,0,1,,,,,,,,,,,,,,,,,,,,,,,,,,,,,,,,,,,,,,,
,,,,,,,,2023-08-16_08h31.56.122,HF_wild_card,2022.2.4,MacIntel,55.55555556,5f50d2ed14987325962c64dc,64d2fd46c836a06233681665,64dc7b57c943422f0853d2c3,,,,,,,decisionTrl,resources/DP.BMP,resources/DBN.BMP,Door3,0.429256595,0.058752998,1,0,0,0.994,optionRight,70,7265,4,1,0,1,0,1,,,,,,,,,,,,,,,,,,,,,,,,,,,,,,,,,,,,,,,
,,,,,,,,2023-08-16_08h31.56.122,HF_wild_card,2022.2.4,MacIntel,55.55555556,5f50d2ed14987325962c64dc,64d2fd46c836a06233681665,64dc7b57c943422f0853d2c3,,,,,,,decisionTrl,resources/DB.BMP,resources/DY.BMP,Door2,-0.444844125,0.01558753,1,0,0,2.281,optionLeft,40,7305,4,2,0,2,0,1,,,,,,,,,,,,,,,,,,,,,,,,,,,,,,,,,,,,,,,
,,,,,,,,2023-08-16_08h31.56.122,HF_wild_card,2022.2.4,MacIntel,55.55555556,5f50d2ed14987325962c64dc,64d2fd46c836a06233681665,64dc7b57c943422f0853d2c3,,,,,,,ctch,resources/DP.BMP,resources/DY.BMP,Door4,-0.448441247,0.013189448,1,0,0,0.682,optionLeft,60,7365,4,3,0,3,0,1,,,,,,,,,,,,,,,,,,,,,,,,,,,,,,,,,,,,,,,
,,,,,,,,2023-08-16_08h31.56.122,HF_wild_card,2022.2.4,MacIntel,55.55555556,5f50d2ed14987325962c64dc,64d2fd46c836a06233681665,64dc7b57c943422f0853d2c3,,,,,,,decisionTrl,resources/DY.BMP,resources/DR.BMP,WildCard_NonEx,0.401678657,0.007194245,1,0,0,0.737,optionRight,45,7410,4,4,0,4,0,1,,,,,,,,,,,,,,,,,,,,,,,,,,,,,,,,,,,,,,,
,,,,,,,,2023-08-16_08h31.56.122,HF_wild_card,2022.2.4,MacIntel,55.55555556,5f50d2ed14987325962c64dc,64d2fd46c836a06233681665,64dc7b57c943422f0853d2c3,,,,,,,sngl,resources/Empty.png,resources/DR.BMP,WildCard_NonEx,0.399280576,0.040767386,1,0,0,0.598,optionRight,45,7455,4,5,0,5,0,1,,,,,,,,,,,,,,,,,,,,,,,,,,,,,,,,,,,,,,,
,,,,,,,,2023-08-16_08h31.56.122,HF_wild_card,2022.2.4,MacIntel,55.55555556,5f50d2ed14987325962c64dc,64d2fd46c836a06233681665,64dc7b57c943422f0853d2c3,,,,,,,decisionTrl,resources/DY.BMP,resources/DB.BMP,Door1,-0.449640288,-0.009592326,1,0,0,1.243,optionLeft,30,7485,4,6,0,6,0,1,,,,,,,,,,,,,,,,,,,,,,,,,,,,,,,,,,,,,,,
,,,,,,,,2023-08-16_08h31.56.122,HF_wild_card,2022.2.4,MacIntel,55.55555556,5f50d2ed14987325962c64dc,64d2fd46c836a06233681665,64dc7b57c943422f0853d2c3,,,,,,,sngl,resources/Empty.png,resources/DBN.BMP,Door3,0.432853717,0.073141487,1,0,0,0.595,optionRight,70,7555,4,7,0,7,0,1,,,,,,,,,,,,,,,,,,,,,,,,,,,,,,,,,,,,,,,
,,,,,,,,2023-08-16_08h31.56.122,HF_wild_card,2022.2.4,MacIntel,55.55555556,5f50d2ed14987325962c64dc,64d2fd46c836a06233681665,64dc7b57c943422f0853d2c3,,,,,,,ctch,resources/DP.BMP,resources/DY.BMP,Door4,-0.416067146,-0.038369305,1,0,0,0.713,optionLeft,80,7635,4,8,0,8,0,1,,,,,,,,,,,,,,,,,,,,,,,,,,,,,,,,,,,,,,,
,,,,,,,,2023-08-16_08h31.56.122,HF_wild_card,2022.2.4,MacIntel,55.55555556,5f50d2ed14987325962c64dc,64d2fd46c836a06233681665,64dc7b57c943422f0853d2c3,,,,,,,ctch,resources/DBN.BMP,resources/DB.BMP,Door3,-0.464028777,-0.038369305,1,0,0,0.608,optionLeft,70,7705,4,9,0,9,0,1,,,,,,,,,,,,,,,,,,,,,,,,,,,,,,,,,,,,,,,
,,,,,,,,2023-08-16_08h31.56.122,HF_wild_card,2022.2.4,MacIntel,55.55555556,5f50d2ed14987325962c64dc,64d2fd46c836a06233681665,64dc7b57c943422f0853d2c3,,,,,,,sngl,resources/Empty.png,resources/DB.BMP,Door2,0.460431655,0.052757794,1,0,0,1.016,optionRight,40,7745,4,10,0,10,0,1,,,,,,,,,,,,,,,,,,,,,,,,,,,,,,,,,,,,,,,
,,,,,,,,2023-08-16_08h31.56.122,HF_wild_card,2022.2.4,MacIntel,55.55555556,5f50d2ed14987325962c64dc,64d2fd46c836a06233681665,64dc7b57c943422f0853d2c3,,,,,,,ctch,resources/DY.BMP,resources/DP.BMP,Door4,0.398081535,0.027577938,1,0,0,0.905,optionRight,80,7825,4,11,0,11,0,1,,,,,,,,,,,,,,,,,,,,,,,,,,,,,,,,,,,,,,,
,,,,,,,,2023-08-16_08h31.56.122,HF_wild_card,2022.2.4,MacIntel,55.55555556,5f50d2ed14987325962c64dc,64d2fd46c836a06233681665,64dc7b57c943422f0853d2c3,,,,,,,decisionTrl,resources/DR.BMP,resources/DY.BMP,WildCard_NonEx,-0.447242206,-0.028776978,1,0,0,0.998,optionLeft,45,7870,4,12,0,12,0,1,,,,,,,,,,,,,,,,,,,,,,,,,,,,,,,,,,,,,,,
,,,,,,,,2023-08-16_08h31.56.122,HF_wild_card,2022.2.4,MacIntel,55.55555556,5f50d2ed14987325962c64dc,64d2fd46c836a06233681665,64dc7b57c943422f0853d2c3,,,,,,,decisionTrl,resources/DBN.BMP,resources/DP.BMP,Door3,-0.460431655,-0.027577938,1,0,0,1.374,optionLeft,70,7940,4,13,0,13,0,1,,,,,,,,,,,,,,,,,,,,,,,,,,,,,,,,,,,,,,,
,,,,,,,,2023-08-16_08h31.56.122,HF_wild_card,2022.2.4,MacIntel,55.55555556,5f50d2ed14987325962c64dc,64d2fd46c836a06233681665,64dc7b57c943422f0853d2c3,,,,,,,sngl,resources/Empty.png,resources/DP.BMP,Door4,0.432853717,0.052757794,1,0,0,0.582,optionRight,80,8020,4,14,0,14,0,1,,,,,,,,,,,,,,,,,,,,,,,,,,,,,,,,,,,,,,,
,,,,,,,,2023-08-16_08h31.56.122,HF_wild_card,2022.2.4,MacIntel,55.55555556,5f50d2ed14987325962c64dc,64d2fd46c836a06233681665,64dc7b57c943422f0853d2c3,,,,,,,sngl,resources/DB.BMP,resources/Empty.png,Door2,-0.466426859,-0.017985612,1,0,0,1.072,optionLeft,20,8040,4,15,0,15,0,1,,,,,,,,,,,,,,,,,,,,,,,,,,,,,,,,,,,,,,,
,,,,,,,,2023-08-16_08h31.56.122,HF_wild_card,2022.2.4,MacIntel,55.55555556,5f50d2ed14987325962c64dc,64d2fd46c836a06233681665,64dc7b57c943422f0853d2c3,,,,,,,sngl,resources/DP.BMP,resources/Empty.png,Door4,-0.448441247,-0.032374101,1,0,0,0.651,optionLeft,60,8100,4,16,0,16,0,1,,,,,,,,,,,,,,,,,,,,,,,,,,,,,,,,,,,,,,,
,,,,,,,,2023-08-16_08h31.56.122,HF_wild_card,2022.2.4,MacIntel,55.55555556,5f50d2ed14987325962c64dc,64d2fd46c836a06233681665,64dc7b57c943422f0853d2c3,,,,,,,decisionTrl,resources/DP.BMP,resources/DR.BMP,WildCard_NonEx,0.365707434,0.038369305,1,0,0,0.793,optionRight,45,8145,4,17,0,17,0,1,,,,,,,,,,,,,,,,,,,,,,,,,,,,,,,,,,,,,,,
,,,,,,,,2023-08-16_08h31.56.122,HF_wild_card,2022.2.4,MacIntel,55.55555556,5f50d2ed14987325962c64dc,64d2fd46c836a06233681665,64dc7b57c943422f0853d2c3,,,,,,,decisionTrl,resources/DBN.BMP,resources/DP.BMP,Door3,-0.470023981,-0.023980815,1,0,0,0.919,optionLeft,70,8215,4,18,0,18,0,1,,,,,,,,,,,,,,,,,,,,,,,,,,,,,,,,,,,,,,,
,,,,,,,,2023-08-16_08h31.56.122,HF_wild_card,2022.2.4,MacIntel,55.55555556,5f50d2ed14987325962c64dc,64d2fd46c836a06233681665,64dc7b57c943422f0853d2c3,,,,,,,decisionTrl,resources/DBN.BMP,resources/DP.BMP,Door4,0.386091127,0.033573141,1,0,0,0.702,optionRight,80,8295,4,19,0,19,0,1,,,,,,,,,,,,,,,,,,,,,,,,,,,,,,,,,,,,,,,
,,,,,,,,2023-08-16_08h31.56.122,HF_wild_card,2022.2.4,MacIntel,55.55555556,5f50d2ed14987325962c64dc,64d2fd46c836a06233681665,64dc7b57c943422f0853d2c3,,,,,,,decisionTrl,resources/DB.BMP,resources/DY.BMP,Door2,-0.462829736,-0.03117506,1,0,0,1.482,optionLeft,40,8335,4,20,0,20,0,1,,,,,,,,,,,,,,,,,,,,,,,,,,,,,,,,,,,,,,,
,,,,,,,,2023-08-16_08h31.56.122,HF_wild_card,2022.2.4,MacIntel,55.55555556,5f50d2ed14987325962c64dc,64d2fd46c836a06233681665,64dc7b57c943422f0853d2c3,,,,,,,decisionTrl,resources/DB.BMP,resources/DY.BMP,Door2,-0.456834532,-0.035971223,1,0,0,0.62,optionLeft,20,8355,4,21,0,21,0,1,,,,,,,,,,,,,,,,,,,,,,,,,,,,,,,,,,,,,,,
,,,,,,,,2023-08-16_08h31.56.122,HF_wild_card,2022.2.4,MacIntel,55.55555556,5f50d2ed14987325962c64dc,64d2fd46c836a06233681665,64dc7b57c943422f0853d2c3,,,,,,,sngl,resources/DBN.BMP,resources/Empty.png,Door3,-0.45323741,-0.026378897,1,0,0,0.583,optionLeft,70,8425,4,22,0,22,0,1,,,,,,,,,,,,,,,,,,,,,,,,,,,,,,,,,,,,,,,
,,,,,,,,2023-08-16_08h31.56.122,HF_wild_card,2022.2.4,MacIntel,55.55555556,5f50d2ed14987325962c64dc,64d2fd46c836a06233681665,64dc7b57c943422f0853d2c3,,,,,,,decisionTrl,resources/DBN.BMP,resources/DP.BMP,Door4,0.417266187,0.003597122,1,0,0,1.641,optionRight,60,8485,4,23,0,23,0,1,,,,,,,,,,,,,,,,,,,,,,,,,,,,,,,,,,,,,,,
,,,,,,,,2023-08-16_08h31.56.122,HF_wild_card,2022.2.4,MacIntel,55.55555556,5f50d2ed14987325962c64dc,64d2fd46c836a06233681665,64dc7b57c943422f0853d2c3,,,,,,,decisionTrl,resources/DY.BMP,resources/DB.BMP,Door2,0.420863309,0.033573141,1,0,0,1.632,optionRight,20,8505,4,24,0,24,0,1,,,,,,,,,,,,,,,,,,,,,,,,,,,,,,,,,,,,,,,
,,,,,,,,2023-08-16_08h31.56.122,HF_wild_card,2022.2.4,MacIntel,55.55555556,5f50d2ed14987325962c64dc,64d2fd46c836a06233681665,64dc7b57c943422f0853d2c3,,,,,,,decisionTrl,resources/DR.BMP,resources/DBN.BMP,Door3,0.388489209,0.028776978,1,0,0,1.651,optionRight,70,8575,4,25,0,25,0,1,,,,,,,,,,,,,,,,,,,,,,,,,,,,,,,,,,,,,,,
,,,,,,,,2023-08-16_08h31.56.122,HF_wild_card,2022.2.4,MacIntel,55.55555556,5f50d2ed14987325962c64dc,64d2fd46c836a06233681665,64dc7b57c943422f0853d2c3,,,,,,,decisionTrl,resources/DP.BMP,resources/DBN.BMP,Door3,0.399280576,0.028776978,1,0,0,0.731,optionRight,70,8645,4,26,0,26,0,1,,,,,,,,,,,,,,,,,,,,,,,,,,,,,,,,,,,,,,,
,,,,,,,,2023-08-16_08h31.56.122,HF_wild_card,2022.2.4,MacIntel,55.55555556,5f50d2ed14987325962c64dc,64d2fd46c836a06233681665,64dc7b57c943422f0853d2c3,,,,,,,sngl,resources/Empty.png,resources/DR.BMP,WildCard_NonEx,0.396882494,0.014388489,1,0,0,0.647,optionRight,55,8700,4,27,0,27,0,1,,,,,,,,,,,,,,,,,,,,,,,,,,,,,,,,,,,,,,,
,,,,,,,,2023-08-16_08h31.56.122,HF_wild_card,2022.2.4,MacIntel,55.55555556,5f50d2ed14987325962c64dc,64d2fd46c836a06233681665,64dc7b57c943422f0853d2c3,,,,,,,decisionTrl,resources/DBN.BMP,resources/DR.BMP,Door3,-0.441247002,0.008393285,1,0,0,0.749,optionLeft,70,8770,4,28,0,28,0,1,,,,,,,,,,,,,,,,,,,,,,,,,,,,,,,,,,,,,,,
,,,,,,,,2023-08-16_08h31.56.122,HF_wild_card,2022.2.4,MacIntel,55.55555556,5f50d2ed14987325962c64dc,64d2fd46c836a06233681665,64dc7b57c943422f0853d2c3,,,,,,,decisionTrl,resources/DP.BMP,resources/DBN.BMP,Door4,-0.455635492,-0.011990408,1,0,0,1.031,optionLeft,60,8830,4,29,0,29,0,1,,,,,,,,,,,,,,,,,,,,,,,,,,,,,,,,,,,,,,,
,,,,,,,,2023-08-16_08h31.56.122,HF_wild_card,2022.2.4,MacIntel,55.55555556,5f50d2ed14987325962c64dc,64d2fd46c836a06233681665,64dc7b57c943422f0853d2c3,,,,,,,decisionTrl,resources/DR.BMP,resources/DP.BMP,Door4,0.417266187,0.050359712,1,0,0,1.282,optionRight,80,8910,4,30,0,30,0,1,,,,,,,,,,,,,,,,,,,,,,,,,,,,,,,,,,,,,,,
,,,,,,,,2023-08-16_08h31.56.122,HF_wild_card,2022.2.4,MacIntel,55.55555556,5f50d2ed14987325962c64dc,64d2fd46c836a06233681665,64dc7b57c943422f0853d2c3,,,,,,,sngl,resources/Empty.png,resources/DY.BMP,Door1,0.387290168,0.023980815,1,0,0,0.629,optionRight,30,8940,4,31,0,31,0,1,,,,,,,,,,,,,,,,,,,,,,,,,,,,,,,,,,,,,,,
,,,,,,,,2023-08-16_08h31.56.122,HF_wild_card,2022.2.4,MacIntel,55.55555556,5f50d2ed14987325962c64dc,64d2fd46c836a06233681665,64dc7b57c943422f0853d2c3,,,,,,,ctch,resources/DBN.BMP,resources/DB.BMP,Door3,-0.480815348,0.014388489,1,0,0,0.748,optionLeft,70,9010,4,32,0,32,0,1,,,,,,,,,,,,,,,,,,,,,,,,,,,,,,,,,,,,,,,
,,,,,,,,2023-08-16_08h31.56.122,HF_wild_card,2022.2.4,MacIntel,55.55555556,5f50d2ed14987325962c64dc,64d2fd46c836a06233681665,64dc7b57c943422f0853d2c3,,,,,,,decisionTrl,resources/DB.BMP,resources/DY.BMP,Door1,0.425659472,0.044364508,1,0,0,1.563,optionRight,30,9040,4,33,0,33,0,1,,,,,,,,,,,,,,,,,,,,,,,,,,,,,,,,,,,,,,,
,,,,,,,,2023-08-16_08h31.56.122,HF_wild_card,2022.2.4,MacIntel,55.55555556,5f50d2ed14987325962c64dc,64d2fd46c836a06233681665,64dc7b57c943422f0853d2c3,,,,,,,decisionTrl,resources/DY.BMP,resources/DB.BMP,Door2,0.387290168,0.039568345,1,0,0,1.117,optionRight,20,9060,4,34,0,34,0,1,,,,,,,,,,,,,,,,,,,,,,,,,,,,,,,,,,,,,,,
,,,,,,,,2023-08-16_08h31.56.122,HF_wild_card,2022.2.4,MacIntel,55.55555556,5f50d2ed14987325962c64dc,64d2fd46c836a06233681665,64dc7b57c943422f0853d2c3,,,,,,,decisionTrl,resources/DP.BMP,resources/DBN.BMP,Door4,-0.40647482,0.005995204,1,0,0,1.712,optionLeft,80,9140,4,35,0,35,0,1,,,,,,,,,,,,,,,,,,,,,,,,,,,,,,,,,,,,,,,
,,,,,,,,2023-08-16_08h31.56.122,HF_wild_card,2022.2.4,MacIntel,55.55555556,5f50d2ed14987325962c64dc,64d2fd46c836a06233681665,64dc7b57c943422f0853d2c3,,,,,,,ctch,resources/DB.BMP,resources/DBN.BMP,Door3,0.393285372,0.026378897,1,0,0,1.174,optionRight,70,9210,4,36,0,36,0,1,,,,,,,,,,,,,,,,,,,,,,,,,,,,,,,,,,,,,,,
,,,,,,,,2023-08-16_08h31.56.122,HF_wild_card,2022.2.4,MacIntel,55.55555556,5f50d2ed14987325962c64dc,64d2fd46c836a06233681665,64dc7b57c943422f0853d2c3,,,,,,,ctch,resources/DB.BMP,resources/DBN.BMP,Door3,0.401678657,0.028776978,1,0,0,0.645,optionRight,70,9280,4,37,0,37,0,1,,,,,,,,,,,,,,,,,,,,,,,,,,,,,,,,,,,,,,,
,,,,,,,,2023-08-16_08h31.56.122,HF_wild_card,2022.2.4,MacIntel,55.55555556,5f50d2ed14987325962c64dc,64d2fd46c836a06233681665,64dc7b57c943422f0853d2c3,,,,,,,sngl,resources/DR.BMP,resources/Empty.png,WildCard_NonEx,-0.43764988,-0.008393285,1,0,0,0.582,optionLeft,55,9335,4,38,0,38,0,1,,,,,,,,,,,,,,,,,,,,,,,,,,,,,,,,,,,,,,,
,,,,,,,,2023-08-16_08h31.56.122,HF_wild_card,2022.2.4,MacIntel,55.55555556,5f50d2ed14987325962c64dc,64d2fd46c836a06233681665,64dc7b57c943422f0853d2c3,,,,,,,decisionTrl,resources/DB.BMP,resources/DR.BMP,WildCard_NonEx,0.424460432,-0.075539568,1,0,0,2.118,optionRight,55,9390,4,39,0,39,0,1,,,,,,,,,,,,,,,,,,,,,,,,,,,,,,,,,,,,,,,
,,,,,,,,2023-08-16_08h31.56.122,HF_wild_card,2022.2.4,MacIntel,55.55555556,5f50d2ed14987325962c64dc,64d2fd46c836a06233681665,64dc7b57c943422f0853d2c3,,,,,,,decisionTrl,resources/DY.BMP,resources/DB.BMP,Door1,-0.429256595,-0.021582734,1,0,0,1.445,optionLeft,30,9420,4,40,0,40,0,1,,,,,,,,,,,,,,,,,,,,,,,,,,,,,,,,,,,,,,,
,,,,,,,,2023-08-16_08h31.56.122,HF_wild_card,2022.2.4,MacIntel,55.55555556,5f50d2ed14987325962c64dc,64d2fd46c836a06233681665,64dc7b57c943422f0853d2c3,,,,,,,sngl,resources/DR.BMP,resources/Empty.png,WildCard_NonEx,-0.151079137,-0.136690647,1,0,0,0.848,optionLeft,45,9465,4,41,0,41,0,1,,,,,,,,,,,,,,,,,,,,,,,,,,,,,,,,,,,,,,,
,,,,,,,,2023-08-16_08h31.56.122,HF_wild_card,2022.2.4,MacIntel,55.55555556,5f50d2ed14987325962c64dc,64d2fd46c836a06233681665,64dc7b57c943422f0853d2c3,,,,,,,sngl,resources/DY.BMP,resources/Empty.png,Door1,-0.184652278,-0.099520384,1,0,0,0.728,optionLeft,30,9495,4,42,0,42,0,1,,,,,,,,,,,,,,,,,,,,,,,,,,,,,,,,,,,,,,,
,,,,,,,,2023-08-16_08h31.56.122,HF_wild_card,2022.2.4,MacIntel,55.55555556,5f50d2ed14987325962c64dc,64d2fd46c836a06233681665,64dc7b57c943422f0853d2c3,,,,,,,ctch,resources/DY.BMP,resources/DP.BMP,Door4,0.405275779,0.023980815,1,0,0,0.677,optionRight,60,9555,4,43,0,43,0,1,,,,,,,,,,,,,,,,,,,,,,,,,,,,,,,,,,,,,,,
,,,,,,,,2023-08-16_08h31.56.122,HF_wild_card,2022.2.4,MacIntel,55.55555556,5f50d2ed14987325962c64dc,64d2fd46c836a06233681665,64dc7b57c943422f0853d2c3,,,,,,,,,,,,,,,,,,,,,,,,,,3,0,3,0,1,,,,,,,,,,,,,,,,,,,,,,,,,,,,,,,,,,
,,,,,,,,2023-08-16_08h31.56.122,HF_wild_card,2022.2.4,MacIntel,55.55555556,5f50d2ed14987325962c64dc,64d2fd46c836a06233681665,64dc7b57c943422f0853d2c3,,,,,,,ctch,resources/DB.BMP,resources/DBN.BMP,Door3,0.396882494,-0.038369305,1,0,0,0.945,optionRight,70,9625,5,0,0,0,0,1,,,,,,,,,,,,,,,,,,,,,,,,,,,,,,,,,,,,,,,
,,,,,,,,2023-08-16_08h31.56.122,HF_wild_card,2022.2.4,MacIntel,55.55555556,5f50d2ed14987325962c64dc,64d2fd46c836a06233681665,64dc7b57c943422f0853d2c3,,,,,,,sngl,resources/Empty.png,resources/DBN.BMP,Door3,0.411270983,0.01558753,1,0,0,0.569,optionRight,70,9695,5,1,0,1,0,1,,,,,,,,,,,,,,,,,,,,,,,,,,,,,,,,,,,,,,,
,,,,,,,,2023-08-16_08h31.56.122,HF_wild_card,2022.2.4,MacIntel,55.55555556,5f50d2ed14987325962c64dc,64d2fd46c836a06233681665,64dc7b57c943422f0853d2c3,,,,,,,sngl,resources/DBN.BMP,resources/Empty.png,Door3,-0.402877698,0.044364508,1,0,0,0.622,optionLeft,70,9765,5,2,0,2,0,1,,,,,,,,,,,,,,,,,,,,,,,,,,,,,,,,,,,,,,,
,,,,,,,,2023-08-16_08h31.56.122,HF_wild_card,2022.2.4,MacIntel,55.55555556,5f50d2ed14987325962c64dc,64d2fd46c836a06233681665,64dc7b57c943422f0853d2c3,,,,,,,decisionTrl,resources/DR.BMP,resources/DP.BMP,Door4,0.411270983,0.026378897,1,0,0,1.909,optionRight,60,9825,5,3,0,3,0,1,,,,,,,,,,,,,,,,,,,,,,,,,,,,,,,,,,,,,,,
,,,,,,,,2023-08-16_08h31.56.122,HF_wild_card,2022.2.4,MacIntel,55.55555556,5f50d2ed14987325962c64dc,64d2fd46c836a06233681665,64dc7b57c943422f0853d2c3,,,,,,,decisionTrl,resources/DB.BMP,resources/DY.BMP,Door2,-0.456834532,-0.020383693,1,0,0,1.546,optionLeft,40,9865,5,4,0,4,0,1,,,,,,,,,,,,,,,,,,,,,,,,,,,,,,,,,,,,,,,
,,,,,,,,2023-08-16_08h31.56.122,HF_wild_card,2022.2.4,MacIntel,55.55555556,5f50d2ed14987325962c64dc,64d2fd46c836a06233681665,64dc7b57c943422f0853d2c3,,,,,,,decisionTrl,resources/DB.BMP,resources/DR.BMP,WildCard_NonEx,0.411270983,0.043165468,1,0,0,0.832,optionRight,45,9910,5,5,0,5,0,1,,,,,,,,,,,,,,,,,,,,,,,,,,,,,,,,,,,,,,,
,,,,,,,,2023-08-16_08h31.56.122,HF_wild_card,2022.2.4,MacIntel,55.55555556,5f50d2ed14987325962c64dc,64d2fd46c836a06233681665,64dc7b57c943422f0853d2c3,,,,,,,sngl,resources/DY.BMP,resources/Empty.png,Door1,-0.43764988,-0.005995204,1,0,0,0.748,optionLeft,30,9940,5,6,0,6,0,1,,,,,,,,,,,,,,,,,,,,,,,,,,,,,,,,,,,,,,,
,,,,,,,,2023-08-16_08h31.56.122,HF_wild_card,2022.2.4,MacIntel,55.55555556,5f50d2ed14987325962c64dc,64d2fd46c836a06233681665,64dc7b57c943422f0853d2c3,,,,,,,ctch,resources/DP.BMP,resources/DY.BMP,Door4,-0.440047962,0.007194245,1,0,0,0.666,optionLeft,60,10000,5,7,0,7,0,1,,,,,,,,,,,,,,,,,,,,,,,,,,,,,,,,,,,,,,,
,,,,,,,,2023-08-16_08h31.56.122,HF_wild_card,2022.2.4,MacIntel,55.55555556,5f50d2ed14987325962c64dc,64d2fd46c836a06233681665,64dc7b57c943422f0853d2c3,,,,,,,ctch,resources/DY.BMP,resources/DP.BMP,Door4,0.402877698,0.004796163,1,0,0,0.617,optionRight,60,10060,5,8,0,8,0,1,,,,,,,,,,,,,,,,,,,,,,,,,,,,,,,,,,,,,,,
,,,,,,,,2023-08-16_08h31.56.122,HF_wild_card,2022.2.4,MacIntel,55.55555556,5f50d2ed14987325962c64dc,64d2fd46c836a06233681665,64dc7b57c943422f0853d2c3,,,,,,,ctch,resources/DP.BMP,resources/DY.BMP,Door4,-0.424460432,-0.005995204,1,0,0,0.619,optionLeft,60,10120,5,9,0,9,0,1,,,,,,,,,,,,,,,,,,,,,,,,,,,,,,,,,,,,,,,
,,,,,,,,2023-08-16_08h31.56.122,HF_wild_card,2022.2.4,MacIntel,55.55555556,5f50d2ed14987325962c64dc,64d2fd46c836a06233681665,64dc7b57c943422f0853d2c3,,,,,,,decisionTrl,resources/DBN.BMP,resources/DP.BMP,Door3,-0.448441247,-0.026378897,1,0,0,0.814,optionLeft,70,10190,5,10,0,10,0,1,,,,,,,,,,,,,,,,,,,,,,,,,,,,,,,,,,,,,,,
,,,,,,,,2023-08-16_08h31.56.122,HF_wild_card,2022.2.4,MacIntel,55.55555556,5f50d2ed14987325962c64dc,64d2fd46c836a06233681665,64dc7b57c943422f0853d2c3,,,,,,,decisionTrl,resources/DBN.BMP,resources/DP.BMP,Door3,-0.447242206,-0.011990408,1,0,0,0.64,optionLeft,70,10260,5,11,0,11,0,1,,,,,,,,,,,,,,,,,,,,,,,,,,,,,,,,,,,,,,,
,,,,,,,,2023-08-16_08h31.56.122,HF_wild_card,2022.2.4,MacIntel,55.55555556,5f50d2ed14987325962c64dc,64d2fd46c836a06233681665,64dc7b57c943422f0853d2c3,,,,,,,sngl,resources/Empty.png,resources/DP.BMP,Door4,0.412470024,0.081534772,1,0,0,0.575,optionRight,60,10320,5,12,0,12,0,1,,,,,,,,,,,,,,,,,,,,,,,,,,,,,,,,,,,,,,,
,,,,,,,,2023-08-16_08h31.56.122,HF_wild_card,2022.2.4,MacIntel,55.55555556,5f50d2ed14987325962c64dc,64d2fd46c836a06233681665,64dc7b57c943422f0853d2c3,,,,,,,ctch,resources/DY.BMP,resources/DP.BMP,Door4,0.372901679,0.041966427,1,0,0,0.862,optionRight,60,10380,5,13,0,13,0,1,,,,,,,,,,,,,,,,,,,,,,,,,,,,,,,,,,,,,,,
,,,,,,,,2023-08-16_08h31.56.122,HF_wild_card,2022.2.4,MacIntel,55.55555556,5f50d2ed14987325962c64dc,64d2fd46c836a06233681665,64dc7b57c943422f0853d2c3,,,,,,,decisionTrl,resources/DP.BMP,resources/DBN.BMP,Door3,0.426858513,0.035971223,1,0,0,0.796,optionRight,70,10450,5,14,0,14,0,1,,,,,,,,,,,,,,,,,,,,,,,,,,,,,,,,,,,,,,,
,,,,,,,,2023-08-16_08h31.56.122,HF_wild_card,2022.2.4,MacIntel,55.55555556,5f50d2ed14987325962c64dc,64d2fd46c836a06233681665,64dc7b57c943422f0853d2c3,,,,,,,sngl,resources/Empty.png,resources/DR.BMP,WildCard_NonEx,0.366906475,0.007194245,1,0,0,0.651,optionRight,45,10495,5,15,0,15,0,1,,,,,,,,,,,,,,,,,,,,,,,,,,,,,,,,,,,,,,,
,,,,,,,,2023-08-16_08h31.56.122,HF_wild_card,2022.2.4,MacIntel,55.55555556,5f50d2ed14987325962c64dc,64d2fd46c836a06233681665,64dc7b57c943422f0853d2c3,,,,,,,ctch,resources/DBN.BMP,resources/DB.BMP,Door3,-0.431654676,-0.010791367,1,0,0,0.673,optionLeft,70,10565,5,16,0,16,0,1,,,,,,,,,,,,,,,,,,,,,,,,,,,,,,,,,,,,,,,
,,,,,,,,2023-08-16_08h31.56.122,HF_wild_card,2022.2.4,MacIntel,55.55555556,5f50d2ed14987325962c64dc,64d2fd46c836a06233681665,64dc7b57c943422f0853d2c3,,,,,,,sngl,resources/Empty.png,resources/DY.BMP,Door1,0.428057554,0.029976019,1,0,0,0.756,optionRight,30,10595,5,17,0,17,0,1,,,,,,,,,,,,,,,,,,,,,,,,,,,,,,,,,,,,,,,
,,,,,,,,2023-08-16_08h31.56.122,HF_wild_card,2022.2.4,MacIntel,55.55555556,5f50d2ed14987325962c64dc,64d2fd46c836a06233681665,64dc7b57c943422f0853d2c3,,,,,,,decisionTrl,resources/DBN.BMP,resources/DR.BMP,Door3,-0.438848921,-0.009592326,1,0,0,1.292,optionLeft,70,10665,5,18,0,18,0,1,,,,,,,,,,,,,,,,,,,,,,,,,,,,,,,,,,,,,,,
,,,,,,,,2023-08-16_08h31.56.122,HF_wild_card,2022.2.4,MacIntel,55.55555556,5f50d2ed14987325962c64dc,64d2fd46c836a06233681665,64dc7b57c943422f0853d2c3,,,,,,,decisionTrl,resources/DP.BMP,resources/DR.BMP,Door4,-0.443645084,-0.044364508,1,0,0,0.966,optionLeft,80,10745,5,19,0,19,0,1,,,,,,,,,,,,,,,,,,,,,,,,,,,,,,,,,,,,,,,
,,,,,,,,2023-08-16_08h31.56.122,HF_wild_card,2022.2.4,MacIntel,55.55555556,5f50d2ed14987325962c64dc,64d2fd46c836a06233681665,64dc7b57c943422f0853d2c3,,,,,,,decisionTrl,resources/DY.BMP,resources/DB.BMP,Door2,0.39088729,0.017985612,1,0,0,1.712,optionRight,20,10765,5,20,0,20,0,1,,,,,,,,,,,,,,,,,,,,,,,,,,,,,,,,,,,,,,,
,,,,,,,,2023-08-16_08h31.56.122,HF_wild_card,2022.2.4,MacIntel,55.55555556,5f50d2ed14987325962c64dc,64d2fd46c836a06233681665,64dc7b57c943422f0853d2c3,,,,,,,ctch,resources/DBN.BMP,resources/DB.BMP,Door3,-0.449640288,-0.040767386,1,0,0,0.615,optionLeft,70,10835,5,21,0,21,0,1,,,,,,,,,,,,,,,,,,,,,,,,,,,,,,,,,,,,,,,
,,,,,,,,2023-08-16_08h31.56.122,HF_wild_card,2022.2.4,MacIntel,55.55555556,5f50d2ed14987325962c64dc,64d2fd46c836a06233681665,64dc7b57c943422f0853d2c3,,,,,,,decisionTrl,resources/DY.BMP,resources/DB.BMP,Door2,0.372901679,0.023980815,1,0,0,1.347,optionRight,20,10855,5,22,0,22,0,1,,,,,,,,,,,,,,,,,,,,,,,,,,,,,,,,,,,,,,,
,,,,,,,,2023-08-16_08h31.56.122,HF_wild_card,2022.2.4,MacIntel,55.55555556,5f50d2ed14987325962c64dc,64d2fd46c836a06233681665,64dc7b57c943422f0853d2c3,,,,,,,sngl,resources/DR.BMP,resources/Empty.png,WildCard_NonEx,-0.446043165,-0.033573141,1,0,0,0.667,optionLeft,45,10900,5,23,0,23,0,1,,,,,,,,,,,,,,,,,,,,,,,,,,,,,,,,,,,,,,,
,,,,,,,,2023-08-16_08h31.56.122,HF_wild_card,2022.2.4,MacIntel,55.55555556,5f50d2ed14987325962c64dc,64d2fd46c836a06233681665,64dc7b57c943422f0853d2c3,,,,,,,sngl,resources/DR.BMP,resources/Empty.png,WildCard_NonEx,-0.442446043,-0.022781775,1,0,0,0.582,optionLeft,55,10955,5,24,0,24,0,1,,,,,,,,,,,,,,,,,,,,,,,,,,,,,,,,,,,,,,,
,,,,,,,,2023-08-16_08h31.56.122,HF_wild_card,2022.2.4,MacIntel,55.55555556,5f50d2ed14987325962c64dc,64d2fd46c836a06233681665,64dc7b57c943422f0853d2c3,,,,,,,decisionTrl,resources/DBN.BMP,resources/DP.BMP,Door3,-0.410071942,0.010791367,1,0,0,1.357,optionLeft,70,11025,5,25,0,25,0,1,,,,,,,,,,,,,,,,,,,,,,,,,,,,,,,,,,,,,,,
,,,,,,,,2023-08-16_08h31.56.122,HF_wild_card,2022.2.4,MacIntel,55.55555556,5f50d2ed14987325962c64dc,64d2fd46c836a06233681665,64dc7b57c943422f0853d2c3,,,,,,,decisionTrl,resources/DB.BMP,resources/DY.BMP,Door1,0.382494005,-0.099520384,1,0,0,1.775,optionRight,30,11055,5,26,0,26,0,1,,,,,,,,,,,,,,,,,,,,,,,,,,,,,,,,,,,,,,,
,,,,,,,,2023-08-16_08h31.56.122,HF_wild_card,2022.2.4,MacIntel,55.55555556,5f50d2ed14987325962c64dc,64d2fd46c836a06233681665,64dc7b57c943422f0853d2c3,,,,,,,decisionTrl,resources/DBN.BMP,resources/DP.BMP,Door3,-0.450839329,0.019184652,1,0,0,1.766,optionLeft,70,11125,5,27,0,27,0,1,,,,,,,,,,,,,,,,,,,,,,,,,,,,,,,,,,,,,,,
,,,,,,,,2023-08-16_08h31.56.122,HF_wild_card,2022.2.4,MacIntel,55.55555556,5f50d2ed14987325962c64dc,64d2fd46c836a06233681665,64dc7b57c943422f0853d2c3,,,,,,,ctch,resources/DB.BMP,resources/DBN.BMP,Door3,0.404076739,-0.032374101,1,0,0,0.75,optionRight,70,11195,5,28,0,28,0,1,,,,,,,,,,,,,,,,,,,,,,,,,,,,,,,,,,,,,,,
,,,,,,,,2023-08-16_08h31.56.122,HF_wild_card,2022.2.4,MacIntel,55.55555556,5f50d2ed14987325962c64dc,64d2fd46c836a06233681665,64dc7b57c943422f0853d2c3,,,,,,,sngl,resources/Empty.png,resources/DR.BMP,WildCard_NonEx,0.450839329,0.038369305,1,0,0,0.601,optionRight,55,11250,5,29,0,29,0,1,,,,,,,,,,,,,,,,,,,,,,,,,,,,,,,,,,,,,,,
,,,,,,,,2023-08-16_08h31.56.122,HF_wild_card,2022.2.4,MacIntel,55.55555556,5f50d2ed14987325962c64dc,64d2fd46c836a06233681665,64dc7b57c943422f0853d2c3,,,,,,,decisionTrl,resources/DP.BMP,resources/DBN.BMP,Door4,-0.435251799,-0.03117506,1,0,0,0.804,optionLeft,60,11310,5,30,0,30,0,1,,,,,,,,,,,,,,,,,,,,,,,,,,,,,,,,,,,,,,,
,,,,,,,,2023-08-16_08h31.56.122,HF_wild_card,2022.2.4,MacIntel,55.55555556,5f50d2ed14987325962c64dc,64d2fd46c836a06233681665,64dc7b57c943422f0853d2c3,,,,,,,decisionTrl,resources/DR.BMP,resources/DBN.BMP,Door3,0.411270983,0.009592326,1,0,0,0.913,optionRight,70,11380,5,31,0,31,0,1,,,,,,,,,,,,,,,,,,,,,,,,,,,,,,,,,,,,,,,
,,,,,,,,2023-08-16_08h31.56.122,HF_wild_card,2022.2.4,MacIntel,55.55555556,5f50d2ed14987325962c64dc,64d2fd46c836a06233681665,64dc7b57c943422f0853d2c3,,,,,,,decisionTrl,resources/DY.BMP,resources/DB.BMP,Door2,0.383693046,-0.091127098,1,0,0,1.64,optionRight,40,11420,5,32,0,32,0,1,,,,,,,,,,,,,,,,,,,,,,,,,,,,,,,,,,,,,,,
,,,,,,,,2023-08-16_08h31.56.122,HF_wild_card,2022.2.4,MacIntel,55.55555556,5f50d2ed14987325962c64dc,64d2fd46c836a06233681665,64dc7b57c943422f0853d2c3,,,,,,,decisionTrl,resources/DY.BMP,resources/DB.BMP,Door2,0.393285372,0.003597122,1,0,0,0.728,optionRight,20,11440,5,33,0,33,0,1,,,,,,,,,,,,,,,,,,,,,,,,,,,,,,,,,,,,,,,
,,,,,,,,2023-08-16_08h31.56.122,HF_wild_card,2022.2.4,MacIntel,55.55555556,5f50d2ed14987325962c64dc,64d2fd46c836a06233681665,64dc7b57c943422f0853d2c3,,,,,,,decisionTrl,resources/DB.BMP,resources/DY.BMP,Door2,-0.419664269,-0.027577938,1,0,0,1.56,optionLeft,20,11460,5,34,0,34,0,1,,,,,,,,,,,,,,,,,,,,,,,,,,,,,,,,,,,,,,,
,,,,,,,,2023-08-16_08h31.56.122,HF_wild_card,2022.2.4,MacIntel,55.55555556,5f50d2ed14987325962c64dc,64d2fd46c836a06233681665,64dc7b57c943422f0853d2c3,,,,,,,decisionTrl,resources/DP.BMP,resources/DBN.BMP,Door3,0.419664269,-0.017985612,1,0,0,1.031,optionRight,70,11530,5,35,0,35,0,1,,,,,,,,,,,,,,,,,,,,,,,,,,,,,,,,,,,,,,,
,,,,,,,,2023-08-16_08h31.56.122,HF_wild_card,2022.2.4,MacIntel,55.55555556,5f50d2ed14987325962c64dc,64d2fd46c836a06233681665,64dc7b57c943422f0853d2c3,,,,,,,sngl,resources/DP.BMP,resources/Empty.png,Door4,-0.419664269,-0.043165468,1,0,0,0.559,optionLeft,80,11610,5,36,0,36,0,1,,,,,,,,,,,,,,,,,,,,,,,,,,,,,,,,,,,,,,,
,,,,,,,,2023-08-16_08h31.56.122,HF_wild_card,2022.2.4,MacIntel,55.55555556,5f50d2ed14987325962c64dc,64d2fd46c836a06233681665,64dc7b57c943422f0853d2c3,,,,,,,decisionTrl,resources/DB.BMP,resources/DY.BMP,Door1,0.384892086,-0.019184652,1,0,0,2.415,optionRight,30,11640,5,37,0,37,0,1,,,,,,,,,,,,,,,,,,,,,,,,,,,,,,,,,,,,,,,
,,,,,,,,2023-08-16_08h31.56.122,HF_wild_card,2022.2.4,MacIntel,55.55555556,5f50d2ed14987325962c64dc,64d2fd46c836a06233681665,64dc7b57c943422f0853d2c3,,,,,,,sngl,resources/Empty.png,resources/DB.BMP,Door2,0.384892086,-0.03117506,1,0,0,0.686,optionRight,20,11660,5,38,0,38,0,1,,,,,,,,,,,,,,,,,,,,,,,,,,,,,,,,,,,,,,,
,,,,,,,,2023-08-16_08h31.56.122,HF_wild_card,2022.2.4,MacIntel,55.55555556,5f50d2ed14987325962c64dc,64d2fd46c836a06233681665,64dc7b57c943422f0853d2c3,,,,,,,decisionTrl,resources/DR.BMP,resources/DY.BMP,WildCard_NonEx,-0.430455635,-0.019184652,1,0,0,0.946,optionLeft,55,11715,5,39,0,39,0,1,,,,,,,,,,,,,,,,,,,,,,,,,,,,,,,,,,,,,,,
,,,,,,,,2023-08-16_08h31.56.122,HF_wild_card,2022.2.4,MacIntel,55.55555556,5f50d2ed14987325962c64dc,64d2fd46c836a06233681665,64dc7b57c943422f0853d2c3,,,,,,,decisionTrl,resources/DR.BMP,resources/DB.BMP,WildCard_NonEx,-0.432853717,-0.027577938,1,0,0,0.993,optionLeft,45,11760,5,40,0,40,0,1,,,,,,,,,,,,,,,,,,,,,,,,,,,,,,,,,,,,,,,
,,,,,,,,2023-08-16_08h31.56.122,HF_wild_card,2022.2.4,MacIntel,55.55555556,5f50d2ed14987325962c64dc,64d2fd46c836a06233681665,64dc7b57c943422f0853d2c3,,,,,,,decisionTrl,resources/DY.BMP,resources/DR.BMP,WildCard_NonEx,0.40647482,-0.059952038,1,0,0,1.151,optionRight,55,11815,5,41,0,41,0,1,,,,,,,,,,,,,,,,,,,,,,,,,,,,,,,,,,,,,,,
,,,,,,,,2023-08-16_08h31.56.122,HF_wild_card,2022.2.4,MacIntel,55.55555556,5f50d2ed14987325962c64dc,64d2fd46c836a06233681665,64dc7b57c943422f0853d2c3,,,,,,,sngl,resources/DB.BMP,resources/Empty.png,Door2,-0.436450839,-0.023980815,1,0,0,0.666,optionLeft,40,11855,5,42,0,42,0,1,,,,,,,,,,,,,,,,,,,,,,,,,,,,,,,,,,,,,,,
,,,,,,,,2023-08-16_08h31.56.122,HF_wild_card,2022.2.4,MacIntel,55.55555556,5f50d2ed14987325962c64dc,64d2fd46c836a06233681665,64dc7b57c943422f0853d2c3,,,,,,,decisionTrl,resources/DP.BMP,resources/DBN.BMP,Door3,0.39088729,-0.040767386,1,0,0,1.315,optionRight,70,11925,5,43,0,43,0,1,,,,,,,,,,,,,,,,,,,,,,,,,,,,,,,,,,,,,,,
,,,,,,,,2023-08-16_08h31.56.122,HF_wild_card,2022.2.4,MacIntel,55.55555556,5f50d2ed14987325962c64dc,64d2fd46c836a06233681665,64dc7b57c943422f0853d2c3,,,,,,,,,,,,,,,,,,,,,,,,,,4,0,4,0,1,,,,,,,,,,,,,,,,,,,,,,,,,,,,,,,,,,
,,,,,,,,2023-08-16_08h31.56.122,HF_wild_card,2022.2.4,MacIntel,55.55555556,5f50d2ed14987325962c64dc,64d2fd46c836a06233681665,64dc7b57c943422f0853d2c3,,,,,,,decisionTrl,resources/DY.BMP,resources/DR.BMP,WildCard_NonEx,0.42206235,-0.064748201,1,0,0,1.058,optionRight,55,11980,6,0,0,0,0,1,,,,,,,,,,,,,,,,,,,,,,,,,,,,,,,,,,,,,,,
,,,,,,,,2023-08-16_08h31.56.122,HF_wild_card,2022.2.4,MacIntel,55.55555556,5f50d2ed14987325962c64dc,64d2fd46c836a06233681665,64dc7b57c943422f0853d2c3,,,,,,,sngl,resources/DBN.BMP,resources/Empty.png,Door3,-0.413669065,-0.019184652,1,0,0,0.698,optionLeft,70,12050,6,1,0,1,0,1,,,,,,,,,,,,,,,,,,,,,,,,,,,,,,,,,,,,,,,
,,,,,,,,2023-08-16_08h31.56.122,HF_wild_card,2022.2.4,MacIntel,55.55555556,5f50d2ed14987325962c64dc,64d2fd46c836a06233681665,64dc7b57c943422f0853d2c3,,,,,,,decisionTrl,resources/DY.BMP,resources/DB.BMP,Door1,-0.40647482,-0.023980815,1,0,0,0.835,optionLeft,30,12080,6,2,0,2,0,1,,,,,,,,,,,,,,,,,,,,,,,,,,,,,,,,,,,,,,,
,,,,,,,,2023-08-16_08h31.56.122,HF_wild_card,2022.2.4,MacIntel,55.55555556,5f50d2ed14987325962c64dc,64d2fd46c836a06233681665,64dc7b57c943422f0853d2c3,,,,,,,decisionTrl,resources/DP.BMP,resources/DBN.BMP,Door3,0.399280576,-0.079136691,1,0,0,1.366,optionRight,70,12150,6,3,0,3,0,1,,,,,,,,,,,,,,,,,,,,,,,,,,,,,,,,,,,,,,,
,,,,,,,,2023-08-16_08h31.56.122,HF_wild_card,2022.2.4,MacIntel,55.55555556,5f50d2ed14987325962c64dc,64d2fd46c836a06233681665,64dc7b57c943422f0853d2c3,,,,,,,decisionTrl,resources/DY.BMP,resources/DB.BMP,Door2,0.616306954,-0.254196643,1,0,0,0.427,optionRight,20,12170,6,4,0,4,0,1,,,,,,,,,,,,,,,,,,,,,,,,,,,,,,,,,,,,,,,
,,,,,,,,2023-08-16_08h31.56.122,HF_wild_card,2022.2.4,MacIntel,55.55555556,5f50d2ed14987325962c64dc,64d2fd46c836a06233681665,64dc7b57c943422f0853d2c3,,,,,,,decisionTrl,resources/DBN.BMP,resources/DP.BMP,Door3,-0.434052758,-0.052757794,1,0,0,1.211,optionLeft,70,12240,6,5,0,5,0,1,,,,,,,,,,,,,,,,,,,,,,,,,,,,,,,,,,,,,,,
,,,,,,,,2023-08-16_08h31.56.122,HF_wild_card,2022.2.4,MacIntel,55.55555556,5f50d2ed14987325962c64dc,64d2fd46c836a06233681665,64dc7b57c943422f0853d2c3,,,,,,,decisionTrl,resources/DB.BMP,resources/DR.BMP,WildCard_NonEx,0.380095923,-0.073141487,1,0,0,1.873,optionRight,45,12285,6,6,0,6,0,1,,,,,,,,,,,,,,,,,,,,,,,,,,,,,,,,,,,,,,,
,,,,,,,,2023-08-16_08h31.56.122,HF_wild_card,2022.2.4,MacIntel,55.55555556,5f50d2ed14987325962c64dc,64d2fd46c836a06233681665,64dc7b57c943422f0853d2c3,,,,,,,ctch,resources/DP.BMP,resources/DY.BMP,Door4,-0.434052758,-0.026378897,1,0,0,1.733,optionLeft,80,12365,6,7,0,7,0,1,,,,,,,,,,,,,,,,,,,,,,,,,,,,,,,,,,,,,,,
,,,,,,,,2023-08-16_08h31.56.122,HF_wild_card,2022.2.4,MacIntel,55.55555556,5f50d2ed14987325962c64dc,64d2fd46c836a06233681665,64dc7b57c943422f0853d2c3,,,,,,,decisionTrl,resources/DY.BMP,resources/DB.BMP,Door2,0.42206235,0.021582734,1,0,0,1.047,optionRight,40,12405,6,8,0,8,0,1,,,,,,,,,,,,,,,,,,,,,,,,,,,,,,,,,,,,,,,
,,,,,,,,2023-08-16_08h31.56.122,HF_wild_card,2022.2.4,MacIntel,55.55555556,5f50d2ed14987325962c64dc,64d2fd46c836a06233681665,64dc7b57c943422f0853d2c3,,,,,,,sngl,resources/DP.BMP,resources/Empty.png,Door4,-0.405275779,-0.008393285,1,0,0,0.559,optionLeft,60,12465,6,9,0,9,0,1,,,,,,,,,,,,,,,,,,,,,,,,,,,,,,,,,,,,,,,
,,,,,,,,2023-08-16_08h31.56.122,HF_wild_card,2022.2.4,MacIntel,55.55555556,5f50d2ed14987325962c64dc,64d2fd46c836a06233681665,64dc7b57c943422f0853d2c3,,,,,,,decisionTrl,resources/DP.BMP,resources/DBN.BMP,Door3,0.442446043,0.035971223,1,0,0,0.897,optionRight,70,12535,6,10,0,10,0,1,,,,,,,,,,,,,,,,,,,,,,,,,,,,,,,,,,,,,,,
,,,,,,,,2023-08-16_08h31.56.122,HF_wild_card,2022.2.4,MacIntel,55.55555556,5f50d2ed14987325962c64dc,64d2fd46c836a06233681665,64dc7b57c943422f0853d2c3,,,,,,,decisionTrl,resources/DB.BMP,resources/DY.BMP,Door2,-0.426858513,-0.033573141,1,0,0,0.849,optionLeft,20,12555,6,11,0,11,0,1,,,,,,,,,,,,,,,,,,,,,,,,,,,,,,,,,,,,,,,
,,,,,,,,2023-08-16_08h31.56.122,HF_wild_card,2022.2.4,MacIntel,55.55555556,5f50d2ed14987325962c64dc,64d2fd46c836a06233681665,64dc7b57c943422f0853d2c3,,,,,,,decisionTrl,resources/DP.BMP,resources/DBN.BMP,Door3,0.429256595,-0.005995204,1,0,0,0.765,optionRight,70,12625,6,12,0,12,0,1,,,,,,,,,,,,,,,,,,,,,,,,,,,,,,,,,,,,,,,
,,,,,,,,2023-08-16_08h31.56.122,HF_wild_card,2022.2.4,MacIntel,55.55555556,5f50d2ed14987325962c64dc,64d2fd46c836a06233681665,64dc7b57c943422f0853d2c3,,,,,,,ctch,resources/DBN.BMP,resources/DB.BMP,Door3,-0.419664269,-0.040767386,1,0,0,0.813,optionLeft,70,12695,6,13,0,13,0,1,,,,,,,,,,,,,,,,,,,,,,,,,,,,,,,,,,,,,,,
,,,,,,,,2023-08-16_08h31.56.122,HF_wild_card,2022.2.4,MacIntel,55.55555556,5f50d2ed14987325962c64dc,64d2fd46c836a06233681665,64dc7b57c943422f0853d2c3,,,,,,,decisionTrl,resources/DBN.BMP,resources/DP.BMP,Door3,-0.410071942,-0.013189448,1,0,0,0.996,optionLeft,70,12765,6,14,0,14,0,1,,,,,,,,,,,,,,,,,,,,,,,,,,,,,,,,,,,,,,,
,,,,,,,,2023-08-16_08h31.56.122,HF_wild_card,2022.2.4,MacIntel,55.55555556,5f50d2ed14987325962c64dc,64d2fd46c836a06233681665,64dc7b57c943422f0853d2c3,,,,,,,ctch,resources/DP.BMP,resources/DY.BMP,Door4,-0.431654676,-0.028776978,1,0,0,0.679,optionLeft,60,12825,6,15,0,15,0,1,,,,,,,,,,,,,,,,,,,,,,,,,,,,,,,,,,,,,,,
,,,,,,,,2023-08-16_08h31.56.122,HF_wild_card,2022.2.4,MacIntel,55.55555556,5f50d2ed14987325962c64dc,64d2fd46c836a06233681665,64dc7b57c943422f0853d2c3,,,,,,,decisionTrl,resources/DR.BMP,resources/DP.BMP,Door4,0.420863309,-0.050359712,1,0,0,2.579,optionRight,60,12885,6,16,0,16,0,1,,,,,,,,,,,,,,,,,,,,,,,,,,,,,,,,,,,,,,,
,,,,,,,,2023-08-16_08h31.56.122,HF_wild_card,2022.2.4,MacIntel,55.55555556,5f50d2ed14987325962c64dc,64d2fd46c836a06233681665,64dc7b57c943422f0853d2c3,,,,,,,sngl,resources/Empty.png,resources/DR.BMP,WildCard_NonEx,0.479616307,-0.10911271,1,0,0,0.835,optionRight,45,12930,6,17,0,17,0,1,,,,,,,,,,,,,,,,,,,,,,,,,,,,,,,,,,,,,,,
,,,,,,,,2023-08-16_08h31.56.122,HF_wild_card,2022.2.4,MacIntel,55.55555556,5f50d2ed14987325962c64dc,64d2fd46c836a06233681665,64dc7b57c943422f0853d2c3,,,,,,,ctch,resources/DBN.BMP,resources/DB.BMP,Door3,-0.516786571,-0.043165468,1,0,0,0.652,optionLeft,70,13000,6,18,0,18,0,1,,,,,,,,,,,,,,,,,,,,,,,,,,,,,,,,,,,,,,,
,,,,,,,,2023-08-16_08h31.56.122,HF_wild_card,2022.2.4,MacIntel,55.55555556,5f50d2ed14987325962c64dc,64d2fd46c836a06233681665,64dc7b57c943422f0853d2c3,,,,,,,decisionTrl,resources/DR.BMP,resources/DBN.BMP,Door3,0.43764988,0.061151079,1,0,0,0.565,optionRight,70,13070,6,19,0,19,0,1,,,,,,,,,,,,,,,,,,,,,,,,,,,,,,,,,,,,,,,
,,,,,,,,2023-08-16_08h31.56.122,HF_wild_card,2022.2.4,MacIntel,55.55555556,5f50d2ed14987325962c64dc,64d2fd46c836a06233681665,64dc7b57c943422f0853d2c3,,,,,,,sngl,resources/Empty.png,resources/DBN.BMP,Door3,0.350119904,-0.023980815,1,0,0,0.552,optionRight,70,13140,6,20,0,20,0,1,,,,,,,,,,,,,,,,,,,,,,,,,,,,,,,,,,,,,,,
,,,,,,,,2023-08-16_08h31.56.122,HF_wild_card,2022.2.4,MacIntel,55.55555556,5f50d2ed14987325962c64dc,64d2fd46c836a06233681665,64dc7b57c943422f0853d2c3,,,,,,,sngl,resources/Empty.png,resources/DB.BMP,Door2,0.347721823,-0.067146283,1,0,0,0.868,optionRight,40,13180,6,21,0,21,0,1,,,,,,,,,,,,,,,,,,,,,,,,,,,,,,,,,,,,,,,
,,,,,,,,2023-08-16_08h31.56.122,HF_wild_card,2022.2.4,MacIntel,55.55555556,5f50d2ed14987325962c64dc,64d2fd46c836a06233681665,64dc7b57c943422f0853d2c3,,,,,,,decisionTrl,resources/DR.BMP,resources/DY.BMP,WildCard_NonEx,-0.508393285,-0.007194245,1,0,0,0.621,optionLeft,55,13235,6,22,0,22,0,1,,,,,,,,,,,,,,,,,,,,,,,,,,,,,,,,,,,,,,,
,,,,,,,,2023-08-16_08h31.56.122,HF_wild_card,2022.2.4,MacIntel,55.55555556,5f50d2ed14987325962c64dc,64d2fd46c836a06233681665,64dc7b57c943422f0853d2c3,,,,,,,sngl,resources/DR.BMP,resources/Empty.png,WildCard_NonEx,-0.521582734,-0.017985612,1,0,0,0.41,optionLeft,45,13280,6,23,0,23,0,1,,,,,,,,,,,,,,,,,,,,,,,,,,,,,,,,,,,,,,,
,,,,,,,,2023-08-16_08h31.56.122,HF_wild_card,2022.2.4,MacIntel,55.55555556,5f50d2ed14987325962c64dc,64d2fd46c836a06233681665,64dc7b57c943422f0853d2c3,,,,,,,decisionTrl,resources/DBN.BMP,resources/DR.BMP,Door3,-0.522781775,-0.008393285,1,0,0,0.962,optionLeft,70,13350,6,24,0,24,0,1,,,,,,,,,,,,,,,,,,,,,,,,,,,,,,,,,,,,,,,
,,,,,,,,2023-08-16_08h31.56.122,HF_wild_card,2022.2.4,MacIntel,55.55555556,5f50d2ed14987325962c64dc,64d2fd46c836a06233681665,64dc7b57c943422f0853d2c3,,,,,,,decisionTrl,resources/DB.BMP,resources/DY.BMP,Door1,0.398081535,0.017985612,1,0,0,1.819,optionRight,30,13380,6,25,0,25,0,1,,,,,,,,,,,,,,,,,,,,,,,,,,,,,,,,,,,,,,,
,,,,,,,,2023-08-16_08h31.56.122,HF_wild_card,2022.2.4,MacIntel,55.55555556,5f50d2ed14987325962c64dc,64d2fd46c836a06233681665,64dc7b57c943422f0853d2c3,,,,,,,decisionTrl,resources/DR.BMP,resources/DB.BMP,WildCard_NonEx,-0.522781775,-0.020383693,1,0,0,1.094,optionLeft,45,13425,6,26,0,26,0,1,,,,,,,,,,,,,,,,,,,,,,,,,,,,,,,,,,,,,,,
,,,,,,,,2023-08-16_08h31.56.122,HF_wild_card,2022.2.4,MacIntel,55.55555556,5f50d2ed14987325962c64dc,64d2fd46c836a06233681665,64dc7b57c943422f0853d2c3,,,,,,,decisionTrl,resources/DBN.BMP,resources/DP.BMP,Door3,-0.505995204,-0.03117506,1,0,0,0.493,optionLeft,70,13495,6,27,0,27,0,1,,,,,,,,,,,,,,,,,,,,,,,,,,,,,,,,,,,,,,,
,,,,,,,,2023-08-16_08h31.56.122,HF_wild_card,2022.2.4,MacIntel,55.55555556,5f50d2ed14987325962c64dc,64d2fd46c836a06233681665,64dc7b57c943422f0853d2c3,,,,,,,sngl,resources/Empty.png,resources/DR.BMP,WildCard_NonEx,0.341726619,-0.033573141,1,0,0,0.527,optionRight,55,13550,6,28,0,28,0,1,,,,,,,,,,,,,,,,,,,,,,,,,,,,,,,,,,,,,,,
,,,,,,,,2023-08-16_08h31.56.122,HF_wild_card,2022.2.4,MacIntel,55.55555556,5f50d2ed14987325962c64dc,64d2fd46c836a06233681665,64dc7b57c943422f0853d2c3,,,,,,,decisionTrl,resources/DY.BMP,resources/DB.BMP,Door2,0.342925659,-0.107913669,1,0,0,1.975,optionRight,20,13570,6,29,0,29,0,1,,,,,,,,,,,,,,,,,,,,,,,,,,,,,,,,,,,,,,,
,,,,,,,,2023-08-16_08h31.56.122,HF_wild_card,2022.2.4,MacIntel,55.55555556,5f50d2ed14987325962c64dc,64d2fd46c836a06233681665,64dc7b57c943422f0853d2c3,,,,,,,sngl,resources/DR.BMP,resources/Empty.png,WildCard_NonEx,-0.520383693,-0.025179856,1,0,0,0.422,optionLeft,55,13625,6,30,0,30,0,1,,,,,,,,,,,,,,,,,,,,,,,,,,,,,,,,,,,,,,,
,,,,,,,,2023-08-16_08h31.56.122,HF_wild_card,2022.2.4,MacIntel,55.55555556,5f50d2ed14987325962c64dc,64d2fd46c836a06233681665,64dc7b57c943422f0853d2c3,,,,,,,sngl,resources/Empty.png,resources/DP.BMP,Door4,0.290167866,0.002398082,1,0,0,0.565,optionRight,80,13705,6,31,0,31,0,1,,,,,,,,,,,,,,,,,,,,,,,,,,,,,,,,,,,,,,,
,,,,,,,,2023-08-16_08h31.56.122,HF_wild_card,2022.2.4,MacIntel,55.55555556,5f50d2ed14987325962c64dc,64d2fd46c836a06233681665,64dc7b57c943422f0853d2c3,,,,,,,sngl,resources/Empty.png,resources/DY.BMP,Door1,0.338129496,0.052757794,1,0,0,0.557,optionRight,30,13735,6,32,0,32,0,1,,,,,,,,,,,,,,,,,,,,,,,,,,,,,,,,,,,,,,,
,,,,,,,,2023-08-16_08h31.56.122,HF_wild_card,2022.2.4,MacIntel,55.55555556,5f50d2ed14987325962c64dc,64d2fd46c836a06233681665,64dc7b57c943422f0853d2c3,,,,,,,decisionTrl,resources/DP.BMP,resources/DBN.BMP,Door3,0.340527578,0.047961631,1,0,0,0.891,optionRight,70,13805,6,33,0,33,0,1,,,,,,,,,,,,,,,,,,,,,,,,,,,,,,,,,,,,,,,
,,,,,,,,2023-08-16_08h31.56.122,HF_wild_card,2022.2.4,MacIntel,55.55555556,5f50d2ed14987325962c64dc,64d2fd46c836a06233681665,64dc7b57c943422f0853d2c3,,,,,,,decisionTrl,resources/DB.BMP,resources/DY.BMP,Door1,0.364508393,-0.04676259,1,0,0,1.588,optionRight,30,13835,6,34,0,34,0,1,,,,,,,,,,,,,,,,,,,,,,,,,,,,,,,,,,,,,,,
,,,,,,,,2023-08-16_08h31.56.122,HF_wild_card,2022.2.4,MacIntel,55.55555556,5f50d2ed14987325962c64dc,64d2fd46c836a06233681665,64dc7b57c943422f0853d2c3,,,,,,,ctch,resources/DY.BMP,resources/DP.BMP,Door4,0.329736211,-0.190647482,1,0,0,1.098,optionRight,60,13895,6,35,0,35,0,1,,,,,,,,,,,,,,,,,,,,,,,,,,,,,,,,,,,,,,,
,,,,,,,,2023-08-16_08h31.56.122,HF_wild_card,2022.2.4,MacIntel,55.55555556,5f50d2ed14987325962c64dc,64d2fd46c836a06233681665,64dc7b57c943422f0853d2c3,,,,,,,decisionTrl,resources/DP.BMP,resources/DR.BMP,Door4,-0.534772182,-0.028776978,1,0,0,0.978,optionLeft,80,13975,6,36,0,36,0,1,,,,,,,,,,,,,,,,,,,,,,,,,,,,,,,,,,,,,,,
,,,,,,,,2023-08-16_08h31.56.122,HF_wild_card,2022.2.4,MacIntel,55.55555556,5f50d2ed14987325962c64dc,64d2fd46c836a06233681665,64dc7b57c943422f0853d2c3,,,,,,,decisionTrl,resources/DBN.BMP,resources/DP.BMP,Door3,-0.527577938,-0.021582734,1,0,0,0.895,optionLeft,70,14045,6,37,0,37,0,1,,,,,,,,,,,,,,,,,,,,,,,,,,,,,,,,,,,,,,,
,,,,,,,,2023-08-16_08h31.56.122,HF_wild_card,2022.2.4,MacIntel,55.55555556,5f50d2ed14987325962c64dc,64d2fd46c836a06233681665,64dc7b57c943422f0853d2c3,,,,,,,sngl,resources/DB.BMP,resources/Empty.png,Door2,-0.527577938,-0.022781775,1,0,0,0.525,optionLeft,20,14065,6,38,0,38,0,1,,,,,,,,,,,,,,,,,,,,,,,,,,,,,,,,,,,,,,,
,,,,,,,,2023-08-16_08h31.56.122,HF_wild_card,2022.2.4,MacIntel,55.55555556,5f50d2ed14987325962c64dc,64d2fd46c836a06233681665,64dc7b57c943422f0853d2c3,,,,,,,ctch,resources/DB.BMP,resources/DBN.BMP,Door3,0.350119904,-0.069544365,1,0,0,1.259,optionRight,70,14135,6,39,0,39,0,1,,,,,,,,,,,,,,,,,,,,,,,,,,,,,,,,,,,,,,,
,,,,,,,,2023-08-16_08h31.56.122,HF_wild_card,2022.2.4,MacIntel,55.55555556,5f50d2ed14987325962c64dc,64d2fd46c836a06233681665,64dc7b57c943422f0853d2c3,,,,,,,sngl,resources/DY.BMP,resources/Empty.png,Door1,-0.534772182,-0.017985612,1,0,0,0.638,optionLeft,30,14165,6,40,0,40,0,1,,,,,,,,,,,,,,,,,,,,,,,,,,,,,,,,,,,,,,,
,,,,,,,,2023-08-16_08h31.56.122,HF_wild_card,2022.2.4,MacIntel,55.55555556,5f50d2ed14987325962c64dc,64d2fd46c836a06233681665,64dc7b57c943422f0853d2c3,,,,,,,decisionTrl,resources/DB.BMP,resources/DY.BMP,Door1,0.404076739,-0.011990408,1,0,0,2.13,optionRight,30,14195,6,41,0,41,0,1,,,,,,,,,,,,,,,,,,,,,,,,,,,,,,,,,,,,,,,
,,,,,,,,2023-08-16_08h31.56.122,HF_wild_card,2022.2.4,MacIntel,55.55555556,5f50d2ed14987325962c64dc,64d2fd46c836a06233681665,64dc7b57c943422f0853d2c3,,,,,,,ctch,resources/DY.BMP,resources/DP.BMP,Door4,0.35971223,0.021582734,1,0,0,2.094,optionRight,80,14275,6,42,0,42,0,1,,,,,,,,,,,,,,,,,,,,,,,,,,,,,,,,,,,,,,,
,,,,,,,,2023-08-16_08h31.56.122,HF_wild_card,2022.2.4,MacIntel,55.55555556,5f50d2ed14987325962c64dc,64d2fd46c836a06233681665,64dc7b57c943422f0853d2c3,,,,,,,ctch,resources/DB.BMP,resources/DBN.BMP,Door3,0.413669065,0.027577938,1,0,0,0.744,optionRight,70,14345,6,43,0,43,0,1,,,,,,,,,,,,,,,,,,,,,,,,,,,,,,,,,,,,,,,
,,,,,,,,2023-08-16_08h31.56.122,HF_wild_card,2022.2.4,MacIntel,55.55555556,5f50d2ed14987325962c64dc,64d2fd46c836a06233681665,64dc7b57c943422f0853d2c3,,,,,,,,,,,,,,,,,,,,,,,,,,5,0,5,0,1,,,,,,,,,,,,,,,,,,,,,,,,,,,,,,,,,,
,,,,,,,,2023-08-16_08h31.56.122,HF_wild_card,2022.2.4,MacIntel,55.55555556,5f50d2ed14987325962c64dc,64d2fd46c836a06233681665,64dc7b57c943422f0853d2c3,,,,,,,ctch,resources/DP.BMP,resources/DY.BMP,Door4,-0.555155875,-0.014388489,1,0,0,0.627,optionLeft,80,14425,7,0,0,0,0,1,,,,,,,,,,,,,,,,,,,,,,,,,,,,,,,,,,,,,,,
,,,,,,,,2023-08-16_08h31.56.122,HF_wild_card,2022.2.4,MacIntel,55.55555556,5f50d2ed14987325962c64dc,64d2fd46c836a06233681665,64dc7b57c943422f0853d2c3,,,,,,,decisionTrl,resources/DB.BMP,resources/DY.BMP,Door1,0.411270983,-0.104316547,1,0,0,1.42,optionRight,30,14455,7,1,0,1,0,1,,,,,,,,,,,,,,,,,,,,,,,,,,,,,,,,,,,,,,,
,,,,,,,,2023-08-16_08h31.56.122,HF_wild_card,2022.2.4,MacIntel,55.55555556,5f50d2ed14987325962c64dc,64d2fd46c836a06233681665,64dc7b57c943422f0853d2c3,,,,,,,ctch,resources/DBN.BMP,resources/DB.BMP,Door3,-0.534772182,-0.020383693,1,0,0,0.591,optionLeft,70,14525,7,2,0,2,0,1,,,,,,,,,,,,,,,,,,,,,,,,,,,,,,,,,,,,,,,
,,,,,,,,2023-08-16_08h31.56.122,HF_wild_card,2022.2.4,MacIntel,55.55555556,5f50d2ed14987325962c64dc,64d2fd46c836a06233681665,64dc7b57c943422f0853d2c3,,,,,,,decisionTrl,resources/DBN.BMP,resources/DP.BMP,Door3,-0.528776978,-0.021582734,1,0,0,1.252,optionLeft,70,14595,7,3,0,3,0,1,,,,,,,,,,,,,,,,,,,,,,,,,,,,,,,,,,,,,,,
,,,,,,,,2023-08-16_08h31.56.122,HF_wild_card,2022.2.4,MacIntel,55.55555556,5f50d2ed14987325962c64dc,64d2fd46c836a06233681665,64dc7b57c943422f0853d2c3,,,,,,,decisionTrl,resources/DB.BMP,resources/DY.BMP,Door1,0.363309353,-0.075539568,1,0,0,1.131,optionRight,30,14625,7,4,0,4,0,1,,,,,,,,,,,,,,,,,,,,,,,,,,,,,,,,,,,,,,,
,,,,,,,,2023-08-16_08h31.56.122,HF_wild_card,2022.2.4,MacIntel,55.55555556,5f50d2ed14987325962c64dc,64d2fd46c836a06233681665,64dc7b57c943422f0853d2c3,,,,,,,ctch,resources/DBN.BMP,resources/DB.BMP,Door3,-0.520383693,-0.017985612,1,0,0,0.584,optionLeft,70,14695,7,5,0,5,0,1,,,,,,,,,,,,,,,,,,,,,,,,,,,,,,,,,,,,,,,
,,,,,,,,2023-08-16_08h31.56.122,HF_wild_card,2022.2.4,MacIntel,55.55555556,5f50d2ed14987325962c64dc,64d2fd46c836a06233681665,64dc7b57c943422f0853d2c3,,,,,,,decisionTrl,resources/DY.BMP,resources/DB.BMP,Door1,-0.522781775,-0.016786571,1,0,0,1.216,optionLeft,30,14725,7,6,0,6,0,1,,,,,,,,,,,,,,,,,,,,,,,,,,,,,,,,,,,,,,,
,,,,,,,,2023-08-16_08h31.56.122,HF_wild_card,2022.2.4,MacIntel,55.55555556,5f50d2ed14987325962c64dc,64d2fd46c836a06233681665,64dc7b57c943422f0853d2c3,,,,,,,ctch,resources/DBN.BMP,resources/DB.BMP,Door3,-0.525179856,-0.010791367,1,0,0,0.621,optionLeft,70,14795,7,7,0,7,0,1,,,,,,,,,,,,,,,,,,,,,,,,,,,,,,,,,,,,,,,
,,,,,,,,2023-08-16_08h31.56.122,HF_wild_card,2022.2.4,MacIntel,55.55555556,5f50d2ed14987325962c64dc,64d2fd46c836a06233681665,64dc7b57c943422f0853d2c3,,,,,,,ctch,resources/DY.BMP,resources/DP.BMP,Door4,0.405275779,-0.034772182,1,0,0,1.04,optionRight,80,14875,7,8,0,8,0,1,,,,,,,,,,,,,,,,,,,,,,,,,,,,,,,,,,,,,,,
,,,,,,,,2023-08-16_08h31.56.122,HF_wild_card,2022.2.4,MacIntel,55.55555556,5f50d2ed14987325962c64dc,64d2fd46c836a06233681665,64dc7b57c943422f0853d2c3,,,,,,,decisionTrl,resources/DBN.BMP,resources/DP.BMP,Door3,-0.527577938,-0.019184652,1,0,0,0.764,optionLeft,70,14945,7,9,0,9,0,1,,,,,,,,,,,,,,,,,,,,,,,,,,,,,,,,,,,,,,,
,,,,,,,,2023-08-16_08h31.56.122,HF_wild_card,2022.2.4,MacIntel,55.55555556,5f50d2ed14987325962c64dc,64d2fd46c836a06233681665,64dc7b57c943422f0853d2c3,,,,,,,decisionTrl,resources/DY.BMP,resources/DB.BMP,Door1,-0.525179856,-0.017985612,1,0,0,0.951,optionLeft,30,14975,7,10,0,10,0,1,,,,,,,,,,,,,,,,,,,,,,,,,,,,,,,,,,,,,,,
,,,,,,,,2023-08-16_08h31.56.122,HF_wild_card,2022.2.4,MacIntel,55.55555556,5f50d2ed14987325962c64dc,64d2fd46c836a06233681665,64dc7b57c943422f0853d2c3,,,,,,,decisionTrl,resources/DY.BMP,resources/DB.BMP,Door1,-0.517985612,-0.021582734,1,0,0,0.542,optionLeft,30,15005,7,11,0,11,0,1,,,,,,,,,,,,,,,,,,,,,,,,,,,,,,,,,,,,,,,
,,,,,,,,2023-08-16_08h31.56.122,HF_wild_card,2022.2.4,MacIntel,55.55555556,5f50d2ed14987325962c64dc,64d2fd46c836a06233681665,64dc7b57c943422f0853d2c3,,,,,,,decisionTrl,resources/DBN.BMP,resources/DP.BMP,Door3,-0.522781775,-0.020383693,1,0,0,1.141,optionLeft,70,15075,7,12,0,12,0,1,,,,,,,,,,,,,,,,,,,,,,,,,,,,,,,,,,,,,,,
,,,,,,,,2023-08-16_08h31.56.122,HF_wild_card,2022.2.4,MacIntel,55.55555556,5f50d2ed14987325962c64dc,64d2fd46c836a06233681665,64dc7b57c943422f0853d2c3,,,,,,,ctch,resources/DB.BMP,resources/DBN.BMP,Door3,0.306954436,-0.016786571,1,0,0,0.751,optionRight,70,15145,7,13,0,13,0,1,,,,,,,,,,,,,,,,,,,,,,,,,,,,,,,,,,,,,,,
,,,,,,,,2023-08-16_08h31.56.122,HF_wild_card,2022.2.4,MacIntel,55.55555556,5f50d2ed14987325962c64dc,64d2fd46c836a06233681665,64dc7b57c943422f0853d2c3,,,,,,,decisionTrl,resources/DBN.BMP,resources/DP.BMP,Door3,-0.528776978,-0.008393285,1,0,0,0.763,optionLeft,70,15215,7,14,0,14,0,1,,,,,,,,,,,,,,,,,,,,,,,,,,,,,,,,,,,,,,,
,,,,,,,,2023-08-16_08h31.56.122,HF_wild_card,2022.2.4,MacIntel,55.55555556,5f50d2ed14987325962c64dc,64d2fd46c836a06233681665,64dc7b57c943422f0853d2c3,,,,,,,ctch,resources/DP.BMP,resources/DY.BMP,Door4,-0.523980815,-0.01558753,1,0,0,0.645,optionLeft,80,15295,7,15,0,15,0,1,,,,,,,,,,,,,,,,,,,,,,,,,,,,,,,,,,,,,,,
,,,,,,,,2023-08-16_08h31.56.122,HF_wild_card,2022.2.4,MacIntel,55.55555556,5f50d2ed14987325962c64dc,64d2fd46c836a06233681665,64dc7b57c943422f0853d2c3,,,,,,,decisionTrl,resources/DP.BMP,resources/DBN.BMP,Door3,0.408872902,-0.037170264,1,0,0,0.714,optionRight,70,15365,7,16,0,16,0,1,,,,,,,,,,,,,,,,,,,,,,,,,,,,,,,,,,,,,,,
,,,,,,,,2023-08-16_08h31.56.122,HF_wild_card,2022.2.4,MacIntel,55.55555556,5f50d2ed14987325962c64dc,64d2fd46c836a06233681665,64dc7b57c943422f0853d2c3,,,,,,,decisionTrl,resources/DP.BMP,resources/DBN.BMP,Door3,0.392086331,0.011990408,1,0,0,0.681,optionRight,70,15435,7,17,0,17,0,1,,,,,,,,,,,,,,,,,,,,,,,,,,,,,,,,,,,,,,,
,,,,,,,,2023-08-16_08h31.56.122,HF_wild_card,2022.2.4,MacIntel,55.55555556,5f50d2ed14987325962c64dc,64d2fd46c836a06233681665,64dc7b57c943422f0853d2c3,,,,,,,decisionTrl,resources/DP.BMP,resources/DBN.BMP,Door3,0.309352518,-0.074340528,1,0,0,0.658,optionRight,70,15505,7,18,0,18,0,1,,,,,,,,,,,,,,,,,,,,,,,,,,,,,,,,,,,,,,,
,,,,,,,,2023-08-16_08h31.56.122,HF_wild_card,2022.2.4,MacIntel,55.55555556,5f50d2ed14987325962c64dc,64d2fd46c836a06233681665,64dc7b57c943422f0853d2c3,,,,,,,decisionTrl,resources/DBN.BMP,resources/DP.BMP,Door3,-0.505995204,-0.03117506,1,0,0,0.531,optionLeft,70,15575,7,19,0,19,0,1,,,,,,,,,,,,,,,,,,,,,,,,,,,,,,,,,,,,,,,
,,,,,,,,2023-08-16_08h31.56.122,HF_wild_card,2022.2.4,MacIntel,55.55555556,5f50d2ed14987325962c64dc,64d2fd46c836a06233681665,64dc7b57c943422f0853d2c3,,,,,,,decisionTrl,resources/DY.BMP,resources/DB.BMP,Door1,-0.529976019,-0.022781775,1,0,0,0.863,optionLeft,30,15605,7,20,0,20,0,1,,,,,,,,,,,,,,,,,,,,,,,,,,,,,,,,,,,,,,,
,,,,,,,,2023-08-16_08h31.56.122,HF_wild_card,2022.2.4,MacIntel,55.55555556,5f50d2ed14987325962c64dc,64d2fd46c836a06233681665,64dc7b57c943422f0853d2c3,,,,,,,decisionTrl,resources/DBN.BMP,resources/DP.BMP,Door3,-0.517985612,-0.026378897,1,0,0,0.503,optionLeft,70,15675,7,21,0,21,0,1,,,,,,,,,,,,,,,,,,,,,,,,,,,,,,,,,,,,,,,
,,,,,,,,2023-08-16_08h31.56.122,HF_wild_card,2022.2.4,MacIntel,55.55555556,5f50d2ed14987325962c64dc,64d2fd46c836a06233681665,64dc7b57c943422f0853d2c3,,,,,,,ctch,resources/DP.BMP,resources/DY.BMP,Door4,-0.532374101,-0.017985612,1,0,0,0.78,optionLeft,60,15735,7,22,0,22,0,1,,,,,,,,,,,,,,,,,,,,,,,,,,,,,,,,,,,,,,,
,,,,,,,,2023-08-16_08h31.56.122,HF_wild_card,2022.2.4,MacIntel,55.55555556,5f50d2ed14987325962c64dc,64d2fd46c836a06233681665,64dc7b57c943422f0853d2c3,,,,,,,ctch,resources/DB.BMP,resources/DBN.BMP,Door3,0.31294964,-0.099520384,1,0,0,0.711,optionRight,70,15805,7,23,0,23,0,1,,,,,,,,,,,,,,,,,,,,,,,,,,,,,,,,,,,,,,,
,,,,,,,,2023-08-16_08h31.56.122,HF_wild_card,2022.2.4,MacIntel,55.55555556,5f50d2ed14987325962c64dc,64d2fd46c836a06233681665,64dc7b57c943422f0853d2c3,,,,,,,decisionTrl,resources/DY.BMP,resources/DB.BMP,Door1,-0.538369305,-0.019184652,1,0,0,0.603,optionLeft,30,15835,7,24,0,24,0,1,,,,,,,,,,,,,,,,,,,,,,,,,,,,,,,,,,,,,,,
,,,,,,,,2023-08-16_08h31.56.122,HF_wild_card,2022.2.4,MacIntel,55.55555556,5f50d2ed14987325962c64dc,64d2fd46c836a06233681665,64dc7b57c943422f0853d2c3,,,,,,,decisionTrl,resources/DY.BMP,resources/DB.BMP,Door1,-0.535971223,-0.020383693,1,0,0,0.53,optionLeft,30,15865,7,25,0,25,0,1,,,,,,,,,,,,,,,,,,,,,,,,,,,,,,,,,,,,,,,
,,,,,,,,2023-08-16_08h31.56.122,HF_wild_card,2022.2.4,MacIntel,55.55555556,5f50d2ed14987325962c64dc,64d2fd46c836a06233681665,64dc7b57c943422f0853d2c3,,,,,,,ctch,resources/DY.BMP,resources/DP.BMP,Door4,0.315347722,-0.169064748,1,0,0,0.976,optionRight,80,15945,7,26,0,26,0,1,,,,,,,,,,,,,,,,,,,,,,,,,,,,,,,,,,,,,,,
,,,,,,,,2023-08-16_08h31.56.122,HF_wild_card,2022.2.4,MacIntel,55.55555556,5f50d2ed14987325962c64dc,64d2fd46c836a06233681665,64dc7b57c943422f0853d2c3,,,,,,,ctch,resources/DY.BMP,resources/DP.BMP,Door4,0.318944844,-0.034772182,1,0,0,0.56,optionRight,80,16025,7,27,0,27,0,1,,,,,,,,,,,,,,,,,,,,,,,,,,,,,,,,,,,,,,,
,,,,,,,,2023-08-16_08h31.56.122,HF_wild_card,2022.2.4,MacIntel,55.55555556,5f50d2ed14987325962c64dc,64d2fd46c836a06233681665,64dc7b57c943422f0853d2c3,,,,,,,decisionTrl,resources/DB.BMP,resources/DY.BMP,Door1,0.353717026,-0.107913669,1,0,0,0.985,optionRight,30,16055,7,28,0,28,0,1,,,,,,,,,,,,,,,,,,,,,,,,,,,,,,,,,,,,,,,
,,,,,,,,2023-08-16_08h31.56.122,HF_wild_card,2022.2.4,MacIntel,55.55555556,5f50d2ed14987325962c64dc,64d2fd46c836a06233681665,64dc7b57c943422f0853d2c3,,,,,,,decisionTrl,resources/DP.BMP,resources/DBN.BMP,Door3,0.340527578,-0.09352518,1,0,0,0.874,optionRight,70,16125,7,29,0,29,0,1,,,,,,,,,,,,,,,,,,,,,,,,,,,,,,,,,,,,,,,
,,,,,,,,2023-08-16_08h31.56.122,HF_wild_card,2022.2.4,MacIntel,55.55555556,5f50d2ed14987325962c64dc,64d2fd46c836a06233681665,64dc7b57c943422f0853d2c3,,,,,,,decisionTrl,resources/DP.BMP,resources/DBN.BMP,Door3,0.322541966,-0.047961631,1,0,0,0.782,optionRight,70,16195,7,30,0,30,0,1,,,,,,,,,,,,,,,,,,,,,,,,,,,,,,,,,,,,,,,
,,,,,,,,2023-08-16_08h31.56.122,HF_wild_card,2022.2.4,MacIntel,55.55555556,5f50d2ed14987325962c64dc,64d2fd46c836a06233681665,64dc7b57c943422f0853d2c3,,,,,,,decisionTrl,resources/DB.BMP,resources/DY.BMP,Door1,0.350119904,-0.070743405,1,0,0,0.953,optionRight,30,16225,7,31,0,31,0,1,,,,,,,,,,,,,,,,,,,,,,,,,,,,,,,,,,,,,,,
,,,,,,,,2023-08-16_08h31.56.122,HF_wild_card,2022.2.4,MacIntel,55.55555556,5f50d2ed14987325962c64dc,64d2fd46c836a06233681665,64dc7b57c943422f0853d2c3,,,,,,,decisionTrl,resources/DP.BMP,resources/DBN.BMP,Door3,0.309352518,-0.107913669,1,0,0,0.83,optionRight,70,16295,7,32,0,32,0,1,,,,,,,,,,,,,,,,,,,,,,,,,,,,,,,,,,,,,,,
,,,,,,,,2023-08-16_08h31.56.122,HF_wild_card,2022.2.4,MacIntel,55.55555556,5f50d2ed14987325962c64dc,64d2fd46c836a06233681665,64dc7b57c943422f0853d2c3,,,,,,,ctch,resources/DB.BMP,resources/DBN.BMP,Door3,0.370503597,-0.037170264,1,0,0,0.667,optionRight,70,16365,7,33,0,33,0,1,,,,,,,,,,,,,,,,,,,,,,,,,,,,,,,,,,,,,,,
,,,,,,,,2023-08-16_08h31.56.122,HF_wild_card,2022.2.4,MacIntel,55.55555556,5f50d2ed14987325962c64dc,64d2fd46c836a06233681665,64dc7b57c943422f0853d2c3,,,,,,,decisionTrl,resources/DB.BMP,resources/DY.BMP,Door1,0.330935252,-0.149880096,1,0,0,0.904,optionRight,30,16395,7,34,0,34,0,1,,,,,,,,,,,,,,,,,,,,,,,,,,,,,,,,,,,,,,,
,,,,,,,,2023-08-16_08h31.56.122,HF_wild_card,2022.2.4,MacIntel,55.55555556,5f50d2ed14987325962c64dc,64d2fd46c836a06233681665,64dc7b57c943422f0853d2c3,,,,,,,decisionTrl,resources/DB.BMP,resources/DY.BMP,Door1,0.323741007,-0.110311751,1,0,0,0.682,optionRight,30,16425,7,35,0,35,0,1,,,,,,,,,,,,,,,,,,,,,,,,,,,,,,,,,,,,,,,
,,,,,,,,2023-08-16_08h31.56.122,HF_wild_card,2022.2.4,MacIntel,55.55555556,5f50d2ed14987325962c64dc,64d2fd46c836a06233681665,64dc7b57c943422f0853d2c3,,,,,,,,,,,,,,,,,,,,,,,,,,6,0,6,0,1,,,,,,,,,,,,,,,,,,,,,,,,,,,,,,,,,,
,,,,,,,,2023-08-16_08h31.56.122,HF_wild_card,2022.2.4,MacIntel,55.55555556,5f50d2ed14987325962c64dc,64d2fd46c836a06233681665,64dc7b57c943422f0853d2c3,,,,,,,,,,,,,,,,,,,,,,,,,,,,,,,4,,,,,,,,,,,,,,,,,,,,,,,,,,,,,,,,,
,,,,,,,,2023-08-16_08h31.56.122,HF_wild_card,2022.2.4,MacIntel,55.55555556,5f50d2ed14987325962c64dc,64d2fd46c836a06233681665,64dc7b57c943422f0853d2c3,,,,,,,,,,,,,,,,,,,,,,,,,,,,,,,,,,,,,,,,,,,,,,,,,,,,,,,,,,,,,,,,
,,,,,,,,2023-08-16_08h31.56.122,HF_wild_card,2022.2.4,MacIntel,55.55555556,5f50d2ed14987325962c64dc,64d2fd46c836a06233681665,64dc7b57c943422f0853d2c3,,,,,,,,,,,,,,,,,,,,,,,,,,,,,,,,30,Door1,resources/DY.BMP,0,0,0,0,1,,,,,,,,,,,,,,,,,,,,,,,,,
,,,,,,,,2023-08-16_08h31.56.122,HF_wild_card,2022.2.4,MacIntel,55.55555556,5f50d2ed14987325962c64dc,64d2fd46c836a06233681665,64dc7b57c943422f0853d2c3,,,,,,,,,,,,,,,,,,,,,,,,,,,,,,,,30,Door2,resources/DB.BMP,1,0,1,0,1,,,,,,,,,,,,,,,,,,,,,,,,,
,,,,,,,,2023-08-16_08h31.56.122,HF_wild_card,2022.2.4,MacIntel,55.55555556,5f50d2ed14987325962c64dc,64d2fd46c836a06233681665,64dc7b57c943422f0853d2c3,,,,,,,,,,,,,,,,,,,,,,,,,,,,,,,,70,Door3,resources/DBN.BMP,2,0,2,0,1,,,,,,,,,,,,,,,,,,,,,,,,,
,,,,,,,,2023-08-16_08h31.56.122,HF_wild_card,2022.2.4,MacIntel,55.55555556,5f50d2ed14987325962c64dc,64d2fd46c836a06233681665,64dc7b57c943422f0853d2c3,,,,,,,,,,,,,,,,,,,,,,,,,,,,,,,,70,Door4,resources/DP.BMP,3,0,3,0,1,,,,,,,,,,,,,,,,,,,,,,,,,
