Condition,Low fixed image (Door1),Low risky image (Door2),High fixed image (Door3),High risky image (Door4),Extreme Wild Card,NonExtreme Wild Card,,date,expName,psychopyVersion,OS,frameRate,PROLIFIC_PID,STUDY_ID,SESSION_ID,mouse_2.x,mouse_2.y,mouse_2.leftButton,mouse_2.midButton,mouse_2.rightButton,mouse_2.clicked_name,Trial Type,Left Option Image,Right Option Image,Chosen Door,mouse.x,mouse.y,mouse.leftButton,mouse.midButton,mouse.rightButton,mouse.time,mouse.clicked_name,Feedback,Cumulative Reward,Block,trial.thisRepN,trial.thisTrialN,trial.thisN,trial.thisIndex,trial.ran,blocks.thisRepN,blocks.thisTrialN,blocks.thisN,blocks.thisIndex,blocks.ran,Money conversion,First Outcome Reported,Shown Door (First Outcome),Displayed Image (First Outcome),outcomes.thisRepN,outcomes.thisTrialN,outcomes.thisN,outcomes.thisIndex,outcomes.ran,judgments.thisRepN,judgments.thisTrialN,judgments.thisN,judgments.thisIndex,judgments.ran,freqMouse.x,freqMouse.y,freqMouse.leftButton,freqMouse.midButton,freqMouse.rightButton,freqMouse.clicked_name,FQJ for first outcome,FQJ for second outcome,Shown Door,Displayed Image,trials.thisRepN,trials.thisTrialN,trials.thisN,trials.thisIndex,trials.ran,judgBlock.thisRepN,judgBlock.thisTrialN,judgBlock.thisN,judgBlock.thisIndex,judgBlock.ran
0,resources/DG.BMP,resources/DY.BMP,resources/DBN.BMP,resources/DP.BMP,resources/DB.BMP,resources/DR.BMP,60e02d7931b0152927b4425d,2023-08-06_08h25.00.332,HF_wild_card,2022.2.4,MacIntel,59.99520038,60e02d7931b0152927b4425d,64ce5acb97489d65b14ecc7a,64cf4aa6ab024cbff515bd65,,,,,,,,,,,,,,,,,,,,,,,,,,,,,,,,,,,,,,,,,,,,,,,,,,,,,,,,,,,,,,,,
,,,,,,,60e02d7931b0152927b4425d,2023-08-06_08h25.00.332,HF_wild_card,2022.2.4,MacIntel,59.99520038,60e02d7931b0152927b4425d,64ce5acb97489d65b14ecc7a,64cf4aa6ab024cbff515bd65,0.002594866,-0.418883309,1,0,0,agree,,,,,,,,,,,,,,,,,,,,,,,,,,,,,,,,,,,,,,,,,,,,,,,,,,,,,,,,,,
,,,,,,,60e02d7931b0152927b4425d,2023-08-06_08h25.00.332,HF_wild_card,2022.2.4,MacIntel,59.99520038,60e02d7931b0152927b4425d,64ce5acb97489d65b14ecc7a,64cf4aa6ab024cbff515bd65,,,,,,,,,,,,,,,,,,,,,,,,,,,,,,,,,,,,,,,,,,,,,,,,,,,,,,,,,,,,,,,,
,,,,,,,60e02d7931b0152927b4425d,2023-08-06_08h25.00.332,HF_wild_card,2022.2.4,MacIntel,59.99520038,60e02d7931b0152927b4425d,64ce5acb97489d65b14ecc7a,64cf4aa6ab024cbff515bd65,,,,,,,decisionTrl,resources/DG.BMP,resources/DB.BMP,WildCard_Ex,0.349724082,-0.125809152,1,0,0,3.2062,optionRight,95,95,1,0,0,0,0,1,,,,,,,,,,,,,,,,,,,,,,,,,,,,,,,,,,,,,,,
,,,,,,,60e02d7931b0152927b4425d,2023-08-06_08h25.00.332,HF_wild_card,2022.2.4,MacIntel,59.99520038,60e02d7931b0152927b4425d,64ce5acb97489d65b14ecc7a,64cf4aa6ab024cbff515bd65,,,,,,,sngl,resources/DBN.BMP,resources/Empty.png,Door3,0.402229043,0.005850074,1,0,0,2.518,optionLeft,70,165,1,1,0,1,0,1,,,,,,,,,,,,,,,,,,,,,,,,,,,,,,,,,,,,,,,
,,,,,,,60e02d7931b0152927b4425d,2023-08-06_08h25.00.332,HF_wild_card,2022.2.4,MacIntel,59.99520038,60e02d7931b0152927b4425d,64ce5acb97489d65b14ecc7a,64cf4aa6ab024cbff515bd65,,,,,,,ctch,resources/DG.BMP,resources/DP.BMP,Door4,0.40219494,-0.013972594,1,0,0,2.1501,optionRight,80,245,1,2,0,2,0,1,,,,,,,,,,,,,,,,,,,,,,,,,,,,,,,,,,,,,,,
,,,,,,,60e02d7931b0152927b4425d,2023-08-06_08h25.00.332,HF_wild_card,2022.2.4,MacIntel,59.99520038,60e02d7931b0152927b4425d,64ce5acb97489d65b14ecc7a,64cf4aa6ab024cbff515bd65,,,,,,,decisionTrl,resources/DB.BMP,resources/DG.BMP,WildCard_Ex,-0.307610987,0.00062624,1,0,0,2.3327,optionLeft,5,250,1,3,0,3,0,1,,,,,,,,,,,,,,,,,,,,,,,,,,,,,,,,,,,,,,,
,,,,,,,60e02d7931b0152927b4425d,2023-08-06_08h25.00.332,HF_wild_card,2022.2.4,MacIntel,59.99520038,60e02d7931b0152927b4425d,64ce5acb97489d65b14ecc7a,64cf4aa6ab024cbff515bd65,,,,,,,sngl,resources/Empty.png,resources/DB.BMP,WildCard_Ex,-0.309387401,-0.036129712,1,0,0,1.682,optionRight,95,345,1,4,0,4,0,1,,,,,,,,,,,,,,,,,,,,,,,,,,,,,,,,,,,,,,,
,,,,,,,60e02d7931b0152927b4425d,2023-08-06_08h25.00.332,HF_wild_card,2022.2.4,MacIntel,59.99520038,60e02d7931b0152927b4425d,64ce5acb97489d65b14ecc7a,64cf4aa6ab024cbff515bd65,,,,,,,decisionTrl,resources/DY.BMP,resources/DG.BMP,Door1,0.341799975,-0.00218254,1,0,0,1.1469,optionRight,30,375,1,5,0,5,0,1,,,,,,,,,,,,,,,,,,,,,,,,,,,,,,,,,,,,,,,
,,,,,,,60e02d7931b0152927b4425d,2023-08-06_08h25.00.332,HF_wild_card,2022.2.4,MacIntel,59.99520038,60e02d7931b0152927b4425d,64ce5acb97489d65b14ecc7a,64cf4aa6ab024cbff515bd65,,,,,,,decisionTrl,resources/DG.BMP,resources/DY.BMP,Door2,0.410010541,-0.003630332,1,0,0,0.7816,optionRight,20,395,1,6,0,6,0,1,,,,,,,,,,,,,,,,,,,,,,,,,,,,,,,,,,,,,,,
,,,,,,,60e02d7931b0152927b4425d,2023-08-06_08h25.00.332,HF_wild_card,2022.2.4,MacIntel,59.99520038,60e02d7931b0152927b4425d,64ce5acb97489d65b14ecc7a,64cf4aa6ab024cbff515bd65,,,,,,,sngl,resources/Empty.png,resources/DP.BMP,Door4,-0.490801711,-0.004737103,1,0,0,1.3803,optionRight,60,455,1,7,0,7,0,1,,,,,,,,,,,,,,,,,,,,,,,,,,,,,,,,,,,,,,,
,,,,,,,60e02d7931b0152927b4425d,2023-08-06_08h25.00.332,HF_wild_card,2022.2.4,MacIntel,59.99520038,60e02d7931b0152927b4425d,64ce5acb97489d65b14ecc7a,64cf4aa6ab024cbff515bd65,,,,,,,decisionTrl,resources/DP.BMP,resources/DBN.BMP,Door3,0.481420511,-0.008141121,1,0,0,1.3798,optionRight,70,525,1,8,0,8,0,1,,,,,,,,,,,,,,,,,,,,,,,,,,,,,,,,,,,,,,,
,,,,,,,60e02d7931b0152927b4425d,2023-08-06_08h25.00.332,HF_wild_card,2022.2.4,MacIntel,59.99520038,60e02d7931b0152927b4425d,64ce5acb97489d65b14ecc7a,64cf4aa6ab024cbff515bd65,,,,,,,decisionTrl,resources/DY.BMP,resources/DG.BMP,Door1,0.34140315,-0.014580233,1,0,0,2.1336,optionRight,30,555,1,9,0,9,0,1,,,,,,,,,,,,,,,,,,,,,,,,,,,,,,,,,,,,,,,
,,,,,,,60e02d7931b0152927b4425d,2023-08-06_08h25.00.332,HF_wild_card,2022.2.4,MacIntel,59.99520038,60e02d7931b0152927b4425d,64ce5acb97489d65b14ecc7a,64cf4aa6ab024cbff515bd65,,,,,,,sngl,resources/DB.BMP,resources/Empty.png,WildCard_Ex,0.477012029,-0.055493552,1,0,0,1.0643,optionLeft,5,560,1,10,0,10,0,1,,,,,,,,,,,,,,,,,,,,,,,,,,,,,,,,,,,,,,,
,,,,,,,60e02d7931b0152927b4425d,2023-08-06_08h25.00.332,HF_wild_card,2022.2.4,MacIntel,59.99520038,60e02d7931b0152927b4425d,64ce5acb97489d65b14ecc7a,64cf4aa6ab024cbff515bd65,,,,,,,sngl,resources/Empty.png,resources/DG.BMP,Door1,0.371577381,-0.020591518,1,0,0,1.4308,optionRight,30,590,1,11,0,11,0,1,,,,,,,,,,,,,,,,,,,,,,,,,,,,,,,,,,,,,,,
,,,,,,,60e02d7931b0152927b4425d,2023-08-06_08h25.00.332,HF_wild_card,2022.2.4,MacIntel,59.99520038,60e02d7931b0152927b4425d,64ce5acb97489d65b14ecc7a,64cf4aa6ab024cbff515bd65,,,,,,,ctch,resources/DBN.BMP,resources/DY.BMP,Door3,-0.264725942,-0.005025422,1,0,0,1.1821,optionLeft,70,660,1,12,0,12,0,1,,,,,,,,,,,,,,,,,,,,,,,,,,,,,,,,,,,,,,,
,,,,,,,60e02d7931b0152927b4425d,2023-08-06_08h25.00.332,HF_wild_card,2022.2.4,MacIntel,59.99520038,60e02d7931b0152927b4425d,64ce5acb97489d65b14ecc7a,64cf4aa6ab024cbff515bd65,,,,,,,ctch,resources/DP.BMP,resources/DG.BMP,Door1,0.499621776,-0.01281312,1,0,0,1.7269,optionRight,30,690,1,13,0,13,0,1,,,,,,,,,,,,,,,,,,,,,,,,,,,,,,,,,,,,,,,
,,,,,,,60e02d7931b0152927b4425d,2023-08-06_08h25.00.332,HF_wild_card,2022.2.4,MacIntel,59.99520038,60e02d7931b0152927b4425d,64ce5acb97489d65b14ecc7a,64cf4aa6ab024cbff515bd65,,,,,,,decisionTrl,resources/DBN.BMP,resources/DP.BMP,Door4,0.424956597,-0.009960937,1,0,0,0.7483,optionRight,60,750,1,14,0,14,0,1,,,,,,,,,,,,,,,,,,,,,,,,,,,,,,,,,,,,,,,
,,,,,,,60e02d7931b0152927b4425d,2023-08-06_08h25.00.332,HF_wild_card,2022.2.4,MacIntel,59.99520038,60e02d7931b0152927b4425d,64ce5acb97489d65b14ecc7a,64cf4aa6ab024cbff515bd65,,,,,,,decisionTrl,resources/DB.BMP,resources/DBN.BMP,WildCard_Ex,-0.395377604,-0.013265749,1,0,0,1.8645,optionLeft,95,845,1,15,0,15,0,1,,,,,,,,,,,,,,,,,,,,,,,,,,,,,,,,,,,,,,,
,,,,,,,60e02d7931b0152927b4425d,2023-08-06_08h25.00.332,HF_wild_card,2022.2.4,MacIntel,59.99520038,60e02d7931b0152927b4425d,64ce5acb97489d65b14ecc7a,64cf4aa6ab024cbff515bd65,,,,,,,sngl,resources/DG.BMP,resources/Empty.png,Door1,-0.42250434,0.006163194,1,0,0,2.0151,optionLeft,30,875,1,16,0,16,0,1,,,,,,,,,,,,,,,,,,,,,,,,,,,,,,,,,,,,,,,
,,,,,,,60e02d7931b0152927b4425d,2023-08-06_08h25.00.332,HF_wild_card,2022.2.4,MacIntel,59.99520038,60e02d7931b0152927b4425d,64ce5acb97489d65b14ecc7a,64cf4aa6ab024cbff515bd65,,,,,,,decisionTrl,resources/DY.BMP,resources/DB.BMP,WildCard_Ex,0.465138269,-0.012766617,1,0,0,1.5785,optionRight,5,880,1,17,0,17,0,1,,,,,,,,,,,,,,,,,,,,,,,,,,,,,,,,,,,,,,,
,,,,,,,60e02d7931b0152927b4425d,2023-08-06_08h25.00.332,HF_wild_card,2022.2.4,MacIntel,59.99520038,60e02d7931b0152927b4425d,64ce5acb97489d65b14ecc7a,64cf4aa6ab024cbff515bd65,,,,,,,sngl,resources/DY.BMP,resources/Empty.png,Door2,0.304154266,-0.016449653,1,0,0,1.1846,optionLeft,40,920,1,18,0,18,0,1,,,,,,,,,,,,,,,,,,,,,,,,,,,,,,,,,,,,,,,
,,,,,,,60e02d7931b0152927b4425d,2023-08-06_08h25.00.332,HF_wild_card,2022.2.4,MacIntel,59.99520038,60e02d7931b0152927b4425d,64ce5acb97489d65b14ecc7a,64cf4aa6ab024cbff515bd65,,,,,,,decisionTrl,resources/DG.BMP,resources/DY.BMP,Door1,-0.270563616,0.010345362,1,0,0,1.5489,optionLeft,30,950,1,19,0,19,0,1,,,,,,,,,,,,,,,,,,,,,,,,,,,,,,,,,,,,,,,
,,,,,,,60e02d7931b0152927b4425d,2023-08-06_08h25.00.332,HF_wild_card,2022.2.4,MacIntel,59.99520038,60e02d7931b0152927b4425d,64ce5acb97489d65b14ecc7a,64cf4aa6ab024cbff515bd65,,,,,,,ctch,resources/DG.BMP,resources/DP.BMP,Door1,-0.343694196,0.013461062,1,0,0,1.946,optionLeft,30,980,1,20,0,20,0,1,,,,,,,,,,,,,,,,,,,,,,,,,,,,,,,,,,,,,,,
,,,,,,,60e02d7931b0152927b4425d,2023-08-06_08h25.00.332,HF_wild_card,2022.2.4,MacIntel,59.99520038,60e02d7931b0152927b4425d,64ce5acb97489d65b14ecc7a,64cf4aa6ab024cbff515bd65,,,,,,,decisionTrl,resources/DY.BMP,resources/DG.BMP,Door2,-0.318833705,0.000372024,1,0,0,1.2001,optionLeft,40,1020,1,21,0,21,0,1,,,,,,,,,,,,,,,,,,,,,,,,,,,,,,,,,,,,,,,
,,,,,,,60e02d7931b0152927b4425d,2023-08-06_08h25.00.332,HF_wild_card,2022.2.4,MacIntel,59.99520038,60e02d7931b0152927b4425d,64ce5acb97489d65b14ecc7a,64cf4aa6ab024cbff515bd65,,,,,,,decisionTrl,resources/DB.BMP,resources/DY.BMP,WildCard_Ex,-0.316703869,-0.006510417,1,0,0,1.5477,optionLeft,5,1025,1,22,0,22,0,1,,,,,,,,,,,,,,,,,,,,,,,,,,,,,,,,,,,,,,,
,,,,,,,60e02d7931b0152927b4425d,2023-08-06_08h25.00.332,HF_wild_card,2022.2.4,MacIntel,59.99520038,60e02d7931b0152927b4425d,64ce5acb97489d65b14ecc7a,64cf4aa6ab024cbff515bd65,,,,,,,ctch,resources/DY.BMP,resources/DBN.BMP,Door3,0.321478175,0.012379092,1,0,0,1.0826,optionRight,70,1095,1,23,0,23,0,1,,,,,,,,,,,,,,,,,,,,,,,,,,,,,,,,,,,,,,,
,,,,,,,60e02d7931b0152927b4425d,2023-08-06_08h25.00.332,HF_wild_card,2022.2.4,MacIntel,59.99520038,60e02d7931b0152927b4425d,64ce5acb97489d65b14ecc7a,64cf4aa6ab024cbff515bd65,,,,,,,decisionTrl,resources/DBN.BMP,resources/DB.BMP,Door3,-0.324758185,0.011458333,1,0,0,2.1159,optionLeft,70,1165,1,24,0,24,0,1,,,,,,,,,,,,,,,,,,,,,,,,,,,,,,,,,,,,,,,
,,,,,,,60e02d7931b0152927b4425d,2023-08-06_08h25.00.332,HF_wild_card,2022.2.4,MacIntel,59.99520038,60e02d7931b0152927b4425d,64ce5acb97489d65b14ecc7a,64cf4aa6ab024cbff515bd65,,,,,,,sngl,resources/Empty.png,resources/DY.BMP,Door2,0.312081473,-0.009914435,1,0,0,1.5498,optionRight,20,1185,1,25,0,25,0,1,,,,,,,,,,,,,,,,,,,,,,,,,,,,,,,,,,,,,,,
,,,,,,,60e02d7931b0152927b4425d,2023-08-06_08h25.00.332,HF_wild_card,2022.2.4,MacIntel,59.99520038,60e02d7931b0152927b4425d,64ce5acb97489d65b14ecc7a,64cf4aa6ab024cbff515bd65,,,,,,,sngl,resources/DP.BMP,resources/Empty.png,Door4,-0.425269717,-0.03046875,1,0,0,1.1645,optionLeft,80,1265,1,26,0,26,0,1,,,,,,,,,,,,,,,,,,,,,,,,,,,,,,,,,,,,,,,
,,,,,,,60e02d7931b0152927b4425d,2023-08-06_08h25.00.332,HF_wild_card,2022.2.4,MacIntel,59.99520038,60e02d7931b0152927b4425d,64ce5acb97489d65b14ecc7a,64cf4aa6ab024cbff515bd65,,,,,,,decisionTrl,resources/DG.BMP,resources/DY.BMP,Door1,-0.410215154,0.009052579,1,0,0,1.5651,optionLeft,30,1295,1,27,0,27,0,1,,,,,,,,,,,,,,,,,,,,,,,,,,,,,,,,,,,,,,,
,,,,,,,60e02d7931b0152927b4425d,2023-08-06_08h25.00.332,HF_wild_card,2022.2.4,MacIntel,59.99520038,60e02d7931b0152927b4425d,64ce5acb97489d65b14ecc7a,64cf4aa6ab024cbff515bd65,,,,,,,decisionTrl,resources/DP.BMP,resources/DB.BMP,Door4,-0.411988467,-0.061129712,1,0,0,1.0147,optionLeft,60,1355,1,28,0,28,0,1,,,,,,,,,,,,,,,,,,,,,,,,,,,,,,,,,,,,,,,
,,,,,,,60e02d7931b0152927b4425d,2023-08-06_08h25.00.332,HF_wild_card,2022.2.4,MacIntel,59.99520038,60e02d7931b0152927b4425d,64ce5acb97489d65b14ecc7a,64cf4aa6ab024cbff515bd65,,,,,,,decisionTrl,resources/DBN.BMP,resources/DP.BMP,Door4,0.396121652,0.00141059,1,0,0,1.2969,optionRight,60,1415,1,29,0,29,0,1,,,,,,,,,,,,,,,,,,,,,,,,,,,,,,,,,,,,,,,
,,,,,,,60e02d7931b0152927b4425d,2023-08-06_08h25.00.332,HF_wild_card,2022.2.4,MacIntel,59.99520038,60e02d7931b0152927b4425d,64ce5acb97489d65b14ecc7a,64cf4aa6ab024cbff515bd65,,,,,,,ctch,resources/DY.BMP,resources/DBN.BMP,Door3,0.361145213,-0.025372024,1,0,0,1.7494,optionRight,70,1485,1,30,0,30,0,1,,,,,,,,,,,,,,,,,,,,,,,,,,,,,,,,,,,,,,,
,,,,,,,60e02d7931b0152927b4425d,2023-08-06_08h25.00.332,HF_wild_card,2022.2.4,MacIntel,59.99520038,60e02d7931b0152927b4425d,64ce5acb97489d65b14ecc7a,64cf4aa6ab024cbff515bd65,,,,,,,sngl,resources/Empty.png,resources/DBN.BMP,Door3,0.402362351,-0.009415303,1,0,0,1.0289,optionRight,70,1555,1,31,0,31,0,1,,,,,,,,,,,,,,,,,,,,,,,,,,,,,,,,,,,,,,,
,,,,,,,60e02d7931b0152927b4425d,2023-08-06_08h25.00.332,HF_wild_card,2022.2.4,MacIntel,59.99520038,60e02d7931b0152927b4425d,64ce5acb97489d65b14ecc7a,64cf4aa6ab024cbff515bd65,,,,,,,decisionTrl,resources/DG.BMP,resources/DY.BMP,Door1,-0.507390873,-0.018077257,1,0,0,2.0826,optionLeft,30,1585,1,32,0,32,0,1,,,,,,,,,,,,,,,,,,,,,,,,,,,,,,,,,,,,,,,
,,,,,,,60e02d7931b0152927b4425d,2023-08-06_08h25.00.332,HF_wild_card,2022.2.4,MacIntel,59.99520038,60e02d7931b0152927b4425d,64ce5acb97489d65b14ecc7a,64cf4aa6ab024cbff515bd65,,,,,,,decisionTrl,resources/DP.BMP,resources/DBN.BMP,Door3,0.394298735,-0.006888641,1,0,0,1.3822,optionRight,70,1655,1,33,0,33,0,1,,,,,,,,,,,,,,,,,,,,,,,,,,,,,,,,,,,,,,,
,,,,,,,60e02d7931b0152927b4425d,2023-08-06_08h25.00.332,HF_wild_card,2022.2.4,MacIntel,59.99520038,60e02d7931b0152927b4425d,64ce5acb97489d65b14ecc7a,64cf4aa6ab024cbff515bd65,,,,,,,ctch,resources/DP.BMP,resources/DG.BMP,Door4,-0.341176835,-0.041592262,1,0,0,1.152,optionLeft,60,1715,1,34,0,34,0,1,,,,,,,,,,,,,,,,,,,,,,,,,,,,,,,,,,,,,,,
,,,,,,,60e02d7931b0152927b4425d,2023-08-06_08h25.00.332,HF_wild_card,2022.2.4,MacIntel,59.99520038,60e02d7931b0152927b4425d,64ce5acb97489d65b14ecc7a,64cf4aa6ab024cbff515bd65,,,,,,,ctch,resources/DBN.BMP,resources/DY.BMP,Door3,-0.355264137,-0.011728051,1,0,0,1.131,optionLeft,70,1785,1,35,0,35,0,1,,,,,,,,,,,,,,,,,,,,,,,,,,,,,,,,,,,,,,,
,,,,,,,60e02d7931b0152927b4425d,2023-08-06_08h25.00.332,HF_wild_card,2022.2.4,MacIntel,59.99520038,60e02d7931b0152927b4425d,64ce5acb97489d65b14ecc7a,64cf4aa6ab024cbff515bd65,,,,,,,decisionTrl,resources/DP.BMP,resources/DBN.BMP,Door3,0.416018725,-0.011259921,1,0,0,1.0965,optionRight,70,1855,1,36,0,36,0,1,,,,,,,,,,,,,,,,,,,,,,,,,,,,,,,,,,,,,,,
,,,,,,,60e02d7931b0152927b4425d,2023-08-06_08h25.00.332,HF_wild_card,2022.2.4,MacIntel,59.99520038,60e02d7931b0152927b4425d,64ce5acb97489d65b14ecc7a,64cf4aa6ab024cbff515bd65,,,,,,,decisionTrl,resources/DP.BMP,resources/DBN.BMP,Door3,0.422067212,-0.007921007,1,0,0,0.9978,optionRight,70,1925,1,37,0,37,0,1,,,,,,,,,,,,,,,,,,,,,,,,,,,,,,,,,,,,,,,
,,,,,,,60e02d7931b0152927b4425d,2023-08-06_08h25.00.332,HF_wild_card,2022.2.4,MacIntel,59.99520038,60e02d7931b0152927b4425d,64ce5acb97489d65b14ecc7a,64cf4aa6ab024cbff515bd65,,,,,,,decisionTrl,resources/DY.BMP,resources/DG.BMP,Door1,0.360013641,-0.014601935,1,0,0,1.5289,optionRight,30,1955,1,38,0,38,0,1,,,,,,,,,,,,,,,,,,,,,,,,,,,,,,,,,,,,,,,
,,,,,,,60e02d7931b0152927b4425d,2023-08-06_08h25.00.332,HF_wild_card,2022.2.4,MacIntel,59.99520038,60e02d7931b0152927b4425d,64ce5acb97489d65b14ecc7a,64cf4aa6ab024cbff515bd65,,,,,,,sngl,resources/Empty.png,resources/DB.BMP,WildCard_Ex,0.38233817,-0.013265749,1,0,0,1.2649,optionRight,5,1960,1,39,0,39,0,1,,,,,,,,,,,,,,,,,,,,,,,,,,,,,,,,,,,,,,,
,,,,,,,60e02d7931b0152927b4425d,2023-08-06_08h25.00.332,HF_wild_card,2022.2.4,MacIntel,59.99520038,60e02d7931b0152927b4425d,64ce5acb97489d65b14ecc7a,64cf4aa6ab024cbff515bd65,,,,,,,decisionTrl,resources/DBN.BMP,resources/DP.BMP,Door3,-0.330760169,0.016353547,1,0,0,0.9637,optionLeft,70,2030,1,40,0,40,0,1,,,,,,,,,,,,,,,,,,,,,,,,,,,,,,,,,,,,,,,
,,,,,,,60e02d7931b0152927b4425d,2023-08-06_08h25.00.332,HF_wild_card,2022.2.4,MacIntel,59.99520038,60e02d7931b0152927b4425d,64ce5acb97489d65b14ecc7a,64cf4aa6ab024cbff515bd65,,,,,,,sngl,resources/DB.BMP,resources/Empty.png,WildCard_Ex,-0.463138641,-0.011526538,1,0,0,1.2519,optionLeft,95,2125,1,41,0,41,0,1,,,,,,,,,,,,,,,,,,,,,,,,,,,,,,,,,,,,,,,
,,,,,,,60e02d7931b0152927b4425d,2023-08-06_08h25.00.332,HF_wild_card,2022.2.4,MacIntel,59.99520038,60e02d7931b0152927b4425d,64ce5acb97489d65b14ecc7a,64cf4aa6ab024cbff515bd65,,,,,,,decisionTrl,resources/DB.BMP,resources/DP.BMP,WildCard_Ex,-0.524438864,-0.025375124,1,0,0,1.3793,optionLeft,5,2130,1,42,0,42,0,1,,,,,,,,,,,,,,,,,,,,,,,,,,,,,,,,,,,,,,,
,,,,,,,60e02d7931b0152927b4425d,2023-08-06_08h25.00.332,HF_wild_card,2022.2.4,MacIntel,59.99520038,60e02d7931b0152927b4425d,64ce5acb97489d65b14ecc7a,64cf4aa6ab024cbff515bd65,,,,,,,decisionTrl,resources/DBN.BMP,resources/DP.BMP,Door3,-0.370796131,0.009592014,1,0,0,0.9964,optionLeft,70,2200,1,43,0,43,0,1,,,,,,,,,,,,,,,,,,,,,,,,,,,,,,,,,,,,,,,
,,,,,,,60e02d7931b0152927b4425d,2023-08-06_08h25.00.332,HF_wild_card,2022.2.4,MacIntel,59.99520038,60e02d7931b0152927b4425d,64ce5acb97489d65b14ecc7a,64cf4aa6ab024cbff515bd65,,,,,,,,,,,,,,,,,,,,,,,,,,0,0,0,0,1,,,,,,,,,,,,,,,,,,,,,,,,,,,,,,,,,,
,,,,,,,60e02d7931b0152927b4425d,2023-08-06_08h25.00.332,HF_wild_card,2022.2.4,MacIntel,59.99520038,60e02d7931b0152927b4425d,64ce5acb97489d65b14ecc7a,64cf4aa6ab024cbff515bd65,,,,,,,decisionTrl,resources/DG.BMP,resources/DY.BMP,Door1,-0.459815228,0.029095362,1,0,0,1.4899,optionLeft,30,2230,2,0,0,0,0,1,,,,,,,,,,,,,,,,,,,,,,,,,,,,,,,,,,,,,,,
,,,,,,,60e02d7931b0152927b4425d,2023-08-06_08h25.00.332,HF_wild_card,2022.2.4,MacIntel,59.99520038,60e02d7931b0152927b4425d,64ce5acb97489d65b14ecc7a,64cf4aa6ab024cbff515bd65,,,,,,,decisionTrl,resources/DB.BMP,resources/DG.BMP,Door1,0.440113467,-0.00640501,1,0,0,1.5507,optionRight,30,2260,2,1,0,1,0,1,,,,,,,,,,,,,,,,,,,,,,,,,,,,,,,,,,,,,,,
,,,,,,,60e02d7931b0152927b4425d,2023-08-06_08h25.00.332,HF_wild_card,2022.2.4,MacIntel,59.99520038,60e02d7931b0152927b4425d,64ce5acb97489d65b14ecc7a,64cf4aa6ab024cbff515bd65,,,,,,,decisionTrl,resources/DY.BMP,resources/DG.BMP,Door1,0.471571181,0.011387029,1,0,0,2.0302,optionRight,30,2290,2,2,0,2,0,1,,,,,,,,,,,,,,,,,,,,,,,,,,,,,,,,,,,,,,,
,,,,,,,60e02d7931b0152927b4425d,2023-08-06_08h25.00.332,HF_wild_card,2022.2.4,MacIntel,59.99520038,60e02d7931b0152927b4425d,64ce5acb97489d65b14ecc7a,64cf4aa6ab024cbff515bd65,,,,,,,ctch,resources/DBN.BMP,resources/DY.BMP,Door3,-0.296530878,-0.027269345,1,0,0,1.2306,optionLeft,70,2360,2,3,0,3,0,1,,,,,,,,,,,,,,,,,,,,,,,,,,,,,,,,,,,,,,,
,,,,,,,60e02d7931b0152927b4425d,2023-08-06_08h25.00.332,HF_wild_card,2022.2.4,MacIntel,59.99520038,60e02d7931b0152927b4425d,64ce5acb97489d65b14ecc7a,64cf4aa6ab024cbff515bd65,,,,,,,decisionTrl,resources/DP.BMP,resources/DBN.BMP,Door3,0.408069816,-0.002353051,1,0,0,0.7912,optionRight,70,2430,2,4,0,4,0,1,,,,,,,,,,,,,,,,,,,,,,,,,,,,,,,,,,,,,,,
,,,,,,,60e02d7931b0152927b4425d,2023-08-06_08h25.00.332,HF_wild_card,2022.2.4,MacIntel,59.99520038,60e02d7931b0152927b4425d,64ce5acb97489d65b14ecc7a,64cf4aa6ab024cbff515bd65,,,,,,,decisionTrl,resources/DG.BMP,resources/DY.BMP,Door2,0.400979663,0.008531746,1,0,0,2.1315,optionRight,20,2450,2,5,0,5,0,1,,,,,,,,,,,,,,,,,,,,,,,,,,,,,,,,,,,,,,,
,,,,,,,60e02d7931b0152927b4425d,2023-08-06_08h25.00.332,HF_wild_card,2022.2.4,MacIntel,59.99520038,60e02d7931b0152927b4425d,64ce5acb97489d65b14ecc7a,64cf4aa6ab024cbff515bd65,,,,,,,sngl,resources/DBN.BMP,resources/Empty.png,Door3,-0.279383681,0.006770833,1,0,0,0.9123,optionLeft,70,2520,2,6,0,6,0,1,,,,,,,,,,,,,,,,,,,,,,,,,,,,,,,,,,,,,,,
,,,,,,,60e02d7931b0152927b4425d,2023-08-06_08h25.00.332,HF_wild_card,2022.2.4,MacIntel,59.99520038,60e02d7931b0152927b4425d,64ce5acb97489d65b14ecc7a,64cf4aa6ab024cbff515bd65,,,,,,,sngl,resources/Empty.png,resources/DY.BMP,Door2,0.377232143,-0.011616443,1,0,0,1.1142,optionRight,40,2560,2,7,0,7,0,1,,,,,,,,,,,,,,,,,,,,,,,,,,,,,,,,,,,,,,,
,,,,,,,60e02d7931b0152927b4425d,2023-08-06_08h25.00.332,HF_wild_card,2022.2.4,MacIntel,59.99520038,60e02d7931b0152927b4425d,64ce5acb97489d65b14ecc7a,64cf4aa6ab024cbff515bd65,,,,,,,sngl,resources/Empty.png,resources/DB.BMP,WildCard_Ex,0.459663318,-0.029882813,1,0,0,0.9307,optionRight,95,2655,2,8,0,8,0,1,,,,,,,,,,,,,,,,,,,,,,,,,,,,,,,,,,,,,,,
,,,,,,,60e02d7931b0152927b4425d,2023-08-06_08h25.00.332,HF_wild_card,2022.2.4,MacIntel,59.99520038,60e02d7931b0152927b4425d,64ce5acb97489d65b14ecc7a,64cf4aa6ab024cbff515bd65,,,,,,,decisionTrl,resources/DY.BMP,resources/DG.BMP,Door1,0.360866195,0.00390005,1,0,0,1.2815,optionRight,30,2685,2,9,0,9,0,1,,,,,,,,,,,,,,,,,,,,,,,,,,,,,,,,,,,,,,,
,,,,,,,60e02d7931b0152927b4425d,2023-08-06_08h25.00.332,HF_wild_card,2022.2.4,MacIntel,59.99520038,60e02d7931b0152927b4425d,64ce5acb97489d65b14ecc7a,64cf4aa6ab024cbff515bd65,,,,,,,ctch,resources/DG.BMP,resources/DP.BMP,Door1,-0.330657862,-0.006901042,1,0,0,2.5623,optionLeft,30,2715,2,10,0,10,0,1,,,,,,,,,,,,,,,,,,,,,,,,,,,,,,,,,,,,,,,
,,,,,,,60e02d7931b0152927b4425d,2023-08-06_08h25.00.332,HF_wild_card,2022.2.4,MacIntel,59.99520038,60e02d7931b0152927b4425d,64ce5acb97489d65b14ecc7a,64cf4aa6ab024cbff515bd65,,,,,,,decisionTrl,resources/DG.BMP,resources/DY.BMP,Door2,0.377309648,-0.008305432,1,0,0,1.9163,optionRight,20,2735,2,11,0,11,0,1,,,,,,,,,,,,,,,,,,,,,,,,,,,,,,,,,,,,,,,
,,,,,,,60e02d7931b0152927b4425d,2023-08-06_08h25.00.332,HF_wild_card,2022.2.4,MacIntel,59.99520038,60e02d7931b0152927b4425d,64ce5acb97489d65b14ecc7a,64cf4aa6ab024cbff515bd65,,,,,,,decisionTrl,resources/DBN.BMP,resources/DB.BMP,Door3,-0.245954241,-0.000880456,1,0,0,0.9798,optionLeft,70,2805,2,12,0,12,0,1,,,,,,,,,,,,,,,,,,,,,,,,,,,,,,,,,,,,,,,
,,,,,,,60e02d7931b0152927b4425d,2023-08-06_08h25.00.332,HF_wild_card,2022.2.4,MacIntel,59.99520038,60e02d7931b0152927b4425d,64ce5acb97489d65b14ecc7a,64cf4aa6ab024cbff515bd65,,,,,,,decisionTrl,resources/DP.BMP,resources/DB.BMP,WildCard_Ex,0.392482019,-0.016362847,1,0,0,1.9301,optionRight,5,2810,2,13,0,13,0,1,,,,,,,,,,,,,,,,,,,,,,,,,,,,,,,,,,,,,,,
,,,,,,,60e02d7931b0152927b4425d,2023-08-06_08h25.00.332,HF_wild_card,2022.2.4,MacIntel,59.99520038,60e02d7931b0152927b4425d,64ce5acb97489d65b14ecc7a,64cf4aa6ab024cbff515bd65,,,,,,,decisionTrl,resources/DG.BMP,resources/DY.BMP,Door1,-0.306637525,-0.020117188,1,0,0,1.1478,optionLeft,30,2840,2,14,0,14,0,1,,,,,,,,,,,,,,,,,,,,,,,,,,,,,,,,,,,,,,,
,,,,,,,60e02d7931b0152927b4425d,2023-08-06_08h25.00.332,HF_wild_card,2022.2.4,MacIntel,59.99520038,60e02d7931b0152927b4425d,64ce5acb97489d65b14ecc7a,64cf4aa6ab024cbff515bd65,,,,,,,sngl,resources/DY.BMP,resources/Empty.png,Door2,-0.510044643,0.004755704,1,0,0,0.8822,optionLeft,20,2860,2,15,0,15,0,1,,,,,,,,,,,,,,,,,,,,,,,,,,,,,,,,,,,,,,,
,,,,,,,60e02d7931b0152927b4425d,2023-08-06_08h25.00.332,HF_wild_card,2022.2.4,MacIntel,59.99520038,60e02d7931b0152927b4425d,64ce5acb97489d65b14ecc7a,64cf4aa6ab024cbff515bd65,,,,,,,decisionTrl,resources/DY.BMP,resources/DG.BMP,Door1,0.405481151,-0.012992932,1,0,0,1.2476,optionRight,30,2890,2,16,0,16,0,1,,,,,,,,,,,,,,,,,,,,,,,,,,,,,,,,,,,,,,,
,,,,,,,60e02d7931b0152927b4425d,2023-08-06_08h25.00.332,HF_wild_card,2022.2.4,MacIntel,59.99520038,60e02d7931b0152927b4425d,64ce5acb97489d65b14ecc7a,64cf4aa6ab024cbff515bd65,,,,,,,sngl,resources/DG.BMP,resources/Empty.png,Door1,-0.410587178,0.006293403,1,0,0,0.8951,optionLeft,30,2920,2,17,0,17,0,1,,,,,,,,,,,,,,,,,,,,,,,,,,,,,,,,,,,,,,,
,,,,,,,60e02d7931b0152927b4425d,2023-08-06_08h25.00.332,HF_wild_card,2022.2.4,MacIntel,59.99520038,60e02d7931b0152927b4425d,64ce5acb97489d65b14ecc7a,64cf4aa6ab024cbff515bd65,,,,,,,ctch,resources/DBN.BMP,resources/DY.BMP,Door3,-0.443402778,-0.005338542,1,0,0,0.8985,optionLeft,70,2990,2,18,0,18,0,1,,,,,,,,,,,,,,,,,,,,,,,,,,,,,,,,,,,,,,,
,,,,,,,60e02d7931b0152927b4425d,2023-08-06_08h25.00.332,HF_wild_card,2022.2.4,MacIntel,59.99520038,60e02d7931b0152927b4425d,64ce5acb97489d65b14ecc7a,64cf4aa6ab024cbff515bd65,,,,,,,sngl,resources/DB.BMP,resources/Empty.png,WildCard_Ex,-0.32718874,-0.020839534,1,0,0,0.9183,optionLeft,5,2995,2,19,0,19,0,1,,,,,,,,,,,,,,,,,,,,,,,,,,,,,,,,,,,,,,,
,,,,,,,60e02d7931b0152927b4425d,2023-08-06_08h25.00.332,HF_wild_card,2022.2.4,MacIntel,59.99520038,60e02d7931b0152927b4425d,64ce5acb97489d65b14ecc7a,64cf4aa6ab024cbff515bd65,,,,,,,ctch,resources/DP.BMP,resources/DG.BMP,Door1,0.513172743,0.017581225,1,0,0,2.0157,optionRight,30,3025,2,20,0,20,0,1,,,,,,,,,,,,,,,,,,,,,,,,,,,,,,,,,,,,,,,
,,,,,,,60e02d7931b0152927b4425d,2023-08-06_08h25.00.332,HF_wild_card,2022.2.4,MacIntel,59.99520038,60e02d7931b0152927b4425d,64ce5acb97489d65b14ecc7a,64cf4aa6ab024cbff515bd65,,,,,,,sngl,resources/Empty.png,resources/DP.BMP,Door4,0.355040923,-0.007775298,1,0,0,0.8802,optionRight,80,3105,2,21,0,21,0,1,,,,,,,,,,,,,,,,,,,,,,,,,,,,,,,,,,,,,,,
,,,,,,,60e02d7931b0152927b4425d,2023-08-06_08h25.00.332,HF_wild_card,2022.2.4,MacIntel,59.99520038,60e02d7931b0152927b4425d,64ce5acb97489d65b14ecc7a,64cf4aa6ab024cbff515bd65,,,,,,,sngl,resources/Empty.png,resources/DG.BMP,Door1,0.354098462,0.007936508,1,0,0,1.0161,optionRight,30,3135,2,22,0,22,0,1,,,,,,,,,,,,,,,,,,,,,,,,,,,,,,,,,,,,,,,
,,,,,,,60e02d7931b0152927b4425d,2023-08-06_08h25.00.332,HF_wild_card,2022.2.4,MacIntel,59.99520038,60e02d7931b0152927b4425d,64ce5acb97489d65b14ecc7a,64cf4aa6ab024cbff515bd65,,,,,,,decisionTrl,resources/DP.BMP,resources/DBN.BMP,Door3,0.357238963,0.020281498,1,0,0,1.3167,optionRight,70,3205,2,23,0,23,0,1,,,,,,,,,,,,,,,,,,,,,,,,,,,,,,,,,,,,,,,
,,,,,,,60e02d7931b0152927b4425d,2023-08-06_08h25.00.332,HF_wild_card,2022.2.4,MacIntel,59.99520038,60e02d7931b0152927b4425d,64ce5acb97489d65b14ecc7a,64cf4aa6ab024cbff515bd65,,,,,,,decisionTrl,resources/DB.BMP,resources/DP.BMP,Door4,0.379625496,-0.002836682,1,0,0,0.7834,optionRight,80,3285,2,24,0,24,0,1,,,,,,,,,,,,,,,,,,,,,,,,,,,,,,,,,,,,,,,
,,,,,,,60e02d7931b0152927b4425d,2023-08-06_08h25.00.332,HF_wild_card,2022.2.4,MacIntel,59.99520038,60e02d7931b0152927b4425d,64ce5acb97489d65b14ecc7a,64cf4aa6ab024cbff515bd65,,,,,,,decisionTrl,resources/DBN.BMP,resources/DP.BMP,Door3,-0.409756324,0.003872148,1,0,0,1.3322,optionLeft,70,3355,2,25,0,25,0,1,,,,,,,,,,,,,,,,,,,,,,,,,,,,,,,,,,,,,,,
,,,,,,,60e02d7931b0152927b4425d,2023-08-06_08h25.00.332,HF_wild_card,2022.2.4,MacIntel,59.99520038,60e02d7931b0152927b4425d,64ce5acb97489d65b14ecc7a,64cf4aa6ab024cbff515bd65,,,,,,,decisionTrl,resources/DG.BMP,resources/DB.BMP,Door1,-0.37156808,-0.019729663,1,0,0,1.2441,optionLeft,30,3385,2,26,0,26,0,1,,,,,,,,,,,,,,,,,,,,,,,,,,,,,,,,,,,,,,,
,,,,,,,60e02d7931b0152927b4425d,2023-08-06_08h25.00.332,HF_wild_card,2022.2.4,MacIntel,59.99520038,60e02d7931b0152927b4425d,64ce5acb97489d65b14ecc7a,64cf4aa6ab024cbff515bd65,,,,,,,decisionTrl,resources/DY.BMP,resources/DG.BMP,Door1,0.308621652,-0.00671813,1,0,0,1.3113,optionRight,30,3415,2,27,0,27,0,1,,,,,,,,,,,,,,,,,,,,,,,,,,,,,,,,,,,,,,,
,,,,,,,60e02d7931b0152927b4425d,2023-08-06_08h25.00.332,HF_wild_card,2022.2.4,MacIntel,59.99520038,60e02d7931b0152927b4425d,64ce5acb97489d65b14ecc7a,64cf4aa6ab024cbff515bd65,,,,,,,decisionTrl,resources/DB.BMP,resources/DBN.BMP,Door3,0.409390501,-0.012875124,1,0,0,0.7986,optionRight,70,3485,2,28,0,28,0,1,,,,,,,,,,,,,,,,,,,,,,,,,,,,,,,,,,,,,,,
,,,,,,,60e02d7931b0152927b4425d,2023-08-06_08h25.00.332,HF_wild_card,2022.2.4,MacIntel,59.99520038,60e02d7931b0152927b4425d,64ce5acb97489d65b14ecc7a,64cf4aa6ab024cbff515bd65,,,,,,,decisionTrl,resources/DBN.BMP,resources/DP.BMP,Door3,-0.31531188,0.003968254,1,0,0,0.981,optionLeft,70,3555,2,29,0,29,0,1,,,,,,,,,,,,,,,,,,,,,,,,,,,,,,,,,,,,,,,
,,,,,,,60e02d7931b0152927b4425d,2023-08-06_08h25.00.332,HF_wild_card,2022.2.4,MacIntel,59.99520038,60e02d7931b0152927b4425d,64ce5acb97489d65b14ecc7a,64cf4aa6ab024cbff515bd65,,,,,,,decisionTrl,resources/DBN.BMP,resources/DP.BMP,Door3,-0.36578621,0.003490823,1,0,0,1.3992,optionLeft,70,3625,2,30,0,30,0,1,,,,,,,,,,,,,,,,,,,,,,,,,,,,,,,,,,,,,,,
,,,,,,,60e02d7931b0152927b4425d,2023-08-06_08h25.00.332,HF_wild_card,2022.2.4,MacIntel,59.99520038,60e02d7931b0152927b4425d,64ce5acb97489d65b14ecc7a,64cf4aa6ab024cbff515bd65,,,,,,,ctch,resources/DG.BMP,resources/DP.BMP,Door4,0.389791047,-0.019252232,1,0,0,1.0321,optionRight,80,3705,2,31,0,31,0,1,,,,,,,,,,,,,,,,,,,,,,,,,,,,,,,,,,,,,,,
,,,,,,,60e02d7931b0152927b4425d,2023-08-06_08h25.00.332,HF_wild_card,2022.2.4,MacIntel,59.99520038,60e02d7931b0152927b4425d,64ce5acb97489d65b14ecc7a,64cf4aa6ab024cbff515bd65,,,,,,,decisionTrl,resources/DY.BMP,resources/DB.BMP,Door2,-0.380425347,0.004479787,1,0,0,1.8172,optionLeft,40,3745,2,32,0,32,0,1,,,,,,,,,,,,,,,,,,,,,,,,,,,,,,,,,,,,,,,
,,,,,,,60e02d7931b0152927b4425d,2023-08-06_08h25.00.332,HF_wild_card,2022.2.4,MacIntel,59.99520038,60e02d7931b0152927b4425d,64ce5acb97489d65b14ecc7a,64cf4aa6ab024cbff515bd65,,,,,,,sngl,resources/DP.BMP,resources/Empty.png,Door4,-0.396236359,-0.024302455,1,0,0,0.9294,optionLeft,60,3805,2,33,0,33,0,1,,,,,,,,,,,,,,,,,,,,,,,,,,,,,,,,,,,,,,,
,,,,,,,60e02d7931b0152927b4425d,2023-08-06_08h25.00.332,HF_wild_card,2022.2.4,MacIntel,59.99520038,60e02d7931b0152927b4425d,64ce5acb97489d65b14ecc7a,64cf4aa6ab024cbff515bd65,,,,,,,sngl,resources/DB.BMP,resources/Empty.png,WildCard_Ex,-0.383426339,-0.06375248,1,0,0,0.9992,optionLeft,95,3900,2,34,0,34,0,1,,,,,,,,,,,,,,,,,,,,,,,,,,,,,,,,,,,,,,,
,,,,,,,60e02d7931b0152927b4425d,2023-08-06_08h25.00.332,HF_wild_card,2022.2.4,MacIntel,59.99520038,60e02d7931b0152927b4425d,64ce5acb97489d65b14ecc7a,64cf4aa6ab024cbff515bd65,,,,,,,decisionTrl,resources/DP.BMP,resources/DBN.BMP,Door3,0.464558532,0.002439856,1,0,0,1.2151,optionRight,70,3970,2,35,0,35,0,1,,,,,,,,,,,,,,,,,,,,,,,,,,,,,,,,,,,,,,,
,,,,,,,60e02d7931b0152927b4425d,2023-08-06_08h25.00.332,HF_wild_card,2022.2.4,MacIntel,59.99520038,60e02d7931b0152927b4425d,64ce5acb97489d65b14ecc7a,64cf4aa6ab024cbff515bd65,,,,,,,ctch,resources/DP.BMP,resources/DG.BMP,Door4,-0.330713666,-0.003689236,1,0,0,2.0129,optionLeft,60,4030,2,36,0,36,0,1,,,,,,,,,,,,,,,,,,,,,,,,,,,,,,,,,,,,,,,
,,,,,,,60e02d7931b0152927b4425d,2023-08-06_08h25.00.332,HF_wild_card,2022.2.4,MacIntel,59.99520038,60e02d7931b0152927b4425d,64ce5acb97489d65b14ecc7a,64cf4aa6ab024cbff515bd65,,,,,,,decisionTrl,resources/DBN.BMP,resources/DP.BMP,Door3,-0.404107763,0.012372892,1,0,0,1.0486,optionLeft,70,4100,2,37,0,37,0,1,,,,,,,,,,,,,,,,,,,,,,,,,,,,,,,,,,,,,,,
,,,,,,,60e02d7931b0152927b4425d,2023-08-06_08h25.00.332,HF_wild_card,2022.2.4,MacIntel,59.99520038,60e02d7931b0152927b4425d,64ce5acb97489d65b14ecc7a,64cf4aa6ab024cbff515bd65,,,,,,,ctch,resources/DY.BMP,resources/DBN.BMP,Door3,0.416700769,-0.005766369,1,0,0,0.8299,optionRight,70,4170,2,38,0,38,0,1,,,,,,,,,,,,,,,,,,,,,,,,,,,,,,,,,,,,,,,
,,,,,,,60e02d7931b0152927b4425d,2023-08-06_08h25.00.332,HF_wild_card,2022.2.4,MacIntel,59.99520038,60e02d7931b0152927b4425d,64ce5acb97489d65b14ecc7a,64cf4aa6ab024cbff515bd65,,,,,,,decisionTrl,resources/DP.BMP,resources/DBN.BMP,Door3,0.319087922,-0.007986111,1,0,0,1.0494,optionRight,70,4240,2,39,0,39,0,1,,,,,,,,,,,,,,,,,,,,,,,,,,,,,,,,,,,,,,,
,,,,,,,60e02d7931b0152927b4425d,2023-08-06_08h25.00.332,HF_wild_card,2022.2.4,MacIntel,59.99520038,60e02d7931b0152927b4425d,64ce5acb97489d65b14ecc7a,64cf4aa6ab024cbff515bd65,,,,,,,sngl,resources/Empty.png,resources/DB.BMP,WildCard_Ex,0.390519593,-0.000322421,1,0,0,0.7994,optionRight,5,4245,2,40,0,40,0,1,,,,,,,,,,,,,,,,,,,,,,,,,,,,,,,,,,,,,,,
,,,,,,,60e02d7931b0152927b4425d,2023-08-06_08h25.00.332,HF_wild_card,2022.2.4,MacIntel,59.99520038,60e02d7931b0152927b4425d,64ce5acb97489d65b14ecc7a,64cf4aa6ab024cbff515bd65,,,,,,,decisionTrl,resources/DB.BMP,resources/DY.BMP,WildCard_Ex,-0.332211062,0.004780506,1,0,0,1.331,optionLeft,95,4340,2,41,0,41,0,1,,,,,,,,,,,,,,,,,,,,,,,,,,,,,,,,,,,,,,,
,,,,,,,60e02d7931b0152927b4425d,2023-08-06_08h25.00.332,HF_wild_card,2022.2.4,MacIntel,59.99520038,60e02d7931b0152927b4425d,64ce5acb97489d65b14ecc7a,64cf4aa6ab024cbff515bd65,,,,,,,ctch,resources/DY.BMP,resources/DBN.BMP,Door3,0.445814732,-0.004569692,1,0,0,0.9631,optionRight,70,4410,2,42,0,42,0,1,,,,,,,,,,,,,,,,,,,,,,,,,,,,,,,,,,,,,,,
,,,,,,,60e02d7931b0152927b4425d,2023-08-06_08h25.00.332,HF_wild_card,2022.2.4,MacIntel,59.99520038,60e02d7931b0152927b4425d,64ce5acb97489d65b14ecc7a,64cf4aa6ab024cbff515bd65,,,,,,,sngl,resources/Empty.png,resources/DBN.BMP,Door3,0.393799603,0.002433656,1,0,0,0.7982,optionRight,70,4480,2,43,0,43,0,1,,,,,,,,,,,,,,,,,,,,,,,,,,,,,,,,,,,,,,,
,,,,,,,60e02d7931b0152927b4425d,2023-08-06_08h25.00.332,HF_wild_card,2022.2.4,MacIntel,59.99520038,60e02d7931b0152927b4425d,64ce5acb97489d65b14ecc7a,64cf4aa6ab024cbff515bd65,,,,,,,,,,,,,,,,,,,,,,,,,,1,0,1,0,1,,,,,,,,,,,,,,,,,,,,,,,,,,,,,,,,,,
,,,,,,,60e02d7931b0152927b4425d,2023-08-06_08h25.00.332,HF_wild_card,2022.2.4,MacIntel,59.99520038,60e02d7931b0152927b4425d,64ce5acb97489d65b14ecc7a,64cf4aa6ab024cbff515bd65,,,,,,,decisionTrl,resources/DP.BMP,resources/DB.BMP,Door4,-0.302855283,-0.079786706,1,0,0,1.3696,optionLeft,80,4560,3,0,0,0,0,1,,,,,,,,,,,,,,,,,,,,,,,,,,,,,,,,,,,,,,,
,,,,,,,60e02d7931b0152927b4425d,2023-08-06_08h25.00.332,HF_wild_card,2022.2.4,MacIntel,59.99520038,60e02d7931b0152927b4425d,64ce5acb97489d65b14ecc7a,64cf4aa6ab024cbff515bd65,,,,,,,decisionTrl,resources/DB.BMP,resources/DG.BMP,WildCard_Ex,-0.37327939,-0.014307416,1,0,0,1.0648,optionLeft,5,4565,3,1,0,1,0,1,,,,,,,,,,,,,,,,,,,,,,,,,,,,,,,,,,,,,,,
,,,,,,,60e02d7931b0152927b4425d,2023-08-06_08h25.00.332,HF_wild_card,2022.2.4,MacIntel,59.99520038,60e02d7931b0152927b4425d,64ce5acb97489d65b14ecc7a,64cf4aa6ab024cbff515bd65,,,,,,,decisionTrl,resources/DB.BMP,resources/DBN.BMP,Door3,0.342677331,0.014009797,1,0,0,0.9273,optionRight,70,4635,3,2,0,2,0,1,,,,,,,,,,,,,,,,,,,,,,,,,,,,,,,,,,,,,,,
,,,,,,,60e02d7931b0152927b4425d,2023-08-06_08h25.00.332,HF_wild_card,2022.2.4,MacIntel,59.99520038,60e02d7931b0152927b4425d,64ce5acb97489d65b14ecc7a,64cf4aa6ab024cbff515bd65,,,,,,,ctch,resources/DP.BMP,resources/DG.BMP,Door4,-0.297361731,-0.002585565,1,0,0,1.2468,optionLeft,60,4695,3,3,0,3,0,1,,,,,,,,,,,,,,,,,,,,,,,,,,,,,,,,,,,,,,,
,,,,,,,60e02d7931b0152927b4425d,2023-08-06_08h25.00.332,HF_wild_card,2022.2.4,MacIntel,59.99520038,60e02d7931b0152927b4425d,64ce5acb97489d65b14ecc7a,64cf4aa6ab024cbff515bd65,,,,,,,sngl,resources/Empty.png,resources/DG.BMP,Door1,0.37608817,-0.009266493,1,0,0,0.8833,optionRight,30,4725,3,4,0,4,0,1,,,,,,,,,,,,,,,,,,,,,,,,,,,,,,,,,,,,,,,
,,,,,,,60e02d7931b0152927b4425d,2023-08-06_08h25.00.332,HF_wild_card,2022.2.4,MacIntel,59.99520038,60e02d7931b0152927b4425d,64ce5acb97489d65b14ecc7a,64cf4aa6ab024cbff515bd65,,,,,,,sngl,resources/DB.BMP,resources/Empty.png,WildCard_Ex,-0.41531808,-0.022479539,1,0,0,0.7504,optionLeft,95,4820,3,5,0,5,0,1,,,,,,,,,,,,,,,,,,,,,,,,,,,,,,,,,,,,,,,
,,,,,,,60e02d7931b0152927b4425d,2023-08-06_08h25.00.332,HF_wild_card,2022.2.4,MacIntel,59.99520038,60e02d7931b0152927b4425d,64ce5acb97489d65b14ecc7a,64cf4aa6ab024cbff515bd65,,,,,,,sngl,resources/Empty.png,resources/DB.BMP,WildCard_Ex,0.364431424,-0.019937376,1,0,0,1.1643,optionRight,95,4915,3,6,0,6,0,1,,,,,,,,,,,,,,,,,,,,,,,,,,,,,,,,,,,,,,,
,,,,,,,60e02d7931b0152927b4425d,2023-08-06_08h25.00.332,HF_wild_card,2022.2.4,MacIntel,59.99520038,60e02d7931b0152927b4425d,64ce5acb97489d65b14ecc7a,64cf4aa6ab024cbff515bd65,,,,,,,sngl,resources/Empty.png,resources/DB.BMP,WildCard_Ex,0.367553323,-0.012357391,1,0,0,0.7953,optionRight,5,4920,3,7,0,7,0,1,,,,,,,,,,,,,,,,,,,,,,,,,,,,,,,,,,,,,,,
,,,,,,,60e02d7931b0152927b4425d,2023-08-06_08h25.00.332,HF_wild_card,2022.2.4,MacIntel,59.99520038,60e02d7931b0152927b4425d,64ce5acb97489d65b14ecc7a,64cf4aa6ab024cbff515bd65,,,,,,,ctch,resources/DG.BMP,resources/DP.BMP,Door4,0.415587798,-0.009052579,1,0,0,1.298,optionRight,60,4980,3,8,0,8,0,1,,,,,,,,,,,,,,,,,,,,,,,,,,,,,,,,,,,,,,,
,,,,,,,60e02d7931b0152927b4425d,2023-08-06_08h25.00.332,HF_wild_card,2022.2.4,MacIntel,59.99520038,60e02d7931b0152927b4425d,64ce5acb97489d65b14ecc7a,64cf4aa6ab024cbff515bd65,,,,,,,sngl,resources/DBN.BMP,resources/Empty.png,Door3,-0.401640005,0.005295139,1,0,0,0.8487,optionLeft,70,5050,3,9,0,9,0,1,,,,,,,,,,,,,,,,,,,,,,,,,,,,,,,,,,,,,,,
,,,,,,,60e02d7931b0152927b4425d,2023-08-06_08h25.00.332,HF_wild_card,2022.2.4,MacIntel,59.99520038,60e02d7931b0152927b4425d,64ce5acb97489d65b14ecc7a,64cf4aa6ab024cbff515bd65,,,,,,,sngl,resources/DY.BMP,resources/Empty.png,Door2,-0.387335689,-0.046456473,1,0,0,0.7467,optionLeft,40,5090,3,10,0,10,0,1,,,,,,,,,,,,,,,,,,,,,,,,,,,,,,,,,,,,,,,
,,,,,,,60e02d7931b0152927b4425d,2023-08-06_08h25.00.332,HF_wild_card,2022.2.4,MacIntel,59.99520038,60e02d7931b0152927b4425d,64ce5acb97489d65b14ecc7a,64cf4aa6ab024cbff515bd65,,,,,,,decisionTrl,resources/DG.BMP,resources/DY.BMP,Door1,-0.43110119,-0.021397569,1,0,0,1.4279,optionLeft,30,5120,3,11,0,11,0,1,,,,,,,,,,,,,,,,,,,,,,,,,,,,,,,,,,,,,,,
,,,,,,,60e02d7931b0152927b4425d,2023-08-06_08h25.00.332,HF_wild_card,2022.2.4,MacIntel,59.99520038,60e02d7931b0152927b4425d,64ce5acb97489d65b14ecc7a,64cf4aa6ab024cbff515bd65,,,,,,,decisionTrl,resources/DY.BMP,resources/DG.BMP,Door1,0.34578063,-0.027145337,1,0,0,1.61,optionRight,30,5150,3,12,0,12,0,1,,,,,,,,,,,,,,,,,,,,,,,,,,,,,,,,,,,,,,,
,,,,,,,60e02d7931b0152927b4425d,2023-08-06_08h25.00.332,HF_wild_card,2022.2.4,MacIntel,59.99520038,60e02d7931b0152927b4425d,64ce5acb97489d65b14ecc7a,64cf4aa6ab024cbff515bd65,,,,,,,decisionTrl,resources/DP.BMP,resources/DBN.BMP,Door3,0.35640501,0.000412326,1,0,0,0.8638,optionRight,70,5220,3,13,0,13,0,1,,,,,,,,,,,,,,,,,,,,,,,,,,,,,,,,,,,,,,,
,,,,,,,60e02d7931b0152927b4425d,2023-08-06_08h25.00.332,HF_wild_card,2022.2.4,MacIntel,59.99520038,60e02d7931b0152927b4425d,64ce5acb97489d65b14ecc7a,64cf4aa6ab024cbff515bd65,,,,,,,decisionTrl,resources/DG.BMP,resources/DY.BMP,Door1,-0.334762525,-0.031442212,1,0,0,1.2141,optionLeft,30,5250,3,14,0,14,0,1,,,,,,,,,,,,,,,,,,,,,,,,,,,,,,,,,,,,,,,
,,,,,,,60e02d7931b0152927b4425d,2023-08-06_08h25.00.332,HF_wild_card,2022.2.4,MacIntel,59.99520038,60e02d7931b0152927b4425d,64ce5acb97489d65b14ecc7a,64cf4aa6ab024cbff515bd65,,,,,,,decisionTrl,resources/DY.BMP,resources/DG.BMP,Door2,-0.329253472,-0.015364583,1,0,0,1.7271,optionLeft,40,5290,3,15,0,15,0,1,,,,,,,,,,,,,,,,,,,,,,,,,,,,,,,,,,,,,,,
,,,,,,,60e02d7931b0152927b4425d,2023-08-06_08h25.00.332,HF_wild_card,2022.2.4,MacIntel,59.99520038,60e02d7931b0152927b4425d,64ce5acb97489d65b14ecc7a,64cf4aa6ab024cbff515bd65,,,,,,,decisionTrl,resources/DP.BMP,resources/DBN.BMP,Door3,0.356956845,-0.008333333,1,0,0,0.8976,optionRight,70,5360,3,16,0,16,0,1,,,,,,,,,,,,,,,,,,,,,,,,,,,,,,,,,,,,,,,
,,,,,,,60e02d7931b0152927b4425d,2023-08-06_08h25.00.332,HF_wild_card,2022.2.4,MacIntel,59.99520038,60e02d7931b0152927b4425d,64ce5acb97489d65b14ecc7a,64cf4aa6ab024cbff515bd65,,,,,,,ctch,resources/DBN.BMP,resources/DY.BMP,Door3,-0.363240947,-0.002938988,1,0,0,0.997,optionLeft,70,5430,3,17,0,17,0,1,,,,,,,,,,,,,,,,,,,,,,,,,,,,,,,,,,,,,,,
,,,,,,,60e02d7931b0152927b4425d,2023-08-06_08h25.00.332,HF_wild_card,2022.2.4,MacIntel,59.99520038,60e02d7931b0152927b4425d,64ce5acb97489d65b14ecc7a,64cf4aa6ab024cbff515bd65,,,,,,,decisionTrl,resources/DBN.BMP,resources/DP.BMP,Door3,-0.310698785,-0.019450645,1,0,0,0.9783,optionLeft,70,5500,3,18,0,18,0,1,,,,,,,,,,,,,,,,,,,,,,,,,,,,,,,,,,,,,,,
,,,,,,,60e02d7931b0152927b4425d,2023-08-06_08h25.00.332,HF_wild_card,2022.2.4,MacIntel,59.99520038,60e02d7931b0152927b4425d,64ce5acb97489d65b14ecc7a,64cf4aa6ab024cbff515bd65,,,,,,,ctch,resources/DBN.BMP,resources/DY.BMP,Door3,-0.31594122,0.003385417,1,0,0,0.7805,optionLeft,70,5570,3,19,0,19,0,1,,,,,,,,,,,,,,,,,,,,,,,,,,,,,,,,,,,,,,,
,,,,,,,60e02d7931b0152927b4425d,2023-08-06_08h25.00.332,HF_wild_card,2022.2.4,MacIntel,59.99520038,60e02d7931b0152927b4425d,64ce5acb97489d65b14ecc7a,64cf4aa6ab024cbff515bd65,,,,,,,decisionTrl,resources/DBN.BMP,resources/DP.BMP,Door3,-0.394072421,-0.009198289,1,0,0,0.9784,optionLeft,70,5640,3,20,0,20,0,1,,,,,,,,,,,,,,,,,,,,,,,,,,,,,,,,,,,,,,,
,,,,,,,60e02d7931b0152927b4425d,2023-08-06_08h25.00.332,HF_wild_card,2022.2.4,MacIntel,59.99520038,60e02d7931b0152927b4425d,64ce5acb97489d65b14ecc7a,64cf4aa6ab024cbff515bd65,,,,,,,decisionTrl,resources/DB.BMP,resources/DP.BMP,Door4,0.368833705,-0.039915055,1,0,0,1.8962,optionRight,60,5700,3,21,0,21,0,1,,,,,,,,,,,,,,,,,,,,,,,,,,,,,,,,,,,,,,,
,,,,,,,60e02d7931b0152927b4425d,2023-08-06_08h25.00.332,HF_wild_card,2022.2.4,MacIntel,59.99520038,60e02d7931b0152927b4425d,64ce5acb97489d65b14ecc7a,64cf4aa6ab024cbff515bd65,,,,,,,ctch,resources/DP.BMP,resources/DG.BMP,Door4,-0.359554812,-0.031925843,1,0,0,1.3149,optionLeft,80,5780,3,22,0,22,0,1,,,,,,,,,,,,,,,,,,,,,,,,,,,,,,,,,,,,,,,
,,,,,,,60e02d7931b0152927b4425d,2023-08-06_08h25.00.332,HF_wild_card,2022.2.4,MacIntel,59.99520038,60e02d7931b0152927b4425d,64ce5acb97489d65b14ecc7a,64cf4aa6ab024cbff515bd65,,,,,,,ctch,resources/DY.BMP,resources/DBN.BMP,Door3,0.439704241,-0.003097098,1,0,0,0.9665,optionRight,70,5850,3,23,0,23,0,1,,,,,,,,,,,,,,,,,,,,,,,,,,,,,,,,,,,,,,,
,,,,,,,60e02d7931b0152927b4425d,2023-08-06_08h25.00.332,HF_wild_card,2022.2.4,MacIntel,59.99520038,60e02d7931b0152927b4425d,64ce5acb97489d65b14ecc7a,64cf4aa6ab024cbff515bd65,,,,,,,decisionTrl,resources/DG.BMP,resources/DB.BMP,WildCard_Ex,0.448555308,-0.027446057,1,0,0,1.598,optionRight,5,5855,3,24,0,24,0,1,,,,,,,,,,,,,,,,,,,,,,,,,,,,,,,,,,,,,,,
,,,,,,,60e02d7931b0152927b4425d,2023-08-06_08h25.00.332,HF_wild_card,2022.2.4,MacIntel,59.99520038,60e02d7931b0152927b4425d,64ce5acb97489d65b14ecc7a,64cf4aa6ab024cbff515bd65,,,,,,,decisionTrl,resources/DY.BMP,resources/DG.BMP,Door2,-0.366579861,-0.000827753,1,0,0,1.9973,optionLeft,20,5875,3,25,0,25,0,1,,,,,,,,,,,,,,,,,,,,,,,,,,,,,,,,,,,,,,,
,,,,,,,60e02d7931b0152927b4425d,2023-08-06_08h25.00.332,HF_wild_card,2022.2.4,MacIntel,59.99520038,60e02d7931b0152927b4425d,64ce5acb97489d65b14ecc7a,64cf4aa6ab024cbff515bd65,,,,,,,decisionTrl,resources/DG.BMP,resources/DY.BMP,Door1,-0.325759549,0.001236979,1,0,0,1.6149,optionLeft,30,5905,3,26,0,26,0,1,,,,,,,,,,,,,,,,,,,,,,,,,,,,,,,,,,,,,,,
,,,,,,,60e02d7931b0152927b4425d,2023-08-06_08h25.00.332,HF_wild_card,2022.2.4,MacIntel,59.99520038,60e02d7931b0152927b4425d,64ce5acb97489d65b14ecc7a,64cf4aa6ab024cbff515bd65,,,,,,,decisionTrl,resources/DBN.BMP,resources/DP.BMP,Door3,-0.390404886,-0.012441096,1,0,0,1.1782,optionLeft,70,5975,3,27,0,27,0,1,,,,,,,,,,,,,,,,,,,,,,,,,,,,,,,,,,,,,,,
,,,,,,,60e02d7931b0152927b4425d,2023-08-06_08h25.00.332,HF_wild_card,2022.2.4,MacIntel,59.99520038,60e02d7931b0152927b4425d,64ce5acb97489d65b14ecc7a,64cf4aa6ab024cbff515bd65,,,,,,,ctch,resources/DG.BMP,resources/DP.BMP,Door4,0.312527902,-0.017925347,1,0,0,1.3315,optionRight,80,6055,3,28,0,28,0,1,,,,,,,,,,,,,,,,,,,,,,,,,,,,,,,,,,,,,,,
,,,,,,,60e02d7931b0152927b4425d,2023-08-06_08h25.00.332,HF_wild_card,2022.2.4,MacIntel,59.99520038,60e02d7931b0152927b4425d,64ce5acb97489d65b14ecc7a,64cf4aa6ab024cbff515bd65,,,,,,,decisionTrl,resources/DBN.BMP,resources/DB.BMP,Door3,-0.312444196,0.003292411,1,0,0,1.3009,optionLeft,70,6125,3,29,0,29,0,1,,,,,,,,,,,,,,,,,,,,,,,,,,,,,,,,,,,,,,,
,,,,,,,60e02d7931b0152927b4425d,2023-08-06_08h25.00.332,HF_wild_card,2022.2.4,MacIntel,59.99520038,60e02d7931b0152927b4425d,64ce5acb97489d65b14ecc7a,64cf4aa6ab024cbff515bd65,,,,,,,decisionTrl,resources/DY.BMP,resources/DB.BMP,WildCard_Ex,0.348874628,-0.014471726,1,0,0,1.6641,optionRight,5,6130,3,30,0,30,0,1,,,,,,,,,,,,,,,,,,,,,,,,,,,,,,,,,,,,,,,
,,,,,,,60e02d7931b0152927b4425d,2023-08-06_08h25.00.332,HF_wild_card,2022.2.4,MacIntel,59.99520038,60e02d7931b0152927b4425d,64ce5acb97489d65b14ecc7a,64cf4aa6ab024cbff515bd65,,,,,,,sngl,resources/Empty.png,resources/DBN.BMP,Door3,0.380741567,0.022591146,1,0,0,0.7973,optionRight,70,6200,3,31,0,31,0,1,,,,,,,,,,,,,,,,,,,,,,,,,,,,,,,,,,,,,,,
,,,,,,,60e02d7931b0152927b4425d,2023-08-06_08h25.00.332,HF_wild_card,2022.2.4,MacIntel,59.99520038,60e02d7931b0152927b4425d,64ce5acb97489d65b14ecc7a,64cf4aa6ab024cbff515bd65,,,,,,,decisionTrl,resources/DY.BMP,resources/DG.BMP,Door2,-0.340683904,-0.000254216,1,0,0,2.4472,optionLeft,20,6220,3,32,0,32,0,1,,,,,,,,,,,,,,,,,,,,,,,,,,,,,,,,,,,,,,,
,,,,,,,60e02d7931b0152927b4425d,2023-08-06_08h25.00.332,HF_wild_card,2022.2.4,MacIntel,59.99520038,60e02d7931b0152927b4425d,64ce5acb97489d65b14ecc7a,64cf4aa6ab024cbff515bd65,,,,,,,decisionTrl,resources/DG.BMP,resources/DY.BMP,Door1,-0.3593781,0.000344122,1,0,0,1.3657,optionLeft,30,6250,3,33,0,33,0,1,,,,,,,,,,,,,,,,,,,,,,,,,,,,,,,,,,,,,,,
,,,,,,,60e02d7931b0152927b4425d,2023-08-06_08h25.00.332,HF_wild_card,2022.2.4,MacIntel,59.99520038,60e02d7931b0152927b4425d,64ce5acb97489d65b14ecc7a,64cf4aa6ab024cbff515bd65,,,,,,,ctch,resources/DY.BMP,resources/DBN.BMP,Door3,0.385838294,0.008823165,1,0,0,0.8146,optionRight,70,6320,3,34,0,34,0,1,,,,,,,,,,,,,,,,,,,,,,,,,,,,,,,,,,,,,,,
,,,,,,,60e02d7931b0152927b4425d,2023-08-06_08h25.00.332,HF_wild_card,2022.2.4,MacIntel,59.99520038,60e02d7931b0152927b4425d,64ce5acb97489d65b14ecc7a,64cf4aa6ab024cbff515bd65,,,,,,,decisionTrl,resources/DBN.BMP,resources/DP.BMP,Door3,-0.301047867,-0.01625434,1,0,0,0.8777,optionLeft,70,6390,3,35,0,35,0,1,,,,,,,,,,,,,,,,,,,,,,,,,,,,,,,,,,,,,,,
,,,,,,,60e02d7931b0152927b4425d,2023-08-06_08h25.00.332,HF_wild_card,2022.2.4,MacIntel,59.99520038,60e02d7931b0152927b4425d,64ce5acb97489d65b14ecc7a,64cf4aa6ab024cbff515bd65,,,,,,,sngl,resources/Empty.png,resources/DP.BMP,Door4,0.393021453,0.005075025,1,0,0,0.8657,optionRight,60,6450,3,36,0,36,0,1,,,,,,,,,,,,,,,,,,,,,,,,,,,,,,,,,,,,,,,
,,,,,,,60e02d7931b0152927b4425d,2023-08-06_08h25.00.332,HF_wild_card,2022.2.4,MacIntel,59.99520038,60e02d7931b0152927b4425d,64ce5acb97489d65b14ecc7a,64cf4aa6ab024cbff515bd65,,,,,,,decisionTrl,resources/DP.BMP,resources/DBN.BMP,Door3,0.459145585,0.010689484,1,0,0,0.9149,optionRight,70,6520,3,37,0,37,0,1,,,,,,,,,,,,,,,,,,,,,,,,,,,,,,,,,,,,,,,
,,,,,,,60e02d7931b0152927b4425d,2023-08-06_08h25.00.332,HF_wild_card,2022.2.4,MacIntel,59.99520038,60e02d7931b0152927b4425d,64ce5acb97489d65b14ecc7a,64cf4aa6ab024cbff515bd65,,,,,,,sngl,resources/DP.BMP,resources/Empty.png,Door4,-0.366982887,-0.019695561,1,0,0,0.8484,optionLeft,80,6600,3,38,0,38,0,1,,,,,,,,,,,,,,,,,,,,,,,,,,,,,,,,,,,,,,,
,,,,,,,60e02d7931b0152927b4425d,2023-08-06_08h25.00.332,HF_wild_card,2022.2.4,MacIntel,59.99520038,60e02d7931b0152927b4425d,64ce5acb97489d65b14ecc7a,64cf4aa6ab024cbff515bd65,,,,,,,sngl,resources/DG.BMP,resources/Empty.png,Door1,-0.318105159,-0.013975694,1,0,0,0.9469,optionLeft,30,6630,3,39,0,39,0,1,,,,,,,,,,,,,,,,,,,,,,,,,,,,,,,,,,,,,,,
,,,,,,,60e02d7931b0152927b4425d,2023-08-06_08h25.00.332,HF_wild_card,2022.2.4,MacIntel,59.99520038,60e02d7931b0152927b4425d,64ce5acb97489d65b14ecc7a,64cf4aa6ab024cbff515bd65,,,,,,,sngl,resources/Empty.png,resources/DY.BMP,Door2,0.389521329,-0.008410838,1,0,0,0.7455,optionRight,20,6650,3,40,0,40,0,1,,,,,,,,,,,,,,,,,,,,,,,,,,,,,,,,,,,,,,,
,,,,,,,60e02d7931b0152927b4425d,2023-08-06_08h25.00.332,HF_wild_card,2022.2.4,MacIntel,59.99520038,60e02d7931b0152927b4425d,64ce5acb97489d65b14ecc7a,64cf4aa6ab024cbff515bd65,,,,,,,sngl,resources/DB.BMP,resources/Empty.png,WildCard_Ex,-0.332911706,-0.030592758,1,0,0,0.8804,optionLeft,5,6655,3,41,0,41,0,1,,,,,,,,,,,,,,,,,,,,,,,,,,,,,,,,,,,,,,,
,,,,,,,60e02d7931b0152927b4425d,2023-08-06_08h25.00.332,HF_wild_card,2022.2.4,MacIntel,59.99520038,60e02d7931b0152927b4425d,64ce5acb97489d65b14ecc7a,64cf4aa6ab024cbff515bd65,,,,,,,decisionTrl,resources/DP.BMP,resources/DBN.BMP,Door3,0.385181052,0.004653398,1,0,0,1.1474,optionRight,70,6725,3,42,0,42,0,1,,,,,,,,,,,,,,,,,,,,,,,,,,,,,,,,,,,,,,,
,,,,,,,60e02d7931b0152927b4425d,2023-08-06_08h25.00.332,HF_wild_card,2022.2.4,MacIntel,59.99520038,60e02d7931b0152927b4425d,64ce5acb97489d65b14ecc7a,64cf4aa6ab024cbff515bd65,,,,,,,decisionTrl,resources/DB.BMP,resources/DY.BMP,WildCard_Ex,-0.363659474,-0.014121404,1,0,0,1.1489,optionLeft,95,6820,3,43,0,43,0,1,,,,,,,,,,,,,,,,,,,,,,,,,,,,,,,,,,,,,,,
,,,,,,,60e02d7931b0152927b4425d,2023-08-06_08h25.00.332,HF_wild_card,2022.2.4,MacIntel,59.99520038,60e02d7931b0152927b4425d,64ce5acb97489d65b14ecc7a,64cf4aa6ab024cbff515bd65,,,,,,,,,,,,,,,,,,,,,,,,,,2,0,2,0,1,,,,,,,,,,,,,,,,,,,,,,,,,,,,,,,,,,
,,,,,,,60e02d7931b0152927b4425d,2023-08-06_08h25.00.332,HF_wild_card,2022.2.4,MacIntel,59.99520038,60e02d7931b0152927b4425d,64ce5acb97489d65b14ecc7a,64cf4aa6ab024cbff515bd65,,,,,,,sngl,resources/Empty.png,resources/DY.BMP,Door2,0.412620908,-0.02359561,1,0,0,0.7064,optionRight,40,6860,4,0,0,0,0,1,,,,,,,,,,,,,,,,,,,,,,,,,,,,,,,,,,,,,,,
,,,,,,,60e02d7931b0152927b4425d,2023-08-06_08h25.00.332,HF_wild_card,2022.2.4,MacIntel,59.99520038,60e02d7931b0152927b4425d,64ce5acb97489d65b14ecc7a,64cf4aa6ab024cbff515bd65,,,,,,,decisionTrl,resources/DY.BMP,resources/DG.BMP,Door1,0.418266369,-0.005248636,1,0,0,1.5792,optionRight,30,6890,4,1,0,1,0,1,,,,,,,,,,,,,,,,,,,,,,,,,,,,,,,,,,,,,,,
,,,,,,,60e02d7931b0152927b4425d,2023-08-06_08h25.00.332,HF_wild_card,2022.2.4,MacIntel,59.99520038,60e02d7931b0152927b4425d,64ce5acb97489d65b14ecc7a,64cf4aa6ab024cbff515bd65,,,,,,,decisionTrl,resources/DBN.BMP,resources/DP.BMP,Door3,-0.308531746,0.020120288,1,0,0,0.9985,optionLeft,70,6960,4,2,0,2,0,1,,,,,,,,,,,,,,,,,,,,,,,,,,,,,,,,,,,,,,,
,,,,,,,60e02d7931b0152927b4425d,2023-08-06_08h25.00.332,HF_wild_card,2022.2.4,MacIntel,59.99520038,60e02d7931b0152927b4425d,64ce5acb97489d65b14ecc7a,64cf4aa6ab024cbff515bd65,,,,,,,sngl,resources/Empty.png,resources/DR.BMP,WildCard_NonEx,0.411421131,-0.010357763,1,0,0,0.7809,optionRight,55,7015,4,3,0,3,0,1,,,,,,,,,,,,,,,,,,,,,,,,,,,,,,,,,,,,,,,
,,,,,,,60e02d7931b0152927b4425d,2023-08-06_08h25.00.332,HF_wild_card,2022.2.4,MacIntel,59.99520038,60e02d7931b0152927b4425d,64ce5acb97489d65b14ecc7a,64cf4aa6ab024cbff515bd65,,,,,,,ctch,resources/DY.BMP,resources/DBN.BMP,Door3,0.41062438,0.020008681,1,0,0,1.1494,optionRight,70,7085,4,4,0,4,0,1,,,,,,,,,,,,,,,,,,,,,,,,,,,,,,,,,,,,,,,
,,,,,,,60e02d7931b0152927b4425d,2023-08-06_08h25.00.332,HF_wild_card,2022.2.4,MacIntel,59.99520038,60e02d7931b0152927b4425d,64ce5acb97489d65b14ecc7a,64cf4aa6ab024cbff515bd65,,,,,,,decisionTrl,resources/DP.BMP,resources/DBN.BMP,Door3,0.449135045,0.002613467,1,0,0,0.8685,optionRight,70,7155,4,5,0,5,0,1,,,,,,,,,,,,,,,,,,,,,,,,,,,,,,,,,,,,,,,
,,,,,,,60e02d7931b0152927b4425d,2023-08-06_08h25.00.332,HF_wild_card,2022.2.4,MacIntel,59.99520038,60e02d7931b0152927b4425d,64ce5acb97489d65b14ecc7a,64cf4aa6ab024cbff515bd65,,,,,,,decisionTrl,resources/DR.BMP,resources/DY.BMP,WildCard_NonEx,-0.342788938,0.001531498,1,0,0,1.2796,optionLeft,55,7210,4,6,0,6,0,1,,,,,,,,,,,,,,,,,,,,,,,,,,,,,,,,,,,,,,,
,,,,,,,60e02d7931b0152927b4425d,2023-08-06_08h25.00.332,HF_wild_card,2022.2.4,MacIntel,59.99520038,60e02d7931b0152927b4425d,64ce5acb97489d65b14ecc7a,64cf4aa6ab024cbff515bd65,,,,,,,ctch,resources/DY.BMP,resources/DBN.BMP,Door3,0.439710441,-0.005645461,1,0,0,0.929,optionRight,70,7280,4,7,0,7,0,1,,,,,,,,,,,,,,,,,,,,,,,,,,,,,,,,,,,,,,,
,,,,,,,60e02d7931b0152927b4425d,2023-08-06_08h25.00.332,HF_wild_card,2022.2.4,MacIntel,59.99520038,60e02d7931b0152927b4425d,64ce5acb97489d65b14ecc7a,64cf4aa6ab024cbff515bd65,,,,,,,decisionTrl,resources/DY.BMP,resources/DG.BMP,Door2,-0.298000372,-0.013082837,1,0,0,1.4817,optionLeft,40,7320,4,8,0,8,0,1,,,,,,,,,,,,,,,,,,,,,,,,,,,,,,,,,,,,,,,
,,,,,,,60e02d7931b0152927b4425d,2023-08-06_08h25.00.332,HF_wild_card,2022.2.4,MacIntel,59.99520038,60e02d7931b0152927b4425d,64ce5acb97489d65b14ecc7a,64cf4aa6ab024cbff515bd65,,,,,,,sngl,resources/DG.BMP,resources/Empty.png,Door1,-0.43921131,-0.032558284,1,0,0,0.8324,optionLeft,30,7350,4,9,0,9,0,1,,,,,,,,,,,,,,,,,,,,,,,,,,,,,,,,,,,,,,,
,,,,,,,60e02d7931b0152927b4425d,2023-08-06_08h25.00.332,HF_wild_card,2022.2.4,MacIntel,59.99520038,60e02d7931b0152927b4425d,64ce5acb97489d65b14ecc7a,64cf4aa6ab024cbff515bd65,,,,,,,decisionTrl,resources/DY.BMP,resources/DG.BMP,Door2,-0.352669271,-0.038054936,1,0,0,1.0672,optionLeft,40,7390,4,10,0,10,0,1,,,,,,,,,,,,,,,,,,,,,,,,,,,,,,,,,,,,,,,
,,,,,,,60e02d7931b0152927b4425d,2023-08-06_08h25.00.332,HF_wild_card,2022.2.4,MacIntel,59.99520038,60e02d7931b0152927b4425d,64ce5acb97489d65b14ecc7a,64cf4aa6ab024cbff515bd65,,,,,,,decisionTrl,resources/DG.BMP,resources/DR.BMP,WildCard_NonEx,0.328676835,-0.017075893,1,0,0,1.2521,optionRight,45,7435,4,11,0,11,0,1,,,,,,,,,,,,,,,,,,,,,,,,,,,,,,,,,,,,,,,
,,,,,,,60e02d7931b0152927b4425d,2023-08-06_08h25.00.332,HF_wild_card,2022.2.4,MacIntel,59.99520038,60e02d7931b0152927b4425d,64ce5acb97489d65b14ecc7a,64cf4aa6ab024cbff515bd65,,,,,,,decisionTrl,resources/DY.BMP,resources/DG.BMP,Door2,-0.35968812,-0.027229043,1,0,0,1.3964,optionLeft,20,7455,4,12,0,12,0,1,,,,,,,,,,,,,,,,,,,,,,,,,,,,,,,,,,,,,,,
,,,,,,,60e02d7931b0152927b4425d,2023-08-06_08h25.00.332,HF_wild_card,2022.2.4,MacIntel,59.99520038,60e02d7931b0152927b4425d,64ce5acb97489d65b14ecc7a,64cf4aa6ab024cbff515bd65,,,,,,,sngl,resources/DP.BMP,resources/Empty.png,Door4,-0.419540551,-0.05186942,1,0,0,0.8965,optionLeft,60,7515,4,13,0,13,0,1,,,,,,,,,,,,,,,,,,,,,,,,,,,,,,,,,,,,,,,
,,,,,,,60e02d7931b0152927b4425d,2023-08-06_08h25.00.332,HF_wild_card,2022.2.4,MacIntel,59.99520038,60e02d7931b0152927b4425d,64ce5acb97489d65b14ecc7a,64cf4aa6ab024cbff515bd65,,,,,,,decisionTrl,resources/DG.BMP,resources/DY.BMP,Door2,0.385819692,-0.005673363,1,0,0,1.5649,optionRight,40,7555,4,14,0,14,0,1,,,,,,,,,,,,,,,,,,,,,,,,,,,,,,,,,,,,,,,
,,,,,,,60e02d7931b0152927b4425d,2023-08-06_08h25.00.332,HF_wild_card,2022.2.4,MacIntel,59.99520038,60e02d7931b0152927b4425d,64ce5acb97489d65b14ecc7a,64cf4aa6ab024cbff515bd65,,,,,,,sngl,resources/Empty.png,resources/DP.BMP,Door4,0.513966394,-0.021921503,1,0,0,0.7973,optionRight,80,7635,4,15,0,15,0,1,,,,,,,,,,,,,,,,,,,,,,,,,,,,,,,,,,,,,,,
,,,,,,,60e02d7931b0152927b4425d,2023-08-06_08h25.00.332,HF_wild_card,2022.2.4,MacIntel,59.99520038,60e02d7931b0152927b4425d,64ce5acb97489d65b14ecc7a,64cf4aa6ab024cbff515bd65,,,,,,,decisionTrl,resources/DP.BMP,resources/DR.BMP,WildCard_NonEx,0.498608011,-0.00359313,1,0,0,0.9841,optionRight,55,7690,4,16,0,16,0,1,,,,,,,,,,,,,,,,,,,,,,,,,,,,,,,,,,,,,,,
,,,,,,,60e02d7931b0152927b4425d,2023-08-06_08h25.00.332,HF_wild_card,2022.2.4,MacIntel,59.99520038,60e02d7931b0152927b4425d,64ce5acb97489d65b14ecc7a,64cf4aa6ab024cbff515bd65,,,,,,,decisionTrl,resources/DBN.BMP,resources/DP.BMP,Door3,-0.298319692,0.022699653,1,0,0,1.1297,optionLeft,70,7760,4,17,0,17,0,1,,,,,,,,,,,,,,,,,,,,,,,,,,,,,,,,,,,,,,,
,,,,,,,60e02d7931b0152927b4425d,2023-08-06_08h25.00.332,HF_wild_card,2022.2.4,MacIntel,59.99520038,60e02d7931b0152927b4425d,64ce5acb97489d65b14ecc7a,64cf4aa6ab024cbff515bd65,,,,,,,decisionTrl,resources/DR.BMP,resources/DG.BMP,WildCard_NonEx,-0.381736731,-0.012419395,1,0,0,0.9671,optionLeft,55,7815,4,18,0,18,0,1,,,,,,,,,,,,,,,,,,,,,,,,,,,,,,,,,,,,,,,
,,,,,,,60e02d7931b0152927b4425d,2023-08-06_08h25.00.332,HF_wild_card,2022.2.4,MacIntel,59.99520038,60e02d7931b0152927b4425d,64ce5acb97489d65b14ecc7a,64cf4aa6ab024cbff515bd65,,,,,,,decisionTrl,resources/DBN.BMP,resources/DR.BMP,Door3,-0.380614459,0.007725694,1,0,0,0.9803,optionLeft,70,7885,4,19,0,19,0,1,,,,,,,,,,,,,,,,,,,,,,,,,,,,,,,,,,,,,,,
,,,,,,,60e02d7931b0152927b4425d,2023-08-06_08h25.00.332,HF_wild_card,2022.2.4,MacIntel,59.99520038,60e02d7931b0152927b4425d,64ce5acb97489d65b14ecc7a,64cf4aa6ab024cbff515bd65,,,,,,,sngl,resources/DBN.BMP,resources/Empty.png,Door3,-0.304783606,-0.008668155,1,0,0,0.7458,optionLeft,70,7955,4,20,0,20,0,1,,,,,,,,,,,,,,,,,,,,,,,,,,,,,,,,,,,,,,,
,,,,,,,60e02d7931b0152927b4425d,2023-08-06_08h25.00.332,HF_wild_card,2022.2.4,MacIntel,59.99520038,60e02d7931b0152927b4425d,64ce5acb97489d65b14ecc7a,64cf4aa6ab024cbff515bd65,,,,,,,sngl,resources/DR.BMP,resources/Empty.png,WildCard_NonEx,-0.318573289,-0.032313368,1,0,0,0.8136,optionLeft,45,8000,4,21,0,21,0,1,,,,,,,,,,,,,,,,,,,,,,,,,,,,,,,,,,,,,,,
,,,,,,,60e02d7931b0152927b4425d,2023-08-06_08h25.00.332,HF_wild_card,2022.2.4,MacIntel,59.99520038,60e02d7931b0152927b4425d,64ce5acb97489d65b14ecc7a,64cf4aa6ab024cbff515bd65,,,,,,,decisionTrl,resources/DY.BMP,resources/DR.BMP,WildCard_NonEx,0.304485987,-0.012434896,1,0,0,0.964,optionRight,45,8045,4,22,0,22,0,1,,,,,,,,,,,,,,,,,,,,,,,,,,,,,,,,,,,,,,,
,,,,,,,60e02d7931b0152927b4425d,2023-08-06_08h25.00.332,HF_wild_card,2022.2.4,MacIntel,59.99520038,60e02d7931b0152927b4425d,64ce5acb97489d65b14ecc7a,64cf4aa6ab024cbff515bd65,,,,,,,decisionTrl,resources/DG.BMP,resources/DY.BMP,Door2,0.34249442,-0.007610987,1,0,0,1.8487,optionRight,40,8085,4,23,0,23,0,1,,,,,,,,,,,,,,,,,,,,,,,,,,,,,,,,,,,,,,,
,,,,,,,60e02d7931b0152927b4425d,2023-08-06_08h25.00.332,HF_wild_card,2022.2.4,MacIntel,59.99520038,60e02d7931b0152927b4425d,64ce5acb97489d65b14ecc7a,64cf4aa6ab024cbff515bd65,,,,,,,sngl,resources/Empty.png,resources/DG.BMP,Door1,0.298670015,-0.008506944,1,0,0,0.9797,optionRight,30,8115,4,24,0,24,0,1,,,,,,,,,,,,,,,,,,,,,,,,,,,,,,,,,,,,,,,
,,,,,,,60e02d7931b0152927b4425d,2023-08-06_08h25.00.332,HF_wild_card,2022.2.4,MacIntel,59.99520038,60e02d7931b0152927b4425d,64ce5acb97489d65b14ecc7a,64cf4aa6ab024cbff515bd65,,,,,,,ctch,resources/DBN.BMP,resources/DY.BMP,Door3,-0.285072545,-0.008661954,1,0,0,0.8484,optionLeft,70,8185,4,25,0,25,0,1,,,,,,,,,,,,,,,,,,,,,,,,,,,,,,,,,,,,,,,
,,,,,,,60e02d7931b0152927b4425d,2023-08-06_08h25.00.332,HF_wild_card,2022.2.4,MacIntel,59.99520038,60e02d7931b0152927b4425d,64ce5acb97489d65b14ecc7a,64cf4aa6ab024cbff515bd65,,,,,,,ctch,resources/DBN.BMP,resources/DY.BMP,Door3,-0.400275918,0.003921751,1,0,0,0.7635,optionLeft,70,8255,4,26,0,26,0,1,,,,,,,,,,,,,,,,,,,,,,,,,,,,,,,,,,,,,,,
,,,,,,,60e02d7931b0152927b4425d,2023-08-06_08h25.00.332,HF_wild_card,2022.2.4,MacIntel,59.99520038,60e02d7931b0152927b4425d,64ce5acb97489d65b14ecc7a,64cf4aa6ab024cbff515bd65,,,,,,,decisionTrl,resources/DP.BMP,resources/DBN.BMP,Door3,0.400722346,0.017534722,1,0,0,0.9436,optionRight,70,8325,4,27,0,27,0,1,,,,,,,,,,,,,,,,,,,,,,,,,,,,,,,,,,,,,,,
,,,,,,,60e02d7931b0152927b4425d,2023-08-06_08h25.00.332,HF_wild_card,2022.2.4,MacIntel,59.99520038,60e02d7931b0152927b4425d,64ce5acb97489d65b14ecc7a,64cf4aa6ab024cbff515bd65,,,,,,,decisionTrl,resources/DG.BMP,resources/DY.BMP,Door2,0.510184152,0.009458705,1,0,0,1.6961,optionRight,40,8365,4,28,0,28,0,1,,,,,,,,,,,,,,,,,,,,,,,,,,,,,,,,,,,,,,,
,,,,,,,60e02d7931b0152927b4425d,2023-08-06_08h25.00.332,HF_wild_card,2022.2.4,MacIntel,59.99520038,60e02d7931b0152927b4425d,64ce5acb97489d65b14ecc7a,64cf4aa6ab024cbff515bd65,,,,,,,decisionTrl,resources/DR.BMP,resources/DP.BMP,WildCard_NonEx,-0.326137773,-0.027275546,1,0,0,0.9676,optionLeft,55,8420,4,29,0,29,0,1,,,,,,,,,,,,,,,,,,,,,,,,,,,,,,,,,,,,,,,
,,,,,,,60e02d7931b0152927b4425d,2023-08-06_08h25.00.332,HF_wild_card,2022.2.4,MacIntel,59.99520038,60e02d7931b0152927b4425d,64ce5acb97489d65b14ecc7a,64cf4aa6ab024cbff515bd65,,,,,,,decisionTrl,resources/DP.BMP,resources/DBN.BMP,Door3,0.281925843,0.002839782,1,0,0,1.2778,optionRight,70,8490,4,30,0,30,0,1,,,,,,,,,,,,,,,,,,,,,,,,,,,,,,,,,,,,,,,
,,,,,,,60e02d7931b0152927b4425d,2023-08-06_08h25.00.332,HF_wild_card,2022.2.4,MacIntel,59.99520038,60e02d7931b0152927b4425d,64ce5acb97489d65b14ecc7a,64cf4aa6ab024cbff515bd65,,,,,,,sngl,resources/Empty.png,resources/DBN.BMP,Door3,0.365677703,0.010370164,1,0,0,0.7488,optionRight,70,8560,4,31,0,31,0,1,,,,,,,,,,,,,,,,,,,,,,,,,,,,,,,,,,,,,,,
,,,,,,,60e02d7931b0152927b4425d,2023-08-06_08h25.00.332,HF_wild_card,2022.2.4,MacIntel,59.99520038,60e02d7931b0152927b4425d,64ce5acb97489d65b14ecc7a,64cf4aa6ab024cbff515bd65,,,,,,,decisionTrl,resources/DBN.BMP,resources/DP.BMP,Door3,-0.272690352,-0.011281622,1,0,0,1.1952,optionLeft,70,8630,4,32,0,32,0,1,,,,,,,,,,,,,,,,,,,,,,,,,,,,,,,,,,,,,,,
,,,,,,,60e02d7931b0152927b4425d,2023-08-06_08h25.00.332,HF_wild_card,2022.2.4,MacIntel,59.99520038,60e02d7931b0152927b4425d,64ce5acb97489d65b14ecc7a,64cf4aa6ab024cbff515bd65,,,,,,,decisionTrl,resources/DBN.BMP,resources/DP.BMP,Door3,-0.387558904,-0.005447049,1,0,0,0.8137,optionLeft,70,8700,4,33,0,33,0,1,,,,,,,,,,,,,,,,,,,,,,,,,,,,,,,,,,,,,,,
,,,,,,,60e02d7931b0152927b4425d,2023-08-06_08h25.00.332,HF_wild_card,2022.2.4,MacIntel,59.99520038,60e02d7931b0152927b4425d,64ce5acb97489d65b14ecc7a,64cf4aa6ab024cbff515bd65,,,,,,,sngl,resources/DY.BMP,resources/Empty.png,Door2,-0.384542411,-0.014803447,1,0,0,0.8453,optionLeft,20,8720,4,34,0,34,0,1,,,,,,,,,,,,,,,,,,,,,,,,,,,,,,,,,,,,,,,
,,,,,,,60e02d7931b0152927b4425d,2023-08-06_08h25.00.332,HF_wild_card,2022.2.4,MacIntel,59.99520038,60e02d7931b0152927b4425d,64ce5acb97489d65b14ecc7a,64cf4aa6ab024cbff515bd65,,,,,,,ctch,resources/DP.BMP,resources/DG.BMP,Door4,-0.327669271,-0.013715278,1,0,0,1.6115,optionLeft,60,8780,4,35,0,35,0,1,,,,,,,,,,,,,,,,,,,,,,,,,,,,,,,,,,,,,,,
,,,,,,,60e02d7931b0152927b4425d,2023-08-06_08h25.00.332,HF_wild_card,2022.2.4,MacIntel,59.99520038,60e02d7931b0152927b4425d,64ce5acb97489d65b14ecc7a,64cf4aa6ab024cbff515bd65,,,,,,,sngl,resources/Empty.png,resources/DR.BMP,WildCard_NonEx,0.36344246,-0.031510417,1,0,0,0.8179,optionRight,45,8825,4,36,0,36,0,1,,,,,,,,,,,,,,,,,,,,,,,,,,,,,,,,,,,,,,,
,,,,,,,60e02d7931b0152927b4425d,2023-08-06_08h25.00.332,HF_wild_card,2022.2.4,MacIntel,59.99520038,60e02d7931b0152927b4425d,64ce5acb97489d65b14ecc7a,64cf4aa6ab024cbff515bd65,,,,,,,decisionTrl,resources/DG.BMP,resources/DY.BMP,Door2,0.392413814,-0.003478423,1,0,0,1.7271,optionRight,40,8865,4,37,0,37,0,1,,,,,,,,,,,,,,,,,,,,,,,,,,,,,,,,,,,,,,,
,,,,,,,60e02d7931b0152927b4425d,2023-08-06_08h25.00.332,HF_wild_card,2022.2.4,MacIntel,59.99520038,60e02d7931b0152927b4425d,64ce5acb97489d65b14ecc7a,64cf4aa6ab024cbff515bd65,,,,,,,sngl,resources/DR.BMP,resources/Empty.png,WildCard_NonEx,-0.392578125,-0.012772817,1,0,0,0.8123,optionLeft,55,8920,4,38,0,38,0,1,,,,,,,,,,,,,,,,,,,,,,,,,,,,,,,,,,,,,,,
,,,,,,,60e02d7931b0152927b4425d,2023-08-06_08h25.00.332,HF_wild_card,2022.2.4,MacIntel,59.99520038,60e02d7931b0152927b4425d,64ce5acb97489d65b14ecc7a,64cf4aa6ab024cbff515bd65,,,,,,,ctch,resources/DG.BMP,resources/DP.BMP,Door4,0.287310888,-0.004560392,1,0,0,0.9965,optionRight,80,9000,4,39,0,39,0,1,,,,,,,,,,,,,,,,,,,,,,,,,,,,,,,,,,,,,,,
,,,,,,,60e02d7931b0152927b4425d,2023-08-06_08h25.00.332,HF_wild_card,2022.2.4,MacIntel,59.99520038,60e02d7931b0152927b4425d,64ce5acb97489d65b14ecc7a,64cf4aa6ab024cbff515bd65,,,,,,,decisionTrl,resources/DR.BMP,resources/DBN.BMP,Door3,0.403921751,0.018213666,1,0,0,1.2311,optionRight,70,9070,4,40,0,40,0,1,,,,,,,,,,,,,,,,,,,,,,,,,,,,,,,,,,,,,,,
,,,,,,,60e02d7931b0152927b4425d,2023-08-06_08h25.00.332,HF_wild_card,2022.2.4,MacIntel,59.99520038,60e02d7931b0152927b4425d,64ce5acb97489d65b14ecc7a,64cf4aa6ab024cbff515bd65,,,,,,,ctch,resources/DG.BMP,resources/DP.BMP,Door4,0.438030134,-0.004802207,1,0,0,1.3814,optionRight,80,9150,4,41,0,41,0,1,,,,,,,,,,,,,,,,,,,,,,,,,,,,,,,,,,,,,,,
,,,,,,,60e02d7931b0152927b4425d,2023-08-06_08h25.00.332,HF_wild_card,2022.2.4,MacIntel,59.99520038,60e02d7931b0152927b4425d,64ce5acb97489d65b14ecc7a,64cf4aa6ab024cbff515bd65,,,,,,,decisionTrl,resources/DP.BMP,resources/DBN.BMP,Door3,0.376655506,0.020762029,1,0,0,0.9618,optionRight,70,9220,4,42,0,42,0,1,,,,,,,,,,,,,,,,,,,,,,,,,,,,,,,,,,,,,,,
,,,,,,,60e02d7931b0152927b4425d,2023-08-06_08h25.00.332,HF_wild_card,2022.2.4,MacIntel,59.99520038,60e02d7931b0152927b4425d,64ce5acb97489d65b14ecc7a,64cf4aa6ab024cbff515bd65,,,,,,,ctch,resources/DP.BMP,resources/DG.BMP,Door4,-0.372615947,-0.016269841,1,0,0,1.1165,optionLeft,60,9280,4,43,0,43,0,1,,,,,,,,,,,,,,,,,,,,,,,,,,,,,,,,,,,,,,,
,,,,,,,60e02d7931b0152927b4425d,2023-08-06_08h25.00.332,HF_wild_card,2022.2.4,MacIntel,59.99520038,60e02d7931b0152927b4425d,64ce5acb97489d65b14ecc7a,64cf4aa6ab024cbff515bd65,,,,,,,,,,,,,,,,,,,,,,,,,,3,0,3,0,1,,,,,,,,,,,,,,,,,,,,,,,,,,,,,,,,,,
,,,,,,,60e02d7931b0152927b4425d,2023-08-06_08h25.00.332,HF_wild_card,2022.2.4,MacIntel,59.99520038,60e02d7931b0152927b4425d,64ce5acb97489d65b14ecc7a,64cf4aa6ab024cbff515bd65,,,,,,,decisionTrl,resources/DR.BMP,resources/DP.BMP,Door4,0.407886905,-0.010534474,1,0,0,1.5551,optionRight,80,9360,5,0,0,0,0,1,,,,,,,,,,,,,,,,,,,,,,,,,,,,,,,,,,,,,,,
,,,,,,,60e02d7931b0152927b4425d,2023-08-06_08h25.00.332,HF_wild_card,2022.2.4,MacIntel,59.99520038,60e02d7931b0152927b4425d,64ce5acb97489d65b14ecc7a,64cf4aa6ab024cbff515bd65,,,,,,,ctch,resources/DY.BMP,resources/DBN.BMP,Door3,0.434300595,0.020802331,1,0,0,0.8789,optionRight,70,9430,5,1,0,1,0,1,,,,,,,,,,,,,,,,,,,,,,,,,,,,,,,,,,,,,,,
,,,,,,,60e02d7931b0152927b4425d,2023-08-06_08h25.00.332,HF_wild_card,2022.2.4,MacIntel,59.99520038,60e02d7931b0152927b4425d,64ce5acb97489d65b14ecc7a,64cf4aa6ab024cbff515bd65,,,,,,,sngl,resources/Empty.png,resources/DR.BMP,WildCard_NonEx,0.335016741,-0.003100198,1,0,0,0.766,optionRight,45,9475,5,2,0,2,0,1,,,,,,,,,,,,,,,,,,,,,,,,,,,,,,,,,,,,,,,
,,,,,,,60e02d7931b0152927b4425d,2023-08-06_08h25.00.332,HF_wild_card,2022.2.4,MacIntel,59.99520038,60e02d7931b0152927b4425d,64ce5acb97489d65b14ecc7a,64cf4aa6ab024cbff515bd65,,,,,,,decisionTrl,resources/DP.BMP,resources/DBN.BMP,Door3,0.454113963,0.039679439,1,0,0,0.896,optionRight,70,9545,5,3,0,3,0,1,,,,,,,,,,,,,,,,,,,,,,,,,,,,,,,,,,,,,,,
,,,,,,,60e02d7931b0152927b4425d,2023-08-06_08h25.00.332,HF_wild_card,2022.2.4,MacIntel,59.99520038,60e02d7931b0152927b4425d,64ce5acb97489d65b14ecc7a,64cf4aa6ab024cbff515bd65,,,,,,,decisionTrl,resources/DBN.BMP,resources/DP.BMP,Door3,-0.308646453,0.013231647,1,0,0,0.9174,optionLeft,70,9615,5,4,0,4,0,1,,,,,,,,,,,,,,,,,,,,,,,,,,,,,,,,,,,,,,,
,,,,,,,60e02d7931b0152927b4425d,2023-08-06_08h25.00.332,HF_wild_card,2022.2.4,MacIntel,59.99520038,60e02d7931b0152927b4425d,64ce5acb97489d65b14ecc7a,64cf4aa6ab024cbff515bd65,,,,,,,decisionTrl,resources/DR.BMP,resources/DBN.BMP,Door3,0.34594494,0.022622148,1,0,0,1.135,optionRight,70,9685,5,5,0,5,0,1,,,,,,,,,,,,,,,,,,,,,,,,,,,,,,,,,,,,,,,
,,,,,,,60e02d7931b0152927b4425d,2023-08-06_08h25.00.332,HF_wild_card,2022.2.4,MacIntel,59.99520038,60e02d7931b0152927b4425d,64ce5acb97489d65b14ecc7a,64cf4aa6ab024cbff515bd65,,,,,,,decisionTrl,resources/DY.BMP,resources/DG.BMP,Door1,0.460456969,0.008379836,1,0,0,1.2954,optionRight,30,9715,5,6,0,6,0,1,,,,,,,,,,,,,,,,,,,,,,,,,,,,,,,,,,,,,,,
,,,,,,,60e02d7931b0152927b4425d,2023-08-06_08h25.00.332,HF_wild_card,2022.2.4,MacIntel,59.99520038,60e02d7931b0152927b4425d,64ce5acb97489d65b14ecc7a,64cf4aa6ab024cbff515bd65,,,,,,,decisionTrl,resources/DG.BMP,resources/DY.BMP,Door2,0.399097842,0.013560268,1,0,0,1.0144,optionRight,40,9755,5,7,0,7,0,1,,,,,,,,,,,,,,,,,,,,,,,,,,,,,,,,,,,,,,,
,,,,,,,60e02d7931b0152927b4425d,2023-08-06_08h25.00.332,HF_wild_card,2022.2.4,MacIntel,59.99520038,60e02d7931b0152927b4425d,64ce5acb97489d65b14ecc7a,64cf4aa6ab024cbff515bd65,,,,,,,ctch,resources/DG.BMP,resources/DP.BMP,Door4,0.369779266,-0.013842386,1,0,0,1.0323,optionRight,80,9835,5,8,0,8,0,1,,,,,,,,,,,,,,,,,,,,,,,,,,,,,,,,,,,,,,,
,,,,,,,60e02d7931b0152927b4425d,2023-08-06_08h25.00.332,HF_wild_card,2022.2.4,MacIntel,59.99520038,60e02d7931b0152927b4425d,64ce5acb97489d65b14ecc7a,64cf4aa6ab024cbff515bd65,,,,,,,decisionTrl,resources/DY.BMP,resources/DG.BMP,Door2,-0.319887773,-0.002576265,1,0,0,1.0308,optionLeft,40,9875,5,9,0,9,0,1,,,,,,,,,,,,,,,,,,,,,,,,,,,,,,,,,,,,,,,
,,,,,,,60e02d7931b0152927b4425d,2023-08-06_08h25.00.332,HF_wild_card,2022.2.4,MacIntel,59.99520038,60e02d7931b0152927b4425d,64ce5acb97489d65b14ecc7a,64cf4aa6ab024cbff515bd65,,,,,,,decisionTrl,resources/DBN.BMP,resources/DR.BMP,Door3,-0.363718378,-0.003506324,1,0,0,1.2963,optionLeft,70,9945,5,10,0,10,0,1,,,,,,,,,,,,,,,,,,,,,,,,,,,,,,,,,,,,,,,
,,,,,,,60e02d7931b0152927b4425d,2023-08-06_08h25.00.332,HF_wild_card,2022.2.4,MacIntel,59.99520038,60e02d7931b0152927b4425d,64ce5acb97489d65b14ecc7a,64cf4aa6ab024cbff515bd65,,,,,,,sngl,resources/Empty.png,resources/DG.BMP,Door1,0.329070561,0.00234375,1,0,0,0.8309,optionRight,30,9975,5,11,0,11,0,1,,,,,,,,,,,,,,,,,,,,,,,,,,,,,,,,,,,,,,,
,,,,,,,60e02d7931b0152927b4425d,2023-08-06_08h25.00.332,HF_wild_card,2022.2.4,MacIntel,59.99520038,60e02d7931b0152927b4425d,64ce5acb97489d65b14ecc7a,64cf4aa6ab024cbff515bd65,,,,,,,ctch,resources/DP.BMP,resources/DG.BMP,Door4,-0.369906374,0.003549727,1,0,0,0.9985,optionLeft,60,10035,5,12,0,12,0,1,,,,,,,,,,,,,,,,,,,,,,,,,,,,,,,,,,,,,,,
,,,,,,,60e02d7931b0152927b4425d,2023-08-06_08h25.00.332,HF_wild_card,2022.2.4,MacIntel,59.99520038,60e02d7931b0152927b4425d,64ce5acb97489d65b14ecc7a,64cf4aa6ab024cbff515bd65,,,,,,,sngl,resources/Empty.png,resources/DY.BMP,Door2,0.342432416,8.06052E-05,1,0,0,0.8301,optionRight,20,10055,5,13,0,13,0,1,,,,,,,,,,,,,,,,,,,,,,,,,,,,,,,,,,,,,,,
,,,,,,,60e02d7931b0152927b4425d,2023-08-06_08h25.00.332,HF_wild_card,2022.2.4,MacIntel,59.99520038,60e02d7931b0152927b4425d,64ce5acb97489d65b14ecc7a,64cf4aa6ab024cbff515bd65,,,,,,,decisionTrl,resources/DG.BMP,resources/DR.BMP,WildCard_NonEx,0.311805556,0.005589658,1,0,0,1.6796,optionRight,55,10110,5,14,0,14,0,1,,,,,,,,,,,,,,,,,,,,,,,,,,,,,,,,,,,,,,,
,,,,,,,60e02d7931b0152927b4425d,2023-08-06_08h25.00.332,HF_wild_card,2022.2.4,MacIntel,59.99520038,60e02d7931b0152927b4425d,64ce5acb97489d65b14ecc7a,64cf4aa6ab024cbff515bd65,,,,,,,decisionTrl,resources/DBN.BMP,resources/DP.BMP,Door3,-0.379113963,-0.007576885,1,0,0,0.9144,optionLeft,70,10180,5,15,0,15,0,1,,,,,,,,,,,,,,,,,,,,,,,,,,,,,,,,,,,,,,,
,,,,,,,60e02d7931b0152927b4425d,2023-08-06_08h25.00.332,HF_wild_card,2022.2.4,MacIntel,59.99520038,60e02d7931b0152927b4425d,64ce5acb97489d65b14ecc7a,64cf4aa6ab024cbff515bd65,,,,,,,decisionTrl,resources/DP.BMP,resources/DBN.BMP,Door3,0.465535094,0.015206473,1,0,0,0.9123,optionRight,70,10250,5,16,0,16,0,1,,,,,,,,,,,,,,,,,,,,,,,,,,,,,,,,,,,,,,,
,,,,,,,60e02d7931b0152927b4425d,2023-08-06_08h25.00.332,HF_wild_card,2022.2.4,MacIntel,59.99520038,60e02d7931b0152927b4425d,64ce5acb97489d65b14ecc7a,64cf4aa6ab024cbff515bd65,,,,,,,ctch,resources/DBN.BMP,resources/DY.BMP,Door3,-0.454740203,0.004656498,1,0,0,0.9464,optionLeft,70,10320,5,17,0,17,0,1,,,,,,,,,,,,,,,,,,,,,,,,,,,,,,,,,,,,,,,
,,,,,,,60e02d7931b0152927b4425d,2023-08-06_08h25.00.332,HF_wild_card,2022.2.4,MacIntel,59.99520038,60e02d7931b0152927b4425d,64ce5acb97489d65b14ecc7a,64cf4aa6ab024cbff515bd65,,,,,,,decisionTrl,resources/DG.BMP,resources/DY.BMP,Door2,0.332521081,0.009607515,1,0,0,2.0808,optionRight,40,10360,5,18,0,18,0,1,,,,,,,,,,,,,,,,,,,,,,,,,,,,,,,,,,,,,,,
,,,,,,,60e02d7931b0152927b4425d,2023-08-06_08h25.00.332,HF_wild_card,2022.2.4,MacIntel,59.99520038,60e02d7931b0152927b4425d,64ce5acb97489d65b14ecc7a,64cf4aa6ab024cbff515bd65,,,,,,,sngl,resources/DR.BMP,resources/Empty.png,WildCard_NonEx,-0.393405878,-0.006268601,1,0,0,0.9476,optionLeft,55,10415,5,19,0,19,0,1,,,,,,,,,,,,,,,,,,,,,,,,,,,,,,,,,,,,,,,
,,,,,,,60e02d7931b0152927b4425d,2023-08-06_08h25.00.332,HF_wild_card,2022.2.4,MacIntel,59.99520038,60e02d7931b0152927b4425d,64ce5acb97489d65b14ecc7a,64cf4aa6ab024cbff515bd65,,,,,,,sngl,resources/DG.BMP,resources/Empty.png,Door1,-0.33296131,-0.004461186,1,0,0,2.0973,optionLeft,30,10445,5,20,0,20,0,1,,,,,,,,,,,,,,,,,,,,,,,,,,,,,,,,,,,,,,,
,,,,,,,60e02d7931b0152927b4425d,2023-08-06_08h25.00.332,HF_wild_card,2022.2.4,MacIntel,59.99520038,60e02d7931b0152927b4425d,64ce5acb97489d65b14ecc7a,64cf4aa6ab024cbff515bd65,,,,,,,sngl,resources/DR.BMP,resources/Empty.png,WildCard_NonEx,-0.414868552,-0.005735367,1,0,0,0.8491,optionLeft,45,10490,5,21,0,21,0,1,,,,,,,,,,,,,,,,,,,,,,,,,,,,,,,,,,,,,,,
,,,,,,,60e02d7931b0152927b4425d,2023-08-06_08h25.00.332,HF_wild_card,2022.2.4,MacIntel,59.99520038,60e02d7931b0152927b4425d,64ce5acb97489d65b14ecc7a,64cf4aa6ab024cbff515bd65,,,,,,,decisionTrl,resources/DR.BMP,resources/DG.BMP,WildCard_NonEx,-0.328369916,-0.024187748,1,0,0,1.8164,optionLeft,45,10535,5,22,0,22,0,1,,,,,,,,,,,,,,,,,,,,,,,,,,,,,,,,,,,,,,,
,,,,,,,60e02d7931b0152927b4425d,2023-08-06_08h25.00.332,HF_wild_card,2022.2.4,MacIntel,59.99520038,60e02d7931b0152927b4425d,64ce5acb97489d65b14ecc7a,64cf4aa6ab024cbff515bd65,,,,,,,ctch,resources/DBN.BMP,resources/DY.BMP,Door3,-0.35124938,0.004030258,1,0,0,0.8816,optionLeft,70,10605,5,23,0,23,0,1,,,,,,,,,,,,,,,,,,,,,,,,,,,,,,,,,,,,,,,
,,,,,,,60e02d7931b0152927b4425d,2023-08-06_08h25.00.332,HF_wild_card,2022.2.4,MacIntel,59.99520038,60e02d7931b0152927b4425d,64ce5acb97489d65b14ecc7a,64cf4aa6ab024cbff515bd65,,,,,,,ctch,resources/DY.BMP,resources/DBN.BMP,Door3,0.346540179,0.020892237,1,0,0,0.8316,optionRight,70,10675,5,24,0,24,0,1,,,,,,,,,,,,,,,,,,,,,,,,,,,,,,,,,,,,,,,
,,,,,,,60e02d7931b0152927b4425d,2023-08-06_08h25.00.332,HF_wild_card,2022.2.4,MacIntel,59.99520038,60e02d7931b0152927b4425d,64ce5acb97489d65b14ecc7a,64cf4aa6ab024cbff515bd65,,,,,,,decisionTrl,resources/DBN.BMP,resources/DP.BMP,Door3,-0.357747396,0.001968626,1,0,0,1.0491,optionLeft,70,10745,5,25,0,25,0,1,,,,,,,,,,,,,,,,,,,,,,,,,,,,,,,,,,,,,,,
,,,,,,,60e02d7931b0152927b4425d,2023-08-06_08h25.00.332,HF_wild_card,2022.2.4,MacIntel,59.99520038,60e02d7931b0152927b4425d,64ce5acb97489d65b14ecc7a,64cf4aa6ab024cbff515bd65,,,,,,,ctch,resources/DG.BMP,resources/DP.BMP,Door4,0.376391989,0.004516989,1,0,0,1.7811,optionRight,80,10825,5,26,0,26,0,1,,,,,,,,,,,,,,,,,,,,,,,,,,,,,,,,,,,,,,,
,,,,,,,60e02d7931b0152927b4425d,2023-08-06_08h25.00.332,HF_wild_card,2022.2.4,MacIntel,59.99520038,60e02d7931b0152927b4425d,64ce5acb97489d65b14ecc7a,64cf4aa6ab024cbff515bd65,,,,,,,sngl,resources/Empty.png,resources/DR.BMP,WildCard_NonEx,0.33468502,0.006284102,1,0,0,0.8131,optionRight,55,10880,5,27,0,27,0,1,,,,,,,,,,,,,,,,,,,,,,,,,,,,,,,,,,,,,,,
,,,,,,,60e02d7931b0152927b4425d,2023-08-06_08h25.00.332,HF_wild_card,2022.2.4,MacIntel,59.99520038,60e02d7931b0152927b4425d,64ce5acb97489d65b14ecc7a,64cf4aa6ab024cbff515bd65,,,,,,,decisionTrl,resources/DY.BMP,resources/DG.BMP,Door2,-0.334598214,0.001503596,1,0,0,1.4977,optionLeft,20,10900,5,28,0,28,0,1,,,,,,,,,,,,,,,,,,,,,,,,,,,,,,,,,,,,,,,
,,,,,,,60e02d7931b0152927b4425d,2023-08-06_08h25.00.332,HF_wild_card,2022.2.4,MacIntel,59.99520038,60e02d7931b0152927b4425d,64ce5acb97489d65b14ecc7a,64cf4aa6ab024cbff515bd65,,,,,,,decisionTrl,resources/DP.BMP,resources/DR.BMP,Door4,-0.376078869,-0.022070313,1,0,0,1.931,optionLeft,60,10960,5,29,0,29,0,1,,,,,,,,,,,,,,,,,,,,,,,,,,,,,,,,,,,,,,,
,,,,,,,60e02d7931b0152927b4425d,2023-08-06_08h25.00.332,HF_wild_card,2022.2.4,MacIntel,59.99520038,60e02d7931b0152927b4425d,64ce5acb97489d65b14ecc7a,64cf4aa6ab024cbff515bd65,,,,,,,decisionTrl,resources/DR.BMP,resources/DY.BMP,WildCard_NonEx,-0.468009053,-0.004076761,1,0,0,1.0462,optionLeft,55,11015,5,30,0,30,0,1,,,,,,,,,,,,,,,,,,,,,,,,,,,,,,,,,,,,,,,
,,,,,,,60e02d7931b0152927b4425d,2023-08-06_08h25.00.332,HF_wild_card,2022.2.4,MacIntel,59.99520038,60e02d7931b0152927b4425d,64ce5acb97489d65b14ecc7a,64cf4aa6ab024cbff515bd65,,,,,,,sngl,resources/DP.BMP,resources/Empty.png,Door4,-0.367683532,0.012723214,1,0,0,0.797,optionLeft,80,11095,5,31,0,31,0,1,,,,,,,,,,,,,,,,,,,,,,,,,,,,,,,,,,,,,,,
,,,,,,,60e02d7931b0152927b4425d,2023-08-06_08h25.00.332,HF_wild_card,2022.2.4,MacIntel,59.99520038,60e02d7931b0152927b4425d,64ce5acb97489d65b14ecc7a,64cf4aa6ab024cbff515bd65,,,,,,,decisionTrl,resources/DP.BMP,resources/DBN.BMP,Door3,0.405434648,0.039760045,1,0,0,0.8293,optionRight,70,11165,5,32,0,32,0,1,,,,,,,,,,,,,,,,,,,,,,,,,,,,,,,,,,,,,,,
,,,,,,,60e02d7931b0152927b4425d,2023-08-06_08h25.00.332,HF_wild_card,2022.2.4,MacIntel,59.99520038,60e02d7931b0152927b4425d,64ce5acb97489d65b14ecc7a,64cf4aa6ab024cbff515bd65,,,,,,,decisionTrl,resources/DY.BMP,resources/DR.BMP,WildCard_NonEx,0.270135789,-0.008578249,1,0,0,1.0473,optionRight,45,11210,5,33,0,33,0,1,,,,,,,,,,,,,,,,,,,,,,,,,,,,,,,,,,,,,,,
,,,,,,,60e02d7931b0152927b4425d,2023-08-06_08h25.00.332,HF_wild_card,2022.2.4,MacIntel,59.99520038,60e02d7931b0152927b4425d,64ce5acb97489d65b14ecc7a,64cf4aa6ab024cbff515bd65,,,,,,,sngl,resources/DBN.BMP,resources/Empty.png,Door3,-0.343167163,-0.014242312,1,0,0,0.7651,optionLeft,70,11280,5,34,0,34,0,1,,,,,,,,,,,,,,,,,,,,,,,,,,,,,,,,,,,,,,,
,,,,,,,60e02d7931b0152927b4425d,2023-08-06_08h25.00.332,HF_wild_card,2022.2.4,MacIntel,59.99520038,60e02d7931b0152927b4425d,64ce5acb97489d65b14ecc7a,64cf4aa6ab024cbff515bd65,,,,,,,decisionTrl,resources/DY.BMP,resources/DG.BMP,Door2,-0.359824529,0.002129836,1,0,0,1.979,optionLeft,20,11300,5,35,0,35,0,1,,,,,,,,,,,,,,,,,,,,,,,,,,,,,,,,,,,,,,,
,,,,,,,60e02d7931b0152927b4425d,2023-08-06_08h25.00.332,HF_wild_card,2022.2.4,MacIntel,59.99520038,60e02d7931b0152927b4425d,64ce5acb97489d65b14ecc7a,64cf4aa6ab024cbff515bd65,,,,,,,ctch,resources/DP.BMP,resources/DG.BMP,Door4,-0.370045883,-0.053791543,1,0,0,1.0999,optionLeft,80,11380,5,36,0,36,0,1,,,,,,,,,,,,,,,,,,,,,,,,,,,,,,,,,,,,,,,
,,,,,,,60e02d7931b0152927b4425d,2023-08-06_08h25.00.332,HF_wild_card,2022.2.4,MacIntel,59.99520038,60e02d7931b0152927b4425d,64ce5acb97489d65b14ecc7a,64cf4aa6ab024cbff515bd65,,,,,,,sngl,resources/DY.BMP,resources/Empty.png,Door2,-0.283048115,-0.001360987,1,0,0,0.7324,optionLeft,40,11420,5,37,0,37,0,1,,,,,,,,,,,,,,,,,,,,,,,,,,,,,,,,,,,,,,,
,,,,,,,60e02d7931b0152927b4425d,2023-08-06_08h25.00.332,HF_wild_card,2022.2.4,MacIntel,59.99520038,60e02d7931b0152927b4425d,64ce5acb97489d65b14ecc7a,64cf4aa6ab024cbff515bd65,,,,,,,decisionTrl,resources/DG.BMP,resources/DY.BMP,Door2,0.389880952,0.011356027,1,0,0,0.9345,optionRight,40,11460,5,38,0,38,0,1,,,,,,,,,,,,,,,,,,,,,,,,,,,,,,,,,,,,,,,
,,,,,,,60e02d7931b0152927b4425d,2023-08-06_08h25.00.332,HF_wild_card,2022.2.4,MacIntel,59.99520038,60e02d7931b0152927b4425d,64ce5acb97489d65b14ecc7a,64cf4aa6ab024cbff515bd65,,,,,,,decisionTrl,resources/DP.BMP,resources/DBN.BMP,Door3,0.377325149,0.030744668,1,0,0,0.8989,optionRight,70,11530,5,39,0,39,0,1,,,,,,,,,,,,,,,,,,,,,,,,,,,,,,,,,,,,,,,
,,,,,,,60e02d7931b0152927b4425d,2023-08-06_08h25.00.332,HF_wild_card,2022.2.4,MacIntel,59.99520038,60e02d7931b0152927b4425d,64ce5acb97489d65b14ecc7a,64cf4aa6ab024cbff515bd65,,,,,,,sngl,resources/Empty.png,resources/DP.BMP,Door4,0.343914311,0.006036086,1,0,0,1.1812,optionRight,60,11590,5,40,0,40,0,1,,,,,,,,,,,,,,,,,,,,,,,,,,,,,,,,,,,,,,,
,,,,,,,60e02d7931b0152927b4425d,2023-08-06_08h25.00.332,HF_wild_card,2022.2.4,MacIntel,59.99520038,60e02d7931b0152927b4425d,64ce5acb97489d65b14ecc7a,64cf4aa6ab024cbff515bd65,,,,,,,decisionTrl,resources/DG.BMP,resources/DY.BMP,Door2,0.341471354,0.002325149,1,0,0,1.7146,optionRight,20,11610,5,41,0,41,0,1,,,,,,,,,,,,,,,,,,,,,,,,,,,,,,,,,,,,,,,
,,,,,,,60e02d7931b0152927b4425d,2023-08-06_08h25.00.332,HF_wild_card,2022.2.4,MacIntel,59.99520038,60e02d7931b0152927b4425d,64ce5acb97489d65b14ecc7a,64cf4aa6ab024cbff515bd65,,,,,,,decisionTrl,resources/DBN.BMP,resources/DP.BMP,Door3,-0.26687748,-0.002601066,1,0,0,1.0963,optionLeft,70,11680,5,42,0,42,0,1,,,,,,,,,,,,,,,,,,,,,,,,,,,,,,,,,,,,,,,
,,,,,,,60e02d7931b0152927b4425d,2023-08-06_08h25.00.332,HF_wild_card,2022.2.4,MacIntel,59.99520038,60e02d7931b0152927b4425d,64ce5acb97489d65b14ecc7a,64cf4aa6ab024cbff515bd65,,,,,,,sngl,resources/Empty.png,resources/DBN.BMP,Door3,0.415048363,0.022488839,1,0,0,0.6945,optionRight,70,11750,5,43,0,43,0,1,,,,,,,,,,,,,,,,,,,,,,,,,,,,,,,,,,,,,,,
,,,,,,,60e02d7931b0152927b4425d,2023-08-06_08h25.00.332,HF_wild_card,2022.2.4,MacIntel,59.99520038,60e02d7931b0152927b4425d,64ce5acb97489d65b14ecc7a,64cf4aa6ab024cbff515bd65,,,,,,,,,,,,,,,,,,,,,,,,,,4,0,4,0,1,,,,,,,,,,,,,,,,,,,,,,,,,,,,,,,,,,
,,,,,,,60e02d7931b0152927b4425d,2023-08-06_08h25.00.332,HF_wild_card,2022.2.4,MacIntel,59.99520038,60e02d7931b0152927b4425d,64ce5acb97489d65b14ecc7a,64cf4aa6ab024cbff515bd65,,,,,,,ctch,resources/DY.BMP,resources/DBN.BMP,Door3,0.39155816,0.007821801,1,0,0,0.9395,optionRight,70,11820,6,0,0,0,0,1,,,,,,,,,,,,,,,,,,,,,,,,,,,,,,,,,,,,,,,
,,,,,,,60e02d7931b0152927b4425d,2023-08-06_08h25.00.332,HF_wild_card,2022.2.4,MacIntel,59.99520038,60e02d7931b0152927b4425d,64ce5acb97489d65b14ecc7a,64cf4aa6ab024cbff515bd65,,,,,,,decisionTrl,resources/DP.BMP,resources/DBN.BMP,Door3,0.402743676,0.068377976,1,0,0,0.8619,optionRight,70,11890,6,1,0,1,0,1,,,,,,,,,,,,,,,,,,,,,,,,,,,,,,,,,,,,,,,
,,,,,,,60e02d7931b0152927b4425d,2023-08-06_08h25.00.332,HF_wild_card,2022.2.4,MacIntel,59.99520038,60e02d7931b0152927b4425d,64ce5acb97489d65b14ecc7a,64cf4aa6ab024cbff515bd65,,,,,,,decisionTrl,resources/DP.BMP,resources/DR.BMP,Door4,-0.34250682,-0.015175471,1,0,0,1.1157,optionLeft,80,11970,6,2,0,2,0,1,,,,,,,,,,,,,,,,,,,,,,,,,,,,,,,,,,,,,,,
,,,,,,,60e02d7931b0152927b4425d,2023-08-06_08h25.00.332,HF_wild_card,2022.2.4,MacIntel,59.99520038,60e02d7931b0152927b4425d,64ce5acb97489d65b14ecc7a,64cf4aa6ab024cbff515bd65,,,,,,,decisionTrl,resources/DY.BMP,resources/DG.BMP,Door1,0.323155382,-0.006798735,1,0,0,2.0467,optionRight,30,12000,6,3,0,3,0,1,,,,,,,,,,,,,,,,,,,,,,,,,,,,,,,,,,,,,,,
,,,,,,,60e02d7931b0152927b4425d,2023-08-06_08h25.00.332,HF_wild_card,2022.2.4,MacIntel,59.99520038,60e02d7931b0152927b4425d,64ce5acb97489d65b14ecc7a,64cf4aa6ab024cbff515bd65,,,,,,,decisionTrl,resources/DR.BMP,resources/DG.BMP,WildCard_NonEx,-0.35578807,0.004920015,1,0,0,1.3803,optionLeft,45,12045,6,4,0,4,0,1,,,,,,,,,,,,,,,,,,,,,,,,,,,,,,,,,,,,,,,
,,,,,,,60e02d7931b0152927b4425d,2023-08-06_08h25.00.332,HF_wild_card,2022.2.4,MacIntel,59.99520038,60e02d7931b0152927b4425d,64ce5acb97489d65b14ecc7a,64cf4aa6ab024cbff515bd65,,,,,,,decisionTrl,resources/DY.BMP,resources/DG.BMP,Door2,-0.412850322,-0.019007316,1,0,0,1.8452,optionLeft,20,12065,6,5,0,5,0,1,,,,,,,,,,,,,,,,,,,,,,,,,,,,,,,,,,,,,,,
,,,,,,,60e02d7931b0152927b4425d,2023-08-06_08h25.00.332,HF_wild_card,2022.2.4,MacIntel,59.99520038,60e02d7931b0152927b4425d,64ce5acb97489d65b14ecc7a,64cf4aa6ab024cbff515bd65,,,,,,,ctch,resources/DP.BMP,resources/DG.BMP,Door4,-0.360804191,-0.001128472,1,0,0,1.1123,optionLeft,60,12125,6,6,0,6,0,1,,,,,,,,,,,,,,,,,,,,,,,,,,,,,,,,,,,,,,,
,,,,,,,60e02d7931b0152927b4425d,2023-08-06_08h25.00.332,HF_wild_card,2022.2.4,MacIntel,59.99520038,60e02d7931b0152927b4425d,64ce5acb97489d65b14ecc7a,64cf4aa6ab024cbff515bd65,,,,,,,decisionTrl,resources/DP.BMP,resources/DBN.BMP,Door3,0.384340898,0.025957961,1,0,0,0.9477,optionRight,70,12195,6,7,0,7,0,1,,,,,,,,,,,,,,,,,,,,,,,,,,,,,,,,,,,,,,,
,,,,,,,60e02d7931b0152927b4425d,2023-08-06_08h25.00.332,HF_wild_card,2022.2.4,MacIntel,59.99520038,60e02d7931b0152927b4425d,64ce5acb97489d65b14ecc7a,64cf4aa6ab024cbff515bd65,,,,,,,sngl,resources/DR.BMP,resources/Empty.png,WildCard_NonEx,-0.364595734,-0.013380456,1,0,0,0.7642,optionLeft,45,12240,6,8,0,8,0,1,,,,,,,,,,,,,,,,,,,,,,,,,,,,,,,,,,,,,,,
,,,,,,,60e02d7931b0152927b4425d,2023-08-06_08h25.00.332,HF_wild_card,2022.2.4,MacIntel,59.99520038,60e02d7931b0152927b4425d,64ce5acb97489d65b14ecc7a,64cf4aa6ab024cbff515bd65,,,,,,,ctch,resources/DP.BMP,resources/DG.BMP,Door4,-0.380546255,-0.014037698,1,0,0,1.1132,optionLeft,80,12320,6,9,0,9,0,1,,,,,,,,,,,,,,,,,,,,,,,,,,,,,,,,,,,,,,,
,,,,,,,60e02d7931b0152927b4425d,2023-08-06_08h25.00.332,HF_wild_card,2022.2.4,MacIntel,59.99520038,60e02d7931b0152927b4425d,64ce5acb97489d65b14ecc7a,64cf4aa6ab024cbff515bd65,,,,,,,decisionTrl,resources/DP.BMP,resources/DBN.BMP,Door3,0.381060888,0.040206473,1,0,0,0.7483,optionRight,70,12390,6,10,0,10,0,1,,,,,,,,,,,,,,,,,,,,,,,,,,,,,,,,,,,,,,,
,,,,,,,60e02d7931b0152927b4425d,2023-08-06_08h25.00.332,HF_wild_card,2022.2.4,MacIntel,59.99520038,60e02d7931b0152927b4425d,64ce5acb97489d65b14ecc7a,64cf4aa6ab024cbff515bd65,,,,,,,decisionTrl,resources/DG.BMP,resources/DY.BMP,Door2,0.442330109,0.019717262,1,0,0,1.329,optionRight,40,12430,6,11,0,11,0,1,,,,,,,,,,,,,,,,,,,,,,,,,,,,,,,,,,,,,,,
,,,,,,,60e02d7931b0152927b4425d,2023-08-06_08h25.00.332,HF_wild_card,2022.2.4,MacIntel,59.99520038,60e02d7931b0152927b4425d,64ce5acb97489d65b14ecc7a,64cf4aa6ab024cbff515bd65,,,,,,,decisionTrl,resources/DR.BMP,resources/DP.BMP,Door4,0.399073041,-0.009561012,1,0,0,1.464,optionRight,60,12490,6,12,0,12,0,1,,,,,,,,,,,,,,,,,,,,,,,,,,,,,,,,,,,,,,,
,,,,,,,60e02d7931b0152927b4425d,2023-08-06_08h25.00.332,HF_wild_card,2022.2.4,MacIntel,59.99520038,60e02d7931b0152927b4425d,64ce5acb97489d65b14ecc7a,64cf4aa6ab024cbff515bd65,,,,,,,decisionTrl,resources/DG.BMP,resources/DY.BMP,Door2,0.377046131,0.001236979,1,0,0,1.2812,optionRight,40,12530,6,13,0,13,0,1,,,,,,,,,,,,,,,,,,,,,,,,,,,,,,,,,,,,,,,
,,,,,,,60e02d7931b0152927b4425d,2023-08-06_08h25.00.332,HF_wild_card,2022.2.4,MacIntel,59.99520038,60e02d7931b0152927b4425d,64ce5acb97489d65b14ecc7a,64cf4aa6ab024cbff515bd65,,,,,,,decisionTrl,resources/DBN.BMP,resources/DP.BMP,Door3,-0.287608507,0.013464162,1,0,0,0.9499,optionLeft,70,12600,6,14,0,14,0,1,,,,,,,,,,,,,,,,,,,,,,,,,,,,,,,,,,,,,,,
,,,,,,,60e02d7931b0152927b4425d,2023-08-06_08h25.00.332,HF_wild_card,2022.2.4,MacIntel,59.99520038,60e02d7931b0152927b4425d,64ce5acb97489d65b14ecc7a,64cf4aa6ab024cbff515bd65,,,,,,,sngl,resources/Empty.png,resources/DY.BMP,Door2,0.380332341,-0.009130084,1,0,0,0.7623,optionRight,40,12640,6,15,0,15,0,1,,,,,,,,,,,,,,,,,,,,,,,,,,,,,,,,,,,,,,,
,,,,,,,60e02d7931b0152927b4425d,2023-08-06_08h25.00.332,HF_wild_card,2022.2.4,MacIntel,59.99520038,60e02d7931b0152927b4425d,64ce5acb97489d65b14ecc7a,64cf4aa6ab024cbff515bd65,,,,,,,decisionTrl,resources/DBN.BMP,resources/DP.BMP,Door3,-0.361644345,-0.025096106,1,0,0,0.7958,optionLeft,70,12710,6,16,0,16,0,1,,,,,,,,,,,,,,,,,,,,,,,,,,,,,,,,,,,,,,,
,,,,,,,60e02d7931b0152927b4425d,2023-08-06_08h25.00.332,HF_wild_card,2022.2.4,MacIntel,59.99520038,60e02d7931b0152927b4425d,64ce5acb97489d65b14ecc7a,64cf4aa6ab024cbff515bd65,,,,,,,decisionTrl,resources/DR.BMP,resources/DBN.BMP,Door3,0.392599826,0.045256696,1,0,0,1.0672,optionRight,70,12780,6,17,0,17,0,1,,,,,,,,,,,,,,,,,,,,,,,,,,,,,,,,,,,,,,,
,,,,,,,60e02d7931b0152927b4425d,2023-08-06_08h25.00.332,HF_wild_card,2022.2.4,MacIntel,59.99520038,60e02d7931b0152927b4425d,64ce5acb97489d65b14ecc7a,64cf4aa6ab024cbff515bd65,,,,,,,ctch,resources/DG.BMP,resources/DP.BMP,Door4,0.292218502,0.014167907,1,0,0,1.2633,optionRight,60,12840,6,18,0,18,0,1,,,,,,,,,,,,,,,,,,,,,,,,,,,,,,,,,,,,,,,
,,,,,,,60e02d7931b0152927b4425d,2023-08-06_08h25.00.332,HF_wild_card,2022.2.4,MacIntel,59.99520038,60e02d7931b0152927b4425d,64ce5acb97489d65b14ecc7a,64cf4aa6ab024cbff515bd65,,,,,,,decisionTrl,resources/DBN.BMP,resources/DP.BMP,Door3,-0.315330481,-0.013064236,1,0,0,0.8981,optionLeft,70,12910,6,19,0,19,0,1,,,,,,,,,,,,,,,,,,,,,,,,,,,,,,,,,,,,,,,
,,,,,,,60e02d7931b0152927b4425d,2023-08-06_08h25.00.332,HF_wild_card,2022.2.4,MacIntel,59.99520038,60e02d7931b0152927b4425d,64ce5acb97489d65b14ecc7a,64cf4aa6ab024cbff515bd65,,,,,,,ctch,resources/DY.BMP,resources/DBN.BMP,Door3,0.366437252,0.051702009,1,0,0,0.7477,optionRight,70,12980,6,20,0,20,0,1,,,,,,,,,,,,,,,,,,,,,,,,,,,,,,,,,,,,,,,
,,,,,,,60e02d7931b0152927b4425d,2023-08-06_08h25.00.332,HF_wild_card,2022.2.4,MacIntel,59.99520038,60e02d7931b0152927b4425d,64ce5acb97489d65b14ecc7a,64cf4aa6ab024cbff515bd65,,,,,,,decisionTrl,resources/DY.BMP,resources/DG.BMP,Door2,-0.31281312,0.003952753,1,0,0,1.1443,optionLeft,20,13000,6,21,0,21,0,1,,,,,,,,,,,,,,,,,,,,,,,,,,,,,,,,,,,,,,,
,,,,,,,60e02d7931b0152927b4425d,2023-08-06_08h25.00.332,HF_wild_card,2022.2.4,MacIntel,59.99520038,60e02d7931b0152927b4425d,64ce5acb97489d65b14ecc7a,64cf4aa6ab024cbff515bd65,,,,,,,sngl,resources/Empty.png,resources/DBN.BMP,Door3,0.40375124,0.018489583,1,0,0,0.7295,optionRight,70,13070,6,22,0,22,0,1,,,,,,,,,,,,,,,,,,,,,,,,,,,,,,,,,,,,,,,
,,,,,,,60e02d7931b0152927b4425d,2023-08-06_08h25.00.332,HF_wild_card,2022.2.4,MacIntel,59.99520038,60e02d7931b0152927b4425d,64ce5acb97489d65b14ecc7a,64cf4aa6ab024cbff515bd65,,,,,,,ctch,resources/DBN.BMP,resources/DY.BMP,Door3,-0.293427579,-0.022898065,1,0,0,0.8146,optionLeft,70,13140,6,23,0,23,0,1,,,,,,,,,,,,,,,,,,,,,,,,,,,,,,,,,,,,,,,
,,,,,,,60e02d7931b0152927b4425d,2023-08-06_08h25.00.332,HF_wild_card,2022.2.4,MacIntel,59.99520038,60e02d7931b0152927b4425d,64ce5acb97489d65b14ecc7a,64cf4aa6ab024cbff515bd65,,,,,,,decisionTrl,resources/DBN.BMP,resources/DP.BMP,Door3,-0.266632564,0.000139509,1,0,0,1.131,optionLeft,70,13210,6,24,0,24,0,1,,,,,,,,,,,,,,,,,,,,,,,,,,,,,,,,,,,,,,,
,,,,,,,60e02d7931b0152927b4425d,2023-08-06_08h25.00.332,HF_wild_card,2022.2.4,MacIntel,59.99520038,60e02d7931b0152927b4425d,64ce5acb97489d65b14ecc7a,64cf4aa6ab024cbff515bd65,,,,,,,ctch,resources/DG.BMP,resources/DP.BMP,Door4,0.424076141,0.002725074,1,0,0,1.0974,optionRight,60,13270,6,25,0,25,0,1,,,,,,,,,,,,,,,,,,,,,,,,,,,,,,,,,,,,,,,
,,,,,,,60e02d7931b0152927b4425d,2023-08-06_08h25.00.332,HF_wild_card,2022.2.4,MacIntel,59.99520038,60e02d7931b0152927b4425d,64ce5acb97489d65b14ecc7a,64cf4aa6ab024cbff515bd65,,,,,,,sngl,resources/DBN.BMP,resources/Empty.png,Door3,-0.310636781,0.025824653,1,0,0,0.7614,optionLeft,70,13340,6,26,0,26,0,1,,,,,,,,,,,,,,,,,,,,,,,,,,,,,,,,,,,,,,,
,,,,,,,60e02d7931b0152927b4425d,2023-08-06_08h25.00.332,HF_wild_card,2022.2.4,MacIntel,59.99520038,60e02d7931b0152927b4425d,64ce5acb97489d65b14ecc7a,64cf4aa6ab024cbff515bd65,,,,,,,decisionTrl,resources/DG.BMP,resources/DY.BMP,Door1,-0.302799479,0.008826265,1,0,0,1.5157,optionLeft,30,13370,6,27,0,27,0,1,,,,,,,,,,,,,,,,,,,,,,,,,,,,,,,,,,,,,,,
,,,,,,,60e02d7931b0152927b4425d,2023-08-06_08h25.00.332,HF_wild_card,2022.2.4,MacIntel,59.99520038,60e02d7931b0152927b4425d,64ce5acb97489d65b14ecc7a,64cf4aa6ab024cbff515bd65,,,,,,,sngl,resources/DR.BMP,resources/Empty.png,WildCard_NonEx,-0.409737723,-0.000241815,1,0,0,0.731,optionLeft,55,13425,6,28,0,28,0,1,,,,,,,,,,,,,,,,,,,,,,,,,,,,,,,,,,,,,,,
,,,,,,,60e02d7931b0152927b4425d,2023-08-06_08h25.00.332,HF_wild_card,2022.2.4,MacIntel,59.99520038,60e02d7931b0152927b4425d,64ce5acb97489d65b14ecc7a,64cf4aa6ab024cbff515bd65,,,,,,,decisionTrl,resources/DY.BMP,resources/DG.BMP,Door2,-0.45110057,0.004637897,1,0,0,1.2152,optionLeft,40,13465,6,29,0,29,0,1,,,,,,,,,,,,,,,,,,,,,,,,,,,,,,,,,,,,,,,
,,,,,,,60e02d7931b0152927b4425d,2023-08-06_08h25.00.332,HF_wild_card,2022.2.4,MacIntel,59.99520038,60e02d7931b0152927b4425d,64ce5acb97489d65b14ecc7a,64cf4aa6ab024cbff515bd65,,,,,,,sngl,resources/Empty.png,resources/DG.BMP,Door1,0.343418279,0.012289187,1,0,0,0.9141,optionRight,30,13495,6,30,0,30,0,1,,,,,,,,,,,,,,,,,,,,,,,,,,,,,,,,,,,,,,,
,,,,,,,60e02d7931b0152927b4425d,2023-08-06_08h25.00.332,HF_wild_card,2022.2.4,MacIntel,59.99520038,60e02d7931b0152927b4425d,64ce5acb97489d65b14ecc7a,64cf4aa6ab024cbff515bd65,,,,,,,decisionTrl,resources/DG.BMP,resources/DY.BMP,Door2,0.388268849,0.00124938,1,0,0,1.8006,optionRight,40,13535,6,31,0,31,0,1,,,,,,,,,,,,,,,,,,,,,,,,,,,,,,,,,,,,,,,
,,,,,,,60e02d7931b0152927b4425d,2023-08-06_08h25.00.332,HF_wild_card,2022.2.4,MacIntel,59.99520038,60e02d7931b0152927b4425d,64ce5acb97489d65b14ecc7a,64cf4aa6ab024cbff515bd65,,,,,,,decisionTrl,resources/DY.BMP,resources/DR.BMP,WildCard_NonEx,0.328050595,-0.007052951,1,0,0,0.879,optionRight,45,13580,6,32,0,32,0,1,,,,,,,,,,,,,,,,,,,,,,,,,,,,,,,,,,,,,,,
,,,,,,,60e02d7931b0152927b4425d,2023-08-06_08h25.00.332,HF_wild_card,2022.2.4,MacIntel,59.99520038,60e02d7931b0152927b4425d,64ce5acb97489d65b14ecc7a,64cf4aa6ab024cbff515bd65,,,,,,,sngl,resources/Empty.png,resources/DP.BMP,Door4,0.490522693,-0.014105903,1,0,0,0.7316,optionRight,80,13660,6,33,0,33,0,1,,,,,,,,,,,,,,,,,,,,,,,,,,,,,,,,,,,,,,,
,,,,,,,60e02d7931b0152927b4425d,2023-08-06_08h25.00.332,HF_wild_card,2022.2.4,MacIntel,59.99520038,60e02d7931b0152927b4425d,64ce5acb97489d65b14ecc7a,64cf4aa6ab024cbff515bd65,,,,,,,decisionTrl,resources/DP.BMP,resources/DBN.BMP,Door3,0.410537574,0.00953311,1,0,0,0.8485,optionRight,70,13730,6,34,0,34,0,1,,,,,,,,,,,,,,,,,,,,,,,,,,,,,,,,,,,,,,,
,,,,,,,60e02d7931b0152927b4425d,2023-08-06_08h25.00.332,HF_wild_card,2022.2.4,MacIntel,59.99520038,60e02d7931b0152927b4425d,64ce5acb97489d65b14ecc7a,64cf4aa6ab024cbff515bd65,,,,,,,decisionTrl,resources/DR.BMP,resources/DY.BMP,WildCard_NonEx,-0.384623016,-0.00343812,1,0,0,0.8309,optionLeft,55,13785,6,35,0,35,0,1,,,,,,,,,,,,,,,,,,,,,,,,,,,,,,,,,,,,,,,
,,,,,,,60e02d7931b0152927b4425d,2023-08-06_08h25.00.332,HF_wild_card,2022.2.4,MacIntel,59.99520038,60e02d7931b0152927b4425d,64ce5acb97489d65b14ecc7a,64cf4aa6ab024cbff515bd65,,,,,,,sngl,resources/DP.BMP,resources/Empty.png,Door4,-0.355385045,-0.010184152,1,0,0,0.7645,optionLeft,60,13845,6,36,0,36,0,1,,,,,,,,,,,,,,,,,,,,,,,,,,,,,,,,,,,,,,,
,,,,,,,60e02d7931b0152927b4425d,2023-08-06_08h25.00.332,HF_wild_card,2022.2.4,MacIntel,59.99520038,60e02d7931b0152927b4425d,64ce5acb97489d65b14ecc7a,64cf4aa6ab024cbff515bd65,,,,,,,sngl,resources/Empty.png,resources/DR.BMP,WildCard_NonEx,0.407220362,-0.022777158,1,0,0,0.7311,optionRight,55,13900,6,37,0,37,0,1,,,,,,,,,,,,,,,,,,,,,,,,,,,,,,,,,,,,,,,
,,,,,,,60e02d7931b0152927b4425d,2023-08-06_08h25.00.332,HF_wild_card,2022.2.4,MacIntel,59.99520038,60e02d7931b0152927b4425d,64ce5acb97489d65b14ecc7a,64cf4aa6ab024cbff515bd65,,,,,,,sngl,resources/DG.BMP,resources/Empty.png,Door1,-0.362527902,-0.004259673,1,0,0,0.7145,optionLeft,30,13930,6,38,0,38,0,1,,,,,,,,,,,,,,,,,,,,,,,,,,,,,,,,,,,,,,,
,,,,,,,60e02d7931b0152927b4425d,2023-08-06_08h25.00.332,HF_wild_card,2022.2.4,MacIntel,59.99520038,60e02d7931b0152927b4425d,64ce5acb97489d65b14ecc7a,64cf4aa6ab024cbff515bd65,,,,,,,decisionTrl,resources/DG.BMP,resources/DR.BMP,WildCard_NonEx,0.442426215,-6.2004E-05,1,0,0,1.4675,optionRight,45,13975,6,39,0,39,0,1,,,,,,,,,,,,,,,,,,,,,,,,,,,,,,,,,,,,,,,
,,,,,,,60e02d7931b0152927b4425d,2023-08-06_08h25.00.332,HF_wild_card,2022.2.4,MacIntel,59.99520038,60e02d7931b0152927b4425d,64ce5acb97489d65b14ecc7a,64cf4aa6ab024cbff515bd65,,,,,,,sngl,resources/DY.BMP,resources/Empty.png,Door2,-0.294162326,-0.016378348,1,0,0,0.7985,optionLeft,20,13995,6,40,0,40,0,1,,,,,,,,,,,,,,,,,,,,,,,,,,,,,,,,,,,,,,,
,,,,,,,60e02d7931b0152927b4425d,2023-08-06_08h25.00.332,HF_wild_card,2022.2.4,MacIntel,59.99520038,60e02d7931b0152927b4425d,64ce5acb97489d65b14ecc7a,64cf4aa6ab024cbff515bd65,,,,,,,sngl,resources/Empty.png,resources/DR.BMP,WildCard_NonEx,0.343781002,-0.004262773,1,0,0,0.6648,optionRight,45,14040,6,41,0,41,0,1,,,,,,,,,,,,,,,,,,,,,,,,,,,,,,,,,,,,,,,
,,,,,,,60e02d7931b0152927b4425d,2023-08-06_08h25.00.332,HF_wild_card,2022.2.4,MacIntel,59.99520038,60e02d7931b0152927b4425d,64ce5acb97489d65b14ecc7a,64cf4aa6ab024cbff515bd65,,,,,,,decisionTrl,resources/DBN.BMP,resources/DR.BMP,Door3,-0.428794643,0.007232763,1,0,0,0.8138,optionLeft,70,14110,6,42,0,42,0,1,,,,,,,,,,,,,,,,,,,,,,,,,,,,,,,,,,,,,,,
,,,,,,,60e02d7931b0152927b4425d,2023-08-06_08h25.00.332,HF_wild_card,2022.2.4,MacIntel,59.99520038,60e02d7931b0152927b4425d,64ce5acb97489d65b14ecc7a,64cf4aa6ab024cbff515bd65,,,,,,,ctch,resources/DBN.BMP,resources/DY.BMP,Door3,-0.384734623,0.01921193,1,0,0,0.8306,optionLeft,70,14180,6,43,0,43,0,1,,,,,,,,,,,,,,,,,,,,,,,,,,,,,,,,,,,,,,,
,,,,,,,60e02d7931b0152927b4425d,2023-08-06_08h25.00.332,HF_wild_card,2022.2.4,MacIntel,59.99520038,60e02d7931b0152927b4425d,64ce5acb97489d65b14ecc7a,64cf4aa6ab024cbff515bd65,,,,,,,,,,,,,,,,,,,,,,,,,,5,0,5,0,1,,,,,,,,,,,,,,,,,,,,,,,,,,,,,,,,,,
,,,,,,,60e02d7931b0152927b4425d,2023-08-06_08h25.00.332,HF_wild_card,2022.2.4,MacIntel,59.99520038,60e02d7931b0152927b4425d,64ce5acb97489d65b14ecc7a,64cf4aa6ab024cbff515bd65,,,,,,,decisionTrl,resources/DG.BMP,resources/DY.BMP,Door2,0.444193328,-0.00078125,1,0,0,1.3408,optionRight,40,14220,7,0,0,0,0,1,,,,,,,,,,,,,,,,,,,,,,,,,,,,,,,,,,,,,,,
,,,,,,,60e02d7931b0152927b4425d,2023-08-06_08h25.00.332,HF_wild_card,2022.2.4,MacIntel,59.99520038,60e02d7931b0152927b4425d,64ce5acb97489d65b14ecc7a,64cf4aa6ab024cbff515bd65,,,,,,,decisionTrl,resources/DG.BMP,resources/DY.BMP,Door2,0.448998636,0.013414559,1,0,0,1.182,optionRight,40,14260,7,1,0,1,0,1,,,,,,,,,,,,,,,,,,,,,,,,,,,,,,,,,,,,,,,
,,,,,,,60e02d7931b0152927b4425d,2023-08-06_08h25.00.332,HF_wild_card,2022.2.4,MacIntel,59.99520038,60e02d7931b0152927b4425d,64ce5acb97489d65b14ecc7a,64cf4aa6ab024cbff515bd65,,,,,,,decisionTrl,resources/DG.BMP,resources/DY.BMP,Door2,0.400988963,0.001956225,1,0,0,1.049,optionRight,20,14280,7,2,0,2,0,1,,,,,,,,,,,,,,,,,,,,,,,,,,,,,,,,,,,,,,,
,,,,,,,60e02d7931b0152927b4425d,2023-08-06_08h25.00.332,HF_wild_card,2022.2.4,MacIntel,59.99520038,60e02d7931b0152927b4425d,64ce5acb97489d65b14ecc7a,64cf4aa6ab024cbff515bd65,,,,,,,ctch,resources/DBN.BMP,resources/DY.BMP,Door3,-0.359123884,0.019165427,1,0,0,0.9002,optionLeft,70,14350,7,3,0,3,0,1,,,,,,,,,,,,,,,,,,,,,,,,,,,,,,,,,,,,,,,
,,,,,,,60e02d7931b0152927b4425d,2023-08-06_08h25.00.332,HF_wild_card,2022.2.4,MacIntel,59.99520038,60e02d7931b0152927b4425d,64ce5acb97489d65b14ecc7a,64cf4aa6ab024cbff515bd65,,,,,,,decisionTrl,resources/DBN.BMP,resources/DP.BMP,Door3,-0.413771081,-0.017599826,1,0,0,1.147,optionLeft,70,14420,7,4,0,4,0,1,,,,,,,,,,,,,,,,,,,,,,,,,,,,,,,,,,,,,,,
,,,,,,,60e02d7931b0152927b4425d,2023-08-06_08h25.00.332,HF_wild_card,2022.2.4,MacIntel,59.99520038,60e02d7931b0152927b4425d,64ce5acb97489d65b14ecc7a,64cf4aa6ab024cbff515bd65,,,,,,,decisionTrl,resources/DY.BMP,resources/DG.BMP,Door2,-0.404585193,-0.01218998,1,0,0,1.1666,optionLeft,40,14460,7,5,0,5,0,1,,,,,,,,,,,,,,,,,,,,,,,,,,,,,,,,,,,,,,,
,,,,,,,60e02d7931b0152927b4425d,2023-08-06_08h25.00.332,HF_wild_card,2022.2.4,MacIntel,59.99520038,60e02d7931b0152927b4425d,64ce5acb97489d65b14ecc7a,64cf4aa6ab024cbff515bd65,,,,,,,decisionTrl,resources/DBN.BMP,resources/DP.BMP,Door3,-0.367041791,-0.012518601,1,0,0,0.8496,optionLeft,70,14530,7,6,0,6,0,1,,,,,,,,,,,,,,,,,,,,,,,,,,,,,,,,,,,,,,,
,,,,,,,60e02d7931b0152927b4425d,2023-08-06_08h25.00.332,HF_wild_card,2022.2.4,MacIntel,59.99520038,60e02d7931b0152927b4425d,64ce5acb97489d65b14ecc7a,64cf4aa6ab024cbff515bd65,,,,,,,ctch,resources/DP.BMP,resources/DG.BMP,Door4,-0.377632068,-0.021189856,1,0,0,1.2493,optionLeft,60,14590,7,7,0,7,0,1,,,,,,,,,,,,,,,,,,,,,,,,,,,,,,,,,,,,,,,
,,,,,,,60e02d7931b0152927b4425d,2023-08-06_08h25.00.332,HF_wild_card,2022.2.4,MacIntel,59.99520038,60e02d7931b0152927b4425d,64ce5acb97489d65b14ecc7a,64cf4aa6ab024cbff515bd65,,,,,,,decisionTrl,resources/DP.BMP,resources/DBN.BMP,Door3,0.376894221,-6.2004E-06,1,0,0,0.8457,optionRight,70,14660,7,8,0,8,0,1,,,,,,,,,,,,,,,,,,,,,,,,,,,,,,,,,,,,,,,
,,,,,,,60e02d7931b0152927b4425d,2023-08-06_08h25.00.332,HF_wild_card,2022.2.4,MacIntel,59.99520038,60e02d7931b0152927b4425d,64ce5acb97489d65b14ecc7a,64cf4aa6ab024cbff515bd65,,,,,,,decisionTrl,resources/DP.BMP,resources/DBN.BMP,Door3,0.409086682,0.00125558,1,0,0,0.7995,optionRight,70,14730,7,9,0,9,0,1,,,,,,,,,,,,,,,,,,,,,,,,,,,,,,,,,,,,,,,
,,,,,,,60e02d7931b0152927b4425d,2023-08-06_08h25.00.332,HF_wild_card,2022.2.4,MacIntel,59.99520038,60e02d7931b0152927b4425d,64ce5acb97489d65b14ecc7a,64cf4aa6ab024cbff515bd65,,,,,,,decisionTrl,resources/DBN.BMP,resources/DP.BMP,Door3,-0.421577381,-0.014502728,1,0,0,0.8156,optionLeft,70,14800,7,10,0,10,0,1,,,,,,,,,,,,,,,,,,,,,,,,,,,,,,,,,,,,,,,
,,,,,,,60e02d7931b0152927b4425d,2023-08-06_08h25.00.332,HF_wild_card,2022.2.4,MacIntel,59.99520038,60e02d7931b0152927b4425d,64ce5acb97489d65b14ecc7a,64cf4aa6ab024cbff515bd65,,,,,,,ctch,resources/DY.BMP,resources/DBN.BMP,Door3,0.409275794,0.024026538,1,0,0,0.7822,optionRight,70,14870,7,11,0,11,0,1,,,,,,,,,,,,,,,,,,,,,,,,,,,,,,,,,,,,,,,
,,,,,,,60e02d7931b0152927b4425d,2023-08-06_08h25.00.332,HF_wild_card,2022.2.4,MacIntel,59.99520038,60e02d7931b0152927b4425d,64ce5acb97489d65b14ecc7a,64cf4aa6ab024cbff515bd65,,,,,,,decisionTrl,resources/DBN.BMP,resources/DP.BMP,Door3,-0.390448289,-0.02390563,1,0,0,0.7645,optionLeft,70,14940,7,12,0,12,0,1,,,,,,,,,,,,,,,,,,,,,,,,,,,,,,,,,,,,,,,
,,,,,,,60e02d7931b0152927b4425d,2023-08-06_08h25.00.332,HF_wild_card,2022.2.4,MacIntel,59.99520038,60e02d7931b0152927b4425d,64ce5acb97489d65b14ecc7a,64cf4aa6ab024cbff515bd65,,,,,,,decisionTrl,resources/DG.BMP,resources/DY.BMP,Door2,0.329985119,-0.01375558,1,0,0,1.4509,optionRight,20,14960,7,13,0,13,0,1,,,,,,,,,,,,,,,,,,,,,,,,,,,,,,,,,,,,,,,
,,,,,,,60e02d7931b0152927b4425d,2023-08-06_08h25.00.332,HF_wild_card,2022.2.4,MacIntel,59.99520038,60e02d7931b0152927b4425d,64ce5acb97489d65b14ecc7a,64cf4aa6ab024cbff515bd65,,,,,,,decisionTrl,resources/DBN.BMP,resources/DP.BMP,Door3,-0.385646081,-0.035841394,1,0,0,0.7981,optionLeft,70,15030,7,14,0,14,0,1,,,,,,,,,,,,,,,,,,,,,,,,,,,,,,,,,,,,,,,
,,,,,,,60e02d7931b0152927b4425d,2023-08-06_08h25.00.332,HF_wild_card,2022.2.4,MacIntel,59.99520038,60e02d7931b0152927b4425d,64ce5acb97489d65b14ecc7a,64cf4aa6ab024cbff515bd65,,,,,,,decisionTrl,resources/DBN.BMP,resources/DP.BMP,Door3,-0.368309772,-0.012543403,1,0,0,0.8002,optionLeft,70,15100,7,15,0,15,0,1,,,,,,,,,,,,,,,,,,,,,,,,,,,,,,,,,,,,,,,
,,,,,,,60e02d7931b0152927b4425d,2023-08-06_08h25.00.332,HF_wild_card,2022.2.4,MacIntel,59.99520038,60e02d7931b0152927b4425d,64ce5acb97489d65b14ecc7a,64cf4aa6ab024cbff515bd65,,,,,,,ctch,resources/DBN.BMP,resources/DY.BMP,Door3,-0.358758061,0.009266493,1,0,0,0.6819,optionLeft,70,15170,7,16,0,16,0,1,,,,,,,,,,,,,,,,,,,,,,,,,,,,,,,,,,,,,,,
,,,,,,,60e02d7931b0152927b4425d,2023-08-06_08h25.00.332,HF_wild_card,2022.2.4,MacIntel,59.99520038,60e02d7931b0152927b4425d,64ce5acb97489d65b14ecc7a,64cf4aa6ab024cbff515bd65,,,,,,,decisionTrl,resources/DY.BMP,resources/DG.BMP,Door2,-0.310106647,-0.023632812,1,0,0,1.2146,optionLeft,40,15210,7,17,0,17,0,1,,,,,,,,,,,,,,,,,,,,,,,,,,,,,,,,,,,,,,,
