Condition,Low fixed image (Door1),Low risky image (Door2),High fixed image (Door3),High risky image (Door4),Extreme Wild Card,NonExtreme Wild Card,,date,expName,psychopyVersion,OS,frameRate,PROLIFIC_PID,STUDY_ID,SESSION_ID,mouse_2.x,mouse_2.y,mouse_2.leftButton,mouse_2.midButton,mouse_2.rightButton,mouse_2.clicked_name,Trial Type,Left Option Image,Right Option Image,Chosen Door,mouse.x,mouse.y,mouse.leftButton,mouse.midButton,mouse.rightButton,mouse.time,mouse.clicked_name,Feedback,Cumulative Reward,Block,trial.thisRepN,trial.thisTrialN,trial.thisN,trial.thisIndex,trial.ran,blocks.thisRepN,blocks.thisTrialN,blocks.thisN,blocks.thisIndex,blocks.ran,Money conversion,First Outcome Reported,Shown Door (First Outcome),Displayed Image (First Outcome),outcomes.thisRepN,outcomes.thisTrialN,outcomes.thisN,outcomes.thisIndex,outcomes.ran,judgments.thisRepN,judgments.thisTrialN,judgments.thisN,judgments.thisIndex,judgments.ran,freqMouse.x,freqMouse.y,freqMouse.leftButton,freqMouse.midButton,freqMouse.rightButton,freqMouse.clicked_name,trials.thisRepN,trials.thisTrialN,trials.thisN,trials.thisIndex,trials.ran,FQJ for first outcome,FQJ for second outcome,Shown Door,Displayed Image,judgBlock.thisRepN,judgBlock.thisTrialN,judgBlock.thisN,judgBlock.thisIndex,judgBlock.ran
1,resources/DB.BMP,resources/DR.BMP,resources/DP.BMP,resources/DY.BMP,resources/DG.BMP,resources/DBN.BMP,,2023-08-16_08h40.22.606,HF_wild_card,2022.2.4,Win32,59.94844434,5ae8a935eb922200018fd0f3,64d2fd46c836a06233681665,64dc7d567a6b0686ea53d296,,,,,,,,,,,,,,,,,,,,,,,,,,,,,,,,,,,,,,,,,,,,,,,,,,,,,,,,,,,,,,,,
,,,,,,,,2023-08-16_08h40.22.606,HF_wild_card,2022.2.4,Win32,59.94844434,5ae8a935eb922200018fd0f3,64d2fd46c836a06233681665,64dc7d567a6b0686ea53d296,0.023148126,-0.41759257,1,0,0,agree,,,,,,,,,,,,,,,,,,,,,,,,,,,,,,,,,,,,,,,,,,,,,,,,,,,,,,,,,,
,,,,,,,,2023-08-16_08h40.22.606,HF_wild_card,2022.2.4,Win32,59.94844434,5ae8a935eb922200018fd0f3,64d2fd46c836a06233681665,64dc7d567a6b0686ea53d296,,,,,,,,,,,,,,,,,,,,,,,,,,,,,,,,,,,,,,,,,,,,,,,,,,,,,,,,,,,,,,,,
,,,,,,,,2023-08-16_08h40.22.606,HF_wild_card,2022.2.4,Win32,59.94844434,5ae8a935eb922200018fd0f3,64d2fd46c836a06233681665,64dc7d567a6b0686ea53d296,,,,,,,decisionTrl,resources/DB.BMP,resources/DR.BMP,Door2,0.465740696,-0.125925903,1,0,0,2.125,optionRight,20,20,1,0,0,0,0,1,,,,,,,,,,,,,,,,,,,,,,,,,,,,,,,,,,,,,,,
,,,,,,,,2023-08-16_08h40.22.606,HF_wild_card,2022.2.4,Win32,59.94844434,5ae8a935eb922200018fd0f3,64d2fd46c836a06233681665,64dc7d567a6b0686ea53d296,,,,,,,decisionTrl,resources/DB.BMP,resources/DBN.BMP,WildCard_NonEx,0.372222222,-0.001851841,1,0,0,2.5823,optionRight,55,75,1,1,0,1,0,1,,,,,,,,,,,,,,,,,,,,,,,,,,,,,,,,,,,,,,,
,,,,,,,,2023-08-16_08h40.22.606,HF_wild_card,2022.2.4,Win32,59.94844434,5ae8a935eb922200018fd0f3,64d2fd46c836a06233681665,64dc7d567a6b0686ea53d296,,,,,,,sngl,resources/Empty.png,resources/DY.BMP,Door4,0.390740696,0.016666667,1,0,0,1.5045,optionRight,60,135,1,2,0,2,0,1,,,,,,,,,,,,,,,,,,,,,,,,,,,,,,,,,,,,,,,
,,,,,,,,2023-08-16_08h40.22.606,HF_wild_card,2022.2.4,Win32,59.94844434,5ae8a935eb922200018fd0f3,64d2fd46c836a06233681665,64dc7d567a6b0686ea53d296,,,,,,,decisionTrl,resources/DB.BMP,resources/DR.BMP,Door2,0.314814724,-0.018518507,1,0,0,2.097,optionRight,40,175,1,3,0,3,0,1,,,,,,,,,,,,,,,,,,,,,,,,,,,,,,,,,,,,,,,
,,,,,,,,2023-08-16_08h40.22.606,HF_wild_card,2022.2.4,Win32,59.94844434,5ae8a935eb922200018fd0f3,64d2fd46c836a06233681665,64dc7d567a6b0686ea53d296,,,,,,,sngl,resources/Empty.png,resources/DB.BMP,Door1,0.341666667,-0.023148126,1,0,0,1.3711,optionRight,30,205,1,4,0,4,0,1,,,,,,,,,,,,,,,,,,,,,,,,,,,,,,,,,,,,,,,
,,,,,,,,2023-08-16_08h40.22.606,HF_wild_card,2022.2.4,Win32,59.94844434,5ae8a935eb922200018fd0f3,64d2fd46c836a06233681665,64dc7d567a6b0686ea53d296,,,,,,,sngl,resources/Empty.png,resources/DP.BMP,Door3,0.42037028,-0.023148126,1,0,0,1.1008,optionRight,70,275,1,5,0,5,0,1,,,,,,,,,,,,,,,,,,,,,,,,,,,,,,,,,,,,,,,
,,,,,,,,2023-08-16_08h40.22.606,HF_wild_card,2022.2.4,Win32,59.94844434,5ae8a935eb922200018fd0f3,64d2fd46c836a06233681665,64dc7d567a6b0686ea53d296,,,,,,,ctch,resources/DP.BMP,resources/DR.BMP,Door3,-0.353703715,-0.050925903,1,0,0,1.0856,optionLeft,70,345,1,6,0,6,0,1,,,,,,,,,,,,,,,,,,,,,,,,,,,,,,,,,,,,,,,
,,,,,,,,2023-08-16_08h40.22.606,HF_wild_card,2022.2.4,Win32,59.94844434,5ae8a935eb922200018fd0f3,64d2fd46c836a06233681665,64dc7d567a6b0686ea53d296,,,,,,,ctch,resources/DY.BMP,resources/DB.BMP,Door4,-0.321296319,-0.022222222,1,0,0,3.1801,optionLeft,80,425,1,7,0,7,0,1,,,,,,,,,,,,,,,,,,,,,,,,,,,,,,,,,,,,,,,
,,,,,,,,2023-08-16_08h40.22.606,HF_wild_card,2022.2.4,Win32,59.94844434,5ae8a935eb922200018fd0f3,64d2fd46c836a06233681665,64dc7d567a6b0686ea53d296,,,,,,,decisionTrl,resources/DR.BMP,resources/DB.BMP,Door2,-0.271296319,0.013888889,1,0,0,2.5291,optionLeft,40,465,1,8,0,8,0,1,,,,,,,,,,,,,,,,,,,,,,,,,,,,,,,,,,,,,,,
,,,,,,,,2023-08-16_08h40.22.606,HF_wild_card,2022.2.4,Win32,59.94844434,5ae8a935eb922200018fd0f3,64d2fd46c836a06233681665,64dc7d567a6b0686ea53d296,,,,,,,sngl,resources/DB.BMP,resources/Empty.png,Door1,-0.391666667,-0.000925903,1,0,0,1.3633,optionLeft,30,495,1,9,0,9,0,1,,,,,,,,,,,,,,,,,,,,,,,,,,,,,,,,,,,,,,,
,,,,,,,,2023-08-16_08h40.22.606,HF_wild_card,2022.2.4,Win32,59.94844434,5ae8a935eb922200018fd0f3,64d2fd46c836a06233681665,64dc7d567a6b0686ea53d296,,,,,,,decisionTrl,resources/DR.BMP,resources/DB.BMP,Door2,-0.339814826,-0.016666667,1,0,0,1.3266,optionLeft,20,515,1,10,0,10,0,1,,,,,,,,,,,,,,,,,,,,,,,,,,,,,,,,,,,,,,,
,,,,,,,,2023-08-16_08h40.22.606,HF_wild_card,2022.2.4,Win32,59.94844434,5ae8a935eb922200018fd0f3,64d2fd46c836a06233681665,64dc7d567a6b0686ea53d296,,,,,,,decisionTrl,resources/DY.BMP,resources/DBN.BMP,WildCard_NonEx,0.256481391,-0.049074063,1,0,0,2.6665,optionRight,55,570,1,11,0,11,0,1,,,,,,,,,,,,,,,,,,,,,,,,,,,,,,,,,,,,,,,
,,,,,,,,2023-08-16_08h40.22.606,HF_wild_card,2022.2.4,Win32,59.94844434,5ae8a935eb922200018fd0f3,64d2fd46c836a06233681665,64dc7d567a6b0686ea53d296,,,,,,,decisionTrl,resources/DY.BMP,resources/DP.BMP,Door3,0.005555623,-0.005555556,1,0,0,0.1296,optionRight,70,640,1,12,0,12,0,1,,,,,,,,,,,,,,,,,,,,,,,,,,,,,,,,,,,,,,,
,,,,,,,,2023-08-16_08h40.22.606,HF_wild_card,2022.2.4,Win32,59.94844434,5ae8a935eb922200018fd0f3,64d2fd46c836a06233681665,64dc7d567a6b0686ea53d296,,,,,,,sngl,resources/DP.BMP,resources/Empty.png,Door3,-0.462037048,-0.025,1,0,0,0.9835,optionLeft,70,710,1,13,0,13,0,1,,,,,,,,,,,,,,,,,,,,,,,,,,,,,,,,,,,,,,,
,,,,,,,,2023-08-16_08h40.22.606,HF_wild_card,2022.2.4,Win32,59.94844434,5ae8a935eb922200018fd0f3,64d2fd46c836a06233681665,64dc7d567a6b0686ea53d296,,,,,,,decisionTrl,resources/DP.BMP,resources/DBN.BMP,Door3,-0.353703715,-0.070370348,1,0,0,1.4955,optionLeft,70,780,1,14,0,14,0,1,,,,,,,,,,,,,,,,,,,,,,,,,,,,,,,,,,,,,,,
,,,,,,,,2023-08-16_08h40.22.606,HF_wild_card,2022.2.4,Win32,59.94844434,5ae8a935eb922200018fd0f3,64d2fd46c836a06233681665,64dc7d567a6b0686ea53d296,,,,,,,sngl,resources/Empty.png,resources/DBN.BMP,WildCard_NonEx,0.389814724,-0.076851807,1,0,0,1.1946,optionRight,55,835,1,15,0,15,0,1,,,,,,,,,,,,,,,,,,,,,,,,,,,,,,,,,,,,,,,
,,,,,,,,2023-08-16_08h40.22.606,HF_wild_card,2022.2.4,Win32,59.94844434,5ae8a935eb922200018fd0f3,64d2fd46c836a06233681665,64dc7d567a6b0686ea53d296,,,,,,,decisionTrl,resources/DP.BMP,resources/DY.BMP,Door3,-0.369444444,-0.038888889,1,0,0,1.0304,optionLeft,70,905,1,16,0,16,0,1,,,,,,,,,,,,,,,,,,,,,,,,,,,,,,,,,,,,,,,
,,,,,,,,2023-08-16_08h40.22.606,HF_wild_card,2022.2.4,Win32,59.94844434,5ae8a935eb922200018fd0f3,64d2fd46c836a06233681665,64dc7d567a6b0686ea53d296,,,,,,,decisionTrl,resources/DR.BMP,resources/DB.BMP,Door2,-0.465740729,0.037037048,1,0,0,1.5502,optionLeft,40,945,1,17,0,17,0,1,,,,,,,,,,,,,,,,,,,,,,,,,,,,,,,,,,,,,,,
,,,,,,,,2023-08-16_08h40.22.606,HF_wild_card,2022.2.4,Win32,59.94844434,5ae8a935eb922200018fd0f3,64d2fd46c836a06233681665,64dc7d567a6b0686ea53d296,,,,,,,decisionTrl,resources/DBN.BMP,resources/DR.BMP,Door2,0.423148058,-0.114814792,1,0,0,2.7447,optionRight,20,965,1,18,0,18,0,1,,,,,,,,,,,,,,,,,,,,,,,,,,,,,,,,,,,,,,,
,,,,,,,,2023-08-16_08h40.22.606,HF_wild_card,2022.2.4,Win32,59.94844434,5ae8a935eb922200018fd0f3,64d2fd46c836a06233681665,64dc7d567a6b0686ea53d296,,,,,,,ctch,resources/DY.BMP,resources/DB.BMP,Door4,-0.33240743,-0.050925903,1,0,0,2.5666,optionLeft,60,1025,1,19,0,19,0,1,,,,,,,,,,,,,,,,,,,,,,,,,,,,,,,,,,,,,,,
,,,,,,,,2023-08-16_08h40.22.606,HF_wild_card,2022.2.4,Win32,59.94844434,5ae8a935eb922200018fd0f3,64d2fd46c836a06233681665,64dc7d567a6b0686ea53d296,,,,,,,sngl,resources/Empty.png,resources/DBN.BMP,WildCard_NonEx,0.362036947,-0.055555556,1,0,0,1.2329,optionRight,45,1070,1,20,0,20,0,1,,,,,,,,,,,,,,,,,,,,,,,,,,,,,,,,,,,,,,,
,,,,,,,,2023-08-16_08h40.22.606,HF_wild_card,2022.2.4,Win32,59.94844434,5ae8a935eb922200018fd0f3,64d2fd46c836a06233681665,64dc7d567a6b0686ea53d296,,,,,,,sngl,resources/DR.BMP,resources/Empty.png,Door2,-0.424999966,-0.018518507,1,0,0,1.2326,optionLeft,40,1110,1,21,0,21,0,1,,,,,,,,,,,,,,,,,,,,,,,,,,,,,,,,,,,,,,,
,,,,,,,,2023-08-16_08h40.22.606,HF_wild_card,2022.2.4,Win32,59.94844434,5ae8a935eb922200018fd0f3,64d2fd46c836a06233681665,64dc7d567a6b0686ea53d296,,,,,,,decisionTrl,resources/DBN.BMP,resources/DP.BMP,Door3,0.342592502,-0.070370348,1,0,0,1.0302,optionRight,70,1180,1,22,0,22,0,1,,,,,,,,,,,,,,,,,,,,,,,,,,,,,,,,,,,,,,,
,,,,,,,,2023-08-16_08h40.22.606,HF_wild_card,2022.2.4,Win32,59.94844434,5ae8a935eb922200018fd0f3,64d2fd46c836a06233681665,64dc7d567a6b0686ea53d296,,,,,,,ctch,resources/DB.BMP,resources/DY.BMP,Door4,0.397222222,-0.034259237,1,0,0,1.6109,optionRight,60,1240,1,23,0,23,0,1,,,,,,,,,,,,,,,,,,,,,,,,,,,,,,,,,,,,,,,
,,,,,,,,2023-08-16_08h40.22.606,HF_wild_card,2022.2.4,Win32,59.94844434,5ae8a935eb922200018fd0f3,64d2fd46c836a06233681665,64dc7d567a6b0686ea53d296,,,,,,,sngl,resources/DBN.BMP,resources/Empty.png,WildCard_NonEx,-0.321296319,-0.028703681,1,0,0,1.2085,optionLeft,45,1285,1,24,0,24,0,1,,,,,,,,,,,,,,,,,,,,,,,,,,,,,,,,,,,,,,,
,,,,,,,,2023-08-16_08h40.22.606,HF_wild_card,2022.2.4,Win32,59.94844434,5ae8a935eb922200018fd0f3,64d2fd46c836a06233681665,64dc7d567a6b0686ea53d296,,,,,,,decisionTrl,resources/DB.BMP,resources/DR.BMP,Door2,0.355555556,-0.061111111,1,0,0,1.3363,optionRight,40,1325,1,25,0,25,0,1,,,,,,,,,,,,,,,,,,,,,,,,,,,,,,,,,,,,,,,
,,,,,,,,2023-08-16_08h40.22.606,HF_wild_card,2022.2.4,Win32,59.94844434,5ae8a935eb922200018fd0f3,64d2fd46c836a06233681665,64dc7d567a6b0686ea53d296,,,,,,,decisionTrl,resources/DR.BMP,resources/DBN.BMP,Door2,-0.410185208,-0.024074063,1,0,0,1.3794,optionLeft,40,1365,1,26,0,26,0,1,,,,,,,,,,,,,,,,,,,,,,,,,,,,,,,,,,,,,,,
,,,,,,,,2023-08-16_08h40.22.606,HF_wild_card,2022.2.4,Win32,59.94844434,5ae8a935eb922200018fd0f3,64d2fd46c836a06233681665,64dc7d567a6b0686ea53d296,,,,,,,sngl,resources/DBN.BMP,resources/Empty.png,WildCard_NonEx,-0.299074097,-0.022222222,1,0,0,1.2117,optionLeft,55,1420,1,27,0,27,0,1,,,,,,,,,,,,,,,,,,,,,,,,,,,,,,,,,,,,,,,
,,,,,,,,2023-08-16_08h40.22.606,HF_wild_card,2022.2.4,Win32,59.94844434,5ae8a935eb922200018fd0f3,64d2fd46c836a06233681665,64dc7d567a6b0686ea53d296,,,,,,,ctch,resources/DR.BMP,resources/DP.BMP,Door3,0.394444444,-0.047222222,1,0,0,1.0652,optionRight,70,1490,1,28,0,28,0,1,,,,,,,,,,,,,,,,,,,,,,,,,,,,,,,,,,,,,,,
,,,,,,,,2023-08-16_08h40.22.606,HF_wild_card,2022.2.4,Win32,59.94844434,5ae8a935eb922200018fd0f3,64d2fd46c836a06233681665,64dc7d567a6b0686ea53d296,,,,,,,sngl,resources/Empty.png,resources/DR.BMP,Door2,0.416666667,-0.075,1,0,0,0.9472,optionRight,20,1510,1,29,0,29,0,1,,,,,,,,,,,,,,,,,,,,,,,,,,,,,,,,,,,,,,,
,,,,,,,,2023-08-16_08h40.22.606,HF_wild_card,2022.2.4,Win32,59.94844434,5ae8a935eb922200018fd0f3,64d2fd46c836a06233681665,64dc7d567a6b0686ea53d296,,,,,,,decisionTrl,resources/DY.BMP,resources/DP.BMP,Door3,0.413888889,-0.121296251,1,0,0,0.9908,optionRight,70,1580,1,30,0,30,0,1,,,,,,,,,,,,,,,,,,,,,,,,,,,,,,,,,,,,,,,
,,,,,,,,2023-08-16_08h40.22.606,HF_wild_card,2022.2.4,Win32,59.94844434,5ae8a935eb922200018fd0f3,64d2fd46c836a06233681665,64dc7d567a6b0686ea53d296,,,,,,,decisionTrl,resources/DBN.BMP,resources/DB.BMP,Door1,0.517592502,-0.088888889,1,0,0,1.2988,optionRight,30,1610,1,31,0,31,0,1,,,,,,,,,,,,,,,,,,,,,,,,,,,,,,,,,,,,,,,
,,,,,,,,2023-08-16_08h40.22.606,HF_wild_card,2022.2.4,Win32,59.94844434,5ae8a935eb922200018fd0f3,64d2fd46c836a06233681665,64dc7d567a6b0686ea53d296,,,,,,,decisionTrl,resources/DBN.BMP,resources/DY.BMP,Door4,0.478703613,-0.060185174,1,0,0,1.2615,optionRight,80,1690,1,32,0,32,0,1,,,,,,,,,,,,,,,,,,,,,,,,,,,,,,,,,,,,,,,
,,,,,,,,2023-08-16_08h40.22.606,HF_wild_card,2022.2.4,Win32,59.94844434,5ae8a935eb922200018fd0f3,64d2fd46c836a06233681665,64dc7d567a6b0686ea53d296,,,,,,,ctch,resources/DB.BMP,resources/DY.BMP,Door4,0.317592502,-0.011111111,1,0,0,1.0598,optionRight,80,1770,1,33,0,33,0,1,,,,,,,,,,,,,,,,,,,,,,,,,,,,,,,,,,,,,,,
,,,,,,,,2023-08-16_08h40.22.606,HF_wild_card,2022.2.4,Win32,59.94844434,5ae8a935eb922200018fd0f3,64d2fd46c836a06233681665,64dc7d567a6b0686ea53d296,,,,,,,decisionTrl,resources/DY.BMP,resources/DP.BMP,Door3,0.327777778,-0.029629618,1,0,0,0.8979,optionRight,70,1840,1,34,0,34,0,1,,,,,,,,,,,,,,,,,,,,,,,,,,,,,,,,,,,,,,,
,,,,,,,,2023-08-16_08h40.22.606,HF_wild_card,2022.2.4,Win32,59.94844434,5ae8a935eb922200018fd0f3,64d2fd46c836a06233681665,64dc7d567a6b0686ea53d296,,,,,,,ctch,resources/DR.BMP,resources/DP.BMP,Door3,0.338888889,-0.040740729,1,0,0,0.8152,optionRight,70,1910,1,35,0,35,0,1,,,,,,,,,,,,,,,,,,,,,,,,,,,,,,,,,,,,,,,
,,,,,,,,2023-08-16_08h40.22.606,HF_wild_card,2022.2.4,Win32,59.94844434,5ae8a935eb922200018fd0f3,64d2fd46c836a06233681665,64dc7d567a6b0686ea53d296,,,,,,,decisionTrl,resources/DB.BMP,resources/DR.BMP,Door2,0.322222222,-0.033333333,1,0,0,1.3173,optionRight,20,1930,1,36,0,36,0,1,,,,,,,,,,,,,,,,,,,,,,,,,,,,,,,,,,,,,,,
,,,,,,,,2023-08-16_08h40.22.606,HF_wild_card,2022.2.4,Win32,59.94844434,5ae8a935eb922200018fd0f3,64d2fd46c836a06233681665,64dc7d567a6b0686ea53d296,,,,,,,decisionTrl,resources/DP.BMP,resources/DY.BMP,Door3,-0.290740763,-0.012962952,1,0,0,1.4848,optionLeft,70,2000,1,37,0,37,0,1,,,,,,,,,,,,,,,,,,,,,,,,,,,,,,,,,,,,,,,
,,,,,,,,2023-08-16_08h40.22.606,HF_wild_card,2022.2.4,Win32,59.94844434,5ae8a935eb922200018fd0f3,64d2fd46c836a06233681665,64dc7d567a6b0686ea53d296,,,,,,,decisionTrl,resources/DY.BMP,resources/DP.BMP,Door3,0.362036947,-0.055555556,1,0,0,0.9225,optionRight,70,2070,1,38,0,38,0,1,,,,,,,,,,,,,,,,,,,,,,,,,,,,,,,,,,,,,,,
,,,,,,,,2023-08-16_08h40.22.606,HF_wild_card,2022.2.4,Win32,59.94844434,5ae8a935eb922200018fd0f3,64d2fd46c836a06233681665,64dc7d567a6b0686ea53d296,,,,,,,ctch,resources/DP.BMP,resources/DR.BMP,Door3,-0.467592604,-0.06759257,1,0,0,0.9301,optionLeft,70,2140,1,39,0,39,0,1,,,,,,,,,,,,,,,,,,,,,,,,,,,,,,,,,,,,,,,
,,,,,,,,2023-08-16_08h40.22.606,HF_wild_card,2022.2.4,Win32,59.94844434,5ae8a935eb922200018fd0f3,64d2fd46c836a06233681665,64dc7d567a6b0686ea53d296,,,,,,,decisionTrl,resources/DP.BMP,resources/DY.BMP,Door3,-0.346296319,-0.121296251,1,0,0,0.9303,optionLeft,70,2210,1,40,0,40,0,1,,,,,,,,,,,,,,,,,,,,,,,,,,,,,,,,,,,,,,,
,,,,,,,,2023-08-16_08h40.22.606,HF_wild_card,2022.2.4,Win32,59.94844434,5ae8a935eb922200018fd0f3,64d2fd46c836a06233681665,64dc7d567a6b0686ea53d296,,,,,,,decisionTrl,resources/DR.BMP,resources/DB.BMP,Door2,-0.00277771,0.001851874,1,0,0,0.5302,optionLeft,20,2230,1,41,0,41,0,1,,,,,,,,,,,,,,,,,,,,,,,,,,,,,,,,,,,,,,,
,,,,,,,,2023-08-16_08h40.22.606,HF_wild_card,2022.2.4,Win32,59.94844434,5ae8a935eb922200018fd0f3,64d2fd46c836a06233681665,64dc7d567a6b0686ea53d296,,,,,,,sngl,resources/DY.BMP,resources/Empty.png,Door4,-0.333333333,-0.065740729,1,0,0,1.1143,optionLeft,80,2310,1,42,0,42,0,1,,,,,,,,,,,,,,,,,,,,,,,,,,,,,,,,,,,,,,,
,,,,,,,,2023-08-16_08h40.22.606,HF_wild_card,2022.2.4,Win32,59.94844434,5ae8a935eb922200018fd0f3,64d2fd46c836a06233681665,64dc7d567a6b0686ea53d296,,,,,,,decisionTrl,resources/DP.BMP,resources/DY.BMP,Door3,-0.422222188,-0.063888889,1,0,0,1.0351,optionLeft,70,2380,1,43,0,43,0,1,,,,,,,,,,,,,,,,,,,,,,,,,,,,,,,,,,,,,,,
,,,,,,,,2023-08-16_08h40.22.606,HF_wild_card,2022.2.4,Win32,59.94844434,5ae8a935eb922200018fd0f3,64d2fd46c836a06233681665,64dc7d567a6b0686ea53d296,,,,,,,,,,,,,,,,,,,,,,,,,,0,0,0,0,1,,,,,,,,,,,,,,,,,,,,,,,,,,,,,,,,,,
,,,,,,,,2023-08-16_08h40.22.606,HF_wild_card,2022.2.4,Win32,59.94844434,5ae8a935eb922200018fd0f3,64d2fd46c836a06233681665,64dc7d567a6b0686ea53d296,,,,,,,decisionTrl,resources/DR.BMP,resources/DB.BMP,Door1,0.362036947,-0.105555556,1,0,0,2.0324,optionRight,30,2410,2,0,0,0,0,1,,,,,,,,,,,,,,,,,,,,,,,,,,,,,,,,,,,,,,,
,,,,,,,,2023-08-16_08h40.22.606,HF_wild_card,2022.2.4,Win32,59.94844434,5ae8a935eb922200018fd0f3,64d2fd46c836a06233681665,64dc7d567a6b0686ea53d296,,,,,,,decisionTrl,resources/DBN.BMP,resources/DY.BMP,Door4,0.316666667,-0.038888889,1,0,0,1.2073,optionRight,60,2470,2,1,0,1,0,1,,,,,,,,,,,,,,,,,,,,,,,,,,,,,,,,,,,,,,,
,,,,,,,,2023-08-16_08h40.22.606,HF_wild_card,2022.2.4,Win32,59.94844434,5ae8a935eb922200018fd0f3,64d2fd46c836a06233681665,64dc7d567a6b0686ea53d296,,,,,,,decisionTrl,resources/DB.BMP,resources/DR.BMP,Door1,-0.423148159,0.035185174,1,0,0,1.2146,optionLeft,30,2500,2,2,0,2,0,1,,,,,,,,,,,,,,,,,,,,,,,,,,,,,,,,,,,,,,,
,,,,,,,,2023-08-16_08h40.22.606,HF_wild_card,2022.2.4,Win32,59.94844434,5ae8a935eb922200018fd0f3,64d2fd46c836a06233681665,64dc7d567a6b0686ea53d296,,,,,,,ctch,resources/DP.BMP,resources/DR.BMP,Door3,-0.40740743,-0.005555556,1,0,0,1.0616,optionLeft,70,2570,2,3,0,3,0,1,,,,,,,,,,,,,,,,,,,,,,,,,,,,,,,,,,,,,,,
,,,,,,,,2023-08-16_08h40.22.606,HF_wild_card,2022.2.4,Win32,59.94844434,5ae8a935eb922200018fd0f3,64d2fd46c836a06233681665,64dc7d567a6b0686ea53d296,,,,,,,decisionTrl,resources/DB.BMP,resources/DBN.BMP,WildCard_NonEx,0.373148058,-0.003703681,1,0,0,1.5431,optionRight,55,2625,2,4,0,4,0,1,,,,,,,,,,,,,,,,,,,,,,,,,,,,,,,,,,,,,,,
,,,,,,,,2023-08-16_08h40.22.606,HF_wild_card,2022.2.4,Win32,59.94844434,5ae8a935eb922200018fd0f3,64d2fd46c836a06233681665,64dc7d567a6b0686ea53d296,,,,,,,decisionTrl,resources/DY.BMP,resources/DBN.BMP,Door4,-0.337037048,0.030555522,1,0,0,1.8984,optionLeft,80,2705,2,5,0,5,0,1,,,,,,,,,,,,,,,,,,,,,,,,,,,,,,,,,,,,,,,
,,,,,,,,2023-08-16_08h40.22.606,HF_wild_card,2022.2.4,Win32,59.94844434,5ae8a935eb922200018fd0f3,64d2fd46c836a06233681665,64dc7d567a6b0686ea53d296,,,,,,,decisionTrl,resources/DB.BMP,resources/DR.BMP,Door1,-0.543518541,-0.079629584,1,0,0,1.5804,optionLeft,30,2735,2,6,0,6,0,1,,,,,,,,,,,,,,,,,,,,,,,,,,,,,,,,,,,,,,,
,,,,,,,,2023-08-16_08h40.22.606,HF_wild_card,2022.2.4,Win32,59.94844434,5ae8a935eb922200018fd0f3,64d2fd46c836a06233681665,64dc7d567a6b0686ea53d296,,,,,,,decisionTrl,resources/DBN.BMP,resources/DR.BMP,WildCard_NonEx,-0.347222222,-0.012962952,1,0,0,1.5113,optionLeft,45,2780,2,7,0,7,0,1,,,,,,,,,,,,,,,,,,,,,,,,,,,,,,,,,,,,,,,
,,,,,,,,2023-08-16_08h40.22.606,HF_wild_card,2022.2.4,Win32,59.94844434,5ae8a935eb922200018fd0f3,64d2fd46c836a06233681665,64dc7d567a6b0686ea53d296,,,,,,,decisionTrl,resources/DBN.BMP,resources/DP.BMP,Door3,0.387962918,-0.123148126,1,0,0,0.8781,optionRight,70,2850,2,8,0,8,0,1,,,,,,,,,,,,,,,,,,,,,,,,,,,,,,,,,,,,,,,
,,,,,,,,2023-08-16_08h40.22.606,HF_wild_card,2022.2.4,Win32,59.94844434,5ae8a935eb922200018fd0f3,64d2fd46c836a06233681665,64dc7d567a6b0686ea53d296,,,,,,,decisionTrl,resources/DP.BMP,resources/DBN.BMP,Door3,-0.348148159,-0.040740729,1,0,0,0.8795,optionLeft,70,2920,2,9,0,9,0,1,,,,,,,,,,,,,,,,,,,,,,,,,,,,,,,,,,,,,,,
,,,,,,,,2023-08-16_08h40.22.606,HF_wild_card,2022.2.4,Win32,59.94844434,5ae8a935eb922200018fd0f3,64d2fd46c836a06233681665,64dc7d567a6b0686ea53d296,,,,,,,decisionTrl,resources/DB.BMP,resources/DR.BMP,Door1,-0.375,-0.08518514,1,0,0,1.4635,optionLeft,30,2950,2,10,0,10,0,1,,,,,,,,,,,,,,,,,,,,,,,,,,,,,,,,,,,,,,,
,,,,,,,,2023-08-16_08h40.22.606,HF_wild_card,2022.2.4,Win32,59.94844434,5ae8a935eb922200018fd0f3,64d2fd46c836a06233681665,64dc7d567a6b0686ea53d296,,,,,,,decisionTrl,resources/DR.BMP,resources/DB.BMP,Door2,-0.318518541,-0.031481459,1,0,0,1.2312,optionLeft,20,2970,2,11,0,11,0,1,,,,,,,,,,,,,,,,,,,,,,,,,,,,,,,,,,,,,,,
,,,,,,,,2023-08-16_08h40.22.606,HF_wild_card,2022.2.4,Win32,59.94844434,5ae8a935eb922200018fd0f3,64d2fd46c836a06233681665,64dc7d567a6b0686ea53d296,,,,,,,ctch,resources/DP.BMP,resources/DR.BMP,Door3,-0.26481486,-0.021296285,1,0,0,0.9809,optionLeft,70,3040,2,12,0,12,0,1,,,,,,,,,,,,,,,,,,,,,,,,,,,,,,,,,,,,,,,
,,,,,,,,2023-08-16_08h40.22.606,HF_wild_card,2022.2.4,Win32,59.94844434,5ae8a935eb922200018fd0f3,64d2fd46c836a06233681665,64dc7d567a6b0686ea53d296,,,,,,,sngl,resources/Empty.png,resources/DBN.BMP,WildCard_NonEx,0.403703613,-0.04259257,1,0,0,1.0742,optionRight,45,3085,2,13,0,13,0,1,,,,,,,,,,,,,,,,,,,,,,,,,,,,,,,,,,,,,,,
,,,,,,,,2023-08-16_08h40.22.606,HF_wild_card,2022.2.4,Win32,59.94844434,5ae8a935eb922200018fd0f3,64d2fd46c836a06233681665,64dc7d567a6b0686ea53d296,,,,,,,decisionTrl,resources/DY.BMP,resources/DP.BMP,Door3,0.486111111,-0.113888889,1,0,0,1.0304,optionRight,70,3155,2,14,0,14,0,1,,,,,,,,,,,,,,,,,,,,,,,,,,,,,,,,,,,,,,,
,,,,,,,,2023-08-16_08h40.22.606,HF_wild_card,2022.2.4,Win32,59.94844434,5ae8a935eb922200018fd0f3,64d2fd46c836a06233681665,64dc7d567a6b0686ea53d296,,,,,,,sngl,resources/DBN.BMP,resources/Empty.png,WildCard_NonEx,-0.266666667,-0.032407396,1,0,0,1.053,optionLeft,45,3200,2,15,0,15,0,1,,,,,,,,,,,,,,,,,,,,,,,,,,,,,,,,,,,,,,,
,,,,,,,,2023-08-16_08h40.22.606,HF_wild_card,2022.2.4,Win32,59.94844434,5ae8a935eb922200018fd0f3,64d2fd46c836a06233681665,64dc7d567a6b0686ea53d296,,,,,,,decisionTrl,resources/DB.BMP,resources/DR.BMP,Door1,-0.354629652,-0.029629618,1,0,0,1.2997,optionLeft,30,3230,2,16,0,16,0,1,,,,,,,,,,,,,,,,,,,,,,,,,,,,,,,,,,,,,,,
,,,,,,,,2023-08-16_08h40.22.606,HF_wild_card,2022.2.4,Win32,59.94844434,5ae8a935eb922200018fd0f3,64d2fd46c836a06233681665,64dc7d567a6b0686ea53d296,,,,,,,decisionTrl,resources/DR.BMP,resources/DB.BMP,Door1,0.237037014,-0.052777778,1,0,0,1.1309,optionRight,30,3260,2,17,0,17,0,1,,,,,,,,,,,,,,,,,,,,,,,,,,,,,,,,,,,,,,,
,,,,,,,,2023-08-16_08h40.22.606,HF_wild_card,2022.2.4,Win32,59.94844434,5ae8a935eb922200018fd0f3,64d2fd46c836a06233681665,64dc7d567a6b0686ea53d296,,,,,,,sngl,resources/Empty.png,resources/DY.BMP,Door4,0.344444444,-0.027777778,1,0,0,0.8369,optionRight,80,3340,2,18,0,18,0,1,,,,,,,,,,,,,,,,,,,,,,,,,,,,,,,,,,,,,,,
,,,,,,,,2023-08-16_08h40.22.606,HF_wild_card,2022.2.4,Win32,59.94844434,5ae8a935eb922200018fd0f3,64d2fd46c836a06233681665,64dc7d567a6b0686ea53d296,,,,,,,sngl,resources/Empty.png,resources/DB.BMP,Door1,0.289814724,-0.009259237,1,0,0,0.9337,optionRight,30,3370,2,19,0,19,0,1,,,,,,,,,,,,,,,,,,,,,,,,,,,,,,,,,,,,,,,
,,,,,,,,2023-08-16_08h40.22.606,HF_wild_card,2022.2.4,Win32,59.94844434,5ae8a935eb922200018fd0f3,64d2fd46c836a06233681665,64dc7d567a6b0686ea53d296,,,,,,,decisionTrl,resources/DY.BMP,resources/DP.BMP,Door3,0.354629584,-0.044444444,1,0,0,1.1795,optionRight,70,3440,2,20,0,20,0,1,,,,,,,,,,,,,,,,,,,,,,,,,,,,,,,,,,,,,,,
,,,,,,,,2023-08-16_08h40.22.606,HF_wild_card,2022.2.4,Win32,59.94844434,5ae8a935eb922200018fd0f3,64d2fd46c836a06233681665,64dc7d567a6b0686ea53d296,,,,,,,sngl,resources/DBN.BMP,resources/Empty.png,WildCard_NonEx,-0.268518541,-0.026851841,1,0,0,1.011,optionLeft,55,3495,2,21,0,21,0,1,,,,,,,,,,,,,,,,,,,,,,,,,,,,,,,,,,,,,,,
,,,,,,,,2023-08-16_08h40.22.606,HF_wild_card,2022.2.4,Win32,59.94844434,5ae8a935eb922200018fd0f3,64d2fd46c836a06233681665,64dc7d567a6b0686ea53d296,,,,,,,ctch,resources/DB.BMP,resources/DY.BMP,Door4,0.437962918,-0.106481459,1,0,0,0.8225,optionRight,60,3555,2,22,0,22,0,1,,,,,,,,,,,,,,,,,,,,,,,,,,,,,,,,,,,,,,,
,,,,,,,,2023-08-16_08h40.22.606,HF_wild_card,2022.2.4,Win32,59.94844434,5ae8a935eb922200018fd0f3,64d2fd46c836a06233681665,64dc7d567a6b0686ea53d296,,,,,,,sngl,resources/DY.BMP,resources/Empty.png,Door4,-0.322222222,-0.01759257,1,0,0,0.828,optionLeft,60,3615,2,23,0,23,0,1,,,,,,,,,,,,,,,,,,,,,,,,,,,,,,,,,,,,,,,
,,,,,,,,2023-08-16_08h40.22.606,HF_wild_card,2022.2.4,Win32,59.94844434,5ae8a935eb922200018fd0f3,64d2fd46c836a06233681665,64dc7d567a6b0686ea53d296,,,,,,,decisionTrl,resources/DY.BMP,resources/DP.BMP,Door4,-0.379629652,-0.019444444,1,0,0,2.3807,optionLeft,80,3695,2,24,0,24,0,1,,,,,,,,,,,,,,,,,,,,,,,,,,,,,,,,,,,,,,,
,,,,,,,,2023-08-16_08h40.22.606,HF_wild_card,2022.2.4,Win32,59.94844434,5ae8a935eb922200018fd0f3,64d2fd46c836a06233681665,64dc7d567a6b0686ea53d296,,,,,,,decisionTrl,resources/DR.BMP,resources/DBN.BMP,WildCard_NonEx,0.356481391,-0.008333333,1,0,0,1.2803,optionRight,45,3740,2,25,0,25,0,1,,,,,,,,,,,,,,,,,,,,,,,,,,,,,,,,,,,,,,,
,,,,,,,,2023-08-16_08h40.22.606,HF_wild_card,2022.2.4,Win32,59.94844434,5ae8a935eb922200018fd0f3,64d2fd46c836a06233681665,64dc7d567a6b0686ea53d296,,,,,,,ctch,resources/DR.BMP,resources/DP.BMP,Door3,0.425925836,-0.008333333,1,0,0,1.0469,optionRight,70,3810,2,26,0,26,0,1,,,,,,,,,,,,,,,,,,,,,,,,,,,,,,,,,,,,,,,
,,,,,,,,2023-08-16_08h40.22.606,HF_wild_card,2022.2.4,Win32,59.94844434,5ae8a935eb922200018fd0f3,64d2fd46c836a06233681665,64dc7d567a6b0686ea53d296,,,,,,,decisionTrl,resources/DP.BMP,resources/DY.BMP,Door3,-0.373148159,-0.053703681,1,0,0,0.828,optionLeft,70,3880,2,27,0,27,0,1,,,,,,,,,,,,,,,,,,,,,,,,,,,,,,,,,,,,,,,
,,,,,,,,2023-08-16_08h40.22.606,HF_wild_card,2022.2.4,Win32,59.94844434,5ae8a935eb922200018fd0f3,64d2fd46c836a06233681665,64dc7d567a6b0686ea53d296,,,,,,,sngl,resources/DR.BMP,resources/Empty.png,Door2,-0.262037082,-0.028703681,1,0,0,1.0468,optionLeft,20,3900,2,28,0,28,0,1,,,,,,,,,,,,,,,,,,,,,,,,,,,,,,,,,,,,,,,
,,,,,,,,2023-08-16_08h40.22.606,HF_wild_card,2022.2.4,Win32,59.94844434,5ae8a935eb922200018fd0f3,64d2fd46c836a06233681665,64dc7d567a6b0686ea53d296,,,,,,,ctch,resources/DR.BMP,resources/DP.BMP,Door3,0.308333333,-0.032407396,1,0,0,1.0287,optionRight,70,3970,2,29,0,29,0,1,,,,,,,,,,,,,,,,,,,,,,,,,,,,,,,,,,,,,,,
,,,,,,,,2023-08-16_08h40.22.606,HF_wild_card,2022.2.4,Win32,59.94844434,5ae8a935eb922200018fd0f3,64d2fd46c836a06233681665,64dc7d567a6b0686ea53d296,,,,,,,decisionTrl,resources/DR.BMP,resources/DB.BMP,Door2,-0.423148159,-0.037962952,1,0,0,1.4955,optionLeft,20,3990,2,30,0,30,0,1,,,,,,,,,,,,,,,,,,,,,,,,,,,,,,,,,,,,,,,
,,,,,,,,2023-08-16_08h40.22.606,HF_wild_card,2022.2.4,Win32,59.94844434,5ae8a935eb922200018fd0f3,64d2fd46c836a06233681665,64dc7d567a6b0686ea53d296,,,,,,,sngl,resources/DP.BMP,resources/Empty.png,Door3,-0.3,-0.044444444,1,0,0,1.3936,optionLeft,70,4060,2,31,0,31,0,1,,,,,,,,,,,,,,,,,,,,,,,,,,,,,,,,,,,,,,,
,,,,,,,,2023-08-16_08h40.22.606,HF_wild_card,2022.2.4,Win32,59.94844434,5ae8a935eb922200018fd0f3,64d2fd46c836a06233681665,64dc7d567a6b0686ea53d296,,,,,,,sngl,resources/Empty.png,resources/DP.BMP,Door3,0.418518473,-0.012962952,1,0,0,0.7913,optionRight,70,4130,2,32,0,32,0,1,,,,,,,,,,,,,,,,,,,,,,,,,,,,,,,,,,,,,,,
,,,,,,,,2023-08-16_08h40.22.606,HF_wild_card,2022.2.4,Win32,59.94844434,5ae8a935eb922200018fd0f3,64d2fd46c836a06233681665,64dc7d567a6b0686ea53d296,,,,,,,sngl,resources/Empty.png,resources/DR.BMP,Door2,0.355555556,-0.041666667,1,0,0,0.8695,optionRight,40,4170,2,33,0,33,0,1,,,,,,,,,,,,,,,,,,,,,,,,,,,,,,,,,,,,,,,
,,,,,,,,2023-08-16_08h40.22.606,HF_wild_card,2022.2.4,Win32,59.94844434,5ae8a935eb922200018fd0f3,64d2fd46c836a06233681665,64dc7d567a6b0686ea53d296,,,,,,,ctch,resources/DY.BMP,resources/DB.BMP,Door4,-0.284259304,-0.016666667,1,0,0,1.9949,optionLeft,80,4250,2,34,0,34,0,1,,,,,,,,,,,,,,,,,,,,,,,,,,,,,,,,,,,,,,,
,,,,,,,,2023-08-16_08h40.22.606,HF_wild_card,2022.2.4,Win32,59.94844434,5ae8a935eb922200018fd0f3,64d2fd46c836a06233681665,64dc7d567a6b0686ea53d296,,,,,,,decisionTrl,resources/DP.BMP,resources/DY.BMP,Door4,0.390740696,-0.070370348,1,0,0,1.5926,optionRight,80,4330,2,35,0,35,0,1,,,,,,,,,,,,,,,,,,,,,,,,,,,,,,,,,,,,,,,
,,,,,,,,2023-08-16_08h40.22.606,HF_wild_card,2022.2.4,Win32,59.94844434,5ae8a935eb922200018fd0f3,64d2fd46c836a06233681665,64dc7d567a6b0686ea53d296,,,,,,,ctch,resources/DY.BMP,resources/DB.BMP,Door4,-0.381481493,-0.086111111,1,0,0,1.2115,optionLeft,80,4410,2,36,0,36,0,1,,,,,,,,,,,,,,,,,,,,,,,,,,,,,,,,,,,,,,,
,,,,,,,,2023-08-16_08h40.22.606,HF_wild_card,2022.2.4,Win32,59.94844434,5ae8a935eb922200018fd0f3,64d2fd46c836a06233681665,64dc7d567a6b0686ea53d296,,,,,,,decisionTrl,resources/DY.BMP,resources/DP.BMP,Door4,-0.347222222,-0.044444444,1,0,0,1.264,optionLeft,80,4490,2,37,0,37,0,1,,,,,,,,,,,,,,,,,,,,,,,,,,,,,,,,,,,,,,,
,,,,,,,,2023-08-16_08h40.22.606,HF_wild_card,2022.2.4,Win32,59.94844434,5ae8a935eb922200018fd0f3,64d2fd46c836a06233681665,64dc7d567a6b0686ea53d296,,,,,,,sngl,resources/DB.BMP,resources/Empty.png,Door1,-0.424074063,0.000925937,1,0,0,1.0137,optionLeft,30,4520,2,38,0,38,0,1,,,,,,,,,,,,,,,,,,,,,,,,,,,,,,,,,,,,,,,
,,,,,,,,2023-08-16_08h40.22.606,HF_wild_card,2022.2.4,Win32,59.94844434,5ae8a935eb922200018fd0f3,64d2fd46c836a06233681665,64dc7d567a6b0686ea53d296,,,,,,,decisionTrl,resources/DP.BMP,resources/DY.BMP,Door4,0.469444444,-0.111111111,1,0,0,1.1419,optionRight,60,4580,2,39,0,39,0,1,,,,,,,,,,,,,,,,,,,,,,,,,,,,,,,,,,,,,,,
,,,,,,,,2023-08-16_08h40.22.606,HF_wild_card,2022.2.4,Win32,59.94844434,5ae8a935eb922200018fd0f3,64d2fd46c836a06233681665,64dc7d567a6b0686ea53d296,,,,,,,decisionTrl,resources/DP.BMP,resources/DY.BMP,Door3,-0.388888889,-0.074074029,1,0,0,1.4636,optionLeft,70,4650,2,40,0,40,0,1,,,,,,,,,,,,,,,,,,,,,,,,,,,,,,,,,,,,,,,
,,,,,,,,2023-08-16_08h40.22.606,HF_wild_card,2022.2.4,Win32,59.94844434,5ae8a935eb922200018fd0f3,64d2fd46c836a06233681665,64dc7d567a6b0686ea53d296,,,,,,,ctch,resources/DB.BMP,resources/DY.BMP,Door4,0.403703613,-0.099074029,1,0,0,1.6469,optionRight,60,4710,2,41,0,41,0,1,,,,,,,,,,,,,,,,,,,,,,,,,,,,,,,,,,,,,,,
,,,,,,,,2023-08-16_08h40.22.606,HF_wild_card,2022.2.4,Win32,59.94844434,5ae8a935eb922200018fd0f3,64d2fd46c836a06233681665,64dc7d567a6b0686ea53d296,,,,,,,decisionTrl,resources/DBN.BMP,resources/DB.BMP,WildCard_NonEx,-0.414814826,0.018518541,1,0,0,1.2462,optionLeft,45,4755,2,42,0,42,0,1,,,,,,,,,,,,,,,,,,,,,,,,,,,,,,,,,,,,,,,
,,,,,,,,2023-08-16_08h40.22.606,HF_wild_card,2022.2.4,Win32,59.94844434,5ae8a935eb922200018fd0f3,64d2fd46c836a06233681665,64dc7d567a6b0686ea53d296,,,,,,,sngl,resources/Empty.png,resources/DBN.BMP,WildCard_NonEx,0.274074029,-0.018518507,1,0,0,0.889,optionRight,55,4810,2,43,0,43,0,1,,,,,,,,,,,,,,,,,,,,,,,,,,,,,,,,,,,,,,,
,,,,,,,,2023-08-16_08h40.22.606,HF_wild_card,2022.2.4,Win32,59.94844434,5ae8a935eb922200018fd0f3,64d2fd46c836a06233681665,64dc7d567a6b0686ea53d296,,,,,,,,,,,,,,,,,,,,,,,,,,1,0,1,0,1,,,,,,,,,,,,,,,,,,,,,,,,,,,,,,,,,,
,,,,,,,,2023-08-16_08h40.22.606,HF_wild_card,2022.2.4,Win32,59.94844434,5ae8a935eb922200018fd0f3,64d2fd46c836a06233681665,64dc7d567a6b0686ea53d296,,,,,,,decisionTrl,resources/DB.BMP,resources/DR.BMP,Door1,-0.325,-0.143518473,1,0,0,1.6997,optionLeft,30,4840,3,0,0,0,0,1,,,,,,,,,,,,,,,,,,,,,,,,,,,,,,,,,,,,,,,
,,,,,,,,2023-08-16_08h40.22.606,HF_wild_card,2022.2.4,Win32,59.94844434,5ae8a935eb922200018fd0f3,64d2fd46c836a06233681665,64dc7d567a6b0686ea53d296,,,,,,,decisionTrl,resources/DY.BMP,resources/DBN.BMP,WildCard_NonEx,0.365740696,-0.031481459,1,0,0,1.8636,optionRight,45,4885,3,1,0,1,0,1,,,,,,,,,,,,,,,,,,,,,,,,,,,,,,,,,,,,,,,
,,,,,,,,2023-08-16_08h40.22.606,HF_wild_card,2022.2.4,Win32,59.94844434,5ae8a935eb922200018fd0f3,64d2fd46c836a06233681665,64dc7d567a6b0686ea53d296,,,,,,,sngl,resources/DP.BMP,resources/Empty.png,Door3,-0.380555556,-0.035185174,1,0,0,0.9132,optionLeft,70,4955,3,2,0,2,0,1,,,,,,,,,,,,,,,,,,,,,,,,,,,,,,,,,,,,,,,
,,,,,,,,2023-08-16_08h40.22.606,HF_wild_card,2022.2.4,Win32,59.94844434,5ae8a935eb922200018fd0f3,64d2fd46c836a06233681665,64dc7d567a6b0686ea53d296,,,,,,,decisionTrl,resources/DR.BMP,resources/DB.BMP,Door1,0.448148058,-0.040740729,1,0,0,1.6376,optionRight,30,4985,3,3,0,3,0,1,,,,,,,,,,,,,,,,,,,,,,,,,,,,,,,,,,,,,,,
,,,,,,,,2023-08-16_08h40.22.606,HF_wild_card,2022.2.4,Win32,59.94844434,5ae8a935eb922200018fd0f3,64d2fd46c836a06233681665,64dc7d567a6b0686ea53d296,,,,,,,decisionTrl,resources/DP.BMP,resources/DY.BMP,Door4,0.357407362,0.013888889,1,0,0,1.4031,optionRight,80,5065,3,4,0,4,0,1,,,,,,,,,,,,,,,,,,,,,,,,,,,,,,,,,,,,,,,
,,,,,,,,2023-08-16_08h40.22.606,HF_wild_card,2022.2.4,Win32,59.94844434,5ae8a935eb922200018fd0f3,64d2fd46c836a06233681665,64dc7d567a6b0686ea53d296,,,,,,,ctch,resources/DB.BMP,resources/DY.BMP,Door4,0.530555556,-0.052777778,1,0,0,1.1474,optionRight,80,5145,3,5,0,5,0,1,,,,,,,,,,,,,,,,,,,,,,,,,,,,,,,,,,,,,,,
,,,,,,,,2023-08-16_08h40.22.606,HF_wild_card,2022.2.4,Win32,59.94844434,5ae8a935eb922200018fd0f3,64d2fd46c836a06233681665,64dc7d567a6b0686ea53d296,,,,,,,decisionTrl,resources/DR.BMP,resources/DBN.BMP,WildCard_NonEx,0.306481391,-0.05,1,0,0,1.1002,optionRight,55,5200,3,6,0,6,0,1,,,,,,,,,,,,,,,,,,,,,,,,,,,,,,,,,,,,,,,
,,,,,,,,2023-08-16_08h40.22.606,HF_wild_card,2022.2.4,Win32,59.94844434,5ae8a935eb922200018fd0f3,64d2fd46c836a06233681665,64dc7d567a6b0686ea53d296,,,,,,,decisionTrl,resources/DY.BMP,resources/DP.BMP,Door4,-0.362037048,0.004629652,1,0,0,1.4638,optionLeft,60,5260,3,7,0,7,0,1,,,,,,,,,,,,,,,,,,,,,,,,,,,,,,,,,,,,,,,
,,,,,,,,2023-08-16_08h40.22.606,HF_wild_card,2022.2.4,Win32,59.94844434,5ae8a935eb922200018fd0f3,64d2fd46c836a06233681665,64dc7d567a6b0686ea53d296,,,,,,,sngl,resources/DB.BMP,resources/Empty.png,Door1,-0.3,-0.021296285,1,0,0,0.9956,optionLeft,30,5290,3,8,0,8,0,1,,,,,,,,,,,,,,,,,,,,,,,,,,,,,,,,,,,,,,,
,,,,,,,,2023-08-16_08h40.22.606,HF_wild_card,2022.2.4,Win32,59.94844434,5ae8a935eb922200018fd0f3,64d2fd46c836a06233681665,64dc7d567a6b0686ea53d296,,,,,,,sngl,resources/DBN.BMP,resources/Empty.png,WildCard_NonEx,-0.411111111,0.021296319,1,0,0,0.9804,optionLeft,45,5335,3,9,0,9,0,1,,,,,,,,,,,,,,,,,,,,,,,,,,,,,,,,,,,,,,,
,,,,,,,,2023-08-16_08h40.22.606,HF_wild_card,2022.2.4,Win32,59.94844434,5ae8a935eb922200018fd0f3,64d2fd46c836a06233681665,64dc7d567a6b0686ea53d296,,,,,,,decisionTrl,resources/DB.BMP,resources/DR.BMP,Door1,-0.294444444,-0.005555556,1,0,0,1.6105,optionLeft,30,5365,3,10,0,10,0,1,,,,,,,,,,,,,,,,,,,,,,,,,,,,,,,,,,,,,,,
,,,,,,,,2023-08-16_08h40.22.606,HF_wild_card,2022.2.4,Win32,59.94844434,5ae8a935eb922200018fd0f3,64d2fd46c836a06233681665,64dc7d567a6b0686ea53d296,,,,,,,decisionTrl,resources/DP.BMP,resources/DY.BMP,Door4,0.390740696,-0.066666667,1,0,0,1.2137,optionRight,60,5425,3,11,0,11,0,1,,,,,,,,,,,,,,,,,,,,,,,,,,,,,,,,,,,,,,,
,,,,,,,,2023-08-16_08h40.22.606,HF_wild_card,2022.2.4,Win32,59.94844434,5ae8a935eb922200018fd0f3,64d2fd46c836a06233681665,64dc7d567a6b0686ea53d296,,,,,,,ctch,resources/DB.BMP,resources/DY.BMP,Door4,0.319444444,-0.020370348,1,0,0,1.1619,optionRight,60,5485,3,12,0,12,0,1,,,,,,,,,,,,,,,,,,,,,,,,,,,,,,,,,,,,,,,
,,,,,,,,2023-08-16_08h40.22.606,HF_wild_card,2022.2.4,Win32,59.94844434,5ae8a935eb922200018fd0f3,64d2fd46c836a06233681665,64dc7d567a6b0686ea53d296,,,,,,,sngl,resources/Empty.png,resources/DP.BMP,Door3,0.228703681,-0.027777778,1,0,0,1.1007,optionRight,70,5555,3,13,0,13,0,1,,,,,,,,,,,,,,,,,,,,,,,,,,,,,,,,,,,,,,,
,,,,,,,,2023-08-16_08h40.22.606,HF_wild_card,2022.2.4,Win32,59.94844434,5ae8a935eb922200018fd0f3,64d2fd46c836a06233681665,64dc7d567a6b0686ea53d296,,,,,,,decisionTrl,resources/DBN.BMP,resources/DR.BMP,WildCard_NonEx,-0.356481493,0.066666633,1,0,0,1.3472,optionLeft,45,5600,3,14,0,14,0,1,,,,,,,,,,,,,,,,,,,,,,,,,,,,,,,,,,,,,,,
,,,,,,,,2023-08-16_08h40.22.606,HF_wild_card,2022.2.4,Win32,59.94844434,5ae8a935eb922200018fd0f3,64d2fd46c836a06233681665,64dc7d567a6b0686ea53d296,,,,,,,sngl,resources/Empty.png,resources/DBN.BMP,WildCard_NonEx,0.312962918,-0.043518507,1,0,0,0.9401,optionRight,55,5655,3,15,0,15,0,1,,,,,,,,,,,,,,,,,,,,,,,,,,,,,,,,,,,,,,,
,,,,,,,,2023-08-16_08h40.22.606,HF_wild_card,2022.2.4,Win32,59.94844434,5ae8a935eb922200018fd0f3,64d2fd46c836a06233681665,64dc7d567a6b0686ea53d296,,,,,,,ctch,resources/DP.BMP,resources/DR.BMP,Door3,-0.521296285,-0.040740729,1,0,0,1.4305,optionLeft,70,5725,3,16,0,16,0,1,,,,,,,,,,,,,,,,,,,,,,,,,,,,,,,,,,,,,,,
,,,,,,,,2023-08-16_08h40.22.606,HF_wild_card,2022.2.4,Win32,59.94844434,5ae8a935eb922200018fd0f3,64d2fd46c836a06233681665,64dc7d567a6b0686ea53d296,,,,,,,decisionTrl,resources/DR.BMP,resources/DB.BMP,Door1,0.26018514,-0.04259257,1,0,0,1.3717,optionRight,30,5755,3,17,0,17,0,1,,,,,,,,,,,,,,,,,,,,,,,,,,,,,,,,,,,,,,,
,,,,,,,,2023-08-16_08h40.22.606,HF_wild_card,2022.2.4,Win32,59.94844434,5ae8a935eb922200018fd0f3,64d2fd46c836a06233681665,64dc7d567a6b0686ea53d296,,,,,,,decisionTrl,resources/DBN.BMP,resources/DP.BMP,Door3,0.422222222,-0.024074063,1,0,0,1.3973,optionRight,70,5825,3,18,0,18,0,1,,,,,,,,,,,,,,,,,,,,,,,,,,,,,,,,,,,,,,,
,,,,,,,,2023-08-16_08h40.22.606,HF_wild_card,2022.2.4,Win32,59.94844434,5ae8a935eb922200018fd0f3,64d2fd46c836a06233681665,64dc7d567a6b0686ea53d296,,,,,,,decisionTrl,resources/DB.BMP,resources/DBN.BMP,WildCard_NonEx,0.415740696,-0.021296285,1,0,0,1.1509,optionRight,45,5870,3,19,0,19,0,1,,,,,,,,,,,,,,,,,,,,,,,,,,,,,,,,,,,,,,,
,,,,,,,,2023-08-16_08h40.22.606,HF_wild_card,2022.2.4,Win32,59.94844434,5ae8a935eb922200018fd0f3,64d2fd46c836a06233681665,64dc7d567a6b0686ea53d296,,,,,,,decisionTrl,resources/DBN.BMP,resources/DB.BMP,WildCard_NonEx,-0.303703749,-0.025,1,0,0,1.4439,optionLeft,45,5915,3,20,0,20,0,1,,,,,,,,,,,,,,,,,,,,,,,,,,,,,,,,,,,,,,,
,,,,,,,,2023-08-16_08h40.22.606,HF_wild_card,2022.2.4,Win32,59.94844434,5ae8a935eb922200018fd0f3,64d2fd46c836a06233681665,64dc7d567a6b0686ea53d296,,,,,,,decisionTrl,resources/DP.BMP,resources/DBN.BMP,Door3,-0.352777778,-0.086111111,1,0,0,1.0163,optionLeft,70,5985,3,21,0,21,0,1,,,,,,,,,,,,,,,,,,,,,,,,,,,,,,,,,,,,,,,
,,,,,,,,2023-08-16_08h40.22.606,HF_wild_card,2022.2.4,Win32,59.94844434,5ae8a935eb922200018fd0f3,64d2fd46c836a06233681665,64dc7d567a6b0686ea53d296,,,,,,,ctch,resources/DR.BMP,resources/DP.BMP,Door3,0.473148058,-0.001851841,1,0,0,0.9702,optionRight,70,6055,3,22,0,22,0,1,,,,,,,,,,,,,,,,,,,,,,,,,,,,,,,,,,,,,,,
,,,,,,,,2023-08-16_08h40.22.606,HF_wild_card,2022.2.4,Win32,59.94844434,5ae8a935eb922200018fd0f3,64d2fd46c836a06233681665,64dc7d567a6b0686ea53d296,,,,,,,decisionTrl,resources/DB.BMP,resources/DR.BMP,Door1,-0.247222222,0.003703715,1,0,0,1.3471,optionLeft,30,6085,3,23,0,23,0,1,,,,,,,,,,,,,,,,,,,,,,,,,,,,,,,,,,,,,,,
,,,,,,,,2023-08-16_08h40.22.606,HF_wild_card,2022.2.4,Win32,59.94844434,5ae8a935eb922200018fd0f3,64d2fd46c836a06233681665,64dc7d567a6b0686ea53d296,,,,,,,decisionTrl,resources/DBN.BMP,resources/DY.BMP,Door4,0.374074029,-0.053703681,1,0,0,1.1201,optionRight,60,6145,3,24,0,24,0,1,,,,,,,,,,,,,,,,,,,,,,,,,,,,,,,,,,,,,,,
,,,,,,,,2023-08-16_08h40.22.606,HF_wild_card,2022.2.4,Win32,59.94844434,5ae8a935eb922200018fd0f3,64d2fd46c836a06233681665,64dc7d567a6b0686ea53d296,,,,,,,decisionTrl,resources/DY.BMP,resources/DP.BMP,Door3,0.399074029,-0.059259237,1,0,0,0.9976,optionRight,70,6215,3,25,0,25,0,1,,,,,,,,,,,,,,,,,,,,,,,,,,,,,,,,,,,,,,,
,,,,,,,,2023-08-16_08h40.22.606,HF_wild_card,2022.2.4,Win32,59.94844434,5ae8a935eb922200018fd0f3,64d2fd46c836a06233681665,64dc7d567a6b0686ea53d296,,,,,,,ctch,resources/DY.BMP,resources/DB.BMP,Door4,-0.293518541,-0.056481459,1,0,0,1.1925,optionLeft,80,6295,3,26,0,26,0,1,,,,,,,,,,,,,,,,,,,,,,,,,,,,,,,,,,,,,,,
,,,,,,,,2023-08-16_08h40.22.606,HF_wild_card,2022.2.4,Win32,59.94844434,5ae8a935eb922200018fd0f3,64d2fd46c836a06233681665,64dc7d567a6b0686ea53d296,,,,,,,sngl,resources/Empty.png,resources/DB.BMP,Door1,0.308333333,-0.032407396,1,0,0,0.8414,optionRight,30,6325,3,27,0,27,0,1,,,,,,,,,,,,,,,,,,,,,,,,,,,,,,,,,,,,,,,
,,,,,,,,2023-08-16_08h40.22.606,HF_wild_card,2022.2.4,Win32,59.94844434,5ae8a935eb922200018fd0f3,64d2fd46c836a06233681665,64dc7d567a6b0686ea53d296,,,,,,,decisionTrl,resources/DP.BMP,resources/DY.BMP,Door3,-0.319444444,-0.001851841,1,0,0,1.0564,optionLeft,70,6395,3,28,0,28,0,1,,,,,,,,,,,,,,,,,,,,,,,,,,,,,,,,,,,,,,,
,,,,,,,,2023-08-16_08h40.22.606,HF_wild_card,2022.2.4,Win32,59.94844434,5ae8a935eb922200018fd0f3,64d2fd46c836a06233681665,64dc7d567a6b0686ea53d296,,,,,,,sngl,resources/DR.BMP,resources/Empty.png,Door2,-0.437037048,0.001851874,1,0,0,0.9657,optionLeft,40,6435,3,29,0,29,0,1,,,,,,,,,,,,,,,,,,,,,,,,,,,,,,,,,,,,,,,
,,,,,,,,2023-08-16_08h40.22.606,HF_wild_card,2022.2.4,Win32,59.94844434,5ae8a935eb922200018fd0f3,64d2fd46c836a06233681665,64dc7d567a6b0686ea53d296,,,,,,,decisionTrl,resources/DB.BMP,resources/DR.BMP,Door1,-0.387037048,0.033333299,1,0,0,1.4141,optionLeft,30,6465,3,30,0,30,0,1,,,,,,,,,,,,,,,,,,,,,,,,,,,,,,,,,,,,,,,
,,,,,,,,2023-08-16_08h40.22.606,HF_wild_card,2022.2.4,Win32,59.94844434,5ae8a935eb922200018fd0f3,64d2fd46c836a06233681665,64dc7d567a6b0686ea53d296,,,,,,,sngl,resources/DY.BMP,resources/Empty.png,Door4,-0.373148159,0.019444444,1,0,0,0.8601,optionLeft,80,6545,3,31,0,31,0,1,,,,,,,,,,,,,,,,,,,,,,,,,,,,,,,,,,,,,,,
,,,,,,,,2023-08-16_08h40.22.606,HF_wild_card,2022.2.4,Win32,59.94844434,5ae8a935eb922200018fd0f3,64d2fd46c836a06233681665,64dc7d567a6b0686ea53d296,,,,,,,ctch,resources/DY.BMP,resources/DB.BMP,Door4,-0.362962986,-0.012962952,1,0,0,0.9632,optionLeft,60,6605,3,32,0,32,0,1,,,,,,,,,,,,,,,,,,,,,,,,,,,,,,,,,,,,,,,
,,,,,,,,2023-08-16_08h40.22.606,HF_wild_card,2022.2.4,Win32,59.94844434,5ae8a935eb922200018fd0f3,64d2fd46c836a06233681665,64dc7d567a6b0686ea53d296,,,,,,,decisionTrl,resources/DR.BMP,resources/DB.BMP,Door1,0.223148126,-0.021296285,1,0,0,1.8451,optionRight,30,6635,3,33,0,33,0,1,,,,,,,,,,,,,,,,,,,,,,,,,,,,,,,,,,,,,,,
,,,,,,,,2023-08-16_08h40.22.606,HF_wild_card,2022.2.4,Win32,59.94844434,5ae8a935eb922200018fd0f3,64d2fd46c836a06233681665,64dc7d567a6b0686ea53d296,,,,,,,decisionTrl,resources/DY.BMP,resources/DP.BMP,Door3,0.286111111,-0.124074029,1,0,0,1.1802,optionRight,70,6705,3,34,0,34,0,1,,,,,,,,,,,,,,,,,,,,,,,,,,,,,,,,,,,,,,,
,,,,,,,,2023-08-16_08h40.22.606,HF_wild_card,2022.2.4,Win32,59.94844434,5ae8a935eb922200018fd0f3,64d2fd46c836a06233681665,64dc7d567a6b0686ea53d296,,,,,,,decisionTrl,resources/DP.BMP,resources/DY.BMP,Door3,-0.302777778,-0.107407362,1,0,0,1.13,optionLeft,70,6775,3,35,0,35,0,1,,,,,,,,,,,,,,,,,,,,,,,,,,,,,,,,,,,,,,,
,,,,,,,,2023-08-16_08h40.22.606,HF_wild_card,2022.2.4,Win32,59.94844434,5ae8a935eb922200018fd0f3,64d2fd46c836a06233681665,64dc7d567a6b0686ea53d296,,,,,,,sngl,resources/Empty.png,resources/DR.BMP,Door2,0.56018514,-0.115740696,1,0,0,1.1473,optionRight,20,6795,3,36,0,36,0,1,,,,,,,,,,,,,,,,,,,,,,,,,,,,,,,,,,,,,,,
,,,,,,,,2023-08-16_08h40.22.606,HF_wild_card,2022.2.4,Win32,59.94844434,5ae8a935eb922200018fd0f3,64d2fd46c836a06233681665,64dc7d567a6b0686ea53d296,,,,,,,decisionTrl,resources/DR.BMP,resources/DB.BMP,Door1,0.31018514,-0.054629618,1,0,0,1.3139,optionRight,30,6825,3,37,0,37,0,1,,,,,,,,,,,,,,,,,,,,,,,,,,,,,,,,,,,,,,,
,,,,,,,,2023-08-16_08h40.22.606,HF_wild_card,2022.2.4,Win32,59.94844434,5ae8a935eb922200018fd0f3,64d2fd46c836a06233681665,64dc7d567a6b0686ea53d296,,,,,,,sngl,resources/Empty.png,resources/DBN.BMP,WildCard_NonEx,0.33518514,0.036111077,1,0,0,0.8464,optionRight,45,6870,3,38,0,38,0,1,,,,,,,,,,,,,,,,,,,,,,,,,,,,,,,,,,,,,,,
,,,,,,,,2023-08-16_08h40.22.606,HF_wild_card,2022.2.4,Win32,59.94844434,5ae8a935eb922200018fd0f3,64d2fd46c836a06233681665,64dc7d567a6b0686ea53d296,,,,,,,sngl,resources/Empty.png,resources/DY.BMP,Door4,0.375,0.009259271,1,0,0,0.8473,optionRight,60,6930,3,39,0,39,0,1,,,,,,,,,,,,,,,,,,,,,,,,,,,,,,,,,,,,,,,
,,,,,,,,2023-08-16_08h40.22.606,HF_wild_card,2022.2.4,Win32,59.94844434,5ae8a935eb922200018fd0f3,64d2fd46c836a06233681665,64dc7d567a6b0686ea53d296,,,,,,,ctch,resources/DP.BMP,resources/DR.BMP,Door3,-0.424074063,-0.010185174,1,0,0,1.0915,optionLeft,70,7000,3,40,0,40,0,1,,,,,,,,,,,,,,,,,,,,,,,,,,,,,,,,,,,,,,,
,,,,,,,,2023-08-16_08h40.22.606,HF_wild_card,2022.2.4,Win32,59.94844434,5ae8a935eb922200018fd0f3,64d2fd46c836a06233681665,64dc7d567a6b0686ea53d296,,,,,,,ctch,resources/DR.BMP,resources/DP.BMP,Door3,0.358333333,-0.004629618,1,0,0,0.8792,optionRight,70,7070,3,41,0,41,0,1,,,,,,,,,,,,,,,,,,,,,,,,,,,,,,,,,,,,,,,
,,,,,,,,2023-08-16_08h40.22.606,HF_wild_card,2022.2.4,Win32,59.94844434,5ae8a935eb922200018fd0f3,64d2fd46c836a06233681665,64dc7d567a6b0686ea53d296,,,,,,,decisionTrl,resources/DY.BMP,resources/DP.BMP,Door3,0.300925836,-0.063888889,1,0,0,1.1306,optionRight,70,7140,3,42,0,42,0,1,,,,,,,,,,,,,,,,,,,,,,,,,,,,,,,,,,,,,,,
,,,,,,,,2023-08-16_08h40.22.606,HF_wild_card,2022.2.4,Win32,59.94844434,5ae8a935eb922200018fd0f3,64d2fd46c836a06233681665,64dc7d567a6b0686ea53d296,,,,,,,sngl,resources/DBN.BMP,resources/Empty.png,WildCard_NonEx,-0.424999966,0.062962952,1,0,0,0.9139,optionLeft,55,7195,3,43,0,43,0,1,,,,,,,,,,,,,,,,,,,,,,,,,,,,,,,,,,,,,,,
,,,,,,,,2023-08-16_08h40.22.606,HF_wild_card,2022.2.4,Win32,59.94844434,5ae8a935eb922200018fd0f3,64d2fd46c836a06233681665,64dc7d567a6b0686ea53d296,,,,,,,,,,,,,,,,,,,,,,,,,,2,0,2,0,1,,,,,,,,,,,,,,,,,,,,,,,,,,,,,,,,,,
,,,,,,,,2023-08-16_08h40.22.606,HF_wild_card,2022.2.4,Win32,59.94844434,5ae8a935eb922200018fd0f3,64d2fd46c836a06233681665,64dc7d567a6b0686ea53d296,,,,,,,decisionTrl,resources/DB.BMP,resources/DG.BMP,WildCard_Ex,0.36018514,-0.107407362,1,0,0,2.7157,optionRight,95,7290,4,0,0,0,0,1,,,,,,,,,,,,,,,,,,,,,,,,,,,,,,,,,,,,,,,
,,,,,,,,2023-08-16_08h40.22.606,HF_wild_card,2022.2.4,Win32,59.94844434,5ae8a935eb922200018fd0f3,64d2fd46c836a06233681665,64dc7d567a6b0686ea53d296,,,,,,,decisionTrl,resources/DY.BMP,resources/DG.BMP,WildCard_Ex,0.434259169,-0.059259237,1,0,0,0.8367,optionRight,95,7385,4,1,0,1,0,1,,,,,,,,,,,,,,,,,,,,,,,,,,,,,,,,,,,,,,,
,,,,,,,,2023-08-16_08h40.22.606,HF_wild_card,2022.2.4,Win32,59.94844434,5ae8a935eb922200018fd0f3,64d2fd46c836a06233681665,64dc7d567a6b0686ea53d296,,,,,,,decisionTrl,resources/DP.BMP,resources/DY.BMP,Door3,-0.491666633,0.009259271,1,0,0,1.8351,optionLeft,70,7455,4,2,0,2,0,1,,,,,,,,,,,,,,,,,,,,,,,,,,,,,,,,,,,,,,,
,,,,,,,,2023-08-16_08h40.22.606,HF_wild_card,2022.2.4,Win32,59.94844434,5ae8a935eb922200018fd0f3,64d2fd46c836a06233681665,64dc7d567a6b0686ea53d296,,,,,,,decisionTrl,resources/DP.BMP,resources/DY.BMP,Door3,-0.273148193,-0.061111111,1,0,0,1.4135,optionLeft,70,7525,4,3,0,3,0,1,,,,,,,,,,,,,,,,,,,,,,,,,,,,,,,,,,,,,,,
,,,,,,,,2023-08-16_08h40.22.606,HF_wild_card,2022.2.4,Win32,59.94844434,5ae8a935eb922200018fd0f3,64d2fd46c836a06233681665,64dc7d567a6b0686ea53d296,,,,,,,sngl,resources/DG.BMP,resources/Empty.png,WildCard_Ex,-0.333333333,0.045370382,1,0,0,1.0467,optionLeft,95,7620,4,4,0,4,0,1,,,,,,,,,,,,,,,,,,,,,,,,,,,,,,,,,,,,,,,
,,,,,,,,2023-08-16_08h40.22.606,HF_wild_card,2022.2.4,Win32,59.94844434,5ae8a935eb922200018fd0f3,64d2fd46c836a06233681665,64dc7d567a6b0686ea53d296,,,,,,,decisionTrl,resources/DG.BMP,resources/DB.BMP,WildCard_Ex,-0.310185208,-0.039814792,1,0,0,0.9114,optionLeft,5,7625,4,5,0,5,0,1,,,,,,,,,,,,,,,,,,,,,,,,,,,,,,,,,,,,,,,
,,,,,,,,2023-08-16_08h40.22.606,HF_wild_card,2022.2.4,Win32,59.94844434,5ae8a935eb922200018fd0f3,64d2fd46c836a06233681665,64dc7d567a6b0686ea53d296,,,,,,,decisionTrl,resources/DP.BMP,resources/DG.BMP,WildCard_Ex,0.317592502,-0.023148126,1,0,0,0.8811,optionRight,5,7630,4,6,0,6,0,1,,,,,,,,,,,,,,,,,,,,,,,,,,,,,,,,,,,,,,,
,,,,,,,,2023-08-16_08h40.22.606,HF_wild_card,2022.2.4,Win32,59.94844434,5ae8a935eb922200018fd0f3,64d2fd46c836a06233681665,64dc7d567a6b0686ea53d296,,,,,,,decisionTrl,resources/DY.BMP,resources/DP.BMP,Door3,0.407407362,-0.095370348,1,0,0,0.9535,optionRight,70,7700,4,7,0,7,0,1,,,,,,,,,,,,,,,,,,,,,,,,,,,,,,,,,,,,,,,
,,,,,,,,2023-08-16_08h40.22.606,HF_wild_card,2022.2.4,Win32,59.94844434,5ae8a935eb922200018fd0f3,64d2fd46c836a06233681665,64dc7d567a6b0686ea53d296,,,,,,,decisionTrl,resources/DG.BMP,resources/DY.BMP,WildCard_Ex,-0.387962986,-0.028703681,1,0,0,1.1398,optionLeft,95,7795,4,8,0,8,0,1,,,,,,,,,,,,,,,,,,,,,,,,,,,,,,,,,,,,,,,
,,,,,,,,2023-08-16_08h40.22.606,HF_wild_card,2022.2.4,Win32,59.94844434,5ae8a935eb922200018fd0f3,64d2fd46c836a06233681665,64dc7d567a6b0686ea53d296,,,,,,,sngl,resources/Empty.png,resources/DG.BMP,WildCard_Ex,0.326851807,-0.039814792,1,0,0,0.8328,optionRight,5,7800,4,9,0,9,0,1,,,,,,,,,,,,,,,,,,,,,,,,,,,,,,,,,,,,,,,
,,,,,,,,2023-08-16_08h40.22.606,HF_wild_card,2022.2.4,Win32,59.94844434,5ae8a935eb922200018fd0f3,64d2fd46c836a06233681665,64dc7d567a6b0686ea53d296,,,,,,,sngl,resources/Empty.png,resources/DG.BMP,WildCard_Ex,0.380555556,-0.029629618,1,0,0,0.8973,optionRight,95,7895,4,10,0,10,0,1,,,,,,,,,,,,,,,,,,,,,,,,,,,,,,,,,,,,,,,
,,,,,,,,2023-08-16_08h40.22.606,HF_wild_card,2022.2.4,Win32,59.94844434,5ae8a935eb922200018fd0f3,64d2fd46c836a06233681665,64dc7d567a6b0686ea53d296,,,,,,,decisionTrl,resources/DB.BMP,resources/DR.BMP,Door1,-0.318518541,0.012962986,1,0,0,1.689,optionLeft,30,7925,4,11,0,11,0,1,,,,,,,,,,,,,,,,,,,,,,,,,,,,,,,,,,,,,,,
,,,,,,,,2023-08-16_08h40.22.606,HF_wild_card,2022.2.4,Win32,59.94844434,5ae8a935eb922200018fd0f3,64d2fd46c836a06233681665,64dc7d567a6b0686ea53d296,,,,,,,sngl,resources/DB.BMP,resources/Empty.png,Door1,-0.359259271,0.045370382,1,0,0,1.1162,optionLeft,30,7955,4,12,0,12,0,1,,,,,,,,,,,,,,,,,,,,,,,,,,,,,,,,,,,,,,,
,,,,,,,,2023-08-16_08h40.22.606,HF_wild_card,2022.2.4,Win32,59.94844434,5ae8a935eb922200018fd0f3,64d2fd46c836a06233681665,64dc7d567a6b0686ea53d296,,,,,,,decisionTrl,resources/DP.BMP,resources/DY.BMP,Door3,-0.375925937,-0.029629618,1,0,0,2.1246,optionLeft,70,8025,4,13,0,13,0,1,,,,,,,,,,,,,,,,,,,,,,,,,,,,,,,,,,,,,,,
,,,,,,,,2023-08-16_08h40.22.606,HF_wild_card,2022.2.4,Win32,59.94844434,5ae8a935eb922200018fd0f3,64d2fd46c836a06233681665,64dc7d567a6b0686ea53d296,,,,,,,ctch,resources/DB.BMP,resources/DY.BMP,Door4,0.398148058,-0.05,1,0,0,1.2626,optionRight,80,8105,4,14,0,14,0,1,,,,,,,,,,,,,,,,,,,,,,,,,,,,,,,,,,,,,,,
,,,,,,,,2023-08-16_08h40.22.606,HF_wild_card,2022.2.4,Win32,59.94844434,5ae8a935eb922200018fd0f3,64d2fd46c836a06233681665,64dc7d567a6b0686ea53d296,,,,,,,sngl,resources/DY.BMP,resources/Empty.png,Door4,-0.545370382,-0.026851841,1,0,0,0.9372,optionLeft,60,8165,4,15,0,15,0,1,,,,,,,,,,,,,,,,,,,,,,,,,,,,,,,,,,,,,,,
,,,,,,,,2023-08-16_08h40.22.606,HF_wild_card,2022.2.4,Win32,59.94844434,5ae8a935eb922200018fd0f3,64d2fd46c836a06233681665,64dc7d567a6b0686ea53d296,,,,,,,sngl,resources/DR.BMP,resources/Empty.png,Door2,-0.381481493,0.011111111,1,0,0,0.9309,optionLeft,20,8185,4,16,0,16,0,1,,,,,,,,,,,,,,,,,,,,,,,,,,,,,,,,,,,,,,,
,,,,,,,,2023-08-16_08h40.22.606,HF_wild_card,2022.2.4,Win32,59.94844434,5ae8a935eb922200018fd0f3,64d2fd46c836a06233681665,64dc7d567a6b0686ea53d296,,,,,,,sngl,resources/Empty.png,resources/DY.BMP,Door4,0.373148058,0.001851874,1,0,0,0.8906,optionRight,80,8265,4,17,0,17,0,1,,,,,,,,,,,,,,,,,,,,,,,,,,,,,,,,,,,,,,,
,,,,,,,,2023-08-16_08h40.22.606,HF_wild_card,2022.2.4,Win32,59.94844434,5ae8a935eb922200018fd0f3,64d2fd46c836a06233681665,64dc7d567a6b0686ea53d296,,,,,,,ctch,resources/DR.BMP,resources/DP.BMP,Door3,0.431481391,-0.083333333,1,0,0,0.8802,optionRight,70,8335,4,18,0,18,0,1,,,,,,,,,,,,,,,,,,,,,,,,,,,,,,,,,,,,,,,
,,,,,,,,2023-08-16_08h40.22.606,HF_wild_card,2022.2.4,Win32,59.94844434,5ae8a935eb922200018fd0f3,64d2fd46c836a06233681665,64dc7d567a6b0686ea53d296,,,,,,,sngl,resources/Empty.png,resources/DR.BMP,Door2,0.425,-0.074074029,1,0,0,0.8316,optionRight,40,8375,4,19,0,19,0,1,,,,,,,,,,,,,,,,,,,,,,,,,,,,,,,,,,,,,,,
,,,,,,,,2023-08-16_08h40.22.606,HF_wild_card,2022.2.4,Win32,59.94844434,5ae8a935eb922200018fd0f3,64d2fd46c836a06233681665,64dc7d567a6b0686ea53d296,,,,,,,sngl,resources/DP.BMP,resources/Empty.png,Door3,-0.275,-0.024074063,1,0,0,0.9138,optionLeft,70,8445,4,20,0,20,0,1,,,,,,,,,,,,,,,,,,,,,,,,,,,,,,,,,,,,,,,
,,,,,,,,2023-08-16_08h40.22.606,HF_wild_card,2022.2.4,Win32,59.94844434,5ae8a935eb922200018fd0f3,64d2fd46c836a06233681665,64dc7d567a6b0686ea53d296,,,,,,,decisionTrl,resources/DY.BMP,resources/DP.BMP,Door3,0.397222222,-0.073148126,1,0,0,0.8192,optionRight,70,8515,4,21,0,21,0,1,,,,,,,,,,,,,,,,,,,,,,,,,,,,,,,,,,,,,,,
,,,,,,,,2023-08-16_08h40.22.606,HF_wild_card,2022.2.4,Win32,59.94844434,5ae8a935eb922200018fd0f3,64d2fd46c836a06233681665,64dc7d567a6b0686ea53d296,,,,,,,sngl,resources/DG.BMP,resources/Empty.png,WildCard_Ex,-0.300925971,-0.037037014,1,0,0,0.8804,optionLeft,5,8520,4,22,0,22,0,1,,,,,,,,,,,,,,,,,,,,,,,,,,,,,,,,,,,,,,,
,,,,,,,,2023-08-16_08h40.22.606,HF_wild_card,2022.2.4,Win32,59.94844434,5ae8a935eb922200018fd0f3,64d2fd46c836a06233681665,64dc7d567a6b0686ea53d296,,,,,,,decisionTrl,resources/DY.BMP,resources/DP.BMP,Door3,0.433333333,-0.069444444,1,0,0,0.8134,optionRight,70,8590,4,23,0,23,0,1,,,,,,,,,,,,,,,,,,,,,,,,,,,,,,,,,,,,,,,
,,,,,,,,2023-08-16_08h40.22.606,HF_wild_card,2022.2.4,Win32,59.94844434,5ae8a935eb922200018fd0f3,64d2fd46c836a06233681665,64dc7d567a6b0686ea53d296,,,,,,,decisionTrl,resources/DR.BMP,resources/DB.BMP,Door1,0.366666667,-0.058333333,1,0,0,1.0457,optionRight,30,8620,4,24,0,24,0,1,,,,,,,,,,,,,,,,,,,,,,,,,,,,,,,,,,,,,,,
,,,,,,,,2023-08-16_08h40.22.606,HF_wild_card,2022.2.4,Win32,59.94844434,5ae8a935eb922200018fd0f3,64d2fd46c836a06233681665,64dc7d567a6b0686ea53d296,,,,,,,decisionTrl,resources/DY.BMP,resources/DP.BMP,Door3,0.290740696,-0.038888889,1,0,0,0.9281,optionRight,70,8690,4,25,0,25,0,1,,,,,,,,,,,,,,,,,,,,,,,,,,,,,,,,,,,,,,,
,,,,,,,,2023-08-16_08h40.22.606,HF_wild_card,2022.2.4,Win32,59.94844434,5ae8a935eb922200018fd0f3,64d2fd46c836a06233681665,64dc7d567a6b0686ea53d296,,,,,,,decisionTrl,resources/DB.BMP,resources/DR.BMP,Door1,-0.419444411,0.009259271,1,0,0,1.3472,optionLeft,30,8720,4,26,0,26,0,1,,,,,,,,,,,,,,,,,,,,,,,,,,,,,,,,,,,,,,,
,,,,,,,,2023-08-16_08h40.22.606,HF_wild_card,2022.2.4,Win32,59.94844434,5ae8a935eb922200018fd0f3,64d2fd46c836a06233681665,64dc7d567a6b0686ea53d296,,,,,,,sngl,resources/Empty.png,resources/DP.BMP,Door3,0.475,-0.072222222,1,0,0,0.7542,optionRight,70,8790,4,27,0,27,0,1,,,,,,,,,,,,,,,,,,,,,,,,,,,,,,,,,,,,,,,
,,,,,,,,2023-08-16_08h40.22.606,HF_wild_card,2022.2.4,Win32,59.94844434,5ae8a935eb922200018fd0f3,64d2fd46c836a06233681665,64dc7d567a6b0686ea53d296,,,,,,,ctch,resources/DY.BMP,resources/DB.BMP,Door4,-0.308333333,-0.040740729,1,0,0,1.1197,optionLeft,80,8870,4,28,0,28,0,1,,,,,,,,,,,,,,,,,,,,,,,,,,,,,,,,,,,,,,,
,,,,,,,,2023-08-16_08h40.22.606,HF_wild_card,2022.2.4,Win32,59.94844434,5ae8a935eb922200018fd0f3,64d2fd46c836a06233681665,64dc7d567a6b0686ea53d296,,,,,,,decisionTrl,resources/DR.BMP,resources/DB.BMP,Door1,0.373148058,-0.055555556,1,0,0,1.1482,optionRight,30,8900,4,29,0,29,0,1,,,,,,,,,,,,,,,,,,,,,,,,,,,,,,,,,,,,,,,
,,,,,,,,2023-08-16_08h40.22.606,HF_wild_card,2022.2.4,Win32,59.94844434,5ae8a935eb922200018fd0f3,64d2fd46c836a06233681665,64dc7d567a6b0686ea53d296,,,,,,,decisionTrl,resources/DR.BMP,resources/DB.BMP,Door1,0.300925836,-0.028703681,1,0,0,1.264,optionRight,30,8930,4,30,0,30,0,1,,,,,,,,,,,,,,,,,,,,,,,,,,,,,,,,,,,,,,,
,,,,,,,,2023-08-16_08h40.22.606,HF_wild_card,2022.2.4,Win32,59.94844434,5ae8a935eb922200018fd0f3,64d2fd46c836a06233681665,64dc7d567a6b0686ea53d296,,,,,,,ctch,resources/DP.BMP,resources/DR.BMP,Door3,-0.416666633,0.035185174,1,0,0,0.9472,optionLeft,70,9000,4,31,0,31,0,1,,,,,,,,,,,,,,,,,,,,,,,,,,,,,,,,,,,,,,,
,,,,,,,,2023-08-16_08h40.22.606,HF_wild_card,2022.2.4,Win32,59.94844434,5ae8a935eb922200018fd0f3,64d2fd46c836a06233681665,64dc7d567a6b0686ea53d296,,,,,,,sngl,resources/Empty.png,resources/DB.BMP,Door1,0.331481391,-0.08518514,1,0,0,0.8038,optionRight,30,9030,4,32,0,32,0,1,,,,,,,,,,,,,,,,,,,,,,,,,,,,,,,,,,,,,,,
,,,,,,,,2023-08-16_08h40.22.606,HF_wild_card,2022.2.4,Win32,59.94844434,5ae8a935eb922200018fd0f3,64d2fd46c836a06233681665,64dc7d567a6b0686ea53d296,,,,,,,decisionTrl,resources/DB.BMP,resources/DR.BMP,Door1,-0.321296319,-0.025925903,1,0,0,1.2883,optionLeft,30,9060,4,33,0,33,0,1,,,,,,,,,,,,,,,,,,,,,,,,,,,,,,,,,,,,,,,
,,,,,,,,2023-08-16_08h40.22.606,HF_wild_card,2022.2.4,Win32,59.94844434,5ae8a935eb922200018fd0f3,64d2fd46c836a06233681665,64dc7d567a6b0686ea53d296,,,,,,,decisionTrl,resources/DP.BMP,resources/DY.BMP,Door3,-0.3,0.001851874,1,0,0,0.9992,optionLeft,70,9130,4,34,0,34,0,1,,,,,,,,,,,,,,,,,,,,,,,,,,,,,,,,,,,,,,,
,,,,,,,,2023-08-16_08h40.22.606,HF_wild_card,2022.2.4,Win32,59.94844434,5ae8a935eb922200018fd0f3,64d2fd46c836a06233681665,64dc7d567a6b0686ea53d296,,,,,,,decisionTrl,resources/DR.BMP,resources/DB.BMP,Door1,0.484259169,-0.050925903,1,0,0,1.1146,optionRight,30,9160,4,35,0,35,0,1,,,,,,,,,,,,,,,,,,,,,,,,,,,,,,,,,,,,,,,
,,,,,,,,2023-08-16_08h40.22.606,HF_wild_card,2022.2.4,Win32,59.94844434,5ae8a935eb922200018fd0f3,64d2fd46c836a06233681665,64dc7d567a6b0686ea53d296,,,,,,,ctch,resources/DY.BMP,resources/DB.BMP,Door4,-0.421296285,0.046296285,1,0,0,1.3964,optionLeft,60,9220,4,36,0,36,0,1,,,,,,,,,,,,,,,,,,,,,,,,,,,,,,,,,,,,,,,
,,,,,,,,2023-08-16_08h40.22.606,HF_wild_card,2022.2.4,Win32,59.94844434,5ae8a935eb922200018fd0f3,64d2fd46c836a06233681665,64dc7d567a6b0686ea53d296,,,,,,,ctch,resources/DB.BMP,resources/DY.BMP,Door4,0.297222222,-0.05,1,0,0,1.2637,optionRight,80,9300,4,37,0,37,0,1,,,,,,,,,,,,,,,,,,,,,,,,,,,,,,,,,,,,,,,
,,,,,,,,2023-08-16_08h40.22.606,HF_wild_card,2022.2.4,Win32,59.94844434,5ae8a935eb922200018fd0f3,64d2fd46c836a06233681665,64dc7d567a6b0686ea53d296,,,,,,,decisionTrl,resources/DG.BMP,resources/DR.BMP,WildCard_Ex,-0.410185208,0.054629618,1,0,0,1.0958,optionLeft,5,9305,4,38,0,38,0,1,,,,,,,,,,,,,,,,,,,,,,,,,,,,,,,,,,,,,,,
,,,,,,,,2023-08-16_08h40.22.606,HF_wild_card,2022.2.4,Win32,59.94844434,5ae8a935eb922200018fd0f3,64d2fd46c836a06233681665,64dc7d567a6b0686ea53d296,,,,,,,decisionTrl,resources/DR.BMP,resources/DG.BMP,WildCard_Ex,0.356481391,-0.055555556,1,0,0,0.9548,optionRight,5,9310,4,39,0,39,0,1,,,,,,,,,,,,,,,,,,,,,,,,,,,,,,,,,,,,,,,
,,,,,,,,2023-08-16_08h40.22.606,HF_wild_card,2022.2.4,Win32,59.94844434,5ae8a935eb922200018fd0f3,64d2fd46c836a06233681665,64dc7d567a6b0686ea53d296,,,,,,,decisionTrl,resources/DG.BMP,resources/DP.BMP,Door3,0.337962918,-0.058333333,1,0,0,1.3304,optionRight,70,9380,4,40,0,40,0,1,,,,,,,,,,,,,,,,,,,,,,,,,,,,,,,,,,,,,,,
,,,,,,,,2023-08-16_08h40.22.606,HF_wild_card,2022.2.4,Win32,59.94844434,5ae8a935eb922200018fd0f3,64d2fd46c836a06233681665,64dc7d567a6b0686ea53d296,,,,,,,ctch,resources/DP.BMP,resources/DR.BMP,Door3,-0.372222222,-0.01759257,1,0,0,0.8802,optionLeft,70,9450,4,41,0,41,0,1,,,,,,,,,,,,,,,,,,,,,,,,,,,,,,,,,,,,,,,
,,,,,,,,2023-08-16_08h40.22.606,HF_wild_card,2022.2.4,Win32,59.94844434,5ae8a935eb922200018fd0f3,64d2fd46c836a06233681665,64dc7d567a6b0686ea53d296,,,,,,,decisionTrl,resources/DB.BMP,resources/DR.BMP,Door1,-0.006481459,0,1,0,0,0.5143,optionLeft,30,9480,4,42,0,42,0,1,,,,,,,,,,,,,,,,,,,,,,,,,,,,,,,,,,,,,,,
,,,,,,,,2023-08-16_08h40.22.606,HF_wild_card,2022.2.4,Win32,59.94844434,5ae8a935eb922200018fd0f3,64d2fd46c836a06233681665,64dc7d567a6b0686ea53d296,,,,,,,ctch,resources/DR.BMP,resources/DP.BMP,Door3,0.284259169,0.006481493,1,0,0,1.0699,optionRight,70,9550,4,43,0,43,0,1,,,,,,,,,,,,,,,,,,,,,,,,,,,,,,,,,,,,,,,
,,,,,,,,2023-08-16_08h40.22.606,HF_wild_card,2022.2.4,Win32,59.94844434,5ae8a935eb922200018fd0f3,64d2fd46c836a06233681665,64dc7d567a6b0686ea53d296,,,,,,,,,,,,,,,,,,,,,,,,,,3,0,3,0,1,,,,,,,,,,,,,,,,,,,,,,,,,,,,,,,,,,
,,,,,,,,2023-08-16_08h40.22.606,HF_wild_card,2022.2.4,Win32,59.94844434,5ae8a935eb922200018fd0f3,64d2fd46c836a06233681665,64dc7d567a6b0686ea53d296,,,,,,,decisionTrl,resources/DR.BMP,resources/DG.BMP,WildCard_Ex,0.306481391,-0.087037014,1,0,0,1.2468,optionRight,95,9645,5,0,0,0,0,1,,,,,,,,,,,,,,,,,,,,,,,,,,,,,,,,,,,,,,,
,,,,,,,,2023-08-16_08h40.22.606,HF_wild_card,2022.2.4,Win32,59.94844434,5ae8a935eb922200018fd0f3,64d2fd46c836a06233681665,64dc7d567a6b0686ea53d296,,,,,,,sngl,resources/Empty.png,resources/DG.BMP,WildCard_Ex,0.292592502,-0.049074063,1,0,0,0.8807,optionRight,95,9740,5,1,0,1,0,1,,,,,,,,,,,,,,,,,,,,,,,,,,,,,,,,,,,,,,,
,,,,,,,,2023-08-16_08h40.22.606,HF_wild_card,2022.2.4,Win32,59.94844434,5ae8a935eb922200018fd0f3,64d2fd46c836a06233681665,64dc7d567a6b0686ea53d296,,,,,,,decisionTrl,resources/DB.BMP,resources/DR.BMP,Door1,-0.356481493,0.027777744,1,0,0,1.2495,optionLeft,30,9770,5,2,0,2,0,1,,,,,,,,,,,,,,,,,,,,,,,,,,,,,,,,,,,,,,,
,,,,,,,,2023-08-16_08h40.22.606,HF_wild_card,2022.2.4,Win32,59.94844434,5ae8a935eb922200018fd0f3,64d2fd46c836a06233681665,64dc7d567a6b0686ea53d296,,,,,,,sngl,resources/DG.BMP,resources/Empty.png,WildCard_Ex,-0.339814826,0.012037048,1,0,0,0.85,optionLeft,95,9865,5,3,0,3,0,1,,,,,,,,,,,,,,,,,,,,,,,,,,,,,,,,,,,,,,,
,,,,,,,,2023-08-16_08h40.22.606,HF_wild_card,2022.2.4,Win32,59.94844434,5ae8a935eb922200018fd0f3,64d2fd46c836a06233681665,64dc7d567a6b0686ea53d296,,,,,,,decisionTrl,resources/DY.BMP,resources/DP.BMP,Door3,0.451851807,-0.095370348,1,0,0,1.6805,optionRight,70,9935,5,4,0,4,0,1,,,,,,,,,,,,,,,,,,,,,,,,,,,,,,,,,,,,,,,
,,,,,,,,2023-08-16_08h40.22.606,HF_wild_card,2022.2.4,Win32,59.94844434,5ae8a935eb922200018fd0f3,64d2fd46c836a06233681665,64dc7d567a6b0686ea53d296,,,,,,,sngl,resources/Empty.png,resources/DY.BMP,Door4,0.349074029,-0.1,1,0,0,0.8637,optionRight,60,9995,5,5,0,5,0,1,,,,,,,,,,,,,,,,,,,,,,,,,,,,,,,,,,,,,,,
,,,,,,,,2023-08-16_08h40.22.606,HF_wild_card,2022.2.4,Win32,59.94844434,5ae8a935eb922200018fd0f3,64d2fd46c836a06233681665,64dc7d567a6b0686ea53d296,,,,,,,sngl,resources/DY.BMP,resources/Empty.png,Door4,-0.358333333,-0.000925903,1,0,0,0.8634,optionLeft,80,10075,5,6,0,6,0,1,,,,,,,,,,,,,,,,,,,,,,,,,,,,,,,,,,,,,,,
,,,,,,,,2023-08-16_08h40.22.606,HF_wild_card,2022.2.4,Win32,59.94844434,5ae8a935eb922200018fd0f3,64d2fd46c836a06233681665,64dc7d567a6b0686ea53d296,,,,,,,decisionTrl,resources/DG.BMP,resources/DB.BMP,Door1,0.009259237,0.011111111,1,0,0,0.4227,optionRight,30,10105,5,7,0,7,0,1,,,,,,,,,,,,,,,,,,,,,,,,,,,,,,,,,,,,,,,
,,,,,,,,2023-08-16_08h40.22.606,HF_wild_card,2022.2.4,Win32,59.94844434,5ae8a935eb922200018fd0f3,64d2fd46c836a06233681665,64dc7d567a6b0686ea53d296,,,,,,,ctch,resources/DB.BMP,resources/DY.BMP,Door4,0.342592502,-0.035185174,1,0,0,1.4206,optionRight,60,10165,5,8,0,8,0,1,,,,,,,,,,,,,,,,,,,,,,,,,,,,,,,,,,,,,,,
,,,,,,,,2023-08-16_08h40.22.606,HF_wild_card,2022.2.4,Win32,59.94844434,5ae8a935eb922200018fd0f3,64d2fd46c836a06233681665,64dc7d567a6b0686ea53d296,,,,,,,sngl,resources/DG.BMP,resources/Empty.png,WildCard_Ex,-0.278703749,-0.012962952,1,0,0,0.8477,optionLeft,5,10170,5,9,0,9,0,1,,,,,,,,,,,,,,,,,,,,,,,,,,,,,,,,,,,,,,,
,,,,,,,,2023-08-16_08h40.22.606,HF_wild_card,2022.2.4,Win32,59.94844434,5ae8a935eb922200018fd0f3,64d2fd46c836a06233681665,64dc7d567a6b0686ea53d296,,,,,,,ctch,resources/DR.BMP,resources/DP.BMP,Door3,0.325,-0.066666667,1,0,0,0.9567,optionRight,70,10240,5,10,0,10,0,1,,,,,,,,,,,,,,,,,,,,,,,,,,,,,,,,,,,,,,,
,,,,,,,,2023-08-16_08h40.22.606,HF_wild_card,2022.2.4,Win32,59.94844434,5ae8a935eb922200018fd0f3,64d2fd46c836a06233681665,64dc7d567a6b0686ea53d296,,,,,,,decisionTrl,resources/DR.BMP,resources/DB.BMP,Door1,0.45,0.002777778,1,0,0,2.0339,optionRight,30,10270,5,11,0,11,0,1,,,,,,,,,,,,,,,,,,,,,,,,,,,,,,,,,,,,,,,
,,,,,,,,2023-08-16_08h40.22.606,HF_wild_card,2022.2.4,Win32,59.94844434,5ae8a935eb922200018fd0f3,64d2fd46c836a06233681665,64dc7d567a6b0686ea53d296,,,,,,,sngl,resources/Empty.png,resources/DG.BMP,WildCard_Ex,0.29537028,-0.045370348,1,0,0,0.8765,optionRight,5,10275,5,12,0,12,0,1,,,,,,,,,,,,,,,,,,,,,,,,,,,,,,,,,,,,,,,
,,,,,,,,2023-08-16_08h40.22.606,HF_wild_card,2022.2.4,Win32,59.94844434,5ae8a935eb922200018fd0f3,64d2fd46c836a06233681665,64dc7d567a6b0686ea53d296,,,,,,,ctch,resources/DY.BMP,resources/DB.BMP,Door4,-0.351851874,0.001851874,1,0,0,1.6568,optionLeft,60,10335,5,13,0,13,0,1,,,,,,,,,,,,,,,,,,,,,,,,,,,,,,,,,,,,,,,
,,,,,,,,2023-08-16_08h40.22.606,HF_wild_card,2022.2.4,Win32,59.94844434,5ae8a935eb922200018fd0f3,64d2fd46c836a06233681665,64dc7d567a6b0686ea53d296,,,,,,,decisionTrl,resources/DP.BMP,resources/DY.BMP,Door3,-0.374074097,-0.037962952,1,0,0,0.9831,optionLeft,70,10405,5,14,0,14,0,1,,,,,,,,,,,,,,,,,,,,,,,,,,,,,,,,,,,,,,,
,,,,,,,,2023-08-16_08h40.22.606,HF_wild_card,2022.2.4,Win32,59.94844434,5ae8a935eb922200018fd0f3,64d2fd46c836a06233681665,64dc7d567a6b0686ea53d296,,,,,,,decisionTrl,resources/DP.BMP,resources/DY.BMP,Door3,-0.337037048,-0.050925903,1,0,0,0.9276,optionLeft,70,10475,5,15,0,15,0,1,,,,,,,,,,,,,,,,,,,,,,,,,,,,,,,,,,,,,,,
,,,,,,,,2023-08-16_08h40.22.606,HF_wild_card,2022.2.4,Win32,59.94844434,5ae8a935eb922200018fd0f3,64d2fd46c836a06233681665,64dc7d567a6b0686ea53d296,,,,,,,decisionTrl,resources/DY.BMP,resources/DP.BMP,Door3,0.361111111,-0.061111111,1,0,0,0.7947,optionRight,70,10545,5,16,0,16,0,1,,,,,,,,,,,,,,,,,,,,,,,,,,,,,,,,,,,,,,,
,,,,,,,,2023-08-16_08h40.22.606,HF_wild_card,2022.2.4,Win32,59.94844434,5ae8a935eb922200018fd0f3,64d2fd46c836a06233681665,64dc7d567a6b0686ea53d296,,,,,,,decisionTrl,resources/DR.BMP,resources/DB.BMP,Door1,0.280555556,-0.000925903,1,0,0,1.3556,optionRight,30,10575,5,17,0,17,0,1,,,,,,,,,,,,,,,,,,,,,,,,,,,,,,,,,,,,,,,
,,,,,,,,2023-08-16_08h40.22.606,HF_wild_card,2022.2.4,Win32,59.94844434,5ae8a935eb922200018fd0f3,64d2fd46c836a06233681665,64dc7d567a6b0686ea53d296,,,,,,,decisionTrl,resources/DB.BMP,resources/DR.BMP,Door1,-0.368518541,0.015740763,1,0,0,1.3376,optionLeft,30,10605,5,18,0,18,0,1,,,,,,,,,,,,,,,,,,,,,,,,,,,,,,,,,,,,,,,
,,,,,,,,2023-08-16_08h40.22.606,HF_wild_card,2022.2.4,Win32,59.94844434,5ae8a935eb922200018fd0f3,64d2fd46c836a06233681665,64dc7d567a6b0686ea53d296,,,,,,,decisionTrl,resources/DP.BMP,resources/DG.BMP,Door3,-0.360185208,-0.034259237,1,0,0,1.3509,optionLeft,70,10675,5,19,0,19,0,1,,,,,,,,,,,,,,,,,,,,,,,,,,,,,,,,,,,,,,,
,,,,,,,,2023-08-16_08h40.22.606,HF_wild_card,2022.2.4,Win32,59.94844434,5ae8a935eb922200018fd0f3,64d2fd46c836a06233681665,64dc7d567a6b0686ea53d296,,,,,,,sngl,resources/DB.BMP,resources/Empty.png,Door1,-0.325925937,-0.012962952,1,0,0,1.1798,optionLeft,30,10705,5,20,0,20,0,1,,,,,,,,,,,,,,,,,,,,,,,,,,,,,,,,,,,,,,,
,,,,,,,,2023-08-16_08h40.22.606,HF_wild_card,2022.2.4,Win32,59.94844434,5ae8a935eb922200018fd0f3,64d2fd46c836a06233681665,64dc7d567a6b0686ea53d296,,,,,,,ctch,resources/DY.BMP,resources/DB.BMP,Door4,-0.363888889,-0.011111111,1,0,0,1.2802,optionLeft,60,10765,5,21,0,21,0,1,,,,,,,,,,,,,,,,,,,,,,,,,,,,,,,,,,,,,,,
,,,,,,,,2023-08-16_08h40.22.606,HF_wild_card,2022.2.4,Win32,59.94844434,5ae8a935eb922200018fd0f3,64d2fd46c836a06233681665,64dc7d567a6b0686ea53d296,,,,,,,decisionTrl,resources/DG.BMP,resources/DY.BMP,Door4,0.312036947,-0.032407396,1,0,0,1.1473,optionRight,60,10825,5,22,0,22,0,1,,,,,,,,,,,,,,,,,,,,,,,,,,,,,,,,,,,,,,,
,,,,,,,,2023-08-16_08h40.22.606,HF_wild_card,2022.2.4,Win32,59.94844434,5ae8a935eb922200018fd0f3,64d2fd46c836a06233681665,64dc7d567a6b0686ea53d296,,,,,,,sngl,resources/Empty.png,resources/DR.BMP,Door2,0.265740696,-0.037962952,1,0,0,1.0285,optionRight,20,10845,5,23,0,23,0,1,,,,,,,,,,,,,,,,,,,,,,,,,,,,,,,,,,,,,,,
,,,,,,,,2023-08-16_08h40.22.606,HF_wild_card,2022.2.4,Win32,59.94844434,5ae8a935eb922200018fd0f3,64d2fd46c836a06233681665,64dc7d567a6b0686ea53d296,,,,,,,decisionTrl,resources/DY.BMP,resources/DP.BMP,Door3,0.262962918,-0.049074063,1,0,0,1.0152,optionRight,70,10915,5,24,0,24,0,1,,,,,,,,,,,,,,,,,,,,,,,,,,,,,,,,,,,,,,,
,,,,,,,,2023-08-16_08h40.22.606,HF_wild_card,2022.2.4,Win32,59.94844434,5ae8a935eb922200018fd0f3,64d2fd46c836a06233681665,64dc7d567a6b0686ea53d296,,,,,,,ctch,resources/DB.BMP,resources/DY.BMP,Door4,0.413888889,-0.09259257,1,0,0,1.2439,optionRight,80,10995,5,25,0,25,0,1,,,,,,,,,,,,,,,,,,,,,,,,,,,,,,,,,,,,,,,
,,,,,,,,2023-08-16_08h40.22.606,HF_wild_card,2022.2.4,Win32,59.94844434,5ae8a935eb922200018fd0f3,64d2fd46c836a06233681665,64dc7d567a6b0686ea53d296,,,,,,,sngl,resources/DP.BMP,resources/Empty.png,Door3,-0.417592604,-0.007407396,1,0,0,0.8805,optionLeft,70,11065,5,26,0,26,0,1,,,,,,,,,,,,,,,,,,,,,,,,,,,,,,,,,,,,,,,
,,,,,,,,2023-08-16_08h40.22.606,HF_wild_card,2022.2.4,Win32,59.94844434,5ae8a935eb922200018fd0f3,64d2fd46c836a06233681665,64dc7d567a6b0686ea53d296,,,,,,,sngl,resources/Empty.png,resources/DB.BMP,Door1,0.317592502,-0.043518507,1,0,0,0.8447,optionRight,30,11095,5,27,0,27,0,1,,,,,,,,,,,,,,,,,,,,,,,,,,,,,,,,,,,,,,,
,,,,,,,,2023-08-16_08h40.22.606,HF_wild_card,2022.2.4,Win32,59.94844434,5ae8a935eb922200018fd0f3,64d2fd46c836a06233681665,64dc7d567a6b0686ea53d296,,,,,,,ctch,resources/DP.BMP,resources/DR.BMP,Door3,-0.363888889,-0.034259237,1,0,0,0.8866,optionLeft,70,11165,5,28,0,28,0,1,,,,,,,,,,,,,,,,,,,,,,,,,,,,,,,,,,,,,,,
,,,,,,,,2023-08-16_08h40.22.606,HF_wild_card,2022.2.4,Win32,59.94844434,5ae8a935eb922200018fd0f3,64d2fd46c836a06233681665,64dc7d567a6b0686ea53d296,,,,,,,decisionTrl,resources/DB.BMP,resources/DR.BMP,Door1,-0.340740763,0.014814826,1,0,0,1.392,optionLeft,30,11195,5,29,0,29,0,1,,,,,,,,,,,,,,,,,,,,,,,,,,,,,,,,,,,,,,,
,,,,,,,,2023-08-16_08h40.22.606,HF_wild_card,2022.2.4,Win32,59.94844434,5ae8a935eb922200018fd0f3,64d2fd46c836a06233681665,64dc7d567a6b0686ea53d296,,,,,,,decisionTrl,resources/DB.BMP,resources/DR.BMP,Door1,-0.280555556,0.010185208,1,0,0,0.921,optionLeft,30,11225,5,30,0,30,0,1,,,,,,,,,,,,,,,,,,,,,,,,,,,,,,,,,,,,,,,
,,,,,,,,2023-08-16_08h40.22.606,HF_wild_card,2022.2.4,Win32,59.94844434,5ae8a935eb922200018fd0f3,64d2fd46c836a06233681665,64dc7d567a6b0686ea53d296,,,,,,,decisionTrl,resources/DP.BMP,resources/DY.BMP,Door3,-0.386111111,-0.037037014,1,0,0,0.9644,optionLeft,70,11295,5,31,0,31,0,1,,,,,,,,,,,,,,,,,,,,,,,,,,,,,,,,,,,,,,,
,,,,,,,,2023-08-16_08h40.22.606,HF_wild_card,2022.2.4,Win32,59.94844434,5ae8a935eb922200018fd0f3,64d2fd46c836a06233681665,64dc7d567a6b0686ea53d296,,,,,,,decisionTrl,resources/DY.BMP,resources/DP.BMP,Door3,0.523148058,-0.041666667,1,0,0,0.9304,optionRight,70,11365,5,32,0,32,0,1,,,,,,,,,,,,,,,,,,,,,,,,,,,,,,,,,,,,,,,
,,,,,,,,2023-08-16_08h40.22.606,HF_wild_card,2022.2.4,Win32,59.94844434,5ae8a935eb922200018fd0f3,64d2fd46c836a06233681665,64dc7d567a6b0686ea53d296,,,,,,,decisionTrl,resources/DY.BMP,resources/DG.BMP,Door4,-0.315740763,-0.005555556,1,0,0,1.3453,optionLeft,80,11445,5,33,0,33,0,1,,,,,,,,,,,,,,,,,,,,,,,,,,,,,,,,,,,,,,,
,,,,,,,,2023-08-16_08h40.22.606,HF_wild_card,2022.2.4,Win32,59.94844434,5ae8a935eb922200018fd0f3,64d2fd46c836a06233681665,64dc7d567a6b0686ea53d296,,,,,,,decisionTrl,resources/DB.BMP,resources/DG.BMP,Door1,-0.350925937,0.005555556,1,0,0,1.2295,optionLeft,30,11475,5,34,0,34,0,1,,,,,,,,,,,,,,,,,,,,,,,,,,,,,,,,,,,,,,,
,,,,,,,,2023-08-16_08h40.22.606,HF_wild_card,2022.2.4,Win32,59.94844434,5ae8a935eb922200018fd0f3,64d2fd46c836a06233681665,64dc7d567a6b0686ea53d296,,,,,,,decisionTrl,resources/DR.BMP,resources/DB.BMP,Door1,0.472222222,-0.080555556,1,0,0,1.6634,optionRight,30,11505,5,35,0,35,0,1,,,,,,,,,,,,,,,,,,,,,,,,,,,,,,,,,,,,,,,
,,,,,,,,2023-08-16_08h40.22.606,HF_wild_card,2022.2.4,Win32,59.94844434,5ae8a935eb922200018fd0f3,64d2fd46c836a06233681665,64dc7d567a6b0686ea53d296,,,,,,,decisionTrl,resources/DG.BMP,resources/DR.BMP,Door2,0.305555556,-0.037962952,1,0,0,1.2925,optionRight,20,11525,5,36,0,36,0,1,,,,,,,,,,,,,,,,,,,,,,,,,,,,,,,,,,,,,,,
,,,,,,,,2023-08-16_08h40.22.606,HF_wild_card,2022.2.4,Win32,59.94844434,5ae8a935eb922200018fd0f3,64d2fd46c836a06233681665,64dc7d567a6b0686ea53d296,,,,,,,ctch,resources/DP.BMP,resources/DR.BMP,Door3,-0.281481527,-0.006481459,1,0,0,1.147,optionLeft,70,11595,5,37,0,37,0,1,,,,,,,,,,,,,,,,,,,,,,,,,,,,,,,,,,,,,,,
,,,,,,,,2023-08-16_08h40.22.606,HF_wild_card,2022.2.4,Win32,59.94844434,5ae8a935eb922200018fd0f3,64d2fd46c836a06233681665,64dc7d567a6b0686ea53d296,,,,,,,decisionTrl,resources/DP.BMP,resources/DY.BMP,Door3,-0.35,-0.040740729,1,0,0,0.9131,optionLeft,70,11665,5,38,0,38,0,1,,,,,,,,,,,,,,,,,,,,,,,,,,,,,,,,,,,,,,,
,,,,,,,,2023-08-16_08h40.22.606,HF_wild_card,2022.2.4,Win32,59.94844434,5ae8a935eb922200018fd0f3,64d2fd46c836a06233681665,64dc7d567a6b0686ea53d296,,,,,,,ctch,resources/DR.BMP,resources/DP.BMP,Door3,0.314814724,-0.059259237,1,0,0,0.8638,optionRight,70,11735,5,39,0,39,0,1,,,,,,,,,,,,,,,,,,,,,,,,,,,,,,,,,,,,,,,
,,,,,,,,2023-08-16_08h40.22.606,HF_wild_card,2022.2.4,Win32,59.94844434,5ae8a935eb922200018fd0f3,64d2fd46c836a06233681665,64dc7d567a6b0686ea53d296,,,,,,,sngl,resources/Empty.png,resources/DP.BMP,Door3,0.361111111,-0.062962952,1,0,0,0.8532,optionRight,70,11805,5,40,0,40,0,1,,,,,,,,,,,,,,,,,,,,,,,,,,,,,,,,,,,,,,,
,,,,,,,,2023-08-16_08h40.22.606,HF_wild_card,2022.2.4,Win32,59.94844434,5ae8a935eb922200018fd0f3,64d2fd46c836a06233681665,64dc7d567a6b0686ea53d296,,,,,,,sngl,resources/DR.BMP,resources/Empty.png,Door2,-0.423148159,-0.060185174,1,0,0,0.8978,optionLeft,40,11845,5,41,0,41,0,1,,,,,,,,,,,,,,,,,,,,,,,,,,,,,,,,,,,,,,,
,,,,,,,,2023-08-16_08h40.22.606,HF_wild_card,2022.2.4,Win32,59.94844434,5ae8a935eb922200018fd0f3,64d2fd46c836a06233681665,64dc7d567a6b0686ea53d296,,,,,,,decisionTrl,resources/DR.BMP,resources/DB.BMP,Door1,0.332407362,-0.060185174,1,0,0,0.88,optionRight,30,11875,5,42,0,42,0,1,,,,,,,,,,,,,,,,,,,,,,,,,,,,,,,,,,,,,,,
,,,,,,,,2023-08-16_08h40.22.606,HF_wild_card,2022.2.4,Win32,59.94844434,5ae8a935eb922200018fd0f3,64d2fd46c836a06233681665,64dc7d567a6b0686ea53d296,,,,,,,decisionTrl,resources/DG.BMP,resources/DP.BMP,Door3,0.35,-0.04259257,1,0,0,0.7783,optionRight,70,11945,5,43,0,43,0,1,,,,,,,,,,,,,,,,,,,,,,,,,,,,,,,,,,,,,,,
,,,,,,,,2023-08-16_08h40.22.606,HF_wild_card,2022.2.4,Win32,59.94844434,5ae8a935eb922200018fd0f3,64d2fd46c836a06233681665,64dc7d567a6b0686ea53d296,,,,,,,,,,,,,,,,,,,,,,,,,,4,0,4,0,1,,,,,,,,,,,,,,,,,,,,,,,,,,,,,,,,,,
,,,,,,,,2023-08-16_08h40.22.606,HF_wild_card,2022.2.4,Win32,59.94844434,5ae8a935eb922200018fd0f3,64d2fd46c836a06233681665,64dc7d567a6b0686ea53d296,,,,,,,decisionTrl,resources/DR.BMP,resources/DG.BMP,Door2,-0.309259304,-0.022222222,1,0,0,1.9996,optionLeft,40,11985,6,0,0,0,0,1,,,,,,,,,,,,,,,,,,,,,,,,,,,,,,,,,,,,,,,
,,,,,,,,2023-08-16_08h40.22.606,HF_wild_card,2022.2.4,Win32,59.94844434,5ae8a935eb922200018fd0f3,64d2fd46c836a06233681665,64dc7d567a6b0686ea53d296,,,,,,,decisionTrl,resources/DP.BMP,resources/DY.BMP,Door3,-0.409259271,0.009259271,1,0,0,0.9617,optionLeft,70,12055,6,1,0,1,0,1,,,,,,,,,,,,,,,,,,,,,,,,,,,,,,,,,,,,,,,
,,,,,,,,2023-08-16_08h40.22.606,HF_wild_card,2022.2.4,Win32,59.94844434,5ae8a935eb922200018fd0f3,64d2fd46c836a06233681665,64dc7d567a6b0686ea53d296,,,,,,,decisionTrl,resources/DG.BMP,resources/DB.BMP,Door1,0.52037028,-0.037037014,1,0,0,1.3494,optionRight,30,12085,6,2,0,2,0,1,,,,,,,,,,,,,,,,,,,,,,,,,,,,,,,,,,,,,,,
,,,,,,,,2023-08-16_08h40.22.606,HF_wild_card,2022.2.4,Win32,59.94844434,5ae8a935eb922200018fd0f3,64d2fd46c836a06233681665,64dc7d567a6b0686ea53d296,,,,,,,decisionTrl,resources/DR.BMP,resources/DB.BMP,Door1,0.313888889,-0.033333333,1,0,0,1.122,optionRight,30,12115,6,3,0,3,0,1,,,,,,,,,,,,,,,,,,,,,,,,,,,,,,,,,,,,,,,
,,,,,,,,2023-08-16_08h40.22.606,HF_wild_card,2022.2.4,Win32,59.94844434,5ae8a935eb922200018fd0f3,64d2fd46c836a06233681665,64dc7d567a6b0686ea53d296,,,,,,,decisionTrl,resources/DR.BMP,resources/DB.BMP,Door1,0.37037028,-0.073148126,1,0,0,0.7485,optionRight,30,12145,6,4,0,4,0,1,,,,,,,,,,,,,,,,,,,,,,,,,,,,,,,,,,,,,,,
,,,,,,,,2023-08-16_08h40.22.606,HF_wild_card,2022.2.4,Win32,59.94844434,5ae8a935eb922200018fd0f3,64d2fd46c836a06233681665,64dc7d567a6b0686ea53d296,,,,,,,ctch,resources/DP.BMP,resources/DR.BMP,Door3,-0.515740729,-0.031481459,1,0,0,0.9294,optionLeft,70,12215,6,5,0,5,0,1,,,,,,,,,,,,,,,,,,,,,,,,,,,,,,,,,,,,,,,
,,,,,,,,2023-08-16_08h40.22.606,HF_wild_card,2022.2.4,Win32,59.94844434,5ae8a935eb922200018fd0f3,64d2fd46c836a06233681665,64dc7d567a6b0686ea53d296,,,,,,,sngl,resources/Empty.png,resources/DG.BMP,WildCard_Ex,0.297222222,-0.012037014,1,0,0,0.9737,optionRight,95,12310,6,6,0,6,0,1,,,,,,,,,,,,,,,,,,,,,,,,,,,,,,,,,,,,,,,
,,,,,,,,2023-08-16_08h40.22.606,HF_wild_card,2022.2.4,Win32,59.94844434,5ae8a935eb922200018fd0f3,64d2fd46c836a06233681665,64dc7d567a6b0686ea53d296,,,,,,,ctch,resources/DR.BMP,resources/DP.BMP,Door3,0.356481391,-0.040740729,1,0,0,0.9309,optionRight,70,12380,6,7,0,7,0,1,,,,,,,,,,,,,,,,,,,,,,,,,,,,,,,,,,,,,,,
,,,,,,,,2023-08-16_08h40.22.606,HF_wild_card,2022.2.4,Win32,59.94844434,5ae8a935eb922200018fd0f3,64d2fd46c836a06233681665,64dc7d567a6b0686ea53d296,,,,,,,sngl,resources/DP.BMP,resources/Empty.png,Door3,-0.269444444,-0.001851841,1,0,0,0.8785,optionLeft,70,12450,6,8,0,8,0,1,,,,,,,,,,,,,,,,,,,,,,,,,,,,,,,,,,,,,,,
,,,,,,,,2023-08-16_08h40.22.606,HF_wild_card,2022.2.4,Win32,59.94844434,5ae8a935eb922200018fd0f3,64d2fd46c836a06233681665,64dc7d567a6b0686ea53d296,,,,,,,decisionTrl,resources/DP.BMP,resources/DY.BMP,Door3,-0.313888889,-0.012037014,1,0,0,0.9118,optionLeft,70,12520,6,9,0,9,0,1,,,,,,,,,,,,,,,,,,,,,,,,,,,,,,,,,,,,,,,
,,,,,,,,2023-08-16_08h40.22.606,HF_wild_card,2022.2.4,Win32,59.94844434,5ae8a935eb922200018fd0f3,64d2fd46c836a06233681665,64dc7d567a6b0686ea53d296,,,,,,,decisionTrl,resources/DR.BMP,resources/DB.BMP,Door1,0.503703613,-0.078703681,1,0,0,1.3644,optionRight,30,12550,6,10,0,10,0,1,,,,,,,,,,,,,,,,,,,,,,,,,,,,,,,,,,,,,,,
,,,,,,,,2023-08-16_08h40.22.606,HF_wild_card,2022.2.4,Win32,59.94844434,5ae8a935eb922200018fd0f3,64d2fd46c836a06233681665,64dc7d567a6b0686ea53d296,,,,,,,decisionTrl,resources/DG.BMP,resources/DR.BMP,Door2,0.440740696,-0.059259237,1,0,0,1.0548,optionRight,20,12570,6,11,0,11,0,1,,,,,,,,,,,,,,,,,,,,,,,,,,,,,,,,,,,,,,,
,,,,,,,,2023-08-16_08h40.22.606,HF_wild_card,2022.2.4,Win32,59.94844434,5ae8a935eb922200018fd0f3,64d2fd46c836a06233681665,64dc7d567a6b0686ea53d296,,,,,,,ctch,resources/DY.BMP,resources/DB.BMP,Door4,-0.25740743,-0.025925903,1,0,0,1.9829,optionLeft,80,12650,6,12,0,12,0,1,,,,,,,,,,,,,,,,,,,,,,,,,,,,,,,,,,,,,,,
,,,,,,,,2023-08-16_08h40.22.606,HF_wild_card,2022.2.4,Win32,59.94844434,5ae8a935eb922200018fd0f3,64d2fd46c836a06233681665,64dc7d567a6b0686ea53d296,,,,,,,ctch,resources/DP.BMP,resources/DR.BMP,Door3,-0.303703749,-0.087962918,1,0,0,1.0613,optionLeft,70,12720,6,13,0,13,0,1,,,,,,,,,,,,,,,,,,,,,,,,,,,,,,,,,,,,,,,
,,,,,,,,2023-08-16_08h40.22.606,HF_wild_card,2022.2.4,Win32,59.94844434,5ae8a935eb922200018fd0f3,64d2fd46c836a06233681665,64dc7d567a6b0686ea53d296,,,,,,,decisionTrl,resources/DB.BMP,resources/DR.BMP,Door1,-0.367592604,-0.034259237,1,0,0,1.4175,optionLeft,30,12750,6,14,0,14,0,1,,,,,,,,,,,,,,,,,,,,,,,,,,,,,,,,,,,,,,,
,,,,,,,,2023-08-16_08h40.22.606,HF_wild_card,2022.2.4,Win32,59.94844434,5ae8a935eb922200018fd0f3,64d2fd46c836a06233681665,64dc7d567a6b0686ea53d296,,,,,,,sngl,resources/DR.BMP,resources/Empty.png,Door2,-0.266666667,-0.007407396,1,0,0,0.9803,optionLeft,20,12770,6,15,0,15,0,1,,,,,,,,,,,,,,,,,,,,,,,,,,,,,,,,,,,,,,,
,,,,,,,,2023-08-16_08h40.22.606,HF_wild_card,2022.2.4,Win32,59.94844434,5ae8a935eb922200018fd0f3,64d2fd46c836a06233681665,64dc7d567a6b0686ea53d296,,,,,,,decisionTrl,resources/DB.BMP,resources/DR.BMP,Door1,-0.313888889,0.012962986,1,0,0,1.9602,optionLeft,30,12800,6,16,0,16,0,1,,,,,,,,,,,,,,,,,,,,,,,,,,,,,,,,,,,,,,,
,,,,,,,,2023-08-16_08h40.22.606,HF_wild_card,2022.2.4,Win32,59.94844434,5ae8a935eb922200018fd0f3,64d2fd46c836a06233681665,64dc7d567a6b0686ea53d296,,,,,,,decisionTrl,resources/DP.BMP,resources/DY.BMP,Door3,-0.40740743,0.002777778,1,0,0,0.9298,optionLeft,70,12870,6,17,0,17,0,1,,,,,,,,,,,,,,,,,,,,,,,,,,,,,,,,,,,,,,,
,,,,,,,,2023-08-16_08h40.22.606,HF_wild_card,2022.2.4,Win32,59.94844434,5ae8a935eb922200018fd0f3,64d2fd46c836a06233681665,64dc7d567a6b0686ea53d296,,,,,,,sngl,resources/Empty.png,resources/DR.BMP,Door2,0.34537028,0.024074097,1,0,0,0.9605,optionRight,40,12910,6,18,0,18,0,1,,,,,,,,,,,,,,,,,,,,,,,,,,,,,,,,,,,,,,,
,,,,,,,,2023-08-16_08h40.22.606,HF_wild_card,2022.2.4,Win32,59.94844434,5ae8a935eb922200018fd0f3,64d2fd46c836a06233681665,64dc7d567a6b0686ea53d296,,,,,,,sngl,resources/DY.BMP,resources/Empty.png,Door4,-0.353703715,0.018518541,1,0,0,0.876,optionLeft,60,12970,6,19,0,19,0,1,,,,,,,,,,,,,,,,,,,,,,,,,,,,,,,,,,,,,,,
,,,,,,,,2023-08-16_08h40.22.606,HF_wild_card,2022.2.4,Win32,59.94844434,5ae8a935eb922200018fd0f3,64d2fd46c836a06233681665,64dc7d567a6b0686ea53d296,,,,,,,sngl,resources/Empty.png,resources/DY.BMP,Door4,0.287962918,0.003703715,1,0,0,0.9125,optionRight,80,13050,6,20,0,20,0,1,,,,,,,,,,,,,,,,,,,,,,,,,,,,,,,,,,,,,,,
,,,,,,,,2023-08-16_08h40.22.606,HF_wild_card,2022.2.4,Win32,59.94844434,5ae8a935eb922200018fd0f3,64d2fd46c836a06233681665,64dc7d567a6b0686ea53d296,,,,,,,sngl,resources/DG.BMP,resources/Empty.png,WildCard_Ex,-0.342592604,0.032407396,1,0,0,0.8794,optionLeft,95,13145,6,21,0,21,0,1,,,,,,,,,,,,,,,,,,,,,,,,,,,,,,,,,,,,,,,
,,,,,,,,2023-08-16_08h40.22.606,HF_wild_card,2022.2.4,Win32,59.94844434,5ae8a935eb922200018fd0f3,64d2fd46c836a06233681665,64dc7d567a6b0686ea53d296,,,,,,,decisionTrl,resources/DG.BMP,resources/DP.BMP,Door3,0.317592502,-0.010185174,1,0,0,1.0923,optionRight,70,13215,6,22,0,22,0,1,,,,,,,,,,,,,,,,,,,,,,,,,,,,,,,,,,,,,,,
,,,,,,,,2023-08-16_08h40.22.606,HF_wild_card,2022.2.4,Win32,59.94844434,5ae8a935eb922200018fd0f3,64d2fd46c836a06233681665,64dc7d567a6b0686ea53d296,,,,,,,decisionTrl,resources/DG.BMP,resources/DY.BMP,Door4,0.330555556,-0.068518507,1,0,0,1.1785,optionRight,60,13275,6,23,0,23,0,1,,,,,,,,,,,,,,,,,,,,,,,,,,,,,,,,,,,,,,,
,,,,,,,,2023-08-16_08h40.22.606,HF_wild_card,2022.2.4,Win32,59.94844434,5ae8a935eb922200018fd0f3,64d2fd46c836a06233681665,64dc7d567a6b0686ea53d296,,,,,,,ctch,resources/DR.BMP,resources/DP.BMP,Door3,0.382407362,-0.058333333,1,0,0,0.8899,optionRight,70,13345,6,24,0,24,0,1,,,,,,,,,,,,,,,,,,,,,,,,,,,,,,,,,,,,,,,
,,,,,,,,2023-08-16_08h40.22.606,HF_wild_card,2022.2.4,Win32,59.94844434,5ae8a935eb922200018fd0f3,64d2fd46c836a06233681665,64dc7d567a6b0686ea53d296,,,,,,,decisionTrl,resources/DY.BMP,resources/DP.BMP,Door3,0.362962918,-0.133333333,1,0,0,0.8153,optionRight,70,13415,6,25,0,25,0,1,,,,,,,,,,,,,,,,,,,,,,,,,,,,,,,,,,,,,,,
,,,,,,,,2023-08-16_08h40.22.606,HF_wild_card,2022.2.4,Win32,59.94844434,5ae8a935eb922200018fd0f3,64d2fd46c836a06233681665,64dc7d567a6b0686ea53d296,,,,,,,decisionTrl,resources/DR.BMP,resources/DB.BMP,Door1,0.374074029,-0.06759257,1,0,0,1.2012,optionRight,30,13445,6,26,0,26,0,1,,,,,,,,,,,,,,,,,,,,,,,,,,,,,,,,,,,,,,,
,,,,,,,,2023-08-16_08h40.22.606,HF_wild_card,2022.2.4,Win32,59.94844434,5ae8a935eb922200018fd0f3,64d2fd46c836a06233681665,64dc7d567a6b0686ea53d296,,,,,,,ctch,resources/DB.BMP,resources/DY.BMP,Door4,0.303703613,-0.096296251,1,0,0,1.1777,optionRight,60,13505,6,27,0,27,0,1,,,,,,,,,,,,,,,,,,,,,,,,,,,,,,,,,,,,,,,
,,,,,,,,2023-08-16_08h40.22.606,HF_wild_card,2022.2.4,Win32,59.94844434,5ae8a935eb922200018fd0f3,64d2fd46c836a06233681665,64dc7d567a6b0686ea53d296,,,,,,,sngl,resources/Empty.png,resources/DG.BMP,WildCard_Ex,0.358333333,-0.037037014,1,0,0,0.8012,optionRight,5,13510,6,28,0,28,0,1,,,,,,,,,,,,,,,,,,,,,,,,,,,,,,,,,,,,,,,
,,,,,,,,2023-08-16_08h40.22.606,HF_wild_card,2022.2.4,Win32,59.94844434,5ae8a935eb922200018fd0f3,64d2fd46c836a06233681665,64dc7d567a6b0686ea53d296,,,,,,,sngl,resources/DB.BMP,resources/Empty.png,Door1,-0.432407396,-0.057407396,1,0,0,1.2311,optionLeft,30,13540,6,29,0,29,0,1,,,,,,,,,,,,,,,,,,,,,,,,,,,,,,,,,,,,,,,
,,,,,,,,2023-08-16_08h40.22.606,HF_wild_card,2022.2.4,Win32,59.94844434,5ae8a935eb922200018fd0f3,64d2fd46c836a06233681665,64dc7d567a6b0686ea53d296,,,,,,,decisionTrl,resources/DY.BMP,resources/DP.BMP,Door3,0.382407362,-0.045370348,1,0,0,0.8542,optionRight,70,13610,6,30,0,30,0,1,,,,,,,,,,,,,,,,,,,,,,,,,,,,,,,,,,,,,,,
,,,,,,,,2023-08-16_08h40.22.606,HF_wild_card,2022.2.4,Win32,59.94844434,5ae8a935eb922200018fd0f3,64d2fd46c836a06233681665,64dc7d567a6b0686ea53d296,,,,,,,decisionTrl,resources/DP.BMP,resources/DY.BMP,Door3,-0.301851874,-0.019444444,1,0,0,0.9481,optionLeft,70,13680,6,31,0,31,0,1,,,,,,,,,,,,,,,,,,,,,,,,,,,,,,,,,,,,,,,
,,,,,,,,2023-08-16_08h40.22.606,HF_wild_card,2022.2.4,Win32,59.94844434,5ae8a935eb922200018fd0f3,64d2fd46c836a06233681665,64dc7d567a6b0686ea53d296,,,,,,,decisionTrl,resources/DY.BMP,resources/DG.BMP,Door4,-0.416666633,0.003703715,1,0,0,1.6473,optionLeft,80,13760,6,32,0,32,0,1,,,,,,,,,,,,,,,,,,,,,,,,,,,,,,,,,,,,,,,
,,,,,,,,2023-08-16_08h40.22.606,HF_wild_card,2022.2.4,Win32,59.94844434,5ae8a935eb922200018fd0f3,64d2fd46c836a06233681665,64dc7d567a6b0686ea53d296,,,,,,,ctch,resources/DY.BMP,resources/DB.BMP,Door1,0.325,-0.036111111,1,0,0,1.2308,optionRight,30,13790,6,33,0,33,0,1,,,,,,,,,,,,,,,,,,,,,,,,,,,,,,,,,,,,,,,
,,,,,,,,2023-08-16_08h40.22.606,HF_wild_card,2022.2.4,Win32,59.94844434,5ae8a935eb922200018fd0f3,64d2fd46c836a06233681665,64dc7d567a6b0686ea53d296,,,,,,,decisionTrl,resources/DY.BMP,resources/DP.BMP,Door3,0.44537028,-0.083333333,1,0,0,0.9964,optionRight,70,13860,6,34,0,34,0,1,,,,,,,,,,,,,,,,,,,,,,,,,,,,,,,,,,,,,,,
,,,,,,,,2023-08-16_08h40.22.606,HF_wild_card,2022.2.4,Win32,59.94844434,5ae8a935eb922200018fd0f3,64d2fd46c836a06233681665,64dc7d567a6b0686ea53d296,,,,,,,sngl,resources/Empty.png,resources/DP.BMP,Door3,0.373148058,-0.052777778,1,0,0,0.7853,optionRight,70,13930,6,35,0,35,0,1,,,,,,,,,,,,,,,,,,,,,,,,,,,,,,,,,,,,,,,
,,,,,,,,2023-08-16_08h40.22.606,HF_wild_card,2022.2.4,Win32,59.94844434,5ae8a935eb922200018fd0f3,64d2fd46c836a06233681665,64dc7d567a6b0686ea53d296,,,,,,,decisionTrl,resources/DY.BMP,resources/DP.BMP,Door3,0.421296251,-0.087962918,1,0,0,0.9807,optionRight,70,14000,6,36,0,36,0,1,,,,,,,,,,,,,,,,,,,,,,,,,,,,,,,,,,,,,,,
,,,,,,,,2023-08-16_08h40.22.606,HF_wild_card,2022.2.4,Win32,59.94844434,5ae8a935eb922200018fd0f3,64d2fd46c836a06233681665,64dc7d567a6b0686ea53d296,,,,,,,ctch,resources/DB.BMP,resources/DY.BMP,Door4,0.433333333,-0.098148126,1,0,0,0.8278,optionRight,60,14060,6,37,0,37,0,1,,,,,,,,,,,,,,,,,,,,,,,,,,,,,,,,,,,,,,,
,,,,,,,,2023-08-16_08h40.22.606,HF_wild_card,2022.2.4,Win32,59.94844434,5ae8a935eb922200018fd0f3,64d2fd46c836a06233681665,64dc7d567a6b0686ea53d296,,,,,,,sngl,resources/DG.BMP,resources/Empty.png,WildCard_Ex,-0.397222222,0.027777744,1,0,0,0.8493,optionLeft,5,14065,6,38,0,38,0,1,,,,,,,,,,,,,,,,,,,,,,,,,,,,,,,,,,,,,,,
,,,,,,,,2023-08-16_08h40.22.606,HF_wild_card,2022.2.4,Win32,59.94844434,5ae8a935eb922200018fd0f3,64d2fd46c836a06233681665,64dc7d567a6b0686ea53d296,,,,,,,decisionTrl,resources/DB.BMP,resources/DG.BMP,WildCard_Ex,0.333333333,-0.063888889,1,0,0,1.3841,optionRight,95,14160,6,39,0,39,0,1,,,,,,,,,,,,,,,,,,,,,,,,,,,,,,,,,,,,,,,
,,,,,,,,2023-08-16_08h40.22.606,HF_wild_card,2022.2.4,Win32,59.94844434,5ae8a935eb922200018fd0f3,64d2fd46c836a06233681665,64dc7d567a6b0686ea53d296,,,,,,,decisionTrl,resources/DB.BMP,resources/DR.BMP,Door1,-0.479629618,0.048148159,1,0,0,1.6811,optionLeft,30,14190,6,40,0,40,0,1,,,,,,,,,,,,,,,,,,,,,,,,,,,,,,,,,,,,,,,
,,,,,,,,2023-08-16_08h40.22.606,HF_wild_card,2022.2.4,Win32,59.94844434,5ae8a935eb922200018fd0f3,64d2fd46c836a06233681665,64dc7d567a6b0686ea53d296,,,,,,,decisionTrl,resources/DB.BMP,resources/DR.BMP,Door1,-0.341666667,-0.069444444,1,0,0,1.4474,optionLeft,30,14220,6,41,0,41,0,1,,,,,,,,,,,,,,,,,,,,,,,,,,,,,,,,,,,,,,,
,,,,,,,,2023-08-16_08h40.22.606,HF_wild_card,2022.2.4,Win32,59.94844434,5ae8a935eb922200018fd0f3,64d2fd46c836a06233681665,64dc7d567a6b0686ea53d296,,,,,,,decisionTrl,resources/DP.BMP,resources/DG.BMP,Door3,-0.374074097,0.023148159,1,0,0,1.1967,optionLeft,70,14290,6,42,0,42,0,1,,,,,,,,,,,,,,,,,,,,,,,,,,,,,,,,,,,,,,,
,,,,,,,,2023-08-16_08h40.22.606,HF_wild_card,2022.2.4,Win32,59.94844434,5ae8a935eb922200018fd0f3,64d2fd46c836a06233681665,64dc7d567a6b0686ea53d296,,,,,,,sngl,resources/Empty.png,resources/DB.BMP,Door1,0.293518473,-0.009259237,1,0,0,0.9549,optionRight,30,14320,6,43,0,43,0,1,,,,,,,,,,,,,,,,,,,,,,,,,,,,,,,,,,,,,,,
,,,,,,,,2023-08-16_08h40.22.606,HF_wild_card,2022.2.4,Win32,59.94844434,5ae8a935eb922200018fd0f3,64d2fd46c836a06233681665,64dc7d567a6b0686ea53d296,,,,,,,,,,,,,,,,,,,,,,,,,,5,0,5,0,1,,,,,,,,,,,,,,,,,,,,,,,,,,,,,,,,,,
,,,,,,,,2023-08-16_08h40.22.606,HF_wild_card,2022.2.4,Win32,59.94844434,5ae8a935eb922200018fd0f3,64d2fd46c836a06233681665,64dc7d567a6b0686ea53d296,,,,,,,decisionTrl,resources/DY.BMP,resources/DP.BMP,Door3,0.312036947,-0.170370348,1,0,0,1.0512,optionRight,70,14390,7,0,0,0,0,1,,,,,,,,,,,,,,,,,,,,,,,,,,,,,,,,,,,,,,,
,,,,,,,,2023-08-16_08h40.22.606,HF_wild_card,2022.2.4,Win32,59.94844434,5ae8a935eb922200018fd0f3,64d2fd46c836a06233681665,64dc7d567a6b0686ea53d296,,,,,,,decisionTrl,resources/DY.BMP,resources/DP.BMP,Door3,0.357407362,-0.06759257,1,0,0,0.799,optionRight,70,14460,7,1,0,1,0,1,,,,,,,,,,,,,,,,,,,,,,,,,,,,,,,,,,,,,,,
,,,,,,,,2023-08-16_08h40.22.606,HF_wild_card,2022.2.4,Win32,59.94844434,5ae8a935eb922200018fd0f3,64d2fd46c836a06233681665,64dc7d567a6b0686ea53d296,,,,,,,decisionTrl,resources/DP.BMP,resources/DY.BMP,Door3,-0.441666633,-0.062037014,1,0,0,0.8817,optionLeft,70,14530,7,2,0,2,0,1,,,,,,,,,,,,,,,,,,,,,,,,,,,,,,,,,,,,,,,
,,,,,,,,2023-08-16_08h40.22.606,HF_wild_card,2022.2.4,Win32,59.94844434,5ae8a935eb922200018fd0f3,64d2fd46c836a06233681665,64dc7d567a6b0686ea53d296,,,,,,,decisionTrl,resources/DR.BMP,resources/DB.BMP,Door1,0.400925836,-0.047222222,1,0,0,1.1758,optionRight,30,14560,7,3,0,3,0,1,,,,,,,,,,,,,,,,,,,,,,,,,,,,,,,,,,,,,,,
,,,,,,,,2023-08-16_08h40.22.606,HF_wild_card,2022.2.4,Win32,59.94844434,5ae8a935eb922200018fd0f3,64d2fd46c836a06233681665,64dc7d567a6b0686ea53d296,,,,,,,ctch,resources/DP.BMP,resources/DR.BMP,Door3,-0.281481527,-0.008333333,1,0,0,0.9635,optionLeft,70,14630,7,4,0,4,0,1,,,,,,,,,,,,,,,,,,,,,,,,,,,,,,,,,,,,,,,
,,,,,,,,2023-08-16_08h40.22.606,HF_wild_card,2022.2.4,Win32,59.94844434,5ae8a935eb922200018fd0f3,64d2fd46c836a06233681665,64dc7d567a6b0686ea53d296,,,,,,,decisionTrl,resources/DR.BMP,resources/DB.BMP,Door1,0.358333333,-0.01759257,1,0,0,1.1308,optionRight,30,14660,7,5,0,5,0,1,,,,,,,,,,,,,,,,,,,,,,,,,,,,,,,,,,,,,,,
,,,,,,,,2023-08-16_08h40.22.606,HF_wild_card,2022.2.4,Win32,59.94844434,5ae8a935eb922200018fd0f3,64d2fd46c836a06233681665,64dc7d567a6b0686ea53d296,,,,,,,decisionTrl,resources/DR.BMP,resources/DB.BMP,Door1,0.350925836,-0.005555556,1,0,0,1.0154,optionRight,30,14690,7,6,0,6,0,1,,,,,,,,,,,,,,,,,,,,,,,,,,,,,,,,,,,,,,,
,,,,,,,,2023-08-16_08h40.22.606,HF_wild_card,2022.2.4,Win32,59.94844434,5ae8a935eb922200018fd0f3,64d2fd46c836a06233681665,64dc7d567a6b0686ea53d296,,,,,,,decisionTrl,resources/DR.BMP,resources/DB.BMP,Door1,0.36018514,-0.049074063,1,0,0,0.8566,optionRight,30,14720,7,7,0,7,0,1,,,,,,,,,,,,,,,,,,,,,,,,,,,,,,,,,,,,,,,
,,,,,,,,2023-08-16_08h40.22.606,HF_wild_card,2022.2.4,Win32,59.94844434,5ae8a935eb922200018fd0f3,64d2fd46c836a06233681665,64dc7d567a6b0686ea53d296,,,,,,,decisionTrl,resources/DB.BMP,resources/DR.BMP,Door1,-0.334259271,0.021296319,1,0,0,1.0661,optionLeft,30,14750,7,8,0,8,0,1,,,,,,,,,,,,,,,,,,,,,,,,,,,,,,,,,,,,,,,
,,,,,,,,2023-08-16_08h40.22.606,HF_wild_card,2022.2.4,Win32,59.94844434,5ae8a935eb922200018fd0f3,64d2fd46c836a06233681665,64dc7d567a6b0686ea53d296,,,,,,,ctch,resources/DP.BMP,resources/DR.BMP,Door3,-0.317592638,-0.019444444,1,0,0,0.9716,optionLeft,70,14820,7,9,0,9,0,1,,,,,,,,,,,,,,,,,,,,,,,,,,,,,,,,,,,,,,,
,,,,,,,,2023-08-16_08h40.22.606,HF_wild_card,2022.2.4,Win32,59.94844434,5ae8a935eb922200018fd0f3,64d2fd46c836a06233681665,64dc7d567a6b0686ea53d296,,,,,,,decisionTrl,resources/DB.BMP,resources/DR.BMP,Door1,-0.312962986,0.011111111,1,0,0,1.3472,optionLeft,30,14850,7,10,0,10,0,1,,,,,,,,,,,,,,,,,,,,,,,,,,,,,,,,,,,,,,,
,,,,,,,,2023-08-16_08h40.22.606,HF_wild_card,2022.2.4,Win32,59.94844434,5ae8a935eb922200018fd0f3,64d2fd46c836a06233681665,64dc7d567a6b0686ea53d296,,,,,,,ctch,resources/DR.BMP,resources/DP.BMP,Door3,0.340740696,-0.103703681,1,0,0,0.8793,optionRight,70,14920,7,11,0,11,0,1,,,,,,,,,,,,,,,,,,,,,,,,,,,,,,,,,,,,,,,
,,,,,,,,2023-08-16_08h40.22.606,HF_wild_card,2022.2.4,Win32,59.94844434,5ae8a935eb922200018fd0f3,64d2fd46c836a06233681665,64dc7d567a6b0686ea53d296,,,,,,,decisionTrl,resources/DR.BMP,resources/DB.BMP,Door1,0.441666667,-0.088888889,1,0,0,1.2293,optionRight,30,14950,7,12,0,12,0,1,,,,,,,,,,,,,,,,,,,,,,,,,,,,,,,,,,,,,,,
,,,,,,,,2023-08-16_08h40.22.606,HF_wild_card,2022.2.4,Win32,59.94844434,5ae8a935eb922200018fd0f3,64d2fd46c836a06233681665,64dc7d567a6b0686ea53d296,,,,,,,decisionTrl,resources/DP.BMP,resources/DY.BMP,Door3,-0.371296319,-0.033333333,1,0,0,0.9553,optionLeft,70,15020,7,13,0,13,0,1,,,,,,,,,,,,,,,,,,,,,,,,,,,,,,,,,,,,,,,
,,,,,,,,2023-08-16_08h40.22.606,HF_wild_card,2022.2.4,Win32,59.94844434,5ae8a935eb922200018fd0f3,64d2fd46c836a06233681665,64dc7d567a6b0686ea53d296,,,,,,,decisionTrl,resources/DB.BMP,resources/DR.BMP,Door1,-0.373148159,-0.028703681,1,0,0,1.4005,optionLeft,30,15050,7,14,0,14,0,1,,,,,,,,,,,,,,,,,,,,,,,,,,,,,,,,,,,,,,,
,,,,,,,,2023-08-16_08h40.22.606,HF_wild_card,2022.2.4,Win32,59.94844434,5ae8a935eb922200018fd0f3,64d2fd46c836a06233681665,64dc7d567a6b0686ea53d296,,,,,,,decisionTrl,resources/DP.BMP,resources/DY.BMP,Door3,-0.366666667,-0.122222222,1,0,0,1.0312,optionLeft,70,15120,7,15,0,15,0,1,,,,,,,,,,,,,,,,,,,,,,,,,,,,,,,,,,,,,,,
,,,,,,,,2023-08-16_08h40.22.606,HF_wild_card,2022.2.4,Win32,59.94844434,5ae8a935eb922200018fd0f3,64d2fd46c836a06233681665,64dc7d567a6b0686ea53d296,,,,,,,decisionTrl,resources/DY.BMP,resources/DP.BMP,Door3,0.379629584,-0.032407396,1,0,0,0.9148,optionRight,70,15190,7,16,0,16,0,1,,,,,,,,,,,,,,,,,,,,,,,,,,,,,,,,,,,,,,,
,,,,,,,,2023-08-16_08h40.22.606,HF_wild_card,2022.2.4,Win32,59.94844434,5ae8a935eb922200018fd0f3,64d2fd46c836a06233681665,64dc7d567a6b0686ea53d296,,,,,,,ctch,resources/DR.BMP,resources/DP.BMP,Door3,-0.00277771,0.00740743,1,0,0,0.3946,optionRight,70,15260,7,17,0,17,0,1,,,,,,,,,,,,,,,,,,,,,,,,,,,,,,,,,,,,,,,
,,,,,,,,2023-08-16_08h40.22.606,HF_wild_card,2022.2.4,Win32,59.94844434,5ae8a935eb922200018fd0f3,64d2fd46c836a06233681665,64dc7d567a6b0686ea53d296,,,,,,,ctch,resources/DY.BMP,resources/DB.BMP,Door4,-0.302777778,-0.052777778,1,0,0,1.2096,optionLeft,60,15320,7,18,0,18,0,1,,,,,,,,,,,,,,,,,,,,,,,,,,,,,,,,,,,,,,,
,,,,,,,,2023-08-16_08h40.22.606,HF_wild_card,2022.2.4,Win32,59.94844434,5ae8a935eb922200018fd0f3,64d2fd46c836a06233681665,64dc7d567a6b0686ea53d296,,,,,,,decisionTrl,resources/DP.BMP,resources/DY.BMP,Door3,-0.337962986,-0.022222222,1,0,0,0.9996,optionLeft,70,15390,7,19,0,19,0,1,,,,,,,,,,,,,,,,,,,,,,,,,,,,,,,,,,,,,,,
,,,,,,,,2023-08-16_08h40.22.606,HF_wild_card,2022.2.4,Win32,59.94844434,5ae8a935eb922200018fd0f3,64d2fd46c836a06233681665,64dc7d567a6b0686ea53d296,,,,,,,ctch,resources/DB.BMP,resources/DY.BMP,Door4,0.324074029,-0.057407396,1,0,0,1.3325,optionRight,80,15470,7,20,0,20,0,1,,,,,,,,,,,,,,,,,,,,,,,,,,,,,,,,,,,,,,,
,,,,,,,,2023-08-16_08h40.22.606,HF_wild_card,2022.2.4,Win32,59.94844434,5ae8a935eb922200018fd0f3,64d2fd46c836a06233681665,64dc7d567a6b0686ea53d296,,,,,,,ctch,resources/DR.BMP,resources/DP.BMP,Door3,0.361111111,-0.052777778,1,0,0,0.8974,optionRight,70,15540,7,21,0,21,0,1,,,,,,,,,,,,,,,,,,,,,,,,,,,,,,,,,,,,,,,
,,,,,,,,2023-08-16_08h40.22.606,HF_wild_card,2022.2.4,Win32,59.94844434,5ae8a935eb922200018fd0f3,64d2fd46c836a06233681665,64dc7d567a6b0686ea53d296,,,,,,,decisionTrl,resources/DB.BMP,resources/DR.BMP,Door1,-0.410185208,-0.001851841,1,0,0,1.2828,optionLeft,30,15570,7,22,0,22,0,1,,,,,,,,,,,,,,,,,,,,,,,,,,,,,,,,,,,,,,,
,,,,,,,,2023-08-16_08h40.22.606,HF_wild_card,2022.2.4,Win32,59.94844434,5ae8a935eb922200018fd0f3,64d2fd46c836a06233681665,64dc7d567a6b0686ea53d296,,,,,,,ctch,resources/DP.BMP,resources/DR.BMP,Door3,-0.437037048,-0.064814792,1,0,0,0.9381,optionLeft,70,15640,7,23,0,23,0,1,,,,,,,,,,,,,,,,,,,,,,,,,,,,,,,,,,,,,,,
,,,,,,,,2023-08-16_08h40.22.606,HF_wild_card,2022.2.4,Win32,59.94844434,5ae8a935eb922200018fd0f3,64d2fd46c836a06233681665,64dc7d567a6b0686ea53d296,,,,,,,decisionTrl,resources/DY.BMP,resources/DP.BMP,Door3,0.358333333,-0.053703681,1,0,0,0.8033,optionRight,70,15710,7,24,0,24,0,1,,,,,,,,,,,,,,,,,,,,,,,,,,,,,,,,,,,,,,,
,,,,,,,,2023-08-16_08h40.22.606,HF_wild_card,2022.2.4,Win32,59.94844434,5ae8a935eb922200018fd0f3,64d2fd46c836a06233681665,64dc7d567a6b0686ea53d296,,,,,,,ctch,resources/DY.BMP,resources/DB.BMP,Door4,-0.324074097,-0.046296285,1,0,0,1.2815,optionLeft,80,15790,7,25,0,25,0,1,,,,,,,,,,,,,,,,,,,,,,,,,,,,,,,,,,,,,,,
,,,,,,,,2023-08-16_08h40.22.606,HF_wild_card,2022.2.4,Win32,59.94844434,5ae8a935eb922200018fd0f3,64d2fd46c836a06233681665,64dc7d567a6b0686ea53d296,,,,,,,decisionTrl,resources/DY.BMP,resources/DP.BMP,Door3,0.47037028,-0.000925903,1,0,0,1.1194,optionRight,70,15860,7,26,0,26,0,1,,,,,,,,,,,,,,,,,,,,,,,,,,,,,,,,,,,,,,,
,,,,,,,,2023-08-16_08h40.22.606,HF_wild_card,2022.2.4,Win32,59.94844434,5ae8a935eb922200018fd0f3,64d2fd46c836a06233681665,64dc7d567a6b0686ea53d296,,,,,,,decisionTrl,resources/DY.BMP,resources/DP.BMP,Door3,0.384259169,-0.087962918,1,0,0,0.8466,optionRight,70,15930,7,27,0,27,0,1,,,,,,,,,,,,,,,,,,,,,,,,,,,,,,,,,,,,,,,
,,,,,,,,2023-08-16_08h40.22.606,HF_wild_card,2022.2.4,Win32,59.94844434,5ae8a935eb922200018fd0f3,64d2fd46c836a06233681665,64dc7d567a6b0686ea53d296,,,,,,,decisionTrl,resources/DP.BMP,resources/DY.BMP,Door3,-0.499074063,-0.076851807,1,0,0,0.8704,optionLeft,70,16000,7,28,0,28,0,1,,,,,,,,,,,,,,,,,,,,,,,,,,,,,,,,,,,,,,,
,,,,,,,,2023-08-16_08h40.22.606,HF_wild_card,2022.2.4,Win32,59.94844434,5ae8a935eb922200018fd0f3,64d2fd46c836a06233681665,64dc7d567a6b0686ea53d296,,,,,,,decisionTrl,resources/DB.BMP,resources/DR.BMP,Door1,-0.297222222,-0.046296285,1,0,0,1.3507,optionLeft,30,16030,7,29,0,29,0,1,,,,,,,,,,,,,,,,,,,,,,,,,,,,,,,,,,,,,,,
,,,,,,,,2023-08-16_08h40.22.606,HF_wild_card,2022.2.4,Win32,59.94844434,5ae8a935eb922200018fd0f3,64d2fd46c836a06233681665,64dc7d567a6b0686ea53d296,,,,,,,ctch,resources/DY.BMP,resources/DB.BMP,Door4,-0.322222222,-0.060185174,1,0,0,0.9827,optionLeft,60,16090,7,30,0,30,0,1,,,,,,,,,,,,,,,,,,,,,,,,,,,,,,,,,,,,,,,
,,,,,,,,2023-08-16_08h40.22.606,HF_wild_card,2022.2.4,Win32,59.94844434,5ae8a935eb922200018fd0f3,64d2fd46c836a06233681665,64dc7d567a6b0686ea53d296,,,,,,,ctch,resources/DB.BMP,resources/DY.BMP,Door4,0.29537028,-0.023148126,1,0,0,1.2498,optionRight,60,16150,7,31,0,31,0,1,,,,,,,,,,,,,,,,,,,,,,,,,,,,,,,,,,,,,,,
,,,,,,,,2023-08-16_08h40.22.606,HF_wild_card,2022.2.4,Win32,59.94844434,5ae8a935eb922200018fd0f3,64d2fd46c836a06233681665,64dc7d567a6b0686ea53d296,,,,,,,decisionTrl,resources/DP.BMP,resources/DY.BMP,Door3,-0.403703715,0.00740743,1,0,0,1.0992,optionLeft,70,16220,7,32,0,32,0,1,,,,,,,,,,,,,,,,,,,,,,,,,,,,,,,,,,,,,,,
,,,,,,,,2023-08-16_08h40.22.606,HF_wild_card,2022.2.4,Win32,59.94844434,5ae8a935eb922200018fd0f3,64d2fd46c836a06233681665,64dc7d567a6b0686ea53d296,,,,,,,decisionTrl,resources/DB.BMP,resources/DR.BMP,Door1,-0.446296285,0.025,1,0,0,1.2313,optionLeft,30,16250,7,33,0,33,0,1,,,,,,,,,,,,,,,,,,,,,,,,,,,,,,,,,,,,,,,
,,,,,,,,2023-08-16_08h40.22.606,HF_wild_card,2022.2.4,Win32,59.94844434,5ae8a935eb922200018fd0f3,64d2fd46c836a06233681665,64dc7d567a6b0686ea53d296,,,,,,,ctch,resources/DB.BMP,resources/DY.BMP,Door1,-0.309259304,-0.025925903,1,0,0,0.9801,optionLeft,30,16280,7,34,0,34,0,1,,,,,,,,,,,,,,,,,,,,,,,,,,,,,,,,,,,,,,,
,,,,,,,,2023-08-16_08h40.22.606,HF_wild_card,2022.2.4,Win32,59.94844434,5ae8a935eb922200018fd0f3,64d2fd46c836a06233681665,64dc7d567a6b0686ea53d296,,,,,,,decisionTrl,resources/DR.BMP,resources/DB.BMP,Door1,0.409259169,-0.088888889,1,0,0,1.5821,optionRight,30,16310,7,35,0,35,0,1,,,,,,,,,,,,,,,,,,,,,,,,,,,,,,,,,,,,,,,
,,,,,,,,2023-08-16_08h40.22.606,HF_wild_card,2022.2.4,Win32,59.94844434,5ae8a935eb922200018fd0f3,64d2fd46c836a06233681665,64dc7d567a6b0686ea53d296,,,,,,,,,,,,,,,,,,,,,,,,,,6,0,6,0,1,,,,,,,,,,,,,,,,,,,,,,,,,,,,,,,,,,
,,,,,,,,2023-08-16_08h40.22.606,HF_wild_card,2022.2.4,Win32,59.94844434,5ae8a935eb922200018fd0f3,64d2fd46c836a06233681665,64dc7d567a6b0686ea53d296,,,,,,,,,,,,,,,,,,,,,,,,,,,,,,,4,,,,,,,,,,,,,,,,,,,,,,,,,,,,,,,,,
,,,,,,,,2023-08-16_08h40.22.606,HF_wild_card,2022.2.4,Win32,59.94844434,5ae8a935eb922200018fd0f3,64d2fd46c836a06233681665,64dc7d567a6b0686ea53d296,,,,,,,,,,,,,,,,,,,,,,,,,,,,,,,,,,,,,,,,,,,,,,,,,,,,,,,,,,,,,,,,
,,,,,,,,2023-08-16_08h40.22.606,HF_wild_card,2022.2.4,Win32,59.94844434,5ae8a935eb922200018fd0f3,64d2fd46c836a06233681665,64dc7d567a6b0686ea53d296,,,,,,,,,,,,,,,,,,,,,,,,,,,,,,,,55,WC_nonExtreme,resources/DBN.BMP,0,0,0,0,1,,,,,,,,,,,,,,,,,,,,,,,,,
,,,,,,,,2023-08-16_08h40.22.606,HF_wild_card,2022.2.4,Win32,59.94844434,5ae8a935eb922200018fd0f3,64d2fd46c836a06233681665,64dc7d567a6b0686ea53d296,,,,,,,,,,,,,,,,,,,,,,,,,,,,,,,,30,Door1,resources/DB.BMP,1,0,1,0,1,,,,,,,,,,,,,,,,,,,,,,,,,
,,,,,,,,2023-08-16_08h40.22.606,HF_wild_card,2022.2.4,Win32,59.94844434,5ae8a935eb922200018fd0f3,64d2fd46c836a06233681665,64dc7d567a6b0686ea53d296,,,,,,,,,,,,,,,,,,,,,,,,,,,,,,,,80,Door4,resources/DY.BMP,2,0,2,0,1,,,,,,,,,,,,,,,,,,,,,,,,,
,,,,,,,,2023-08-16_08h40.22.606,HF_wild_card,2022.2.4,Win32,59.94844434,5ae8a935eb922200018fd0f3,64d2fd46c836a06233681665,64dc7d567a6b0686ea53d296,,,,,,,,,,,,,,,,,,,,,,,,,,,,,,,,5,WC_extreme,resources/DG.BMP,3,0,3,0,1,,,,,,,,,,,,,,,,,,,,,,,,,
,,,,,,,,2023-08-16_08h40.22.606,HF_wild_card,2022.2.4,Win32,59.94844434,5ae8a935eb922200018fd0f3,64d2fd46c836a06233681665,64dc7d567a6b0686ea53d296,,,,,,,,,,,,,,,,,,,,,,,,,,,,,,,,20,Door2,resources/DR.BMP,4,0,4,0,1,,,,,,,,,,,,,,,,,,,,,,,,,
,,,,,,,,2023-08-16_08h40.22.606,HF_wild_card,2022.2.4,Win32,59.94844434,5ae8a935eb922200018fd0f3,64d2fd46c836a06233681665,64dc7d567a6b0686ea53d296,,,,,,,,,,,,,,,,,,,,,,,,,,,,,,,,70,Door3,resources/DP.BMP,5,0,5,0,1,,,,,,,,,,,,,,,,,,,,,,,,,
,,,,,,,,2023-08-16_08h40.22.606,HF_wild_card,2022.2.4,Win32,59.94844434,5ae8a935eb922200018fd0f3,64d2fd46c836a06233681665,64dc7d567a6b0686ea53d296,,,,,,,,,,,,,,,,,,,,,,,,,,,,,,,,,,,,,,,,,,,,,,,,,,,,,,,,,,,,,,,,
,,,,,,,,2023-08-16_08h40.22.606,HF_wild_card,2022.2.4,Win32,59.94844434,5ae8a935eb922200018fd0f3,64d2fd46c836a06233681665,64dc7d567a6b0686ea53d296,,,,,,,,,,,,,,,,,,,,,,,,,,,,,,,,,,,,,,,,0,0,0,0,1,,,,,,,,,,,,,,,,,,,,
