Condition,Low fixed image (Door1),Low risky image (Door2),High fixed image (Door3),High risky image (Door4),NonExtreme Wild Card 1,NonExtreme Wild Card 2,,date,expName,psychopyVersion,OS,frameRate,PROLIFIC_PID,STUDY_ID,SESSION_ID,mouse_2.x,mouse_2.y,mouse_2.leftButton,mouse_2.midButton,mouse_2.rightButton,mouse_2.clicked_name,Trial Type,Left Option Image,Right Option Image,Chosen Door,mouse.x,mouse.y,mouse.leftButton,mouse.midButton,mouse.rightButton,mouse.time,mouse.clicked_name,Feedback,Cumulative Reward,Block,trial.thisRepN,trial.thisTrialN,trial.thisN,trial.thisIndex,trial.ran,blocks.thisRepN,blocks.thisTrialN,blocks.thisN,blocks.thisIndex,blocks.ran,Money conversion,First Outcome Reported,Shown Door (First Outcome),Displayed Image (First Outcome),outcomes.thisRepN,outcomes.thisTrialN,outcomes.thisN,outcomes.thisIndex,outcomes.ran,judgments.thisRepN,judgments.thisTrialN,judgments.thisN,judgments.thisIndex,judgments.ran,freqMouse.x,freqMouse.y,freqMouse.leftButton,freqMouse.midButton,freqMouse.rightButton,freqMouse.clicked_name,FQJ for first outcome,FQJ for second outcome,Shown Door,Displayed Image,trials.thisRepN,trials.thisTrialN,trials.thisN,trials.thisIndex,trials.ran,judgBlock.thisRepN,judgBlock.thisTrialN,judgBlock.thisN,judgBlock.thisIndex,judgBlock.ran
2,resources/DB.BMP,resources/DP.BMP,resources/DR.BMP,resources/DY.BMP,resources/DG.BMP,resources/DBN.BMP,,2023-08-16_08h37.00.801,HF_wild_card,2022.2.4,MacIntel,58.82352941,5db5f2196a72a3000cc54aa4,64d2fd46c836a06233681665,64dc7c8712bc9838b71f2148,,,,,,,,,,,,,,,,,,,,,,,,,,,,,,,,,,,,,,,,,,,,,,,,,,,,,,,,,,,,,,,,
,,,,,,,,2023-08-16_08h37.00.801,HF_wild_card,2022.2.4,MacIntel,58.82352941,5db5f2196a72a3000cc54aa4,64d2fd46c836a06233681665,64dc7c8712bc9838b71f2148,0.0075,-0.4125,1,0,0,agree,,,,,,,,,,,,,,,,,,,,,,,,,,,,,,,,,,,,,,,,,,,,,,,,,,,,,,,,,,
,,,,,,,,2023-08-16_08h37.00.801,HF_wild_card,2022.2.4,MacIntel,58.82352941,5db5f2196a72a3000cc54aa4,64d2fd46c836a06233681665,64dc7c8712bc9838b71f2148,,,,,,,,,,,,,,,,,,,,,,,,,,,,,,,,,,,,,,,,,,,,,,,,,,,,,,,,,,,,,,,,
,,,,,,,,2023-08-16_08h37.00.801,HF_wild_card,2022.2.4,MacIntel,58.82352941,5db5f2196a72a3000cc54aa4,64d2fd46c836a06233681665,64dc7c8712bc9838b71f2148,,,,,,,decisionTrl,resources/DB.BMP,resources/DP.BMP,Door2,0.40875,-0.05125,1,0,0,4.353,optionRight,40,40,1,0,0,0,0,1,,,,,,,,,,,,,,,,,,,,,,,,,,,,,,,,,,,,,,,
,,,,,,,,2023-08-16_08h37.00.801,HF_wild_card,2022.2.4,MacIntel,58.82352941,5db5f2196a72a3000cc54aa4,64d2fd46c836a06233681665,64dc7c8712bc9838b71f2148,,,,,,,sngl,resources/DP.BMP,resources/Empty.png,Door2,-0.36,-0.02125,1,0,0,3.123,optionLeft,40,80,1,1,0,1,0,1,,,,,,,,,,,,,,,,,,,,,,,,,,,,,,,,,,,,,,,
,,,,,,,,2023-08-16_08h37.00.801,HF_wild_card,2022.2.4,MacIntel,58.82352941,5db5f2196a72a3000cc54aa4,64d2fd46c836a06233681665,64dc7c8712bc9838b71f2148,,,,,,,decisionTrl,resources/DBN.BMP,resources/DY.BMP,Door4,0.425,0.0325,1,0,0,2.674,optionRight,60,140,1,2,0,2,0,1,,,,,,,,,,,,,,,,,,,,,,,,,,,,,,,,,,,,,,,
,,,,,,,,2023-08-16_08h37.00.801,HF_wild_card,2022.2.4,MacIntel,58.82352941,5db5f2196a72a3000cc54aa4,64d2fd46c836a06233681665,64dc7c8712bc9838b71f2148,,,,,,,decisionTrl,resources/DP.BMP,resources/DB.BMP,Door2,-0.3825,-0.03875,1,0,0,1.941,optionLeft,40,180,1,3,0,3,0,1,,,,,,,,,,,,,,,,,,,,,,,,,,,,,,,,,,,,,,,
,,,,,,,,2023-08-16_08h37.00.801,HF_wild_card,2022.2.4,MacIntel,58.82352941,5db5f2196a72a3000cc54aa4,64d2fd46c836a06233681665,64dc7c8712bc9838b71f2148,,,,,,,decisionTrl,resources/DB.BMP,resources/DP.BMP,Door2,0.435,0.0325,1,0,0,1.842,optionRight,40,220,1,4,0,4,0,1,,,,,,,,,,,,,,,,,,,,,,,,,,,,,,,,,,,,,,,
,,,,,,,,2023-08-16_08h37.00.801,HF_wild_card,2022.2.4,MacIntel,58.82352941,5db5f2196a72a3000cc54aa4,64d2fd46c836a06233681665,64dc7c8712bc9838b71f2148,,,,,,,sngl,resources/Empty.png,resources/DBN.BMP,WildCard_NonEx,0.39125,0.025,1,0,0,1.791,optionRight,55,275,1,5,0,5,0,1,,,,,,,,,,,,,,,,,,,,,,,,,,,,,,,,,,,,,,,
,,,,,,,,2023-08-16_08h37.00.801,HF_wild_card,2022.2.4,MacIntel,58.82352941,5db5f2196a72a3000cc54aa4,64d2fd46c836a06233681665,64dc7c8712bc9838b71f2148,,,,,,,sngl,resources/DBN.BMP,resources/Empty.png,WildCard_NonEx,-0.38375,0.02875,1,0,0,1.474,optionLeft,45,320,1,6,0,6,0,1,,,,,,,,,,,,,,,,,,,,,,,,,,,,,,,,,,,,,,,
,,,,,,,,2023-08-16_08h37.00.801,HF_wild_card,2022.2.4,MacIntel,58.82352941,5db5f2196a72a3000cc54aa4,64d2fd46c836a06233681665,64dc7c8712bc9838b71f2148,,,,,,,decisionTrl,resources/DB.BMP,resources/DP.BMP,Door1,-0.35625,-0.01375,1,0,0,1.824,optionLeft,30,350,1,7,0,7,0,1,,,,,,,,,,,,,,,,,,,,,,,,,,,,,,,,,,,,,,,
,,,,,,,,2023-08-16_08h37.00.801,HF_wild_card,2022.2.4,MacIntel,58.82352941,5db5f2196a72a3000cc54aa4,64d2fd46c836a06233681665,64dc7c8712bc9838b71f2148,,,,,,,ctch,resources/DR.BMP,resources/DP.BMP,Door3,-0.44875,0.00875,1,0,0,3.011,optionLeft,70,420,1,8,0,8,0,1,,,,,,,,,,,,,,,,,,,,,,,,,,,,,,,,,,,,,,,
,,,,,,,,2023-08-16_08h37.00.801,HF_wild_card,2022.2.4,MacIntel,58.82352941,5db5f2196a72a3000cc54aa4,64d2fd46c836a06233681665,64dc7c8712bc9838b71f2148,,,,,,,decisionTrl,resources/DBN.BMP,resources/DR.BMP,Door3,0.405,0.01,1,0,0,1.874,optionRight,70,490,1,9,0,9,0,1,,,,,,,,,,,,,,,,,,,,,,,,,,,,,,,,,,,,,,,
,,,,,,,,2023-08-16_08h37.00.801,HF_wild_card,2022.2.4,MacIntel,58.82352941,5db5f2196a72a3000cc54aa4,64d2fd46c836a06233681665,64dc7c8712bc9838b71f2148,,,,,,,sngl,resources/Empty.png,resources/DR.BMP,Door3,0.37875,0.01375,1,0,0,2.16,optionRight,70,560,1,10,0,10,0,1,,,,,,,,,,,,,,,,,,,,,,,,,,,,,,,,,,,,,,,
,,,,,,,,2023-08-16_08h37.00.801,HF_wild_card,2022.2.4,MacIntel,58.82352941,5db5f2196a72a3000cc54aa4,64d2fd46c836a06233681665,64dc7c8712bc9838b71f2148,,,,,,,sngl,resources/DY.BMP,resources/Empty.png,Door4,-0.41,0.0525,1,0,0,2.057,optionLeft,80,640,1,11,0,11,0,1,,,,,,,,,,,,,,,,,,,,,,,,,,,,,,,,,,,,,,,
,,,,,,,,2023-08-16_08h37.00.801,HF_wild_card,2022.2.4,MacIntel,58.82352941,5db5f2196a72a3000cc54aa4,64d2fd46c836a06233681665,64dc7c8712bc9838b71f2148,,,,,,,decisionTrl,resources/DR.BMP,resources/DBN.BMP,Door3,-0.37,0.00625,1,0,0,2.058,optionLeft,70,710,1,12,0,12,0,1,,,,,,,,,,,,,,,,,,,,,,,,,,,,,,,,,,,,,,,
,,,,,,,,2023-08-16_08h37.00.801,HF_wild_card,2022.2.4,MacIntel,58.82352941,5db5f2196a72a3000cc54aa4,64d2fd46c836a06233681665,64dc7c8712bc9838b71f2148,,,,,,,decisionTrl,resources/DR.BMP,resources/DY.BMP,Door4,0.41125,-0.01125,1,0,0,2.119,optionRight,80,790,1,13,0,13,0,1,,,,,,,,,,,,,,,,,,,,,,,,,,,,,,,,,,,,,,,
,,,,,,,,2023-08-16_08h37.00.801,HF_wild_card,2022.2.4,MacIntel,58.82352941,5db5f2196a72a3000cc54aa4,64d2fd46c836a06233681665,64dc7c8712bc9838b71f2148,,,,,,,decisionTrl,resources/DR.BMP,resources/DY.BMP,Door4,0.36125,0.02,1,0,0,3.211,optionRight,60,850,1,14,0,14,0,1,,,,,,,,,,,,,,,,,,,,,,,,,,,,,,,,,,,,,,,
,,,,,,,,2023-08-16_08h37.00.801,HF_wild_card,2022.2.4,MacIntel,58.82352941,5db5f2196a72a3000cc54aa4,64d2fd46c836a06233681665,64dc7c8712bc9838b71f2148,,,,,,,sngl,resources/Empty.png,resources/DBN.BMP,WildCard_NonEx,0.365,0.02875,1,0,0,1.557,optionRight,45,895,1,15,0,15,0,1,,,,,,,,,,,,,,,,,,,,,,,,,,,,,,,,,,,,,,,
,,,,,,,,2023-08-16_08h37.00.801,HF_wild_card,2022.2.4,MacIntel,58.82352941,5db5f2196a72a3000cc54aa4,64d2fd46c836a06233681665,64dc7c8712bc9838b71f2148,,,,,,,decisionTrl,resources/DP.BMP,resources/DB.BMP,Door2,-0.3925,-0.0625,1,0,0,1.827,optionLeft,40,935,1,16,0,16,0,1,,,,,,,,,,,,,,,,,,,,,,,,,,,,,,,,,,,,,,,
,,,,,,,,2023-08-16_08h37.00.801,HF_wild_card,2022.2.4,MacIntel,58.82352941,5db5f2196a72a3000cc54aa4,64d2fd46c836a06233681665,64dc7c8712bc9838b71f2148,,,,,,,decisionTrl,resources/DP.BMP,resources/DB.BMP,Door1,0.38,-0.0075,1,0,0,1.741,optionRight,30,965,1,17,0,17,0,1,,,,,,,,,,,,,,,,,,,,,,,,,,,,,,,,,,,,,,,
,,,,,,,,2023-08-16_08h37.00.801,HF_wild_card,2022.2.4,MacIntel,58.82352941,5db5f2196a72a3000cc54aa4,64d2fd46c836a06233681665,64dc7c8712bc9838b71f2148,,,,,,,ctch,resources/DB.BMP,resources/DY.BMP,Door4,0.37125,0.0125,1,0,0,1.495,optionRight,60,1025,1,18,0,18,0,1,,,,,,,,,,,,,,,,,,,,,,,,,,,,,,,,,,,,,,,
,,,,,,,,2023-08-16_08h37.00.801,HF_wild_card,2022.2.4,MacIntel,58.82352941,5db5f2196a72a3000cc54aa4,64d2fd46c836a06233681665,64dc7c8712bc9838b71f2148,,,,,,,ctch,resources/DB.BMP,resources/DY.BMP,Door4,0.4425,0.015,1,0,0,1.575,optionRight,60,1085,1,19,0,19,0,1,,,,,,,,,,,,,,,,,,,,,,,,,,,,,,,,,,,,,,,
,,,,,,,,2023-08-16_08h37.00.801,HF_wild_card,2022.2.4,MacIntel,58.82352941,5db5f2196a72a3000cc54aa4,64d2fd46c836a06233681665,64dc7c8712bc9838b71f2148,,,,,,,decisionTrl,resources/DY.BMP,resources/DR.BMP,Door3,0.35875,0.0125,1,0,0,1.925,optionRight,70,1155,1,20,0,20,0,1,,,,,,,,,,,,,,,,,,,,,,,,,,,,,,,,,,,,,,,
,,,,,,,,2023-08-16_08h37.00.801,HF_wild_card,2022.2.4,MacIntel,58.82352941,5db5f2196a72a3000cc54aa4,64d2fd46c836a06233681665,64dc7c8712bc9838b71f2148,,,,,,,sngl,resources/DB.BMP,resources/Empty.png,Door1,-0.33375,-0.00125,1,0,0,1.661,optionLeft,30,1185,1,21,0,21,0,1,,,,,,,,,,,,,,,,,,,,,,,,,,,,,,,,,,,,,,,
,,,,,,,,2023-08-16_08h37.00.801,HF_wild_card,2022.2.4,MacIntel,58.82352941,5db5f2196a72a3000cc54aa4,64d2fd46c836a06233681665,64dc7c8712bc9838b71f2148,,,,,,,sngl,resources/DR.BMP,resources/Empty.png,Door3,-0.29375,0.0025,1,0,0,1.755,optionLeft,70,1255,1,22,0,22,0,1,,,,,,,,,,,,,,,,,,,,,,,,,,,,,,,,,,,,,,,
,,,,,,,,2023-08-16_08h37.00.801,HF_wild_card,2022.2.4,MacIntel,58.82352941,5db5f2196a72a3000cc54aa4,64d2fd46c836a06233681665,64dc7c8712bc9838b71f2148,,,,,,,ctch,resources/DP.BMP,resources/DR.BMP,Door3,0.34875,0.01625,1,0,0,2.525,optionRight,70,1325,1,23,0,23,0,1,,,,,,,,,,,,,,,,,,,,,,,,,,,,,,,,,,,,,,,
,,,,,,,,2023-08-16_08h37.00.801,HF_wild_card,2022.2.4,MacIntel,58.82352941,5db5f2196a72a3000cc54aa4,64d2fd46c836a06233681665,64dc7c8712bc9838b71f2148,,,,,,,ctch,resources/DY.BMP,resources/DB.BMP,Door4,-0.29125,-0.065,1,0,0,1.63,optionLeft,80,1405,1,24,0,24,0,1,,,,,,,,,,,,,,,,,,,,,,,,,,,,,,,,,,,,,,,
,,,,,,,,2023-08-16_08h37.00.801,HF_wild_card,2022.2.4,MacIntel,58.82352941,5db5f2196a72a3000cc54aa4,64d2fd46c836a06233681665,64dc7c8712bc9838b71f2148,,,,,,,decisionTrl,resources/DY.BMP,resources/DBN.BMP,WildCard_NonEx,0.38125,0.04625,1,0,0,1.875,optionRight,45,1450,1,25,0,25,0,1,,,,,,,,,,,,,,,,,,,,,,,,,,,,,,,,,,,,,,,
,,,,,,,,2023-08-16_08h37.00.801,HF_wild_card,2022.2.4,MacIntel,58.82352941,5db5f2196a72a3000cc54aa4,64d2fd46c836a06233681665,64dc7c8712bc9838b71f2148,,,,,,,ctch,resources/DP.BMP,resources/DR.BMP,Door3,0.38,0.01125,1,0,0,1.576,optionRight,70,1520,1,26,0,26,0,1,,,,,,,,,,,,,,,,,,,,,,,,,,,,,,,,,,,,,,,
,,,,,,,,2023-08-16_08h37.00.801,HF_wild_card,2022.2.4,MacIntel,58.82352941,5db5f2196a72a3000cc54aa4,64d2fd46c836a06233681665,64dc7c8712bc9838b71f2148,,,,,,,decisionTrl,resources/DY.BMP,resources/DR.BMP,Door3,0.4025,-0.0225,1,0,0,1.692,optionRight,70,1590,1,27,0,27,0,1,,,,,,,,,,,,,,,,,,,,,,,,,,,,,,,,,,,,,,,
,,,,,,,,2023-08-16_08h37.00.801,HF_wild_card,2022.2.4,MacIntel,58.82352941,5db5f2196a72a3000cc54aa4,64d2fd46c836a06233681665,64dc7c8712bc9838b71f2148,,,,,,,decisionTrl,resources/DB.BMP,resources/DBN.BMP,WildCard_NonEx,0.3625,0.055,1,0,0,1.775,optionRight,55,1645,1,28,0,28,0,1,,,,,,,,,,,,,,,,,,,,,,,,,,,,,,,,,,,,,,,
,,,,,,,,2023-08-16_08h37.00.801,HF_wild_card,2022.2.4,MacIntel,58.82352941,5db5f2196a72a3000cc54aa4,64d2fd46c836a06233681665,64dc7c8712bc9838b71f2148,,,,,,,decisionTrl,resources/DP.BMP,resources/DBN.BMP,Door2,-0.4025,0.0025,1,0,0,2.326,optionLeft,40,1685,1,29,0,29,0,1,,,,,,,,,,,,,,,,,,,,,,,,,,,,,,,,,,,,,,,
,,,,,,,,2023-08-16_08h37.00.801,HF_wild_card,2022.2.4,MacIntel,58.82352941,5db5f2196a72a3000cc54aa4,64d2fd46c836a06233681665,64dc7c8712bc9838b71f2148,,,,,,,ctch,resources/DR.BMP,resources/DP.BMP,Door3,-0.3525,0.025,1,0,0,1.607,optionLeft,70,1755,1,30,0,30,0,1,,,,,,,,,,,,,,,,,,,,,,,,,,,,,,,,,,,,,,,
,,,,,,,,2023-08-16_08h37.00.801,HF_wild_card,2022.2.4,MacIntel,58.82352941,5db5f2196a72a3000cc54aa4,64d2fd46c836a06233681665,64dc7c8712bc9838b71f2148,,,,,,,sngl,resources/Empty.png,resources/DP.BMP,Door2,0.4125,0.0125,1,0,0,1.658,optionRight,20,1775,1,31,0,31,0,1,,,,,,,,,,,,,,,,,,,,,,,,,,,,,,,,,,,,,,,
,,,,,,,,2023-08-16_08h37.00.801,HF_wild_card,2022.2.4,MacIntel,58.82352941,5db5f2196a72a3000cc54aa4,64d2fd46c836a06233681665,64dc7c8712bc9838b71f2148,,,,,,,decisionTrl,resources/DY.BMP,resources/DR.BMP,Door4,-0.3625,-0.02375,1,0,0,1.878,optionLeft,60,1835,1,32,0,32,0,1,,,,,,,,,,,,,,,,,,,,,,,,,,,,,,,,,,,,,,,
,,,,,,,,2023-08-16_08h37.00.801,HF_wild_card,2022.2.4,MacIntel,58.82352941,5db5f2196a72a3000cc54aa4,64d2fd46c836a06233681665,64dc7c8712bc9838b71f2148,,,,,,,decisionTrl,resources/DP.BMP,resources/DB.BMP,Door2,-0.37125,-0.00375,1,0,0,1.429,optionLeft,40,1875,1,33,0,33,0,1,,,,,,,,,,,,,,,,,,,,,,,,,,,,,,,,,,,,,,,
,,,,,,,,2023-08-16_08h37.00.801,HF_wild_card,2022.2.4,MacIntel,58.82352941,5db5f2196a72a3000cc54aa4,64d2fd46c836a06233681665,64dc7c8712bc9838b71f2148,,,,,,,decisionTrl,resources/DBN.BMP,resources/DB.BMP,WildCard_NonEx,-0.32125,0.0275,1,0,0,1.675,optionLeft,55,1930,1,34,0,34,0,1,,,,,,,,,,,,,,,,,,,,,,,,,,,,,,,,,,,,,,,
,,,,,,,,2023-08-16_08h37.00.801,HF_wild_card,2022.2.4,MacIntel,58.82352941,5db5f2196a72a3000cc54aa4,64d2fd46c836a06233681665,64dc7c8712bc9838b71f2148,,,,,,,decisionTrl,resources/DR.BMP,resources/DY.BMP,Door3,-0.39625,0.01125,1,0,0,1.65,optionLeft,70,2000,1,35,0,35,0,1,,,,,,,,,,,,,,,,,,,,,,,,,,,,,,,,,,,,,,,
,,,,,,,,2023-08-16_08h37.00.801,HF_wild_card,2022.2.4,MacIntel,58.82352941,5db5f2196a72a3000cc54aa4,64d2fd46c836a06233681665,64dc7c8712bc9838b71f2148,,,,,,,decisionTrl,resources/DB.BMP,resources/DP.BMP,Door1,-0.33875,0.0225,1,0,0,1.508,optionLeft,30,2030,1,36,0,36,0,1,,,,,,,,,,,,,,,,,,,,,,,,,,,,,,,,,,,,,,,
,,,,,,,,2023-08-16_08h37.00.801,HF_wild_card,2022.2.4,MacIntel,58.82352941,5db5f2196a72a3000cc54aa4,64d2fd46c836a06233681665,64dc7c8712bc9838b71f2148,,,,,,,sngl,resources/Empty.png,resources/DB.BMP,Door1,0.3725,0.01875,1,0,0,1.46,optionRight,30,2060,1,37,0,37,0,1,,,,,,,,,,,,,,,,,,,,,,,,,,,,,,,,,,,,,,,
,,,,,,,,2023-08-16_08h37.00.801,HF_wild_card,2022.2.4,MacIntel,58.82352941,5db5f2196a72a3000cc54aa4,64d2fd46c836a06233681665,64dc7c8712bc9838b71f2148,,,,,,,sngl,resources/Empty.png,resources/DY.BMP,Door4,0.4225,0.0375,1,0,0,1.291,optionRight,60,2120,1,38,0,38,0,1,,,,,,,,,,,,,,,,,,,,,,,,,,,,,,,,,,,,,,,
,,,,,,,,2023-08-16_08h37.00.801,HF_wild_card,2022.2.4,MacIntel,58.82352941,5db5f2196a72a3000cc54aa4,64d2fd46c836a06233681665,64dc7c8712bc9838b71f2148,,,,,,,ctch,resources/DY.BMP,resources/DB.BMP,Door4,-0.43,-0.0475,1,0,0,1.291,optionLeft,80,2200,1,39,0,39,0,1,,,,,,,,,,,,,,,,,,,,,,,,,,,,,,,,,,,,,,,
,,,,,,,,2023-08-16_08h37.00.801,HF_wild_card,2022.2.4,MacIntel,58.82352941,5db5f2196a72a3000cc54aa4,64d2fd46c836a06233681665,64dc7c8712bc9838b71f2148,,,,,,,decisionTrl,resources/DBN.BMP,resources/DP.BMP,WildCard_NonEx,-0.35875,0.02125,1,0,0,1.293,optionLeft,55,2255,1,40,0,40,0,1,,,,,,,,,,,,,,,,,,,,,,,,,,,,,,,,,,,,,,,
,,,,,,,,2023-08-16_08h37.00.801,HF_wild_card,2022.2.4,MacIntel,58.82352941,5db5f2196a72a3000cc54aa4,64d2fd46c836a06233681665,64dc7c8712bc9838b71f2148,,,,,,,decisionTrl,resources/DY.BMP,resources/DR.BMP,Door4,-0.355,0.0325,1,0,0,1.193,optionLeft,60,2315,1,41,0,41,0,1,,,,,,,,,,,,,,,,,,,,,,,,,,,,,,,,,,,,,,,
,,,,,,,,2023-08-16_08h37.00.801,HF_wild_card,2022.2.4,MacIntel,58.82352941,5db5f2196a72a3000cc54aa4,64d2fd46c836a06233681665,64dc7c8712bc9838b71f2148,,,,,,,decisionTrl,resources/DR.BMP,resources/DY.BMP,Door3,-0.35125,-0.025,1,0,0,1.458,optionLeft,70,2385,1,42,0,42,0,1,,,,,,,,,,,,,,,,,,,,,,,,,,,,,,,,,,,,,,,
,,,,,,,,2023-08-16_08h37.00.801,HF_wild_card,2022.2.4,MacIntel,58.82352941,5db5f2196a72a3000cc54aa4,64d2fd46c836a06233681665,64dc7c8712bc9838b71f2148,,,,,,,sngl,resources/DBN.BMP,resources/Empty.png,WildCard_NonEx,-0.32875,0.04875,1,0,0,1.391,optionLeft,55,2440,1,43,0,43,0,1,,,,,,,,,,,,,,,,,,,,,,,,,,,,,,,,,,,,,,,
,,,,,,,,2023-08-16_08h37.00.801,HF_wild_card,2022.2.4,MacIntel,58.82352941,5db5f2196a72a3000cc54aa4,64d2fd46c836a06233681665,64dc7c8712bc9838b71f2148,,,,,,,,,,,,,,,,,,,,,,,,,,0,0,0,0,1,,,,,,,,,,,,,,,,,,,,,,,,,,,,,,,,,,
,,,,,,,,2023-08-16_08h37.00.801,HF_wild_card,2022.2.4,MacIntel,58.82352941,5db5f2196a72a3000cc54aa4,64d2fd46c836a06233681665,64dc7c8712bc9838b71f2148,,,,,,,sngl,resources/Empty.png,resources/DY.BMP,Door4,0.34125,0.00625,1,0,0,1.119,optionRight,80,2520,2,0,0,0,0,1,,,,,,,,,,,,,,,,,,,,,,,,,,,,,,,,,,,,,,,
,,,,,,,,2023-08-16_08h37.00.801,HF_wild_card,2022.2.4,MacIntel,58.82352941,5db5f2196a72a3000cc54aa4,64d2fd46c836a06233681665,64dc7c8712bc9838b71f2148,,,,,,,ctch,resources/DB.BMP,resources/DY.BMP,Door4,0.38,0.01375,1,0,0,1.275,optionRight,80,2600,2,1,0,1,0,1,,,,,,,,,,,,,,,,,,,,,,,,,,,,,,,,,,,,,,,
,,,,,,,,2023-08-16_08h37.00.801,HF_wild_card,2022.2.4,MacIntel,58.82352941,5db5f2196a72a3000cc54aa4,64d2fd46c836a06233681665,64dc7c8712bc9838b71f2148,,,,,,,decisionTrl,resources/DR.BMP,resources/DY.BMP,Door3,-0.40125,-0.0125,1,0,0,1.308,optionLeft,70,2670,2,2,0,2,0,1,,,,,,,,,,,,,,,,,,,,,,,,,,,,,,,,,,,,,,,
,,,,,,,,2023-08-16_08h37.00.801,HF_wild_card,2022.2.4,MacIntel,58.82352941,5db5f2196a72a3000cc54aa4,64d2fd46c836a06233681665,64dc7c8712bc9838b71f2148,,,,,,,decisionTrl,resources/DR.BMP,resources/DY.BMP,Door3,-0.405,-0.025,1,0,0,1.692,optionLeft,70,2740,2,3,0,3,0,1,,,,,,,,,,,,,,,,,,,,,,,,,,,,,,,,,,,,,,,
,,,,,,,,2023-08-16_08h37.00.801,HF_wild_card,2022.2.4,MacIntel,58.82352941,5db5f2196a72a3000cc54aa4,64d2fd46c836a06233681665,64dc7c8712bc9838b71f2148,,,,,,,sngl,resources/Empty.png,resources/DP.BMP,Door2,0.36125,0,1,0,0,1.34,optionRight,40,2780,2,4,0,4,0,1,,,,,,,,,,,,,,,,,,,,,,,,,,,,,,,,,,,,,,,
,,,,,,,,2023-08-16_08h37.00.801,HF_wild_card,2022.2.4,MacIntel,58.82352941,5db5f2196a72a3000cc54aa4,64d2fd46c836a06233681665,64dc7c8712bc9838b71f2148,,,,,,,decisionTrl,resources/DP.BMP,resources/DB.BMP,Door1,0.31875,-0.00375,1,0,0,1.135,optionRight,30,2810,2,5,0,5,0,1,,,,,,,,,,,,,,,,,,,,,,,,,,,,,,,,,,,,,,,
,,,,,,,,2023-08-16_08h37.00.801,HF_wild_card,2022.2.4,MacIntel,58.82352941,5db5f2196a72a3000cc54aa4,64d2fd46c836a06233681665,64dc7c8712bc9838b71f2148,,,,,,,decisionTrl,resources/DY.BMP,resources/DR.BMP,Door3,0.41125,-0.0025,1,0,0,1.444,optionRight,70,2880,2,6,0,6,0,1,,,,,,,,,,,,,,,,,,,,,,,,,,,,,,,,,,,,,,,
,,,,,,,,2023-08-16_08h37.00.801,HF_wild_card,2022.2.4,MacIntel,58.82352941,5db5f2196a72a3000cc54aa4,64d2fd46c836a06233681665,64dc7c8712bc9838b71f2148,,,,,,,decisionTrl,resources/DB.BMP,resources/DP.BMP,Door1,-0.37,-0.0225,1,0,0,1.56,optionLeft,30,2910,2,7,0,7,0,1,,,,,,,,,,,,,,,,,,,,,,,,,,,,,,,,,,,,,,,
,,,,,,,,2023-08-16_08h37.00.801,HF_wild_card,2022.2.4,MacIntel,58.82352941,5db5f2196a72a3000cc54aa4,64d2fd46c836a06233681665,64dc7c8712bc9838b71f2148,,,,,,,decisionTrl,resources/DY.BMP,resources/DR.BMP,Door3,0.3925,-0.00625,1,0,0,1.494,optionRight,70,2980,2,8,0,8,0,1,,,,,,,,,,,,,,,,,,,,,,,,,,,,,,,,,,,,,,,
,,,,,,,,2023-08-16_08h37.00.801,HF_wild_card,2022.2.4,MacIntel,58.82352941,5db5f2196a72a3000cc54aa4,64d2fd46c836a06233681665,64dc7c8712bc9838b71f2148,,,,,,,sngl,resources/Empty.png,resources/DR.BMP,Door3,0.36375,-0.00625,1,0,0,0.967,optionRight,70,3050,2,9,0,9,0,1,,,,,,,,,,,,,,,,,,,,,,,,,,,,,,,,,,,,,,,
,,,,,,,,2023-08-16_08h37.00.801,HF_wild_card,2022.2.4,MacIntel,58.82352941,5db5f2196a72a3000cc54aa4,64d2fd46c836a06233681665,64dc7c8712bc9838b71f2148,,,,,,,sngl,resources/DB.BMP,resources/Empty.png,Door1,-0.34,-0.01,1,0,0,0.96,optionLeft,30,3080,2,10,0,10,0,1,,,,,,,,,,,,,,,,,,,,,,,,,,,,,,,,,,,,,,,
,,,,,,,,2023-08-16_08h37.00.801,HF_wild_card,2022.2.4,MacIntel,58.82352941,5db5f2196a72a3000cc54aa4,64d2fd46c836a06233681665,64dc7c8712bc9838b71f2148,,,,,,,decisionTrl,resources/DP.BMP,resources/DBN.BMP,Door2,-0.29875,-0.03125,1,0,0,1.377,optionLeft,20,3100,2,11,0,11,0,1,,,,,,,,,,,,,,,,,,,,,,,,,,,,,,,,,,,,,,,
,,,,,,,,2023-08-16_08h37.00.801,HF_wild_card,2022.2.4,MacIntel,58.82352941,5db5f2196a72a3000cc54aa4,64d2fd46c836a06233681665,64dc7c8712bc9838b71f2148,,,,,,,decisionTrl,resources/DY.BMP,resources/DR.BMP,Door4,-0.34875,-0.02625,1,0,0,1.294,optionLeft,80,3180,2,12,0,12,0,1,,,,,,,,,,,,,,,,,,,,,,,,,,,,,,,,,,,,,,,
,,,,,,,,2023-08-16_08h37.00.801,HF_wild_card,2022.2.4,MacIntel,58.82352941,5db5f2196a72a3000cc54aa4,64d2fd46c836a06233681665,64dc7c8712bc9838b71f2148,,,,,,,decisionTrl,resources/DR.BMP,resources/DBN.BMP,WildCard_NonEx,0.40125,0.04,1,0,0,1.427,optionRight,55,3235,2,13,0,13,0,1,,,,,,,,,,,,,,,,,,,,,,,,,,,,,,,,,,,,,,,
,,,,,,,,2023-08-16_08h37.00.801,HF_wild_card,2022.2.4,MacIntel,58.82352941,5db5f2196a72a3000cc54aa4,64d2fd46c836a06233681665,64dc7c8712bc9838b71f2148,,,,,,,decisionTrl,resources/DB.BMP,resources/DP.BMP,Door1,-0.2775,-0.01625,1,0,0,1.627,optionLeft,30,3265,2,14,0,14,0,1,,,,,,,,,,,,,,,,,,,,,,,,,,,,,,,,,,,,,,,
,,,,,,,,2023-08-16_08h37.00.801,HF_wild_card,2022.2.4,MacIntel,58.82352941,5db5f2196a72a3000cc54aa4,64d2fd46c836a06233681665,64dc7c8712bc9838b71f2148,,,,,,,ctch,resources/DP.BMP,resources/DR.BMP,Door3,0.41875,-0.015,1,0,0,1.394,optionRight,70,3335,2,15,0,15,0,1,,,,,,,,,,,,,,,,,,,,,,,,,,,,,,,,,,,,,,,
,,,,,,,,2023-08-16_08h37.00.801,HF_wild_card,2022.2.4,MacIntel,58.82352941,5db5f2196a72a3000cc54aa4,64d2fd46c836a06233681665,64dc7c8712bc9838b71f2148,,,,,,,decisionTrl,resources/DP.BMP,resources/DB.BMP,Door1,0.315,-0.01875,1,0,0,2.327,optionRight,30,3365,2,16,0,16,0,1,,,,,,,,,,,,,,,,,,,,,,,,,,,,,,,,,,,,,,,
,,,,,,,,2023-08-16_08h37.00.801,HF_wild_card,2022.2.4,MacIntel,58.82352941,5db5f2196a72a3000cc54aa4,64d2fd46c836a06233681665,64dc7c8712bc9838b71f2148,,,,,,,ctch,resources/DB.BMP,resources/DY.BMP,Door4,0.4475,0.00625,1,0,0,1.591,optionRight,60,3425,2,17,0,17,0,1,,,,,,,,,,,,,,,,,,,,,,,,,,,,,,,,,,,,,,,
,,,,,,,,2023-08-16_08h37.00.801,HF_wild_card,2022.2.4,MacIntel,58.82352941,5db5f2196a72a3000cc54aa4,64d2fd46c836a06233681665,64dc7c8712bc9838b71f2148,,,,,,,sngl,resources/DP.BMP,resources/Empty.png,Door2,-0.2725,-0.00875,1,0,0,1.424,optionLeft,20,3445,2,18,0,18,0,1,,,,,,,,,,,,,,,,,,,,,,,,,,,,,,,,,,,,,,,
,,,,,,,,2023-08-16_08h37.00.801,HF_wild_card,2022.2.4,MacIntel,58.82352941,5db5f2196a72a3000cc54aa4,64d2fd46c836a06233681665,64dc7c8712bc9838b71f2148,,,,,,,sngl,resources/Empty.png,resources/DBN.BMP,WildCard_NonEx,0.35125,0.0525,1,0,0,1.075,optionRight,45,3490,2,19,0,19,0,1,,,,,,,,,,,,,,,,,,,,,,,,,,,,,,,,,,,,,,,
,,,,,,,,2023-08-16_08h37.00.801,HF_wild_card,2022.2.4,MacIntel,58.82352941,5db5f2196a72a3000cc54aa4,64d2fd46c836a06233681665,64dc7c8712bc9838b71f2148,,,,,,,decisionTrl,resources/DBN.BMP,resources/DY.BMP,Door4,0.40375,-0.01625,1,0,0,1.825,optionRight,80,3570,2,20,0,20,0,1,,,,,,,,,,,,,,,,,,,,,,,,,,,,,,,,,,,,,,,
,,,,,,,,2023-08-16_08h37.00.801,HF_wild_card,2022.2.4,MacIntel,58.82352941,5db5f2196a72a3000cc54aa4,64d2fd46c836a06233681665,64dc7c8712bc9838b71f2148,,,,,,,sngl,resources/DBN.BMP,resources/Empty.png,WildCard_NonEx,-0.3525,0.0125,1,0,0,1.127,optionLeft,45,3615,2,21,0,21,0,1,,,,,,,,,,,,,,,,,,,,,,,,,,,,,,,,,,,,,,,
,,,,,,,,2023-08-16_08h37.00.801,HF_wild_card,2022.2.4,MacIntel,58.82352941,5db5f2196a72a3000cc54aa4,64d2fd46c836a06233681665,64dc7c8712bc9838b71f2148,,,,,,,decisionTrl,resources/DR.BMP,resources/DY.BMP,Door4,0.33125,0.0325,1,0,0,1.495,optionRight,80,3695,2,22,0,22,0,1,,,,,,,,,,,,,,,,,,,,,,,,,,,,,,,,,,,,,,,
,,,,,,,,2023-08-16_08h37.00.801,HF_wild_card,2022.2.4,MacIntel,58.82352941,5db5f2196a72a3000cc54aa4,64d2fd46c836a06233681665,64dc7c8712bc9838b71f2148,,,,,,,decisionTrl,resources/DB.BMP,resources/DP.BMP,Door2,0.34375,-0.00875,1,0,0,2.225,optionRight,20,3715,2,23,0,23,0,1,,,,,,,,,,,,,,,,,,,,,,,,,,,,,,,,,,,,,,,
,,,,,,,,2023-08-16_08h37.00.801,HF_wild_card,2022.2.4,MacIntel,58.82352941,5db5f2196a72a3000cc54aa4,64d2fd46c836a06233681665,64dc7c8712bc9838b71f2148,,,,,,,ctch,resources/DR.BMP,resources/DP.BMP,Door3,-0.3925,0.0275,1,0,0,1.275,optionLeft,70,3785,2,24,0,24,0,1,,,,,,,,,,,,,,,,,,,,,,,,,,,,,,,,,,,,,,,
,,,,,,,,2023-08-16_08h37.00.801,HF_wild_card,2022.2.4,MacIntel,58.82352941,5db5f2196a72a3000cc54aa4,64d2fd46c836a06233681665,64dc7c8712bc9838b71f2148,,,,,,,decisionTrl,resources/DP.BMP,resources/DB.BMP,Door1,0.32875,-0.01875,1,0,0,1.707,optionRight,30,3815,2,25,0,25,0,1,,,,,,,,,,,,,,,,,,,,,,,,,,,,,,,,,,,,,,,
,,,,,,,,2023-08-16_08h37.00.801,HF_wild_card,2022.2.4,MacIntel,58.82352941,5db5f2196a72a3000cc54aa4,64d2fd46c836a06233681665,64dc7c8712bc9838b71f2148,,,,,,,ctch,resources/DP.BMP,resources/DR.BMP,Door3,0.41875,-0.01625,1,0,0,1.48,optionRight,70,3885,2,26,0,26,0,1,,,,,,,,,,,,,,,,,,,,,,,,,,,,,,,,,,,,,,,
,,,,,,,,2023-08-16_08h37.00.801,HF_wild_card,2022.2.4,MacIntel,58.82352941,5db5f2196a72a3000cc54aa4,64d2fd46c836a06233681665,64dc7c8712bc9838b71f2148,,,,,,,ctch,resources/DR.BMP,resources/DP.BMP,Door3,-0.35,-0.0025,1,0,0,1.161,optionLeft,70,3955,2,27,0,27,0,1,,,,,,,,,,,,,,,,,,,,,,,,,,,,,,,,,,,,,,,
,,,,,,,,2023-08-16_08h37.00.801,HF_wild_card,2022.2.4,MacIntel,58.82352941,5db5f2196a72a3000cc54aa4,64d2fd46c836a06233681665,64dc7c8712bc9838b71f2148,,,,,,,sngl,resources/DR.BMP,resources/Empty.png,Door3,-0.3,0.0125,1,0,0,1.212,optionLeft,70,4025,2,28,0,28,0,1,,,,,,,,,,,,,,,,,,,,,,,,,,,,,,,,,,,,,,,
,,,,,,,,2023-08-16_08h37.00.801,HF_wild_card,2022.2.4,MacIntel,58.82352941,5db5f2196a72a3000cc54aa4,64d2fd46c836a06233681665,64dc7c8712bc9838b71f2148,,,,,,,decisionTrl,resources/DBN.BMP,resources/DB.BMP,WildCard_NonEx,-0.415,-0.0175,1,0,0,1.71,optionLeft,55,4080,2,29,0,29,0,1,,,,,,,,,,,,,,,,,,,,,,,,,,,,,,,,,,,,,,,
,,,,,,,,2023-08-16_08h37.00.801,HF_wild_card,2022.2.4,MacIntel,58.82352941,5db5f2196a72a3000cc54aa4,64d2fd46c836a06233681665,64dc7c8712bc9838b71f2148,,,,,,,decisionTrl,resources/DR.BMP,resources/DY.BMP,Door4,0.375,-0.0175,1,0,0,1.23,optionRight,80,4160,2,30,0,30,0,1,,,,,,,,,,,,,,,,,,,,,,,,,,,,,,,,,,,,,,,
,,,,,,,,2023-08-16_08h37.00.801,HF_wild_card,2022.2.4,MacIntel,58.82352941,5db5f2196a72a3000cc54aa4,64d2fd46c836a06233681665,64dc7c8712bc9838b71f2148,,,,,,,decisionTrl,resources/DB.BMP,resources/DP.BMP,Door1,-0.3825,-0.01625,1,0,0,1.047,optionLeft,30,4190,2,31,0,31,0,1,,,,,,,,,,,,,,,,,,,,,,,,,,,,,,,,,,,,,,,
,,,,,,,,2023-08-16_08h37.00.801,HF_wild_card,2022.2.4,MacIntel,58.82352941,5db5f2196a72a3000cc54aa4,64d2fd46c836a06233681665,64dc7c8712bc9838b71f2148,,,,,,,decisionTrl,resources/DB.BMP,resources/DBN.BMP,WildCard_NonEx,0.3375,0.04375,1,0,0,2.125,optionRight,55,4245,2,32,0,32,0,1,,,,,,,,,,,,,,,,,,,,,,,,,,,,,,,,,,,,,,,
,,,,,,,,2023-08-16_08h37.00.801,HF_wild_card,2022.2.4,MacIntel,58.82352941,5db5f2196a72a3000cc54aa4,64d2fd46c836a06233681665,64dc7c8712bc9838b71f2148,,,,,,,decisionTrl,resources/DBN.BMP,resources/DR.BMP,Door3,0.3975,0,1,0,0,2.558,optionRight,70,4315,2,33,0,33,0,1,,,,,,,,,,,,,,,,,,,,,,,,,,,,,,,,,,,,,,,
,,,,,,,,2023-08-16_08h37.00.801,HF_wild_card,2022.2.4,MacIntel,58.82352941,5db5f2196a72a3000cc54aa4,64d2fd46c836a06233681665,64dc7c8712bc9838b71f2148,,,,,,,sngl,resources/Empty.png,resources/DB.BMP,Door1,0.2975,0.02625,1,0,0,1.228,optionRight,30,4345,2,34,0,34,0,1,,,,,,,,,,,,,,,,,,,,,,,,,,,,,,,,,,,,,,,
,,,,,,,,2023-08-16_08h37.00.801,HF_wild_card,2022.2.4,MacIntel,58.82352941,5db5f2196a72a3000cc54aa4,64d2fd46c836a06233681665,64dc7c8712bc9838b71f2148,,,,,,,ctch,resources/DY.BMP,resources/DB.BMP,Door4,-0.37875,0,1,0,0,1.13,optionLeft,60,4405,2,35,0,35,0,1,,,,,,,,,,,,,,,,,,,,,,,,,,,,,,,,,,,,,,,
,,,,,,,,2023-08-16_08h37.00.801,HF_wild_card,2022.2.4,MacIntel,58.82352941,5db5f2196a72a3000cc54aa4,64d2fd46c836a06233681665,64dc7c8712bc9838b71f2148,,,,,,,decisionTrl,resources/DP.BMP,resources/DB.BMP,Door1,0.37125,-0.005,1,0,0,1.146,optionRight,30,4435,2,36,0,36,0,1,,,,,,,,,,,,,,,,,,,,,,,,,,,,,,,,,,,,,,,
,,,,,,,,2023-08-16_08h37.00.801,HF_wild_card,2022.2.4,MacIntel,58.82352941,5db5f2196a72a3000cc54aa4,64d2fd46c836a06233681665,64dc7c8712bc9838b71f2148,,,,,,,decisionTrl,resources/DBN.BMP,resources/DP.BMP,WildCard_NonEx,-0.3925,-0.00625,1,0,0,1.323,optionLeft,55,4490,2,37,0,37,0,1,,,,,,,,,,,,,,,,,,,,,,,,,,,,,,,,,,,,,,,
,,,,,,,,2023-08-16_08h37.00.801,HF_wild_card,2022.2.4,MacIntel,58.82352941,5db5f2196a72a3000cc54aa4,64d2fd46c836a06233681665,64dc7c8712bc9838b71f2148,,,,,,,decisionTrl,resources/DY.BMP,resources/DR.BMP,Door4,-0.36,-0.03375,1,0,0,1.259,optionLeft,60,4550,2,38,0,38,0,1,,,,,,,,,,,,,,,,,,,,,,,,,,,,,,,,,,,,,,,
,,,,,,,,2023-08-16_08h37.00.801,HF_wild_card,2022.2.4,MacIntel,58.82352941,5db5f2196a72a3000cc54aa4,64d2fd46c836a06233681665,64dc7c8712bc9838b71f2148,,,,,,,sngl,resources/DBN.BMP,resources/Empty.png,WildCard_NonEx,-0.28125,0.01,1,0,0,1.055,optionLeft,55,4605,2,39,0,39,0,1,,,,,,,,,,,,,,,,,,,,,,,,,,,,,,,,,,,,,,,
,,,,,,,,2023-08-16_08h37.00.801,HF_wild_card,2022.2.4,MacIntel,58.82352941,5db5f2196a72a3000cc54aa4,64d2fd46c836a06233681665,64dc7c8712bc9838b71f2148,,,,,,,sngl,resources/Empty.png,resources/DBN.BMP,WildCard_NonEx,0.41875,0.0425,1,0,0,1.125,optionRight,55,4660,2,40,0,40,0,1,,,,,,,,,,,,,,,,,,,,,,,,,,,,,,,,,,,,,,,
,,,,,,,,2023-08-16_08h37.00.801,HF_wild_card,2022.2.4,MacIntel,58.82352941,5db5f2196a72a3000cc54aa4,64d2fd46c836a06233681665,64dc7c8712bc9838b71f2148,,,,,,,sngl,resources/DY.BMP,resources/Empty.png,Door4,-0.29,0.015,1,0,0,0.859,optionLeft,60,4720,2,41,0,41,0,1,,,,,,,,,,,,,,,,,,,,,,,,,,,,,,,,,,,,,,,
,,,,,,,,2023-08-16_08h37.00.801,HF_wild_card,2022.2.4,MacIntel,58.82352941,5db5f2196a72a3000cc54aa4,64d2fd46c836a06233681665,64dc7c8712bc9838b71f2148,,,,,,,decisionTrl,resources/DY.BMP,resources/DBN.BMP,Door4,-0.44,0.00875,1,0,0,1.21,optionLeft,60,4780,2,42,0,42,0,1,,,,,,,,,,,,,,,,,,,,,,,,,,,,,,,,,,,,,,,
,,,,,,,,2023-08-16_08h37.00.801,HF_wild_card,2022.2.4,MacIntel,58.82352941,5db5f2196a72a3000cc54aa4,64d2fd46c836a06233681665,64dc7c8712bc9838b71f2148,,,,,,,ctch,resources/DY.BMP,resources/DB.BMP,Door4,-0.315,-0.0125,1,0,0,1.062,optionLeft,60,4840,2,43,0,43,0,1,,,,,,,,,,,,,,,,,,,,,,,,,,,,,,,,,,,,,,,
,,,,,,,,2023-08-16_08h37.00.801,HF_wild_card,2022.2.4,MacIntel,58.82352941,5db5f2196a72a3000cc54aa4,64d2fd46c836a06233681665,64dc7c8712bc9838b71f2148,,,,,,,,,,,,,,,,,,,,,,,,,,1,0,1,0,1,,,,,,,,,,,,,,,,,,,,,,,,,,,,,,,,,,
,,,,,,,,2023-08-16_08h37.00.801,HF_wild_card,2022.2.4,MacIntel,58.82352941,5db5f2196a72a3000cc54aa4,64d2fd46c836a06233681665,64dc7c8712bc9838b71f2148,,,,,,,ctch,resources/DY.BMP,resources/DB.BMP,Door4,-0.32625,-0.09625,1,0,0,1.558,optionLeft,80,4920,3,0,0,0,0,1,,,,,,,,,,,,,,,,,,,,,,,,,,,,,,,,,,,,,,,
,,,,,,,,2023-08-16_08h37.00.801,HF_wild_card,2022.2.4,MacIntel,58.82352941,5db5f2196a72a3000cc54aa4,64d2fd46c836a06233681665,64dc7c8712bc9838b71f2148,,,,,,,sngl,resources/DP.BMP,resources/Empty.png,Door2,-0.2525,-0.02375,1,0,0,1.144,optionLeft,40,4960,3,1,0,1,0,1,,,,,,,,,,,,,,,,,,,,,,,,,,,,,,,,,,,,,,,
,,,,,,,,2023-08-16_08h37.00.801,HF_wild_card,2022.2.4,MacIntel,58.82352941,5db5f2196a72a3000cc54aa4,64d2fd46c836a06233681665,64dc7c8712bc9838b71f2148,,,,,,,decisionTrl,resources/DB.BMP,resources/DP.BMP,Door1,-0.2725,0,1,0,0,1.609,optionLeft,30,4990,3,2,0,2,0,1,,,,,,,,,,,,,,,,,,,,,,,,,,,,,,,,,,,,,,,
,,,,,,,,2023-08-16_08h37.00.801,HF_wild_card,2022.2.4,MacIntel,58.82352941,5db5f2196a72a3000cc54aa4,64d2fd46c836a06233681665,64dc7c8712bc9838b71f2148,,,,,,,sngl,resources/Empty.png,resources/DB.BMP,Door1,0.3425,0.02125,1,0,0,0.927,optionRight,30,5020,3,3,0,3,0,1,,,,,,,,,,,,,,,,,,,,,,,,,,,,,,,,,,,,,,,
,,,,,,,,2023-08-16_08h37.00.801,HF_wild_card,2022.2.4,MacIntel,58.82352941,5db5f2196a72a3000cc54aa4,64d2fd46c836a06233681665,64dc7c8712bc9838b71f2148,,,,,,,ctch,resources/DR.BMP,resources/DP.BMP,Door3,-0.405,-0.00625,1,0,0,1.347,optionLeft,70,5090,3,4,0,4,0,1,,,,,,,,,,,,,,,,,,,,,,,,,,,,,,,,,,,,,,,
,,,,,,,,2023-08-16_08h37.00.801,HF_wild_card,2022.2.4,MacIntel,58.82352941,5db5f2196a72a3000cc54aa4,64d2fd46c836a06233681665,64dc7c8712bc9838b71f2148,,,,,,,decisionTrl,resources/DR.BMP,resources/DY.BMP,Door4,0.3875,0.00875,1,0,0,1.346,optionRight,80,5170,3,5,0,5,0,1,,,,,,,,,,,,,,,,,,,,,,,,,,,,,,,,,,,,,,,
,,,,,,,,2023-08-16_08h37.00.801,HF_wild_card,2022.2.4,MacIntel,58.82352941,5db5f2196a72a3000cc54aa4,64d2fd46c836a06233681665,64dc7c8712bc9838b71f2148,,,,,,,decisionTrl,resources/DY.BMP,resources/DR.BMP,Door4,-0.29,-0.02625,1,0,0,1.091,optionLeft,80,5250,3,6,0,6,0,1,,,,,,,,,,,,,,,,,,,,,,,,,,,,,,,,,,,,,,,
,,,,,,,,2023-08-16_08h37.00.801,HF_wild_card,2022.2.4,MacIntel,58.82352941,5db5f2196a72a3000cc54aa4,64d2fd46c836a06233681665,64dc7c8712bc9838b71f2148,,,,,,,sngl,resources/Empty.png,resources/DP.BMP,Door2,0.3475,-0.01125,1,0,0,1.291,optionRight,20,5270,3,7,0,7,0,1,,,,,,,,,,,,,,,,,,,,,,,,,,,,,,,,,,,,,,,
,,,,,,,,2023-08-16_08h37.00.801,HF_wild_card,2022.2.4,MacIntel,58.82352941,5db5f2196a72a3000cc54aa4,64d2fd46c836a06233681665,64dc7c8712bc9838b71f2148,,,,,,,decisionTrl,resources/DR.BMP,resources/DBN.BMP,Door3,-0.33875,-0.0525,1,0,0,2.21,optionLeft,70,5340,3,8,0,8,0,1,,,,,,,,,,,,,,,,,,,,,,,,,,,,,,,,,,,,,,,
,,,,,,,,2023-08-16_08h37.00.801,HF_wild_card,2022.2.4,MacIntel,58.82352941,5db5f2196a72a3000cc54aa4,64d2fd46c836a06233681665,64dc7c8712bc9838b71f2148,,,,,,,ctch,resources/DB.BMP,resources/DY.BMP,Door4,0.34125,-0.01,1,0,0,1.075,optionRight,60,5400,3,9,0,9,0,1,,,,,,,,,,,,,,,,,,,,,,,,,,,,,,,,,,,,,,,
,,,,,,,,2023-08-16_08h37.00.801,HF_wild_card,2022.2.4,MacIntel,58.82352941,5db5f2196a72a3000cc54aa4,64d2fd46c836a06233681665,64dc7c8712bc9838b71f2148,,,,,,,sngl,resources/Empty.png,resources/DR.BMP,Door3,0.325,-0.01625,1,0,0,0.896,optionRight,70,5470,3,10,0,10,0,1,,,,,,,,,,,,,,,,,,,,,,,,,,,,,,,,,,,,,,,
,,,,,,,,2023-08-16_08h37.00.801,HF_wild_card,2022.2.4,MacIntel,58.82352941,5db5f2196a72a3000cc54aa4,64d2fd46c836a06233681665,64dc7c8712bc9838b71f2148,,,,,,,decisionTrl,resources/DY.BMP,resources/DBN.BMP,Door4,-0.33125,-0.00125,1,0,0,0.891,optionLeft,60,5530,3,11,0,11,0,1,,,,,,,,,,,,,,,,,,,,,,,,,,,,,,,,,,,,,,,
,,,,,,,,2023-08-16_08h37.00.801,HF_wild_card,2022.2.4,MacIntel,58.82352941,5db5f2196a72a3000cc54aa4,64d2fd46c836a06233681665,64dc7c8712bc9838b71f2148,,,,,,,decisionTrl,resources/DR.BMP,resources/DY.BMP,Door4,0.3125,-0.00375,1,0,0,0.896,optionRight,80,5610,3,12,0,12,0,1,,,,,,,,,,,,,,,,,,,,,,,,,,,,,,,,,,,,,,,
,,,,,,,,2023-08-16_08h37.00.801,HF_wild_card,2022.2.4,MacIntel,58.82352941,5db5f2196a72a3000cc54aa4,64d2fd46c836a06233681665,64dc7c8712bc9838b71f2148,,,,,,,sngl,resources/DR.BMP,resources/Empty.png,Door3,-0.3325,0.00875,1,0,0,0.875,optionLeft,70,5680,3,13,0,13,0,1,,,,,,,,,,,,,,,,,,,,,,,,,,,,,,,,,,,,,,,
,,,,,,,,2023-08-16_08h37.00.801,HF_wild_card,2022.2.4,MacIntel,58.82352941,5db5f2196a72a3000cc54aa4,64d2fd46c836a06233681665,64dc7c8712bc9838b71f2148,,,,,,,ctch,resources/DP.BMP,resources/DR.BMP,Door3,0.34125,0.01375,1,0,0,1.111,optionRight,70,5750,3,14,0,14,0,1,,,,,,,,,,,,,,,,,,,,,,,,,,,,,,,,,,,,,,,
,,,,,,,,2023-08-16_08h37.00.801,HF_wild_card,2022.2.4,MacIntel,58.82352941,5db5f2196a72a3000cc54aa4,64d2fd46c836a06233681665,64dc7c8712bc9838b71f2148,,,,,,,decisionTrl,resources/DB.BMP,resources/DBN.BMP,WildCard_NonEx,0.41125,0.00375,1,0,0,2.209,optionRight,45,5795,3,15,0,15,0,1,,,,,,,,,,,,,,,,,,,,,,,,,,,,,,,,,,,,,,,
,,,,,,,,2023-08-16_08h37.00.801,HF_wild_card,2022.2.4,MacIntel,58.82352941,5db5f2196a72a3000cc54aa4,64d2fd46c836a06233681665,64dc7c8712bc9838b71f2148,,,,,,,ctch,resources/DR.BMP,resources/DP.BMP,Door3,-0.3275,-0.06125,1,0,0,0.98,optionLeft,70,5865,3,16,0,16,0,1,,,,,,,,,,,,,,,,,,,,,,,,,,,,,,,,,,,,,,,
,,,,,,,,2023-08-16_08h37.00.801,HF_wild_card,2022.2.4,MacIntel,58.82352941,5db5f2196a72a3000cc54aa4,64d2fd46c836a06233681665,64dc7c8712bc9838b71f2148,,,,,,,decisionTrl,resources/DP.BMP,resources/DBN.BMP,WildCard_NonEx,0.30625,0.0275,1,0,0,1.114,optionRight,45,5910,3,17,0,17,0,1,,,,,,,,,,,,,,,,,,,,,,,,,,,,,,,,,,,,,,,
,,,,,,,,2023-08-16_08h37.00.801,HF_wild_card,2022.2.4,MacIntel,58.82352941,5db5f2196a72a3000cc54aa4,64d2fd46c836a06233681665,64dc7c8712bc9838b71f2148,,,,,,,decisionTrl,resources/DY.BMP,resources/DR.BMP,Door4,-0.3625,-0.08,1,0,0,1.395,optionLeft,80,5990,3,18,0,18,0,1,,,,,,,,,,,,,,,,,,,,,,,,,,,,,,,,,,,,,,,
,,,,,,,,2023-08-16_08h37.00.801,HF_wild_card,2022.2.4,MacIntel,58.82352941,5db5f2196a72a3000cc54aa4,64d2fd46c836a06233681665,64dc7c8712bc9838b71f2148,,,,,,,decisionTrl,resources/DB.BMP,resources/DP.BMP,Door1,-0.27875,-0.03,1,0,0,1.108,optionLeft,30,6020,3,19,0,19,0,1,,,,,,,,,,,,,,,,,,,,,,,,,,,,,,,,,,,,,,,
,,,,,,,,2023-08-16_08h37.00.801,HF_wild_card,2022.2.4,MacIntel,58.82352941,5db5f2196a72a3000cc54aa4,64d2fd46c836a06233681665,64dc7c8712bc9838b71f2148,,,,,,,sngl,resources/DBN.BMP,resources/Empty.png,WildCard_NonEx,-0.31125,0.01375,1,0,0,0.893,optionLeft,55,6075,3,20,0,20,0,1,,,,,,,,,,,,,,,,,,,,,,,,,,,,,,,,,,,,,,,
,,,,,,,,2023-08-16_08h37.00.801,HF_wild_card,2022.2.4,MacIntel,58.82352941,5db5f2196a72a3000cc54aa4,64d2fd46c836a06233681665,64dc7c8712bc9838b71f2148,,,,,,,decisionTrl,resources/DR.BMP,resources/DY.BMP,Door4,0.325,0.02,1,0,0,1.076,optionRight,60,6135,3,21,0,21,0,1,,,,,,,,,,,,,,,,,,,,,,,,,,,,,,,,,,,,,,,
,,,,,,,,2023-08-16_08h37.00.801,HF_wild_card,2022.2.4,MacIntel,58.82352941,5db5f2196a72a3000cc54aa4,64d2fd46c836a06233681665,64dc7c8712bc9838b71f2148,,,,,,,sngl,resources/Empty.png,resources/DBN.BMP,WildCard_NonEx,0.33875,0.01125,1,0,0,0.944,optionRight,55,6190,3,22,0,22,0,1,,,,,,,,,,,,,,,,,,,,,,,,,,,,,,,,,,,,,,,
,,,,,,,,2023-08-16_08h37.00.801,HF_wild_card,2022.2.4,MacIntel,58.82352941,5db5f2196a72a3000cc54aa4,64d2fd46c836a06233681665,64dc7c8712bc9838b71f2148,,,,,,,decisionTrl,resources/DY.BMP,resources/DR.BMP,Door4,-0.3125,-0.03125,1,0,0,0.843,optionLeft,60,6250,3,23,0,23,0,1,,,,,,,,,,,,,,,,,,,,,,,,,,,,,,,,,,,,,,,
,,,,,,,,2023-08-16_08h37.00.801,HF_wild_card,2022.2.4,MacIntel,58.82352941,5db5f2196a72a3000cc54aa4,64d2fd46c836a06233681665,64dc7c8712bc9838b71f2148,,,,,,,sngl,resources/DBN.BMP,resources/Empty.png,WildCard_NonEx,-0.34375,0.00375,1,0,0,0.808,optionLeft,45,6295,3,24,0,24,0,1,,,,,,,,,,,,,,,,,,,,,,,,,,,,,,,,,,,,,,,
,,,,,,,,2023-08-16_08h37.00.801,HF_wild_card,2022.2.4,MacIntel,58.82352941,5db5f2196a72a3000cc54aa4,64d2fd46c836a06233681665,64dc7c8712bc9838b71f2148,,,,,,,decisionTrl,resources/DR.BMP,resources/DY.BMP,Door4,0.35375,0.02125,1,0,0,0.759,optionRight,80,6375,3,25,0,25,0,1,,,,,,,,,,,,,,,,,,,,,,,,,,,,,,,,,,,,,,,
,,,,,,,,2023-08-16_08h37.00.801,HF_wild_card,2022.2.4,MacIntel,58.82352941,5db5f2196a72a3000cc54aa4,64d2fd46c836a06233681665,64dc7c8712bc9838b71f2148,,,,,,,decisionTrl,resources/DB.BMP,resources/DP.BMP,Door1,-0.3325,-0.06125,1,0,0,0.91,optionLeft,30,6405,3,26,0,26,0,1,,,,,,,,,,,,,,,,,,,,,,,,,,,,,,,,,,,,,,,
,,,,,,,,2023-08-16_08h37.00.801,HF_wild_card,2022.2.4,MacIntel,58.82352941,5db5f2196a72a3000cc54aa4,64d2fd46c836a06233681665,64dc7c8712bc9838b71f2148,,,,,,,sngl,resources/DY.BMP,resources/Empty.png,Door4,-0.295,-0.02125,1,0,0,0.727,optionLeft,80,6485,3,27,0,27,0,1,,,,,,,,,,,,,,,,,,,,,,,,,,,,,,,,,,,,,,,
,,,,,,,,2023-08-16_08h37.00.801,HF_wild_card,2022.2.4,MacIntel,58.82352941,5db5f2196a72a3000cc54aa4,64d2fd46c836a06233681665,64dc7c8712bc9838b71f2148,,,,,,,decisionTrl,resources/DP.BMP,resources/DB.BMP,Door1,0.29125,0.0375,1,0,0,1.407,optionRight,30,6515,3,28,0,28,0,1,,,,,,,,,,,,,,,,,,,,,,,,,,,,,,,,,,,,,,,
,,,,,,,,2023-08-16_08h37.00.801,HF_wild_card,2022.2.4,MacIntel,58.82352941,5db5f2196a72a3000cc54aa4,64d2fd46c836a06233681665,64dc7c8712bc9838b71f2148,,,,,,,ctch,resources/DY.BMP,resources/DB.BMP,Door4,-0.36125,-0.0175,1,0,0,1.058,optionLeft,60,6575,3,29,0,29,0,1,,,,,,,,,,,,,,,,,,,,,,,,,,,,,,,,,,,,,,,
,,,,,,,,2023-08-16_08h37.00.801,HF_wild_card,2022.2.4,MacIntel,58.82352941,5db5f2196a72a3000cc54aa4,64d2fd46c836a06233681665,64dc7c8712bc9838b71f2148,,,,,,,ctch,resources/DP.BMP,resources/DR.BMP,Door3,0.32375,-0.0275,1,0,0,1.06,optionRight,70,6645,3,30,0,30,0,1,,,,,,,,,,,,,,,,,,,,,,,,,,,,,,,,,,,,,,,
,,,,,,,,2023-08-16_08h37.00.801,HF_wild_card,2022.2.4,MacIntel,58.82352941,5db5f2196a72a3000cc54aa4,64d2fd46c836a06233681665,64dc7c8712bc9838b71f2148,,,,,,,decisionTrl,resources/DP.BMP,resources/DB.BMP,Door1,0.33,0.0275,1,0,0,1.375,optionRight,30,6675,3,31,0,31,0,1,,,,,,,,,,,,,,,,,,,,,,,,,,,,,,,,,,,,,,,
,,,,,,,,2023-08-16_08h37.00.801,HF_wild_card,2022.2.4,MacIntel,58.82352941,5db5f2196a72a3000cc54aa4,64d2fd46c836a06233681665,64dc7c8712bc9838b71f2148,,,,,,,decisionTrl,resources/DBN.BMP,resources/DP.BMP,WildCard_NonEx,-0.4075,0.00875,1,0,0,0.91,optionLeft,55,6730,3,32,0,32,0,1,,,,,,,,,,,,,,,,,,,,,,,,,,,,,,,,,,,,,,,
,,,,,,,,2023-08-16_08h37.00.801,HF_wild_card,2022.2.4,MacIntel,58.82352941,5db5f2196a72a3000cc54aa4,64d2fd46c836a06233681665,64dc7c8712bc9838b71f2148,,,,,,,decisionTrl,resources/DY.BMP,resources/DR.BMP,Door4,-0.3475,-0.01125,1,0,0,0.807,optionLeft,60,6790,3,33,0,33,0,1,,,,,,,,,,,,,,,,,,,,,,,,,,,,,,,,,,,,,,,
,,,,,,,,2023-08-16_08h37.00.801,HF_wild_card,2022.2.4,MacIntel,58.82352941,5db5f2196a72a3000cc54aa4,64d2fd46c836a06233681665,64dc7c8712bc9838b71f2148,,,,,,,sngl,resources/DB.BMP,resources/Empty.png,Door1,-0.3,0.025,1,0,0,0.845,optionLeft,30,6820,3,34,0,34,0,1,,,,,,,,,,,,,,,,,,,,,,,,,,,,,,,,,,,,,,,
,,,,,,,,2023-08-16_08h37.00.801,HF_wild_card,2022.2.4,MacIntel,58.82352941,5db5f2196a72a3000cc54aa4,64d2fd46c836a06233681665,64dc7c8712bc9838b71f2148,,,,,,,decisionTrl,resources/DBN.BMP,resources/DR.BMP,Door3,0.40125,0.01875,1,0,0,0.995,optionRight,70,6890,3,35,0,35,0,1,,,,,,,,,,,,,,,,,,,,,,,,,,,,,,,,,,,,,,,
,,,,,,,,2023-08-16_08h37.00.801,HF_wild_card,2022.2.4,MacIntel,58.82352941,5db5f2196a72a3000cc54aa4,64d2fd46c836a06233681665,64dc7c8712bc9838b71f2148,,,,,,,decisionTrl,resources/DP.BMP,resources/DB.BMP,Door2,-0.2825,0.0075,1,0,0,0.979,optionLeft,40,6930,3,36,0,36,0,1,,,,,,,,,,,,,,,,,,,,,,,,,,,,,,,,,,,,,,,
,,,,,,,,2023-08-16_08h37.00.801,HF_wild_card,2022.2.4,MacIntel,58.82352941,5db5f2196a72a3000cc54aa4,64d2fd46c836a06233681665,64dc7c8712bc9838b71f2148,,,,,,,decisionTrl,resources/DBN.BMP,resources/DY.BMP,Door4,0.33875,-0.01,1,0,0,1.06,optionRight,60,6990,3,37,0,37,0,1,,,,,,,,,,,,,,,,,,,,,,,,,,,,,,,,,,,,,,,
,,,,,,,,2023-08-16_08h37.00.801,HF_wild_card,2022.2.4,MacIntel,58.82352941,5db5f2196a72a3000cc54aa4,64d2fd46c836a06233681665,64dc7c8712bc9838b71f2148,,,,,,,sngl,resources/Empty.png,resources/DY.BMP,Door4,0.27875,-0.01125,1,0,0,0.827,optionRight,60,7050,3,38,0,38,0,1,,,,,,,,,,,,,,,,,,,,,,,,,,,,,,,,,,,,,,,
,,,,,,,,2023-08-16_08h37.00.801,HF_wild_card,2022.2.4,MacIntel,58.82352941,5db5f2196a72a3000cc54aa4,64d2fd46c836a06233681665,64dc7c8712bc9838b71f2148,,,,,,,decisionTrl,resources/DP.BMP,resources/DB.BMP,Door2,-0.41,-0.025,1,0,0,1.691,optionLeft,40,7090,3,39,0,39,0,1,,,,,,,,,,,,,,,,,,,,,,,,,,,,,,,,,,,,,,,
,,,,,,,,2023-08-16_08h37.00.801,HF_wild_card,2022.2.4,MacIntel,58.82352941,5db5f2196a72a3000cc54aa4,64d2fd46c836a06233681665,64dc7c8712bc9838b71f2148,,,,,,,sngl,resources/Empty.png,resources/DBN.BMP,WildCard_NonEx,0.2975,0,1,0,0,0.808,optionRight,45,7135,3,40,0,40,0,1,,,,,,,,,,,,,,,,,,,,,,,,,,,,,,,,,,,,,,,
,,,,,,,,2023-08-16_08h37.00.801,HF_wild_card,2022.2.4,MacIntel,58.82352941,5db5f2196a72a3000cc54aa4,64d2fd46c836a06233681665,64dc7c8712bc9838b71f2148,,,,,,,decisionTrl,resources/DB.BMP,resources/DP.BMP,Door2,0.345,-0.0125,1,0,0,1.025,optionRight,40,7175,3,41,0,41,0,1,,,,,,,,,,,,,,,,,,,,,,,,,,,,,,,,,,,,,,,
,,,,,,,,2023-08-16_08h37.00.801,HF_wild_card,2022.2.4,MacIntel,58.82352941,5db5f2196a72a3000cc54aa4,64d2fd46c836a06233681665,64dc7c8712bc9838b71f2148,,,,,,,decisionTrl,resources/DBN.BMP,resources/DB.BMP,WildCard_NonEx,-0.3,0.045,1,0,0,1.06,optionLeft,45,7220,3,42,0,42,0,1,,,,,,,,,,,,,,,,,,,,,,,,,,,,,,,,,,,,,,,
,,,,,,,,2023-08-16_08h37.00.801,HF_wild_card,2022.2.4,MacIntel,58.82352941,5db5f2196a72a3000cc54aa4,64d2fd46c836a06233681665,64dc7c8712bc9838b71f2148,,,,,,,ctch,resources/DB.BMP,resources/DY.BMP,Door4,0.29375,0.01375,1,0,0,0.875,optionRight,80,7300,3,43,0,43,0,1,,,,,,,,,,,,,,,,,,,,,,,,,,,,,,,,,,,,,,,
,,,,,,,,2023-08-16_08h37.00.801,HF_wild_card,2022.2.4,MacIntel,58.82352941,5db5f2196a72a3000cc54aa4,64d2fd46c836a06233681665,64dc7c8712bc9838b71f2148,,,,,,,,,,,,,,,,,,,,,,,,,,2,0,2,0,1,,,,,,,,,,,,,,,,,,,,,,,,,,,,,,,,,,
,,,,,,,,2023-08-16_08h37.00.801,HF_wild_card,2022.2.4,MacIntel,58.82352941,5db5f2196a72a3000cc54aa4,64d2fd46c836a06233681665,64dc7c8712bc9838b71f2148,,,,,,,decisionTrl,resources/DP.BMP,resources/DB.BMP,Door2,-0.43375,-0.11625,1,0,0,2.125,optionLeft,20,7320,4,0,0,0,0,1,,,,,,,,,,,,,,,,,,,,,,,,,,,,,,,,,,,,,,,
,,,,,,,,2023-08-16_08h37.00.801,HF_wild_card,2022.2.4,MacIntel,58.82352941,5db5f2196a72a3000cc54aa4,64d2fd46c836a06233681665,64dc7c8712bc9838b71f2148,,,,,,,decisionTrl,resources/DB.BMP,resources/DP.BMP,Door1,-0.33125,0.02625,1,0,0,0.959,optionLeft,30,7350,4,1,0,1,0,1,,,,,,,,,,,,,,,,,,,,,,,,,,,,,,,,,,,,,,,
,,,,,,,,2023-08-16_08h37.00.801,HF_wild_card,2022.2.4,MacIntel,58.82352941,5db5f2196a72a3000cc54aa4,64d2fd46c836a06233681665,64dc7c8712bc9838b71f2148,,,,,,,decisionTrl,resources/DR.BMP,resources/DG.BMP,WildCard_Ex,0.39625,-0.02,1,0,0,1.643,optionRight,45,7395,4,2,0,2,0,1,,,,,,,,,,,,,,,,,,,,,,,,,,,,,,,,,,,,,,,
,,,,,,,,2023-08-16_08h37.00.801,HF_wild_card,2022.2.4,MacIntel,58.82352941,5db5f2196a72a3000cc54aa4,64d2fd46c836a06233681665,64dc7c8712bc9838b71f2148,,,,,,,decisionTrl,resources/DY.BMP,resources/DR.BMP,Door4,-0.3725,0.05125,1,0,0,1.177,optionLeft,80,7475,4,3,0,3,0,1,,,,,,,,,,,,,,,,,,,,,,,,,,,,,,,,,,,,,,,
,,,,,,,,2023-08-16_08h37.00.801,HF_wild_card,2022.2.4,MacIntel,58.82352941,5db5f2196a72a3000cc54aa4,64d2fd46c836a06233681665,64dc7c8712bc9838b71f2148,,,,,,,sngl,resources/Empty.png,resources/DG.BMP,WildCard_Ex,0.35625,-0.00625,1,0,0,0.746,optionRight,55,7530,4,4,0,4,0,1,,,,,,,,,,,,,,,,,,,,,,,,,,,,,,,,,,,,,,,
,,,,,,,,2023-08-16_08h37.00.801,HF_wild_card,2022.2.4,MacIntel,58.82352941,5db5f2196a72a3000cc54aa4,64d2fd46c836a06233681665,64dc7c8712bc9838b71f2148,,,,,,,decisionTrl,resources/DY.BMP,resources/DR.BMP,Door4,-0.325,0.05,1,0,0,0.979,optionLeft,60,7590,4,5,0,5,0,1,,,,,,,,,,,,,,,,,,,,,,,,,,,,,,,,,,,,,,,
,,,,,,,,2023-08-16_08h37.00.801,HF_wild_card,2022.2.4,MacIntel,58.82352941,5db5f2196a72a3000cc54aa4,64d2fd46c836a06233681665,64dc7c8712bc9838b71f2148,,,,,,,sngl,resources/Empty.png,resources/DB.BMP,Door1,0.245,-0.0175,1,0,0,0.742,optionRight,30,7620,4,6,0,6,0,1,,,,,,,,,,,,,,,,,,,,,,,,,,,,,,,,,,,,,,,
,,,,,,,,2023-08-16_08h37.00.801,HF_wild_card,2022.2.4,MacIntel,58.82352941,5db5f2196a72a3000cc54aa4,64d2fd46c836a06233681665,64dc7c8712bc9838b71f2148,,,,,,,ctch,resources/DY.BMP,resources/DB.BMP,Door4,-0.365,-0.00125,1,0,0,0.897,optionLeft,60,7680,4,7,0,7,0,1,,,,,,,,,,,,,,,,,,,,,,,,,,,,,,,,,,,,,,,
,,,,,,,,2023-08-16_08h37.00.801,HF_wild_card,2022.2.4,MacIntel,58.82352941,5db5f2196a72a3000cc54aa4,64d2fd46c836a06233681665,64dc7c8712bc9838b71f2148,,,,,,,decisionTrl,resources/DG.BMP,resources/DB.BMP,WildCard_Ex,-0.26375,-0.01875,1,0,0,1.835,optionLeft,55,7735,4,8,0,8,0,1,,,,,,,,,,,,,,,,,,,,,,,,,,,,,,,,,,,,,,,
,,,,,,,,2023-08-16_08h37.00.801,HF_wild_card,2022.2.4,MacIntel,58.82352941,5db5f2196a72a3000cc54aa4,64d2fd46c836a06233681665,64dc7c8712bc9838b71f2148,,,,,,,decisionTrl,resources/DB.BMP,resources/DG.BMP,WildCard_Ex,0.37625,0.00875,1,0,0,1.614,optionRight,55,7790,4,9,0,9,0,1,,,,,,,,,,,,,,,,,,,,,,,,,,,,,,,,,,,,,,,
,,,,,,,,2023-08-16_08h37.00.801,HF_wild_card,2022.2.4,MacIntel,58.82352941,5db5f2196a72a3000cc54aa4,64d2fd46c836a06233681665,64dc7c8712bc9838b71f2148,,,,,,,decisionTrl,resources/DR.BMP,resources/DY.BMP,Door4,0.33375,-0.01125,1,0,0,1.222,optionRight,80,7870,4,10,0,10,0,1,,,,,,,,,,,,,,,,,,,,,,,,,,,,,,,,,,,,,,,
,,,,,,,,2023-08-16_08h37.00.801,HF_wild_card,2022.2.4,MacIntel,58.82352941,5db5f2196a72a3000cc54aa4,64d2fd46c836a06233681665,64dc7c8712bc9838b71f2148,,,,,,,decisionTrl,resources/DY.BMP,resources/DG.BMP,Door4,-0.2825,0.03375,1,0,0,1.513,optionLeft,60,7930,4,11,0,11,0,1,,,,,,,,,,,,,,,,,,,,,,,,,,,,,,,,,,,,,,,
,,,,,,,,2023-08-16_08h37.00.801,HF_wild_card,2022.2.4,MacIntel,58.82352941,5db5f2196a72a3000cc54aa4,64d2fd46c836a06233681665,64dc7c8712bc9838b71f2148,,,,,,,sngl,resources/DP.BMP,resources/Empty.png,Door2,-0.26875,-0.01875,1,0,0,1.262,optionLeft,20,7950,4,12,0,12,0,1,,,,,,,,,,,,,,,,,,,,,,,,,,,,,,,,,,,,,,,
,,,,,,,,2023-08-16_08h37.00.801,HF_wild_card,2022.2.4,MacIntel,58.82352941,5db5f2196a72a3000cc54aa4,64d2fd46c836a06233681665,64dc7c8712bc9838b71f2148,,,,,,,decisionTrl,resources/DB.BMP,resources/DP.BMP,Door1,-0.3225,0.01125,1,0,0,1.094,optionLeft,30,7980,4,13,0,13,0,1,,,,,,,,,,,,,,,,,,,,,,,,,,,,,,,,,,,,,,,
,,,,,,,,2023-08-16_08h37.00.801,HF_wild_card,2022.2.4,MacIntel,58.82352941,5db5f2196a72a3000cc54aa4,64d2fd46c836a06233681665,64dc7c8712bc9838b71f2148,,,,,,,decisionTrl,resources/DR.BMP,resources/DY.BMP,Door4,0.34,0.0175,1,0,0,1.062,optionRight,60,8040,4,14,0,14,0,1,,,,,,,,,,,,,,,,,,,,,,,,,,,,,,,,,,,,,,,
,,,,,,,,2023-08-16_08h37.00.801,HF_wild_card,2022.2.4,MacIntel,58.82352941,5db5f2196a72a3000cc54aa4,64d2fd46c836a06233681665,64dc7c8712bc9838b71f2148,,,,,,,sngl,resources/DY.BMP,resources/Empty.png,Door4,-0.3175,-0.0025,1,0,0,0.813,optionLeft,60,8100,4,15,0,15,0,1,,,,,,,,,,,,,,,,,,,,,,,,,,,,,,,,,,,,,,,
,,,,,,,,2023-08-16_08h37.00.801,HF_wild_card,2022.2.4,MacIntel,58.82352941,5db5f2196a72a3000cc54aa4,64d2fd46c836a06233681665,64dc7c8712bc9838b71f2148,,,,,,,sngl,resources/DG.BMP,resources/Empty.png,WildCard_Ex,-0.3225,-0.0025,1,0,0,0.813,optionLeft,55,8155,4,16,0,16,0,1,,,,,,,,,,,,,,,,,,,,,,,,,,,,,,,,,,,,,,,
,,,,,,,,2023-08-16_08h37.00.801,HF_wild_card,2022.2.4,MacIntel,58.82352941,5db5f2196a72a3000cc54aa4,64d2fd46c836a06233681665,64dc7c8712bc9838b71f2148,,,,,,,ctch,resources/DB.BMP,resources/DY.BMP,Door4,0.3875,-0.04125,1,0,0,1.81,optionRight,80,8235,4,17,0,17,0,1,,,,,,,,,,,,,,,,,,,,,,,,,,,,,,,,,,,,,,,
,,,,,,,,2023-08-16_08h37.00.801,HF_wild_card,2022.2.4,MacIntel,58.82352941,5db5f2196a72a3000cc54aa4,64d2fd46c836a06233681665,64dc7c8712bc9838b71f2148,,,,,,,decisionTrl,resources/DY.BMP,resources/DR.BMP,Door4,-0.38875,0.0025,1,0,0,0.978,optionLeft,60,8295,4,18,0,18,0,1,,,,,,,,,,,,,,,,,,,,,,,,,,,,,,,,,,,,,,,
,,,,,,,,2023-08-16_08h37.00.801,HF_wild_card,2022.2.4,MacIntel,58.82352941,5db5f2196a72a3000cc54aa4,64d2fd46c836a06233681665,64dc7c8712bc9838b71f2148,,,,,,,sngl,resources/DG.BMP,resources/Empty.png,WildCard_Ex,-0.32625,-0.0075,1,0,0,0.826,optionLeft,45,8340,4,19,0,19,0,1,,,,,,,,,,,,,,,,,,,,,,,,,,,,,,,,,,,,,,,
,,,,,,,,2023-08-16_08h37.00.801,HF_wild_card,2022.2.4,MacIntel,58.82352941,5db5f2196a72a3000cc54aa4,64d2fd46c836a06233681665,64dc7c8712bc9838b71f2148,,,,,,,ctch,resources/DR.BMP,resources/DP.BMP,Door3,-0.34125,-0.00875,1,0,0,1.162,optionLeft,70,8410,4,20,0,20,0,1,,,,,,,,,,,,,,,,,,,,,,,,,,,,,,,,,,,,,,,
,,,,,,,,2023-08-16_08h37.00.801,HF_wild_card,2022.2.4,MacIntel,58.82352941,5db5f2196a72a3000cc54aa4,64d2fd46c836a06233681665,64dc7c8712bc9838b71f2148,,,,,,,sngl,resources/DR.BMP,resources/Empty.png,Door3,-0.27375,0.0025,1,0,0,0.846,optionLeft,70,8480,4,21,0,21,0,1,,,,,,,,,,,,,,,,,,,,,,,,,,,,,,,,,,,,,,,
,,,,,,,,2023-08-16_08h37.00.801,HF_wild_card,2022.2.4,MacIntel,58.82352941,5db5f2196a72a3000cc54aa4,64d2fd46c836a06233681665,64dc7c8712bc9838b71f2148,,,,,,,ctch,resources/DY.BMP,resources/DB.BMP,Door4,-0.2975,0.0175,1,0,0,1.114,optionLeft,60,8540,4,22,0,22,0,1,,,,,,,,,,,,,,,,,,,,,,,,,,,,,,,,,,,,,,,
,,,,,,,,2023-08-16_08h37.00.801,HF_wild_card,2022.2.4,MacIntel,58.82352941,5db5f2196a72a3000cc54aa4,64d2fd46c836a06233681665,64dc7c8712bc9838b71f2148,,,,,,,sngl,resources/Empty.png,resources/DR.BMP,Door3,0.3375,-0.01625,1,0,0,0.725,optionRight,70,8610,4,23,0,23,0,1,,,,,,,,,,,,,,,,,,,,,,,,,,,,,,,,,,,,,,,
,,,,,,,,2023-08-16_08h37.00.801,HF_wild_card,2022.2.4,MacIntel,58.82352941,5db5f2196a72a3000cc54aa4,64d2fd46c836a06233681665,64dc7c8712bc9838b71f2148,,,,,,,decisionTrl,resources/DP.BMP,resources/DB.BMP,Door1,0.365,0.04125,1,0,0,1.293,optionRight,30,8640,4,24,0,24,0,1,,,,,,,,,,,,,,,,,,,,,,,,,,,,,,,,,,,,,,,
,,,,,,,,2023-08-16_08h37.00.801,HF_wild_card,2022.2.4,MacIntel,58.82352941,5db5f2196a72a3000cc54aa4,64d2fd46c836a06233681665,64dc7c8712bc9838b71f2148,,,,,,,decisionTrl,resources/DP.BMP,resources/DB.BMP,Door2,-0.395,-0.015,1,0,0,0.913,optionLeft,40,8680,4,25,0,25,0,1,,,,,,,,,,,,,,,,,,,,,,,,,,,,,,,,,,,,,,,
,,,,,,,,2023-08-16_08h37.00.801,HF_wild_card,2022.2.4,MacIntel,58.82352941,5db5f2196a72a3000cc54aa4,64d2fd46c836a06233681665,64dc7c8712bc9838b71f2148,,,,,,,decisionTrl,resources/DP.BMP,resources/DB.BMP,Door2,-0.34625,-0.01875,1,0,0,1.074,optionLeft,20,8700,4,26,0,26,0,1,,,,,,,,,,,,,,,,,,,,,,,,,,,,,,,,,,,,,,,
,,,,,,,,2023-08-16_08h37.00.801,HF_wild_card,2022.2.4,MacIntel,58.82352941,5db5f2196a72a3000cc54aa4,64d2fd46c836a06233681665,64dc7c8712bc9838b71f2148,,,,,,,ctch,resources/DR.BMP,resources/DP.BMP,Door3,-0.375,-0.0025,1,0,0,1.073,optionLeft,70,8770,4,27,0,27,0,1,,,,,,,,,,,,,,,,,,,,,,,,,,,,,,,,,,,,,,,
,,,,,,,,2023-08-16_08h37.00.801,HF_wild_card,2022.2.4,MacIntel,58.82352941,5db5f2196a72a3000cc54aa4,64d2fd46c836a06233681665,64dc7c8712bc9838b71f2148,,,,,,,ctch,resources/DB.BMP,resources/DY.BMP,Door4,0.34375,0.0125,1,0,0,0.858,optionRight,80,8850,4,28,0,28,0,1,,,,,,,,,,,,,,,,,,,,,,,,,,,,,,,,,,,,,,,
,,,,,,,,2023-08-16_08h37.00.801,HF_wild_card,2022.2.4,MacIntel,58.82352941,5db5f2196a72a3000cc54aa4,64d2fd46c836a06233681665,64dc7c8712bc9838b71f2148,,,,,,,decisionTrl,resources/DB.BMP,resources/DP.BMP,Door1,-0.3175,-0.0125,1,0,0,0.913,optionLeft,30,8880,4,29,0,29,0,1,,,,,,,,,,,,,,,,,,,,,,,,,,,,,,,,,,,,,,,
,,,,,,,,2023-08-16_08h37.00.801,HF_wild_card,2022.2.4,MacIntel,58.82352941,5db5f2196a72a3000cc54aa4,64d2fd46c836a06233681665,64dc7c8712bc9838b71f2148,,,,,,,decisionTrl,resources/DY.BMP,resources/DR.BMP,Door4,-0.2975,0.02,1,0,0,0.927,optionLeft,60,8940,4,30,0,30,0,1,,,,,,,,,,,,,,,,,,,,,,,,,,,,,,,,,,,,,,,
,,,,,,,,2023-08-16_08h37.00.801,HF_wild_card,2022.2.4,MacIntel,58.82352941,5db5f2196a72a3000cc54aa4,64d2fd46c836a06233681665,64dc7c8712bc9838b71f2148,,,,,,,decisionTrl,resources/DB.BMP,resources/DP.BMP,Door1,-0.27875,-0.01375,1,0,0,0.973,optionLeft,30,8970,4,31,0,31,0,1,,,,,,,,,,,,,,,,,,,,,,,,,,,,,,,,,,,,,,,
,,,,,,,,2023-08-16_08h37.00.801,HF_wild_card,2022.2.4,MacIntel,58.82352941,5db5f2196a72a3000cc54aa4,64d2fd46c836a06233681665,64dc7c8712bc9838b71f2148,,,,,,,sngl,resources/Empty.png,resources/DG.BMP,WildCard_Ex,0.37375,0.01375,1,0,0,0.741,optionRight,45,9015,4,32,0,32,0,1,,,,,,,,,,,,,,,,,,,,,,,,,,,,,,,,,,,,,,,
,,,,,,,,2023-08-16_08h37.00.801,HF_wild_card,2022.2.4,MacIntel,58.82352941,5db5f2196a72a3000cc54aa4,64d2fd46c836a06233681665,64dc7c8712bc9838b71f2148,,,,,,,sngl,resources/Empty.png,resources/DY.BMP,Door4,0.35375,0.0175,1,0,0,0.893,optionRight,80,9095,4,33,0,33,0,1,,,,,,,,,,,,,,,,,,,,,,,,,,,,,,,,,,,,,,,
,,,,,,,,2023-08-16_08h37.00.801,HF_wild_card,2022.2.4,MacIntel,58.82352941,5db5f2196a72a3000cc54aa4,64d2fd46c836a06233681665,64dc7c8712bc9838b71f2148,,,,,,,decisionTrl,resources/DG.BMP,resources/DY.BMP,Door4,0.38,0.0175,1,0,0,1.546,optionRight,80,9175,4,34,0,34,0,1,,,,,,,,,,,,,,,,,,,,,,,,,,,,,,,,,,,,,,,
,,,,,,,,2023-08-16_08h37.00.801,HF_wild_card,2022.2.4,MacIntel,58.82352941,5db5f2196a72a3000cc54aa4,64d2fd46c836a06233681665,64dc7c8712bc9838b71f2148,,,,,,,decisionTrl,resources/DR.BMP,resources/DY.BMP,Door3,-0.3725,0.035,1,0,0,1.546,optionLeft,70,9245,4,35,0,35,0,1,,,,,,,,,,,,,,,,,,,,,,,,,,,,,,,,,,,,,,,
,,,,,,,,2023-08-16_08h37.00.801,HF_wild_card,2022.2.4,MacIntel,58.82352941,5db5f2196a72a3000cc54aa4,64d2fd46c836a06233681665,64dc7c8712bc9838b71f2148,,,,,,,sngl,resources/DB.BMP,resources/Empty.png,Door1,-0.30125,0.03875,1,0,0,0.811,optionLeft,30,9275,4,36,0,36,0,1,,,,,,,,,,,,,,,,,,,,,,,,,,,,,,,,,,,,,,,
,,,,,,,,2023-08-16_08h37.00.801,HF_wild_card,2022.2.4,MacIntel,58.82352941,5db5f2196a72a3000cc54aa4,64d2fd46c836a06233681665,64dc7c8712bc9838b71f2148,,,,,,,sngl,resources/Empty.png,resources/DP.BMP,Door2,0.28375,-0.005,1,0,0,1.129,optionRight,40,9315,4,37,0,37,0,1,,,,,,,,,,,,,,,,,,,,,,,,,,,,,,,,,,,,,,,
,,,,,,,,2023-08-16_08h37.00.801,HF_wild_card,2022.2.4,MacIntel,58.82352941,5db5f2196a72a3000cc54aa4,64d2fd46c836a06233681665,64dc7c8712bc9838b71f2148,,,,,,,decisionTrl,resources/DG.BMP,resources/DR.BMP,Door3,0.3425,0.00625,1,0,0,1.975,optionRight,70,9385,4,38,0,38,0,1,,,,,,,,,,,,,,,,,,,,,,,,,,,,,,,,,,,,,,,
,,,,,,,,2023-08-16_08h37.00.801,HF_wild_card,2022.2.4,MacIntel,58.82352941,5db5f2196a72a3000cc54aa4,64d2fd46c836a06233681665,64dc7c8712bc9838b71f2148,,,,,,,decisionTrl,resources/DR.BMP,resources/DY.BMP,Door4,0.34375,0.00625,1,0,0,1.143,optionRight,60,9445,4,39,0,39,0,1,,,,,,,,,,,,,,,,,,,,,,,,,,,,,,,,,,,,,,,
,,,,,,,,2023-08-16_08h37.00.801,HF_wild_card,2022.2.4,MacIntel,58.82352941,5db5f2196a72a3000cc54aa4,64d2fd46c836a06233681665,64dc7c8712bc9838b71f2148,,,,,,,decisionTrl,resources/DG.BMP,resources/DP.BMP,WildCard_Ex,-0.3275,-0.05875,1,0,0,1.844,optionLeft,45,9490,4,40,0,40,0,1,,,,,,,,,,,,,,,,,,,,,,,,,,,,,,,,,,,,,,,
,,,,,,,,2023-08-16_08h37.00.801,HF_wild_card,2022.2.4,MacIntel,58.82352941,5db5f2196a72a3000cc54aa4,64d2fd46c836a06233681665,64dc7c8712bc9838b71f2148,,,,,,,ctch,resources/DP.BMP,resources/DR.BMP,Door3,0.37625,0.01125,1,0,0,1.226,optionRight,70,9560,4,41,0,41,0,1,,,,,,,,,,,,,,,,,,,,,,,,,,,,,,,,,,,,,,,
,,,,,,,,2023-08-16_08h37.00.801,HF_wild_card,2022.2.4,MacIntel,58.82352941,5db5f2196a72a3000cc54aa4,64d2fd46c836a06233681665,64dc7c8712bc9838b71f2148,,,,,,,decisionTrl,resources/DP.BMP,resources/DG.BMP,WildCard_Ex,0.37375,0.01875,1,0,0,1.029,optionRight,45,9605,4,42,0,42,0,1,,,,,,,,,,,,,,,,,,,,,,,,,,,,,,,,,,,,,,,
,,,,,,,,2023-08-16_08h37.00.801,HF_wild_card,2022.2.4,MacIntel,58.82352941,5db5f2196a72a3000cc54aa4,64d2fd46c836a06233681665,64dc7c8712bc9838b71f2148,,,,,,,ctch,resources/DP.BMP,resources/DR.BMP,Door3,0.39125,0.0425,1,0,0,0.847,optionRight,70,9675,4,43,0,43,0,1,,,,,,,,,,,,,,,,,,,,,,,,,,,,,,,,,,,,,,,
,,,,,,,,2023-08-16_08h37.00.801,HF_wild_card,2022.2.4,MacIntel,58.82352941,5db5f2196a72a3000cc54aa4,64d2fd46c836a06233681665,64dc7c8712bc9838b71f2148,,,,,,,,,,,,,,,,,,,,,,,,,,3,0,3,0,1,,,,,,,,,,,,,,,,,,,,,,,,,,,,,,,,,,
,,,,,,,,2023-08-16_08h37.00.801,HF_wild_card,2022.2.4,MacIntel,58.82352941,5db5f2196a72a3000cc54aa4,64d2fd46c836a06233681665,64dc7c8712bc9838b71f2148,,,,,,,ctch,resources/DB.BMP,resources/DY.BMP,Door4,0.37,0.0125,1,0,0,1.308,optionRight,60,9735,5,0,0,0,0,1,,,,,,,,,,,,,,,,,,,,,,,,,,,,,,,,,,,,,,,
,,,,,,,,2023-08-16_08h37.00.801,HF_wild_card,2022.2.4,MacIntel,58.82352941,5db5f2196a72a3000cc54aa4,64d2fd46c836a06233681665,64dc7c8712bc9838b71f2148,,,,,,,decisionTrl,resources/DP.BMP,resources/DB.BMP,Door1,0.29625,0.04125,1,0,0,1.43,optionRight,30,9765,5,1,0,1,0,1,,,,,,,,,,,,,,,,,,,,,,,,,,,,,,,,,,,,,,,
,,,,,,,,2023-08-16_08h37.00.801,HF_wild_card,2022.2.4,MacIntel,58.82352941,5db5f2196a72a3000cc54aa4,64d2fd46c836a06233681665,64dc7c8712bc9838b71f2148,,,,,,,sngl,resources/DR.BMP,resources/Empty.png,Door3,-0.315,-0.03125,1,0,0,0.79,optionLeft,70,9835,5,2,0,2,0,1,,,,,,,,,,,,,,,,,,,,,,,,,,,,,,,,,,,,,,,
,,,,,,,,2023-08-16_08h37.00.801,HF_wild_card,2022.2.4,MacIntel,58.82352941,5db5f2196a72a3000cc54aa4,64d2fd46c836a06233681665,64dc7c8712bc9838b71f2148,,,,,,,decisionTrl,resources/DB.BMP,resources/DP.BMP,Door1,-0.31125,-0.01375,1,0,0,1.013,optionLeft,30,9865,5,3,0,3,0,1,,,,,,,,,,,,,,,,,,,,,,,,,,,,,,,,,,,,,,,
,,,,,,,,2023-08-16_08h37.00.801,HF_wild_card,2022.2.4,MacIntel,58.82352941,5db5f2196a72a3000cc54aa4,64d2fd46c836a06233681665,64dc7c8712bc9838b71f2148,,,,,,,decisionTrl,resources/DP.BMP,resources/DB.BMP,Door2,-0.27625,-0.02875,1,0,0,2.043,optionLeft,40,9905,5,4,0,4,0,1,,,,,,,,,,,,,,,,,,,,,,,,,,,,,,,,,,,,,,,
,,,,,,,,2023-08-16_08h37.00.801,HF_wild_card,2022.2.4,MacIntel,58.82352941,5db5f2196a72a3000cc54aa4,64d2fd46c836a06233681665,64dc7c8712bc9838b71f2148,,,,,,,decisionTrl,resources/DB.BMP,resources/DP.BMP,Door2,0.39125,0.00375,1,0,0,1.942,optionRight,20,9925,5,5,0,5,0,1,,,,,,,,,,,,,,,,,,,,,,,,,,,,,,,,,,,,,,,
,,,,,,,,2023-08-16_08h37.00.801,HF_wild_card,2022.2.4,MacIntel,58.82352941,5db5f2196a72a3000cc54aa4,64d2fd46c836a06233681665,64dc7c8712bc9838b71f2148,,,,,,,ctch,resources/DP.BMP,resources/DR.BMP,Door3,0.28375,-0.03375,1,0,0,1.007,optionRight,70,9995,5,6,0,6,0,1,,,,,,,,,,,,,,,,,,,,,,,,,,,,,,,,,,,,,,,
,,,,,,,,2023-08-16_08h37.00.801,HF_wild_card,2022.2.4,MacIntel,58.82352941,5db5f2196a72a3000cc54aa4,64d2fd46c836a06233681665,64dc7c8712bc9838b71f2148,,,,,,,ctch,resources/DR.BMP,resources/DP.BMP,Door3,-0.35125,-0.00375,1,0,0,0.859,optionLeft,70,10065,5,7,0,7,0,1,,,,,,,,,,,,,,,,,,,,,,,,,,,,,,,,,,,,,,,
,,,,,,,,2023-08-16_08h37.00.801,HF_wild_card,2022.2.4,MacIntel,58.82352941,5db5f2196a72a3000cc54aa4,64d2fd46c836a06233681665,64dc7c8712bc9838b71f2148,,,,,,,ctch,resources/DY.BMP,resources/DB.BMP,Door4,-0.3225,-0.04375,1,0,0,1.593,optionLeft,60,10125,5,8,0,8,0,1,,,,,,,,,,,,,,,,,,,,,,,,,,,,,,,,,,,,,,,
,,,,,,,,2023-08-16_08h37.00.801,HF_wild_card,2022.2.4,MacIntel,58.82352941,5db5f2196a72a3000cc54aa4,64d2fd46c836a06233681665,64dc7c8712bc9838b71f2148,,,,,,,ctch,resources/DB.BMP,resources/DY.BMP,Door4,0.4225,0.0325,1,0,0,0.791,optionRight,60,10185,5,9,0,9,0,1,,,,,,,,,,,,,,,,,,,,,,,,,,,,,,,,,,,,,,,
,,,,,,,,2023-08-16_08h37.00.801,HF_wild_card,2022.2.4,MacIntel,58.82352941,5db5f2196a72a3000cc54aa4,64d2fd46c836a06233681665,64dc7c8712bc9838b71f2148,,,,,,,decisionTrl,resources/DG.BMP,resources/DY.BMP,Door4,0.39375,-0.00125,1,0,0,1.942,optionRight,80,10265,5,10,0,10,0,1,,,,,,,,,,,,,,,,,,,,,,,,,,,,,,,,,,,,,,,
,,,,,,,,2023-08-16_08h37.00.801,HF_wild_card,2022.2.4,MacIntel,58.82352941,5db5f2196a72a3000cc54aa4,64d2fd46c836a06233681665,64dc7c8712bc9838b71f2148,,,,,,,decisionTrl,resources/DR.BMP,resources/DY.BMP,Door4,0.40125,-0.0225,1,0,0,2.146,optionRight,60,10325,5,11,0,11,0,1,,,,,,,,,,,,,,,,,,,,,,,,,,,,,,,,,,,,,,,
,,,,,,,,2023-08-16_08h37.00.801,HF_wild_card,2022.2.4,MacIntel,58.82352941,5db5f2196a72a3000cc54aa4,64d2fd46c836a06233681665,64dc7c8712bc9838b71f2148,,,,,,,decisionTrl,resources/DG.BMP,resources/DR.BMP,Door3,0.3725,-0.01875,1,0,0,1.638,optionRight,70,10395,5,12,0,12,0,1,,,,,,,,,,,,,,,,,,,,,,,,,,,,,,,,,,,,,,,
,,,,,,,,2023-08-16_08h37.00.801,HF_wild_card,2022.2.4,MacIntel,58.82352941,5db5f2196a72a3000cc54aa4,64d2fd46c836a06233681665,64dc7c8712bc9838b71f2148,,,,,,,decisionTrl,resources/DY.BMP,resources/DR.BMP,Door4,-0.37,0.01,1,0,0,1.174,optionLeft,80,10475,5,13,0,13,0,1,,,,,,,,,,,,,,,,,,,,,,,,,,,,,,,,,,,,,,,
,,,,,,,,2023-08-16_08h37.00.801,HF_wild_card,2022.2.4,MacIntel,58.82352941,5db5f2196a72a3000cc54aa4,64d2fd46c836a06233681665,64dc7c8712bc9838b71f2148,,,,,,,sngl,resources/DG.BMP,resources/Empty.png,WildCard_Ex,-0.29875,0.035,1,0,0,1.959,optionLeft,55,10530,5,14,0,14,0,1,,,,,,,,,,,,,,,,,,,,,,,,,,,,,,,,,,,,,,,
,,,,,,,,2023-08-16_08h37.00.801,HF_wild_card,2022.2.4,MacIntel,58.82352941,5db5f2196a72a3000cc54aa4,64d2fd46c836a06233681665,64dc7c8712bc9838b71f2148,,,,,,,decisionTrl,resources/DR.BMP,resources/DG.BMP,Door3,-0.34375,0.025,1,0,0,1.447,optionLeft,70,10600,5,15,0,15,0,1,,,,,,,,,,,,,,,,,,,,,,,,,,,,,,,,,,,,,,,
,,,,,,,,2023-08-16_08h37.00.801,HF_wild_card,2022.2.4,MacIntel,58.82352941,5db5f2196a72a3000cc54aa4,64d2fd46c836a06233681665,64dc7c8712bc9838b71f2148,,,,,,,decisionTrl,resources/DP.BMP,resources/DG.BMP,WildCard_Ex,0.33625,0.03,1,0,0,0.942,optionRight,45,10645,5,16,0,16,0,1,,,,,,,,,,,,,,,,,,,,,,,,,,,,,,,,,,,,,,,
,,,,,,,,2023-08-16_08h37.00.801,HF_wild_card,2022.2.4,MacIntel,58.82352941,5db5f2196a72a3000cc54aa4,64d2fd46c836a06233681665,64dc7c8712bc9838b71f2148,,,,,,,decisionTrl,resources/DB.BMP,resources/DP.BMP,Door1,-0.285,0.005,1,0,0,1.045,optionLeft,30,10675,5,17,0,17,0,1,,,,,,,,,,,,,,,,,,,,,,,,,,,,,,,,,,,,,,,
,,,,,,,,2023-08-16_08h37.00.801,HF_wild_card,2022.2.4,MacIntel,58.82352941,5db5f2196a72a3000cc54aa4,64d2fd46c836a06233681665,64dc7c8712bc9838b71f2148,,,,,,,sngl,resources/Empty.png,resources/DG.BMP,WildCard_Ex,0.3075,0.01625,1,0,0,0.823,optionRight,55,10730,5,18,0,18,0,1,,,,,,,,,,,,,,,,,,,,,,,,,,,,,,,,,,,,,,,
,,,,,,,,2023-08-16_08h37.00.801,HF_wild_card,2022.2.4,MacIntel,58.82352941,5db5f2196a72a3000cc54aa4,64d2fd46c836a06233681665,64dc7c8712bc9838b71f2148,,,,,,,sngl,resources/Empty.png,resources/DY.BMP,Door4,0.28875,0,1,0,0,0.846,optionRight,60,10790,5,19,0,19,0,1,,,,,,,,,,,,,,,,,,,,,,,,,,,,,,,,,,,,,,,
,,,,,,,,2023-08-16_08h37.00.801,HF_wild_card,2022.2.4,MacIntel,58.82352941,5db5f2196a72a3000cc54aa4,64d2fd46c836a06233681665,64dc7c8712bc9838b71f2148,,,,,,,sngl,resources/Empty.png,resources/DR.BMP,Door3,0.29,0.04,1,0,0,0.779,optionRight,70,10860,5,20,0,20,0,1,,,,,,,,,,,,,,,,,,,,,,,,,,,,,,,,,,,,,,,
,,,,,,,,2023-08-16_08h37.00.801,HF_wild_card,2022.2.4,MacIntel,58.82352941,5db5f2196a72a3000cc54aa4,64d2fd46c836a06233681665,64dc7c8712bc9838b71f2148,,,,,,,sngl,resources/DG.BMP,resources/Empty.png,WildCard_Ex,-0.34375,-0.00875,1,0,0,0.677,optionLeft,45,10905,5,21,0,21,0,1,,,,,,,,,,,,,,,,,,,,,,,,,,,,,,,,,,,,,,,
,,,,,,,,2023-08-16_08h37.00.801,HF_wild_card,2022.2.4,MacIntel,58.82352941,5db5f2196a72a3000cc54aa4,64d2fd46c836a06233681665,64dc7c8712bc9838b71f2148,,,,,,,ctch,resources/DR.BMP,resources/DP.BMP,Door3,-0.315,0.0075,1,0,0,1.496,optionLeft,70,10975,5,22,0,22,0,1,,,,,,,,,,,,,,,,,,,,,,,,,,,,,,,,,,,,,,,
,,,,,,,,2023-08-16_08h37.00.801,HF_wild_card,2022.2.4,MacIntel,58.82352941,5db5f2196a72a3000cc54aa4,64d2fd46c836a06233681665,64dc7c8712bc9838b71f2148,,,,,,,sngl,resources/DP.BMP,resources/Empty.png,Door2,-0.26625,-0.0025,1,0,0,0.842,optionLeft,40,11015,5,23,0,23,0,1,,,,,,,,,,,,,,,,,,,,,,,,,,,,,,,,,,,,,,,
,,,,,,,,2023-08-16_08h37.00.801,HF_wild_card,2022.2.4,MacIntel,58.82352941,5db5f2196a72a3000cc54aa4,64d2fd46c836a06233681665,64dc7c8712bc9838b71f2148,,,,,,,ctch,resources/DP.BMP,resources/DR.BMP,Door3,0.40875,0.0225,1,0,0,1.481,optionRight,70,11085,5,24,0,24,0,1,,,,,,,,,,,,,,,,,,,,,,,,,,,,,,,,,,,,,,,
,,,,,,,,2023-08-16_08h37.00.801,HF_wild_card,2022.2.4,MacIntel,58.82352941,5db5f2196a72a3000cc54aa4,64d2fd46c836a06233681665,64dc7c8712bc9838b71f2148,,,,,,,sngl,resources/DY.BMP,resources/Empty.png,Door4,-0.3225,-0.00125,1,0,0,0.71,optionLeft,80,11165,5,25,0,25,0,1,,,,,,,,,,,,,,,,,,,,,,,,,,,,,,,,,,,,,,,
,,,,,,,,2023-08-16_08h37.00.801,HF_wild_card,2022.2.4,MacIntel,58.82352941,5db5f2196a72a3000cc54aa4,64d2fd46c836a06233681665,64dc7c8712bc9838b71f2148,,,,,,,sngl,resources/Empty.png,resources/DG.BMP,WildCard_Ex,0.4125,0.05125,1,0,0,0.726,optionRight,45,11210,5,26,0,26,0,1,,,,,,,,,,,,,,,,,,,,,,,,,,,,,,,,,,,,,,,
,,,,,,,,2023-08-16_08h37.00.801,HF_wild_card,2022.2.4,MacIntel,58.82352941,5db5f2196a72a3000cc54aa4,64d2fd46c836a06233681665,64dc7c8712bc9838b71f2148,,,,,,,decisionTrl,resources/DP.BMP,resources/DB.BMP,Door1,0.3175,0.00125,1,0,0,1.542,optionRight,30,11240,5,27,0,27,0,1,,,,,,,,,,,,,,,,,,,,,,,,,,,,,,,,,,,,,,,
,,,,,,,,2023-08-16_08h37.00.801,HF_wild_card,2022.2.4,MacIntel,58.82352941,5db5f2196a72a3000cc54aa4,64d2fd46c836a06233681665,64dc7c8712bc9838b71f2148,,,,,,,ctch,resources/DY.BMP,resources/DB.BMP,Door4,-0.36,-0.01875,1,0,0,1.064,optionLeft,80,11320,5,28,0,28,0,1,,,,,,,,,,,,,,,,,,,,,,,,,,,,,,,,,,,,,,,
,,,,,,,,2023-08-16_08h37.00.801,HF_wild_card,2022.2.4,MacIntel,58.82352941,5db5f2196a72a3000cc54aa4,64d2fd46c836a06233681665,64dc7c8712bc9838b71f2148,,,,,,,decisionTrl,resources/DB.BMP,resources/DG.BMP,WildCard_Ex,0.4475,0.07375,1,0,0,1.945,optionRight,45,11365,5,29,0,29,0,1,,,,,,,,,,,,,,,,,,,,,,,,,,,,,,,,,,,,,,,
,,,,,,,,2023-08-16_08h37.00.801,HF_wild_card,2022.2.4,MacIntel,58.82352941,5db5f2196a72a3000cc54aa4,64d2fd46c836a06233681665,64dc7c8712bc9838b71f2148,,,,,,,decisionTrl,resources/DG.BMP,resources/DP.BMP,WildCard_Ex,-0.33875,0.02,1,0,0,1.913,optionLeft,45,11410,5,30,0,30,0,1,,,,,,,,,,,,,,,,,,,,,,,,,,,,,,,,,,,,,,,
,,,,,,,,2023-08-16_08h37.00.801,HF_wild_card,2022.2.4,MacIntel,58.82352941,5db5f2196a72a3000cc54aa4,64d2fd46c836a06233681665,64dc7c8712bc9838b71f2148,,,,,,,decisionTrl,resources/DY.BMP,resources/DG.BMP,Door4,-0.38875,-0.01625,1,0,0,1.042,optionLeft,60,11470,5,31,0,31,0,1,,,,,,,,,,,,,,,,,,,,,,,,,,,,,,,,,,,,,,,
,,,,,,,,2023-08-16_08h37.00.801,HF_wild_card,2022.2.4,MacIntel,58.82352941,5db5f2196a72a3000cc54aa4,64d2fd46c836a06233681665,64dc7c8712bc9838b71f2148,,,,,,,sngl,resources/Empty.png,resources/DB.BMP,Door1,0.3225,0.00875,1,0,0,0.778,optionRight,30,11500,5,32,0,32,0,1,,,,,,,,,,,,,,,,,,,,,,,,,,,,,,,,,,,,,,,
,,,,,,,,2023-08-16_08h37.00.801,HF_wild_card,2022.2.4,MacIntel,58.82352941,5db5f2196a72a3000cc54aa4,64d2fd46c836a06233681665,64dc7c8712bc9838b71f2148,,,,,,,sngl,resources/DB.BMP,resources/Empty.png,Door1,-0.2975,0.00625,1,0,0,0.674,optionLeft,30,11530,5,33,0,33,0,1,,,,,,,,,,,,,,,,,,,,,,,,,,,,,,,,,,,,,,,
,,,,,,,,2023-08-16_08h37.00.801,HF_wild_card,2022.2.4,MacIntel,58.82352941,5db5f2196a72a3000cc54aa4,64d2fd46c836a06233681665,64dc7c8712bc9838b71f2148,,,,,,,decisionTrl,resources/DY.BMP,resources/DR.BMP,Door4,-0.315,-0.00125,1,0,0,1.513,optionLeft,80,11610,5,34,0,34,0,1,,,,,,,,,,,,,,,,,,,,,,,,,,,,,,,,,,,,,,,
,,,,,,,,2023-08-16_08h37.00.801,HF_wild_card,2022.2.4,MacIntel,58.82352941,5db5f2196a72a3000cc54aa4,64d2fd46c836a06233681665,64dc7c8712bc9838b71f2148,,,,,,,decisionTrl,resources/DR.BMP,resources/DY.BMP,Door4,0.39625,0.0375,1,0,0,1.193,optionRight,60,11670,5,35,0,35,0,1,,,,,,,,,,,,,,,,,,,,,,,,,,,,,,,,,,,,,,,
,,,,,,,,2023-08-16_08h37.00.801,HF_wild_card,2022.2.4,MacIntel,58.82352941,5db5f2196a72a3000cc54aa4,64d2fd46c836a06233681665,64dc7c8712bc9838b71f2148,,,,,,,sngl,resources/Empty.png,resources/DP.BMP,Door2,0.33,-0.0025,1,0,0,1.112,optionRight,20,11690,5,36,0,36,0,1,,,,,,,,,,,,,,,,,,,,,,,,,,,,,,,,,,,,,,,
,,,,,,,,2023-08-16_08h37.00.801,HF_wild_card,2022.2.4,MacIntel,58.82352941,5db5f2196a72a3000cc54aa4,64d2fd46c836a06233681665,64dc7c8712bc9838b71f2148,,,,,,,decisionTrl,resources/DP.BMP,resources/DB.BMP,Door1,0.3225,0.0225,1,0,0,1.11,optionRight,30,11720,5,37,0,37,0,1,,,,,,,,,,,,,,,,,,,,,,,,,,,,,,,,,,,,,,,
,,,,,,,,2023-08-16_08h37.00.801,HF_wild_card,2022.2.4,MacIntel,58.82352941,5db5f2196a72a3000cc54aa4,64d2fd46c836a06233681665,64dc7c8712bc9838b71f2148,,,,,,,decisionTrl,resources/DY.BMP,resources/DR.BMP,Door4,-0.375,-0.01125,1,0,0,0.894,optionLeft,80,11800,5,38,0,38,0,1,,,,,,,,,,,,,,,,,,,,,,,,,,,,,,,,,,,,,,,
,,,,,,,,2023-08-16_08h37.00.801,HF_wild_card,2022.2.4,MacIntel,58.82352941,5db5f2196a72a3000cc54aa4,64d2fd46c836a06233681665,64dc7c8712bc9838b71f2148,,,,,,,decisionTrl,resources/DR.BMP,resources/DY.BMP,Door4,0.40625,-0.0175,1,0,0,1.706,optionRight,60,11860,5,39,0,39,0,1,,,,,,,,,,,,,,,,,,,,,,,,,,,,,,,,,,,,,,,
,,,,,,,,2023-08-16_08h37.00.801,HF_wild_card,2022.2.4,MacIntel,58.82352941,5db5f2196a72a3000cc54aa4,64d2fd46c836a06233681665,64dc7c8712bc9838b71f2148,,,,,,,decisionTrl,resources/DB.BMP,resources/DP.BMP,Door1,-0.31625,0.02,1,0,0,1.063,optionLeft,30,11890,5,40,0,40,0,1,,,,,,,,,,,,,,,,,,,,,,,,,,,,,,,,,,,,,,,
,,,,,,,,2023-08-16_08h37.00.801,HF_wild_card,2022.2.4,MacIntel,58.82352941,5db5f2196a72a3000cc54aa4,64d2fd46c836a06233681665,64dc7c8712bc9838b71f2148,,,,,,,decisionTrl,resources/DG.BMP,resources/DB.BMP,WildCard_Ex,-0.32625,-0.0075,1,0,0,1.213,optionLeft,45,11935,5,41,0,41,0,1,,,,,,,,,,,,,,,,,,,,,,,,,,,,,,,,,,,,,,,
,,,,,,,,2023-08-16_08h37.00.801,HF_wild_card,2022.2.4,MacIntel,58.82352941,5db5f2196a72a3000cc54aa4,64d2fd46c836a06233681665,64dc7c8712bc9838b71f2148,,,,,,,decisionTrl,resources/DY.BMP,resources/DR.BMP,Door4,-0.31375,-0.03875,1,0,0,1.063,optionLeft,60,11995,5,42,0,42,0,1,,,,,,,,,,,,,,,,,,,,,,,,,,,,,,,,,,,,,,,
,,,,,,,,2023-08-16_08h37.00.801,HF_wild_card,2022.2.4,MacIntel,58.82352941,5db5f2196a72a3000cc54aa4,64d2fd46c836a06233681665,64dc7c8712bc9838b71f2148,,,,,,,decisionTrl,resources/DR.BMP,resources/DY.BMP,Door4,0.3525,-0.02125,1,0,0,2.13,optionRight,80,12075,5,43,0,43,0,1,,,,,,,,,,,,,,,,,,,,,,,,,,,,,,,,,,,,,,,
,,,,,,,,2023-08-16_08h37.00.801,HF_wild_card,2022.2.4,MacIntel,58.82352941,5db5f2196a72a3000cc54aa4,64d2fd46c836a06233681665,64dc7c8712bc9838b71f2148,,,,,,,,,,,,,,,,,,,,,,,,,,4,0,4,0,1,,,,,,,,,,,,,,,,,,,,,,,,,,,,,,,,,,
,,,,,,,,2023-08-16_08h37.00.801,HF_wild_card,2022.2.4,MacIntel,58.82352941,5db5f2196a72a3000cc54aa4,64d2fd46c836a06233681665,64dc7c8712bc9838b71f2148,,,,,,,sngl,resources/Empty.png,resources/DP.BMP,Door2,0.23375,-0.10125,1,0,0,1.607,optionRight,40,12115,6,0,0,0,0,1,,,,,,,,,,,,,,,,,,,,,,,,,,,,,,,,,,,,,,,
,,,,,,,,2023-08-16_08h37.00.801,HF_wild_card,2022.2.4,MacIntel,58.82352941,5db5f2196a72a3000cc54aa4,64d2fd46c836a06233681665,64dc7c8712bc9838b71f2148,,,,,,,decisionTrl,resources/DB.BMP,resources/DP.BMP,Door1,-0.31375,0.0275,1,0,0,1.058,optionLeft,30,12145,6,1,0,1,0,1,,,,,,,,,,,,,,,,,,,,,,,,,,,,,,,,,,,,,,,
,,,,,,,,2023-08-16_08h37.00.801,HF_wild_card,2022.2.4,MacIntel,58.82352941,5db5f2196a72a3000cc54aa4,64d2fd46c836a06233681665,64dc7c8712bc9838b71f2148,,,,,,,decisionTrl,resources/DB.BMP,resources/DP.BMP,Door1,-0.3375,-0.0175,1,0,0,0.708,optionLeft,30,12175,6,2,0,2,0,1,,,,,,,,,,,,,,,,,,,,,,,,,,,,,,,,,,,,,,,
,,,,,,,,2023-08-16_08h37.00.801,HF_wild_card,2022.2.4,MacIntel,58.82352941,5db5f2196a72a3000cc54aa4,64d2fd46c836a06233681665,64dc7c8712bc9838b71f2148,,,,,,,decisionTrl,resources/DR.BMP,resources/DG.BMP,Door3,-0.28875,-0.0275,1,0,0,1.479,optionLeft,70,12245,6,3,0,3,0,1,,,,,,,,,,,,,,,,,,,,,,,,,,,,,,,,,,,,,,,
,,,,,,,,2023-08-16_08h37.00.801,HF_wild_card,2022.2.4,MacIntel,58.82352941,5db5f2196a72a3000cc54aa4,64d2fd46c836a06233681665,64dc7c8712bc9838b71f2148,,,,,,,sngl,resources/DY.BMP,resources/Empty.png,Door4,-0.29,-0.015,1,0,0,0.691,optionLeft,60,12305,6,4,0,4,0,1,,,,,,,,,,,,,,,,,,,,,,,,,,,,,,,,,,,,,,,
,,,,,,,,2023-08-16_08h37.00.801,HF_wild_card,2022.2.4,MacIntel,58.82352941,5db5f2196a72a3000cc54aa4,64d2fd46c836a06233681665,64dc7c8712bc9838b71f2148,,,,,,,decisionTrl,resources/DR.BMP,resources/DY.BMP,Door4,0.36875,0.00125,1,0,0,1.041,optionRight,80,12385,6,5,0,5,0,1,,,,,,,,,,,,,,,,,,,,,,,,,,,,,,,,,,,,,,,
,,,,,,,,2023-08-16_08h37.00.801,HF_wild_card,2022.2.4,MacIntel,58.82352941,5db5f2196a72a3000cc54aa4,64d2fd46c836a06233681665,64dc7c8712bc9838b71f2148,,,,,,,decisionTrl,resources/DB.BMP,resources/DG.BMP,Door1,-0.29,0.00875,1,0,0,0.895,optionLeft,30,12415,6,6,0,6,0,1,,,,,,,,,,,,,,,,,,,,,,,,,,,,,,,,,,,,,,,
,,,,,,,,2023-08-16_08h37.00.801,HF_wild_card,2022.2.4,MacIntel,58.82352941,5db5f2196a72a3000cc54aa4,64d2fd46c836a06233681665,64dc7c8712bc9838b71f2148,,,,,,,ctch,resources/DR.BMP,resources/DP.BMP,Door3,-0.3675,-0.0225,1,0,0,0.859,optionLeft,70,12485,6,7,0,7,0,1,,,,,,,,,,,,,,,,,,,,,,,,,,,,,,,,,,,,,,,
,,,,,,,,2023-08-16_08h37.00.801,HF_wild_card,2022.2.4,MacIntel,58.82352941,5db5f2196a72a3000cc54aa4,64d2fd46c836a06233681665,64dc7c8712bc9838b71f2148,,,,,,,ctch,resources/DP.BMP,resources/DR.BMP,Door3,0.35375,-0.0125,1,0,0,1.359,optionRight,70,12555,6,8,0,8,0,1,,,,,,,,,,,,,,,,,,,,,,,,,,,,,,,,,,,,,,,
,,,,,,,,2023-08-16_08h37.00.801,HF_wild_card,2022.2.4,MacIntel,58.82352941,5db5f2196a72a3000cc54aa4,64d2fd46c836a06233681665,64dc7c8712bc9838b71f2148,,,,,,,sngl,resources/DB.BMP,resources/Empty.png,Door1,-0.26875,-0.005,1,0,0,0.709,optionLeft,30,12585,6,9,0,9,0,1,,,,,,,,,,,,,,,,,,,,,,,,,,,,,,,,,,,,,,,
,,,,,,,,2023-08-16_08h37.00.801,HF_wild_card,2022.2.4,MacIntel,58.82352941,5db5f2196a72a3000cc54aa4,64d2fd46c836a06233681665,64dc7c8712bc9838b71f2148,,,,,,,decisionTrl,resources/DG.BMP,resources/DR.BMP,Door3,0.41125,0.0125,1,0,0,1.259,optionRight,70,12655,6,10,0,10,0,1,,,,,,,,,,,,,,,,,,,,,,,,,,,,,,,,,,,,,,,
,,,,,,,,2023-08-16_08h37.00.801,HF_wild_card,2022.2.4,MacIntel,58.82352941,5db5f2196a72a3000cc54aa4,64d2fd46c836a06233681665,64dc7c8712bc9838b71f2148,,,,,,,sngl,resources/Empty.png,resources/DG.BMP,WildCard_Ex,0.2925,0.015,1,0,0,0.942,optionRight,55,12710,6,11,0,11,0,1,,,,,,,,,,,,,,,,,,,,,,,,,,,,,,,,,,,,,,,
,,,,,,,,2023-08-16_08h37.00.801,HF_wild_card,2022.2.4,MacIntel,58.82352941,5db5f2196a72a3000cc54aa4,64d2fd46c836a06233681665,64dc7c8712bc9838b71f2148,,,,,,,decisionTrl,resources/DB.BMP,resources/DP.BMP,Door1,-0.33,-0.0075,1,0,0,0.93,optionLeft,30,12740,6,12,0,12,0,1,,,,,,,,,,,,,,,,,,,,,,,,,,,,,,,,,,,,,,,
,,,,,,,,2023-08-16_08h37.00.801,HF_wild_card,2022.2.4,MacIntel,58.82352941,5db5f2196a72a3000cc54aa4,64d2fd46c836a06233681665,64dc7c8712bc9838b71f2148,,,,,,,sngl,resources/Empty.png,resources/DY.BMP,Door4,0.35875,0.02875,1,0,0,0.731,optionRight,80,12820,6,13,0,13,0,1,,,,,,,,,,,,,,,,,,,,,,,,,,,,,,,,,,,,,,,
,,,,,,,,2023-08-16_08h37.00.801,HF_wild_card,2022.2.4,MacIntel,58.82352941,5db5f2196a72a3000cc54aa4,64d2fd46c836a06233681665,64dc7c8712bc9838b71f2148,,,,,,,decisionTrl,resources/DR.BMP,resources/DY.BMP,Door4,0.35625,-0.02625,1,0,0,1.66,optionRight,60,12880,6,14,0,14,0,1,,,,,,,,,,,,,,,,,,,,,,,,,,,,,,,,,,,,,,,
,,,,,,,,2023-08-16_08h37.00.801,HF_wild_card,2022.2.4,MacIntel,58.82352941,5db5f2196a72a3000cc54aa4,64d2fd46c836a06233681665,64dc7c8712bc9838b71f2148,,,,,,,sngl,resources/DP.BMP,resources/Empty.png,Door2,-0.21,0,1,0,0,0.943,optionLeft,20,12900,6,15,0,15,0,1,,,,,,,,,,,,,,,,,,,,,,,,,,,,,,,,,,,,,,,
,,,,,,,,2023-08-16_08h37.00.801,HF_wild_card,2022.2.4,MacIntel,58.82352941,5db5f2196a72a3000cc54aa4,64d2fd46c836a06233681665,64dc7c8712bc9838b71f2148,,,,,,,sngl,resources/Empty.png,resources/DG.BMP,WildCard_Ex,0.35375,0.00875,1,0,0,0.696,optionRight,45,12945,6,16,0,16,0,1,,,,,,,,,,,,,,,,,,,,,,,,,,,,,,,,,,,,,,,
,,,,,,,,2023-08-16_08h37.00.801,HF_wild_card,2022.2.4,MacIntel,58.82352941,5db5f2196a72a3000cc54aa4,64d2fd46c836a06233681665,64dc7c8712bc9838b71f2148,,,,,,,ctch,resources/DB.BMP,resources/DY.BMP,Door4,0.38875,0.045,1,0,0,1.095,optionRight,60,13005,6,17,0,17,0,1,,,,,,,,,,,,,,,,,,,,,,,,,,,,,,,,,,,,,,,
,,,,,,,,2023-08-16_08h37.00.801,HF_wild_card,2022.2.4,MacIntel,58.82352941,5db5f2196a72a3000cc54aa4,64d2fd46c836a06233681665,64dc7c8712bc9838b71f2148,,,,,,,ctch,resources/DR.BMP,resources/DP.BMP,Door3,-0.28875,-0.005,1,0,0,1.027,optionLeft,70,13075,6,18,0,18,0,1,,,,,,,,,,,,,,,,,,,,,,,,,,,,,,,,,,,,,,,
,,,,,,,,2023-08-16_08h37.00.801,HF_wild_card,2022.2.4,MacIntel,58.82352941,5db5f2196a72a3000cc54aa4,64d2fd46c836a06233681665,64dc7c8712bc9838b71f2148,,,,,,,ctch,resources/DB.BMP,resources/DY.BMP,Door4,0.35875,0.00375,1,0,0,1.197,optionRight,80,13155,6,19,0,19,0,1,,,,,,,,,,,,,,,,,,,,,,,,,,,,,,,,,,,,,,,
,,,,,,,,2023-08-16_08h37.00.801,HF_wild_card,2022.2.4,MacIntel,58.82352941,5db5f2196a72a3000cc54aa4,64d2fd46c836a06233681665,64dc7c8712bc9838b71f2148,,,,,,,sngl,resources/DG.BMP,resources/Empty.png,WildCard_Ex,-0.3375,-0.0125,1,0,0,0.763,optionLeft,45,13200,6,20,0,20,0,1,,,,,,,,,,,,,,,,,,,,,,,,,,,,,,,,,,,,,,,
,,,,,,,,2023-08-16_08h37.00.801,HF_wild_card,2022.2.4,MacIntel,58.82352941,5db5f2196a72a3000cc54aa4,64d2fd46c836a06233681665,64dc7c8712bc9838b71f2148,,,,,,,decisionTrl,resources/DR.BMP,resources/DY.BMP,Door4,0.37125,0.01625,1,0,0,0.827,optionRight,80,13280,6,21,0,21,0,1,,,,,,,,,,,,,,,,,,,,,,,,,,,,,,,,,,,,,,,
,,,,,,,,2023-08-16_08h37.00.801,HF_wild_card,2022.2.4,MacIntel,58.82352941,5db5f2196a72a3000cc54aa4,64d2fd46c836a06233681665,64dc7c8712bc9838b71f2148,,,,,,,decisionTrl,resources/DR.BMP,resources/DY.BMP,Door4,0.40875,0.03875,1,0,0,1.263,optionRight,60,13340,6,22,0,22,0,1,,,,,,,,,,,,,,,,,,,,,,,,,,,,,,,,,,,,,,,
,,,,,,,,2023-08-16_08h37.00.801,HF_wild_card,2022.2.4,MacIntel,58.82352941,5db5f2196a72a3000cc54aa4,64d2fd46c836a06233681665,64dc7c8712bc9838b71f2148,,,,,,,decisionTrl,resources/DP.BMP,resources/DB.BMP,Door1,0.31875,0.0325,1,0,0,1.691,optionRight,30,13370,6,23,0,23,0,1,,,,,,,,,,,,,,,,,,,,,,,,,,,,,,,,,,,,,,,
,,,,,,,,2023-08-16_08h37.00.801,HF_wild_card,2022.2.4,MacIntel,58.82352941,5db5f2196a72a3000cc54aa4,64d2fd46c836a06233681665,64dc7c8712bc9838b71f2148,,,,,,,decisionTrl,resources/DY.BMP,resources/DR.BMP,Door4,-0.27,0.02,1,0,0,1.191,optionLeft,80,13450,6,24,0,24,0,1,,,,,,,,,,,,,,,,,,,,,,,,,,,,,,,,,,,,,,,
,,,,,,,,2023-08-16_08h37.00.801,HF_wild_card,2022.2.4,MacIntel,58.82352941,5db5f2196a72a3000cc54aa4,64d2fd46c836a06233681665,64dc7c8712bc9838b71f2148,,,,,,,decisionTrl,resources/DG.BMP,resources/DP.BMP,WildCard_Ex,-0.29875,0.02,1,0,0,1.112,optionLeft,55,13505,6,25,0,25,0,1,,,,,,,,,,,,,,,,,,,,,,,,,,,,,,,,,,,,,,,
,,,,,,,,2023-08-16_08h37.00.801,HF_wild_card,2022.2.4,MacIntel,58.82352941,5db5f2196a72a3000cc54aa4,64d2fd46c836a06233681665,64dc7c8712bc9838b71f2148,,,,,,,sngl,resources/Empty.png,resources/DR.BMP,Door3,0.31875,0.01625,1,0,0,0.826,optionRight,70,13575,6,26,0,26,0,1,,,,,,,,,,,,,,,,,,,,,,,,,,,,,,,,,,,,,,,
,,,,,,,,2023-08-16_08h37.00.801,HF_wild_card,2022.2.4,MacIntel,58.82352941,5db5f2196a72a3000cc54aa4,64d2fd46c836a06233681665,64dc7c8712bc9838b71f2148,,,,,,,decisionTrl,resources/DP.BMP,resources/DG.BMP,WildCard_Ex,0.35125,0.03,1,0,0,1.095,optionRight,55,13630,6,27,0,27,0,1,,,,,,,,,,,,,,,,,,,,,,,,,,,,,,,,,,,,,,,
,,,,,,,,2023-08-16_08h37.00.801,HF_wild_card,2022.2.4,MacIntel,58.82352941,5db5f2196a72a3000cc54aa4,64d2fd46c836a06233681665,64dc7c8712bc9838b71f2148,,,,,,,ctch,resources/DY.BMP,resources/DB.BMP,Door4,-0.43875,0.0325,1,0,0,1.397,optionLeft,80,13710,6,28,0,28,0,1,,,,,,,,,,,,,,,,,,,,,,,,,,,,,,,,,,,,,,,
,,,,,,,,2023-08-16_08h37.00.801,HF_wild_card,2022.2.4,MacIntel,58.82352941,5db5f2196a72a3000cc54aa4,64d2fd46c836a06233681665,64dc7c8712bc9838b71f2148,,,,,,,decisionTrl,resources/DY.BMP,resources/DR.BMP,Door4,-0.31875,-0.0225,1,0,0,0.996,optionLeft,60,13770,6,29,0,29,0,1,,,,,,,,,,,,,,,,,,,,,,,,,,,,,,,,,,,,,,,
,,,,,,,,2023-08-16_08h37.00.801,HF_wild_card,2022.2.4,MacIntel,58.82352941,5db5f2196a72a3000cc54aa4,64d2fd46c836a06233681665,64dc7c8712bc9838b71f2148,,,,,,,ctch,resources/DP.BMP,resources/DR.BMP,Door3,0.345,0.02125,1,0,0,1.145,optionRight,70,13840,6,30,0,30,0,1,,,,,,,,,,,,,,,,,,,,,,,,,,,,,,,,,,,,,,,
,,,,,,,,2023-08-16_08h37.00.801,HF_wild_card,2022.2.4,MacIntel,58.82352941,5db5f2196a72a3000cc54aa4,64d2fd46c836a06233681665,64dc7c8712bc9838b71f2148,,,,,,,decisionTrl,resources/DG.BMP,resources/DY.BMP,Door4,0.3825,0.05125,1,0,0,1.241,optionRight,80,13920,6,31,0,31,0,1,,,,,,,,,,,,,,,,,,,,,,,,,,,,,,,,,,,,,,,
,,,,,,,,2023-08-16_08h37.00.801,HF_wild_card,2022.2.4,MacIntel,58.82352941,5db5f2196a72a3000cc54aa4,64d2fd46c836a06233681665,64dc7c8712bc9838b71f2148,,,,,,,decisionTrl,resources/DY.BMP,resources/DR.BMP,Door4,-0.39125,0.0175,1,0,0,1.127,optionLeft,80,14000,6,32,0,32,0,1,,,,,,,,,,,,,,,,,,,,,,,,,,,,,,,,,,,,,,,
,,,,,,,,2023-08-16_08h37.00.801,HF_wild_card,2022.2.4,MacIntel,58.82352941,5db5f2196a72a3000cc54aa4,64d2fd46c836a06233681665,64dc7c8712bc9838b71f2148,,,,,,,decisionTrl,resources/DP.BMP,resources/DB.BMP,Door1,0.3425,0.0225,1,0,0,0.827,optionRight,30,14030,6,33,0,33,0,1,,,,,,,,,,,,,,,,,,,,,,,,,,,,,,,,,,,,,,,
,,,,,,,,2023-08-16_08h37.00.801,HF_wild_card,2022.2.4,MacIntel,58.82352941,5db5f2196a72a3000cc54aa4,64d2fd46c836a06233681665,64dc7c8712bc9838b71f2148,,,,,,,decisionTrl,resources/DY.BMP,resources/DR.BMP,Door3,0.35875,0.05,1,0,0,1.696,optionRight,70,14100,6,34,0,34,0,1,,,,,,,,,,,,,,,,,,,,,,,,,,,,,,,,,,,,,,,
,,,,,,,,2023-08-16_08h37.00.801,HF_wild_card,2022.2.4,MacIntel,58.82352941,5db5f2196a72a3000cc54aa4,64d2fd46c836a06233681665,64dc7c8712bc9838b71f2148,,,,,,,decisionTrl,resources/DP.BMP,resources/DB.BMP,Door1,0.29875,0.02625,1,0,0,0.911,optionRight,30,14130,6,35,0,35,0,1,,,,,,,,,,,,,,,,,,,,,,,,,,,,,,,,,,,,,,,
,,,,,,,,2023-08-16_08h37.00.801,HF_wild_card,2022.2.4,MacIntel,58.82352941,5db5f2196a72a3000cc54aa4,64d2fd46c836a06233681665,64dc7c8712bc9838b71f2148,,,,,,,decisionTrl,resources/DP.BMP,resources/DB.BMP,Door1,0.3425,0.02,1,0,0,0.946,optionRight,30,14160,6,36,0,36,0,1,,,,,,,,,,,,,,,,,,,,,,,,,,,,,,,,,,,,,,,
,,,,,,,,2023-08-16_08h37.00.801,HF_wild_card,2022.2.4,MacIntel,58.82352941,5db5f2196a72a3000cc54aa4,64d2fd46c836a06233681665,64dc7c8712bc9838b71f2148,,,,,,,decisionTrl,resources/DB.BMP,resources/DP.BMP,Door1,-0.38125,-0.01375,1,0,0,0.998,optionLeft,30,14190,6,37,0,37,0,1,,,,,,,,,,,,,,,,,,,,,,,,,,,,,,,,,,,,,,,
,,,,,,,,2023-08-16_08h37.00.801,HF_wild_card,2022.2.4,MacIntel,58.82352941,5db5f2196a72a3000cc54aa4,64d2fd46c836a06233681665,64dc7c8712bc9838b71f2148,,,,,,,sngl,resources/DG.BMP,resources/Empty.png,WildCard_Ex,-0.3025,0.0125,1,0,0,0.676,optionLeft,55,14245,6,38,0,38,0,1,,,,,,,,,,,,,,,,,,,,,,,,,,,,,,,,,,,,,,,
,,,,,,,,2023-08-16_08h37.00.801,HF_wild_card,2022.2.4,MacIntel,58.82352941,5db5f2196a72a3000cc54aa4,64d2fd46c836a06233681665,64dc7c8712bc9838b71f2148,,,,,,,ctch,resources/DY.BMP,resources/DB.BMP,Door4,-0.26625,-0.02,1,0,0,0.863,optionLeft,80,14325,6,39,0,39,0,1,,,,,,,,,,,,,,,,,,,,,,,,,,,,,,,,,,,,,,,
,,,,,,,,2023-08-16_08h37.00.801,HF_wild_card,2022.2.4,MacIntel,58.82352941,5db5f2196a72a3000cc54aa4,64d2fd46c836a06233681665,64dc7c8712bc9838b71f2148,,,,,,,sngl,resources/Empty.png,resources/DB.BMP,Door1,0.29375,0.02375,1,0,0,1.096,optionRight,30,14355,6,40,0,40,0,1,,,,,,,,,,,,,,,,,,,,,,,,,,,,,,,,,,,,,,,
,,,,,,,,2023-08-16_08h37.00.801,HF_wild_card,2022.2.4,MacIntel,58.82352941,5db5f2196a72a3000cc54aa4,64d2fd46c836a06233681665,64dc7c8712bc9838b71f2148,,,,,,,decisionTrl,resources/DG.BMP,resources/DB.BMP,WildCard_Ex,-0.305,0.00875,1,0,0,0.946,optionLeft,55,14410,6,41,0,41,0,1,,,,,,,,,,,,,,,,,,,,,,,,,,,,,,,,,,,,,,,
,,,,,,,,2023-08-16_08h37.00.801,HF_wild_card,2022.2.4,MacIntel,58.82352941,5db5f2196a72a3000cc54aa4,64d2fd46c836a06233681665,64dc7c8712bc9838b71f2148,,,,,,,decisionTrl,resources/DY.BMP,resources/DG.BMP,Door4,-0.3025,0.025,1,0,0,0.712,optionLeft,60,14470,6,42,0,42,0,1,,,,,,,,,,,,,,,,,,,,,,,,,,,,,,,,,,,,,,,
,,,,,,,,2023-08-16_08h37.00.801,HF_wild_card,2022.2.4,MacIntel,58.82352941,5db5f2196a72a3000cc54aa4,64d2fd46c836a06233681665,64dc7c8712bc9838b71f2148,,,,,,,sngl,resources/DR.BMP,resources/Empty.png,Door3,-0.3275,-0.03,1,0,0,0.639,optionLeft,70,14540,6,43,0,43,0,1,,,,,,,,,,,,,,,,,,,,,,,,,,,,,,,,,,,,,,,
,,,,,,,,2023-08-16_08h37.00.801,HF_wild_card,2022.2.4,MacIntel,58.82352941,5db5f2196a72a3000cc54aa4,64d2fd46c836a06233681665,64dc7c8712bc9838b71f2148,,,,,,,,,,,,,,,,,,,,,,,,,,5,0,5,0,1,,,,,,,,,,,,,,,,,,,,,,,,,,,,,,,,,,
,,,,,,,,2023-08-16_08h37.00.801,HF_wild_card,2022.2.4,MacIntel,58.82352941,5db5f2196a72a3000cc54aa4,64d2fd46c836a06233681665,64dc7c8712bc9838b71f2148,,,,,,,ctch,resources/DP.BMP,resources/DR.BMP,Door3,0.39125,-0.02625,1,0,0,1.024,optionRight,70,14610,7,0,0,0,0,1,,,,,,,,,,,,,,,,,,,,,,,,,,,,,,,,,,,,,,,
,,,,,,,,2023-08-16_08h37.00.801,HF_wild_card,2022.2.4,MacIntel,58.82352941,5db5f2196a72a3000cc54aa4,64d2fd46c836a06233681665,64dc7c8712bc9838b71f2148,,,,,,,decisionTrl,resources/DB.BMP,resources/DP.BMP,Door1,-0.4025,-0.02125,1,0,0,0.899,optionLeft,30,14640,7,1,0,1,0,1,,,,,,,,,,,,,,,,,,,,,,,,,,,,,,,,,,,,,,,
,,,,,,,,2023-08-16_08h37.00.801,HF_wild_card,2022.2.4,MacIntel,58.82352941,5db5f2196a72a3000cc54aa4,64d2fd46c836a06233681665,64dc7c8712bc9838b71f2148,,,,,,,decisionTrl,resources/DR.BMP,resources/DY.BMP,Door4,0.3875,0.00125,1,0,0,0.832,optionRight,80,14720,7,2,0,2,0,1,,,,,,,,,,,,,,,,,,,,,,,,,,,,,,,,,,,,,,,
,,,,,,,,2023-08-16_08h37.00.801,HF_wild_card,2022.2.4,MacIntel,58.82352941,5db5f2196a72a3000cc54aa4,64d2fd46c836a06233681665,64dc7c8712bc9838b71f2148,,,,,,,decisionTrl,resources/DY.BMP,resources/DR.BMP,Door4,-0.35375,-0.01,1,0,0,0.781,optionLeft,60,14780,7,3,0,3,0,1,,,,,,,,,,,,,,,,,,,,,,,,,,,,,,,,,,,,,,,
,,,,,,,,2023-08-16_08h37.00.801,HF_wild_card,2022.2.4,MacIntel,58.82352941,5db5f2196a72a3000cc54aa4,64d2fd46c836a06233681665,64dc7c8712bc9838b71f2148,,,,,,,ctch,resources/DB.BMP,resources/DY.BMP,Door4,0.39,0.01125,1,0,0,0.866,optionRight,80,14860,7,4,0,4,0,1,,,,,,,,,,,,,,,,,,,,,,,,,,,,,,,,,,,,,,,
,,,,,,,,2023-08-16_08h37.00.801,HF_wild_card,2022.2.4,MacIntel,58.82352941,5db5f2196a72a3000cc54aa4,64d2fd46c836a06233681665,64dc7c8712bc9838b71f2148,,,,,,,decisionTrl,resources/DB.BMP,resources/DP.BMP,Door1,-0.32125,-0.02375,1,0,0,0.966,optionLeft,30,14890,7,5,0,5,0,1,,,,,,,,,,,,,,,,,,,,,,,,,,,,,,,,,,,,,,,
,,,,,,,,2023-08-16_08h37.00.801,HF_wild_card,2022.2.4,MacIntel,58.82352941,5db5f2196a72a3000cc54aa4,64d2fd46c836a06233681665,64dc7c8712bc9838b71f2148,,,,,,,decisionTrl,resources/DB.BMP,resources/DP.BMP,Door1,-0.35,-0.03875,1,0,0,0.799,optionLeft,30,14920,7,6,0,6,0,1,,,,,,,,,,,,,,,,,,,,,,,,,,,,,,,,,,,,,,,
,,,,,,,,2023-08-16_08h37.00.801,HF_wild_card,2022.2.4,MacIntel,58.82352941,5db5f2196a72a3000cc54aa4,64d2fd46c836a06233681665,64dc7c8712bc9838b71f2148,,,,,,,ctch,resources/DR.BMP,resources/DP.BMP,Door3,-0.36,-0.01875,1,0,0,0.949,optionLeft,70,14990,7,7,0,7,0,1,,,,,,,,,,,,,,,,,,,,,,,,,,,,,,,,,,,,,,,
,,,,,,,,2023-08-16_08h37.00.801,HF_wild_card,2022.2.4,MacIntel,58.82352941,5db5f2196a72a3000cc54aa4,64d2fd46c836a06233681665,64dc7c8712bc9838b71f2148,,,,,,,ctch,resources/DR.BMP,resources/DP.BMP,Door3,-0.355,-0.0475,1,0,0,0.783,optionLeft,70,15060,7,8,0,8,0,1,,,,,,,,,,,,,,,,,,,,,,,,,,,,,,,,,,,,,,,
,,,,,,,,2023-08-16_08h37.00.801,HF_wild_card,2022.2.4,MacIntel,58.82352941,5db5f2196a72a3000cc54aa4,64d2fd46c836a06233681665,64dc7c8712bc9838b71f2148,,,,,,,decisionTrl,resources/DP.BMP,resources/DB.BMP,Door1,0.33125,0.0875,1,0,0,0.899,optionRight,30,15090,7,9,0,9,0,1,,,,,,,,,,,,,,,,,,,,,,,,,,,,,,,,,,,,,,,
,,,,,,,,2023-08-16_08h37.00.801,HF_wild_card,2022.2.4,MacIntel,58.82352941,5db5f2196a72a3000cc54aa4,64d2fd46c836a06233681665,64dc7c8712bc9838b71f2148,,,,,,,ctch,resources/DP.BMP,resources/DR.BMP,Door3,0.355,0.05,1,0,0,0.967,optionRight,70,15160,7,10,0,10,0,1,,,,,,,,,,,,,,,,,,,,,,,,,,,,,,,,,,,,,,,
,,,,,,,,2023-08-16_08h37.00.801,HF_wild_card,2022.2.4,MacIntel,58.82352941,5db5f2196a72a3000cc54aa4,64d2fd46c836a06233681665,64dc7c8712bc9838b71f2148,,,,,,,decisionTrl,resources/DR.BMP,resources/DY.BMP,Door4,0.3625,0.02375,1,0,0,0.932,optionRight,80,15240,7,11,0,11,0,1,,,,,,,,,,,,,,,,,,,,,,,,,,,,,,,,,,,,,,,
,,,,,,,,2023-08-16_08h37.00.801,HF_wild_card,2022.2.4,MacIntel,58.82352941,5db5f2196a72a3000cc54aa4,64d2fd46c836a06233681665,64dc7c8712bc9838b71f2148,,,,,,,ctch,resources/DY.BMP,resources/DB.BMP,Door4,-0.3425,-0.02875,1,0,0,0.783,optionLeft,60,15300,7,12,0,12,0,1,,,,,,,,,,,,,,,,,,,,,,,,,,,,,,,,,,,,,,,
,,,,,,,,2023-08-16_08h37.00.801,HF_wild_card,2022.2.4,MacIntel,58.82352941,5db5f2196a72a3000cc54aa4,64d2fd46c836a06233681665,64dc7c8712bc9838b71f2148,,,,,,,decisionTrl,resources/DP.BMP,resources/DB.BMP,Door1,0.3475,0.0025,1,0,0,1.25,optionRight,30,15330,7,13,0,13,0,1,,,,,,,,,,,,,,,,,,,,,,,,,,,,,,,,,,,,,,,
,,,,,,,,2023-08-16_08h37.00.801,HF_wild_card,2022.2.4,MacIntel,58.82352941,5db5f2196a72a3000cc54aa4,64d2fd46c836a06233681665,64dc7c8712bc9838b71f2148,,,,,,,ctch,resources/DP.BMP,resources/DR.BMP,Door3,0.37,0.01,1,0,0,0.984,optionRight,70,15400,7,14,0,14,0,1,,,,,,,,,,,,,,,,,,,,,,,,,,,,,,,,,,,,,,,
,,,,,,,,2023-08-16_08h37.00.801,HF_wild_card,2022.2.4,MacIntel,58.82352941,5db5f2196a72a3000cc54aa4,64d2fd46c836a06233681665,64dc7c8712bc9838b71f2148,,,,,,,decisionTrl,resources/DY.BMP,resources/DR.BMP,Door4,-0.29625,-0.01875,1,0,0,0.849,optionLeft,80,15480,7,15,0,15,0,1,,,,,,,,,,,,,,,,,,,,,,,,,,,,,,,,,,,,,,,
,,,,,,,,2023-08-16_08h37.00.801,HF_wild_card,2022.2.4,MacIntel,58.82352941,5db5f2196a72a3000cc54aa4,64d2fd46c836a06233681665,64dc7c8712bc9838b71f2148,,,,,,,decisionTrl,resources/DY.BMP,resources/DR.BMP,Door4,-0.28875,-0.0575,1,0,0,0.766,optionLeft,60,15540,7,16,0,16,0,1,,,,,,,,,,,,,,,,,,,,,,,,,,,,,,,,,,,,,,,
,,,,,,,,2023-08-16_08h37.00.801,HF_wild_card,2022.2.4,MacIntel,58.82352941,5db5f2196a72a3000cc54aa4,64d2fd46c836a06233681665,64dc7c8712bc9838b71f2148,,,,,,,decisionTrl,resources/DB.BMP,resources/DP.BMP,Door1,-0.24875,-0.04625,1,0,0,0.917,optionLeft,30,15570,7,17,0,17,0,1,,,,,,,,,,,,,,,,,,,,,,,,,,,,,,,,,,,,,,,
,,,,,,,,2023-08-16_08h37.00.801,HF_wild_card,2022.2.4,MacIntel,58.82352941,5db5f2196a72a3000cc54aa4,64d2fd46c836a06233681665,64dc7c8712bc9838b71f2148,,,,,,,decisionTrl,resources/DY.BMP,resources/DR.BMP,Door4,-0.265,-0.06,1,0,0,0.766,optionLeft,80,15650,7,18,0,18,0,1,,,,,,,,,,,,,,,,,,,,,,,,,,,,,,,,,,,,,,,
,,,,,,,,2023-08-16_08h37.00.801,HF_wild_card,2022.2.4,MacIntel,58.82352941,5db5f2196a72a3000cc54aa4,64d2fd46c836a06233681665,64dc7c8712bc9838b71f2148,,,,,,,ctch,resources/DB.BMP,resources/DY.BMP,Door4,0.37,0.03625,1,0,0,0.965,optionRight,80,15730,7,19,0,19,0,1,,,,,,,,,,,,,,,,,,,,,,,,,,,,,,,,,,,,,,,
,,,,,,,,2023-08-16_08h37.00.801,HF_wild_card,2022.2.4,MacIntel,58.82352941,5db5f2196a72a3000cc54aa4,64d2fd46c836a06233681665,64dc7c8712bc9838b71f2148,,,,,,,ctch,resources/DY.BMP,resources/DB.BMP,Door4,-0.3175,-0.04125,1,0,0,0.715,optionLeft,60,15790,7,20,0,20,0,1,,,,,,,,,,,,,,,,,,,,,,,,,,,,,,,,,,,,,,,
,,,,,,,,2023-08-16_08h37.00.801,HF_wild_card,2022.2.4,MacIntel,58.82352941,5db5f2196a72a3000cc54aa4,64d2fd46c836a06233681665,64dc7c8712bc9838b71f2148,,,,,,,ctch,resources/DR.BMP,resources/DP.BMP,Door3,-0.26125,-0.04375,1,0,0,0.983,optionLeft,70,15860,7,21,0,21,0,1,,,,,,,,,,,,,,,,,,,,,,,,,,,,,,,,,,,,,,,
,,,,,,,,2023-08-16_08h37.00.801,HF_wild_card,2022.2.4,MacIntel,58.82352941,5db5f2196a72a3000cc54aa4,64d2fd46c836a06233681665,64dc7c8712bc9838b71f2148,,,,,,,decisionTrl,resources/DR.BMP,resources/DY.BMP,Door4,0.305,0.01375,1,0,0,0.766,optionRight,80,15940,7,22,0,22,0,1,,,,,,,,,,,,,,,,,,,,,,,,,,,,,,,,,,,,,,,
,,,,,,,,2023-08-16_08h37.00.801,HF_wild_card,2022.2.4,MacIntel,58.82352941,5db5f2196a72a3000cc54aa4,64d2fd46c836a06233681665,64dc7c8712bc9838b71f2148,,,,,,,ctch,resources/DY.BMP,resources/DB.BMP,Door4,-0.325,-0.0275,1,0,0,0.749,optionLeft,60,16000,7,23,0,23,0,1,,,,,,,,,,,,,,,,,,,,,,,,,,,,,,,,,,,,,,,
,,,,,,,,2023-08-16_08h37.00.801,HF_wild_card,2022.2.4,MacIntel,58.82352941,5db5f2196a72a3000cc54aa4,64d2fd46c836a06233681665,64dc7c8712bc9838b71f2148,,,,,,,decisionTrl,resources/DY.BMP,resources/DR.BMP,Door4,-0.25625,-0.045,1,0,0,0.748,optionLeft,60,16060,7,24,0,24,0,1,,,,,,,,,,,,,,,,,,,,,,,,,,,,,,,,,,,,,,,
,,,,,,,,2023-08-16_08h37.00.801,HF_wild_card,2022.2.4,MacIntel,58.82352941,5db5f2196a72a3000cc54aa4,64d2fd46c836a06233681665,64dc7c8712bc9838b71f2148,,,,,,,decisionTrl,resources/DP.BMP,resources/DB.BMP,Door1,0.3575,0.0275,1,0,0,0.933,optionRight,30,16090,7,25,0,25,0,1,,,,,,,,,,,,,,,,,,,,,,,,,,,,,,,,,,,,,,,
,,,,,,,,2023-08-16_08h37.00.801,HF_wild_card,2022.2.4,MacIntel,58.82352941,5db5f2196a72a3000cc54aa4,64d2fd46c836a06233681665,64dc7c8712bc9838b71f2148,,,,,,,ctch,resources/DB.BMP,resources/DY.BMP,Door4,0.3525,0.04125,1,0,0,0.766,optionRight,80,16170,7,26,0,26,0,1,,,,,,,,,,,,,,,,,,,,,,,,,,,,,,,,,,,,,,,
,,,,,,,,2023-08-16_08h37.00.801,HF_wild_card,2022.2.4,MacIntel,58.82352941,5db5f2196a72a3000cc54aa4,64d2fd46c836a06233681665,64dc7c8712bc9838b71f2148,,,,,,,decisionTrl,resources/DR.BMP,resources/DY.BMP,Door4,0.33,0.0275,1,0,0,0.816,optionRight,80,16250,7,27,0,27,0,1,,,,,,,,,,,,,,,,,,,,,,,,,,,,,,,,,,,,,,,
,,,,,,,,2023-08-16_08h37.00.801,HF_wild_card,2022.2.4,MacIntel,58.82352941,5db5f2196a72a3000cc54aa4,64d2fd46c836a06233681665,64dc7c8712bc9838b71f2148,,,,,,,decisionTrl,resources/DB.BMP,resources/DP.BMP,Door1,-0.3,-0.0125,1,0,0,0.733,optionLeft,30,16280,7,28,0,28,0,1,,,,,,,,,,,,,,,,,,,,,,,,,,,,,,,,,,,,,,,
,,,,,,,,2023-08-16_08h37.00.801,HF_wild_card,2022.2.4,MacIntel,58.82352941,5db5f2196a72a3000cc54aa4,64d2fd46c836a06233681665,64dc7c8712bc9838b71f2148,,,,,,,decisionTrl,resources/DP.BMP,resources/DB.BMP,Door1,0.36625,0.02,1,0,0,0.848,optionRight,30,16310,7,29,0,29,0,1,,,,,,,,,,,,,,,,,,,,,,,,,,,,,,,,,,,,,,,
,,,,,,,,2023-08-16_08h37.00.801,HF_wild_card,2022.2.4,MacIntel,58.82352941,5db5f2196a72a3000cc54aa4,64d2fd46c836a06233681665,64dc7c8712bc9838b71f2148,,,,,,,decisionTrl,resources/DY.BMP,resources/DR.BMP,Door4,-0.30375,0.02125,1,0,0,0.716,optionLeft,60,16370,7,30,0,30,0,1,,,,,,,,,,,,,,,,,,,,,,,,,,,,,,,,,,,,,,,
,,,,,,,,2023-08-16_08h37.00.801,HF_wild_card,2022.2.4,MacIntel,58.82352941,5db5f2196a72a3000cc54aa4,64d2fd46c836a06233681665,64dc7c8712bc9838b71f2148,,,,,,,decisionTrl,resources/DB.BMP,resources/DP.BMP,Door1,-0.2375,0.005,1,0,0,1.248,optionLeft,30,16400,7,31,0,31,0,1,,,,,,,,,,,,,,,,,,,,,,,,,,,,,,,,,,,,,,,
,,,,,,,,2023-08-16_08h37.00.801,HF_wild_card,2022.2.4,MacIntel,58.82352941,5db5f2196a72a3000cc54aa4,64d2fd46c836a06233681665,64dc7c8712bc9838b71f2148,,,,,,,decisionTrl,resources/DR.BMP,resources/DY.BMP,Door4,0.3425,0.03625,1,0,0,0.816,optionRight,60,16460,7,32,0,32,0,1,,,,,,,,,,,,,,,,,,,,,,,,,,,,,,,,,,,,,,,
,,,,,,,,2023-08-16_08h37.00.801,HF_wild_card,2022.2.4,MacIntel,58.82352941,5db5f2196a72a3000cc54aa4,64d2fd46c836a06233681665,64dc7c8712bc9838b71f2148,,,,,,,decisionTrl,resources/DP.BMP,resources/DB.BMP,Door1,0.27125,0.02125,1,0,0,0.833,optionRight,30,16490,7,33,0,33,0,1,,,,,,,,,,,,,,,,,,,,,,,,,,,,,,,,,,,,,,,
,,,,,,,,2023-08-16_08h37.00.801,HF_wild_card,2022.2.4,MacIntel,58.82352941,5db5f2196a72a3000cc54aa4,64d2fd46c836a06233681665,64dc7c8712bc9838b71f2148,,,,,,,decisionTrl,resources/DP.BMP,resources/DB.BMP,Door1,0.2875,0.0325,1,0,0,1.499,optionRight,30,16520,7,34,0,34,0,1,,,,,,,,,,,,,,,,,,,,,,,,,,,,,,,,,,,,,,,
,,,,,,,,2023-08-16_08h37.00.801,HF_wild_card,2022.2.4,MacIntel,58.82352941,5db5f2196a72a3000cc54aa4,64d2fd46c836a06233681665,64dc7c8712bc9838b71f2148,,,,,,,decisionTrl,resources/DR.BMP,resources/DY.BMP,Door4,0.32,0.0175,1,0,0,1.099,optionRight,80,16600,7,35,0,35,0,1,,,,,,,,,,,,,,,,,,,,,,,,,,,,,,,,,,,,,,,
,,,,,,,,2023-08-16_08h37.00.801,HF_wild_card,2022.2.4,MacIntel,58.82352941,5db5f2196a72a3000cc54aa4,64d2fd46c836a06233681665,64dc7c8712bc9838b71f2148,,,,,,,,,,,,,,,,,,,,,,,,,,6,0,6,0,1,,,,,,,,,,,,,,,,,,,,,,,,,,,,,,,,,,
,,,,,,,,2023-08-16_08h37.00.801,HF_wild_card,2022.2.4,MacIntel,58.82352941,5db5f2196a72a3000cc54aa4,64d2fd46c836a06233681665,64dc7c8712bc9838b71f2148,,,,,,,,,,,,,,,,,,,,,,,,,,,,,,,4,,,,,,,,,,,,,,,,,,,,,,,,,,,,,,,,,
,,,,,,,,2023-08-16_08h37.00.801,HF_wild_card,2022.2.4,MacIntel,58.82352941,5db5f2196a72a3000cc54aa4,64d2fd46c836a06233681665,64dc7c8712bc9838b71f2148,,,,,,,,,,,,,,,,,,,,,,,,,,,,,,,,,,,,,,,,,,,,,,,,,,,,,,,,,,,,,,,,
,,,,,,,,2023-08-16_08h37.00.801,HF_wild_card,2022.2.4,MacIntel,58.82352941,5db5f2196a72a3000cc54aa4,64d2fd46c836a06233681665,64dc7c8712bc9838b71f2148,,,,,,,,,,,,,,,,,,,,,,,,,,,,,,,,30,Door1,resources/DB.BMP,0,0,0,0,1,,,,,,,,,,,,,,,,,,,,,,,,,
,,,,,,,,2023-08-16_08h37.00.801,HF_wild_card,2022.2.4,MacIntel,58.82352941,5db5f2196a72a3000cc54aa4,64d2fd46c836a06233681665,64dc7c8712bc9838b71f2148,,,,,,,,,,,,,,,,,,,,,,,,,,,,,,,,20,Door2,resources/DP.BMP,1,0,1,0,1,,,,,,,,,,,,,,,,,,,,,,,,,
,,,,,,,,2023-08-16_08h37.00.801,HF_wild_card,2022.2.4,MacIntel,58.82352941,5db5f2196a72a3000cc54aa4,64d2fd46c836a06233681665,64dc7c8712bc9838b71f2148,,,,,,,,,,,,,,,,,,,,,,,,,,,,,,,,55,WC_nonExtreme,resources/DBN.BMP,2,0,2,0,1,,,,,,,,,,,,,,,,,,,,,,,,,
,,,,,,,,2023-08-16_08h37.00.801,HF_wild_card,2022.2.4,MacIntel,58.82352941,5db5f2196a72a3000cc54aa4,64d2fd46c836a06233681665,64dc7c8712bc9838b71f2148,,,,,,,,,,,,,,,,,,,,,,,,,,,,,,,,60,Door3,resources/DR.BMP,3,0,3,0,1,,,,,,,,,,,,,,,,,,,,,,,,,
,,,,,,,,2023-08-16_08h37.00.801,HF_wild_card,2022.2.4,MacIntel,58.82352941,5db5f2196a72a3000cc54aa4,64d2fd46c836a06233681665,64dc7c8712bc9838b71f2148,,,,,,,,,,,,,,,,,,,,,,,,,,,,,,,,45,WC_extreme,resources/DG.BMP,4,0,4,0,1,,,,,,,,,,,,,,,,,,,,,,,,,
,,,,,,,,2023-08-16_08h37.00.801,HF_wild_card,2022.2.4,MacIntel,58.82352941,5db5f2196a72a3000cc54aa4,64d2fd46c836a06233681665,64dc7c8712bc9838b71f2148,,,,,,,,,,,,,,,,,,,,,,,,,,,,,,,,80,Door4,resources/DY.BMP,5,0,5,0,1,,,,,,,,,,,,,,,,,,,,,,,,,
,,,,,,,,2023-08-16_08h37.00.801,HF_wild_card,2022.2.4,MacIntel,58.82352941,5db5f2196a72a3000cc54aa4,64d2fd46c836a06233681665,64dc7c8712bc9838b71f2148,,,,,,,,,,,,,,,,,,,,,,,,,,,,,,,,,,,,,,,,,,,,,,,,,,,,,,,,,,,,,,,,
,,,,,,,,2023-08-16_08h37.00.801,HF_wild_card,2022.2.4,MacIntel,58.82352941,5db5f2196a72a3000cc54aa4,64d2fd46c836a06233681665,64dc7c8712bc9838b71f2148,,,,,,,,,,,,,,,,,,,,,,,,,,,,,,,,,,,,,,,,0,0,0,0,1,,,,,,,,,,,,,,,,,,,,
,,,,,,,,2023-08-16_08h37.00.801,HF_wild_card,2022.2.4,MacIntel,58.82352941,5db5f2196a72a3000cc54aa4,64d2fd46c836a06233681665,64dc7c8712bc9838b71f2148,,,,,,,,,,,,,,,,,,,,,,,,,,,,,,,,,,,,,,,,1,0,1,0,1,,,,,,,,,,,,,,,,,,,,
,,,,,,,,2023-08-16_08h37.00.801,HF_wild_card,2022.2.4,MacIntel,58.82352941,5db5f2196a72a3000cc54aa4,64d2fd46c836a06233681665,64dc7c8712bc9838b71f2148,,,,,,,,,,,,,,,,,,,,,,,,,,,,,,,,,,,,,,,,,,,,,-0.31125,-0.4125,1,0,0,yes,40%,60%,Door3,resources/DR.BMP,0,0,0,0,1,,,,,
,,,,,,,,2023-08-16_08h37.00.801,HF_wild_card,2022.2.4,MacIntel,58.82352941,5db5f2196a72a3000cc54aa4,64d2fd46c836a06233681665,64dc7c8712bc9838b71f2148,,,,,,,,,,,,,,,,,,,,,,,,,,,,,,,,,,,,,,,,,,,,,,,,,,,,,,,,,,,,0,0,0,0,1
,,,,,,,,2023-08-16_08h37.00.801,HF_wild_card,2022.2.4,MacIntel,58.82352941,5db5f2196a72a3000cc54aa4,64d2fd46c836a06233681665,64dc7c8712bc9838b71f2148,,,,,,,,,,,,,,,,,,,,,,,,,,,,,,,,,,,,,,,,0,0,0,0,1,,,,,,,,,,,,,,,,,,,,
,,,,,,,,2023-08-16_08h37.00.801,HF_wild_card,2022.2.4,MacIntel,58.82352941,5db5f2196a72a3000cc54aa4,64d2fd46c836a06233681665,64dc7c8712bc9838b71f2148,,,,,,,,,,,,,,,,,,,,,,,,,,,,,,,,,,,,,,,,1,0,1,0,1,,,,,,,,,,,,,,,,,,,,
,,,,,,,,2023-08-16_08h37.00.801,HF_wild_card,2022.2.4,MacIntel,58.82352941,5db5f2196a72a3000cc54aa4,64d2fd46c836a06233681665,64dc7c8712bc9838b71f2148,,,,,,,,,,,,,,,,,,,,,,,,,,,,,,,,,,,,,,,,,,,,,-0.33,-0.4225,1,0,0,yes,40%,60%,Door4,resources/DY.BMP,0,0,0,0,1,,,,,
,,,,,,,,2023-08-16_08h37.00.801,HF_wild_card,2022.2.4,MacIntel,58.82352941,5db5f2196a72a3000cc54aa4,64d2fd46c836a06233681665,64dc7c8712bc9838b71f2148,,,,,,,,,,,,,,,,,,,,,,,,,,,,,,,,,,,,,,,,,,,,,,,,,,,,,,,,,,,,1,0,1,0,1
,,,,,,,,2023-08-16_08h37.00.801,HF_wild_card,2022.2.4,MacIntel,58.82352941,5db5f2196a72a3000cc54aa4,64d2fd46c836a06233681665,64dc7c8712bc9838b71f2148,,,,,,,,,,,,,,,,,,,,,,,,,,,,,,,,,,,,,,,,0,0,0,0,1,,,,,,,,,,,,,,,,,,,,
,,,,,,,,2023-08-16_08h37.00.801,HF_wild_card,2022.2.4,MacIntel,58.82352941,5db5f2196a72a3000cc54aa4,64d2fd46c836a06233681665,64dc7c8712bc9838b71f2148,,,,,,,,,,,,,,,,,,,,,,,,,,,,,,,,,,,,,,,,1,0,1,0,1,,,,,,,,,,,,,,,,,,,,
