Condition,Low fixed image (Door1),Low risky image (Door2),High fixed image (Door3),High risky image (Door4),Extreme Wild Card,NonExtreme Wild Card,,date,expName,psychopyVersion,OS,frameRate,PROLIFIC_PID,STUDY_ID,SESSION_ID,mouse_2.x,mouse_2.y,mouse_2.leftButton,mouse_2.midButton,mouse_2.rightButton,mouse_2.clicked_name,Trial Type,Left Option Image,Right Option Image,Chosen Door,mouse.x,mouse.y,mouse.leftButton,mouse.midButton,mouse.rightButton,mouse.time,mouse.clicked_name,Feedback,Cumulative Reward,Block,trial.thisRepN,trial.thisTrialN,trial.thisN,trial.thisIndex,trial.ran,blocks.thisRepN,blocks.thisTrialN,blocks.thisN,blocks.thisIndex,blocks.ran,Money conversion,First Outcome Reported,Shown Door (First Outcome),Displayed Image (First Outcome),outcomes.thisRepN,outcomes.thisTrialN,outcomes.thisN,outcomes.thisIndex,outcomes.ran,judgments.thisRepN,judgments.thisTrialN,judgments.thisN,judgments.thisIndex,judgments.ran,freqMouse.x,freqMouse.y,freqMouse.leftButton,freqMouse.midButton,freqMouse.rightButton,freqMouse.clicked_name,FQJ for first outcome,FQJ for second outcome,Shown Door,Displayed Image,trials.thisRepN,trials.thisTrialN,trials.thisN,trials.thisIndex,trials.ran,judgBlock.thisRepN,judgBlock.thisTrialN,judgBlock.thisN,judgBlock.thisIndex,judgBlock.ran
1,resources/DY.BMP,resources/DBN.BMP,resources/DR.BMP,resources/DG.BMP,resources/DB.BMP,resources/DP.BMP,,2023-08-16_08h48.03.790,HF_wild_card,2022.2.4,Win32,59.99880002,610dab2802ed9932045896da,64d2fd46c836a06233681665,64dc7ece8cf2971354a1d3d7,,,,,,,,,,,,,,,,,,,,,,,,,,,,,,,,,,,,,,,,,,,,,,,,,,,,,,,,,,,,,,,,
,,,,,,,,2023-08-16_08h48.03.790,HF_wild_card,2022.2.4,Win32,59.99880002,610dab2802ed9932045896da,64d2fd46c836a06233681665,64dc7ece8cf2971354a1d3d7,-0.012962935,-0.410185242,1,0,0,agree,,,,,,,,,,,,,,,,,,,,,,,,,,,,,,,,,,,,,,,,,,,,,,,,,,,,,,,,,,
,,,,,,,,2023-08-16_08h48.03.790,HF_wild_card,2022.2.4,Win32,59.99880002,610dab2802ed9932045896da,64d2fd46c836a06233681665,64dc7ece8cf2971354a1d3d7,,,,,,,,,,,,,,,,,,,,,,,,,,,,,,,,,,,,,,,,,,,,,,,,,,,,,,,,,,,,,,,,
,,,,,,,,2023-08-16_08h48.03.790,HF_wild_card,2022.2.4,Win32,59.99880002,610dab2802ed9932045896da,64d2fd46c836a06233681665,64dc7ece8cf2971354a1d3d7,,,,,,,ctch,resources/DG.BMP,resources/DY.BMP,Door1,0.38148151,0.04351849,1,0,0,3.6356,optionRight,30,30,1,0,0,0,0,1,,,,,,,,,,,,,,,,,,,,,,,,,,,,,,,,,,,,,,,
,,,,,,,,2023-08-16_08h48.03.790,HF_wild_card,2022.2.4,Win32,59.99880002,610dab2802ed9932045896da,64d2fd46c836a06233681665,64dc7ece8cf2971354a1d3d7,,,,,,,decisionTrl,resources/DR.BMP,resources/DG.BMP,Door4,0.420370399,-0.020370399,1,0,0,3.0968,optionRight,60,90,1,1,0,1,0,1,,,,,,,,,,,,,,,,,,,,,,,,,,,,,,,,,,,,,,,
,,,,,,,,2023-08-16_08h48.03.790,HF_wild_card,2022.2.4,Win32,59.99880002,610dab2802ed9932045896da,64d2fd46c836a06233681665,64dc7ece8cf2971354a1d3d7,,,,,,,ctch,resources/DG.BMP,resources/DY.BMP,Door4,-0.304629601,0,1,0,0,2.9467,optionLeft,60,150,1,2,0,2,0,1,,,,,,,,,,,,,,,,,,,,,,,,,,,,,,,,,,,,,,,
,,,,,,,,2023-08-16_08h48.03.790,HF_wild_card,2022.2.4,Win32,59.99880002,610dab2802ed9932045896da,64d2fd46c836a06233681665,64dc7ece8cf2971354a1d3d7,,,,,,,sngl,resources/Empty.png,resources/DBN.BMP,Door2,0.443518575,0.058333333,1,0,0,1.6325,optionRight,20,170,1,3,0,3,0,1,,,,,,,,,,,,,,,,,,,,,,,,,,,,,,,,,,,,,,,
,,,,,,,,2023-08-16_08h48.03.790,HF_wild_card,2022.2.4,Win32,59.99880002,610dab2802ed9932045896da,64d2fd46c836a06233681665,64dc7ece8cf2971354a1d3d7,,,,,,,decisionTrl,resources/DBN.BMP,resources/DY.BMP,Door1,0.385185242,0.023148134,1,0,0,4.4931,optionRight,30,200,1,4,0,4,0,1,,,,,,,,,,,,,,,,,,,,,,,,,,,,,,,,,,,,,,,
,,,,,,,,2023-08-16_08h48.03.790,HF_wild_card,2022.2.4,Win32,59.99880002,610dab2802ed9932045896da,64d2fd46c836a06233681665,64dc7ece8cf2971354a1d3d7,,,,,,,sngl,resources/Empty.png,resources/DP.BMP,WildCard_NonEx,0.413888889,-0.045370399,1,0,0,1.2125,optionRight,55,255,1,5,0,5,0,1,,,,,,,,,,,,,,,,,,,,,,,,,,,,,,,,,,,,,,,
,,,,,,,,2023-08-16_08h48.03.790,HF_wild_card,2022.2.4,Win32,59.99880002,610dab2802ed9932045896da,64d2fd46c836a06233681665,64dc7ece8cf2971354a1d3d7,,,,,,,decisionTrl,resources/DP.BMP,resources/DG.BMP,WildCard_NonEx,-0.373148134,-0.042592621,1,0,0,1.0272,optionLeft,55,310,1,6,0,6,0,1,,,,,,,,,,,,,,,,,,,,,,,,,,,,,,,,,,,,,,,
,,,,,,,,2023-08-16_08h48.03.790,HF_wild_card,2022.2.4,Win32,59.99880002,610dab2802ed9932045896da,64d2fd46c836a06233681665,64dc7ece8cf2971354a1d3d7,,,,,,,decisionTrl,resources/DR.BMP,resources/DG.BMP,Door4,0.398148176,0.05,1,0,0,0.9472,optionRight,60,370,1,7,0,7,0,1,,,,,,,,,,,,,,,,,,,,,,,,,,,,,,,,,,,,,,,
,,,,,,,,2023-08-16_08h48.03.790,HF_wild_card,2022.2.4,Win32,59.99880002,610dab2802ed9932045896da,64d2fd46c836a06233681665,64dc7ece8cf2971354a1d3d7,,,,,,,decisionTrl,resources/DR.BMP,resources/DG.BMP,Door4,0.449074131,-0.005555556,1,0,0,1.0497,optionRight,60,430,1,8,0,8,0,1,,,,,,,,,,,,,,,,,,,,,,,,,,,,,,,,,,,,,,,
,,,,,,,,2023-08-16_08h48.03.790,HF_wild_card,2022.2.4,Win32,59.99880002,610dab2802ed9932045896da,64d2fd46c836a06233681665,64dc7ece8cf2971354a1d3d7,,,,,,,decisionTrl,resources/DP.BMP,resources/DBN.BMP,WildCard_NonEx,-0.39351849,-0.007407422,1,0,0,1.7096,optionLeft,45,475,1,9,0,9,0,1,,,,,,,,,,,,,,,,,,,,,,,,,,,,,,,,,,,,,,,
,,,,,,,,2023-08-16_08h48.03.790,HF_wild_card,2022.2.4,Win32,59.99880002,610dab2802ed9932045896da,64d2fd46c836a06233681665,64dc7ece8cf2971354a1d3d7,,,,,,,ctch,resources/DBN.BMP,resources/DR.BMP,Door2,-0.525925912,0.112037023,1,0,0,2.0947,optionLeft,20,495,1,10,0,10,0,1,,,,,,,,,,,,,,,,,,,,,,,,,,,,,,,,,,,,,,,
,,,,,,,,2023-08-16_08h48.03.790,HF_wild_card,2022.2.4,Win32,59.99880002,610dab2802ed9932045896da,64d2fd46c836a06233681665,64dc7ece8cf2971354a1d3d7,,,,,,,ctch,resources/DY.BMP,resources/DG.BMP,Door4,0.379629686,0.054629601,1,0,0,1.1439,optionRight,60,555,1,11,0,11,0,1,,,,,,,,,,,,,,,,,,,,,,,,,,,,,,,,,,,,,,,
,,,,,,,,2023-08-16_08h48.03.790,HF_wild_card,2022.2.4,Win32,59.99880002,610dab2802ed9932045896da,64d2fd46c836a06233681665,64dc7ece8cf2971354a1d3d7,,,,,,,sngl,resources/Empty.png,resources/DR.BMP,Door3,0.465740797,0.022222222,1,0,0,1.362,optionRight,70,625,1,12,0,12,0,1,,,,,,,,,,,,,,,,,,,,,,,,,,,,,,,,,,,,,,,
,,,,,,,,2023-08-16_08h48.03.790,HF_wild_card,2022.2.4,Win32,59.99880002,610dab2802ed9932045896da,64d2fd46c836a06233681665,64dc7ece8cf2971354a1d3d7,,,,,,,decisionTrl,resources/DY.BMP,resources/DP.BMP,Door1,-0.297222222,0.025,1,0,0,3.1513,optionLeft,30,655,1,13,0,13,0,1,,,,,,,,,,,,,,,,,,,,,,,,,,,,,,,,,,,,,,,
,,,,,,,,2023-08-16_08h48.03.790,HF_wild_card,2022.2.4,Win32,59.99880002,610dab2802ed9932045896da,64d2fd46c836a06233681665,64dc7ece8cf2971354a1d3d7,,,,,,,sngl,resources/DY.BMP,resources/Empty.png,Door1,-0.347222222,-0.036111111,1,0,0,1.1772,optionLeft,30,685,1,14,0,14,0,1,,,,,,,,,,,,,,,,,,,,,,,,,,,,,,,,,,,,,,,
,,,,,,,,2023-08-16_08h48.03.790,HF_wild_card,2022.2.4,Win32,59.99880002,610dab2802ed9932045896da,64d2fd46c836a06233681665,64dc7ece8cf2971354a1d3d7,,,,,,,decisionTrl,resources/DG.BMP,resources/DR.BMP,Door4,-0.352777778,0.102777778,1,0,0,2.8641,optionLeft,80,765,1,15,0,15,0,1,,,,,,,,,,,,,,,,,,,,,,,,,,,,,,,,,,,,,,,
,,,,,,,,2023-08-16_08h48.03.790,HF_wild_card,2022.2.4,Win32,59.99880002,610dab2802ed9932045896da,64d2fd46c836a06233681665,64dc7ece8cf2971354a1d3d7,,,,,,,sngl,resources/DBN.BMP,resources/Empty.png,Door2,-0.340740712,-0.015740755,1,0,0,1.1802,optionLeft,40,805,1,16,0,16,0,1,,,,,,,,,,,,,,,,,,,,,,,,,,,,,,,,,,,,,,,
,,,,,,,,2023-08-16_08h48.03.790,HF_wild_card,2022.2.4,Win32,59.99880002,610dab2802ed9932045896da,64d2fd46c836a06233681665,64dc7ece8cf2971354a1d3d7,,,,,,,decisionTrl,resources/DBN.BMP,resources/DY.BMP,Door2,-0.395370356,0.169444444,1,0,0,3.1645,optionLeft,20,825,1,17,0,17,0,1,,,,,,,,,,,,,,,,,,,,,,,,,,,,,,,,,,,,,,,
,,,,,,,,2023-08-16_08h48.03.790,HF_wild_card,2022.2.4,Win32,59.99880002,610dab2802ed9932045896da,64d2fd46c836a06233681665,64dc7ece8cf2971354a1d3d7,,,,,,,sngl,resources/DP.BMP,resources/Empty.png,WildCard_NonEx,-0.358333333,0.000925912,1,0,0,1.0776,optionLeft,55,880,1,18,0,18,0,1,,,,,,,,,,,,,,,,,,,,,,,,,,,,,,,,,,,,,,,
,,,,,,,,2023-08-16_08h48.03.790,HF_wild_card,2022.2.4,Win32,59.99880002,610dab2802ed9932045896da,64d2fd46c836a06233681665,64dc7ece8cf2971354a1d3d7,,,,,,,decisionTrl,resources/DG.BMP,resources/DR.BMP,Door4,-0.29351849,-0.013888889,1,0,0,1.5369,optionLeft,60,940,1,19,0,19,0,1,,,,,,,,,,,,,,,,,,,,,,,,,,,,,,,,,,,,,,,
,,,,,,,,2023-08-16_08h48.03.790,HF_wild_card,2022.2.4,Win32,59.99880002,610dab2802ed9932045896da,64d2fd46c836a06233681665,64dc7ece8cf2971354a1d3d7,,,,,,,ctch,resources/DR.BMP,resources/DBN.BMP,Door3,-0.434259245,0.089814801,1,0,0,1.4288,optionLeft,70,1010,1,20,0,20,0,1,,,,,,,,,,,,,,,,,,,,,,,,,,,,,,,,,,,,,,,
,,,,,,,,2023-08-16_08h48.03.790,HF_wild_card,2022.2.4,Win32,59.99880002,610dab2802ed9932045896da,64d2fd46c836a06233681665,64dc7ece8cf2971354a1d3d7,,,,,,,ctch,resources/DY.BMP,resources/DG.BMP,Door4,0.322222222,-0.069444444,1,0,0,1.6968,optionRight,80,1090,1,21,0,21,0,1,,,,,,,,,,,,,,,,,,,,,,,,,,,,,,,,,,,,,,,
,,,,,,,,2023-08-16_08h48.03.790,HF_wild_card,2022.2.4,Win32,59.99880002,610dab2802ed9932045896da,64d2fd46c836a06233681665,64dc7ece8cf2971354a1d3d7,,,,,,,sngl,resources/Empty.png,resources/DP.BMP,WildCard_NonEx,0.399074131,-0.082407422,1,0,0,0.9293,optionRight,45,1135,1,22,0,22,0,1,,,,,,,,,,,,,,,,,,,,,,,,,,,,,,,,,,,,,,,
,,,,,,,,2023-08-16_08h48.03.790,HF_wild_card,2022.2.4,Win32,59.99880002,610dab2802ed9932045896da,64d2fd46c836a06233681665,64dc7ece8cf2971354a1d3d7,,,,,,,sngl,resources/DP.BMP,resources/Empty.png,WildCard_NonEx,-0.327777778,-0.004629644,1,0,0,1.3033,optionLeft,45,1180,1,23,0,23,0,1,,,,,,,,,,,,,,,,,,,,,,,,,,,,,,,,,,,,,,,
,,,,,,,,2023-08-16_08h48.03.790,HF_wild_card,2022.2.4,Win32,59.99880002,610dab2802ed9932045896da,64d2fd46c836a06233681665,64dc7ece8cf2971354a1d3d7,,,,,,,decisionTrl,resources/DR.BMP,resources/DG.BMP,Door4,0.451851908,-0.05,1,0,0,0.9266,optionRight,80,1260,1,24,0,24,0,1,,,,,,,,,,,,,,,,,,,,,,,,,,,,,,,,,,,,,,,
,,,,,,,,2023-08-16_08h48.03.790,HF_wild_card,2022.2.4,Win32,59.99880002,610dab2802ed9932045896da,64d2fd46c836a06233681665,64dc7ece8cf2971354a1d3d7,,,,,,,sngl,resources/DG.BMP,resources/Empty.png,Door4,-0.371296268,0.057407379,1,0,0,0.8593,optionLeft,80,1340,1,25,0,25,0,1,,,,,,,,,,,,,,,,,,,,,,,,,,,,,,,,,,,,,,,
,,,,,,,,2023-08-16_08h48.03.790,HF_wild_card,2022.2.4,Win32,59.99880002,610dab2802ed9932045896da,64d2fd46c836a06233681665,64dc7ece8cf2971354a1d3d7,,,,,,,decisionTrl,resources/DBN.BMP,resources/DY.BMP,Door1,0.348148176,-0.032407422,1,0,0,1.3356,optionRight,30,1370,1,26,0,26,0,1,,,,,,,,,,,,,,,,,,,,,,,,,,,,,,,,,,,,,,,
,,,,,,,,2023-08-16_08h48.03.790,HF_wild_card,2022.2.4,Win32,59.99880002,610dab2802ed9932045896da,64d2fd46c836a06233681665,64dc7ece8cf2971354a1d3d7,,,,,,,decisionTrl,resources/DR.BMP,resources/DP.BMP,WildCard_NonEx,0.412963019,-0.054629644,1,0,0,1.0526,optionRight,55,1425,1,27,0,27,0,1,,,,,,,,,,,,,,,,,,,,,,,,,,,,,,,,,,,,,,,
,,,,,,,,2023-08-16_08h48.03.790,HF_wild_card,2022.2.4,Win32,59.99880002,610dab2802ed9932045896da,64d2fd46c836a06233681665,64dc7ece8cf2971354a1d3d7,,,,,,,decisionTrl,resources/DY.BMP,resources/DBN.BMP,Door1,-0.401851824,0.049074046,1,0,0,1.2373,optionLeft,30,1455,1,28,0,28,0,1,,,,,,,,,,,,,,,,,,,,,,,,,,,,,,,,,,,,,,,
,,,,,,,,2023-08-16_08h48.03.790,HF_wild_card,2022.2.4,Win32,59.99880002,610dab2802ed9932045896da,64d2fd46c836a06233681665,64dc7ece8cf2971354a1d3d7,,,,,,,decisionTrl,resources/DP.BMP,resources/DY.BMP,WildCard_NonEx,-0.427777778,0.067592578,1,0,0,1.8448,optionLeft,55,1510,1,29,0,29,0,1,,,,,,,,,,,,,,,,,,,,,,,,,,,,,,,,,,,,,,,
,,,,,,,,2023-08-16_08h48.03.790,HF_wild_card,2022.2.4,Win32,59.99880002,610dab2802ed9932045896da,64d2fd46c836a06233681665,64dc7ece8cf2971354a1d3d7,,,,,,,decisionTrl,resources/DY.BMP,resources/DBN.BMP,Door1,-0.371296268,-0.037037065,1,0,0,1.0275,optionLeft,30,1540,1,30,0,30,0,1,,,,,,,,,,,,,,,,,,,,,,,,,,,,,,,,,,,,,,,
,,,,,,,,2023-08-16_08h48.03.790,HF_wild_card,2022.2.4,Win32,59.99880002,610dab2802ed9932045896da,64d2fd46c836a06233681665,64dc7ece8cf2971354a1d3d7,,,,,,,decisionTrl,resources/DG.BMP,resources/DR.BMP,Door4,-0.381481467,0.022222222,1,0,0,0.9632,optionLeft,60,1600,1,31,0,31,0,1,,,,,,,,,,,,,,,,,,,,,,,,,,,,,,,,,,,,,,,
,,,,,,,,2023-08-16_08h48.03.790,HF_wild_card,2022.2.4,Win32,59.99880002,610dab2802ed9932045896da,64d2fd46c836a06233681665,64dc7ece8cf2971354a1d3d7,,,,,,,sngl,resources/Empty.png,resources/DG.BMP,Door4,0.372222222,0.004629601,1,0,0,0.7955,optionRight,60,1660,1,32,0,32,0,1,,,,,,,,,,,,,,,,,,,,,,,,,,,,,,,,,,,,,,,
,,,,,,,,2023-08-16_08h48.03.790,HF_wild_card,2022.2.4,Win32,59.99880002,610dab2802ed9932045896da,64d2fd46c836a06233681665,64dc7ece8cf2971354a1d3d7,,,,,,,ctch,resources/DR.BMP,resources/DBN.BMP,Door3,-0.397222222,0.062037023,1,0,0,1.0833,optionLeft,70,1730,1,33,0,33,0,1,,,,,,,,,,,,,,,,,,,,,,,,,,,,,,,,,,,,,,,
,,,,,,,,2023-08-16_08h48.03.790,HF_wild_card,2022.2.4,Win32,59.99880002,610dab2802ed9932045896da,64d2fd46c836a06233681665,64dc7ece8cf2971354a1d3d7,,,,,,,ctch,resources/DBN.BMP,resources/DR.BMP,Door3,0.380555556,-0.004629644,1,0,0,0.8625,optionRight,70,1800,1,34,0,34,0,1,,,,,,,,,,,,,,,,,,,,,,,,,,,,,,,,,,,,,,,
,,,,,,,,2023-08-16_08h48.03.790,HF_wild_card,2022.2.4,Win32,59.99880002,610dab2802ed9932045896da,64d2fd46c836a06233681665,64dc7ece8cf2971354a1d3d7,,,,,,,decisionTrl,resources/DBN.BMP,resources/DY.BMP,Door1,0.447222222,-0.049074088,1,0,0,1.3112,optionRight,30,1830,1,35,0,35,0,1,,,,,,,,,,,,,,,,,,,,,,,,,,,,,,,,,,,,,,,
,,,,,,,,2023-08-16_08h48.03.790,HF_wild_card,2022.2.4,Win32,59.99880002,610dab2802ed9932045896da,64d2fd46c836a06233681665,64dc7ece8cf2971354a1d3d7,,,,,,,sngl,resources/DR.BMP,resources/Empty.png,Door3,-0.392592578,0.076851824,1,0,0,0.8097,optionLeft,70,1900,1,36,0,36,0,1,,,,,,,,,,,,,,,,,,,,,,,,,,,,,,,,,,,,,,,
,,,,,,,,2023-08-16_08h48.03.790,HF_wild_card,2022.2.4,Win32,59.99880002,610dab2802ed9932045896da,64d2fd46c836a06233681665,64dc7ece8cf2971354a1d3d7,,,,,,,decisionTrl,resources/DG.BMP,resources/DR.BMP,Door3,0.445370399,-0.007407422,1,0,0,1.284,optionRight,70,1970,1,37,0,37,0,1,,,,,,,,,,,,,,,,,,,,,,,,,,,,,,,,,,,,,,,
,,,,,,,,2023-08-16_08h48.03.790,HF_wild_card,2022.2.4,Win32,59.99880002,610dab2802ed9932045896da,64d2fd46c836a06233681665,64dc7ece8cf2971354a1d3d7,,,,,,,decisionTrl,resources/DP.BMP,resources/DR.BMP,Door3,0.335185242,-0.134259288,1,0,0,1.0059,optionRight,70,2040,1,38,0,38,0,1,,,,,,,,,,,,,,,,,,,,,,,,,,,,,,,,,,,,,,,
,,,,,,,,2023-08-16_08h48.03.790,HF_wild_card,2022.2.4,Win32,59.99880002,610dab2802ed9932045896da,64d2fd46c836a06233681665,64dc7ece8cf2971354a1d3d7,,,,,,,decisionTrl,resources/DY.BMP,resources/DBN.BMP,Door1,-0.277777778,-0.057407422,1,0,0,1.4903,optionLeft,30,2070,1,39,0,39,0,1,,,,,,,,,,,,,,,,,,,,,,,,,,,,,,,,,,,,,,,
,,,,,,,,2023-08-16_08h48.03.790,HF_wild_card,2022.2.4,Win32,59.99880002,610dab2802ed9932045896da,64d2fd46c836a06233681665,64dc7ece8cf2971354a1d3d7,,,,,,,decisionTrl,resources/DG.BMP,resources/DP.BMP,Door4,-0.362962935,-0.023148176,1,0,0,1.4594,optionLeft,80,2150,1,40,0,40,0,1,,,,,,,,,,,,,,,,,,,,,,,,,,,,,,,,,,,,,,,
,,,,,,,,2023-08-16_08h48.03.790,HF_wild_card,2022.2.4,Win32,59.99880002,610dab2802ed9932045896da,64d2fd46c836a06233681665,64dc7ece8cf2971354a1d3d7,,,,,,,sngl,resources/Empty.png,resources/DY.BMP,Door1,0.442592621,-0.045370399,1,0,0,0.9304,optionRight,30,2180,1,41,0,41,0,1,,,,,,,,,,,,,,,,,,,,,,,,,,,,,,,,,,,,,,,
,,,,,,,,2023-08-16_08h48.03.790,HF_wild_card,2022.2.4,Win32,59.99880002,610dab2802ed9932045896da,64d2fd46c836a06233681665,64dc7ece8cf2971354a1d3d7,,,,,,,decisionTrl,resources/DY.BMP,resources/DBN.BMP,Door1,-0.419444444,0.052777778,1,0,0,1.2359,optionLeft,30,2210,1,42,0,42,0,1,,,,,,,,,,,,,,,,,,,,,,,,,,,,,,,,,,,,,,,
,,,,,,,,2023-08-16_08h48.03.790,HF_wild_card,2022.2.4,Win32,59.99880002,610dab2802ed9932045896da,64d2fd46c836a06233681665,64dc7ece8cf2971354a1d3d7,,,,,,,decisionTrl,resources/DBN.BMP,resources/DP.BMP,WildCard_NonEx,0.449074131,-0.016666667,1,0,0,1.2697,optionRight,45,2255,1,43,0,43,0,1,,,,,,,,,,,,,,,,,,,,,,,,,,,,,,,,,,,,,,,
,,,,,,,,2023-08-16_08h48.03.790,HF_wild_card,2022.2.4,Win32,59.99880002,610dab2802ed9932045896da,64d2fd46c836a06233681665,64dc7ece8cf2971354a1d3d7,,,,,,,,,,,,,,,,,,,,,,,,,,0,0,0,0,1,,,,,,,,,,,,,,,,,,,,,,,,,,,,,,,,,,
,,,,,,,,2023-08-16_08h48.03.790,HF_wild_card,2022.2.4,Win32,59.99880002,610dab2802ed9932045896da,64d2fd46c836a06233681665,64dc7ece8cf2971354a1d3d7,,,,,,,decisionTrl,resources/DP.BMP,resources/DY.BMP,WildCard_NonEx,-0.366666667,-0.05,1,0,0,2.4765,optionLeft,45,2300,2,0,0,0,0,1,,,,,,,,,,,,,,,,,,,,,,,,,,,,,,,,,,,,,,,
,,,,,,,,2023-08-16_08h48.03.790,HF_wild_card,2022.2.4,Win32,59.99880002,610dab2802ed9932045896da,64d2fd46c836a06233681665,64dc7ece8cf2971354a1d3d7,,,,,,,sngl,resources/Empty.png,resources/DP.BMP,WildCard_NonEx,0.329629686,-0.110185199,1,0,0,1.747,optionRight,45,2345,2,1,0,1,0,1,,,,,,,,,,,,,,,,,,,,,,,,,,,,,,,,,,,,,,,
,,,,,,,,2023-08-16_08h48.03.790,HF_wild_card,2022.2.4,Win32,59.99880002,610dab2802ed9932045896da,64d2fd46c836a06233681665,64dc7ece8cf2971354a1d3d7,,,,,,,sngl,resources/DBN.BMP,resources/Empty.png,Door2,-0.457407379,0.064814801,1,0,0,1.247,optionLeft,20,2365,2,2,0,2,0,1,,,,,,,,,,,,,,,,,,,,,,,,,,,,,,,,,,,,,,,
,,,,,,,,2023-08-16_08h48.03.790,HF_wild_card,2022.2.4,Win32,59.99880002,610dab2802ed9932045896da,64d2fd46c836a06233681665,64dc7ece8cf2971354a1d3d7,,,,,,,decisionTrl,resources/DG.BMP,resources/DR.BMP,Door4,-0.405555556,0.05,1,0,0,1.1971,optionLeft,60,2425,2,3,0,3,0,1,,,,,,,,,,,,,,,,,,,,,,,,,,,,,,,,,,,,,,,
,,,,,,,,2023-08-16_08h48.03.790,HF_wild_card,2022.2.4,Win32,59.99880002,610dab2802ed9932045896da,64d2fd46c836a06233681665,64dc7ece8cf2971354a1d3d7,,,,,,,decisionTrl,resources/DY.BMP,resources/DBN.BMP,Door1,-0.381481467,0.052777778,1,0,0,0.9751,optionLeft,30,2455,2,4,0,4,0,1,,,,,,,,,,,,,,,,,,,,,,,,,,,,,,,,,,,,,,,
,,,,,,,,2023-08-16_08h48.03.790,HF_wild_card,2022.2.4,Win32,59.99880002,610dab2802ed9932045896da,64d2fd46c836a06233681665,64dc7ece8cf2971354a1d3d7,,,,,,,ctch,resources/DY.BMP,resources/DG.BMP,Door4,0.414814843,0.024074046,1,0,0,1.4118,optionRight,60,2515,2,5,0,5,0,1,,,,,,,,,,,,,,,,,,,,,,,,,,,,,,,,,,,,,,,
,,,,,,,,2023-08-16_08h48.03.790,HF_wild_card,2022.2.4,Win32,59.99880002,610dab2802ed9932045896da,64d2fd46c836a06233681665,64dc7ece8cf2971354a1d3d7,,,,,,,decisionTrl,resources/DR.BMP,resources/DG.BMP,Door4,0.320370399,-0.02129631,1,0,0,0.8606,optionRight,60,2575,2,6,0,6,0,1,,,,,,,,,,,,,,,,,,,,,,,,,,,,,,,,,,,,,,,
,,,,,,,,2023-08-16_08h48.03.790,HF_wild_card,2022.2.4,Win32,59.99880002,610dab2802ed9932045896da,64d2fd46c836a06233681665,64dc7ece8cf2971354a1d3d7,,,,,,,decisionTrl,resources/DP.BMP,resources/DBN.BMP,WildCard_NonEx,-0.382407379,-0.012037065,1,0,0,1.5439,optionLeft,45,2620,2,7,0,7,0,1,,,,,,,,,,,,,,,,,,,,,,,,,,,,,,,,,,,,,,,
,,,,,,,,2023-08-16_08h48.03.790,HF_wild_card,2022.2.4,Win32,59.99880002,610dab2802ed9932045896da,64d2fd46c836a06233681665,64dc7ece8cf2971354a1d3d7,,,,,,,sngl,resources/Empty.png,resources/DP.BMP,WildCard_NonEx,0.375925954,-0.067592621,1,0,0,0.8106,optionRight,55,2675,2,8,0,8,0,1,,,,,,,,,,,,,,,,,,,,,,,,,,,,,,,,,,,,,,,
,,,,,,,,2023-08-16_08h48.03.790,HF_wild_card,2022.2.4,Win32,59.99880002,610dab2802ed9932045896da,64d2fd46c836a06233681665,64dc7ece8cf2971354a1d3d7,,,,,,,sngl,resources/Empty.png,resources/DG.BMP,Door4,0.384259288,-0.069444444,1,0,0,0.8253,optionRight,80,2755,2,9,0,9,0,1,,,,,,,,,,,,,,,,,,,,,,,,,,,,,,,,,,,,,,,
,,,,,,,,2023-08-16_08h48.03.790,HF_wild_card,2022.2.4,Win32,59.99880002,610dab2802ed9932045896da,64d2fd46c836a06233681665,64dc7ece8cf2971354a1d3d7,,,,,,,decisionTrl,resources/DY.BMP,resources/DBN.BMP,Door1,-0.362962935,0.010185157,1,0,0,1.1781,optionLeft,30,2785,2,10,0,10,0,1,,,,,,,,,,,,,,,,,,,,,,,,,,,,,,,,,,,,,,,
,,,,,,,,2023-08-16_08h48.03.790,HF_wild_card,2022.2.4,Win32,59.99880002,610dab2802ed9932045896da,64d2fd46c836a06233681665,64dc7ece8cf2971354a1d3d7,,,,,,,decisionTrl,resources/DG.BMP,resources/DR.BMP,Door4,-0.373148134,0.107407379,1,0,0,2.9109,optionLeft,80,2865,2,11,0,11,0,1,,,,,,,,,,,,,,,,,,,,,,,,,,,,,,,,,,,,,,,
,,,,,,,,2023-08-16_08h48.03.790,HF_wild_card,2022.2.4,Win32,59.99880002,610dab2802ed9932045896da,64d2fd46c836a06233681665,64dc7ece8cf2971354a1d3d7,,,,,,,sngl,resources/Empty.png,resources/DR.BMP,Door3,0.305555556,-0.111111111,1,0,0,0.8959,optionRight,70,2935,2,12,0,12,0,1,,,,,,,,,,,,,,,,,,,,,,,,,,,,,,,,,,,,,,,
,,,,,,,,2023-08-16_08h48.03.790,HF_wild_card,2022.2.4,Win32,59.99880002,610dab2802ed9932045896da,64d2fd46c836a06233681665,64dc7ece8cf2971354a1d3d7,,,,,,,sngl,resources/Empty.png,resources/DBN.BMP,Door2,0.71203715,0.014814801,1,0,0,1.0453,optionRight,40,2975,2,13,0,13,0,1,,,,,,,,,,,,,,,,,,,,,,,,,,,,,,,,,,,,,,,
,,,,,,,,2023-08-16_08h48.03.790,HF_wild_card,2022.2.4,Win32,59.99880002,610dab2802ed9932045896da,64d2fd46c836a06233681665,64dc7ece8cf2971354a1d3d7,,,,,,,decisionTrl,resources/DY.BMP,resources/DBN.BMP,Door1,-0.369444444,-0.020370399,1,0,0,1.0484,optionLeft,30,3005,2,14,0,14,0,1,,,,,,,,,,,,,,,,,,,,,,,,,,,,,,,,,,,,,,,
,,,,,,,,2023-08-16_08h48.03.790,HF_wild_card,2022.2.4,Win32,59.99880002,610dab2802ed9932045896da,64d2fd46c836a06233681665,64dc7ece8cf2971354a1d3d7,,,,,,,decisionTrl,resources/DBN.BMP,resources/DY.BMP,Door2,-0.411111111,0.024074046,1,0,0,0.8801,optionLeft,40,3045,2,15,0,15,0,1,,,,,,,,,,,,,,,,,,,,,,,,,,,,,,,,,,,,,,,
,,,,,,,,2023-08-16_08h48.03.790,HF_wild_card,2022.2.4,Win32,59.99880002,610dab2802ed9932045896da,64d2fd46c836a06233681665,64dc7ece8cf2971354a1d3d7,,,,,,,decisionTrl,resources/DY.BMP,resources/DP.BMP,WildCard_NonEx,0.362963019,0.005555556,1,0,0,1.5095,optionRight,45,3090,2,16,0,16,0,1,,,,,,,,,,,,,,,,,,,,,,,,,,,,,,,,,,,,,,,
,,,,,,,,2023-08-16_08h48.03.790,HF_wild_card,2022.2.4,Win32,59.99880002,610dab2802ed9932045896da,64d2fd46c836a06233681665,64dc7ece8cf2971354a1d3d7,,,,,,,ctch,resources/DR.BMP,resources/DBN.BMP,Door3,-0.370370356,-0.087037065,1,0,0,1.644,optionLeft,70,3160,2,17,0,17,0,1,,,,,,,,,,,,,,,,,,,,,,,,,,,,,,,,,,,,,,,
,,,,,,,,2023-08-16_08h48.03.790,HF_wild_card,2022.2.4,Win32,59.99880002,610dab2802ed9932045896da,64d2fd46c836a06233681665,64dc7ece8cf2971354a1d3d7,,,,,,,ctch,resources/DG.BMP,resources/DY.BMP,Door4,-0.347222222,0.037037023,1,0,0,1.0178,optionLeft,60,3220,2,18,0,18,0,1,,,,,,,,,,,,,,,,,,,,,,,,,,,,,,,,,,,,,,,
,,,,,,,,2023-08-16_08h48.03.790,HF_wild_card,2022.2.4,Win32,59.99880002,610dab2802ed9932045896da,64d2fd46c836a06233681665,64dc7ece8cf2971354a1d3d7,,,,,,,sngl,resources/DG.BMP,resources/Empty.png,Door4,-0.392592578,0.057407379,1,0,0,0.9296,optionLeft,60,3280,2,19,0,19,0,1,,,,,,,,,,,,,,,,,,,,,,,,,,,,,,,,,,,,,,,
,,,,,,,,2023-08-16_08h48.03.790,HF_wild_card,2022.2.4,Win32,59.99880002,610dab2802ed9932045896da,64d2fd46c836a06233681665,64dc7ece8cf2971354a1d3d7,,,,,,,sngl,resources/Empty.png,resources/DY.BMP,Door1,0.324074131,0.000925912,1,0,0,0.8952,optionRight,30,3310,2,20,0,20,0,1,,,,,,,,,,,,,,,,,,,,,,,,,,,,,,,,,,,,,,,
,,,,,,,,2023-08-16_08h48.03.790,HF_wild_card,2022.2.4,Win32,59.99880002,610dab2802ed9932045896da,64d2fd46c836a06233681665,64dc7ece8cf2971354a1d3d7,,,,,,,decisionTrl,resources/DBN.BMP,resources/DY.BMP,Door2,-0.412037023,0.112037023,1,0,0,0.792,optionLeft,20,3330,2,21,0,21,0,1,,,,,,,,,,,,,,,,,,,,,,,,,,,,,,,,,,,,,,,
,,,,,,,,2023-08-16_08h48.03.790,HF_wild_card,2022.2.4,Win32,59.99880002,610dab2802ed9932045896da,64d2fd46c836a06233681665,64dc7ece8cf2971354a1d3d7,,,,,,,decisionTrl,resources/DR.BMP,resources/DG.BMP,Door4,0.48148151,0.05370369,1,0,0,1.1266,optionRight,80,3410,2,22,0,22,0,1,,,,,,,,,,,,,,,,,,,,,,,,,,,,,,,,,,,,,,,
,,,,,,,,2023-08-16_08h48.03.790,HF_wild_card,2022.2.4,Win32,59.99880002,610dab2802ed9932045896da,64d2fd46c836a06233681665,64dc7ece8cf2971354a1d3d7,,,,,,,decisionTrl,resources/DR.BMP,resources/DG.BMP,Door4,0.375925954,0.025,1,0,0,0.7454,optionRight,60,3470,2,23,0,23,0,1,,,,,,,,,,,,,,,,,,,,,,,,,,,,,,,,,,,,,,,
,,,,,,,,2023-08-16_08h48.03.790,HF_wild_card,2022.2.4,Win32,59.99880002,610dab2802ed9932045896da,64d2fd46c836a06233681665,64dc7ece8cf2971354a1d3d7,,,,,,,sngl,resources/DP.BMP,resources/Empty.png,WildCard_NonEx,-0.454629601,0.017592578,1,0,0,0.7941,optionLeft,45,3515,2,24,0,24,0,1,,,,,,,,,,,,,,,,,,,,,,,,,,,,,,,,,,,,,,,
,,,,,,,,2023-08-16_08h48.03.790,HF_wild_card,2022.2.4,Win32,59.99880002,610dab2802ed9932045896da,64d2fd46c836a06233681665,64dc7ece8cf2971354a1d3d7,,,,,,,sngl,resources/DY.BMP,resources/Empty.png,Door1,-0.413888889,0.001851824,1,0,0,0.8507,optionLeft,30,3545,2,25,0,25,0,1,,,,,,,,,,,,,,,,,,,,,,,,,,,,,,,,,,,,,,,
,,,,,,,,2023-08-16_08h48.03.790,HF_wild_card,2022.2.4,Win32,59.99880002,610dab2802ed9932045896da,64d2fd46c836a06233681665,64dc7ece8cf2971354a1d3d7,,,,,,,decisionTrl,resources/DR.BMP,resources/DP.BMP,Door3,-0.441666667,-0.034259288,1,0,0,3.7516,optionLeft,70,3615,2,26,0,26,0,1,,,,,,,,,,,,,,,,,,,,,,,,,,,,,,,,,,,,,,,
,,,,,,,,2023-08-16_08h48.03.790,HF_wild_card,2022.2.4,Win32,59.99880002,610dab2802ed9932045896da,64d2fd46c836a06233681665,64dc7ece8cf2971354a1d3d7,,,,,,,decisionTrl,resources/DG.BMP,resources/DR.BMP,Door4,-0.301851824,0.039814801,1,0,0,1.863,optionLeft,80,3695,2,27,0,27,0,1,,,,,,,,,,,,,,,,,,,,,,,,,,,,,,,,,,,,,,,
,,,,,,,,2023-08-16_08h48.03.790,HF_wild_card,2022.2.4,Win32,59.99880002,610dab2802ed9932045896da,64d2fd46c836a06233681665,64dc7ece8cf2971354a1d3d7,,,,,,,decisionTrl,resources/DBN.BMP,resources/DY.BMP,Door1,0.410185242,0.095370356,1,0,0,2.7946,optionRight,30,3725,2,28,0,28,0,1,,,,,,,,,,,,,,,,,,,,,,,,,,,,,,,,,,,,,,,
,,,,,,,,2023-08-16_08h48.03.790,HF_wild_card,2022.2.4,Win32,59.99880002,610dab2802ed9932045896da,64d2fd46c836a06233681665,64dc7ece8cf2971354a1d3d7,,,,,,,ctch,resources/DBN.BMP,resources/DR.BMP,Door3,0.380555556,-0.033333333,1,0,0,1.8354,optionRight,70,3795,2,29,0,29,0,1,,,,,,,,,,,,,,,,,,,,,,,,,,,,,,,,,,,,,,,
,,,,,,,,2023-08-16_08h48.03.790,HF_wild_card,2022.2.4,Win32,59.99880002,610dab2802ed9932045896da,64d2fd46c836a06233681665,64dc7ece8cf2971354a1d3d7,,,,,,,decisionTrl,resources/DP.BMP,resources/DR.BMP,Door3,0.53703715,-0.051851866,1,0,0,3.1025,optionRight,70,3865,2,30,0,30,0,1,,,,,,,,,,,,,,,,,,,,,,,,,,,,,,,,,,,,,,,
,,,,,,,,2023-08-16_08h48.03.790,HF_wild_card,2022.2.4,Win32,59.99880002,610dab2802ed9932045896da,64d2fd46c836a06233681665,64dc7ece8cf2971354a1d3d7,,,,,,,decisionTrl,resources/DP.BMP,resources/DG.BMP,Door4,0.373148176,0.01851849,1,0,0,3.4605,optionRight,60,3925,2,31,0,31,0,1,,,,,,,,,,,,,,,,,,,,,,,,,,,,,,,,,,,,,,,
,,,,,,,,2023-08-16_08h48.03.790,HF_wild_card,2022.2.4,Win32,59.99880002,610dab2802ed9932045896da,64d2fd46c836a06233681665,64dc7ece8cf2971354a1d3d7,,,,,,,ctch,resources/DBN.BMP,resources/DR.BMP,Door3,0.366666667,-0.009259288,1,0,0,1.7956,optionRight,70,3995,2,32,0,32,0,1,,,,,,,,,,,,,,,,,,,,,,,,,,,,,,,,,,,,,,,
,,,,,,,,2023-08-16_08h48.03.790,HF_wild_card,2022.2.4,Win32,59.99880002,610dab2802ed9932045896da,64d2fd46c836a06233681665,64dc7ece8cf2971354a1d3d7,,,,,,,decisionTrl,resources/DR.BMP,resources/DG.BMP,Door4,0.352777778,0.064814801,1,0,0,1.2498,optionRight,80,4075,2,33,0,33,0,1,,,,,,,,,,,,,,,,,,,,,,,,,,,,,,,,,,,,,,,
,,,,,,,,2023-08-16_08h48.03.790,HF_wild_card,2022.2.4,Win32,59.99880002,610dab2802ed9932045896da,64d2fd46c836a06233681665,64dc7ece8cf2971354a1d3d7,,,,,,,sngl,resources/DP.BMP,resources/Empty.png,WildCard_NonEx,-0.386111111,-0.007407422,1,0,0,0.8432,optionLeft,55,4130,2,34,0,34,0,1,,,,,,,,,,,,,,,,,,,,,,,,,,,,,,,,,,,,,,,
,,,,,,,,2023-08-16_08h48.03.790,HF_wild_card,2022.2.4,Win32,59.99880002,610dab2802ed9932045896da,64d2fd46c836a06233681665,64dc7ece8cf2971354a1d3d7,,,,,,,decisionTrl,resources/DBN.BMP,resources/DY.BMP,Door1,0.334259288,0.007407379,1,0,0,1.9949,optionRight,30,4160,2,35,0,35,0,1,,,,,,,,,,,,,,,,,,,,,,,,,,,,,,,,,,,,,,,
,,,,,,,,2023-08-16_08h48.03.790,HF_wild_card,2022.2.4,Win32,59.99880002,610dab2802ed9932045896da,64d2fd46c836a06233681665,64dc7ece8cf2971354a1d3d7,,,,,,,decisionTrl,resources/DY.BMP,resources/DBN.BMP,Door2,0.322222222,0.025,1,0,0,1.1014,optionRight,40,4200,2,36,0,36,0,1,,,,,,,,,,,,,,,,,,,,,,,,,,,,,,,,,,,,,,,
,,,,,,,,2023-08-16_08h48.03.790,HF_wild_card,2022.2.4,Win32,59.99880002,610dab2802ed9932045896da,64d2fd46c836a06233681665,64dc7ece8cf2971354a1d3d7,,,,,,,ctch,resources/DG.BMP,resources/DY.BMP,Door4,-0.338888889,0.062962935,1,0,0,1.1434,optionLeft,60,4260,2,37,0,37,0,1,,,,,,,,,,,,,,,,,,,,,,,,,,,,,,,,,,,,,,,
,,,,,,,,2023-08-16_08h48.03.790,HF_wild_card,2022.2.4,Win32,59.99880002,610dab2802ed9932045896da,64d2fd46c836a06233681665,64dc7ece8cf2971354a1d3d7,,,,,,,sngl,resources/DR.BMP,resources/Empty.png,Door3,-0.409259245,0.007407379,1,0,0,1.0892,optionLeft,70,4330,2,38,0,38,0,1,,,,,,,,,,,,,,,,,,,,,,,,,,,,,,,,,,,,,,,
,,,,,,,,2023-08-16_08h48.03.790,HF_wild_card,2022.2.4,Win32,59.99880002,610dab2802ed9932045896da,64d2fd46c836a06233681665,64dc7ece8cf2971354a1d3d7,,,,,,,ctch,resources/DY.BMP,resources/DG.BMP,Door4,0.439814843,0.024074046,1,0,0,2.2035,optionRight,60,4390,2,39,0,39,0,1,,,,,,,,,,,,,,,,,,,,,,,,,,,,,,,,,,,,,,,
,,,,,,,,2023-08-16_08h48.03.790,HF_wild_card,2022.2.4,Win32,59.99880002,610dab2802ed9932045896da,64d2fd46c836a06233681665,64dc7ece8cf2971354a1d3d7,,,,,,,decisionTrl,resources/DG.BMP,resources/DP.BMP,Door4,-0.449074046,0.027777778,1,0,0,1.1841,optionLeft,80,4470,2,40,0,40,0,1,,,,,,,,,,,,,,,,,,,,,,,,,,,,,,,,,,,,,,,
,,,,,,,,2023-08-16_08h48.03.790,HF_wild_card,2022.2.4,Win32,59.99880002,610dab2802ed9932045896da,64d2fd46c836a06233681665,64dc7ece8cf2971354a1d3d7,,,,,,,decisionTrl,resources/DG.BMP,resources/DR.BMP,Door4,-0.26851849,-0.03148151,1,0,0,1.4494,optionLeft,80,4550,2,41,0,41,0,1,,,,,,,,,,,,,,,,,,,,,,,,,,,,,,,,,,,,,,,
,,,,,,,,2023-08-16_08h48.03.790,HF_wild_card,2022.2.4,Win32,59.99880002,610dab2802ed9932045896da,64d2fd46c836a06233681665,64dc7ece8cf2971354a1d3d7,,,,,,,ctch,resources/DR.BMP,resources/DBN.BMP,Door3,-0.497222222,0.001851824,1,0,0,1.6038,optionLeft,70,4620,2,42,0,42,0,1,,,,,,,,,,,,,,,,,,,,,,,,,,,,,,,,,,,,,,,
,,,,,,,,2023-08-16_08h48.03.790,HF_wild_card,2022.2.4,Win32,59.99880002,610dab2802ed9932045896da,64d2fd46c836a06233681665,64dc7ece8cf2971354a1d3d7,,,,,,,decisionTrl,resources/DBN.BMP,resources/DP.BMP,WildCard_NonEx,0.444444444,-0.085185199,1,0,0,2.0903,optionRight,45,4665,2,43,0,43,0,1,,,,,,,,,,,,,,,,,,,,,,,,,,,,,,,,,,,,,,,
,,,,,,,,2023-08-16_08h48.03.790,HF_wild_card,2022.2.4,Win32,59.99880002,610dab2802ed9932045896da,64d2fd46c836a06233681665,64dc7ece8cf2971354a1d3d7,,,,,,,,,,,,,,,,,,,,,,,,,,1,0,1,0,1,,,,,,,,,,,,,,,,,,,,,,,,,,,,,,,,,,
,,,,,,,,2023-08-16_08h48.03.790,HF_wild_card,2022.2.4,Win32,59.99880002,610dab2802ed9932045896da,64d2fd46c836a06233681665,64dc7ece8cf2971354a1d3d7,,,,,,,ctch,resources/DR.BMP,resources/DBN.BMP,Door3,-0.449074046,-0.024074088,1,0,0,1.2801,optionLeft,70,4735,3,0,0,0,0,1,,,,,,,,,,,,,,,,,,,,,,,,,,,,,,,,,,,,,,,
,,,,,,,,2023-08-16_08h48.03.790,HF_wild_card,2022.2.4,Win32,59.99880002,610dab2802ed9932045896da,64d2fd46c836a06233681665,64dc7ece8cf2971354a1d3d7,,,,,,,decisionTrl,resources/DP.BMP,resources/DBN.BMP,WildCard_NonEx,-0.37870369,0.033333333,1,0,0,1.5966,optionLeft,45,4780,3,1,0,1,0,1,,,,,,,,,,,,,,,,,,,,,,,,,,,,,,,,,,,,,,,
,,,,,,,,2023-08-16_08h48.03.790,HF_wild_card,2022.2.4,Win32,59.99880002,610dab2802ed9932045896da,64d2fd46c836a06233681665,64dc7ece8cf2971354a1d3d7,,,,,,,ctch,resources/DG.BMP,resources/DY.BMP,Door4,-0.258333333,0.015740712,1,0,0,1.186,optionLeft,80,4860,3,2,0,2,0,1,,,,,,,,,,,,,,,,,,,,,,,,,,,,,,,,,,,,,,,
,,,,,,,,2023-08-16_08h48.03.790,HF_wild_card,2022.2.4,Win32,59.99880002,610dab2802ed9932045896da,64d2fd46c836a06233681665,64dc7ece8cf2971354a1d3d7,,,,,,,decisionTrl,resources/DBN.BMP,resources/DY.BMP,Door2,-0.437037023,-0.036111111,1,0,0,2.6729,optionLeft,20,4880,3,3,0,3,0,1,,,,,,,,,,,,,,,,,,,,,,,,,,,,,,,,,,,,,,,
,,,,,,,,2023-08-16_08h48.03.790,HF_wild_card,2022.2.4,Win32,59.99880002,610dab2802ed9932045896da,64d2fd46c836a06233681665,64dc7ece8cf2971354a1d3d7,,,,,,,sngl,resources/DP.BMP,resources/Empty.png,WildCard_NonEx,-0.351851824,-0.012962977,1,0,0,0.9084,optionLeft,45,4925,3,4,0,4,0,1,,,,,,,,,,,,,,,,,,,,,,,,,,,,,,,,,,,,,,,
,,,,,,,,2023-08-16_08h48.03.790,HF_wild_card,2022.2.4,Win32,59.99880002,610dab2802ed9932045896da,64d2fd46c836a06233681665,64dc7ece8cf2971354a1d3d7,,,,,,,sngl,resources/Empty.png,resources/DBN.BMP,Door2,0.287963019,0.034259245,1,0,0,0.9235,optionRight,20,4945,3,5,0,5,0,1,,,,,,,,,,,,,,,,,,,,,,,,,,,,,,,,,,,,,,,
,,,,,,,,2023-08-16_08h48.03.790,HF_wild_card,2022.2.4,Win32,59.99880002,610dab2802ed9932045896da,64d2fd46c836a06233681665,64dc7ece8cf2971354a1d3d7,,,,,,,decisionTrl,resources/DY.BMP,resources/DBN.BMP,Door1,-0.487962935,0.014814801,1,0,0,0.8943,optionLeft,30,4975,3,6,0,6,0,1,,,,,,,,,,,,,,,,,,,,,,,,,,,,,,,,,,,,,,,
,,,,,,,,2023-08-16_08h48.03.790,HF_wild_card,2022.2.4,Win32,59.99880002,610dab2802ed9932045896da,64d2fd46c836a06233681665,64dc7ece8cf2971354a1d3d7,,,,,,,ctch,resources/DY.BMP,resources/DG.BMP,Door4,0.511111111,0.025,1,0,0,1.1281,optionRight,60,5035,3,7,0,7,0,1,,,,,,,,,,,,,,,,,,,,,,,,,,,,,,,,,,,,,,,
,,,,,,,,2023-08-16_08h48.03.790,HF_wild_card,2022.2.4,Win32,59.99880002,610dab2802ed9932045896da,64d2fd46c836a06233681665,64dc7ece8cf2971354a1d3d7,,,,,,,ctch,resources/DBN.BMP,resources/DR.BMP,Door3,0.322222222,-0.011111111,1,0,0,1.2236,optionRight,70,5105,3,8,0,8,0,1,,,,,,,,,,,,,,,,,,,,,,,,,,,,,,,,,,,,,,,
,,,,,,,,2023-08-16_08h48.03.790,HF_wild_card,2022.2.4,Win32,59.99880002,610dab2802ed9932045896da,64d2fd46c836a06233681665,64dc7ece8cf2971354a1d3d7,,,,,,,sngl,resources/DP.BMP,resources/Empty.png,WildCard_NonEx,-0.354629601,0.09351849,1,0,0,0.7689,optionLeft,55,5160,3,9,0,9,0,1,,,,,,,,,,,,,,,,,,,,,,,,,,,,,,,,,,,,,,,
,,,,,,,,2023-08-16_08h48.03.790,HF_wild_card,2022.2.4,Win32,59.99880002,610dab2802ed9932045896da,64d2fd46c836a06233681665,64dc7ece8cf2971354a1d3d7,,,,,,,decisionTrl,resources/DY.BMP,resources/DBN.BMP,Door2,0.343518575,0.025,1,0,0,1.7959,optionRight,40,5200,3,10,0,10,0,1,,,,,,,,,,,,,,,,,,,,,,,,,,,,,,,,,,,,,,,
,,,,,,,,2023-08-16_08h48.03.790,HF_wild_card,2022.2.4,Win32,59.99880002,610dab2802ed9932045896da,64d2fd46c836a06233681665,64dc7ece8cf2971354a1d3d7,,,,,,,decisionTrl,resources/DP.BMP,resources/DR.BMP,Door3,0.30648151,-0.058333333,1,0,0,1.4333,optionRight,70,5270,3,11,0,11,0,1,,,,,,,,,,,,,,,,,,,,,,,,,,,,,,,,,,,,,,,
,,,,,,,,2023-08-16_08h48.03.790,HF_wild_card,2022.2.4,Win32,59.99880002,610dab2802ed9932045896da,64d2fd46c836a06233681665,64dc7ece8cf2971354a1d3d7,,,,,,,decisionTrl,resources/DBN.BMP,resources/DY.BMP,Door2,-0.361111111,-0.03148151,1,0,0,1.7282,optionLeft,20,5290,3,12,0,12,0,1,,,,,,,,,,,,,,,,,,,,,,,,,,,,,,,,,,,,,,,
,,,,,,,,2023-08-16_08h48.03.790,HF_wild_card,2022.2.4,Win32,59.99880002,610dab2802ed9932045896da,64d2fd46c836a06233681665,64dc7ece8cf2971354a1d3d7,,,,,,,ctch,resources/DG.BMP,resources/DY.BMP,Door4,-0.331481467,0.049074046,1,0,0,2.346,optionLeft,60,5350,3,13,0,13,0,1,,,,,,,,,,,,,,,,,,,,,,,,,,,,,,,,,,,,,,,
,,,,,,,,2023-08-16_08h48.03.790,HF_wild_card,2022.2.4,Win32,59.99880002,610dab2802ed9932045896da,64d2fd46c836a06233681665,64dc7ece8cf2971354a1d3d7,,,,,,,decisionTrl,resources/DY.BMP,resources/DBN.BMP,Door1,-0.364814801,0.087962935,1,0,0,1.1798,optionLeft,30,5380,3,14,0,14,0,1,,,,,,,,,,,,,,,,,,,,,,,,,,,,,,,,,,,,,,,
,,,,,,,,2023-08-16_08h48.03.790,HF_wild_card,2022.2.4,Win32,59.99880002,610dab2802ed9932045896da,64d2fd46c836a06233681665,64dc7ece8cf2971354a1d3d7,,,,,,,decisionTrl,resources/DG.BMP,resources/DR.BMP,Door4,-0.350925912,0.038888889,1,0,0,1.2015,optionLeft,60,5440,3,15,0,15,0,1,,,,,,,,,,,,,,,,,,,,,,,,,,,,,,,,,,,,,,,
,,,,,,,,2023-08-16_08h48.03.790,HF_wild_card,2022.2.4,Win32,59.99880002,610dab2802ed9932045896da,64d2fd46c836a06233681665,64dc7ece8cf2971354a1d3d7,,,,,,,decisionTrl,resources/DR.BMP,resources/DG.BMP,Door4,0.310185242,0.009259245,1,0,0,1.2935,optionRight,60,5500,3,16,0,16,0,1,,,,,,,,,,,,,,,,,,,,,,,,,,,,,,,,,,,,,,,
,,,,,,,,2023-08-16_08h48.03.790,HF_wild_card,2022.2.4,Win32,59.99880002,610dab2802ed9932045896da,64d2fd46c836a06233681665,64dc7ece8cf2971354a1d3d7,,,,,,,ctch,resources/DR.BMP,resources/DBN.BMP,Door3,-0.379629601,-0.012037065,1,0,0,1.1276,optionLeft,70,5570,3,17,0,17,0,1,,,,,,,,,,,,,,,,,,,,,,,,,,,,,,,,,,,,,,,
,,,,,,,,2023-08-16_08h48.03.790,HF_wild_card,2022.2.4,Win32,59.99880002,610dab2802ed9932045896da,64d2fd46c836a06233681665,64dc7ece8cf2971354a1d3d7,,,,,,,decisionTrl,resources/DG.BMP,resources/DR.BMP,Door4,-0.258333333,0.061111111,1,0,0,1.5424,optionLeft,60,5630,3,18,0,18,0,1,,,,,,,,,,,,,,,,,,,,,,,,,,,,,,,,,,,,,,,
,,,,,,,,2023-08-16_08h48.03.790,HF_wild_card,2022.2.4,Win32,59.99880002,610dab2802ed9932045896da,64d2fd46c836a06233681665,64dc7ece8cf2971354a1d3d7,,,,,,,decisionTrl,resources/DG.BMP,resources/DP.BMP,Door4,-0.35370369,0.021296268,1,0,0,1.1468,optionLeft,80,5710,3,19,0,19,0,1,,,,,,,,,,,,,,,,,,,,,,,,,,,,,,,,,,,,,,,
,,,,,,,,2023-08-16_08h48.03.790,HF_wild_card,2022.2.4,Win32,59.99880002,610dab2802ed9932045896da,64d2fd46c836a06233681665,64dc7ece8cf2971354a1d3d7,,,,,,,ctch,resources/DBN.BMP,resources/DR.BMP,Door3,0.426851908,-0.024074088,1,0,0,1.2924,optionRight,70,5780,3,20,0,20,0,1,,,,,,,,,,,,,,,,,,,,,,,,,,,,,,,,,,,,,,,
,,,,,,,,2023-08-16_08h48.03.790,HF_wild_card,2022.2.4,Win32,59.99880002,610dab2802ed9932045896da,64d2fd46c836a06233681665,64dc7ece8cf2971354a1d3d7,,,,,,,decisionTrl,resources/DBN.BMP,resources/DP.BMP,WildCard_NonEx,0.363888889,-0.002777778,1,0,0,1.4127,optionRight,55,5835,3,21,0,21,0,1,,,,,,,,,,,,,,,,,,,,,,,,,,,,,,,,,,,,,,,
,,,,,,,,2023-08-16_08h48.03.790,HF_wild_card,2022.2.4,Win32,59.99880002,610dab2802ed9932045896da,64d2fd46c836a06233681665,64dc7ece8cf2971354a1d3d7,,,,,,,decisionTrl,resources/DR.BMP,resources/DG.BMP,Door4,0.393518575,-0.005555556,1,0,0,0.9291,optionRight,60,5895,3,22,0,22,0,1,,,,,,,,,,,,,,,,,,,,,,,,,,,,,,,,,,,,,,,
,,,,,,,,2023-08-16_08h48.03.790,HF_wild_card,2022.2.4,Win32,59.99880002,610dab2802ed9932045896da,64d2fd46c836a06233681665,64dc7ece8cf2971354a1d3d7,,,,,,,ctch,resources/DY.BMP,resources/DG.BMP,Door4,0.315740797,0.073148134,1,0,0,1.0924,optionRight,60,5955,3,23,0,23,0,1,,,,,,,,,,,,,,,,,,,,,,,,,,,,,,,,,,,,,,,
,,,,,,,,2023-08-16_08h48.03.790,HF_wild_card,2022.2.4,Win32,59.99880002,610dab2802ed9932045896da,64d2fd46c836a06233681665,64dc7ece8cf2971354a1d3d7,,,,,,,decisionTrl,resources/DR.BMP,resources/DG.BMP,Door4,0.226851908,0.005555556,1,0,0,0.8268,optionRight,60,6015,3,24,0,24,0,1,,,,,,,,,,,,,,,,,,,,,,,,,,,,,,,,,,,,,,,
,,,,,,,,2023-08-16_08h48.03.790,HF_wild_card,2022.2.4,Win32,59.99880002,610dab2802ed9932045896da,64d2fd46c836a06233681665,64dc7ece8cf2971354a1d3d7,,,,,,,sngl,resources/Empty.png,resources/DG.BMP,Door4,0.320370399,-0.041666667,1,0,0,0.9809,optionRight,60,6075,3,25,0,25,0,1,,,,,,,,,,,,,,,,,,,,,,,,,,,,,,,,,,,,,,,
,,,,,,,,2023-08-16_08h48.03.790,HF_wild_card,2022.2.4,Win32,59.99880002,610dab2802ed9932045896da,64d2fd46c836a06233681665,64dc7ece8cf2971354a1d3d7,,,,,,,decisionTrl,resources/DY.BMP,resources/DP.BMP,WildCard_NonEx,0.249074131,-0.04629631,1,0,0,1.9784,optionRight,55,6130,3,26,0,26,0,1,,,,,,,,,,,,,,,,,,,,,,,,,,,,,,,,,,,,,,,
,,,,,,,,2023-08-16_08h48.03.790,HF_wild_card,2022.2.4,Win32,59.99880002,610dab2802ed9932045896da,64d2fd46c836a06233681665,64dc7ece8cf2971354a1d3d7,,,,,,,decisionTrl,resources/DY.BMP,resources/DBN.BMP,Door1,-0.445370356,-0.024074088,1,0,0,3.1567,optionLeft,30,6160,3,27,0,27,0,1,,,,,,,,,,,,,,,,,,,,,,,,,,,,,,,,,,,,,,,
,,,,,,,,2023-08-16_08h48.03.790,HF_wild_card,2022.2.4,Win32,59.99880002,610dab2802ed9932045896da,64d2fd46c836a06233681665,64dc7ece8cf2971354a1d3d7,,,,,,,sngl,resources/Empty.png,resources/DP.BMP,WildCard_NonEx,0.321296353,-0.001851866,1,0,0,0.9275,optionRight,45,6205,3,28,0,28,0,1,,,,,,,,,,,,,,,,,,,,,,,,,,,,,,,,,,,,,,,
,,,,,,,,2023-08-16_08h48.03.790,HF_wild_card,2022.2.4,Win32,59.99880002,610dab2802ed9932045896da,64d2fd46c836a06233681665,64dc7ece8cf2971354a1d3d7,,,,,,,sngl,resources/DY.BMP,resources/Empty.png,Door1,-0.327777778,0.024074046,1,0,0,0.8254,optionLeft,30,6235,3,29,0,29,0,1,,,,,,,,,,,,,,,,,,,,,,,,,,,,,,,,,,,,,,,
,,,,,,,,2023-08-16_08h48.03.790,HF_wild_card,2022.2.4,Win32,59.99880002,610dab2802ed9932045896da,64d2fd46c836a06233681665,64dc7ece8cf2971354a1d3d7,,,,,,,decisionTrl,resources/DR.BMP,resources/DG.BMP,Door4,0.362963019,0.038888889,1,0,0,1.0595,optionRight,80,6315,3,30,0,30,0,1,,,,,,,,,,,,,,,,,,,,,,,,,,,,,,,,,,,,,,,
,,,,,,,,2023-08-16_08h48.03.790,HF_wild_card,2022.2.4,Win32,59.99880002,610dab2802ed9932045896da,64d2fd46c836a06233681665,64dc7ece8cf2971354a1d3d7,,,,,,,sngl,resources/Empty.png,resources/DY.BMP,Door1,0.440740797,-0.004629644,1,0,0,0.9625,optionRight,30,6345,3,31,0,31,0,1,,,,,,,,,,,,,,,,,,,,,,,,,,,,,,,,,,,,,,,
,,,,,,,,2023-08-16_08h48.03.790,HF_wild_card,2022.2.4,Win32,59.99880002,610dab2802ed9932045896da,64d2fd46c836a06233681665,64dc7ece8cf2971354a1d3d7,,,,,,,decisionTrl,resources/DP.BMP,resources/DY.BMP,WildCard_NonEx,-0.369444444,0.019444444,1,0,0,1.2486,optionLeft,55,6400,3,32,0,32,0,1,,,,,,,,,,,,,,,,,,,,,,,,,,,,,,,,,,,,,,,
,,,,,,,,2023-08-16_08h48.03.790,HF_wild_card,2022.2.4,Win32,59.99880002,610dab2802ed9932045896da,64d2fd46c836a06233681665,64dc7ece8cf2971354a1d3d7,,,,,,,sngl,resources/Empty.png,resources/DP.BMP,WildCard_NonEx,0.311111111,0.016666667,1,0,0,1.0452,optionRight,55,6455,3,33,0,33,0,1,,,,,,,,,,,,,,,,,,,,,,,,,,,,,,,,,,,,,,,
,,,,,,,,2023-08-16_08h48.03.790,HF_wild_card,2022.2.4,Win32,59.99880002,610dab2802ed9932045896da,64d2fd46c836a06233681665,64dc7ece8cf2971354a1d3d7,,,,,,,sngl,resources/DBN.BMP,resources/Empty.png,Door2,-0.359259245,0.039814801,1,0,0,1.0598,optionLeft,40,6495,3,34,0,34,0,1,,,,,,,,,,,,,,,,,,,,,,,,,,,,,,,,,,,,,,,
,,,,,,,,2023-08-16_08h48.03.790,HF_wild_card,2022.2.4,Win32,59.99880002,610dab2802ed9932045896da,64d2fd46c836a06233681665,64dc7ece8cf2971354a1d3d7,,,,,,,decisionTrl,resources/DG.BMP,resources/DR.BMP,Door4,-0.367592578,0.011111111,1,0,0,1.6135,optionLeft,80,6575,3,35,0,35,0,1,,,,,,,,,,,,,,,,,,,,,,,,,,,,,,,,,,,,,,,
,,,,,,,,2023-08-16_08h48.03.790,HF_wild_card,2022.2.4,Win32,59.99880002,610dab2802ed9932045896da,64d2fd46c836a06233681665,64dc7ece8cf2971354a1d3d7,,,,,,,decisionTrl,resources/DBN.BMP,resources/DY.BMP,Door1,0.351851908,-0.05648151,1,0,0,3.6777,optionRight,30,6605,3,36,0,36,0,1,,,,,,,,,,,,,,,,,,,,,,,,,,,,,,,,,,,,,,,
,,,,,,,,2023-08-16_08h48.03.790,HF_wild_card,2022.2.4,Win32,59.99880002,610dab2802ed9932045896da,64d2fd46c836a06233681665,64dc7ece8cf2971354a1d3d7,,,,,,,decisionTrl,resources/DG.BMP,resources/DR.BMP,Door4,-0.314814801,0.071296268,1,0,0,0.9616,optionLeft,80,6685,3,37,0,37,0,1,,,,,,,,,,,,,,,,,,,,,,,,,,,,,,,,,,,,,,,
,,,,,,,,2023-08-16_08h48.03.790,HF_wild_card,2022.2.4,Win32,59.99880002,610dab2802ed9932045896da,64d2fd46c836a06233681665,64dc7ece8cf2971354a1d3d7,,,,,,,decisionTrl,resources/DBN.BMP,resources/DY.BMP,Door2,-0.45370369,0.11851849,1,0,0,2.0942,optionLeft,40,6725,3,38,0,38,0,1,,,,,,,,,,,,,,,,,,,,,,,,,,,,,,,,,,,,,,,
,,,,,,,,2023-08-16_08h48.03.790,HF_wild_card,2022.2.4,Win32,59.99880002,610dab2802ed9932045896da,64d2fd46c836a06233681665,64dc7ece8cf2971354a1d3d7,,,,,,,decisionTrl,resources/DP.BMP,resources/DG.BMP,Door4,0.367592621,0.036111111,1,0,0,1.196,optionRight,80,6805,3,39,0,39,0,1,,,,,,,,,,,,,,,,,,,,,,,,,,,,,,,,,,,,,,,
,,,,,,,,2023-08-16_08h48.03.790,HF_wild_card,2022.2.4,Win32,59.99880002,610dab2802ed9932045896da,64d2fd46c836a06233681665,64dc7ece8cf2971354a1d3d7,,,,,,,decisionTrl,resources/DR.BMP,resources/DP.BMP,Door3,-0.49351849,-0.009259288,1,0,0,1.6946,optionLeft,70,6875,3,40,0,40,0,1,,,,,,,,,,,,,,,,,,,,,,,,,,,,,,,,,,,,,,,
,,,,,,,,2023-08-16_08h48.03.790,HF_wild_card,2022.2.4,Win32,59.99880002,610dab2802ed9932045896da,64d2fd46c836a06233681665,64dc7ece8cf2971354a1d3d7,,,,,,,sngl,resources/DR.BMP,resources/Empty.png,Door3,-0.337962935,0.004629601,1,0,0,0.8953,optionLeft,70,6945,3,41,0,41,0,1,,,,,,,,,,,,,,,,,,,,,,,,,,,,,,,,,,,,,,,
,,,,,,,,2023-08-16_08h48.03.790,HF_wild_card,2022.2.4,Win32,59.99880002,610dab2802ed9932045896da,64d2fd46c836a06233681665,64dc7ece8cf2971354a1d3d7,,,,,,,sngl,resources/DG.BMP,resources/Empty.png,Door4,-0.264814801,-0.010185199,1,0,0,0.8971,optionLeft,80,7025,3,42,0,42,0,1,,,,,,,,,,,,,,,,,,,,,,,,,,,,,,,,,,,,,,,
,,,,,,,,2023-08-16_08h48.03.790,HF_wild_card,2022.2.4,Win32,59.99880002,610dab2802ed9932045896da,64d2fd46c836a06233681665,64dc7ece8cf2971354a1d3d7,,,,,,,sngl,resources/Empty.png,resources/DR.BMP,Door3,0.323148176,0.029629601,1,0,0,0.7919,optionRight,70,7095,3,43,0,43,0,1,,,,,,,,,,,,,,,,,,,,,,,,,,,,,,,,,,,,,,,
,,,,,,,,2023-08-16_08h48.03.790,HF_wild_card,2022.2.4,Win32,59.99880002,610dab2802ed9932045896da,64d2fd46c836a06233681665,64dc7ece8cf2971354a1d3d7,,,,,,,,,,,,,,,,,,,,,,,,,,2,0,2,0,1,,,,,,,,,,,,,,,,,,,,,,,,,,,,,,,,,,
,,,,,,,,2023-08-16_08h48.03.790,HF_wild_card,2022.2.4,Win32,59.99880002,610dab2802ed9932045896da,64d2fd46c836a06233681665,64dc7ece8cf2971354a1d3d7,,,,,,,ctch,resources/DBN.BMP,resources/DR.BMP,Door3,0.371296353,-0.133333333,1,0,0,1.9218,optionRight,70,7165,4,0,0,0,0,1,,,,,,,,,,,,,,,,,,,,,,,,,,,,,,,,,,,,,,,
,,,,,,,,2023-08-16_08h48.03.790,HF_wild_card,2022.2.4,Win32,59.99880002,610dab2802ed9932045896da,64d2fd46c836a06233681665,64dc7ece8cf2971354a1d3d7,,,,,,,decisionTrl,resources/DG.BMP,resources/DR.BMP,Door4,-0.384259245,0.02870369,1,0,0,1.0407,optionLeft,80,7245,4,1,0,1,0,1,,,,,,,,,,,,,,,,,,,,,,,,,,,,,,,,,,,,,,,
,,,,,,,,2023-08-16_08h48.03.790,HF_wild_card,2022.2.4,Win32,59.99880002,610dab2802ed9932045896da,64d2fd46c836a06233681665,64dc7ece8cf2971354a1d3d7,,,,,,,ctch,resources/DR.BMP,resources/DBN.BMP,Door3,-0.320370356,0.006481467,1,0,0,0.8604,optionLeft,70,7315,4,2,0,2,0,1,,,,,,,,,,,,,,,,,,,,,,,,,,,,,,,,,,,,,,,
,,,,,,,,2023-08-16_08h48.03.790,HF_wild_card,2022.2.4,Win32,59.99880002,610dab2802ed9932045896da,64d2fd46c836a06233681665,64dc7ece8cf2971354a1d3d7,,,,,,,decisionTrl,resources/DG.BMP,resources/DR.BMP,Door4,-0.313888889,0.022222222,1,0,0,0.9608,optionLeft,80,7395,4,3,0,3,0,1,,,,,,,,,,,,,,,,,,,,,,,,,,,,,,,,,,,,,,,
,,,,,,,,2023-08-16_08h48.03.790,HF_wild_card,2022.2.4,Win32,59.99880002,610dab2802ed9932045896da,64d2fd46c836a06233681665,64dc7ece8cf2971354a1d3d7,,,,,,,decisionTrl,resources/DR.BMP,resources/DG.BMP,Door4,0.332407464,-0.027777778,1,0,0,0.9781,optionRight,80,7475,4,4,0,4,0,1,,,,,,,,,,,,,,,,,,,,,,,,,,,,,,,,,,,,,,,
,,,,,,,,2023-08-16_08h48.03.790,HF_wild_card,2022.2.4,Win32,59.99880002,610dab2802ed9932045896da,64d2fd46c836a06233681665,64dc7ece8cf2971354a1d3d7,,,,,,,sngl,resources/Empty.png,resources/DG.BMP,Door4,0.342592621,-0.020370399,1,0,0,0.7099,optionRight,80,7555,4,5,0,5,0,1,,,,,,,,,,,,,,,,,,,,,,,,,,,,,,,,,,,,,,,
,,,,,,,,2023-08-16_08h48.03.790,HF_wild_card,2022.2.4,Win32,59.99880002,610dab2802ed9932045896da,64d2fd46c836a06233681665,64dc7ece8cf2971354a1d3d7,,,,,,,decisionTrl,resources/DBN.BMP,resources/DY.BMP,Door1,0.338888889,-0.055555556,1,0,0,1.9279,optionRight,30,7585,4,6,0,6,0,1,,,,,,,,,,,,,,,,,,,,,,,,,,,,,,,,,,,,,,,
,,,,,,,,2023-08-16_08h48.03.790,HF_wild_card,2022.2.4,Win32,59.99880002,610dab2802ed9932045896da,64d2fd46c836a06233681665,64dc7ece8cf2971354a1d3d7,,,,,,,sngl,resources/Empty.png,resources/DB.BMP,WildCard_Ex,0.421296353,-0.047222222,1,0,0,0.9932,optionRight,95,7680,4,7,0,7,0,1,,,,,,,,,,,,,,,,,,,,,,,,,,,,,,,,,,,,,,,
,,,,,,,,2023-08-16_08h48.03.790,HF_wild_card,2022.2.4,Win32,59.99880002,610dab2802ed9932045896da,64d2fd46c836a06233681665,64dc7ece8cf2971354a1d3d7,,,,,,,decisionTrl,resources/DG.BMP,resources/DR.BMP,Door4,-0.344444444,-0.020370399,1,0,0,1.0275,optionLeft,80,7760,4,8,0,8,0,1,,,,,,,,,,,,,,,,,,,,,,,,,,,,,,,,,,,,,,,
,,,,,,,,2023-08-16_08h48.03.790,HF_wild_card,2022.2.4,Win32,59.99880002,610dab2802ed9932045896da,64d2fd46c836a06233681665,64dc7ece8cf2971354a1d3d7,,,,,,,sngl,resources/DB.BMP,resources/Empty.png,WildCard_Ex,-0.374074046,-0.009259288,1,0,0,0.8755,optionLeft,5,7765,4,9,0,9,0,1,,,,,,,,,,,,,,,,,,,,,,,,,,,,,,,,,,,,,,,
,,,,,,,,2023-08-16_08h48.03.790,HF_wild_card,2022.2.4,Win32,59.99880002,610dab2802ed9932045896da,64d2fd46c836a06233681665,64dc7ece8cf2971354a1d3d7,,,,,,,sngl,resources/DG.BMP,resources/Empty.png,Door4,-0.434259245,0.039814801,1,0,0,0.879,optionLeft,60,7825,4,10,0,10,0,1,,,,,,,,,,,,,,,,,,,,,,,,,,,,,,,,,,,,,,,
,,,,,,,,2023-08-16_08h48.03.790,HF_wild_card,2022.2.4,Win32,59.99880002,610dab2802ed9932045896da,64d2fd46c836a06233681665,64dc7ece8cf2971354a1d3d7,,,,,,,decisionTrl,resources/DB.BMP,resources/DY.BMP,WildCard_Ex,-0.383333333,0.025,1,0,0,2.1863,optionLeft,5,7830,4,11,0,11,0,1,,,,,,,,,,,,,,,,,,,,,,,,,,,,,,,,,,,,,,,
,,,,,,,,2023-08-16_08h48.03.790,HF_wild_card,2022.2.4,Win32,59.99880002,610dab2802ed9932045896da,64d2fd46c836a06233681665,64dc7ece8cf2971354a1d3d7,,,,,,,decisionTrl,resources/DB.BMP,resources/DG.BMP,Door4,0.555555556,0.040740712,1,0,0,1.7286,optionRight,80,7910,4,12,0,12,0,1,,,,,,,,,,,,,,,,,,,,,,,,,,,,,,,,,,,,,,,
,,,,,,,,2023-08-16_08h48.03.790,HF_wild_card,2022.2.4,Win32,59.99880002,610dab2802ed9932045896da,64d2fd46c836a06233681665,64dc7ece8cf2971354a1d3d7,,,,,,,decisionTrl,resources/DY.BMP,resources/DBN.BMP,Door1,-0.384259245,0.037037023,1,0,0,1.4112,optionLeft,30,7940,4,13,0,13,0,1,,,,,,,,,,,,,,,,,,,,,,,,,,,,,,,,,,,,,,,
,,,,,,,,2023-08-16_08h48.03.790,HF_wild_card,2022.2.4,Win32,59.99880002,610dab2802ed9932045896da,64d2fd46c836a06233681665,64dc7ece8cf2971354a1d3d7,,,,,,,decisionTrl,resources/DY.BMP,resources/DBN.BMP,Door2,0.266666667,0.002777778,1,0,0,1.9966,optionRight,40,7980,4,14,0,14,0,1,,,,,,,,,,,,,,,,,,,,,,,,,,,,,,,,,,,,,,,
,,,,,,,,2023-08-16_08h48.03.790,HF_wild_card,2022.2.4,Win32,59.99880002,610dab2802ed9932045896da,64d2fd46c836a06233681665,64dc7ece8cf2971354a1d3d7,,,,,,,sngl,resources/Empty.png,resources/DB.BMP,WildCard_Ex,0.455555556,-0.003703732,1,0,0,0.8118,optionRight,5,7985,4,15,0,15,0,1,,,,,,,,,,,,,,,,,,,,,,,,,,,,,,,,,,,,,,,
,,,,,,,,2023-08-16_08h48.03.790,HF_wild_card,2022.2.4,Win32,59.99880002,610dab2802ed9932045896da,64d2fd46c836a06233681665,64dc7ece8cf2971354a1d3d7,,,,,,,sngl,resources/DB.BMP,resources/Empty.png,WildCard_Ex,-0.432407379,-0.080555556,1,0,0,1.0116,optionLeft,95,8080,4,16,0,16,0,1,,,,,,,,,,,,,,,,,,,,,,,,,,,,,,,,,,,,,,,
,,,,,,,,2023-08-16_08h48.03.790,HF_wild_card,2022.2.4,Win32,59.99880002,610dab2802ed9932045896da,64d2fd46c836a06233681665,64dc7ece8cf2971354a1d3d7,,,,,,,sngl,resources/DBN.BMP,resources/Empty.png,Door2,-0.341666667,0.05,1,0,0,0.9118,optionLeft,20,8100,4,17,0,17,0,1,,,,,,,,,,,,,,,,,,,,,,,,,,,,,,,,,,,,,,,
,,,,,,,,2023-08-16_08h48.03.790,HF_wild_card,2022.2.4,Win32,59.99880002,610dab2802ed9932045896da,64d2fd46c836a06233681665,64dc7ece8cf2971354a1d3d7,,,,,,,decisionTrl,resources/DBN.BMP,resources/DY.BMP,Door1,0.365740797,0.010185157,1,0,0,0.9784,optionRight,30,8130,4,18,0,18,0,1,,,,,,,,,,,,,,,,,,,,,,,,,,,,,,,,,,,,,,,
,,,,,,,,2023-08-16_08h48.03.790,HF_wild_card,2022.2.4,Win32,59.99880002,610dab2802ed9932045896da,64d2fd46c836a06233681665,64dc7ece8cf2971354a1d3d7,,,,,,,decisionTrl,resources/DBN.BMP,resources/DB.BMP,Door2,-0.260185157,0.022222222,1,0,0,1.3304,optionLeft,40,8170,4,19,0,19,0,1,,,,,,,,,,,,,,,,,,,,,,,,,,,,,,,,,,,,,,,
,,,,,,,,2023-08-16_08h48.03.790,HF_wild_card,2022.2.4,Win32,59.99880002,610dab2802ed9932045896da,64d2fd46c836a06233681665,64dc7ece8cf2971354a1d3d7,,,,,,,decisionTrl,resources/DY.BMP,resources/DB.BMP,Door1,-0.355555556,0.073148134,1,0,0,1.2961,optionLeft,30,8200,4,20,0,20,0,1,,,,,,,,,,,,,,,,,,,,,,,,,,,,,,,,,,,,,,,
,,,,,,,,2023-08-16_08h48.03.790,HF_wild_card,2022.2.4,Win32,59.99880002,610dab2802ed9932045896da,64d2fd46c836a06233681665,64dc7ece8cf2971354a1d3d7,,,,,,,decisionTrl,resources/DY.BMP,resources/DBN.BMP,Door2,0.368518575,0.121296268,1,0,0,1.7367,optionRight,40,8240,4,21,0,21,0,1,,,,,,,,,,,,,,,,,,,,,,,,,,,,,,,,,,,,,,,
,,,,,,,,2023-08-16_08h48.03.790,HF_wild_card,2022.2.4,Win32,59.99880002,610dab2802ed9932045896da,64d2fd46c836a06233681665,64dc7ece8cf2971354a1d3d7,,,,,,,decisionTrl,resources/DB.BMP,resources/DR.BMP,Door3,0.411111111,-0.025925954,1,0,0,1.1771,optionRight,70,8310,4,22,0,22,0,1,,,,,,,,,,,,,,,,,,,,,,,,,,,,,,,,,,,,,,,
,,,,,,,,2023-08-16_08h48.03.790,HF_wild_card,2022.2.4,Win32,59.99880002,610dab2802ed9932045896da,64d2fd46c836a06233681665,64dc7ece8cf2971354a1d3d7,,,,,,,ctch,resources/DG.BMP,resources/DY.BMP,Door4,-0.257407379,0.046296268,1,0,0,2.477,optionLeft,60,8370,4,23,0,23,0,1,,,,,,,,,,,,,,,,,,,,,,,,,,,,,,,,,,,,,,,
,,,,,,,,2023-08-16_08h48.03.790,HF_wild_card,2022.2.4,Win32,59.99880002,610dab2802ed9932045896da,64d2fd46c836a06233681665,64dc7ece8cf2971354a1d3d7,,,,,,,ctch,resources/DY.BMP,resources/DG.BMP,Door4,0.509259288,-0.012037065,1,0,0,1.16,optionRight,60,8430,4,24,0,24,0,1,,,,,,,,,,,,,,,,,,,,,,,,,,,,,,,,,,,,,,,
,,,,,,,,2023-08-16_08h48.03.790,HF_wild_card,2022.2.4,Win32,59.99880002,610dab2802ed9932045896da,64d2fd46c836a06233681665,64dc7ece8cf2971354a1d3d7,,,,,,,decisionTrl,resources/DR.BMP,resources/DG.BMP,Door4,0.316666667,-0.026851866,1,0,0,1.1112,optionRight,80,8510,4,25,0,25,0,1,,,,,,,,,,,,,,,,,,,,,,,,,,,,,,,,,,,,,,,
,,,,,,,,2023-08-16_08h48.03.790,HF_wild_card,2022.2.4,Win32,59.99880002,610dab2802ed9932045896da,64d2fd46c836a06233681665,64dc7ece8cf2971354a1d3d7,,,,,,,sngl,resources/Empty.png,resources/DR.BMP,Door3,0.402777778,-0.009259288,1,0,0,1.0284,optionRight,70,8580,4,26,0,26,0,1,,,,,,,,,,,,,,,,,,,,,,,,,,,,,,,,,,,,,,,
,,,,,,,,2023-08-16_08h48.03.790,HF_wild_card,2022.2.4,Win32,59.99880002,610dab2802ed9932045896da,64d2fd46c836a06233681665,64dc7ece8cf2971354a1d3d7,,,,,,,decisionTrl,resources/DG.BMP,resources/DB.BMP,WildCard_Ex,0.005555556,0.014814801,1,0,0,0.212,optionRight,95,8675,4,27,0,27,0,1,,,,,,,,,,,,,,,,,,,,,,,,,,,,,,,,,,,,,,,
,,,,,,,,2023-08-16_08h48.03.790,HF_wild_card,2022.2.4,Win32,59.99880002,610dab2802ed9932045896da,64d2fd46c836a06233681665,64dc7ece8cf2971354a1d3d7,,,,,,,ctch,resources/DG.BMP,resources/DY.BMP,Door4,-0.384259245,0.033333333,1,0,0,1.1946,optionLeft,60,8735,4,28,0,28,0,1,,,,,,,,,,,,,,,,,,,,,,,,,,,,,,,,,,,,,,,
,,,,,,,,2023-08-16_08h48.03.790,HF_wild_card,2022.2.4,Win32,59.99880002,610dab2802ed9932045896da,64d2fd46c836a06233681665,64dc7ece8cf2971354a1d3d7,,,,,,,decisionTrl,resources/DR.BMP,resources/DG.BMP,Door4,0.299074131,0.009259245,1,0,0,0.8266,optionRight,60,8795,4,29,0,29,0,1,,,,,,,,,,,,,,,,,,,,,,,,,,,,,,,,,,,,,,,
,,,,,,,,2023-08-16_08h48.03.790,HF_wild_card,2022.2.4,Win32,59.99880002,610dab2802ed9932045896da,64d2fd46c836a06233681665,64dc7ece8cf2971354a1d3d7,,,,,,,decisionTrl,resources/DB.BMP,resources/DBN.BMP,WildCard_Ex,-0.336111111,0.015740712,1,0,0,3.2918,optionLeft,95,8890,4,30,0,30,0,1,,,,,,,,,,,,,,,,,,,,,,,,,,,,,,,,,,,,,,,
,,,,,,,,2023-08-16_08h48.03.790,HF_wild_card,2022.2.4,Win32,59.99880002,610dab2802ed9932045896da,64d2fd46c836a06233681665,64dc7ece8cf2971354a1d3d7,,,,,,,sngl,resources/DY.BMP,resources/Empty.png,Door1,-0.29351849,0.055555556,1,0,0,0.8599,optionLeft,30,8920,4,31,0,31,0,1,,,,,,,,,,,,,,,,,,,,,,,,,,,,,,,,,,,,,,,
,,,,,,,,2023-08-16_08h48.03.790,HF_wild_card,2022.2.4,Win32,59.99880002,610dab2802ed9932045896da,64d2fd46c836a06233681665,64dc7ece8cf2971354a1d3d7,,,,,,,decisionTrl,resources/DG.BMP,resources/DR.BMP,Door4,-0.317592578,0.030555556,1,0,0,1.5944,optionLeft,60,8980,4,32,0,32,0,1,,,,,,,,,,,,,,,,,,,,,,,,,,,,,,,,,,,,,,,
,,,,,,,,2023-08-16_08h48.03.790,HF_wild_card,2022.2.4,Win32,59.99880002,610dab2802ed9932045896da,64d2fd46c836a06233681665,64dc7ece8cf2971354a1d3d7,,,,,,,decisionTrl,resources/DBN.BMP,resources/DY.BMP,Door2,-0.301851824,0.055555556,1,0,0,1.977,optionLeft,20,9000,4,33,0,33,0,1,,,,,,,,,,,,,,,,,,,,,,,,,,,,,,,,,,,,,,,
,,,,,,,,2023-08-16_08h48.03.790,HF_wild_card,2022.2.4,Win32,59.99880002,610dab2802ed9932045896da,64d2fd46c836a06233681665,64dc7ece8cf2971354a1d3d7,,,,,,,decisionTrl,resources/DR.BMP,resources/DG.BMP,Door4,0.384259288,-0.02129631,1,0,0,1.5534,optionRight,80,9080,4,34,0,34,0,1,,,,,,,,,,,,,,,,,,,,,,,,,,,,,,,,,,,,,,,
,,,,,,,,2023-08-16_08h48.03.790,HF_wild_card,2022.2.4,Win32,59.99880002,610dab2802ed9932045896da,64d2fd46c836a06233681665,64dc7ece8cf2971354a1d3d7,,,,,,,sngl,resources/DR.BMP,resources/Empty.png,Door3,-0.313888889,0.030555556,1,0,0,2.0387,optionLeft,70,9150,4,35,0,35,0,1,,,,,,,,,,,,,,,,,,,,,,,,,,,,,,,,,,,,,,,
,,,,,,,,2023-08-16_08h48.03.790,HF_wild_card,2022.2.4,Win32,59.99880002,610dab2802ed9932045896da,64d2fd46c836a06233681665,64dc7ece8cf2971354a1d3d7,,,,,,,decisionTrl,resources/DR.BMP,resources/DB.BMP,WildCard_Ex,0.322222222,0.036111111,1,0,0,2.1109,optionRight,95,9245,4,36,0,36,0,1,,,,,,,,,,,,,,,,,,,,,,,,,,,,,,,,,,,,,,,
,,,,,,,,2023-08-16_08h48.03.790,HF_wild_card,2022.2.4,Win32,59.99880002,610dab2802ed9932045896da,64d2fd46c836a06233681665,64dc7ece8cf2971354a1d3d7,,,,,,,decisionTrl,resources/DY.BMP,resources/DBN.BMP,Door1,-0.373148134,0.056481467,1,0,0,2.6954,optionLeft,30,9275,4,37,0,37,0,1,,,,,,,,,,,,,,,,,,,,,,,,,,,,,,,,,,,,,,,
,,,,,,,,2023-08-16_08h48.03.790,HF_wild_card,2022.2.4,Win32,59.99880002,610dab2802ed9932045896da,64d2fd46c836a06233681665,64dc7ece8cf2971354a1d3d7,,,,,,,ctch,resources/DY.BMP,resources/DG.BMP,Door4,0.370370399,0.020370356,1,0,0,1.5195,optionRight,80,9355,4,38,0,38,0,1,,,,,,,,,,,,,,,,,,,,,,,,,,,,,,,,,,,,,,,
,,,,,,,,2023-08-16_08h48.03.790,HF_wild_card,2022.2.4,Win32,59.99880002,610dab2802ed9932045896da,64d2fd46c836a06233681665,64dc7ece8cf2971354a1d3d7,,,,,,,ctch,resources/DBN.BMP,resources/DR.BMP,Door3,0.379629686,0.001851824,1,0,0,2.5026,optionRight,70,9425,4,39,0,39,0,1,,,,,,,,,,,,,,,,,,,,,,,,,,,,,,,,,,,,,,,
,,,,,,,,2023-08-16_08h48.03.790,HF_wild_card,2022.2.4,Win32,59.99880002,610dab2802ed9932045896da,64d2fd46c836a06233681665,64dc7ece8cf2971354a1d3d7,,,,,,,sngl,resources/Empty.png,resources/DY.BMP,Door1,0.421296353,0.011111111,1,0,0,1.1106,optionRight,30,9455,4,40,0,40,0,1,,,,,,,,,,,,,,,,,,,,,,,,,,,,,,,,,,,,,,,
,,,,,,,,2023-08-16_08h48.03.790,HF_wild_card,2022.2.4,Win32,59.99880002,610dab2802ed9932045896da,64d2fd46c836a06233681665,64dc7ece8cf2971354a1d3d7,,,,,,,decisionTrl,resources/DBN.BMP,resources/DY.BMP,Door2,-0.362962935,0.137962935,1,0,0,2.1439,optionLeft,20,9475,4,41,0,41,0,1,,,,,,,,,,,,,,,,,,,,,,,,,,,,,,,,,,,,,,,
,,,,,,,,2023-08-16_08h48.03.790,HF_wild_card,2022.2.4,Win32,59.99880002,610dab2802ed9932045896da,64d2fd46c836a06233681665,64dc7ece8cf2971354a1d3d7,,,,,,,ctch,resources/DR.BMP,resources/DBN.BMP,Door3,-0.452777778,0.033333333,1,0,0,1.0442,optionLeft,70,9545,4,42,0,42,0,1,,,,,,,,,,,,,,,,,,,,,,,,,,,,,,,,,,,,,,,
,,,,,,,,2023-08-16_08h48.03.790,HF_wild_card,2022.2.4,Win32,59.99880002,610dab2802ed9932045896da,64d2fd46c836a06233681665,64dc7ece8cf2971354a1d3d7,,,,,,,sngl,resources/Empty.png,resources/DBN.BMP,Door2,0.469444444,0.05,1,0,0,0.9421,optionRight,40,9585,4,43,0,43,0,1,,,,,,,,,,,,,,,,,,,,,,,,,,,,,,,,,,,,,,,
,,,,,,,,2023-08-16_08h48.03.790,HF_wild_card,2022.2.4,Win32,59.99880002,610dab2802ed9932045896da,64d2fd46c836a06233681665,64dc7ece8cf2971354a1d3d7,,,,,,,,,,,,,,,,,,,,,,,,,,3,0,3,0,1,,,,,,,,,,,,,,,,,,,,,,,,,,,,,,,,,,
,,,,,,,,2023-08-16_08h48.03.790,HF_wild_card,2022.2.4,Win32,59.99880002,610dab2802ed9932045896da,64d2fd46c836a06233681665,64dc7ece8cf2971354a1d3d7,,,,,,,sngl,resources/DR.BMP,resources/Empty.png,Door3,-0.5,-0.127777778,1,0,0,0.9716,optionLeft,70,9655,5,0,0,0,0,1,,,,,,,,,,,,,,,,,,,,,,,,,,,,,,,,,,,,,,,
,,,,,,,,2023-08-16_08h48.03.790,HF_wild_card,2022.2.4,Win32,59.99880002,610dab2802ed9932045896da,64d2fd46c836a06233681665,64dc7ece8cf2971354a1d3d7,,,,,,,decisionTrl,resources/DY.BMP,resources/DBN.BMP,Door2,0.274074131,0.062037023,1,0,0,1.9448,optionRight,40,9695,5,1,0,1,0,1,,,,,,,,,,,,,,,,,,,,,,,,,,,,,,,,,,,,,,,
,,,,,,,,2023-08-16_08h48.03.790,HF_wild_card,2022.2.4,Win32,59.99880002,610dab2802ed9932045896da,64d2fd46c836a06233681665,64dc7ece8cf2971354a1d3d7,,,,,,,decisionTrl,resources/DY.BMP,resources/DBN.BMP,Door2,0.427777778,0.130555556,1,0,0,1.3945,optionRight,40,9735,5,2,0,2,0,1,,,,,,,,,,,,,,,,,,,,,,,,,,,,,,,,,,,,,,,
,,,,,,,,2023-08-16_08h48.03.790,HF_wild_card,2022.2.4,Win32,59.99880002,610dab2802ed9932045896da,64d2fd46c836a06233681665,64dc7ece8cf2971354a1d3d7,,,,,,,decisionTrl,resources/DBN.BMP,resources/DB.BMP,WildCard_Ex,0.266666667,0.016666667,1,0,0,1.4134,optionRight,95,9830,5,3,0,3,0,1,,,,,,,,,,,,,,,,,,,,,,,,,,,,,,,,,,,,,,,
,,,,,,,,2023-08-16_08h48.03.790,HF_wild_card,2022.2.4,Win32,59.99880002,610dab2802ed9932045896da,64d2fd46c836a06233681665,64dc7ece8cf2971354a1d3d7,,,,,,,decisionTrl,resources/DY.BMP,resources/DBN.BMP,Door2,0.276851908,0.001851824,1,0,0,1.4445,optionRight,40,9870,5,4,0,4,0,1,,,,,,,,,,,,,,,,,,,,,,,,,,,,,,,,,,,,,,,
,,,,,,,,2023-08-16_08h48.03.790,HF_wild_card,2022.2.4,Win32,59.99880002,610dab2802ed9932045896da,64d2fd46c836a06233681665,64dc7ece8cf2971354a1d3d7,,,,,,,decisionTrl,resources/DG.BMP,resources/DB.BMP,Door4,-0.316666667,-0.043518533,1,0,0,1.2451,optionLeft,80,9950,5,5,0,5,0,1,,,,,,,,,,,,,,,,,,,,,,,,,,,,,,,,,,,,,,,
,,,,,,,,2023-08-16_08h48.03.790,HF_wild_card,2022.2.4,Win32,59.99880002,610dab2802ed9932045896da,64d2fd46c836a06233681665,64dc7ece8cf2971354a1d3d7,,,,,,,sngl,resources/DY.BMP,resources/Empty.png,Door1,-0.338888889,-0.004629644,1,0,0,0.9279,optionLeft,30,9980,5,6,0,6,0,1,,,,,,,,,,,,,,,,,,,,,,,,,,,,,,,,,,,,,,,
,,,,,,,,2023-08-16_08h48.03.790,HF_wild_card,2022.2.4,Win32,59.99880002,610dab2802ed9932045896da,64d2fd46c836a06233681665,64dc7ece8cf2971354a1d3d7,,,,,,,decisionTrl,resources/DB.BMP,resources/DY.BMP,WildCard_Ex,-0.358333333,-0.054629644,1,0,0,1.8775,optionLeft,95,10075,5,7,0,7,0,1,,,,,,,,,,,,,,,,,,,,,,,,,,,,,,,,,,,,,,,
,,,,,,,,2023-08-16_08h48.03.790,HF_wild_card,2022.2.4,Win32,59.99880002,610dab2802ed9932045896da,64d2fd46c836a06233681665,64dc7ece8cf2971354a1d3d7,,,,,,,decisionTrl,resources/DBN.BMP,resources/DY.BMP,Door2,-0.294444444,0.010185157,1,0,0,1.7636,optionLeft,40,10115,5,8,0,8,0,1,,,,,,,,,,,,,,,,,,,,,,,,,,,,,,,,,,,,,,,
,,,,,,,,2023-08-16_08h48.03.790,HF_wild_card,2022.2.4,Win32,59.99880002,610dab2802ed9932045896da,64d2fd46c836a06233681665,64dc7ece8cf2971354a1d3d7,,,,,,,sngl,resources/Empty.png,resources/DR.BMP,Door3,0.347222222,-0.000925954,1,0,0,0.8442,optionRight,70,10185,5,9,0,9,0,1,,,,,,,,,,,,,,,,,,,,,,,,,,,,,,,,,,,,,,,
,,,,,,,,2023-08-16_08h48.03.790,HF_wild_card,2022.2.4,Win32,59.99880002,610dab2802ed9932045896da,64d2fd46c836a06233681665,64dc7ece8cf2971354a1d3d7,,,,,,,decisionTrl,resources/DG.BMP,resources/DR.BMP,Door4,-0.299074046,0.037962935,1,0,0,1.0779,optionLeft,80,10265,5,10,0,10,0,1,,,,,,,,,,,,,,,,,,,,,,,,,,,,,,,,,,,,,,,
,,,,,,,,2023-08-16_08h48.03.790,HF_wild_card,2022.2.4,Win32,59.99880002,610dab2802ed9932045896da,64d2fd46c836a06233681665,64dc7ece8cf2971354a1d3d7,,,,,,,decisionTrl,resources/DR.BMP,resources/DB.BMP,Door3,-0.001851824,-0.000925954,1,0,0,0.2952,optionLeft,70,10335,5,11,0,11,0,1,,,,,,,,,,,,,,,,,,,,,,,,,,,,,,,,,,,,,,,
,,,,,,,,2023-08-16_08h48.03.790,HF_wild_card,2022.2.4,Win32,59.99880002,610dab2802ed9932045896da,64d2fd46c836a06233681665,64dc7ece8cf2971354a1d3d7,,,,,,,decisionTrl,resources/DG.BMP,resources/DR.BMP,Door4,-0.325925912,0.10370369,1,0,0,1.028,optionLeft,80,10415,5,12,0,12,0,1,,,,,,,,,,,,,,,,,,,,,,,,,,,,,,,,,,,,,,,
,,,,,,,,2023-08-16_08h48.03.790,HF_wild_card,2022.2.4,Win32,59.99880002,610dab2802ed9932045896da,64d2fd46c836a06233681665,64dc7ece8cf2971354a1d3d7,,,,,,,decisionTrl,resources/DR.BMP,resources/DG.BMP,Door4,0.313888889,-0.034259288,1,0,0,1.1945,optionRight,80,10495,5,13,0,13,0,1,,,,,,,,,,,,,,,,,,,,,,,,,,,,,,,,,,,,,,,
,,,,,,,,2023-08-16_08h48.03.790,HF_wild_card,2022.2.4,Win32,59.99880002,610dab2802ed9932045896da,64d2fd46c836a06233681665,64dc7ece8cf2971354a1d3d7,,,,,,,decisionTrl,resources/DY.BMP,resources/DB.BMP,WildCard_Ex,0.384259288,0.021296268,1,0,0,1.3692,optionRight,5,10500,5,14,0,14,0,1,,,,,,,,,,,,,,,,,,,,,,,,,,,,,,,,,,,,,,,
,,,,,,,,2023-08-16_08h48.03.790,HF_wild_card,2022.2.4,Win32,59.99880002,610dab2802ed9932045896da,64d2fd46c836a06233681665,64dc7ece8cf2971354a1d3d7,,,,,,,ctch,resources/DY.BMP,resources/DG.BMP,Door4,0.398148176,0.025925912,1,0,0,1.271,optionRight,80,10580,5,15,0,15,0,1,,,,,,,,,,,,,,,,,,,,,,,,,,,,,,,,,,,,,,,
,,,,,,,,2023-08-16_08h48.03.790,HF_wild_card,2022.2.4,Win32,59.99880002,610dab2802ed9932045896da,64d2fd46c836a06233681665,64dc7ece8cf2971354a1d3d7,,,,,,,sngl,resources/DB.BMP,resources/Empty.png,WildCard_Ex,-0.356481467,0.020370356,1,0,0,0.8781,optionLeft,95,10675,5,16,0,16,0,1,,,,,,,,,,,,,,,,,,,,,,,,,,,,,,,,,,,,,,,
,,,,,,,,2023-08-16_08h48.03.790,HF_wild_card,2022.2.4,Win32,59.99880002,610dab2802ed9932045896da,64d2fd46c836a06233681665,64dc7ece8cf2971354a1d3d7,,,,,,,ctch,resources/DG.BMP,resources/DY.BMP,Door4,-0.312037023,-0.049074088,1,0,0,1.5603,optionLeft,60,10735,5,17,0,17,0,1,,,,,,,,,,,,,,,,,,,,,,,,,,,,,,,,,,,,,,,
,,,,,,,,2023-08-16_08h48.03.790,HF_wild_card,2022.2.4,Win32,59.99880002,610dab2802ed9932045896da,64d2fd46c836a06233681665,64dc7ece8cf2971354a1d3d7,,,,,,,decisionTrl,resources/DBN.BMP,resources/DY.BMP,Door2,-0.367592578,0.136111111,1,0,0,1.5979,optionLeft,20,10755,5,18,0,18,0,1,,,,,,,,,,,,,,,,,,,,,,,,,,,,,,,,,,,,,,,
,,,,,,,,2023-08-16_08h48.03.790,HF_wild_card,2022.2.4,Win32,59.99880002,610dab2802ed9932045896da,64d2fd46c836a06233681665,64dc7ece8cf2971354a1d3d7,,,,,,,decisionTrl,resources/DR.BMP,resources/DG.BMP,Door4,0.4,-0.014814843,1,0,0,1.3787,optionRight,60,10815,5,19,0,19,0,1,,,,,,,,,,,,,,,,,,,,,,,,,,,,,,,,,,,,,,,
,,,,,,,,2023-08-16_08h48.03.790,HF_wild_card,2022.2.4,Win32,59.99880002,610dab2802ed9932045896da,64d2fd46c836a06233681665,64dc7ece8cf2971354a1d3d7,,,,,,,sngl,resources/Empty.png,resources/DG.BMP,Door4,0.295370399,-0.066666667,1,0,0,0.8138,optionRight,60,10875,5,20,0,20,0,1,,,,,,,,,,,,,,,,,,,,,,,,,,,,,,,,,,,,,,,
,,,,,,,,2023-08-16_08h48.03.790,HF_wild_card,2022.2.4,Win32,59.99880002,610dab2802ed9932045896da,64d2fd46c836a06233681665,64dc7ece8cf2971354a1d3d7,,,,,,,sngl,resources/DBN.BMP,resources/Empty.png,Door2,-0.437962935,0.090740712,1,0,0,0.8136,optionLeft,40,10915,5,21,0,21,0,1,,,,,,,,,,,,,,,,,,,,,,,,,,,,,,,,,,,,,,,
,,,,,,,,2023-08-16_08h48.03.790,HF_wild_card,2022.2.4,Win32,59.99880002,610dab2802ed9932045896da,64d2fd46c836a06233681665,64dc7ece8cf2971354a1d3d7,,,,,,,sngl,resources/DG.BMP,resources/Empty.png,Door4,-0.435185157,0.112037023,1,0,0,0.8618,optionLeft,80,10995,5,22,0,22,0,1,,,,,,,,,,,,,,,,,,,,,,,,,,,,,,,,,,,,,,,
,,,,,,,,2023-08-16_08h48.03.790,HF_wild_card,2022.2.4,Win32,59.99880002,610dab2802ed9932045896da,64d2fd46c836a06233681665,64dc7ece8cf2971354a1d3d7,,,,,,,decisionTrl,resources/DBN.BMP,resources/DY.BMP,Door1,0.400925954,0.008333333,1,0,0,2.4795,optionRight,30,11025,5,23,0,23,0,1,,,,,,,,,,,,,,,,,,,,,,,,,,,,,,,,,,,,,,,
,,,,,,,,2023-08-16_08h48.03.790,HF_wild_card,2022.2.4,Win32,59.99880002,610dab2802ed9932045896da,64d2fd46c836a06233681665,64dc7ece8cf2971354a1d3d7,,,,,,,decisionTrl,resources/DG.BMP,resources/DR.BMP,Door4,-0.304629601,0.038888889,1,0,0,1.0453,optionLeft,80,11105,5,24,0,24,0,1,,,,,,,,,,,,,,,,,,,,,,,,,,,,,,,,,,,,,,,
,,,,,,,,2023-08-16_08h48.03.790,HF_wild_card,2022.2.4,Win32,59.99880002,610dab2802ed9932045896da,64d2fd46c836a06233681665,64dc7ece8cf2971354a1d3d7,,,,,,,ctch,resources/DR.BMP,resources/DBN.BMP,Door3,-0.313888889,0.032407379,1,0,0,1.8934,optionLeft,70,11175,5,25,0,25,0,1,,,,,,,,,,,,,,,,,,,,,,,,,,,,,,,,,,,,,,,
,,,,,,,,2023-08-16_08h48.03.790,HF_wild_card,2022.2.4,Win32,59.99880002,610dab2802ed9932045896da,64d2fd46c836a06233681665,64dc7ece8cf2971354a1d3d7,,,,,,,decisionTrl,resources/DB.BMP,resources/DBN.BMP,WildCard_Ex,-0.380555556,0.054629601,1,0,0,1.3784,optionLeft,95,11270,5,26,0,26,0,1,,,,,,,,,,,,,,,,,,,,,,,,,,,,,,,,,,,,,,,
,,,,,,,,2023-08-16_08h48.03.790,HF_wild_card,2022.2.4,Win32,59.99880002,610dab2802ed9932045896da,64d2fd46c836a06233681665,64dc7ece8cf2971354a1d3d7,,,,,,,ctch,resources/DG.BMP,resources/DY.BMP,Door4,-0.351851824,0.04351849,1,0,0,1.9455,optionLeft,80,11350,5,27,0,27,0,1,,,,,,,,,,,,,,,,,,,,,,,,,,,,,,,,,,,,,,,
,,,,,,,,2023-08-16_08h48.03.790,HF_wild_card,2022.2.4,Win32,59.99880002,610dab2802ed9932045896da,64d2fd46c836a06233681665,64dc7ece8cf2971354a1d3d7,,,,,,,sngl,resources/Empty.png,resources/DBN.BMP,Door2,0.437963019,0.017592578,1,0,0,1.9136,optionRight,20,11370,5,28,0,28,0,1,,,,,,,,,,,,,,,,,,,,,,,,,,,,,,,,,,,,,,,
,,,,,,,,2023-08-16_08h48.03.790,HF_wild_card,2022.2.4,Win32,59.99880002,610dab2802ed9932045896da,64d2fd46c836a06233681665,64dc7ece8cf2971354a1d3d7,,,,,,,decisionTrl,resources/DR.BMP,resources/DG.BMP,Door4,0.333333333,0.029629601,1,0,0,0.9625,optionRight,60,11430,5,29,0,29,0,1,,,,,,,,,,,,,,,,,,,,,,,,,,,,,,,,,,,,,,,
,,,,,,,,2023-08-16_08h48.03.790,HF_wild_card,2022.2.4,Win32,59.99880002,610dab2802ed9932045896da,64d2fd46c836a06233681665,64dc7ece8cf2971354a1d3d7,,,,,,,decisionTrl,resources/DG.BMP,resources/DR.BMP,Door4,-0.256481467,0.011111111,1,0,0,1.0962,optionLeft,80,11510,5,30,0,30,0,1,,,,,,,,,,,,,,,,,,,,,,,,,,,,,,,,,,,,,,,
,,,,,,,,2023-08-16_08h48.03.790,HF_wild_card,2022.2.4,Win32,59.99880002,610dab2802ed9932045896da,64d2fd46c836a06233681665,64dc7ece8cf2971354a1d3d7,,,,,,,ctch,resources/DY.BMP,resources/DG.BMP,Door4,0.362037065,-0.041666667,1,0,0,0.9368,optionRight,60,11570,5,31,0,31,0,1,,,,,,,,,,,,,,,,,,,,,,,,,,,,,,,,,,,,,,,
,,,,,,,,2023-08-16_08h48.03.790,HF_wild_card,2022.2.4,Win32,59.99880002,610dab2802ed9932045896da,64d2fd46c836a06233681665,64dc7ece8cf2971354a1d3d7,,,,,,,decisionTrl,resources/DBN.BMP,resources/DY.BMP,Door1,0.512037065,0.011111111,1,0,0,1.9429,optionRight,30,11600,5,32,0,32,0,1,,,,,,,,,,,,,,,,,,,,,,,,,,,,,,,,,,,,,,,
,,,,,,,,2023-08-16_08h48.03.790,HF_wild_card,2022.2.4,Win32,59.99880002,610dab2802ed9932045896da,64d2fd46c836a06233681665,64dc7ece8cf2971354a1d3d7,,,,,,,ctch,resources/DBN.BMP,resources/DR.BMP,Door3,0.366666667,0.047222222,1,0,0,1.6783,optionRight,70,11670,5,33,0,33,0,1,,,,,,,,,,,,,,,,,,,,,,,,,,,,,,,,,,,,,,,
,,,,,,,,2023-08-16_08h48.03.790,HF_wild_card,2022.2.4,Win32,59.99880002,610dab2802ed9932045896da,64d2fd46c836a06233681665,64dc7ece8cf2971354a1d3d7,,,,,,,ctch,resources/DBN.BMP,resources/DR.BMP,Door3,0.400925954,-0.019444444,1,0,0,0.7969,optionRight,70,11740,5,34,0,34,0,1,,,,,,,,,,,,,,,,,,,,,,,,,,,,,,,,,,,,,,,
,,,,,,,,2023-08-16_08h48.03.790,HF_wild_card,2022.2.4,Win32,59.99880002,610dab2802ed9932045896da,64d2fd46c836a06233681665,64dc7ece8cf2971354a1d3d7,,,,,,,decisionTrl,resources/DY.BMP,resources/DBN.BMP,Door1,-0.372222222,-0.03148151,1,0,0,1.4769,optionLeft,30,11770,5,35,0,35,0,1,,,,,,,,,,,,,,,,,,,,,,,,,,,,,,,,,,,,,,,
,,,,,,,,2023-08-16_08h48.03.790,HF_wild_card,2022.2.4,Win32,59.99880002,610dab2802ed9932045896da,64d2fd46c836a06233681665,64dc7ece8cf2971354a1d3d7,,,,,,,sngl,resources/Empty.png,resources/DB.BMP,WildCard_Ex,0.397222222,-0.040740755,1,0,0,0.8103,optionRight,95,11865,5,36,0,36,0,1,,,,,,,,,,,,,,,,,,,,,,,,,,,,,,,,,,,,,,,
,,,,,,,,2023-08-16_08h48.03.790,HF_wild_card,2022.2.4,Win32,59.99880002,610dab2802ed9932045896da,64d2fd46c836a06233681665,64dc7ece8cf2971354a1d3d7,,,,,,,decisionTrl,resources/DR.BMP,resources/DG.BMP,Door4,0.253703732,-0.012037065,1,0,0,1.2109,optionRight,80,11945,5,37,0,37,0,1,,,,,,,,,,,,,,,,,,,,,,,,,,,,,,,,,,,,,,,
,,,,,,,,2023-08-16_08h48.03.790,HF_wild_card,2022.2.4,Win32,59.99880002,610dab2802ed9932045896da,64d2fd46c836a06233681665,64dc7ece8cf2971354a1d3d7,,,,,,,sngl,resources/DB.BMP,resources/Empty.png,WildCard_Ex,-0.337962935,0.008333333,1,0,0,0.795,optionLeft,5,11950,5,38,0,38,0,1,,,,,,,,,,,,,,,,,,,,,,,,,,,,,,,,,,,,,,,
,,,,,,,,2023-08-16_08h48.03.790,HF_wild_card,2022.2.4,Win32,59.99880002,610dab2802ed9932045896da,64d2fd46c836a06233681665,64dc7ece8cf2971354a1d3d7,,,,,,,decisionTrl,resources/DB.BMP,resources/DR.BMP,Door3,0.374074131,-0.030555556,1,0,0,1.6437,optionRight,70,12020,5,39,0,39,0,1,,,,,,,,,,,,,,,,,,,,,,,,,,,,,,,,,,,,,,,
,,,,,,,,2023-08-16_08h48.03.790,HF_wild_card,2022.2.4,Win32,59.99880002,610dab2802ed9932045896da,64d2fd46c836a06233681665,64dc7ece8cf2971354a1d3d7,,,,,,,decisionTrl,resources/DB.BMP,resources/DG.BMP,Door4,0.295370399,0.075925912,1,0,0,1.0818,optionRight,80,12100,5,40,0,40,0,1,,,,,,,,,,,,,,,,,,,,,,,,,,,,,,,,,,,,,,,
,,,,,,,,2023-08-16_08h48.03.790,HF_wild_card,2022.2.4,Win32,59.99880002,610dab2802ed9932045896da,64d2fd46c836a06233681665,64dc7ece8cf2971354a1d3d7,,,,,,,sngl,resources/Empty.png,resources/DY.BMP,Door1,0.328703732,0.005555556,1,0,0,0.8616,optionRight,30,12130,5,41,0,41,0,1,,,,,,,,,,,,,,,,,,,,,,,,,,,,,,,,,,,,,,,
,,,,,,,,2023-08-16_08h48.03.790,HF_wild_card,2022.2.4,Win32,59.99880002,610dab2802ed9932045896da,64d2fd46c836a06233681665,64dc7ece8cf2971354a1d3d7,,,,,,,sngl,resources/Empty.png,resources/DB.BMP,WildCard_Ex,0.221296353,-0.037962977,1,0,0,0.8263,optionRight,5,12135,5,42,0,42,0,1,,,,,,,,,,,,,,,,,,,,,,,,,,,,,,,,,,,,,,,
,,,,,,,,2023-08-16_08h48.03.790,HF_wild_card,2022.2.4,Win32,59.99880002,610dab2802ed9932045896da,64d2fd46c836a06233681665,64dc7ece8cf2971354a1d3d7,,,,,,,ctch,resources/DR.BMP,resources/DBN.BMP,Door3,-0.335185157,0.075,1,0,0,1.2106,optionLeft,70,12205,5,43,0,43,0,1,,,,,,,,,,,,,,,,,,,,,,,,,,,,,,,,,,,,,,,
,,,,,,,,2023-08-16_08h48.03.790,HF_wild_card,2022.2.4,Win32,59.99880002,610dab2802ed9932045896da,64d2fd46c836a06233681665,64dc7ece8cf2971354a1d3d7,,,,,,,,,,,,,,,,,,,,,,,,,,4,0,4,0,1,,,,,,,,,,,,,,,,,,,,,,,,,,,,,,,,,,
,,,,,,,,2023-08-16_08h48.03.790,HF_wild_card,2022.2.4,Win32,59.99880002,610dab2802ed9932045896da,64d2fd46c836a06233681665,64dc7ece8cf2971354a1d3d7,,,,,,,decisionTrl,resources/DBN.BMP,resources/DY.BMP,Door2,-0.367592578,-0.112962977,1,0,0,1.5231,optionLeft,20,12225,6,0,0,0,0,1,,,,,,,,,,,,,,,,,,,,,,,,,,,,,,,,,,,,,,,
,,,,,,,,2023-08-16_08h48.03.790,HF_wild_card,2022.2.4,Win32,59.99880002,610dab2802ed9932045896da,64d2fd46c836a06233681665,64dc7ece8cf2971354a1d3d7,,,,,,,sngl,resources/DG.BMP,resources/Empty.png,Door4,-0.346296268,-0.016666667,1,0,0,0.8917,optionLeft,60,12285,6,1,0,1,0,1,,,,,,,,,,,,,,,,,,,,,,,,,,,,,,,,,,,,,,,
,,,,,,,,2023-08-16_08h48.03.790,HF_wild_card,2022.2.4,Win32,59.99880002,610dab2802ed9932045896da,64d2fd46c836a06233681665,64dc7ece8cf2971354a1d3d7,,,,,,,decisionTrl,resources/DY.BMP,resources/DBN.BMP,Door2,0.347222222,0.010185157,1,0,0,1.561,optionRight,20,12305,6,2,0,2,0,1,,,,,,,,,,,,,,,,,,,,,,,,,,,,,,,,,,,,,,,
,,,,,,,,2023-08-16_08h48.03.790,HF_wild_card,2022.2.4,Win32,59.99880002,610dab2802ed9932045896da,64d2fd46c836a06233681665,64dc7ece8cf2971354a1d3d7,,,,,,,decisionTrl,resources/DBN.BMP,resources/DY.BMP,Door1,0.337963019,-0.09629631,1,0,0,2.0121,optionRight,30,12335,6,3,0,3,0,1,,,,,,,,,,,,,,,,,,,,,,,,,,,,,,,,,,,,,,,
,,,,,,,,2023-08-16_08h48.03.790,HF_wild_card,2022.2.4,Win32,59.99880002,610dab2802ed9932045896da,64d2fd46c836a06233681665,64dc7ece8cf2971354a1d3d7,,,,,,,decisionTrl,resources/DG.BMP,resources/DR.BMP,Door4,-0.320370356,-0.011111111,1,0,0,1.0607,optionLeft,60,12395,6,4,0,4,0,1,,,,,,,,,,,,,,,,,,,,,,,,,,,,,,,,,,,,,,,
,,,,,,,,2023-08-16_08h48.03.790,HF_wild_card,2022.2.4,Win32,59.99880002,610dab2802ed9932045896da,64d2fd46c836a06233681665,64dc7ece8cf2971354a1d3d7,,,,,,,sngl,resources/DB.BMP,resources/Empty.png,WildCard_Ex,-0.346296268,-0.045370399,1,0,0,0.8273,optionLeft,5,12400,6,5,0,5,0,1,,,,,,,,,,,,,,,,,,,,,,,,,,,,,,,,,,,,,,,
,,,,,,,,2023-08-16_08h48.03.790,HF_wild_card,2022.2.4,Win32,59.99880002,610dab2802ed9932045896da,64d2fd46c836a06233681665,64dc7ece8cf2971354a1d3d7,,,,,,,sngl,resources/DBN.BMP,resources/Empty.png,Door2,-0.409259245,0.044444444,1,0,0,0.7855,optionLeft,20,12420,6,6,0,6,0,1,,,,,,,,,,,,,,,,,,,,,,,,,,,,,,,,,,,,,,,
,,,,,,,,2023-08-16_08h48.03.790,HF_wild_card,2022.2.4,Win32,59.99880002,610dab2802ed9932045896da,64d2fd46c836a06233681665,64dc7ece8cf2971354a1d3d7,,,,,,,ctch,resources/DBN.BMP,resources/DR.BMP,Door3,0.350925954,-0.002777778,1,0,0,1.3464,optionRight,70,12490,6,7,0,7,0,1,,,,,,,,,,,,,,,,,,,,,,,,,,,,,,,,,,,,,,,
,,,,,,,,2023-08-16_08h48.03.790,HF_wild_card,2022.2.4,Win32,59.99880002,610dab2802ed9932045896da,64d2fd46c836a06233681665,64dc7ece8cf2971354a1d3d7,,,,,,,sngl,resources/Empty.png,resources/DR.BMP,Door3,0.301851908,-0.015740755,1,0,0,0.8281,optionRight,70,12560,6,8,0,8,0,1,,,,,,,,,,,,,,,,,,,,,,,,,,,,,,,,,,,,,,,
,,,,,,,,2023-08-16_08h48.03.790,HF_wild_card,2022.2.4,Win32,59.99880002,610dab2802ed9932045896da,64d2fd46c836a06233681665,64dc7ece8cf2971354a1d3d7,,,,,,,decisionTrl,resources/DY.BMP,resources/DBN.BMP,Door1,-0.419444444,0.015740712,1,0,0,1.7607,optionLeft,30,12590,6,9,0,9,0,1,,,,,,,,,,,,,,,,,,,,,,,,,,,,,,,,,,,,,,,
,,,,,,,,2023-08-16_08h48.03.790,HF_wild_card,2022.2.4,Win32,59.99880002,610dab2802ed9932045896da,64d2fd46c836a06233681665,64dc7ece8cf2971354a1d3d7,,,,,,,ctch,resources/DR.BMP,resources/DBN.BMP,Door3,-0.362037023,0.031481467,1,0,0,1.0646,optionLeft,70,12660,6,10,0,10,0,1,,,,,,,,,,,,,,,,,,,,,,,,,,,,,,,,,,,,,,,
,,,,,,,,2023-08-16_08h48.03.790,HF_wild_card,2022.2.4,Win32,59.99880002,610dab2802ed9932045896da,64d2fd46c836a06233681665,64dc7ece8cf2971354a1d3d7,,,,,,,sngl,resources/Empty.png,resources/DB.BMP,WildCard_Ex,0.287963019,-0.059259288,1,0,0,0.8811,optionRight,95,12755,6,11,0,11,0,1,,,,,,,,,,,,,,,,,,,,,,,,,,,,,,,,,,,,,,,
,,,,,,,,2023-08-16_08h48.03.790,HF_wild_card,2022.2.4,Win32,59.99880002,610dab2802ed9932045896da,64d2fd46c836a06233681665,64dc7ece8cf2971354a1d3d7,,,,,,,decisionTrl,resources/DG.BMP,resources/DR.BMP,Door4,-0.313888889,-0.041666667,1,0,0,1.0134,optionLeft,80,12835,6,12,0,12,0,1,,,,,,,,,,,,,,,,,,,,,,,,,,,,,,,,,,,,,,,
,,,,,,,,2023-08-16_08h48.03.790,HF_wild_card,2022.2.4,Win32,59.99880002,610dab2802ed9932045896da,64d2fd46c836a06233681665,64dc7ece8cf2971354a1d3d7,,,,,,,ctch,resources/DY.BMP,resources/DG.BMP,Door4,0.271296353,-0.04629631,1,0,0,0.879,optionRight,60,12895,6,13,0,13,0,1,,,,,,,,,,,,,,,,,,,,,,,,,,,,,,,,,,,,,,,
,,,,,,,,2023-08-16_08h48.03.790,HF_wild_card,2022.2.4,Win32,59.99880002,610dab2802ed9932045896da,64d2fd46c836a06233681665,64dc7ece8cf2971354a1d3d7,,,,,,,sngl,resources/Empty.png,resources/DBN.BMP,Door2,0.274074131,-0.032407422,1,0,0,0.7798,optionRight,40,12935,6,14,0,14,0,1,,,,,,,,,,,,,,,,,,,,,,,,,,,,,,,,,,,,,,,
,,,,,,,,2023-08-16_08h48.03.790,HF_wild_card,2022.2.4,Win32,59.99880002,610dab2802ed9932045896da,64d2fd46c836a06233681665,64dc7ece8cf2971354a1d3d7,,,,,,,ctch,resources/DBN.BMP,resources/DR.BMP,Door3,0.423148176,-0.065740755,1,0,0,1.2625,optionRight,70,13005,6,15,0,15,0,1,,,,,,,,,,,,,,,,,,,,,,,,,,,,,,,,,,,,,,,
,,,,,,,,2023-08-16_08h48.03.790,HF_wild_card,2022.2.4,Win32,59.99880002,610dab2802ed9932045896da,64d2fd46c836a06233681665,64dc7ece8cf2971354a1d3d7,,,,,,,decisionTrl,resources/DBN.BMP,resources/DY.BMP,Door2,-0.458333333,0.037962935,1,0,0,2.1804,optionLeft,20,13025,6,16,0,16,0,1,,,,,,,,,,,,,,,,,,,,,,,,,,,,,,,,,,,,,,,
,,,,,,,,2023-08-16_08h48.03.790,HF_wild_card,2022.2.4,Win32,59.99880002,610dab2802ed9932045896da,64d2fd46c836a06233681665,64dc7ece8cf2971354a1d3d7,,,,,,,decisionTrl,resources/DG.BMP,resources/DR.BMP,Door4,-0.380555556,-0.059259288,1,0,0,1.2469,optionLeft,60,13085,6,17,0,17,0,1,,,,,,,,,,,,,,,,,,,,,,,,,,,,,,,,,,,,,,,
,,,,,,,,2023-08-16_08h48.03.790,HF_wild_card,2022.2.4,Win32,59.99880002,610dab2802ed9932045896da,64d2fd46c836a06233681665,64dc7ece8cf2971354a1d3d7,,,,,,,decisionTrl,resources/DY.BMP,resources/DB.BMP,WildCard_Ex,0.450925954,0.007407379,1,0,0,1.2482,optionRight,95,13180,6,18,0,18,0,1,,,,,,,,,,,,,,,,,,,,,,,,,,,,,,,,,,,,,,,
,,,,,,,,2023-08-16_08h48.03.790,HF_wild_card,2022.2.4,Win32,59.99880002,610dab2802ed9932045896da,64d2fd46c836a06233681665,64dc7ece8cf2971354a1d3d7,,,,,,,decisionTrl,resources/DB.BMP,resources/DG.BMP,Door4,0.335185242,-0.037037065,1,0,0,1.0791,optionRight,80,13260,6,19,0,19,0,1,,,,,,,,,,,,,,,,,,,,,,,,,,,,,,,,,,,,,,,
,,,,,,,,2023-08-16_08h48.03.790,HF_wild_card,2022.2.4,Win32,59.99880002,610dab2802ed9932045896da,64d2fd46c836a06233681665,64dc7ece8cf2971354a1d3d7,,,,,,,sngl,resources/Empty.png,resources/DB.BMP,WildCard_Ex,0.440740797,-0.07129631,1,0,0,0.7799,optionRight,5,13265,6,20,0,20,0,1,,,,,,,,,,,,,,,,,,,,,,,,,,,,,,,,,,,,,,,
,,,,,,,,2023-08-16_08h48.03.790,HF_wild_card,2022.2.4,Win32,59.99880002,610dab2802ed9932045896da,64d2fd46c836a06233681665,64dc7ece8cf2971354a1d3d7,,,,,,,decisionTrl,resources/DR.BMP,resources/DG.BMP,Door4,0.429629686,0.052777778,1,0,0,1.0456,optionRight,60,13325,6,21,0,21,0,1,,,,,,,,,,,,,,,,,,,,,,,,,,,,,,,,,,,,,,,
,,,,,,,,2023-08-16_08h48.03.790,HF_wild_card,2022.2.4,Win32,59.99880002,610dab2802ed9932045896da,64d2fd46c836a06233681665,64dc7ece8cf2971354a1d3d7,,,,,,,decisionTrl,resources/DB.BMP,resources/DBN.BMP,WildCard_Ex,-0.322222222,0.009259245,1,0,0,1.2486,optionLeft,95,13420,6,22,0,22,0,1,,,,,,,,,,,,,,,,,,,,,,,,,,,,,,,,,,,,,,,
,,,,,,,,2023-08-16_08h48.03.790,HF_wild_card,2022.2.4,Win32,59.99880002,610dab2802ed9932045896da,64d2fd46c836a06233681665,64dc7ece8cf2971354a1d3d7,,,,,,,sngl,resources/DY.BMP,resources/Empty.png,Door1,-0.322222222,0.010185157,1,0,0,0.7959,optionLeft,30,13450,6,23,0,23,0,1,,,,,,,,,,,,,,,,,,,,,,,,,,,,,,,,,,,,,,,
,,,,,,,,2023-08-16_08h48.03.790,HF_wild_card,2022.2.4,Win32,59.99880002,610dab2802ed9932045896da,64d2fd46c836a06233681665,64dc7ece8cf2971354a1d3d7,,,,,,,decisionTrl,resources/DR.BMP,resources/DG.BMP,Door4,0.325,0.061111111,1,0,0,1.2619,optionRight,80,13530,6,24,0,24,0,1,,,,,,,,,,,,,,,,,,,,,,,,,,,,,,,,,,,,,,,
,,,,,,,,2023-08-16_08h48.03.790,HF_wild_card,2022.2.4,Win32,59.99880002,610dab2802ed9932045896da,64d2fd46c836a06233681665,64dc7ece8cf2971354a1d3d7,,,,,,,decisionTrl,resources/DBN.BMP,resources/DY.BMP,Door1,0.35,-0.086111111,1,0,0,1.3632,optionRight,30,13560,6,25,0,25,0,1,,,,,,,,,,,,,,,,,,,,,,,,,,,,,,,,,,,,,,,
,,,,,,,,2023-08-16_08h48.03.790,HF_wild_card,2022.2.4,Win32,59.99880002,610dab2802ed9932045896da,64d2fd46c836a06233681665,64dc7ece8cf2971354a1d3d7,,,,,,,decisionTrl,resources/DY.BMP,resources/DBN.BMP,Door1,-0.330555556,0.035185157,1,0,0,2.1885,optionLeft,30,13590,6,26,0,26,0,1,,,,,,,,,,,,,,,,,,,,,,,,,,,,,,,,,,,,,,,
,,,,,,,,2023-08-16_08h48.03.790,HF_wild_card,2022.2.4,Win32,59.99880002,610dab2802ed9932045896da,64d2fd46c836a06233681665,64dc7ece8cf2971354a1d3d7,,,,,,,decisionTrl,resources/DB.BMP,resources/DY.BMP,WildCard_Ex,-0.382407379,0.089814801,1,0,0,0.9593,optionLeft,5,13595,6,27,0,27,0,1,,,,,,,,,,,,,,,,,,,,,,,,,,,,,,,,,,,,,,,
,,,,,,,,2023-08-16_08h48.03.790,HF_wild_card,2022.2.4,Win32,59.99880002,610dab2802ed9932045896da,64d2fd46c836a06233681665,64dc7ece8cf2971354a1d3d7,,,,,,,decisionTrl,resources/DG.BMP,resources/DR.BMP,Door4,-0.299074046,0.022222222,1,0,0,1.078,optionLeft,80,13675,6,28,0,28,0,1,,,,,,,,,,,,,,,,,,,,,,,,,,,,,,,,,,,,,,,
,,,,,,,,2023-08-16_08h48.03.790,HF_wild_card,2022.2.4,Win32,59.99880002,610dab2802ed9932045896da,64d2fd46c836a06233681665,64dc7ece8cf2971354a1d3d7,,,,,,,decisionTrl,resources/DG.BMP,resources/DB.BMP,Door4,-0.315740712,0.032407379,1,0,0,1.209,optionLeft,60,13735,6,29,0,29,0,1,,,,,,,,,,,,,,,,,,,,,,,,,,,,,,,,,,,,,,,
,,,,,,,,2023-08-16_08h48.03.790,HF_wild_card,2022.2.4,Win32,59.99880002,610dab2802ed9932045896da,64d2fd46c836a06233681665,64dc7ece8cf2971354a1d3d7,,,,,,,sngl,resources/Empty.png,resources/DY.BMP,Door1,0.294444444,-0.012962977,1,0,0,0.8948,optionRight,30,13765,6,30,0,30,0,1,,,,,,,,,,,,,,,,,,,,,,,,,,,,,,,,,,,,,,,
,,,,,,,,2023-08-16_08h48.03.790,HF_wild_card,2022.2.4,Win32,59.99880002,610dab2802ed9932045896da,64d2fd46c836a06233681665,64dc7ece8cf2971354a1d3d7,,,,,,,decisionTrl,resources/DB.BMP,resources/DR.BMP,Door3,0.309259288,-0.019444444,1,0,0,1.3607,optionRight,70,13835,6,31,0,31,0,1,,,,,,,,,,,,,,,,,,,,,,,,,,,,,,,,,,,,,,,
,,,,,,,,2023-08-16_08h48.03.790,HF_wild_card,2022.2.4,Win32,59.99880002,610dab2802ed9932045896da,64d2fd46c836a06233681665,64dc7ece8cf2971354a1d3d7,,,,,,,ctch,resources/DG.BMP,resources/DY.BMP,Door4,-0.225,0.004629601,1,0,0,1.1255,optionLeft,80,13915,6,32,0,32,0,1,,,,,,,,,,,,,,,,,,,,,,,,,,,,,,,,,,,,,,,
,,,,,,,,2023-08-16_08h48.03.790,HF_wild_card,2022.2.4,Win32,59.99880002,610dab2802ed9932045896da,64d2fd46c836a06233681665,64dc7ece8cf2971354a1d3d7,,,,,,,decisionTrl,resources/DY.BMP,resources/DBN.BMP,Door1,-0.366666667,0.079629601,1,0,0,2.5273,optionLeft,30,13945,6,33,0,33,0,1,,,,,,,,,,,,,,,,,,,,,,,,,,,,,,,,,,,,,,,
,,,,,,,,2023-08-16_08h48.03.790,HF_wild_card,2022.2.4,Win32,59.99880002,610dab2802ed9932045896da,64d2fd46c836a06233681665,64dc7ece8cf2971354a1d3d7,,,,,,,sngl,resources/Empty.png,resources/DG.BMP,Door4,0.335185242,-0.037037065,1,0,0,0.8272,optionRight,80,14025,6,34,0,34,0,1,,,,,,,,,,,,,,,,,,,,,,,,,,,,,,,,,,,,,,,
,,,,,,,,2023-08-16_08h48.03.790,HF_wild_card,2022.2.4,Win32,59.99880002,610dab2802ed9932045896da,64d2fd46c836a06233681665,64dc7ece8cf2971354a1d3d7,,,,,,,ctch,resources/DR.BMP,resources/DBN.BMP,Door3,-0.308333333,0.039814801,1,0,0,1.0275,optionLeft,70,14095,6,35,0,35,0,1,,,,,,,,,,,,,,,,,,,,,,,,,,,,,,,,,,,,,,,
,,,,,,,,2023-08-16_08h48.03.790,HF_wild_card,2022.2.4,Win32,59.99880002,610dab2802ed9932045896da,64d2fd46c836a06233681665,64dc7ece8cf2971354a1d3d7,,,,,,,decisionTrl,resources/DR.BMP,resources/DB.BMP,Door3,-0.347222222,0.035185157,1,0,0,1.4609,optionLeft,70,14165,6,36,0,36,0,1,,,,,,,,,,,,,,,,,,,,,,,,,,,,,,,,,,,,,,,
,,,,,,,,2023-08-16_08h48.03.790,HF_wild_card,2022.2.4,Win32,59.99880002,610dab2802ed9932045896da,64d2fd46c836a06233681665,64dc7ece8cf2971354a1d3d7,,,,,,,decisionTrl,resources/DBN.BMP,resources/DB.BMP,WildCard_Ex,0.325,-0.054629644,1,0,0,1.1769,optionRight,5,14170,6,37,0,37,0,1,,,,,,,,,,,,,,,,,,,,,,,,,,,,,,,,,,,,,,,
,,,,,,,,2023-08-16_08h48.03.790,HF_wild_card,2022.2.4,Win32,59.99880002,610dab2802ed9932045896da,64d2fd46c836a06233681665,64dc7ece8cf2971354a1d3d7,,,,,,,sngl,resources/DB.BMP,resources/Empty.png,WildCard_Ex,-0.377777778,-0.013888889,1,0,0,0.7616,optionLeft,95,14265,6,38,0,38,0,1,,,,,,,,,,,,,,,,,,,,,,,,,,,,,,,,,,,,,,,
,,,,,,,,2023-08-16_08h48.03.790,HF_wild_card,2022.2.4,Win32,59.99880002,610dab2802ed9932045896da,64d2fd46c836a06233681665,64dc7ece8cf2971354a1d3d7,,,,,,,ctch,resources/DY.BMP,resources/DG.BMP,Door4,0.433333333,-0.030555556,1,0,0,0.9929,optionRight,60,14325,6,39,0,39,0,1,,,,,,,,,,,,,,,,,,,,,,,,,,,,,,,,,,,,,,,
,,,,,,,,2023-08-16_08h48.03.790,HF_wild_card,2022.2.4,Win32,59.99880002,610dab2802ed9932045896da,64d2fd46c836a06233681665,64dc7ece8cf2971354a1d3d7,,,,,,,ctch,resources/DG.BMP,resources/DY.BMP,Door4,-0.35370369,0.027777778,1,0,0,0.8945,optionLeft,60,14385,6,40,0,40,0,1,,,,,,,,,,,,,,,,,,,,,,,,,,,,,,,,,,,,,,,
,,,,,,,,2023-08-16_08h48.03.790,HF_wild_card,2022.2.4,Win32,59.99880002,610dab2802ed9932045896da,64d2fd46c836a06233681665,64dc7ece8cf2971354a1d3d7,,,,,,,decisionTrl,resources/DR.BMP,resources/DG.BMP,Door4,0.480555556,0.017592578,1,0,0,0.9278,optionRight,60,14445,6,41,0,41,0,1,,,,,,,,,,,,,,,,,,,,,,,,,,,,,,,,,,,,,,,
,,,,,,,,2023-08-16_08h48.03.790,HF_wild_card,2022.2.4,Win32,59.99880002,610dab2802ed9932045896da,64d2fd46c836a06233681665,64dc7ece8cf2971354a1d3d7,,,,,,,decisionTrl,resources/DR.BMP,resources/DG.BMP,Door4,0.371296353,0.009259245,1,0,0,1.2092,optionRight,80,14525,6,42,0,42,0,1,,,,,,,,,,,,,,,,,,,,,,,,,,,,,,,,,,,,,,,
,,,,,,,,2023-08-16_08h48.03.790,HF_wild_card,2022.2.4,Win32,59.99880002,610dab2802ed9932045896da,64d2fd46c836a06233681665,64dc7ece8cf2971354a1d3d7,,,,,,,sngl,resources/DR.BMP,resources/Empty.png,Door3,-0.494444444,0.019444444,1,0,0,0.7265,optionLeft,70,14595,6,43,0,43,0,1,,,,,,,,,,,,,,,,,,,,,,,,,,,,,,,,,,,,,,,
,,,,,,,,2023-08-16_08h48.03.790,HF_wild_card,2022.2.4,Win32,59.99880002,610dab2802ed9932045896da,64d2fd46c836a06233681665,64dc7ece8cf2971354a1d3d7,,,,,,,,,,,,,,,,,,,,,,,,,,5,0,5,0,1,,,,,,,,,,,,,,,,,,,,,,,,,,,,,,,,,,
,,,,,,,,2023-08-16_08h48.03.790,HF_wild_card,2022.2.4,Win32,59.99880002,610dab2802ed9932045896da,64d2fd46c836a06233681665,64dc7ece8cf2971354a1d3d7,,,,,,,decisionTrl,resources/DR.BMP,resources/DG.BMP,Door4,0.325,-0.039814843,1,0,0,1.6046,optionRight,60,14655,7,0,0,0,0,1,,,,,,,,,,,,,,,,,,,,,,,,,,,,,,,,,,,,,,,
,,,,,,,,2023-08-16_08h48.03.790,HF_wild_card,2022.2.4,Win32,59.99880002,610dab2802ed9932045896da,64d2fd46c836a06233681665,64dc7ece8cf2971354a1d3d7,,,,,,,ctch,resources/DR.BMP,resources/DBN.BMP,Door3,-0.404629601,-0.020370399,1,0,0,1.0377,optionLeft,70,14725,7,1,0,1,0,1,,,,,,,,,,,,,,,,,,,,,,,,,,,,,,,,,,,,,,,
,,,,,,,,2023-08-16_08h48.03.790,HF_wild_card,2022.2.4,Win32,59.99880002,610dab2802ed9932045896da,64d2fd46c836a06233681665,64dc7ece8cf2971354a1d3d7,,,,,,,ctch,resources/DY.BMP,resources/DG.BMP,Door4,0.400925954,0.060185157,1,0,0,0.9708,optionRight,60,14785,7,2,0,2,0,1,,,,,,,,,,,,,,,,,,,,,,,,,,,,,,,,,,,,,,,
,,,,,,,,2023-08-16_08h48.03.790,HF_wild_card,2022.2.4,Win32,59.99880002,610dab2802ed9932045896da,64d2fd46c836a06233681665,64dc7ece8cf2971354a1d3d7,,,,,,,decisionTrl,resources/DY.BMP,resources/DBN.BMP,Door1,0.008333333,-0.001851866,1,0,0,0.7048,optionLeft,30,14815,7,3,0,3,0,1,,,,,,,,,,,,,,,,,,,,,,,,,,,,,,,,,,,,,,,
,,,,,,,,2023-08-16_08h48.03.790,HF_wild_card,2022.2.4,Win32,59.99880002,610dab2802ed9932045896da,64d2fd46c836a06233681665,64dc7ece8cf2971354a1d3d7,,,,,,,decisionTrl,resources/DR.BMP,resources/DG.BMP,Door4,0.389814843,0.012962935,1,0,0,0.8847,optionRight,80,14895,7,4,0,4,0,1,,,,,,,,,,,,,,,,,,,,,,,,,,,,,,,,,,,,,,,
,,,,,,,,2023-08-16_08h48.03.790,HF_wild_card,2022.2.4,Win32,59.99880002,610dab2802ed9932045896da,64d2fd46c836a06233681665,64dc7ece8cf2971354a1d3d7,,,,,,,decisionTrl,resources/DY.BMP,resources/DBN.BMP,Door1,-0.361111111,-0.015740755,1,0,0,1.0315,optionLeft,30,14925,7,5,0,5,0,1,,,,,,,,,,,,,,,,,,,,,,,,,,,,,,,,,,,,,,,
,,,,,,,,2023-08-16_08h48.03.790,HF_wild_card,2022.2.4,Win32,59.99880002,610dab2802ed9932045896da,64d2fd46c836a06233681665,64dc7ece8cf2971354a1d3d7,,,,,,,decisionTrl,resources/DG.BMP,resources/DR.BMP,Door4,-0.398148134,0.019444444,1,0,0,1.2658,optionLeft,60,14985,7,6,0,6,0,1,,,,,,,,,,,,,,,,,,,,,,,,,,,,,,,,,,,,,,,
,,,,,,,,2023-08-16_08h48.03.790,HF_wild_card,2022.2.4,Win32,59.99880002,610dab2802ed9932045896da,64d2fd46c836a06233681665,64dc7ece8cf2971354a1d3d7,,,,,,,decisionTrl,resources/DBN.BMP,resources/DY.BMP,Door1,0.425,0.013888889,1,0,0,1.0977,optionRight,30,15015,7,7,0,7,0,1,,,,,,,,,,,,,,,,,,,,,,,,,,,,,,,,,,,,,,,
,,,,,,,,2023-08-16_08h48.03.790,HF_wild_card,2022.2.4,Win32,59.99880002,610dab2802ed9932045896da,64d2fd46c836a06233681665,64dc7ece8cf2971354a1d3d7,,,,,,,decisionTrl,resources/DR.BMP,resources/DG.BMP,Door4,0.329629686,0.031481467,1,0,0,1.4968,optionRight,80,15095,7,8,0,8,0,1,,,,,,,,,,,,,,,,,,,,,,,,,,,,,,,,,,,,,,,
,,,,,,,,2023-08-16_08h48.03.790,HF_wild_card,2022.2.4,Win32,59.99880002,610dab2802ed9932045896da,64d2fd46c836a06233681665,64dc7ece8cf2971354a1d3d7,,,,,,,decisionTrl,resources/DBN.BMP,resources/DY.BMP,Door1,0.325925954,-0.012962977,1,0,0,1.1821,optionRight,30,15125,7,9,0,9,0,1,,,,,,,,,,,,,,,,,,,,,,,,,,,,,,,,,,,,,,,
,,,,,,,,2023-08-16_08h48.03.790,HF_wild_card,2022.2.4,Win32,59.99880002,610dab2802ed9932045896da,64d2fd46c836a06233681665,64dc7ece8cf2971354a1d3d7,,,,,,,ctch,resources/DBN.BMP,resources/DR.BMP,Door3,0.421296353,0.042592578,1,0,0,1.0805,optionRight,70,15195,7,10,0,10,0,1,,,,,,,,,,,,,,,,,,,,,,,,,,,,,,,,,,,,,,,
,,,,,,,,2023-08-16_08h48.03.790,HF_wild_card,2022.2.4,Win32,59.99880002,610dab2802ed9932045896da,64d2fd46c836a06233681665,64dc7ece8cf2971354a1d3d7,,,,,,,ctch,resources/DR.BMP,resources/DBN.BMP,Door3,-0.321296268,0.055555556,1,0,0,1.2142,optionLeft,70,15265,7,11,0,11,0,1,,,,,,,,,,,,,,,,,,,,,,,,,,,,,,,,,,,,,,,
,,,,,,,,2023-08-16_08h48.03.790,HF_wild_card,2022.2.4,Win32,59.99880002,610dab2802ed9932045896da,64d2fd46c836a06233681665,64dc7ece8cf2971354a1d3d7,,,,,,,ctch,resources/DG.BMP,resources/DY.BMP,Door4,-0.366666667,0.045370356,1,0,0,0.9803,optionLeft,80,15345,7,12,0,12,0,1,,,,,,,,,,,,,,,,,,,,,,,,,,,,,,,,,,,,,,,
,,,,,,,,2023-08-16_08h48.03.790,HF_wild_card,2022.2.4,Win32,59.99880002,610dab2802ed9932045896da,64d2fd46c836a06233681665,64dc7ece8cf2971354a1d3d7,,,,,,,decisionTrl,resources/DG.BMP,resources/DR.BMP,Door4,-0.344444444,0.022222222,1,0,0,1.1308,optionLeft,80,15425,7,13,0,13,0,1,,,,,,,,,,,,,,,,,,,,,,,,,,,,,,,,,,,,,,,
,,,,,,,,2023-08-16_08h48.03.790,HF_wild_card,2022.2.4,Win32,59.99880002,610dab2802ed9932045896da,64d2fd46c836a06233681665,64dc7ece8cf2971354a1d3d7,,,,,,,decisionTrl,resources/DY.BMP,resources/DBN.BMP,Door1,-0.30370369,0.041666667,1,0,0,1.1744,optionLeft,30,15455,7,14,0,14,0,1,,,,,,,,,,,,,,,,,,,,,,,,,,,,,,,,,,,,,,,
,,,,,,,,2023-08-16_08h48.03.790,HF_wild_card,2022.2.4,Win32,59.99880002,610dab2802ed9932045896da,64d2fd46c836a06233681665,64dc7ece8cf2971354a1d3d7,,,,,,,ctch,resources/DBN.BMP,resources/DR.BMP,Door3,0.333333333,-0.028703732,1,0,0,1.2648,optionRight,70,15525,7,15,0,15,0,1,,,,,,,,,,,,,,,,,,,,,,,,,,,,,,,,,,,,,,,
,,,,,,,,2023-08-16_08h48.03.790,HF_wild_card,2022.2.4,Win32,59.99880002,610dab2802ed9932045896da,64d2fd46c836a06233681665,64dc7ece8cf2971354a1d3d7,,,,,,,decisionTrl,resources/DR.BMP,resources/DG.BMP,Door4,0.301851908,-0.035185199,1,0,0,1.164,optionRight,80,15605,7,16,0,16,0,1,,,,,,,,,,,,,,,,,,,,,,,,,,,,,,,,,,,,,,,
,,,,,,,,2023-08-16_08h48.03.790,HF_wild_card,2022.2.4,Win32,59.99880002,610dab2802ed9932045896da,64d2fd46c836a06233681665,64dc7ece8cf2971354a1d3d7,,,,,,,decisionTrl,resources/DBN.BMP,resources/DY.BMP,Door1,0.394444444,0.029629601,1,0,0,2.1665,optionRight,30,15635,7,17,0,17,0,1,,,,,,,,,,,,,,,,,,,,,,,,,,,,,,,,,,,,,,,
,,,,,,,,2023-08-16_08h48.03.790,HF_wild_card,2022.2.4,Win32,59.99880002,610dab2802ed9932045896da,64d2fd46c836a06233681665,64dc7ece8cf2971354a1d3d7,,,,,,,decisionTrl,resources/DY.BMP,resources/DBN.BMP,Door1,-0.282407379,0.022222222,1,0,0,1.1644,optionLeft,30,15665,7,18,0,18,0,1,,,,,,,,,,,,,,,,,,,,,,,,,,,,,,,,,,,,,,,
,,,,,,,,2023-08-16_08h48.03.790,HF_wild_card,2022.2.4,Win32,59.99880002,610dab2802ed9932045896da,64d2fd46c836a06233681665,64dc7ece8cf2971354a1d3d7,,,,,,,decisionTrl,resources/DY.BMP,resources/DBN.BMP,Door1,-0.305555556,0.017592578,1,0,0,1.2654,optionLeft,30,15695,7,19,0,19,0,1,,,,,,,,,,,,,,,,,,,,,,,,,,,,,,,,,,,,,,,
,,,,,,,,2023-08-16_08h48.03.790,HF_wild_card,2022.2.4,Win32,59.99880002,610dab2802ed9932045896da,64d2fd46c836a06233681665,64dc7ece8cf2971354a1d3d7,,,,,,,ctch,resources/DG.BMP,resources/DY.BMP,Door4,-0.338888889,0.061111111,1,0,0,1.1805,optionLeft,80,15775,7,20,0,20,0,1,,,,,,,,,,,,,,,,,,,,,,,,,,,,,,,,,,,,,,,
,,,,,,,,2023-08-16_08h48.03.790,HF_wild_card,2022.2.4,Win32,59.99880002,610dab2802ed9932045896da,64d2fd46c836a06233681665,64dc7ece8cf2971354a1d3d7,,,,,,,ctch,resources/DR.BMP,resources/DBN.BMP,Door3,-0.337037023,0.025925912,1,0,0,1.0809,optionLeft,70,15845,7,21,0,21,0,1,,,,,,,,,,,,,,,,,,,,,,,,,,,,,,,,,,,,,,,
,,,,,,,,2023-08-16_08h48.03.790,HF_wild_card,2022.2.4,Win32,59.99880002,610dab2802ed9932045896da,64d2fd46c836a06233681665,64dc7ece8cf2971354a1d3d7,,,,,,,decisionTrl,resources/DBN.BMP,resources/DY.BMP,Door1,0.299074131,-0.000925954,1,0,0,1.0644,optionRight,30,15875,7,22,0,22,0,1,,,,,,,,,,,,,,,,,,,,,,,,,,,,,,,,,,,,,,,
,,,,,,,,2023-08-16_08h48.03.790,HF_wild_card,2022.2.4,Win32,59.99880002,610dab2802ed9932045896da,64d2fd46c836a06233681665,64dc7ece8cf2971354a1d3d7,,,,,,,ctch,resources/DG.BMP,resources/DY.BMP,Door4,-0.282407379,-0.002777778,1,0,0,1.0817,optionLeft,60,15935,7,23,0,23,0,1,,,,,,,,,,,,,,,,,,,,,,,,,,,,,,,,,,,,,,,
,,,,,,,,2023-08-16_08h48.03.790,HF_wild_card,2022.2.4,Win32,59.99880002,610dab2802ed9932045896da,64d2fd46c836a06233681665,64dc7ece8cf2971354a1d3d7,,,,,,,decisionTrl,resources/DR.BMP,resources/DG.BMP,Door4,0.338888889,0.033333333,1,0,0,1.283,optionRight,60,15995,7,24,0,24,0,1,,,,,,,,,,,,,,,,,,,,,,,,,,,,,,,,,,,,,,,
,,,,,,,,2023-08-16_08h48.03.790,HF_wild_card,2022.2.4,Win32,59.99880002,610dab2802ed9932045896da,64d2fd46c836a06233681665,64dc7ece8cf2971354a1d3d7,,,,,,,decisionTrl,resources/DG.BMP,resources/DR.BMP,Door4,-0.309259245,0.029629601,1,0,0,1.0497,optionLeft,60,16055,7,25,0,25,0,1,,,,,,,,,,,,,,,,,,,,,,,,,,,,,,,,,,,,,,,
,,,,,,,,2023-08-16_08h48.03.790,HF_wild_card,2022.2.4,Win32,59.99880002,610dab2802ed9932045896da,64d2fd46c836a06233681665,64dc7ece8cf2971354a1d3d7,,,,,,,ctch,resources/DBN.BMP,resources/DR.BMP,Door3,0.310185242,-0.003703732,1,0,0,1.1815,optionRight,70,16125,7,26,0,26,0,1,,,,,,,,,,,,,,,,,,,,,,,,,,,,,,,,,,,,,,,
,,,,,,,,2023-08-16_08h48.03.790,HF_wild_card,2022.2.4,Win32,59.99880002,610dab2802ed9932045896da,64d2fd46c836a06233681665,64dc7ece8cf2971354a1d3d7,,,,,,,decisionTrl,resources/DG.BMP,resources/DR.BMP,Door4,-0.259259245,0.04351849,1,0,0,1.1146,optionLeft,80,16205,7,27,0,27,0,1,,,,,,,,,,,,,,,,,,,,,,,,,,,,,,,,,,,,,,,
,,,,,,,,2023-08-16_08h48.03.790,HF_wild_card,2022.2.4,Win32,59.99880002,610dab2802ed9932045896da,64d2fd46c836a06233681665,64dc7ece8cf2971354a1d3d7,,,,,,,decisionTrl,resources/DBN.BMP,resources/DY.BMP,Door1,0.295370399,-0.012962977,1,0,0,1.1302,optionRight,30,16235,7,28,0,28,0,1,,,,,,,,,,,,,,,,,,,,,,,,,,,,,,,,,,,,,,,
,,,,,,,,2023-08-16_08h48.03.790,HF_wild_card,2022.2.4,Win32,59.99880002,610dab2802ed9932045896da,64d2fd46c836a06233681665,64dc7ece8cf2971354a1d3d7,,,,,,,decisionTrl,resources/DR.BMP,resources/DG.BMP,Door4,0.363888889,0.016666667,1,0,0,0.9653,optionRight,80,16315,7,29,0,29,0,1,,,,,,,,,,,,,,,,,,,,,,,,,,,,,,,,,,,,,,,
,,,,,,,,2023-08-16_08h48.03.790,HF_wild_card,2022.2.4,Win32,59.99880002,610dab2802ed9932045896da,64d2fd46c836a06233681665,64dc7ece8cf2971354a1d3d7,,,,,,,decisionTrl,resources/DY.BMP,resources/DBN.BMP,Door1,-0.320370356,0.006481467,1,0,0,0.9982,optionLeft,30,16345,7,30,0,30,0,1,,,,,,,,,,,,,,,,,,,,,,,,,,,,,,,,,,,,,,,
,,,,,,,,2023-08-16_08h48.03.790,HF_wild_card,2022.2.4,Win32,59.99880002,610dab2802ed9932045896da,64d2fd46c836a06233681665,64dc7ece8cf2971354a1d3d7,,,,,,,ctch,resources/DY.BMP,resources/DG.BMP,Door4,0.287963019,0.010185157,1,0,0,1.0326,optionRight,80,16425,7,31,0,31,0,1,,,,,,,,,,,,,,,,,,,,,,,,,,,,,,,,,,,,,,,
,,,,,,,,2023-08-16_08h48.03.790,HF_wild_card,2022.2.4,Win32,59.99880002,610dab2802ed9932045896da,64d2fd46c836a06233681665,64dc7ece8cf2971354a1d3d7,,,,,,,decisionTrl,resources/DG.BMP,resources/DR.BMP,Door4,-0.336111111,0.030555556,1,0,0,1.3816,optionLeft,60,16485,7,32,0,32,0,1,,,,,,,,,,,,,,,,,,,,,,,,,,,,,,,,,,,,,,,
,,,,,,,,2023-08-16_08h48.03.790,HF_wild_card,2022.2.4,Win32,59.99880002,610dab2802ed9932045896da,64d2fd46c836a06233681665,64dc7ece8cf2971354a1d3d7,,,,,,,ctch,resources/DY.BMP,resources/DG.BMP,Door4,0.399074131,0.021296268,1,0,0,0.9139,optionRight,80,16565,7,33,0,33,0,1,,,,,,,,,,,,,,,,,,,,,,,,,,,,,,,,,,,,,,,
,,,,,,,,2023-08-16_08h48.03.790,HF_wild_card,2022.2.4,Win32,59.99880002,610dab2802ed9932045896da,64d2fd46c836a06233681665,64dc7ece8cf2971354a1d3d7,,,,,,,decisionTrl,resources/DBN.BMP,resources/DY.BMP,Door1,0.362963019,0.033333333,1,0,0,1.066,optionRight,30,16595,7,34,0,34,0,1,,,,,,,,,,,,,,,,,,,,,,,,,,,,,,,,,,,,,,,
,,,,,,,,2023-08-16_08h48.03.790,HF_wild_card,2022.2.4,Win32,59.99880002,610dab2802ed9932045896da,64d2fd46c836a06233681665,64dc7ece8cf2971354a1d3d7,,,,,,,decisionTrl,resources/DG.BMP,resources/DR.BMP,Door4,-0.298148134,0.037962935,1,0,0,1.115,optionLeft,80,16675,7,35,0,35,0,1,,,,,,,,,,,,,,,,,,,,,,,,,,,,,,,,,,,,,,,
,,,,,,,,2023-08-16_08h48.03.790,HF_wild_card,2022.2.4,Win32,59.99880002,610dab2802ed9932045896da,64d2fd46c836a06233681665,64dc7ece8cf2971354a1d3d7,,,,,,,,,,,,,,,,,,,,,,,,,,6,0,6,0,1,,,,,,,,,,,,,,,,,,,,,,,,,,,,,,,,,,
,,,,,,,,2023-08-16_08h48.03.790,HF_wild_card,2022.2.4,Win32,59.99880002,610dab2802ed9932045896da,64d2fd46c836a06233681665,64dc7ece8cf2971354a1d3d7,,,,,,,,,,,,,,,,,,,,,,,,,,,,,,,4,,,,,,,,,,,,,,,,,,,,,,,,,,,,,,,,,
,,,,,,,,2023-08-16_08h48.03.790,HF_wild_card,2022.2.4,Win32,59.99880002,610dab2802ed9932045896da,64d2fd46c836a06233681665,64dc7ece8cf2971354a1d3d7,,,,,,,,,,,,,,,,,,,,,,,,,,,,,,,,,,,,,,,,,,,,,,,,,,,,,,,,,,,,,,,,
,,,,,,,,2023-08-16_08h48.03.790,HF_wild_card,2022.2.4,Win32,59.99880002,610dab2802ed9932045896da,64d2fd46c836a06233681665,64dc7ece8cf2971354a1d3d7,,,,,,,,,,,,,,,,,,,,,,,,,,,,,,,,60,Door3,resources/DR.BMP,0,0,0,0,1,,,,,,,,,,,,,,,,,,,,,,,,,
,,,,,,,,2023-08-16_08h48.03.790,HF_wild_card,2022.2.4,Win32,59.99880002,610dab2802ed9932045896da,64d2fd46c836a06233681665,64dc7ece8cf2971354a1d3d7,,,,,,,,,,,,,,,,,,,,,,,,,,,,,,,,95,WC_extreme,resources/DB.BMP,1,0,1,0,1,,,,,,,,,,,,,,,,,,,,,,,,,
,,,,,,,,2023-08-16_08h48.03.790,HF_wild_card,2022.2.4,Win32,59.99880002,610dab2802ed9932045896da,64d2fd46c836a06233681665,64dc7ece8cf2971354a1d3d7,,,,,,,,,,,,,,,,,,,,,,,,,,,,,,,,80,Door4,resources/DG.BMP,2,0,2,0,1,,,,,,,,,,,,,,,,,,,,,,,,,
,,,,,,,,2023-08-16_08h48.03.790,HF_wild_card,2022.2.4,Win32,59.99880002,610dab2802ed9932045896da,64d2fd46c836a06233681665,64dc7ece8cf2971354a1d3d7,,,,,,,,,,,,,,,,,,,,,,,,,,,,,,,,30,Door1,resources/DY.BMP,3,0,3,0,1,,,,,,,,,,,,,,,,,,,,,,,,,
,,,,,,,,2023-08-16_08h48.03.790,HF_wild_card,2022.2.4,Win32,59.99880002,610dab2802ed9932045896da,64d2fd46c836a06233681665,64dc7ece8cf2971354a1d3d7,,,,,,,,,,,,,,,,,,,,,,,,,,,,,,,,45,WC_nonExtreme,resources/DP.BMP,4,0,4,0,1,,,,,,,,,,,,,,,,,,,,,,,,,
,,,,,,,,2023-08-16_08h48.03.790,HF_wild_card,2022.2.4,Win32,59.99880002,610dab2802ed9932045896da,64d2fd46c836a06233681665,64dc7ece8cf2971354a1d3d7,,,,,,,,,,,,,,,,,,,,,,,,,,,,,,,,20,Door2,resources/DBN.BMP,5,0,5,0,1,,,,,,,,,,,,,,,,,,,,,,,,,
,,,,,,,,2023-08-16_08h48.03.790,HF_wild_card,2022.2.4,Win32,59.99880002,610dab2802ed9932045896da,64d2fd46c836a06233681665,64dc7ece8cf2971354a1d3d7,,,,,,,,,,,,,,,,,,,,,,,,,,,,,,,,,,,,,,,,,,,,,,,,,,,,,,,,,,,,,,,,
,,,,,,,,2023-08-16_08h48.03.790,HF_wild_card,2022.2.4,Win32,59.99880002,610dab2802ed9932045896da,64d2fd46c836a06233681665,64dc7ece8cf2971354a1d3d7,,,,,,,,,,,,,,,,,,,,,,,,,,,,,,,,,,,,,,,,0,0,0,0,1,,,,,,,,,,,,,,,,,,,,
