Condition,Low fixed image (Door1),Low risky image (Door2),High fixed image (Door3),High risky image (Door4),NonExtreme Wild Card 1,NonExtreme Wild Card 2,,date,expName,psychopyVersion,OS,frameRate,PROLIFIC_PID,STUDY_ID,SESSION_ID,mouse_2.x,mouse_2.y,mouse_2.leftButton,mouse_2.midButton,mouse_2.rightButton,mouse_2.clicked_name,Trial Type,Left Option Image,Right Option Image,Chosen Door,mouse.x,mouse.y,mouse.leftButton,mouse.midButton,mouse.rightButton,mouse.time,mouse.clicked_name,Feedback,Cumulative Reward,Block,trial.thisRepN,trial.thisTrialN,trial.thisN,trial.thisIndex,trial.ran,blocks.thisRepN,blocks.thisTrialN,blocks.thisN,blocks.thisIndex,blocks.ran,Money conversion,First Outcome Reported,Shown Door (First Outcome),Displayed Image (First Outcome),outcomes.thisRepN,outcomes.thisTrialN,outcomes.thisN,outcomes.thisIndex,outcomes.ran,judgments.thisRepN,judgments.thisTrialN,judgments.thisN,judgments.thisIndex,judgments.ran,freqMouse.x,freqMouse.y,freqMouse.leftButton,freqMouse.midButton,freqMouse.rightButton,freqMouse.clicked_name,FQJ for first outcome,FQJ for second outcome,Shown Door,Displayed Image,trials.thisRepN,trials.thisTrialN,trials.thisN,trials.thisIndex,trials.ran,judgBlock.thisRepN,judgBlock.thisTrialN,judgBlock.thisN,judgBlock.thisIndex,judgBlock.ran
2,resources/DP.BMP,resources/DBN.BMP,resources/DY.BMP,resources/DG.BMP,resources/DB.BMP,resources/DR.BMP,,2023-08-16_09h36.57.224,HF_wild_card,2022.2.4,Win32,59.90534955,5f3be0f027d97397cfc8a000,64d2fd46c836a06233681665,64dc7c78807e6bcc56f75cde,,,,,,,,,,,,,,,,,,,,,,,,,,,,,,,,,,,,,,,,,,,,,,,,,,,,,,,,,,,,,,,,
,,,,,,,,2023-08-16_09h36.57.224,HF_wild_card,2022.2.4,Win32,59.90534955,5f3be0f027d97397cfc8a000,64d2fd46c836a06233681665,64dc7c78807e6bcc56f75cde,0.026388889,-0.418055556,1,0,0,agree,,,,,,,,,,,,,,,,,,,,,,,,,,,,,,,,,,,,,,,,,,,,,,,,,,,,,,,,,,
,,,,,,,,2023-08-16_09h36.57.224,HF_wild_card,2022.2.4,Win32,59.90534955,5f3be0f027d97397cfc8a000,64d2fd46c836a06233681665,64dc7c78807e6bcc56f75cde,,,,,,,,,,,,,,,,,,,,,,,,,,,,,,,,,,,,,,,,,,,,,,,,,,,,,,,,,,,,,,,,
,,,,,,,,2023-08-16_09h36.57.224,HF_wild_card,2022.2.4,Win32,59.90534955,5f3be0f027d97397cfc8a000,64d2fd46c836a06233681665,64dc7c78807e6bcc56f75cde,,,,,,,decisionTrl,resources/DR.BMP,resources/DBN.BMP,WildCard_NonEx,-0.378776143,0.006584043,1,0,0,6.6797,optionLeft,55,55,1,0,0,0,0,1,,,,,,,,,,,,,,,,,,,,,,,,,,,,,,,,,,,,,,,
,,,,,,,,2023-08-16_09h36.57.224,HF_wild_card,2022.2.4,Win32,59.90534955,5f3be0f027d97397cfc8a000,64d2fd46c836a06233681665,64dc7c78807e6bcc56f75cde,,,,,,,ctch,resources/DG.BMP,resources/DP.BMP,Door1,0.240898528,-0.01975213,1,0,0,1.0155,optionRight,30,85,1,1,0,1,0,1,,,,,,,,,,,,,,,,,,,,,,,,,,,,,,,,,,,,,,,
,,,,,,,,2023-08-16_09h36.57.224,HF_wild_card,2022.2.4,Win32,59.90534955,5f3be0f027d97397cfc8a000,64d2fd46c836a06233681665,64dc7c78807e6bcc56f75cde,,,,,,,sngl,resources/Empty.png,resources/DR.BMP,WildCard_NonEx,0.206041828,-0.004260263,1,0,0,0.5293,optionRight,55,140,1,2,0,2,0,1,,,,,,,,,,,,,,,,,,,,,,,,,,,,,,,,,,,,,,,
,,,,,,,,2023-08-16_09h36.57.224,HF_wild_card,2022.2.4,Win32,59.90534955,5f3be0f027d97397cfc8a000,64d2fd46c836a06233681665,64dc7c78807e6bcc56f75cde,,,,,,,decisionTrl,resources/DBN.BMP,resources/DR.BMP,Door2,-0.453911696,-0.009682417,1,0,0,0.9801,optionLeft,20,160,1,3,0,3,0,1,,,,,,,,,,,,,,,,,,,,,,,,,,,,,,,,,,,,,,,
,,,,,,,,2023-08-16_09h36.57.224,HF_wild_card,2022.2.4,Win32,59.90534955,5f3be0f027d97397cfc8a000,64d2fd46c836a06233681665,64dc7c78807e6bcc56f75cde,,,,,,,sngl,resources/Empty.png,resources/DY.BMP,Door3,0.255615802,0.01742835,1,0,0,0.8137,optionRight,70,230,1,4,0,4,0,1,,,,,,,,,,,,,,,,,,,,,,,,,,,,,,,,,,,,,,,
,,,,,,,,2023-08-16_09h36.57.224,HF_wild_card,2022.2.4,Win32,59.90534955,5f3be0f027d97397cfc8a000,64d2fd46c836a06233681665,64dc7c78807e6bcc56f75cde,,,,,,,decisionTrl,resources/DG.BMP,resources/DY.BMP,Door3,0.321456235,0.028272657,1,0,0,0.7789,optionRight,70,300,1,5,0,5,0,1,,,,,,,,,,,,,,,,,,,,,,,,,,,,,,,,,,,,,,,
,,,,,,,,2023-08-16_09h36.57.224,HF_wild_card,2022.2.4,Win32,59.90534955,5f3be0f027d97397cfc8a000,64d2fd46c836a06233681665,64dc7c78807e6bcc56f75cde,,,,,,,decisionTrl,resources/DP.BMP,resources/DBN.BMP,Door1,-0.50580945,-0.000387297,1,0,0,1.2816,optionLeft,30,330,1,6,0,6,0,1,,,,,,,,,,,,,,,,,,,,,,,,,,,,,,,,,,,,,,,
,,,,,,,,2023-08-16_09h36.57.224,HF_wild_card,2022.2.4,Win32,59.90534955,5f3be0f027d97397cfc8a000,64d2fd46c836a06233681665,64dc7c78807e6bcc56f75cde,,,,,,,sngl,resources/Empty.png,resources/DP.BMP,Door1,0.421378776,0.018202943,1,0,0,0.7487,optionRight,30,360,1,7,0,7,0,1,,,,,,,,,,,,,,,,,,,,,,,,,,,,,,,,,,,,,,,
,,,,,,,,2023-08-16_09h36.57.224,HF_wild_card,2022.2.4,Win32,59.90534955,5f3be0f027d97397cfc8a000,64d2fd46c836a06233681665,64dc7c78807e6bcc56f75cde,,,,,,,decisionTrl,resources/DBN.BMP,resources/DP.BMP,Door2,-0.285050349,0.01742835,1,0,0,1.2296,optionLeft,40,400,1,8,0,8,0,1,,,,,,,,,,,,,,,,,,,,,,,,,,,,,,,,,,,,,,,
,,,,,,,,2023-08-16_09h36.57.224,HF_wild_card,2022.2.4,Win32,59.90534955,5f3be0f027d97397cfc8a000,64d2fd46c836a06233681665,64dc7c78807e6bcc56f75cde,,,,,,,ctch,resources/DBN.BMP,resources/DY.BMP,Door2,-0.274206042,0.01510457,1,0,0,0.5991,optionLeft,40,440,1,9,0,9,0,1,,,,,,,,,,,,,,,,,,,,,,,,,,,,,,,,,,,,,,,
,,,,,,,,2023-08-16_09h36.57.224,HF_wild_card,2022.2.4,Win32,59.90534955,5f3be0f027d97397cfc8a000,64d2fd46c836a06233681665,64dc7c78807e6bcc56f75cde,,,,,,,decisionTrl,resources/DBN.BMP,resources/DP.BMP,Door2,-0.397366383,0.02904725,1,0,0,0.9653,optionLeft,20,460,1,10,0,10,0,1,,,,,,,,,,,,,,,,,,,,,,,,,,,,,,,,,,,,,,,
,,,,,,,,2023-08-16_09h36.57.224,HF_wild_card,2022.2.4,Win32,59.90534955,5f3be0f027d97397cfc8a000,64d2fd46c836a06233681665,64dc7c78807e6bcc56f75cde,,,,,,,decisionTrl,resources/DR.BMP,resources/DP.BMP,WildCard_NonEx,-0.442292796,0.005034857,1,0,0,0.7653,optionLeft,55,515,1,11,0,11,0,1,,,,,,,,,,,,,,,,,,,,,,,,,,,,,,,,,,,,,,,
,,,,,,,,2023-08-16_09h36.57.224,HF_wild_card,2022.2.4,Win32,59.90534955,5f3be0f027d97397cfc8a000,64d2fd46c836a06233681665,64dc7c78807e6bcc56f75cde,,,,,,,decisionTrl,resources/DG.BMP,resources/DR.BMP,WildCard_NonEx,0.537567777,0.00580945,1,0,0,1.0458,optionRight,45,560,1,12,0,12,0,1,,,,,,,,,,,,,,,,,,,,,,,,,,,,,,,,,,,,,,,
,,,,,,,,2023-08-16_09h36.57.224,HF_wild_card,2022.2.4,Win32,59.90534955,5f3be0f027d97397cfc8a000,64d2fd46c836a06233681665,64dc7c78807e6bcc56f75cde,,,,,,,decisionTrl,resources/DBN.BMP,resources/DP.BMP,Door1,0.42680093,0.021301317,1,0,0,1.1819,optionRight,30,590,1,13,0,13,0,1,,,,,,,,,,,,,,,,,,,,,,,,,,,,,,,,,,,,,,,
,,,,,,,,2023-08-16_09h36.57.224,HF_wild_card,2022.2.4,Win32,59.90534955,5f3be0f027d97397cfc8a000,64d2fd46c836a06233681665,64dc7c78807e6bcc56f75cde,,,,,,,decisionTrl,resources/DG.BMP,resources/DY.BMP,Door3,0.418280403,0.032145624,1,0,0,0.8141,optionRight,70,660,1,14,0,14,0,1,,,,,,,,,,,,,,,,,,,,,,,,,,,,,,,,,,,,,,,
,,,,,,,,2023-08-16_09h36.57.224,HF_wild_card,2022.2.4,Win32,59.90534955,5f3be0f027d97397cfc8a000,64d2fd46c836a06233681665,64dc7c78807e6bcc56f75cde,,,,,,,sngl,resources/DG.BMP,resources/Empty.png,Door4,-0.347017816,0.025948877,1,0,0,0.8314,optionLeft,80,740,1,15,0,15,0,1,,,,,,,,,,,,,,,,,,,,,,,,,,,,,,,,,,,,,,,
,,,,,,,,2023-08-16_09h36.57.224,HF_wild_card,2022.2.4,Win32,59.90534955,5f3be0f027d97397cfc8a000,64d2fd46c836a06233681665,64dc7c78807e6bcc56f75cde,,,,,,,decisionTrl,resources/DG.BMP,resources/DY.BMP,Door4,-0.261812548,0.001936483,1,0,0,0.5669,optionLeft,80,820,1,16,0,16,0,1,,,,,,,,,,,,,,,,,,,,,,,,,,,,,,,,,,,,,,,
,,,,,,,,2023-08-16_09h36.57.224,HF_wild_card,2022.2.4,Win32,59.90534955,5f3be0f027d97397cfc8a000,64d2fd46c836a06233681665,64dc7c78807e6bcc56f75cde,,,,,,,decisionTrl,resources/DP.BMP,resources/DBN.BMP,Door1,-0.288148722,0.004260263,1,0,0,0.9665,optionLeft,30,850,1,17,0,17,0,1,,,,,,,,,,,,,,,,,,,,,,,,,,,,,,,,,,,,,,,
,,,,,,,,2023-08-16_09h36.57.224,HF_wild_card,2022.2.4,Win32,59.90534955,5f3be0f027d97397cfc8a000,64d2fd46c836a06233681665,64dc7c78807e6bcc56f75cde,,,,,,,decisionTrl,resources/DY.BMP,resources/DG.BMP,Door3,-0.242447715,0.002711077,1,0,0,1.0991,optionLeft,70,920,1,18,0,18,0,1,,,,,,,,,,,,,,,,,,,,,,,,,,,,,,,,,,,,,,,
,,,,,,,,2023-08-16_09h36.57.224,HF_wild_card,2022.2.4,Win32,59.90534955,5f3be0f027d97397cfc8a000,64d2fd46c836a06233681665,64dc7c78807e6bcc56f75cde,,,,,,,decisionTrl,resources/DP.BMP,resources/DBN.BMP,Door1,-0.397366383,0.03369481,1,0,0,0.847,optionLeft,30,950,1,19,0,19,0,1,,,,,,,,,,,,,,,,,,,,,,,,,,,,,,,,,,,,,,,
,,,,,,,,2023-08-16_09h36.57.224,HF_wild_card,2022.2.4,Win32,59.90534955,5f3be0f027d97397cfc8a000,64d2fd46c836a06233681665,64dc7c78807e6bcc56f75cde,,,,,,,decisionTrl,resources/DY.BMP,resources/DR.BMP,Door3,-0.53137103,0.011231603,1,0,0,0.8317,optionLeft,70,1020,1,20,0,20,0,1,,,,,,,,,,,,,,,,,,,,,,,,,,,,,,,,,,,,,,,
,,,,,,,,2023-08-16_09h36.57.224,HF_wild_card,2022.2.4,Win32,59.90534955,5f3be0f027d97397cfc8a000,64d2fd46c836a06233681665,64dc7c78807e6bcc56f75cde,,,,,,,ctch,resources/DBN.BMP,resources/DY.BMP,Door3,0.42912471,0.035243997,1,0,0,0.6153,optionRight,70,1090,1,21,0,21,0,1,,,,,,,,,,,,,,,,,,,,,,,,,,,,,,,,,,,,,,,
,,,,,,,,2023-08-16_09h36.57.224,HF_wild_card,2022.2.4,Win32,59.90534955,5f3be0f027d97397cfc8a000,64d2fd46c836a06233681665,64dc7c78807e6bcc56f75cde,,,,,,,decisionTrl,resources/DBN.BMP,resources/DP.BMP,Door1,0.370255616,0.023625097,1,0,0,0.6655,optionRight,30,1120,1,22,0,22,0,1,,,,,,,,,,,,,,,,,,,,,,,,,,,,,,,,,,,,,,,
,,,,,,,,2023-08-16_09h36.57.224,HF_wild_card,2022.2.4,Win32,59.90534955,5f3be0f027d97397cfc8a000,64d2fd46c836a06233681665,64dc7c78807e6bcc56f75cde,,,,,,,decisionTrl,resources/DY.BMP,resources/DG.BMP,Door3,-0.429899303,0.00813323,1,0,0,0.7635,optionLeft,70,1190,1,23,0,23,0,1,,,,,,,,,,,,,,,,,,,,,,,,,,,,,,,,,,,,,,,
,,,,,,,,2023-08-16_09h36.57.224,HF_wild_card,2022.2.4,Win32,59.90534955,5f3be0f027d97397cfc8a000,64d2fd46c836a06233681665,64dc7c78807e6bcc56f75cde,,,,,,,sngl,resources/DR.BMP,resources/Empty.png,WildCard_NonEx,-0.280402789,0.00348567,1,0,0,0.6153,optionLeft,45,1235,1,24,0,24,0,1,,,,,,,,,,,,,,,,,,,,,,,,,,,,,,,,,,,,,,,
,,,,,,,,2023-08-16_09h36.57.224,HF_wild_card,2022.2.4,Win32,59.90534955,5f3be0f027d97397cfc8a000,64d2fd46c836a06233681665,64dc7c78807e6bcc56f75cde,,,,,,,sngl,resources/DY.BMP,resources/Empty.png,Door3,-0.326103796,-0.002711077,1,0,0,0.5325,optionLeft,70,1305,1,25,0,25,0,1,,,,,,,,,,,,,,,,,,,,,,,,,,,,,,,,,,,,,,,
,,,,,,,,2023-08-16_09h36.57.224,HF_wild_card,2022.2.4,Win32,59.90534955,5f3be0f027d97397cfc8a000,64d2fd46c836a06233681665,64dc7c78807e6bcc56f75cde,,,,,,,decisionTrl,resources/DP.BMP,resources/DBN.BMP,Door1,-0.353989156,-0.001936483,1,0,0,1.4317,optionLeft,30,1335,1,26,0,26,0,1,,,,,,,,,,,,,,,,,,,,,,,,,,,,,,,,,,,,,,,
,,,,,,,,2023-08-16_09h36.57.224,HF_wild_card,2022.2.4,Win32,59.90534955,5f3be0f027d97397cfc8a000,64d2fd46c836a06233681665,64dc7c78807e6bcc56f75cde,,,,,,,decisionTrl,resources/DR.BMP,resources/DY.BMP,Door3,0.439194423,-0.01045701,1,0,0,0.8147,optionRight,70,1405,1,27,0,27,0,1,,,,,,,,,,,,,,,,,,,,,,,,,,,,,,,,,,,,,,,
,,,,,,,,2023-08-16_09h36.57.224,HF_wild_card,2022.2.4,Win32,59.90534955,5f3be0f027d97397cfc8a000,64d2fd46c836a06233681665,64dc7c78807e6bcc56f75cde,,,,,,,ctch,resources/DY.BMP,resources/DBN.BMP,Door3,-0.295120062,-0.00348567,1,0,0,0.5661,optionLeft,70,1475,1,28,0,28,0,1,,,,,,,,,,,,,,,,,,,,,,,,,,,,,,,,,,,,,,,
,,,,,,,,2023-08-16_09h36.57.224,HF_wild_card,2022.2.4,Win32,59.90534955,5f3be0f027d97397cfc8a000,64d2fd46c836a06233681665,64dc7c78807e6bcc56f75cde,,,,,,,decisionTrl,resources/DY.BMP,resources/DG.BMP,Door3,-0.425251743,0.002711077,1,0,0,0.6151,optionLeft,70,1545,1,29,0,29,0,1,,,,,,,,,,,,,,,,,,,,,,,,,,,,,,,,,,,,,,,
,,,,,,,,2023-08-16_09h36.57.224,HF_wild_card,2022.2.4,Win32,59.90534955,5f3be0f027d97397cfc8a000,64d2fd46c836a06233681665,64dc7c78807e6bcc56f75cde,,,,,,,sngl,resources/Empty.png,resources/DR.BMP,WildCard_NonEx,0.317583269,0.00580945,1,0,0,0.7492,optionRight,45,1590,1,30,0,30,0,1,,,,,,,,,,,,,,,,,,,,,,,,,,,,,,,,,,,,,,,
,,,,,,,,2023-08-16_09h36.57.224,HF_wild_card,2022.2.4,Win32,59.90534955,5f3be0f027d97397cfc8a000,64d2fd46c836a06233681665,64dc7c78807e6bcc56f75cde,,,,,,,sngl,resources/DP.BMP,resources/Empty.png,Door1,-0.347017816,0.02207591,1,0,0,0.5148,optionLeft,30,1620,1,31,0,31,0,1,,,,,,,,,,,,,,,,,,,,,,,,,,,,,,,,,,,,,,,
,,,,,,,,2023-08-16_09h36.57.224,HF_wild_card,2022.2.4,Win32,59.90534955,5f3be0f027d97397cfc8a000,64d2fd46c836a06233681665,64dc7c78807e6bcc56f75cde,,,,,,,sngl,resources/DR.BMP,resources/Empty.png,WildCard_NonEx,-0.230828815,0.002711077,1,0,0,0.5828,optionLeft,55,1675,1,32,0,32,0,1,,,,,,,,,,,,,,,,,,,,,,,,,,,,,,,,,,,,,,,
,,,,,,,,2023-08-16_09h36.57.224,HF_wild_card,2022.2.4,Win32,59.90534955,5f3be0f027d97397cfc8a000,64d2fd46c836a06233681665,64dc7c78807e6bcc56f75cde,,,,,,,ctch,resources/DG.BMP,resources/DP.BMP,Door4,-0.405112316,0.004260263,1,0,0,0.9666,optionLeft,80,1755,1,33,0,33,0,1,,,,,,,,,,,,,,,,,,,,,,,,,,,,,,,,,,,,,,,
,,,,,,,,2023-08-16_09h36.57.224,HF_wild_card,2022.2.4,Win32,59.90534955,5f3be0f027d97397cfc8a000,64d2fd46c836a06233681665,64dc7c78807e6bcc56f75cde,,,,,,,sngl,resources/Empty.png,resources/DBN.BMP,Door2,0.239349342,0.01045701,1,0,0,0.6819,optionRight,20,1775,1,34,0,34,0,1,,,,,,,,,,,,,,,,,,,,,,,,,,,,,,,,,,,,,,,
,,,,,,,,2023-08-16_09h36.57.224,HF_wild_card,2022.2.4,Win32,59.90534955,5f3be0f027d97397cfc8a000,64d2fd46c836a06233681665,64dc7c78807e6bcc56f75cde,,,,,,,decisionTrl,resources/DY.BMP,resources/DG.BMP,Door3,-0.289697909,0.002711077,1,0,0,0.6149,optionLeft,70,1845,1,35,0,35,0,1,,,,,,,,,,,,,,,,,,,,,,,,,,,,,,,,,,,,,,,
,,,,,,,,2023-08-16_09h36.57.224,HF_wild_card,2022.2.4,Win32,59.90534955,5f3be0f027d97397cfc8a000,64d2fd46c836a06233681665,64dc7c78807e6bcc56f75cde,,,,,,,ctch,resources/DY.BMP,resources/DBN.BMP,Door3,-0.211463981,0.022850503,1,0,0,0.6141,optionLeft,70,1915,1,36,0,36,0,1,,,,,,,,,,,,,,,,,,,,,,,,,,,,,,,,,,,,,,,
,,,,,,,,2023-08-16_09h36.57.224,HF_wild_card,2022.2.4,Win32,59.90534955,5f3be0f027d97397cfc8a000,64d2fd46c836a06233681665,64dc7c78807e6bcc56f75cde,,,,,,,ctch,resources/DP.BMP,resources/DG.BMP,Door4,0.52207591,0.030596437,1,0,0,0.6485,optionRight,80,1995,1,37,0,37,0,1,,,,,,,,,,,,,,,,,,,,,,,,,,,,,,,,,,,,,,,
,,,,,,,,2023-08-16_09h36.57.224,HF_wild_card,2022.2.4,Win32,59.90534955,5f3be0f027d97397cfc8a000,64d2fd46c836a06233681665,64dc7c78807e6bcc56f75cde,,,,,,,sngl,resources/Empty.png,resources/DG.BMP,Door4,0.282726569,0.022850503,1,0,0,0.4814,optionRight,60,2055,1,38,0,38,0,1,,,,,,,,,,,,,,,,,,,,,,,,,,,,,,,,,,,,,,,
,,,,,,,,2023-08-16_09h36.57.224,HF_wild_card,2022.2.4,Win32,59.90534955,5f3be0f027d97397cfc8a000,64d2fd46c836a06233681665,64dc7c78807e6bcc56f75cde,,,,,,,ctch,resources/DP.BMP,resources/DG.BMP,Door4,0.150271108,0.013555383,1,0,0,1.7825,optionRight,80,2135,1,39,0,39,0,1,,,,,,,,,,,,,,,,,,,,,,,,,,,,,,,,,,,,,,,
,,,,,,,,2023-08-16_09h36.57.224,HF_wild_card,2022.2.4,Win32,59.90534955,5f3be0f027d97397cfc8a000,64d2fd46c836a06233681665,64dc7c78807e6bcc56f75cde,,,,,,,decisionTrl,resources/DG.BMP,resources/DY.BMP,Door4,-0.313710302,-0.012006197,1,0,0,0.6994,optionLeft,80,2215,1,40,0,40,0,1,,,,,,,,,,,,,,,,,,,,,,,,,,,,,,,,,,,,,,,
,,,,,,,,2023-08-16_09h36.57.224,HF_wild_card,2022.2.4,Win32,59.90534955,5f3be0f027d97397cfc8a000,64d2fd46c836a06233681665,64dc7c78807e6bcc56f75cde,,,,,,,sngl,resources/DBN.BMP,resources/Empty.png,Door2,-0.354763749,-0.006584043,1,0,0,0.6136,optionLeft,40,2255,1,41,0,41,0,1,,,,,,,,,,,,,,,,,,,,,,,,,,,,,,,,,,,,,,,
,,,,,,,,2023-08-16_09h36.57.224,HF_wild_card,2022.2.4,Win32,59.90534955,5f3be0f027d97397cfc8a000,64d2fd46c836a06233681665,64dc7c78807e6bcc56f75cde,,,,,,,decisionTrl,resources/DP.BMP,resources/DR.BMP,WildCard_NonEx,0.467854376,0.02904725,1,0,0,1.565,optionRight,45,2300,1,42,0,42,0,1,,,,,,,,,,,,,,,,,,,,,,,,,,,,,,,,,,,,,,,
,,,,,,,,2023-08-16_09h36.57.224,HF_wild_card,2022.2.4,Win32,59.90534955,5f3be0f027d97397cfc8a000,64d2fd46c836a06233681665,64dc7c78807e6bcc56f75cde,,,,,,,decisionTrl,resources/DR.BMP,resources/DG.BMP,Door4,0.296669249,0.02439969,1,0,0,0.9815,optionRight,60,2360,1,43,0,43,0,1,,,,,,,,,,,,,,,,,,,,,,,,,,,,,,,,,,,,,,,
,,,,,,,,2023-08-16_09h36.57.224,HF_wild_card,2022.2.4,Win32,59.90534955,5f3be0f027d97397cfc8a000,64d2fd46c836a06233681665,64dc7c78807e6bcc56f75cde,,,,,,,,,,,,,,,,,,,,,,,,,,0,0,0,0,1,,,,,,,,,,,,,,,,,,,,,,,,,,,,,,,,,,
,,,,,,,,2023-08-16_09h36.57.224,HF_wild_card,2022.2.4,Win32,59.90534955,5f3be0f027d97397cfc8a000,64d2fd46c836a06233681665,64dc7c78807e6bcc56f75cde,,,,,,,ctch,resources/DBN.BMP,resources/DY.BMP,Door3,0.281177382,-0.007358637,1,0,0,1.2568,optionRight,70,2430,2,0,0,0,0,1,,,,,,,,,,,,,,,,,,,,,,,,,,,,,,,,,,,,,,,
,,,,,,,,2023-08-16_09h36.57.224,HF_wild_card,2022.2.4,Win32,59.90534955,5f3be0f027d97397cfc8a000,64d2fd46c836a06233681665,64dc7c78807e6bcc56f75cde,,,,,,,decisionTrl,resources/DG.BMP,resources/DY.BMP,Door4,-0.525174284,0.016653757,1,0,0,0.8296,optionLeft,60,2490,2,1,0,1,0,1,,,,,,,,,,,,,,,,,,,,,,,,,,,,,,,,,,,,,,,
,,,,,,,,2023-08-16_09h36.57.224,HF_wild_card,2022.2.4,Win32,59.90534955,5f3be0f027d97397cfc8a000,64d2fd46c836a06233681665,64dc7c78807e6bcc56f75cde,,,,,,,sngl,resources/DP.BMP,resources/Empty.png,Door1,-0.175832688,0.02439969,1,0,0,0.5966,optionLeft,30,2520,2,2,0,2,0,1,,,,,,,,,,,,,,,,,,,,,,,,,,,,,,,,,,,,,,,
,,,,,,,,2023-08-16_09h36.57.224,HF_wild_card,2022.2.4,Win32,59.90534955,5f3be0f027d97397cfc8a000,64d2fd46c836a06233681665,64dc7c78807e6bcc56f75cde,,,,,,,decisionTrl,resources/DG.BMP,resources/DY.BMP,Door3,0.494965143,0.032145624,1,0,0,1.0822,optionRight,70,2590,2,3,0,3,0,1,,,,,,,,,,,,,,,,,,,,,,,,,,,,,,,,,,,,,,,
,,,,,,,,2023-08-16_09h36.57.224,HF_wild_card,2022.2.4,Win32,59.90534955,5f3be0f027d97397cfc8a000,64d2fd46c836a06233681665,64dc7c78807e6bcc56f75cde,,,,,,,sngl,resources/DR.BMP,resources/Empty.png,WildCard_NonEx,-0.299767622,-0.00116189,1,0,0,0.4816,optionLeft,55,2645,2,4,0,4,0,1,,,,,,,,,,,,,,,,,,,,,,,,,,,,,,,,,,,,,,,
,,,,,,,,2023-08-16_09h36.57.224,HF_wild_card,2022.2.4,Win32,59.90534955,5f3be0f027d97397cfc8a000,64d2fd46c836a06233681665,64dc7c78807e6bcc56f75cde,,,,,,,decisionTrl,resources/DBN.BMP,resources/DR.BMP,WildCard_NonEx,0.406661503,0.02672347,1,0,0,0.784,optionRight,55,2700,2,5,0,5,0,1,,,,,,,,,,,,,,,,,,,,,,,,,,,,,,,,,,,,,,,
,,,,,,,,2023-08-16_09h36.57.224,HF_wild_card,2022.2.4,Win32,59.90534955,5f3be0f027d97397cfc8a000,64d2fd46c836a06233681665,64dc7c78807e6bcc56f75cde,,,,,,,sngl,resources/Empty.png,resources/DG.BMP,Door4,0.411309063,0.01510457,1,0,0,0.5315,optionRight,80,2780,2,6,0,6,0,1,,,,,,,,,,,,,,,,,,,,,,,,,,,,,,,,,,,,,,,
,,,,,,,,2023-08-16_09h36.57.224,HF_wild_card,2022.2.4,Win32,59.90534955,5f3be0f027d97397cfc8a000,64d2fd46c836a06233681665,64dc7c78807e6bcc56f75cde,,,,,,,sngl,resources/Empty.png,resources/DY.BMP,Door3,0.190549961,0.009682417,1,0,0,0.5824,optionRight,70,2850,2,7,0,7,0,1,,,,,,,,,,,,,,,,,,,,,,,,,,,,,,,,,,,,,,,
,,,,,,,,2023-08-16_09h36.57.224,HF_wild_card,2022.2.4,Win32,59.90534955,5f3be0f027d97397cfc8a000,64d2fd46c836a06233681665,64dc7c78807e6bcc56f75cde,,,,,,,decisionTrl,resources/DBN.BMP,resources/DP.BMP,Door1,0.42912471,0.02207591,1,0,0,0.5661,optionRight,30,2880,2,8,0,8,0,1,,,,,,,,,,,,,,,,,,,,,,,,,,,,,,,,,,,,,,,
,,,,,,,,2023-08-16_09h36.57.224,HF_wild_card,2022.2.4,Win32,59.90534955,5f3be0f027d97397cfc8a000,64d2fd46c836a06233681665,64dc7c78807e6bcc56f75cde,,,,,,,ctch,resources/DP.BMP,resources/DG.BMP,Door4,0.361735089,0.012006197,1,0,0,0.6495,optionRight,60,2940,2,9,0,9,0,1,,,,,,,,,,,,,,,,,,,,,,,,,,,,,,,,,,,,,,,
,,,,,,,,2023-08-16_09h36.57.224,HF_wild_card,2022.2.4,Win32,59.90534955,5f3be0f027d97397cfc8a000,64d2fd46c836a06233681665,64dc7c78807e6bcc56f75cde,,,,,,,sngl,resources/DG.BMP,resources/Empty.png,Door4,-0.258714175,-0.006584043,1,0,0,0.482,optionLeft,60,3000,2,10,0,10,0,1,,,,,,,,,,,,,,,,,,,,,,,,,,,,,,,,,,,,,,,
,,,,,,,,2023-08-16_09h36.57.224,HF_wild_card,2022.2.4,Win32,59.90534955,5f3be0f027d97397cfc8a000,64d2fd46c836a06233681665,64dc7c78807e6bcc56f75cde,,,,,,,decisionTrl,resources/DR.BMP,resources/DG.BMP,WildCard_NonEx,-0.147172734,0.01278079,1,0,0,0.7993,optionLeft,45,3045,2,11,0,11,0,1,,,,,,,,,,,,,,,,,,,,,,,,,,,,,,,,,,,,,,,
,,,,,,,,2023-08-16_09h36.57.224,HF_wild_card,2022.2.4,Win32,59.90534955,5f3be0f027d97397cfc8a000,64d2fd46c836a06233681665,64dc7c78807e6bcc56f75cde,,,,,,,ctch,resources/DY.BMP,resources/DBN.BMP,Door3,-0.386522076,-0.022850503,1,0,0,0.5665,optionLeft,70,3115,2,12,0,12,0,1,,,,,,,,,,,,,,,,,,,,,,,,,,,,,,,,,,,,,,,
,,,,,,,,2023-08-16_09h36.57.224,HF_wild_card,2022.2.4,Win32,59.90534955,5f3be0f027d97397cfc8a000,64d2fd46c836a06233681665,64dc7c78807e6bcc56f75cde,,,,,,,decisionTrl,resources/DP.BMP,resources/DBN.BMP,Door1,-0.49186677,0.025174284,1,0,0,2.035,optionLeft,30,3145,2,13,0,13,0,1,,,,,,,,,,,,,,,,,,,,,,,,,,,,,,,,,,,,,,,
,,,,,,,,2023-08-16_09h36.57.224,HF_wild_card,2022.2.4,Win32,59.90534955,5f3be0f027d97397cfc8a000,64d2fd46c836a06233681665,64dc7c78807e6bcc56f75cde,,,,,,,decisionTrl,resources/DY.BMP,resources/DG.BMP,Door4,0.54531371,0.035243997,1,0,0,0.9642,optionRight,80,3225,2,14,0,14,0,1,,,,,,,,,,,,,,,,,,,,,,,,,,,,,,,,,,,,,,,
,,,,,,,,2023-08-16_09h36.57.224,HF_wild_card,2022.2.4,Win32,59.90534955,5f3be0f027d97397cfc8a000,64d2fd46c836a06233681665,64dc7c78807e6bcc56f75cde,,,,,,,sngl,resources/DBN.BMP,resources/Empty.png,Door2,-0.261037955,0.00580945,1,0,0,0.6145,optionLeft,20,3245,2,15,0,15,0,1,,,,,,,,,,,,,,,,,,,,,,,,,,,,,,,,,,,,,,,
,,,,,,,,2023-08-16_09h36.57.224,HF_wild_card,2022.2.4,Win32,59.90534955,5f3be0f027d97397cfc8a000,64d2fd46c836a06233681665,64dc7c78807e6bcc56f75cde,,,,,,,decisionTrl,resources/DY.BMP,resources/DR.BMP,Door3,-0.232378002,-0.013555383,1,0,0,0.9663,optionLeft,70,3315,2,16,0,16,0,1,,,,,,,,,,,,,,,,,,,,,,,,,,,,,,,,,,,,,,,
,,,,,,,,2023-08-16_09h36.57.224,HF_wild_card,2022.2.4,Win32,59.90534955,5f3be0f027d97397cfc8a000,64d2fd46c836a06233681665,64dc7c78807e6bcc56f75cde,,,,,,,decisionTrl,resources/DR.BMP,resources/DY.BMP,Door3,0.341595662,0.020526723,1,0,0,0.5469,optionRight,70,3385,2,17,0,17,0,1,,,,,,,,,,,,,,,,,,,,,,,,,,,,,,,,,,,,,,,
,,,,,,,,2023-08-16_09h36.57.224,HF_wild_card,2022.2.4,Win32,59.90534955,5f3be0f027d97397cfc8a000,64d2fd46c836a06233681665,64dc7c78807e6bcc56f75cde,,,,,,,decisionTrl,resources/DG.BMP,resources/DY.BMP,Door4,-0.325329202,-0.005034857,1,0,0,0.8155,optionLeft,80,3465,2,18,0,18,0,1,,,,,,,,,,,,,,,,,,,,,,,,,,,,,,,,,,,,,,,
,,,,,,,,2023-08-16_09h36.57.224,HF_wild_card,2022.2.4,Win32,59.90534955,5f3be0f027d97397cfc8a000,64d2fd46c836a06233681665,64dc7c78807e6bcc56f75cde,,,,,,,decisionTrl,resources/DBN.BMP,resources/DP.BMP,Door2,-0.360185902,-0.00580945,1,0,0,0.8318,optionLeft,40,3505,2,19,0,19,0,1,,,,,,,,,,,,,,,,,,,,,,,,,,,,,,,,,,,,,,,
,,,,,,,,2023-08-16_09h36.57.224,HF_wild_card,2022.2.4,Win32,59.90534955,5f3be0f027d97397cfc8a000,64d2fd46c836a06233681665,64dc7c78807e6bcc56f75cde,,,,,,,ctch,resources/DBN.BMP,resources/DY.BMP,Door3,0.362509682,0.001936483,1,0,0,0.867,optionRight,70,3575,2,20,0,20,0,1,,,,,,,,,,,,,,,,,,,,,,,,,,,,,,,,,,,,,,,
,,,,,,,,2023-08-16_09h36.57.224,HF_wild_card,2022.2.4,Win32,59.90534955,5f3be0f027d97397cfc8a000,64d2fd46c836a06233681665,64dc7c78807e6bcc56f75cde,,,,,,,decisionTrl,resources/DY.BMP,resources/DG.BMP,Door4,0.446940356,0.01975213,1,0,0,0.8989,optionRight,80,3655,2,21,0,21,0,1,,,,,,,,,,,,,,,,,,,,,,,,,,,,,,,,,,,,,,,
,,,,,,,,2023-08-16_09h36.57.224,HF_wild_card,2022.2.4,Win32,59.90534955,5f3be0f027d97397cfc8a000,64d2fd46c836a06233681665,64dc7c78807e6bcc56f75cde,,,,,,,decisionTrl,resources/DY.BMP,resources/DG.BMP,Door4,0.277304415,0.022850503,1,0,0,0.6485,optionRight,80,3735,2,22,0,22,0,1,,,,,,,,,,,,,,,,,,,,,,,,,,,,,,,,,,,,,,,
,,,,,,,,2023-08-16_09h36.57.224,HF_wild_card,2022.2.4,Win32,59.90534955,5f3be0f027d97397cfc8a000,64d2fd46c836a06233681665,64dc7c78807e6bcc56f75cde,,,,,,,sngl,resources/Empty.png,resources/DP.BMP,Door1,0.336948102,0.01510457,1,0,0,0.5147,optionRight,30,3765,2,23,0,23,0,1,,,,,,,,,,,,,,,,,,,,,,,,,,,,,,,,,,,,,,,
,,,,,,,,2023-08-16_09h36.57.224,HF_wild_card,2022.2.4,Win32,59.90534955,5f3be0f027d97397cfc8a000,64d2fd46c836a06233681665,64dc7c78807e6bcc56f75cde,,,,,,,decisionTrl,resources/DP.BMP,resources/DBN.BMP,Door2,0.279628195,0.01975213,1,0,0,0.8048,optionRight,20,3785,2,24,0,24,0,1,,,,,,,,,,,,,,,,,,,,,,,,,,,,,,,,,,,,,,,
,,,,,,,,2023-08-16_09h36.57.224,HF_wild_card,2022.2.4,Win32,59.90534955,5f3be0f027d97397cfc8a000,64d2fd46c836a06233681665,64dc7c78807e6bcc56f75cde,,,,,,,sngl,resources/Empty.png,resources/DBN.BMP,Door2,0.355538342,0.02672347,1,0,0,0.533,optionRight,40,3825,2,25,0,25,0,1,,,,,,,,,,,,,,,,,,,,,,,,,,,,,,,,,,,,,,,
,,,,,,,,2023-08-16_09h36.57.224,HF_wild_card,2022.2.4,Win32,59.90534955,5f3be0f027d97397cfc8a000,64d2fd46c836a06233681665,64dc7c78807e6bcc56f75cde,,,,,,,sngl,resources/DY.BMP,resources/Empty.png,Door3,-0.250968242,0.000387297,1,0,0,0.4793,optionLeft,70,3895,2,26,0,26,0,1,,,,,,,,,,,,,,,,,,,,,,,,,,,,,,,,,,,,,,,
,,,,,,,,2023-08-16_09h36.57.224,HF_wild_card,2022.2.4,Win32,59.90534955,5f3be0f027d97397cfc8a000,64d2fd46c836a06233681665,64dc7c78807e6bcc56f75cde,,,,,,,decisionTrl,resources/DY.BMP,resources/DG.BMP,Door4,0.343144849,0.036793184,1,0,0,1.2312,optionRight,60,3955,2,27,0,27,0,1,,,,,,,,,,,,,,,,,,,,,,,,,,,,,,,,,,,,,,,
,,,,,,,,2023-08-16_09h36.57.224,HF_wild_card,2022.2.4,Win32,59.90534955,5f3be0f027d97397cfc8a000,64d2fd46c836a06233681665,64dc7c78807e6bcc56f75cde,,,,,,,decisionTrl,resources/DBN.BMP,resources/DP.BMP,Door1,0.342370256,0.021301317,1,0,0,2.3811,optionRight,30,3985,2,28,0,28,0,1,,,,,,,,,,,,,,,,,,,,,,,,,,,,,,,,,,,,,,,
,,,,,,,,2023-08-16_09h36.57.224,HF_wild_card,2022.2.4,Win32,59.90534955,5f3be0f027d97397cfc8a000,64d2fd46c836a06233681665,64dc7c78807e6bcc56f75cde,,,,,,,sngl,resources/Empty.png,resources/DR.BMP,WildCard_NonEx,0.337722696,-0.00348567,1,0,0,1.097,optionRight,45,4030,2,29,0,29,0,1,,,,,,,,,,,,,,,,,,,,,,,,,,,,,,,,,,,,,,,
,,,,,,,,2023-08-16_09h36.57.224,HF_wild_card,2022.2.4,Win32,59.90534955,5f3be0f027d97397cfc8a000,64d2fd46c836a06233681665,64dc7c78807e6bcc56f75cde,,,,,,,ctch,resources/DG.BMP,resources/DP.BMP,Door4,-0.300542215,0.030596437,1,0,0,0.7818,optionLeft,60,4090,2,30,0,30,0,1,,,,,,,,,,,,,,,,,,,,,,,,,,,,,,,,,,,,,,,
,,,,,,,,2023-08-16_09h36.57.224,HF_wild_card,2022.2.4,Win32,59.90534955,5f3be0f027d97397cfc8a000,64d2fd46c836a06233681665,64dc7c78807e6bcc56f75cde,,,,,,,decisionTrl,resources/DR.BMP,resources/DBN.BMP,WildCard_NonEx,-0.381874516,0.01510457,1,0,0,0.6472,optionLeft,55,4145,2,31,0,31,0,1,,,,,,,,,,,,,,,,,,,,,,,,,,,,,,,,,,,,,,,
,,,,,,,,2023-08-16_09h36.57.224,HF_wild_card,2022.2.4,Win32,59.90534955,5f3be0f027d97397cfc8a000,64d2fd46c836a06233681665,64dc7c78807e6bcc56f75cde,,,,,,,sngl,resources/Empty.png,resources/DR.BMP,WildCard_NonEx,0.270333075,0.035243997,1,0,0,0.766,optionRight,55,4200,2,32,0,32,0,1,,,,,,,,,,,,,,,,,,,,,,,,,,,,,,,,,,,,,,,
,,,,,,,,2023-08-16_09h36.57.224,HF_wild_card,2022.2.4,Win32,59.90534955,5f3be0f027d97397cfc8a000,64d2fd46c836a06233681665,64dc7c78807e6bcc56f75cde,,,,,,,ctch,resources/DY.BMP,resources/DBN.BMP,Door3,-0.205267235,-0.012006197,1,0,0,0.5665,optionLeft,70,4270,2,33,0,33,0,1,,,,,,,,,,,,,,,,,,,,,,,,,,,,,,,,,,,,,,,
,,,,,,,,2023-08-16_09h36.57.224,HF_wild_card,2022.2.4,Win32,59.90534955,5f3be0f027d97397cfc8a000,64d2fd46c836a06233681665,64dc7c78807e6bcc56f75cde,,,,,,,ctch,resources/DG.BMP,resources/DP.BMP,Door4,-0.207591015,-0.032920217,1,0,0,0.7331,optionLeft,80,4350,2,34,0,34,0,1,,,,,,,,,,,,,,,,,,,,,,,,,,,,,,,,,,,,,,,
,,,,,,,,2023-08-16_09h36.57.224,HF_wild_card,2022.2.4,Win32,59.90534955,5f3be0f027d97397cfc8a000,64d2fd46c836a06233681665,64dc7c78807e6bcc56f75cde,,,,,,,decisionTrl,resources/DG.BMP,resources/DR.BMP,Door4,-0.227730442,-0.018202943,1,0,0,0.5997,optionLeft,80,4430,2,35,0,35,0,1,,,,,,,,,,,,,,,,,,,,,,,,,,,,,,,,,,,,,,,
,,,,,,,,2023-08-16_09h36.57.224,HF_wild_card,2022.2.4,Win32,59.90534955,5f3be0f027d97397cfc8a000,64d2fd46c836a06233681665,64dc7c78807e6bcc56f75cde,,,,,,,decisionTrl,resources/DP.BMP,resources/DR.BMP,Door1,-0.240123935,-0.032145624,1,0,0,0.6481,optionLeft,30,4460,2,36,0,36,0,1,,,,,,,,,,,,,,,,,,,,,,,,,,,,,,,,,,,,,,,
,,,,,,,,2023-08-16_09h36.57.224,HF_wild_card,2022.2.4,Win32,59.90534955,5f3be0f027d97397cfc8a000,64d2fd46c836a06233681665,64dc7c78807e6bcc56f75cde,,,,,,,ctch,resources/DP.BMP,resources/DG.BMP,Door4,0.211463981,-0.00348567,1,0,0,0.6814,optionRight,60,4520,2,37,0,37,0,1,,,,,,,,,,,,,,,,,,,,,,,,,,,,,,,,,,,,,,,
,,,,,,,,2023-08-16_09h36.57.224,HF_wild_card,2022.2.4,Win32,59.90534955,5f3be0f027d97397cfc8a000,64d2fd46c836a06233681665,64dc7c78807e6bcc56f75cde,,,,,,,decisionTrl,resources/DP.BMP,resources/DBN.BMP,Door1,-0.248644462,-0.018977537,1,0,0,0.5839,optionLeft,30,4550,2,38,0,38,0,1,,,,,,,,,,,,,,,,,,,,,,,,,,,,,,,,,,,,,,,
,,,,,,,,2023-08-16_09h36.57.224,HF_wild_card,2022.2.4,Win32,59.90534955,5f3be0f027d97397cfc8a000,64d2fd46c836a06233681665,64dc7c78807e6bcc56f75cde,,,,,,,decisionTrl,resources/DG.BMP,resources/DY.BMP,Door3,0.383423703,0.034469404,1,0,0,1.849,optionRight,70,4620,2,39,0,39,0,1,,,,,,,,,,,,,,,,,,,,,,,,,,,,,,,,,,,,,,,
,,,,,,,,2023-08-16_09h36.57.224,HF_wild_card,2022.2.4,Win32,59.90534955,5f3be0f027d97397cfc8a000,64d2fd46c836a06233681665,64dc7c78807e6bcc56f75cde,,,,,,,sngl,resources/DR.BMP,resources/Empty.png,WildCard_NonEx,-0.281951975,-0.00580945,1,0,0,0.4986,optionLeft,45,4665,2,40,0,40,0,1,,,,,,,,,,,,,,,,,,,,,,,,,,,,,,,,,,,,,,,
,,,,,,,,2023-08-16_09h36.57.224,HF_wild_card,2022.2.4,Win32,59.90534955,5f3be0f027d97397cfc8a000,64d2fd46c836a06233681665,64dc7c78807e6bcc56f75cde,,,,,,,decisionTrl,resources/DR.BMP,resources/DP.BMP,WildCard_NonEx,-0.318357862,-0.014329977,1,0,0,0.6984,optionLeft,45,4710,2,41,0,41,0,1,,,,,,,,,,,,,,,,,,,,,,,,,,,,,,,,,,,,,,,
,,,,,,,,2023-08-16_09h36.57.224,HF_wild_card,2022.2.4,Win32,59.90534955,5f3be0f027d97397cfc8a000,64d2fd46c836a06233681665,64dc7c78807e6bcc56f75cde,,,,,,,decisionTrl,resources/DP.BMP,resources/DBN.BMP,Door1,-0.249419055,-0.008907823,1,0,0,1.1307,optionLeft,30,4740,2,42,0,42,0,1,,,,,,,,,,,,,,,,,,,,,,,,,,,,,,,,,,,,,,,
,,,,,,,,2023-08-16_09h36.57.224,HF_wild_card,2022.2.4,Win32,59.90534955,5f3be0f027d97397cfc8a000,64d2fd46c836a06233681665,64dc7c78807e6bcc56f75cde,,,,,,,decisionTrl,resources/DBN.BMP,resources/DP.BMP,Door1,0.415182029,0.03601859,1,0,0,0.5982,optionRight,30,4770,2,43,0,43,0,1,,,,,,,,,,,,,,,,,,,,,,,,,,,,,,,,,,,,,,,
,,,,,,,,2023-08-16_09h36.57.224,HF_wild_card,2022.2.4,Win32,59.90534955,5f3be0f027d97397cfc8a000,64d2fd46c836a06233681665,64dc7c78807e6bcc56f75cde,,,,,,,,,,,,,,,,,,,,,,,,,,1,0,1,0,1,,,,,,,,,,,,,,,,,,,,,,,,,,,,,,,,,,
,,,,,,,,2023-08-16_09h36.57.224,HF_wild_card,2022.2.4,Win32,59.90534955,5f3be0f027d97397cfc8a000,64d2fd46c836a06233681665,64dc7c78807e6bcc56f75cde,,,,,,,decisionTrl,resources/DBN.BMP,resources/DP.BMP,Door1,0.334624322,0.02904725,1,0,0,2.6829,optionRight,30,4800,3,0,0,0,0,1,,,,,,,,,,,,,,,,,,,,,,,,,,,,,,,,,,,,,,,
,,,,,,,,2023-08-16_09h36.57.224,HF_wild_card,2022.2.4,Win32,59.90534955,5f3be0f027d97397cfc8a000,64d2fd46c836a06233681665,64dc7c78807e6bcc56f75cde,,,,,,,decisionTrl,resources/DG.BMP,resources/DY.BMP,Door3,0.372579396,0.046088304,1,0,0,0.7321,optionRight,70,4870,3,1,0,1,0,1,,,,,,,,,,,,,,,,,,,,,,,,,,,,,,,,,,,,,,,
,,,,,,,,2023-08-16_09h36.57.224,HF_wild_card,2022.2.4,Win32,59.90534955,5f3be0f027d97397cfc8a000,64d2fd46c836a06233681665,64dc7c78807e6bcc56f75cde,,,,,,,decisionTrl,resources/DBN.BMP,resources/DP.BMP,Door1,0.42912471,0.04531371,1,0,0,0.5481,optionRight,30,4900,3,2,0,2,0,1,,,,,,,,,,,,,,,,,,,,,,,,,,,,,,,,,,,,,,,
,,,,,,,,2023-08-16_09h36.57.224,HF_wild_card,2022.2.4,Win32,59.90534955,5f3be0f027d97397cfc8a000,64d2fd46c836a06233681665,64dc7c78807e6bcc56f75cde,,,,,,,decisionTrl,resources/DG.BMP,resources/DY.BMP,Door4,-0.237025562,-0.01045701,1,0,0,0.7154,optionLeft,60,4960,3,3,0,3,0,1,,,,,,,,,,,,,,,,,,,,,,,,,,,,,,,,,,,,,,,
,,,,,,,,2023-08-16_09h36.57.224,HF_wild_card,2022.2.4,Win32,59.90534955,5f3be0f027d97397cfc8a000,64d2fd46c836a06233681665,64dc7c78807e6bcc56f75cde,,,,,,,sngl,resources/Empty.png,resources/DY.BMP,Door3,0.300542215,0.004260263,1,0,0,0.5815,optionRight,70,5030,3,4,0,4,0,1,,,,,,,,,,,,,,,,,,,,,,,,,,,,,,,,,,,,,,,
,,,,,,,,2023-08-16_09h36.57.224,HF_wild_card,2022.2.4,Win32,59.90534955,5f3be0f027d97397cfc8a000,64d2fd46c836a06233681665,64dc7c78807e6bcc56f75cde,,,,,,,decisionTrl,resources/DR.BMP,resources/DY.BMP,Door3,0.276529822,0.002711077,1,0,0,0.7326,optionRight,70,5100,3,5,0,5,0,1,,,,,,,,,,,,,,,,,,,,,,,,,,,,,,,,,,,,,,,
,,,,,,,,2023-08-16_09h36.57.224,HF_wild_card,2022.2.4,Win32,59.90534955,5f3be0f027d97397cfc8a000,64d2fd46c836a06233681665,64dc7c78807e6bcc56f75cde,,,,,,,sngl,resources/Empty.png,resources/DR.BMP,WildCard_NonEx,0.531408904,0.020334015,1,0,0,0.6018,optionRight,55,5155,3,6,0,6,0,1,,,,,,,,,,,,,,,,,,,,,,,,,,,,,,,,,,,,,,,
,,,,,,,,2023-08-16_09h36.57.224,HF_wild_card,2022.2.4,Win32,59.90534955,5f3be0f027d97397cfc8a000,64d2fd46c836a06233681665,64dc7c78807e6bcc56f75cde,,,,,,,decisionTrl,resources/DR.BMP,resources/DP.BMP,WildCard_NonEx,-0.25,-0.009440836,1,0,0,0.532,optionLeft,55,5210,3,7,0,7,0,1,,,,,,,,,,,,,,,,,,,,,,,,,,,,,,,,,,,,,,,
,,,,,,,,2023-08-16_09h36.57.224,HF_wild_card,2022.2.4,Win32,59.90534955,5f3be0f027d97397cfc8a000,64d2fd46c836a06233681665,64dc7c78807e6bcc56f75cde,,,,,,,sngl,resources/Empty.png,resources/DG.BMP,Door4,0.280864242,-0.001452477,1,0,0,0.4317,optionRight,60,5270,3,8,0,8,0,1,,,,,,,,,,,,,,,,,,,,,,,,,,,,,,,,,,,,,,,
,,,,,,,,2023-08-16_09h36.57.224,HF_wild_card,2022.2.4,Win32,59.90534955,5f3be0f027d97397cfc8a000,64d2fd46c836a06233681665,64dc7c78807e6bcc56f75cde,,,,,,,ctch,resources/DBN.BMP,resources/DY.BMP,Door3,0.264887525,0.006535948,1,0,0,0.548,optionRight,70,5340,3,9,0,9,0,1,,,,,,,,,,,,,,,,,,,,,,,,,,,,,,,,,,,,,,,
,,,,,,,,2023-08-16_09h36.57.224,HF_wild_card,2022.2.4,Win32,59.90534955,5f3be0f027d97397cfc8a000,64d2fd46c836a06233681665,64dc7c78807e6bcc56f75cde,,,,,,,sngl,resources/DBN.BMP,resources/Empty.png,Door2,-0.207879426,0.002904821,1,0,0,0.6655,optionLeft,40,5380,3,10,0,10,0,1,,,,,,,,,,,,,,,,,,,,,,,,,,,,,,,,,,,,,,,
,,,,,,,,2023-08-16_09h36.57.224,HF_wild_card,2022.2.4,Win32,59.90534955,5f3be0f027d97397cfc8a000,64d2fd46c836a06233681665,64dc7c78807e6bcc56f75cde,,,,,,,decisionTrl,resources/DR.BMP,resources/DG.BMP,Door4,0.28013807,0.002904821,1,0,0,1.163,optionRight,80,5460,3,11,0,11,0,1,,,,,,,,,,,,,,,,,,,,,,,,,,,,,,,,,,,,,,,
,,,,,,,,2023-08-16_09h36.57.224,HF_wild_card,2022.2.4,Win32,59.90534955,5f3be0f027d97397cfc8a000,64d2fd46c836a06233681665,64dc7c78807e6bcc56f75cde,,,,,,,decisionTrl,resources/DY.BMP,resources/DG.BMP,Door4,0.242374728,-0.000726239,1,0,0,0.8204,optionRight,60,5520,3,12,0,12,0,1,,,,,,,,,,,,,,,,,,,,,,,,,,,,,,,,,,,,,,,
,,,,,,,,2023-08-16_09h36.57.224,HF_wild_card,2022.2.4,Win32,59.90534955,5f3be0f027d97397cfc8a000,64d2fd46c836a06233681665,64dc7c78807e6bcc56f75cde,,,,,,,sngl,resources/DP.BMP,resources/Empty.png,Door1,-0.256535948,-0.022512731,1,0,0,0.4662,optionLeft,30,5550,3,13,0,13,0,1,,,,,,,,,,,,,,,,,,,,,,,,,,,,,,,,,,,,,,,
,,,,,,,,2023-08-16_09h36.57.224,HF_wild_card,2022.2.4,Win32,59.90534955,5f3be0f027d97397cfc8a000,64d2fd46c836a06233681665,64dc7c78807e6bcc56f75cde,,,,,,,decisionTrl,resources/DBN.BMP,resources/DR.BMP,WildCard_NonEx,0.20025422,0.00726212,1,0,0,0.6157,optionRight,55,5605,3,14,0,14,0,1,,,,,,,,,,,,,,,,,,,,,,,,,,,,,,,,,,,,,,,
,,,,,,,,2023-08-16_09h36.57.224,HF_wild_card,2022.2.4,Win32,59.90534955,5f3be0f027d97397cfc8a000,64d2fd46c836a06233681665,64dc7c78807e6bcc56f75cde,,,,,,,decisionTrl,resources/DY.BMP,resources/DG.BMP,Door3,-0.22167756,-0.005083537,1,0,0,1.5167,optionLeft,70,5675,3,15,0,15,0,1,,,,,,,,,,,,,,,,,,,,,,,,,,,,,,,,,,,,,,,
,,,,,,,,2023-08-16_09h36.57.224,HF_wild_card,2022.2.4,Win32,59.90534955,5f3be0f027d97397cfc8a000,64d2fd46c836a06233681665,64dc7c78807e6bcc56f75cde,,,,,,,decisionTrl,resources/DP.BMP,resources/DBN.BMP,Door1,-0.170842389,-0.016703022,1,0,0,0.8493,optionLeft,30,5705,3,16,0,16,0,1,,,,,,,,,,,,,,,,,,,,,,,,,,,,,,,,,,,,,,,
,,,,,,,,2023-08-16_09h36.57.224,HF_wild_card,2022.2.4,Win32,59.90534955,5f3be0f027d97397cfc8a000,64d2fd46c836a06233681665,64dc7c78807e6bcc56f75cde,,,,,,,sngl,resources/Empty.png,resources/DR.BMP,WildCard_NonEx,0.328794525,0.010167008,1,0,0,0.4314,optionRight,45,5750,3,17,0,17,0,1,,,,,,,,,,,,,,,,,,,,,,,,,,,,,,,,,,,,,,,
,,,,,,,,2023-08-16_09h36.57.224,HF_wild_card,2022.2.4,Win32,59.90534955,5f3be0f027d97397cfc8a000,64d2fd46c836a06233681665,64dc7c78807e6bcc56f75cde,,,,,,,decisionTrl,resources/DR.BMP,resources/DBN.BMP,WildCard_NonEx,-0.150508307,-0.011619485,1,0,0,0.5655,optionLeft,55,5805,3,18,0,18,0,1,,,,,,,,,,,,,,,,,,,,,,,,,,,,,,,,,,,,,,,
,,,,,,,,2023-08-16_09h36.57.224,HF_wild_card,2022.2.4,Win32,59.90534955,5f3be0f027d97397cfc8a000,64d2fd46c836a06233681665,64dc7c78807e6bcc56f75cde,,,,,,,decisionTrl,resources/DP.BMP,resources/DBN.BMP,Door1,-0.08514883,-0.013798134,1,0,0,0.6003,optionLeft,30,5835,3,19,0,19,0,1,,,,,,,,,,,,,,,,,,,,,,,,,,,,,,,,,,,,,,,
,,,,,,,,2023-08-16_09h36.57.224,HF_wild_card,2022.2.4,Win32,59.90534955,5f3be0f027d97397cfc8a000,64d2fd46c836a06233681665,64dc7c78807e6bcc56f75cde,,,,,,,decisionTrl,resources/DP.BMP,resources/DBN.BMP,Door1,-0.152686956,-0.015976783,1,0,0,0.6659,optionLeft,30,5865,3,20,0,20,0,1,,,,,,,,,,,,,,,,,,,,,,,,,,,,,,,,,,,,,,,
,,,,,,,,2023-08-16_09h36.57.224,HF_wild_card,2022.2.4,Win32,59.90534955,5f3be0f027d97397cfc8a000,64d2fd46c836a06233681665,64dc7c78807e6bcc56f75cde,,,,,,,decisionTrl,resources/DP.BMP,resources/DR.BMP,WildCard_NonEx,0.215504765,0.0319535,1,0,0,1.0329,optionRight,45,5910,3,21,0,21,0,1,,,,,,,,,,,,,,,,,,,,,,,,,,,,,,,,,,,,,,,
,,,,,,,,2023-08-16_09h36.57.224,HF_wild_card,2022.2.4,Win32,59.90534955,5f3be0f027d97397cfc8a000,64d2fd46c836a06233681665,64dc7c78807e6bcc56f75cde,,,,,,,ctch,resources/DY.BMP,resources/DBN.BMP,Door3,-0.129448053,-0.000726239,1,0,0,0.6489,optionLeft,70,5980,3,22,0,22,0,1,,,,,,,,,,,,,,,,,,,,,,,,,,,,,,,,,,,,,,,
,,,,,,,,2023-08-16_09h36.57.224,HF_wild_card,2022.2.4,Win32,59.90534955,5f3be0f027d97397cfc8a000,64d2fd46c836a06233681665,64dc7c78807e6bcc56f75cde,,,,,,,decisionTrl,resources/DBN.BMP,resources/DP.BMP,Door1,0.446441584,-0.002904888,1,0,0,0.7649,optionRight,30,6010,3,23,0,23,0,1,,,,,,,,,,,,,,,,,,,,,,,,,,,,,,,,,,,,,,,
,,,,,,,,2023-08-16_09h36.57.224,HF_wild_card,2022.2.4,Win32,59.90534955,5f3be0f027d97397cfc8a000,64d2fd46c836a06233681665,64dc7c78807e6bcc56f75cde,,,,,,,sngl,resources/Empty.png,resources/DBN.BMP,Door2,0.301198257,-0.002904888,1,0,0,0.465,optionRight,20,6030,3,24,0,24,0,1,,,,,,,,,,,,,,,,,,,,,,,,,,,,,,,,,,,,,,,
,,,,,,,,2023-08-16_09h36.57.224,HF_wild_card,2022.2.4,Win32,59.90534955,5f3be0f027d97397cfc8a000,64d2fd46c836a06233681665,64dc7c78807e6bcc56f75cde,,,,,,,sngl,resources/DG.BMP,resources/Empty.png,Door4,-0.093137255,0.005809709,1,0,0,0.4985,optionLeft,80,6110,3,25,0,25,0,1,,,,,,,,,,,,,,,,,,,,,,,,,,,,,,,,,,,,,,,
,,,,,,,,2023-08-16_09h36.57.224,HF_wild_card,2022.2.4,Win32,59.90534955,5f3be0f027d97397cfc8a000,64d2fd46c836a06233681665,64dc7c78807e6bcc56f75cde,,,,,,,ctch,resources/DP.BMP,resources/DG.BMP,Door4,0.304829383,0.020334015,1,0,0,0.6994,optionRight,60,6170,3,26,0,26,0,1,,,,,,,,,,,,,,,,,,,,,,,,,,,,,,,,,,,,,,,
,,,,,,,,2023-08-16_09h36.57.224,HF_wild_card,2022.2.4,Win32,59.90534955,5f3be0f027d97397cfc8a000,64d2fd46c836a06233681665,64dc7c78807e6bcc56f75cde,,,,,,,decisionTrl,resources/DY.BMP,resources/DR.BMP,Door3,-0.181735635,-0.013071895,1,0,0,0.6488,optionLeft,70,6240,3,27,0,27,0,1,,,,,,,,,,,,,,,,,,,,,,,,,,,,,,,,,,,,,,,
,,,,,,,,2023-08-16_09h36.57.224,HF_wild_card,2022.2.4,Win32,59.90534955,5f3be0f027d97397cfc8a000,64d2fd46c836a06233681665,64dc7c78807e6bcc56f75cde,,,,,,,ctch,resources/DBN.BMP,resources/DY.BMP,Door3,0.354212144,0.033405911,1,0,0,0.5324,optionRight,70,6310,3,28,0,28,0,1,,,,,,,,,,,,,,,,,,,,,,,,,,,,,,,,,,,,,,,
,,,,,,,,2023-08-16_09h36.57.224,HF_wild_card,2022.2.4,Win32,59.90534955,5f3be0f027d97397cfc8a000,64d2fd46c836a06233681665,64dc7c78807e6bcc56f75cde,,,,,,,decisionTrl,resources/DY.BMP,resources/DG.BMP,Door3,-0.238380515,0.002904821,1,0,0,1.199,optionLeft,70,6380,3,29,0,29,0,1,,,,,,,,,,,,,,,,,,,,,,,,,,,,,,,,,,,,,,,
,,,,,,,,2023-08-16_09h36.57.224,HF_wild_card,2022.2.4,Win32,59.90534955,5f3be0f027d97397cfc8a000,64d2fd46c836a06233681665,64dc7c78807e6bcc56f75cde,,,,,,,ctch,resources/DG.BMP,resources/DP.BMP,Door4,-0.319716776,-0.018881671,1,0,0,0.6823,optionLeft,60,6440,3,30,0,30,0,1,,,,,,,,,,,,,,,,,,,,,,,,,,,,,,,,,,,,,,,
,,,,,,,,2023-08-16_09h36.57.224,HF_wild_card,2022.2.4,Win32,59.90534955,5f3be0f027d97397cfc8a000,64d2fd46c836a06233681665,64dc7c78807e6bcc56f75cde,,,,,,,sngl,resources/DR.BMP,resources/Empty.png,WildCard_NonEx,-0.182461874,-0.007988425,1,0,0,0.5323,optionLeft,45,6485,3,31,0,31,0,1,,,,,,,,,,,,,,,,,,,,,,,,,,,,,,,,,,,,,,,
,,,,,,,,2023-08-16_09h36.57.224,HF_wild_card,2022.2.4,Win32,59.90534955,5f3be0f027d97397cfc8a000,64d2fd46c836a06233681665,64dc7c78807e6bcc56f75cde,,,,,,,ctch,resources/DG.BMP,resources/DP.BMP,Door4,-0.139615061,-0.007262186,1,0,0,0.9607,optionLeft,80,6565,3,32,0,32,0,1,,,,,,,,,,,,,,,,,,,,,,,,,,,,,,,,,,,,,,,
,,,,,,,,2023-08-16_09h36.57.224,HF_wild_card,2022.2.4,Win32,59.90534955,5f3be0f027d97397cfc8a000,64d2fd46c836a06233681665,64dc7c78807e6bcc56f75cde,,,,,,,decisionTrl,resources/DG.BMP,resources/DY.BMP,Door3,0.170479303,0.005809709,1,0,0,0.833,optionRight,70,6635,3,33,0,33,0,1,,,,,,,,,,,,,,,,,,,,,,,,,,,,,,,,,,,,,,,
,,,,,,,,2023-08-16_09h36.57.224,HF_wild_card,2022.2.4,Win32,59.90534955,5f3be0f027d97397cfc8a000,64d2fd46c836a06233681665,64dc7c78807e6bcc56f75cde,,,,,,,sngl,resources/Empty.png,resources/DP.BMP,Door1,0.264887525,0.00726212,1,0,0,0.5153,optionRight,30,6665,3,34,0,34,0,1,,,,,,,,,,,,,,,,,,,,,,,,,,,,,,,,,,,,,,,
,,,,,,,,2023-08-16_09h36.57.224,HF_wild_card,2022.2.4,Win32,59.90534955,5f3be0f027d97397cfc8a000,64d2fd46c836a06233681665,64dc7c78807e6bcc56f75cde,,,,,,,decisionTrl,resources/DG.BMP,resources/DR.BMP,Door4,-0.205700777,0.006535948,1,0,0,0.5824,optionLeft,60,6725,3,35,0,35,0,1,,,,,,,,,,,,,,,,,,,,,,,,,,,,,,,,,,,,,,,
,,,,,,,,2023-08-16_09h36.57.224,HF_wild_card,2022.2.4,Win32,59.90534955,5f3be0f027d97397cfc8a000,64d2fd46c836a06233681665,64dc7c78807e6bcc56f75cde,,,,,,,decisionTrl,resources/DY.BMP,resources/DG.BMP,Door3,-0.143972359,-0.004357298,1,0,0,0.8046,optionLeft,70,6795,3,36,0,36,0,1,,,,,,,,,,,,,,,,,,,,,,,,,,,,,,,,,,,,,,,
,,,,,,,,2023-08-16_09h36.57.224,HF_wild_card,2022.2.4,Win32,59.90534955,5f3be0f027d97397cfc8a000,64d2fd46c836a06233681665,64dc7c78807e6bcc56f75cde,,,,,,,ctch,resources/DP.BMP,resources/DG.BMP,Door4,0.28740019,0.012345657,1,0,0,0.5652,optionRight,80,6875,3,37,0,37,0,1,,,,,,,,,,,,,,,,,,,,,,,,,,,,,,,,,,,,,,,
,,,,,,,,2023-08-16_09h36.57.224,HF_wild_card,2022.2.4,Win32,59.90534955,5f3be0f027d97397cfc8a000,64d2fd46c836a06233681665,64dc7c78807e6bcc56f75cde,,,,,,,decisionTrl,resources/DG.BMP,resources/DY.BMP,Door3,0.432643516,0.026869963,1,0,0,0.9832,optionRight,70,6945,3,38,0,38,0,1,,,,,,,,,,,,,,,,,,,,,,,,,,,,,,,,,,,,,,,
,,,,,,,,2023-08-16_09h36.57.224,HF_wild_card,2022.2.4,Win32,59.90534955,5f3be0f027d97397cfc8a000,64d2fd46c836a06233681665,64dc7c78807e6bcc56f75cde,,,,,,,decisionTrl,resources/DBN.BMP,resources/DP.BMP,Door1,0.28013807,0.022512664,1,0,0,0.8544,optionRight,30,6975,3,39,0,39,0,1,,,,,,,,,,,,,,,,,,,,,,,,,,,,,,,,,,,,,,,
,,,,,,,,2023-08-16_09h36.57.224,HF_wild_card,2022.2.4,Win32,59.90534955,5f3be0f027d97397cfc8a000,64d2fd46c836a06233681665,64dc7c78807e6bcc56f75cde,,,,,,,ctch,resources/DY.BMP,resources/DBN.BMP,Door3,-0.40758895,-0.011619485,1,0,0,0.5433,optionLeft,70,7045,3,40,0,40,0,1,,,,,,,,,,,,,,,,,,,,,,,,,,,,,,,,,,,,,,,
,,,,,,,,2023-08-16_09h36.57.224,HF_wild_card,2022.2.4,Win32,59.90534955,5f3be0f027d97397cfc8a000,64d2fd46c836a06233681665,64dc7c78807e6bcc56f75cde,,,,,,,sngl,resources/DY.BMP,resources/Empty.png,Door3,-0.467138685,-0.001452477,1,0,0,0.4327,optionLeft,70,7115,3,41,0,41,0,1,,,,,,,,,,,,,,,,,,,,,,,,,,,,,,,,,,,,,,,
,,,,,,,,2023-08-16_09h36.57.224,HF_wild_card,2022.2.4,Win32,59.90534955,5f3be0f027d97397cfc8a000,64d2fd46c836a06233681665,64dc7c78807e6bcc56f75cde,,,,,,,sngl,resources/DR.BMP,resources/Empty.png,WildCard_NonEx,-0.173021038,-0.003631126,1,0,0,0.4989,optionLeft,55,7170,3,42,0,42,0,1,,,,,,,,,,,,,,,,,,,,,,,,,,,,,,,,,,,,,,,
,,,,,,,,2023-08-16_09h36.57.224,HF_wild_card,2022.2.4,Win32,59.90534955,5f3be0f027d97397cfc8a000,64d2fd46c836a06233681665,64dc7c78807e6bcc56f75cde,,,,,,,decisionTrl,resources/DP.BMP,resources/DBN.BMP,Door1,-0.218046434,0.004357298,1,0,0,0.8495,optionLeft,30,7200,3,43,0,43,0,1,,,,,,,,,,,,,,,,,,,,,,,,,,,,,,,,,,,,,,,
,,,,,,,,2023-08-16_09h36.57.224,HF_wild_card,2022.2.4,Win32,59.90534955,5f3be0f027d97397cfc8a000,64d2fd46c836a06233681665,64dc7c78807e6bcc56f75cde,,,,,,,,,,,,,,,,,,,,,,,,,,2,0,2,0,1,,,,,,,,,,,,,,,,,,,,,,,,,,,,,,,,,,
,,,,,,,,2023-08-16_09h36.57.224,HF_wild_card,2022.2.4,Win32,59.90534955,5f3be0f027d97397cfc8a000,64d2fd46c836a06233681665,64dc7c78807e6bcc56f75cde,,,,,,,ctch,resources/DP.BMP,resources/DG.BMP,Door4,0.223082881,-0.064678544,1,0,0,0.7594,optionRight,80,7280,4,0,0,0,0,1,,,,,,,,,,,,,,,,,,,,,,,,,,,,,,,,,,,,,,,
,,,,,,,,2023-08-16_09h36.57.224,HF_wild_card,2022.2.4,Win32,59.90534955,5f3be0f027d97397cfc8a000,64d2fd46c836a06233681665,64dc7c78807e6bcc56f75cde,,,,,,,sngl,resources/Empty.png,resources/DB.BMP,WildCard_Ex,0.200619675,0.009682417,1,0,0,0.5174,optionRight,45,7325,4,1,0,1,0,1,,,,,,,,,,,,,,,,,,,,,,,,,,,,,,,,,,,,,,,
,,,,,,,,2023-08-16_09h36.57.224,HF_wild_card,2022.2.4,Win32,59.90534955,5f3be0f027d97397cfc8a000,64d2fd46c836a06233681665,64dc7c78807e6bcc56f75cde,,,,,,,decisionTrl,resources/DB.BMP,resources/DP.BMP,WildCard_Ex,-0.298218435,0.03834237,1,0,0,0.4754,optionLeft,45,7370,4,2,0,2,0,1,,,,,,,,,,,,,,,,,,,,,,,,,,,,,,,,,,,,,,,
,,,,,,,,2023-08-16_09h36.57.224,HF_wild_card,2022.2.4,Win32,59.90534955,5f3be0f027d97397cfc8a000,64d2fd46c836a06233681665,64dc7c78807e6bcc56f75cde,,,,,,,ctch,resources/DG.BMP,resources/DP.BMP,Door4,-0.179705655,0.01742835,1,0,0,1.0695,optionLeft,60,7430,4,3,0,3,0,1,,,,,,,,,,,,,,,,,,,,,,,,,,,,,,,,,,,,,,,
,,,,,,,,2023-08-16_09h36.57.224,HF_wild_card,2022.2.4,Win32,59.90534955,5f3be0f027d97397cfc8a000,64d2fd46c836a06233681665,64dc7c78807e6bcc56f75cde,,,,,,,ctch,resources/DBN.BMP,resources/DY.BMP,Door3,0.270333075,0.032145624,1,0,0,0.682,optionRight,70,7500,4,4,0,4,0,1,,,,,,,,,,,,,,,,,,,,,,,,,,,,,,,,,,,,,,,
,,,,,,,,2023-08-16_09h36.57.224,HF_wild_card,2022.2.4,Win32,59.90534955,5f3be0f027d97397cfc8a000,64d2fd46c836a06233681665,64dc7c78807e6bcc56f75cde,,,,,,,ctch,resources/DG.BMP,resources/DP.BMP,Door4,-0.201394268,-0.023625097,1,0,0,0.8682,optionLeft,60,7560,4,5,0,5,0,1,,,,,,,,,,,,,,,,,,,,,,,,,,,,,,,,,,,,,,,
,,,,,,,,2023-08-16_09h36.57.224,HF_wild_card,2022.2.4,Win32,59.90534955,5f3be0f027d97397cfc8a000,64d2fd46c836a06233681665,64dc7c78807e6bcc56f75cde,,,,,,,decisionTrl,resources/DP.BMP,resources/DBN.BMP,Door1,-0.323780015,0.011231603,1,0,0,0.5493,optionLeft,30,7590,4,6,0,6,0,1,,,,,,,,,,,,,,,,,,,,,,,,,,,,,,,,,,,,,,,
,,,,,,,,2023-08-16_09h36.57.224,HF_wild_card,2022.2.4,Win32,59.90534955,5f3be0f027d97397cfc8a000,64d2fd46c836a06233681665,64dc7c78807e6bcc56f75cde,,,,,,,decisionTrl,resources/DB.BMP,resources/DG.BMP,Door4,0.195197521,-0.00580945,1,0,0,1.1854,optionRight,80,7670,4,7,0,7,0,1,,,,,,,,,,,,,,,,,,,,,,,,,,,,,,,,,,,,,,,
,,,,,,,,2023-08-16_09h36.57.224,HF_wild_card,2022.2.4,Win32,59.90534955,5f3be0f027d97397cfc8a000,64d2fd46c836a06233681665,64dc7c78807e6bcc56f75cde,,,,,,,sngl,resources/DY.BMP,resources/Empty.png,Door3,-0.45468629,-0.013555383,1,0,0,0.6341,optionLeft,70,7740,4,8,0,8,0,1,,,,,,,,,,,,,,,,,,,,,,,,,,,,,,,,,,,,,,,
,,,,,,,,2023-08-16_09h36.57.224,HF_wild_card,2022.2.4,Win32,59.90534955,5f3be0f027d97397cfc8a000,64d2fd46c836a06233681665,64dc7c78807e6bcc56f75cde,,,,,,,sngl,resources/DG.BMP,resources/Empty.png,Door4,-0.125484121,0.00116189,1,0,0,0.5152,optionLeft,60,7800,4,9,0,9,0,1,,,,,,,,,,,,,,,,,,,,,,,,,,,,,,,,,,,,,,,
,,,,,,,,2023-08-16_09h36.57.224,HF_wild_card,2022.2.4,Win32,59.90534955,5f3be0f027d97397cfc8a000,64d2fd46c836a06233681665,64dc7c78807e6bcc56f75cde,,,,,,,sngl,resources/Empty.png,resources/DG.BMP,Door4,0.265685515,0.025948877,1,0,0,0.4491,optionRight,80,7880,4,10,0,10,0,1,,,,,,,,,,,,,,,,,,,,,,,,,,,,,,,,,,,,,,,
,,,,,,,,2023-08-16_09h36.57.224,HF_wild_card,2022.2.4,Win32,59.90534955,5f3be0f027d97397cfc8a000,64d2fd46c836a06233681665,64dc7c78807e6bcc56f75cde,,,,,,,decisionTrl,resources/DY.BMP,resources/DG.BMP,Door4,0.151820294,0.015879163,1,0,0,1.0022,optionRight,80,7960,4,11,0,11,0,1,,,,,,,,,,,,,,,,,,,,,,,,,,,,,,,,,,,,,,,
,,,,,,,,2023-08-16_09h36.57.224,HF_wild_card,2022.2.4,Win32,59.90534955,5f3be0f027d97397cfc8a000,64d2fd46c836a06233681665,64dc7c78807e6bcc56f75cde,,,,,,,sngl,resources/Empty.png,resources/DP.BMP,Door1,0.285824942,0.012006197,1,0,0,0.4825,optionRight,30,7990,4,12,0,12,0,1,,,,,,,,,,,,,,,,,,,,,,,,,,,,,,,,,,,,,,,
,,,,,,,,2023-08-16_09h36.57.224,HF_wild_card,2022.2.4,Win32,59.90534955,5f3be0f027d97397cfc8a000,64d2fd46c836a06233681665,64dc7c78807e6bcc56f75cde,,,,,,,decisionTrl,resources/DY.BMP,resources/DG.BMP,Door4,0.321456235,0.00580945,1,0,0,0.9167,optionRight,80,8070,4,13,0,13,0,1,,,,,,,,,,,,,,,,,,,,,,,,,,,,,,,,,,,,,,,
,,,,,,,,2023-08-16_09h36.57.224,HF_wild_card,2022.2.4,Win32,59.90534955,5f3be0f027d97397cfc8a000,64d2fd46c836a06233681665,64dc7c78807e6bcc56f75cde,,,,,,,sngl,resources/DB.BMP,resources/Empty.png,WildCard_Ex,-0.343144849,-0.018202943,1,0,0,0.4338,optionLeft,55,8125,4,14,0,14,0,1,,,,,,,,,,,,,,,,,,,,,,,,,,,,,,,,,,,,,,,
,,,,,,,,2023-08-16_09h36.57.224,HF_wild_card,2022.2.4,Win32,59.90534955,5f3be0f027d97397cfc8a000,64d2fd46c836a06233681665,64dc7c78807e6bcc56f75cde,,,,,,,decisionTrl,resources/DG.BMP,resources/DY.BMP,Door4,-0.136328428,-0.021301317,1,0,0,1.1802,optionLeft,60,8185,4,15,0,15,0,1,,,,,,,,,,,,,,,,,,,,,,,,,,,,,,,,,,,,,,,
,,,,,,,,2023-08-16_09h36.57.224,HF_wild_card,2022.2.4,Win32,59.90534955,5f3be0f027d97397cfc8a000,64d2fd46c836a06233681665,64dc7c78807e6bcc56f75cde,,,,,,,sngl,resources/Empty.png,resources/DBN.BMP,Door2,0.218435321,-0.002711077,1,0,0,0.4326,optionRight,40,8225,4,16,0,16,0,1,,,,,,,,,,,,,,,,,,,,,,,,,,,,,,,,,,,,,,,
,,,,,,,,2023-08-16_09h36.57.224,HF_wild_card,2022.2.4,Win32,59.90534955,5f3be0f027d97397cfc8a000,64d2fd46c836a06233681665,64dc7c78807e6bcc56f75cde,,,,,,,decisionTrl,resources/DG.BMP,resources/DY.BMP,Door3,0.266460108,0.012006197,1,0,0,0.7851,optionRight,70,8295,4,17,0,17,0,1,,,,,,,,,,,,,,,,,,,,,,,,,,,,,,,,,,,,,,,
,,,,,,,,2023-08-16_09h36.57.224,HF_wild_card,2022.2.4,Win32,59.90534955,5f3be0f027d97397cfc8a000,64d2fd46c836a06233681665,64dc7c78807e6bcc56f75cde,,,,,,,decisionTrl,resources/DP.BMP,resources/DBN.BMP,Door2,0.165762974,0.053059644,1,0,0,1.3509,optionRight,20,8315,4,18,0,18,0,1,,,,,,,,,,,,,,,,,,,,,,,,,,,,,,,,,,,,,,,
,,,,,,,,2023-08-16_09h36.57.224,HF_wild_card,2022.2.4,Win32,59.90534955,5f3be0f027d97397cfc8a000,64d2fd46c836a06233681665,64dc7c78807e6bcc56f75cde,,,,,,,decisionTrl,resources/DBN.BMP,resources/DB.BMP,WildCard_Ex,0.345468629,0.018977537,1,0,0,1.0022,optionRight,55,8370,4,19,0,19,0,1,,,,,,,,,,,,,,,,,,,,,,,,,,,,,,,,,,,,,,,
,,,,,,,,2023-08-16_09h36.57.224,HF_wild_card,2022.2.4,Win32,59.90534955,5f3be0f027d97397cfc8a000,64d2fd46c836a06233681665,64dc7c78807e6bcc56f75cde,,,,,,,decisionTrl,resources/DP.BMP,resources/DBN.BMP,Door1,-0.158017041,-0.00348567,1,0,0,0.7351,optionLeft,30,8400,4,20,0,20,0,1,,,,,,,,,,,,,,,,,,,,,,,,,,,,,,,,,,,,,,,
,,,,,,,,2023-08-16_09h36.57.224,HF_wild_card,2022.2.4,Win32,59.90534955,5f3be0f027d97397cfc8a000,64d2fd46c836a06233681665,64dc7c78807e6bcc56f75cde,,,,,,,decisionTrl,resources/DG.BMP,resources/DY.BMP,Door3,0.305189775,0.007358637,1,0,0,1.2199,optionRight,70,8470,4,21,0,21,0,1,,,,,,,,,,,,,,,,,,,,,,,,,,,,,,,,,,,,,,,
,,,,,,,,2023-08-16_09h36.57.224,HF_wild_card,2022.2.4,Win32,59.90534955,5f3be0f027d97397cfc8a000,64d2fd46c836a06233681665,64dc7c78807e6bcc56f75cde,,,,,,,decisionTrl,resources/DB.BMP,resources/DY.BMP,WildCard_Ex,-0.323005422,0.032145624,1,0,0,0.8873,optionLeft,45,8515,4,22,0,22,0,1,,,,,,,,,,,,,,,,,,,,,,,,,,,,,,,,,,,,,,,
,,,,,,,,2023-08-16_09h36.57.224,HF_wild_card,2022.2.4,Win32,59.90534955,5f3be0f027d97397cfc8a000,64d2fd46c836a06233681665,64dc7c78807e6bcc56f75cde,,,,,,,sngl,resources/DBN.BMP,resources/Empty.png,Door2,-0.276529822,-0.02904725,1,0,0,0.5713,optionLeft,20,8535,4,23,0,23,0,1,,,,,,,,,,,,,,,,,,,,,,,,,,,,,,,,,,,,,,,
,,,,,,,,2023-08-16_09h36.57.224,HF_wild_card,2022.2.4,Win32,59.90534955,5f3be0f027d97397cfc8a000,64d2fd46c836a06233681665,64dc7c78807e6bcc56f75cde,,,,,,,sngl,resources/Empty.png,resources/DY.BMP,Door3,0.311386522,-0.004260263,1,0,0,0.5316,optionRight,70,8605,4,24,0,24,0,1,,,,,,,,,,,,,,,,,,,,,,,,,,,,,,,,,,,,,,,
,,,,,,,,2023-08-16_09h36.57.224,HF_wild_card,2022.2.4,Win32,59.90534955,5f3be0f027d97397cfc8a000,64d2fd46c836a06233681665,64dc7c78807e6bcc56f75cde,,,,,,,ctch,resources/DY.BMP,resources/DBN.BMP,Door3,-0.199070488,-0.008907823,1,0,0,0.7351,optionLeft,70,8675,4,25,0,25,0,1,,,,,,,,,,,,,,,,,,,,,,,,,,,,,,,,,,,,,,,
,,,,,,,,2023-08-16_09h36.57.224,HF_wild_card,2022.2.4,Win32,59.90534955,5f3be0f027d97397cfc8a000,64d2fd46c836a06233681665,64dc7c78807e6bcc56f75cde,,,,,,,sngl,resources/DP.BMP,resources/Empty.png,Door1,-0.268783888,-0.008907823,1,0,0,0.4827,optionLeft,30,8705,4,26,0,26,0,1,,,,,,,,,,,,,,,,,,,,,,,,,,,,,,,,,,,,,,,
,,,,,,,,2023-08-16_09h36.57.224,HF_wild_card,2022.2.4,Win32,59.90534955,5f3be0f027d97397cfc8a000,64d2fd46c836a06233681665,64dc7c78807e6bcc56f75cde,,,,,,,decisionTrl,resources/DBN.BMP,resources/DP.BMP,Door1,0.304415182,0.01045701,1,0,0,0.6663,optionRight,30,8735,4,27,0,27,0,1,,,,,,,,,,,,,,,,,,,,,,,,,,,,,,,,,,,,,,,
,,,,,,,,2023-08-16_09h36.57.224,HF_wild_card,2022.2.4,Win32,59.90534955,5f3be0f027d97397cfc8a000,64d2fd46c836a06233681665,64dc7c78807e6bcc56f75cde,,,,,,,decisionTrl,resources/DG.BMP,resources/DY.BMP,Door3,0.236250968,0.01045701,1,0,0,1.1174,optionRight,70,8805,4,28,0,28,0,1,,,,,,,,,,,,,,,,,,,,,,,,,,,,,,,,,,,,,,,
,,,,,,,,2023-08-16_09h36.57.224,HF_wild_card,2022.2.4,Win32,59.90534955,5f3be0f027d97397cfc8a000,64d2fd46c836a06233681665,64dc7c78807e6bcc56f75cde,,,,,,,ctch,resources/DY.BMP,resources/DBN.BMP,Door3,-0.154918668,-0.01045701,1,0,0,0.6991,optionLeft,70,8875,4,29,0,29,0,1,,,,,,,,,,,,,,,,,,,,,,,,,,,,,,,,,,,,,,,
,,,,,,,,2023-08-16_09h36.57.224,HF_wild_card,2022.2.4,Win32,59.90534955,5f3be0f027d97397cfc8a000,64d2fd46c836a06233681665,64dc7c78807e6bcc56f75cde,,,,,,,decisionTrl,resources/DB.BMP,resources/DBN.BMP,Door2,0.159566228,-0.001936483,1,0,0,0.7831,optionRight,20,8895,4,30,0,30,0,1,,,,,,,,,,,,,,,,,,,,,,,,,,,,,,,,,,,,,,,
,,,,,,,,2023-08-16_09h36.57.224,HF_wild_card,2022.2.4,Win32,59.90534955,5f3be0f027d97397cfc8a000,64d2fd46c836a06233681665,64dc7c78807e6bcc56f75cde,,,,,,,decisionTrl,resources/DG.BMP,resources/DB.BMP,Door4,-0.163439194,-0.012006197,1,0,0,0.8171,optionLeft,80,8975,4,31,0,31,0,1,,,,,,,,,,,,,,,,,,,,,,,,,,,,,,,,,,,,,,,
,,,,,,,,2023-08-16_09h36.57.224,HF_wild_card,2022.2.4,Win32,59.90534955,5f3be0f027d97397cfc8a000,64d2fd46c836a06233681665,64dc7c78807e6bcc56f75cde,,,,,,,decisionTrl,resources/DY.BMP,resources/DG.BMP,Door4,0.230828815,0.009682417,1,0,0,1.1672,optionRight,60,9035,4,32,0,32,0,1,,,,,,,,,,,,,,,,,,,,,,,,,,,,,,,,,,,,,,,
,,,,,,,,2023-08-16_09h36.57.224,HF_wild_card,2022.2.4,Win32,59.90534955,5f3be0f027d97397cfc8a000,64d2fd46c836a06233681665,64dc7c78807e6bcc56f75cde,,,,,,,decisionTrl,resources/DP.BMP,resources/DBN.BMP,Door1,-0.195972115,-0.01975213,1,0,0,0.9352,optionLeft,30,9065,4,33,0,33,0,1,,,,,,,,,,,,,,,,,,,,,,,,,,,,,,,,,,,,,,,
,,,,,,,,2023-08-16_09h36.57.224,HF_wild_card,2022.2.4,Win32,59.90534955,5f3be0f027d97397cfc8a000,64d2fd46c836a06233681665,64dc7c78807e6bcc56f75cde,,,,,,,ctch,resources/DBN.BMP,resources/DY.BMP,Door3,0.312161115,0.022850503,1,0,0,0.9182,optionRight,70,9135,4,34,0,34,0,1,,,,,,,,,,,,,,,,,,,,,,,,,,,,,,,,,,,,,,,
,,,,,,,,2023-08-16_09h36.57.224,HF_wild_card,2022.2.4,Win32,59.90534955,5f3be0f027d97397cfc8a000,64d2fd46c836a06233681665,64dc7c78807e6bcc56f75cde,,,,,,,decisionTrl,resources/DY.BMP,resources/DB.BMP,Door3,-0.148721921,-0.013555383,1,0,0,0.8353,optionLeft,70,9205,4,35,0,35,0,1,,,,,,,,,,,,,,,,,,,,,,,,,,,,,,,,,,,,,,,
,,,,,,,,2023-08-16_09h36.57.224,HF_wild_card,2022.2.4,Win32,59.90534955,5f3be0f027d97397cfc8a000,64d2fd46c836a06233681665,64dc7c78807e6bcc56f75cde,,,,,,,decisionTrl,resources/DBN.BMP,resources/DP.BMP,Door1,0.216886135,0.03137103,1,0,0,0.885,optionRight,30,9235,4,36,0,36,0,1,,,,,,,,,,,,,,,,,,,,,,,,,,,,,,,,,,,,,,,
,,,,,,,,2023-08-16_09h36.57.224,HF_wild_card,2022.2.4,Win32,59.90534955,5f3be0f027d97397cfc8a000,64d2fd46c836a06233681665,64dc7c78807e6bcc56f75cde,,,,,,,decisionTrl,resources/DBN.BMP,resources/DP.BMP,Door1,0.209914795,-0.000387297,1,0,0,0.7176,optionRight,30,9265,4,37,0,37,0,1,,,,,,,,,,,,,,,,,,,,,,,,,,,,,,,,,,,,,,,
,,,,,,,,2023-08-16_09h36.57.224,HF_wild_card,2022.2.4,Win32,59.90534955,5f3be0f027d97397cfc8a000,64d2fd46c836a06233681665,64dc7c78807e6bcc56f75cde,,,,,,,decisionTrl,resources/DBN.BMP,resources/DP.BMP,Door1,0.179705655,0.02439969,1,0,0,0.7702,optionRight,30,9295,4,38,0,38,0,1,,,,,,,,,,,,,,,,,,,,,,,,,,,,,,,,,,,,,,,
,,,,,,,,2023-08-16_09h36.57.224,HF_wild_card,2022.2.4,Win32,59.90534955,5f3be0f027d97397cfc8a000,64d2fd46c836a06233681665,64dc7c78807e6bcc56f75cde,,,,,,,sngl,resources/DB.BMP,resources/Empty.png,WildCard_Ex,-0.122385747,0.000387297,1,0,0,0.5681,optionLeft,45,9340,4,39,0,39,0,1,,,,,,,,,,,,,,,,,,,,,,,,,,,,,,,,,,,,,,,
,,,,,,,,2023-08-16_09h36.57.224,HF_wild_card,2022.2.4,Win32,59.90534955,5f3be0f027d97397cfc8a000,64d2fd46c836a06233681665,64dc7c78807e6bcc56f75cde,,,,,,,sngl,resources/Empty.png,resources/DB.BMP,WildCard_Ex,0.421378776,0.012006197,1,0,0,0.4982,optionRight,55,9395,4,40,0,40,0,1,,,,,,,,,,,,,,,,,,,,,,,,,,,,,,,,,,,,,,,
,,,,,,,,2023-08-16_09h36.57.224,HF_wild_card,2022.2.4,Win32,59.90534955,5f3be0f027d97397cfc8a000,64d2fd46c836a06233681665,64dc7c78807e6bcc56f75cde,,,,,,,decisionTrl,resources/DP.BMP,resources/DB.BMP,WildCard_Ex,0.175832688,0.011231603,1,0,0,0.5498,optionRight,45,9440,4,41,0,41,0,1,,,,,,,,,,,,,,,,,,,,,,,,,,,,,,,,,,,,,,,
,,,,,,,,2023-08-16_09h36.57.224,HF_wild_card,2022.2.4,Win32,59.90534955,5f3be0f027d97397cfc8a000,64d2fd46c836a06233681665,64dc7c78807e6bcc56f75cde,,,,,,,ctch,resources/DP.BMP,resources/DG.BMP,Door4,0.385747483,0.032920217,1,0,0,0.7011,optionRight,80,9520,4,42,0,42,0,1,,,,,,,,,,,,,,,,,,,,,,,,,,,,,,,,,,,,,,,
,,,,,,,,2023-08-16_09h36.57.224,HF_wild_card,2022.2.4,Win32,59.90534955,5f3be0f027d97397cfc8a000,64d2fd46c836a06233681665,64dc7c78807e6bcc56f75cde,,,,,,,decisionTrl,resources/DY.BMP,resources/DG.BMP,Door4,0.375677769,-0.03601859,1,0,0,1.0354,optionRight,80,9600,4,43,0,43,0,1,,,,,,,,,,,,,,,,,,,,,,,,,,,,,,,,,,,,,,,
,,,,,,,,2023-08-16_09h36.57.224,HF_wild_card,2022.2.4,Win32,59.90534955,5f3be0f027d97397cfc8a000,64d2fd46c836a06233681665,64dc7c78807e6bcc56f75cde,,,,,,,,,,,,,,,,,,,,,,,,,,3,0,3,0,1,,,,,,,,,,,,,,,,,,,,,,,,,,,,,,,,,,
,,,,,,,,2023-08-16_09h36.57.224,HF_wild_card,2022.2.4,Win32,59.90534955,5f3be0f027d97397cfc8a000,64d2fd46c836a06233681665,64dc7c78807e6bcc56f75cde,,,,,,,ctch,resources/DG.BMP,resources/DP.BMP,Door4,-0.248644462,-0.06158017,1,0,0,0.749,optionLeft,60,9660,5,0,0,0,0,1,,,,,,,,,,,,,,,,,,,,,,,,,,,,,,,,,,,,,,,
,,,,,,,,2023-08-16_09h36.57.224,HF_wild_card,2022.2.4,Win32,59.90534955,5f3be0f027d97397cfc8a000,64d2fd46c836a06233681665,64dc7c78807e6bcc56f75cde,,,,,,,decisionTrl,resources/DY.BMP,resources/DB.BMP,Door3,-0.121611154,0.00580945,1,0,0,0.7663,optionLeft,70,9730,5,1,0,1,0,1,,,,,,,,,,,,,,,,,,,,,,,,,,,,,,,,,,,,,,,
,,,,,,,,2023-08-16_09h36.57.224,HF_wild_card,2022.2.4,Win32,59.90534955,5f3be0f027d97397cfc8a000,64d2fd46c836a06233681665,64dc7c78807e6bcc56f75cde,,,,,,,decisionTrl,resources/DP.BMP,resources/DBN.BMP,Door1,-0.142525174,-0.008907823,1,0,0,0.9015,optionLeft,30,9760,5,2,0,2,0,1,,,,,,,,,,,,,,,,,,,,,,,,,,,,,,,,,,,,,,,
,,,,,,,,2023-08-16_09h36.57.224,HF_wild_card,2022.2.4,Win32,59.90534955,5f3be0f027d97397cfc8a000,64d2fd46c836a06233681665,64dc7c78807e6bcc56f75cde,,,,,,,ctch,resources/DBN.BMP,resources/DY.BMP,Door3,0.140201394,0.00116189,1,0,0,0.5348,optionRight,70,9830,5,3,0,3,0,1,,,,,,,,,,,,,,,,,,,,,,,,,,,,,,,,,,,,,,,
,,,,,,,,2023-08-16_09h36.57.224,HF_wild_card,2022.2.4,Win32,59.90534955,5f3be0f027d97397cfc8a000,64d2fd46c836a06233681665,64dc7c78807e6bcc56f75cde,,,,,,,ctch,resources/DP.BMP,resources/DG.BMP,Door4,0.329976762,-0.002711077,1,0,0,0.9007,optionRight,60,9890,5,4,0,4,0,1,,,,,,,,,,,,,,,,,,,,,,,,,,,,,,,,,,,,,,,
,,,,,,,,2023-08-16_09h36.57.224,HF_wild_card,2022.2.4,Win32,59.90534955,5f3be0f027d97397cfc8a000,64d2fd46c836a06233681665,64dc7c78807e6bcc56f75cde,,,,,,,decisionTrl,resources/DY.BMP,resources/DG.BMP,Door4,0.266460108,0.011231603,1,0,0,1.1525,optionRight,60,9950,5,5,0,5,0,1,,,,,,,,,,,,,,,,,,,,,,,,,,,,,,,,,,,,,,,
,,,,,,,,2023-08-16_09h36.57.224,HF_wild_card,2022.2.4,Win32,59.90534955,5f3be0f027d97397cfc8a000,64d2fd46c836a06233681665,64dc7c78807e6bcc56f75cde,,,,,,,sngl,resources/DBN.BMP,resources/Empty.png,Door2,-0.189775368,0.005034857,1,0,0,0.4492,optionLeft,40,9990,5,6,0,6,0,1,,,,,,,,,,,,,,,,,,,,,,,,,,,,,,,,,,,,,,,
,,,,,,,,2023-08-16_09h36.57.224,HF_wild_card,2022.2.4,Win32,59.90534955,5f3be0f027d97397cfc8a000,64d2fd46c836a06233681665,64dc7c78807e6bcc56f75cde,,,,,,,decisionTrl,resources/DBN.BMP,resources/DP.BMP,Door1,0.325329202,0.022850503,1,0,0,0.7835,optionRight,30,10020,5,7,0,7,0,1,,,,,,,,,,,,,,,,,,,,,,,,,,,,,,,,,,,,,,,
,,,,,,,,2023-08-16_09h36.57.224,HF_wild_card,2022.2.4,Win32,59.90534955,5f3be0f027d97397cfc8a000,64d2fd46c836a06233681665,64dc7c78807e6bcc56f75cde,,,,,,,ctch,resources/DY.BMP,resources/DBN.BMP,Door3,-0.199845081,-0.001936483,1,0,0,0.8184,optionLeft,70,10090,5,8,0,8,0,1,,,,,,,,,,,,,,,,,,,,,,,,,,,,,,,,,,,,,,,
,,,,,,,,2023-08-16_09h36.57.224,HF_wild_card,2022.2.4,Win32,59.90534955,5f3be0f027d97397cfc8a000,64d2fd46c836a06233681665,64dc7c78807e6bcc56f75cde,,,,,,,decisionTrl,resources/DG.BMP,resources/DY.BMP,Door3,0.235476375,0.027498064,1,0,0,1.2862,optionRight,70,10160,5,9,0,9,0,1,,,,,,,,,,,,,,,,,,,,,,,,,,,,,,,,,,,,,,,
,,,,,,,,2023-08-16_09h36.57.224,HF_wild_card,2022.2.4,Win32,59.90534955,5f3be0f027d97397cfc8a000,64d2fd46c836a06233681665,64dc7c78807e6bcc56f75cde,,,,,,,decisionTrl,resources/DB.BMP,resources/DY.BMP,Door3,0.266460108,0.025948877,1,0,0,0.7138,optionRight,70,10230,5,10,0,10,0,1,,,,,,,,,,,,,,,,,,,,,,,,,,,,,,,,,,,,,,,
,,,,,,,,2023-08-16_09h36.57.224,HF_wild_card,2022.2.4,Win32,59.90534955,5f3be0f027d97397cfc8a000,64d2fd46c836a06233681665,64dc7c78807e6bcc56f75cde,,,,,,,decisionTrl,resources/DB.BMP,resources/DG.BMP,Door4,0.286599535,-0.005034857,1,0,0,0.6836,optionRight,60,10290,5,11,0,11,0,1,,,,,,,,,,,,,,,,,,,,,,,,,,,,,,,,,,,,,,,
,,,,,,,,2023-08-16_09h36.57.224,HF_wild_card,2022.2.4,Win32,59.90534955,5f3be0f027d97397cfc8a000,64d2fd46c836a06233681665,64dc7c78807e6bcc56f75cde,,,,,,,sngl,resources/DP.BMP,resources/Empty.png,Door1,-0.198295895,-0.02207591,1,0,0,0.5159,optionLeft,30,10320,5,12,0,12,0,1,,,,,,,,,,,,,,,,,,,,,,,,,,,,,,,,,,,,,,,
,,,,,,,,2023-08-16_09h36.57.224,HF_wild_card,2022.2.4,Win32,59.90534955,5f3be0f027d97397cfc8a000,64d2fd46c836a06233681665,64dc7c78807e6bcc56f75cde,,,,,,,sngl,resources/DB.BMP,resources/Empty.png,WildCard_Ex,-0.176607281,0.01278079,1,0,0,0.4682,optionLeft,55,10375,5,13,0,13,0,1,,,,,,,,,,,,,,,,,,,,,,,,,,,,,,,,,,,,,,,
,,,,,,,,2023-08-16_09h36.57.224,HF_wild_card,2022.2.4,Win32,59.90534955,5f3be0f027d97397cfc8a000,64d2fd46c836a06233681665,64dc7c78807e6bcc56f75cde,,,,,,,decisionTrl,resources/DP.BMP,resources/DB.BMP,WildCard_Ex,0.240898528,0.029821844,1,0,0,0.9465,optionRight,45,10420,5,14,0,14,0,1,,,,,,,,,,,,,,,,,,,,,,,,,,,,,,,,,,,,,,,
,,,,,,,,2023-08-16_09h36.57.224,HF_wild_card,2022.2.4,Win32,59.90534955,5f3be0f027d97397cfc8a000,64d2fd46c836a06233681665,64dc7c78807e6bcc56f75cde,,,,,,,ctch,resources/DY.BMP,resources/DBN.BMP,Door3,-0.163439194,0.006584043,1,0,0,0.6997,optionLeft,70,10490,5,15,0,15,0,1,,,,,,,,,,,,,,,,,,,,,,,,,,,,,,,,,,,,,,,
,,,,,,,,2023-08-16_09h36.57.224,HF_wild_card,2022.2.4,Win32,59.90534955,5f3be0f027d97397cfc8a000,64d2fd46c836a06233681665,64dc7c78807e6bcc56f75cde,,,,,,,decisionTrl,resources/DG.BMP,resources/DY.BMP,Door3,0.255615802,0.060030984,1,0,0,1.2536,optionRight,70,10560,5,16,0,16,0,1,,,,,,,,,,,,,,,,,,,,,,,,,,,,,,,,,,,,,,,
,,,,,,,,2023-08-16_09h36.57.224,HF_wild_card,2022.2.4,Win32,59.90534955,5f3be0f027d97397cfc8a000,64d2fd46c836a06233681665,64dc7c78807e6bcc56f75cde,,,,,,,sngl,resources/Empty.png,resources/DB.BMP,WildCard_Ex,0.260263362,0.018977537,1,0,0,0.4544,optionRight,45,10605,5,17,0,17,0,1,,,,,,,,,,,,,,,,,,,,,,,,,,,,,,,,,,,,,,,
,,,,,,,,2023-08-16_09h36.57.224,HF_wild_card,2022.2.4,Win32,59.90534955,5f3be0f027d97397cfc8a000,64d2fd46c836a06233681665,64dc7c78807e6bcc56f75cde,,,,,,,sngl,resources/DB.BMP,resources/Empty.png,WildCard_Ex,-0.213013168,-0.00813323,1,0,0,0.4467,optionLeft,45,10650,5,18,0,18,0,1,,,,,,,,,,,,,,,,,,,,,,,,,,,,,,,,,,,,,,,
,,,,,,,,2023-08-16_09h36.57.224,HF_wild_card,2022.2.4,Win32,59.90534955,5f3be0f027d97397cfc8a000,64d2fd46c836a06233681665,64dc7c78807e6bcc56f75cde,,,,,,,decisionTrl,resources/DY.BMP,resources/DG.BMP,Door4,0.174283501,0.022850503,1,0,0,1.5213,optionRight,60,10710,5,19,0,19,0,1,,,,,,,,,,,,,,,,,,,,,,,,,,,,,,,,,,,,,,,
,,,,,,,,2023-08-16_09h36.57.224,HF_wild_card,2022.2.4,Win32,59.90534955,5f3be0f027d97397cfc8a000,64d2fd46c836a06233681665,64dc7c78807e6bcc56f75cde,,,,,,,decisionTrl,resources/DG.BMP,resources/DB.BMP,Door4,-0.154144074,-0.021301317,1,0,0,1.3186,optionLeft,60,10770,5,20,0,20,0,1,,,,,,,,,,,,,,,,,,,,,,,,,,,,,,,,,,,,,,,
,,,,,,,,2023-08-16_09h36.57.224,HF_wild_card,2022.2.4,Win32,59.90534955,5f3be0f027d97397cfc8a000,64d2fd46c836a06233681665,64dc7c78807e6bcc56f75cde,,,,,,,decisionTrl,resources/DBN.BMP,resources/DP.BMP,Door1,0.157242448,0.00813323,1,0,0,0.6497,optionRight,30,10800,5,21,0,21,0,1,,,,,,,,,,,,,,,,,,,,,,,,,,,,,,,,,,,,,,,
,,,,,,,,2023-08-16_09h36.57.224,HF_wild_card,2022.2.4,Win32,59.90534955,5f3be0f027d97397cfc8a000,64d2fd46c836a06233681665,64dc7c78807e6bcc56f75cde,,,,,,,decisionTrl,resources/DB.BMP,resources/DBN.BMP,WildCard_Ex,-0.226955848,-0.002711077,1,0,0,1.1022,optionLeft,45,10845,5,22,0,22,0,1,,,,,,,,,,,,,,,,,,,,,,,,,,,,,,,,,,,,,,,
,,,,,,,,2023-08-16_09h36.57.224,HF_wild_card,2022.2.4,Win32,59.90534955,5f3be0f027d97397cfc8a000,64d2fd46c836a06233681665,64dc7c78807e6bcc56f75cde,,,,,,,decisionTrl,resources/DP.BMP,resources/DBN.BMP,Door1,-0.278853602,-0.004260263,1,0,0,0.6008,optionLeft,30,10875,5,23,0,23,0,1,,,,,,,,,,,,,,,,,,,,,,,,,,,,,,,,,,,,,,,
,,,,,,,,2023-08-16_09h36.57.224,HF_wild_card,2022.2.4,Win32,59.90534955,5f3be0f027d97397cfc8a000,64d2fd46c836a06233681665,64dc7c78807e6bcc56f75cde,,,,,,,sngl,resources/Empty.png,resources/DB.BMP,WildCard_Ex,0.339271882,0.023625097,1,0,0,0.4499,optionRight,55,10930,5,24,0,24,0,1,,,,,,,,,,,,,,,,,,,,,,,,,,,,,,,,,,,,,,,
,,,,,,,,2023-08-16_09h36.57.224,HF_wild_card,2022.2.4,Win32,59.90534955,5f3be0f027d97397cfc8a000,64d2fd46c836a06233681665,64dc7c78807e6bcc56f75cde,,,,,,,ctch,resources/DG.BMP,resources/DP.BMP,Door4,-0.209140201,0.001936483,1,0,0,0.8675,optionLeft,60,10990,5,25,0,25,0,1,,,,,,,,,,,,,,,,,,,,,,,,,,,,,,,,,,,,,,,
,,,,,,,,2023-08-16_09h36.57.224,HF_wild_card,2022.2.4,Win32,59.90534955,5f3be0f027d97397cfc8a000,64d2fd46c836a06233681665,64dc7c78807e6bcc56f75cde,,,,,,,decisionTrl,resources/DBN.BMP,resources/DB.BMP,WildCard_Ex,0.302091402,0.012006197,1,0,0,0.7353,optionRight,45,11035,5,26,0,26,0,1,,,,,,,,,,,,,,,,,,,,,,,,,,,,,,,,,,,,,,,
,,,,,,,,2023-08-16_09h36.57.224,HF_wild_card,2022.2.4,Win32,59.90534955,5f3be0f027d97397cfc8a000,64d2fd46c836a06233681665,64dc7c78807e6bcc56f75cde,,,,,,,sngl,resources/Empty.png,resources/DBN.BMP,Door2,0.250968242,0.016653757,1,0,0,0.4828,optionRight,20,11055,5,27,0,27,0,1,,,,,,,,,,,,,,,,,,,,,,,,,,,,,,,,,,,,,,,
,,,,,,,,2023-08-16_09h36.57.224,HF_wild_card,2022.2.4,Win32,59.90534955,5f3be0f027d97397cfc8a000,64d2fd46c836a06233681665,64dc7c78807e6bcc56f75cde,,,,,,,decisionTrl,resources/DG.BMP,resources/DY.BMP,Door4,-0.192873741,-0.009682417,1,0,0,1.3201,optionLeft,60,11115,5,28,0,28,0,1,,,,,,,,,,,,,,,,,,,,,,,,,,,,,,,,,,,,,,,
,,,,,,,,2023-08-16_09h36.57.224,HF_wild_card,2022.2.4,Win32,59.90534955,5f3be0f027d97397cfc8a000,64d2fd46c836a06233681665,64dc7c78807e6bcc56f75cde,,,,,,,sngl,resources/Empty.png,resources/DG.BMP,Door4,0.223082881,-0.007358637,1,0,0,0.5178,optionRight,60,11175,5,29,0,29,0,1,,,,,,,,,,,,,,,,,,,,,,,,,,,,,,,,,,,,,,,
,,,,,,,,2023-08-16_09h36.57.224,HF_wild_card,2022.2.4,Win32,59.90534955,5f3be0f027d97397cfc8a000,64d2fd46c836a06233681665,64dc7c78807e6bcc56f75cde,,,,,,,decisionTrl,resources/DBN.BMP,resources/DP.BMP,Door1,0.405112316,-0.002711077,1,0,0,0.8343,optionRight,30,11205,5,30,0,30,0,1,,,,,,,,,,,,,,,,,,,,,,,,,,,,,,,,,,,,,,,
,,,,,,,,2023-08-16_09h36.57.224,HF_wild_card,2022.2.4,Win32,59.90534955,5f3be0f027d97397cfc8a000,64d2fd46c836a06233681665,64dc7c78807e6bcc56f75cde,,,,,,,decisionTrl,resources/DP.BMP,resources/DBN.BMP,Door1,-0.273431448,-0.000387297,1,0,0,0.8512,optionLeft,30,11235,5,31,0,31,0,1,,,,,,,,,,,,,,,,,,,,,,,,,,,,,,,,,,,,,,,
,,,,,,,,2023-08-16_09h36.57.224,HF_wild_card,2022.2.4,Win32,59.90534955,5f3be0f027d97397cfc8a000,64d2fd46c836a06233681665,64dc7c78807e6bcc56f75cde,,,,,,,sngl,resources/DG.BMP,resources/Empty.png,Door4,-0.318357862,-0.00348567,1,0,0,0.4504,optionLeft,80,11315,5,32,0,32,0,1,,,,,,,,,,,,,,,,,,,,,,,,,,,,,,,,,,,,,,,
,,,,,,,,2023-08-16_09h36.57.224,HF_wild_card,2022.2.4,Win32,59.90534955,5f3be0f027d97397cfc8a000,64d2fd46c836a06233681665,64dc7c78807e6bcc56f75cde,,,,,,,ctch,resources/DP.BMP,resources/DG.BMP,Door4,0.249419055,0.01510457,1,0,0,0.5488,optionRight,80,11395,5,33,0,33,0,1,,,,,,,,,,,,,,,,,,,,,,,,,,,,,,,,,,,,,,,
,,,,,,,,2023-08-16_09h36.57.224,HF_wild_card,2022.2.4,Win32,59.90534955,5f3be0f027d97397cfc8a000,64d2fd46c836a06233681665,64dc7c78807e6bcc56f75cde,,,,,,,ctch,resources/DBN.BMP,resources/DY.BMP,Door3,0.288923315,0.009682417,1,0,0,0.7356,optionRight,70,11465,5,34,0,34,0,1,,,,,,,,,,,,,,,,,,,,,,,,,,,,,,,,,,,,,,,
,,,,,,,,2023-08-16_09h36.57.224,HF_wild_card,2022.2.4,Win32,59.90534955,5f3be0f027d97397cfc8a000,64d2fd46c836a06233681665,64dc7c78807e6bcc56f75cde,,,,,,,sngl,resources/DY.BMP,resources/Empty.png,Door3,-0.233152595,-0.000387297,1,0,0,0.4164,optionLeft,70,11535,5,35,0,35,0,1,,,,,,,,,,,,,,,,,,,,,,,,,,,,,,,,,,,,,,,
,,,,,,,,2023-08-16_09h36.57.224,HF_wild_card,2022.2.4,Win32,59.90534955,5f3be0f027d97397cfc8a000,64d2fd46c836a06233681665,64dc7c78807e6bcc56f75cde,,,,,,,decisionTrl,resources/DP.BMP,resources/DBN.BMP,Door1,-0.05344694,0.005034857,1,0,0,0.8005,optionLeft,30,11565,5,36,0,36,0,1,,,,,,,,,,,,,,,,,,,,,,,,,,,,,,,,,,,,,,,
,,,,,,,,2023-08-16_09h36.57.224,HF_wild_card,2022.2.4,Win32,59.90534955,5f3be0f027d97397cfc8a000,64d2fd46c836a06233681665,64dc7c78807e6bcc56f75cde,,,,,,,sngl,resources/Empty.png,resources/DP.BMP,Door1,0.238574748,0.001936483,1,0,0,0.4653,optionRight,30,11595,5,37,0,37,0,1,,,,,,,,,,,,,,,,,,,,,,,,,,,,,,,,,,,,,,,
,,,,,,,,2023-08-16_09h36.57.224,HF_wild_card,2022.2.4,Win32,59.90534955,5f3be0f027d97397cfc8a000,64d2fd46c836a06233681665,64dc7c78807e6bcc56f75cde,,,,,,,decisionTrl,resources/DY.BMP,resources/DG.BMP,Door3,-0.118512781,0.034469404,1,0,0,1.487,optionLeft,70,11665,5,38,0,38,0,1,,,,,,,,,,,,,,,,,,,,,,,,,,,,,,,,,,,,,,,
,,,,,,,,2023-08-16_09h36.57.224,HF_wild_card,2022.2.4,Win32,59.90534955,5f3be0f027d97397cfc8a000,64d2fd46c836a06233681665,64dc7c78807e6bcc56f75cde,,,,,,,sngl,resources/Empty.png,resources/DY.BMP,Door3,0.329202169,0.018202943,1,0,0,0.4489,optionRight,70,11735,5,39,0,39,0,1,,,,,,,,,,,,,,,,,,,,,,,,,,,,,,,,,,,,,,,
,,,,,,,,2023-08-16_09h36.57.224,HF_wild_card,2022.2.4,Win32,59.90534955,5f3be0f027d97397cfc8a000,64d2fd46c836a06233681665,64dc7c78807e6bcc56f75cde,,,,,,,decisionTrl,resources/DG.BMP,resources/DY.BMP,Door4,-0.164213788,0.020526723,1,0,0,0.8018,optionLeft,80,11815,5,40,0,40,0,1,,,,,,,,,,,,,,,,,,,,,,,,,,,,,,,,,,,,,,,
,,,,,,,,2023-08-16_09h36.57.224,HF_wild_card,2022.2.4,Win32,59.90534955,5f3be0f027d97397cfc8a000,64d2fd46c836a06233681665,64dc7c78807e6bcc56f75cde,,,,,,,decisionTrl,resources/DB.BMP,resources/DP.BMP,Door1,0.230828815,-0.002711077,1,0,0,0.6996,optionRight,30,11845,5,41,0,41,0,1,,,,,,,,,,,,,,,,,,,,,,,,,,,,,,,,,,,,,,,
,,,,,,,,2023-08-16_09h36.57.224,HF_wild_card,2022.2.4,Win32,59.90534955,5f3be0f027d97397cfc8a000,64d2fd46c836a06233681665,64dc7c78807e6bcc56f75cde,,,,,,,decisionTrl,resources/DBN.BMP,resources/DP.BMP,Door1,0.283501162,-0.000387297,1,0,0,0.6845,optionRight,30,11875,5,42,0,42,0,1,,,,,,,,,,,,,,,,,,,,,,,,,,,,,,,,,,,,,,,
,,,,,,,,2023-08-16_09h36.57.224,HF_wild_card,2022.2.4,Win32,59.90534955,5f3be0f027d97397cfc8a000,64d2fd46c836a06233681665,64dc7c78807e6bcc56f75cde,,,,,,,decisionTrl,resources/DY.BMP,resources/DG.BMP,Door4,0.261037955,0.005034857,1,0,0,0.7855,optionRight,60,11935,5,43,0,43,0,1,,,,,,,,,,,,,,,,,,,,,,,,,,,,,,,,,,,,,,,
,,,,,,,,2023-08-16_09h36.57.224,HF_wild_card,2022.2.4,Win32,59.90534955,5f3be0f027d97397cfc8a000,64d2fd46c836a06233681665,64dc7c78807e6bcc56f75cde,,,,,,,,,,,,,,,,,,,,,,,,,,4,0,4,0,1,,,,,,,,,,,,,,,,,,,,,,,,,,,,,,,,,,
,,,,,,,,2023-08-16_09h36.57.224,HF_wild_card,2022.2.4,Win32,59.90534955,5f3be0f027d97397cfc8a000,64d2fd46c836a06233681665,64dc7c78807e6bcc56f75cde,,,,,,,decisionTrl,resources/DP.BMP,resources/DBN.BMP,Door1,-0.309062742,-0.016653757,1,0,0,0.9152,optionLeft,30,11965,6,0,0,0,0,1,,,,,,,,,,,,,,,,,,,,,,,,,,,,,,,,,,,,,,,
,,,,,,,,2023-08-16_09h36.57.224,HF_wild_card,2022.2.4,Win32,59.90534955,5f3be0f027d97397cfc8a000,64d2fd46c836a06233681665,64dc7c78807e6bcc56f75cde,,,,,,,sngl,resources/Empty.png,resources/DB.BMP,WildCard_Ex,0.192873741,0.005034857,1,0,0,0.4482,optionRight,45,12010,6,1,0,1,0,1,,,,,,,,,,,,,,,,,,,,,,,,,,,,,,,,,,,,,,,
,,,,,,,,2023-08-16_09h36.57.224,HF_wild_card,2022.2.4,Win32,59.90534955,5f3be0f027d97397cfc8a000,64d2fd46c836a06233681665,64dc7c78807e6bcc56f75cde,,,,,,,sngl,resources/Empty.png,resources/DY.BMP,Door3,0.196746708,0.014329977,1,0,0,0.4489,optionRight,70,12080,6,2,0,2,0,1,,,,,,,,,,,,,,,,,,,,,,,,,,,,,,,,,,,,,,,
,,,,,,,,2023-08-16_09h36.57.224,HF_wild_card,2022.2.4,Win32,59.90534955,5f3be0f027d97397cfc8a000,64d2fd46c836a06233681665,64dc7c78807e6bcc56f75cde,,,,,,,decisionTrl,resources/DB.BMP,resources/DP.BMP,WildCard_Ex,-0.186676995,0.000387297,1,0,0,0.7852,optionLeft,55,12135,6,3,0,3,0,1,,,,,,,,,,,,,,,,,,,,,,,,,,,,,,,,,,,,,,,
,,,,,,,,2023-08-16_09h36.57.224,HF_wild_card,2022.2.4,Win32,59.90534955,5f3be0f027d97397cfc8a000,64d2fd46c836a06233681665,64dc7c78807e6bcc56f75cde,,,,,,,decisionTrl,resources/DBN.BMP,resources/DP.BMP,Door1,0.226181255,0.005034857,1,0,0,1.0367,optionRight,30,12165,6,4,0,4,0,1,,,,,,,,,,,,,,,,,,,,,,,,,,,,,,,,,,,,,,,
,,,,,,,,2023-08-16_09h36.57.224,HF_wild_card,2022.2.4,Win32,59.90534955,5f3be0f027d97397cfc8a000,64d2fd46c836a06233681665,64dc7c78807e6bcc56f75cde,,,,,,,sngl,resources/Empty.png,resources/DG.BMP,Door4,0.204492641,0.01278079,1,0,0,0.4491,optionRight,80,12245,6,5,0,5,0,1,,,,,,,,,,,,,,,,,,,,,,,,,,,,,,,,,,,,,,,
,,,,,,,,2023-08-16_09h36.57.224,HF_wild_card,2022.2.4,Win32,59.90534955,5f3be0f027d97397cfc8a000,64d2fd46c836a06233681665,64dc7c78807e6bcc56f75cde,,,,,,,decisionTrl,resources/DG.BMP,resources/DB.BMP,Door4,-0.199070488,-0.01742835,1,0,0,0.5175,optionLeft,80,12325,6,6,0,6,0,1,,,,,,,,,,,,,,,,,,,,,,,,,,,,,,,,,,,,,,,
,,,,,,,,2023-08-16_09h36.57.224,HF_wild_card,2022.2.4,Win32,59.90534955,5f3be0f027d97397cfc8a000,64d2fd46c836a06233681665,64dc7c78807e6bcc56f75cde,,,,,,,decisionTrl,resources/DBN.BMP,resources/DP.BMP,Door1,0.177381875,-0.001936483,1,0,0,0.5862,optionRight,30,12355,6,7,0,7,0,1,,,,,,,,,,,,,,,,,,,,,,,,,,,,,,,,,,,,,,,
,,,,,,,,2023-08-16_09h36.57.224,HF_wild_card,2022.2.4,Win32,59.90534955,5f3be0f027d97397cfc8a000,64d2fd46c836a06233681665,64dc7c78807e6bcc56f75cde,,,,,,,decisionTrl,resources/DG.BMP,resources/DY.BMP,Door4,-0.429899303,-0.005034857,1,0,0,1.7132,optionLeft,60,12415,6,8,0,8,0,1,,,,,,,,,,,,,,,,,,,,,,,,,,,,,,,,,,,,,,,
,,,,,,,,2023-08-16_09h36.57.224,HF_wild_card,2022.2.4,Win32,59.90534955,5f3be0f027d97397cfc8a000,64d2fd46c836a06233681665,64dc7c78807e6bcc56f75cde,,,,,,,sngl,resources/DBN.BMP,resources/Empty.png,Door2,-0.226181255,-0.039891557,1,0,0,0.4818,optionLeft,20,12435,6,9,0,9,0,1,,,,,,,,,,,,,,,,,,,,,,,,,,,,,,,,,,,,,,,
,,,,,,,,2023-08-16_09h36.57.224,HF_wild_card,2022.2.4,Win32,59.90534955,5f3be0f027d97397cfc8a000,64d2fd46c836a06233681665,64dc7c78807e6bcc56f75cde,,,,,,,ctch,resources/DP.BMP,resources/DG.BMP,Door4,0.161890008,0.015879163,1,0,0,0.5336,optionRight,80,12515,6,10,0,10,0,1,,,,,,,,,,,,,,,,,,,,,,,,,,,,,,,,,,,,,,,
,,,,,,,,2023-08-16_09h36.57.224,HF_wild_card,2022.2.4,Win32,59.90534955,5f3be0f027d97397cfc8a000,64d2fd46c836a06233681665,64dc7c78807e6bcc56f75cde,,,,,,,decisionTrl,resources/DG.BMP,resources/DY.BMP,Door4,-0.196746708,-0.025174284,1,0,0,0.4669,optionLeft,80,12595,6,11,0,11,0,1,,,,,,,,,,,,,,,,,,,,,,,,,,,,,,,,,,,,,,,
,,,,,,,,2023-08-16_09h36.57.224,HF_wild_card,2022.2.4,Win32,59.90534955,5f3be0f027d97397cfc8a000,64d2fd46c836a06233681665,64dc7c78807e6bcc56f75cde,,,,,,,decisionTrl,resources/DP.BMP,resources/DBN.BMP,Door1,-0.173508908,-0.005034857,1,0,0,0.7507,optionLeft,30,12625,6,12,0,12,0,1,,,,,,,,,,,,,,,,,,,,,,,,,,,,,,,,,,,,,,,
,,,,,,,,2023-08-16_09h36.57.224,HF_wild_card,2022.2.4,Win32,59.90534955,5f3be0f027d97397cfc8a000,64d2fd46c836a06233681665,64dc7c78807e6bcc56f75cde,,,,,,,ctch,resources/DG.BMP,resources/DP.BMP,Door4,-0.141750581,-0.012006197,1,0,0,0.8354,optionLeft,60,12685,6,13,0,13,0,1,,,,,,,,,,,,,,,,,,,,,,,,,,,,,,,,,,,,,,,
,,,,,,,,2023-08-16_09h36.57.224,HF_wild_card,2022.2.4,Win32,59.90534955,5f3be0f027d97397cfc8a000,64d2fd46c836a06233681665,64dc7c78807e6bcc56f75cde,,,,,,,ctch,resources/DY.BMP,resources/DBN.BMP,Door3,-0.206041828,-0.02904725,1,0,0,0.6653,optionLeft,70,12755,6,14,0,14,0,1,,,,,,,,,,,,,,,,,,,,,,,,,,,,,,,,,,,,,,,
,,,,,,,,2023-08-16_09h36.57.224,HF_wild_card,2022.2.4,Win32,59.90534955,5f3be0f027d97397cfc8a000,64d2fd46c836a06233681665,64dc7c78807e6bcc56f75cde,,,,,,,ctch,resources/DG.BMP,resources/DP.BMP,Door4,-0.131680868,-0.016653757,1,0,0,0.5505,optionLeft,80,12835,6,15,0,15,0,1,,,,,,,,,,,,,,,,,,,,,,,,,,,,,,,,,,,,,,,
,,,,,,,,2023-08-16_09h36.57.224,HF_wild_card,2022.2.4,Win32,59.90534955,5f3be0f027d97397cfc8a000,64d2fd46c836a06233681665,64dc7c78807e6bcc56f75cde,,,,,,,decisionTrl,resources/DY.BMP,resources/DG.BMP,Door4,0.284275755,0.01742835,1,0,0,0.5661,optionRight,60,12895,6,16,0,16,0,1,,,,,,,,,,,,,,,,,,,,,,,,,,,,,,,,,,,,,,,
,,,,,,,,2023-08-16_09h36.57.224,HF_wild_card,2022.2.4,Win32,59.90534955,5f3be0f027d97397cfc8a000,64d2fd46c836a06233681665,64dc7c78807e6bcc56f75cde,,,,,,,decisionTrl,resources/DG.BMP,resources/DY.BMP,Door4,-0.240123935,-0.002711077,1,0,0,0.4812,optionLeft,60,12955,6,17,0,17,0,1,,,,,,,,,,,,,,,,,,,,,,,,,,,,,,,,,,,,,,,
,,,,,,,,2023-08-16_09h36.57.224,HF_wild_card,2022.2.4,Win32,59.90534955,5f3be0f027d97397cfc8a000,64d2fd46c836a06233681665,64dc7c78807e6bcc56f75cde,,,,,,,decisionTrl,resources/DP.BMP,resources/DB.BMP,WildCard_Ex,0.363284276,-0.01742835,1,0,0,0.9529,optionRight,45,13000,6,18,0,18,0,1,,,,,,,,,,,,,,,,,,,,,,,,,,,,,,,,,,,,,,,
,,,,,,,,2023-08-16_09h36.57.224,HF_wild_card,2022.2.4,Win32,59.90534955,5f3be0f027d97397cfc8a000,64d2fd46c836a06233681665,64dc7c78807e6bcc56f75cde,,,,,,,sngl,resources/Empty.png,resources/DBN.BMP,Door2,0.236250968,-0.001936483,1,0,0,0.7013,optionRight,40,13040,6,19,0,19,0,1,,,,,,,,,,,,,,,,,,,,,,,,,,,,,,,,,,,,,,,
,,,,,,,,2023-08-16_09h36.57.224,HF_wild_card,2022.2.4,Win32,59.90534955,5f3be0f027d97397cfc8a000,64d2fd46c836a06233681665,64dc7c78807e6bcc56f75cde,,,,,,,sngl,resources/Empty.png,resources/DP.BMP,Door1,0.196746708,0.013555383,1,0,0,0.4837,optionRight,30,13070,6,20,0,20,0,1,,,,,,,,,,,,,,,,,,,,,,,,,,,,,,,,,,,,,,,
,,,,,,,,2023-08-16_09h36.57.224,HF_wild_card,2022.2.4,Win32,59.90534955,5f3be0f027d97397cfc8a000,64d2fd46c836a06233681665,64dc7c78807e6bcc56f75cde,,,,,,,decisionTrl,resources/DBN.BMP,resources/DP.BMP,Door1,0.381874516,0.01510457,1,0,0,0.7849,optionRight,30,13100,6,21,0,21,0,1,,,,,,,,,,,,,,,,,,,,,,,,,,,,,,,,,,,,,,,
,,,,,,,,2023-08-16_09h36.57.224,HF_wild_card,2022.2.4,Win32,59.90534955,5f3be0f027d97397cfc8a000,64d2fd46c836a06233681665,64dc7c78807e6bcc56f75cde,,,,,,,decisionTrl,resources/DY.BMP,resources/DG.BMP,Door3,-0.140201394,-0.021301317,1,0,0,0.9358,optionLeft,70,13170,6,22,0,22,0,1,,,,,,,,,,,,,,,,,,,,,,,,,,,,,,,,,,,,,,,
,,,,,,,,2023-08-16_09h36.57.224,HF_wild_card,2022.2.4,Win32,59.90534955,5f3be0f027d97397cfc8a000,64d2fd46c836a06233681665,64dc7c78807e6bcc56f75cde,,,,,,,decisionTrl,resources/DG.BMP,resources/DY.BMP,Door3,0.237025562,0.00580945,1,0,0,0.6829,optionRight,70,13240,6,23,0,23,0,1,,,,,,,,,,,,,,,,,,,,,,,,,,,,,,,,,,,,,,,
,,,,,,,,2023-08-16_09h36.57.224,HF_wild_card,2022.2.4,Win32,59.90534955,5f3be0f027d97397cfc8a000,64d2fd46c836a06233681665,64dc7c78807e6bcc56f75cde,,,,,,,ctch,resources/DBN.BMP,resources/DY.BMP,Door3,0.267234702,0.004260263,1,0,0,0.5502,optionRight,70,13310,6,24,0,24,0,1,,,,,,,,,,,,,,,,,,,,,,,,,,,,,,,,,,,,,,,
,,,,,,,,2023-08-16_09h36.57.224,HF_wild_card,2022.2.4,Win32,59.90534955,5f3be0f027d97397cfc8a000,64d2fd46c836a06233681665,64dc7c78807e6bcc56f75cde,,,,,,,ctch,resources/DP.BMP,resources/DG.BMP,Door4,0.318357862,0.00348567,1,0,0,0.9183,optionRight,80,13390,6,25,0,25,0,1,,,,,,,,,,,,,,,,,,,,,,,,,,,,,,,,,,,,,,,
,,,,,,,,2023-08-16_09h36.57.224,HF_wild_card,2022.2.4,Win32,59.90534955,5f3be0f027d97397cfc8a000,64d2fd46c836a06233681665,64dc7c78807e6bcc56f75cde,,,,,,,sngl,resources/DY.BMP,resources/Empty.png,Door3,-0.209140201,-0.00813323,1,0,0,0.4498,optionLeft,70,13460,6,26,0,26,0,1,,,,,,,,,,,,,,,,,,,,,,,,,,,,,,,,,,,,,,,
,,,,,,,,2023-08-16_09h36.57.224,HF_wild_card,2022.2.4,Win32,59.90534955,5f3be0f027d97397cfc8a000,64d2fd46c836a06233681665,64dc7c78807e6bcc56f75cde,,,,,,,sngl,resources/DB.BMP,resources/Empty.png,WildCard_Ex,-0.270333075,-0.007358637,1,0,0,0.4666,optionLeft,55,13515,6,27,0,27,0,1,,,,,,,,,,,,,,,,,,,,,,,,,,,,,,,,,,,,,,,
,,,,,,,,2023-08-16_09h36.57.224,HF_wild_card,2022.2.4,Win32,59.90534955,5f3be0f027d97397cfc8a000,64d2fd46c836a06233681665,64dc7c78807e6bcc56f75cde,,,,,,,decisionTrl,resources/DP.BMP,resources/DBN.BMP,Door1,-0.213787761,-0.00580945,1,0,0,0.5499,optionLeft,30,13545,6,28,0,28,0,1,,,,,,,,,,,,,,,,,,,,,,,,,,,,,,,,,,,,,,,
,,,,,,,,2023-08-16_09h36.57.224,HF_wild_card,2022.2.4,Win32,59.90534955,5f3be0f027d97397cfc8a000,64d2fd46c836a06233681665,64dc7c78807e6bcc56f75cde,,,,,,,sngl,resources/Empty.png,resources/DB.BMP,WildCard_Ex,0.415956623,0.014329977,1,0,0,0.4671,optionRight,55,13600,6,29,0,29,0,1,,,,,,,,,,,,,,,,,,,,,,,,,,,,,,,,,,,,,,,
,,,,,,,,2023-08-16_09h36.57.224,HF_wild_card,2022.2.4,Win32,59.90534955,5f3be0f027d97397cfc8a000,64d2fd46c836a06233681665,64dc7c78807e6bcc56f75cde,,,,,,,decisionTrl,resources/DBN.BMP,resources/DP.BMP,Door1,0.237025562,-0.000387297,1,0,0,0.8217,optionRight,30,13630,6,30,0,30,0,1,,,,,,,,,,,,,,,,,,,,,,,,,,,,,,,,,,,,,,,
,,,,,,,,2023-08-16_09h36.57.224,HF_wild_card,2022.2.4,Win32,59.90534955,5f3be0f027d97397cfc8a000,64d2fd46c836a06233681665,64dc7c78807e6bcc56f75cde,,,,,,,decisionTrl,resources/DY.BMP,resources/DB.BMP,Door3,-0.223082881,0.013555383,1,0,0,1.0248,optionLeft,70,13700,6,31,0,31,0,1,,,,,,,,,,,,,,,,,,,,,,,,,,,,,,,,,,,,,,,
,,,,,,,,2023-08-16_09h36.57.224,HF_wild_card,2022.2.4,Win32,59.90534955,5f3be0f027d97397cfc8a000,64d2fd46c836a06233681665,64dc7c78807e6bcc56f75cde,,,,,,,sngl,resources/DB.BMP,resources/Empty.png,WildCard_Ex,-0.138652208,-0.00813323,1,0,0,0.5177,optionLeft,45,13745,6,32,0,32,0,1,,,,,,,,,,,,,,,,,,,,,,,,,,,,,,,,,,,,,,,
,,,,,,,,2023-08-16_09h36.57.224,HF_wild_card,2022.2.4,Win32,59.90534955,5f3be0f027d97397cfc8a000,64d2fd46c836a06233681665,64dc7c78807e6bcc56f75cde,,,,,,,ctch,resources/DBN.BMP,resources/DY.BMP,Door3,0.231603408,-0.00348567,1,0,0,0.6163,optionRight,70,13815,6,33,0,33,0,1,,,,,,,,,,,,,,,,,,,,,,,,,,,,,,,,,,,,,,,
,,,,,,,,2023-08-16_09h36.57.224,HF_wild_card,2022.2.4,Win32,59.90534955,5f3be0f027d97397cfc8a000,64d2fd46c836a06233681665,64dc7c78807e6bcc56f75cde,,,,,,,ctch,resources/DY.BMP,resources/DBN.BMP,Door3,-0.223082881,-0.015879163,1,0,0,0.4508,optionLeft,70,13885,6,34,0,34,0,1,,,,,,,,,,,,,,,,,,,,,,,,,,,,,,,,,,,,,,,
,,,,,,,,2023-08-16_09h36.57.224,HF_wild_card,2022.2.4,Win32,59.90534955,5f3be0f027d97397cfc8a000,64d2fd46c836a06233681665,64dc7c78807e6bcc56f75cde,,,,,,,decisionTrl,resources/DP.BMP,resources/DBN.BMP,Door1,-0.193648335,-0.01278079,1,0,0,0.6659,optionLeft,30,13915,6,35,0,35,0,1,,,,,,,,,,,,,,,,,,,,,,,,,,,,,,,,,,,,,,,
,,,,,,,,2023-08-16_09h36.57.224,HF_wild_card,2022.2.4,Win32,59.90534955,5f3be0f027d97397cfc8a000,64d2fd46c836a06233681665,64dc7c78807e6bcc56f75cde,,,,,,,decisionTrl,resources/DY.BMP,resources/DG.BMP,Door3,-0.171185128,-0.022850503,1,0,0,0.9677,optionLeft,70,13985,6,36,0,36,0,1,,,,,,,,,,,,,,,,,,,,,,,,,,,,,,,,,,,,,,,
,,,,,,,,2023-08-16_09h36.57.224,HF_wild_card,2022.2.4,Win32,59.90534955,5f3be0f027d97397cfc8a000,64d2fd46c836a06233681665,64dc7c78807e6bcc56f75cde,,,,,,,decisionTrl,resources/DB.BMP,resources/DBN.BMP,WildCard_Ex,-0.217660728,-0.021301317,1,0,0,0.6007,optionLeft,45,14030,6,37,0,37,0,1,,,,,,,,,,,,,,,,,,,,,,,,,,,,,,,,,,,,,,,
,,,,,,,,2023-08-16_09h36.57.224,HF_wild_card,2022.2.4,Win32,59.90534955,5f3be0f027d97397cfc8a000,64d2fd46c836a06233681665,64dc7c78807e6bcc56f75cde,,,,,,,decisionTrl,resources/DB.BMP,resources/DG.BMP,Door4,0.257164988,0.023625097,1,0,0,0.4909,optionRight,60,14090,6,38,0,38,0,1,,,,,,,,,,,,,,,,,,,,,,,,,,,,,,,,,,,,,,,
,,,,,,,,2023-08-16_09h36.57.224,HF_wild_card,2022.2.4,Win32,59.90534955,5f3be0f027d97397cfc8a000,64d2fd46c836a06233681665,64dc7c78807e6bcc56f75cde,,,,,,,decisionTrl,resources/DBN.BMP,resources/DB.BMP,WildCard_Ex,0.331525949,0.02904725,1,0,0,0.9051,optionRight,45,14135,6,39,0,39,0,1,,,,,,,,,,,,,,,,,,,,,,,,,,,,,,,,,,,,,,,
,,,,,,,,2023-08-16_09h36.57.224,HF_wild_card,2022.2.4,Win32,59.90534955,5f3be0f027d97397cfc8a000,64d2fd46c836a06233681665,64dc7c78807e6bcc56f75cde,,,,,,,sngl,resources/DG.BMP,resources/Empty.png,Door4,-0.107668474,-0.01278079,1,0,0,0.4823,optionLeft,60,14195,6,40,0,40,0,1,,,,,,,,,,,,,,,,,,,,,,,,,,,,,,,,,,,,,,,
,,,,,,,,2023-08-16_09h36.57.224,HF_wild_card,2022.2.4,Win32,59.90534955,5f3be0f027d97397cfc8a000,64d2fd46c836a06233681665,64dc7c78807e6bcc56f75cde,,,,,,,sngl,resources/DP.BMP,resources/Empty.png,Door1,-0.173508908,-0.028272657,1,0,0,0.4505,optionLeft,30,14225,6,41,0,41,0,1,,,,,,,,,,,,,,,,,,,,,,,,,,,,,,,,,,,,,,,
,,,,,,,,2023-08-16_09h36.57.224,HF_wild_card,2022.2.4,Win32,59.90534955,5f3be0f027d97397cfc8a000,64d2fd46c836a06233681665,64dc7c78807e6bcc56f75cde,,,,,,,decisionTrl,resources/DB.BMP,resources/DY.BMP,Door3,0.254841208,0.00580945,1,0,0,0.8013,optionRight,70,14295,6,42,0,42,0,1,,,,,,,,,,,,,,,,,,,,,,,,,,,,,,,,,,,,,,,
,,,,,,,,2023-08-16_09h36.57.224,HF_wild_card,2022.2.4,Win32,59.90534955,5f3be0f027d97397cfc8a000,64d2fd46c836a06233681665,64dc7c78807e6bcc56f75cde,,,,,,,decisionTrl,resources/DY.BMP,resources/DG.BMP,Door3,-0.245546088,-0.00116189,1,0,0,0.8191,optionLeft,70,14365,6,43,0,43,0,1,,,,,,,,,,,,,,,,,,,,,,,,,,,,,,,,,,,,,,,
,,,,,,,,2023-08-16_09h36.57.224,HF_wild_card,2022.2.4,Win32,59.90534955,5f3be0f027d97397cfc8a000,64d2fd46c836a06233681665,64dc7c78807e6bcc56f75cde,,,,,,,,,,,,,,,,,,,,,,,,,,5,0,5,0,1,,,,,,,,,,,,,,,,,,,,,,,,,,,,,,,,,,
,,,,,,,,2023-08-16_09h36.57.224,HF_wild_card,2022.2.4,Win32,59.90534955,5f3be0f027d97397cfc8a000,64d2fd46c836a06233681665,64dc7c78807e6bcc56f75cde,,,,,,,decisionTrl,resources/DP.BMP,resources/DBN.BMP,Door1,-0.360960496,-0.008907823,1,0,0,0.6935,optionLeft,30,14395,7,0,0,0,0,1,,,,,,,,,,,,,,,,,,,,,,,,,,,,,,,,,,,,,,,
,,,,,,,,2023-08-16_09h36.57.224,HF_wild_card,2022.2.4,Win32,59.90534955,5f3be0f027d97397cfc8a000,64d2fd46c836a06233681665,64dc7c78807e6bcc56f75cde,,,,,,,decisionTrl,resources/DY.BMP,resources/DG.BMP,Door3,-0.180480248,-0.004260263,1,0,0,0.8343,optionLeft,70,14465,7,1,0,1,0,1,,,,,,,,,,,,,,,,,,,,,,,,,,,,,,,,,,,,,,,
,,,,,,,,2023-08-16_09h36.57.224,HF_wild_card,2022.2.4,Win32,59.90534955,5f3be0f027d97397cfc8a000,64d2fd46c836a06233681665,64dc7c78807e6bcc56f75cde,,,,,,,decisionTrl,resources/DY.BMP,resources/DG.BMP,Door3,-0.181254841,0.002711077,1,0,0,0.5354,optionLeft,70,14535,7,2,0,2,0,1,,,,,,,,,,,,,,,,,,,,,,,,,,,,,,,,,,,,,,,
,,,,,,,,2023-08-16_09h36.57.224,HF_wild_card,2022.2.4,Win32,59.90534955,5f3be0f027d97397cfc8a000,64d2fd46c836a06233681665,64dc7c78807e6bcc56f75cde,,,,,,,decisionTrl,resources/DBN.BMP,resources/DP.BMP,Door1,0.366382649,0.013555383,1,0,0,0.5687,optionRight,30,14565,7,3,0,3,0,1,,,,,,,,,,,,,,,,,,,,,,,,,,,,,,,,,,,,,,,
,,,,,,,,2023-08-16_09h36.57.224,HF_wild_card,2022.2.4,Win32,59.90534955,5f3be0f027d97397cfc8a000,64d2fd46c836a06233681665,64dc7c78807e6bcc56f75cde,,,,,,,ctch,resources/DBN.BMP,resources/DY.BMP,Door3,0.328427576,0.01045701,1,0,0,0.5186,optionRight,70,14635,7,4,0,4,0,1,,,,,,,,,,,,,,,,,,,,,,,,,,,,,,,,,,,,,,,
,,,,,,,,2023-08-16_09h36.57.224,HF_wild_card,2022.2.4,Win32,59.90534955,5f3be0f027d97397cfc8a000,64d2fd46c836a06233681665,64dc7c78807e6bcc56f75cde,,,,,,,decisionTrl,resources/DBN.BMP,resources/DP.BMP,Door1,0.223082881,0.01278079,1,0,0,0.7361,optionRight,30,14665,7,5,0,5,0,1,,,,,,,,,,,,,,,,,,,,,,,,,,,,,,,,,,,,,,,
,,,,,,,,2023-08-16_09h36.57.224,HF_wild_card,2022.2.4,Win32,59.90534955,5f3be0f027d97397cfc8a000,64d2fd46c836a06233681665,64dc7c78807e6bcc56f75cde,,,,,,,ctch,resources/DY.BMP,resources/DBN.BMP,Door3,-0.247095275,0.000387297,1,0,0,0.483,optionLeft,70,14735,7,6,0,6,0,1,,,,,,,,,,,,,,,,,,,,,,,,,,,,,,,,,,,,,,,
,,,,,,,,2023-08-16_09h36.57.224,HF_wild_card,2022.2.4,Win32,59.90534955,5f3be0f027d97397cfc8a000,64d2fd46c836a06233681665,64dc7c78807e6bcc56f75cde,,,,,,,ctch,resources/DP.BMP,resources/DG.BMP,Door4,0.374128582,0.00813323,1,0,0,0.8685,optionRight,60,14795,7,7,0,7,0,1,,,,,,,,,,,,,,,,,,,,,,,,,,,,,,,,,,,,,,,
,,,,,,,,2023-08-16_09h36.57.224,HF_wild_card,2022.2.4,Win32,59.90534955,5f3be0f027d97397cfc8a000,64d2fd46c836a06233681665,64dc7c78807e6bcc56f75cde,,,,,,,ctch,resources/DG.BMP,resources/DP.BMP,Door4,-0.199070488,-0.013555383,1,0,0,0.5343,optionLeft,60,14855,7,8,0,8,0,1,,,,,,,,,,,,,,,,,,,,,,,,,,,,,,,,,,,,,,,
,,,,,,,,2023-08-16_09h36.57.224,HF_wild_card,2022.2.4,Win32,59.90534955,5f3be0f027d97397cfc8a000,64d2fd46c836a06233681665,64dc7c78807e6bcc56f75cde,,,,,,,decisionTrl,resources/DG.BMP,resources/DY.BMP,Door3,0.295120062,-0.000387297,1,0,0,0.8526,optionRight,70,14925,7,9,0,9,0,1,,,,,,,,,,,,,,,,,,,,,,,,,,,,,,,,,,,,,,,
,,,,,,,,2023-08-16_09h36.57.224,HF_wild_card,2022.2.4,Win32,59.90534955,5f3be0f027d97397cfc8a000,64d2fd46c836a06233681665,64dc7c78807e6bcc56f75cde,,,,,,,decisionTrl,resources/DP.BMP,resources/DBN.BMP,Door1,-0.353989156,-0.041440744,1,0,0,0.5839,optionLeft,30,14955,7,10,0,10,0,1,,,,,,,,,,,,,,,,,,,,,,,,,,,,,,,,,,,,,,,
,,,,,,,,2023-08-16_09h36.57.224,HF_wild_card,2022.2.4,Win32,59.90534955,5f3be0f027d97397cfc8a000,64d2fd46c836a06233681665,64dc7c78807e6bcc56f75cde,,,,,,,ctch,resources/DP.BMP,resources/DG.BMP,Door4,0.376452363,-0.00580945,1,0,0,0.5663,optionRight,80,15035,7,11,0,11,0,1,,,,,,,,,,,,,,,,,,,,,,,,,,,,,,,,,,,,,,,
,,,,,,,,2023-08-16_09h36.57.224,HF_wild_card,2022.2.4,Win32,59.90534955,5f3be0f027d97397cfc8a000,64d2fd46c836a06233681665,64dc7c78807e6bcc56f75cde,,,,,,,ctch,resources/DG.BMP,resources/DP.BMP,Door4,-0.341595662,0.000387297,1,0,0,0.651,optionLeft,60,15095,7,12,0,12,0,1,,,,,,,,,,,,,,,,,,,,,,,,,,,,,,,,,,,,,,,
,,,,,,,,2023-08-16_09h36.57.224,HF_wild_card,2022.2.4,Win32,59.90534955,5f3be0f027d97397cfc8a000,64d2fd46c836a06233681665,64dc7c78807e6bcc56f75cde,,,,,,,ctch,resources/DY.BMP,resources/DBN.BMP,Door3,-0.233927188,-0.001936483,1,0,0,0.5338,optionLeft,70,15165,7,13,0,13,0,1,,,,,,,,,,,,,,,,,,,,,,,,,,,,,,,,,,,,,,,
,,,,,,,,2023-08-16_09h36.57.224,HF_wild_card,2022.2.4,Win32,59.90534955,5f3be0f027d97397cfc8a000,64d2fd46c836a06233681665,64dc7c78807e6bcc56f75cde,,,,,,,decisionTrl,resources/DG.BMP,resources/DY.BMP,Door3,0.575522851,0.036793184,1,0,0,1.1033,optionRight,70,15235,7,14,0,14,0,1,,,,,,,,,,,,,,,,,,,,,,,,,,,,,,,,,,,,,,,
,,,,,,,,2023-08-16_09h36.57.224,HF_wild_card,2022.2.4,Win32,59.90534955,5f3be0f027d97397cfc8a000,64d2fd46c836a06233681665,64dc7c78807e6bcc56f75cde,,,,,,,decisionTrl,resources/DG.BMP,resources/DY.BMP,Door4,-0.357862122,-0.006584043,1,0,0,0.6849,optionLeft,60,15295,7,15,0,15,0,1,,,,,,,,,,,,,,,,,,,,,,,,,,,,,,,,,,,,,,,
,,,,,,,,2023-08-16_09h36.57.224,HF_wild_card,2022.2.4,Win32,59.90534955,5f3be0f027d97397cfc8a000,64d2fd46c836a06233681665,64dc7c78807e6bcc56f75cde,,,,,,,decisionTrl,resources/DP.BMP,resources/DBN.BMP,Door1,-0.208365608,-0.004260263,1,0,0,0.754,optionLeft,30,15325,7,16,0,16,0,1,,,,,,,,,,,,,,,,,,,,,,,,,,,,,,,,,,,,,,,
,,,,,,,,2023-08-16_09h36.57.224,HF_wild_card,2022.2.4,Win32,59.90534955,5f3be0f027d97397cfc8a000,64d2fd46c836a06233681665,64dc7c78807e6bcc56f75cde,,,,,,,decisionTrl,resources/DY.BMP,resources/DG.BMP,Door4,0.426026336,0.04066615,1,0,0,0.818,optionRight,60,15385,7,17,0,17,0,1,,,,,,,,,,,,,,,,,,,,,,,,,,,,,,,,,,,,,,,
,,,,,,,,2023-08-16_09h36.57.224,HF_wild_card,2022.2.4,Win32,59.90534955,5f3be0f027d97397cfc8a000,64d2fd46c836a06233681665,64dc7c78807e6bcc56f75cde,,,,,,,ctch,resources/DBN.BMP,resources/DY.BMP,Door3,0.424477149,0.032920217,1,0,0,0.5513,optionRight,70,15455,7,18,0,18,0,1,,,,,,,,,,,,,,,,,,,,,,,,,,,,,,,,,,,,,,,
,,,,,,,,2023-08-16_09h36.57.224,HF_wild_card,2022.2.4,Win32,59.90534955,5f3be0f027d97397cfc8a000,64d2fd46c836a06233681665,64dc7c78807e6bcc56f75cde,,,,,,,ctch,resources/DBN.BMP,resources/DY.BMP,Door3,0.347792409,0.025174284,1,0,0,0.4339,optionRight,70,15525,7,19,0,19,0,1,,,,,,,,,,,,,,,,,,,,,,,,,,,,,,,,,,,,,,,
,,,,,,,,2023-08-16_09h36.57.224,HF_wild_card,2022.2.4,Win32,59.90534955,5f3be0f027d97397cfc8a000,64d2fd46c836a06233681665,64dc7c78807e6bcc56f75cde,,,,,,,decisionTrl,resources/DP.BMP,resources/DBN.BMP,Door1,-0.327652982,0.018977537,1,0,0,1.0197,optionLeft,30,15555,7,20,0,20,0,1,,,,,,,,,,,,,,,,,,,,,,,,,,,,,,,,,,,,,,,
,,,,,,,,2023-08-16_09h36.57.224,HF_wild_card,2022.2.4,Win32,59.90534955,5f3be0f027d97397cfc8a000,64d2fd46c836a06233681665,64dc7c78807e6bcc56f75cde,,,,,,,decisionTrl,resources/DP.BMP,resources/DBN.BMP,Door1,-0.185127808,0.014329977,1,0,0,0.501,optionLeft,30,15585,7,21,0,21,0,1,,,,,,,,,,,,,,,,,,,,,,,,,,,,,,,,,,,,,,,
,,,,,,,,2023-08-16_09h36.57.224,HF_wild_card,2022.2.4,Win32,59.90534955,5f3be0f027d97397cfc8a000,64d2fd46c836a06233681665,64dc7c78807e6bcc56f75cde,,,,,,,decisionTrl,resources/DG.BMP,resources/DY.BMP,Door3,0.392718823,0.03601859,1,0,0,1.1366,optionRight,70,15655,7,22,0,22,0,1,,,,,,,,,,,,,,,,,,,,,,,,,,,,,,,,,,,,,,,
,,,,,,,,2023-08-16_09h36.57.224,HF_wild_card,2022.2.4,Win32,59.90534955,5f3be0f027d97397cfc8a000,64d2fd46c836a06233681665,64dc7c78807e6bcc56f75cde,,,,,,,decisionTrl,resources/DBN.BMP,resources/DP.BMP,Door1,0.260263362,0.01510457,1,0,0,0.8017,optionRight,30,15685,7,23,0,23,0,1,,,,,,,,,,,,,,,,,,,,,,,,,,,,,,,,,,,,,,,
,,,,,,,,2023-08-16_09h36.57.224,HF_wild_card,2022.2.4,Win32,59.90534955,5f3be0f027d97397cfc8a000,64d2fd46c836a06233681665,64dc7c78807e6bcc56f75cde,,,,,,,ctch,resources/DP.BMP,resources/DG.BMP,Door4,0.390395043,0.020526723,1,0,0,0.6846,optionRight,80,15765,7,24,0,24,0,1,,,,,,,,,,,,,,,,,,,,,,,,,,,,,,,,,,,,,,,
,,,,,,,,2023-08-16_09h36.57.224,HF_wild_card,2022.2.4,Win32,59.90534955,5f3be0f027d97397cfc8a000,64d2fd46c836a06233681665,64dc7c78807e6bcc56f75cde,,,,,,,decisionTrl,resources/DG.BMP,resources/DY.BMP,Door3,0.444616576,0.012006197,1,0,0,0.7028,optionRight,70,15835,7,25,0,25,0,1,,,,,,,,,,,,,,,,,,,,,,,,,,,,,,,,,,,,,,,
,,,,,,,,2023-08-16_09h36.57.224,HF_wild_card,2022.2.4,Win32,59.90534955,5f3be0f027d97397cfc8a000,64d2fd46c836a06233681665,64dc7c78807e6bcc56f75cde,,,,,,,decisionTrl,resources/DY.BMP,resources/DG.BMP,Door3,-0.178931061,0.013555383,1,0,0,0.7673,optionLeft,70,15905,7,26,0,26,0,1,,,,,,,,,,,,,,,,,,,,,,,,,,,,,,,,,,,,,,,
,,,,,,,,2023-08-16_09h36.57.224,HF_wild_card,2022.2.4,Win32,59.90534955,5f3be0f027d97397cfc8a000,64d2fd46c836a06233681665,64dc7c78807e6bcc56f75cde,,,,,,,decisionTrl,resources/DP.BMP,resources/DBN.BMP,Door1,-0.316808675,-0.004260263,1,0,0,0.8026,optionLeft,30,15935,7,27,0,27,0,1,,,,,,,,,,,,,,,,,,,,,,,,,,,,,,,,,,,,,,,
,,,,,,,,2023-08-16_09h36.57.224,HF_wild_card,2022.2.4,Win32,59.90534955,5f3be0f027d97397cfc8a000,64d2fd46c836a06233681665,64dc7c78807e6bcc56f75cde,,,,,,,ctch,resources/DG.BMP,resources/DP.BMP,Door4,-0.283501162,-0.00580945,1,0,0,0.7181,optionLeft,80,16015,7,28,0,28,0,1,,,,,,,,,,,,,,,,,,,,,,,,,,,,,,,,,,,,,,,
,,,,,,,,2023-08-16_09h36.57.224,HF_wild_card,2022.2.4,Win32,59.90534955,5f3be0f027d97397cfc8a000,64d2fd46c836a06233681665,64dc7c78807e6bcc56f75cde,,,,,,,decisionTrl,resources/DY.BMP,resources/DG.BMP,Door3,-0.254066615,-0.00348567,1,0,0,0.8011,optionLeft,70,16085,7,29,0,29,0,1,,,,,,,,,,,,,,,,,,,,,,,,,,,,,,,,,,,,,,,
,,,,,,,,2023-08-16_09h36.57.224,HF_wild_card,2022.2.4,Win32,59.90534955,5f3be0f027d97397cfc8a000,64d2fd46c836a06233681665,64dc7c78807e6bcc56f75cde,,,,,,,decisionTrl,resources/DBN.BMP,resources/DP.BMP,Door1,0.248644462,0.00348567,1,0,0,0.7185,optionRight,30,16115,7,30,0,30,0,1,,,,,,,,,,,,,,,,,,,,,,,,,,,,,,,,,,,,,,,
,,,,,,,,2023-08-16_09h36.57.224,HF_wild_card,2022.2.4,Win32,59.90534955,5f3be0f027d97397cfc8a000,64d2fd46c836a06233681665,64dc7c78807e6bcc56f75cde,,,,,,,decisionTrl,resources/DBN.BMP,resources/DP.BMP,Door1,0.320681642,0.00813323,1,0,0,0.6025,optionRight,30,16145,7,31,0,31,0,1,,,,,,,,,,,,,,,,,,,,,,,,,,,,,,,,,,,,,,,
,,,,,,,,2023-08-16_09h36.57.224,HF_wild_card,2022.2.4,Win32,59.90534955,5f3be0f027d97397cfc8a000,64d2fd46c836a06233681665,64dc7c78807e6bcc56f75cde,,,,,,,ctch,resources/DY.BMP,resources/DBN.BMP,Door3,-0.236250968,-0.025174284,1,0,0,0.5014,optionLeft,70,16215,7,32,0,32,0,1,,,,,,,,,,,,,,,,,,,,,,,,,,,,,,,,,,,,,,,
,,,,,,,,2023-08-16_09h36.57.224,HF_wild_card,2022.2.4,Win32,59.90534955,5f3be0f027d97397cfc8a000,64d2fd46c836a06233681665,64dc7c78807e6bcc56f75cde,,,,,,,decisionTrl,resources/DBN.BMP,resources/DP.BMP,Door1,0.241673122,0.01045701,1,0,0,0.7681,optionRight,30,16245,7,33,0,33,0,1,,,,,,,,,,,,,,,,,,,,,,,,,,,,,,,,,,,,,,,
,,,,,,,,2023-08-16_09h36.57.224,HF_wild_card,2022.2.4,Win32,59.90534955,5f3be0f027d97397cfc8a000,64d2fd46c836a06233681665,64dc7c78807e6bcc56f75cde,,,,,,,decisionTrl,resources/DG.BMP,resources/DY.BMP,Door3,0.298993029,0.00348567,1,0,0,0.902,optionRight,70,16315,7,34,0,34,0,1,,,,,,,,,,,,,,,,,,,,,,,,,,,,,,,,,,,,,,,
,,,,,,,,2023-08-16_09h36.57.224,HF_wild_card,2022.2.4,Win32,59.90534955,5f3be0f027d97397cfc8a000,64d2fd46c836a06233681665,64dc7c78807e6bcc56f75cde,,,,,,,decisionTrl,resources/DY.BMP,resources/DG.BMP,Door3,-0.201394268,-0.013555383,1,0,0,0.6176,optionLeft,70,16385,7,35,0,35,0,1,,,,,,,,,,,,,,,,,,,,,,,,,,,,,,,,,,,,,,,
,,,,,,,,2023-08-16_09h36.57.224,HF_wild_card,2022.2.4,Win32,59.90534955,5f3be0f027d97397cfc8a000,64d2fd46c836a06233681665,64dc7c78807e6bcc56f75cde,,,,,,,,,,,,,,,,,,,,,,,,,,6,0,6,0,1,,,,,,,,,,,,,,,,,,,,,,,,,,,,,,,,,,
,,,,,,,,2023-08-16_09h36.57.224,HF_wild_card,2022.2.4,Win32,59.90534955,5f3be0f027d97397cfc8a000,64d2fd46c836a06233681665,64dc7c78807e6bcc56f75cde,,,,,,,,,,,,,,,,,,,,,,,,,,,,,,,4,,,,,,,,,,,,,,,,,,,,,,,,,,,,,,,,,
,,,,,,,,2023-08-16_09h36.57.224,HF_wild_card,2022.2.4,Win32,59.90534955,5f3be0f027d97397cfc8a000,64d2fd46c836a06233681665,64dc7c78807e6bcc56f75cde,,,,,,,,,,,,,,,,,,,,,,,,,,,,,,,,,,,,,,,,,,,,,,,,,,,,,,,,,,,,,,,,
,,,,,,,,2023-08-16_09h36.57.224,HF_wild_card,2022.2.4,Win32,59.90534955,5f3be0f027d97397cfc8a000,64d2fd46c836a06233681665,64dc7c78807e6bcc56f75cde,,,,,,,,,,,,,,,,,,,,,,,,,,,,,,,,45,WC_extreme,resources/DB.BMP,0,0,0,0,1,,,,,,,,,,,,,,,,,,,,,,,,,
,,,,,,,,2023-08-16_09h36.57.224,HF_wild_card,2022.2.4,Win32,59.90534955,5f3be0f027d97397cfc8a000,64d2fd46c836a06233681665,64dc7c78807e6bcc56f75cde,,,,,,,,,,,,,,,,,,,,,,,,,,,,,,,,55,WC_nonExtreme,resources/DR.BMP,1,0,1,0,1,,,,,,,,,,,,,,,,,,,,,,,,,
,,,,,,,,2023-08-16_09h36.57.224,HF_wild_card,2022.2.4,Win32,59.90534955,5f3be0f027d97397cfc8a000,64d2fd46c836a06233681665,64dc7c78807e6bcc56f75cde,,,,,,,,,,,,,,,,,,,,,,,,,,,,,,,,20,Door2,resources/DBN.BMP,2,0,2,0,1,,,,,,,,,,,,,,,,,,,,,,,,,
,,,,,,,,2023-08-16_09h36.57.224,HF_wild_card,2022.2.4,Win32,59.90534955,5f3be0f027d97397cfc8a000,64d2fd46c836a06233681665,64dc7c78807e6bcc56f75cde,,,,,,,,,,,,,,,,,,,,,,,,,,,,,,,,30,Door1,resources/DP.BMP,3,0,3,0,1,,,,,,,,,,,,,,,,,,,,,,,,,
,,,,,,,,2023-08-16_09h36.57.224,HF_wild_card,2022.2.4,Win32,59.90534955,5f3be0f027d97397cfc8a000,64d2fd46c836a06233681665,64dc7c78807e6bcc56f75cde,,,,,,,,,,,,,,,,,,,,,,,,,,,,,,,,60,Door4,resources/DG.BMP,4,0,4,0,1,,,,,,,,,,,,,,,,,,,,,,,,,
,,,,,,,,2023-08-16_09h36.57.224,HF_wild_card,2022.2.4,Win32,59.90534955,5f3be0f027d97397cfc8a000,64d2fd46c836a06233681665,64dc7c78807e6bcc56f75cde,,,,,,,,,,,,,,,,,,,,,,,,,,,,,,,,70,Door3,resources/DY.BMP,5,0,5,0,1,,,,,,,,,,,,,,,,,,,,,,,,,
,,,,,,,,2023-08-16_09h36.57.224,HF_wild_card,2022.2.4,Win32,59.90534955,5f3be0f027d97397cfc8a000,64d2fd46c836a06233681665,64dc7c78807e6bcc56f75cde,,,,,,,,,,,,,,,,,,,,,,,,,,,,,,,,,,,,,,,,,,,,,,,,,,,,,,,,,,,,,,,,
