Condition,Low fixed image (Door1),Low risky image (Door2),High fixed image (Door3),High risky image (Door4),Extreme Wild Card,NonExtreme Wild Card,,date,expName,psychopyVersion,OS,frameRate,PROLIFIC_PID,STUDY_ID,SESSION_ID,mouse_2.x,mouse_2.y,mouse_2.leftButton,mouse_2.midButton,mouse_2.rightButton,mouse_2.clicked_name,Trial Type,Left Option Image,Right Option Image,Chosen Door,mouse.x,mouse.y,mouse.leftButton,mouse.midButton,mouse.rightButton,mouse.time,mouse.clicked_name,Feedback,Cumulative Reward,Block,trial.thisRepN,trial.thisTrialN,trial.thisN,trial.thisIndex,trial.ran,blocks.thisRepN,blocks.thisTrialN,blocks.thisN,blocks.thisIndex,blocks.ran,Money conversion,First Outcome Reported,Shown Door (First Outcome),Displayed Image (First Outcome),outcomes.thisRepN,outcomes.thisTrialN,outcomes.thisN,outcomes.thisIndex,outcomes.ran,judgments.thisRepN,judgments.thisTrialN,judgments.thisN,judgments.thisIndex,judgments.ran,freqMouse.x,freqMouse.y,freqMouse.leftButton,freqMouse.midButton,freqMouse.rightButton,freqMouse.clicked_name,FQJ for first outcome,FQJ for second outcome,Shown Door,Displayed Image,trials.thisRepN,trials.thisTrialN,trials.thisN,trials.thisIndex,trials.ran,judgBlock.thisRepN,judgBlock.thisTrialN,judgBlock.thisN,judgBlock.thisIndex,judgBlock.ran
0,resources/DY.BMP,resources/DBN.BMP,resources/DB.BMP,resources/DG.BMP,resources/DP.BMP,resources/DR.BMP,,2023-08-16_08h53.12.435,HF_wild_card,2022.2.4,Linux x86_64,58.53772757,5ee0c8a669a88041d4034cea,64d2fd46c836a06233681665,64dc7f8eb1391b64cee1fcb9,,,,,,,,,,,,,,,,,,,,,,,,,,,,,,,,,,,,,,,,,,,,,,,,,,,,,,,,,,,,,,,,
,,,,,,,,2023-08-16_08h53.12.435,HF_wild_card,2022.2.4,Linux x86_64,58.53772757,5ee0c8a669a88041d4034cea,64d2fd46c836a06233681665,64dc7f8eb1391b64cee1fcb9,-0.012037037,-0.413888889,1,0,0,agree,,,,,,,,,,,,,,,,,,,,,,,,,,,,,,,,,,,,,,,,,,,,,,,,,,,,,,,,,,
,,,,,,,,2023-08-16_08h53.12.435,HF_wild_card,2022.2.4,Linux x86_64,58.53772757,5ee0c8a669a88041d4034cea,64d2fd46c836a06233681665,64dc7f8eb1391b64cee1fcb9,,,,,,,,,,,,,,,,,,,,,,,,,,,,,,,,,,,,,,,,,,,,,,,,,,,,,,,,,,,,,,,,
,,,,,,,,2023-08-16_08h53.12.435,HF_wild_card,2022.2.4,Linux x86_64,58.53772757,5ee0c8a669a88041d4034cea,64d2fd46c836a06233681665,64dc7f8eb1391b64cee1fcb9,,,,,,,decisionTrl,resources/DB.BMP,resources/DG.BMP,Door3,-0.421296296,-0.024074074,1,0,0,4.1678,optionLeft,70,70,1,0,0,0,0,1,,,,,,,,,,,,,,,,,,,,,,,,,,,,,,,,,,,,,,,
,,,,,,,,2023-08-16_08h53.12.435,HF_wild_card,2022.2.4,Linux x86_64,58.53772757,5ee0c8a669a88041d4034cea,64d2fd46c836a06233681665,64dc7f8eb1391b64cee1fcb9,,,,,,,ctch,resources/DG.BMP,resources/DY.BMP,Door1,0.449074074,-0.032407407,1,0,0,1.9098,optionRight,30,100,1,1,0,1,0,1,,,,,,,,,,,,,,,,,,,,,,,,,,,,,,,,,,,,,,,
,,,,,,,,2023-08-16_08h53.12.435,HF_wild_card,2022.2.4,Linux x86_64,58.53772757,5ee0c8a669a88041d4034cea,64d2fd46c836a06233681665,64dc7f8eb1391b64cee1fcb9,,,,,,,sngl,resources/DY.BMP,resources/Empty.png,Door1,-0.364814815,-0.02037037,1,0,0,2.5612,optionLeft,30,130,1,2,0,2,0,1,,,,,,,,,,,,,,,,,,,,,,,,,,,,,,,,,,,,,,,
,,,,,,,,2023-08-16_08h53.12.435,HF_wild_card,2022.2.4,Linux x86_64,58.53772757,5ee0c8a669a88041d4034cea,64d2fd46c836a06233681665,64dc7f8eb1391b64cee1fcb9,,,,,,,decisionTrl,resources/DG.BMP,resources/DB.BMP,Door4,-0.398148148,0.026851852,1,0,0,1.4135,optionLeft,60,190,1,3,0,3,0,1,,,,,,,,,,,,,,,,,,,,,,,,,,,,,,,,,,,,,,,
,,,,,,,,2023-08-16_08h53.12.435,HF_wild_card,2022.2.4,Linux x86_64,58.53772757,5ee0c8a669a88041d4034cea,64d2fd46c836a06233681665,64dc7f8eb1391b64cee1fcb9,,,,,,,sngl,resources/Empty.png,resources/DG.BMP,Door4,0.358333333,0.016666667,1,0,0,1.0307,optionRight,60,250,1,4,0,4,0,1,,,,,,,,,,,,,,,,,,,,,,,,,,,,,,,,,,,,,,,
,,,,,,,,2023-08-16_08h53.12.435,HF_wild_card,2022.2.4,Linux x86_64,58.53772757,5ee0c8a669a88041d4034cea,64d2fd46c836a06233681665,64dc7f8eb1391b64cee1fcb9,,,,,,,decisionTrl,resources/DB.BMP,resources/DG.BMP,Door3,-0.367592593,-0.000925926,1,0,0,1.3482,optionLeft,70,320,1,5,0,5,0,1,,,,,,,,,,,,,,,,,,,,,,,,,,,,,,,,,,,,,,,
,,,,,,,,2023-08-16_08h53.12.435,HF_wild_card,2022.2.4,Linux x86_64,58.53772757,5ee0c8a669a88041d4034cea,64d2fd46c836a06233681665,64dc7f8eb1391b64cee1fcb9,,,,,,,decisionTrl,resources/DBN.BMP,resources/DY.BMP,Door2,-0.375925926,0.066666667,1,0,0,1.2472,optionLeft,40,360,1,6,0,6,0,1,,,,,,,,,,,,,,,,,,,,,,,,,,,,,,,,,,,,,,,
,,,,,,,,2023-08-16_08h53.12.435,HF_wild_card,2022.2.4,Linux x86_64,58.53772757,5ee0c8a669a88041d4034cea,64d2fd46c836a06233681665,64dc7f8eb1391b64cee1fcb9,,,,,,,decisionTrl,resources/DBN.BMP,resources/DP.BMP,WildCard_Ex,0.375,-0.009259259,1,0,0,0.6628,optionRight,5,365,1,7,0,7,0,1,,,,,,,,,,,,,,,,,,,,,,,,,,,,,,,,,,,,,,,
,,,,,,,,2023-08-16_08h53.12.435,HF_wild_card,2022.2.4,Linux x86_64,58.53772757,5ee0c8a669a88041d4034cea,64d2fd46c836a06233681665,64dc7f8eb1391b64cee1fcb9,,,,,,,decisionTrl,resources/DY.BMP,resources/DBN.BMP,Door2,0.415740741,0.014814815,1,0,0,0.5288,optionRight,20,385,1,8,0,8,0,1,,,,,,,,,,,,,,,,,,,,,,,,,,,,,,,,,,,,,,,
,,,,,,,,2023-08-16_08h53.12.435,HF_wild_card,2022.2.4,Linux x86_64,58.53772757,5ee0c8a669a88041d4034cea,64d2fd46c836a06233681665,64dc7f8eb1391b64cee1fcb9,,,,,,,decisionTrl,resources/DB.BMP,resources/DG.BMP,Door4,0.42037037,0.014814815,1,0,0,0.5309,optionRight,80,465,1,9,0,9,0,1,,,,,,,,,,,,,,,,,,,,,,,,,,,,,,,,,,,,,,,
,,,,,,,,2023-08-16_08h53.12.435,HF_wild_card,2022.2.4,Linux x86_64,58.53772757,5ee0c8a669a88041d4034cea,64d2fd46c836a06233681665,64dc7f8eb1391b64cee1fcb9,,,,,,,ctch,resources/DBN.BMP,resources/DB.BMP,Door3,0.305555556,-0.030555556,1,0,0,1.1637,optionRight,70,535,1,10,0,10,0,1,,,,,,,,,,,,,,,,,,,,,,,,,,,,,,,,,,,,,,,
,,,,,,,,2023-08-16_08h53.12.435,HF_wild_card,2022.2.4,Linux x86_64,58.53772757,5ee0c8a669a88041d4034cea,64d2fd46c836a06233681665,64dc7f8eb1391b64cee1fcb9,,,,,,,sngl,resources/Empty.png,resources/DY.BMP,Door1,0.34537037,-0.028703704,1,0,0,0.6982,optionRight,30,565,1,11,0,11,0,1,,,,,,,,,,,,,,,,,,,,,,,,,,,,,,,,,,,,,,,
,,,,,,,,2023-08-16_08h53.12.435,HF_wild_card,2022.2.4,Linux x86_64,58.53772757,5ee0c8a669a88041d4034cea,64d2fd46c836a06233681665,64dc7f8eb1391b64cee1fcb9,,,,,,,decisionTrl,resources/DP.BMP,resources/DBN.BMP,Door2,0.400925926,-0.027777778,1,0,0,0.5624,optionRight,40,605,1,12,0,12,0,1,,,,,,,,,,,,,,,,,,,,,,,,,,,,,,,,,,,,,,,
,,,,,,,,2023-08-16_08h53.12.435,HF_wild_card,2022.2.4,Linux x86_64,58.53772757,5ee0c8a669a88041d4034cea,64d2fd46c836a06233681665,64dc7f8eb1391b64cee1fcb9,,,,,,,decisionTrl,resources/DBN.BMP,resources/DY.BMP,Door1,0.368518519,-0.028703704,1,0,0,0.5153,optionRight,30,635,1,13,0,13,0,1,,,,,,,,,,,,,,,,,,,,,,,,,,,,,,,,,,,,,,,
,,,,,,,,2023-08-16_08h53.12.435,HF_wild_card,2022.2.4,Linux x86_64,58.53772757,5ee0c8a669a88041d4034cea,64d2fd46c836a06233681665,64dc7f8eb1391b64cee1fcb9,,,,,,,decisionTrl,resources/DB.BMP,resources/DG.BMP,Door4,0.402777778,0.012037037,1,0,0,0.4802,optionRight,80,715,1,14,0,14,0,1,,,,,,,,,,,,,,,,,,,,,,,,,,,,,,,,,,,,,,,
,,,,,,,,2023-08-16_08h53.12.435,HF_wild_card,2022.2.4,Linux x86_64,58.53772757,5ee0c8a669a88041d4034cea,64d2fd46c836a06233681665,64dc7f8eb1391b64cee1fcb9,,,,,,,decisionTrl,resources/DP.BMP,resources/DG.BMP,Door4,0.353703704,-0.019444444,1,0,0,0.4947,optionRight,60,775,1,15,0,15,0,1,,,,,,,,,,,,,,,,,,,,,,,,,,,,,,,,,,,,,,,
,,,,,,,,2023-08-16_08h53.12.435,HF_wild_card,2022.2.4,Linux x86_64,58.53772757,5ee0c8a669a88041d4034cea,64d2fd46c836a06233681665,64dc7f8eb1391b64cee1fcb9,,,,,,,sngl,resources/Empty.png,resources/DP.BMP,WildCard_Ex,0.387037037,0.001851852,1,0,0,0.4799,optionRight,95,870,1,16,0,16,0,1,,,,,,,,,,,,,,,,,,,,,,,,,,,,,,,,,,,,,,,
,,,,,,,,2023-08-16_08h53.12.435,HF_wild_card,2022.2.4,Linux x86_64,58.53772757,5ee0c8a669a88041d4034cea,64d2fd46c836a06233681665,64dc7f8eb1391b64cee1fcb9,,,,,,,sngl,resources/DP.BMP,resources/Empty.png,WildCard_Ex,-0.421296296,-0.058333333,1,0,0,0.746,optionLeft,95,965,1,17,0,17,0,1,,,,,,,,,,,,,,,,,,,,,,,,,,,,,,,,,,,,,,,
,,,,,,,,2023-08-16_08h53.12.435,HF_wild_card,2022.2.4,Linux x86_64,58.53772757,5ee0c8a669a88041d4034cea,64d2fd46c836a06233681665,64dc7f8eb1391b64cee1fcb9,,,,,,,decisionTrl,resources/DY.BMP,resources/DBN.BMP,Door2,0.284259259,0.056481481,1,0,0,0.9471,optionRight,20,985,1,18,0,18,0,1,,,,,,,,,,,,,,,,,,,,,,,,,,,,,,,,,,,,,,,
,,,,,,,,2023-08-16_08h53.12.435,HF_wild_card,2022.2.4,Linux x86_64,58.53772757,5ee0c8a669a88041d4034cea,64d2fd46c836a06233681665,64dc7f8eb1391b64cee1fcb9,,,,,,,decisionTrl,resources/DY.BMP,resources/DP.BMP,Door1,-0.352777778,0.018518519,1,0,0,0.7278,optionLeft,30,1015,1,19,0,19,0,1,,,,,,,,,,,,,,,,,,,,,,,,,,,,,,,,,,,,,,,
,,,,,,,,2023-08-16_08h53.12.435,HF_wild_card,2022.2.4,Linux x86_64,58.53772757,5ee0c8a669a88041d4034cea,64d2fd46c836a06233681665,64dc7f8eb1391b64cee1fcb9,,,,,,,decisionTrl,resources/DB.BMP,resources/DP.BMP,WildCard_Ex,0.366666667,0.014814815,1,0,0,0.4971,optionRight,95,1110,1,20,0,20,0,1,,,,,,,,,,,,,,,,,,,,,,,,,,,,,,,,,,,,,,,
,,,,,,,,2023-08-16_08h53.12.435,HF_wild_card,2022.2.4,Linux x86_64,58.53772757,5ee0c8a669a88041d4034cea,64d2fd46c836a06233681665,64dc7f8eb1391b64cee1fcb9,,,,,,,sngl,resources/DBN.BMP,resources/Empty.png,Door2,-0.312962963,0.052777778,1,0,0,0.6982,optionLeft,40,1150,1,21,0,21,0,1,,,,,,,,,,,,,,,,,,,,,,,,,,,,,,,,,,,,,,,
,,,,,,,,2023-08-16_08h53.12.435,HF_wild_card,2022.2.4,Linux x86_64,58.53772757,5ee0c8a669a88041d4034cea,64d2fd46c836a06233681665,64dc7f8eb1391b64cee1fcb9,,,,,,,decisionTrl,resources/DG.BMP,resources/DP.BMP,WildCard_Ex,0.396296296,-0.005555556,1,0,0,0.4622,optionRight,95,1245,1,22,0,22,0,1,,,,,,,,,,,,,,,,,,,,,,,,,,,,,,,,,,,,,,,
,,,,,,,,2023-08-16_08h53.12.435,HF_wild_card,2022.2.4,Linux x86_64,58.53772757,5ee0c8a669a88041d4034cea,64d2fd46c836a06233681665,64dc7f8eb1391b64cee1fcb9,,,,,,,decisionTrl,resources/DY.BMP,resources/DBN.BMP,Door2,0.347222222,0.075925926,1,0,0,0.5618,optionRight,40,1285,1,23,0,23,0,1,,,,,,,,,,,,,,,,,,,,,,,,,,,,,,,,,,,,,,,
,,,,,,,,2023-08-16_08h53.12.435,HF_wild_card,2022.2.4,Linux x86_64,58.53772757,5ee0c8a669a88041d4034cea,64d2fd46c836a06233681665,64dc7f8eb1391b64cee1fcb9,,,,,,,sngl,resources/Empty.png,resources/DP.BMP,WildCard_Ex,0.45,0.024074074,1,0,0,0.5455,optionRight,5,1290,1,24,0,24,0,1,,,,,,,,,,,,,,,,,,,,,,,,,,,,,,,,,,,,,,,
,,,,,,,,2023-08-16_08h53.12.435,HF_wild_card,2022.2.4,Linux x86_64,58.53772757,5ee0c8a669a88041d4034cea,64d2fd46c836a06233681665,64dc7f8eb1391b64cee1fcb9,,,,,,,ctch,resources/DBN.BMP,resources/DB.BMP,Door2,-0.281481481,-0.013888889,1,0,0,0.4819,optionLeft,40,1330,1,25,0,25,0,1,,,,,,,,,,,,,,,,,,,,,,,,,,,,,,,,,,,,,,,
,,,,,,,,2023-08-16_08h53.12.435,HF_wild_card,2022.2.4,Linux x86_64,58.53772757,5ee0c8a669a88041d4034cea,64d2fd46c836a06233681665,64dc7f8eb1391b64cee1fcb9,,,,,,,sngl,resources/Empty.png,resources/DB.BMP,Door3,0.334259259,0.030555556,1,0,0,0.6468,optionRight,70,1400,1,26,0,26,0,1,,,,,,,,,,,,,,,,,,,,,,,,,,,,,,,,,,,,,,,
,,,,,,,,2023-08-16_08h53.12.435,HF_wild_card,2022.2.4,Linux x86_64,58.53772757,5ee0c8a669a88041d4034cea,64d2fd46c836a06233681665,64dc7f8eb1391b64cee1fcb9,,,,,,,ctch,resources/DB.BMP,resources/DBN.BMP,Door3,-0.361111111,-0.028703704,1,0,0,0.4625,optionLeft,70,1470,1,27,0,27,0,1,,,,,,,,,,,,,,,,,,,,,,,,,,,,,,,,,,,,,,,
,,,,,,,,2023-08-16_08h53.12.435,HF_wild_card,2022.2.4,Linux x86_64,58.53772757,5ee0c8a669a88041d4034cea,64d2fd46c836a06233681665,64dc7f8eb1391b64cee1fcb9,,,,,,,sngl,resources/Empty.png,resources/DBN.BMP,Door2,0.391666667,-0.042592593,1,0,0,0.5142,optionRight,20,1490,1,28,0,28,0,1,,,,,,,,,,,,,,,,,,,,,,,,,,,,,,,,,,,,,,,
,,,,,,,,2023-08-16_08h53.12.435,HF_wild_card,2022.2.4,Linux x86_64,58.53772757,5ee0c8a669a88041d4034cea,64d2fd46c836a06233681665,64dc7f8eb1391b64cee1fcb9,,,,,,,decisionTrl,resources/DG.BMP,resources/DB.BMP,Door4,-0.35,-0.056481481,1,0,0,0.53,optionLeft,60,1550,1,29,0,29,0,1,,,,,,,,,,,,,,,,,,,,,,,,,,,,,,,,,,,,,,,
,,,,,,,,2023-08-16_08h53.12.435,HF_wild_card,2022.2.4,Linux x86_64,58.53772757,5ee0c8a669a88041d4034cea,64d2fd46c836a06233681665,64dc7f8eb1391b64cee1fcb9,,,,,,,decisionTrl,resources/DY.BMP,resources/DBN.BMP,Door1,-0.338888889,-0.05462963,1,0,0,0.4132,optionLeft,30,1580,1,30,0,30,0,1,,,,,,,,,,,,,,,,,,,,,,,,,,,,,,,,,,,,,,,
,,,,,,,,2023-08-16_08h53.12.435,HF_wild_card,2022.2.4,Linux x86_64,58.53772757,5ee0c8a669a88041d4034cea,64d2fd46c836a06233681665,64dc7f8eb1391b64cee1fcb9,,,,,,,ctch,resources/DY.BMP,resources/DG.BMP,Door1,-0.426851852,-0.043518519,1,0,0,0.3636,optionLeft,30,1610,1,31,0,31,0,1,,,,,,,,,,,,,,,,,,,,,,,,,,,,,,,,,,,,,,,
,,,,,,,,2023-08-16_08h53.12.435,HF_wild_card,2022.2.4,Linux x86_64,58.53772757,5ee0c8a669a88041d4034cea,64d2fd46c836a06233681665,64dc7f8eb1391b64cee1fcb9,,,,,,,ctch,resources/DG.BMP,resources/DY.BMP,Door4,-0.336111111,-0.023148148,1,0,0,0.3649,optionLeft,80,1690,1,32,0,32,0,1,,,,,,,,,,,,,,,,,,,,,,,,,,,,,,,,,,,,,,,
,,,,,,,,2023-08-16_08h53.12.435,HF_wild_card,2022.2.4,Linux x86_64,58.53772757,5ee0c8a669a88041d4034cea,64d2fd46c836a06233681665,64dc7f8eb1391b64cee1fcb9,,,,,,,sngl,resources/DB.BMP,resources/Empty.png,Door3,-0.393518519,-0.048148148,1,0,0,0.3804,optionLeft,70,1760,1,33,0,33,0,1,,,,,,,,,,,,,,,,,,,,,,,,,,,,,,,,,,,,,,,
,,,,,,,,2023-08-16_08h53.12.435,HF_wild_card,2022.2.4,Linux x86_64,58.53772757,5ee0c8a669a88041d4034cea,64d2fd46c836a06233681665,64dc7f8eb1391b64cee1fcb9,,,,,,,sngl,resources/DP.BMP,resources/Empty.png,WildCard_Ex,-0.307407407,-0.022222222,1,0,0,0.3806,optionLeft,5,1765,1,34,0,34,0,1,,,,,,,,,,,,,,,,,,,,,,,,,,,,,,,,,,,,,,,
,,,,,,,,2023-08-16_08h53.12.435,HF_wild_card,2022.2.4,Linux x86_64,58.53772757,5ee0c8a669a88041d4034cea,64d2fd46c836a06233681665,64dc7f8eb1391b64cee1fcb9,,,,,,,decisionTrl,resources/DBN.BMP,resources/DY.BMP,Door2,-0.447222222,-0.059259259,1,0,0,0.3476,optionLeft,20,1785,1,35,0,35,0,1,,,,,,,,,,,,,,,,,,,,,,,,,,,,,,,,,,,,,,,
,,,,,,,,2023-08-16_08h53.12.435,HF_wild_card,2022.2.4,Linux x86_64,58.53772757,5ee0c8a669a88041d4034cea,64d2fd46c836a06233681665,64dc7f8eb1391b64cee1fcb9,,,,,,,ctch,resources/DY.BMP,resources/DG.BMP,Door1,-0.371296296,-0.022222222,1,0,0,0.3294,optionLeft,30,1815,1,36,0,36,0,1,,,,,,,,,,,,,,,,,,,,,,,,,,,,,,,,,,,,,,,
,,,,,,,,2023-08-16_08h53.12.435,HF_wild_card,2022.2.4,Linux x86_64,58.53772757,5ee0c8a669a88041d4034cea,64d2fd46c836a06233681665,64dc7f8eb1391b64cee1fcb9,,,,,,,decisionTrl,resources/DP.BMP,resources/DY.BMP,WildCard_Ex,-0.267592593,-0.000925926,1,0,0,0.3797,optionLeft,95,1910,1,37,0,37,0,1,,,,,,,,,,,,,,,,,,,,,,,,,,,,,,,,,,,,,,,
,,,,,,,,2023-08-16_08h53.12.435,HF_wild_card,2022.2.4,Linux x86_64,58.53772757,5ee0c8a669a88041d4034cea,64d2fd46c836a06233681665,64dc7f8eb1391b64cee1fcb9,,,,,,,sngl,resources/DG.BMP,resources/Empty.png,Door4,-0.387962963,-0.046296296,1,0,0,0.4152,optionLeft,80,1990,1,38,0,38,0,1,,,,,,,,,,,,,,,,,,,,,,,,,,,,,,,,,,,,,,,
,,,,,,,,2023-08-16_08h53.12.435,HF_wild_card,2022.2.4,Linux x86_64,58.53772757,5ee0c8a669a88041d4034cea,64d2fd46c836a06233681665,64dc7f8eb1391b64cee1fcb9,,,,,,,decisionTrl,resources/DG.BMP,resources/DB.BMP,Door4,-0.332407407,-0.025925926,1,0,0,0.4125,optionLeft,60,2050,1,39,0,39,0,1,,,,,,,,,,,,,,,,,,,,,,,,,,,,,,,,,,,,,,,
,,,,,,,,2023-08-16_08h53.12.435,HF_wild_card,2022.2.4,Linux x86_64,58.53772757,5ee0c8a669a88041d4034cea,64d2fd46c836a06233681665,64dc7f8eb1391b64cee1fcb9,,,,,,,decisionTrl,resources/DBN.BMP,resources/DY.BMP,Door2,-0.427777778,0.007407407,1,0,0,0.3973,optionLeft,40,2090,1,40,0,40,0,1,,,,,,,,,,,,,,,,,,,,,,,,,,,,,,,,,,,,,,,
,,,,,,,,2023-08-16_08h53.12.435,HF_wild_card,2022.2.4,Linux x86_64,58.53772757,5ee0c8a669a88041d4034cea,64d2fd46c836a06233681665,64dc7f8eb1391b64cee1fcb9,,,,,,,decisionTrl,resources/DP.BMP,resources/DB.BMP,WildCard_Ex,-0.390740741,-0.017592593,1,0,0,0.3796,optionLeft,5,2095,1,41,0,41,0,1,,,,,,,,,,,,,,,,,,,,,,,,,,,,,,,,,,,,,,,
,,,,,,,,2023-08-16_08h53.12.435,HF_wild_card,2022.2.4,Linux x86_64,58.53772757,5ee0c8a669a88041d4034cea,64d2fd46c836a06233681665,64dc7f8eb1391b64cee1fcb9,,,,,,,decisionTrl,resources/DG.BMP,resources/DB.BMP,Door4,-0.315740741,-0.027777778,1,0,0,0.4153,optionLeft,60,2155,1,42,0,42,0,1,,,,,,,,,,,,,,,,,,,,,,,,,,,,,,,,,,,,,,,
,,,,,,,,2023-08-16_08h53.12.435,HF_wild_card,2022.2.4,Linux x86_64,58.53772757,5ee0c8a669a88041d4034cea,64d2fd46c836a06233681665,64dc7f8eb1391b64cee1fcb9,,,,,,,ctch,resources/DB.BMP,resources/DBN.BMP,Door3,-0.512037037,-0.007407407,1,0,0,0.3122,optionLeft,70,2225,1,43,0,43,0,1,,,,,,,,,,,,,,,,,,,,,,,,,,,,,,,,,,,,,,,
,,,,,,,,2023-08-16_08h53.12.435,HF_wild_card,2022.2.4,Linux x86_64,58.53772757,5ee0c8a669a88041d4034cea,64d2fd46c836a06233681665,64dc7f8eb1391b64cee1fcb9,,,,,,,,,,,,,,,,,,,,,,,,,,0,0,0,0,1,,,,,,,,,,,,,,,,,,,,,,,,,,,,,,,,,,
,,,,,,,,2023-08-16_08h53.12.435,HF_wild_card,2022.2.4,Linux x86_64,58.53772757,5ee0c8a669a88041d4034cea,64d2fd46c836a06233681665,64dc7f8eb1391b64cee1fcb9,,,,,,,ctch,resources/DB.BMP,resources/DBN.BMP,Door3,-0.385185185,0,1,0,0,1.5748,optionLeft,70,2295,2,0,0,0,0,1,,,,,,,,,,,,,,,,,,,,,,,,,,,,,,,,,,,,,,,
,,,,,,,,2023-08-16_08h53.12.435,HF_wild_card,2022.2.4,Linux x86_64,58.53772757,5ee0c8a669a88041d4034cea,64d2fd46c836a06233681665,64dc7f8eb1391b64cee1fcb9,,,,,,,decisionTrl,resources/DY.BMP,resources/DBN.BMP,Door1,-0.362962963,-0.014814815,1,0,0,0.3968,optionLeft,30,2325,2,1,0,1,0,1,,,,,,,,,,,,,,,,,,,,,,,,,,,,,,,,,,,,,,,
,,,,,,,,2023-08-16_08h53.12.435,HF_wild_card,2022.2.4,Linux x86_64,58.53772757,5ee0c8a669a88041d4034cea,64d2fd46c836a06233681665,64dc7f8eb1391b64cee1fcb9,,,,,,,decisionTrl,resources/DG.BMP,resources/DB.BMP,Door4,-0.357407407,0.033333333,1,0,0,0.4304,optionLeft,60,2385,2,2,0,2,0,1,,,,,,,,,,,,,,,,,,,,,,,,,,,,,,,,,,,,,,,
,,,,,,,,2023-08-16_08h53.12.435,HF_wild_card,2022.2.4,Linux x86_64,58.53772757,5ee0c8a669a88041d4034cea,64d2fd46c836a06233681665,64dc7f8eb1391b64cee1fcb9,,,,,,,decisionTrl,resources/DP.BMP,resources/DY.BMP,WildCard_Ex,-0.351851852,-0.002777778,1,0,0,0.4135,optionLeft,5,2390,2,3,0,3,0,1,,,,,,,,,,,,,,,,,,,,,,,,,,,,,,,,,,,,,,,
,,,,,,,,2023-08-16_08h53.12.435,HF_wild_card,2022.2.4,Linux x86_64,58.53772757,5ee0c8a669a88041d4034cea,64d2fd46c836a06233681665,64dc7f8eb1391b64cee1fcb9,,,,,,,sngl,resources/DP.BMP,resources/Empty.png,WildCard_Ex,-0.306481481,0.006481481,1,0,0,0.4317,optionLeft,5,2395,2,4,0,4,0,1,,,,,,,,,,,,,,,,,,,,,,,,,,,,,,,,,,,,,,,
,,,,,,,,2023-08-16_08h53.12.435,HF_wild_card,2022.2.4,Linux x86_64,58.53772757,5ee0c8a669a88041d4034cea,64d2fd46c836a06233681665,64dc7f8eb1391b64cee1fcb9,,,,,,,decisionTrl,resources/DY.BMP,resources/DP.BMP,WildCard_Ex,0.416666667,-0.009259259,1,0,0,0.4136,optionRight,5,2400,2,5,0,5,0,1,,,,,,,,,,,,,,,,,,,,,,,,,,,,,,,,,,,,,,,
,,,,,,,,2023-08-16_08h53.12.435,HF_wild_card,2022.2.4,Linux x86_64,58.53772757,5ee0c8a669a88041d4034cea,64d2fd46c836a06233681665,64dc7f8eb1391b64cee1fcb9,,,,,,,decisionTrl,resources/DBN.BMP,resources/DY.BMP,Door2,-0.24537037,-0.007407407,1,0,0,0.3969,optionLeft,40,2440,2,6,0,6,0,1,,,,,,,,,,,,,,,,,,,,,,,,,,,,,,,,,,,,,,,
,,,,,,,,2023-08-16_08h53.12.435,HF_wild_card,2022.2.4,Linux x86_64,58.53772757,5ee0c8a669a88041d4034cea,64d2fd46c836a06233681665,64dc7f8eb1391b64cee1fcb9,,,,,,,decisionTrl,resources/DBN.BMP,resources/DY.BMP,Door1,0.314814815,-0.003703704,1,0,0,0.397,optionRight,30,2470,2,7,0,7,0,1,,,,,,,,,,,,,,,,,,,,,,,,,,,,,,,,,,,,,,,
,,,,,,,,2023-08-16_08h53.12.435,HF_wild_card,2022.2.4,Linux x86_64,58.53772757,5ee0c8a669a88041d4034cea,64d2fd46c836a06233681665,64dc7f8eb1391b64cee1fcb9,,,,,,,sngl,resources/Empty.png,resources/DP.BMP,WildCard_Ex,0.223148148,0.003703704,1,0,0,0.846,optionRight,5,2475,2,8,0,8,0,1,,,,,,,,,,,,,,,,,,,,,,,,,,,,,,,,,,,,,,,
,,,,,,,,2023-08-16_08h53.12.435,HF_wild_card,2022.2.4,Linux x86_64,58.53772757,5ee0c8a669a88041d4034cea,64d2fd46c836a06233681665,64dc7f8eb1391b64cee1fcb9,,,,,,,sngl,resources/DB.BMP,resources/Empty.png,Door3,-0.336111111,0.02037037,1,0,0,0.414,optionLeft,70,2545,2,9,0,9,0,1,,,,,,,,,,,,,,,,,,,,,,,,,,,,,,,,,,,,,,,
,,,,,,,,2023-08-16_08h53.12.435,HF_wild_card,2022.2.4,Linux x86_64,58.53772757,5ee0c8a669a88041d4034cea,64d2fd46c836a06233681665,64dc7f8eb1391b64cee1fcb9,,,,,,,decisionTrl,resources/DB.BMP,resources/DG.BMP,Door3,-0.327777778,-0.012037037,1,0,0,0.5136,optionLeft,70,2615,2,10,0,10,0,1,,,,,,,,,,,,,,,,,,,,,,,,,,,,,,,,,,,,,,,
,,,,,,,,2023-08-16_08h53.12.435,HF_wild_card,2022.2.4,Linux x86_64,58.53772757,5ee0c8a669a88041d4034cea,64d2fd46c836a06233681665,64dc7f8eb1391b64cee1fcb9,,,,,,,decisionTrl,resources/DG.BMP,resources/DP.BMP,Door4,-0.419444444,-0.024074074,1,0,0,0.4321,optionLeft,60,2675,2,11,0,11,0,1,,,,,,,,,,,,,,,,,,,,,,,,,,,,,,,,,,,,,,,
,,,,,,,,2023-08-16_08h53.12.435,HF_wild_card,2022.2.4,Linux x86_64,58.53772757,5ee0c8a669a88041d4034cea,64d2fd46c836a06233681665,64dc7f8eb1391b64cee1fcb9,,,,,,,sngl,resources/DG.BMP,resources/Empty.png,Door4,-0.382407407,-0.002777778,1,0,0,0.3634,optionLeft,60,2735,2,12,0,12,0,1,,,,,,,,,,,,,,,,,,,,,,,,,,,,,,,,,,,,,,,
,,,,,,,,2023-08-16_08h53.12.435,HF_wild_card,2022.2.4,Linux x86_64,58.53772757,5ee0c8a669a88041d4034cea,64d2fd46c836a06233681665,64dc7f8eb1391b64cee1fcb9,,,,,,,decisionTrl,resources/DB.BMP,resources/DP.BMP,Door3,-0.336111111,-0.012037037,1,0,0,0.3293,optionLeft,70,2805,2,13,0,13,0,1,,,,,,,,,,,,,,,,,,,,,,,,,,,,,,,,,,,,,,,
,,,,,,,,2023-08-16_08h53.12.435,HF_wild_card,2022.2.4,Linux x86_64,58.53772757,5ee0c8a669a88041d4034cea,64d2fd46c836a06233681665,64dc7f8eb1391b64cee1fcb9,,,,,,,decisionTrl,resources/DP.BMP,resources/DG.BMP,WildCard_Ex,-0.32037037,-0.008333333,1,0,0,0.348,optionLeft,5,2810,2,14,0,14,0,1,,,,,,,,,,,,,,,,,,,,,,,,,,,,,,,,,,,,,,,
,,,,,,,,2023-08-16_08h53.12.435,HF_wild_card,2022.2.4,Linux x86_64,58.53772757,5ee0c8a669a88041d4034cea,64d2fd46c836a06233681665,64dc7f8eb1391b64cee1fcb9,,,,,,,decisionTrl,resources/DB.BMP,resources/DG.BMP,Door3,-0.398148148,-0.012037037,1,0,0,0.3302,optionLeft,70,2880,2,15,0,15,0,1,,,,,,,,,,,,,,,,,,,,,,,,,,,,,,,,,,,,,,,
,,,,,,,,2023-08-16_08h53.12.435,HF_wild_card,2022.2.4,Linux x86_64,58.53772757,5ee0c8a669a88041d4034cea,64d2fd46c836a06233681665,64dc7f8eb1391b64cee1fcb9,,,,,,,ctch,resources/DY.BMP,resources/DG.BMP,Door1,-0.355555556,-0.013888889,1,0,0,0.364,optionLeft,30,2910,2,16,0,16,0,1,,,,,,,,,,,,,,,,,,,,,,,,,,,,,,,,,,,,,,,
,,,,,,,,2023-08-16_08h53.12.435,HF_wild_card,2022.2.4,Linux x86_64,58.53772757,5ee0c8a669a88041d4034cea,64d2fd46c836a06233681665,64dc7f8eb1391b64cee1fcb9,,,,,,,sngl,resources/DY.BMP,resources/Empty.png,Door1,-0.362962963,-0.003703704,1,0,0,0.348,optionLeft,30,2940,2,17,0,17,0,1,,,,,,,,,,,,,,,,,,,,,,,,,,,,,,,,,,,,,,,
,,,,,,,,2023-08-16_08h53.12.435,HF_wild_card,2022.2.4,Linux x86_64,58.53772757,5ee0c8a669a88041d4034cea,64d2fd46c836a06233681665,64dc7f8eb1391b64cee1fcb9,,,,,,,ctch,resources/DG.BMP,resources/DY.BMP,Door4,-0.296296296,-0.013888889,1,0,0,0.3465,optionLeft,80,3020,2,18,0,18,0,1,,,,,,,,,,,,,,,,,,,,,,,,,,,,,,,,,,,,,,,
,,,,,,,,2023-08-16_08h53.12.435,HF_wild_card,2022.2.4,Linux x86_64,58.53772757,5ee0c8a669a88041d4034cea,64d2fd46c836a06233681665,64dc7f8eb1391b64cee1fcb9,,,,,,,sngl,resources/Empty.png,resources/DP.BMP,WildCard_Ex,0.353703704,-0.013888889,1,0,0,0.7308,optionRight,95,3115,2,19,0,19,0,1,,,,,,,,,,,,,,,,,,,,,,,,,,,,,,,,,,,,,,,
,,,,,,,,2023-08-16_08h53.12.435,HF_wild_card,2022.2.4,Linux x86_64,58.53772757,5ee0c8a669a88041d4034cea,64d2fd46c836a06233681665,64dc7f8eb1391b64cee1fcb9,,,,,,,decisionTrl,resources/DBN.BMP,resources/DP.BMP,Door2,-0.218518519,0.025925926,1,0,0,0.5302,optionLeft,20,3135,2,20,0,20,0,1,,,,,,,,,,,,,,,,,,,,,,,,,,,,,,,,,,,,,,,
,,,,,,,,2023-08-16_08h53.12.435,HF_wild_card,2022.2.4,Linux x86_64,58.53772757,5ee0c8a669a88041d4034cea,64d2fd46c836a06233681665,64dc7f8eb1391b64cee1fcb9,,,,,,,decisionTrl,resources/DBN.BMP,resources/DY.BMP,Door2,-0.224074074,-0.003703704,1,0,0,0.5296,optionLeft,40,3175,2,21,0,21,0,1,,,,,,,,,,,,,,,,,,,,,,,,,,,,,,,,,,,,,,,
,,,,,,,,2023-08-16_08h53.12.435,HF_wild_card,2022.2.4,Linux x86_64,58.53772757,5ee0c8a669a88041d4034cea,64d2fd46c836a06233681665,64dc7f8eb1391b64cee1fcb9,,,,,,,sngl,resources/DBN.BMP,resources/Empty.png,Door2,-0.27962963,0.006481481,1,0,0,0.463,optionLeft,20,3195,2,22,0,22,0,1,,,,,,,,,,,,,,,,,,,,,,,,,,,,,,,,,,,,,,,
,,,,,,,,2023-08-16_08h53.12.435,HF_wild_card,2022.2.4,Linux x86_64,58.53772757,5ee0c8a669a88041d4034cea,64d2fd46c836a06233681665,64dc7f8eb1391b64cee1fcb9,,,,,,,decisionTrl,resources/DG.BMP,resources/DB.BMP,Door4,-0.30462963,-0.033333333,1,0,0,0.5287,optionLeft,60,3255,2,23,0,23,0,1,,,,,,,,,,,,,,,,,,,,,,,,,,,,,,,,,,,,,,,
,,,,,,,,2023-08-16_08h53.12.435,HF_wild_card,2022.2.4,Linux x86_64,58.53772757,5ee0c8a669a88041d4034cea,64d2fd46c836a06233681665,64dc7f8eb1391b64cee1fcb9,,,,,,,decisionTrl,resources/DY.BMP,resources/DBN.BMP,Door1,-0.256481481,-0.017592593,1,0,0,0.4462,optionLeft,30,3285,2,24,0,24,0,1,,,,,,,,,,,,,,,,,,,,,,,,,,,,,,,,,,,,,,,
,,,,,,,,2023-08-16_08h53.12.435,HF_wild_card,2022.2.4,Linux x86_64,58.53772757,5ee0c8a669a88041d4034cea,64d2fd46c836a06233681665,64dc7f8eb1391b64cee1fcb9,,,,,,,ctch,resources/DG.BMP,resources/DY.BMP,Door4,-0.191666667,-0.015740741,1,0,0,0.5959,optionLeft,60,3345,2,25,0,25,0,1,,,,,,,,,,,,,,,,,,,,,,,,,,,,,,,,,,,,,,,
,,,,,,,,2023-08-16_08h53.12.435,HF_wild_card,2022.2.4,Linux x86_64,58.53772757,5ee0c8a669a88041d4034cea,64d2fd46c836a06233681665,64dc7f8eb1391b64cee1fcb9,,,,,,,sngl,resources/Empty.png,resources/DB.BMP,Door3,0.275925926,0.023148148,1,0,0,0.5308,optionRight,70,3415,2,26,0,26,0,1,,,,,,,,,,,,,,,,,,,,,,,,,,,,,,,,,,,,,,,
,,,,,,,,2023-08-16_08h53.12.435,HF_wild_card,2022.2.4,Linux x86_64,58.53772757,5ee0c8a669a88041d4034cea,64d2fd46c836a06233681665,64dc7f8eb1391b64cee1fcb9,,,,,,,decisionTrl,resources/DG.BMP,resources/DB.BMP,Door4,-0.268518519,0.027777778,1,0,0,0.3981,optionLeft,80,3495,2,27,0,27,0,1,,,,,,,,,,,,,,,,,,,,,,,,,,,,,,,,,,,,,,,
,,,,,,,,2023-08-16_08h53.12.435,HF_wild_card,2022.2.4,Linux x86_64,58.53772757,5ee0c8a669a88041d4034cea,64d2fd46c836a06233681665,64dc7f8eb1391b64cee1fcb9,,,,,,,ctch,resources/DBN.BMP,resources/DB.BMP,Door2,-0.387037037,0.012037037,1,0,0,0.3802,optionLeft,20,3515,2,28,0,28,0,1,,,,,,,,,,,,,,,,,,,,,,,,,,,,,,,,,,,,,,,
,,,,,,,,2023-08-16_08h53.12.435,HF_wild_card,2022.2.4,Linux x86_64,58.53772757,5ee0c8a669a88041d4034cea,64d2fd46c836a06233681665,64dc7f8eb1391b64cee1fcb9,,,,,,,sngl,resources/Empty.png,resources/DG.BMP,Door4,0.367592593,0.000925926,1,0,0,0.6804,optionRight,80,3595,2,29,0,29,0,1,,,,,,,,,,,,,,,,,,,,,,,,,,,,,,,,,,,,,,,
,,,,,,,,2023-08-16_08h53.12.435,HF_wild_card,2022.2.4,Linux x86_64,58.53772757,5ee0c8a669a88041d4034cea,64d2fd46c836a06233681665,64dc7f8eb1391b64cee1fcb9,,,,,,,decisionTrl,resources/DG.BMP,resources/DB.BMP,Door4,-0.405555556,-0.011111111,1,0,0,0.3963,optionLeft,60,3655,2,30,0,30,0,1,,,,,,,,,,,,,,,,,,,,,,,,,,,,,,,,,,,,,,,
,,,,,,,,2023-08-16_08h53.12.435,HF_wild_card,2022.2.4,Linux x86_64,58.53772757,5ee0c8a669a88041d4034cea,64d2fd46c836a06233681665,64dc7f8eb1391b64cee1fcb9,,,,,,,ctch,resources/DB.BMP,resources/DBN.BMP,Door3,-0.34537037,0.00462963,1,0,0,0.4967,optionLeft,70,3725,2,31,0,31,0,1,,,,,,,,,,,,,,,,,,,,,,,,,,,,,,,,,,,,,,,
,,,,,,,,2023-08-16_08h53.12.435,HF_wild_card,2022.2.4,Linux x86_64,58.53772757,5ee0c8a669a88041d4034cea,64d2fd46c836a06233681665,64dc7f8eb1391b64cee1fcb9,,,,,,,decisionTrl,resources/DB.BMP,resources/DG.BMP,Door3,-0.399074074,-0.015740741,1,0,0,0.3634,optionLeft,70,3795,2,32,0,32,0,1,,,,,,,,,,,,,,,,,,,,,,,,,,,,,,,,,,,,,,,
,,,,,,,,2023-08-16_08h53.12.435,HF_wild_card,2022.2.4,Linux x86_64,58.53772757,5ee0c8a669a88041d4034cea,64d2fd46c836a06233681665,64dc7f8eb1391b64cee1fcb9,,,,,,,decisionTrl,resources/DY.BMP,resources/DBN.BMP,Door1,-0.393518519,-0.030555556,1,0,0,0.3968,optionLeft,30,3825,2,33,0,33,0,1,,,,,,,,,,,,,,,,,,,,,,,,,,,,,,,,,,,,,,,
,,,,,,,,2023-08-16_08h53.12.435,HF_wild_card,2022.2.4,Linux x86_64,58.53772757,5ee0c8a669a88041d4034cea,64d2fd46c836a06233681665,64dc7f8eb1391b64cee1fcb9,,,,,,,decisionTrl,resources/DY.BMP,resources/DBN.BMP,Door1,-0.37037037,-0.039814815,1,0,0,0.3643,optionLeft,30,3855,2,34,0,34,0,1,,,,,,,,,,,,,,,,,,,,,,,,,,,,,,,,,,,,,,,
,,,,,,,,2023-08-16_08h53.12.435,HF_wild_card,2022.2.4,Linux x86_64,58.53772757,5ee0c8a669a88041d4034cea,64d2fd46c836a06233681665,64dc7f8eb1391b64cee1fcb9,,,,,,,sngl,resources/DP.BMP,resources/Empty.png,WildCard_Ex,-0.386111111,-0.055555556,1,0,0,0.3795,optionLeft,95,3950,2,35,0,35,0,1,,,,,,,,,,,,,,,,,,,,,,,,,,,,,,,,,,,,,,,
,,,,,,,,2023-08-16_08h53.12.435,HF_wild_card,2022.2.4,Linux x86_64,58.53772757,5ee0c8a669a88041d4034cea,64d2fd46c836a06233681665,64dc7f8eb1391b64cee1fcb9,,,,,,,decisionTrl,resources/DP.BMP,resources/DBN.BMP,WildCard_Ex,-0.45,-0.050925926,1,0,0,0.3971,optionLeft,95,4045,2,36,0,36,0,1,,,,,,,,,,,,,,,,,,,,,,,,,,,,,,,,,,,,,,,
,,,,,,,,2023-08-16_08h53.12.435,HF_wild_card,2022.2.4,Linux x86_64,58.53772757,5ee0c8a669a88041d4034cea,64d2fd46c836a06233681665,64dc7f8eb1391b64cee1fcb9,,,,,,,decisionTrl,resources/DBN.BMP,resources/DY.BMP,Door2,-0.350925926,-0.010185185,1,0,0,0.3813,optionLeft,20,4065,2,37,0,37,0,1,,,,,,,,,,,,,,,,,,,,,,,,,,,,,,,,,,,,,,,
,,,,,,,,2023-08-16_08h53.12.435,HF_wild_card,2022.2.4,Linux x86_64,58.53772757,5ee0c8a669a88041d4034cea,64d2fd46c836a06233681665,64dc7f8eb1391b64cee1fcb9,,,,,,,ctch,resources/DY.BMP,resources/DG.BMP,Door1,-0.435185185,-0.026851852,1,0,0,0.3151,optionLeft,30,4095,2,38,0,38,0,1,,,,,,,,,,,,,,,,,,,,,,,,,,,,,,,,,,,,,,,
,,,,,,,,2023-08-16_08h53.12.435,HF_wild_card,2022.2.4,Linux x86_64,58.53772757,5ee0c8a669a88041d4034cea,64d2fd46c836a06233681665,64dc7f8eb1391b64cee1fcb9,,,,,,,sngl,resources/Empty.png,resources/DY.BMP,Door1,0.344444444,-0.021296296,1,0,0,0.6804,optionRight,30,4125,2,39,0,39,0,1,,,,,,,,,,,,,,,,,,,,,,,,,,,,,,,,,,,,,,,
,,,,,,,,2023-08-16_08h53.12.435,HF_wild_card,2022.2.4,Linux x86_64,58.53772757,5ee0c8a669a88041d4034cea,64d2fd46c836a06233681665,64dc7f8eb1391b64cee1fcb9,,,,,,,decisionTrl,resources/DB.BMP,resources/DG.BMP,Door3,-0.371296296,0.033333333,1,0,0,0.3801,optionLeft,70,4195,2,40,0,40,0,1,,,,,,,,,,,,,,,,,,,,,,,,,,,,,,,,,,,,,,,
,,,,,,,,2023-08-16_08h53.12.435,HF_wild_card,2022.2.4,Linux x86_64,58.53772757,5ee0c8a669a88041d4034cea,64d2fd46c836a06233681665,64dc7f8eb1391b64cee1fcb9,,,,,,,sngl,resources/Empty.png,resources/DBN.BMP,Door2,0.22037037,0.021296296,1,0,0,0.5958,optionRight,40,4235,2,41,0,41,0,1,,,,,,,,,,,,,,,,,,,,,,,,,,,,,,,,,,,,,,,
,,,,,,,,2023-08-16_08h53.12.435,HF_wild_card,2022.2.4,Linux x86_64,58.53772757,5ee0c8a669a88041d4034cea,64d2fd46c836a06233681665,64dc7f8eb1391b64cee1fcb9,,,,,,,decisionTrl,resources/DP.BMP,resources/DB.BMP,WildCard_Ex,-0.484259259,-0.024074074,1,0,0,0.3636,optionLeft,95,4330,2,42,0,42,0,1,,,,,,,,,,,,,,,,,,,,,,,,,,,,,,,,,,,,,,,
,,,,,,,,2023-08-16_08h53.12.435,HF_wild_card,2022.2.4,Linux x86_64,58.53772757,5ee0c8a669a88041d4034cea,64d2fd46c836a06233681665,64dc7f8eb1391b64cee1fcb9,,,,,,,ctch,resources/DBN.BMP,resources/DB.BMP,Door2,-0.386111111,-0.011111111,1,0,0,0.3628,optionLeft,20,4350,2,43,0,43,0,1,,,,,,,,,,,,,,,,,,,,,,,,,,,,,,,,,,,,,,,
,,,,,,,,2023-08-16_08h53.12.435,HF_wild_card,2022.2.4,Linux x86_64,58.53772757,5ee0c8a669a88041d4034cea,64d2fd46c836a06233681665,64dc7f8eb1391b64cee1fcb9,,,,,,,,,,,,,,,,,,,,,,,,,,1,0,1,0,1,,,,,,,,,,,,,,,,,,,,,,,,,,,,,,,,,,
,,,,,,,,2023-08-16_08h53.12.435,HF_wild_card,2022.2.4,Linux x86_64,58.53772757,5ee0c8a669a88041d4034cea,64d2fd46c836a06233681665,64dc7f8eb1391b64cee1fcb9,,,,,,,decisionTrl,resources/DB.BMP,resources/DG.BMP,Door3,-0.377777778,0.023148148,1,0,0,0.8582,optionLeft,70,4420,3,0,0,0,0,1,,,,,,,,,,,,,,,,,,,,,,,,,,,,,,,,,,,,,,,
,,,,,,,,2023-08-16_08h53.12.435,HF_wild_card,2022.2.4,Linux x86_64,58.53772757,5ee0c8a669a88041d4034cea,64d2fd46c836a06233681665,64dc7f8eb1391b64cee1fcb9,,,,,,,decisionTrl,resources/DBN.BMP,resources/DP.BMP,Door2,-0.368518519,-0.031481481,1,0,0,0.4302,optionLeft,40,4460,3,1,0,1,0,1,,,,,,,,,,,,,,,,,,,,,,,,,,,,,,,,,,,,,,,
,,,,,,,,2023-08-16_08h53.12.435,HF_wild_card,2022.2.4,Linux x86_64,58.53772757,5ee0c8a669a88041d4034cea,64d2fd46c836a06233681665,64dc7f8eb1391b64cee1fcb9,,,,,,,decisionTrl,resources/DBN.BMP,resources/DY.BMP,Door2,-0.400925926,0.00462963,1,0,0,0.3642,optionLeft,20,4480,3,2,0,2,0,1,,,,,,,,,,,,,,,,,,,,,,,,,,,,,,,,,,,,,,,
,,,,,,,,2023-08-16_08h53.12.435,HF_wild_card,2022.2.4,Linux x86_64,58.53772757,5ee0c8a669a88041d4034cea,64d2fd46c836a06233681665,64dc7f8eb1391b64cee1fcb9,,,,,,,sngl,resources/DP.BMP,resources/Empty.png,WildCard_Ex,-0.44537037,0.011111111,1,0,0,0.3649,optionLeft,95,4575,3,3,0,3,0,1,,,,,,,,,,,,,,,,,,,,,,,,,,,,,,,,,,,,,,,
,,,,,,,,2023-08-16_08h53.12.435,HF_wild_card,2022.2.4,Linux x86_64,58.53772757,5ee0c8a669a88041d4034cea,64d2fd46c836a06233681665,64dc7f8eb1391b64cee1fcb9,,,,,,,decisionTrl,resources/DB.BMP,resources/DP.BMP,Door3,-0.366666667,0,1,0,0,0.3132,optionLeft,70,4645,3,4,0,4,0,1,,,,,,,,,,,,,,,,,,,,,,,,,,,,,,,,,,,,,,,
,,,,,,,,2023-08-16_08h53.12.435,HF_wild_card,2022.2.4,Linux x86_64,58.53772757,5ee0c8a669a88041d4034cea,64d2fd46c836a06233681665,64dc7f8eb1391b64cee1fcb9,,,,,,,sngl,resources/Empty.png,resources/DY.BMP,Door1,0.338888889,0.065740741,1,0,0,0.6295,optionRight,30,4675,3,5,0,5,0,1,,,,,,,,,,,,,,,,,,,,,,,,,,,,,,,,,,,,,,,
,,,,,,,,2023-08-16_08h53.12.435,HF_wild_card,2022.2.4,Linux x86_64,58.53772757,5ee0c8a669a88041d4034cea,64d2fd46c836a06233681665,64dc7f8eb1391b64cee1fcb9,,,,,,,decisionTrl,resources/DP.BMP,resources/DB.BMP,WildCard_Ex,-0.262037037,0.005555556,1,0,0,0.4129,optionLeft,95,4770,3,6,0,6,0,1,,,,,,,,,,,,,,,,,,,,,,,,,,,,,,,,,,,,,,,
,,,,,,,,2023-08-16_08h53.12.435,HF_wild_card,2022.2.4,Linux x86_64,58.53772757,5ee0c8a669a88041d4034cea,64d2fd46c836a06233681665,64dc7f8eb1391b64cee1fcb9,,,,,,,decisionTrl,resources/DP.BMP,resources/DG.BMP,WildCard_Ex,-0.311111111,-0.017592593,1,0,0,0.3803,optionLeft,95,4865,3,7,0,7,0,1,,,,,,,,,,,,,,,,,,,,,,,,,,,,,,,,,,,,,,,
,,,,,,,,2023-08-16_08h53.12.435,HF_wild_card,2022.2.4,Linux x86_64,58.53772757,5ee0c8a669a88041d4034cea,64d2fd46c836a06233681665,64dc7f8eb1391b64cee1fcb9,,,,,,,decisionTrl,resources/DG.BMP,resources/DP.BMP,Door4,-0.314814815,-0.027777778,1,0,0,0.4133,optionLeft,80,4945,3,8,0,8,0,1,,,,,,,,,,,,,,,,,,,,,,,,,,,,,,,,,,,,,,,
,,,,,,,,2023-08-16_08h53.12.435,HF_wild_card,2022.2.4,Linux x86_64,58.53772757,5ee0c8a669a88041d4034cea,64d2fd46c836a06233681665,64dc7f8eb1391b64cee1fcb9,,,,,,,ctch,resources/DB.BMP,resources/DBN.BMP,Door3,-0.308333333,-0.014814815,1,0,0,0.3964,optionLeft,70,5015,3,9,0,9,0,1,,,,,,,,,,,,,,,,,,,,,,,,,,,,,,,,,,,,,,,
,,,,,,,,2023-08-16_08h53.12.435,HF_wild_card,2022.2.4,Linux x86_64,58.53772757,5ee0c8a669a88041d4034cea,64d2fd46c836a06233681665,64dc7f8eb1391b64cee1fcb9,,,,,,,decisionTrl,resources/DY.BMP,resources/DP.BMP,Door1,-0.203703704,-0.021296296,1,0,0,0.3786,optionLeft,30,5045,3,10,0,10,0,1,,,,,,,,,,,,,,,,,,,,,,,,,,,,,,,,,,,,,,,
,,,,,,,,2023-08-16_08h53.12.435,HF_wild_card,2022.2.4,Linux x86_64,58.53772757,5ee0c8a669a88041d4034cea,64d2fd46c836a06233681665,64dc7f8eb1391b64cee1fcb9,,,,,,,decisionTrl,resources/DG.BMP,resources/DB.BMP,Door4,-0.276851852,-0.035185185,1,0,0,0.3825,optionLeft,60,5105,3,11,0,11,0,1,,,,,,,,,,,,,,,,,,,,,,,,,,,,,,,,,,,,,,,
,,,,,,,,2023-08-16_08h53.12.435,HF_wild_card,2022.2.4,Linux x86_64,58.53772757,5ee0c8a669a88041d4034cea,64d2fd46c836a06233681665,64dc7f8eb1391b64cee1fcb9,,,,,,,decisionTrl,resources/DG.BMP,resources/DB.BMP,Door4,-0.377777778,0.015740741,1,0,0,0.3964,optionLeft,80,5185,3,12,0,12,0,1,,,,,,,,,,,,,,,,,,,,,,,,,,,,,,,,,,,,,,,
,,,,,,,,2023-08-16_08h53.12.435,HF_wild_card,2022.2.4,Linux x86_64,58.53772757,5ee0c8a669a88041d4034cea,64d2fd46c836a06233681665,64dc7f8eb1391b64cee1fcb9,,,,,,,ctch,resources/DY.BMP,resources/DG.BMP,Door1,-0.303703704,0.007407407,1,0,0,0.4139,optionLeft,30,5215,3,13,0,13,0,1,,,,,,,,,,,,,,,,,,,,,,,,,,,,,,,,,,,,,,,
,,,,,,,,2023-08-16_08h53.12.435,HF_wild_card,2022.2.4,Linux x86_64,58.53772757,5ee0c8a669a88041d4034cea,64d2fd46c836a06233681665,64dc7f8eb1391b64cee1fcb9,,,,,,,sngl,resources/Empty.png,resources/DP.BMP,WildCard_Ex,0.407407407,0.006481481,1,0,0,0.5954,optionRight,95,5310,3,14,0,14,0,1,,,,,,,,,,,,,,,,,,,,,,,,,,,,,,,,,,,,,,,
,,,,,,,,2023-08-16_08h53.12.435,HF_wild_card,2022.2.4,Linux x86_64,58.53772757,5ee0c8a669a88041d4034cea,64d2fd46c836a06233681665,64dc7f8eb1391b64cee1fcb9,,,,,,,sngl,resources/Empty.png,resources/DG.BMP,Door4,0.330555556,0.027777778,1,0,0,0.6469,optionRight,60,5370,3,15,0,15,0,1,,,,,,,,,,,,,,,,,,,,,,,,,,,,,,,,,,,,,,,
,,,,,,,,2023-08-16_08h53.12.435,HF_wild_card,2022.2.4,Linux x86_64,58.53772757,5ee0c8a669a88041d4034cea,64d2fd46c836a06233681665,64dc7f8eb1391b64cee1fcb9,,,,,,,sngl,resources/DG.BMP,resources/Empty.png,Door4,-0.377777778,0.010185185,1,0,0,0.429,optionLeft,80,5450,3,16,0,16,0,1,,,,,,,,,,,,,,,,,,,,,,,,,,,,,,,,,,,,,,,
,,,,,,,,2023-08-16_08h53.12.435,HF_wild_card,2022.2.4,Linux x86_64,58.53772757,5ee0c8a669a88041d4034cea,64d2fd46c836a06233681665,64dc7f8eb1391b64cee1fcb9,,,,,,,decisionTrl,resources/DP.BMP,resources/DBN.BMP,WildCard_Ex,-0.435185185,-0.019444444,1,0,0,0.3803,optionLeft,95,5545,3,17,0,17,0,1,,,,,,,,,,,,,,,,,,,,,,,,,,,,,,,,,,,,,,,
,,,,,,,,2023-08-16_08h53.12.435,HF_wild_card,2022.2.4,Linux x86_64,58.53772757,5ee0c8a669a88041d4034cea,64d2fd46c836a06233681665,64dc7f8eb1391b64cee1fcb9,,,,,,,decisionTrl,resources/DY.BMP,resources/DBN.BMP,Door1,-0.360185185,-0.024074074,1,0,0,0.3962,optionLeft,30,5575,3,18,0,18,0,1,,,,,,,,,,,,,,,,,,,,,,,,,,,,,,,,,,,,,,,
,,,,,,,,2023-08-16_08h53.12.435,HF_wild_card,2022.2.4,Linux x86_64,58.53772757,5ee0c8a669a88041d4034cea,64d2fd46c836a06233681665,64dc7f8eb1391b64cee1fcb9,,,,,,,sngl,resources/DP.BMP,resources/Empty.png,WildCard_Ex,-0.401851852,-0.035185185,1,0,0,0.3466,optionLeft,5,5580,3,19,0,19,0,1,,,,,,,,,,,,,,,,,,,,,,,,,,,,,,,,,,,,,,,
,,,,,,,,2023-08-16_08h53.12.435,HF_wild_card,2022.2.4,Linux x86_64,58.53772757,5ee0c8a669a88041d4034cea,64d2fd46c836a06233681665,64dc7f8eb1391b64cee1fcb9,,,,,,,decisionTrl,resources/DY.BMP,resources/DBN.BMP,Door1,-0.40462963,-0.033333333,1,0,0,0.363,optionLeft,30,5610,3,20,0,20,0,1,,,,,,,,,,,,,,,,,,,,,,,,,,,,,,,,,,,,,,,
,,,,,,,,2023-08-16_08h53.12.435,HF_wild_card,2022.2.4,Linux x86_64,58.53772757,5ee0c8a669a88041d4034cea,64d2fd46c836a06233681665,64dc7f8eb1391b64cee1fcb9,,,,,,,decisionTrl,resources/DB.BMP,resources/DG.BMP,Door3,-0.359259259,-0.016666667,1,0,0,0.3127,optionLeft,70,5680,3,21,0,21,0,1,,,,,,,,,,,,,,,,,,,,,,,,,,,,,,,,,,,,,,,
,,,,,,,,2023-08-16_08h53.12.435,HF_wild_card,2022.2.4,Linux x86_64,58.53772757,5ee0c8a669a88041d4034cea,64d2fd46c836a06233681665,64dc7f8eb1391b64cee1fcb9,,,,,,,sngl,resources/DY.BMP,resources/Empty.png,Door1,-0.393518519,-0.067592593,1,0,0,0.3623,optionLeft,30,5710,3,22,0,22,0,1,,,,,,,,,,,,,,,,,,,,,,,,,,,,,,,,,,,,,,,
,,,,,,,,2023-08-16_08h53.12.435,HF_wild_card,2022.2.4,Linux x86_64,58.53772757,5ee0c8a669a88041d4034cea,64d2fd46c836a06233681665,64dc7f8eb1391b64cee1fcb9,,,,,,,sngl,resources/DB.BMP,resources/Empty.png,Door3,-0.375,-0.00462963,1,0,0,0.2968,optionLeft,70,5780,3,23,0,23,0,1,,,,,,,,,,,,,,,,,,,,,,,,,,,,,,,,,,,,,,,
,,,,,,,,2023-08-16_08h53.12.435,HF_wild_card,2022.2.4,Linux x86_64,58.53772757,5ee0c8a669a88041d4034cea,64d2fd46c836a06233681665,64dc7f8eb1391b64cee1fcb9,,,,,,,decisionTrl,resources/DY.BMP,resources/DBN.BMP,Door1,-0.328703704,-0.009259259,1,0,0,0.3308,optionLeft,30,5810,3,24,0,24,0,1,,,,,,,,,,,,,,,,,,,,,,,,,,,,,,,,,,,,,,,
,,,,,,,,2023-08-16_08h53.12.435,HF_wild_card,2022.2.4,Linux x86_64,58.53772757,5ee0c8a669a88041d4034cea,64d2fd46c836a06233681665,64dc7f8eb1391b64cee1fcb9,,,,,,,sngl,resources/Empty.png,resources/DB.BMP,Door3,0.400925926,0.015740741,1,0,0,0.5778,optionRight,70,5880,3,25,0,25,0,1,,,,,,,,,,,,,,,,,,,,,,,,,,,,,,,,,,,,,,,
,,,,,,,,2023-08-16_08h53.12.435,HF_wild_card,2022.2.4,Linux x86_64,58.53772757,5ee0c8a669a88041d4034cea,64d2fd46c836a06233681665,64dc7f8eb1391b64cee1fcb9,,,,,,,ctch,resources/DG.BMP,resources/DY.BMP,Door4,-0.446296296,0.018518519,1,0,0,0.3643,optionLeft,60,5940,3,26,0,26,0,1,,,,,,,,,,,,,,,,,,,,,,,,,,,,,,,,,,,,,,,
,,,,,,,,2023-08-16_08h53.12.435,HF_wild_card,2022.2.4,Linux x86_64,58.53772757,5ee0c8a669a88041d4034cea,64d2fd46c836a06233681665,64dc7f8eb1391b64cee1fcb9,,,,,,,ctch,resources/DBN.BMP,resources/DB.BMP,Door2,-0.376851852,0.005555556,1,0,0,0.3472,optionLeft,20,5960,3,27,0,27,0,1,,,,,,,,,,,,,,,,,,,,,,,,,,,,,,,,,,,,,,,
,,,,,,,,2023-08-16_08h53.12.435,HF_wild_card,2022.2.4,Linux x86_64,58.53772757,5ee0c8a669a88041d4034cea,64d2fd46c836a06233681665,64dc7f8eb1391b64cee1fcb9,,,,,,,sngl,resources/DBN.BMP,resources/Empty.png,Door2,-0.411111111,-0.027777778,1,0,0,0.3326,optionLeft,40,6000,3,28,0,28,0,1,,,,,,,,,,,,,,,,,,,,,,,,,,,,,,,,,,,,,,,
,,,,,,,,2023-08-16_08h53.12.435,HF_wild_card,2022.2.4,Linux x86_64,58.53772757,5ee0c8a669a88041d4034cea,64d2fd46c836a06233681665,64dc7f8eb1391b64cee1fcb9,,,,,,,ctch,resources/DB.BMP,resources/DBN.BMP,Door3,-0.412037037,-0.013888889,1,0,0,0.2962,optionLeft,70,6070,3,29,0,29,0,1,,,,,,,,,,,,,,,,,,,,,,,,,,,,,,,,,,,,,,,
,,,,,,,,2023-08-16_08h53.12.435,HF_wild_card,2022.2.4,Linux x86_64,58.53772757,5ee0c8a669a88041d4034cea,64d2fd46c836a06233681665,64dc7f8eb1391b64cee1fcb9,,,,,,,decisionTrl,resources/DG.BMP,resources/DB.BMP,Door4,-0.400925926,-0.009259259,1,0,0,0.3153,optionLeft,80,6150,3,30,0,30,0,1,,,,,,,,,,,,,,,,,,,,,,,,,,,,,,,,,,,,,,,
,,,,,,,,2023-08-16_08h53.12.435,HF_wild_card,2022.2.4,Linux x86_64,58.53772757,5ee0c8a669a88041d4034cea,64d2fd46c836a06233681665,64dc7f8eb1391b64cee1fcb9,,,,,,,ctch,resources/DBN.BMP,resources/DB.BMP,Door2,-0.425,-0.003703704,1,0,0,0.3645,optionLeft,40,6190,3,31,0,31,0,1,,,,,,,,,,,,,,,,,,,,,,,,,,,,,,,,,,,,,,,
,,,,,,,,2023-08-16_08h53.12.435,HF_wild_card,2022.2.4,Linux x86_64,58.53772757,5ee0c8a669a88041d4034cea,64d2fd46c836a06233681665,64dc7f8eb1391b64cee1fcb9,,,,,,,decisionTrl,resources/DY.BMP,resources/DBN.BMP,Door1,-0.314814815,0.027777778,1,0,0,0.3316,optionLeft,30,6220,3,32,0,32,0,1,,,,,,,,,,,,,,,,,,,,,,,,,,,,,,,,,,,,,,,
,,,,,,,,2023-08-16_08h53.12.435,HF_wild_card,2022.2.4,Linux x86_64,58.53772757,5ee0c8a669a88041d4034cea,64d2fd46c836a06233681665,64dc7f8eb1391b64cee1fcb9,,,,,,,decisionTrl,resources/DB.BMP,resources/DG.BMP,Door3,-0.367592593,-0.02037037,1,0,0,0.2787,optionLeft,70,6290,3,33,0,33,0,1,,,,,,,,,,,,,,,,,,,,,,,,,,,,,,,,,,,,,,,
,,,,,,,,2023-08-16_08h53.12.435,HF_wild_card,2022.2.4,Linux x86_64,58.53772757,5ee0c8a669a88041d4034cea,64d2fd46c836a06233681665,64dc7f8eb1391b64cee1fcb9,,,,,,,decisionTrl,resources/DBN.BMP,resources/DY.BMP,Door2,-0.392592593,-0.022222222,1,0,0,0.3447,optionLeft,40,6330,3,34,0,34,0,1,,,,,,,,,,,,,,,,,,,,,,,,,,,,,,,,,,,,,,,
,,,,,,,,2023-08-16_08h53.12.435,HF_wild_card,2022.2.4,Linux x86_64,58.53772757,5ee0c8a669a88041d4034cea,64d2fd46c836a06233681665,64dc7f8eb1391b64cee1fcb9,,,,,,,sngl,resources/Empty.png,resources/DBN.BMP,Door2,0.282407407,0.032407407,1,0,0,0.6125,optionRight,20,6350,3,35,0,35,0,1,,,,,,,,,,,,,,,,,,,,,,,,,,,,,,,,,,,,,,,
,,,,,,,,2023-08-16_08h53.12.435,HF_wild_card,2022.2.4,Linux x86_64,58.53772757,5ee0c8a669a88041d4034cea,64d2fd46c836a06233681665,64dc7f8eb1391b64cee1fcb9,,,,,,,sngl,resources/Empty.png,resources/DP.BMP,WildCard_Ex,0.292592593,0.050925926,1,0,0,0.7135,optionRight,5,6355,3,36,0,36,0,1,,,,,,,,,,,,,,,,,,,,,,,,,,,,,,,,,,,,,,,
,,,,,,,,2023-08-16_08h53.12.435,HF_wild_card,2022.2.4,Linux x86_64,58.53772757,5ee0c8a669a88041d4034cea,64d2fd46c836a06233681665,64dc7f8eb1391b64cee1fcb9,,,,,,,decisionTrl,resources/DBN.BMP,resources/DY.BMP,Door2,-0.202777778,-0.012962963,1,0,0,0.3806,optionLeft,20,6375,3,37,0,37,0,1,,,,,,,,,,,,,,,,,,,,,,,,,,,,,,,,,,,,,,,
,,,,,,,,2023-08-16_08h53.12.435,HF_wild_card,2022.2.4,Linux x86_64,58.53772757,5ee0c8a669a88041d4034cea,64d2fd46c836a06233681665,64dc7f8eb1391b64cee1fcb9,,,,,,,ctch,resources/DG.BMP,resources/DY.BMP,Door4,-0.307407407,0.018518519,1,0,0,0.4468,optionLeft,80,6455,3,38,0,38,0,1,,,,,,,,,,,,,,,,,,,,,,,,,,,,,,,,,,,,,,,
,,,,,,,,2023-08-16_08h53.12.435,HF_wild_card,2022.2.4,Linux x86_64,58.53772757,5ee0c8a669a88041d4034cea,64d2fd46c836a06233681665,64dc7f8eb1391b64cee1fcb9,,,,,,,decisionTrl,resources/DBN.BMP,resources/DY.BMP,Door2,-0.366666667,0.001851852,1,0,0,0.4618,optionLeft,20,6475,3,39,0,39,0,1,,,,,,,,,,,,,,,,,,,,,,,,,,,,,,,,,,,,,,,
,,,,,,,,2023-08-16_08h53.12.435,HF_wild_card,2022.2.4,Linux x86_64,58.53772757,5ee0c8a669a88041d4034cea,64d2fd46c836a06233681665,64dc7f8eb1391b64cee1fcb9,,,,,,,decisionTrl,resources/DP.BMP,resources/DY.BMP,WildCard_Ex,-0.312037037,-0.026851852,1,0,0,0.3303,optionLeft,5,6480,3,40,0,40,0,1,,,,,,,,,,,,,,,,,,,,,,,,,,,,,,,,,,,,,,,
,,,,,,,,2023-08-16_08h53.12.435,HF_wild_card,2022.2.4,Linux x86_64,58.53772757,5ee0c8a669a88041d4034cea,64d2fd46c836a06233681665,64dc7f8eb1391b64cee1fcb9,,,,,,,decisionTrl,resources/DB.BMP,resources/DG.BMP,Door3,-0.314814815,-0.026851852,1,0,0,0.3462,optionLeft,70,6550,3,41,0,41,0,1,,,,,,,,,,,,,,,,,,,,,,,,,,,,,,,,,,,,,,,
,,,,,,,,2023-08-16_08h53.12.435,HF_wild_card,2022.2.4,Linux x86_64,58.53772757,5ee0c8a669a88041d4034cea,64d2fd46c836a06233681665,64dc7f8eb1391b64cee1fcb9,,,,,,,decisionTrl,resources/DG.BMP,resources/DB.BMP,Door4,-0.337962963,-0.019444444,1,0,0,0.3461,optionLeft,60,6610,3,42,0,42,0,1,,,,,,,,,,,,,,,,,,,,,,,,,,,,,,,,,,,,,,,
,,,,,,,,2023-08-16_08h53.12.435,HF_wild_card,2022.2.4,Linux x86_64,58.53772757,5ee0c8a669a88041d4034cea,64d2fd46c836a06233681665,64dc7f8eb1391b64cee1fcb9,,,,,,,ctch,resources/DY.BMP,resources/DG.BMP,Door1,-0.387962963,-0.044444444,1,0,0,0.3801,optionLeft,30,6640,3,43,0,43,0,1,,,,,,,,,,,,,,,,,,,,,,,,,,,,,,,,,,,,,,,
,,,,,,,,2023-08-16_08h53.12.435,HF_wild_card,2022.2.4,Linux x86_64,58.53772757,5ee0c8a669a88041d4034cea,64d2fd46c836a06233681665,64dc7f8eb1391b64cee1fcb9,,,,,,,,,,,,,,,,,,,,,,,,,,2,0,2,0,1,,,,,,,,,,,,,,,,,,,,,,,,,,,,,,,,,,
,,,,,,,,2023-08-16_08h53.12.435,HF_wild_card,2022.2.4,Linux x86_64,58.53772757,5ee0c8a669a88041d4034cea,64d2fd46c836a06233681665,64dc7f8eb1391b64cee1fcb9,,,,,,,sngl,resources/Empty.png,resources/DR.BMP,WildCard_NonEx,0.351851852,-0.012962963,1,0,0,0.6762,optionRight,55,6695,4,0,0,0,0,1,,,,,,,,,,,,,,,,,,,,,,,,,,,,,,,,,,,,,,,
,,,,,,,,2023-08-16_08h53.12.435,HF_wild_card,2022.2.4,Linux x86_64,58.53772757,5ee0c8a669a88041d4034cea,64d2fd46c836a06233681665,64dc7f8eb1391b64cee1fcb9,,,,,,,sngl,resources/Empty.png,resources/DB.BMP,Door3,0.552777778,0.051851852,1,0,0,0.5472,optionRight,70,6765,4,1,0,1,0,1,,,,,,,,,,,,,,,,,,,,,,,,,,,,,,,,,,,,,,,
,,,,,,,,2023-08-16_08h53.12.435,HF_wild_card,2022.2.4,Linux x86_64,58.53772757,5ee0c8a669a88041d4034cea,64d2fd46c836a06233681665,64dc7f8eb1391b64cee1fcb9,,,,,,,decisionTrl,resources/DB.BMP,resources/DG.BMP,Door3,-0.339814815,0.008333333,1,0,0,0.5316,optionLeft,70,6835,4,2,0,2,0,1,,,,,,,,,,,,,,,,,,,,,,,,,,,,,,,,,,,,,,,
,,,,,,,,2023-08-16_08h53.12.435,HF_wild_card,2022.2.4,Linux x86_64,58.53772757,5ee0c8a669a88041d4034cea,64d2fd46c836a06233681665,64dc7f8eb1391b64cee1fcb9,,,,,,,decisionTrl,resources/DG.BMP,resources/DB.BMP,Door4,-0.250925926,0.001851852,1,0,0,0.4137,optionLeft,80,6915,4,3,0,3,0,1,,,,,,,,,,,,,,,,,,,,,,,,,,,,,,,,,,,,,,,
,,,,,,,,2023-08-16_08h53.12.435,HF_wild_card,2022.2.4,Linux x86_64,58.53772757,5ee0c8a669a88041d4034cea,64d2fd46c836a06233681665,64dc7f8eb1391b64cee1fcb9,,,,,,,decisionTrl,resources/DBN.BMP,resources/DY.BMP,Door2,-0.338888889,0.018518519,1,0,0,0.3961,optionLeft,20,6935,4,4,0,4,0,1,,,,,,,,,,,,,,,,,,,,,,,,,,,,,,,,,,,,,,,
,,,,,,,,2023-08-16_08h53.12.435,HF_wild_card,2022.2.4,Linux x86_64,58.53772757,5ee0c8a669a88041d4034cea,64d2fd46c836a06233681665,64dc7f8eb1391b64cee1fcb9,,,,,,,decisionTrl,resources/DBN.BMP,resources/DY.BMP,Door2,-0.364814815,0.010185185,1,0,0,0.348,optionLeft,20,6955,4,5,0,5,0,1,,,,,,,,,,,,,,,,,,,,,,,,,,,,,,,,,,,,,,,
,,,,,,,,2023-08-16_08h53.12.435,HF_wild_card,2022.2.4,Linux x86_64,58.53772757,5ee0c8a669a88041d4034cea,64d2fd46c836a06233681665,64dc7f8eb1391b64cee1fcb9,,,,,,,decisionTrl,resources/DY.BMP,resources/DBN.BMP,Door1,-0.4,-0.010185185,1,0,0,0.3288,optionLeft,30,6985,4,6,0,6,0,1,,,,,,,,,,,,,,,,,,,,,,,,,,,,,,,,,,,,,,,
,,,,,,,,2023-08-16_08h53.12.435,HF_wild_card,2022.2.4,Linux x86_64,58.53772757,5ee0c8a669a88041d4034cea,64d2fd46c836a06233681665,64dc7f8eb1391b64cee1fcb9,,,,,,,decisionTrl,resources/DG.BMP,resources/DB.BMP,Door4,-0.330555556,-0.006481481,1,0,0,0.3304,optionLeft,60,7045,4,7,0,7,0,1,,,,,,,,,,,,,,,,,,,,,,,,,,,,,,,,,,,,,,,
,,,,,,,,2023-08-16_08h53.12.435,HF_wild_card,2022.2.4,Linux x86_64,58.53772757,5ee0c8a669a88041d4034cea,64d2fd46c836a06233681665,64dc7f8eb1391b64cee1fcb9,,,,,,,sngl,resources/DG.BMP,resources/Empty.png,Door4,-0.418518519,-0.013888889,1,0,0,0.3137,optionLeft,60,7105,4,8,0,8,0,1,,,,,,,,,,,,,,,,,,,,,,,,,,,,,,,,,,,,,,,
,,,,,,,,2023-08-16_08h53.12.435,HF_wild_card,2022.2.4,Linux x86_64,58.53772757,5ee0c8a669a88041d4034cea,64d2fd46c836a06233681665,64dc7f8eb1391b64cee1fcb9,,,,,,,decisionTrl,resources/DBN.BMP,resources/DY.BMP,Door2,-0.384259259,-0.025,1,0,0,0.3473,optionLeft,20,7125,4,9,0,9,0,1,,,,,,,,,,,,,,,,,,,,,,,,,,,,,,,,,,,,,,,
,,,,,,,,2023-08-16_08h53.12.435,HF_wild_card,2022.2.4,Linux x86_64,58.53772757,5ee0c8a669a88041d4034cea,64d2fd46c836a06233681665,64dc7f8eb1391b64cee1fcb9,,,,,,,ctch,resources/DBN.BMP,resources/DB.BMP,Door2,-0.366666667,-0.025925926,1,0,0,0.3136,optionLeft,20,7145,4,10,0,10,0,1,,,,,,,,,,,,,,,,,,,,,,,,,,,,,,,,,,,,,,,
,,,,,,,,2023-08-16_08h53.12.435,HF_wild_card,2022.2.4,Linux x86_64,58.53772757,5ee0c8a669a88041d4034cea,64d2fd46c836a06233681665,64dc7f8eb1391b64cee1fcb9,,,,,,,decisionTrl,resources/DR.BMP,resources/DY.BMP,WildCard_NonEx,-0.300925926,-0.019444444,1,0,0,0.3139,optionLeft,55,7200,4,11,0,11,0,1,,,,,,,,,,,,,,,,,,,,,,,,,,,,,,,,,,,,,,,
,,,,,,,,2023-08-16_08h53.12.435,HF_wild_card,2022.2.4,Linux x86_64,58.53772757,5ee0c8a669a88041d4034cea,64d2fd46c836a06233681665,64dc7f8eb1391b64cee1fcb9,,,,,,,ctch,resources/DY.BMP,resources/DG.BMP,Door1,-0.255555556,-0.009259259,1,0,0,0.3966,optionLeft,30,7230,4,12,0,12,0,1,,,,,,,,,,,,,,,,,,,,,,,,,,,,,,,,,,,,,,,
,,,,,,,,2023-08-16_08h53.12.435,HF_wild_card,2022.2.4,Linux x86_64,58.53772757,5ee0c8a669a88041d4034cea,64d2fd46c836a06233681665,64dc7f8eb1391b64cee1fcb9,,,,,,,decisionTrl,resources/DR.BMP,resources/DB.BMP,WildCard_NonEx,-0.350925926,-0.005555556,1,0,0,0.346,optionLeft,45,7275,4,13,0,13,0,1,,,,,,,,,,,,,,,,,,,,,,,,,,,,,,,,,,,,,,,
,,,,,,,,2023-08-16_08h53.12.435,HF_wild_card,2022.2.4,Linux x86_64,58.53772757,5ee0c8a669a88041d4034cea,64d2fd46c836a06233681665,64dc7f8eb1391b64cee1fcb9,,,,,,,sngl,resources/Empty.png,resources/DR.BMP,WildCard_NonEx,0.3,-0.00462963,1,0,0,0.6645,optionRight,45,7320,4,14,0,14,0,1,,,,,,,,,,,,,,,,,,,,,,,,,,,,,,,,,,,,,,,
,,,,,,,,2023-08-16_08h53.12.435,HF_wild_card,2022.2.4,Linux x86_64,58.53772757,5ee0c8a669a88041d4034cea,64d2fd46c836a06233681665,64dc7f8eb1391b64cee1fcb9,,,,,,,decisionTrl,resources/DY.BMP,resources/DBN.BMP,Door1,-0.349074074,0.037037037,1,0,0,0.4128,optionLeft,30,7350,4,15,0,15,0,1,,,,,,,,,,,,,,,,,,,,,,,,,,,,,,,,,,,,,,,
,,,,,,,,2023-08-16_08h53.12.435,HF_wild_card,2022.2.4,Linux x86_64,58.53772757,5ee0c8a669a88041d4034cea,64d2fd46c836a06233681665,64dc7f8eb1391b64cee1fcb9,,,,,,,decisionTrl,resources/DBN.BMP,resources/DR.BMP,Door2,-0.32037037,0.002777778,1,0,0,0.3793,optionLeft,40,7390,4,16,0,16,0,1,,,,,,,,,,,,,,,,,,,,,,,,,,,,,,,,,,,,,,,
,,,,,,,,2023-08-16_08h53.12.435,HF_wild_card,2022.2.4,Linux x86_64,58.53772757,5ee0c8a669a88041d4034cea,64d2fd46c836a06233681665,64dc7f8eb1391b64cee1fcb9,,,,,,,sngl,resources/DR.BMP,resources/Empty.png,WildCard_NonEx,-0.275925926,-0.028703704,1,0,0,0.3803,optionLeft,55,7445,4,17,0,17,0,1,,,,,,,,,,,,,,,,,,,,,,,,,,,,,,,,,,,,,,,
,,,,,,,,2023-08-16_08h53.12.435,HF_wild_card,2022.2.4,Linux x86_64,58.53772757,5ee0c8a669a88041d4034cea,64d2fd46c836a06233681665,64dc7f8eb1391b64cee1fcb9,,,,,,,decisionTrl,resources/DB.BMP,resources/DG.BMP,Door3,-0.382407407,0.001851852,1,0,0,0.3638,optionLeft,70,7515,4,18,0,18,0,1,,,,,,,,,,,,,,,,,,,,,,,,,,,,,,,,,,,,,,,
,,,,,,,,2023-08-16_08h53.12.435,HF_wild_card,2022.2.4,Linux x86_64,58.53772757,5ee0c8a669a88041d4034cea,64d2fd46c836a06233681665,64dc7f8eb1391b64cee1fcb9,,,,,,,ctch,resources/DG.BMP,resources/DY.BMP,Door4,-0.315740741,-0.003703704,1,0,0,0.3795,optionLeft,60,7575,4,19,0,19,0,1,,,,,,,,,,,,,,,,,,,,,,,,,,,,,,,,,,,,,,,
,,,,,,,,2023-08-16_08h53.12.435,HF_wild_card,2022.2.4,Linux x86_64,58.53772757,5ee0c8a669a88041d4034cea,64d2fd46c836a06233681665,64dc7f8eb1391b64cee1fcb9,,,,,,,ctch,resources/DG.BMP,resources/DY.BMP,Door4,-0.384259259,-0.041666667,1,0,0,0.3986,optionLeft,60,7635,4,20,0,20,0,1,,,,,,,,,,,,,,,,,,,,,,,,,,,,,,,,,,,,,,,
,,,,,,,,2023-08-16_08h53.12.435,HF_wild_card,2022.2.4,Linux x86_64,58.53772757,5ee0c8a669a88041d4034cea,64d2fd46c836a06233681665,64dc7f8eb1391b64cee1fcb9,,,,,,,decisionTrl,resources/DY.BMP,resources/DBN.BMP,Door1,-0.277777778,-0.02962963,1,0,0,0.3298,optionLeft,30,7665,4,21,0,21,0,1,,,,,,,,,,,,,,,,,,,,,,,,,,,,,,,,,,,,,,,
,,,,,,,,2023-08-16_08h53.12.435,HF_wild_card,2022.2.4,Linux x86_64,58.53772757,5ee0c8a669a88041d4034cea,64d2fd46c836a06233681665,64dc7f8eb1391b64cee1fcb9,,,,,,,sngl,resources/Empty.png,resources/DBN.BMP,Door2,0.314814815,-0.038888889,1,0,0,0.6623,optionRight,40,7705,4,22,0,22,0,1,,,,,,,,,,,,,,,,,,,,,,,,,,,,,,,,,,,,,,,
,,,,,,,,2023-08-16_08h53.12.435,HF_wild_card,2022.2.4,Linux x86_64,58.53772757,5ee0c8a669a88041d4034cea,64d2fd46c836a06233681665,64dc7f8eb1391b64cee1fcb9,,,,,,,decisionTrl,resources/DY.BMP,resources/DR.BMP,Door1,-0.257407407,0.005555556,1,0,0,0.3802,optionLeft,30,7735,4,23,0,23,0,1,,,,,,,,,,,,,,,,,,,,,,,,,,,,,,,,,,,,,,,
,,,,,,,,2023-08-16_08h53.12.435,HF_wild_card,2022.2.4,Linux x86_64,58.53772757,5ee0c8a669a88041d4034cea,64d2fd46c836a06233681665,64dc7f8eb1391b64cee1fcb9,,,,,,,sngl,resources/Empty.png,resources/DY.BMP,Door1,0.380555556,-0.000925926,1,0,0,0.5123,optionRight,30,7765,4,24,0,24,0,1,,,,,,,,,,,,,,,,,,,,,,,,,,,,,,,,,,,,,,,
,,,,,,,,2023-08-16_08h53.12.435,HF_wild_card,2022.2.4,Linux x86_64,58.53772757,5ee0c8a669a88041d4034cea,64d2fd46c836a06233681665,64dc7f8eb1391b64cee1fcb9,,,,,,,decisionTrl,resources/DB.BMP,resources/DR.BMP,Door3,-0.27037037,0.023148148,1,0,0,0.3789,optionLeft,70,7835,4,25,0,25,0,1,,,,,,,,,,,,,,,,,,,,,,,,,,,,,,,,,,,,,,,
,,,,,,,,2023-08-16_08h53.12.435,HF_wild_card,2022.2.4,Linux x86_64,58.53772757,5ee0c8a669a88041d4034cea,64d2fd46c836a06233681665,64dc7f8eb1391b64cee1fcb9,,,,,,,ctch,resources/DB.BMP,resources/DBN.BMP,Door3,-0.32037037,-0.062962963,1,0,0,0.3327,optionLeft,70,7905,4,26,0,26,0,1,,,,,,,,,,,,,,,,,,,,,,,,,,,,,,,,,,,,,,,
,,,,,,,,2023-08-16_08h53.12.435,HF_wild_card,2022.2.4,Linux x86_64,58.53772757,5ee0c8a669a88041d4034cea,64d2fd46c836a06233681665,64dc7f8eb1391b64cee1fcb9,,,,,,,decisionTrl,resources/DBN.BMP,resources/DY.BMP,Door2,-0.359259259,-0.04537037,1,0,0,0.3318,optionLeft,20,7925,4,27,0,27,0,1,,,,,,,,,,,,,,,,,,,,,,,,,,,,,,,,,,,,,,,
,,,,,,,,2023-08-16_08h53.12.435,HF_wild_card,2022.2.4,Linux x86_64,58.53772757,5ee0c8a669a88041d4034cea,64d2fd46c836a06233681665,64dc7f8eb1391b64cee1fcb9,,,,,,,decisionTrl,resources/DB.BMP,resources/DG.BMP,Door3,-0.342592593,-0.010185185,1,0,0,0.3139,optionLeft,70,7995,4,28,0,28,0,1,,,,,,,,,,,,,,,,,,,,,,,,,,,,,,,,,,,,,,,
,,,,,,,,2023-08-16_08h53.12.435,HF_wild_card,2022.2.4,Linux x86_64,58.53772757,5ee0c8a669a88041d4034cea,64d2fd46c836a06233681665,64dc7f8eb1391b64cee1fcb9,,,,,,,ctch,resources/DB.BMP,resources/DBN.BMP,Door3,-0.331481481,-0.027777778,1,0,0,0.3489,optionLeft,70,8065,4,29,0,29,0,1,,,,,,,,,,,,,,,,,,,,,,,,,,,,,,,,,,,,,,,
,,,,,,,,2023-08-16_08h53.12.435,HF_wild_card,2022.2.4,Linux x86_64,58.53772757,5ee0c8a669a88041d4034cea,64d2fd46c836a06233681665,64dc7f8eb1391b64cee1fcb9,,,,,,,decisionTrl,resources/DG.BMP,resources/DB.BMP,Door4,-0.35,-0.038888889,1,0,0,0.3614,optionLeft,80,8145,4,30,0,30,0,1,,,,,,,,,,,,,,,,,,,,,,,,,,,,,,,,,,,,,,,
,,,,,,,,2023-08-16_08h53.12.435,HF_wild_card,2022.2.4,Linux x86_64,58.53772757,5ee0c8a669a88041d4034cea,64d2fd46c836a06233681665,64dc7f8eb1391b64cee1fcb9,,,,,,,ctch,resources/DY.BMP,resources/DG.BMP,Door1,-0.27037037,-0.027777778,1,0,0,0.2958,optionLeft,30,8175,4,31,0,31,0,1,,,,,,,,,,,,,,,,,,,,,,,,,,,,,,,,,,,,,,,
,,,,,,,,2023-08-16_08h53.12.435,HF_wild_card,2022.2.4,Linux x86_64,58.53772757,5ee0c8a669a88041d4034cea,64d2fd46c836a06233681665,64dc7f8eb1391b64cee1fcb9,,,,,,,decisionTrl,resources/DG.BMP,resources/DR.BMP,Door4,-0.327777778,-0.012962963,1,0,0,0.3308,optionLeft,60,8235,4,32,0,32,0,1,,,,,,,,,,,,,,,,,,,,,,,,,,,,,,,,,,,,,,,
,,,,,,,,2023-08-16_08h53.12.435,HF_wild_card,2022.2.4,Linux x86_64,58.53772757,5ee0c8a669a88041d4034cea,64d2fd46c836a06233681665,64dc7f8eb1391b64cee1fcb9,,,,,,,decisionTrl,resources/DB.BMP,resources/DG.BMP,Door3,-0.403703704,-0.05,1,0,0,0.3129,optionLeft,70,8305,4,33,0,33,0,1,,,,,,,,,,,,,,,,,,,,,,,,,,,,,,,,,,,,,,,
,,,,,,,,2023-08-16_08h53.12.435,HF_wild_card,2022.2.4,Linux x86_64,58.53772757,5ee0c8a669a88041d4034cea,64d2fd46c836a06233681665,64dc7f8eb1391b64cee1fcb9,,,,,,,sngl,resources/DY.BMP,resources/Empty.png,Door1,-0.34537037,-0.025925926,1,0,0,0.315,optionLeft,30,8335,4,34,0,34,0,1,,,,,,,,,,,,,,,,,,,,,,,,,,,,,,,,,,,,,,,
,,,,,,,,2023-08-16_08h53.12.435,HF_wild_card,2022.2.4,Linux x86_64,58.53772757,5ee0c8a669a88041d4034cea,64d2fd46c836a06233681665,64dc7f8eb1391b64cee1fcb9,,,,,,,sngl,resources/Empty.png,resources/DG.BMP,Door4,0.274074074,-0.017592593,1,0,0,0.7466,optionRight,80,8415,4,35,0,35,0,1,,,,,,,,,,,,,,,,,,,,,,,,,,,,,,,,,,,,,,,
,,,,,,,,2023-08-16_08h53.12.435,HF_wild_card,2022.2.4,Linux x86_64,58.53772757,5ee0c8a669a88041d4034cea,64d2fd46c836a06233681665,64dc7f8eb1391b64cee1fcb9,,,,,,,sngl,resources/DR.BMP,resources/Empty.png,WildCard_NonEx,-0.290740741,0.02037037,1,0,0,0.4643,optionLeft,45,8460,4,36,0,36,0,1,,,,,,,,,,,,,,,,,,,,,,,,,,,,,,,,,,,,,,,
,,,,,,,,2023-08-16_08h53.12.435,HF_wild_card,2022.2.4,Linux x86_64,58.53772757,5ee0c8a669a88041d4034cea,64d2fd46c836a06233681665,64dc7f8eb1391b64cee1fcb9,,,,,,,ctch,resources/DBN.BMP,resources/DB.BMP,Door2,-0.321296296,0.016666667,1,0,0,0.396,optionLeft,20,8480,4,37,0,37,0,1,,,,,,,,,,,,,,,,,,,,,,,,,,,,,,,,,,,,,,,
,,,,,,,,2023-08-16_08h53.12.435,HF_wild_card,2022.2.4,Linux x86_64,58.53772757,5ee0c8a669a88041d4034cea,64d2fd46c836a06233681665,64dc7f8eb1391b64cee1fcb9,,,,,,,sngl,resources/DBN.BMP,resources/Empty.png,Door2,-0.331481481,-0.009259259,1,0,0,0.3461,optionLeft,20,8500,4,38,0,38,0,1,,,,,,,,,,,,,,,,,,,,,,,,,,,,,,,,,,,,,,,
,,,,,,,,2023-08-16_08h53.12.435,HF_wild_card,2022.2.4,Linux x86_64,58.53772757,5ee0c8a669a88041d4034cea,64d2fd46c836a06233681665,64dc7f8eb1391b64cee1fcb9,,,,,,,decisionTrl,resources/DR.BMP,resources/DG.BMP,WildCard_NonEx,-0.426851852,0.033333333,1,0,0,0.3795,optionLeft,45,8545,4,39,0,39,0,1,,,,,,,,,,,,,,,,,,,,,,,,,,,,,,,,,,,,,,,
,,,,,,,,2023-08-16_08h53.12.435,HF_wild_card,2022.2.4,Linux x86_64,58.53772757,5ee0c8a669a88041d4034cea,64d2fd46c836a06233681665,64dc7f8eb1391b64cee1fcb9,,,,,,,decisionTrl,resources/DG.BMP,resources/DB.BMP,Door4,-0.351851852,-0.005555556,1,0,0,0.3458,optionLeft,80,8625,4,40,0,40,0,1,,,,,,,,,,,,,,,,,,,,,,,,,,,,,,,,,,,,,,,
,,,,,,,,2023-08-16_08h53.12.435,HF_wild_card,2022.2.4,Linux x86_64,58.53772757,5ee0c8a669a88041d4034cea,64d2fd46c836a06233681665,64dc7f8eb1391b64cee1fcb9,,,,,,,decisionTrl,resources/DR.BMP,resources/DBN.BMP,WildCard_NonEx,-0.372222222,-0.001851852,1,0,0,0.3296,optionLeft,55,8680,4,41,0,41,0,1,,,,,,,,,,,,,,,,,,,,,,,,,,,,,,,,,,,,,,,
,,,,,,,,2023-08-16_08h53.12.435,HF_wild_card,2022.2.4,Linux x86_64,58.53772757,5ee0c8a669a88041d4034cea,64d2fd46c836a06233681665,64dc7f8eb1391b64cee1fcb9,,,,,,,decisionTrl,resources/DY.BMP,resources/DBN.BMP,Door1,-0.306481481,-0.009259259,1,0,0,0.3804,optionLeft,30,8710,4,42,0,42,0,1,,,,,,,,,,,,,,,,,,,,,,,,,,,,,,,,,,,,,,,
,,,,,,,,2023-08-16_08h53.12.435,HF_wild_card,2022.2.4,Linux x86_64,58.53772757,5ee0c8a669a88041d4034cea,64d2fd46c836a06233681665,64dc7f8eb1391b64cee1fcb9,,,,,,,sngl,resources/DB.BMP,resources/Empty.png,Door3,-0.415740741,-0.008333333,1,0,0,0.363,optionLeft,70,8780,4,43,0,43,0,1,,,,,,,,,,,,,,,,,,,,,,,,,,,,,,,,,,,,,,,
,,,,,,,,2023-08-16_08h53.12.435,HF_wild_card,2022.2.4,Linux x86_64,58.53772757,5ee0c8a669a88041d4034cea,64d2fd46c836a06233681665,64dc7f8eb1391b64cee1fcb9,,,,,,,,,,,,,,,,,,,,,,,,,,3,0,3,0,1,,,,,,,,,,,,,,,,,,,,,,,,,,,,,,,,,,
,,,,,,,,2023-08-16_08h53.12.435,HF_wild_card,2022.2.4,Linux x86_64,58.53772757,5ee0c8a669a88041d4034cea,64d2fd46c836a06233681665,64dc7f8eb1391b64cee1fcb9,,,,,,,decisionTrl,resources/DG.BMP,resources/DB.BMP,Door4,-0.368518519,-0.011111111,1,0,0,0.6967,optionLeft,60,8840,5,0,0,0,0,1,,,,,,,,,,,,,,,,,,,,,,,,,,,,,,,,,,,,,,,
,,,,,,,,2023-08-16_08h53.12.435,HF_wild_card,2022.2.4,Linux x86_64,58.53772757,5ee0c8a669a88041d4034cea,64d2fd46c836a06233681665,64dc7f8eb1391b64cee1fcb9,,,,,,,sngl,resources/DBN.BMP,resources/Empty.png,Door2,-0.32037037,0.026851852,1,0,0,0.3474,optionLeft,40,8880,5,1,0,1,0,1,,,,,,,,,,,,,,,,,,,,,,,,,,,,,,,,,,,,,,,
,,,,,,,,2023-08-16_08h53.12.435,HF_wild_card,2022.2.4,Linux x86_64,58.53772757,5ee0c8a669a88041d4034cea,64d2fd46c836a06233681665,64dc7f8eb1391b64cee1fcb9,,,,,,,decisionTrl,resources/DY.BMP,resources/DBN.BMP,Door1,-0.250925926,-0.015740741,1,0,0,0.4303,optionLeft,30,8910,5,2,0,2,0,1,,,,,,,,,,,,,,,,,,,,,,,,,,,,,,,,,,,,,,,
,,,,,,,,2023-08-16_08h53.12.435,HF_wild_card,2022.2.4,Linux x86_64,58.53772757,5ee0c8a669a88041d4034cea,64d2fd46c836a06233681665,64dc7f8eb1391b64cee1fcb9,,,,,,,sngl,resources/DY.BMP,resources/Empty.png,Door1,-0.343518519,-0.018518519,1,0,0,0.3787,optionLeft,30,8940,5,3,0,3,0,1,,,,,,,,,,,,,,,,,,,,,,,,,,,,,,,,,,,,,,,
,,,,,,,,2023-08-16_08h53.12.435,HF_wild_card,2022.2.4,Linux x86_64,58.53772757,5ee0c8a669a88041d4034cea,64d2fd46c836a06233681665,64dc7f8eb1391b64cee1fcb9,,,,,,,decisionTrl,resources/DG.BMP,resources/DB.BMP,Door4,-0.337037037,-0.014814815,1,0,0,0.3975,optionLeft,80,9020,5,4,0,4,0,1,,,,,,,,,,,,,,,,,,,,,,,,,,,,,,,,,,,,,,,
,,,,,,,,2023-08-16_08h53.12.435,HF_wild_card,2022.2.4,Linux x86_64,58.53772757,5ee0c8a669a88041d4034cea,64d2fd46c836a06233681665,64dc7f8eb1391b64cee1fcb9,,,,,,,decisionTrl,resources/DY.BMP,resources/DBN.BMP,Door1,-0.356481481,0.010185185,1,0,0,0.346,optionLeft,30,9050,5,5,0,5,0,1,,,,,,,,,,,,,,,,,,,,,,,,,,,,,,,,,,,,,,,
,,,,,,,,2023-08-16_08h53.12.435,HF_wild_card,2022.2.4,Linux x86_64,58.53772757,5ee0c8a669a88041d4034cea,64d2fd46c836a06233681665,64dc7f8eb1391b64cee1fcb9,,,,,,,decisionTrl,resources/DY.BMP,resources/DR.BMP,Door1,-0.358333333,-0.001851852,1,0,0,0.3146,optionLeft,30,9080,5,6,0,6,0,1,,,,,,,,,,,,,,,,,,,,,,,,,,,,,,,,,,,,,,,
,,,,,,,,2023-08-16_08h53.12.435,HF_wild_card,2022.2.4,Linux x86_64,58.53772757,5ee0c8a669a88041d4034cea,64d2fd46c836a06233681665,64dc7f8eb1391b64cee1fcb9,,,,,,,decisionTrl,resources/DB.BMP,resources/DG.BMP,Door3,-0.339814815,-0.008333333,1,0,0,0.3139,optionLeft,70,9150,5,7,0,7,0,1,,,,,,,,,,,,,,,,,,,,,,,,,,,,,,,,,,,,,,,
,,,,,,,,2023-08-16_08h53.12.435,HF_wild_card,2022.2.4,Linux x86_64,58.53772757,5ee0c8a669a88041d4034cea,64d2fd46c836a06233681665,64dc7f8eb1391b64cee1fcb9,,,,,,,decisionTrl,resources/DY.BMP,resources/DBN.BMP,Door1,-0.374074074,-0.019444444,1,0,0,0.3301,optionLeft,30,9180,5,8,0,8,0,1,,,,,,,,,,,,,,,,,,,,,,,,,,,,,,,,,,,,,,,
,,,,,,,,2023-08-16_08h53.12.435,HF_wild_card,2022.2.4,Linux x86_64,58.53772757,5ee0c8a669a88041d4034cea,64d2fd46c836a06233681665,64dc7f8eb1391b64cee1fcb9,,,,,,,decisionTrl,resources/DG.BMP,resources/DR.BMP,Door4,-0.275925926,-0.003703704,1,0,0,0.3809,optionLeft,80,9260,5,9,0,9,0,1,,,,,,,,,,,,,,,,,,,,,,,,,,,,,,,,,,,,,,,
,,,,,,,,2023-08-16_08h53.12.435,HF_wild_card,2022.2.4,Linux x86_64,58.53772757,5ee0c8a669a88041d4034cea,64d2fd46c836a06233681665,64dc7f8eb1391b64cee1fcb9,,,,,,,decisionTrl,resources/DB.BMP,resources/DG.BMP,Door3,-0.308333333,-0.012962963,1,0,0,0.3806,optionLeft,70,9330,5,10,0,10,0,1,,,,,,,,,,,,,,,,,,,,,,,,,,,,,,,,,,,,,,,
,,,,,,,,2023-08-16_08h53.12.435,HF_wild_card,2022.2.4,Linux x86_64,58.53772757,5ee0c8a669a88041d4034cea,64d2fd46c836a06233681665,64dc7f8eb1391b64cee1fcb9,,,,,,,ctch,resources/DB.BMP,resources/DBN.BMP,Door3,-0.37962963,0.007407407,1,0,0,0.3123,optionLeft,70,9400,5,11,0,11,0,1,,,,,,,,,,,,,,,,,,,,,,,,,,,,,,,,,,,,,,,
,,,,,,,,2023-08-16_08h53.12.435,HF_wild_card,2022.2.4,Linux x86_64,58.53772757,5ee0c8a669a88041d4034cea,64d2fd46c836a06233681665,64dc7f8eb1391b64cee1fcb9,,,,,,,ctch,resources/DBN.BMP,resources/DB.BMP,Door2,-0.311111111,-0.048148148,1,0,0,0.3295,optionLeft,20,9420,5,12,0,12,0,1,,,,,,,,,,,,,,,,,,,,,,,,,,,,,,,,,,,,,,,
,,,,,,,,2023-08-16_08h53.12.435,HF_wild_card,2022.2.4,Linux x86_64,58.53772757,5ee0c8a669a88041d4034cea,64d2fd46c836a06233681665,64dc7f8eb1391b64cee1fcb9,,,,,,,decisionTrl,resources/DR.BMP,resources/DB.BMP,WildCard_NonEx,-0.349074074,0.015740741,1,0,0,0.396,optionLeft,45,9465,5,13,0,13,0,1,,,,,,,,,,,,,,,,,,,,,,,,,,,,,,,,,,,,,,,
,,,,,,,,2023-08-16_08h53.12.435,HF_wild_card,2022.2.4,Linux x86_64,58.53772757,5ee0c8a669a88041d4034cea,64d2fd46c836a06233681665,64dc7f8eb1391b64cee1fcb9,,,,,,,decisionTrl,resources/DR.BMP,resources/DBN.BMP,WildCard_NonEx,-0.290740741,-0.030555556,1,0,0,0.3468,optionLeft,45,9510,5,14,0,14,0,1,,,,,,,,,,,,,,,,,,,,,,,,,,,,,,,,,,,,,,,
,,,,,,,,2023-08-16_08h53.12.435,HF_wild_card,2022.2.4,Linux x86_64,58.53772757,5ee0c8a669a88041d4034cea,64d2fd46c836a06233681665,64dc7f8eb1391b64cee1fcb9,,,,,,,decisionTrl,resources/DB.BMP,resources/DG.BMP,Door3,-0.287962963,-0.018518519,1,0,0,0.3976,optionLeft,70,9580,5,15,0,15,0,1,,,,,,,,,,,,,,,,,,,,,,,,,,,,,,,,,,,,,,,
,,,,,,,,2023-08-16_08h53.12.435,HF_wild_card,2022.2.4,Linux x86_64,58.53772757,5ee0c8a669a88041d4034cea,64d2fd46c836a06233681665,64dc7f8eb1391b64cee1fcb9,,,,,,,decisionTrl,resources/DR.BMP,resources/DG.BMP,WildCard_NonEx,-0.292592593,-0.011111111,1,0,0,0.2965,optionLeft,55,9635,5,16,0,16,0,1,,,,,,,,,,,,,,,,,,,,,,,,,,,,,,,,,,,,,,,
,,,,,,,,2023-08-16_08h53.12.435,HF_wild_card,2022.2.4,Linux x86_64,58.53772757,5ee0c8a669a88041d4034cea,64d2fd46c836a06233681665,64dc7f8eb1391b64cee1fcb9,,,,,,,sngl,resources/DB.BMP,resources/Empty.png,Door3,-0.366666667,-0.035185185,1,0,0,0.3138,optionLeft,70,9705,5,17,0,17,0,1,,,,,,,,,,,,,,,,,,,,,,,,,,,,,,,,,,,,,,,
,,,,,,,,2023-08-16_08h53.12.435,HF_wild_card,2022.2.4,Linux x86_64,58.53772757,5ee0c8a669a88041d4034cea,64d2fd46c836a06233681665,64dc7f8eb1391b64cee1fcb9,,,,,,,sngl,resources/DR.BMP,resources/Empty.png,WildCard_NonEx,-0.323148148,-0.026851852,1,0,0,0.3476,optionLeft,55,9760,5,18,0,18,0,1,,,,,,,,,,,,,,,,,,,,,,,,,,,,,,,,,,,,,,,
,,,,,,,,2023-08-16_08h53.12.435,HF_wild_card,2022.2.4,Linux x86_64,58.53772757,5ee0c8a669a88041d4034cea,64d2fd46c836a06233681665,64dc7f8eb1391b64cee1fcb9,,,,,,,decisionTrl,resources/DBN.BMP,resources/DY.BMP,Door2,-0.359259259,-0.023148148,1,0,0,0.3293,optionLeft,20,9780,5,19,0,19,0,1,,,,,,,,,,,,,,,,,,,,,,,,,,,,,,,,,,,,,,,
,,,,,,,,2023-08-16_08h53.12.435,HF_wild_card,2022.2.4,Linux x86_64,58.53772757,5ee0c8a669a88041d4034cea,64d2fd46c836a06233681665,64dc7f8eb1391b64cee1fcb9,,,,,,,decisionTrl,resources/DBN.BMP,resources/DR.BMP,Door2,-0.357407407,-0.051851852,1,0,0,0.3282,optionLeft,20,9800,5,20,0,20,0,1,,,,,,,,,,,,,,,,,,,,,,,,,,,,,,,,,,,,,,,
,,,,,,,,2023-08-16_08h53.12.435,HF_wild_card,2022.2.4,Linux x86_64,58.53772757,5ee0c8a669a88041d4034cea,64d2fd46c836a06233681665,64dc7f8eb1391b64cee1fcb9,,,,,,,sngl,resources/DR.BMP,resources/Empty.png,WildCard_NonEx,-0.364814815,-0.013888889,1,0,0,0.3299,optionLeft,45,9845,5,21,0,21,0,1,,,,,,,,,,,,,,,,,,,,,,,,,,,,,,,,,,,,,,,
,,,,,,,,2023-08-16_08h53.12.435,HF_wild_card,2022.2.4,Linux x86_64,58.53772757,5ee0c8a669a88041d4034cea,64d2fd46c836a06233681665,64dc7f8eb1391b64cee1fcb9,,,,,,,decisionTrl,resources/DG.BMP,resources/DB.BMP,Door4,-0.414814815,-0.037962963,1,0,0,0.3466,optionLeft,80,9925,5,22,0,22,0,1,,,,,,,,,,,,,,,,,,,,,,,,,,,,,,,,,,,,,,,
,,,,,,,,2023-08-16_08h53.12.435,HF_wild_card,2022.2.4,Linux x86_64,58.53772757,5ee0c8a669a88041d4034cea,64d2fd46c836a06233681665,64dc7f8eb1391b64cee1fcb9,,,,,,,decisionTrl,resources/DB.BMP,resources/DR.BMP,Door3,-0.383333333,-0.037037037,1,0,0,0.3303,optionLeft,70,9995,5,23,0,23,0,1,,,,,,,,,,,,,,,,,,,,,,,,,,,,,,,,,,,,,,,
,,,,,,,,2023-08-16_08h53.12.435,HF_wild_card,2022.2.4,Linux x86_64,58.53772757,5ee0c8a669a88041d4034cea,64d2fd46c836a06233681665,64dc7f8eb1391b64cee1fcb9,,,,,,,ctch,resources/DBN.BMP,resources/DB.BMP,Door2,-0.378703704,-0.001851852,1,0,0,0.3309,optionLeft,20,10015,5,24,0,24,0,1,,,,,,,,,,,,,,,,,,,,,,,,,,,,,,,,,,,,,,,
,,,,,,,,2023-08-16_08h53.12.435,HF_wild_card,2022.2.4,Linux x86_64,58.53772757,5ee0c8a669a88041d4034cea,64d2fd46c836a06233681665,64dc7f8eb1391b64cee1fcb9,,,,,,,decisionTrl,resources/DY.BMP,resources/DBN.BMP,Door1,-0.27037037,-0.000925926,1,0,0,0.4483,optionLeft,30,10045,5,25,0,25,0,1,,,,,,,,,,,,,,,,,,,,,,,,,,,,,,,,,,,,,,,
,,,,,,,,2023-08-16_08h53.12.435,HF_wild_card,2022.2.4,Linux x86_64,58.53772757,5ee0c8a669a88041d4034cea,64d2fd46c836a06233681665,64dc7f8eb1391b64cee1fcb9,,,,,,,sngl,resources/Empty.png,resources/DBN.BMP,Door2,0.346296296,0.031481481,1,0,0,0.7633,optionRight,20,10065,5,26,0,26,0,1,,,,,,,,,,,,,,,,,,,,,,,,,,,,,,,,,,,,,,,
,,,,,,,,2023-08-16_08h53.12.435,HF_wild_card,2022.2.4,Linux x86_64,58.53772757,5ee0c8a669a88041d4034cea,64d2fd46c836a06233681665,64dc7f8eb1391b64cee1fcb9,,,,,,,ctch,resources/DG.BMP,resources/DY.BMP,Door4,-0.307407407,0.018518519,1,0,0,0.4817,optionLeft,60,10125,5,27,0,27,0,1,,,,,,,,,,,,,,,,,,,,,,,,,,,,,,,,,,,,,,,
,,,,,,,,2023-08-16_08h53.12.435,HF_wild_card,2022.2.4,Linux x86_64,58.53772757,5ee0c8a669a88041d4034cea,64d2fd46c836a06233681665,64dc7f8eb1391b64cee1fcb9,,,,,,,decisionTrl,resources/DG.BMP,resources/DB.BMP,Door4,-0.358333333,0.002777778,1,0,0,0.398,optionLeft,60,10185,5,28,0,28,0,1,,,,,,,,,,,,,,,,,,,,,,,,,,,,,,,,,,,,,,,
,,,,,,,,2023-08-16_08h53.12.435,HF_wild_card,2022.2.4,Linux x86_64,58.53772757,5ee0c8a669a88041d4034cea,64d2fd46c836a06233681665,64dc7f8eb1391b64cee1fcb9,,,,,,,decisionTrl,resources/DB.BMP,resources/DG.BMP,Door3,-0.353703704,-0.040740741,1,0,0,0.3487,optionLeft,70,10255,5,29,0,29,0,1,,,,,,,,,,,,,,,,,,,,,,,,,,,,,,,,,,,,,,,
,,,,,,,,2023-08-16_08h53.12.435,HF_wild_card,2022.2.4,Linux x86_64,58.53772757,5ee0c8a669a88041d4034cea,64d2fd46c836a06233681665,64dc7f8eb1391b64cee1fcb9,,,,,,,ctch,resources/DY.BMP,resources/DG.BMP,Door1,-0.383333333,0.000925926,1,0,0,0.3812,optionLeft,30,10285,5,30,0,30,0,1,,,,,,,,,,,,,,,,,,,,,,,,,,,,,,,,,,,,,,,
,,,,,,,,2023-08-16_08h53.12.435,HF_wild_card,2022.2.4,Linux x86_64,58.53772757,5ee0c8a669a88041d4034cea,64d2fd46c836a06233681665,64dc7f8eb1391b64cee1fcb9,,,,,,,decisionTrl,resources/DBN.BMP,resources/DY.BMP,Door2,-0.313888889,-0.030555556,1,0,0,0.3472,optionLeft,20,10305,5,31,0,31,0,1,,,,,,,,,,,,,,,,,,,,,,,,,,,,,,,,,,,,,,,
,,,,,,,,2023-08-16_08h53.12.435,HF_wild_card,2022.2.4,Linux x86_64,58.53772757,5ee0c8a669a88041d4034cea,64d2fd46c836a06233681665,64dc7f8eb1391b64cee1fcb9,,,,,,,decisionTrl,resources/DBN.BMP,resources/DY.BMP,Door2,-0.263888889,-0.031481481,1,0,0,0.3799,optionLeft,40,10345,5,32,0,32,0,1,,,,,,,,,,,,,,,,,,,,,,,,,,,,,,,,,,,,,,,
,,,,,,,,2023-08-16_08h53.12.435,HF_wild_card,2022.2.4,Linux x86_64,58.53772757,5ee0c8a669a88041d4034cea,64d2fd46c836a06233681665,64dc7f8eb1391b64cee1fcb9,,,,,,,ctch,resources/DY.BMP,resources/DG.BMP,Door1,-0.316666667,-0.014814815,1,0,0,0.3645,optionLeft,30,10375,5,33,0,33,0,1,,,,,,,,,,,,,,,,,,,,,,,,,,,,,,,,,,,,,,,
,,,,,,,,2023-08-16_08h53.12.435,HF_wild_card,2022.2.4,Linux x86_64,58.53772757,5ee0c8a669a88041d4034cea,64d2fd46c836a06233681665,64dc7f8eb1391b64cee1fcb9,,,,,,,ctch,resources/DG.BMP,resources/DY.BMP,Door4,-0.24537037,-0.034259259,1,0,0,0.3469,optionLeft,60,10435,5,34,0,34,0,1,,,,,,,,,,,,,,,,,,,,,,,,,,,,,,,,,,,,,,,
,,,,,,,,2023-08-16_08h53.12.435,HF_wild_card,2022.2.4,Linux x86_64,58.53772757,5ee0c8a669a88041d4034cea,64d2fd46c836a06233681665,64dc7f8eb1391b64cee1fcb9,,,,,,,sngl,resources/Empty.png,resources/DY.BMP,Door1,-0.388888889,-0.022222222,1,0,0,0.314,optionRight,30,10465,5,35,0,35,0,1,,,,,,,,,,,,,,,,,,,,,,,,,,,,,,,,,,,,,,,
,,,,,,,,2023-08-16_08h53.12.435,HF_wild_card,2022.2.4,Linux x86_64,58.53772757,5ee0c8a669a88041d4034cea,64d2fd46c836a06233681665,64dc7f8eb1391b64cee1fcb9,,,,,,,sngl,resources/Empty.png,resources/DR.BMP,WildCard_NonEx,0.269444444,0.000925926,1,0,0,0.5155,optionRight,45,10510,5,36,0,36,0,1,,,,,,,,,,,,,,,,,,,,,,,,,,,,,,,,,,,,,,,
,,,,,,,,2023-08-16_08h53.12.435,HF_wild_card,2022.2.4,Linux x86_64,58.53772757,5ee0c8a669a88041d4034cea,64d2fd46c836a06233681665,64dc7f8eb1391b64cee1fcb9,,,,,,,ctch,resources/DB.BMP,resources/DBN.BMP,Door3,-0.364814815,-0.016666667,1,0,0,0.5123,optionLeft,70,10580,5,37,0,37,0,1,,,,,,,,,,,,,,,,,,,,,,,,,,,,,,,,,,,,,,,
,,,,,,,,2023-08-16_08h53.12.435,HF_wild_card,2022.2.4,Linux x86_64,58.53772757,5ee0c8a669a88041d4034cea,64d2fd46c836a06233681665,64dc7f8eb1391b64cee1fcb9,,,,,,,sngl,resources/Empty.png,resources/DB.BMP,Door3,0.373148148,-0.035185185,1,0,0,0.63,optionRight,70,10650,5,38,0,38,0,1,,,,,,,,,,,,,,,,,,,,,,,,,,,,,,,,,,,,,,,
,,,,,,,,2023-08-16_08h53.12.435,HF_wild_card,2022.2.4,Linux x86_64,58.53772757,5ee0c8a669a88041d4034cea,64d2fd46c836a06233681665,64dc7f8eb1391b64cee1fcb9,,,,,,,sngl,resources/DG.BMP,resources/Empty.png,Door4,-0.276851852,0.014814815,1,0,0,0.4462,optionLeft,80,10730,5,39,0,39,0,1,,,,,,,,,,,,,,,,,,,,,,,,,,,,,,,,,,,,,,,
,,,,,,,,2023-08-16_08h53.12.435,HF_wild_card,2022.2.4,Linux x86_64,58.53772757,5ee0c8a669a88041d4034cea,64d2fd46c836a06233681665,64dc7f8eb1391b64cee1fcb9,,,,,,,sngl,resources/Empty.png,resources/DG.BMP,Door4,0.375925926,-0.000925926,1,0,0,0.4622,optionRight,60,10790,5,40,0,40,0,1,,,,,,,,,,,,,,,,,,,,,,,,,,,,,,,,,,,,,,,
,,,,,,,,2023-08-16_08h53.12.435,HF_wild_card,2022.2.4,Linux x86_64,58.53772757,5ee0c8a669a88041d4034cea,64d2fd46c836a06233681665,64dc7f8eb1391b64cee1fcb9,,,,,,,sngl,resources/Empty.png,resources/DR.BMP,WildCard_NonEx,0.424074074,-0.005555556,1,0,0,0.4792,optionRight,55,10845,5,41,0,41,0,1,,,,,,,,,,,,,,,,,,,,,,,,,,,,,,,,,,,,,,,
,,,,,,,,2023-08-16_08h53.12.435,HF_wild_card,2022.2.4,Linux x86_64,58.53772757,5ee0c8a669a88041d4034cea,64d2fd46c836a06233681665,64dc7f8eb1391b64cee1fcb9,,,,,,,decisionTrl,resources/DR.BMP,resources/DY.BMP,WildCard_NonEx,-0.326851852,0.027777778,1,0,0,0.5801,optionLeft,45,10890,5,42,0,42,0,1,,,,,,,,,,,,,,,,,,,,,,,,,,,,,,,,,,,,,,,
,,,,,,,,2023-08-16_08h53.12.435,HF_wild_card,2022.2.4,Linux x86_64,58.53772757,5ee0c8a669a88041d4034cea,64d2fd46c836a06233681665,64dc7f8eb1391b64cee1fcb9,,,,,,,decisionTrl,resources/DBN.BMP,resources/DY.BMP,Door1,0.318518519,-0.031481481,1,0,0,0.4965,optionRight,30,10920,5,43,0,43,0,1,,,,,,,,,,,,,,,,,,,,,,,,,,,,,,,,,,,,,,,
,,,,,,,,2023-08-16_08h53.12.435,HF_wild_card,2022.2.4,Linux x86_64,58.53772757,5ee0c8a669a88041d4034cea,64d2fd46c836a06233681665,64dc7f8eb1391b64cee1fcb9,,,,,,,,,,,,,,,,,,,,,,,,,,4,0,4,0,1,,,,,,,,,,,,,,,,,,,,,,,,,,,,,,,,,,
,,,,,,,,2023-08-16_08h53.12.435,HF_wild_card,2022.2.4,Linux x86_64,58.53772757,5ee0c8a669a88041d4034cea,64d2fd46c836a06233681665,64dc7f8eb1391b64cee1fcb9,,,,,,,decisionTrl,resources/DB.BMP,resources/DG.BMP,Door3,-0.331481481,0.07962963,1,0,0,0.7909,optionLeft,70,10990,6,0,0,0,0,1,,,,,,,,,,,,,,,,,,,,,,,,,,,,,,,,,,,,,,,
,,,,,,,,2023-08-16_08h53.12.435,HF_wild_card,2022.2.4,Linux x86_64,58.53772757,5ee0c8a669a88041d4034cea,64d2fd46c836a06233681665,64dc7f8eb1391b64cee1fcb9,,,,,,,decisionTrl,resources/DR.BMP,resources/DB.BMP,WildCard_NonEx,-0.375,0.021296296,1,0,0,0.4143,optionLeft,55,11045,6,1,0,1,0,1,,,,,,,,,,,,,,,,,,,,,,,,,,,,,,,,,,,,,,,
,,,,,,,,2023-08-16_08h53.12.435,HF_wild_card,2022.2.4,Linux x86_64,58.53772757,5ee0c8a669a88041d4034cea,64d2fd46c836a06233681665,64dc7f8eb1391b64cee1fcb9,,,,,,,decisionTrl,resources/DB.BMP,resources/DG.BMP,Door3,-0.356481481,0.002777778,1,0,0,0.3448,optionLeft,70,11115,6,2,0,2,0,1,,,,,,,,,,,,,,,,,,,,,,,,,,,,,,,,,,,,,,,
,,,,,,,,2023-08-16_08h53.12.435,HF_wild_card,2022.2.4,Linux x86_64,58.53772757,5ee0c8a669a88041d4034cea,64d2fd46c836a06233681665,64dc7f8eb1391b64cee1fcb9,,,,,,,decisionTrl,resources/DB.BMP,resources/DG.BMP,Door3,-0.339814815,0.031481481,1,0,0,0.3307,optionLeft,70,11185,6,3,0,3,0,1,,,,,,,,,,,,,,,,,,,,,,,,,,,,,,,,,,,,,,,
,,,,,,,,2023-08-16_08h53.12.435,HF_wild_card,2022.2.4,Linux x86_64,58.53772757,5ee0c8a669a88041d4034cea,64d2fd46c836a06233681665,64dc7f8eb1391b64cee1fcb9,,,,,,,decisionTrl,resources/DG.BMP,resources/DR.BMP,Door4,-0.381481481,-0.010185185,1,0,0,0.3138,optionLeft,60,11245,6,4,0,4,0,1,,,,,,,,,,,,,,,,,,,,,,,,,,,,,,,,,,,,,,,
,,,,,,,,2023-08-16_08h53.12.435,HF_wild_card,2022.2.4,Linux x86_64,58.53772757,5ee0c8a669a88041d4034cea,64d2fd46c836a06233681665,64dc7f8eb1391b64cee1fcb9,,,,,,,ctch,resources/DY.BMP,resources/DG.BMP,Door4,0.305555556,0.040740741,1,0,0,0.4131,optionRight,60,11305,6,5,0,5,0,1,,,,,,,,,,,,,,,,,,,,,,,,,,,,,,,,,,,,,,,
,,,,,,,,2023-08-16_08h53.12.435,HF_wild_card,2022.2.4,Linux x86_64,58.53772757,5ee0c8a669a88041d4034cea,64d2fd46c836a06233681665,64dc7f8eb1391b64cee1fcb9,,,,,,,decisionTrl,resources/DR.BMP,resources/DG.BMP,Door4,0.412037037,0.025,1,0,0,0.3975,optionRight,60,11365,6,6,0,6,0,1,,,,,,,,,,,,,,,,,,,,,,,,,,,,,,,,,,,,,,,
,,,,,,,,2023-08-16_08h53.12.435,HF_wild_card,2022.2.4,Linux x86_64,58.53772757,5ee0c8a669a88041d4034cea,64d2fd46c836a06233681665,64dc7f8eb1391b64cee1fcb9,,,,,,,decisionTrl,resources/DR.BMP,resources/DBN.BMP,Door2,0.399074074,-0.013888889,1,0,0,0.3962,optionRight,20,11385,6,7,0,7,0,1,,,,,,,,,,,,,,,,,,,,,,,,,,,,,,,,,,,,,,,
,,,,,,,,2023-08-16_08h53.12.435,HF_wild_card,2022.2.4,Linux x86_64,58.53772757,5ee0c8a669a88041d4034cea,64d2fd46c836a06233681665,64dc7f8eb1391b64cee1fcb9,,,,,,,sngl,resources/Empty.png,resources/DY.BMP,Door1,0.375,-0.008333333,1,0,0,0.3799,optionRight,30,11415,6,8,0,8,0,1,,,,,,,,,,,,,,,,,,,,,,,,,,,,,,,,,,,,,,,
,,,,,,,,2023-08-16_08h53.12.435,HF_wild_card,2022.2.4,Linux x86_64,58.53772757,5ee0c8a669a88041d4034cea,64d2fd46c836a06233681665,64dc7f8eb1391b64cee1fcb9,,,,,,,decisionTrl,resources/DG.BMP,resources/DB.BMP,Door3,0.361111111,-0.025925926,1,0,0,0.4632,optionRight,70,11485,6,9,0,9,0,1,,,,,,,,,,,,,,,,,,,,,,,,,,,,,,,,,,,,,,,
,,,,,,,,2023-08-16_08h53.12.435,HF_wild_card,2022.2.4,Linux x86_64,58.53772757,5ee0c8a669a88041d4034cea,64d2fd46c836a06233681665,64dc7f8eb1391b64cee1fcb9,,,,,,,sngl,resources/DY.BMP,resources/Empty.png,Door1,-0.346296296,0.024074074,1,0,0,0.5131,optionLeft,30,11515,6,10,0,10,0,1,,,,,,,,,,,,,,,,,,,,,,,,,,,,,,,,,,,,,,,
,,,,,,,,2023-08-16_08h53.12.435,HF_wild_card,2022.2.4,Linux x86_64,58.53772757,5ee0c8a669a88041d4034cea,64d2fd46c836a06233681665,64dc7f8eb1391b64cee1fcb9,,,,,,,sngl,resources/DB.BMP,resources/Empty.png,Door3,-0.342592593,-0.003703704,1,0,0,0.428,optionLeft,70,11585,6,11,0,11,0,1,,,,,,,,,,,,,,,,,,,,,,,,,,,,,,,,,,,,,,,
,,,,,,,,2023-08-16_08h53.12.435,HF_wild_card,2022.2.4,Linux x86_64,58.53772757,5ee0c8a669a88041d4034cea,64d2fd46c836a06233681665,64dc7f8eb1391b64cee1fcb9,,,,,,,sngl,resources/Empty.png,resources/DG.BMP,Door4,0.346296296,-0.047222222,1,0,0,0.4782,optionRight,80,11665,6,12,0,12,0,1,,,,,,,,,,,,,,,,,,,,,,,,,,,,,,,,,,,,,,,
,,,,,,,,2023-08-16_08h53.12.435,HF_wild_card,2022.2.4,Linux x86_64,58.53772757,5ee0c8a669a88041d4034cea,64d2fd46c836a06233681665,64dc7f8eb1391b64cee1fcb9,,,,,,,decisionTrl,resources/DG.BMP,resources/DB.BMP,Door4,-0.324074074,-0.011111111,1,0,0,0.4457,optionLeft,60,11725,6,13,0,13,0,1,,,,,,,,,,,,,,,,,,,,,,,,,,,,,,,,,,,,,,,
,,,,,,,,2023-08-16_08h53.12.435,HF_wild_card,2022.2.4,Linux x86_64,58.53772757,5ee0c8a669a88041d4034cea,64d2fd46c836a06233681665,64dc7f8eb1391b64cee1fcb9,,,,,,,decisionTrl,resources/DBN.BMP,resources/DY.BMP,Door1,0.42037037,-0.046296296,1,0,0,0.4132,optionRight,30,11755,6,14,0,14,0,1,,,,,,,,,,,,,,,,,,,,,,,,,,,,,,,,,,,,,,,
,,,,,,,,2023-08-16_08h53.12.435,HF_wild_card,2022.2.4,Linux x86_64,58.53772757,5ee0c8a669a88041d4034cea,64d2fd46c836a06233681665,64dc7f8eb1391b64cee1fcb9,,,,,,,sngl,resources/Empty.png,resources/DR.BMP,WildCard_NonEx,0.266666667,0,1,0,0,0.5126,optionRight,45,11800,6,15,0,15,0,1,,,,,,,,,,,,,,,,,,,,,,,,,,,,,,,,,,,,,,,
,,,,,,,,2023-08-16_08h53.12.435,HF_wild_card,2022.2.4,Linux x86_64,58.53772757,5ee0c8a669a88041d4034cea,64d2fd46c836a06233681665,64dc7f8eb1391b64cee1fcb9,,,,,,,decisionTrl,resources/DY.BMP,resources/DBN.BMP,Door1,-0.403703704,0.007407407,1,0,0,0.4288,optionLeft,30,11830,6,16,0,16,0,1,,,,,,,,,,,,,,,,,,,,,,,,,,,,,,,,,,,,,,,
,,,,,,,,2023-08-16_08h53.12.435,HF_wild_card,2022.2.4,Linux x86_64,58.53772757,5ee0c8a669a88041d4034cea,64d2fd46c836a06233681665,64dc7f8eb1391b64cee1fcb9,,,,,,,ctch,resources/DY.BMP,resources/DG.BMP,Door1,-0.34537037,0.007407407,1,0,0,0.4633,optionLeft,30,11860,6,17,0,17,0,1,,,,,,,,,,,,,,,,,,,,,,,,,,,,,,,,,,,,,,,
,,,,,,,,2023-08-16_08h53.12.435,HF_wild_card,2022.2.4,Linux x86_64,58.53772757,5ee0c8a669a88041d4034cea,64d2fd46c836a06233681665,64dc7f8eb1391b64cee1fcb9,,,,,,,decisionTrl,resources/DG.BMP,resources/DB.BMP,Door4,-0.308333333,-0.017592593,1,0,0,0.4609,optionLeft,80,11940,6,18,0,18,0,1,,,,,,,,,,,,,,,,,,,,,,,,,,,,,,,,,,,,,,,
,,,,,,,,2023-08-16_08h53.12.435,HF_wild_card,2022.2.4,Linux x86_64,58.53772757,5ee0c8a669a88041d4034cea,64d2fd46c836a06233681665,64dc7f8eb1391b64cee1fcb9,,,,,,,decisionTrl,resources/DY.BMP,resources/DR.BMP,Door1,-0.42962963,-0.028703704,1,0,0,0.329,optionLeft,30,11970,6,19,0,19,0,1,,,,,,,,,,,,,,,,,,,,,,,,,,,,,,,,,,,,,,,
,,,,,,,,2023-08-16_08h53.12.435,HF_wild_card,2022.2.4,Linux x86_64,58.53772757,5ee0c8a669a88041d4034cea,64d2fd46c836a06233681665,64dc7f8eb1391b64cee1fcb9,,,,,,,decisionTrl,resources/DG.BMP,resources/DB.BMP,Door4,-0.25,-0.005555556,1,0,0,0.3795,optionLeft,60,12030,6,20,0,20,0,1,,,,,,,,,,,,,,,,,,,,,,,,,,,,,,,,,,,,,,,
,,,,,,,,2023-08-16_08h53.12.435,HF_wild_card,2022.2.4,Linux x86_64,58.53772757,5ee0c8a669a88041d4034cea,64d2fd46c836a06233681665,64dc7f8eb1391b64cee1fcb9,,,,,,,decisionTrl,resources/DY.BMP,resources/DBN.BMP,Door1,-0.356481481,-0.025925926,1,0,0,0.3628,optionLeft,30,12060,6,21,0,21,0,1,,,,,,,,,,,,,,,,,,,,,,,,,,,,,,,,,,,,,,,
,,,,,,,,2023-08-16_08h53.12.435,HF_wild_card,2022.2.4,Linux x86_64,58.53772757,5ee0c8a669a88041d4034cea,64d2fd46c836a06233681665,64dc7f8eb1391b64cee1fcb9,,,,,,,sngl,resources/DBN.BMP,resources/Empty.png,Door2,-0.381481481,-0.017592593,1,0,0,0.3968,optionLeft,20,12080,6,22,0,22,0,1,,,,,,,,,,,,,,,,,,,,,,,,,,,,,,,,,,,,,,,
,,,,,,,,2023-08-16_08h53.12.435,HF_wild_card,2022.2.4,Linux x86_64,58.53772757,5ee0c8a669a88041d4034cea,64d2fd46c836a06233681665,64dc7f8eb1391b64cee1fcb9,,,,,,,sngl,resources/DR.BMP,resources/Empty.png,WildCard_NonEx,-0.259259259,-0.001851852,1,0,0,0.4291,optionLeft,45,12125,6,23,0,23,0,1,,,,,,,,,,,,,,,,,,,,,,,,,,,,,,,,,,,,,,,
,,,,,,,,2023-08-16_08h53.12.435,HF_wild_card,2022.2.4,Linux x86_64,58.53772757,5ee0c8a669a88041d4034cea,64d2fd46c836a06233681665,64dc7f8eb1391b64cee1fcb9,,,,,,,ctch,resources/DBN.BMP,resources/DB.BMP,Door3,0.297222222,-0.018518519,1,0,0,0.5304,optionRight,70,12195,6,24,0,24,0,1,,,,,,,,,,,,,,,,,,,,,,,,,,,,,,,,,,,,,,,
,,,,,,,,2023-08-16_08h53.12.435,HF_wild_card,2022.2.4,Linux x86_64,58.53772757,5ee0c8a669a88041d4034cea,64d2fd46c836a06233681665,64dc7f8eb1391b64cee1fcb9,,,,,,,decisionTrl,resources/DB.BMP,resources/DR.BMP,WildCard_NonEx,0.363888889,-0.012037037,1,0,0,0.3957,optionRight,45,12240,6,25,0,25,0,1,,,,,,,,,,,,,,,,,,,,,,,,,,,,,,,,,,,,,,,
,,,,,,,,2023-08-16_08h53.12.435,HF_wild_card,2022.2.4,Linux x86_64,58.53772757,5ee0c8a669a88041d4034cea,64d2fd46c836a06233681665,64dc7f8eb1391b64cee1fcb9,,,,,,,decisionTrl,resources/DR.BMP,resources/DY.BMP,Door1,0.323148148,-0.005555556,1,0,0,0.3954,optionRight,30,12270,6,26,0,26,0,1,,,,,,,,,,,,,,,,,,,,,,,,,,,,,,,,,,,,,,,
,,,,,,,,2023-08-16_08h53.12.435,HF_wild_card,2022.2.4,Linux x86_64,58.53772757,5ee0c8a669a88041d4034cea,64d2fd46c836a06233681665,64dc7f8eb1391b64cee1fcb9,,,,,,,decisionTrl,resources/DY.BMP,resources/DBN.BMP,Door2,0.448148148,-0.039814815,1,0,0,0.3798,optionRight,20,12290,6,27,0,27,0,1,,,,,,,,,,,,,,,,,,,,,,,,,,,,,,,,,,,,,,,
,,,,,,,,2023-08-16_08h53.12.435,HF_wild_card,2022.2.4,Linux x86_64,58.53772757,5ee0c8a669a88041d4034cea,64d2fd46c836a06233681665,64dc7f8eb1391b64cee1fcb9,,,,,,,sngl,resources/DG.BMP,resources/Empty.png,Door4,-0.393518519,0.011111111,1,0,0,0.5299,optionLeft,60,12350,6,28,0,28,0,1,,,,,,,,,,,,,,,,,,,,,,,,,,,,,,,,,,,,,,,
,,,,,,,,2023-08-16_08h53.12.435,HF_wild_card,2022.2.4,Linux x86_64,58.53772757,5ee0c8a669a88041d4034cea,64d2fd46c836a06233681665,64dc7f8eb1391b64cee1fcb9,,,,,,,decisionTrl,resources/DBN.BMP,resources/DY.BMP,Door2,-0.325,-0.012962963,1,0,0,0.3296,optionLeft,20,12370,6,29,0,29,0,1,,,,,,,,,,,,,,,,,,,,,,,,,,,,,,,,,,,,,,,
,,,,,,,,2023-08-16_08h53.12.435,HF_wild_card,2022.2.4,Linux x86_64,58.53772757,5ee0c8a669a88041d4034cea,64d2fd46c836a06233681665,64dc7f8eb1391b64cee1fcb9,,,,,,,ctch,resources/DB.BMP,resources/DBN.BMP,Door3,-0.285185185,0.003703704,1,0,0,0.3789,optionLeft,70,12440,6,30,0,30,0,1,,,,,,,,,,,,,,,,,,,,,,,,,,,,,,,,,,,,,,,
,,,,,,,,2023-08-16_08h53.12.435,HF_wild_card,2022.2.4,Linux x86_64,58.53772757,5ee0c8a669a88041d4034cea,64d2fd46c836a06233681665,64dc7f8eb1391b64cee1fcb9,,,,,,,sngl,resources/Empty.png,resources/DBN.BMP,Door2,0.342592593,-0.001851852,1,0,0,0.4972,optionRight,40,12480,6,31,0,31,0,1,,,,,,,,,,,,,,,,,,,,,,,,,,,,,,,,,,,,,,,
,,,,,,,,2023-08-16_08h53.12.435,HF_wild_card,2022.2.4,Linux x86_64,58.53772757,5ee0c8a669a88041d4034cea,64d2fd46c836a06233681665,64dc7f8eb1391b64cee1fcb9,,,,,,,ctch,resources/DBN.BMP,resources/DB.BMP,Door2,-0.391666667,-0.016666667,1,0,0,0.3466,optionLeft,40,12520,6,32,0,32,0,1,,,,,,,,,,,,,,,,,,,,,,,,,,,,,,,,,,,,,,,
,,,,,,,,2023-08-16_08h53.12.435,HF_wild_card,2022.2.4,Linux x86_64,58.53772757,5ee0c8a669a88041d4034cea,64d2fd46c836a06233681665,64dc7f8eb1391b64cee1fcb9,,,,,,,decisionTrl,resources/DB.BMP,resources/DG.BMP,Door3,-0.281481481,-0.003703704,1,0,0,0.3798,optionLeft,70,12590,6,33,0,33,0,1,,,,,,,,,,,,,,,,,,,,,,,,,,,,,,,,,,,,,,,
,,,,,,,,2023-08-16_08h53.12.435,HF_wild_card,2022.2.4,Linux x86_64,58.53772757,5ee0c8a669a88041d4034cea,64d2fd46c836a06233681665,64dc7f8eb1391b64cee1fcb9,,,,,,,ctch,resources/DG.BMP,resources/DY.BMP,Door1,0.303703704,0.04537037,1,0,0,0.4133,optionRight,30,12620,6,34,0,34,0,1,,,,,,,,,,,,,,,,,,,,,,,,,,,,,,,,,,,,,,,
,,,,,,,,2023-08-16_08h53.12.435,HF_wild_card,2022.2.4,Linux x86_64,58.53772757,5ee0c8a669a88041d4034cea,64d2fd46c836a06233681665,64dc7f8eb1391b64cee1fcb9,,,,,,,sngl,resources/DR.BMP,resources/Empty.png,WildCard_NonEx,-0.318518519,0.009259259,1,0,0,0.3966,optionLeft,55,12675,6,35,0,35,0,1,,,,,,,,,,,,,,,,,,,,,,,,,,,,,,,,,,,,,,,
,,,,,,,,2023-08-16_08h53.12.435,HF_wild_card,2022.2.4,Linux x86_64,58.53772757,5ee0c8a669a88041d4034cea,64d2fd46c836a06233681665,64dc7f8eb1391b64cee1fcb9,,,,,,,sngl,resources/Empty.png,resources/DR.BMP,WildCard_NonEx,0.316666667,-0.003703704,1,0,0,0.4656,optionRight,55,12730,6,36,0,36,0,1,,,,,,,,,,,,,,,,,,,,,,,,,,,,,,,,,,,,,,,
,,,,,,,,2023-08-16_08h53.12.435,HF_wild_card,2022.2.4,Linux x86_64,58.53772757,5ee0c8a669a88041d4034cea,64d2fd46c836a06233681665,64dc7f8eb1391b64cee1fcb9,,,,,,,decisionTrl,resources/DBN.BMP,resources/DY.BMP,Door2,-0.409259259,0.011111111,1,0,0,0.3301,optionLeft,20,12750,6,37,0,37,0,1,,,,,,,,,,,,,,,,,,,,,,,,,,,,,,,,,,,,,,,
,,,,,,,,2023-08-16_08h53.12.435,HF_wild_card,2022.2.4,Linux x86_64,58.53772757,5ee0c8a669a88041d4034cea,64d2fd46c836a06233681665,64dc7f8eb1391b64cee1fcb9,,,,,,,sngl,resources/Empty.png,resources/DB.BMP,Door3,0.339814815,0.02037037,1,0,0,0.5128,optionRight,70,12820,6,38,0,38,0,1,,,,,,,,,,,,,,,,,,,,,,,,,,,,,,,,,,,,,,,
,,,,,,,,2023-08-16_08h53.12.435,HF_wild_card,2022.2.4,Linux x86_64,58.53772757,5ee0c8a669a88041d4034cea,64d2fd46c836a06233681665,64dc7f8eb1391b64cee1fcb9,,,,,,,decisionTrl,resources/DBN.BMP,resources/DR.BMP,Door2,-0.382407407,0.005555556,1,0,0,0.3298,optionLeft,40,12860,6,39,0,39,0,1,,,,,,,,,,,,,,,,,,,,,,,,,,,,,,,,,,,,,,,
,,,,,,,,2023-08-16_08h53.12.435,HF_wild_card,2022.2.4,Linux x86_64,58.53772757,5ee0c8a669a88041d4034cea,64d2fd46c836a06233681665,64dc7f8eb1391b64cee1fcb9,,,,,,,ctch,resources/DG.BMP,resources/DY.BMP,Door1,0.327777778,-0.003703704,1,0,0,0.4293,optionRight,30,12890,6,40,0,40,0,1,,,,,,,,,,,,,,,,,,,,,,,,,,,,,,,,,,,,,,,
,,,,,,,,2023-08-16_08h53.12.435,HF_wild_card,2022.2.4,Linux x86_64,58.53772757,5ee0c8a669a88041d4034cea,64d2fd46c836a06233681665,64dc7f8eb1391b64cee1fcb9,,,,,,,ctch,resources/DB.BMP,resources/DBN.BMP,Door3,-0.337037037,-0.014814815,1,0,0,0.38,optionLeft,70,12960,6,41,0,41,0,1,,,,,,,,,,,,,,,,,,,,,,,,,,,,,,,,,,,,,,,
,,,,,,,,2023-08-16_08h53.12.435,HF_wild_card,2022.2.4,Linux x86_64,58.53772757,5ee0c8a669a88041d4034cea,64d2fd46c836a06233681665,64dc7f8eb1391b64cee1fcb9,,,,,,,decisionTrl,resources/DBN.BMP,resources/DY.BMP,Door1,0.388888889,-0.021296296,1,0,0,0.4452,optionRight,30,12990,6,42,0,42,0,1,,,,,,,,,,,,,,,,,,,,,,,,,,,,,,,,,,,,,,,
,,,,,,,,2023-08-16_08h53.12.435,HF_wild_card,2022.2.4,Linux x86_64,58.53772757,5ee0c8a669a88041d4034cea,64d2fd46c836a06233681665,64dc7f8eb1391b64cee1fcb9,,,,,,,decisionTrl,resources/DY.BMP,resources/DBN.BMP,Door1,-0.314814815,-0.012962963,1,0,0,0.3808,optionLeft,30,13020,6,43,0,43,0,1,,,,,,,,,,,,,,,,,,,,,,,,,,,,,,,,,,,,,,,
,,,,,,,,2023-08-16_08h53.12.435,HF_wild_card,2022.2.4,Linux x86_64,58.53772757,5ee0c8a669a88041d4034cea,64d2fd46c836a06233681665,64dc7f8eb1391b64cee1fcb9,,,,,,,,,,,,,,,,,,,,,,,,,,5,0,5,0,1,,,,,,,,,,,,,,,,,,,,,,,,,,,,,,,,,,
,,,,,,,,2023-08-16_08h53.12.435,HF_wild_card,2022.2.4,Linux x86_64,58.53772757,5ee0c8a669a88041d4034cea,64d2fd46c836a06233681665,64dc7f8eb1391b64cee1fcb9,,,,,,,ctch,resources/DG.BMP,resources/DY.BMP,Door1,0.385185185,0.016666667,1,0,0,0.8739,optionRight,30,13050,7,0,0,0,0,1,,,,,,,,,,,,,,,,,,,,,,,,,,,,,,,,,,,,,,,
,,,,,,,,2023-08-16_08h53.12.435,HF_wild_card,2022.2.4,Linux x86_64,58.53772757,5ee0c8a669a88041d4034cea,64d2fd46c836a06233681665,64dc7f8eb1391b64cee1fcb9,,,,,,,ctch,resources/DG.BMP,resources/DY.BMP,Door1,0.325,-0.037037037,1,0,0,0.3984,optionRight,30,13080,7,1,0,1,0,1,,,,,,,,,,,,,,,,,,,,,,,,,,,,,,,,,,,,,,,
,,,,,,,,2023-08-16_08h53.12.435,HF_wild_card,2022.2.4,Linux x86_64,58.53772757,5ee0c8a669a88041d4034cea,64d2fd46c836a06233681665,64dc7f8eb1391b64cee1fcb9,,,,,,,decisionTrl,resources/DG.BMP,resources/DB.BMP,Door3,0.382407407,-0.037962963,1,0,0,0.3805,optionRight,70,13150,7,2,0,2,0,1,,,,,,,,,,,,,,,,,,,,,,,,,,,,,,,,,,,,,,,
,,,,,,,,2023-08-16_08h53.12.435,HF_wild_card,2022.2.4,Linux x86_64,58.53772757,5ee0c8a669a88041d4034cea,64d2fd46c836a06233681665,64dc7f8eb1391b64cee1fcb9,,,,,,,ctch,resources/DB.BMP,resources/DBN.BMP,Door2,0.373148148,-0.078703704,1,0,0,0.3804,optionRight,40,13190,7,3,0,3,0,1,,,,,,,,,,,,,,,,,,,,,,,,,,,,,,,,,,,,,,,
,,,,,,,,2023-08-16_08h53.12.435,HF_wild_card,2022.2.4,Linux x86_64,58.53772757,5ee0c8a669a88041d4034cea,64d2fd46c836a06233681665,64dc7f8eb1391b64cee1fcb9,,,,,,,decisionTrl,resources/DG.BMP,resources/DB.BMP,Door3,0.366666667,-0.016666667,1,0,0,0.4137,optionRight,70,13260,7,4,0,4,0,1,,,,,,,,,,,,,,,,,,,,,,,,,,,,,,,,,,,,,,,
,,,,,,,,2023-08-16_08h53.12.435,HF_wild_card,2022.2.4,Linux x86_64,58.53772757,5ee0c8a669a88041d4034cea,64d2fd46c836a06233681665,64dc7f8eb1391b64cee1fcb9,,,,,,,decisionTrl,resources/DBN.BMP,resources/DY.BMP,Door2,-0.269444444,-0.028703704,1,0,0,0.3309,optionLeft,40,13300,7,5,0,5,0,1,,,,,,,,,,,,,,,,,,,,,,,,,,,,,,,,,,,,,,,
,,,,,,,,2023-08-16_08h53.12.435,HF_wild_card,2022.2.4,Linux x86_64,58.53772757,5ee0c8a669a88041d4034cea,64d2fd46c836a06233681665,64dc7f8eb1391b64cee1fcb9,,,,,,,ctch,resources/DY.BMP,resources/DG.BMP,Door1,-0.287037037,-0.038888889,1,0,0,0.3978,optionLeft,30,13330,7,6,0,6,0,1,,,,,,,,,,,,,,,,,,,,,,,,,,,,,,,,,,,,,,,
,,,,,,,,2023-08-16_08h53.12.435,HF_wild_card,2022.2.4,Linux x86_64,58.53772757,5ee0c8a669a88041d4034cea,64d2fd46c836a06233681665,64dc7f8eb1391b64cee1fcb9,,,,,,,ctch,resources/DG.BMP,resources/DY.BMP,Door4,-0.417592593,-0.014814815,1,0,0,0.2808,optionLeft,60,13390,7,7,0,7,0,1,,,,,,,,,,,,,,,,,,,,,,,,,,,,,,,,,,,,,,,
,,,,,,,,2023-08-16_08h53.12.435,HF_wild_card,2022.2.4,Linux x86_64,58.53772757,5ee0c8a669a88041d4034cea,64d2fd46c836a06233681665,64dc7f8eb1391b64cee1fcb9,,,,,,,decisionTrl,resources/DBN.BMP,resources/DY.BMP,Door2,-0.240740741,-0.015740741,1,0,0,0.2988,optionLeft,40,13430,7,8,0,8,0,1,,,,,,,,,,,,,,,,,,,,,,,,,,,,,,,,,,,,,,,
,,,,,,,,2023-08-16_08h53.12.435,HF_wild_card,2022.2.4,Linux x86_64,58.53772757,5ee0c8a669a88041d4034cea,64d2fd46c836a06233681665,64dc7f8eb1391b64cee1fcb9,,,,,,,ctch,resources/DBN.BMP,resources/DB.BMP,Door2,-0.369444444,0.005555556,1,0,0,0.3141,optionLeft,40,13470,7,9,0,9,0,1,,,,,,,,,,,,,,,,,,,,,,,,,,,,,,,,,,,,,,,
,,,,,,,,2023-08-16_08h53.12.435,HF_wild_card,2022.2.4,Linux x86_64,58.53772757,5ee0c8a669a88041d4034cea,64d2fd46c836a06233681665,64dc7f8eb1391b64cee1fcb9,,,,,,,ctch,resources/DY.BMP,resources/DG.BMP,Door1,-0.30462963,-0.013888889,1,0,0,0.3477,optionLeft,30,13500,7,10,0,10,0,1,,,,,,,,,,,,,,,,,,,,,,,,,,,,,,,,,,,,,,,
,,,,,,,,2023-08-16_08h53.12.435,HF_wild_card,2022.2.4,Linux x86_64,58.53772757,5ee0c8a669a88041d4034cea,64d2fd46c836a06233681665,64dc7f8eb1391b64cee1fcb9,,,,,,,decisionTrl,resources/DY.BMP,resources/DBN.BMP,Door1,-0.34537037,0.018518519,1,0,0,0.3481,optionLeft,30,13530,7,11,0,11,0,1,,,,,,,,,,,,,,,,,,,,,,,,,,,,,,,,,,,,,,,
,,,,,,,,2023-08-16_08h53.12.435,HF_wild_card,2022.2.4,Linux x86_64,58.53772757,5ee0c8a669a88041d4034cea,64d2fd46c836a06233681665,64dc7f8eb1391b64cee1fcb9,,,,,,,decisionTrl,resources/DBN.BMP,resources/DY.BMP,Door2,-0.331481481,0.008333333,1,0,0,0.3647,optionLeft,40,13570,7,12,0,12,0,1,,,,,,,,,,,,,,,,,,,,,,,,,,,,,,,,,,,,,,,
,,,,,,,,2023-08-16_08h53.12.435,HF_wild_card,2022.2.4,Linux x86_64,58.53772757,5ee0c8a669a88041d4034cea,64d2fd46c836a06233681665,64dc7f8eb1391b64cee1fcb9,,,,,,,decisionTrl,resources/DG.BMP,resources/DB.BMP,Door4,-0.380555556,-0.015740741,1,0,0,0.3158,optionLeft,80,13650,7,13,0,13,0,1,,,,,,,,,,,,,,,,,,,,,,,,,,,,,,,,,,,,,,,
,,,,,,,,2023-08-16_08h53.12.435,HF_wild_card,2022.2.4,Linux x86_64,58.53772757,5ee0c8a669a88041d4034cea,64d2fd46c836a06233681665,64dc7f8eb1391b64cee1fcb9,,,,,,,decisionTrl,resources/DG.BMP,resources/DB.BMP,Door4,-0.342592593,-0.062037037,1,0,0,0.3306,optionLeft,60,13710,7,14,0,14,0,1,,,,,,,,,,,,,,,,,,,,,,,,,,,,,,,,,,,,,,,
,,,,,,,,2023-08-16_08h53.12.435,HF_wild_card,2022.2.4,Linux x86_64,58.53772757,5ee0c8a669a88041d4034cea,64d2fd46c836a06233681665,64dc7f8eb1391b64cee1fcb9,,,,,,,ctch,resources/DY.BMP,resources/DG.BMP,Door1,-0.308333333,-0.022222222,1,0,0,0.3323,optionLeft,30,13740,7,15,0,15,0,1,,,,,,,,,,,,,,,,,,,,,,,,,,,,,,,,,,,,,,,
,,,,,,,,2023-08-16_08h53.12.435,HF_wild_card,2022.2.4,Linux x86_64,58.53772757,5ee0c8a669a88041d4034cea,64d2fd46c836a06233681665,64dc7f8eb1391b64cee1fcb9,,,,,,,decisionTrl,resources/DBN.BMP,resources/DY.BMP,Door1,0.256481481,-0.02962963,1,0,0,0.3488,optionRight,30,13770,7,16,0,16,0,1,,,,,,,,,,,,,,,,,,,,,,,,,,,,,,,,,,,,,,,
,,,,,,,,2023-08-16_08h53.12.435,HF_wild_card,2022.2.4,Linux x86_64,58.53772757,5ee0c8a669a88041d4034cea,64d2fd46c836a06233681665,64dc7f8eb1391b64cee1fcb9,,,,,,,decisionTrl,resources/DB.BMP,resources/DG.BMP,Door4,0.331481481,-0.036111111,1,0,0,0.3329,optionRight,80,13850,7,17,0,17,0,1,,,,,,,,,,,,,,,,,,,,,,,,,,,,,,,,,,,,,,,
,,,,,,,,2023-08-16_08h53.12.435,HF_wild_card,2022.2.4,Linux x86_64,58.53772757,5ee0c8a669a88041d4034cea,64d2fd46c836a06233681665,64dc7f8eb1391b64cee1fcb9,,,,,,,ctch,resources/DB.BMP,resources/DBN.BMP,Door2,0.303703704,-0.040740741,1,0,0,0.2972,optionRight,20,13870,7,18,0,18,0,1,,,,,,,,,,,,,,,,,,,,,,,,,,,,,,,,,,,,,,,
,,,,,,,,2023-08-16_08h53.12.435,HF_wild_card,2022.2.4,Linux x86_64,58.53772757,5ee0c8a669a88041d4034cea,64d2fd46c836a06233681665,64dc7f8eb1391b64cee1fcb9,,,,,,,decisionTrl,resources/DG.BMP,resources/DB.BMP,Door3,0.403703704,-0.025925926,1,0,0,0.332,optionRight,70,13940,7,19,0,19,0,1,,,,,,,,,,,,,,,,,,,,,,,,,,,,,,,,,,,,,,,
,,,,,,,,2023-08-16_08h53.12.435,HF_wild_card,2022.2.4,Linux x86_64,58.53772757,5ee0c8a669a88041d4034cea,64d2fd46c836a06233681665,64dc7f8eb1391b64cee1fcb9,,,,,,,decisionTrl,resources/DB.BMP,resources/DG.BMP,Door4,0.367592593,-0.007407407,1,0,0,0.3313,optionRight,60,14000,7,20,0,20,0,1,,,,,,,,,,,,,,,,,,,,,,,,,,,,,,,,,,,,,,,
,,,,,,,,2023-08-16_08h53.12.435,HF_wild_card,2022.2.4,Linux x86_64,58.53772757,5ee0c8a669a88041d4034cea,64d2fd46c836a06233681665,64dc7f8eb1391b64cee1fcb9,,,,,,,decisionTrl,resources/DBN.BMP,resources/DY.BMP,Door1,0.3,-0.067592593,1,0,0,0.3323,optionRight,30,14030,7,21,0,21,0,1,,,,,,,,,,,,,,,,,,,,,,,,,,,,,,,,,,,,,,,
,,,,,,,,2023-08-16_08h53.12.435,HF_wild_card,2022.2.4,Linux x86_64,58.53772757,5ee0c8a669a88041d4034cea,64d2fd46c836a06233681665,64dc7f8eb1391b64cee1fcb9,,,,,,,decisionTrl,resources/DG.BMP,resources/DB.BMP,Door3,0.323148148,-0.036111111,1,0,0,0.3323,optionRight,70,14100,7,22,0,22,0,1,,,,,,,,,,,,,,,,,,,,,,,,,,,,,,,,,,,,,,,
,,,,,,,,2023-08-16_08h53.12.435,HF_wild_card,2022.2.4,Linux x86_64,58.53772757,5ee0c8a669a88041d4034cea,64d2fd46c836a06233681665,64dc7f8eb1391b64cee1fcb9,,,,,,,decisionTrl,resources/DB.BMP,resources/DG.BMP,Door4,0.285185185,-0.032407407,1,0,0,0.3322,optionRight,60,14160,7,23,0,23,0,1,,,,,,,,,,,,,,,,,,,,,,,,,,,,,,,,,,,,,,,
,,,,,,,,2023-08-16_08h53.12.435,HF_wild_card,2022.2.4,Linux x86_64,58.53772757,5ee0c8a669a88041d4034cea,64d2fd46c836a06233681665,64dc7f8eb1391b64cee1fcb9,,,,,,,ctch,resources/DBN.BMP,resources/DB.BMP,Door3,0.35,-0.044444444,1,0,0,0.3329,optionRight,70,14230,7,24,0,24,0,1,,,,,,,,,,,,,,,,,,,,,,,,,,,,,,,,,,,,,,,
,,,,,,,,2023-08-16_08h53.12.435,HF_wild_card,2022.2.4,Linux x86_64,58.53772757,5ee0c8a669a88041d4034cea,64d2fd46c836a06233681665,64dc7f8eb1391b64cee1fcb9,,,,,,,decisionTrl,resources/DB.BMP,resources/DG.BMP,Door4,0.34537037,-0.02037037,1,0,0,0.3654,optionRight,60,14290,7,25,0,25,0,1,,,,,,,,,,,,,,,,,,,,,,,,,,,,,,,,,,,,,,,
,,,,,,,,2023-08-16_08h53.12.435,HF_wild_card,2022.2.4,Linux x86_64,58.53772757,5ee0c8a669a88041d4034cea,64d2fd46c836a06233681665,64dc7f8eb1391b64cee1fcb9,,,,,,,decisionTrl,resources/DY.BMP,resources/DBN.BMP,Door2,0.312962963,-0.042592593,1,0,0,0.3317,optionRight,20,14310,7,26,0,26,0,1,,,,,,,,,,,,,,,,,,,,,,,,,,,,,,,,,,,,,,,
,,,,,,,,2023-08-16_08h53.12.435,HF_wild_card,2022.2.4,Linux x86_64,58.53772757,5ee0c8a669a88041d4034cea,64d2fd46c836a06233681665,64dc7f8eb1391b64cee1fcb9,,,,,,,decisionTrl,resources/DB.BMP,resources/DG.BMP,Door4,0.331481481,-0.030555556,1,0,0,0.3486,optionRight,80,14390,7,27,0,27,0,1,,,,,,,,,,,,,,,,,,,,,,,,,,,,,,,,,,,,,,,
,,,,,,,,2023-08-16_08h53.12.435,HF_wild_card,2022.2.4,Linux x86_64,58.53772757,5ee0c8a669a88041d4034cea,64d2fd46c836a06233681665,64dc7f8eb1391b64cee1fcb9,,,,,,,decisionTrl,resources/DBN.BMP,resources/DY.BMP,Door1,0.402777778,-0.014814815,1,0,0,0.3817,optionRight,30,14420,7,28,0,28,0,1,,,,,,,,,,,,,,,,,,,,,,,,,,,,,,,,,,,,,,,
,,,,,,,,2023-08-16_08h53.12.435,HF_wild_card,2022.2.4,Linux x86_64,58.53772757,5ee0c8a669a88041d4034cea,64d2fd46c836a06233681665,64dc7f8eb1391b64cee1fcb9,,,,,,,decisionTrl,resources/DY.BMP,resources/DBN.BMP,Door2,0.287037037,0.003703704,1,0,0,0.3832,optionRight,20,14440,7,29,0,29,0,1,,,,,,,,,,,,,,,,,,,,,,,,,,,,,,,,,,,,,,,
,,,,,,,,2023-08-16_08h53.12.435,HF_wild_card,2022.2.4,Linux x86_64,58.53772757,5ee0c8a669a88041d4034cea,64d2fd46c836a06233681665,64dc7f8eb1391b64cee1fcb9,,,,,,,decisionTrl,resources/DB.BMP,resources/DG.BMP,Door4,0.325,-0.012037037,1,0,0,0.3478,optionRight,80,14520,7,30,0,30,0,1,,,,,,,,,,,,,,,,,,,,,,,,,,,,,,,,,,,,,,,
,,,,,,,,2023-08-16_08h53.12.435,HF_wild_card,2022.2.4,Linux x86_64,58.53772757,5ee0c8a669a88041d4034cea,64d2fd46c836a06233681665,64dc7f8eb1391b64cee1fcb9,,,,,,,decisionTrl,resources/DY.BMP,resources/DBN.BMP,Door2,0.366666667,-0.019444444,1,0,0,0.416,optionRight,40,14560,7,31,0,31,0,1,,,,,,,,,,,,,,,,,,,,,,,,,,,,,,,,,,,,,,,
,,,,,,,,2023-08-16_08h53.12.435,HF_wild_card,2022.2.4,Linux x86_64,58.53772757,5ee0c8a669a88041d4034cea,64d2fd46c836a06233681665,64dc7f8eb1391b64cee1fcb9,,,,,,,ctch,resources/DBN.BMP,resources/DB.BMP,Door3,0.350925926,-0.032407407,1,0,0,0.3969,optionRight,70,14630,7,32,0,32,0,1,,,,,,,,,,,,,,,,,,,,,,,,,,,,,,,,,,,,,,,
,,,,,,,,2023-08-16_08h53.12.435,HF_wild_card,2022.2.4,Linux x86_64,58.53772757,5ee0c8a669a88041d4034cea,64d2fd46c836a06233681665,64dc7f8eb1391b64cee1fcb9,,,,,,,decisionTrl,resources/DY.BMP,resources/DBN.BMP,Door2,0.260185185,0.037962963,1,0,0,0.3158,optionRight,20,14650,7,33,0,33,0,1,,,,,,,,,,,,,,,,,,,,,,,,,,,,,,,,,,,,,,,
,,,,,,,,2023-08-16_08h53.12.435,HF_wild_card,2022.2.4,Linux x86_64,58.53772757,5ee0c8a669a88041d4034cea,64d2fd46c836a06233681665,64dc7f8eb1391b64cee1fcb9,,,,,,,decisionTrl,resources/DY.BMP,resources/DBN.BMP,Door2,0.321296296,0.015740741,1,0,0,0.349,optionRight,40,14690,7,34,0,34,0,1,,,,,,,,,,,,,,,,,,,,,,,,,,,,,,,,,,,,,,,
,,,,,,,,2023-08-16_08h53.12.435,HF_wild_card,2022.2.4,Linux x86_64,58.53772757,5ee0c8a669a88041d4034cea,64d2fd46c836a06233681665,64dc7f8eb1391b64cee1fcb9,,,,,,,ctch,resources/DB.BMP,resources/DBN.BMP,Door2,0.389814815,0.019444444,1,0,0,0.3153,optionRight,40,14730,7,35,0,35,0,1,,,,,,,,,,,,,,,,,,,,,,,,,,,,,,,,,,,,,,,
,,,,,,,,2023-08-16_08h53.12.435,HF_wild_card,2022.2.4,Linux x86_64,58.53772757,5ee0c8a669a88041d4034cea,64d2fd46c836a06233681665,64dc7f8eb1391b64cee1fcb9,,,,,,,,,,,,,,,,,,,,,,,,,,6,0,6,0,1,,,,,,,,,,,,,,,,,,,,,,,,,,,,,,,,,,
