Condition,Low fixed image (Door1),Low risky image (Door2),High fixed image (Door3),High risky image (Door4),Extreme Wild Card,NonExtreme Wild Card,,date,expName,psychopyVersion,OS,frameRate,PROLIFIC_PID,STUDY_ID,SESSION_ID,mouse_2.x,mouse_2.y,mouse_2.leftButton,mouse_2.midButton,mouse_2.rightButton,mouse_2.clicked_name,Trial Type,Left Option Image,Right Option Image,Chosen Door,mouse.x,mouse.y,mouse.leftButton,mouse.midButton,mouse.rightButton,mouse.time,mouse.clicked_name,Feedback,Cumulative Reward,Block,trial.thisRepN,trial.thisTrialN,trial.thisN,trial.thisIndex,trial.ran,blocks.thisRepN,blocks.thisTrialN,blocks.thisN,blocks.thisIndex,blocks.ran,Money conversion,First Outcome Reported,Shown Door (First Outcome),Displayed Image (First Outcome),outcomes.thisRepN,outcomes.thisTrialN,outcomes.thisN,outcomes.thisIndex,outcomes.ran,judgments.thisRepN,judgments.thisTrialN,judgments.thisN,judgments.thisIndex,judgments.ran,freqMouse.x,freqMouse.y,freqMouse.leftButton,freqMouse.midButton,freqMouse.rightButton,freqMouse.clicked_name,trials.thisRepN,trials.thisTrialN,trials.thisN,trials.thisIndex,trials.ran,FQJ for first outcome,FQJ for second outcome,Shown Door,Displayed Image,judgBlock.thisRepN,judgBlock.thisTrialN,judgBlock.thisN,judgBlock.thisIndex,judgBlock.ran
0,resources/DY.BMP,resources/DBN.BMP,resources/DB.BMP,resources/DR.BMP,resources/DG.BMP,resources/DP.BMP,,2023-08-16_08h44.08.898,HF_wild_card,2022.2.4,Win32,60.0240096,639b6f709020ae5b16daad25,64d2fd46c836a06233681665,64dc7e3a8d9590ecb369625c,,,,,,,,,,,,,,,,,,,,,,,,,,,,,,,,,,,,,,,,,,,,,,,,,,,,,,,,,,,,,,,,
,,,,,,,,2023-08-16_08h44.08.898,HF_wild_card,2022.2.4,Win32,60.0240096,639b6f709020ae5b16daad25,64d2fd46c836a06233681665,64dc7e3a8d9590ecb369625c,-0.007499939,-0.424166626,1,0,0,agree,,,,,,,,,,,,,,,,,,,,,,,,,,,,,,,,,,,,,,,,,,,,,,,,,,,,,,,,,,
,,,,,,,,2023-08-16_08h44.08.898,HF_wild_card,2022.2.4,Win32,60.0240096,639b6f709020ae5b16daad25,64d2fd46c836a06233681665,64dc7e3a8d9590ecb369625c,,,,,,,,,,,,,,,,,,,,,,,,,,,,,,,,,,,,,,,,,,,,,,,,,,,,,,,,,,,,,,,,
,,,,,,,,2023-08-16_08h44.08.898,HF_wild_card,2022.2.4,Win32,60.0240096,639b6f709020ae5b16daad25,64d2fd46c836a06233681665,64dc7e3a8d9590ecb369625c,,,,,,,decisionTrl,resources/DB.BMP,resources/DR.BMP,Door3,-0.472499969,-0.011666656,1,0,0,2.4897,optionLeft,70,70,1,0,0,0,0,1,,,,,,,,,,,,,,,,,,,,,,,,,,,,,,,,,,,,,,,
,,,,,,,,2023-08-16_08h44.08.898,HF_wild_card,2022.2.4,Win32,60.0240096,639b6f709020ae5b16daad25,64d2fd46c836a06233681665,64dc7e3a8d9590ecb369625c,,,,,,,decisionTrl,resources/DBN.BMP,resources/DY.BMP,Door1,0.483333374,-0.013333313,1,0,0,3.4141,optionRight,30,100,1,1,0,1,0,1,,,,,,,,,,,,,,,,,,,,,,,,,,,,,,,,,,,,,,,
,,,,,,,,2023-08-16_08h44.08.898,HF_wild_card,2022.2.4,Win32,60.0240096,639b6f709020ae5b16daad25,64d2fd46c836a06233681665,64dc7e3a8d9590ecb369625c,,,,,,,decisionTrl,resources/DY.BMP,resources/DBN.BMP,Door2,0.365833252,0.014166687,1,0,0,2.2628,optionRight,40,140,1,2,0,2,0,1,,,,,,,,,,,,,,,,,,,,,,,,,,,,,,,,,,,,,,,
,,,,,,,,2023-08-16_08h44.08.898,HF_wild_card,2022.2.4,Win32,60.0240096,639b6f709020ae5b16daad25,64d2fd46c836a06233681665,64dc7e3a8d9590ecb369625c,,,,,,,decisionTrl,resources/DY.BMP,resources/DBN.BMP,Door2,0.415833252,-0.0375,1,0,0,1.1987,optionRight,20,160,1,3,0,3,0,1,,,,,,,,,,,,,,,,,,,,,,,,,,,,,,,,,,,,,,,
,,,,,,,,2023-08-16_08h44.08.898,HF_wild_card,2022.2.4,Win32,60.0240096,639b6f709020ae5b16daad25,64d2fd46c836a06233681665,64dc7e3a8d9590ecb369625c,,,,,,,sngl,resources/Empty.png,resources/DG.BMP,WildCard_Ex,0.411666626,0.0275,1,0,0,1.6643,optionRight,5,165,1,4,0,4,0,1,,,,,,,,,,,,,,,,,,,,,,,,,,,,,,,,,,,,,,,
,,,,,,,,2023-08-16_08h44.08.898,HF_wild_card,2022.2.4,Win32,60.0240096,639b6f709020ae5b16daad25,64d2fd46c836a06233681665,64dc7e3a8d9590ecb369625c,,,,,,,decisionTrl,resources/DBN.BMP,resources/DY.BMP,Door2,-0.392499969,-0.0375,1,0,0,1.4467,optionLeft,20,185,1,5,0,5,0,1,,,,,,,,,,,,,,,,,,,,,,,,,,,,,,,,,,,,,,,
,,,,,,,,2023-08-16_08h44.08.898,HF_wild_card,2022.2.4,Win32,60.0240096,639b6f709020ae5b16daad25,64d2fd46c836a06233681665,64dc7e3a8d9590ecb369625c,,,,,,,decisionTrl,resources/DR.BMP,resources/DB.BMP,Door3,0.333333252,-0.010833313,1,0,0,1.4299,optionRight,70,255,1,6,0,6,0,1,,,,,,,,,,,,,,,,,,,,,,,,,,,,,,,,,,,,,,,
,,,,,,,,2023-08-16_08h44.08.898,HF_wild_card,2022.2.4,Win32,60.0240096,639b6f709020ae5b16daad25,64d2fd46c836a06233681665,64dc7e3a8d9590ecb369625c,,,,,,,ctch,resources/DB.BMP,resources/DBN.BMP,Door3,-0.403333344,-0.040833313,1,0,0,1.0802,optionLeft,70,325,1,7,0,7,0,1,,,,,,,,,,,,,,,,,,,,,,,,,,,,,,,,,,,,,,,
,,,,,,,,2023-08-16_08h44.08.898,HF_wild_card,2022.2.4,Win32,60.0240096,639b6f709020ae5b16daad25,64d2fd46c836a06233681665,64dc7e3a8d9590ecb369625c,,,,,,,sngl,resources/Empty.png,resources/DB.BMP,Door3,0.4025,0.011666687,1,0,0,0.9804,optionRight,70,395,1,8,0,8,0,1,,,,,,,,,,,,,,,,,,,,,,,,,,,,,,,,,,,,,,,
,,,,,,,,2023-08-16_08h44.08.898,HF_wild_card,2022.2.4,Win32,60.0240096,639b6f709020ae5b16daad25,64d2fd46c836a06233681665,64dc7e3a8d9590ecb369625c,,,,,,,decisionTrl,resources/DG.BMP,resources/DB.BMP,Door3,0.378333252,0.003333344,1,0,0,0.9932,optionRight,70,465,1,9,0,9,0,1,,,,,,,,,,,,,,,,,,,,,,,,,,,,,,,,,,,,,,,
,,,,,,,,2023-08-16_08h44.08.898,HF_wild_card,2022.2.4,Win32,60.0240096,639b6f709020ae5b16daad25,64d2fd46c836a06233681665,64dc7e3a8d9590ecb369625c,,,,,,,decisionTrl,resources/DG.BMP,resources/DBN.BMP,WildCard_Ex,-0.415833344,-0.025,1,0,0,1.9122,optionLeft,5,470,1,10,0,10,0,1,,,,,,,,,,,,,,,,,,,,,,,,,,,,,,,,,,,,,,,
,,,,,,,,2023-08-16_08h44.08.898,HF_wild_card,2022.2.4,Win32,60.0240096,639b6f709020ae5b16daad25,64d2fd46c836a06233681665,64dc7e3a8d9590ecb369625c,,,,,,,decisionTrl,resources/DB.BMP,resources/DR.BMP,Door3,-0.373333344,-0.0325,1,0,0,1.232,optionLeft,70,540,1,11,0,11,0,1,,,,,,,,,,,,,,,,,,,,,,,,,,,,,,,,,,,,,,,
,,,,,,,,2023-08-16_08h44.08.898,HF_wild_card,2022.2.4,Win32,60.0240096,639b6f709020ae5b16daad25,64d2fd46c836a06233681665,64dc7e3a8d9590ecb369625c,,,,,,,ctch,resources/DBN.BMP,resources/DB.BMP,Door3,0.453333252,-0.025833313,1,0,0,0.8652,optionRight,70,610,1,12,0,12,0,1,,,,,,,,,,,,,,,,,,,,,,,,,,,,,,,,,,,,,,,
,,,,,,,,2023-08-16_08h44.08.898,HF_wild_card,2022.2.4,Win32,60.0240096,639b6f709020ae5b16daad25,64d2fd46c836a06233681665,64dc7e3a8d9590ecb369625c,,,,,,,decisionTrl,resources/DB.BMP,resources/DR.BMP,Door3,-0.3725,-0.043333313,1,0,0,0.9805,optionLeft,70,680,1,13,0,13,0,1,,,,,,,,,,,,,,,,,,,,,,,,,,,,,,,,,,,,,,,
,,,,,,,,2023-08-16_08h44.08.898,HF_wild_card,2022.2.4,Win32,60.0240096,639b6f709020ae5b16daad25,64d2fd46c836a06233681665,64dc7e3a8d9590ecb369625c,,,,,,,sngl,resources/DR.BMP,resources/Empty.png,Door4,-0.007499939,-0.000833313,1,0,0,0.8312,optionLeft,80,760,1,14,0,14,0,1,,,,,,,,,,,,,,,,,,,,,,,,,,,,,,,,,,,,,,,
,,,,,,,,2023-08-16_08h44.08.898,HF_wild_card,2022.2.4,Win32,60.0240096,639b6f709020ae5b16daad25,64d2fd46c836a06233681665,64dc7e3a8d9590ecb369625c,,,,,,,decisionTrl,resources/DBN.BMP,resources/DY.BMP,Door2,-0.27,-0.049166626,1,0,0,2.5312,optionLeft,20,780,1,15,0,15,0,1,,,,,,,,,,,,,,,,,,,,,,,,,,,,,,,,,,,,,,,
,,,,,,,,2023-08-16_08h44.08.898,HF_wild_card,2022.2.4,Win32,60.0240096,639b6f709020ae5b16daad25,64d2fd46c836a06233681665,64dc7e3a8d9590ecb369625c,,,,,,,decisionTrl,resources/DY.BMP,resources/DG.BMP,Door1,-0.419999969,-0.05,1,0,0,1.6819,optionLeft,30,810,1,16,0,16,0,1,,,,,,,,,,,,,,,,,,,,,,,,,,,,,,,,,,,,,,,
,,,,,,,,2023-08-16_08h44.08.898,HF_wild_card,2022.2.4,Win32,60.0240096,639b6f709020ae5b16daad25,64d2fd46c836a06233681665,64dc7e3a8d9590ecb369625c,,,,,,,decisionTrl,resources/DR.BMP,resources/DB.BMP,Door3,0.364166626,0.004166687,1,0,0,1.3797,optionRight,70,880,1,17,0,17,0,1,,,,,,,,,,,,,,,,,,,,,,,,,,,,,,,,,,,,,,,
,,,,,,,,2023-08-16_08h44.08.898,HF_wild_card,2022.2.4,Win32,60.0240096,639b6f709020ae5b16daad25,64d2fd46c836a06233681665,64dc7e3a8d9590ecb369625c,,,,,,,decisionTrl,resources/DB.BMP,resources/DR.BMP,Door4,0.285,-0.010833313,1,0,0,1.497,optionRight,80,960,1,18,0,18,0,1,,,,,,,,,,,,,,,,,,,,,,,,,,,,,,,,,,,,,,,
,,,,,,,,2023-08-16_08h44.08.898,HF_wild_card,2022.2.4,Win32,60.0240096,639b6f709020ae5b16daad25,64d2fd46c836a06233681665,64dc7e3a8d9590ecb369625c,,,,,,,sngl,resources/Empty.png,resources/DR.BMP,Door4,0.373333252,-0.036666626,1,0,0,0.8482,optionRight,60,1020,1,19,0,19,0,1,,,,,,,,,,,,,,,,,,,,,,,,,,,,,,,,,,,,,,,
,,,,,,,,2023-08-16_08h44.08.898,HF_wild_card,2022.2.4,Win32,60.0240096,639b6f709020ae5b16daad25,64d2fd46c836a06233681665,64dc7e3a8d9590ecb369625c,,,,,,,sngl,resources/DBN.BMP,resources/Empty.png,Door2,-0.36,-0.0075,1,0,0,0.9805,optionLeft,40,1060,1,20,0,20,0,1,,,,,,,,,,,,,,,,,,,,,,,,,,,,,,,,,,,,,,,
,,,,,,,,2023-08-16_08h44.08.898,HF_wild_card,2022.2.4,Win32,60.0240096,639b6f709020ae5b16daad25,64d2fd46c836a06233681665,64dc7e3a8d9590ecb369625c,,,,,,,decisionTrl,resources/DR.BMP,resources/DB.BMP,Door4,-0.404999969,0.0025,1,0,0,0.915,optionLeft,60,1120,1,21,0,21,0,1,,,,,,,,,,,,,,,,,,,,,,,,,,,,,,,,,,,,,,,
,,,,,,,,2023-08-16_08h44.08.898,HF_wild_card,2022.2.4,Win32,60.0240096,639b6f709020ae5b16daad25,64d2fd46c836a06233681665,64dc7e3a8d9590ecb369625c,,,,,,,ctch,resources/DR.BMP,resources/DY.BMP,Door4,-0.290833344,-0.030833313,1,0,0,1.6637,optionLeft,60,1180,1,22,0,22,0,1,,,,,,,,,,,,,,,,,,,,,,,,,,,,,,,,,,,,,,,
,,,,,,,,2023-08-16_08h44.08.898,HF_wild_card,2022.2.4,Win32,60.0240096,639b6f709020ae5b16daad25,64d2fd46c836a06233681665,64dc7e3a8d9590ecb369625c,,,,,,,ctch,resources/DR.BMP,resources/DY.BMP,Door4,-0.304166687,-0.016666626,1,0,0,1.0967,optionLeft,80,1260,1,23,0,23,0,1,,,,,,,,,,,,,,,,,,,,,,,,,,,,,,,,,,,,,,,
,,,,,,,,2023-08-16_08h44.08.898,HF_wild_card,2022.2.4,Win32,60.0240096,639b6f709020ae5b16daad25,64d2fd46c836a06233681665,64dc7e3a8d9590ecb369625c,,,,,,,sngl,resources/DY.BMP,resources/Empty.png,Door1,-0.3175,-0.013333313,1,0,0,1.3465,optionLeft,30,1290,1,24,0,24,0,1,,,,,,,,,,,,,,,,,,,,,,,,,,,,,,,,,,,,,,,
,,,,,,,,2023-08-16_08h44.08.898,HF_wild_card,2022.2.4,Win32,60.0240096,639b6f709020ae5b16daad25,64d2fd46c836a06233681665,64dc7e3a8d9590ecb369625c,,,,,,,sngl,resources/Empty.png,resources/DG.BMP,WildCard_Ex,0.348333252,0.008333344,1,0,0,0.9129,optionRight,95,1385,1,25,0,25,0,1,,,,,,,,,,,,,,,,,,,,,,,,,,,,,,,,,,,,,,,
,,,,,,,,2023-08-16_08h44.08.898,HF_wild_card,2022.2.4,Win32,60.0240096,639b6f709020ae5b16daad25,64d2fd46c836a06233681665,64dc7e3a8d9590ecb369625c,,,,,,,decisionTrl,resources/DY.BMP,resources/DBN.BMP,Door2,0.474166626,0.058333344,1,0,0,1.5143,optionRight,20,1405,1,26,0,26,0,1,,,,,,,,,,,,,,,,,,,,,,,,,,,,,,,,,,,,,,,
,,,,,,,,2023-08-16_08h44.08.898,HF_wild_card,2022.2.4,Win32,60.0240096,639b6f709020ae5b16daad25,64d2fd46c836a06233681665,64dc7e3a8d9590ecb369625c,,,,,,,sngl,resources/DG.BMP,resources/Empty.png,WildCard_Ex,-0.351666687,0,1,0,0,0.8796,optionLeft,95,1500,1,27,0,27,0,1,,,,,,,,,,,,,,,,,,,,,,,,,,,,,,,,,,,,,,,
,,,,,,,,2023-08-16_08h44.08.898,HF_wild_card,2022.2.4,Win32,60.0240096,639b6f709020ae5b16daad25,64d2fd46c836a06233681665,64dc7e3a8d9590ecb369625c,,,,,,,ctch,resources/DB.BMP,resources/DBN.BMP,Door3,-0.341666687,-0.029166626,1,0,0,1.5487,optionLeft,70,1570,1,28,0,28,0,1,,,,,,,,,,,,,,,,,,,,,,,,,,,,,,,,,,,,,,,
,,,,,,,,2023-08-16_08h44.08.898,HF_wild_card,2022.2.4,Win32,60.0240096,639b6f709020ae5b16daad25,64d2fd46c836a06233681665,64dc7e3a8d9590ecb369625c,,,,,,,sngl,resources/Empty.png,resources/DY.BMP,Door1,0.375833252,-0.055,1,0,0,1.0154,optionRight,30,1600,1,29,0,29,0,1,,,,,,,,,,,,,,,,,,,,,,,,,,,,,,,,,,,,,,,
,,,,,,,,2023-08-16_08h44.08.898,HF_wild_card,2022.2.4,Win32,60.0240096,639b6f709020ae5b16daad25,64d2fd46c836a06233681665,64dc7e3a8d9590ecb369625c,,,,,,,decisionTrl,resources/DG.BMP,resources/DY.BMP,WildCard_Ex,-0.308333344,-0.010833313,1,0,0,1.4146,optionLeft,95,1695,1,30,0,30,0,1,,,,,,,,,,,,,,,,,,,,,,,,,,,,,,,,,,,,,,,
,,,,,,,,2023-08-16_08h44.08.898,HF_wild_card,2022.2.4,Win32,60.0240096,639b6f709020ae5b16daad25,64d2fd46c836a06233681665,64dc7e3a8d9590ecb369625c,,,,,,,decisionTrl,resources/DBN.BMP,resources/DG.BMP,WildCard_Ex,0.375,-0.005,1,0,0,0.88,optionRight,95,1790,1,31,0,31,0,1,,,,,,,,,,,,,,,,,,,,,,,,,,,,,,,,,,,,,,,
,,,,,,,,2023-08-16_08h44.08.898,HF_wild_card,2022.2.4,Win32,60.0240096,639b6f709020ae5b16daad25,64d2fd46c836a06233681665,64dc7e3a8d9590ecb369625c,,,,,,,decisionTrl,resources/DG.BMP,resources/DR.BMP,WildCard_Ex,-0.315833344,-0.039166626,1,0,0,0.8651,optionLeft,5,1795,1,32,0,32,0,1,,,,,,,,,,,,,,,,,,,,,,,,,,,,,,,,,,,,,,,
,,,,,,,,2023-08-16_08h44.08.898,HF_wild_card,2022.2.4,Win32,60.0240096,639b6f709020ae5b16daad25,64d2fd46c836a06233681665,64dc7e3a8d9590ecb369625c,,,,,,,ctch,resources/DBN.BMP,resources/DB.BMP,Door3,0.389166626,-0.0225,1,0,0,1.1975,optionRight,70,1865,1,33,0,33,0,1,,,,,,,,,,,,,,,,,,,,,,,,,,,,,,,,,,,,,,,
,,,,,,,,2023-08-16_08h44.08.898,HF_wild_card,2022.2.4,Win32,60.0240096,639b6f709020ae5b16daad25,64d2fd46c836a06233681665,64dc7e3a8d9590ecb369625c,,,,,,,decisionTrl,resources/DR.BMP,resources/DG.BMP,WildCard_Ex,0.3775,-0.015,1,0,0,1.1973,optionRight,5,1870,1,34,0,34,0,1,,,,,,,,,,,,,,,,,,,,,,,,,,,,,,,,,,,,,,,
,,,,,,,,2023-08-16_08h44.08.898,HF_wild_card,2022.2.4,Win32,60.0240096,639b6f709020ae5b16daad25,64d2fd46c836a06233681665,64dc7e3a8d9590ecb369625c,,,,,,,decisionTrl,resources/DR.BMP,resources/DB.BMP,Door3,0.3275,0,1,0,0,1.2967,optionRight,70,1940,1,35,0,35,0,1,,,,,,,,,,,,,,,,,,,,,,,,,,,,,,,,,,,,,,,
,,,,,,,,2023-08-16_08h44.08.898,HF_wild_card,2022.2.4,Win32,60.0240096,639b6f709020ae5b16daad25,64d2fd46c836a06233681665,64dc7e3a8d9590ecb369625c,,,,,,,ctch,resources/DY.BMP,resources/DR.BMP,Door4,0.345,-0.021666626,1,0,0,1.3966,optionRight,60,2000,1,36,0,36,0,1,,,,,,,,,,,,,,,,,,,,,,,,,,,,,,,,,,,,,,,
,,,,,,,,2023-08-16_08h44.08.898,HF_wild_card,2022.2.4,Win32,60.0240096,639b6f709020ae5b16daad25,64d2fd46c836a06233681665,64dc7e3a8d9590ecb369625c,,,,,,,sngl,resources/DG.BMP,resources/Empty.png,WildCard_Ex,-0.345833344,-0.014166626,1,0,0,0.8636,optionLeft,5,2005,1,37,0,37,0,1,,,,,,,,,,,,,,,,,,,,,,,,,,,,,,,,,,,,,,,
,,,,,,,,2023-08-16_08h44.08.898,HF_wild_card,2022.2.4,Win32,60.0240096,639b6f709020ae5b16daad25,64d2fd46c836a06233681665,64dc7e3a8d9590ecb369625c,,,,,,,ctch,resources/DY.BMP,resources/DR.BMP,Door4,0.303333252,-0.008333313,1,0,0,1.0658,optionRight,60,2065,1,38,0,38,0,1,,,,,,,,,,,,,,,,,,,,,,,,,,,,,,,,,,,,,,,
,,,,,,,,2023-08-16_08h44.08.898,HF_wild_card,2022.2.4,Win32,60.0240096,639b6f709020ae5b16daad25,64d2fd46c836a06233681665,64dc7e3a8d9590ecb369625c,,,,,,,sngl,resources/Empty.png,resources/DBN.BMP,Door2,0.3275,0.031666687,1,0,0,1.0465,optionRight,20,2085,1,39,0,39,0,1,,,,,,,,,,,,,,,,,,,,,,,,,,,,,,,,,,,,,,,
,,,,,,,,2023-08-16_08h44.08.898,HF_wild_card,2022.2.4,Win32,60.0240096,639b6f709020ae5b16daad25,64d2fd46c836a06233681665,64dc7e3a8d9590ecb369625c,,,,,,,decisionTrl,resources/DY.BMP,resources/DBN.BMP,Door1,-0.33,-0.016666626,1,0,0,1.8627,optionLeft,30,2115,1,40,0,40,0,1,,,,,,,,,,,,,,,,,,,,,,,,,,,,,,,,,,,,,,,
,,,,,,,,2023-08-16_08h44.08.898,HF_wild_card,2022.2.4,Win32,60.0240096,639b6f709020ae5b16daad25,64d2fd46c836a06233681665,64dc7e3a8d9590ecb369625c,,,,,,,sngl,resources/DB.BMP,resources/Empty.png,Door3,-0.304166687,-0.025,1,0,0,0.8961,optionLeft,70,2185,1,41,0,41,0,1,,,,,,,,,,,,,,,,,,,,,,,,,,,,,,,,,,,,,,,
,,,,,,,,2023-08-16_08h44.08.898,HF_wild_card,2022.2.4,Win32,60.0240096,639b6f709020ae5b16daad25,64d2fd46c836a06233681665,64dc7e3a8d9590ecb369625c,,,,,,,decisionTrl,resources/DB.BMP,resources/DG.BMP,Door3,-0.384166656,-0.061666626,1,0,0,2.8464,optionLeft,70,2255,1,42,0,42,0,1,,,,,,,,,,,,,,,,,,,,,,,,,,,,,,,,,,,,,,,
,,,,,,,,2023-08-16_08h44.08.898,HF_wild_card,2022.2.4,Win32,60.0240096,639b6f709020ae5b16daad25,64d2fd46c836a06233681665,64dc7e3a8d9590ecb369625c,,,,,,,decisionTrl,resources/DBN.BMP,resources/DY.BMP,Door1,0.301666626,0.010833344,1,0,0,1.4804,optionRight,30,2285,1,43,0,43,0,1,,,,,,,,,,,,,,,,,,,,,,,,,,,,,,,,,,,,,,,
,,,,,,,,2023-08-16_08h44.08.898,HF_wild_card,2022.2.4,Win32,60.0240096,639b6f709020ae5b16daad25,64d2fd46c836a06233681665,64dc7e3a8d9590ecb369625c,,,,,,,,,,,,,,,,,,,,,,,,,,0,0,0,0,1,,,,,,,,,,,,,,,,,,,,,,,,,,,,,,,,,,
,,,,,,,,2023-08-16_08h44.08.898,HF_wild_card,2022.2.4,Win32,60.0240096,639b6f709020ae5b16daad25,64d2fd46c836a06233681665,64dc7e3a8d9590ecb369625c,,,,,,,decisionTrl,resources/DBN.BMP,resources/DY.BMP,Door1,0.3075,-0.078333313,1,0,0,1.4845,optionRight,30,2315,2,0,0,0,0,1,,,,,,,,,,,,,,,,,,,,,,,,,,,,,,,,,,,,,,,
,,,,,,,,2023-08-16_08h44.08.898,HF_wild_card,2022.2.4,Win32,60.0240096,639b6f709020ae5b16daad25,64d2fd46c836a06233681665,64dc7e3a8d9590ecb369625c,,,,,,,decisionTrl,resources/DG.BMP,resources/DR.BMP,Door4,0.414166626,-0.008333313,1,0,0,2.5779,optionRight,80,2395,2,1,0,1,0,1,,,,,,,,,,,,,,,,,,,,,,,,,,,,,,,,,,,,,,,
,,,,,,,,2023-08-16_08h44.08.898,HF_wild_card,2022.2.4,Win32,60.0240096,639b6f709020ae5b16daad25,64d2fd46c836a06233681665,64dc7e3a8d9590ecb369625c,,,,,,,decisionTrl,resources/DBN.BMP,resources/DY.BMP,Door1,0.355,0.006666687,1,0,0,1.5312,optionRight,30,2425,2,2,0,2,0,1,,,,,,,,,,,,,,,,,,,,,,,,,,,,,,,,,,,,,,,
,,,,,,,,2023-08-16_08h44.08.898,HF_wild_card,2022.2.4,Win32,60.0240096,639b6f709020ae5b16daad25,64d2fd46c836a06233681665,64dc7e3a8d9590ecb369625c,,,,,,,decisionTrl,resources/DR.BMP,resources/DB.BMP,Door4,-0.395833344,-0.04,1,0,0,1.4645,optionLeft,60,2485,2,3,0,3,0,1,,,,,,,,,,,,,,,,,,,,,,,,,,,,,,,,,,,,,,,
,,,,,,,,2023-08-16_08h44.08.898,HF_wild_card,2022.2.4,Win32,60.0240096,639b6f709020ae5b16daad25,64d2fd46c836a06233681665,64dc7e3a8d9590ecb369625c,,,,,,,decisionTrl,resources/DBN.BMP,resources/DG.BMP,WildCard_Ex,0.394166626,0.031666687,1,0,0,1.1472,optionRight,5,2490,2,4,0,4,0,1,,,,,,,,,,,,,,,,,,,,,,,,,,,,,,,,,,,,,,,
,,,,,,,,2023-08-16_08h44.08.898,HF_wild_card,2022.2.4,Win32,60.0240096,639b6f709020ae5b16daad25,64d2fd46c836a06233681665,64dc7e3a8d9590ecb369625c,,,,,,,decisionTrl,resources/DR.BMP,resources/DB.BMP,Door3,0.370833252,-0.025833313,1,0,0,0.9983,optionRight,70,2560,2,5,0,5,0,1,,,,,,,,,,,,,,,,,,,,,,,,,,,,,,,,,,,,,,,
,,,,,,,,2023-08-16_08h44.08.898,HF_wild_card,2022.2.4,Win32,60.0240096,639b6f709020ae5b16daad25,64d2fd46c836a06233681665,64dc7e3a8d9590ecb369625c,,,,,,,ctch,resources/DR.BMP,resources/DY.BMP,Door4,-0.009999939,0.000833344,1,0,0,0.7308,optionLeft,60,2620,2,6,0,6,0,1,,,,,,,,,,,,,,,,,,,,,,,,,,,,,,,,,,,,,,,
,,,,,,,,2023-08-16_08h44.08.898,HF_wild_card,2022.2.4,Win32,60.0240096,639b6f709020ae5b16daad25,64d2fd46c836a06233681665,64dc7e3a8d9590ecb369625c,,,,,,,decisionTrl,resources/DY.BMP,resources/DBN.BMP,Door2,0.360833252,0.010833344,1,0,0,1.3983,optionRight,20,2640,2,7,0,7,0,1,,,,,,,,,,,,,,,,,,,,,,,,,,,,,,,,,,,,,,,
,,,,,,,,2023-08-16_08h44.08.898,HF_wild_card,2022.2.4,Win32,60.0240096,639b6f709020ae5b16daad25,64d2fd46c836a06233681665,64dc7e3a8d9590ecb369625c,,,,,,,sngl,resources/Empty.png,resources/DY.BMP,Door1,0.35,0.019166687,1,0,0,1.1313,optionRight,30,2670,2,8,0,8,0,1,,,,,,,,,,,,,,,,,,,,,,,,,,,,,,,,,,,,,,,
,,,,,,,,2023-08-16_08h44.08.898,HF_wild_card,2022.2.4,Win32,60.0240096,639b6f709020ae5b16daad25,64d2fd46c836a06233681665,64dc7e3a8d9590ecb369625c,,,,,,,decisionTrl,resources/DB.BMP,resources/DG.BMP,Door3,-0.427499969,-0.0025,1,0,0,3.3478,optionLeft,70,2740,2,9,0,9,0,1,,,,,,,,,,,,,,,,,,,,,,,,,,,,,,,,,,,,,,,
,,,,,,,,2023-08-16_08h44.08.898,HF_wild_card,2022.2.4,Win32,60.0240096,639b6f709020ae5b16daad25,64d2fd46c836a06233681665,64dc7e3a8d9590ecb369625c,,,,,,,sngl,resources/DG.BMP,resources/Empty.png,WildCard_Ex,-0.300833344,0.001666687,1,0,0,1.2969,optionLeft,5,2745,2,10,0,10,0,1,,,,,,,,,,,,,,,,,,,,,,,,,,,,,,,,,,,,,,,
,,,,,,,,2023-08-16_08h44.08.898,HF_wild_card,2022.2.4,Win32,60.0240096,639b6f709020ae5b16daad25,64d2fd46c836a06233681665,64dc7e3a8d9590ecb369625c,,,,,,,decisionTrl,resources/DB.BMP,resources/DR.BMP,Door3,-0.410833344,-0.086666626,1,0,0,0.8795,optionLeft,70,2815,2,11,0,11,0,1,,,,,,,,,,,,,,,,,,,,,,,,,,,,,,,,,,,,,,,
,,,,,,,,2023-08-16_08h44.08.898,HF_wild_card,2022.2.4,Win32,60.0240096,639b6f709020ae5b16daad25,64d2fd46c836a06233681665,64dc7e3a8d9590ecb369625c,,,,,,,decisionTrl,resources/DR.BMP,resources/DG.BMP,Door4,-0.323333344,-0.025,1,0,0,1.4969,optionLeft,80,2895,2,12,0,12,0,1,,,,,,,,,,,,,,,,,,,,,,,,,,,,,,,,,,,,,,,
,,,,,,,,2023-08-16_08h44.08.898,HF_wild_card,2022.2.4,Win32,60.0240096,639b6f709020ae5b16daad25,64d2fd46c836a06233681665,64dc7e3a8d9590ecb369625c,,,,,,,sngl,resources/Empty.png,resources/DR.BMP,Door4,0.378333252,-0.0325,1,0,0,0.8314,optionRight,80,2975,2,13,0,13,0,1,,,,,,,,,,,,,,,,,,,,,,,,,,,,,,,,,,,,,,,
,,,,,,,,2023-08-16_08h44.08.898,HF_wild_card,2022.2.4,Win32,60.0240096,639b6f709020ae5b16daad25,64d2fd46c836a06233681665,64dc7e3a8d9590ecb369625c,,,,,,,decisionTrl,resources/DY.BMP,resources/DBN.BMP,Door1,-0.309166687,-0.031666626,1,0,0,1.1797,optionLeft,30,3005,2,14,0,14,0,1,,,,,,,,,,,,,,,,,,,,,,,,,,,,,,,,,,,,,,,
,,,,,,,,2023-08-16_08h44.08.898,HF_wild_card,2022.2.4,Win32,60.0240096,639b6f709020ae5b16daad25,64d2fd46c836a06233681665,64dc7e3a8d9590ecb369625c,,,,,,,sngl,resources/Empty.png,resources/DB.BMP,Door3,0.369166626,-0.020833313,1,0,0,0.8317,optionRight,70,3075,2,15,0,15,0,1,,,,,,,,,,,,,,,,,,,,,,,,,,,,,,,,,,,,,,,
,,,,,,,,2023-08-16_08h44.08.898,HF_wild_card,2022.2.4,Win32,60.0240096,639b6f709020ae5b16daad25,64d2fd46c836a06233681665,64dc7e3a8d9590ecb369625c,,,,,,,ctch,resources/DY.BMP,resources/DR.BMP,Door4,0.431666626,-0.001666656,1,0,0,1.3465,optionRight,60,3135,2,16,0,16,0,1,,,,,,,,,,,,,,,,,,,,,,,,,,,,,,,,,,,,,,,
,,,,,,,,2023-08-16_08h44.08.898,HF_wild_card,2022.2.4,Win32,60.0240096,639b6f709020ae5b16daad25,64d2fd46c836a06233681665,64dc7e3a8d9590ecb369625c,,,,,,,decisionTrl,resources/DY.BMP,resources/DBN.BMP,Door1,-0.3425,-0.0075,1,0,0,1.081,optionLeft,30,3165,2,17,0,17,0,1,,,,,,,,,,,,,,,,,,,,,,,,,,,,,,,,,,,,,,,
,,,,,,,,2023-08-16_08h44.08.898,HF_wild_card,2022.2.4,Win32,60.0240096,639b6f709020ae5b16daad25,64d2fd46c836a06233681665,64dc7e3a8d9590ecb369625c,,,,,,,sngl,resources/DY.BMP,resources/Empty.png,Door1,-0.311666687,-0.005,1,0,0,0.964,optionLeft,30,3195,2,18,0,18,0,1,,,,,,,,,,,,,,,,,,,,,,,,,,,,,,,,,,,,,,,
,,,,,,,,2023-08-16_08h44.08.898,HF_wild_card,2022.2.4,Win32,60.0240096,639b6f709020ae5b16daad25,64d2fd46c836a06233681665,64dc7e3a8d9590ecb369625c,,,,,,,decisionTrl,resources/DBN.BMP,resources/DY.BMP,Door2,-0.326666687,0.015,1,0,0,1.3145,optionLeft,40,3235,2,19,0,19,0,1,,,,,,,,,,,,,,,,,,,,,,,,,,,,,,,,,,,,,,,
,,,,,,,,2023-08-16_08h44.08.898,HF_wild_card,2022.2.4,Win32,60.0240096,639b6f709020ae5b16daad25,64d2fd46c836a06233681665,64dc7e3a8d9590ecb369625c,,,,,,,decisionTrl,resources/DB.BMP,resources/DR.BMP,Door3,-0.2725,0.004166687,1,0,0,2.1795,optionLeft,70,3305,2,20,0,20,0,1,,,,,,,,,,,,,,,,,,,,,,,,,,,,,,,,,,,,,,,
,,,,,,,,2023-08-16_08h44.08.898,HF_wild_card,2022.2.4,Win32,60.0240096,639b6f709020ae5b16daad25,64d2fd46c836a06233681665,64dc7e3a8d9590ecb369625c,,,,,,,decisionTrl,resources/DR.BMP,resources/DB.BMP,Door3,0.525000122,0.0025,1,0,0,1.3804,optionRight,70,3375,2,21,0,21,0,1,,,,,,,,,,,,,,,,,,,,,,,,,,,,,,,,,,,,,,,
,,,,,,,,2023-08-16_08h44.08.898,HF_wild_card,2022.2.4,Win32,60.0240096,639b6f709020ae5b16daad25,64d2fd46c836a06233681665,64dc7e3a8d9590ecb369625c,,,,,,,decisionTrl,resources/DB.BMP,resources/DR.BMP,Door3,-0.442499969,-0.053333313,1,0,0,1.1141,optionLeft,70,3445,2,22,0,22,0,1,,,,,,,,,,,,,,,,,,,,,,,,,,,,,,,,,,,,,,,
,,,,,,,,2023-08-16_08h44.08.898,HF_wild_card,2022.2.4,Win32,60.0240096,639b6f709020ae5b16daad25,64d2fd46c836a06233681665,64dc7e3a8d9590ecb369625c,,,,,,,ctch,resources/DBN.BMP,resources/DB.BMP,Door3,0.463333252,0.07,1,0,0,1.1482,optionRight,70,3515,2,23,0,23,0,1,,,,,,,,,,,,,,,,,,,,,,,,,,,,,,,,,,,,,,,
,,,,,,,,2023-08-16_08h44.08.898,HF_wild_card,2022.2.4,Win32,60.0240096,639b6f709020ae5b16daad25,64d2fd46c836a06233681665,64dc7e3a8d9590ecb369625c,,,,,,,ctch,resources/DB.BMP,resources/DBN.BMP,Door3,-0.316666687,0.005833344,1,0,0,0.9319,optionLeft,70,3585,2,24,0,24,0,1,,,,,,,,,,,,,,,,,,,,,,,,,,,,,,,,,,,,,,,
,,,,,,,,2023-08-16_08h44.08.898,HF_wild_card,2022.2.4,Win32,60.0240096,639b6f709020ae5b16daad25,64d2fd46c836a06233681665,64dc7e3a8d9590ecb369625c,,,,,,,decisionTrl,resources/DR.BMP,resources/DB.BMP,Door3,0.334166626,0.046666687,1,0,0,0.8638,optionRight,70,3655,2,25,0,25,0,1,,,,,,,,,,,,,,,,,,,,,,,,,,,,,,,,,,,,,,,
,,,,,,,,2023-08-16_08h44.08.898,HF_wild_card,2022.2.4,Win32,60.0240096,639b6f709020ae5b16daad25,64d2fd46c836a06233681665,64dc7e3a8d9590ecb369625c,,,,,,,decisionTrl,resources/DB.BMP,resources/DR.BMP,Door3,-0.319166687,-0.0175,1,0,0,2.4625,optionLeft,70,3725,2,26,0,26,0,1,,,,,,,,,,,,,,,,,,,,,,,,,,,,,,,,,,,,,,,
,,,,,,,,2023-08-16_08h44.08.898,HF_wild_card,2022.2.4,Win32,60.0240096,639b6f709020ae5b16daad25,64d2fd46c836a06233681665,64dc7e3a8d9590ecb369625c,,,,,,,sngl,resources/DR.BMP,resources/Empty.png,Door4,-0.379999969,-0.0025,1,0,0,0.9148,optionLeft,60,3785,2,27,0,27,0,1,,,,,,,,,,,,,,,,,,,,,,,,,,,,,,,,,,,,,,,
,,,,,,,,2023-08-16_08h44.08.898,HF_wild_card,2022.2.4,Win32,60.0240096,639b6f709020ae5b16daad25,64d2fd46c836a06233681665,64dc7e3a8d9590ecb369625c,,,,,,,decisionTrl,resources/DG.BMP,resources/DY.BMP,WildCard_Ex,-0.384999969,0.0025,1,0,0,1.9227,optionLeft,95,3880,2,28,0,28,0,1,,,,,,,,,,,,,,,,,,,,,,,,,,,,,,,,,,,,,,,
,,,,,,,,2023-08-16_08h44.08.898,HF_wild_card,2022.2.4,Win32,60.0240096,639b6f709020ae5b16daad25,64d2fd46c836a06233681665,64dc7e3a8d9590ecb369625c,,,,,,,ctch,resources/DR.BMP,resources/DY.BMP,Door4,-0.306666687,-0.028333313,1,0,0,1.3987,optionLeft,60,3940,2,29,0,29,0,1,,,,,,,,,,,,,,,,,,,,,,,,,,,,,,,,,,,,,,,
,,,,,,,,2023-08-16_08h44.08.898,HF_wild_card,2022.2.4,Win32,60.0240096,639b6f709020ae5b16daad25,64d2fd46c836a06233681665,64dc7e3a8d9590ecb369625c,,,,,,,sngl,resources/DG.BMP,resources/Empty.png,WildCard_Ex,-0.275,-0.006666656,1,0,0,0.8642,optionLeft,95,4035,2,30,0,30,0,1,,,,,,,,,,,,,,,,,,,,,,,,,,,,,,,,,,,,,,,
,,,,,,,,2023-08-16_08h44.08.898,HF_wild_card,2022.2.4,Win32,60.0240096,639b6f709020ae5b16daad25,64d2fd46c836a06233681665,64dc7e3a8d9590ecb369625c,,,,,,,sngl,resources/Empty.png,resources/DG.BMP,WildCard_Ex,0.396666626,-0.000833313,1,0,0,1.7615,optionRight,95,4130,2,31,0,31,0,1,,,,,,,,,,,,,,,,,,,,,,,,,,,,,,,,,,,,,,,
,,,,,,,,2023-08-16_08h44.08.898,HF_wild_card,2022.2.4,Win32,60.0240096,639b6f709020ae5b16daad25,64d2fd46c836a06233681665,64dc7e3a8d9590ecb369625c,,,,,,,ctch,resources/DB.BMP,resources/DBN.BMP,Door3,-0.394166656,-0.034166626,1,0,0,1.1962,optionLeft,70,4200,2,32,0,32,0,1,,,,,,,,,,,,,,,,,,,,,,,,,,,,,,,,,,,,,,,
,,,,,,,,2023-08-16_08h44.08.898,HF_wild_card,2022.2.4,Win32,60.0240096,639b6f709020ae5b16daad25,64d2fd46c836a06233681665,64dc7e3a8d9590ecb369625c,,,,,,,decisionTrl,resources/DY.BMP,resources/DG.BMP,WildCard_Ex,0.338333252,-0.0075,1,0,0,1.2484,optionRight,5,4205,2,33,0,33,0,1,,,,,,,,,,,,,,,,,,,,,,,,,,,,,,,,,,,,,,,
,,,,,,,,2023-08-16_08h44.08.898,HF_wild_card,2022.2.4,Win32,60.0240096,639b6f709020ae5b16daad25,64d2fd46c836a06233681665,64dc7e3a8d9590ecb369625c,,,,,,,decisionTrl,resources/DY.BMP,resources/DBN.BMP,Door2,0.26,0.024166687,1,0,0,1.4321,optionRight,20,4225,2,34,0,34,0,1,,,,,,,,,,,,,,,,,,,,,,,,,,,,,,,,,,,,,,,
,,,,,,,,2023-08-16_08h44.08.898,HF_wild_card,2022.2.4,Win32,60.0240096,639b6f709020ae5b16daad25,64d2fd46c836a06233681665,64dc7e3a8d9590ecb369625c,,,,,,,sngl,resources/Empty.png,resources/DBN.BMP,Door2,0.413333252,0.0175,1,0,0,1.0651,optionRight,40,4265,2,35,0,35,0,1,,,,,,,,,,,,,,,,,,,,,,,,,,,,,,,,,,,,,,,
,,,,,,,,2023-08-16_08h44.08.898,HF_wild_card,2022.2.4,Win32,60.0240096,639b6f709020ae5b16daad25,64d2fd46c836a06233681665,64dc7e3a8d9590ecb369625c,,,,,,,sngl,resources/Empty.png,resources/DG.BMP,WildCard_Ex,0.393333252,-0.025833313,1,0,0,0.9141,optionRight,5,4270,2,36,0,36,0,1,,,,,,,,,,,,,,,,,,,,,,,,,,,,,,,,,,,,,,,
,,,,,,,,2023-08-16_08h44.08.898,HF_wild_card,2022.2.4,Win32,60.0240096,639b6f709020ae5b16daad25,64d2fd46c836a06233681665,64dc7e3a8d9590ecb369625c,,,,,,,decisionTrl,resources/DG.BMP,resources/DBN.BMP,WildCard_Ex,-0.3525,-0.010833313,1,0,0,0.997,optionLeft,5,4275,2,37,0,37,0,1,,,,,,,,,,,,,,,,,,,,,,,,,,,,,,,,,,,,,,,
,,,,,,,,2023-08-16_08h44.08.898,HF_wild_card,2022.2.4,Win32,60.0240096,639b6f709020ae5b16daad25,64d2fd46c836a06233681665,64dc7e3a8d9590ecb369625c,,,,,,,decisionTrl,resources/DG.BMP,resources/DB.BMP,Door3,0.284166626,-0.025,1,0,0,1.7306,optionRight,70,4345,2,38,0,38,0,1,,,,,,,,,,,,,,,,,,,,,,,,,,,,,,,,,,,,,,,
,,,,,,,,2023-08-16_08h44.08.898,HF_wild_card,2022.2.4,Win32,60.0240096,639b6f709020ae5b16daad25,64d2fd46c836a06233681665,64dc7e3a8d9590ecb369625c,,,,,,,ctch,resources/DY.BMP,resources/DR.BMP,Door4,0.43,-0.0375,1,0,0,1.7796,optionRight,60,4405,2,39,0,39,0,1,,,,,,,,,,,,,,,,,,,,,,,,,,,,,,,,,,,,,,,
,,,,,,,,2023-08-16_08h44.08.898,HF_wild_card,2022.2.4,Win32,60.0240096,639b6f709020ae5b16daad25,64d2fd46c836a06233681665,64dc7e3a8d9590ecb369625c,,,,,,,decisionTrl,resources/DBN.BMP,resources/DY.BMP,Door1,0.434166626,0.011666687,1,0,0,1.7136,optionRight,30,4435,2,40,0,40,0,1,,,,,,,,,,,,,,,,,,,,,,,,,,,,,,,,,,,,,,,
,,,,,,,,2023-08-16_08h44.08.898,HF_wild_card,2022.2.4,Win32,60.0240096,639b6f709020ae5b16daad25,64d2fd46c836a06233681665,64dc7e3a8d9590ecb369625c,,,,,,,sngl,resources/DBN.BMP,resources/Empty.png,Door2,-0.325833344,-0.025,1,0,0,1.0646,optionLeft,20,4455,2,41,0,41,0,1,,,,,,,,,,,,,,,,,,,,,,,,,,,,,,,,,,,,,,,
,,,,,,,,2023-08-16_08h44.08.898,HF_wild_card,2022.2.4,Win32,60.0240096,639b6f709020ae5b16daad25,64d2fd46c836a06233681665,64dc7e3a8d9590ecb369625c,,,,,,,ctch,resources/DBN.BMP,resources/DB.BMP,Door3,0.3075,-0.0225,1,0,0,0.9967,optionRight,70,4525,2,42,0,42,0,1,,,,,,,,,,,,,,,,,,,,,,,,,,,,,,,,,,,,,,,
,,,,,,,,2023-08-16_08h44.08.898,HF_wild_card,2022.2.4,Win32,60.0240096,639b6f709020ae5b16daad25,64d2fd46c836a06233681665,64dc7e3a8d9590ecb369625c,,,,,,,sngl,resources/DB.BMP,resources/Empty.png,Door3,-0.32,-0.045833313,1,0,0,0.8967,optionLeft,70,4595,2,43,0,43,0,1,,,,,,,,,,,,,,,,,,,,,,,,,,,,,,,,,,,,,,,
,,,,,,,,2023-08-16_08h44.08.898,HF_wild_card,2022.2.4,Win32,60.0240096,639b6f709020ae5b16daad25,64d2fd46c836a06233681665,64dc7e3a8d9590ecb369625c,,,,,,,,,,,,,,,,,,,,,,,,,,1,0,1,0,1,,,,,,,,,,,,,,,,,,,,,,,,,,,,,,,,,,
,,,,,,,,2023-08-16_08h44.08.898,HF_wild_card,2022.2.4,Win32,60.0240096,639b6f709020ae5b16daad25,64d2fd46c836a06233681665,64dc7e3a8d9590ecb369625c,,,,,,,decisionTrl,resources/DBN.BMP,resources/DY.BMP,Door1,0.315,-0.101666626,1,0,0,1.9525,optionRight,30,4625,3,0,0,0,0,1,,,,,,,,,,,,,,,,,,,,,,,,,,,,,,,,,,,,,,,
,,,,,,,,2023-08-16_08h44.08.898,HF_wild_card,2022.2.4,Win32,60.0240096,639b6f709020ae5b16daad25,64d2fd46c836a06233681665,64dc7e3a8d9590ecb369625c,,,,,,,decisionTrl,resources/DB.BMP,resources/DR.BMP,Door3,-0.29,-0.034166626,1,0,0,0.8814,optionLeft,70,4695,3,1,0,1,0,1,,,,,,,,,,,,,,,,,,,,,,,,,,,,,,,,,,,,,,,
,,,,,,,,2023-08-16_08h44.08.898,HF_wild_card,2022.2.4,Win32,60.0240096,639b6f709020ae5b16daad25,64d2fd46c836a06233681665,64dc7e3a8d9590ecb369625c,,,,,,,ctch,resources/DBN.BMP,resources/DB.BMP,Door3,0.336666626,-0.0225,1,0,0,0.7814,optionRight,70,4765,3,2,0,2,0,1,,,,,,,,,,,,,,,,,,,,,,,,,,,,,,,,,,,,,,,
,,,,,,,,2023-08-16_08h44.08.898,HF_wild_card,2022.2.4,Win32,60.0240096,639b6f709020ae5b16daad25,64d2fd46c836a06233681665,64dc7e3a8d9590ecb369625c,,,,,,,decisionTrl,resources/DBN.BMP,resources/DG.BMP,WildCard_Ex,0.3175,-0.0125,1,0,0,2.9625,optionRight,95,4860,3,3,0,3,0,1,,,,,,,,,,,,,,,,,,,,,,,,,,,,,,,,,,,,,,,
,,,,,,,,2023-08-16_08h44.08.898,HF_wild_card,2022.2.4,Win32,60.0240096,639b6f709020ae5b16daad25,64d2fd46c836a06233681665,64dc7e3a8d9590ecb369625c,,,,,,,ctch,resources/DR.BMP,resources/DY.BMP,Door4,-0.356666687,-0.03,1,0,0,1.1318,optionLeft,80,4940,3,4,0,4,0,1,,,,,,,,,,,,,,,,,,,,,,,,,,,,,,,,,,,,,,,
,,,,,,,,2023-08-16_08h44.08.898,HF_wild_card,2022.2.4,Win32,60.0240096,639b6f709020ae5b16daad25,64d2fd46c836a06233681665,64dc7e3a8d9590ecb369625c,,,,,,,sngl,resources/Empty.png,resources/DG.BMP,WildCard_Ex,0.366666626,-0.013333313,1,0,0,0.7961,optionRight,5,4945,3,5,0,5,0,1,,,,,,,,,,,,,,,,,,,,,,,,,,,,,,,,,,,,,,,
,,,,,,,,2023-08-16_08h44.08.898,HF_wild_card,2022.2.4,Win32,60.0240096,639b6f709020ae5b16daad25,64d2fd46c836a06233681665,64dc7e3a8d9590ecb369625c,,,,,,,decisionTrl,resources/DY.BMP,resources/DG.BMP,WildCard_Ex,0.343333252,-0.008333313,1,0,0,0.9305,optionRight,5,4950,3,6,0,6,0,1,,,,,,,,,,,,,,,,,,,,,,,,,,,,,,,,,,,,,,,
,,,,,,,,2023-08-16_08h44.08.898,HF_wild_card,2022.2.4,Win32,60.0240096,639b6f709020ae5b16daad25,64d2fd46c836a06233681665,64dc7e3a8d9590ecb369625c,,,,,,,sngl,resources/DBN.BMP,resources/Empty.png,Door2,-0.422499969,0.01,1,0,0,0.9635,optionLeft,40,4990,3,7,0,7,0,1,,,,,,,,,,,,,,,,,,,,,,,,,,,,,,,,,,,,,,,
,,,,,,,,2023-08-16_08h44.08.898,HF_wild_card,2022.2.4,Win32,60.0240096,639b6f709020ae5b16daad25,64d2fd46c836a06233681665,64dc7e3a8d9590ecb369625c,,,,,,,decisionTrl,resources/DY.BMP,resources/DBN.BMP,Door1,-0.325,-0.004166656,1,0,0,1.4962,optionLeft,30,5020,3,8,0,8,0,1,,,,,,,,,,,,,,,,,,,,,,,,,,,,,,,,,,,,,,,
,,,,,,,,2023-08-16_08h44.08.898,HF_wild_card,2022.2.4,Win32,60.0240096,639b6f709020ae5b16daad25,64d2fd46c836a06233681665,64dc7e3a8d9590ecb369625c,,,,,,,decisionTrl,resources/DG.BMP,resources/DY.BMP,WildCard_Ex,-0.345,-0.029166626,1,0,0,1.0483,optionLeft,95,5115,3,9,0,9,0,1,,,,,,,,,,,,,,,,,,,,,,,,,,,,,,,,,,,,,,,
,,,,,,,,2023-08-16_08h44.08.898,HF_wild_card,2022.2.4,Win32,60.0240096,639b6f709020ae5b16daad25,64d2fd46c836a06233681665,64dc7e3a8d9590ecb369625c,,,,,,,ctch,resources/DY.BMP,resources/DR.BMP,Door4,0.295833252,-0.029166626,1,0,0,1.1806,optionRight,80,5195,3,10,0,10,0,1,,,,,,,,,,,,,,,,,,,,,,,,,,,,,,,,,,,,,,,
,,,,,,,,2023-08-16_08h44.08.898,HF_wild_card,2022.2.4,Win32,60.0240096,639b6f709020ae5b16daad25,64d2fd46c836a06233681665,64dc7e3a8d9590ecb369625c,,,,,,,decisionTrl,resources/DBN.BMP,resources/DY.BMP,Door1,0.389166626,0.008333344,1,0,0,2.297,optionRight,30,5225,3,11,0,11,0,1,,,,,,,,,,,,,,,,,,,,,,,,,,,,,,,,,,,,,,,
,,,,,,,,2023-08-16_08h44.08.898,HF_wild_card,2022.2.4,Win32,60.0240096,639b6f709020ae5b16daad25,64d2fd46c836a06233681665,64dc7e3a8d9590ecb369625c,,,,,,,sngl,resources/Empty.png,resources/DR.BMP,Door4,0.398333252,-0.025,1,0,0,1.0802,optionRight,60,5285,3,12,0,12,0,1,,,,,,,,,,,,,,,,,,,,,,,,,,,,,,,,,,,,,,,
,,,,,,,,2023-08-16_08h44.08.898,HF_wild_card,2022.2.4,Win32,60.0240096,639b6f709020ae5b16daad25,64d2fd46c836a06233681665,64dc7e3a8d9590ecb369625c,,,,,,,ctch,resources/DR.BMP,resources/DY.BMP,Door4,-0.325833344,-0.015833313,1,0,0,1.3298,optionLeft,60,5345,3,13,0,13,0,1,,,,,,,,,,,,,,,,,,,,,,,,,,,,,,,,,,,,,,,
,,,,,,,,2023-08-16_08h44.08.898,HF_wild_card,2022.2.4,Win32,60.0240096,639b6f709020ae5b16daad25,64d2fd46c836a06233681665,64dc7e3a8d9590ecb369625c,,,,,,,decisionTrl,resources/DY.BMP,resources/DBN.BMP,Door2,0.444166626,-0.01,1,0,0,2.8982,optionRight,20,5365,3,14,0,14,0,1,,,,,,,,,,,,,,,,,,,,,,,,,,,,,,,,,,,,,,,
,,,,,,,,2023-08-16_08h44.08.898,HF_wild_card,2022.2.4,Win32,60.0240096,639b6f709020ae5b16daad25,64d2fd46c836a06233681665,64dc7e3a8d9590ecb369625c,,,,,,,decisionTrl,resources/DY.BMP,resources/DBN.BMP,Door2,0.3275,0.010833344,1,0,0,1.3486,optionRight,40,5405,3,15,0,15,0,1,,,,,,,,,,,,,,,,,,,,,,,,,,,,,,,,,,,,,,,
,,,,,,,,2023-08-16_08h44.08.898,HF_wild_card,2022.2.4,Win32,60.0240096,639b6f709020ae5b16daad25,64d2fd46c836a06233681665,64dc7e3a8d9590ecb369625c,,,,,,,sngl,resources/DR.BMP,resources/Empty.png,Door4,-0.424166656,-0.053333313,1,0,0,0.9635,optionLeft,80,5485,3,16,0,16,0,1,,,,,,,,,,,,,,,,,,,,,,,,,,,,,,,,,,,,,,,
,,,,,,,,2023-08-16_08h44.08.898,HF_wild_card,2022.2.4,Win32,60.0240096,639b6f709020ae5b16daad25,64d2fd46c836a06233681665,64dc7e3a8d9590ecb369625c,,,,,,,ctch,resources/DY.BMP,resources/DR.BMP,Door4,0.336666626,-0.045833313,1,0,0,1.6817,optionRight,60,5545,3,17,0,17,0,1,,,,,,,,,,,,,,,,,,,,,,,,,,,,,,,,,,,,,,,
,,,,,,,,2023-08-16_08h44.08.898,HF_wild_card,2022.2.4,Win32,60.0240096,639b6f709020ae5b16daad25,64d2fd46c836a06233681665,64dc7e3a8d9590ecb369625c,,,,,,,decisionTrl,resources/DR.BMP,resources/DB.BMP,Door3,0.410833252,-0.019166626,1,0,0,1.2146,optionRight,70,5615,3,18,0,18,0,1,,,,,,,,,,,,,,,,,,,,,,,,,,,,,,,,,,,,,,,
,,,,,,,,2023-08-16_08h44.08.898,HF_wild_card,2022.2.4,Win32,60.0240096,639b6f709020ae5b16daad25,64d2fd46c836a06233681665,64dc7e3a8d9590ecb369625c,,,,,,,decisionTrl,resources/DB.BMP,resources/DR.BMP,Door3,-0.406666656,-0.055833313,1,0,0,1.1636,optionLeft,70,5685,3,19,0,19,0,1,,,,,,,,,,,,,,,,,,,,,,,,,,,,,,,,,,,,,,,
,,,,,,,,2023-08-16_08h44.08.898,HF_wild_card,2022.2.4,Win32,60.0240096,639b6f709020ae5b16daad25,64d2fd46c836a06233681665,64dc7e3a8d9590ecb369625c,,,,,,,sngl,resources/Empty.png,resources/DBN.BMP,Door2,0.400833252,-0.0075,1,0,0,0.948,optionRight,20,5705,3,20,0,20,0,1,,,,,,,,,,,,,,,,,,,,,,,,,,,,,,,,,,,,,,,
,,,,,,,,2023-08-16_08h44.08.898,HF_wild_card,2022.2.4,Win32,60.0240096,639b6f709020ae5b16daad25,64d2fd46c836a06233681665,64dc7e3a8d9590ecb369625c,,,,,,,decisionTrl,resources/DR.BMP,resources/DB.BMP,Door3,0.364166626,0.0025,1,0,0,1.8789,optionRight,70,5775,3,21,0,21,0,1,,,,,,,,,,,,,,,,,,,,,,,,,,,,,,,,,,,,,,,
,,,,,,,,2023-08-16_08h44.08.898,HF_wild_card,2022.2.4,Win32,60.0240096,639b6f709020ae5b16daad25,64d2fd46c836a06233681665,64dc7e3a8d9590ecb369625c,,,,,,,sngl,resources/Empty.png,resources/DB.BMP,Door3,0.288333252,0.004166687,1,0,0,0.8635,optionRight,70,5845,3,22,0,22,0,1,,,,,,,,,,,,,,,,,,,,,,,,,,,,,,,,,,,,,,,
,,,,,,,,2023-08-16_08h44.08.898,HF_wild_card,2022.2.4,Win32,60.0240096,639b6f709020ae5b16daad25,64d2fd46c836a06233681665,64dc7e3a8d9590ecb369625c,,,,,,,decisionTrl,resources/DR.BMP,resources/DB.BMP,Door3,0.321666626,-0.014166626,1,0,0,0.8645,optionRight,70,5915,3,23,0,23,0,1,,,,,,,,,,,,,,,,,,,,,,,,,,,,,,,,,,,,,,,
,,,,,,,,2023-08-16_08h44.08.898,HF_wild_card,2022.2.4,Win32,60.0240096,639b6f709020ae5b16daad25,64d2fd46c836a06233681665,64dc7e3a8d9590ecb369625c,,,,,,,decisionTrl,resources/DG.BMP,resources/DBN.BMP,WildCard_Ex,-0.450833344,-0.038333313,1,0,0,1.5819,optionLeft,5,5920,3,24,0,24,0,1,,,,,,,,,,,,,,,,,,,,,,,,,,,,,,,,,,,,,,,
,,,,,,,,2023-08-16_08h44.08.898,HF_wild_card,2022.2.4,Win32,60.0240096,639b6f709020ae5b16daad25,64d2fd46c836a06233681665,64dc7e3a8d9590ecb369625c,,,,,,,sngl,resources/DG.BMP,resources/Empty.png,WildCard_Ex,-0.266666687,-0.028333313,1,0,0,0.9141,optionLeft,95,6015,3,25,0,25,0,1,,,,,,,,,,,,,,,,,,,,,,,,,,,,,,,,,,,,,,,
,,,,,,,,2023-08-16_08h44.08.898,HF_wild_card,2022.2.4,Win32,60.0240096,639b6f709020ae5b16daad25,64d2fd46c836a06233681665,64dc7e3a8d9590ecb369625c,,,,,,,decisionTrl,resources/DBN.BMP,resources/DY.BMP,Door1,0.345,0.015,1,0,0,1.9289,optionRight,30,6045,3,26,0,26,0,1,,,,,,,,,,,,,,,,,,,,,,,,,,,,,,,,,,,,,,,
,,,,,,,,2023-08-16_08h44.08.898,HF_wild_card,2022.2.4,Win32,60.0240096,639b6f709020ae5b16daad25,64d2fd46c836a06233681665,64dc7e3a8d9590ecb369625c,,,,,,,decisionTrl,resources/DB.BMP,resources/DG.BMP,WildCard_Ex,0.499166626,-0.020833313,1,0,0,1.63,optionRight,95,6140,3,27,0,27,0,1,,,,,,,,,,,,,,,,,,,,,,,,,,,,,,,,,,,,,,,
,,,,,,,,2023-08-16_08h44.08.898,HF_wild_card,2022.2.4,Win32,60.0240096,639b6f709020ae5b16daad25,64d2fd46c836a06233681665,64dc7e3a8d9590ecb369625c,,,,,,,decisionTrl,resources/DR.BMP,resources/DG.BMP,WildCard_Ex,0.355,0.003333344,1,0,0,1.0784,optionRight,5,6145,3,28,0,28,0,1,,,,,,,,,,,,,,,,,,,,,,,,,,,,,,,,,,,,,,,
,,,,,,,,2023-08-16_08h44.08.898,HF_wild_card,2022.2.4,Win32,60.0240096,639b6f709020ae5b16daad25,64d2fd46c836a06233681665,64dc7e3a8d9590ecb369625c,,,,,,,decisionTrl,resources/DBN.BMP,resources/DY.BMP,Door1,0.350833252,-0.05,1,0,0,1.3475,optionRight,30,6175,3,29,0,29,0,1,,,,,,,,,,,,,,,,,,,,,,,,,,,,,,,,,,,,,,,
,,,,,,,,2023-08-16_08h44.08.898,HF_wild_card,2022.2.4,Win32,60.0240096,639b6f709020ae5b16daad25,64d2fd46c836a06233681665,64dc7e3a8d9590ecb369625c,,,,,,,decisionTrl,resources/DG.BMP,resources/DB.BMP,WildCard_Ex,-0.361666687,-0.0075,1,0,0,1.8491,optionLeft,95,6270,3,30,0,30,0,1,,,,,,,,,,,,,,,,,,,,,,,,,,,,,,,,,,,,,,,
,,,,,,,,2023-08-16_08h44.08.898,HF_wild_card,2022.2.4,Win32,60.0240096,639b6f709020ae5b16daad25,64d2fd46c836a06233681665,64dc7e3a8d9590ecb369625c,,,,,,,decisionTrl,resources/DB.BMP,resources/DR.BMP,Door3,-0.380833344,-0.0375,1,0,0,1.1646,optionLeft,70,6340,3,31,0,31,0,1,,,,,,,,,,,,,,,,,,,,,,,,,,,,,,,,,,,,,,,
,,,,,,,,2023-08-16_08h44.08.898,HF_wild_card,2022.2.4,Win32,60.0240096,639b6f709020ae5b16daad25,64d2fd46c836a06233681665,64dc7e3a8d9590ecb369625c,,,,,,,decisionTrl,resources/DY.BMP,resources/DBN.BMP,Door1,-0.266666687,0.035,1,0,0,1.7815,optionLeft,30,6370,3,32,0,32,0,1,,,,,,,,,,,,,,,,,,,,,,,,,,,,,,,,,,,,,,,
,,,,,,,,2023-08-16_08h44.08.898,HF_wild_card,2022.2.4,Win32,60.0240096,639b6f709020ae5b16daad25,64d2fd46c836a06233681665,64dc7e3a8d9590ecb369625c,,,,,,,decisionTrl,resources/DG.BMP,resources/DR.BMP,WildCard_Ex,-0.278333374,-0.008333313,1,0,0,1.4964,optionLeft,95,6465,3,33,0,33,0,1,,,,,,,,,,,,,,,,,,,,,,,,,,,,,,,,,,,,,,,
,,,,,,,,2023-08-16_08h44.08.898,HF_wild_card,2022.2.4,Win32,60.0240096,639b6f709020ae5b16daad25,64d2fd46c836a06233681665,64dc7e3a8d9590ecb369625c,,,,,,,ctch,resources/DB.BMP,resources/DBN.BMP,Door3,-0.3025,0.005,1,0,0,1.1458,optionLeft,70,6535,3,34,0,34,0,1,,,,,,,,,,,,,,,,,,,,,,,,,,,,,,,,,,,,,,,
,,,,,,,,2023-08-16_08h44.08.898,HF_wild_card,2022.2.4,Win32,60.0240096,639b6f709020ae5b16daad25,64d2fd46c836a06233681665,64dc7e3a8d9590ecb369625c,,,,,,,sngl,resources/DB.BMP,resources/Empty.png,Door3,-0.3375,-0.018333313,1,0,0,0.8326,optionLeft,70,6605,3,35,0,35,0,1,,,,,,,,,,,,,,,,,,,,,,,,,,,,,,,,,,,,,,,
,,,,,,,,2023-08-16_08h44.08.898,HF_wild_card,2022.2.4,Win32,60.0240096,639b6f709020ae5b16daad25,64d2fd46c836a06233681665,64dc7e3a8d9590ecb369625c,,,,,,,sngl,resources/DG.BMP,resources/Empty.png,WildCard_Ex,-0.296666687,-0.013333313,1,0,0,0.9597,optionLeft,5,6610,3,36,0,36,0,1,,,,,,,,,,,,,,,,,,,,,,,,,,,,,,,,,,,,,,,
,,,,,,,,2023-08-16_08h44.08.898,HF_wild_card,2022.2.4,Win32,60.0240096,639b6f709020ae5b16daad25,64d2fd46c836a06233681665,64dc7e3a8d9590ecb369625c,,,,,,,ctch,resources/DB.BMP,resources/DBN.BMP,Door3,-0.3325,0.000833344,1,0,0,1.0482,optionLeft,70,6680,3,37,0,37,0,1,,,,,,,,,,,,,,,,,,,,,,,,,,,,,,,,,,,,,,,
,,,,,,,,2023-08-16_08h44.08.898,HF_wild_card,2022.2.4,Win32,60.0240096,639b6f709020ae5b16daad25,64d2fd46c836a06233681665,64dc7e3a8d9590ecb369625c,,,,,,,decisionTrl,resources/DB.BMP,resources/DR.BMP,Door3,-0.3275,-0.015,1,0,0,0.9491,optionLeft,70,6750,3,38,0,38,0,1,,,,,,,,,,,,,,,,,,,,,,,,,,,,,,,,,,,,,,,
,,,,,,,,2023-08-16_08h44.08.898,HF_wild_card,2022.2.4,Win32,60.0240096,639b6f709020ae5b16daad25,64d2fd46c836a06233681665,64dc7e3a8d9590ecb369625c,,,,,,,decisionTrl,resources/DR.BMP,resources/DB.BMP,Door3,0.321666626,0.001666687,1,0,0,1.0146,optionRight,70,6820,3,39,0,39,0,1,,,,,,,,,,,,,,,,,,,,,,,,,,,,,,,,,,,,,,,
,,,,,,,,2023-08-16_08h44.08.898,HF_wild_card,2022.2.4,Win32,60.0240096,639b6f709020ae5b16daad25,64d2fd46c836a06233681665,64dc7e3a8d9590ecb369625c,,,,,,,sngl,resources/Empty.png,resources/DY.BMP,Door1,0.475,-0.064166626,1,0,0,1.0155,optionRight,30,6850,3,40,0,40,0,1,,,,,,,,,,,,,,,,,,,,,,,,,,,,,,,,,,,,,,,
,,,,,,,,2023-08-16_08h44.08.898,HF_wild_card,2022.2.4,Win32,60.0240096,639b6f709020ae5b16daad25,64d2fd46c836a06233681665,64dc7e3a8d9590ecb369625c,,,,,,,sngl,resources/DY.BMP,resources/Empty.png,Door1,-0.279166687,-0.005833313,1,0,0,0.8153,optionLeft,30,6880,3,41,0,41,0,1,,,,,,,,,,,,,,,,,,,,,,,,,,,,,,,,,,,,,,,
,,,,,,,,2023-08-16_08h44.08.898,HF_wild_card,2022.2.4,Win32,60.0240096,639b6f709020ae5b16daad25,64d2fd46c836a06233681665,64dc7e3a8d9590ecb369625c,,,,,,,ctch,resources/DBN.BMP,resources/DB.BMP,Door3,0.4525,-0.024166626,1,0,0,0.9972,optionRight,70,6950,3,42,0,42,0,1,,,,,,,,,,,,,,,,,,,,,,,,,,,,,,,,,,,,,,,
,,,,,,,,2023-08-16_08h44.08.898,HF_wild_card,2022.2.4,Win32,60.0240096,639b6f709020ae5b16daad25,64d2fd46c836a06233681665,64dc7e3a8d9590ecb369625c,,,,,,,sngl,resources/Empty.png,resources/DG.BMP,WildCard_Ex,0.3525,0.010833344,1,0,0,1.1109,optionRight,95,7045,3,43,0,43,0,1,,,,,,,,,,,,,,,,,,,,,,,,,,,,,,,,,,,,,,,
,,,,,,,,2023-08-16_08h44.08.898,HF_wild_card,2022.2.4,Win32,60.0240096,639b6f709020ae5b16daad25,64d2fd46c836a06233681665,64dc7e3a8d9590ecb369625c,,,,,,,,,,,,,,,,,,,,,,,,,,2,0,2,0,1,,,,,,,,,,,,,,,,,,,,,,,,,,,,,,,,,,
,,,,,,,,2023-08-16_08h44.08.898,HF_wild_card,2022.2.4,Win32,60.0240096,639b6f709020ae5b16daad25,64d2fd46c836a06233681665,64dc7e3a8d9590ecb369625c,,,,,,,sngl,resources/Empty.png,resources/DR.BMP,Door4,0.355,-0.055833313,1,0,0,0.9374,optionRight,80,7125,4,0,0,0,0,1,,,,,,,,,,,,,,,,,,,,,,,,,,,,,,,,,,,,,,,
,,,,,,,,2023-08-16_08h44.08.898,HF_wild_card,2022.2.4,Win32,60.0240096,639b6f709020ae5b16daad25,64d2fd46c836a06233681665,64dc7e3a8d9590ecb369625c,,,,,,,ctch,resources/DBN.BMP,resources/DB.BMP,Door3,0.365,-0.003333313,1,0,0,0.8977,optionRight,70,7195,4,1,0,1,0,1,,,,,,,,,,,,,,,,,,,,,,,,,,,,,,,,,,,,,,,
,,,,,,,,2023-08-16_08h44.08.898,HF_wild_card,2022.2.4,Win32,60.0240096,639b6f709020ae5b16daad25,64d2fd46c836a06233681665,64dc7e3a8d9590ecb369625c,,,,,,,sngl,resources/DY.BMP,resources/Empty.png,Door1,-0.280833374,-0.049166626,1,0,0,0.9972,optionLeft,30,7225,4,2,0,2,0,1,,,,,,,,,,,,,,,,,,,,,,,,,,,,,,,,,,,,,,,
,,,,,,,,2023-08-16_08h44.08.898,HF_wild_card,2022.2.4,Win32,60.0240096,639b6f709020ae5b16daad25,64d2fd46c836a06233681665,64dc7e3a8d9590ecb369625c,,,,,,,decisionTrl,resources/DB.BMP,resources/DR.BMP,Door3,-0.256666687,-0.063333313,1,0,0,1.6652,optionLeft,70,7295,4,3,0,3,0,1,,,,,,,,,,,,,,,,,,,,,,,,,,,,,,,,,,,,,,,
,,,,,,,,2023-08-16_08h44.08.898,HF_wild_card,2022.2.4,Win32,60.0240096,639b6f709020ae5b16daad25,64d2fd46c836a06233681665,64dc7e3a8d9590ecb369625c,,,,,,,ctch,resources/DY.BMP,resources/DR.BMP,Door4,0.284166626,-0.018333313,1,0,0,1.711,optionRight,80,7375,4,4,0,4,0,1,,,,,,,,,,,,,,,,,,,,,,,,,,,,,,,,,,,,,,,
,,,,,,,,2023-08-16_08h44.08.898,HF_wild_card,2022.2.4,Win32,60.0240096,639b6f709020ae5b16daad25,64d2fd46c836a06233681665,64dc7e3a8d9590ecb369625c,,,,,,,ctch,resources/DY.BMP,resources/DR.BMP,Door4,0.329166626,-0.023333313,1,0,0,1.0968,optionRight,80,7455,4,5,0,5,0,1,,,,,,,,,,,,,,,,,,,,,,,,,,,,,,,,,,,,,,,
,,,,,,,,2023-08-16_08h44.08.898,HF_wild_card,2022.2.4,Win32,60.0240096,639b6f709020ae5b16daad25,64d2fd46c836a06233681665,64dc7e3a8d9590ecb369625c,,,,,,,sngl,resources/DP.BMP,resources/Empty.png,WildCard_NonEx,-0.403333344,-0.045833313,1,0,0,1.6477,optionLeft,55,7510,4,6,0,6,0,1,,,,,,,,,,,,,,,,,,,,,,,,,,,,,,,,,,,,,,,
,,,,,,,,2023-08-16_08h44.08.898,HF_wild_card,2022.2.4,Win32,60.0240096,639b6f709020ae5b16daad25,64d2fd46c836a06233681665,64dc7e3a8d9590ecb369625c,,,,,,,decisionTrl,resources/DBN.BMP,resources/DY.BMP,Door1,0.379166626,-0.020833313,1,0,0,1.3809,optionRight,30,7540,4,7,0,7,0,1,,,,,,,,,,,,,,,,,,,,,,,,,,,,,,,,,,,,,,,
,,,,,,,,2023-08-16_08h44.08.898,HF_wild_card,2022.2.4,Win32,60.0240096,639b6f709020ae5b16daad25,64d2fd46c836a06233681665,64dc7e3a8d9590ecb369625c,,,,,,,decisionTrl,resources/DY.BMP,resources/DBN.BMP,Door1,-0.343333344,-0.034166626,1,0,0,1.3973,optionLeft,30,7570,4,8,0,8,0,1,,,,,,,,,,,,,,,,,,,,,,,,,,,,,,,,,,,,,,,
,,,,,,,,2023-08-16_08h44.08.898,HF_wild_card,2022.2.4,Win32,60.0240096,639b6f709020ae5b16daad25,64d2fd46c836a06233681665,64dc7e3a8d9590ecb369625c,,,,,,,decisionTrl,resources/DBN.BMP,resources/DP.BMP,WildCard_NonEx,0.415,-0.0175,1,0,0,1.1793,optionRight,55,7625,4,9,0,9,0,1,,,,,,,,,,,,,,,,,,,,,,,,,,,,,,,,,,,,,,,
,,,,,,,,2023-08-16_08h44.08.898,HF_wild_card,2022.2.4,Win32,60.0240096,639b6f709020ae5b16daad25,64d2fd46c836a06233681665,64dc7e3a8d9590ecb369625c,,,,,,,decisionTrl,resources/DY.BMP,resources/DP.BMP,WildCard_NonEx,0.3425,-0.02,1,0,0,1.5476,optionRight,55,7680,4,10,0,10,0,1,,,,,,,,,,,,,,,,,,,,,,,,,,,,,,,,,,,,,,,
,,,,,,,,2023-08-16_08h44.08.898,HF_wild_card,2022.2.4,Win32,60.0240096,639b6f709020ae5b16daad25,64d2fd46c836a06233681665,64dc7e3a8d9590ecb369625c,,,,,,,ctch,resources/DR.BMP,resources/DY.BMP,Door4,-0.394166656,-0.046666626,1,0,0,1.8472,optionLeft,60,7740,4,11,0,11,0,1,,,,,,,,,,,,,,,,,,,,,,,,,,,,,,,,,,,,,,,
,,,,,,,,2023-08-16_08h44.08.898,HF_wild_card,2022.2.4,Win32,60.0240096,639b6f709020ae5b16daad25,64d2fd46c836a06233681665,64dc7e3a8d9590ecb369625c,,,,,,,decisionTrl,resources/DP.BMP,resources/DB.BMP,Door3,0.311666626,-0.0125,1,0,0,1.8305,optionRight,70,7810,4,12,0,12,0,1,,,,,,,,,,,,,,,,,,,,,,,,,,,,,,,,,,,,,,,
,,,,,,,,2023-08-16_08h44.08.898,HF_wild_card,2022.2.4,Win32,60.0240096,639b6f709020ae5b16daad25,64d2fd46c836a06233681665,64dc7e3a8d9590ecb369625c,,,,,,,decisionTrl,resources/DB.BMP,resources/DP.BMP,Door3,-0.398333344,-0.045,1,0,0,1.1794,optionLeft,70,7880,4,13,0,13,0,1,,,,,,,,,,,,,,,,,,,,,,,,,,,,,,,,,,,,,,,
,,,,,,,,2023-08-16_08h44.08.898,HF_wild_card,2022.2.4,Win32,60.0240096,639b6f709020ae5b16daad25,64d2fd46c836a06233681665,64dc7e3a8d9590ecb369625c,,,,,,,decisionTrl,resources/DP.BMP,resources/DY.BMP,WildCard_NonEx,-0.288333344,-0.030833313,1,0,0,1.6664,optionLeft,45,7925,4,14,0,14,0,1,,,,,,,,,,,,,,,,,,,,,,,,,,,,,,,,,,,,,,,
,,,,,,,,2023-08-16_08h44.08.898,HF_wild_card,2022.2.4,Win32,60.0240096,639b6f709020ae5b16daad25,64d2fd46c836a06233681665,64dc7e3a8d9590ecb369625c,,,,,,,decisionTrl,resources/DB.BMP,resources/DR.BMP,Door3,-0.375833344,-0.033333313,1,0,0,1.0814,optionLeft,70,7995,4,15,0,15,0,1,,,,,,,,,,,,,,,,,,,,,,,,,,,,,,,,,,,,,,,
,,,,,,,,2023-08-16_08h44.08.898,HF_wild_card,2022.2.4,Win32,60.0240096,639b6f709020ae5b16daad25,64d2fd46c836a06233681665,64dc7e3a8d9590ecb369625c,,,,,,,sngl,resources/Empty.png,resources/DB.BMP,Door3,0.2975,-0.0225,1,0,0,0.8982,optionRight,70,8065,4,16,0,16,0,1,,,,,,,,,,,,,,,,,,,,,,,,,,,,,,,,,,,,,,,
,,,,,,,,2023-08-16_08h44.08.898,HF_wild_card,2022.2.4,Win32,60.0240096,639b6f709020ae5b16daad25,64d2fd46c836a06233681665,64dc7e3a8d9590ecb369625c,,,,,,,ctch,resources/DR.BMP,resources/DY.BMP,Door4,-0.394166656,-0.050833313,1,0,0,1.7461,optionLeft,80,8145,4,17,0,17,0,1,,,,,,,,,,,,,,,,,,,,,,,,,,,,,,,,,,,,,,,
,,,,,,,,2023-08-16_08h44.08.898,HF_wild_card,2022.2.4,Win32,60.0240096,639b6f709020ae5b16daad25,64d2fd46c836a06233681665,64dc7e3a8d9590ecb369625c,,,,,,,ctch,resources/DB.BMP,resources/DBN.BMP,Door3,-0.376666656,-0.023333313,1,0,0,0.9807,optionLeft,70,8215,4,18,0,18,0,1,,,,,,,,,,,,,,,,,,,,,,,,,,,,,,,,,,,,,,,
,,,,,,,,2023-08-16_08h44.08.898,HF_wild_card,2022.2.4,Win32,60.0240096,639b6f709020ae5b16daad25,64d2fd46c836a06233681665,64dc7e3a8d9590ecb369625c,,,,,,,sngl,resources/Empty.png,resources/DP.BMP,WildCard_NonEx,0.408333252,-0.0375,1,0,0,1.0897,optionRight,55,8270,4,19,0,19,0,1,,,,,,,,,,,,,,,,,,,,,,,,,,,,,,,,,,,,,,,
,,,,,,,,2023-08-16_08h44.08.898,HF_wild_card,2022.2.4,Win32,60.0240096,639b6f709020ae5b16daad25,64d2fd46c836a06233681665,64dc7e3a8d9590ecb369625c,,,,,,,sngl,resources/Empty.png,resources/DP.BMP,WildCard_NonEx,0.355,-0.0375,1,0,0,1.0629,optionRight,45,8315,4,20,0,20,0,1,,,,,,,,,,,,,,,,,,,,,,,,,,,,,,,,,,,,,,,
,,,,,,,,2023-08-16_08h44.08.898,HF_wild_card,2022.2.4,Win32,60.0240096,639b6f709020ae5b16daad25,64d2fd46c836a06233681665,64dc7e3a8d9590ecb369625c,,,,,,,ctch,resources/DB.BMP,resources/DBN.BMP,Door3,-0.336666687,-0.039166626,1,0,0,0.9814,optionLeft,70,8385,4,21,0,21,0,1,,,,,,,,,,,,,,,,,,,,,,,,,,,,,,,,,,,,,,,
,,,,,,,,2023-08-16_08h44.08.898,HF_wild_card,2022.2.4,Win32,60.0240096,639b6f709020ae5b16daad25,64d2fd46c836a06233681665,64dc7e3a8d9590ecb369625c,,,,,,,decisionTrl,resources/DR.BMP,resources/DB.BMP,Door3,0.340833252,0.004166687,1,0,0,0.8816,optionRight,70,8455,4,22,0,22,0,1,,,,,,,,,,,,,,,,,,,,,,,,,,,,,,,,,,,,,,,
,,,,,,,,2023-08-16_08h44.08.898,HF_wild_card,2022.2.4,Win32,60.0240096,639b6f709020ae5b16daad25,64d2fd46c836a06233681665,64dc7e3a8d9590ecb369625c,,,,,,,sngl,resources/DB.BMP,resources/Empty.png,Door3,-0.310833344,-0.023333313,1,0,0,0.8452,optionLeft,70,8525,4,23,0,23,0,1,,,,,,,,,,,,,,,,,,,,,,,,,,,,,,,,,,,,,,,
,,,,,,,,2023-08-16_08h44.08.898,HF_wild_card,2022.2.4,Win32,60.0240096,639b6f709020ae5b16daad25,64d2fd46c836a06233681665,64dc7e3a8d9590ecb369625c,,,,,,,sngl,resources/DP.BMP,resources/Empty.png,WildCard_NonEx,-0.380833344,-0.036666626,1,0,0,0.8308,optionLeft,45,8570,4,24,0,24,0,1,,,,,,,,,,,,,,,,,,,,,,,,,,,,,,,,,,,,,,,
,,,,,,,,2023-08-16_08h44.08.898,HF_wild_card,2022.2.4,Win32,60.0240096,639b6f709020ae5b16daad25,64d2fd46c836a06233681665,64dc7e3a8d9590ecb369625c,,,,,,,sngl,resources/Empty.png,resources/DY.BMP,Door1,0.340833252,0.036666687,1,0,0,0.8319,optionRight,30,8600,4,25,0,25,0,1,,,,,,,,,,,,,,,,,,,,,,,,,,,,,,,,,,,,,,,
,,,,,,,,2023-08-16_08h44.08.898,HF_wild_card,2022.2.4,Win32,60.0240096,639b6f709020ae5b16daad25,64d2fd46c836a06233681665,64dc7e3a8d9590ecb369625c,,,,,,,decisionTrl,resources/DBN.BMP,resources/DY.BMP,Door1,0.346666626,0.079999969,1,0,0,1.296,optionRight,30,8630,4,26,0,26,0,1,,,,,,,,,,,,,,,,,,,,,,,,,,,,,,,,,,,,,,,
,,,,,,,,2023-08-16_08h44.08.898,HF_wild_card,2022.2.4,Win32,60.0240096,639b6f709020ae5b16daad25,64d2fd46c836a06233681665,64dc7e3a8d9590ecb369625c,,,,,,,decisionTrl,resources/DR.BMP,resources/DB.BMP,Door3,0.391666626,-0.016666626,1,0,0,1.013,optionRight,70,8700,4,27,0,27,0,1,,,,,,,,,,,,,,,,,,,,,,,,,,,,,,,,,,,,,,,
,,,,,,,,2023-08-16_08h44.08.898,HF_wild_card,2022.2.4,Win32,60.0240096,639b6f709020ae5b16daad25,64d2fd46c836a06233681665,64dc7e3a8d9590ecb369625c,,,,,,,sngl,resources/Empty.png,resources/DBN.BMP,Door2,0.348333252,0.029166687,1,0,0,1.3303,optionRight,40,8740,4,28,0,28,0,1,,,,,,,,,,,,,,,,,,,,,,,,,,,,,,,,,,,,,,,
,,,,,,,,2023-08-16_08h44.08.898,HF_wild_card,2022.2.4,Win32,60.0240096,639b6f709020ae5b16daad25,64d2fd46c836a06233681665,64dc7e3a8d9590ecb369625c,,,,,,,decisionTrl,resources/DBN.BMP,resources/DY.BMP,Door1,0.351666626,-0.0025,1,0,0,1.2487,optionRight,30,8770,4,29,0,29,0,1,,,,,,,,,,,,,,,,,,,,,,,,,,,,,,,,,,,,,,,
,,,,,,,,2023-08-16_08h44.08.898,HF_wild_card,2022.2.4,Win32,60.0240096,639b6f709020ae5b16daad25,64d2fd46c836a06233681665,64dc7e3a8d9590ecb369625c,,,,,,,sngl,resources/DR.BMP,resources/Empty.png,Door4,-0.265833374,0.008333344,1,0,0,0.8302,optionLeft,60,8830,4,30,0,30,0,1,,,,,,,,,,,,,,,,,,,,,,,,,,,,,,,,,,,,,,,
,,,,,,,,2023-08-16_08h44.08.898,HF_wild_card,2022.2.4,Win32,60.0240096,639b6f709020ae5b16daad25,64d2fd46c836a06233681665,64dc7e3a8d9590ecb369625c,,,,,,,decisionTrl,resources/DB.BMP,resources/DR.BMP,Door3,-0.339166687,0.001666687,1,0,0,1.0953,optionLeft,70,8900,4,31,0,31,0,1,,,,,,,,,,,,,,,,,,,,,,,,,,,,,,,,,,,,,,,
,,,,,,,,2023-08-16_08h44.08.898,HF_wild_card,2022.2.4,Win32,60.0240096,639b6f709020ae5b16daad25,64d2fd46c836a06233681665,64dc7e3a8d9590ecb369625c,,,,,,,decisionTrl,resources/DR.BMP,resources/DB.BMP,Door3,0.385833252,0.018333344,1,0,0,0.8794,optionRight,70,8970,4,32,0,32,0,1,,,,,,,,,,,,,,,,,,,,,,,,,,,,,,,,,,,,,,,
,,,,,,,,2023-08-16_08h44.08.898,HF_wild_card,2022.2.4,Win32,60.0240096,639b6f709020ae5b16daad25,64d2fd46c836a06233681665,64dc7e3a8d9590ecb369625c,,,,,,,decisionTrl,resources/DY.BMP,resources/DBN.BMP,Door2,0.556666626,0.0625,1,0,0,2.061,optionRight,20,8990,4,33,0,33,0,1,,,,,,,,,,,,,,,,,,,,,,,,,,,,,,,,,,,,,,,
,,,,,,,,2023-08-16_08h44.08.898,HF_wild_card,2022.2.4,Win32,60.0240096,639b6f709020ae5b16daad25,64d2fd46c836a06233681665,64dc7e3a8d9590ecb369625c,,,,,,,decisionTrl,resources/DY.BMP,resources/DBN.BMP,Door1,-0.336666687,-0.041666626,1,0,0,1.2296,optionLeft,30,9020,4,34,0,34,0,1,,,,,,,,,,,,,,,,,,,,,,,,,,,,,,,,,,,,,,,
,,,,,,,,2023-08-16_08h44.08.898,HF_wild_card,2022.2.4,Win32,60.0240096,639b6f709020ae5b16daad25,64d2fd46c836a06233681665,64dc7e3a8d9590ecb369625c,,,,,,,decisionTrl,resources/DR.BMP,resources/DB.BMP,Door3,0.320833252,-0.0225,1,0,0,0.8621,optionRight,70,9090,4,35,0,35,0,1,,,,,,,,,,,,,,,,,,,,,,,,,,,,,,,,,,,,,,,
,,,,,,,,2023-08-16_08h44.08.898,HF_wild_card,2022.2.4,Win32,60.0240096,639b6f709020ae5b16daad25,64d2fd46c836a06233681665,64dc7e3a8d9590ecb369625c,,,,,,,sngl,resources/DBN.BMP,resources/Empty.png,Door2,-0.298333344,-0.005833313,1,0,0,1.0139,optionLeft,20,9110,4,36,0,36,0,1,,,,,,,,,,,,,,,,,,,,,,,,,,,,,,,,,,,,,,,
,,,,,,,,2023-08-16_08h44.08.898,HF_wild_card,2022.2.4,Win32,60.0240096,639b6f709020ae5b16daad25,64d2fd46c836a06233681665,64dc7e3a8d9590ecb369625c,,,,,,,decisionTrl,resources/DP.BMP,resources/DR.BMP,Door4,0.306666626,-0.0225,1,0,0,1.3138,optionRight,60,9170,4,37,0,37,0,1,,,,,,,,,,,,,,,,,,,,,,,,,,,,,,,,,,,,,,,
,,,,,,,,2023-08-16_08h44.08.898,HF_wild_card,2022.2.4,Win32,60.0240096,639b6f709020ae5b16daad25,64d2fd46c836a06233681665,64dc7e3a8d9590ecb369625c,,,,,,,decisionTrl,resources/DR.BMP,resources/DP.BMP,Door4,-0.344166687,-0.020833313,1,0,0,1.1146,optionLeft,60,9230,4,38,0,38,0,1,,,,,,,,,,,,,,,,,,,,,,,,,,,,,,,,,,,,,,,
,,,,,,,,2023-08-16_08h44.08.898,HF_wild_card,2022.2.4,Win32,60.0240096,639b6f709020ae5b16daad25,64d2fd46c836a06233681665,64dc7e3a8d9590ecb369625c,,,,,,,ctch,resources/DBN.BMP,resources/DB.BMP,Door3,0.381666626,0.006666687,1,0,0,1.1128,optionRight,70,9300,4,39,0,39,0,1,,,,,,,,,,,,,,,,,,,,,,,,,,,,,,,,,,,,,,,
,,,,,,,,2023-08-16_08h44.08.898,HF_wild_card,2022.2.4,Win32,60.0240096,639b6f709020ae5b16daad25,64d2fd46c836a06233681665,64dc7e3a8d9590ecb369625c,,,,,,,decisionTrl,resources/DB.BMP,resources/DR.BMP,Door3,-0.280833374,-0.040833313,1,0,0,2.197,optionLeft,70,9370,4,40,0,40,0,1,,,,,,,,,,,,,,,,,,,,,,,,,,,,,,,,,,,,,,,
,,,,,,,,2023-08-16_08h44.08.898,HF_wild_card,2022.2.4,Win32,60.0240096,639b6f709020ae5b16daad25,64d2fd46c836a06233681665,64dc7e3a8d9590ecb369625c,,,,,,,decisionTrl,resources/DP.BMP,resources/DBN.BMP,WildCard_NonEx,-0.316666687,-0.045,1,0,0,1.5803,optionLeft,45,9415,4,41,0,41,0,1,,,,,,,,,,,,,,,,,,,,,,,,,,,,,,,,,,,,,,,
,,,,,,,,2023-08-16_08h44.08.898,HF_wild_card,2022.2.4,Win32,60.0240096,639b6f709020ae5b16daad25,64d2fd46c836a06233681665,64dc7e3a8d9590ecb369625c,,,,,,,decisionTrl,resources/DY.BMP,resources/DBN.BMP,Door1,-0.296666687,-0.031666626,1,0,0,1.9301,optionLeft,30,9445,4,42,0,42,0,1,,,,,,,,,,,,,,,,,,,,,,,,,,,,,,,,,,,,,,,
,,,,,,,,2023-08-16_08h44.08.898,HF_wild_card,2022.2.4,Win32,60.0240096,639b6f709020ae5b16daad25,64d2fd46c836a06233681665,64dc7e3a8d9590ecb369625c,,,,,,,decisionTrl,resources/DBN.BMP,resources/DY.BMP,Door1,0.315,0.0075,1,0,0,1.1303,optionRight,30,9475,4,43,0,43,0,1,,,,,,,,,,,,,,,,,,,,,,,,,,,,,,,,,,,,,,,
,,,,,,,,2023-08-16_08h44.08.898,HF_wild_card,2022.2.4,Win32,60.0240096,639b6f709020ae5b16daad25,64d2fd46c836a06233681665,64dc7e3a8d9590ecb369625c,,,,,,,,,,,,,,,,,,,,,,,,,,3,0,3,0,1,,,,,,,,,,,,,,,,,,,,,,,,,,,,,,,,,,
,,,,,,,,2023-08-16_08h44.08.898,HF_wild_card,2022.2.4,Win32,60.0240096,639b6f709020ae5b16daad25,64d2fd46c836a06233681665,64dc7e3a8d9590ecb369625c,,,,,,,sngl,resources/Empty.png,resources/DY.BMP,Door1,0.389166626,-0.004166656,1,0,0,1.5255,optionRight,30,9505,5,0,0,0,0,1,,,,,,,,,,,,,,,,,,,,,,,,,,,,,,,,,,,,,,,
,,,,,,,,2023-08-16_08h44.08.898,HF_wild_card,2022.2.4,Win32,60.0240096,639b6f709020ae5b16daad25,64d2fd46c836a06233681665,64dc7e3a8d9590ecb369625c,,,,,,,ctch,resources/DY.BMP,resources/DR.BMP,Door4,0.303333252,-0.006666656,1,0,0,1.6464,optionRight,60,9565,5,1,0,1,0,1,,,,,,,,,,,,,,,,,,,,,,,,,,,,,,,,,,,,,,,
,,,,,,,,2023-08-16_08h44.08.898,HF_wild_card,2022.2.4,Win32,60.0240096,639b6f709020ae5b16daad25,64d2fd46c836a06233681665,64dc7e3a8d9590ecb369625c,,,,,,,sngl,resources/Empty.png,resources/DP.BMP,WildCard_NonEx,0.293333252,-0.021666626,1,0,0,1.0822,optionRight,55,9620,5,2,0,2,0,1,,,,,,,,,,,,,,,,,,,,,,,,,,,,,,,,,,,,,,,
,,,,,,,,2023-08-16_08h44.08.898,HF_wild_card,2022.2.4,Win32,60.0240096,639b6f709020ae5b16daad25,64d2fd46c836a06233681665,64dc7e3a8d9590ecb369625c,,,,,,,sngl,resources/DB.BMP,resources/Empty.png,Door3,-0.3175,-0.036666626,1,0,0,0.8602,optionLeft,70,9690,5,3,0,3,0,1,,,,,,,,,,,,,,,,,,,,,,,,,,,,,,,,,,,,,,,
,,,,,,,,2023-08-16_08h44.08.898,HF_wild_card,2022.2.4,Win32,60.0240096,639b6f709020ae5b16daad25,64d2fd46c836a06233681665,64dc7e3a8d9590ecb369625c,,,,,,,decisionTrl,resources/DB.BMP,resources/DR.BMP,Door3,-0.355,-0.026666626,1,0,0,2.0483,optionLeft,70,9760,5,4,0,4,0,1,,,,,,,,,,,,,,,,,,,,,,,,,,,,,,,,,,,,,,,
,,,,,,,,2023-08-16_08h44.08.898,HF_wild_card,2022.2.4,Win32,60.0240096,639b6f709020ae5b16daad25,64d2fd46c836a06233681665,64dc7e3a8d9590ecb369625c,,,,,,,ctch,resources/DB.BMP,resources/DBN.BMP,Door3,-0.3375,-0.020833313,1,0,0,1.248,optionLeft,70,9830,5,5,0,5,0,1,,,,,,,,,,,,,,,,,,,,,,,,,,,,,,,,,,,,,,,
,,,,,,,,2023-08-16_08h44.08.898,HF_wild_card,2022.2.4,Win32,60.0240096,639b6f709020ae5b16daad25,64d2fd46c836a06233681665,64dc7e3a8d9590ecb369625c,,,,,,,decisionTrl,resources/DBN.BMP,resources/DY.BMP,Door1,-0.004166687,0.003333344,1,0,0,1.9784,optionRight,30,9860,5,6,0,6,0,1,,,,,,,,,,,,,,,,,,,,,,,,,,,,,,,,,,,,,,,
,,,,,,,,2023-08-16_08h44.08.898,HF_wild_card,2022.2.4,Win32,60.0240096,639b6f709020ae5b16daad25,64d2fd46c836a06233681665,64dc7e3a8d9590ecb369625c,,,,,,,decisionTrl,resources/DBN.BMP,resources/DY.BMP,Door1,0.301666626,-0.051666626,1,0,0,1.9998,optionRight,30,9890,5,7,0,7,0,1,,,,,,,,,,,,,,,,,,,,,,,,,,,,,,,,,,,,,,,
,,,,,,,,2023-08-16_08h44.08.898,HF_wild_card,2022.2.4,Win32,60.0240096,639b6f709020ae5b16daad25,64d2fd46c836a06233681665,64dc7e3a8d9590ecb369625c,,,,,,,ctch,resources/DBN.BMP,resources/DB.BMP,Door3,0.424166626,-0.083333313,1,0,0,1.413,optionRight,70,9960,5,8,0,8,0,1,,,,,,,,,,,,,,,,,,,,,,,,,,,,,,,,,,,,,,,
,,,,,,,,2023-08-16_08h44.08.898,HF_wild_card,2022.2.4,Win32,60.0240096,639b6f709020ae5b16daad25,64d2fd46c836a06233681665,64dc7e3a8d9590ecb369625c,,,,,,,sngl,resources/DBN.BMP,resources/Empty.png,Door2,-0.35,0.024166687,1,0,0,1.0529,optionLeft,40,10000,5,9,0,9,0,1,,,,,,,,,,,,,,,,,,,,,,,,,,,,,,,,,,,,,,,
,,,,,,,,2023-08-16_08h44.08.898,HF_wild_card,2022.2.4,Win32,60.0240096,639b6f709020ae5b16daad25,64d2fd46c836a06233681665,64dc7e3a8d9590ecb369625c,,,,,,,decisionTrl,resources/DB.BMP,resources/DR.BMP,Door3,-0.298333344,-0.075833313,1,0,0,1.5972,optionLeft,70,10070,5,10,0,10,0,1,,,,,,,,,,,,,,,,,,,,,,,,,,,,,,,,,,,,,,,
,,,,,,,,2023-08-16_08h44.08.898,HF_wild_card,2022.2.4,Win32,60.0240096,639b6f709020ae5b16daad25,64d2fd46c836a06233681665,64dc7e3a8d9590ecb369625c,,,,,,,sngl,resources/DY.BMP,resources/Empty.png,Door1,-0.26,-0.0375,1,0,0,1.2963,optionLeft,30,10100,5,11,0,11,0,1,,,,,,,,,,,,,,,,,,,,,,,,,,,,,,,,,,,,,,,
,,,,,,,,2023-08-16_08h44.08.898,HF_wild_card,2022.2.4,Win32,60.0240096,639b6f709020ae5b16daad25,64d2fd46c836a06233681665,64dc7e3a8d9590ecb369625c,,,,,,,decisionTrl,resources/DY.BMP,resources/DBN.BMP,Door1,-0.351666687,-0.016666626,1,0,0,0.9087,optionLeft,30,10130,5,12,0,12,0,1,,,,,,,,,,,,,,,,,,,,,,,,,,,,,,,,,,,,,,,
,,,,,,,,2023-08-16_08h44.08.898,HF_wild_card,2022.2.4,Win32,60.0240096,639b6f709020ae5b16daad25,64d2fd46c836a06233681665,64dc7e3a8d9590ecb369625c,,,,,,,decisionTrl,resources/DR.BMP,resources/DB.BMP,Door3,0.399166626,0,1,0,0,1.0967,optionRight,70,10200,5,13,0,13,0,1,,,,,,,,,,,,,,,,,,,,,,,,,,,,,,,,,,,,,,,
,,,,,,,,2023-08-16_08h44.08.898,HF_wild_card,2022.2.4,Win32,60.0240096,639b6f709020ae5b16daad25,64d2fd46c836a06233681665,64dc7e3a8d9590ecb369625c,,,,,,,decisionTrl,resources/DY.BMP,resources/DBN.BMP,Door1,-0.283333374,-0.034166626,1,0,0,1.0699,optionLeft,30,10230,5,14,0,14,0,1,,,,,,,,,,,,,,,,,,,,,,,,,,,,,,,,,,,,,,,
,,,,,,,,2023-08-16_08h44.08.898,HF_wild_card,2022.2.4,Win32,60.0240096,639b6f709020ae5b16daad25,64d2fd46c836a06233681665,64dc7e3a8d9590ecb369625c,,,,,,,decisionTrl,resources/DB.BMP,resources/DP.BMP,Door3,-0.341666687,-0.045833313,1,0,0,1.1151,optionLeft,70,10300,5,15,0,15,0,1,,,,,,,,,,,,,,,,,,,,,,,,,,,,,,,,,,,,,,,
,,,,,,,,2023-08-16_08h44.08.898,HF_wild_card,2022.2.4,Win32,60.0240096,639b6f709020ae5b16daad25,64d2fd46c836a06233681665,64dc7e3a8d9590ecb369625c,,,,,,,decisionTrl,resources/DB.BMP,resources/DR.BMP,Door3,-0.374999969,-0.045833313,1,0,0,1.6803,optionLeft,70,10370,5,16,0,16,0,1,,,,,,,,,,,,,,,,,,,,,,,,,,,,,,,,,,,,,,,
,,,,,,,,2023-08-16_08h44.08.898,HF_wild_card,2022.2.4,Win32,60.0240096,639b6f709020ae5b16daad25,64d2fd46c836a06233681665,64dc7e3a8d9590ecb369625c,,,,,,,decisionTrl,resources/DP.BMP,resources/DR.BMP,Door4,0.338333252,-0.001666656,1,0,0,1.358,optionRight,60,10430,5,17,0,17,0,1,,,,,,,,,,,,,,,,,,,,,,,,,,,,,,,,,,,,,,,
,,,,,,,,2023-08-16_08h44.08.898,HF_wild_card,2022.2.4,Win32,60.0240096,639b6f709020ae5b16daad25,64d2fd46c836a06233681665,64dc7e3a8d9590ecb369625c,,,,,,,sngl,resources/DR.BMP,resources/Empty.png,Door4,-0.2875,-0.035833313,1,0,0,0.937,optionLeft,80,10510,5,18,0,18,0,1,,,,,,,,,,,,,,,,,,,,,,,,,,,,,,,,,,,,,,,
,,,,,,,,2023-08-16_08h44.08.898,HF_wild_card,2022.2.4,Win32,60.0240096,639b6f709020ae5b16daad25,64d2fd46c836a06233681665,64dc7e3a8d9590ecb369625c,,,,,,,sngl,resources/DP.BMP,resources/Empty.png,WildCard_NonEx,-0.311666687,-0.061666626,1,0,0,0.9473,optionLeft,45,10555,5,19,0,19,0,1,,,,,,,,,,,,,,,,,,,,,,,,,,,,,,,,,,,,,,,
,,,,,,,,2023-08-16_08h44.08.898,HF_wild_card,2022.2.4,Win32,60.0240096,639b6f709020ae5b16daad25,64d2fd46c836a06233681665,64dc7e3a8d9590ecb369625c,,,,,,,decisionTrl,resources/DR.BMP,resources/DB.BMP,Door3,0.296666626,-0.045833313,1,0,0,0.9645,optionRight,70,10625,5,20,0,20,0,1,,,,,,,,,,,,,,,,,,,,,,,,,,,,,,,,,,,,,,,
,,,,,,,,2023-08-16_08h44.08.898,HF_wild_card,2022.2.4,Win32,60.0240096,639b6f709020ae5b16daad25,64d2fd46c836a06233681665,64dc7e3a8d9590ecb369625c,,,,,,,ctch,resources/DB.BMP,resources/DBN.BMP,Door3,-0.397499969,-0.1025,1,0,0,1.1132,optionLeft,70,10695,5,21,0,21,0,1,,,,,,,,,,,,,,,,,,,,,,,,,,,,,,,,,,,,,,,
,,,,,,,,2023-08-16_08h44.08.898,HF_wild_card,2022.2.4,Win32,60.0240096,639b6f709020ae5b16daad25,64d2fd46c836a06233681665,64dc7e3a8d9590ecb369625c,,,,,,,decisionTrl,resources/DY.BMP,resources/DBN.BMP,Door1,-0.402499969,-0.0475,1,0,0,0.996,optionLeft,30,10725,5,22,0,22,0,1,,,,,,,,,,,,,,,,,,,,,,,,,,,,,,,,,,,,,,,
,,,,,,,,2023-08-16_08h44.08.898,HF_wild_card,2022.2.4,Win32,60.0240096,639b6f709020ae5b16daad25,64d2fd46c836a06233681665,64dc7e3a8d9590ecb369625c,,,,,,,decisionTrl,resources/DR.BMP,resources/DP.BMP,Door4,-0.32,-0.076666626,1,0,0,2.0295,optionLeft,80,10805,5,23,0,23,0,1,,,,,,,,,,,,,,,,,,,,,,,,,,,,,,,,,,,,,,,
,,,,,,,,2023-08-16_08h44.08.898,HF_wild_card,2022.2.4,Win32,60.0240096,639b6f709020ae5b16daad25,64d2fd46c836a06233681665,64dc7e3a8d9590ecb369625c,,,,,,,ctch,resources/DR.BMP,resources/DY.BMP,Door4,-0.3075,-0.0325,1,0,0,0.9661,optionLeft,80,10885,5,24,0,24,0,1,,,,,,,,,,,,,,,,,,,,,,,,,,,,,,,,,,,,,,,
,,,,,,,,2023-08-16_08h44.08.898,HF_wild_card,2022.2.4,Win32,60.0240096,639b6f709020ae5b16daad25,64d2fd46c836a06233681665,64dc7e3a8d9590ecb369625c,,,,,,,decisionTrl,resources/DY.BMP,resources/DBN.BMP,Door1,-0.239166687,-0.049166626,1,0,0,1.4976,optionLeft,30,10915,5,25,0,25,0,1,,,,,,,,,,,,,,,,,,,,,,,,,,,,,,,,,,,,,,,
,,,,,,,,2023-08-16_08h44.08.898,HF_wild_card,2022.2.4,Win32,60.0240096,639b6f709020ae5b16daad25,64d2fd46c836a06233681665,64dc7e3a8d9590ecb369625c,,,,,,,decisionTrl,resources/DP.BMP,resources/DB.BMP,Door3,0.325,-0.0425,1,0,0,1.6634,optionRight,70,10985,5,26,0,26,0,1,,,,,,,,,,,,,,,,,,,,,,,,,,,,,,,,,,,,,,,
,,,,,,,,2023-08-16_08h44.08.898,HF_wild_card,2022.2.4,Win32,60.0240096,639b6f709020ae5b16daad25,64d2fd46c836a06233681665,64dc7e3a8d9590ecb369625c,,,,,,,decisionTrl,resources/DBN.BMP,resources/DP.BMP,WildCard_NonEx,0.318333252,-0.035,1,0,0,1.7469,optionRight,45,11030,5,27,0,27,0,1,,,,,,,,,,,,,,,,,,,,,,,,,,,,,,,,,,,,,,,
,,,,,,,,2023-08-16_08h44.08.898,HF_wild_card,2022.2.4,Win32,60.0240096,639b6f709020ae5b16daad25,64d2fd46c836a06233681665,64dc7e3a8d9590ecb369625c,,,,,,,decisionTrl,resources/DB.BMP,resources/DR.BMP,Door3,-0.296666687,-0.033333313,1,0,0,1.0145,optionLeft,70,11100,5,28,0,28,0,1,,,,,,,,,,,,,,,,,,,,,,,,,,,,,,,,,,,,,,,
,,,,,,,,2023-08-16_08h44.08.898,HF_wild_card,2022.2.4,Win32,60.0240096,639b6f709020ae5b16daad25,64d2fd46c836a06233681665,64dc7e3a8d9590ecb369625c,,,,,,,sngl,resources/Empty.png,resources/DR.BMP,Door4,0.384166626,-0.025,1,0,0,1.015,optionRight,60,11160,5,29,0,29,0,1,,,,,,,,,,,,,,,,,,,,,,,,,,,,,,,,,,,,,,,
,,,,,,,,2023-08-16_08h44.08.898,HF_wild_card,2022.2.4,Win32,60.0240096,639b6f709020ae5b16daad25,64d2fd46c836a06233681665,64dc7e3a8d9590ecb369625c,,,,,,,decisionTrl,resources/DBN.BMP,resources/DY.BMP,Door1,0.3775,-0.033333313,1,0,0,1.9647,optionRight,30,11190,5,30,0,30,0,1,,,,,,,,,,,,,,,,,,,,,,,,,,,,,,,,,,,,,,,
,,,,,,,,2023-08-16_08h44.08.898,HF_wild_card,2022.2.4,Win32,60.0240096,639b6f709020ae5b16daad25,64d2fd46c836a06233681665,64dc7e3a8d9590ecb369625c,,,,,,,decisionTrl,resources/DP.BMP,resources/DBN.BMP,WildCard_NonEx,-0.340833344,-0.055,1,0,0,0.9971,optionLeft,45,11235,5,31,0,31,0,1,,,,,,,,,,,,,,,,,,,,,,,,,,,,,,,,,,,,,,,
,,,,,,,,2023-08-16_08h44.08.898,HF_wild_card,2022.2.4,Win32,60.0240096,639b6f709020ae5b16daad25,64d2fd46c836a06233681665,64dc7e3a8d9590ecb369625c,,,,,,,sngl,resources/Empty.png,resources/DB.BMP,Door3,0.2875,-0.018333313,1,0,0,0.8878,optionRight,70,11305,5,32,0,32,0,1,,,,,,,,,,,,,,,,,,,,,,,,,,,,,,,,,,,,,,,
,,,,,,,,2023-08-16_08h44.08.898,HF_wild_card,2022.2.4,Win32,60.0240096,639b6f709020ae5b16daad25,64d2fd46c836a06233681665,64dc7e3a8d9590ecb369625c,,,,,,,decisionTrl,resources/DBN.BMP,resources/DY.BMP,Door1,0.373333252,-0.013333313,1,0,0,1.2195,optionRight,30,11335,5,33,0,33,0,1,,,,,,,,,,,,,,,,,,,,,,,,,,,,,,,,,,,,,,,
,,,,,,,,2023-08-16_08h44.08.898,HF_wild_card,2022.2.4,Win32,60.0240096,639b6f709020ae5b16daad25,64d2fd46c836a06233681665,64dc7e3a8d9590ecb369625c,,,,,,,ctch,resources/DBN.BMP,resources/DB.BMP,Door3,0.301666626,0.020833344,1,0,0,0.7972,optionRight,70,11405,5,34,0,34,0,1,,,,,,,,,,,,,,,,,,,,,,,,,,,,,,,,,,,,,,,
,,,,,,,,2023-08-16_08h44.08.898,HF_wild_card,2022.2.4,Win32,60.0240096,639b6f709020ae5b16daad25,64d2fd46c836a06233681665,64dc7e3a8d9590ecb369625c,,,,,,,sngl,resources/Empty.png,resources/DP.BMP,WildCard_NonEx,0.328333252,-0.014166626,1,0,0,0.8746,optionRight,45,11450,5,35,0,35,0,1,,,,,,,,,,,,,,,,,,,,,,,,,,,,,,,,,,,,,,,
,,,,,,,,2023-08-16_08h44.08.898,HF_wild_card,2022.2.4,Win32,60.0240096,639b6f709020ae5b16daad25,64d2fd46c836a06233681665,64dc7e3a8d9590ecb369625c,,,,,,,sngl,resources/Empty.png,resources/DBN.BMP,Door2,0.295,0,1,0,0,1.0121,optionRight,20,11470,5,36,0,36,0,1,,,,,,,,,,,,,,,,,,,,,,,,,,,,,,,,,,,,,,,
,,,,,,,,2023-08-16_08h44.08.898,HF_wild_card,2022.2.4,Win32,60.0240096,639b6f709020ae5b16daad25,64d2fd46c836a06233681665,64dc7e3a8d9590ecb369625c,,,,,,,sngl,resources/DP.BMP,resources/Empty.png,WildCard_NonEx,-0.318333344,-0.035,1,0,0,0.9877,optionLeft,55,11525,5,37,0,37,0,1,,,,,,,,,,,,,,,,,,,,,,,,,,,,,,,,,,,,,,,
,,,,,,,,2023-08-16_08h44.08.898,HF_wild_card,2022.2.4,Win32,60.0240096,639b6f709020ae5b16daad25,64d2fd46c836a06233681665,64dc7e3a8d9590ecb369625c,,,,,,,decisionTrl,resources/DY.BMP,resources/DP.BMP,WildCard_NonEx,0.343333252,-0.015833313,1,0,0,2.6138,optionRight,55,11580,5,38,0,38,0,1,,,,,,,,,,,,,,,,,,,,,,,,,,,,,,,,,,,,,,,
,,,,,,,,2023-08-16_08h44.08.898,HF_wild_card,2022.2.4,Win32,60.0240096,639b6f709020ae5b16daad25,64d2fd46c836a06233681665,64dc7e3a8d9590ecb369625c,,,,,,,ctch,resources/DR.BMP,resources/DY.BMP,Door4,-0.355,-0.01,1,0,0,1.3085,optionLeft,80,11660,5,39,0,39,0,1,,,,,,,,,,,,,,,,,,,,,,,,,,,,,,,,,,,,,,,
,,,,,,,,2023-08-16_08h44.08.898,HF_wild_card,2022.2.4,Win32,60.0240096,639b6f709020ae5b16daad25,64d2fd46c836a06233681665,64dc7e3a8d9590ecb369625c,,,,,,,decisionTrl,resources/DR.BMP,resources/DB.BMP,Door3,0.4475,-0.008333313,1,0,0,1.4797,optionRight,70,11730,5,40,0,40,0,1,,,,,,,,,,,,,,,,,,,,,,,,,,,,,,,,,,,,,,,
,,,,,,,,2023-08-16_08h44.08.898,HF_wild_card,2022.2.4,Win32,60.0240096,639b6f709020ae5b16daad25,64d2fd46c836a06233681665,64dc7e3a8d9590ecb369625c,,,,,,,ctch,resources/DY.BMP,resources/DR.BMP,Door4,0.386666626,-0.05,1,0,0,1.4122,optionRight,60,11790,5,41,0,41,0,1,,,,,,,,,,,,,,,,,,,,,,,,,,,,,,,,,,,,,,,
,,,,,,,,2023-08-16_08h44.08.898,HF_wild_card,2022.2.4,Win32,60.0240096,639b6f709020ae5b16daad25,64d2fd46c836a06233681665,64dc7e3a8d9590ecb369625c,,,,,,,decisionTrl,resources/DP.BMP,resources/DY.BMP,WildCard_NonEx,-0.36,-0.050833313,1,0,0,2.0932,optionLeft,45,11835,5,42,0,42,0,1,,,,,,,,,,,,,,,,,,,,,,,,,,,,,,,,,,,,,,,
,,,,,,,,2023-08-16_08h44.08.898,HF_wild_card,2022.2.4,Win32,60.0240096,639b6f709020ae5b16daad25,64d2fd46c836a06233681665,64dc7e3a8d9590ecb369625c,,,,,,,decisionTrl,resources/DR.BMP,resources/DB.BMP,Door3,0.350833252,0,1,0,0,1.0789,optionRight,70,11905,5,43,0,43,0,1,,,,,,,,,,,,,,,,,,,,,,,,,,,,,,,,,,,,,,,
,,,,,,,,2023-08-16_08h44.08.898,HF_wild_card,2022.2.4,Win32,60.0240096,639b6f709020ae5b16daad25,64d2fd46c836a06233681665,64dc7e3a8d9590ecb369625c,,,,,,,,,,,,,,,,,,,,,,,,,,4,0,4,0,1,,,,,,,,,,,,,,,,,,,,,,,,,,,,,,,,,,
,,,,,,,,2023-08-16_08h44.08.898,HF_wild_card,2022.2.4,Win32,60.0240096,639b6f709020ae5b16daad25,64d2fd46c836a06233681665,64dc7e3a8d9590ecb369625c,,,,,,,sngl,resources/DP.BMP,resources/Empty.png,WildCard_NonEx,-0.349166687,-0.056666626,1,0,0,1.0723,optionLeft,55,11960,6,0,0,0,0,1,,,,,,,,,,,,,,,,,,,,,,,,,,,,,,,,,,,,,,,
,,,,,,,,2023-08-16_08h44.08.898,HF_wild_card,2022.2.4,Win32,60.0240096,639b6f709020ae5b16daad25,64d2fd46c836a06233681665,64dc7e3a8d9590ecb369625c,,,,,,,sngl,resources/Empty.png,resources/DP.BMP,WildCard_NonEx,0.3075,0.005833344,1,0,0,0.908,optionRight,55,12015,6,1,0,1,0,1,,,,,,,,,,,,,,,,,,,,,,,,,,,,,,,,,,,,,,,
,,,,,,,,2023-08-16_08h44.08.898,HF_wild_card,2022.2.4,Win32,60.0240096,639b6f709020ae5b16daad25,64d2fd46c836a06233681665,64dc7e3a8d9590ecb369625c,,,,,,,decisionTrl,resources/DB.BMP,resources/DR.BMP,Door3,-0.355,-0.015,1,0,0,1.2282,optionLeft,70,12085,6,2,0,2,0,1,,,,,,,,,,,,,,,,,,,,,,,,,,,,,,,,,,,,,,,
,,,,,,,,2023-08-16_08h44.08.898,HF_wild_card,2022.2.4,Win32,60.0240096,639b6f709020ae5b16daad25,64d2fd46c836a06233681665,64dc7e3a8d9590ecb369625c,,,,,,,sngl,resources/DB.BMP,resources/Empty.png,Door3,-0.35,-0.009166656,1,0,0,0.915,optionLeft,70,12155,6,3,0,3,0,1,,,,,,,,,,,,,,,,,,,,,,,,,,,,,,,,,,,,,,,
,,,,,,,,2023-08-16_08h44.08.898,HF_wild_card,2022.2.4,Win32,60.0240096,639b6f709020ae5b16daad25,64d2fd46c836a06233681665,64dc7e3a8d9590ecb369625c,,,,,,,decisionTrl,resources/DR.BMP,resources/DB.BMP,Door3,0.390833252,0.035833344,1,0,0,1.1993,optionRight,70,12225,6,4,0,4,0,1,,,,,,,,,,,,,,,,,,,,,,,,,,,,,,,,,,,,,,,
,,,,,,,,2023-08-16_08h44.08.898,HF_wild_card,2022.2.4,Win32,60.0240096,639b6f709020ae5b16daad25,64d2fd46c836a06233681665,64dc7e3a8d9590ecb369625c,,,,,,,ctch,resources/DR.BMP,resources/DY.BMP,Door4,-0.433333344,0.0025,1,0,0,1.6483,optionLeft,60,12285,6,5,0,5,0,1,,,,,,,,,,,,,,,,,,,,,,,,,,,,,,,,,,,,,,,
,,,,,,,,2023-08-16_08h44.08.898,HF_wild_card,2022.2.4,Win32,60.0240096,639b6f709020ae5b16daad25,64d2fd46c836a06233681665,64dc7e3a8d9590ecb369625c,,,,,,,decisionTrl,resources/DY.BMP,resources/DBN.BMP,Door1,-0.386666656,-0.0275,1,0,0,1.4076,optionLeft,30,12315,6,6,0,6,0,1,,,,,,,,,,,,,,,,,,,,,,,,,,,,,,,,,,,,,,,
,,,,,,,,2023-08-16_08h44.08.898,HF_wild_card,2022.2.4,Win32,60.0240096,639b6f709020ae5b16daad25,64d2fd46c836a06233681665,64dc7e3a8d9590ecb369625c,,,,,,,decisionTrl,resources/DB.BMP,resources/DR.BMP,Door3,-0.295833344,-0.014166626,1,0,0,1.2313,optionLeft,70,12385,6,7,0,7,0,1,,,,,,,,,,,,,,,,,,,,,,,,,,,,,,,,,,,,,,,
,,,,,,,,2023-08-16_08h44.08.898,HF_wild_card,2022.2.4,Win32,60.0240096,639b6f709020ae5b16daad25,64d2fd46c836a06233681665,64dc7e3a8d9590ecb369625c,,,,,,,ctch,resources/DB.BMP,resources/DBN.BMP,Door3,-0.397499969,-0.025,1,0,0,0.8907,optionLeft,70,12455,6,8,0,8,0,1,,,,,,,,,,,,,,,,,,,,,,,,,,,,,,,,,,,,,,,
,,,,,,,,2023-08-16_08h44.08.898,HF_wild_card,2022.2.4,Win32,60.0240096,639b6f709020ae5b16daad25,64d2fd46c836a06233681665,64dc7e3a8d9590ecb369625c,,,,,,,decisionTrl,resources/DY.BMP,resources/DBN.BMP,Door1,-0.404166656,-0.03,1,0,0,0.8988,optionLeft,30,12485,6,9,0,9,0,1,,,,,,,,,,,,,,,,,,,,,,,,,,,,,,,,,,,,,,,
,,,,,,,,2023-08-16_08h44.08.898,HF_wild_card,2022.2.4,Win32,60.0240096,639b6f709020ae5b16daad25,64d2fd46c836a06233681665,64dc7e3a8d9590ecb369625c,,,,,,,sngl,resources/DBN.BMP,resources/Empty.png,Door2,-0.429999969,-0.0425,1,0,0,0.9981,optionLeft,20,12505,6,10,0,10,0,1,,,,,,,,,,,,,,,,,,,,,,,,,,,,,,,,,,,,,,,
,,,,,,,,2023-08-16_08h44.08.898,HF_wild_card,2022.2.4,Win32,60.0240096,639b6f709020ae5b16daad25,64d2fd46c836a06233681665,64dc7e3a8d9590ecb369625c,,,,,,,sngl,resources/Empty.png,resources/DBN.BMP,Door2,0.303333252,0.060833344,1,0,0,0.8774,optionRight,40,12545,6,11,0,11,0,1,,,,,,,,,,,,,,,,,,,,,,,,,,,,,,,,,,,,,,,
,,,,,,,,2023-08-16_08h44.08.898,HF_wild_card,2022.2.4,Win32,60.0240096,639b6f709020ae5b16daad25,64d2fd46c836a06233681665,64dc7e3a8d9590ecb369625c,,,,,,,decisionTrl,resources/DY.BMP,resources/DP.BMP,WildCard_NonEx,0.3925,-0.004166656,1,0,0,2.1312,optionRight,55,12600,6,12,0,12,0,1,,,,,,,,,,,,,,,,,,,,,,,,,,,,,,,,,,,,,,,
,,,,,,,,2023-08-16_08h44.08.898,HF_wild_card,2022.2.4,Win32,60.0240096,639b6f709020ae5b16daad25,64d2fd46c836a06233681665,64dc7e3a8d9590ecb369625c,,,,,,,decisionTrl,resources/DP.BMP,resources/DY.BMP,WildCard_NonEx,-0.404166656,-0.05,1,0,0,1.0706,optionLeft,55,12655,6,13,0,13,0,1,,,,,,,,,,,,,,,,,,,,,,,,,,,,,,,,,,,,,,,
,,,,,,,,2023-08-16_08h44.08.898,HF_wild_card,2022.2.4,Win32,60.0240096,639b6f709020ae5b16daad25,64d2fd46c836a06233681665,64dc7e3a8d9590ecb369625c,,,,,,,decisionTrl,resources/DBN.BMP,resources/DP.BMP,WildCard_NonEx,-0.000833313,0.004166687,1,0,0,0.5302,optionRight,55,12710,6,14,0,14,0,1,,,,,,,,,,,,,,,,,,,,,,,,,,,,,,,,,,,,,,,
,,,,,,,,2023-08-16_08h44.08.898,HF_wild_card,2022.2.4,Win32,60.0240096,639b6f709020ae5b16daad25,64d2fd46c836a06233681665,64dc7e3a8d9590ecb369625c,,,,,,,decisionTrl,resources/DBN.BMP,resources/DY.BMP,Door1,0.311666626,-0.020833313,1,0,0,1.1315,optionRight,30,12740,6,15,0,15,0,1,,,,,,,,,,,,,,,,,,,,,,,,,,,,,,,,,,,,,,,
,,,,,,,,2023-08-16_08h44.08.898,HF_wild_card,2022.2.4,Win32,60.0240096,639b6f709020ae5b16daad25,64d2fd46c836a06233681665,64dc7e3a8d9590ecb369625c,,,,,,,decisionTrl,resources/DY.BMP,resources/DBN.BMP,Door1,-0.374166656,-0.049166626,1,0,0,0.8333,optionLeft,30,12770,6,16,0,16,0,1,,,,,,,,,,,,,,,,,,,,,,,,,,,,,,,,,,,,,,,
,,,,,,,,2023-08-16_08h44.08.898,HF_wild_card,2022.2.4,Win32,60.0240096,639b6f709020ae5b16daad25,64d2fd46c836a06233681665,64dc7e3a8d9590ecb369625c,,,,,,,sngl,resources/Empty.png,resources/DP.BMP,WildCard_NonEx,0.318333252,-0.019166626,1,0,0,0.914,optionRight,45,12815,6,17,0,17,0,1,,,,,,,,,,,,,,,,,,,,,,,,,,,,,,,,,,,,,,,
,,,,,,,,2023-08-16_08h44.08.898,HF_wild_card,2022.2.4,Win32,60.0240096,639b6f709020ae5b16daad25,64d2fd46c836a06233681665,64dc7e3a8d9590ecb369625c,,,,,,,sngl,resources/DP.BMP,resources/Empty.png,WildCard_NonEx,-0.313333344,-0.004166656,1,0,0,1.0128,optionLeft,45,12860,6,18,0,18,0,1,,,,,,,,,,,,,,,,,,,,,,,,,,,,,,,,,,,,,,,
,,,,,,,,2023-08-16_08h44.08.898,HF_wild_card,2022.2.4,Win32,60.0240096,639b6f709020ae5b16daad25,64d2fd46c836a06233681665,64dc7e3a8d9590ecb369625c,,,,,,,ctch,resources/DY.BMP,resources/DR.BMP,Door4,0.415833252,0.011666687,1,0,0,1.7929,optionRight,80,12940,6,19,0,19,0,1,,,,,,,,,,,,,,,,,,,,,,,,,,,,,,,,,,,,,,,
,,,,,,,,2023-08-16_08h44.08.898,HF_wild_card,2022.2.4,Win32,60.0240096,639b6f709020ae5b16daad25,64d2fd46c836a06233681665,64dc7e3a8d9590ecb369625c,,,,,,,decisionTrl,resources/DR.BMP,resources/DB.BMP,Door3,0.3125,-0.011666656,1,0,0,0.9918,optionRight,70,13010,6,20,0,20,0,1,,,,,,,,,,,,,,,,,,,,,,,,,,,,,,,,,,,,,,,
,,,,,,,,2023-08-16_08h44.08.898,HF_wild_card,2022.2.4,Win32,60.0240096,639b6f709020ae5b16daad25,64d2fd46c836a06233681665,64dc7e3a8d9590ecb369625c,,,,,,,ctch,resources/DY.BMP,resources/DR.BMP,Door4,0.138333313,-0.015,1,0,0,1.4505,optionRight,80,13090,6,21,0,21,0,1,,,,,,,,,,,,,,,,,,,,,,,,,,,,,,,,,,,,,,,
,,,,,,,,2023-08-16_08h44.08.898,HF_wild_card,2022.2.4,Win32,60.0240096,639b6f709020ae5b16daad25,64d2fd46c836a06233681665,64dc7e3a8d9590ecb369625c,,,,,,,decisionTrl,resources/DR.BMP,resources/DB.BMP,Door3,0.311666626,-0.02,1,0,0,1.1645,optionRight,70,13160,6,22,0,22,0,1,,,,,,,,,,,,,,,,,,,,,,,,,,,,,,,,,,,,,,,
,,,,,,,,2023-08-16_08h44.08.898,HF_wild_card,2022.2.4,Win32,60.0240096,639b6f709020ae5b16daad25,64d2fd46c836a06233681665,64dc7e3a8d9590ecb369625c,,,,,,,ctch,resources/DR.BMP,resources/DY.BMP,Door4,-0.330833344,-0.050833313,1,0,0,0.8921,optionLeft,60,13220,6,23,0,23,0,1,,,,,,,,,,,,,,,,,,,,,,,,,,,,,,,,,,,,,,,
,,,,,,,,2023-08-16_08h44.08.898,HF_wild_card,2022.2.4,Win32,60.0240096,639b6f709020ae5b16daad25,64d2fd46c836a06233681665,64dc7e3a8d9590ecb369625c,,,,,,,sngl,resources/Empty.png,resources/DR.BMP,Door4,0.279166626,-0.035833313,1,0,0,0.759,optionRight,80,13300,6,24,0,24,0,1,,,,,,,,,,,,,,,,,,,,,,,,,,,,,,,,,,,,,,,
,,,,,,,,2023-08-16_08h44.08.898,HF_wild_card,2022.2.4,Win32,60.0240096,639b6f709020ae5b16daad25,64d2fd46c836a06233681665,64dc7e3a8d9590ecb369625c,,,,,,,decisionTrl,resources/DP.BMP,resources/DBN.BMP,WildCard_NonEx,-0.3625,-0.0675,1,0,0,2.5303,optionLeft,55,13355,6,25,0,25,0,1,,,,,,,,,,,,,,,,,,,,,,,,,,,,,,,,,,,,,,,
,,,,,,,,2023-08-16_08h44.08.898,HF_wild_card,2022.2.4,Win32,60.0240096,639b6f709020ae5b16daad25,64d2fd46c836a06233681665,64dc7e3a8d9590ecb369625c,,,,,,,ctch,resources/DBN.BMP,resources/DB.BMP,Door3,0.366666626,-0.035,1,0,0,1.7941,optionRight,70,13425,6,26,0,26,0,1,,,,,,,,,,,,,,,,,,,,,,,,,,,,,,,,,,,,,,,
,,,,,,,,2023-08-16_08h44.08.898,HF_wild_card,2022.2.4,Win32,60.0240096,639b6f709020ae5b16daad25,64d2fd46c836a06233681665,64dc7e3a8d9590ecb369625c,,,,,,,sngl,resources/Empty.png,resources/DY.BMP,Door1,0.3275,-0.004166656,1,0,0,1.0203,optionRight,30,13455,6,27,0,27,0,1,,,,,,,,,,,,,,,,,,,,,,,,,,,,,,,,,,,,,,,
,,,,,,,,2023-08-16_08h44.08.898,HF_wild_card,2022.2.4,Win32,60.0240096,639b6f709020ae5b16daad25,64d2fd46c836a06233681665,64dc7e3a8d9590ecb369625c,,,,,,,sngl,resources/DY.BMP,resources/Empty.png,Door1,-0.305833344,-0.045,1,0,0,0.7277,optionLeft,30,13485,6,28,0,28,0,1,,,,,,,,,,,,,,,,,,,,,,,,,,,,,,,,,,,,,,,
,,,,,,,,2023-08-16_08h44.08.898,HF_wild_card,2022.2.4,Win32,60.0240096,639b6f709020ae5b16daad25,64d2fd46c836a06233681665,64dc7e3a8d9590ecb369625c,,,,,,,ctch,resources/DBN.BMP,resources/DB.BMP,Door3,0.41,-0.040833313,1,0,0,0.7638,optionRight,70,13555,6,29,0,29,0,1,,,,,,,,,,,,,,,,,,,,,,,,,,,,,,,,,,,,,,,
,,,,,,,,2023-08-16_08h44.08.898,HF_wild_card,2022.2.4,Win32,60.0240096,639b6f709020ae5b16daad25,64d2fd46c836a06233681665,64dc7e3a8d9590ecb369625c,,,,,,,decisionTrl,resources/DB.BMP,resources/DR.BMP,Door3,-0.34,-0.0275,1,0,0,0.8646,optionLeft,70,13625,6,30,0,30,0,1,,,,,,,,,,,,,,,,,,,,,,,,,,,,,,,,,,,,,,,
,,,,,,,,2023-08-16_08h44.08.898,HF_wild_card,2022.2.4,Win32,60.0240096,639b6f709020ae5b16daad25,64d2fd46c836a06233681665,64dc7e3a8d9590ecb369625c,,,,,,,decisionTrl,resources/DBN.BMP,resources/DY.BMP,Door1,0.295833252,-0.06,1,0,0,1.1975,optionRight,30,13655,6,31,0,31,0,1,,,,,,,,,,,,,,,,,,,,,,,,,,,,,,,,,,,,,,,
,,,,,,,,2023-08-16_08h44.08.898,HF_wild_card,2022.2.4,Win32,60.0240096,639b6f709020ae5b16daad25,64d2fd46c836a06233681665,64dc7e3a8d9590ecb369625c,,,,,,,decisionTrl,resources/DP.BMP,resources/DR.BMP,Door4,0.4425,-0.025,1,0,0,1.7475,optionRight,80,13735,6,32,0,32,0,1,,,,,,,,,,,,,,,,,,,,,,,,,,,,,,,,,,,,,,,
,,,,,,,,2023-08-16_08h44.08.898,HF_wild_card,2022.2.4,Win32,60.0240096,639b6f709020ae5b16daad25,64d2fd46c836a06233681665,64dc7e3a8d9590ecb369625c,,,,,,,sngl,resources/Empty.png,resources/DB.BMP,Door3,0.316666626,-0.03,1,0,0,0.908,optionRight,70,13805,6,33,0,33,0,1,,,,,,,,,,,,,,,,,,,,,,,,,,,,,,,,,,,,,,,
,,,,,,,,2023-08-16_08h44.08.898,HF_wild_card,2022.2.4,Win32,60.0240096,639b6f709020ae5b16daad25,64d2fd46c836a06233681665,64dc7e3a8d9590ecb369625c,,,,,,,decisionTrl,resources/DR.BMP,resources/DP.BMP,Door4,-0.288333344,-0.011666656,1,0,0,1.3813,optionLeft,80,13885,6,34,0,34,0,1,,,,,,,,,,,,,,,,,,,,,,,,,,,,,,,,,,,,,,,
,,,,,,,,2023-08-16_08h44.08.898,HF_wild_card,2022.2.4,Win32,60.0240096,639b6f709020ae5b16daad25,64d2fd46c836a06233681665,64dc7e3a8d9590ecb369625c,,,,,,,decisionTrl,resources/DY.BMP,resources/DBN.BMP,Door1,-0.306666687,-0.05,1,0,0,1.0468,optionLeft,30,13915,6,35,0,35,0,1,,,,,,,,,,,,,,,,,,,,,,,,,,,,,,,,,,,,,,,
,,,,,,,,2023-08-16_08h44.08.898,HF_wild_card,2022.2.4,Win32,60.0240096,639b6f709020ae5b16daad25,64d2fd46c836a06233681665,64dc7e3a8d9590ecb369625c,,,,,,,decisionTrl,resources/DR.BMP,resources/DB.BMP,Door3,0.290833252,-0.030833313,1,0,0,0.927,optionRight,70,13985,6,36,0,36,0,1,,,,,,,,,,,,,,,,,,,,,,,,,,,,,,,,,,,,,,,
,,,,,,,,2023-08-16_08h44.08.898,HF_wild_card,2022.2.4,Win32,60.0240096,639b6f709020ae5b16daad25,64d2fd46c836a06233681665,64dc7e3a8d9590ecb369625c,,,,,,,decisionTrl,resources/DP.BMP,resources/DB.BMP,Door3,0.240833252,0.001666687,1,0,0,1.3103,optionRight,70,14055,6,37,0,37,0,1,,,,,,,,,,,,,,,,,,,,,,,,,,,,,,,,,,,,,,,
,,,,,,,,2023-08-16_08h44.08.898,HF_wild_card,2022.2.4,Win32,60.0240096,639b6f709020ae5b16daad25,64d2fd46c836a06233681665,64dc7e3a8d9590ecb369625c,,,,,,,decisionTrl,resources/DBN.BMP,resources/DY.BMP,Door1,0.28,0.023333344,1,0,0,1.2839,optionRight,30,14085,6,38,0,38,0,1,,,,,,,,,,,,,,,,,,,,,,,,,,,,,,,,,,,,,,,
,,,,,,,,2023-08-16_08h44.08.898,HF_wild_card,2022.2.4,Win32,60.0240096,639b6f709020ae5b16daad25,64d2fd46c836a06233681665,64dc7e3a8d9590ecb369625c,,,,,,,decisionTrl,resources/DBN.BMP,resources/DY.BMP,Door1,0.285833252,0.021666687,1,0,0,1.1801,optionRight,30,14115,6,39,0,39,0,1,,,,,,,,,,,,,,,,,,,,,,,,,,,,,,,,,,,,,,,
,,,,,,,,2023-08-16_08h44.08.898,HF_wild_card,2022.2.4,Win32,60.0240096,639b6f709020ae5b16daad25,64d2fd46c836a06233681665,64dc7e3a8d9590ecb369625c,,,,,,,ctch,resources/DB.BMP,resources/DBN.BMP,Door3,-0.3175,0.001666687,1,0,0,1.4968,optionLeft,70,14185,6,40,0,40,0,1,,,,,,,,,,,,,,,,,,,,,,,,,,,,,,,,,,,,,,,
,,,,,,,,2023-08-16_08h44.08.898,HF_wild_card,2022.2.4,Win32,60.0240096,639b6f709020ae5b16daad25,64d2fd46c836a06233681665,64dc7e3a8d9590ecb369625c,,,,,,,decisionTrl,resources/DB.BMP,resources/DR.BMP,Door3,-0.291666687,-0.040833313,1,0,0,1.1352,optionLeft,70,14255,6,41,0,41,0,1,,,,,,,,,,,,,,,,,,,,,,,,,,,,,,,,,,,,,,,
,,,,,,,,2023-08-16_08h44.08.898,HF_wild_card,2022.2.4,Win32,60.0240096,639b6f709020ae5b16daad25,64d2fd46c836a06233681665,64dc7e3a8d9590ecb369625c,,,,,,,decisionTrl,resources/DB.BMP,resources/DP.BMP,Door3,-0.331666687,-0.016666626,1,0,0,0.9408,optionLeft,70,14325,6,42,0,42,0,1,,,,,,,,,,,,,,,,,,,,,,,,,,,,,,,,,,,,,,,
,,,,,,,,2023-08-16_08h44.08.898,HF_wild_card,2022.2.4,Win32,60.0240096,639b6f709020ae5b16daad25,64d2fd46c836a06233681665,64dc7e3a8d9590ecb369625c,,,,,,,sngl,resources/DR.BMP,resources/Empty.png,Door4,-0.280833374,-0.005,1,0,0,1.0017,optionLeft,60,14385,6,43,0,43,0,1,,,,,,,,,,,,,,,,,,,,,,,,,,,,,,,,,,,,,,,
,,,,,,,,2023-08-16_08h44.08.898,HF_wild_card,2022.2.4,Win32,60.0240096,639b6f709020ae5b16daad25,64d2fd46c836a06233681665,64dc7e3a8d9590ecb369625c,,,,,,,,,,,,,,,,,,,,,,,,,,5,0,5,0,1,,,,,,,,,,,,,,,,,,,,,,,,,,,,,,,,,,
,,,,,,,,2023-08-16_08h44.08.898,HF_wild_card,2022.2.4,Win32,60.0240096,639b6f709020ae5b16daad25,64d2fd46c836a06233681665,64dc7e3a8d9590ecb369625c,,,,,,,decisionTrl,resources/DY.BMP,resources/DBN.BMP,Door1,-0.354166687,-0.054166626,1,0,0,1.0086,optionLeft,30,14415,7,0,0,0,0,1,,,,,,,,,,,,,,,,,,,,,,,,,,,,,,,,,,,,,,,
,,,,,,,,2023-08-16_08h44.08.898,HF_wild_card,2022.2.4,Win32,60.0240096,639b6f709020ae5b16daad25,64d2fd46c836a06233681665,64dc7e3a8d9590ecb369625c,,,,,,,decisionTrl,resources/DY.BMP,resources/DBN.BMP,Door1,-0.316666687,-0.104166626,1,0,0,0.8321,optionLeft,30,14445,7,1,0,1,0,1,,,,,,,,,,,,,,,,,,,,,,,,,,,,,,,,,,,,,,,
,,,,,,,,2023-08-16_08h44.08.898,HF_wild_card,2022.2.4,Win32,60.0240096,639b6f709020ae5b16daad25,64d2fd46c836a06233681665,64dc7e3a8d9590ecb369625c,,,,,,,ctch,resources/DBN.BMP,resources/DB.BMP,Door3,0.33,0.0175,1,0,0,0.7982,optionRight,70,14515,7,2,0,2,0,1,,,,,,,,,,,,,,,,,,,,,,,,,,,,,,,,,,,,,,,
,,,,,,,,2023-08-16_08h44.08.898,HF_wild_card,2022.2.4,Win32,60.0240096,639b6f709020ae5b16daad25,64d2fd46c836a06233681665,64dc7e3a8d9590ecb369625c,,,,,,,ctch,resources/DY.BMP,resources/DR.BMP,Door4,0.2675,-0.0225,1,0,0,1.3981,optionRight,60,14575,7,3,0,3,0,1,,,,,,,,,,,,,,,,,,,,,,,,,,,,,,,,,,,,,,,
,,,,,,,,2023-08-16_08h44.08.898,HF_wild_card,2022.2.4,Win32,60.0240096,639b6f709020ae5b16daad25,64d2fd46c836a06233681665,64dc7e3a8d9590ecb369625c,,,,,,,decisionTrl,resources/DBN.BMP,resources/DY.BMP,Door1,0.413333252,-0.033333313,1,0,0,0.9648,optionRight,30,14605,7,4,0,4,0,1,,,,,,,,,,,,,,,,,,,,,,,,,,,,,,,,,,,,,,,
,,,,,,,,2023-08-16_08h44.08.898,HF_wild_card,2022.2.4,Win32,60.0240096,639b6f709020ae5b16daad25,64d2fd46c836a06233681665,64dc7e3a8d9590ecb369625c,,,,,,,ctch,resources/DBN.BMP,resources/DB.BMP,Door3,0.34,-0.0575,1,0,0,0.965,optionRight,70,14675,7,5,0,5,0,1,,,,,,,,,,,,,,,,,,,,,,,,,,,,,,,,,,,,,,,
,,,,,,,,2023-08-16_08h44.08.898,HF_wild_card,2022.2.4,Win32,60.0240096,639b6f709020ae5b16daad25,64d2fd46c836a06233681665,64dc7e3a8d9590ecb369625c,,,,,,,ctch,resources/DB.BMP,resources/DBN.BMP,Door3,-0.339166687,-0.059166626,1,0,0,0.9813,optionLeft,70,14745,7,6,0,6,0,1,,,,,,,,,,,,,,,,,,,,,,,,,,,,,,,,,,,,,,,
,,,,,,,,2023-08-16_08h44.08.898,HF_wild_card,2022.2.4,Win32,60.0240096,639b6f709020ae5b16daad25,64d2fd46c836a06233681665,64dc7e3a8d9590ecb369625c,,,,,,,decisionTrl,resources/DBN.BMP,resources/DY.BMP,Door1,0.354166626,-0.040833313,1,0,0,0.9003,optionRight,30,14775,7,7,0,7,0,1,,,,,,,,,,,,,,,,,,,,,,,,,,,,,,,,,,,,,,,
,,,,,,,,2023-08-16_08h44.08.898,HF_wild_card,2022.2.4,Win32,60.0240096,639b6f709020ae5b16daad25,64d2fd46c836a06233681665,64dc7e3a8d9590ecb369625c,,,,,,,decisionTrl,resources/DY.BMP,resources/DBN.BMP,Door1,-0.3425,-0.064166626,1,0,0,0.9154,optionLeft,30,14805,7,8,0,8,0,1,,,,,,,,,,,,,,,,,,,,,,,,,,,,,,,,,,,,,,,
,,,,,,,,2023-08-16_08h44.08.898,HF_wild_card,2022.2.4,Win32,60.0240096,639b6f709020ae5b16daad25,64d2fd46c836a06233681665,64dc7e3a8d9590ecb369625c,,,,,,,decisionTrl,resources/DR.BMP,resources/DB.BMP,Door3,0.2675,-0.0125,1,0,0,1.0809,optionRight,70,14875,7,9,0,9,0,1,,,,,,,,,,,,,,,,,,,,,,,,,,,,,,,,,,,,,,,
,,,,,,,,2023-08-16_08h44.08.898,HF_wild_card,2022.2.4,Win32,60.0240096,639b6f709020ae5b16daad25,64d2fd46c836a06233681665,64dc7e3a8d9590ecb369625c,,,,,,,decisionTrl,resources/DBN.BMP,resources/DY.BMP,Door1,0.269166626,0.0025,1,0,0,0.9205,optionRight,30,14905,7,10,0,10,0,1,,,,,,,,,,,,,,,,,,,,,,,,,,,,,,,,,,,,,,,
,,,,,,,,2023-08-16_08h44.08.898,HF_wild_card,2022.2.4,Win32,60.0240096,639b6f709020ae5b16daad25,64d2fd46c836a06233681665,64dc7e3a8d9590ecb369625c,,,,,,,decisionTrl,resources/DB.BMP,resources/DR.BMP,Door3,-0.355,-0.059166626,1,0,0,0.8813,optionLeft,70,14975,7,11,0,11,0,1,,,,,,,,,,,,,,,,,,,,,,,,,,,,,,,,,,,,,,,
,,,,,,,,2023-08-16_08h44.08.898,HF_wild_card,2022.2.4,Win32,60.0240096,639b6f709020ae5b16daad25,64d2fd46c836a06233681665,64dc7e3a8d9590ecb369625c,,,,,,,ctch,resources/DY.BMP,resources/DR.BMP,Door4,0.3275,0.021666687,1,0,0,1.1648,optionRight,60,15035,7,12,0,12,0,1,,,,,,,,,,,,,,,,,,,,,,,,,,,,,,,,,,,,,,,
,,,,,,,,2023-08-16_08h44.08.898,HF_wild_card,2022.2.4,Win32,60.0240096,639b6f709020ae5b16daad25,64d2fd46c836a06233681665,64dc7e3a8d9590ecb369625c,,,,,,,decisionTrl,resources/DR.BMP,resources/DB.BMP,Door3,0.315833252,0.011666687,1,0,0,1.0268,optionRight,70,15105,7,13,0,13,0,1,,,,,,,,,,,,,,,,,,,,,,,,,,,,,,,,,,,,,,,
,,,,,,,,2023-08-16_08h44.08.898,HF_wild_card,2022.2.4,Win32,60.0240096,639b6f709020ae5b16daad25,64d2fd46c836a06233681665,64dc7e3a8d9590ecb369625c,,,,,,,decisionTrl,resources/DR.BMP,resources/DB.BMP,Door3,0.351666626,0.000833344,1,0,0,0.9982,optionRight,70,15175,7,14,0,14,0,1,,,,,,,,,,,,,,,,,,,,,,,,,,,,,,,,,,,,,,,
,,,,,,,,2023-08-16_08h44.08.898,HF_wild_card,2022.2.4,Win32,60.0240096,639b6f709020ae5b16daad25,64d2fd46c836a06233681665,64dc7e3a8d9590ecb369625c,,,,,,,decisionTrl,resources/DB.BMP,resources/DR.BMP,Door3,-0.318333344,-0.038333313,1,0,0,0.9815,optionLeft,70,15245,7,15,0,15,0,1,,,,,,,,,,,,,,,,,,,,,,,,,,,,,,,,,,,,,,,
,,,,,,,,2023-08-16_08h44.08.898,HF_wild_card,2022.2.4,Win32,60.0240096,639b6f709020ae5b16daad25,64d2fd46c836a06233681665,64dc7e3a8d9590ecb369625c,,,,,,,ctch,resources/DB.BMP,resources/DBN.BMP,Door3,-0.364166687,-0.058333313,1,0,0,1.031,optionLeft,70,15315,7,16,0,16,0,1,,,,,,,,,,,,,,,,,,,,,,,,,,,,,,,,,,,,,,,
,,,,,,,,2023-08-16_08h44.08.898,HF_wild_card,2022.2.4,Win32,60.0240096,639b6f709020ae5b16daad25,64d2fd46c836a06233681665,64dc7e3a8d9590ecb369625c,,,,,,,ctch,resources/DBN.BMP,resources/DB.BMP,Door3,0.378333252,-0.0175,1,0,0,0.9313,optionRight,70,15385,7,17,0,17,0,1,,,,,,,,,,,,,,,,,,,,,,,,,,,,,,,,,,,,,,,
,,,,,,,,2023-08-16_08h44.08.898,HF_wild_card,2022.2.4,Win32,60.0240096,639b6f709020ae5b16daad25,64d2fd46c836a06233681665,64dc7e3a8d9590ecb369625c,,,,,,,decisionTrl,resources/DR.BMP,resources/DB.BMP,Door3,0.355,0.03,1,0,0,1.1295,optionRight,70,15455,7,18,0,18,0,1,,,,,,,,,,,,,,,,,,,,,,,,,,,,,,,,,,,,,,,
,,,,,,,,2023-08-16_08h44.08.898,HF_wild_card,2022.2.4,Win32,60.0240096,639b6f709020ae5b16daad25,64d2fd46c836a06233681665,64dc7e3a8d9590ecb369625c,,,,,,,ctch,resources/DR.BMP,resources/DY.BMP,Door4,-0.345,-0.041666626,1,0,0,0.8605,optionLeft,60,15515,7,19,0,19,0,1,,,,,,,,,,,,,,,,,,,,,,,,,,,,,,,,,,,,,,,
,,,,,,,,2023-08-16_08h44.08.898,HF_wild_card,2022.2.4,Win32,60.0240096,639b6f709020ae5b16daad25,64d2fd46c836a06233681665,64dc7e3a8d9590ecb369625c,,,,,,,decisionTrl,resources/DBN.BMP,resources/DY.BMP,Door1,0.3375,0.040833344,1,0,0,1.0315,optionRight,30,15545,7,20,0,20,0,1,,,,,,,,,,,,,,,,,,,,,,,,,,,,,,,,,,,,,,,
,,,,,,,,2023-08-16_08h44.08.898,HF_wild_card,2022.2.4,Win32,60.0240096,639b6f709020ae5b16daad25,64d2fd46c836a06233681665,64dc7e3a8d9590ecb369625c,,,,,,,decisionTrl,resources/DR.BMP,resources/DB.BMP,Door3,0.33,0.024166687,1,0,0,1.1826,optionRight,70,15615,7,21,0,21,0,1,,,,,,,,,,,,,,,,,,,,,,,,,,,,,,,,,,,,,,,
,,,,,,,,2023-08-16_08h44.08.898,HF_wild_card,2022.2.4,Win32,60.0240096,639b6f709020ae5b16daad25,64d2fd46c836a06233681665,64dc7e3a8d9590ecb369625c,,,,,,,decisionTrl,resources/DR.BMP,resources/DB.BMP,Door3,0.315833252,-0.024166626,1,0,0,1.0104,optionRight,70,15685,7,22,0,22,0,1,,,,,,,,,,,,,,,,,,,,,,,,,,,,,,,,,,,,,,,
,,,,,,,,2023-08-16_08h44.08.898,HF_wild_card,2022.2.4,Win32,60.0240096,639b6f709020ae5b16daad25,64d2fd46c836a06233681665,64dc7e3a8d9590ecb369625c,,,,,,,decisionTrl,resources/DBN.BMP,resources/DY.BMP,Door1,0.314166626,0.003333344,1,0,0,0.8656,optionRight,30,15715,7,23,0,23,0,1,,,,,,,,,,,,,,,,,,,,,,,,,,,,,,,,,,,,,,,
,,,,,,,,2023-08-16_08h44.08.898,HF_wild_card,2022.2.4,Win32,60.0240096,639b6f709020ae5b16daad25,64d2fd46c836a06233681665,64dc7e3a8d9590ecb369625c,,,,,,,ctch,resources/DR.BMP,resources/DY.BMP,Door4,-0.325,-0.045,1,0,0,1.9478,optionLeft,80,15795,7,24,0,24,0,1,,,,,,,,,,,,,,,,,,,,,,,,,,,,,,,,,,,,,,,
,,,,,,,,2023-08-16_08h44.08.898,HF_wild_card,2022.2.4,Win32,60.0240096,639b6f709020ae5b16daad25,64d2fd46c836a06233681665,64dc7e3a8d9590ecb369625c,,,,,,,decisionTrl,resources/DY.BMP,resources/DBN.BMP,Door1,-0.3175,-0.0475,1,0,0,0.9631,optionLeft,30,15825,7,25,0,25,0,1,,,,,,,,,,,,,,,,,,,,,,,,,,,,,,,,,,,,,,,
,,,,,,,,2023-08-16_08h44.08.898,HF_wild_card,2022.2.4,Win32,60.0240096,639b6f709020ae5b16daad25,64d2fd46c836a06233681665,64dc7e3a8d9590ecb369625c,,,,,,,decisionTrl,resources/DB.BMP,resources/DR.BMP,Door3,-0.328333344,-0.043333313,1,0,0,1.1268,optionLeft,70,15895,7,26,0,26,0,1,,,,,,,,,,,,,,,,,,,,,,,,,,,,,,,,,,,,,,,
,,,,,,,,2023-08-16_08h44.08.898,HF_wild_card,2022.2.4,Win32,60.0240096,639b6f709020ae5b16daad25,64d2fd46c836a06233681665,64dc7e3a8d9590ecb369625c,,,,,,,decisionTrl,resources/DY.BMP,resources/DBN.BMP,Door1,-0.399999969,-0.058333313,1,0,0,1.0652,optionLeft,30,15925,7,27,0,27,0,1,,,,,,,,,,,,,,,,,,,,,,,,,,,,,,,,,,,,,,,
,,,,,,,,2023-08-16_08h44.08.898,HF_wild_card,2022.2.4,Win32,60.0240096,639b6f709020ae5b16daad25,64d2fd46c836a06233681665,64dc7e3a8d9590ecb369625c,,,,,,,decisionTrl,resources/DB.BMP,resources/DR.BMP,Door3,-0.428333344,-0.07,1,0,0,0.8495,optionLeft,70,15995,7,28,0,28,0,1,,,,,,,,,,,,,,,,,,,,,,,,,,,,,,,,,,,,,,,
,,,,,,,,2023-08-16_08h44.08.898,HF_wild_card,2022.2.4,Win32,60.0240096,639b6f709020ae5b16daad25,64d2fd46c836a06233681665,64dc7e3a8d9590ecb369625c,,,,,,,decisionTrl,resources/DBN.BMP,resources/DY.BMP,Door1,0.384166626,0.015,1,0,0,1.1761,optionRight,30,16025,7,29,0,29,0,1,,,,,,,,,,,,,,,,,,,,,,,,,,,,,,,,,,,,,,,
,,,,,,,,2023-08-16_08h44.08.898,HF_wild_card,2022.2.4,Win32,60.0240096,639b6f709020ae5b16daad25,64d2fd46c836a06233681665,64dc7e3a8d9590ecb369625c,,,,,,,decisionTrl,resources/DY.BMP,resources/DBN.BMP,Door1,-0.330833344,0.001666687,1,0,0,0.9724,optionLeft,30,16055,7,30,0,30,0,1,,,,,,,,,,,,,,,,,,,,,,,,,,,,,,,,,,,,,,,
,,,,,,,,2023-08-16_08h44.08.898,HF_wild_card,2022.2.4,Win32,60.0240096,639b6f709020ae5b16daad25,64d2fd46c836a06233681665,64dc7e3a8d9590ecb369625c,,,,,,,ctch,resources/DB.BMP,resources/DBN.BMP,Door3,-0.251666687,-0.019166626,1,0,0,0.949,optionLeft,70,16125,7,31,0,31,0,1,,,,,,,,,,,,,,,,,,,,,,,,,,,,,,,,,,,,,,,
,,,,,,,,2023-08-16_08h44.08.898,HF_wild_card,2022.2.4,Win32,60.0240096,639b6f709020ae5b16daad25,64d2fd46c836a06233681665,64dc7e3a8d9590ecb369625c,,,,,,,ctch,resources/DR.BMP,resources/DY.BMP,Door4,-0.265833374,-0.049166626,1,0,0,1.1599,optionLeft,60,16185,7,32,0,32,0,1,,,,,,,,,,,,,,,,,,,,,,,,,,,,,,,,,,,,,,,
,,,,,,,,2023-08-16_08h44.08.898,HF_wild_card,2022.2.4,Win32,60.0240096,639b6f709020ae5b16daad25,64d2fd46c836a06233681665,64dc7e3a8d9590ecb369625c,,,,,,,decisionTrl,resources/DB.BMP,resources/DR.BMP,Door3,-0.328333344,-0.035833313,1,0,0,0.9773,optionLeft,70,16255,7,33,0,33,0,1,,,,,,,,,,,,,,,,,,,,,,,,,,,,,,,,,,,,,,,
,,,,,,,,2023-08-16_08h44.08.898,HF_wild_card,2022.2.4,Win32,60.0240096,639b6f709020ae5b16daad25,64d2fd46c836a06233681665,64dc7e3a8d9590ecb369625c,,,,,,,decisionTrl,resources/DB.BMP,resources/DR.BMP,Door3,-0.374999969,-0.075,1,0,0,0.9482,optionLeft,70,16325,7,34,0,34,0,1,,,,,,,,,,,,,,,,,,,,,,,,,,,,,,,,,,,,,,,
,,,,,,,,2023-08-16_08h44.08.898,HF_wild_card,2022.2.4,Win32,60.0240096,639b6f709020ae5b16daad25,64d2fd46c836a06233681665,64dc7e3a8d9590ecb369625c,,,,,,,ctch,resources/DY.BMP,resources/DR.BMP,Door1,-0.341666687,-0.0275,1,0,0,0.9264,optionLeft,30,16355,7,35,0,35,0,1,,,,,,,,,,,,,,,,,,,,,,,,,,,,,,,,,,,,,,,
,,,,,,,,2023-08-16_08h44.08.898,HF_wild_card,2022.2.4,Win32,60.0240096,639b6f709020ae5b16daad25,64d2fd46c836a06233681665,64dc7e3a8d9590ecb369625c,,,,,,,,,,,,,,,,,,,,,,,,,,6,0,6,0,1,,,,,,,,,,,,,,,,,,,,,,,,,,,,,,,,,,
,,,,,,,,2023-08-16_08h44.08.898,HF_wild_card,2022.2.4,Win32,60.0240096,639b6f709020ae5b16daad25,64d2fd46c836a06233681665,64dc7e3a8d9590ecb369625c,,,,,,,,,,,,,,,,,,,,,,,,,,,,,,,4,,,,,,,,,,,,,,,,,,,,,,,,,,,,,,,,,
,,,,,,,,2023-08-16_08h44.08.898,HF_wild_card,2022.2.4,Win32,60.0240096,639b6f709020ae5b16daad25,64d2fd46c836a06233681665,64dc7e3a8d9590ecb369625c,,,,,,,,,,,,,,,,,,,,,,,,,,,,,,,,,,,,,,,,,,,,,,,,,,,,,,,,,,,,,,,,
,,,,,,,,2023-08-16_08h44.08.898,HF_wild_card,2022.2.4,Win32,60.0240096,639b6f709020ae5b16daad25,64d2fd46c836a06233681665,64dc7e3a8d9590ecb369625c,,,,,,,,,,,,,,,,,,,,,,,,,,,,,,,,60,Door4,resources/DR.BMP,0,0,0,0,1,,,,,,,,,,,,,,,,,,,,,,,,,
,,,,,,,,2023-08-16_08h44.08.898,HF_wild_card,2022.2.4,Win32,60.0240096,639b6f709020ae5b16daad25,64d2fd46c836a06233681665,64dc7e3a8d9590ecb369625c,,,,,,,,,,,,,,,,,,,,,,,,,,,,,,,,20,Door2,resources/DBN.BMP,1,0,1,0,1,,,,,,,,,,,,,,,,,,,,,,,,,
,,,,,,,,2023-08-16_08h44.08.898,HF_wild_card,2022.2.4,Win32,60.0240096,639b6f709020ae5b16daad25,64d2fd46c836a06233681665,64dc7e3a8d9590ecb369625c,,,,,,,,,,,,,,,,,,,,,,,,,,,,,,,,95,WC_extreme,resources/DG.BMP,2,0,2,0,1,,,,,,,,,,,,,,,,,,,,,,,,,
,,,,,,,,2023-08-16_08h44.08.898,HF_wild_card,2022.2.4,Win32,60.0240096,639b6f709020ae5b16daad25,64d2fd46c836a06233681665,64dc7e3a8d9590ecb369625c,,,,,,,,,,,,,,,,,,,,,,,,,,,,,,,,75,WC_nonExtreme,resources/DP.BMP,3,0,3,0,1,,,,,,,,,,,,,,,,,,,,,,,,,
,,,,,,,,2023-08-16_08h44.08.898,HF_wild_card,2022.2.4,Win32,60.0240096,639b6f709020ae5b16daad25,64d2fd46c836a06233681665,64dc7e3a8d9590ecb369625c,,,,,,,,,,,,,,,,,,,,,,,,,,,,,,,,70,Door3,resources/DB.BMP,4,0,4,0,1,,,,,,,,,,,,,,,,,,,,,,,,,
,,,,,,,,2023-08-16_08h44.08.898,HF_wild_card,2022.2.4,Win32,60.0240096,639b6f709020ae5b16daad25,64d2fd46c836a06233681665,64dc7e3a8d9590ecb369625c,,,,,,,,,,,,,,,,,,,,,,,,,,,,,,,,20,Door1,resources/DY.BMP,5,0,5,0,1,,,,,,,,,,,,,,,,,,,,,,,,,
,,,,,,,,2023-08-16_08h44.08.898,HF_wild_card,2022.2.4,Win32,60.0240096,639b6f709020ae5b16daad25,64d2fd46c836a06233681665,64dc7e3a8d9590ecb369625c,,,,,,,,,,,,,,,,,,,,,,,,,,,,,,,,,,,,,,,,,,,,,,,,,,,,,,,,,,,,,,,,
,,,,,,,,2023-08-16_08h44.08.898,HF_wild_card,2022.2.4,Win32,60.0240096,639b6f709020ae5b16daad25,64d2fd46c836a06233681665,64dc7e3a8d9590ecb369625c,,,,,,,,,,,,,,,,,,,,,,,,,,,,,,,,,,,,,,,,0,0,0,0,1,,,,,,,,,,,,,,,,,,,,
,,,,,,,,2023-08-16_08h44.08.898,HF_wild_card,2022.2.4,Win32,60.0240096,639b6f709020ae5b16daad25,64d2fd46c836a06233681665,64dc7e3a8d9590ecb369625c,,,,,,,,,,,,,,,,,,,,,,,,,,,,,,,,,,,,,,,,1,0,1,0,1,,,,,,,,,,,,,,,,,,,,
,,,,,,,,2023-08-16_08h44.08.898,HF_wild_card,2022.2.4,Win32,60.0240096,639b6f709020ae5b16daad25,64d2fd46c836a06233681665,64dc7e3a8d9590ecb369625c,,,,,,,,,,,,,,,,,,,,,,,,,,,,,,,,,,,,,,,,,,,,,0.281666626,-0.415,1,0,0,no,0,0,0,0,1,,,,,,,,,
,,,,,,,,2023-08-16_08h44.08.898,HF_wild_card,2022.2.4,Win32,60.0240096,639b6f709020ae5b16daad25,64d2fd46c836a06233681665,64dc7e3a8d9590ecb369625c,,,,,,,,,,,,,,,,,,,,,,,,,,,,,,,,,,,,,,,,0,0,0,0,1,,,,,,,,,,,,,,,,,,,,
,,,,,,,,2023-08-16_08h44.08.898,HF_wild_card,2022.2.4,Win32,60.0240096,639b6f709020ae5b16daad25,64d2fd46c836a06233681665,64dc7e3a8d9590ecb369625c,,,,,,,,,,,,,,,,,,,,,,,,,,,,,,,,,,,,,,,,1,0,1,0,1,,,,,,,,,,,,,,,,,,,,
