Condition,Low fixed image (Door1),Low risky image (Door2),High fixed image (Door3),High risky image (Door4),NonExtreme Wild Card 1,NonExtreme Wild Card 2,,date,expName,psychopyVersion,OS,frameRate,PROLIFIC_PID,STUDY_ID,SESSION_ID,mouse_2.x,mouse_2.y,mouse_2.leftButton,mouse_2.midButton,mouse_2.rightButton,mouse_2.clicked_name,Trial Type,Left Option Image,Right Option Image,Chosen Door,mouse.x,mouse.y,mouse.leftButton,mouse.midButton,mouse.rightButton,mouse.time,mouse.clicked_name,Feedback,Cumulative Reward,Block,trial.thisRepN,trial.thisTrialN,trial.thisN,trial.thisIndex,trial.ran,blocks.thisRepN,blocks.thisTrialN,blocks.thisN,blocks.thisIndex,blocks.ran,Money conversion,First Outcome Reported,Shown Door (First Outcome),Displayed Image (First Outcome),outcomes.thisRepN,outcomes.thisTrialN,outcomes.thisN,outcomes.thisIndex,outcomes.ran,judgments.thisRepN,judgments.thisTrialN,judgments.thisN,judgments.thisIndex,judgments.ran,freqMouse.x,freqMouse.y,freqMouse.leftButton,freqMouse.midButton,freqMouse.rightButton,freqMouse.clicked_name,FQJ for first outcome,FQJ for second outcome,Shown Door,Displayed Image,trials.thisRepN,trials.thisTrialN,trials.thisN,trials.thisIndex,trials.ran,judgBlock.thisRepN,judgBlock.thisTrialN,judgBlock.thisN,judgBlock.thisIndex,judgBlock.ran
2,resources/DY.BMP,resources/DBN.BMP,resources/DB.BMP,resources/DP.BMP,resources/DR.BMP,resources/DG.BMP,,08-06-2023_08h26.56.200,HF_wild_card,2022.2.4,MacIntel,59.10165485,610e67c4f2e507632094b24f,64ce5acb97489d65b14ecc7a,64cf4b2fefcac874844c8fed,,,,,,,,,,,,,,,,,,,,,,,,,,,,,,,,,,,,,,,,,,,,,,,,,,,,,,,,,,,,,,,,
,,,,,,,,08-06-2023_08h26.56.200,HF_wild_card,2022.2.4,MacIntel,59.10165485,610e67c4f2e507632094b24f,64ce5acb97489d65b14ecc7a,64cf4b2fefcac874844c8fed,-0.01,-0.42,1,0,0,agree,,,,,,,,,,,,,,,,,,,,,,,,,,,,,,,,,,,,,,,,,,,,,,,,,,,,,,,,,,
,,,,,,,,08-06-2023_08h26.56.200,HF_wild_card,2022.2.4,MacIntel,59.10165485,610e67c4f2e507632094b24f,64ce5acb97489d65b14ecc7a,64cf4b2fefcac874844c8fed,,,,,,,,,,,,,,,,,,,,,,,,,,,,,,,,,,,,,,,,,,,,,,,,,,,,,,,,,,,,,,,,
,,,,,,,,08-06-2023_08h26.56.200,HF_wild_card,2022.2.4,MacIntel,59.10165485,610e67c4f2e507632094b24f,64ce5acb97489d65b14ecc7a,64cf4b2fefcac874844c8fed,,,,,,,sngl,resources/DP.BMP,resources/Empty.png,Door4,-0.355,-0.04875,1,0,0,2.822,optionLeft,80,80,1,0,0,0,0,1,,,,,,,,,,,,,,,,,,,,,,,,,,,,,,,,,,,,,,,
,,,,,,,,08-06-2023_08h26.56.200,HF_wild_card,2022.2.4,MacIntel,59.10165485,610e67c4f2e507632094b24f,64ce5acb97489d65b14ecc7a,64cf4b2fefcac874844c8fed,,,,,,,decisionTrl,resources/DBN.BMP,resources/DG.BMP,Door2,-0.31625,0.0025,1,0,0,2.063,optionLeft,20,100,1,1,0,1,0,1,,,,,,,,,,,,,,,,,,,,,,,,,,,,,,,,,,,,,,,
,,,,,,,,08-06-2023_08h26.56.200,HF_wild_card,2022.2.4,MacIntel,59.10165485,610e67c4f2e507632094b24f,64ce5acb97489d65b14ecc7a,64cf4b2fefcac874844c8fed,,,,,,,decisionTrl,resources/DY.BMP,resources/DBN.BMP,Door1,-0.32125,-0.05875,1,0,0,0.912,optionLeft,30,130,1,2,0,2,0,1,,,,,,,,,,,,,,,,,,,,,,,,,,,,,,,,,,,,,,,
,,,,,,,,08-06-2023_08h26.56.200,HF_wild_card,2022.2.4,MacIntel,59.10165485,610e67c4f2e507632094b24f,64ce5acb97489d65b14ecc7a,64cf4b2fefcac874844c8fed,,,,,,,sngl,resources/Empty.png,resources/DG.BMP,WildCard_NonEx,0.325,-0.025,1,0,0,0.989,optionRight,55,185,1,3,0,3,0,1,,,,,,,,,,,,,,,,,,,,,,,,,,,,,,,,,,,,,,,
,,,,,,,,08-06-2023_08h26.56.200,HF_wild_card,2022.2.4,MacIntel,59.10165485,610e67c4f2e507632094b24f,64ce5acb97489d65b14ecc7a,64cf4b2fefcac874844c8fed,,,,,,,sngl,resources/Empty.png,resources/DBN.BMP,Door2,0.355,-0.0175,1,0,0,1.046,optionRight,20,205,1,4,0,4,0,1,,,,,,,,,,,,,,,,,,,,,,,,,,,,,,,,,,,,,,,
,,,,,,,,08-06-2023_08h26.56.200,HF_wild_card,2022.2.4,MacIntel,59.10165485,610e67c4f2e507632094b24f,64ce5acb97489d65b14ecc7a,64cf4b2fefcac874844c8fed,,,,,,,decisionTrl,resources/DG.BMP,resources/DBN.BMP,WildCard_NonEx,-0.23125,-0.00875,1,0,0,1.613,optionLeft,55,260,1,5,0,5,0,1,,,,,,,,,,,,,,,,,,,,,,,,,,,,,,,,,,,,,,,
,,,,,,,,08-06-2023_08h26.56.200,HF_wild_card,2022.2.4,MacIntel,59.10165485,610e67c4f2e507632094b24f,64ce5acb97489d65b14ecc7a,64cf4b2fefcac874844c8fed,,,,,,,sngl,resources/Empty.png,resources/DP.BMP,Door4,0.43625,-0.01,1,0,0,0.894,optionRight,60,320,1,6,0,6,0,1,,,,,,,,,,,,,,,,,,,,,,,,,,,,,,,,,,,,,,,
,,,,,,,,08-06-2023_08h26.56.200,HF_wild_card,2022.2.4,MacIntel,59.10165485,610e67c4f2e507632094b24f,64ce5acb97489d65b14ecc7a,64cf4b2fefcac874844c8fed,,,,,,,decisionTrl,resources/DY.BMP,resources/DBN.BMP,Door1,-0.265,-0.0725,1,0,0,1.196,optionLeft,30,350,1,7,0,7,0,1,,,,,,,,,,,,,,,,,,,,,,,,,,,,,,,,,,,,,,,
,,,,,,,,08-06-2023_08h26.56.200,HF_wild_card,2022.2.4,MacIntel,59.10165485,610e67c4f2e507632094b24f,64ce5acb97489d65b14ecc7a,64cf4b2fefcac874844c8fed,,,,,,,decisionTrl,resources/DP.BMP,resources/DB.BMP,Door4,-0.3975,-0.1225,1,0,0,1.248,optionLeft,80,430,1,8,0,8,0,1,,,,,,,,,,,,,,,,,,,,,,,,,,,,,,,,,,,,,,,
,,,,,,,,08-06-2023_08h26.56.200,HF_wild_card,2022.2.4,MacIntel,59.10165485,610e67c4f2e507632094b24f,64ce5acb97489d65b14ecc7a,64cf4b2fefcac874844c8fed,,,,,,,decisionTrl,resources/DB.BMP,resources/DG.BMP,Door3,-0.36,-0.02875,1,0,0,1.265,optionLeft,70,500,1,9,0,9,0,1,,,,,,,,,,,,,,,,,,,,,,,,,,,,,,,,,,,,,,,
,,,,,,,,08-06-2023_08h26.56.200,HF_wild_card,2022.2.4,MacIntel,59.10165485,610e67c4f2e507632094b24f,64ce5acb97489d65b14ecc7a,64cf4b2fefcac874844c8fed,,,,,,,decisionTrl,resources/DP.BMP,resources/DB.BMP,Door4,-0.385,-0.02125,1,0,0,1.281,optionLeft,80,580,1,10,0,10,0,1,,,,,,,,,,,,,,,,,,,,,,,,,,,,,,,,,,,,,,,
,,,,,,,,08-06-2023_08h26.56.200,HF_wild_card,2022.2.4,MacIntel,59.10165485,610e67c4f2e507632094b24f,64ce5acb97489d65b14ecc7a,64cf4b2fefcac874844c8fed,,,,,,,ctch,resources/DB.BMP,resources/DBN.BMP,Door3,-0.36,-0.0475,1,0,0,1.91,optionLeft,70,650,1,11,0,11,0,1,,,,,,,,,,,,,,,,,,,,,,,,,,,,,,,,,,,,,,,
,,,,,,,,08-06-2023_08h26.56.200,HF_wild_card,2022.2.4,MacIntel,59.10165485,610e67c4f2e507632094b24f,64ce5acb97489d65b14ecc7a,64cf4b2fefcac874844c8fed,,,,,,,sngl,resources/Empty.png,resources/DY.BMP,Door1,0.3175,-0.045,1,0,0,5.098,optionRight,30,680,1,12,0,12,0,1,,,,,,,,,,,,,,,,,,,,,,,,,,,,,,,,,,,,,,,
,,,,,,,,08-06-2023_08h26.56.200,HF_wild_card,2022.2.4,MacIntel,59.10165485,610e67c4f2e507632094b24f,64ce5acb97489d65b14ecc7a,64cf4b2fefcac874844c8fed,,,,,,,sngl,resources/DBN.BMP,resources/Empty.png,Door2,-0.41,0.01125,1,0,0,5.133,optionLeft,40,720,1,13,0,13,0,1,,,,,,,,,,,,,,,,,,,,,,,,,,,,,,,,,,,,,,,
,,,,,,,,08-06-2023_08h26.56.200,HF_wild_card,2022.2.4,MacIntel,59.10165485,610e67c4f2e507632094b24f,64ce5acb97489d65b14ecc7a,64cf4b2fefcac874844c8fed,,,,,,,ctch,resources/DP.BMP,resources/DY.BMP,Door4,-0.37125,-0.055,1,0,0,0.779,optionLeft,60,780,1,14,0,14,0,1,,,,,,,,,,,,,,,,,,,,,,,,,,,,,,,,,,,,,,,
,,,,,,,,08-06-2023_08h26.56.200,HF_wild_card,2022.2.4,MacIntel,59.10165485,610e67c4f2e507632094b24f,64ce5acb97489d65b14ecc7a,64cf4b2fefcac874844c8fed,,,,,,,decisionTrl,resources/DY.BMP,resources/DBN.BMP,Door1,-0.40375,-0.025,1,0,0,0.665,optionLeft,30,810,1,15,0,15,0,1,,,,,,,,,,,,,,,,,,,,,,,,,,,,,,,,,,,,,,,
,,,,,,,,08-06-2023_08h26.56.200,HF_wild_card,2022.2.4,MacIntel,59.10165485,610e67c4f2e507632094b24f,64ce5acb97489d65b14ecc7a,64cf4b2fefcac874844c8fed,,,,,,,decisionTrl,resources/DP.BMP,resources/DB.BMP,Door4,-0.29,-0.03125,1,0,0,0.731,optionLeft,80,890,1,16,0,16,0,1,,,,,,,,,,,,,,,,,,,,,,,,,,,,,,,,,,,,,,,
,,,,,,,,08-06-2023_08h26.56.200,HF_wild_card,2022.2.4,MacIntel,59.10165485,610e67c4f2e507632094b24f,64ce5acb97489d65b14ecc7a,64cf4b2fefcac874844c8fed,,,,,,,sngl,resources/DY.BMP,resources/Empty.png,Door1,-0.27375,-0.01125,1,0,0,0.781,optionLeft,30,920,1,17,0,17,0,1,,,,,,,,,,,,,,,,,,,,,,,,,,,,,,,,,,,,,,,
,,,,,,,,08-06-2023_08h26.56.200,HF_wild_card,2022.2.4,MacIntel,59.10165485,610e67c4f2e507632094b24f,64ce5acb97489d65b14ecc7a,64cf4b2fefcac874844c8fed,,,,,,,ctch,resources/DB.BMP,resources/DBN.BMP,Door3,-0.2625,-0.00375,1,0,0,0.73,optionLeft,70,990,1,18,0,18,0,1,,,,,,,,,,,,,,,,,,,,,,,,,,,,,,,,,,,,,,,
,,,,,,,,08-06-2023_08h26.56.200,HF_wild_card,2022.2.4,MacIntel,59.10165485,610e67c4f2e507632094b24f,64ce5acb97489d65b14ecc7a,64cf4b2fefcac874844c8fed,,,,,,,ctch,resources/DBN.BMP,resources/DB.BMP,Door2,-0.2425,-0.02125,1,0,0,0.75,optionLeft,20,1010,1,19,0,19,0,1,,,,,,,,,,,,,,,,,,,,,,,,,,,,,,,,,,,,,,,
,,,,,,,,08-06-2023_08h26.56.200,HF_wild_card,2022.2.4,MacIntel,59.10165485,610e67c4f2e507632094b24f,64ce5acb97489d65b14ecc7a,64cf4b2fefcac874844c8fed,,,,,,,decisionTrl,resources/DG.BMP,resources/DB.BMP,WildCard_NonEx,-0.22375,-0.0125,1,0,0,0.711,optionLeft,45,1055,1,20,0,20,0,1,,,,,,,,,,,,,,,,,,,,,,,,,,,,,,,,,,,,,,,
,,,,,,,,08-06-2023_08h26.56.200,HF_wild_card,2022.2.4,MacIntel,59.10165485,610e67c4f2e507632094b24f,64ce5acb97489d65b14ecc7a,64cf4b2fefcac874844c8fed,,,,,,,decisionTrl,resources/DBN.BMP,resources/DY.BMP,Door2,-0.23375,-0.0175,1,0,0,0.68,optionLeft,40,1095,1,21,0,21,0,1,,,,,,,,,,,,,,,,,,,,,,,,,,,,,,,,,,,,,,,
,,,,,,,,08-06-2023_08h26.56.200,HF_wild_card,2022.2.4,MacIntel,59.10165485,610e67c4f2e507632094b24f,64ce5acb97489d65b14ecc7a,64cf4b2fefcac874844c8fed,,,,,,,sngl,resources/Empty.png,resources/DG.BMP,WildCard_NonEx,0.3225,0.055,1,0,0,1.946,optionRight,45,1140,1,22,0,22,0,1,,,,,,,,,,,,,,,,,,,,,,,,,,,,,,,,,,,,,,,
,,,,,,,,08-06-2023_08h26.56.200,HF_wild_card,2022.2.4,MacIntel,59.10165485,610e67c4f2e507632094b24f,64ce5acb97489d65b14ecc7a,64cf4b2fefcac874844c8fed,,,,,,,decisionTrl,resources/DB.BMP,resources/DP.BMP,Door3,-0.1825,-0.055,1,0,0,0.898,optionLeft,70,1210,1,23,0,23,0,1,,,,,,,,,,,,,,,,,,,,,,,,,,,,,,,,,,,,,,,
,,,,,,,,08-06-2023_08h26.56.200,HF_wild_card,2022.2.4,MacIntel,59.10165485,610e67c4f2e507632094b24f,64ce5acb97489d65b14ecc7a,64cf4b2fefcac874844c8fed,,,,,,,sngl,resources/DB.BMP,resources/Empty.png,Door3,-0.12,-0.0225,1,0,0,0.931,optionLeft,70,1280,1,24,0,24,0,1,,,,,,,,,,,,,,,,,,,,,,,,,,,,,,,,,,,,,,,
,,,,,,,,08-06-2023_08h26.56.200,HF_wild_card,2022.2.4,MacIntel,59.10165485,610e67c4f2e507632094b24f,64ce5acb97489d65b14ecc7a,64cf4b2fefcac874844c8fed,,,,,,,decisionTrl,resources/DB.BMP,resources/DP.BMP,Door3,-0.11375,-0.025,1,0,0,0.699,optionLeft,70,1350,1,25,0,25,0,1,,,,,,,,,,,,,,,,,,,,,,,,,,,,,,,,,,,,,,,
,,,,,,,,08-06-2023_08h26.56.200,HF_wild_card,2022.2.4,MacIntel,59.10165485,610e67c4f2e507632094b24f,64ce5acb97489d65b14ecc7a,64cf4b2fefcac874844c8fed,,,,,,,decisionTrl,resources/DBN.BMP,resources/DY.BMP,Door2,-0.13875,-0.0175,1,0,0,0.581,optionLeft,20,1370,1,26,0,26,0,1,,,,,,,,,,,,,,,,,,,,,,,,,,,,,,,,,,,,,,,
,,,,,,,,08-06-2023_08h26.56.200,HF_wild_card,2022.2.4,MacIntel,59.10165485,610e67c4f2e507632094b24f,64ce5acb97489d65b14ecc7a,64cf4b2fefcac874844c8fed,,,,,,,sngl,resources/DG.BMP,resources/Empty.png,WildCard_NonEx,-0.16125,-0.03625,1,0,0,0.532,optionLeft,45,1415,1,27,0,27,0,1,,,,,,,,,,,,,,,,,,,,,,,,,,,,,,,,,,,,,,,
,,,,,,,,08-06-2023_08h26.56.200,HF_wild_card,2022.2.4,MacIntel,59.10165485,610e67c4f2e507632094b24f,64ce5acb97489d65b14ecc7a,64cf4b2fefcac874844c8fed,,,,,,,decisionTrl,resources/DBN.BMP,resources/DY.BMP,Door2,-0.13,-0.025,1,0,0,0.513,optionLeft,20,1435,1,28,0,28,0,1,,,,,,,,,,,,,,,,,,,,,,,,,,,,,,,,,,,,,,,
,,,,,,,,08-06-2023_08h26.56.200,HF_wild_card,2022.2.4,MacIntel,59.10165485,610e67c4f2e507632094b24f,64ce5acb97489d65b14ecc7a,64cf4b2fefcac874844c8fed,,,,,,,ctch,resources/DP.BMP,resources/DY.BMP,Door4,-0.11,-0.0075,1,0,0,0.546,optionLeft,80,1515,1,29,0,29,0,1,,,,,,,,,,,,,,,,,,,,,,,,,,,,,,,,,,,,,,,
,,,,,,,,08-06-2023_08h26.56.200,HF_wild_card,2022.2.4,MacIntel,59.10165485,610e67c4f2e507632094b24f,64ce5acb97489d65b14ecc7a,64cf4b2fefcac874844c8fed,,,,,,,decisionTrl,resources/DP.BMP,resources/DG.BMP,Door4,-0.1225,-0.02875,1,0,0,0.547,optionLeft,80,1595,1,30,0,30,0,1,,,,,,,,,,,,,,,,,,,,,,,,,,,,,,,,,,,,,,,
,,,,,,,,08-06-2023_08h26.56.200,HF_wild_card,2022.2.4,MacIntel,59.10165485,610e67c4f2e507632094b24f,64ce5acb97489d65b14ecc7a,64cf4b2fefcac874844c8fed,,,,,,,ctch,resources/DY.BMP,resources/DP.BMP,Door1,-0.11375,-0.0175,1,0,0,0.479,optionLeft,30,1625,1,31,0,31,0,1,,,,,,,,,,,,,,,,,,,,,,,,,,,,,,,,,,,,,,,
,,,,,,,,08-06-2023_08h26.56.200,HF_wild_card,2022.2.4,MacIntel,59.10165485,610e67c4f2e507632094b24f,64ce5acb97489d65b14ecc7a,64cf4b2fefcac874844c8fed,,,,,,,sngl,resources/Empty.png,resources/DB.BMP,Door3,0.11,0.01,1,0,0,1.498,optionRight,70,1695,1,32,0,32,0,1,,,,,,,,,,,,,,,,,,,,,,,,,,,,,,,,,,,,,,,
,,,,,,,,08-06-2023_08h26.56.200,HF_wild_card,2022.2.4,MacIntel,59.10165485,610e67c4f2e507632094b24f,64ce5acb97489d65b14ecc7a,64cf4b2fefcac874844c8fed,,,,,,,decisionTrl,resources/DG.BMP,resources/DY.BMP,WildCard_NonEx,-0.11,-0.0175,1,0,0,0.677,optionLeft,55,1750,1,33,0,33,0,1,,,,,,,,,,,,,,,,,,,,,,,,,,,,,,,,,,,,,,,
,,,,,,,,08-06-2023_08h26.56.200,HF_wild_card,2022.2.4,MacIntel,59.10165485,610e67c4f2e507632094b24f,64ce5acb97489d65b14ecc7a,64cf4b2fefcac874844c8fed,,,,,,,decisionTrl,resources/DP.BMP,resources/DB.BMP,Door4,-0.10625,-0.0075,1,0,0,0.58,optionLeft,60,1810,1,34,0,34,0,1,,,,,,,,,,,,,,,,,,,,,,,,,,,,,,,,,,,,,,,
,,,,,,,,08-06-2023_08h26.56.200,HF_wild_card,2022.2.4,MacIntel,59.10165485,610e67c4f2e507632094b24f,64ce5acb97489d65b14ecc7a,64cf4b2fefcac874844c8fed,,,,,,,decisionTrl,resources/DBN.BMP,resources/DY.BMP,Door2,-0.11625,-0.00875,1,0,0,0.83,optionLeft,20,1830,1,35,0,35,0,1,,,,,,,,,,,,,,,,,,,,,,,,,,,,,,,,,,,,,,,
,,,,,,,,08-06-2023_08h26.56.200,HF_wild_card,2022.2.4,MacIntel,59.10165485,610e67c4f2e507632094b24f,64ce5acb97489d65b14ecc7a,64cf4b2fefcac874844c8fed,,,,,,,decisionTrl,resources/DB.BMP,resources/DP.BMP,Door3,-0.11375,-0.01625,1,0,0,0.978,optionLeft,70,1900,1,36,0,36,0,1,,,,,,,,,,,,,,,,,,,,,,,,,,,,,,,,,,,,,,,
,,,,,,,,08-06-2023_08h26.56.200,HF_wild_card,2022.2.4,MacIntel,59.10165485,610e67c4f2e507632094b24f,64ce5acb97489d65b14ecc7a,64cf4b2fefcac874844c8fed,,,,,,,decisionTrl,resources/DB.BMP,resources/DP.BMP,Door3,-0.135,-0.0225,1,0,0,0.563,optionLeft,70,1970,1,37,0,37,0,1,,,,,,,,,,,,,,,,,,,,,,,,,,,,,,,,,,,,,,,
,,,,,,,,08-06-2023_08h26.56.200,HF_wild_card,2022.2.4,MacIntel,59.10165485,610e67c4f2e507632094b24f,64ce5acb97489d65b14ecc7a,64cf4b2fefcac874844c8fed,,,,,,,ctch,resources/DY.BMP,resources/DP.BMP,Door1,-0.16375,-0.03875,1,0,0,0.495,optionLeft,30,2000,1,38,0,38,0,1,,,,,,,,,,,,,,,,,,,,,,,,,,,,,,,,,,,,,,,
,,,,,,,,08-06-2023_08h26.56.200,HF_wild_card,2022.2.4,MacIntel,59.10165485,610e67c4f2e507632094b24f,64ce5acb97489d65b14ecc7a,64cf4b2fefcac874844c8fed,,,,,,,ctch,resources/DBN.BMP,resources/DB.BMP,Door2,-0.08625,-0.0175,1,0,0,0.53,optionLeft,20,2020,1,39,0,39,0,1,,,,,,,,,,,,,,,,,,,,,,,,,,,,,,,,,,,,,,,
,,,,,,,,08-06-2023_08h26.56.200,HF_wild_card,2022.2.4,MacIntel,59.10165485,610e67c4f2e507632094b24f,64ce5acb97489d65b14ecc7a,64cf4b2fefcac874844c8fed,,,,,,,sngl,resources/DG.BMP,resources/Empty.png,WildCard_NonEx,-0.12125,-0.03,1,0,0,0.765,optionLeft,55,2075,1,40,0,40,0,1,,,,,,,,,,,,,,,,,,,,,,,,,,,,,,,,,,,,,,,
,,,,,,,,08-06-2023_08h26.56.200,HF_wild_card,2022.2.4,MacIntel,59.10165485,610e67c4f2e507632094b24f,64ce5acb97489d65b14ecc7a,64cf4b2fefcac874844c8fed,,,,,,,decisionTrl,resources/DY.BMP,resources/DBN.BMP,Door1,-0.12625,-0.01125,1,0,0,0.731,optionLeft,30,2105,1,41,0,41,0,1,,,,,,,,,,,,,,,,,,,,,,,,,,,,,,,,,,,,,,,
,,,,,,,,08-06-2023_08h26.56.200,HF_wild_card,2022.2.4,MacIntel,59.10165485,610e67c4f2e507632094b24f,64ce5acb97489d65b14ecc7a,64cf4b2fefcac874844c8fed,,,,,,,decisionTrl,resources/DG.BMP,resources/DP.BMP,WildCard_NonEx,-0.11375,-0.015,1,0,0,0.665,optionLeft,55,2160,1,42,0,42,0,1,,,,,,,,,,,,,,,,,,,,,,,,,,,,,,,,,,,,,,,
,,,,,,,,08-06-2023_08h26.56.200,HF_wild_card,2022.2.4,MacIntel,59.10165485,610e67c4f2e507632094b24f,64ce5acb97489d65b14ecc7a,64cf4b2fefcac874844c8fed,,,,,,,decisionTrl,resources/DY.BMP,resources/DG.BMP,Door1,-0.11875,-0.0125,1,0,0,0.597,optionLeft,30,2190,1,43,0,43,0,1,,,,,,,,,,,,,,,,,,,,,,,,,,,,,,,,,,,,,,,
,,,,,,,,08-06-2023_08h26.56.200,HF_wild_card,2022.2.4,MacIntel,59.10165485,610e67c4f2e507632094b24f,64ce5acb97489d65b14ecc7a,64cf4b2fefcac874844c8fed,,,,,,,,,,,,,,,,,,,,,,,,,,0,0,0,0,1,,,,,,,,,,,,,,,,,,,,,,,,,,,,,,,,,,
,,,,,,,,08-06-2023_08h26.56.200,HF_wild_card,2022.2.4,MacIntel,59.10165485,610e67c4f2e507632094b24f,64ce5acb97489d65b14ecc7a,64cf4b2fefcac874844c8fed,,,,,,,sngl,resources/DG.BMP,resources/Empty.png,WildCard_NonEx,-0.1175,-0.11375,1,0,0,2.107,optionLeft,45,2235,2,0,0,0,0,1,,,,,,,,,,,,,,,,,,,,,,,,,,,,,,,,,,,,,,,
,,,,,,,,08-06-2023_08h26.56.200,HF_wild_card,2022.2.4,MacIntel,59.10165485,610e67c4f2e507632094b24f,64ce5acb97489d65b14ecc7a,64cf4b2fefcac874844c8fed,,,,,,,decisionTrl,resources/DB.BMP,resources/DP.BMP,Door3,-0.12,-0.02,1,0,0,0.862,optionLeft,70,2305,2,1,0,1,0,1,,,,,,,,,,,,,,,,,,,,,,,,,,,,,,,,,,,,,,,
,,,,,,,,08-06-2023_08h26.56.200,HF_wild_card,2022.2.4,MacIntel,59.10165485,610e67c4f2e507632094b24f,64ce5acb97489d65b14ecc7a,64cf4b2fefcac874844c8fed,,,,,,,sngl,resources/DP.BMP,resources/Empty.png,Door4,-0.12125,-0.01375,1,0,0,0.546,optionLeft,60,2365,2,2,0,2,0,1,,,,,,,,,,,,,,,,,,,,,,,,,,,,,,,,,,,,,,,
,,,,,,,,08-06-2023_08h26.56.200,HF_wild_card,2022.2.4,MacIntel,59.10165485,610e67c4f2e507632094b24f,64ce5acb97489d65b14ecc7a,64cf4b2fefcac874844c8fed,,,,,,,sngl,resources/Empty.png,resources/DB.BMP,Door3,0.14,-0.00625,1,0,0,1.113,optionRight,70,2435,2,3,0,3,0,1,,,,,,,,,,,,,,,,,,,,,,,,,,,,,,,,,,,,,,,
,,,,,,,,08-06-2023_08h26.56.200,HF_wild_card,2022.2.4,MacIntel,59.10165485,610e67c4f2e507632094b24f,64ce5acb97489d65b14ecc7a,64cf4b2fefcac874844c8fed,,,,,,,sngl,resources/DY.BMP,resources/Empty.png,Door1,-0.125,-0.03,1,0,0,0.696,optionLeft,30,2465,2,4,0,4,0,1,,,,,,,,,,,,,,,,,,,,,,,,,,,,,,,,,,,,,,,
,,,,,,,,08-06-2023_08h26.56.200,HF_wild_card,2022.2.4,MacIntel,59.10165485,610e67c4f2e507632094b24f,64ce5acb97489d65b14ecc7a,64cf4b2fefcac874844c8fed,,,,,,,decisionTrl,resources/DG.BMP,resources/DBN.BMP,WildCard_NonEx,-0.12125,-0.00875,1,0,0,0.532,optionLeft,45,2510,2,5,0,5,0,1,,,,,,,,,,,,,,,,,,,,,,,,,,,,,,,,,,,,,,,
,,,,,,,,08-06-2023_08h26.56.200,HF_wild_card,2022.2.4,MacIntel,59.10165485,610e67c4f2e507632094b24f,64ce5acb97489d65b14ecc7a,64cf4b2fefcac874844c8fed,,,,,,,decisionTrl,resources/DBN.BMP,resources/DY.BMP,Door2,-0.13125,-0.01375,1,0,0,0.565,optionLeft,40,2550,2,6,0,6,0,1,,,,,,,,,,,,,,,,,,,,,,,,,,,,,,,,,,,,,,,
,,,,,,,,08-06-2023_08h26.56.200,HF_wild_card,2022.2.4,MacIntel,59.10165485,610e67c4f2e507632094b24f,64ce5acb97489d65b14ecc7a,64cf4b2fefcac874844c8fed,,,,,,,sngl,resources/DBN.BMP,resources/Empty.png,Door2,-0.12625,-0.00625,1,0,0,0.799,optionLeft,20,2570,2,7,0,7,0,1,,,,,,,,,,,,,,,,,,,,,,,,,,,,,,,,,,,,,,,
,,,,,,,,08-06-2023_08h26.56.200,HF_wild_card,2022.2.4,MacIntel,59.10165485,610e67c4f2e507632094b24f,64ce5acb97489d65b14ecc7a,64cf4b2fefcac874844c8fed,,,,,,,decisionTrl,resources/DG.BMP,resources/DY.BMP,Door1,0.1625,-0.00375,1,0,0,0.665,optionRight,30,2600,2,8,0,8,0,1,,,,,,,,,,,,,,,,,,,,,,,,,,,,,,,,,,,,,,,
,,,,,,,,08-06-2023_08h26.56.200,HF_wild_card,2022.2.4,MacIntel,59.10165485,610e67c4f2e507632094b24f,64ce5acb97489d65b14ecc7a,64cf4b2fefcac874844c8fed,,,,,,,ctch,resources/DP.BMP,resources/DY.BMP,Door1,0.12375,-0.0025,1,0,0,0.731,optionRight,30,2630,2,9,0,9,0,1,,,,,,,,,,,,,,,,,,,,,,,,,,,,,,,,,,,,,,,
,,,,,,,,08-06-2023_08h26.56.200,HF_wild_card,2022.2.4,MacIntel,59.10165485,610e67c4f2e507632094b24f,64ce5acb97489d65b14ecc7a,64cf4b2fefcac874844c8fed,,,,,,,decisionTrl,resources/DBN.BMP,resources/DY.BMP,Door1,0.12375,-0.00625,1,0,0,0.631,optionRight,30,2660,2,10,0,10,0,1,,,,,,,,,,,,,,,,,,,,,,,,,,,,,,,,,,,,,,,
,,,,,,,,08-06-2023_08h26.56.200,HF_wild_card,2022.2.4,MacIntel,59.10165485,610e67c4f2e507632094b24f,64ce5acb97489d65b14ecc7a,64cf4b2fefcac874844c8fed,,,,,,,ctch,resources/DP.BMP,resources/DY.BMP,Door1,0.1275,-0.00625,1,0,0,1.031,optionRight,30,2690,2,11,0,11,0,1,,,,,,,,,,,,,,,,,,,,,,,,,,,,,,,,,,,,,,,
,,,,,,,,08-06-2023_08h26.56.200,HF_wild_card,2022.2.4,MacIntel,59.10165485,610e67c4f2e507632094b24f,64ce5acb97489d65b14ecc7a,64cf4b2fefcac874844c8fed,,,,,,,ctch,resources/DBN.BMP,resources/DB.BMP,Door2,-0.12,-0.02625,1,0,0,0.982,optionLeft,20,2710,2,12,0,12,0,1,,,,,,,,,,,,,,,,,,,,,,,,,,,,,,,,,,,,,,,
,,,,,,,,08-06-2023_08h26.56.200,HF_wild_card,2022.2.4,MacIntel,59.10165485,610e67c4f2e507632094b24f,64ce5acb97489d65b14ecc7a,64cf4b2fefcac874844c8fed,,,,,,,decisionTrl,resources/DBN.BMP,resources/DY.BMP,Door2,-0.115,-0.01625,1,0,0,0.595,optionLeft,40,2750,2,13,0,13,0,1,,,,,,,,,,,,,,,,,,,,,,,,,,,,,,,,,,,,,,,
,,,,,,,,08-06-2023_08h26.56.200,HF_wild_card,2022.2.4,MacIntel,59.10165485,610e67c4f2e507632094b24f,64ce5acb97489d65b14ecc7a,64cf4b2fefcac874844c8fed,,,,,,,sngl,resources/Empty.png,resources/DG.BMP,WildCard_NonEx,0.1325,-0.0025,1,0,0,1.296,optionRight,45,2795,2,14,0,14,0,1,,,,,,,,,,,,,,,,,,,,,,,,,,,,,,,,,,,,,,,
,,,,,,,,08-06-2023_08h26.56.200,HF_wild_card,2022.2.4,MacIntel,59.10165485,610e67c4f2e507632094b24f,64ce5acb97489d65b14ecc7a,64cf4b2fefcac874844c8fed,,,,,,,decisionTrl,resources/DP.BMP,resources/DB.BMP,Door3,0.15,0.00375,1,0,0,0.73,optionRight,70,2865,2,15,0,15,0,1,,,,,,,,,,,,,,,,,,,,,,,,,,,,,,,,,,,,,,,
,,,,,,,,08-06-2023_08h26.56.200,HF_wild_card,2022.2.4,MacIntel,59.10165485,610e67c4f2e507632094b24f,64ce5acb97489d65b14ecc7a,64cf4b2fefcac874844c8fed,,,,,,,sngl,resources/DB.BMP,resources/Empty.png,Door3,-0.135,-0.025,1,0,0,1.016,optionLeft,70,2935,2,16,0,16,0,1,,,,,,,,,,,,,,,,,,,,,,,,,,,,,,,,,,,,,,,
,,,,,,,,08-06-2023_08h26.56.200,HF_wild_card,2022.2.4,MacIntel,59.10165485,610e67c4f2e507632094b24f,64ce5acb97489d65b14ecc7a,64cf4b2fefcac874844c8fed,,,,,,,decisionTrl,resources/DP.BMP,resources/DB.BMP,Door3,0.17375,0,1,0,0,0.881,optionRight,70,3005,2,17,0,17,0,1,,,,,,,,,,,,,,,,,,,,,,,,,,,,,,,,,,,,,,,
,,,,,,,,08-06-2023_08h26.56.200,HF_wild_card,2022.2.4,MacIntel,59.10165485,610e67c4f2e507632094b24f,64ce5acb97489d65b14ecc7a,64cf4b2fefcac874844c8fed,,,,,,,ctch,resources/DB.BMP,resources/DBN.BMP,Door3,-0.18,-0.0475,1,0,0,0.698,optionLeft,70,3075,2,18,0,18,0,1,,,,,,,,,,,,,,,,,,,,,,,,,,,,,,,,,,,,,,,
,,,,,,,,08-06-2023_08h26.56.200,HF_wild_card,2022.2.4,MacIntel,59.10165485,610e67c4f2e507632094b24f,64ce5acb97489d65b14ecc7a,64cf4b2fefcac874844c8fed,,,,,,,decisionTrl,resources/DP.BMP,resources/DB.BMP,Door3,0.18375,-0.02625,1,0,0,0.812,optionRight,70,3145,2,19,0,19,0,1,,,,,,,,,,,,,,,,,,,,,,,,,,,,,,,,,,,,,,,
,,,,,,,,08-06-2023_08h26.56.200,HF_wild_card,2022.2.4,MacIntel,59.10165485,610e67c4f2e507632094b24f,64ce5acb97489d65b14ecc7a,64cf4b2fefcac874844c8fed,,,,,,,sngl,resources/Empty.png,resources/DY.BMP,Door1,0.12,-0.00875,1,0,0,0.831,optionRight,30,3175,2,20,0,20,0,1,,,,,,,,,,,,,,,,,,,,,,,,,,,,,,,,,,,,,,,
,,,,,,,,08-06-2023_08h26.56.200,HF_wild_card,2022.2.4,MacIntel,59.10165485,610e67c4f2e507632094b24f,64ce5acb97489d65b14ecc7a,64cf4b2fefcac874844c8fed,,,,,,,decisionTrl,resources/DB.BMP,resources/DG.BMP,Door3,-0.11125,-0.01625,1,0,0,0.817,optionLeft,70,3245,2,21,0,21,0,1,,,,,,,,,,,,,,,,,,,,,,,,,,,,,,,,,,,,,,,
,,,,,,,,08-06-2023_08h26.56.200,HF_wild_card,2022.2.4,MacIntel,59.10165485,610e67c4f2e507632094b24f,64ce5acb97489d65b14ecc7a,64cf4b2fefcac874844c8fed,,,,,,,decisionTrl,resources/DG.BMP,resources/DP.BMP,WildCard_NonEx,-0.1175,-0.00875,1,0,0,1.53,optionLeft,45,3290,2,22,0,22,0,1,,,,,,,,,,,,,,,,,,,,,,,,,,,,,,,,,,,,,,,
,,,,,,,,08-06-2023_08h26.56.200,HF_wild_card,2022.2.4,MacIntel,59.10165485,610e67c4f2e507632094b24f,64ce5acb97489d65b14ecc7a,64cf4b2fefcac874844c8fed,,,,,,,ctch,resources/DB.BMP,resources/DBN.BMP,Door3,-0.14625,-0.01875,1,0,0,0.765,optionLeft,70,3360,2,23,0,23,0,1,,,,,,,,,,,,,,,,,,,,,,,,,,,,,,,,,,,,,,,
,,,,,,,,08-06-2023_08h26.56.200,HF_wild_card,2022.2.4,MacIntel,59.10165485,610e67c4f2e507632094b24f,64ce5acb97489d65b14ecc7a,64cf4b2fefcac874844c8fed,,,,,,,sngl,resources/Empty.png,resources/DP.BMP,Door4,0.17125,-0.005,1,0,0,0.88,optionRight,80,3440,2,24,0,24,0,1,,,,,,,,,,,,,,,,,,,,,,,,,,,,,,,,,,,,,,,
,,,,,,,,08-06-2023_08h26.56.200,HF_wild_card,2022.2.4,MacIntel,59.10165485,610e67c4f2e507632094b24f,64ce5acb97489d65b14ecc7a,64cf4b2fefcac874844c8fed,,,,,,,sngl,resources/Empty.png,resources/DG.BMP,WildCard_NonEx,0.12875,-0.01,1,0,0,0.849,optionRight,55,3495,2,25,0,25,0,1,,,,,,,,,,,,,,,,,,,,,,,,,,,,,,,,,,,,,,,
,,,,,,,,08-06-2023_08h26.56.200,HF_wild_card,2022.2.4,MacIntel,59.10165485,610e67c4f2e507632094b24f,64ce5acb97489d65b14ecc7a,64cf4b2fefcac874844c8fed,,,,,,,sngl,resources/DG.BMP,resources/Empty.png,WildCard_NonEx,-0.12375,-0.0325,1,0,0,0.83,optionLeft,55,3550,2,26,0,26,0,1,,,,,,,,,,,,,,,,,,,,,,,,,,,,,,,,,,,,,,,
,,,,,,,,08-06-2023_08h26.56.200,HF_wild_card,2022.2.4,MacIntel,59.10165485,610e67c4f2e507632094b24f,64ce5acb97489d65b14ecc7a,64cf4b2fefcac874844c8fed,,,,,,,decisionTrl,resources/DBN.BMP,resources/DG.BMP,WildCard_NonEx,0.15375,-0.00625,1,0,0,0.962,optionRight,45,3595,2,27,0,27,0,1,,,,,,,,,,,,,,,,,,,,,,,,,,,,,,,,,,,,,,,
,,,,,,,,08-06-2023_08h26.56.200,HF_wild_card,2022.2.4,MacIntel,59.10165485,610e67c4f2e507632094b24f,64ce5acb97489d65b14ecc7a,64cf4b2fefcac874844c8fed,,,,,,,decisionTrl,resources/DB.BMP,resources/DP.BMP,Door4,0.165,-0.01625,1,0,0,1.863,optionRight,60,3655,2,28,0,28,0,1,,,,,,,,,,,,,,,,,,,,,,,,,,,,,,,,,,,,,,,
,,,,,,,,08-06-2023_08h26.56.200,HF_wild_card,2022.2.4,MacIntel,59.10165485,610e67c4f2e507632094b24f,64ce5acb97489d65b14ecc7a,64cf4b2fefcac874844c8fed,,,,,,,decisionTrl,resources/DP.BMP,resources/DG.BMP,Door4,-0.11,-0.00625,1,0,0,0.78,optionLeft,60,3715,2,29,0,29,0,1,,,,,,,,,,,,,,,,,,,,,,,,,,,,,,,,,,,,,,,
,,,,,,,,08-06-2023_08h26.56.200,HF_wild_card,2022.2.4,MacIntel,59.10165485,610e67c4f2e507632094b24f,64ce5acb97489d65b14ecc7a,64cf4b2fefcac874844c8fed,,,,,,,decisionTrl,resources/DB.BMP,resources/DP.BMP,Door3,-0.1475,-0.03125,1,0,0,0.866,optionLeft,70,3785,2,30,0,30,0,1,,,,,,,,,,,,,,,,,,,,,,,,,,,,,,,,,,,,,,,
,,,,,,,,08-06-2023_08h26.56.200,HF_wild_card,2022.2.4,MacIntel,59.10165485,610e67c4f2e507632094b24f,64ce5acb97489d65b14ecc7a,64cf4b2fefcac874844c8fed,,,,,,,sngl,resources/Empty.png,resources/DBN.BMP,Door2,0.15,0.01375,1,0,0,0.764,optionRight,40,3825,2,31,0,31,0,1,,,,,,,,,,,,,,,,,,,,,,,,,,,,,,,,,,,,,,,
,,,,,,,,08-06-2023_08h26.56.200,HF_wild_card,2022.2.4,MacIntel,59.10165485,610e67c4f2e507632094b24f,64ce5acb97489d65b14ecc7a,64cf4b2fefcac874844c8fed,,,,,,,ctch,resources/DY.BMP,resources/DP.BMP,Door4,0.1125,-0.005,1,0,0,1.898,optionRight,80,3905,2,32,0,32,0,1,,,,,,,,,,,,,,,,,,,,,,,,,,,,,,,,,,,,,,,
,,,,,,,,08-06-2023_08h26.56.200,HF_wild_card,2022.2.4,MacIntel,59.10165485,610e67c4f2e507632094b24f,64ce5acb97489d65b14ecc7a,64cf4b2fefcac874844c8fed,,,,,,,decisionTrl,resources/DB.BMP,resources/DP.BMP,Door4,0.1875,0.0275,1,0,0,0.814,optionRight,80,3985,2,33,0,33,0,1,,,,,,,,,,,,,,,,,,,,,,,,,,,,,,,,,,,,,,,
,,,,,,,,08-06-2023_08h26.56.200,HF_wild_card,2022.2.4,MacIntel,59.10165485,610e67c4f2e507632094b24f,64ce5acb97489d65b14ecc7a,64cf4b2fefcac874844c8fed,,,,,,,ctch,resources/DY.BMP,resources/DP.BMP,Door4,0.115,0.01125,1,0,0,0.714,optionRight,80,4065,2,34,0,34,0,1,,,,,,,,,,,,,,,,,,,,,,,,,,,,,,,,,,,,,,,
,,,,,,,,08-06-2023_08h26.56.200,HF_wild_card,2022.2.4,MacIntel,59.10165485,610e67c4f2e507632094b24f,64ce5acb97489d65b14ecc7a,64cf4b2fefcac874844c8fed,,,,,,,ctch,resources/DBN.BMP,resources/DB.BMP,Door3,0.11125,0.005,1,0,0,1.098,optionRight,70,4135,2,35,0,35,0,1,,,,,,,,,,,,,,,,,,,,,,,,,,,,,,,,,,,,,,,
,,,,,,,,08-06-2023_08h26.56.200,HF_wild_card,2022.2.4,MacIntel,59.10165485,610e67c4f2e507632094b24f,64ce5acb97489d65b14ecc7a,64cf4b2fefcac874844c8fed,,,,,,,decisionTrl,resources/DY.BMP,resources/DBN.BMP,Door1,-0.11875,0,1,0,0,2.048,optionLeft,30,4165,2,36,0,36,0,1,,,,,,,,,,,,,,,,,,,,,,,,,,,,,,,,,,,,,,,
,,,,,,,,08-06-2023_08h26.56.200,HF_wild_card,2022.2.4,MacIntel,59.10165485,610e67c4f2e507632094b24f,64ce5acb97489d65b14ecc7a,64cf4b2fefcac874844c8fed,,,,,,,decisionTrl,resources/DY.BMP,resources/DBN.BMP,Door1,-0.115,0,1,0,0,0.781,optionLeft,30,4195,2,37,0,37,0,1,,,,,,,,,,,,,,,,,,,,,,,,,,,,,,,,,,,,,,,
,,,,,,,,08-06-2023_08h26.56.200,HF_wild_card,2022.2.4,MacIntel,59.10165485,610e67c4f2e507632094b24f,64ce5acb97489d65b14ecc7a,64cf4b2fefcac874844c8fed,,,,,,,decisionTrl,resources/DG.BMP,resources/DB.BMP,Door3,0.15625,0.0125,1,0,0,1.062,optionRight,70,4265,2,38,0,38,0,1,,,,,,,,,,,,,,,,,,,,,,,,,,,,,,,,,,,,,,,
,,,,,,,,08-06-2023_08h26.56.200,HF_wild_card,2022.2.4,MacIntel,59.10165485,610e67c4f2e507632094b24f,64ce5acb97489d65b14ecc7a,64cf4b2fefcac874844c8fed,,,,,,,decisionTrl,resources/DY.BMP,resources/DBN.BMP,Door1,-0.1425,-0.0125,1,0,0,1.113,optionLeft,30,4295,2,39,0,39,0,1,,,,,,,,,,,,,,,,,,,,,,,,,,,,,,,,,,,,,,,
,,,,,,,,08-06-2023_08h26.56.200,HF_wild_card,2022.2.4,MacIntel,59.10165485,610e67c4f2e507632094b24f,64ce5acb97489d65b14ecc7a,64cf4b2fefcac874844c8fed,,,,,,,decisionTrl,resources/DY.BMP,resources/DBN.BMP,Door1,-0.10625,-0.01375,1,0,0,1.055,optionLeft,30,4325,2,40,0,40,0,1,,,,,,,,,,,,,,,,,,,,,,,,,,,,,,,,,,,,,,,
,,,,,,,,08-06-2023_08h26.56.200,HF_wild_card,2022.2.4,MacIntel,59.10165485,610e67c4f2e507632094b24f,64ce5acb97489d65b14ecc7a,64cf4b2fefcac874844c8fed,,,,,,,decisionTrl,resources/DY.BMP,resources/DG.BMP,Door1,-0.12625,-0.0225,1,0,0,1.165,optionLeft,30,4355,2,41,0,41,0,1,,,,,,,,,,,,,,,,,,,,,,,,,,,,,,,,,,,,,,,
,,,,,,,,08-06-2023_08h26.56.200,HF_wild_card,2022.2.4,MacIntel,59.10165485,610e67c4f2e507632094b24f,64ce5acb97489d65b14ecc7a,64cf4b2fefcac874844c8fed,,,,,,,decisionTrl,resources/DP.BMP,resources/DB.BMP,Door3,0.11125,0.005,1,0,0,0.926,optionRight,70,4425,2,42,0,42,0,1,,,,,,,,,,,,,,,,,,,,,,,,,,,,,,,,,,,,,,,
,,,,,,,,08-06-2023_08h26.56.200,HF_wild_card,2022.2.4,MacIntel,59.10165485,610e67c4f2e507632094b24f,64ce5acb97489d65b14ecc7a,64cf4b2fefcac874844c8fed,,,,,,,decisionTrl,resources/DBN.BMP,resources/DY.BMP,Door1,0.14125,0.015,1,0,0,1.314,optionRight,30,4455,2,43,0,43,0,1,,,,,,,,,,,,,,,,,,,,,,,,,,,,,,,,,,,,,,,
,,,,,,,,08-06-2023_08h26.56.200,HF_wild_card,2022.2.4,MacIntel,59.10165485,610e67c4f2e507632094b24f,64ce5acb97489d65b14ecc7a,64cf4b2fefcac874844c8fed,,,,,,,,,,,,,,,,,,,,,,,,,,1,0,1,0,1,,,,,,,,,,,,,,,,,,,,,,,,,,,,,,,,,,
,,,,,,,,08-06-2023_08h26.56.200,HF_wild_card,2022.2.4,MacIntel,59.10165485,610e67c4f2e507632094b24f,64ce5acb97489d65b14ecc7a,64cf4b2fefcac874844c8fed,,,,,,,decisionTrl,resources/DB.BMP,resources/DP.BMP,Door3,-0.12125,-0.055,1,0,0,1.095,optionLeft,70,4525,3,0,0,0,0,1,,,,,,,,,,,,,,,,,,,,,,,,,,,,,,,,,,,,,,,
,,,,,,,,08-06-2023_08h26.56.200,HF_wild_card,2022.2.4,MacIntel,59.10165485,610e67c4f2e507632094b24f,64ce5acb97489d65b14ecc7a,64cf4b2fefcac874844c8fed,,,,,,,decisionTrl,resources/DY.BMP,resources/DBN.BMP,Door1,-0.1275,-0.015,1,0,0,0.948,optionLeft,30,4555,3,1,0,1,0,1,,,,,,,,,,,,,,,,,,,,,,,,,,,,,,,,,,,,,,,
,,,,,,,,08-06-2023_08h26.56.200,HF_wild_card,2022.2.4,MacIntel,59.10165485,610e67c4f2e507632094b24f,64ce5acb97489d65b14ecc7a,64cf4b2fefcac874844c8fed,,,,,,,sngl,resources/Empty.png,resources/DG.BMP,WildCard_NonEx,0.13625,0.0225,1,0,0,1.363,optionRight,45,4600,3,2,0,2,0,1,,,,,,,,,,,,,,,,,,,,,,,,,,,,,,,,,,,,,,,
,,,,,,,,08-06-2023_08h26.56.200,HF_wild_card,2022.2.4,MacIntel,59.10165485,610e67c4f2e507632094b24f,64ce5acb97489d65b14ecc7a,64cf4b2fefcac874844c8fed,,,,,,,ctch,resources/DP.BMP,resources/DY.BMP,Door4,-0.13625,-0.0275,1,0,0,0.814,optionLeft,80,4680,3,3,0,3,0,1,,,,,,,,,,,,,,,,,,,,,,,,,,,,,,,,,,,,,,,
,,,,,,,,08-06-2023_08h26.56.200,HF_wild_card,2022.2.4,MacIntel,59.10165485,610e67c4f2e507632094b24f,64ce5acb97489d65b14ecc7a,64cf4b2fefcac874844c8fed,,,,,,,decisionTrl,resources/DG.BMP,resources/DB.BMP,Door3,0.1275,0.00875,1,0,0,0.98,optionRight,70,4750,3,4,0,4,0,1,,,,,,,,,,,,,,,,,,,,,,,,,,,,,,,,,,,,,,,
,,,,,,,,08-06-2023_08h26.56.200,HF_wild_card,2022.2.4,MacIntel,59.10165485,610e67c4f2e507632094b24f,64ce5acb97489d65b14ecc7a,64cf4b2fefcac874844c8fed,,,,,,,sngl,resources/Empty.png,resources/DY.BMP,Door1,0.105,0.00375,1,0,0,1.095,optionRight,30,4780,3,5,0,5,0,1,,,,,,,,,,,,,,,,,,,,,,,,,,,,,,,,,,,,,,,
,,,,,,,,08-06-2023_08h26.56.200,HF_wild_card,2022.2.4,MacIntel,59.10165485,610e67c4f2e507632094b24f,64ce5acb97489d65b14ecc7a,64cf4b2fefcac874844c8fed,,,,,,,decisionTrl,resources/DY.BMP,resources/DG.BMP,WildCard_NonEx,0.14125,-0.00125,1,0,0,1.53,optionRight,45,4825,3,6,0,6,0,1,,,,,,,,,,,,,,,,,,,,,,,,,,,,,,,,,,,,,,,
,,,,,,,,08-06-2023_08h26.56.200,HF_wild_card,2022.2.4,MacIntel,59.10165485,610e67c4f2e507632094b24f,64ce5acb97489d65b14ecc7a,64cf4b2fefcac874844c8fed,,,,,,,decisionTrl,resources/DP.BMP,resources/DG.BMP,Door4,-0.1175,-0.01625,1,0,0,1.58,optionLeft,80,4905,3,7,0,7,0,1,,,,,,,,,,,,,,,,,,,,,,,,,,,,,,,,,,,,,,,
,,,,,,,,08-06-2023_08h26.56.200,HF_wild_card,2022.2.4,MacIntel,59.10165485,610e67c4f2e507632094b24f,64ce5acb97489d65b14ecc7a,64cf4b2fefcac874844c8fed,,,,,,,decisionTrl,resources/DBN.BMP,resources/DY.BMP,Door1,0.17625,0.01625,1,0,0,1.216,optionRight,30,4935,3,8,0,8,0,1,,,,,,,,,,,,,,,,,,,,,,,,,,,,,,,,,,,,,,,
,,,,,,,,08-06-2023_08h26.56.200,HF_wild_card,2022.2.4,MacIntel,59.10165485,610e67c4f2e507632094b24f,64ce5acb97489d65b14ecc7a,64cf4b2fefcac874844c8fed,,,,,,,sngl,resources/DBN.BMP,resources/Empty.png,Door2,-0.13,-0.0025,1,0,0,0.914,optionLeft,40,4975,3,9,0,9,0,1,,,,,,,,,,,,,,,,,,,,,,,,,,,,,,,,,,,,,,,
,,,,,,,,08-06-2023_08h26.56.200,HF_wild_card,2022.2.4,MacIntel,59.10165485,610e67c4f2e507632094b24f,64ce5acb97489d65b14ecc7a,64cf4b2fefcac874844c8fed,,,,,,,decisionTrl,resources/DB.BMP,resources/DP.BMP,Door4,0.1425,0.03625,1,0,0,2.281,optionRight,60,5035,3,10,0,10,0,1,,,,,,,,,,,,,,,,,,,,,,,,,,,,,,,,,,,,,,,
,,,,,,,,08-06-2023_08h26.56.200,HF_wild_card,2022.2.4,MacIntel,59.10165485,610e67c4f2e507632094b24f,64ce5acb97489d65b14ecc7a,64cf4b2fefcac874844c8fed,,,,,,,decisionTrl,resources/DP.BMP,resources/DB.BMP,Door4,-0.1925,-0.03125,1,0,0,1.966,optionLeft,60,5095,3,11,0,11,0,1,,,,,,,,,,,,,,,,,,,,,,,,,,,,,,,,,,,,,,,
,,,,,,,,08-06-2023_08h26.56.200,HF_wild_card,2022.2.4,MacIntel,59.10165485,610e67c4f2e507632094b24f,64ce5acb97489d65b14ecc7a,64cf4b2fefcac874844c8fed,,,,,,,decisionTrl,resources/DY.BMP,resources/DBN.BMP,Door1,-0.1425,-0.01125,1,0,0,0.965,optionLeft,30,5125,3,12,0,12,0,1,,,,,,,,,,,,,,,,,,,,,,,,,,,,,,,,,,,,,,,
,,,,,,,,08-06-2023_08h26.56.200,HF_wild_card,2022.2.4,MacIntel,59.10165485,610e67c4f2e507632094b24f,64ce5acb97489d65b14ecc7a,64cf4b2fefcac874844c8fed,,,,,,,sngl,resources/Empty.png,resources/DBN.BMP,Door2,0.1125,0.00125,1,0,0,0.78,optionRight,20,5145,3,13,0,13,0,1,,,,,,,,,,,,,,,,,,,,,,,,,,,,,,,,,,,,,,,
,,,,,,,,08-06-2023_08h26.56.200,HF_wild_card,2022.2.4,MacIntel,59.10165485,610e67c4f2e507632094b24f,64ce5acb97489d65b14ecc7a,64cf4b2fefcac874844c8fed,,,,,,,decisionTrl,resources/DY.BMP,resources/DBN.BMP,Door1,-0.13,-0.0125,1,0,0,0.781,optionLeft,30,5175,3,14,0,14,0,1,,,,,,,,,,,,,,,,,,,,,,,,,,,,,,,,,,,,,,,
,,,,,,,,08-06-2023_08h26.56.200,HF_wild_card,2022.2.4,MacIntel,59.10165485,610e67c4f2e507632094b24f,64ce5acb97489d65b14ecc7a,64cf4b2fefcac874844c8fed,,,,,,,decisionTrl,resources/DBN.BMP,resources/DY.BMP,Door1,0.1175,0.01125,1,0,0,1.299,optionRight,30,5205,3,15,0,15,0,1,,,,,,,,,,,,,,,,,,,,,,,,,,,,,,,,,,,,,,,
,,,,,,,,08-06-2023_08h26.56.200,HF_wild_card,2022.2.4,MacIntel,59.10165485,610e67c4f2e507632094b24f,64ce5acb97489d65b14ecc7a,64cf4b2fefcac874844c8fed,,,,,,,decisionTrl,resources/DG.BMP,resources/DY.BMP,WildCard_NonEx,-0.11625,-0.01,1,0,0,0.845,optionLeft,45,5250,3,16,0,16,0,1,,,,,,,,,,,,,,,,,,,,,,,,,,,,,,,,,,,,,,,
,,,,,,,,08-06-2023_08h26.56.200,HF_wild_card,2022.2.4,MacIntel,59.10165485,610e67c4f2e507632094b24f,64ce5acb97489d65b14ecc7a,64cf4b2fefcac874844c8fed,,,,,,,decisionTrl,resources/DBN.BMP,resources/DY.BMP,Door1,0.11375,-0.0075,1,0,0,1.012,optionRight,30,5280,3,17,0,17,0,1,,,,,,,,,,,,,,,,,,,,,,,,,,,,,,,,,,,,,,,
,,,,,,,,08-06-2023_08h26.56.200,HF_wild_card,2022.2.4,MacIntel,59.10165485,610e67c4f2e507632094b24f,64ce5acb97489d65b14ecc7a,64cf4b2fefcac874844c8fed,,,,,,,decisionTrl,resources/DB.BMP,resources/DG.BMP,Door3,-0.10125,-0.01875,1,0,0,1.03,optionLeft,70,5350,3,18,0,18,0,1,,,,,,,,,,,,,,,,,,,,,,,,,,,,,,,,,,,,,,,
,,,,,,,,08-06-2023_08h26.56.200,HF_wild_card,2022.2.4,MacIntel,59.10165485,610e67c4f2e507632094b24f,64ce5acb97489d65b14ecc7a,64cf4b2fefcac874844c8fed,,,,,,,decisionTrl,resources/DP.BMP,resources/DB.BMP,Door3,0.18125,-0.005,1,0,0,0.948,optionRight,70,5420,3,19,0,19,0,1,,,,,,,,,,,,,,,,,,,,,,,,,,,,,,,,,,,,,,,
,,,,,,,,08-06-2023_08h26.56.200,HF_wild_card,2022.2.4,MacIntel,59.10165485,610e67c4f2e507632094b24f,64ce5acb97489d65b14ecc7a,64cf4b2fefcac874844c8fed,,,,,,,sngl,resources/Empty.png,resources/DP.BMP,Door4,0.1125,-0.005,1,0,0,0.896,optionRight,60,5480,3,20,0,20,0,1,,,,,,,,,,,,,,,,,,,,,,,,,,,,,,,,,,,,,,,
,,,,,,,,08-06-2023_08h26.56.200,HF_wild_card,2022.2.4,MacIntel,59.10165485,610e67c4f2e507632094b24f,64ce5acb97489d65b14ecc7a,64cf4b2fefcac874844c8fed,,,,,,,decisionTrl,resources/DY.BMP,resources/DBN.BMP,Door2,0.13125,0.0075,1,0,0,2.249,optionRight,40,5520,3,21,0,21,0,1,,,,,,,,,,,,,,,,,,,,,,,,,,,,,,,,,,,,,,,
,,,,,,,,08-06-2023_08h26.56.200,HF_wild_card,2022.2.4,MacIntel,59.10165485,610e67c4f2e507632094b24f,64ce5acb97489d65b14ecc7a,64cf4b2fefcac874844c8fed,,,,,,,decisionTrl,resources/DG.BMP,resources/DBN.BMP,WildCard_NonEx,-0.125,-0.0225,1,0,0,1.08,optionLeft,55,5575,3,22,0,22,0,1,,,,,,,,,,,,,,,,,,,,,,,,,,,,,,,,,,,,,,,
,,,,,,,,08-06-2023_08h26.56.200,HF_wild_card,2022.2.4,MacIntel,59.10165485,610e67c4f2e507632094b24f,64ce5acb97489d65b14ecc7a,64cf4b2fefcac874844c8fed,,,,,,,decisionTrl,resources/DB.BMP,resources/DP.BMP,Door4,0.12125,-0.01,1,0,0,1.616,optionRight,60,5635,3,23,0,23,0,1,,,,,,,,,,,,,,,,,,,,,,,,,,,,,,,,,,,,,,,
,,,,,,,,08-06-2023_08h26.56.200,HF_wild_card,2022.2.4,MacIntel,59.10165485,610e67c4f2e507632094b24f,64ce5acb97489d65b14ecc7a,64cf4b2fefcac874844c8fed,,,,,,,ctch,resources/DP.BMP,resources/DY.BMP,Door4,-0.11625,-0.015,1,0,0,0.981,optionLeft,80,5715,3,24,0,24,0,1,,,,,,,,,,,,,,,,,,,,,,,,,,,,,,,,,,,,,,,
,,,,,,,,08-06-2023_08h26.56.200,HF_wild_card,2022.2.4,MacIntel,59.10165485,610e67c4f2e507632094b24f,64ce5acb97489d65b14ecc7a,64cf4b2fefcac874844c8fed,,,,,,,sngl,resources/DP.BMP,resources/Empty.png,Door4,-0.1225,-0.02375,1,0,0,0.848,optionLeft,80,5795,3,25,0,25,0,1,,,,,,,,,,,,,,,,,,,,,,,,,,,,,,,,,,,,,,,
,,,,,,,,08-06-2023_08h26.56.200,HF_wild_card,2022.2.4,MacIntel,59.10165485,610e67c4f2e507632094b24f,64ce5acb97489d65b14ecc7a,64cf4b2fefcac874844c8fed,,,,,,,decisionTrl,resources/DG.BMP,resources/DP.BMP,Door4,0.125,0,1,0,0,1.765,optionRight,60,5855,3,26,0,26,0,1,,,,,,,,,,,,,,,,,,,,,,,,,,,,,,,,,,,,,,,
,,,,,,,,08-06-2023_08h26.56.200,HF_wild_card,2022.2.4,MacIntel,59.10165485,610e67c4f2e507632094b24f,64ce5acb97489d65b14ecc7a,64cf4b2fefcac874844c8fed,,,,,,,sngl,resources/DG.BMP,resources/Empty.png,WildCard_NonEx,-0.13625,-0.0125,1,0,0,0.733,optionLeft,45,5900,3,27,0,27,0,1,,,,,,,,,,,,,,,,,,,,,,,,,,,,,,,,,,,,,,,
,,,,,,,,08-06-2023_08h26.56.200,HF_wild_card,2022.2.4,MacIntel,59.10165485,610e67c4f2e507632094b24f,64ce5acb97489d65b14ecc7a,64cf4b2fefcac874844c8fed,,,,,,,sngl,resources/DG.BMP,resources/Empty.png,WildCard_NonEx,-0.1225,-0.01625,1,0,0,0.814,optionLeft,55,5955,3,28,0,28,0,1,,,,,,,,,,,,,,,,,,,,,,,,,,,,,,,,,,,,,,,
,,,,,,,,08-06-2023_08h26.56.200,HF_wild_card,2022.2.4,MacIntel,59.10165485,610e67c4f2e507632094b24f,64ce5acb97489d65b14ecc7a,64cf4b2fefcac874844c8fed,,,,,,,decisionTrl,resources/DP.BMP,resources/DB.BMP,Door4,-0.11375,-0.01125,1,0,0,1.679,optionLeft,80,6035,3,29,0,29,0,1,,,,,,,,,,,,,,,,,,,,,,,,,,,,,,,,,,,,,,,
,,,,,,,,08-06-2023_08h26.56.200,HF_wild_card,2022.2.4,MacIntel,59.10165485,610e67c4f2e507632094b24f,64ce5acb97489d65b14ecc7a,64cf4b2fefcac874844c8fed,,,,,,,ctch,resources/DY.BMP,resources/DP.BMP,Door4,0.12125,-0.00875,1,0,0,1.915,optionRight,60,6095,3,30,0,30,0,1,,,,,,,,,,,,,,,,,,,,,,,,,,,,,,,,,,,,,,,
,,,,,,,,08-06-2023_08h26.56.200,HF_wild_card,2022.2.4,MacIntel,59.10165485,610e67c4f2e507632094b24f,64ce5acb97489d65b14ecc7a,64cf4b2fefcac874844c8fed,,,,,,,decisionTrl,resources/DBN.BMP,resources/DG.BMP,Door2,-0.11875,-0.02125,1,0,0,1.699,optionLeft,40,6135,3,31,0,31,0,1,,,,,,,,,,,,,,,,,,,,,,,,,,,,,,,,,,,,,,,
,,,,,,,,08-06-2023_08h26.56.200,HF_wild_card,2022.2.4,MacIntel,59.10165485,610e67c4f2e507632094b24f,64ce5acb97489d65b14ecc7a,64cf4b2fefcac874844c8fed,,,,,,,ctch,resources/DY.BMP,resources/DP.BMP,Door1,-0.13,-0.04,1,0,0,0.998,optionLeft,30,6165,3,32,0,32,0,1,,,,,,,,,,,,,,,,,,,,,,,,,,,,,,,,,,,,,,,
,,,,,,,,08-06-2023_08h26.56.200,HF_wild_card,2022.2.4,MacIntel,59.10165485,610e67c4f2e507632094b24f,64ce5acb97489d65b14ecc7a,64cf4b2fefcac874844c8fed,,,,,,,sngl,resources/Empty.png,resources/DG.BMP,WildCard_NonEx,0.12625,-0.00875,1,0,0,0.932,optionRight,55,6220,3,33,0,33,0,1,,,,,,,,,,,,,,,,,,,,,,,,,,,,,,,,,,,,,,,
,,,,,,,,08-06-2023_08h26.56.200,HF_wild_card,2022.2.4,MacIntel,59.10165485,610e67c4f2e507632094b24f,64ce5acb97489d65b14ecc7a,64cf4b2fefcac874844c8fed,,,,,,,ctch,resources/DB.BMP,resources/DBN.BMP,Door3,-0.14,-0.05125,1,0,0,0.864,optionLeft,70,6290,3,34,0,34,0,1,,,,,,,,,,,,,,,,,,,,,,,,,,,,,,,,,,,,,,,
,,,,,,,,08-06-2023_08h26.56.200,HF_wild_card,2022.2.4,MacIntel,59.10165485,610e67c4f2e507632094b24f,64ce5acb97489d65b14ecc7a,64cf4b2fefcac874844c8fed,,,,,,,ctch,resources/DB.BMP,resources/DBN.BMP,Door3,-0.1125,-0.035,1,0,0,0.833,optionLeft,70,6360,3,35,0,35,0,1,,,,,,,,,,,,,,,,,,,,,,,,,,,,,,,,,,,,,,,
,,,,,,,,08-06-2023_08h26.56.200,HF_wild_card,2022.2.4,MacIntel,59.10165485,610e67c4f2e507632094b24f,64ce5acb97489d65b14ecc7a,64cf4b2fefcac874844c8fed,,,,,,,sngl,resources/DB.BMP,resources/Empty.png,Door3,-0.125,-0.0225,1,0,0,0.814,optionLeft,70,6430,3,36,0,36,0,1,,,,,,,,,,,,,,,,,,,,,,,,,,,,,,,,,,,,,,,
,,,,,,,,08-06-2023_08h26.56.200,HF_wild_card,2022.2.4,MacIntel,59.10165485,610e67c4f2e507632094b24f,64ce5acb97489d65b14ecc7a,64cf4b2fefcac874844c8fed,,,,,,,ctch,resources/DBN.BMP,resources/DB.BMP,Door3,0.16375,0.00625,1,0,0,0.966,optionRight,70,6500,3,37,0,37,0,1,,,,,,,,,,,,,,,,,,,,,,,,,,,,,,,,,,,,,,,
,,,,,,,,08-06-2023_08h26.56.200,HF_wild_card,2022.2.4,MacIntel,59.10165485,610e67c4f2e507632094b24f,64ce5acb97489d65b14ecc7a,64cf4b2fefcac874844c8fed,,,,,,,ctch,resources/DBN.BMP,resources/DB.BMP,Door3,0.1125,-0.00125,1,0,0,0.814,optionRight,70,6570,3,38,0,38,0,1,,,,,,,,,,,,,,,,,,,,,,,,,,,,,,,,,,,,,,,
,,,,,,,,08-06-2023_08h26.56.200,HF_wild_card,2022.2.4,MacIntel,59.10165485,610e67c4f2e507632094b24f,64ce5acb97489d65b14ecc7a,64cf4b2fefcac874844c8fed,,,,,,,decisionTrl,resources/DBN.BMP,resources/DY.BMP,Door1,0.14125,-0.00375,1,0,0,1.431,optionRight,30,6600,3,39,0,39,0,1,,,,,,,,,,,,,,,,,,,,,,,,,,,,,,,,,,,,,,,
,,,,,,,,08-06-2023_08h26.56.200,HF_wild_card,2022.2.4,MacIntel,59.10165485,610e67c4f2e507632094b24f,64ce5acb97489d65b14ecc7a,64cf4b2fefcac874844c8fed,,,,,,,sngl,resources/Empty.png,resources/DB.BMP,Door3,0.11875,-0.00375,1,0,0,0.861,optionRight,70,6670,3,40,0,40,0,1,,,,,,,,,,,,,,,,,,,,,,,,,,,,,,,,,,,,,,,
,,,,,,,,08-06-2023_08h26.56.200,HF_wild_card,2022.2.4,MacIntel,59.10165485,610e67c4f2e507632094b24f,64ce5acb97489d65b14ecc7a,64cf4b2fefcac874844c8fed,,,,,,,decisionTrl,resources/DB.BMP,resources/DP.BMP,Door4,0.11875,-0.00625,1,0,0,2.362,optionRight,60,6730,3,41,0,41,0,1,,,,,,,,,,,,,,,,,,,,,,,,,,,,,,,,,,,,,,,
,,,,,,,,08-06-2023_08h26.56.200,HF_wild_card,2022.2.4,MacIntel,59.10165485,610e67c4f2e507632094b24f,64ce5acb97489d65b14ecc7a,64cf4b2fefcac874844c8fed,,,,,,,sngl,resources/DY.BMP,resources/Empty.png,Door1,-0.115,-0.02,1,0,0,0.862,optionLeft,30,6760,3,42,0,42,0,1,,,,,,,,,,,,,,,,,,,,,,,,,,,,,,,,,,,,,,,
,,,,,,,,08-06-2023_08h26.56.200,HF_wild_card,2022.2.4,MacIntel,59.10165485,610e67c4f2e507632094b24f,64ce5acb97489d65b14ecc7a,64cf4b2fefcac874844c8fed,,,,,,,decisionTrl,resources/DP.BMP,resources/DB.BMP,Door4,-0.1325,-0.0225,1,0,0,0.78,optionLeft,80,6840,3,43,0,43,0,1,,,,,,,,,,,,,,,,,,,,,,,,,,,,,,,,,,,,,,,
,,,,,,,,08-06-2023_08h26.56.200,HF_wild_card,2022.2.4,MacIntel,59.10165485,610e67c4f2e507632094b24f,64ce5acb97489d65b14ecc7a,64cf4b2fefcac874844c8fed,,,,,,,,,,,,,,,,,,,,,,,,,,2,0,2,0,1,,,,,,,,,,,,,,,,,,,,,,,,,,,,,,,,,,
,,,,,,,,08-06-2023_08h26.56.200,HF_wild_card,2022.2.4,MacIntel,59.10165485,610e67c4f2e507632094b24f,64ce5acb97489d65b14ecc7a,64cf4b2fefcac874844c8fed,,,,,,,decisionTrl,resources/DY.BMP,resources/DR.BMP,WildCard_Ex,0.11875,-0.05125,1,0,0,1.278,optionRight,45,6885,4,0,0,0,0,1,,,,,,,,,,,,,,,,,,,,,,,,,,,,,,,,,,,,,,,
,,,,,,,,08-06-2023_08h26.56.200,HF_wild_card,2022.2.4,MacIntel,59.10165485,610e67c4f2e507632094b24f,64ce5acb97489d65b14ecc7a,64cf4b2fefcac874844c8fed,,,,,,,decisionTrl,resources/DBN.BMP,resources/DR.BMP,WildCard_Ex,0.1425,-0.0025,1,0,0,2.714,optionRight,55,6940,4,1,0,1,0,1,,,,,,,,,,,,,,,,,,,,,,,,,,,,,,,,,,,,,,,
,,,,,,,,08-06-2023_08h26.56.200,HF_wild_card,2022.2.4,MacIntel,59.10165485,610e67c4f2e507632094b24f,64ce5acb97489d65b14ecc7a,64cf4b2fefcac874844c8fed,,,,,,,sngl,resources/Empty.png,resources/DR.BMP,WildCard_Ex,0.14125,0.0025,1,0,0,0.864,optionRight,55,6995,4,2,0,2,0,1,,,,,,,,,,,,,,,,,,,,,,,,,,,,,,,,,,,,,,,
,,,,,,,,08-06-2023_08h26.56.200,HF_wild_card,2022.2.4,MacIntel,59.10165485,610e67c4f2e507632094b24f,64ce5acb97489d65b14ecc7a,64cf4b2fefcac874844c8fed,,,,,,,decisionTrl,resources/DR.BMP,resources/DP.BMP,Door4,0.13375,-0.00625,1,0,0,1.646,optionRight,80,7075,4,3,0,3,0,1,,,,,,,,,,,,,,,,,,,,,,,,,,,,,,,,,,,,,,,
,,,,,,,,08-06-2023_08h26.56.200,HF_wild_card,2022.2.4,MacIntel,59.10165485,610e67c4f2e507632094b24f,64ce5acb97489d65b14ecc7a,64cf4b2fefcac874844c8fed,,,,,,,ctch,resources/DBN.BMP,resources/DB.BMP,Door3,0.15875,0.0075,1,0,0,0.964,optionRight,70,7145,4,4,0,4,0,1,,,,,,,,,,,,,,,,,,,,,,,,,,,,,,,,,,,,,,,
,,,,,,,,08-06-2023_08h26.56.200,HF_wild_card,2022.2.4,MacIntel,59.10165485,610e67c4f2e507632094b24f,64ce5acb97489d65b14ecc7a,64cf4b2fefcac874844c8fed,,,,,,,decisionTrl,resources/DBN.BMP,resources/DY.BMP,Door2,-0.125,-0.005,1,0,0,1.565,optionLeft,20,7165,4,5,0,5,0,1,,,,,,,,,,,,,,,,,,,,,,,,,,,,,,,,,,,,,,,
,,,,,,,,08-06-2023_08h26.56.200,HF_wild_card,2022.2.4,MacIntel,59.10165485,610e67c4f2e507632094b24f,64ce5acb97489d65b14ecc7a,64cf4b2fefcac874844c8fed,,,,,,,decisionTrl,resources/DP.BMP,resources/DB.BMP,Door4,-0.1225,-0.02625,1,0,0,1.395,optionLeft,80,7245,4,6,0,6,0,1,,,,,,,,,,,,,,,,,,,,,,,,,,,,,,,,,,,,,,,
,,,,,,,,08-06-2023_08h26.56.200,HF_wild_card,2022.2.4,MacIntel,59.10165485,610e67c4f2e507632094b24f,64ce5acb97489d65b14ecc7a,64cf4b2fefcac874844c8fed,,,,,,,sngl,resources/Empty.png,resources/DR.BMP,WildCard_Ex,0.11625,-0.00125,1,0,0,0.963,optionRight,45,7290,4,7,0,7,0,1,,,,,,,,,,,,,,,,,,,,,,,,,,,,,,,,,,,,,,,
,,,,,,,,08-06-2023_08h26.56.200,HF_wild_card,2022.2.4,MacIntel,59.10165485,610e67c4f2e507632094b24f,64ce5acb97489d65b14ecc7a,64cf4b2fefcac874844c8fed,,,,,,,decisionTrl,resources/DY.BMP,resources/DBN.BMP,Door1,-0.12125,-0.01125,1,0,0,1.363,optionLeft,30,7320,4,8,0,8,0,1,,,,,,,,,,,,,,,,,,,,,,,,,,,,,,,,,,,,,,,
,,,,,,,,08-06-2023_08h26.56.200,HF_wild_card,2022.2.4,MacIntel,59.10165485,610e67c4f2e507632094b24f,64ce5acb97489d65b14ecc7a,64cf4b2fefcac874844c8fed,,,,,,,sngl,resources/Empty.png,resources/DBN.BMP,Door2,0.115,-0.00125,1,0,0,0.799,optionRight,40,7360,4,9,0,9,0,1,,,,,,,,,,,,,,,,,,,,,,,,,,,,,,,,,,,,,,,
,,,,,,,,08-06-2023_08h26.56.200,HF_wild_card,2022.2.4,MacIntel,59.10165485,610e67c4f2e507632094b24f,64ce5acb97489d65b14ecc7a,64cf4b2fefcac874844c8fed,,,,,,,decisionTrl,resources/DBN.BMP,resources/DY.BMP,Door2,-0.1275,0,1,0,0,1.382,optionLeft,20,7380,4,10,0,10,0,1,,,,,,,,,,,,,,,,,,,,,,,,,,,,,,,,,,,,,,,
,,,,,,,,08-06-2023_08h26.56.200,HF_wild_card,2022.2.4,MacIntel,59.10165485,610e67c4f2e507632094b24f,64ce5acb97489d65b14ecc7a,64cf4b2fefcac874844c8fed,,,,,,,ctch,resources/DP.BMP,resources/DY.BMP,Door4,-0.12625,-0.01875,1,0,0,1.231,optionLeft,80,7460,4,11,0,11,0,1,,,,,,,,,,,,,,,,,,,,,,,,,,,,,,,,,,,,,,,
,,,,,,,,08-06-2023_08h26.56.200,HF_wild_card,2022.2.4,MacIntel,59.10165485,610e67c4f2e507632094b24f,64ce5acb97489d65b14ecc7a,64cf4b2fefcac874844c8fed,,,,,,,decisionTrl,resources/DB.BMP,resources/DR.BMP,Door3,-0.115,-0.01125,1,0,0,1.998,optionLeft,70,7530,4,12,0,12,0,1,,,,,,,,,,,,,,,,,,,,,,,,,,,,,,,,,,,,,,,
,,,,,,,,08-06-2023_08h26.56.200,HF_wild_card,2022.2.4,MacIntel,59.10165485,610e67c4f2e507632094b24f,64ce5acb97489d65b14ecc7a,64cf4b2fefcac874844c8fed,,,,,,,decisionTrl,resources/DR.BMP,resources/DY.BMP,WildCard_Ex,-0.13125,0,1,0,0,1.415,optionLeft,45,7575,4,13,0,13,0,1,,,,,,,,,,,,,,,,,,,,,,,,,,,,,,,,,,,,,,,
,,,,,,,,08-06-2023_08h26.56.200,HF_wild_card,2022.2.4,MacIntel,59.10165485,610e67c4f2e507632094b24f,64ce5acb97489d65b14ecc7a,64cf4b2fefcac874844c8fed,,,,,,,sngl,resources/Empty.png,resources/DB.BMP,Door3,0.12375,-0.0075,1,0,0,1.065,optionRight,70,7645,4,14,0,14,0,1,,,,,,,,,,,,,,,,,,,,,,,,,,,,,,,,,,,,,,,
,,,,,,,,08-06-2023_08h26.56.200,HF_wild_card,2022.2.4,MacIntel,59.10165485,610e67c4f2e507632094b24f,64ce5acb97489d65b14ecc7a,64cf4b2fefcac874844c8fed,,,,,,,ctch,resources/DB.BMP,resources/DBN.BMP,Door3,-0.1275,-0.015,1,0,0,0.865,optionLeft,70,7715,4,15,0,15,0,1,,,,,,,,,,,,,,,,,,,,,,,,,,,,,,,,,,,,,,,
,,,,,,,,08-06-2023_08h26.56.200,HF_wild_card,2022.2.4,MacIntel,59.10165485,610e67c4f2e507632094b24f,64ce5acb97489d65b14ecc7a,64cf4b2fefcac874844c8fed,,,,,,,decisionTrl,resources/DY.BMP,resources/DBN.BMP,Door1,-0.115,-0.02,1,0,0,1.235,optionLeft,30,7745,4,16,0,16,0,1,,,,,,,,,,,,,,,,,,,,,,,,,,,,,,,,,,,,,,,
,,,,,,,,08-06-2023_08h26.56.200,HF_wild_card,2022.2.4,MacIntel,59.10165485,610e67c4f2e507632094b24f,64ce5acb97489d65b14ecc7a,64cf4b2fefcac874844c8fed,,,,,,,ctch,resources/DBN.BMP,resources/DB.BMP,Door3,0.20125,0.01375,1,0,0,1.528,optionRight,70,7815,4,17,0,17,0,1,,,,,,,,,,,,,,,,,,,,,,,,,,,,,,,,,,,,,,,
,,,,,,,,08-06-2023_08h26.56.200,HF_wild_card,2022.2.4,MacIntel,59.10165485,610e67c4f2e507632094b24f,64ce5acb97489d65b14ecc7a,64cf4b2fefcac874844c8fed,,,,,,,decisionTrl,resources/DP.BMP,resources/DR.BMP,Door4,-0.11125,-0.0175,1,0,0,2.013,optionLeft,60,7875,4,18,0,18,0,1,,,,,,,,,,,,,,,,,,,,,,,,,,,,,,,,,,,,,,,
,,,,,,,,08-06-2023_08h26.56.200,HF_wild_card,2022.2.4,MacIntel,59.10165485,610e67c4f2e507632094b24f,64ce5acb97489d65b14ecc7a,64cf4b2fefcac874844c8fed,,,,,,,decisionTrl,resources/DBN.BMP,resources/DY.BMP,Door2,-0.13,-0.0175,1,0,0,0.98,optionLeft,20,7895,4,19,0,19,0,1,,,,,,,,,,,,,,,,,,,,,,,,,,,,,,,,,,,,,,,
,,,,,,,,08-06-2023_08h26.56.200,HF_wild_card,2022.2.4,MacIntel,59.10165485,610e67c4f2e507632094b24f,64ce5acb97489d65b14ecc7a,64cf4b2fefcac874844c8fed,,,,,,,sngl,resources/DB.BMP,resources/Empty.png,Door3,-0.1175,-0.0325,1,0,0,0.814,optionLeft,70,7965,4,20,0,20,0,1,,,,,,,,,,,,,,,,,,,,,,,,,,,,,,,,,,,,,,,
,,,,,,,,08-06-2023_08h26.56.200,HF_wild_card,2022.2.4,MacIntel,59.10165485,610e67c4f2e507632094b24f,64ce5acb97489d65b14ecc7a,64cf4b2fefcac874844c8fed,,,,,,,decisionTrl,resources/DB.BMP,resources/DP.BMP,Door3,-0.12125,-0.0175,1,0,0,0.815,optionLeft,70,8035,4,21,0,21,0,1,,,,,,,,,,,,,,,,,,,,,,,,,,,,,,,,,,,,,,,
,,,,,,,,08-06-2023_08h26.56.200,HF_wild_card,2022.2.4,MacIntel,59.10165485,610e67c4f2e507632094b24f,64ce5acb97489d65b14ecc7a,64cf4b2fefcac874844c8fed,,,,,,,sngl,resources/Empty.png,resources/DY.BMP,Door1,0.13375,-0.00375,1,0,0,1.048,optionRight,30,8065,4,22,0,22,0,1,,,,,,,,,,,,,,,,,,,,,,,,,,,,,,,,,,,,,,,
,,,,,,,,08-06-2023_08h26.56.200,HF_wild_card,2022.2.4,MacIntel,59.10165485,610e67c4f2e507632094b24f,64ce5acb97489d65b14ecc7a,64cf4b2fefcac874844c8fed,,,,,,,ctch,resources/DY.BMP,resources/DP.BMP,Door4,0.11625,-0.02625,1,0,0,1.365,optionRight,80,8145,4,23,0,23,0,1,,,,,,,,,,,,,,,,,,,,,,,,,,,,,,,,,,,,,,,
,,,,,,,,08-06-2023_08h26.56.200,HF_wild_card,2022.2.4,MacIntel,59.10165485,610e67c4f2e507632094b24f,64ce5acb97489d65b14ecc7a,64cf4b2fefcac874844c8fed,,,,,,,sngl,resources/Empty.png,resources/DP.BMP,Door4,0.135,-0.02125,1,0,0,1.012,optionRight,80,8225,4,24,0,24,0,1,,,,,,,,,,,,,,,,,,,,,,,,,,,,,,,,,,,,,,,
,,,,,,,,08-06-2023_08h26.56.200,HF_wild_card,2022.2.4,MacIntel,59.10165485,610e67c4f2e507632094b24f,64ce5acb97489d65b14ecc7a,64cf4b2fefcac874844c8fed,,,,,,,decisionTrl,resources/DY.BMP,resources/DBN.BMP,Door1,-0.12,-0.0125,1,0,0,0.982,optionLeft,30,8255,4,25,0,25,0,1,,,,,,,,,,,,,,,,,,,,,,,,,,,,,,,,,,,,,,,
,,,,,,,,08-06-2023_08h26.56.200,HF_wild_card,2022.2.4,MacIntel,59.10165485,610e67c4f2e507632094b24f,64ce5acb97489d65b14ecc7a,64cf4b2fefcac874844c8fed,,,,,,,sngl,resources/DBN.BMP,resources/Empty.png,Door2,-0.10375,-0.00375,1,0,0,1.029,optionLeft,20,8275,4,26,0,26,0,1,,,,,,,,,,,,,,,,,,,,,,,,,,,,,,,,,,,,,,,
,,,,,,,,08-06-2023_08h26.56.200,HF_wild_card,2022.2.4,MacIntel,59.10165485,610e67c4f2e507632094b24f,64ce5acb97489d65b14ecc7a,64cf4b2fefcac874844c8fed,,,,,,,sngl,resources/DY.BMP,resources/Empty.png,Door1,-0.125,-0.01625,1,0,0,0.848,optionLeft,30,8305,4,27,0,27,0,1,,,,,,,,,,,,,,,,,,,,,,,,,,,,,,,,,,,,,,,
,,,,,,,,08-06-2023_08h26.56.200,HF_wild_card,2022.2.4,MacIntel,59.10165485,610e67c4f2e507632094b24f,64ce5acb97489d65b14ecc7a,64cf4b2fefcac874844c8fed,,,,,,,ctch,resources/DP.BMP,resources/DY.BMP,Door4,-0.12,-0.0025,1,0,0,1.098,optionLeft,80,8385,4,28,0,28,0,1,,,,,,,,,,,,,,,,,,,,,,,,,,,,,,,,,,,,,,,
,,,,,,,,08-06-2023_08h26.56.200,HF_wild_card,2022.2.4,MacIntel,59.10165485,610e67c4f2e507632094b24f,64ce5acb97489d65b14ecc7a,64cf4b2fefcac874844c8fed,,,,,,,decisionTrl,resources/DBN.BMP,resources/DY.BMP,Door2,-0.14,0.01,1,0,0,1.529,optionLeft,40,8425,4,29,0,29,0,1,,,,,,,,,,,,,,,,,,,,,,,,,,,,,,,,,,,,,,,
,,,,,,,,08-06-2023_08h26.56.200,HF_wild_card,2022.2.4,MacIntel,59.10165485,610e67c4f2e507632094b24f,64ce5acb97489d65b14ecc7a,64cf4b2fefcac874844c8fed,,,,,,,decisionTrl,resources/DP.BMP,resources/DB.BMP,Door4,-0.1375,0.0075,1,0,0,1.496,optionLeft,60,8485,4,30,0,30,0,1,,,,,,,,,,,,,,,,,,,,,,,,,,,,,,,,,,,,,,,
,,,,,,,,08-06-2023_08h26.56.200,HF_wild_card,2022.2.4,MacIntel,59.10165485,610e67c4f2e507632094b24f,64ce5acb97489d65b14ecc7a,64cf4b2fefcac874844c8fed,,,,,,,ctch,resources/DY.BMP,resources/DP.BMP,Door4,0.13875,-0.01875,1,0,0,1.195,optionRight,80,8565,4,31,0,31,0,1,,,,,,,,,,,,,,,,,,,,,,,,,,,,,,,,,,,,,,,
,,,,,,,,08-06-2023_08h26.56.200,HF_wild_card,2022.2.4,MacIntel,59.10165485,610e67c4f2e507632094b24f,64ce5acb97489d65b14ecc7a,64cf4b2fefcac874844c8fed,,,,,,,ctch,resources/DB.BMP,resources/DBN.BMP,Door3,-0.1225,-0.0025,1,0,0,0.882,optionLeft,70,8635,4,32,0,32,0,1,,,,,,,,,,,,,,,,,,,,,,,,,,,,,,,,,,,,,,,
,,,,,,,,08-06-2023_08h26.56.200,HF_wild_card,2022.2.4,MacIntel,59.10165485,610e67c4f2e507632094b24f,64ce5acb97489d65b14ecc7a,64cf4b2fefcac874844c8fed,,,,,,,decisionTrl,resources/DP.BMP,resources/DB.BMP,Door4,-0.13875,-0.03875,1,0,0,1.298,optionLeft,80,8715,4,33,0,33,0,1,,,,,,,,,,,,,,,,,,,,,,,,,,,,,,,,,,,,,,,
,,,,,,,,08-06-2023_08h26.56.200,HF_wild_card,2022.2.4,MacIntel,59.10165485,610e67c4f2e507632094b24f,64ce5acb97489d65b14ecc7a,64cf4b2fefcac874844c8fed,,,,,,,decisionTrl,resources/DR.BMP,resources/DB.BMP,Door3,0.1275,0.0175,1,0,0,1.93,optionRight,70,8785,4,34,0,34,0,1,,,,,,,,,,,,,,,,,,,,,,,,,,,,,,,,,,,,,,,
,,,,,,,,08-06-2023_08h26.56.200,HF_wild_card,2022.2.4,MacIntel,59.10165485,610e67c4f2e507632094b24f,64ce5acb97489d65b14ecc7a,64cf4b2fefcac874844c8fed,,,,,,,decisionTrl,resources/DR.BMP,resources/DBN.BMP,WildCard_Ex,-0.10875,0.00375,1,0,0,0.88,optionLeft,55,8840,4,35,0,35,0,1,,,,,,,,,,,,,,,,,,,,,,,,,,,,,,,,,,,,,,,
,,,,,,,,08-06-2023_08h26.56.200,HF_wild_card,2022.2.4,MacIntel,59.10165485,610e67c4f2e507632094b24f,64ce5acb97489d65b14ecc7a,64cf4b2fefcac874844c8fed,,,,,,,decisionTrl,resources/DB.BMP,resources/DP.BMP,Door4,0.125,0.01625,1,0,0,1.549,optionRight,60,8900,4,36,0,36,0,1,,,,,,,,,,,,,,,,,,,,,,,,,,,,,,,,,,,,,,,
,,,,,,,,08-06-2023_08h26.56.200,HF_wild_card,2022.2.4,MacIntel,59.10165485,610e67c4f2e507632094b24f,64ce5acb97489d65b14ecc7a,64cf4b2fefcac874844c8fed,,,,,,,sngl,resources/DP.BMP,resources/Empty.png,Door4,-0.1075,0.0075,1,0,0,0.83,optionLeft,60,8960,4,37,0,37,0,1,,,,,,,,,,,,,,,,,,,,,,,,,,,,,,,,,,,,,,,
,,,,,,,,08-06-2023_08h26.56.200,HF_wild_card,2022.2.4,MacIntel,59.10165485,610e67c4f2e507632094b24f,64ce5acb97489d65b14ecc7a,64cf4b2fefcac874844c8fed,,,,,,,sngl,resources/DR.BMP,resources/Empty.png,WildCard_Ex,-0.10625,0.0025,1,0,0,0.799,optionLeft,55,9015,4,38,0,38,0,1,,,,,,,,,,,,,,,,,,,,,,,,,,,,,,,,,,,,,,,
,,,,,,,,08-06-2023_08h26.56.200,HF_wild_card,2022.2.4,MacIntel,59.10165485,610e67c4f2e507632094b24f,64ce5acb97489d65b14ecc7a,64cf4b2fefcac874844c8fed,,,,,,,sngl,resources/DR.BMP,resources/Empty.png,WildCard_Ex,-0.09875,0,1,0,0,0.714,optionLeft,45,9060,4,39,0,39,0,1,,,,,,,,,,,,,,,,,,,,,,,,,,,,,,,,,,,,,,,
,,,,,,,,08-06-2023_08h26.56.200,HF_wild_card,2022.2.4,MacIntel,59.10165485,610e67c4f2e507632094b24f,64ce5acb97489d65b14ecc7a,64cf4b2fefcac874844c8fed,,,,,,,decisionTrl,resources/DB.BMP,resources/DP.BMP,Door3,-0.1675,-0.0075,1,0,0,1.062,optionLeft,70,9130,4,40,0,40,0,1,,,,,,,,,,,,,,,,,,,,,,,,,,,,,,,,,,,,,,,
,,,,,,,,08-06-2023_08h26.56.200,HF_wild_card,2022.2.4,MacIntel,59.10165485,610e67c4f2e507632094b24f,64ce5acb97489d65b14ecc7a,64cf4b2fefcac874844c8fed,,,,,,,decisionTrl,resources/DY.BMP,resources/DBN.BMP,Door1,-0.115,-0.00125,1,0,0,0.726,optionLeft,30,9160,4,41,0,41,0,1,,,,,,,,,,,,,,,,,,,,,,,,,,,,,,,,,,,,,,,
,,,,,,,,08-06-2023_08h26.56.200,HF_wild_card,2022.2.4,MacIntel,59.10165485,610e67c4f2e507632094b24f,64ce5acb97489d65b14ecc7a,64cf4b2fefcac874844c8fed,,,,,,,decisionTrl,resources/DB.BMP,resources/DP.BMP,Door3,-0.11875,-0.01375,1,0,0,0.795,optionLeft,70,9230,4,42,0,42,0,1,,,,,,,,,,,,,,,,,,,,,,,,,,,,,,,,,,,,,,,
,,,,,,,,08-06-2023_08h26.56.200,HF_wild_card,2022.2.4,MacIntel,59.10165485,610e67c4f2e507632094b24f,64ce5acb97489d65b14ecc7a,64cf4b2fefcac874844c8fed,,,,,,,decisionTrl,resources/DP.BMP,resources/DB.BMP,Door4,-0.12,-0.01,1,0,0,0.814,optionLeft,60,9290,4,43,0,43,0,1,,,,,,,,,,,,,,,,,,,,,,,,,,,,,,,,,,,,,,,
,,,,,,,,08-06-2023_08h26.56.200,HF_wild_card,2022.2.4,MacIntel,59.10165485,610e67c4f2e507632094b24f,64ce5acb97489d65b14ecc7a,64cf4b2fefcac874844c8fed,,,,,,,,,,,,,,,,,,,,,,,,,,3,0,3,0,1,,,,,,,,,,,,,,,,,,,,,,,,,,,,,,,,,,
,,,,,,,,08-06-2023_08h26.56.200,HF_wild_card,2022.2.4,MacIntel,59.10165485,610e67c4f2e507632094b24f,64ce5acb97489d65b14ecc7a,64cf4b2fefcac874844c8fed,,,,,,,decisionTrl,resources/DR.BMP,resources/DBN.BMP,WildCard_Ex,-0.1225,-0.02,1,0,0,1.045,optionLeft,45,9335,5,0,0,0,0,1,,,,,,,,,,,,,,,,,,,,,,,,,,,,,,,,,,,,,,,
,,,,,,,,08-06-2023_08h26.56.200,HF_wild_card,2022.2.4,MacIntel,59.10165485,610e67c4f2e507632094b24f,64ce5acb97489d65b14ecc7a,64cf4b2fefcac874844c8fed,,,,,,,decisionTrl,resources/DBN.BMP,resources/DR.BMP,WildCard_Ex,0.1475,0.01375,1,0,0,1.697,optionRight,55,9390,5,1,0,1,0,1,,,,,,,,,,,,,,,,,,,,,,,,,,,,,,,,,,,,,,,
,,,,,,,,08-06-2023_08h26.56.200,HF_wild_card,2022.2.4,MacIntel,59.10165485,610e67c4f2e507632094b24f,64ce5acb97489d65b14ecc7a,64cf4b2fefcac874844c8fed,,,,,,,decisionTrl,resources/DR.BMP,resources/DB.BMP,Door3,0.1425,-0.0025,1,0,0,1.164,optionRight,70,9460,5,2,0,2,0,1,,,,,,,,,,,,,,,,,,,,,,,,,,,,,,,,,,,,,,,
,,,,,,,,08-06-2023_08h26.56.200,HF_wild_card,2022.2.4,MacIntel,59.10165485,610e67c4f2e507632094b24f,64ce5acb97489d65b14ecc7a,64cf4b2fefcac874844c8fed,,,,,,,decisionTrl,resources/DBN.BMP,resources/DY.BMP,Door2,-0.13,-0.00625,1,0,0,1.497,optionLeft,20,9480,5,3,0,3,0,1,,,,,,,,,,,,,,,,,,,,,,,,,,,,,,,,,,,,,,,
,,,,,,,,08-06-2023_08h26.56.200,HF_wild_card,2022.2.4,MacIntel,59.10165485,610e67c4f2e507632094b24f,64ce5acb97489d65b14ecc7a,64cf4b2fefcac874844c8fed,,,,,,,decisionTrl,resources/DP.BMP,resources/DB.BMP,Door4,-0.13125,-0.0175,1,0,0,1.165,optionLeft,80,9560,5,4,0,4,0,1,,,,,,,,,,,,,,,,,,,,,,,,,,,,,,,,,,,,,,,
,,,,,,,,08-06-2023_08h26.56.200,HF_wild_card,2022.2.4,MacIntel,59.10165485,610e67c4f2e507632094b24f,64ce5acb97489d65b14ecc7a,64cf4b2fefcac874844c8fed,,,,,,,ctch,resources/DBN.BMP,resources/DB.BMP,Door3,0.12875,-0.00625,1,0,0,1.029,optionRight,70,9630,5,5,0,5,0,1,,,,,,,,,,,,,,,,,,,,,,,,,,,,,,,,,,,,,,,
,,,,,,,,08-06-2023_08h26.56.200,HF_wild_card,2022.2.4,MacIntel,59.10165485,610e67c4f2e507632094b24f,64ce5acb97489d65b14ecc7a,64cf4b2fefcac874844c8fed,,,,,,,decisionTrl,resources/DY.BMP,resources/DBN.BMP,Door1,-0.10875,-0.005,1,0,0,1.297,optionLeft,30,9660,5,6,0,6,0,1,,,,,,,,,,,,,,,,,,,,,,,,,,,,,,,,,,,,,,,
,,,,,,,,08-06-2023_08h26.56.200,HF_wild_card,2022.2.4,MacIntel,59.10165485,610e67c4f2e507632094b24f,64ce5acb97489d65b14ecc7a,64cf4b2fefcac874844c8fed,,,,,,,decisionTrl,resources/DB.BMP,resources/DP.BMP,Door4,0.12,-0.0125,1,0,0,2.413,optionRight,80,9740,5,7,0,7,0,1,,,,,,,,,,,,,,,,,,,,,,,,,,,,,,,,,,,,,,,
,,,,,,,,08-06-2023_08h26.56.200,HF_wild_card,2022.2.4,MacIntel,59.10165485,610e67c4f2e507632094b24f,64ce5acb97489d65b14ecc7a,64cf4b2fefcac874844c8fed,,,,,,,sngl,resources/Empty.png,resources/DY.BMP,Door1,0.10625,0.00125,1,0,0,0.944,optionRight,30,9770,5,8,0,8,0,1,,,,,,,,,,,,,,,,,,,,,,,,,,,,,,,,,,,,,,,
,,,,,,,,08-06-2023_08h26.56.200,HF_wild_card,2022.2.4,MacIntel,59.10165485,610e67c4f2e507632094b24f,64ce5acb97489d65b14ecc7a,64cf4b2fefcac874844c8fed,,,,,,,sngl,resources/DR.BMP,resources/Empty.png,WildCard_Ex,-0.11375,-0.00875,1,0,0,0.963,optionLeft,45,9815,5,9,0,9,0,1,,,,,,,,,,,,,,,,,,,,,,,,,,,,,,,,,,,,,,,
,,,,,,,,08-06-2023_08h26.56.200,HF_wild_card,2022.2.4,MacIntel,59.10165485,610e67c4f2e507632094b24f,64ce5acb97489d65b14ecc7a,64cf4b2fefcac874844c8fed,,,,,,,decisionTrl,resources/DY.BMP,resources/DBN.BMP,Door1,-0.12375,-0.01125,1,0,0,0.997,optionLeft,30,9845,5,10,0,10,0,1,,,,,,,,,,,,,,,,,,,,,,,,,,,,,,,,,,,,,,,
,,,,,,,,08-06-2023_08h26.56.200,HF_wild_card,2022.2.4,MacIntel,59.10165485,610e67c4f2e507632094b24f,64ce5acb97489d65b14ecc7a,64cf4b2fefcac874844c8fed,,,,,,,ctch,resources/DP.BMP,resources/DY.BMP,Door4,-0.12625,-0.0175,1,0,0,1.129,optionLeft,60,9905,5,11,0,11,0,1,,,,,,,,,,,,,,,,,,,,,,,,,,,,,,,,,,,,,,,
,,,,,,,,08-06-2023_08h26.56.200,HF_wild_card,2022.2.4,MacIntel,59.10165485,610e67c4f2e507632094b24f,64ce5acb97489d65b14ecc7a,64cf4b2fefcac874844c8fed,,,,,,,sngl,resources/Empty.png,resources/DR.BMP,WildCard_Ex,0.1375,0.01375,1,0,0,1.131,optionRight,55,9960,5,12,0,12,0,1,,,,,,,,,,,,,,,,,,,,,,,,,,,,,,,,,,,,,,,
,,,,,,,,08-06-2023_08h26.56.200,HF_wild_card,2022.2.4,MacIntel,59.10165485,610e67c4f2e507632094b24f,64ce5acb97489d65b14ecc7a,64cf4b2fefcac874844c8fed,,,,,,,decisionTrl,resources/DBN.BMP,resources/DY.BMP,Door1,0.14875,0.00875,1,0,0,1.014,optionRight,30,9990,5,13,0,13,0,1,,,,,,,,,,,,,,,,,,,,,,,,,,,,,,,,,,,,,,,
,,,,,,,,08-06-2023_08h26.56.200,HF_wild_card,2022.2.4,MacIntel,59.10165485,610e67c4f2e507632094b24f,64ce5acb97489d65b14ecc7a,64cf4b2fefcac874844c8fed,,,,,,,decisionTrl,resources/DP.BMP,resources/DB.BMP,Door3,0.115,0.005,1,0,0,0.914,optionRight,70,10060,5,14,0,14,0,1,,,,,,,,,,,,,,,,,,,,,,,,,,,,,,,,,,,,,,,
,,,,,,,,08-06-2023_08h26.56.200,HF_wild_card,2022.2.4,MacIntel,59.10165485,610e67c4f2e507632094b24f,64ce5acb97489d65b14ecc7a,64cf4b2fefcac874844c8fed,,,,,,,ctch,resources/DP.BMP,resources/DY.BMP,Door1,0.1225,0.00125,1,0,0,0.782,optionRight,30,10090,5,15,0,15,0,1,,,,,,,,,,,,,,,,,,,,,,,,,,,,,,,,,,,,,,,
,,,,,,,,08-06-2023_08h26.56.200,HF_wild_card,2022.2.4,MacIntel,59.10165485,610e67c4f2e507632094b24f,64ce5acb97489d65b14ecc7a,64cf4b2fefcac874844c8fed,,,,,,,decisionTrl,resources/DP.BMP,resources/DR.BMP,Door4,-0.1175,0,1,0,0,1.115,optionLeft,60,10150,5,16,0,16,0,1,,,,,,,,,,,,,,,,,,,,,,,,,,,,,,,,,,,,,,,
,,,,,,,,08-06-2023_08h26.56.200,HF_wild_card,2022.2.4,MacIntel,59.10165485,610e67c4f2e507632094b24f,64ce5acb97489d65b14ecc7a,64cf4b2fefcac874844c8fed,,,,,,,sngl,resources/Empty.png,resources/DBN.BMP,Door2,0.13625,0.01,1,0,0,0.998,optionRight,20,10170,5,17,0,17,0,1,,,,,,,,,,,,,,,,,,,,,,,,,,,,,,,,,,,,,,,
,,,,,,,,08-06-2023_08h26.56.200,HF_wild_card,2022.2.4,MacIntel,59.10165485,610e67c4f2e507632094b24f,64ce5acb97489d65b14ecc7a,64cf4b2fefcac874844c8fed,,,,,,,sngl,resources/DP.BMP,resources/Empty.png,Door4,-0.1075,0.00125,1,0,0,0.832,optionLeft,80,10250,5,18,0,18,0,1,,,,,,,,,,,,,,,,,,,,,,,,,,,,,,,,,,,,,,,
,,,,,,,,08-06-2023_08h26.56.200,HF_wild_card,2022.2.4,MacIntel,59.10165485,610e67c4f2e507632094b24f,64ce5acb97489d65b14ecc7a,64cf4b2fefcac874844c8fed,,,,,,,sngl,resources/Empty.png,resources/DB.BMP,Door3,0.15,0.01875,1,0,0,0.895,optionRight,70,10320,5,19,0,19,0,1,,,,,,,,,,,,,,,,,,,,,,,,,,,,,,,,,,,,,,,
,,,,,,,,08-06-2023_08h26.56.200,HF_wild_card,2022.2.4,MacIntel,59.10165485,610e67c4f2e507632094b24f,64ce5acb97489d65b14ecc7a,64cf4b2fefcac874844c8fed,,,,,,,decisionTrl,resources/DR.BMP,resources/DP.BMP,Door4,0.14,0.02,1,0,0,1.48,optionRight,60,10380,5,20,0,20,0,1,,,,,,,,,,,,,,,,,,,,,,,,,,,,,,,,,,,,,,,
,,,,,,,,08-06-2023_08h26.56.200,HF_wild_card,2022.2.4,MacIntel,59.10165485,610e67c4f2e507632094b24f,64ce5acb97489d65b14ecc7a,64cf4b2fefcac874844c8fed,,,,,,,decisionTrl,resources/DY.BMP,resources/DBN.BMP,Door2,0.12625,0.005,1,0,0,1.612,optionRight,40,10420,5,21,0,21,0,1,,,,,,,,,,,,,,,,,,,,,,,,,,,,,,,,,,,,,,,
,,,,,,,,08-06-2023_08h26.56.200,HF_wild_card,2022.2.4,MacIntel,59.10165485,610e67c4f2e507632094b24f,64ce5acb97489d65b14ecc7a,64cf4b2fefcac874844c8fed,,,,,,,sngl,resources/DY.BMP,resources/Empty.png,Door1,-0.10125,-0.01375,1,0,0,0.981,optionLeft,30,10450,5,22,0,22,0,1,,,,,,,,,,,,,,,,,,,,,,,,,,,,,,,,,,,,,,,
,,,,,,,,08-06-2023_08h26.56.200,HF_wild_card,2022.2.4,MacIntel,59.10165485,610e67c4f2e507632094b24f,64ce5acb97489d65b14ecc7a,64cf4b2fefcac874844c8fed,,,,,,,ctch,resources/DBN.BMP,resources/DB.BMP,Door3,0.1075,0.0075,1,0,0,1.296,optionRight,70,10520,5,23,0,23,0,1,,,,,,,,,,,,,,,,,,,,,,,,,,,,,,,,,,,,,,,
,,,,,,,,08-06-2023_08h26.56.200,HF_wild_card,2022.2.4,MacIntel,59.10165485,610e67c4f2e507632094b24f,64ce5acb97489d65b14ecc7a,64cf4b2fefcac874844c8fed,,,,,,,decisionTrl,resources/DB.BMP,resources/DP.BMP,Door3,-0.1175,-0.0175,1,0,0,1.165,optionLeft,70,10590,5,24,0,24,0,1,,,,,,,,,,,,,,,,,,,,,,,,,,,,,,,,,,,,,,,
,,,,,,,,08-06-2023_08h26.56.200,HF_wild_card,2022.2.4,MacIntel,59.10165485,610e67c4f2e507632094b24f,64ce5acb97489d65b14ecc7a,64cf4b2fefcac874844c8fed,,,,,,,ctch,resources/DY.BMP,resources/DP.BMP,Door4,0.1575,-0.00375,1,0,0,1.214,optionRight,80,10670,5,25,0,25,0,1,,,,,,,,,,,,,,,,,,,,,,,,,,,,,,,,,,,,,,,
,,,,,,,,08-06-2023_08h26.56.200,HF_wild_card,2022.2.4,MacIntel,59.10165485,610e67c4f2e507632094b24f,64ce5acb97489d65b14ecc7a,64cf4b2fefcac874844c8fed,,,,,,,sngl,resources/Empty.png,resources/DR.BMP,WildCard_Ex,0.12375,-0.01625,1,0,0,1.129,optionRight,45,10715,5,26,0,26,0,1,,,,,,,,,,,,,,,,,,,,,,,,,,,,,,,,,,,,,,,
,,,,,,,,08-06-2023_08h26.56.200,HF_wild_card,2022.2.4,MacIntel,59.10165485,610e67c4f2e507632094b24f,64ce5acb97489d65b14ecc7a,64cf4b2fefcac874844c8fed,,,,,,,decisionTrl,resources/DP.BMP,resources/DB.BMP,Door4,-0.13125,0.00625,1,0,0,1.165,optionLeft,80,10795,5,27,0,27,0,1,,,,,,,,,,,,,,,,,,,,,,,,,,,,,,,,,,,,,,,
,,,,,,,,08-06-2023_08h26.56.200,HF_wild_card,2022.2.4,MacIntel,59.10165485,610e67c4f2e507632094b24f,64ce5acb97489d65b14ecc7a,64cf4b2fefcac874844c8fed,,,,,,,sngl,resources/DBN.BMP,resources/Empty.png,Door2,-0.1325,0.00125,1,0,0,0.947,optionLeft,40,10835,5,28,0,28,0,1,,,,,,,,,,,,,,,,,,,,,,,,,,,,,,,,,,,,,,,
,,,,,,,,08-06-2023_08h26.56.200,HF_wild_card,2022.2.4,MacIntel,59.10165485,610e67c4f2e507632094b24f,64ce5acb97489d65b14ecc7a,64cf4b2fefcac874844c8fed,,,,,,,decisionTrl,resources/DY.BMP,resources/DR.BMP,WildCard_Ex,0.13625,-0.0075,1,0,0,1.014,optionRight,45,10880,5,29,0,29,0,1,,,,,,,,,,,,,,,,,,,,,,,,,,,,,,,,,,,,,,,
,,,,,,,,08-06-2023_08h26.56.200,HF_wild_card,2022.2.4,MacIntel,59.10165485,610e67c4f2e507632094b24f,64ce5acb97489d65b14ecc7a,64cf4b2fefcac874844c8fed,,,,,,,sngl,resources/DR.BMP,resources/Empty.png,WildCard_Ex,-0.1175,-0.0075,1,0,0,0.782,optionLeft,55,10935,5,30,0,30,0,1,,,,,,,,,,,,,,,,,,,,,,,,,,,,,,,,,,,,,,,
,,,,,,,,08-06-2023_08h26.56.200,HF_wild_card,2022.2.4,MacIntel,59.10165485,610e67c4f2e507632094b24f,64ce5acb97489d65b14ecc7a,64cf4b2fefcac874844c8fed,,,,,,,ctch,resources/DB.BMP,resources/DBN.BMP,Door3,-0.11875,-0.00625,1,0,0,0.927,optionLeft,70,11005,5,31,0,31,0,1,,,,,,,,,,,,,,,,,,,,,,,,,,,,,,,,,,,,,,,
,,,,,,,,08-06-2023_08h26.56.200,HF_wild_card,2022.2.4,MacIntel,59.10165485,610e67c4f2e507632094b24f,64ce5acb97489d65b14ecc7a,64cf4b2fefcac874844c8fed,,,,,,,sngl,resources/DB.BMP,resources/Empty.png,Door3,-0.11875,-0.00875,1,0,0,0.78,optionLeft,70,11075,5,32,0,32,0,1,,,,,,,,,,,,,,,,,,,,,,,,,,,,,,,,,,,,,,,
,,,,,,,,08-06-2023_08h26.56.200,HF_wild_card,2022.2.4,MacIntel,59.10165485,610e67c4f2e507632094b24f,64ce5acb97489d65b14ecc7a,64cf4b2fefcac874844c8fed,,,,,,,decisionTrl,resources/DR.BMP,resources/DY.BMP,WildCard_Ex,-0.1175,-0.0025,1,0,0,1.162,optionLeft,45,11120,5,33,0,33,0,1,,,,,,,,,,,,,,,,,,,,,,,,,,,,,,,,,,,,,,,
,,,,,,,,08-06-2023_08h26.56.200,HF_wild_card,2022.2.4,MacIntel,59.10165485,610e67c4f2e507632094b24f,64ce5acb97489d65b14ecc7a,64cf4b2fefcac874844c8fed,,,,,,,decisionTrl,resources/DB.BMP,resources/DP.BMP,Door4,0.13,-0.00375,1,0,0,1.831,optionRight,60,11180,5,34,0,34,0,1,,,,,,,,,,,,,,,,,,,,,,,,,,,,,,,,,,,,,,,
,,,,,,,,08-06-2023_08h26.56.200,HF_wild_card,2022.2.4,MacIntel,59.10165485,610e67c4f2e507632094b24f,64ce5acb97489d65b14ecc7a,64cf4b2fefcac874844c8fed,,,,,,,decisionTrl,resources/DBN.BMP,resources/DY.BMP,Door2,-0.11125,-0.01125,1,0,0,1.147,optionLeft,20,11200,5,35,0,35,0,1,,,,,,,,,,,,,,,,,,,,,,,,,,,,,,,,,,,,,,,
,,,,,,,,08-06-2023_08h26.56.200,HF_wild_card,2022.2.4,MacIntel,59.10165485,610e67c4f2e507632094b24f,64ce5acb97489d65b14ecc7a,64cf4b2fefcac874844c8fed,,,,,,,decisionTrl,resources/DB.BMP,resources/DP.BMP,Door3,-0.1225,-0.01,1,0,0,0.813,optionLeft,70,11270,5,36,0,36,0,1,,,,,,,,,,,,,,,,,,,,,,,,,,,,,,,,,,,,,,,
,,,,,,,,08-06-2023_08h26.56.200,HF_wild_card,2022.2.4,MacIntel,59.10165485,610e67c4f2e507632094b24f,64ce5acb97489d65b14ecc7a,64cf4b2fefcac874844c8fed,,,,,,,decisionTrl,resources/DP.BMP,resources/DB.BMP,Door4,-0.12875,-0.01625,1,0,0,0.815,optionLeft,80,11350,5,37,0,37,0,1,,,,,,,,,,,,,,,,,,,,,,,,,,,,,,,,,,,,,,,
,,,,,,,,08-06-2023_08h26.56.200,HF_wild_card,2022.2.4,MacIntel,59.10165485,610e67c4f2e507632094b24f,64ce5acb97489d65b14ecc7a,64cf4b2fefcac874844c8fed,,,,,,,ctch,resources/DY.BMP,resources/DP.BMP,Door1,-0.1225,-0.01,1,0,0,0.93,optionLeft,30,11380,5,38,0,38,0,1,,,,,,,,,,,,,,,,,,,,,,,,,,,,,,,,,,,,,,,
,,,,,,,,08-06-2023_08h26.56.200,HF_wild_card,2022.2.4,MacIntel,59.10165485,610e67c4f2e507632094b24f,64ce5acb97489d65b14ecc7a,64cf4b2fefcac874844c8fed,,,,,,,ctch,resources/DB.BMP,resources/DBN.BMP,Door3,-0.11875,-0.015,1,0,0,0.798,optionLeft,70,11450,5,39,0,39,0,1,,,,,,,,,,,,,,,,,,,,,,,,,,,,,,,,,,,,,,,
,,,,,,,,08-06-2023_08h26.56.200,HF_wild_card,2022.2.4,MacIntel,59.10165485,610e67c4f2e507632094b24f,64ce5acb97489d65b14ecc7a,64cf4b2fefcac874844c8fed,,,,,,,decisionTrl,resources/DY.BMP,resources/DBN.BMP,Door1,-0.12125,-0.02125,1,0,0,0.731,optionLeft,30,11480,5,40,0,40,0,1,,,,,,,,,,,,,,,,,,,,,,,,,,,,,,,,,,,,,,,
,,,,,,,,08-06-2023_08h26.56.200,HF_wild_card,2022.2.4,MacIntel,59.10165485,610e67c4f2e507632094b24f,64ce5acb97489d65b14ecc7a,64cf4b2fefcac874844c8fed,,,,,,,decisionTrl,resources/DB.BMP,resources/DR.BMP,Door3,-0.115,-0.015,1,0,0,1.526,optionLeft,70,11550,5,41,0,41,0,1,,,,,,,,,,,,,,,,,,,,,,,,,,,,,,,,,,,,,,,
,,,,,,,,08-06-2023_08h26.56.200,HF_wild_card,2022.2.4,MacIntel,59.10165485,610e67c4f2e507632094b24f,64ce5acb97489d65b14ecc7a,64cf4b2fefcac874844c8fed,,,,,,,sngl,resources/Empty.png,resources/DP.BMP,Door4,0.13125,0.005,1,0,0,0.968,optionRight,60,11610,5,42,0,42,0,1,,,,,,,,,,,,,,,,,,,,,,,,,,,,,,,,,,,,,,,
,,,,,,,,08-06-2023_08h26.56.200,HF_wild_card,2022.2.4,MacIntel,59.10165485,610e67c4f2e507632094b24f,64ce5acb97489d65b14ecc7a,64cf4b2fefcac874844c8fed,,,,,,,decisionTrl,resources/DBN.BMP,resources/DY.BMP,Door2,-0.115,0.0175,1,0,0,1.627,optionLeft,40,11650,5,43,0,43,0,1,,,,,,,,,,,,,,,,,,,,,,,,,,,,,,,,,,,,,,,
,,,,,,,,08-06-2023_08h26.56.200,HF_wild_card,2022.2.4,MacIntel,59.10165485,610e67c4f2e507632094b24f,64ce5acb97489d65b14ecc7a,64cf4b2fefcac874844c8fed,,,,,,,,,,,,,,,,,,,,,,,,,,4,0,4,0,1,,,,,,,,,,,,,,,,,,,,,,,,,,,,,,,,,,
,,,,,,,,08-06-2023_08h26.56.200,HF_wild_card,2022.2.4,MacIntel,59.10165485,610e67c4f2e507632094b24f,64ce5acb97489d65b14ecc7a,64cf4b2fefcac874844c8fed,,,,,,,ctch,resources/DP.BMP,resources/DY.BMP,Door4,-0.13375,-0.05,1,0,0,1.428,optionLeft,60,11710,6,0,0,0,0,1,,,,,,,,,,,,,,,,,,,,,,,,,,,,,,,,,,,,,,,
,,,,,,,,08-06-2023_08h26.56.200,HF_wild_card,2022.2.4,MacIntel,59.10165485,610e67c4f2e507632094b24f,64ce5acb97489d65b14ecc7a,64cf4b2fefcac874844c8fed,,,,,,,decisionTrl,resources/DB.BMP,resources/DP.BMP,Door4,0.13875,0.01,1,0,0,1.731,optionRight,60,11770,6,1,0,1,0,1,,,,,,,,,,,,,,,,,,,,,,,,,,,,,,,,,,,,,,,
,,,,,,,,08-06-2023_08h26.56.200,HF_wild_card,2022.2.4,MacIntel,59.10165485,610e67c4f2e507632094b24f,64ce5acb97489d65b14ecc7a,64cf4b2fefcac874844c8fed,,,,,,,ctch,resources/DY.BMP,resources/DP.BMP,Door4,0.13875,-0.00125,1,0,0,1.264,optionRight,80,11850,6,2,0,2,0,1,,,,,,,,,,,,,,,,,,,,,,,,,,,,,,,,,,,,,,,
,,,,,,,,08-06-2023_08h26.56.200,HF_wild_card,2022.2.4,MacIntel,59.10165485,610e67c4f2e507632094b24f,64ce5acb97489d65b14ecc7a,64cf4b2fefcac874844c8fed,,,,,,,decisionTrl,resources/DBN.BMP,resources/DY.BMP,Door2,-0.11875,0.00875,1,0,0,0.997,optionLeft,40,11890,6,3,0,3,0,1,,,,,,,,,,,,,,,,,,,,,,,,,,,,,,,,,,,,,,,
,,,,,,,,08-06-2023_08h26.56.200,HF_wild_card,2022.2.4,MacIntel,59.10165485,610e67c4f2e507632094b24f,64ce5acb97489d65b14ecc7a,64cf4b2fefcac874844c8fed,,,,,,,decisionTrl,resources/DBN.BMP,resources/DY.BMP,Door2,-0.1175,0.015,1,0,0,0.733,optionLeft,40,11930,6,4,0,4,0,1,,,,,,,,,,,,,,,,,,,,,,,,,,,,,,,,,,,,,,,
,,,,,,,,08-06-2023_08h26.56.200,HF_wild_card,2022.2.4,MacIntel,59.10165485,610e67c4f2e507632094b24f,64ce5acb97489d65b14ecc7a,64cf4b2fefcac874844c8fed,,,,,,,sngl,resources/DP.BMP,resources/Empty.png,Door4,-0.1075,0.0075,1,0,0,1.097,optionLeft,60,11990,6,5,0,5,0,1,,,,,,,,,,,,,,,,,,,,,,,,,,,,,,,,,,,,,,,
,,,,,,,,08-06-2023_08h26.56.200,HF_wild_card,2022.2.4,MacIntel,59.10165485,610e67c4f2e507632094b24f,64ce5acb97489d65b14ecc7a,64cf4b2fefcac874844c8fed,,,,,,,decisionTrl,resources/DY.BMP,resources/DR.BMP,Door1,-0.1375,-0.00125,1,0,0,0.897,optionLeft,30,12020,6,6,0,6,0,1,,,,,,,,,,,,,,,,,,,,,,,,,,,,,,,,,,,,,,,
,,,,,,,,08-06-2023_08h26.56.200,HF_wild_card,2022.2.4,MacIntel,59.10165485,610e67c4f2e507632094b24f,64ce5acb97489d65b14ecc7a,64cf4b2fefcac874844c8fed,,,,,,,sngl,resources/Empty.png,resources/DR.BMP,WildCard_Ex,0.1075,0,1,0,0,1.097,optionRight,55,12075,6,7,0,7,0,1,,,,,,,,,,,,,,,,,,,,,,,,,,,,,,,,,,,,,,,
,,,,,,,,08-06-2023_08h26.56.200,HF_wild_card,2022.2.4,MacIntel,59.10165485,610e67c4f2e507632094b24f,64ce5acb97489d65b14ecc7a,64cf4b2fefcac874844c8fed,,,,,,,ctch,resources/DB.BMP,resources/DBN.BMP,Door3,-0.1325,-0.0075,1,0,0,0.829,optionLeft,70,12145,6,8,0,8,0,1,,,,,,,,,,,,,,,,,,,,,,,,,,,,,,,,,,,,,,,
,,,,,,,,08-06-2023_08h26.56.200,HF_wild_card,2022.2.4,MacIntel,59.10165485,610e67c4f2e507632094b24f,64ce5acb97489d65b14ecc7a,64cf4b2fefcac874844c8fed,,,,,,,decisionTrl,resources/DP.BMP,resources/DB.BMP,Door4,-0.11625,-0.0025,1,0,0,1.598,optionLeft,60,12205,6,9,0,9,0,1,,,,,,,,,,,,,,,,,,,,,,,,,,,,,,,,,,,,,,,
,,,,,,,,08-06-2023_08h26.56.200,HF_wild_card,2022.2.4,MacIntel,59.10165485,610e67c4f2e507632094b24f,64ce5acb97489d65b14ecc7a,64cf4b2fefcac874844c8fed,,,,,,,decisionTrl,resources/DR.BMP,resources/DB.BMP,Door3,0.12875,0.01625,1,0,0,1.981,optionRight,70,12275,6,10,0,10,0,1,,,,,,,,,,,,,,,,,,,,,,,,,,,,,,,,,,,,,,,
,,,,,,,,08-06-2023_08h26.56.200,HF_wild_card,2022.2.4,MacIntel,59.10165485,610e67c4f2e507632094b24f,64ce5acb97489d65b14ecc7a,64cf4b2fefcac874844c8fed,,,,,,,ctch,resources/DBN.BMP,resources/DB.BMP,Door3,0.135,0.01,1,0,0,0.797,optionRight,70,12345,6,11,0,11,0,1,,,,,,,,,,,,,,,,,,,,,,,,,,,,,,,,,,,,,,,
,,,,,,,,08-06-2023_08h26.56.200,HF_wild_card,2022.2.4,MacIntel,59.10165485,610e67c4f2e507632094b24f,64ce5acb97489d65b14ecc7a,64cf4b2fefcac874844c8fed,,,,,,,decisionTrl,resources/DP.BMP,resources/DB.BMP,Door3,0.15625,0.00125,1,0,0,0.797,optionRight,70,12415,6,12,0,12,0,1,,,,,,,,,,,,,,,,,,,,,,,,,,,,,,,,,,,,,,,
,,,,,,,,08-06-2023_08h26.56.200,HF_wild_card,2022.2.4,MacIntel,59.10165485,610e67c4f2e507632094b24f,64ce5acb97489d65b14ecc7a,64cf4b2fefcac874844c8fed,,,,,,,decisionTrl,resources/DBN.BMP,resources/DY.BMP,Door2,-0.1375,0.0175,1,0,0,1.48,optionLeft,40,12455,6,13,0,13,0,1,,,,,,,,,,,,,,,,,,,,,,,,,,,,,,,,,,,,,,,
,,,,,,,,08-06-2023_08h26.56.200,HF_wild_card,2022.2.4,MacIntel,59.10165485,610e67c4f2e507632094b24f,64ce5acb97489d65b14ecc7a,64cf4b2fefcac874844c8fed,,,,,,,decisionTrl,resources/DR.BMP,resources/DBN.BMP,WildCard_Ex,-0.1175,0,1,0,0,0.913,optionLeft,55,12510,6,14,0,14,0,1,,,,,,,,,,,,,,,,,,,,,,,,,,,,,,,,,,,,,,,
,,,,,,,,08-06-2023_08h26.56.200,HF_wild_card,2022.2.4,MacIntel,59.10165485,610e67c4f2e507632094b24f,64ce5acb97489d65b14ecc7a,64cf4b2fefcac874844c8fed,,,,,,,decisionTrl,resources/DP.BMP,resources/DR.BMP,Door4,-0.1125,-0.00125,1,0,0,1.081,optionLeft,60,12570,6,15,0,15,0,1,,,,,,,,,,,,,,,,,,,,,,,,,,,,,,,,,,,,,,,
,,,,,,,,08-06-2023_08h26.56.200,HF_wild_card,2022.2.4,MacIntel,59.10165485,610e67c4f2e507632094b24f,64ce5acb97489d65b14ecc7a,64cf4b2fefcac874844c8fed,,,,,,,decisionTrl,resources/DP.BMP,resources/DB.BMP,Door4,-0.115,-0.00875,1,0,0,0.847,optionLeft,80,12650,6,16,0,16,0,1,,,,,,,,,,,,,,,,,,,,,,,,,,,,,,,,,,,,,,,
,,,,,,,,08-06-2023_08h26.56.200,HF_wild_card,2022.2.4,MacIntel,59.10165485,610e67c4f2e507632094b24f,64ce5acb97489d65b14ecc7a,64cf4b2fefcac874844c8fed,,,,,,,sngl,resources/Empty.png,resources/DR.BMP,WildCard_Ex,0.12625,0.00375,1,0,0,1.047,optionRight,45,12695,6,17,0,17,0,1,,,,,,,,,,,,,,,,,,,,,,,,,,,,,,,,,,,,,,,
,,,,,,,,08-06-2023_08h26.56.200,HF_wild_card,2022.2.4,MacIntel,59.10165485,610e67c4f2e507632094b24f,64ce5acb97489d65b14ecc7a,64cf4b2fefcac874844c8fed,,,,,,,sngl,resources/Empty.png,resources/DY.BMP,Door1,0.12625,-0.00375,1,0,0,1.064,optionRight,30,12725,6,18,0,18,0,1,,,,,,,,,,,,,,,,,,,,,,,,,,,,,,,,,,,,,,,
,,,,,,,,08-06-2023_08h26.56.200,HF_wild_card,2022.2.4,MacIntel,59.10165485,610e67c4f2e507632094b24f,64ce5acb97489d65b14ecc7a,64cf4b2fefcac874844c8fed,,,,,,,decisionTrl,resources/DBN.BMP,resources/DY.BMP,Door1,0.12875,0.0125,1,0,0,0.78,optionRight,30,12755,6,19,0,19,0,1,,,,,,,,,,,,,,,,,,,,,,,,,,,,,,,,,,,,,,,
,,,,,,,,08-06-2023_08h26.56.200,HF_wild_card,2022.2.4,MacIntel,59.10165485,610e67c4f2e507632094b24f,64ce5acb97489d65b14ecc7a,64cf4b2fefcac874844c8fed,,,,,,,sngl,resources/DB.BMP,resources/Empty.png,Door3,-0.11,0.0025,1,0,0,0.997,optionLeft,70,12825,6,20,0,20,0,1,,,,,,,,,,,,,,,,,,,,,,,,,,,,,,,,,,,,,,,
,,,,,,,,08-06-2023_08h26.56.200,HF_wild_card,2022.2.4,MacIntel,59.10165485,610e67c4f2e507632094b24f,64ce5acb97489d65b14ecc7a,64cf4b2fefcac874844c8fed,,,,,,,decisionTrl,resources/DR.BMP,resources/DP.BMP,Door4,0.12125,0.01875,1,0,0,1.431,optionRight,60,12885,6,21,0,21,0,1,,,,,,,,,,,,,,,,,,,,,,,,,,,,,,,,,,,,,,,
,,,,,,,,08-06-2023_08h26.56.200,HF_wild_card,2022.2.4,MacIntel,59.10165485,610e67c4f2e507632094b24f,64ce5acb97489d65b14ecc7a,64cf4b2fefcac874844c8fed,,,,,,,decisionTrl,resources/DY.BMP,resources/DBN.BMP,Door2,0.18125,0.01875,1,0,0,1.527,optionRight,40,12925,6,22,0,22,0,1,,,,,,,,,,,,,,,,,,,,,,,,,,,,,,,,,,,,,,,
,,,,,,,,08-06-2023_08h26.56.200,HF_wild_card,2022.2.4,MacIntel,59.10165485,610e67c4f2e507632094b24f,64ce5acb97489d65b14ecc7a,64cf4b2fefcac874844c8fed,,,,,,,ctch,resources/DY.BMP,resources/DP.BMP,Door4,0.14875,0.00875,1,0,0,0.93,optionRight,60,12985,6,23,0,23,0,1,,,,,,,,,,,,,,,,,,,,,,,,,,,,,,,,,,,,,,,
,,,,,,,,08-06-2023_08h26.56.200,HF_wild_card,2022.2.4,MacIntel,59.10165485,610e67c4f2e507632094b24f,64ce5acb97489d65b14ecc7a,64cf4b2fefcac874844c8fed,,,,,,,decisionTrl,resources/DP.BMP,resources/DB.BMP,Door4,-0.11375,-0.025,1,0,0,1.096,optionLeft,60,13045,6,24,0,24,0,1,,,,,,,,,,,,,,,,,,,,,,,,,,,,,,,,,,,,,,,
,,,,,,,,08-06-2023_08h26.56.200,HF_wild_card,2022.2.4,MacIntel,59.10165485,610e67c4f2e507632094b24f,64ce5acb97489d65b14ecc7a,64cf4b2fefcac874844c8fed,,,,,,,decisionTrl,resources/DBN.BMP,resources/DR.BMP,WildCard_Ex,0.1375,0.0125,1,0,0,1.162,optionRight,55,13100,6,25,0,25,0,1,,,,,,,,,,,,,,,,,,,,,,,,,,,,,,,,,,,,,,,
,,,,,,,,08-06-2023_08h26.56.200,HF_wild_card,2022.2.4,MacIntel,59.10165485,610e67c4f2e507632094b24f,64ce5acb97489d65b14ecc7a,64cf4b2fefcac874844c8fed,,,,,,,decisionTrl,resources/DB.BMP,resources/DR.BMP,Door3,-0.11875,-0.0025,1,0,0,1.131,optionLeft,70,13170,6,26,0,26,0,1,,,,,,,,,,,,,,,,,,,,,,,,,,,,,,,,,,,,,,,
,,,,,,,,08-06-2023_08h26.56.200,HF_wild_card,2022.2.4,MacIntel,59.10165485,610e67c4f2e507632094b24f,64ce5acb97489d65b14ecc7a,64cf4b2fefcac874844c8fed,,,,,,,decisionTrl,resources/DY.BMP,resources/DBN.BMP,Door1,-0.1025,-0.005,1,0,0,0.947,optionLeft,30,13200,6,27,0,27,0,1,,,,,,,,,,,,,,,,,,,,,,,,,,,,,,,,,,,,,,,
,,,,,,,,08-06-2023_08h26.56.200,HF_wild_card,2022.2.4,MacIntel,59.10165485,610e67c4f2e507632094b24f,64ce5acb97489d65b14ecc7a,64cf4b2fefcac874844c8fed,,,,,,,decisionTrl,resources/DY.BMP,resources/DBN.BMP,Door2,0.1725,0.03875,1,0,0,0.78,optionRight,20,13220,6,28,0,28,0,1,,,,,,,,,,,,,,,,,,,,,,,,,,,,,,,,,,,,,,,
,,,,,,,,08-06-2023_08h26.56.200,HF_wild_card,2022.2.4,MacIntel,59.10165485,610e67c4f2e507632094b24f,64ce5acb97489d65b14ecc7a,64cf4b2fefcac874844c8fed,,,,,,,sngl,resources/Empty.png,resources/DBN.BMP,Door2,0.13625,0.0175,1,0,0,1.033,optionRight,40,13260,6,29,0,29,0,1,,,,,,,,,,,,,,,,,,,,,,,,,,,,,,,,,,,,,,,
,,,,,,,,08-06-2023_08h26.56.200,HF_wild_card,2022.2.4,MacIntel,59.10165485,610e67c4f2e507632094b24f,64ce5acb97489d65b14ecc7a,64cf4b2fefcac874844c8fed,,,,,,,sngl,resources/Empty.png,resources/DB.BMP,Door3,0.11875,0.02125,1,0,0,0.897,optionRight,70,13330,6,30,0,30,0,1,,,,,,,,,,,,,,,,,,,,,,,,,,,,,,,,,,,,,,,
,,,,,,,,08-06-2023_08h26.56.200,HF_wild_card,2022.2.4,MacIntel,59.10165485,610e67c4f2e507632094b24f,64ce5acb97489d65b14ecc7a,64cf4b2fefcac874844c8fed,,,,,,,sngl,resources/DBN.BMP,resources/Empty.png,Door2,-0.12375,-0.00875,1,0,0,0.88,optionLeft,20,13350,6,31,0,31,0,1,,,,,,,,,,,,,,,,,,,,,,,,,,,,,,,,,,,,,,,
,,,,,,,,08-06-2023_08h26.56.200,HF_wild_card,2022.2.4,MacIntel,59.10165485,610e67c4f2e507632094b24f,64ce5acb97489d65b14ecc7a,64cf4b2fefcac874844c8fed,,,,,,,sngl,resources/DY.BMP,resources/Empty.png,Door1,-0.1425,-0.0125,1,0,0,0.714,optionLeft,30,13380,6,32,0,32,0,1,,,,,,,,,,,,,,,,,,,,,,,,,,,,,,,,,,,,,,,
,,,,,,,,08-06-2023_08h26.56.200,HF_wild_card,2022.2.4,MacIntel,59.10165485,610e67c4f2e507632094b24f,64ce5acb97489d65b14ecc7a,64cf4b2fefcac874844c8fed,,,,,,,decisionTrl,resources/DR.BMP,resources/DY.BMP,WildCard_Ex,-0.12875,-0.025,1,0,0,1.248,optionLeft,55,13435,6,33,0,33,0,1,,,,,,,,,,,,,,,,,,,,,,,,,,,,,,,,,,,,,,,
,,,,,,,,08-06-2023_08h26.56.200,HF_wild_card,2022.2.4,MacIntel,59.10165485,610e67c4f2e507632094b24f,64ce5acb97489d65b14ecc7a,64cf4b2fefcac874844c8fed,,,,,,,decisionTrl,resources/DB.BMP,resources/DP.BMP,Door4,0.1325,0.02125,1,0,0,1.807,optionRight,60,13495,6,34,0,34,0,1,,,,,,,,,,,,,,,,,,,,,,,,,,,,,,,,,,,,,,,
,,,,,,,,08-06-2023_08h26.56.200,HF_wild_card,2022.2.4,MacIntel,59.10165485,610e67c4f2e507632094b24f,64ce5acb97489d65b14ecc7a,64cf4b2fefcac874844c8fed,,,,,,,decisionTrl,resources/DB.BMP,resources/DP.BMP,Door3,-0.10375,0.0025,1,0,0,0.897,optionLeft,70,13565,6,35,0,35,0,1,,,,,,,,,,,,,,,,,,,,,,,,,,,,,,,,,,,,,,,
,,,,,,,,08-06-2023_08h26.56.200,HF_wild_card,2022.2.4,MacIntel,59.10165485,610e67c4f2e507632094b24f,64ce5acb97489d65b14ecc7a,64cf4b2fefcac874844c8fed,,,,,,,ctch,resources/DB.BMP,resources/DBN.BMP,Door3,-0.1125,0.0025,1,0,0,0.947,optionLeft,70,13635,6,36,0,36,0,1,,,,,,,,,,,,,,,,,,,,,,,,,,,,,,,,,,,,,,,
,,,,,,,,08-06-2023_08h26.56.200,HF_wild_card,2022.2.4,MacIntel,59.10165485,610e67c4f2e507632094b24f,64ce5acb97489d65b14ecc7a,64cf4b2fefcac874844c8fed,,,,,,,ctch,resources/DBN.BMP,resources/DB.BMP,Door3,0.12375,0.0025,1,0,0,1.814,optionRight,70,13705,6,37,0,37,0,1,,,,,,,,,,,,,,,,,,,,,,,,,,,,,,,,,,,,,,,
,,,,,,,,08-06-2023_08h26.56.200,HF_wild_card,2022.2.4,MacIntel,59.10165485,610e67c4f2e507632094b24f,64ce5acb97489d65b14ecc7a,64cf4b2fefcac874844c8fed,,,,,,,sngl,resources/DR.BMP,resources/Empty.png,WildCard_Ex,-0.1,0,1,0,0,0.93,optionLeft,55,13760,6,38,0,38,0,1,,,,,,,,,,,,,,,,,,,,,,,,,,,,,,,,,,,,,,,
,,,,,,,,08-06-2023_08h26.56.200,HF_wild_card,2022.2.4,MacIntel,59.10165485,610e67c4f2e507632094b24f,64ce5acb97489d65b14ecc7a,64cf4b2fefcac874844c8fed,,,,,,,decisionTrl,resources/DB.BMP,resources/DP.BMP,Door3,-0.12625,0.0025,1,0,0,0.796,optionLeft,70,13830,6,39,0,39,0,1,,,,,,,,,,,,,,,,,,,,,,,,,,,,,,,,,,,,,,,
,,,,,,,,08-06-2023_08h26.56.200,HF_wild_card,2022.2.4,MacIntel,59.10165485,610e67c4f2e507632094b24f,64ce5acb97489d65b14ecc7a,64cf4b2fefcac874844c8fed,,,,,,,decisionTrl,resources/DY.BMP,resources/DBN.BMP,Door1,-0.12625,0.00375,1,0,0,0.631,optionLeft,30,13860,6,40,0,40,0,1,,,,,,,,,,,,,,,,,,,,,,,,,,,,,,,,,,,,,,,
,,,,,,,,08-06-2023_08h26.56.200,HF_wild_card,2022.2.4,MacIntel,59.10165485,610e67c4f2e507632094b24f,64ce5acb97489d65b14ecc7a,64cf4b2fefcac874844c8fed,,,,,,,sngl,resources/DR.BMP,resources/Empty.png,WildCard_Ex,-0.09125,0,1,0,0,0.597,optionLeft,45,13905,6,41,0,41,0,1,,,,,,,,,,,,,,,,,,,,,,,,,,,,,,,,,,,,,,,
,,,,,,,,08-06-2023_08h26.56.200,HF_wild_card,2022.2.4,MacIntel,59.10165485,610e67c4f2e507632094b24f,64ce5acb97489d65b14ecc7a,64cf4b2fefcac874844c8fed,,,,,,,sngl,resources/Empty.png,resources/DP.BMP,Door4,0.12875,-0.01,1,0,0,0.931,optionRight,80,13985,6,42,0,42,0,1,,,,,,,,,,,,,,,,,,,,,,,,,,,,,,,,,,,,,,,
,,,,,,,,08-06-2023_08h26.56.200,HF_wild_card,2022.2.4,MacIntel,59.10165485,610e67c4f2e507632094b24f,64ce5acb97489d65b14ecc7a,64cf4b2fefcac874844c8fed,,,,,,,ctch,resources/DP.BMP,resources/DY.BMP,Door4,-0.1675,-0.005,1,0,0,0.831,optionLeft,60,14045,6,43,0,43,0,1,,,,,,,,,,,,,,,,,,,,,,,,,,,,,,,,,,,,,,,
,,,,,,,,08-06-2023_08h26.56.200,HF_wild_card,2022.2.4,MacIntel,59.10165485,610e67c4f2e507632094b24f,64ce5acb97489d65b14ecc7a,64cf4b2fefcac874844c8fed,,,,,,,,,,,,,,,,,,,,,,,,,,5,0,5,0,1,,,,,,,,,,,,,,,,,,,,,,,,,,,,,,,,,,
,,,,,,,,08-06-2023_08h26.56.200,HF_wild_card,2022.2.4,MacIntel,59.10165485,610e67c4f2e507632094b24f,64ce5acb97489d65b14ecc7a,64cf4b2fefcac874844c8fed,,,,,,,decisionTrl,resources/DY.BMP,resources/DBN.BMP,Door1,-0.125,0,1,0,0,0.892,optionLeft,30,14075,7,0,0,0,0,1,,,,,,,,,,,,,,,,,,,,,,,,,,,,,,,,,,,,,,,
,,,,,,,,08-06-2023_08h26.56.200,HF_wild_card,2022.2.4,MacIntel,59.10165485,610e67c4f2e507632094b24f,64ce5acb97489d65b14ecc7a,64cf4b2fefcac874844c8fed,,,,,,,decisionTrl,resources/DB.BMP,resources/DP.BMP,Door4,0.145,0,1,0,0,0.963,optionRight,60,14135,7,1,0,1,0,1,,,,,,,,,,,,,,,,,,,,,,,,,,,,,,,,,,,,,,,
,,,,,,,,08-06-2023_08h26.56.200,HF_wild_card,2022.2.4,MacIntel,59.10165485,610e67c4f2e507632094b24f,64ce5acb97489d65b14ecc7a,64cf4b2fefcac874844c8fed,,,,,,,decisionTrl,resources/DBN.BMP,resources/DY.BMP,Door2,-0.17125,0,1,0,0,1.349,optionLeft,20,14155,7,2,0,2,0,1,,,,,,,,,,,,,,,,,,,,,,,,,,,,,,,,,,,,,,,
,,,,,,,,08-06-2023_08h26.56.200,HF_wild_card,2022.2.4,MacIntel,59.10165485,610e67c4f2e507632094b24f,64ce5acb97489d65b14ecc7a,64cf4b2fefcac874844c8fed,,,,,,,decisionTrl,resources/DP.BMP,resources/DB.BMP,Door4,-0.1225,-0.00375,1,0,0,0.898,optionLeft,60,14215,7,3,0,3,0,1,,,,,,,,,,,,,,,,,,,,,,,,,,,,,,,,,,,,,,,
,,,,,,,,08-06-2023_08h26.56.200,HF_wild_card,2022.2.4,MacIntel,59.10165485,610e67c4f2e507632094b24f,64ce5acb97489d65b14ecc7a,64cf4b2fefcac874844c8fed,,,,,,,ctch,resources/DBN.BMP,resources/DB.BMP,Door3,0.11,-0.005,1,0,0,1.432,optionRight,70,14285,7,4,0,4,0,1,,,,,,,,,,,,,,,,,,,,,,,,,,,,,,,,,,,,,,,
,,,,,,,,08-06-2023_08h26.56.200,HF_wild_card,2022.2.4,MacIntel,59.10165485,610e67c4f2e507632094b24f,64ce5acb97489d65b14ecc7a,64cf4b2fefcac874844c8fed,,,,,,,decisionTrl,resources/DBN.BMP,resources/DY.BMP,Door2,-0.14625,-0.00875,1,0,0,1.465,optionLeft,40,14325,7,5,0,5,0,1,,,,,,,,,,,,,,,,,,,,,,,,,,,,,,,,,,,,,,,
,,,,,,,,08-06-2023_08h26.56.200,HF_wild_card,2022.2.4,MacIntel,59.10165485,610e67c4f2e507632094b24f,64ce5acb97489d65b14ecc7a,64cf4b2fefcac874844c8fed,,,,,,,decisionTrl,resources/DY.BMP,resources/DBN.BMP,Door1,-0.1275,-0.0075,1,0,0,0.899,optionLeft,30,14355,7,6,0,6,0,1,,,,,,,,,,,,,,,,,,,,,,,,,,,,,,,,,,,,,,,
,,,,,,,,08-06-2023_08h26.56.200,HF_wild_card,2022.2.4,MacIntel,59.10165485,610e67c4f2e507632094b24f,64ce5acb97489d65b14ecc7a,64cf4b2fefcac874844c8fed,,,,,,,decisionTrl,resources/DP.BMP,resources/DB.BMP,Door4,-0.1325,-0.02125,1,0,0,0.914,optionLeft,60,14415,7,7,0,7,0,1,,,,,,,,,,,,,,,,,,,,,,,,,,,,,,,,,,,,,,,
,,,,,,,,08-06-2023_08h26.56.200,HF_wild_card,2022.2.4,MacIntel,59.10165485,610e67c4f2e507632094b24f,64ce5acb97489d65b14ecc7a,64cf4b2fefcac874844c8fed,,,,,,,decisionTrl,resources/DY.BMP,resources/DBN.BMP,Door2,0.11375,0.00125,1,0,0,1.532,optionRight,20,14435,7,8,0,8,0,1,,,,,,,,,,,,,,,,,,,,,,,,,,,,,,,,,,,,,,,
,,,,,,,,08-06-2023_08h26.56.200,HF_wild_card,2022.2.4,MacIntel,59.10165485,610e67c4f2e507632094b24f,64ce5acb97489d65b14ecc7a,64cf4b2fefcac874844c8fed,,,,,,,ctch,resources/DBN.BMP,resources/DB.BMP,Door3,0.13375,0.0075,1,0,0,1.066,optionRight,70,14505,7,9,0,9,0,1,,,,,,,,,,,,,,,,,,,,,,,,,,,,,,,,,,,,,,,
,,,,,,,,08-06-2023_08h26.56.200,HF_wild_card,2022.2.4,MacIntel,59.10165485,610e67c4f2e507632094b24f,64ce5acb97489d65b14ecc7a,64cf4b2fefcac874844c8fed,,,,,,,decisionTrl,resources/DY.BMP,resources/DBN.BMP,Door2,0.12875,-0.00125,1,0,0,0.963,optionRight,20,14525,7,10,0,10,0,1,,,,,,,,,,,,,,,,,,,,,,,,,,,,,,,,,,,,,,,
,,,,,,,,08-06-2023_08h26.56.200,HF_wild_card,2022.2.4,MacIntel,59.10165485,610e67c4f2e507632094b24f,64ce5acb97489d65b14ecc7a,64cf4b2fefcac874844c8fed,,,,,,,ctch,resources/DBN.BMP,resources/DB.BMP,Door3,0.12,-0.00875,1,0,0,0.914,optionRight,70,14595,7,11,0,11,0,1,,,,,,,,,,,,,,,,,,,,,,,,,,,,,,,,,,,,,,,
,,,,,,,,08-06-2023_08h26.56.200,HF_wild_card,2022.2.4,MacIntel,59.10165485,610e67c4f2e507632094b24f,64ce5acb97489d65b14ecc7a,64cf4b2fefcac874844c8fed,,,,,,,decisionTrl,resources/DP.BMP,resources/DB.BMP,Door4,-0.13125,-0.0225,1,0,0,1.065,optionLeft,80,14675,7,12,0,12,0,1,,,,,,,,,,,,,,,,,,,,,,,,,,,,,,,,,,,,,,,
,,,,,,,,08-06-2023_08h26.56.200,HF_wild_card,2022.2.4,MacIntel,59.10165485,610e67c4f2e507632094b24f,64ce5acb97489d65b14ecc7a,64cf4b2fefcac874844c8fed,,,,,,,ctch,resources/DY.BMP,resources/DP.BMP,Door4,0.1175,-0.015,1,0,0,1.065,optionRight,60,14735,7,13,0,13,0,1,,,,,,,,,,,,,,,,,,,,,,,,,,,,,,,,,,,,,,,
,,,,,,,,08-06-2023_08h26.56.200,HF_wild_card,2022.2.4,MacIntel,59.10165485,610e67c4f2e507632094b24f,64ce5acb97489d65b14ecc7a,64cf4b2fefcac874844c8fed,,,,,,,decisionTrl,resources/DP.BMP,resources/DB.BMP,Door4,-0.1325,0.015,1,0,0,1.931,optionLeft,80,14815,7,14,0,14,0,1,,,,,,,,,,,,,,,,,,,,,,,,,,,,,,,,,,,,,,,
,,,,,,,,08-06-2023_08h26.56.200,HF_wild_card,2022.2.4,MacIntel,59.10165485,610e67c4f2e507632094b24f,64ce5acb97489d65b14ecc7a,64cf4b2fefcac874844c8fed,,,,,,,decisionTrl,resources/DBN.BMP,resources/DY.BMP,Door2,-0.175,-0.0125,1,0,0,1.564,optionLeft,40,14855,7,15,0,15,0,1,,,,,,,,,,,,,,,,,,,,,,,,,,,,,,,,,,,,,,,
,,,,,,,,08-06-2023_08h26.56.200,HF_wild_card,2022.2.4,MacIntel,59.10165485,610e67c4f2e507632094b24f,64ce5acb97489d65b14ecc7a,64cf4b2fefcac874844c8fed,,,,,,,ctch,resources/DB.BMP,resources/DBN.BMP,Door3,-0.12875,0.00875,1,0,0,0.865,optionLeft,70,14925,7,16,0,16,0,1,,,,,,,,,,,,,,,,,,,,,,,,,,,,,,,,,,,,,,,
,,,,,,,,08-06-2023_08h26.56.200,HF_wild_card,2022.2.4,MacIntel,59.10165485,610e67c4f2e507632094b24f,64ce5acb97489d65b14ecc7a,64cf4b2fefcac874844c8fed,,,,,,,ctch,resources/DP.BMP,resources/DY.BMP,Door4,-0.12625,0.0075,1,0,0,0.747,optionLeft,60,14985,7,17,0,17,0,1,,,,,,,,,,,,,,,,,,,,,,,,,,,,,,,,,,,,,,,
,,,,,,,,08-06-2023_08h26.56.200,HF_wild_card,2022.2.4,MacIntel,59.10165485,610e67c4f2e507632094b24f,64ce5acb97489d65b14ecc7a,64cf4b2fefcac874844c8fed,,,,,,,decisionTrl,resources/DB.BMP,resources/DP.BMP,Door3,-0.1225,0.00625,1,0,0,0.749,optionLeft,70,15055,7,18,0,18,0,1,,,,,,,,,,,,,,,,,,,,,,,,,,,,,,,,,,,,,,,
,,,,,,,,08-06-2023_08h26.56.200,HF_wild_card,2022.2.4,MacIntel,59.10165485,610e67c4f2e507632094b24f,64ce5acb97489d65b14ecc7a,64cf4b2fefcac874844c8fed,,,,,,,decisionTrl,resources/DB.BMP,resources/DP.BMP,Door4,0.11875,0.00375,1,0,0,0.966,optionRight,80,15135,7,19,0,19,0,1,,,,,,,,,,,,,,,,,,,,,,,,,,,,,,,,,,,,,,,
,,,,,,,,08-06-2023_08h26.56.200,HF_wild_card,2022.2.4,MacIntel,59.10165485,610e67c4f2e507632094b24f,64ce5acb97489d65b14ecc7a,64cf4b2fefcac874844c8fed,,,,,,,decisionTrl,resources/DBN.BMP,resources/DY.BMP,Door2,-0.14125,0.0075,1,0,0,1.715,optionLeft,20,15155,7,20,0,20,0,1,,,,,,,,,,,,,,,,,,,,,,,,,,,,,,,,,,,,,,,
,,,,,,,,08-06-2023_08h26.56.200,HF_wild_card,2022.2.4,MacIntel,59.10165485,610e67c4f2e507632094b24f,64ce5acb97489d65b14ecc7a,64cf4b2fefcac874844c8fed,,,,,,,decisionTrl,resources/DB.BMP,resources/DP.BMP,Door4,0.105,0.01125,1,0,0,1.33,optionRight,60,15215,7,21,0,21,0,1,,,,,,,,,,,,,,,,,,,,,,,,,,,,,,,,,,,,,,,
,,,,,,,,08-06-2023_08h26.56.200,HF_wild_card,2022.2.4,MacIntel,59.10165485,610e67c4f2e507632094b24f,64ce5acb97489d65b14ecc7a,64cf4b2fefcac874844c8fed,,,,,,,decisionTrl,resources/DP.BMP,resources/DB.BMP,Door4,-0.12125,-0.005,1,0,0,1.382,optionLeft,80,15295,7,22,0,22,0,1,,,,,,,,,,,,,,,,,,,,,,,,,,,,,,,,,,,,,,,
,,,,,,,,08-06-2023_08h26.56.200,HF_wild_card,2022.2.4,MacIntel,59.10165485,610e67c4f2e507632094b24f,64ce5acb97489d65b14ecc7a,64cf4b2fefcac874844c8fed,,,,,,,decisionTrl,resources/DP.BMP,resources/DB.BMP,Door4,-0.1175,0.00375,1,0,0,0.899,optionLeft,80,15375,7,23,0,23,0,1,,,,,,,,,,,,,,,,,,,,,,,,,,,,,,,,,,,,,,,
,,,,,,,,08-06-2023_08h26.56.200,HF_wild_card,2022.2.4,MacIntel,59.10165485,610e67c4f2e507632094b24f,64ce5acb97489d65b14ecc7a,64cf4b2fefcac874844c8fed,,,,,,,decisionTrl,resources/DY.BMP,resources/DBN.BMP,Door1,-0.1225,0.00125,1,0,0,0.848,optionLeft,30,15405,7,24,0,24,0,1,,,,,,,,,,,,,,,,,,,,,,,,,,,,,,,,,,,,,,,
,,,,,,,,08-06-2023_08h26.56.200,HF_wild_card,2022.2.4,MacIntel,59.10165485,610e67c4f2e507632094b24f,64ce5acb97489d65b14ecc7a,64cf4b2fefcac874844c8fed,,,,,,,ctch,resources/DB.BMP,resources/DBN.BMP,Door3,-0.11375,0,1,0,0,0.916,optionLeft,70,15475,7,25,0,25,0,1,,,,,,,,,,,,,,,,,,,,,,,,,,,,,,,,,,,,,,,
,,,,,,,,08-06-2023_08h26.56.200,HF_wild_card,2022.2.4,MacIntel,59.10165485,610e67c4f2e507632094b24f,64ce5acb97489d65b14ecc7a,64cf4b2fefcac874844c8fed,,,,,,,ctch,resources/DP.BMP,resources/DY.BMP,Door4,-0.115,0.00125,1,0,0,0.949,optionLeft,80,15555,7,26,0,26,0,1,,,,,,,,,,,,,,,,,,,,,,,,,,,,,,,,,,,,,,,
,,,,,,,,08-06-2023_08h26.56.200,HF_wild_card,2022.2.4,MacIntel,59.10165485,610e67c4f2e507632094b24f,64ce5acb97489d65b14ecc7a,64cf4b2fefcac874844c8fed,,,,,,,decisionTrl,resources/DBN.BMP,resources/DY.BMP,Door2,-0.11125,0.00125,1,0,0,1.399,optionLeft,20,15575,7,27,0,27,0,1,,,,,,,,,,,,,,,,,,,,,,,,,,,,,,,,,,,,,,,
,,,,,,,,08-06-2023_08h26.56.200,HF_wild_card,2022.2.4,MacIntel,59.10165485,610e67c4f2e507632094b24f,64ce5acb97489d65b14ecc7a,64cf4b2fefcac874844c8fed,,,,,,,ctch,resources/DY.BMP,resources/DP.BMP,Door4,0.10875,0,1,0,0,1.015,optionRight,80,15655,7,28,0,28,0,1,,,,,,,,,,,,,,,,,,,,,,,,,,,,,,,,,,,,,,,
,,,,,,,,08-06-2023_08h26.56.200,HF_wild_card,2022.2.4,MacIntel,59.10165485,610e67c4f2e507632094b24f,64ce5acb97489d65b14ecc7a,64cf4b2fefcac874844c8fed,,,,,,,ctch,resources/DB.BMP,resources/DBN.BMP,Door3,-0.11375,0.0025,1,0,0,1.132,optionLeft,70,15725,7,29,0,29,0,1,,,,,,,,,,,,,,,,,,,,,,,,,,,,,,,,,,,,,,,
,,,,,,,,08-06-2023_08h26.56.200,HF_wild_card,2022.2.4,MacIntel,59.10165485,610e67c4f2e507632094b24f,64ce5acb97489d65b14ecc7a,64cf4b2fefcac874844c8fed,,,,,,,decisionTrl,resources/DB.BMP,resources/DP.BMP,Door3,-0.115,0.0175,1,0,0,1.3,optionLeft,70,15795,7,30,0,30,0,1,,,,,,,,,,,,,,,,,,,,,,,,,,,,,,,,,,,,,,,
,,,,,,,,08-06-2023_08h26.56.200,HF_wild_card,2022.2.4,MacIntel,59.10165485,610e67c4f2e507632094b24f,64ce5acb97489d65b14ecc7a,64cf4b2fefcac874844c8fed,,,,,,,ctch,resources/DY.BMP,resources/DP.BMP,Door4,0.1325,0,1,0,0,1.383,optionRight,80,15875,7,31,0,31,0,1,,,,,,,,,,,,,,,,,,,,,,,,,,,,,,,,,,,,,,,
,,,,,,,,08-06-2023_08h26.56.200,HF_wild_card,2022.2.4,MacIntel,59.10165485,610e67c4f2e507632094b24f,64ce5acb97489d65b14ecc7a,64cf4b2fefcac874844c8fed,,,,,,,decisionTrl,resources/DB.BMP,resources/DP.BMP,Door4,0.13375,0.0025,1,0,0,0.832,optionRight,60,15935,7,32,0,32,0,1,,,,,,,,,,,,,,,,,,,,,,,,,,,,,,,,,,,,,,,
,,,,,,,,08-06-2023_08h26.56.200,HF_wild_card,2022.2.4,MacIntel,59.10165485,610e67c4f2e507632094b24f,64ce5acb97489d65b14ecc7a,64cf4b2fefcac874844c8fed,,,,,,,decisionTrl,resources/DY.BMP,resources/DBN.BMP,Door2,0.145,0.01375,1,0,0,1.766,optionRight,40,15975,7,33,0,33,0,1,,,,,,,,,,,,,,,,,,,,,,,,,,,,,,,,,,,,,,,
,,,,,,,,08-06-2023_08h26.56.200,HF_wild_card,2022.2.4,MacIntel,59.10165485,610e67c4f2e507632094b24f,64ce5acb97489d65b14ecc7a,64cf4b2fefcac874844c8fed,,,,,,,decisionTrl,resources/DBN.BMP,resources/DY.BMP,Door2,-0.11625,0.0325,1,0,0,1.115,optionLeft,20,15995,7,34,0,34,0,1,,,,,,,,,,,,,,,,,,,,,,,,,,,,,,,,,,,,,,,
,,,,,,,,08-06-2023_08h26.56.200,HF_wild_card,2022.2.4,MacIntel,59.10165485,610e67c4f2e507632094b24f,64ce5acb97489d65b14ecc7a,64cf4b2fefcac874844c8fed,,,,,,,ctch,resources/DP.BMP,resources/DY.BMP,Door4,-0.12625,0.01875,1,0,0,0.799,optionLeft,60,16055,7,35,0,35,0,1,,,,,,,,,,,,,,,,,,,,,,,,,,,,,,,,,,,,,,,
,,,,,,,,08-06-2023_08h26.56.200,HF_wild_card,2022.2.4,MacIntel,59.10165485,610e67c4f2e507632094b24f,64ce5acb97489d65b14ecc7a,64cf4b2fefcac874844c8fed,,,,,,,,,,,,,,,,,,,,,,,,,,6,0,6,0,1,,,,,,,,,,,,,,,,,,,,,,,,,,,,,,,,,,
,,,,,,,,08-06-2023_08h26.56.200,HF_wild_card,2022.2.4,MacIntel,59.10165485,610e67c4f2e507632094b24f,64ce5acb97489d65b14ecc7a,64cf4b2fefcac874844c8fed,,,,,,,,,,,,,,,,,,,,,,,,,,,,,,,4,,,,,,,,,,,,,,,,,,,,,,,,,,,,,,,,,
,,,,,,,,08-06-2023_08h26.56.200,HF_wild_card,2022.2.4,MacIntel,59.10165485,610e67c4f2e507632094b24f,64ce5acb97489d65b14ecc7a,64cf4b2fefcac874844c8fed,,,,,,,,,,,,,,,,,,,,,,,,,,,,,,,,,,,,,,,,,,,,,,,,,,,,,,,,,,,,,,,,
,,,,,,,,08-06-2023_08h26.56.200,HF_wild_card,2022.2.4,MacIntel,59.10165485,610e67c4f2e507632094b24f,64ce5acb97489d65b14ecc7a,64cf4b2fefcac874844c8fed,,,,,,,,,,,,,,,,,,,,,,,,,,,,,,,,45,WC_nonExtreme,resources/DG.BMP,0,0,0,0,1,,,,,,,,,,,,,,,,,,,,,,,,,
,,,,,,,,08-06-2023_08h26.56.200,HF_wild_card,2022.2.4,MacIntel,59.10165485,610e67c4f2e507632094b24f,64ce5acb97489d65b14ecc7a,64cf4b2fefcac874844c8fed,,,,,,,,,,,,,,,,,,,,,,,,,,,,,,,,25,Door2,resources/DBN.BMP,1,0,1,0,1,,,,,,,,,,,,,,,,,,,,,,,,,
,,,,,,,,08-06-2023_08h26.56.200,HF_wild_card,2022.2.4,MacIntel,59.10165485,610e67c4f2e507632094b24f,64ce5acb97489d65b14ecc7a,64cf4b2fefcac874844c8fed,,,,,,,,,,,,,,,,,,,,,,,,,,,,,,,,45,Door1,resources/DY.BMP,2,0,2,0,1,,,,,,,,,,,,,,,,,,,,,,,,,
,,,,,,,,08-06-2023_08h26.56.200,HF_wild_card,2022.2.4,MacIntel,59.10165485,610e67c4f2e507632094b24f,64ce5acb97489d65b14ecc7a,64cf4b2fefcac874844c8fed,,,,,,,,,,,,,,,,,,,,,,,,,,,,,,,,70,Door3,resources/DB.BMP,3,0,3,0,1,,,,,,,,,,,,,,,,,,,,,,,,,
,,,,,,,,08-06-2023_08h26.56.200,HF_wild_card,2022.2.4,MacIntel,59.10165485,610e67c4f2e507632094b24f,64ce5acb97489d65b14ecc7a,64cf4b2fefcac874844c8fed,,,,,,,,,,,,,,,,,,,,,,,,,,,,,,,,80,Door4,resources/DP.BMP,4,0,4,0,1,,,,,,,,,,,,,,,,,,,,,,,,,
,,,,,,,,08-06-2023_08h26.56.200,HF_wild_card,2022.2.4,MacIntel,59.10165485,610e67c4f2e507632094b24f,64ce5acb97489d65b14ecc7a,64cf4b2fefcac874844c8fed,,,,,,,,,,,,,,,,,,,,,,,,,,,,,,,,55,WC_extreme,resources/DR.BMP,5,0,5,0,1,,,,,,,,,,,,,,,,,,,,,,,,,
,,,,,,,,08-06-2023_08h26.56.200,HF_wild_card,2022.2.4,MacIntel,59.10165485,610e67c4f2e507632094b24f,64ce5acb97489d65b14ecc7a,64cf4b2fefcac874844c8fed,,,,,,,,,,,,,,,,,,,,,,,,,,,,,,,,,,,,,,,,,,,,,,,,,,,,,,,,,,,,,,,,
,,,,,,,,08-06-2023_08h26.56.200,HF_wild_card,2022.2.4,MacIntel,59.10165485,610e67c4f2e507632094b24f,64ce5acb97489d65b14ecc7a,64cf4b2fefcac874844c8fed,,,,,,,,,,,,,,,,,,,,,,,,,,,,,,,,,,,,,,,,0,0,0,0,1,,,,,,,,,,,,,,,,,,,,
,,,,,,,,08-06-2023_08h26.56.200,HF_wild_card,2022.2.4,MacIntel,59.10165485,610e67c4f2e507632094b24f,64ce5acb97489d65b14ecc7a,64cf4b2fefcac874844c8fed,,,,,,,,,,,,,,,,,,,,,,,,,,,,,,,,,,,,,,,,1,0,1,0,1,,,,,,,,,,,,,,,,,,,,
,,,,,,,,08-06-2023_08h26.56.200,HF_wild_card,2022.2.4,MacIntel,59.10165485,610e67c4f2e507632094b24f,64ce5acb97489d65b14ecc7a,64cf4b2fefcac874844c8fed,,,,,,,,,,,,,,,,,,,,,,,,,,,,,,,,,,,,,,,,,,,,,-0.28625,-0.40125,1,0,0,yes,45%,45%,Door1,resources/DY.BMP,0,0,0,0,1,,,,,
,,,,,,,,08-06-2023_08h26.56.200,HF_wild_card,2022.2.4,MacIntel,59.10165485,610e67c4f2e507632094b24f,64ce5acb97489d65b14ecc7a,64cf4b2fefcac874844c8fed,,,,,,,,,,,,,,,,,,,,,,,,,,,,,,,,,,,,,,,,,,,,,,,,,,,,,,,,,,,,0,0,0,0,1
,,,,,,,,08-06-2023_08h26.56.200,HF_wild_card,2022.2.4,MacIntel,59.10165485,610e67c4f2e507632094b24f,64ce5acb97489d65b14ecc7a,64cf4b2fefcac874844c8fed,,,,,,,,,,,,,,,,,,,,,,,,,,,,,,,,,,,,,,,,0,0,0,0,1,,,,,,,,,,,,,,,,,,,,
,,,,,,,,08-06-2023_08h26.56.200,HF_wild_card,2022.2.4,MacIntel,59.10165485,610e67c4f2e507632094b24f,64ce5acb97489d65b14ecc7a,64cf4b2fefcac874844c8fed,,,,,,,,,,,,,,,,,,,,,,,,,,,,,,,,,,,,,,,,1,0,1,0,1,,,,,,,,,,,,,,,,,,,,
,,,,,,,,08-06-2023_08h26.56.200,HF_wild_card,2022.2.4,MacIntel,59.10165485,610e67c4f2e507632094b24f,64ce5acb97489d65b14ecc7a,64cf4b2fefcac874844c8fed,,,,,,,,,,,,,,,,,,,,,,,,,,,,,,,,,,,,,,,,,,,,,-0.2525,-0.4,1,0,0,yes,45%,50%,WC_nonExtreme,resources/DG.BMP,0,0,0,0,1,,,,,
,,,,,,,,08-06-2023_08h26.56.200,HF_wild_card,2022.2.4,MacIntel,59.10165485,610e67c4f2e507632094b24f,64ce5acb97489d65b14ecc7a,64cf4b2fefcac874844c8fed,,,,,,,,,,,,,,,,,,,,,,,,,,,,,,,,,,,,,,,,,,,,,,,,,,,,,,,,,,,,1,0,1,0,1
,,,,,,,,08-06-2023_08h26.56.200,HF_wild_card,2022.2.4,MacIntel,59.10165485,610e67c4f2e507632094b24f,64ce5acb97489d65b14ecc7a,64cf4b2fefcac874844c8fed,,,,,,,,,,,,,,,,,,,,,,,,,,,,,,,,,,,,,,,,0,0,0,0,1,,,,,,,,,,,,,,,,,,,,
,,,,,,,,08-06-2023_08h26.56.200,HF_wild_card,2022.2.4,MacIntel,59.10165485,610e67c4f2e507632094b24f,64ce5acb97489d65b14ecc7a,64cf4b2fefcac874844c8fed,,,,,,,,,,,,,,,,,,,,,,,,,,,,,,,,,,,,,,,,1,0,1,0,1,,,,,,,,,,,,,,,,,,,,
