Condition,Low fixed image (Door1),Low risky image (Door2),High fixed image (Door3),High risky image (Door4),Extreme Wild Card,NonExtreme Wild Card,,date,expName,psychopyVersion,OS,frameRate,PROLIFIC_PID,STUDY_ID,SESSION_ID,mouse_2.x,mouse_2.y,mouse_2.leftButton,mouse_2.midButton,mouse_2.rightButton,mouse_2.clicked_name,Trial Type,Left Option Image,Right Option Image,Chosen Door,mouse.x,mouse.y,mouse.leftButton,mouse.midButton,mouse.rightButton,mouse.time,mouse.clicked_name,Feedback,Cumulative Reward,Block,trial.thisRepN,trial.thisTrialN,trial.thisN,trial.thisIndex,trial.ran,blocks.thisRepN,blocks.thisTrialN,blocks.thisN,blocks.thisIndex,blocks.ran,Money conversion,First Outcome Reported,Shown Door (First Outcome),Displayed Image (First Outcome),outcomes.thisRepN,outcomes.thisTrialN,outcomes.thisN,outcomes.thisIndex,outcomes.ran,judgments.thisRepN,judgments.thisTrialN,judgments.thisN,judgments.thisIndex,judgments.ran,freqMouse.x,freqMouse.y,freqMouse.leftButton,freqMouse.midButton,freqMouse.rightButton,freqMouse.clicked_name,trials.thisRepN,trials.thisTrialN,trials.thisN,trials.thisIndex,trials.ran,FQJ for first outcome,FQJ for second outcome,Shown Door,Displayed Image,judgBlock.thisRepN,judgBlock.thisTrialN,judgBlock.thisN,judgBlock.thisIndex,judgBlock.ran
0,resources/DG.BMP,resources/DBN.BMP,resources/DP.BMP,resources/DR.BMP,resources/DB.BMP,resources/DY.BMP,62da562ad9942a440f6986c9,2023-08-16_09h02.06.543,HF_wild_card,2022.2.4,Win32,5.454823155,62da562ad9942a440f6986c9,64d2fd46c836a06233681665,64dc824674030621af8a3d16,,,,,,,,,,,,,,,,,,,,,,,,,,,,,,,,,,,,,,,,,,,,,,,,,,,,,,,,,,,,,,,,
,,,,,,,62da562ad9942a440f6986c9,2023-08-16_09h02.06.543,HF_wild_card,2022.2.4,Win32,5.454823155,62da562ad9942a440f6986c9,64d2fd46c836a06233681665,64dc824674030621af8a3d16,0.013888889,-0.419444444,1,0,0,agree,,,,,,,,,,,,,,,,,,,,,,,,,,,,,,,,,,,,,,,,,,,,,,,,,,,,,,,,,,
,,,,,,,62da562ad9942a440f6986c9,2023-08-16_09h02.06.543,HF_wild_card,2022.2.4,Win32,5.454823155,62da562ad9942a440f6986c9,64d2fd46c836a06233681665,64dc824674030621af8a3d16,,,,,,,,,,,,,,,,,,,,,,,,,,,,,,,,,,,,,,,,,,,,,,,,,,,,,,,,,,,,,,,,
,,,,,,,62da562ad9942a440f6986c9,2023-08-16_09h02.06.543,HF_wild_card,2022.2.4,Win32,5.454823155,62da562ad9942a440f6986c9,64d2fd46c836a06233681665,64dc824674030621af8a3d16,,,,,,,decisionTrl,resources/DG.BMP,resources/DBN.BMP,Door1,-0.351851852,-0.062962963,1,0,0,2.9626,optionLeft,30,30,1,0,0,0,0,1,,,,,,,,,,,,,,,,,,,,,,,,,,,,,,,,,,,,,,,
,,,,,,,62da562ad9942a440f6986c9,2023-08-16_09h02.06.543,HF_wild_card,2022.2.4,Win32,5.454823155,62da562ad9942a440f6986c9,64d2fd46c836a06233681665,64dc824674030621af8a3d16,,,,,,,sngl,resources/Empty.png,resources/DB.BMP,WildCard_Ex,0.367592593,-0.084259259,1,0,0,10.5759,optionRight,5,35,1,1,0,1,0,1,,,,,,,,,,,,,,,,,,,,,,,,,,,,,,,,,,,,,,,
,,,,,,,62da562ad9942a440f6986c9,2023-08-16_09h02.06.543,HF_wild_card,2022.2.4,Win32,5.454823155,62da562ad9942a440f6986c9,64d2fd46c836a06233681665,64dc824674030621af8a3d16,,,,,,,sngl,resources/DG.BMP,resources/Empty.png,Door1,-0.387962963,-0.010185185,1,0,0,7.5382,optionLeft,30,65,1,2,0,2,0,1,,,,,,,,,,,,,,,,,,,,,,,,,,,,,,,,,,,,,,,
,,,,,,,62da562ad9942a440f6986c9,2023-08-16_09h02.06.543,HF_wild_card,2022.2.4,Win32,5.454823155,62da562ad9942a440f6986c9,64d2fd46c836a06233681665,64dc824674030621af8a3d16,,,,,,,sngl,resources/Empty.png,resources/DG.BMP,Door1,0.409259259,-0.012037037,1,0,0,4.5216,optionRight,30,95,1,3,0,3,0,1,,,,,,,,,,,,,,,,,,,,,,,,,,,,,,,,,,,,,,,
,,,,,,,62da562ad9942a440f6986c9,2023-08-16_09h02.06.543,HF_wild_card,2022.2.4,Win32,5.454823155,62da562ad9942a440f6986c9,64d2fd46c836a06233681665,64dc824674030621af8a3d16,,,,,,,decisionTrl,resources/DR.BMP,resources/DB.BMP,Door4,-0.403703704,-0.05,1,0,0,5.1237,optionLeft,60,155,1,4,0,4,0,1,,,,,,,,,,,,,,,,,,,,,,,,,,,,,,,,,,,,,,,
,,,,,,,62da562ad9942a440f6986c9,2023-08-16_09h02.06.543,HF_wild_card,2022.2.4,Win32,5.454823155,62da562ad9942a440f6986c9,64d2fd46c836a06233681665,64dc824674030621af8a3d16,,,,,,,ctch,resources/DR.BMP,resources/DG.BMP,Door4,-0.411111111,-0.058333333,1,0,0,4.1223,optionLeft,80,235,1,5,0,5,0,1,,,,,,,,,,,,,,,,,,,,,,,,,,,,,,,,,,,,,,,
,,,,,,,62da562ad9942a440f6986c9,2023-08-16_09h02.06.543,HF_wild_card,2022.2.4,Win32,5.454823155,62da562ad9942a440f6986c9,64d2fd46c836a06233681665,64dc824674030621af8a3d16,,,,,,,sngl,resources/DR.BMP,resources/Empty.png,Door4,-0.377777778,-0.058333333,1,0,0,3.3865,optionLeft,80,315,1,6,0,6,0,1,,,,,,,,,,,,,,,,,,,,,,,,,,,,,,,,,,,,,,,
,,,,,,,62da562ad9942a440f6986c9,2023-08-16_09h02.06.543,HF_wild_card,2022.2.4,Win32,5.454823155,62da562ad9942a440f6986c9,64d2fd46c836a06233681665,64dc824674030621af8a3d16,,,,,,,decisionTrl,resources/DG.BMP,resources/DBN.BMP,Door1,-0.369444444,-0.027777778,1,0,0,3.478,optionLeft,30,345,1,7,0,7,0,1,,,,,,,,,,,,,,,,,,,,,,,,,,,,,,,,,,,,,,,
,,,,,,,62da562ad9942a440f6986c9,2023-08-16_09h02.06.543,HF_wild_card,2022.2.4,Win32,5.454823155,62da562ad9942a440f6986c9,64d2fd46c836a06233681665,64dc824674030621af8a3d16,,,,,,,ctch,resources/DR.BMP,resources/DG.BMP,Door4,-0.372222222,-0.046296296,1,0,0,2.7291,optionLeft,80,425,1,8,0,8,0,1,,,,,,,,,,,,,,,,,,,,,,,,,,,,,,,,,,,,,,,
,,,,,,,62da562ad9942a440f6986c9,2023-08-16_09h02.06.543,HF_wild_card,2022.2.4,Win32,5.454823155,62da562ad9942a440f6986c9,64d2fd46c836a06233681665,64dc824674030621af8a3d16,,,,,,,decisionTrl,resources/DB.BMP,resources/DG.BMP,WildCard_Ex,-0.389814815,-0.062962963,1,0,0,3.493,optionLeft,95,520,1,9,0,9,0,1,,,,,,,,,,,,,,,,,,,,,,,,,,,,,,,,,,,,,,,
,,,,,,,62da562ad9942a440f6986c9,2023-08-16_09h02.06.543,HF_wild_card,2022.2.4,Win32,5.454823155,62da562ad9942a440f6986c9,64d2fd46c836a06233681665,64dc824674030621af8a3d16,,,,,,,ctch,resources/DP.BMP,resources/DBN.BMP,Door3,-0.356481481,-0.049074074,1,0,0,2.6905,optionLeft,70,590,1,10,0,10,0,1,,,,,,,,,,,,,,,,,,,,,,,,,,,,,,,,,,,,,,,
,,,,,,,62da562ad9942a440f6986c9,2023-08-16_09h02.06.543,HF_wild_card,2022.2.4,Win32,5.454823155,62da562ad9942a440f6986c9,64d2fd46c836a06233681665,64dc824674030621af8a3d16,,,,,,,decisionTrl,resources/DR.BMP,resources/DP.BMP,Door4,-0.387962963,-0.064814815,1,0,0,5.1046,optionLeft,60,650,1,11,0,11,0,1,,,,,,,,,,,,,,,,,,,,,,,,,,,,,,,,,,,,,,,
,,,,,,,62da562ad9942a440f6986c9,2023-08-16_09h02.06.543,HF_wild_card,2022.2.4,Win32,5.454823155,62da562ad9942a440f6986c9,64d2fd46c836a06233681665,64dc824674030621af8a3d16,,,,,,,decisionTrl,resources/DB.BMP,resources/DR.BMP,WildCard_Ex,-0.407407407,-0.066666667,1,0,0,4.8779,optionLeft,5,655,1,12,0,12,0,1,,,,,,,,,,,,,,,,,,,,,,,,,,,,,,,,,,,,,,,
,,,,,,,62da562ad9942a440f6986c9,2023-08-16_09h02.06.543,HF_wild_card,2022.2.4,Win32,5.454823155,62da562ad9942a440f6986c9,64d2fd46c836a06233681665,64dc824674030621af8a3d16,,,,,,,ctch,resources/DBN.BMP,resources/DP.BMP,Door2,-0.392592593,0.009259259,1,0,0,3.5118,optionLeft,40,695,1,13,0,13,0,1,,,,,,,,,,,,,,,,,,,,,,,,,,,,,,,,,,,,,,,
,,,,,,,62da562ad9942a440f6986c9,2023-08-16_09h02.06.543,HF_wild_card,2022.2.4,Win32,5.454823155,62da562ad9942a440f6986c9,64d2fd46c836a06233681665,64dc824674030621af8a3d16,,,,,,,decisionTrl,resources/DG.BMP,resources/DBN.BMP,Door1,-0.42037037,-0.037962963,1,0,0,2.1379,optionLeft,30,725,1,14,0,14,0,1,,,,,,,,,,,,,,,,,,,,,,,,,,,,,,,,,,,,,,,
,,,,,,,62da562ad9942a440f6986c9,2023-08-16_09h02.06.543,HF_wild_card,2022.2.4,Win32,5.454823155,62da562ad9942a440f6986c9,64d2fd46c836a06233681665,64dc824674030621af8a3d16,,,,,,,decisionTrl,resources/DB.BMP,resources/DBN.BMP,WildCard_Ex,-0.283333333,-0.062037037,1,0,0,2.1483,optionLeft,5,730,1,15,0,15,0,1,,,,,,,,,,,,,,,,,,,,,,,,,,,,,,,,,,,,,,,
,,,,,,,62da562ad9942a440f6986c9,2023-08-16_09h02.06.543,HF_wild_card,2022.2.4,Win32,5.454823155,62da562ad9942a440f6986c9,64d2fd46c836a06233681665,64dc824674030621af8a3d16,,,,,,,ctch,resources/DP.BMP,resources/DBN.BMP,Door3,-0.281481481,-0.076851852,1,0,0,3.2719,optionLeft,70,800,1,16,0,16,0,1,,,,,,,,,,,,,,,,,,,,,,,,,,,,,,,,,,,,,,,
,,,,,,,62da562ad9942a440f6986c9,2023-08-16_09h02.06.543,HF_wild_card,2022.2.4,Win32,5.454823155,62da562ad9942a440f6986c9,64d2fd46c836a06233681665,64dc824674030621af8a3d16,,,,,,,sngl,resources/Empty.png,resources/DB.BMP,WildCard_Ex,0.416666667,0.012037037,1,0,0,3.1249,optionRight,95,895,1,17,0,17,0,1,,,,,,,,,,,,,,,,,,,,,,,,,,,,,,,,,,,,,,,
,,,,,,,62da562ad9942a440f6986c9,2023-08-16_09h02.06.543,HF_wild_card,2022.2.4,Win32,5.454823155,62da562ad9942a440f6986c9,64d2fd46c836a06233681665,64dc824674030621af8a3d16,,,,,,,sngl,resources/DB.BMP,resources/Empty.png,WildCard_Ex,-0.387962963,-0.048148148,1,0,0,2.1616,optionLeft,95,990,1,18,0,18,0,1,,,,,,,,,,,,,,,,,,,,,,,,,,,,,,,,,,,,,,,
,,,,,,,62da562ad9942a440f6986c9,2023-08-16_09h02.06.543,HF_wild_card,2022.2.4,Win32,5.454823155,62da562ad9942a440f6986c9,64d2fd46c836a06233681665,64dc824674030621af8a3d16,,,,,,,decisionTrl,resources/DR.BMP,resources/DP.BMP,Door3,0.39537037,0.00462963,1,0,0,11.087,optionRight,70,1060,1,19,0,19,0,1,,,,,,,,,,,,,,,,,,,,,,,,,,,,,,,,,,,,,,,
,,,,,,,62da562ad9942a440f6986c9,2023-08-16_09h02.06.543,HF_wild_card,2022.2.4,Win32,5.454823155,62da562ad9942a440f6986c9,64d2fd46c836a06233681665,64dc824674030621af8a3d16,,,,,,,sngl,resources/Empty.png,resources/DR.BMP,Door4,0.35462963,0.00462963,1,0,0,2.1699,optionRight,60,1120,1,20,0,20,0,1,,,,,,,,,,,,,,,,,,,,,,,,,,,,,,,,,,,,,,,
,,,,,,,62da562ad9942a440f6986c9,2023-08-16_09h02.06.543,HF_wild_card,2022.2.4,Win32,5.454823155,62da562ad9942a440f6986c9,64d2fd46c836a06233681665,64dc824674030621af8a3d16,,,,,,,decisionTrl,resources/DP.BMP,resources/DR.BMP,Door4,0.401851852,0.012037037,1,0,0,4.8821,optionRight,60,1180,1,21,0,21,0,1,,,,,,,,,,,,,,,,,,,,,,,,,,,,,,,,,,,,,,,
,,,,,,,62da562ad9942a440f6986c9,2023-08-16_09h02.06.543,HF_wild_card,2022.2.4,Win32,5.454823155,62da562ad9942a440f6986c9,64d2fd46c836a06233681665,64dc824674030621af8a3d16,,,,,,,sngl,resources/DP.BMP,resources/Empty.png,Door3,-0.362962963,-0.063888889,1,0,0,2.6415,optionLeft,70,1250,1,22,0,22,0,1,,,,,,,,,,,,,,,,,,,,,,,,,,,,,,,,,,,,,,,
,,,,,,,62da562ad9942a440f6986c9,2023-08-16_09h02.06.543,HF_wild_card,2022.2.4,Win32,5.454823155,62da562ad9942a440f6986c9,64d2fd46c836a06233681665,64dc824674030621af8a3d16,,,,,,,ctch,resources/DBN.BMP,resources/DP.BMP,Door3,0.293518519,-0.014814815,1,0,0,2.3479,optionRight,70,1320,1,23,0,23,0,1,,,,,,,,,,,,,,,,,,,,,,,,,,,,,,,,,,,,,,,
,,,,,,,62da562ad9942a440f6986c9,2023-08-16_09h02.06.543,HF_wild_card,2022.2.4,Win32,5.454823155,62da562ad9942a440f6986c9,64d2fd46c836a06233681665,64dc824674030621af8a3d16,,,,,,,sngl,resources/Empty.png,resources/DBN.BMP,Door2,0.305555556,0.037037037,1,0,0,2.9382,optionRight,20,1340,1,24,0,24,0,1,,,,,,,,,,,,,,,,,,,,,,,,,,,,,,,,,,,,,,,
,,,,,,,62da562ad9942a440f6986c9,2023-08-16_09h02.06.543,HF_wild_card,2022.2.4,Win32,5.454823155,62da562ad9942a440f6986c9,64d2fd46c836a06233681665,64dc824674030621af8a3d16,,,,,,,decisionTrl,resources/DBN.BMP,resources/DB.BMP,WildCard_Ex,0.42962963,-0.005555556,1,0,0,1.922,optionRight,95,1435,1,25,0,25,0,1,,,,,,,,,,,,,,,,,,,,,,,,,,,,,,,,,,,,,,,
,,,,,,,62da562ad9942a440f6986c9,2023-08-16_09h02.06.543,HF_wild_card,2022.2.4,Win32,5.454823155,62da562ad9942a440f6986c9,64d2fd46c836a06233681665,64dc824674030621af8a3d16,,,,,,,sngl,resources/Empty.png,resources/DP.BMP,Door3,0.32962963,-0.018518519,1,0,0,1.9343,optionRight,70,1505,1,26,0,26,0,1,,,,,,,,,,,,,,,,,,,,,,,,,,,,,,,,,,,,,,,
,,,,,,,62da562ad9942a440f6986c9,2023-08-16_09h02.06.543,HF_wild_card,2022.2.4,Win32,5.454823155,62da562ad9942a440f6986c9,64d2fd46c836a06233681665,64dc824674030621af8a3d16,,,,,,,decisionTrl,resources/DR.BMP,resources/DP.BMP,Door3,0.327777778,0.009259259,1,0,0,3.2678,optionRight,70,1575,1,27,0,27,0,1,,,,,,,,,,,,,,,,,,,,,,,,,,,,,,,,,,,,,,,
,,,,,,,62da562ad9942a440f6986c9,2023-08-16_09h02.06.543,HF_wild_card,2022.2.4,Win32,5.454823155,62da562ad9942a440f6986c9,64d2fd46c836a06233681665,64dc824674030621af8a3d16,,,,,,,decisionTrl,resources/DR.BMP,resources/DP.BMP,Door3,0.328703704,-0.026851852,1,0,0,2.6811,optionRight,70,1645,1,28,0,28,0,1,,,,,,,,,,,,,,,,,,,,,,,,,,,,,,,,,,,,,,,
,,,,,,,62da562ad9942a440f6986c9,2023-08-16_09h02.06.543,HF_wild_card,2022.2.4,Win32,5.454823155,62da562ad9942a440f6986c9,64d2fd46c836a06233681665,64dc824674030621af8a3d16,,,,,,,decisionTrl,resources/DP.BMP,resources/DR.BMP,Door4,0.378703704,-0.013888889,1,0,0,2.2185,optionRight,60,1705,1,29,0,29,0,1,,,,,,,,,,,,,,,,,,,,,,,,,,,,,,,,,,,,,,,
,,,,,,,62da562ad9942a440f6986c9,2023-08-16_09h02.06.543,HF_wild_card,2022.2.4,Win32,5.454823155,62da562ad9942a440f6986c9,64d2fd46c836a06233681665,64dc824674030621af8a3d16,,,,,,,decisionTrl,resources/DB.BMP,resources/DP.BMP,WildCard_Ex,-0.350925926,-0.061111111,1,0,0,3.5009,optionLeft,5,1710,1,30,0,30,0,1,,,,,,,,,,,,,,,,,,,,,,,,,,,,,,,,,,,,,,,
,,,,,,,62da562ad9942a440f6986c9,2023-08-16_09h02.06.543,HF_wild_card,2022.2.4,Win32,5.454823155,62da562ad9942a440f6986c9,64d2fd46c836a06233681665,64dc824674030621af8a3d16,,,,,,,sngl,resources/DB.BMP,resources/Empty.png,WildCard_Ex,-0.374074074,-0.022222222,1,0,0,1.7241,optionLeft,5,1715,1,31,0,31,0,1,,,,,,,,,,,,,,,,,,,,,,,,,,,,,,,,,,,,,,,
,,,,,,,62da562ad9942a440f6986c9,2023-08-16_09h02.06.543,HF_wild_card,2022.2.4,Win32,5.454823155,62da562ad9942a440f6986c9,64d2fd46c836a06233681665,64dc824674030621af8a3d16,,,,,,,decisionTrl,resources/DBN.BMP,resources/DG.BMP,Door1,0.403703704,-0.014814815,1,0,0,5.6578,optionRight,30,1745,1,32,0,32,0,1,,,,,,,,,,,,,,,,,,,,,,,,,,,,,,,,,,,,,,,
,,,,,,,62da562ad9942a440f6986c9,2023-08-16_09h02.06.543,HF_wild_card,2022.2.4,Win32,5.454823155,62da562ad9942a440f6986c9,64d2fd46c836a06233681665,64dc824674030621af8a3d16,,,,,,,decisionTrl,resources/DP.BMP,resources/DR.BMP,Door4,0.337037037,0.000925926,1,0,0,4.6184,optionRight,80,1825,1,33,0,33,0,1,,,,,,,,,,,,,,,,,,,,,,,,,,,,,,,,,,,,,,,
,,,,,,,62da562ad9942a440f6986c9,2023-08-16_09h02.06.543,HF_wild_card,2022.2.4,Win32,5.454823155,62da562ad9942a440f6986c9,64d2fd46c836a06233681665,64dc824674030621af8a3d16,,,,,,,decisionTrl,resources/DBN.BMP,resources/DG.BMP,Door1,0.300925926,-0.048148148,1,0,0,4.6232,optionRight,30,1855,1,34,0,34,0,1,,,,,,,,,,,,,,,,,,,,,,,,,,,,,,,,,,,,,,,
,,,,,,,62da562ad9942a440f6986c9,2023-08-16_09h02.06.543,HF_wild_card,2022.2.4,Win32,5.454823155,62da562ad9942a440f6986c9,64d2fd46c836a06233681665,64dc824674030621af8a3d16,,,,,,,decisionTrl,resources/DBN.BMP,resources/DG.BMP,Door2,-0.321296296,-0.019444444,1,0,0,1.6585,optionLeft,40,1895,1,35,0,35,0,1,,,,,,,,,,,,,,,,,,,,,,,,,,,,,,,,,,,,,,,
,,,,,,,62da562ad9942a440f6986c9,2023-08-16_09h02.06.543,HF_wild_card,2022.2.4,Win32,5.454823155,62da562ad9942a440f6986c9,64d2fd46c836a06233681665,64dc824674030621af8a3d16,,,,,,,sngl,resources/DBN.BMP,resources/Empty.png,Door2,-0.30462963,-0.012962963,1,0,0,1.7029,optionLeft,40,1935,1,36,0,36,0,1,,,,,,,,,,,,,,,,,,,,,,,,,,,,,,,,,,,,,,,
,,,,,,,62da562ad9942a440f6986c9,2023-08-16_09h02.06.543,HF_wild_card,2022.2.4,Win32,5.454823155,62da562ad9942a440f6986c9,64d2fd46c836a06233681665,64dc824674030621af8a3d16,,,,,,,ctch,resources/DG.BMP,resources/DR.BMP,Door4,0.25462963,-0.018518519,1,0,0,4.2974,optionRight,60,1995,1,37,0,37,0,1,,,,,,,,,,,,,,,,,,,,,,,,,,,,,,,,,,,,,,,
,,,,,,,62da562ad9942a440f6986c9,2023-08-16_09h02.06.543,HF_wild_card,2022.2.4,Win32,5.454823155,62da562ad9942a440f6986c9,64d2fd46c836a06233681665,64dc824674030621af8a3d16,,,,,,,decisionTrl,resources/DP.BMP,resources/DR.BMP,Door3,-0.314814815,-0.082407407,1,0,0,4.8425,optionLeft,70,2065,1,38,0,38,0,1,,,,,,,,,,,,,,,,,,,,,,,,,,,,,,,,,,,,,,,
,,,,,,,62da562ad9942a440f6986c9,2023-08-16_09h02.06.543,HF_wild_card,2022.2.4,Win32,5.454823155,62da562ad9942a440f6986c9,64d2fd46c836a06233681665,64dc824674030621af8a3d16,,,,,,,decisionTrl,resources/DG.BMP,resources/DBN.BMP,Door1,-0.381481481,-0.017592593,1,0,0,1.9352,optionLeft,30,2095,1,39,0,39,0,1,,,,,,,,,,,,,,,,,,,,,,,,,,,,,,,,,,,,,,,
,,,,,,,62da562ad9942a440f6986c9,2023-08-16_09h02.06.543,HF_wild_card,2022.2.4,Win32,5.454823155,62da562ad9942a440f6986c9,64d2fd46c836a06233681665,64dc824674030621af8a3d16,,,,,,,ctch,resources/DG.BMP,resources/DR.BMP,Door4,0.34537037,-0.016666667,1,0,0,2.157,optionRight,60,2155,1,40,0,40,0,1,,,,,,,,,,,,,,,,,,,,,,,,,,,,,,,,,,,,,,,
,,,,,,,62da562ad9942a440f6986c9,2023-08-16_09h02.06.543,HF_wild_card,2022.2.4,Win32,5.454823155,62da562ad9942a440f6986c9,64d2fd46c836a06233681665,64dc824674030621af8a3d16,,,,,,,decisionTrl,resources/DG.BMP,resources/DB.BMP,WildCard_Ex,0.339814815,-0.010185185,1,0,0,5.3964,optionRight,95,2250,1,41,0,41,0,1,,,,,,,,,,,,,,,,,,,,,,,,,,,,,,,,,,,,,,,
,,,,,,,62da562ad9942a440f6986c9,2023-08-16_09h02.06.543,HF_wild_card,2022.2.4,Win32,5.454823155,62da562ad9942a440f6986c9,64d2fd46c836a06233681665,64dc824674030621af8a3d16,,,,,,,decisionTrl,resources/DP.BMP,resources/DB.BMP,WildCard_Ex,0.355555556,0.001851852,1,0,0,1.9174,optionRight,5,2255,1,42,0,42,0,1,,,,,,,,,,,,,,,,,,,,,,,,,,,,,,,,,,,,,,,
,,,,,,,62da562ad9942a440f6986c9,2023-08-16_09h02.06.543,HF_wild_card,2022.2.4,Win32,5.454823155,62da562ad9942a440f6986c9,64d2fd46c836a06233681665,64dc824674030621af8a3d16,,,,,,,decisionTrl,resources/DBN.BMP,resources/DG.BMP,Door2,-0.391666667,-0.036111111,1,0,0,3.5257,optionLeft,20,2275,1,43,0,43,0,1,,,,,,,,,,,,,,,,,,,,,,,,,,,,,,,,,,,,,,,
,,,,,,,62da562ad9942a440f6986c9,2023-08-16_09h02.06.543,HF_wild_card,2022.2.4,Win32,5.454823155,62da562ad9942a440f6986c9,64d2fd46c836a06233681665,64dc824674030621af8a3d16,,,,,,,,,,,,,,,,,,,,,,,,,,0,0,0,0,1,,,,,,,,,,,,,,,,,,,,,,,,,,,,,,,,,,
,,,,,,,62da562ad9942a440f6986c9,2023-08-16_09h02.06.543,HF_wild_card,2022.2.4,Win32,5.454823155,62da562ad9942a440f6986c9,64d2fd46c836a06233681665,64dc824674030621af8a3d16,,,,,,,decisionTrl,resources/DP.BMP,resources/DR.BMP,Door4,0.355555556,-0.050925926,1,0,0,4.278,optionRight,80,2355,2,0,0,0,0,1,,,,,,,,,,,,,,,,,,,,,,,,,,,,,,,,,,,,,,,
,,,,,,,62da562ad9942a440f6986c9,2023-08-16_09h02.06.543,HF_wild_card,2022.2.4,Win32,5.454823155,62da562ad9942a440f6986c9,64d2fd46c836a06233681665,64dc824674030621af8a3d16,,,,,,,decisionTrl,resources/DBN.BMP,resources/DG.BMP,Door2,-0.300925926,-0.012037037,1,0,0,1.6129,optionLeft,40,2395,2,1,0,1,0,1,,,,,,,,,,,,,,,,,,,,,,,,,,,,,,,,,,,,,,,
,,,,,,,62da562ad9942a440f6986c9,2023-08-16_09h02.06.543,HF_wild_card,2022.2.4,Win32,5.454823155,62da562ad9942a440f6986c9,64d2fd46c836a06233681665,64dc824674030621af8a3d16,,,,,,,decisionTrl,resources/DB.BMP,resources/DP.BMP,WildCard_Ex,-0.342592593,-0.042592593,1,0,0,6.0147,optionLeft,95,2490,2,2,0,2,0,1,,,,,,,,,,,,,,,,,,,,,,,,,,,,,,,,,,,,,,,
,,,,,,,62da562ad9942a440f6986c9,2023-08-16_09h02.06.543,HF_wild_card,2022.2.4,Win32,5.454823155,62da562ad9942a440f6986c9,64d2fd46c836a06233681665,64dc824674030621af8a3d16,,,,,,,sngl,resources/Empty.png,resources/DB.BMP,WildCard_Ex,0.381481481,-0.023148148,1,0,0,7.0326,optionRight,95,2585,2,3,0,3,0,1,,,,,,,,,,,,,,,,,,,,,,,,,,,,,,,,,,,,,,,
,,,,,,,62da562ad9942a440f6986c9,2023-08-16_09h02.06.543,HF_wild_card,2022.2.4,Win32,5.454823155,62da562ad9942a440f6986c9,64d2fd46c836a06233681665,64dc824674030621af8a3d16,,,,,,,decisionTrl,resources/DB.BMP,resources/DR.BMP,WildCard_Ex,-0.413888889,-0.034259259,1,0,0,4.6119,optionLeft,5,2590,2,4,0,4,0,1,,,,,,,,,,,,,,,,,,,,,,,,,,,,,,,,,,,,,,,
,,,,,,,62da562ad9942a440f6986c9,2023-08-16_09h02.06.543,HF_wild_card,2022.2.4,Win32,5.454823155,62da562ad9942a440f6986c9,64d2fd46c836a06233681665,64dc824674030621af8a3d16,,,,,,,decisionTrl,resources/DG.BMP,resources/DB.BMP,WildCard_Ex,0.37962963,-0.021296296,1,0,0,2.1964,optionRight,5,2595,2,5,0,5,0,1,,,,,,,,,,,,,,,,,,,,,,,,,,,,,,,,,,,,,,,
,,,,,,,62da562ad9942a440f6986c9,2023-08-16_09h02.06.543,HF_wild_card,2022.2.4,Win32,5.454823155,62da562ad9942a440f6986c9,64d2fd46c836a06233681665,64dc824674030621af8a3d16,,,,,,,sngl,resources/DR.BMP,resources/Empty.png,Door4,-0.363888889,-0.025,1,0,0,1.4452,optionLeft,60,2655,2,6,0,6,0,1,,,,,,,,,,,,,,,,,,,,,,,,,,,,,,,,,,,,,,,
,,,,,,,62da562ad9942a440f6986c9,2023-08-16_09h02.06.543,HF_wild_card,2022.2.4,Win32,5.454823155,62da562ad9942a440f6986c9,64d2fd46c836a06233681665,64dc824674030621af8a3d16,,,,,,,sngl,resources/Empty.png,resources/DR.BMP,Door4,0.391666667,-0.018518519,1,0,0,1.9576,optionRight,80,2735,2,7,0,7,0,1,,,,,,,,,,,,,,,,,,,,,,,,,,,,,,,,,,,,,,,
,,,,,,,62da562ad9942a440f6986c9,2023-08-16_09h02.06.543,HF_wild_card,2022.2.4,Win32,5.454823155,62da562ad9942a440f6986c9,64d2fd46c836a06233681665,64dc824674030621af8a3d16,,,,,,,ctch,resources/DG.BMP,resources/DR.BMP,Door4,0.389814815,-0.026851852,1,0,0,5.2205,optionRight,60,2795,2,8,0,8,0,1,,,,,,,,,,,,,,,,,,,,,,,,,,,,,,,,,,,,,,,
,,,,,,,62da562ad9942a440f6986c9,2023-08-16_09h02.06.543,HF_wild_card,2022.2.4,Win32,5.454823155,62da562ad9942a440f6986c9,64d2fd46c836a06233681665,64dc824674030621af8a3d16,,,,,,,decisionTrl,resources/DG.BMP,resources/DBN.BMP,Door2,0.316666667,0.014814815,1,0,0,5.1635,optionRight,20,2815,2,9,0,9,0,1,,,,,,,,,,,,,,,,,,,,,,,,,,,,,,,,,,,,,,,
,,,,,,,62da562ad9942a440f6986c9,2023-08-16_09h02.06.543,HF_wild_card,2022.2.4,Win32,5.454823155,62da562ad9942a440f6986c9,64d2fd46c836a06233681665,64dc824674030621af8a3d16,,,,,,,decisionTrl,resources/DR.BMP,resources/DP.BMP,Door3,0.42037037,-0.006481481,1,0,0,2.7315,optionRight,70,2885,2,10,0,10,0,1,,,,,,,,,,,,,,,,,,,,,,,,,,,,,,,,,,,,,,,
,,,,,,,62da562ad9942a440f6986c9,2023-08-16_09h02.06.543,HF_wild_card,2022.2.4,Win32,5.454823155,62da562ad9942a440f6986c9,64d2fd46c836a06233681665,64dc824674030621af8a3d16,,,,,,,ctch,resources/DP.BMP,resources/DBN.BMP,Door3,-0.373148148,-0.046296296,1,0,0,4.6118,optionLeft,70,2955,2,11,0,11,0,1,,,,,,,,,,,,,,,,,,,,,,,,,,,,,,,,,,,,,,,
,,,,,,,62da562ad9942a440f6986c9,2023-08-16_09h02.06.543,HF_wild_card,2022.2.4,Win32,5.454823155,62da562ad9942a440f6986c9,64d2fd46c836a06233681665,64dc824674030621af8a3d16,,,,,,,decisionTrl,resources/DR.BMP,resources/DP.BMP,Door4,-0.357407407,-0.059259259,1,0,0,4.8141,optionLeft,60,3015,2,12,0,12,0,1,,,,,,,,,,,,,,,,,,,,,,,,,,,,,,,,,,,,,,,
,,,,,,,62da562ad9942a440f6986c9,2023-08-16_09h02.06.543,HF_wild_card,2022.2.4,Win32,5.454823155,62da562ad9942a440f6986c9,64d2fd46c836a06233681665,64dc824674030621af8a3d16,,,,,,,decisionTrl,resources/DB.BMP,resources/DG.BMP,WildCard_Ex,-0.406481481,-0.037962963,1,0,0,6.2918,optionLeft,5,3020,2,13,0,13,0,1,,,,,,,,,,,,,,,,,,,,,,,,,,,,,,,,,,,,,,,
,,,,,,,62da562ad9942a440f6986c9,2023-08-16_09h02.06.543,HF_wild_card,2022.2.4,Win32,5.454823155,62da562ad9942a440f6986c9,64d2fd46c836a06233681665,64dc824674030621af8a3d16,,,,,,,decisionTrl,resources/DBN.BMP,resources/DG.BMP,Door2,-0.339814815,-0.026851852,1,0,0,2.3166,optionLeft,20,3040,2,14,0,14,0,1,,,,,,,,,,,,,,,,,,,,,,,,,,,,,,,,,,,,,,,
,,,,,,,62da562ad9942a440f6986c9,2023-08-16_09h02.06.543,HF_wild_card,2022.2.4,Win32,5.454823155,62da562ad9942a440f6986c9,64d2fd46c836a06233681665,64dc824674030621af8a3d16,,,,,,,decisionTrl,resources/DP.BMP,resources/DR.BMP,Door3,-0.396296296,-0.04537037,1,0,0,4.2968,optionLeft,70,3110,2,15,0,15,0,1,,,,,,,,,,,,,,,,,,,,,,,,,,,,,,,,,,,,,,,
,,,,,,,62da562ad9942a440f6986c9,2023-08-16_09h02.06.543,HF_wild_card,2022.2.4,Win32,5.454823155,62da562ad9942a440f6986c9,64d2fd46c836a06233681665,64dc824674030621af8a3d16,,,,,,,decisionTrl,resources/DG.BMP,resources/DBN.BMP,Door2,0.375,-0.000925926,1,0,0,1.9268,optionRight,40,3150,2,16,0,16,0,1,,,,,,,,,,,,,,,,,,,,,,,,,,,,,,,,,,,,,,,
,,,,,,,62da562ad9942a440f6986c9,2023-08-16_09h02.06.543,HF_wild_card,2022.2.4,Win32,5.454823155,62da562ad9942a440f6986c9,64d2fd46c836a06233681665,64dc824674030621af8a3d16,,,,,,,decisionTrl,resources/DR.BMP,resources/DP.BMP,Door3,0.371296296,-0.040740741,1,0,0,4.3102,optionRight,70,3220,2,17,0,17,0,1,,,,,,,,,,,,,,,,,,,,,,,,,,,,,,,,,,,,,,,
,,,,,,,62da562ad9942a440f6986c9,2023-08-16_09h02.06.543,HF_wild_card,2022.2.4,Win32,5.454823155,62da562ad9942a440f6986c9,64d2fd46c836a06233681665,64dc824674030621af8a3d16,,,,,,,ctch,resources/DP.BMP,resources/DBN.BMP,Door3,-0.397222222,-0.038888889,1,0,0,3.2804,optionLeft,70,3290,2,18,0,18,0,1,,,,,,,,,,,,,,,,,,,,,,,,,,,,,,,,,,,,,,,
,,,,,,,62da562ad9942a440f6986c9,2023-08-16_09h02.06.543,HF_wild_card,2022.2.4,Win32,5.454823155,62da562ad9942a440f6986c9,64d2fd46c836a06233681665,64dc824674030621af8a3d16,,,,,,,decisionTrl,resources/DBN.BMP,resources/DG.BMP,Door2,-0.323148148,-0.024074074,1,0,0,1.9403,optionLeft,40,3330,2,19,0,19,0,1,,,,,,,,,,,,,,,,,,,,,,,,,,,,,,,,,,,,,,,
,,,,,,,62da562ad9942a440f6986c9,2023-08-16_09h02.06.543,HF_wild_card,2022.2.4,Win32,5.454823155,62da562ad9942a440f6986c9,64d2fd46c836a06233681665,64dc824674030621af8a3d16,,,,,,,ctch,resources/DBN.BMP,resources/DP.BMP,Door3,0.363888889,-0.049074074,1,0,0,2.5695,optionRight,70,3400,2,20,0,20,0,1,,,,,,,,,,,,,,,,,,,,,,,,,,,,,,,,,,,,,,,
,,,,,,,62da562ad9942a440f6986c9,2023-08-16_09h02.06.543,HF_wild_card,2022.2.4,Win32,5.454823155,62da562ad9942a440f6986c9,64d2fd46c836a06233681665,64dc824674030621af8a3d16,,,,,,,sngl,resources/Empty.png,resources/DG.BMP,Door1,0.338888889,0.000925926,1,0,0,1.6762,optionRight,30,3430,2,21,0,21,0,1,,,,,,,,,,,,,,,,,,,,,,,,,,,,,,,,,,,,,,,
,,,,,,,62da562ad9942a440f6986c9,2023-08-16_09h02.06.543,HF_wild_card,2022.2.4,Win32,5.454823155,62da562ad9942a440f6986c9,64d2fd46c836a06233681665,64dc824674030621af8a3d16,,,,,,,sngl,resources/DB.BMP,resources/Empty.png,WildCard_Ex,-0.317592593,-0.046296296,1,0,0,1.6935,optionLeft,95,3525,2,22,0,22,0,1,,,,,,,,,,,,,,,,,,,,,,,,,,,,,,,,,,,,,,,
,,,,,,,62da562ad9942a440f6986c9,2023-08-16_09h02.06.543,HF_wild_card,2022.2.4,Win32,5.454823155,62da562ad9942a440f6986c9,64d2fd46c836a06233681665,64dc824674030621af8a3d16,,,,,,,ctch,resources/DR.BMP,resources/DG.BMP,Door4,-0.349074074,-0.044444444,1,0,0,2.4317,optionLeft,80,3605,2,23,0,23,0,1,,,,,,,,,,,,,,,,,,,,,,,,,,,,,,,,,,,,,,,
,,,,,,,62da562ad9942a440f6986c9,2023-08-16_09h02.06.543,HF_wild_card,2022.2.4,Win32,5.454823155,62da562ad9942a440f6986c9,64d2fd46c836a06233681665,64dc824674030621af8a3d16,,,,,,,sngl,resources/DP.BMP,resources/Empty.png,Door3,-0.332407407,-0.039814815,1,0,0,1.7164,optionLeft,70,3675,2,24,0,24,0,1,,,,,,,,,,,,,,,,,,,,,,,,,,,,,,,,,,,,,,,
,,,,,,,62da562ad9942a440f6986c9,2023-08-16_09h02.06.543,HF_wild_card,2022.2.4,Win32,5.454823155,62da562ad9942a440f6986c9,64d2fd46c836a06233681665,64dc824674030621af8a3d16,,,,,,,decisionTrl,resources/DG.BMP,resources/DBN.BMP,Door2,0.358333333,0.044444444,1,0,0,3.5015,optionRight,40,3715,2,25,0,25,0,1,,,,,,,,,,,,,,,,,,,,,,,,,,,,,,,,,,,,,,,
,,,,,,,62da562ad9942a440f6986c9,2023-08-16_09h02.06.543,HF_wild_card,2022.2.4,Win32,5.454823155,62da562ad9942a440f6986c9,64d2fd46c836a06233681665,64dc824674030621af8a3d16,,,,,,,decisionTrl,resources/DP.BMP,resources/DR.BMP,Door3,-0.339814815,-0.066666667,1,0,0,2.4658,optionLeft,70,3785,2,26,0,26,0,1,,,,,,,,,,,,,,,,,,,,,,,,,,,,,,,,,,,,,,,
,,,,,,,62da562ad9942a440f6986c9,2023-08-16_09h02.06.543,HF_wild_card,2022.2.4,Win32,5.454823155,62da562ad9942a440f6986c9,64d2fd46c836a06233681665,64dc824674030621af8a3d16,,,,,,,decisionTrl,resources/DBN.BMP,resources/DG.BMP,Door2,-0.364814815,-0.037962963,1,0,0,2.1959,optionLeft,40,3825,2,27,0,27,0,1,,,,,,,,,,,,,,,,,,,,,,,,,,,,,,,,,,,,,,,
,,,,,,,62da562ad9942a440f6986c9,2023-08-16_09h02.06.543,HF_wild_card,2022.2.4,Win32,5.454823155,62da562ad9942a440f6986c9,64d2fd46c836a06233681665,64dc824674030621af8a3d16,,,,,,,decisionTrl,resources/DBN.BMP,resources/DB.BMP,Door2,-0.302777778,-0.027777778,1,0,0,2.7215,optionLeft,40,3865,2,28,0,28,0,1,,,,,,,,,,,,,,,,,,,,,,,,,,,,,,,,,,,,,,,
,,,,,,,62da562ad9942a440f6986c9,2023-08-16_09h02.06.543,HF_wild_card,2022.2.4,Win32,5.454823155,62da562ad9942a440f6986c9,64d2fd46c836a06233681665,64dc824674030621af8a3d16,,,,,,,sngl,resources/Empty.png,resources/DB.BMP,WildCard_Ex,0.319444444,0.02962963,1,0,0,1.469,optionRight,5,3870,2,29,0,29,0,1,,,,,,,,,,,,,,,,,,,,,,,,,,,,,,,,,,,,,,,
,,,,,,,62da562ad9942a440f6986c9,2023-08-16_09h02.06.543,HF_wild_card,2022.2.4,Win32,5.454823155,62da562ad9942a440f6986c9,64d2fd46c836a06233681665,64dc824674030621af8a3d16,,,,,,,sngl,resources/Empty.png,resources/DP.BMP,Door3,0.309259259,-0.030555556,1,0,0,1.469,optionRight,70,3940,2,30,0,30,0,1,,,,,,,,,,,,,,,,,,,,,,,,,,,,,,,,,,,,,,,
,,,,,,,62da562ad9942a440f6986c9,2023-08-16_09h02.06.543,HF_wild_card,2022.2.4,Win32,5.454823155,62da562ad9942a440f6986c9,64d2fd46c836a06233681665,64dc824674030621af8a3d16,,,,,,,decisionTrl,resources/DP.BMP,resources/DR.BMP,Door4,0.366666667,-0.042592593,1,0,0,2.2334,optionRight,80,4020,2,31,0,31,0,1,,,,,,,,,,,,,,,,,,,,,,,,,,,,,,,,,,,,,,,
,,,,,,,62da562ad9942a440f6986c9,2023-08-16_09h02.06.543,HF_wild_card,2022.2.4,Win32,5.454823155,62da562ad9942a440f6986c9,64d2fd46c836a06233681665,64dc824674030621af8a3d16,,,,,,,sngl,resources/DG.BMP,resources/Empty.png,Door1,-0.27962963,-0.014814815,1,0,0,1.4422,optionLeft,30,4050,2,32,0,32,0,1,,,,,,,,,,,,,,,,,,,,,,,,,,,,,,,,,,,,,,,
,,,,,,,62da562ad9942a440f6986c9,2023-08-16_09h02.06.543,HF_wild_card,2022.2.4,Win32,5.454823155,62da562ad9942a440f6986c9,64d2fd46c836a06233681665,64dc824674030621af8a3d16,,,,,,,decisionTrl,resources/DG.BMP,resources/DBN.BMP,Door2,0.326851852,-0.003703704,1,0,0,3.0048,optionRight,40,4090,2,33,0,33,0,1,,,,,,,,,,,,,,,,,,,,,,,,,,,,,,,,,,,,,,,
,,,,,,,62da562ad9942a440f6986c9,2023-08-16_09h02.06.543,HF_wild_card,2022.2.4,Win32,5.454823155,62da562ad9942a440f6986c9,64d2fd46c836a06233681665,64dc824674030621af8a3d16,,,,,,,sngl,resources/DB.BMP,resources/Empty.png,WildCard_Ex,-0.337962963,-0.033333333,1,0,0,1.4744,optionLeft,5,4095,2,34,0,34,0,1,,,,,,,,,,,,,,,,,,,,,,,,,,,,,,,,,,,,,,,
,,,,,,,62da562ad9942a440f6986c9,2023-08-16_09h02.06.543,HF_wild_card,2022.2.4,Win32,5.454823155,62da562ad9942a440f6986c9,64d2fd46c836a06233681665,64dc824674030621af8a3d16,,,,,,,sngl,resources/DBN.BMP,resources/Empty.png,Door2,-0.283333333,0.000925926,1,0,0,1.4459,optionLeft,20,4115,2,35,0,35,0,1,,,,,,,,,,,,,,,,,,,,,,,,,,,,,,,,,,,,,,,
,,,,,,,62da562ad9942a440f6986c9,2023-08-16_09h02.06.543,HF_wild_card,2022.2.4,Win32,5.454823155,62da562ad9942a440f6986c9,64d2fd46c836a06233681665,64dc824674030621af8a3d16,,,,,,,ctch,resources/DG.BMP,resources/DR.BMP,Door4,0.297222222,0,1,0,0,2.1818,optionRight,80,4195,2,36,0,36,0,1,,,,,,,,,,,,,,,,,,,,,,,,,,,,,,,,,,,,,,,
,,,,,,,62da562ad9942a440f6986c9,2023-08-16_09h02.06.543,HF_wild_card,2022.2.4,Win32,5.454823155,62da562ad9942a440f6986c9,64d2fd46c836a06233681665,64dc824674030621af8a3d16,,,,,,,decisionTrl,resources/DR.BMP,resources/DB.BMP,Door4,-0.34537037,-0.056481481,1,0,0,2.1791,optionLeft,80,4275,2,37,0,37,0,1,,,,,,,,,,,,,,,,,,,,,,,,,,,,,,,,,,,,,,,
,,,,,,,62da562ad9942a440f6986c9,2023-08-16_09h02.06.543,HF_wild_card,2022.2.4,Win32,5.454823155,62da562ad9942a440f6986c9,64d2fd46c836a06233681665,64dc824674030621af8a3d16,,,,,,,ctch,resources/DBN.BMP,resources/DP.BMP,Door3,0.318518519,-0.009259259,1,0,0,2.4588,optionRight,70,4345,2,38,0,38,0,1,,,,,,,,,,,,,,,,,,,,,,,,,,,,,,,,,,,,,,,
,,,,,,,62da562ad9942a440f6986c9,2023-08-16_09h02.06.543,HF_wild_card,2022.2.4,Win32,5.454823155,62da562ad9942a440f6986c9,64d2fd46c836a06233681665,64dc824674030621af8a3d16,,,,,,,ctch,resources/DR.BMP,resources/DG.BMP,Door4,-0.357407407,-0.04537037,1,0,0,2.4972,optionLeft,80,4425,2,39,0,39,0,1,,,,,,,,,,,,,,,,,,,,,,,,,,,,,,,,,,,,,,,
,,,,,,,62da562ad9942a440f6986c9,2023-08-16_09h02.06.543,HF_wild_card,2022.2.4,Win32,5.454823155,62da562ad9942a440f6986c9,64d2fd46c836a06233681665,64dc824674030621af8a3d16,,,,,,,decisionTrl,resources/DR.BMP,resources/DP.BMP,Door4,-0.312037037,-0.064814815,1,0,0,2.1753,optionLeft,80,4505,2,40,0,40,0,1,,,,,,,,,,,,,,,,,,,,,,,,,,,,,,,,,,,,,,,
,,,,,,,62da562ad9942a440f6986c9,2023-08-16_09h02.06.543,HF_wild_card,2022.2.4,Win32,5.454823155,62da562ad9942a440f6986c9,64d2fd46c836a06233681665,64dc824674030621af8a3d16,,,,,,,decisionTrl,resources/DP.BMP,resources/DB.BMP,Door3,-0.30462963,-0.07037037,1,0,0,3.2318,optionLeft,70,4575,2,41,0,41,0,1,,,,,,,,,,,,,,,,,,,,,,,,,,,,,,,,,,,,,,,
,,,,,,,62da562ad9942a440f6986c9,2023-08-16_09h02.06.543,HF_wild_card,2022.2.4,Win32,5.454823155,62da562ad9942a440f6986c9,64d2fd46c836a06233681665,64dc824674030621af8a3d16,,,,,,,decisionTrl,resources/DB.BMP,resources/DBN.BMP,WildCard_Ex,-0.40462963,-0.049074074,1,0,0,3.262,optionLeft,5,4580,2,42,0,42,0,1,,,,,,,,,,,,,,,,,,,,,,,,,,,,,,,,,,,,,,,
,,,,,,,62da562ad9942a440f6986c9,2023-08-16_09h02.06.543,HF_wild_card,2022.2.4,Win32,5.454823155,62da562ad9942a440f6986c9,64d2fd46c836a06233681665,64dc824674030621af8a3d16,,,,,,,sngl,resources/Empty.png,resources/DBN.BMP,Door2,0.296296296,0.019444444,1,0,0,1.6822,optionRight,40,4620,2,43,0,43,0,1,,,,,,,,,,,,,,,,,,,,,,,,,,,,,,,,,,,,,,,
,,,,,,,62da562ad9942a440f6986c9,2023-08-16_09h02.06.543,HF_wild_card,2022.2.4,Win32,5.454823155,62da562ad9942a440f6986c9,64d2fd46c836a06233681665,64dc824674030621af8a3d16,,,,,,,,,,,,,,,,,,,,,,,,,,1,0,1,0,1,,,,,,,,,,,,,,,,,,,,,,,,,,,,,,,,,,
,,,,,,,62da562ad9942a440f6986c9,2023-08-16_09h02.06.543,HF_wild_card,2022.2.4,Win32,5.454823155,62da562ad9942a440f6986c9,64d2fd46c836a06233681665,64dc824674030621af8a3d16,,,,,,,decisionTrl,resources/DR.BMP,resources/DP.BMP,Door3,0.310185185,-0.143518519,1,0,0,4.3206,optionRight,70,4690,3,0,0,0,0,1,,,,,,,,,,,,,,,,,,,,,,,,,,,,,,,,,,,,,,,
,,,,,,,62da562ad9942a440f6986c9,2023-08-16_09h02.06.543,HF_wild_card,2022.2.4,Win32,5.454823155,62da562ad9942a440f6986c9,64d2fd46c836a06233681665,64dc824674030621af8a3d16,,,,,,,ctch,resources/DR.BMP,resources/DG.BMP,Door4,-0.362037037,-0.053703704,1,0,0,2.4123,optionLeft,80,4770,3,1,0,1,0,1,,,,,,,,,,,,,,,,,,,,,,,,,,,,,,,,,,,,,,,
,,,,,,,62da562ad9942a440f6986c9,2023-08-16_09h02.06.543,HF_wild_card,2022.2.4,Win32,5.454823155,62da562ad9942a440f6986c9,64d2fd46c836a06233681665,64dc824674030621af8a3d16,,,,,,,decisionTrl,resources/DB.BMP,resources/DP.BMP,WildCard_Ex,-0.358333333,-0.069444444,1,0,0,4.7743,optionLeft,5,4775,3,2,0,2,0,1,,,,,,,,,,,,,,,,,,,,,,,,,,,,,,,,,,,,,,,
,,,,,,,62da562ad9942a440f6986c9,2023-08-16_09h02.06.543,HF_wild_card,2022.2.4,Win32,5.454823155,62da562ad9942a440f6986c9,64d2fd46c836a06233681665,64dc824674030621af8a3d16,,,,,,,sngl,resources/Empty.png,resources/DG.BMP,Door1,0.324074074,0.006481481,1,0,0,1.2444,optionRight,30,4805,3,3,0,3,0,1,,,,,,,,,,,,,,,,,,,,,,,,,,,,,,,,,,,,,,,
,,,,,,,62da562ad9942a440f6986c9,2023-08-16_09h02.06.543,HF_wild_card,2022.2.4,Win32,5.454823155,62da562ad9942a440f6986c9,64d2fd46c836a06233681665,64dc824674030621af8a3d16,,,,,,,decisionTrl,resources/DP.BMP,resources/DR.BMP,Door3,-0.417592593,-0.069444444,1,0,0,3.0364,optionLeft,70,4875,3,4,0,4,0,1,,,,,,,,,,,,,,,,,,,,,,,,,,,,,,,,,,,,,,,
,,,,,,,62da562ad9942a440f6986c9,2023-08-16_09h02.06.543,HF_wild_card,2022.2.4,Win32,5.454823155,62da562ad9942a440f6986c9,64d2fd46c836a06233681665,64dc824674030621af8a3d16,,,,,,,decisionTrl,resources/DR.BMP,resources/DP.BMP,Door3,0.214814815,-0.024074074,1,0,0,4.0826,optionRight,70,4945,3,5,0,5,0,1,,,,,,,,,,,,,,,,,,,,,,,,,,,,,,,,,,,,,,,
,,,,,,,62da562ad9942a440f6986c9,2023-08-16_09h02.06.543,HF_wild_card,2022.2.4,Win32,5.454823155,62da562ad9942a440f6986c9,64d2fd46c836a06233681665,64dc824674030621af8a3d16,,,,,,,decisionTrl,resources/DG.BMP,resources/DBN.BMP,Door2,0.24537037,-0.019444444,1,0,0,3.0678,optionRight,20,4965,3,6,0,6,0,1,,,,,,,,,,,,,,,,,,,,,,,,,,,,,,,,,,,,,,,
,,,,,,,62da562ad9942a440f6986c9,2023-08-16_09h02.06.543,HF_wild_card,2022.2.4,Win32,5.454823155,62da562ad9942a440f6986c9,64d2fd46c836a06233681665,64dc824674030621af8a3d16,,,,,,,decisionTrl,resources/DBN.BMP,resources/DB.BMP,WildCard_Ex,0.35462963,-0.049074074,1,0,0,4.3215,optionRight,95,5060,3,7,0,7,0,1,,,,,,,,,,,,,,,,,,,,,,,,,,,,,,,,,,,,,,,
,,,,,,,62da562ad9942a440f6986c9,2023-08-16_09h02.06.543,HF_wild_card,2022.2.4,Win32,5.454823155,62da562ad9942a440f6986c9,64d2fd46c836a06233681665,64dc824674030621af8a3d16,,,,,,,sngl,resources/Empty.png,resources/DBN.BMP,Door2,0.378703704,0.025,1,0,0,2.6617,optionRight,20,5080,3,8,0,8,0,1,,,,,,,,,,,,,,,,,,,,,,,,,,,,,,,,,,,,,,,
,,,,,,,62da562ad9942a440f6986c9,2023-08-16_09h02.06.543,HF_wild_card,2022.2.4,Win32,5.454823155,62da562ad9942a440f6986c9,64d2fd46c836a06233681665,64dc824674030621af8a3d16,,,,,,,decisionTrl,resources/DP.BMP,resources/DR.BMP,Door3,-0.397222222,-0.055555556,1,0,0,3.1508,optionLeft,70,5150,3,9,0,9,0,1,,,,,,,,,,,,,,,,,,,,,,,,,,,,,,,,,,,,,,,
,,,,,,,62da562ad9942a440f6986c9,2023-08-16_09h02.06.543,HF_wild_card,2022.2.4,Win32,5.454823155,62da562ad9942a440f6986c9,64d2fd46c836a06233681665,64dc824674030621af8a3d16,,,,,,,decisionTrl,resources/DR.BMP,resources/DP.BMP,Door3,0.25,0,1,0,0,2.5165,optionRight,70,5220,3,10,0,10,0,1,,,,,,,,,,,,,,,,,,,,,,,,,,,,,,,,,,,,,,,
,,,,,,,62da562ad9942a440f6986c9,2023-08-16_09h02.06.543,HF_wild_card,2022.2.4,Win32,5.454823155,62da562ad9942a440f6986c9,64d2fd46c836a06233681665,64dc824674030621af8a3d16,,,,,,,decisionTrl,resources/DR.BMP,resources/DB.BMP,WildCard_Ex,0.302777778,-0.025,1,0,0,3.5269,optionRight,95,5315,3,11,0,11,0,1,,,,,,,,,,,,,,,,,,,,,,,,,,,,,,,,,,,,,,,
,,,,,,,62da562ad9942a440f6986c9,2023-08-16_09h02.06.543,HF_wild_card,2022.2.4,Win32,5.454823155,62da562ad9942a440f6986c9,64d2fd46c836a06233681665,64dc824674030621af8a3d16,,,,,,,decisionTrl,resources/DBN.BMP,resources/DG.BMP,Door2,-0.305555556,-0.046296296,1,0,0,1.9603,optionLeft,40,5355,3,12,0,12,0,1,,,,,,,,,,,,,,,,,,,,,,,,,,,,,,,,,,,,,,,
,,,,,,,62da562ad9942a440f6986c9,2023-08-16_09h02.06.543,HF_wild_card,2022.2.4,Win32,5.454823155,62da562ad9942a440f6986c9,64d2fd46c836a06233681665,64dc824674030621af8a3d16,,,,,,,decisionTrl,resources/DG.BMP,resources/DBN.BMP,Door2,0.366666667,0.006481481,1,0,0,1.9306,optionRight,20,5375,3,13,0,13,0,1,,,,,,,,,,,,,,,,,,,,,,,,,,,,,,,,,,,,,,,
,,,,,,,62da562ad9942a440f6986c9,2023-08-16_09h02.06.543,HF_wild_card,2022.2.4,Win32,5.454823155,62da562ad9942a440f6986c9,64d2fd46c836a06233681665,64dc824674030621af8a3d16,,,,,,,decisionTrl,resources/DB.BMP,resources/DR.BMP,WildCard_Ex,-0.35462963,-0.051851852,1,0,0,3.2623,optionLeft,95,5470,3,14,0,14,0,1,,,,,,,,,,,,,,,,,,,,,,,,,,,,,,,,,,,,,,,
,,,,,,,62da562ad9942a440f6986c9,2023-08-16_09h02.06.543,HF_wild_card,2022.2.4,Win32,5.454823155,62da562ad9942a440f6986c9,64d2fd46c836a06233681665,64dc824674030621af8a3d16,,,,,,,ctch,resources/DBN.BMP,resources/DP.BMP,Door3,0.357407407,-0.038888889,1,0,0,2.7609,optionRight,70,5540,3,15,0,15,0,1,,,,,,,,,,,,,,,,,,,,,,,,,,,,,,,,,,,,,,,
,,,,,,,62da562ad9942a440f6986c9,2023-08-16_09h02.06.543,HF_wild_card,2022.2.4,Win32,5.454823155,62da562ad9942a440f6986c9,64d2fd46c836a06233681665,64dc824674030621af8a3d16,,,,,,,sngl,resources/DR.BMP,resources/Empty.png,Door4,-0.258333333,-0.050925926,1,0,0,1.4467,optionLeft,80,5620,3,16,0,16,0,1,,,,,,,,,,,,,,,,,,,,,,,,,,,,,,,,,,,,,,,
,,,,,,,62da562ad9942a440f6986c9,2023-08-16_09h02.06.543,HF_wild_card,2022.2.4,Win32,5.454823155,62da562ad9942a440f6986c9,64d2fd46c836a06233681665,64dc824674030621af8a3d16,,,,,,,ctch,resources/DG.BMP,resources/DR.BMP,Door4,0.368518519,0.009259259,1,0,0,2.7444,optionRight,80,5700,3,17,0,17,0,1,,,,,,,,,,,,,,,,,,,,,,,,,,,,,,,,,,,,,,,
,,,,,,,62da562ad9942a440f6986c9,2023-08-16_09h02.06.543,HF_wild_card,2022.2.4,Win32,5.454823155,62da562ad9942a440f6986c9,64d2fd46c836a06233681665,64dc824674030621af8a3d16,,,,,,,ctch,resources/DP.BMP,resources/DBN.BMP,Door3,-0.287037037,-0.053703704,1,0,0,2.9687,optionLeft,70,5770,3,18,0,18,0,1,,,,,,,,,,,,,,,,,,,,,,,,,,,,,,,,,,,,,,,
,,,,,,,62da562ad9942a440f6986c9,2023-08-16_09h02.06.543,HF_wild_card,2022.2.4,Win32,5.454823155,62da562ad9942a440f6986c9,64d2fd46c836a06233681665,64dc824674030621af8a3d16,,,,,,,decisionTrl,resources/DBN.BMP,resources/DG.BMP,Door2,-0.29537037,-0.042592593,1,0,0,1.9255,optionLeft,40,5810,3,19,0,19,0,1,,,,,,,,,,,,,,,,,,,,,,,,,,,,,,,,,,,,,,,
,,,,,,,62da562ad9942a440f6986c9,2023-08-16_09h02.06.543,HF_wild_card,2022.2.4,Win32,5.454823155,62da562ad9942a440f6986c9,64d2fd46c836a06233681665,64dc824674030621af8a3d16,,,,,,,sngl,resources/Empty.png,resources/DB.BMP,WildCard_Ex,0.34537037,0.007407407,1,0,0,1.4982,optionRight,5,5815,3,20,0,20,0,1,,,,,,,,,,,,,,,,,,,,,,,,,,,,,,,,,,,,,,,
,,,,,,,62da562ad9942a440f6986c9,2023-08-16_09h02.06.543,HF_wild_card,2022.2.4,Win32,5.454823155,62da562ad9942a440f6986c9,64d2fd46c836a06233681665,64dc824674030621af8a3d16,,,,,,,ctch,resources/DBN.BMP,resources/DP.BMP,Door3,0.377777778,-0.019444444,1,0,0,3.0797,optionRight,70,5885,3,21,0,21,0,1,,,,,,,,,,,,,,,,,,,,,,,,,,,,,,,,,,,,,,,
,,,,,,,62da562ad9942a440f6986c9,2023-08-16_09h02.06.543,HF_wild_card,2022.2.4,Win32,5.454823155,62da562ad9942a440f6986c9,64d2fd46c836a06233681665,64dc824674030621af8a3d16,,,,,,,sngl,resources/Empty.png,resources/DB.BMP,WildCard_Ex,0.312962963,-0.015740741,1,0,0,1.9589,optionRight,95,5980,3,22,0,22,0,1,,,,,,,,,,,,,,,,,,,,,,,,,,,,,,,,,,,,,,,
,,,,,,,62da562ad9942a440f6986c9,2023-08-16_09h02.06.543,HF_wild_card,2022.2.4,Win32,5.454823155,62da562ad9942a440f6986c9,64d2fd46c836a06233681665,64dc824674030621af8a3d16,,,,,,,decisionTrl,resources/DBN.BMP,resources/DG.BMP,Door2,-0.325,-0.033333333,1,0,0,1.8983,optionLeft,20,6000,3,23,0,23,0,1,,,,,,,,,,,,,,,,,,,,,,,,,,,,,,,,,,,,,,,
,,,,,,,62da562ad9942a440f6986c9,2023-08-16_09h02.06.543,HF_wild_card,2022.2.4,Win32,5.454823155,62da562ad9942a440f6986c9,64d2fd46c836a06233681665,64dc824674030621af8a3d16,,,,,,,sngl,resources/DP.BMP,resources/Empty.png,Door3,-0.324074074,-0.014814815,1,0,0,1.7907,optionLeft,70,6070,3,24,0,24,0,1,,,,,,,,,,,,,,,,,,,,,,,,,,,,,,,,,,,,,,,
,,,,,,,62da562ad9942a440f6986c9,2023-08-16_09h02.06.543,HF_wild_card,2022.2.4,Win32,5.454823155,62da562ad9942a440f6986c9,64d2fd46c836a06233681665,64dc824674030621af8a3d16,,,,,,,decisionTrl,resources/DP.BMP,resources/DB.BMP,Door3,-0.290740741,-0.033333333,1,0,0,4.1036,optionLeft,70,6140,3,25,0,25,0,1,,,,,,,,,,,,,,,,,,,,,,,,,,,,,,,,,,,,,,,
,,,,,,,62da562ad9942a440f6986c9,2023-08-16_09h02.06.543,HF_wild_card,2022.2.4,Win32,5.454823155,62da562ad9942a440f6986c9,64d2fd46c836a06233681665,64dc824674030621af8a3d16,,,,,,,sngl,resources/DB.BMP,resources/Empty.png,WildCard_Ex,-0.274074074,-0.021296296,1,0,0,1.7221,optionLeft,95,6235,3,26,0,26,0,1,,,,,,,,,,,,,,,,,,,,,,,,,,,,,,,,,,,,,,,
,,,,,,,62da562ad9942a440f6986c9,2023-08-16_09h02.06.543,HF_wild_card,2022.2.4,Win32,5.454823155,62da562ad9942a440f6986c9,64d2fd46c836a06233681665,64dc824674030621af8a3d16,,,,,,,ctch,resources/DR.BMP,resources/DG.BMP,Door4,-0.318518519,-0.011111111,1,0,0,2.4824,optionLeft,60,6295,3,27,0,27,0,1,,,,,,,,,,,,,,,,,,,,,,,,,,,,,,,,,,,,,,,
,,,,,,,62da562ad9942a440f6986c9,2023-08-16_09h02.06.543,HF_wild_card,2022.2.4,Win32,5.454823155,62da562ad9942a440f6986c9,64d2fd46c836a06233681665,64dc824674030621af8a3d16,,,,,,,sngl,resources/DBN.BMP,resources/Empty.png,Door2,-0.268518519,-0.003703704,1,0,0,1.2036,optionLeft,40,6335,3,28,0,28,0,1,,,,,,,,,,,,,,,,,,,,,,,,,,,,,,,,,,,,,,,
,,,,,,,62da562ad9942a440f6986c9,2023-08-16_09h02.06.543,HF_wild_card,2022.2.4,Win32,5.454823155,62da562ad9942a440f6986c9,64d2fd46c836a06233681665,64dc824674030621af8a3d16,,,,,,,sngl,resources/Empty.png,resources/DP.BMP,Door3,0.416666667,-0.010185185,1,0,0,1.6852,optionRight,70,6405,3,29,0,29,0,1,,,,,,,,,,,,,,,,,,,,,,,,,,,,,,,,,,,,,,,
,,,,,,,62da562ad9942a440f6986c9,2023-08-16_09h02.06.543,HF_wild_card,2022.2.4,Win32,5.454823155,62da562ad9942a440f6986c9,64d2fd46c836a06233681665,64dc824674030621af8a3d16,,,,,,,ctch,resources/DG.BMP,resources/DR.BMP,Door1,-0.251851852,-0.05,1,0,0,1.6224,optionLeft,30,6435,3,30,0,30,0,1,,,,,,,,,,,,,,,,,,,,,,,,,,,,,,,,,,,,,,,
,,,,,,,62da562ad9942a440f6986c9,2023-08-16_09h02.06.543,HF_wild_card,2022.2.4,Win32,5.454823155,62da562ad9942a440f6986c9,64d2fd46c836a06233681665,64dc824674030621af8a3d16,,,,,,,decisionTrl,resources/DG.BMP,resources/DB.BMP,WildCard_Ex,0.294444444,-0.013888889,1,0,0,1.6717,optionRight,5,6440,3,31,0,31,0,1,,,,,,,,,,,,,,,,,,,,,,,,,,,,,,,,,,,,,,,
,,,,,,,62da562ad9942a440f6986c9,2023-08-16_09h02.06.543,HF_wild_card,2022.2.4,Win32,5.454823155,62da562ad9942a440f6986c9,64d2fd46c836a06233681665,64dc824674030621af8a3d16,,,,,,,decisionTrl,resources/DBN.BMP,resources/DG.BMP,Door2,-0.311111111,-0.038888889,1,0,0,1.8965,optionLeft,40,6480,3,32,0,32,0,1,,,,,,,,,,,,,,,,,,,,,,,,,,,,,,,,,,,,,,,
,,,,,,,62da562ad9942a440f6986c9,2023-08-16_09h02.06.543,HF_wild_card,2022.2.4,Win32,5.454823155,62da562ad9942a440f6986c9,64d2fd46c836a06233681665,64dc824674030621af8a3d16,,,,,,,sngl,resources/DB.BMP,resources/Empty.png,WildCard_Ex,-0.323148148,-0.022222222,1,0,0,1.451,optionLeft,5,6485,3,33,0,33,0,1,,,,,,,,,,,,,,,,,,,,,,,,,,,,,,,,,,,,,,,
,,,,,,,62da562ad9942a440f6986c9,2023-08-16_09h02.06.543,HF_wild_card,2022.2.4,Win32,5.454823155,62da562ad9942a440f6986c9,64d2fd46c836a06233681665,64dc824674030621af8a3d16,,,,,,,decisionTrl,resources/DB.BMP,resources/DBN.BMP,WildCard_Ex,-0.397222222,-0.041666667,1,0,0,2.74,optionLeft,95,6580,3,34,0,34,0,1,,,,,,,,,,,,,,,,,,,,,,,,,,,,,,,,,,,,,,,
,,,,,,,62da562ad9942a440f6986c9,2023-08-16_09h02.06.543,HF_wild_card,2022.2.4,Win32,5.454823155,62da562ad9942a440f6986c9,64d2fd46c836a06233681665,64dc824674030621af8a3d16,,,,,,,decisionTrl,resources/DR.BMP,resources/DP.BMP,Door3,0.287037037,-0.010185185,1,0,0,3.5206,optionRight,70,6650,3,35,0,35,0,1,,,,,,,,,,,,,,,,,,,,,,,,,,,,,,,,,,,,,,,
,,,,,,,62da562ad9942a440f6986c9,2023-08-16_09h02.06.543,HF_wild_card,2022.2.4,Win32,5.454823155,62da562ad9942a440f6986c9,64d2fd46c836a06233681665,64dc824674030621af8a3d16,,,,,,,decisionTrl,resources/DG.BMP,resources/DBN.BMP,Door2,0.289814815,0.008333333,1,0,0,1.9067,optionRight,20,6670,3,36,0,36,0,1,,,,,,,,,,,,,,,,,,,,,,,,,,,,,,,,,,,,,,,
,,,,,,,62da562ad9942a440f6986c9,2023-08-16_09h02.06.543,HF_wild_card,2022.2.4,Win32,5.454823155,62da562ad9942a440f6986c9,64d2fd46c836a06233681665,64dc824674030621af8a3d16,,,,,,,decisionTrl,resources/DP.BMP,resources/DR.BMP,Door3,-0.284259259,-0.060185185,1,0,0,3.0062,optionLeft,70,6740,3,37,0,37,0,1,,,,,,,,,,,,,,,,,,,,,,,,,,,,,,,,,,,,,,,
,,,,,,,62da562ad9942a440f6986c9,2023-08-16_09h02.06.543,HF_wild_card,2022.2.4,Win32,5.454823155,62da562ad9942a440f6986c9,64d2fd46c836a06233681665,64dc824674030621af8a3d16,,,,,,,sngl,resources/Empty.png,resources/DR.BMP,Door4,0.197222222,-0.018518519,1,0,0,1.6887,optionRight,60,6800,3,38,0,38,0,1,,,,,,,,,,,,,,,,,,,,,,,,,,,,,,,,,,,,,,,
,,,,,,,62da562ad9942a440f6986c9,2023-08-16_09h02.06.543,HF_wild_card,2022.2.4,Win32,5.454823155,62da562ad9942a440f6986c9,64d2fd46c836a06233681665,64dc824674030621af8a3d16,,,,,,,decisionTrl,resources/DG.BMP,resources/DBN.BMP,Door1,-0.285185185,-0.049074074,1,0,0,2.7136,optionLeft,30,6830,3,39,0,39,0,1,,,,,,,,,,,,,,,,,,,,,,,,,,,,,,,,,,,,,,,
,,,,,,,62da562ad9942a440f6986c9,2023-08-16_09h02.06.543,HF_wild_card,2022.2.4,Win32,5.454823155,62da562ad9942a440f6986c9,64d2fd46c836a06233681665,64dc824674030621af8a3d16,,,,,,,decisionTrl,resources/DP.BMP,resources/DR.BMP,Door3,-0.325925926,-0.062962963,1,0,0,3.014,optionLeft,70,6900,3,40,0,40,0,1,,,,,,,,,,,,,,,,,,,,,,,,,,,,,,,,,,,,,,,
,,,,,,,62da562ad9942a440f6986c9,2023-08-16_09h02.06.543,HF_wild_card,2022.2.4,Win32,5.454823155,62da562ad9942a440f6986c9,64d2fd46c836a06233681665,64dc824674030621af8a3d16,,,,,,,ctch,resources/DP.BMP,resources/DBN.BMP,Door3,-0.306481481,-0.05,1,0,0,1.9184,optionLeft,70,6970,3,41,0,41,0,1,,,,,,,,,,,,,,,,,,,,,,,,,,,,,,,,,,,,,,,
,,,,,,,62da562ad9942a440f6986c9,2023-08-16_09h02.06.543,HF_wild_card,2022.2.4,Win32,5.454823155,62da562ad9942a440f6986c9,64d2fd46c836a06233681665,64dc824674030621af8a3d16,,,,,,,decisionTrl,resources/DB.BMP,resources/DG.BMP,WildCard_Ex,-0.388888889,-0.058333333,1,0,0,4.3177,optionLeft,95,7065,3,42,0,42,0,1,,,,,,,,,,,,,,,,,,,,,,,,,,,,,,,,,,,,,,,
,,,,,,,62da562ad9942a440f6986c9,2023-08-16_09h02.06.543,HF_wild_card,2022.2.4,Win32,5.454823155,62da562ad9942a440f6986c9,64d2fd46c836a06233681665,64dc824674030621af8a3d16,,,,,,,sngl,resources/DG.BMP,resources/Empty.png,Door1,-0.344444444,-0.038888889,1,0,0,1.6778,optionLeft,30,7095,3,43,0,43,0,1,,,,,,,,,,,,,,,,,,,,,,,,,,,,,,,,,,,,,,,
,,,,,,,62da562ad9942a440f6986c9,2023-08-16_09h02.06.543,HF_wild_card,2022.2.4,Win32,5.454823155,62da562ad9942a440f6986c9,64d2fd46c836a06233681665,64dc824674030621af8a3d16,,,,,,,,,,,,,,,,,,,,,,,,,,2,0,2,0,1,,,,,,,,,,,,,,,,,,,,,,,,,,,,,,,,,,
,,,,,,,62da562ad9942a440f6986c9,2023-08-16_09h02.06.543,HF_wild_card,2022.2.4,Win32,5.454823155,62da562ad9942a440f6986c9,64d2fd46c836a06233681665,64dc824674030621af8a3d16,,,,,,,decisionTrl,resources/DY.BMP,resources/DR.BMP,WildCard_NonEx,-0.342592593,-0.123148148,1,0,0,5.1443,optionLeft,55,7150,4,0,0,0,0,1,,,,,,,,,,,,,,,,,,,,,,,,,,,,,,,,,,,,,,,
,,,,,,,62da562ad9942a440f6986c9,2023-08-16_09h02.06.543,HF_wild_card,2022.2.4,Win32,5.454823155,62da562ad9942a440f6986c9,64d2fd46c836a06233681665,64dc824674030621af8a3d16,,,,,,,ctch,resources/DP.BMP,resources/DBN.BMP,Door3,-0.307407407,-0.067592593,1,0,0,2.7497,optionLeft,70,7220,4,1,0,1,0,1,,,,,,,,,,,,,,,,,,,,,,,,,,,,,,,,,,,,,,,
,,,,,,,62da562ad9942a440f6986c9,2023-08-16_09h02.06.543,HF_wild_card,2022.2.4,Win32,5.454823155,62da562ad9942a440f6986c9,64d2fd46c836a06233681665,64dc824674030621af8a3d16,,,,,,,decisionTrl,resources/DBN.BMP,resources/DG.BMP,Door2,-0.326851852,-0.016666667,1,0,0,2.4266,optionLeft,40,7260,4,2,0,2,0,1,,,,,,,,,,,,,,,,,,,,,,,,,,,,,,,,,,,,,,,
,,,,,,,62da562ad9942a440f6986c9,2023-08-16_09h02.06.543,HF_wild_card,2022.2.4,Win32,5.454823155,62da562ad9942a440f6986c9,64d2fd46c836a06233681665,64dc824674030621af8a3d16,,,,,,,decisionTrl,resources/DG.BMP,resources/DBN.BMP,Door1,-0.341666667,-0.032407407,1,0,0,3.2866,optionLeft,30,7290,4,3,0,3,0,1,,,,,,,,,,,,,,,,,,,,,,,,,,,,,,,,,,,,,,,
,,,,,,,62da562ad9942a440f6986c9,2023-08-16_09h02.06.543,HF_wild_card,2022.2.4,Win32,5.454823155,62da562ad9942a440f6986c9,64d2fd46c836a06233681665,64dc824674030621af8a3d16,,,,,,,decisionTrl,resources/DBN.BMP,resources/DG.BMP,Door1,0.302777778,-0.002777778,1,0,0,1.6135,optionRight,30,7320,4,4,0,4,0,1,,,,,,,,,,,,,,,,,,,,,,,,,,,,,,,,,,,,,,,
,,,,,,,62da562ad9942a440f6986c9,2023-08-16_09h02.06.543,HF_wild_card,2022.2.4,Win32,5.454823155,62da562ad9942a440f6986c9,64d2fd46c836a06233681665,64dc824674030621af8a3d16,,,,,,,ctch,resources/DBN.BMP,resources/DP.BMP,Door3,0.402777778,-0.015740741,1,0,0,1.8823,optionRight,70,7390,4,5,0,5,0,1,,,,,,,,,,,,,,,,,,,,,,,,,,,,,,,,,,,,,,,
,,,,,,,62da562ad9942a440f6986c9,2023-08-16_09h02.06.543,HF_wild_card,2022.2.4,Win32,5.454823155,62da562ad9942a440f6986c9,64d2fd46c836a06233681665,64dc824674030621af8a3d16,,,,,,,ctch,resources/DG.BMP,resources/DR.BMP,Door4,0.348148148,0.009259259,1,0,0,2.1587,optionRight,60,7450,4,6,0,6,0,1,,,,,,,,,,,,,,,,,,,,,,,,,,,,,,,,,,,,,,,
,,,,,,,62da562ad9942a440f6986c9,2023-08-16_09h02.06.543,HF_wild_card,2022.2.4,Win32,5.454823155,62da562ad9942a440f6986c9,64d2fd46c836a06233681665,64dc824674030621af8a3d16,,,,,,,decisionTrl,resources/DBN.BMP,resources/DG.BMP,Door2,-0.260185185,-0.038888889,1,0,0,3.2677,optionLeft,40,7490,4,7,0,7,0,1,,,,,,,,,,,,,,,,,,,,,,,,,,,,,,,,,,,,,,,
,,,,,,,62da562ad9942a440f6986c9,2023-08-16_09h02.06.543,HF_wild_card,2022.2.4,Win32,5.454823155,62da562ad9942a440f6986c9,64d2fd46c836a06233681665,64dc824674030621af8a3d16,,,,,,,sngl,resources/DBN.BMP,resources/Empty.png,Door2,-0.288888889,-0.007407407,1,0,0,1.4541,optionLeft,20,7510,4,8,0,8,0,1,,,,,,,,,,,,,,,,,,,,,,,,,,,,,,,,,,,,,,,
,,,,,,,62da562ad9942a440f6986c9,2023-08-16_09h02.06.543,HF_wild_card,2022.2.4,Win32,5.454823155,62da562ad9942a440f6986c9,64d2fd46c836a06233681665,64dc824674030621af8a3d16,,,,,,,decisionTrl,resources/DBN.BMP,resources/DG.BMP,Door2,-0.362962963,0.009259259,1,0,0,7.9039,optionLeft,40,7550,4,9,0,9,0,1,,,,,,,,,,,,,,,,,,,,,,,,,,,,,,,,,,,,,,,
,,,,,,,62da562ad9942a440f6986c9,2023-08-16_09h02.06.543,HF_wild_card,2022.2.4,Win32,5.454823155,62da562ad9942a440f6986c9,64d2fd46c836a06233681665,64dc824674030621af8a3d16,,,,,,,sngl,resources/Empty.png,resources/DY.BMP,WildCard_NonEx,0.384259259,0.039814815,1,0,0,1.6553,optionRight,55,7605,4,10,0,10,0,1,,,,,,,,,,,,,,,,,,,,,,,,,,,,,,,,,,,,,,,
,,,,,,,62da562ad9942a440f6986c9,2023-08-16_09h02.06.543,HF_wild_card,2022.2.4,Win32,5.454823155,62da562ad9942a440f6986c9,64d2fd46c836a06233681665,64dc824674030621af8a3d16,,,,,,,sngl,resources/Empty.png,resources/DR.BMP,Door4,0.324074074,0.013888889,1,0,0,1.6222,optionRight,80,7685,4,11,0,11,0,1,,,,,,,,,,,,,,,,,,,,,,,,,,,,,,,,,,,,,,,
,,,,,,,62da562ad9942a440f6986c9,2023-08-16_09h02.06.543,HF_wild_card,2022.2.4,Win32,5.454823155,62da562ad9942a440f6986c9,64d2fd46c836a06233681665,64dc824674030621af8a3d16,,,,,,,sngl,resources/Empty.png,resources/DG.BMP,Door1,0.275,0,1,0,0,1.579,optionRight,30,7715,4,12,0,12,0,1,,,,,,,,,,,,,,,,,,,,,,,,,,,,,,,,,,,,,,,
,,,,,,,62da562ad9942a440f6986c9,2023-08-16_09h02.06.543,HF_wild_card,2022.2.4,Win32,5.454823155,62da562ad9942a440f6986c9,64d2fd46c836a06233681665,64dc824674030621af8a3d16,,,,,,,ctch,resources/DR.BMP,resources/DG.BMP,Door4,-0.346296296,-0.062037037,1,0,0,2.4057,optionLeft,80,7795,4,13,0,13,0,1,,,,,,,,,,,,,,,,,,,,,,,,,,,,,,,,,,,,,,,
,,,,,,,62da562ad9942a440f6986c9,2023-08-16_09h02.06.543,HF_wild_card,2022.2.4,Win32,5.454823155,62da562ad9942a440f6986c9,64d2fd46c836a06233681665,64dc824674030621af8a3d16,,,,,,,decisionTrl,resources/DBN.BMP,resources/DY.BMP,WildCard_NonEx,0.388888889,-0.005555556,1,0,0,2.0616,optionRight,55,7850,4,14,0,14,0,1,,,,,,,,,,,,,,,,,,,,,,,,,,,,,,,,,,,,,,,
,,,,,,,62da562ad9942a440f6986c9,2023-08-16_09h02.06.543,HF_wild_card,2022.2.4,Win32,5.454823155,62da562ad9942a440f6986c9,64d2fd46c836a06233681665,64dc824674030621af8a3d16,,,,,,,decisionTrl,resources/DR.BMP,resources/DP.BMP,Door3,0.342592593,-0.010185185,1,0,0,3.3103,optionRight,70,7920,4,15,0,15,0,1,,,,,,,,,,,,,,,,,,,,,,,,,,,,,,,,,,,,,,,
,,,,,,,62da562ad9942a440f6986c9,2023-08-16_09h02.06.543,HF_wild_card,2022.2.4,Win32,5.454823155,62da562ad9942a440f6986c9,64d2fd46c836a06233681665,64dc824674030621af8a3d16,,,,,,,decisionTrl,resources/DR.BMP,resources/DP.BMP,Door3,0.391666667,0.000925926,1,0,0,3.6032,optionRight,70,7990,4,16,0,16,0,1,,,,,,,,,,,,,,,,,,,,,,,,,,,,,,,,,,,,,,,
,,,,,,,62da562ad9942a440f6986c9,2023-08-16_09h02.06.543,HF_wild_card,2022.2.4,Win32,5.454823155,62da562ad9942a440f6986c9,64d2fd46c836a06233681665,64dc824674030621af8a3d16,,,,,,,decisionTrl,resources/DY.BMP,resources/DBN.BMP,WildCard_NonEx,0.002777778,-0.003703704,1,0,0,0.5419,optionLeft,55,8045,4,17,0,17,0,1,,,,,,,,,,,,,,,,,,,,,,,,,,,,,,,,,,,,,,,
,,,,,,,62da562ad9942a440f6986c9,2023-08-16_09h02.06.543,HF_wild_card,2022.2.4,Win32,5.454823155,62da562ad9942a440f6986c9,64d2fd46c836a06233681665,64dc824674030621af8a3d16,,,,,,,decisionTrl,resources/DR.BMP,resources/DY.BMP,Door4,-0.299074074,-0.043518519,1,0,0,4.6999,optionLeft,60,8105,4,18,0,18,0,1,,,,,,,,,,,,,,,,,,,,,,,,,,,,,,,,,,,,,,,
,,,,,,,62da562ad9942a440f6986c9,2023-08-16_09h02.06.543,HF_wild_card,2022.2.4,Win32,5.454823155,62da562ad9942a440f6986c9,64d2fd46c836a06233681665,64dc824674030621af8a3d16,,,,,,,decisionTrl,resources/DG.BMP,resources/DBN.BMP,Door2,0.290740741,0.000925926,1,0,0,4.7377,optionRight,20,8125,4,19,0,19,0,1,,,,,,,,,,,,,,,,,,,,,,,,,,,,,,,,,,,,,,,
,,,,,,,62da562ad9942a440f6986c9,2023-08-16_09h02.06.543,HF_wild_card,2022.2.4,Win32,5.454823155,62da562ad9942a440f6986c9,64d2fd46c836a06233681665,64dc824674030621af8a3d16,,,,,,,sngl,resources/DR.BMP,resources/Empty.png,Door4,-0.301851852,-0.015740741,1,0,0,1.2715,optionLeft,60,8185,4,20,0,20,0,1,,,,,,,,,,,,,,,,,,,,,,,,,,,,,,,,,,,,,,,
,,,,,,,62da562ad9942a440f6986c9,2023-08-16_09h02.06.543,HF_wild_card,2022.2.4,Win32,5.454823155,62da562ad9942a440f6986c9,64d2fd46c836a06233681665,64dc824674030621af8a3d16,,,,,,,decisionTrl,resources/DY.BMP,resources/DG.BMP,WildCard_NonEx,-0.393518519,-0.048148148,1,0,0,3.0349,optionLeft,55,8240,4,21,0,21,0,1,,,,,,,,,,,,,,,,,,,,,,,,,,,,,,,,,,,,,,,
,,,,,,,62da562ad9942a440f6986c9,2023-08-16_09h02.06.543,HF_wild_card,2022.2.4,Win32,5.454823155,62da562ad9942a440f6986c9,64d2fd46c836a06233681665,64dc824674030621af8a3d16,,,,,,,decisionTrl,resources/DP.BMP,resources/DR.BMP,Door3,-0.278703704,-0.055555556,1,0,0,3.1892,optionLeft,70,8310,4,22,0,22,0,1,,,,,,,,,,,,,,,,,,,,,,,,,,,,,,,,,,,,,,,
,,,,,,,62da562ad9942a440f6986c9,2023-08-16_09h02.06.543,HF_wild_card,2022.2.4,Win32,5.454823155,62da562ad9942a440f6986c9,64d2fd46c836a06233681665,64dc824674030621af8a3d16,,,,,,,sngl,resources/DY.BMP,resources/Empty.png,WildCard_NonEx,-0.375925926,-0.046296296,1,0,0,1.4771,optionLeft,45,8355,4,23,0,23,0,1,,,,,,,,,,,,,,,,,,,,,,,,,,,,,,,,,,,,,,,
,,,,,,,62da562ad9942a440f6986c9,2023-08-16_09h02.06.543,HF_wild_card,2022.2.4,Win32,5.454823155,62da562ad9942a440f6986c9,64d2fd46c836a06233681665,64dc824674030621af8a3d16,,,,,,,decisionTrl,resources/DG.BMP,resources/DBN.BMP,Door1,-0.290740741,-0.023148148,1,0,0,2.4737,optionLeft,30,8385,4,24,0,24,0,1,,,,,,,,,,,,,,,,,,,,,,,,,,,,,,,,,,,,,,,
,,,,,,,62da562ad9942a440f6986c9,2023-08-16_09h02.06.543,HF_wild_card,2022.2.4,Win32,5.454823155,62da562ad9942a440f6986c9,64d2fd46c836a06233681665,64dc824674030621af8a3d16,,,,,,,sngl,resources/DY.BMP,resources/Empty.png,WildCard_NonEx,-0.327777778,-0.02037037,1,0,0,1.4103,optionLeft,55,8440,4,25,0,25,0,1,,,,,,,,,,,,,,,,,,,,,,,,,,,,,,,,,,,,,,,
,,,,,,,62da562ad9942a440f6986c9,2023-08-16_09h02.06.543,HF_wild_card,2022.2.4,Win32,5.454823155,62da562ad9942a440f6986c9,64d2fd46c836a06233681665,64dc824674030621af8a3d16,,,,,,,sngl,resources/Empty.png,resources/DP.BMP,Door3,0.371296296,0.026851852,1,0,0,1.467,optionRight,70,8510,4,26,0,26,0,1,,,,,,,,,,,,,,,,,,,,,,,,,,,,,,,,,,,,,,,
,,,,,,,62da562ad9942a440f6986c9,2023-08-16_09h02.06.543,HF_wild_card,2022.2.4,Win32,5.454823155,62da562ad9942a440f6986c9,64d2fd46c836a06233681665,64dc824674030621af8a3d16,,,,,,,decisionTrl,resources/DG.BMP,resources/DY.BMP,WildCard_NonEx,0.411111111,0.02037037,1,0,0,2.2027,optionRight,55,8565,4,27,0,27,0,1,,,,,,,,,,,,,,,,,,,,,,,,,,,,,,,,,,,,,,,
,,,,,,,62da562ad9942a440f6986c9,2023-08-16_09h02.06.543,HF_wild_card,2022.2.4,Win32,5.454823155,62da562ad9942a440f6986c9,64d2fd46c836a06233681665,64dc824674030621af8a3d16,,,,,,,decisionTrl,resources/DY.BMP,resources/DP.BMP,Door3,0.349074074,-0.005555556,1,0,0,2.8091,optionRight,70,8635,4,28,0,28,0,1,,,,,,,,,,,,,,,,,,,,,,,,,,,,,,,,,,,,,,,
,,,,,,,62da562ad9942a440f6986c9,2023-08-16_09h02.06.543,HF_wild_card,2022.2.4,Win32,5.454823155,62da562ad9942a440f6986c9,64d2fd46c836a06233681665,64dc824674030621af8a3d16,,,,,,,sngl,resources/DP.BMP,resources/Empty.png,Door3,-0.362962963,-0.052777778,1,0,0,2.4575,optionLeft,70,8705,4,29,0,29,0,1,,,,,,,,,,,,,,,,,,,,,,,,,,,,,,,,,,,,,,,
,,,,,,,62da562ad9942a440f6986c9,2023-08-16_09h02.06.543,HF_wild_card,2022.2.4,Win32,5.454823155,62da562ad9942a440f6986c9,64d2fd46c836a06233681665,64dc824674030621af8a3d16,,,,,,,decisionTrl,resources/DG.BMP,resources/DBN.BMP,Door2,0.348148148,0,1,0,0,2.9591,optionRight,20,8725,4,30,0,30,0,1,,,,,,,,,,,,,,,,,,,,,,,,,,,,,,,,,,,,,,,
,,,,,,,62da562ad9942a440f6986c9,2023-08-16_09h02.06.543,HF_wild_card,2022.2.4,Win32,5.454823155,62da562ad9942a440f6986c9,64d2fd46c836a06233681665,64dc824674030621af8a3d16,,,,,,,decisionTrl,resources/DR.BMP,resources/DP.BMP,Door3,0.373148148,-0.002777778,1,0,0,2.9708,optionRight,70,8795,4,31,0,31,0,1,,,,,,,,,,,,,,,,,,,,,,,,,,,,,,,,,,,,,,,
,,,,,,,62da562ad9942a440f6986c9,2023-08-16_09h02.06.543,HF_wild_card,2022.2.4,Win32,5.454823155,62da562ad9942a440f6986c9,64d2fd46c836a06233681665,64dc824674030621af8a3d16,,,,,,,ctch,resources/DP.BMP,resources/DBN.BMP,Door3,-0.362962963,-0.058333333,1,0,0,2.1593,optionLeft,70,8865,4,32,0,32,0,1,,,,,,,,,,,,,,,,,,,,,,,,,,,,,,,,,,,,,,,
,,,,,,,62da562ad9942a440f6986c9,2023-08-16_09h02.06.543,HF_wild_card,2022.2.4,Win32,5.454823155,62da562ad9942a440f6986c9,64d2fd46c836a06233681665,64dc824674030621af8a3d16,,,,,,,sngl,resources/DG.BMP,resources/Empty.png,Door1,-0.375925926,-0.049074074,1,0,0,1.6789,optionLeft,30,8895,4,33,0,33,0,1,,,,,,,,,,,,,,,,,,,,,,,,,,,,,,,,,,,,,,,
,,,,,,,62da562ad9942a440f6986c9,2023-08-16_09h02.06.543,HF_wild_card,2022.2.4,Win32,5.454823155,62da562ad9942a440f6986c9,64d2fd46c836a06233681665,64dc824674030621af8a3d16,,,,,,,ctch,resources/DBN.BMP,resources/DP.BMP,Door3,0.350925926,0.008333333,1,0,0,2.4601,optionRight,70,8965,4,34,0,34,0,1,,,,,,,,,,,,,,,,,,,,,,,,,,,,,,,,,,,,,,,
,,,,,,,62da562ad9942a440f6986c9,2023-08-16_09h02.06.543,HF_wild_card,2022.2.4,Win32,5.454823155,62da562ad9942a440f6986c9,64d2fd46c836a06233681665,64dc824674030621af8a3d16,,,,,,,decisionTrl,resources/DP.BMP,resources/DY.BMP,Door3,-0.316666667,-0.038888889,1,0,0,2.4577,optionLeft,70,9035,4,35,0,35,0,1,,,,,,,,,,,,,,,,,,,,,,,,,,,,,,,,,,,,,,,
,,,,,,,62da562ad9942a440f6986c9,2023-08-16_09h02.06.543,HF_wild_card,2022.2.4,Win32,5.454823155,62da562ad9942a440f6986c9,64d2fd46c836a06233681665,64dc824674030621af8a3d16,,,,,,,sngl,resources/Empty.png,resources/DBN.BMP,Door2,0.340740741,0.007407407,1,0,0,2.4138,optionRight,40,9075,4,36,0,36,0,1,,,,,,,,,,,,,,,,,,,,,,,,,,,,,,,,,,,,,,,
,,,,,,,62da562ad9942a440f6986c9,2023-08-16_09h02.06.543,HF_wild_card,2022.2.4,Win32,5.454823155,62da562ad9942a440f6986c9,64d2fd46c836a06233681665,64dc824674030621af8a3d16,,,,,,,sngl,resources/Empty.png,resources/DY.BMP,WildCard_NonEx,0.367592593,-0.008333333,1,0,0,1.4611,optionRight,45,9120,4,37,0,37,0,1,,,,,,,,,,,,,,,,,,,,,,,,,,,,,,,,,,,,,,,
,,,,,,,62da562ad9942a440f6986c9,2023-08-16_09h02.06.543,HF_wild_card,2022.2.4,Win32,5.454823155,62da562ad9942a440f6986c9,64d2fd46c836a06233681665,64dc824674030621af8a3d16,,,,,,,ctch,resources/DG.BMP,resources/DR.BMP,Door4,0.356481481,-0.02962963,1,0,0,3.2757,optionRight,80,9200,4,38,0,38,0,1,,,,,,,,,,,,,,,,,,,,,,,,,,,,,,,,,,,,,,,
,,,,,,,62da562ad9942a440f6986c9,2023-08-16_09h02.06.543,HF_wild_card,2022.2.4,Win32,5.454823155,62da562ad9942a440f6986c9,64d2fd46c836a06233681665,64dc824674030621af8a3d16,,,,,,,decisionTrl,resources/DP.BMP,resources/DR.BMP,Door3,-0.346296296,-0.048148148,1,0,0,3.2505,optionLeft,70,9270,4,39,0,39,0,1,,,,,,,,,,,,,,,,,,,,,,,,,,,,,,,,,,,,,,,
,,,,,,,62da562ad9942a440f6986c9,2023-08-16_09h02.06.543,HF_wild_card,2022.2.4,Win32,5.454823155,62da562ad9942a440f6986c9,64d2fd46c836a06233681665,64dc824674030621af8a3d16,,,,,,,decisionTrl,resources/DR.BMP,resources/DP.BMP,Door3,0.383333333,-0.009259259,1,0,0,3.7529,optionRight,70,9340,4,40,0,40,0,1,,,,,,,,,,,,,,,,,,,,,,,,,,,,,,,,,,,,,,,
,,,,,,,62da562ad9942a440f6986c9,2023-08-16_09h02.06.543,HF_wild_card,2022.2.4,Win32,5.454823155,62da562ad9942a440f6986c9,64d2fd46c836a06233681665,64dc824674030621af8a3d16,,,,,,,decisionTrl,resources/DP.BMP,resources/DR.BMP,Door3,-0.364814815,-0.035185185,1,0,0,2.1695,optionLeft,70,9410,4,41,0,41,0,1,,,,,,,,,,,,,,,,,,,,,,,,,,,,,,,,,,,,,,,
,,,,,,,62da562ad9942a440f6986c9,2023-08-16_09h02.06.543,HF_wild_card,2022.2.4,Win32,5.454823155,62da562ad9942a440f6986c9,64d2fd46c836a06233681665,64dc824674030621af8a3d16,,,,,,,decisionTrl,resources/DP.BMP,resources/DR.BMP,Door3,-0.337037037,-0.062962963,1,0,0,3.2126,optionLeft,70,9480,4,42,0,42,0,1,,,,,,,,,,,,,,,,,,,,,,,,,,,,,,,,,,,,,,,
,,,,,,,62da562ad9942a440f6986c9,2023-08-16_09h02.06.543,HF_wild_card,2022.2.4,Win32,5.454823155,62da562ad9942a440f6986c9,64d2fd46c836a06233681665,64dc824674030621af8a3d16,,,,,,,ctch,resources/DR.BMP,resources/DG.BMP,Door4,-0.356481481,-0.037962963,1,0,0,2.4466,optionLeft,60,9540,4,43,0,43,0,1,,,,,,,,,,,,,,,,,,,,,,,,,,,,,,,,,,,,,,,
,,,,,,,62da562ad9942a440f6986c9,2023-08-16_09h02.06.543,HF_wild_card,2022.2.4,Win32,5.454823155,62da562ad9942a440f6986c9,64d2fd46c836a06233681665,64dc824674030621af8a3d16,,,,,,,,,,,,,,,,,,,,,,,,,,3,0,3,0,1,,,,,,,,,,,,,,,,,,,,,,,,,,,,,,,,,,
,,,,,,,62da562ad9942a440f6986c9,2023-08-16_09h02.06.543,HF_wild_card,2022.2.4,Win32,5.454823155,62da562ad9942a440f6986c9,64d2fd46c836a06233681665,64dc824674030621af8a3d16,,,,,,,sngl,resources/DR.BMP,resources/Empty.png,Door4,-0.353703704,-0.089814815,1,0,0,2.8795,optionLeft,80,9620,5,0,0,0,0,1,,,,,,,,,,,,,,,,,,,,,,,,,,,,,,,,,,,,,,,
,,,,,,,62da562ad9942a440f6986c9,2023-08-16_09h02.06.543,HF_wild_card,2022.2.4,Win32,5.454823155,62da562ad9942a440f6986c9,64d2fd46c836a06233681665,64dc824674030621af8a3d16,,,,,,,decisionTrl,resources/DBN.BMP,resources/DG.BMP,Door1,0.359259259,0.013888889,1,0,0,2.731,optionRight,30,9650,5,1,0,1,0,1,,,,,,,,,,,,,,,,,,,,,,,,,,,,,,,,,,,,,,,
,,,,,,,62da562ad9942a440f6986c9,2023-08-16_09h02.06.543,HF_wild_card,2022.2.4,Win32,5.454823155,62da562ad9942a440f6986c9,64d2fd46c836a06233681665,64dc824674030621af8a3d16,,,,,,,sngl,resources/Empty.png,resources/DY.BMP,WildCard_NonEx,0.309259259,0.019444444,1,0,0,1.2346,optionRight,45,9695,5,2,0,2,0,1,,,,,,,,,,,,,,,,,,,,,,,,,,,,,,,,,,,,,,,
,,,,,,,62da562ad9942a440f6986c9,2023-08-16_09h02.06.543,HF_wild_card,2022.2.4,Win32,5.454823155,62da562ad9942a440f6986c9,64d2fd46c836a06233681665,64dc824674030621af8a3d16,,,,,,,ctch,resources/DR.BMP,resources/DG.BMP,Door4,-0.392592593,-0.060185185,1,0,0,1.9462,optionLeft,60,9755,5,3,0,3,0,1,,,,,,,,,,,,,,,,,,,,,,,,,,,,,,,,,,,,,,,
,,,,,,,62da562ad9942a440f6986c9,2023-08-16_09h02.06.543,HF_wild_card,2022.2.4,Win32,5.454823155,62da562ad9942a440f6986c9,64d2fd46c836a06233681665,64dc824674030621af8a3d16,,,,,,,sngl,resources/Empty.png,resources/DBN.BMP,Door2,0.311111111,0.035185185,1,0,0,1.5001,optionRight,20,9775,5,4,0,4,0,1,,,,,,,,,,,,,,,,,,,,,,,,,,,,,,,,,,,,,,,
,,,,,,,62da562ad9942a440f6986c9,2023-08-16_09h02.06.543,HF_wild_card,2022.2.4,Win32,5.454823155,62da562ad9942a440f6986c9,64d2fd46c836a06233681665,64dc824674030621af8a3d16,,,,,,,decisionTrl,resources/DR.BMP,resources/DY.BMP,WildCard_NonEx,0.374074074,-0.012037037,1,0,0,2.1745,optionRight,45,9820,5,5,0,5,0,1,,,,,,,,,,,,,,,,,,,,,,,,,,,,,,,,,,,,,,,
,,,,,,,62da562ad9942a440f6986c9,2023-08-16_09h02.06.543,HF_wild_card,2022.2.4,Win32,5.454823155,62da562ad9942a440f6986c9,64d2fd46c836a06233681665,64dc824674030621af8a3d16,,,,,,,sngl,resources/DY.BMP,resources/Empty.png,WildCard_NonEx,-0.368518519,-0.049074074,1,0,0,1.7216,optionLeft,55,9875,5,6,0,6,0,1,,,,,,,,,,,,,,,,,,,,,,,,,,,,,,,,,,,,,,,
,,,,,,,62da562ad9942a440f6986c9,2023-08-16_09h02.06.543,HF_wild_card,2022.2.4,Win32,5.454823155,62da562ad9942a440f6986c9,64d2fd46c836a06233681665,64dc824674030621af8a3d16,,,,,,,sngl,resources/DG.BMP,resources/Empty.png,Door1,-0.290740741,-0.022222222,1,0,0,1.477,optionLeft,30,9905,5,7,0,7,0,1,,,,,,,,,,,,,,,,,,,,,,,,,,,,,,,,,,,,,,,
,,,,,,,62da562ad9942a440f6986c9,2023-08-16_09h02.06.543,HF_wild_card,2022.2.4,Win32,5.454823155,62da562ad9942a440f6986c9,64d2fd46c836a06233681665,64dc824674030621af8a3d16,,,,,,,decisionTrl,resources/DG.BMP,resources/DBN.BMP,Door1,-0.362037037,-0.04537037,1,0,0,2.9881,optionLeft,30,9935,5,8,0,8,0,1,,,,,,,,,,,,,,,,,,,,,,,,,,,,,,,,,,,,,,,
,,,,,,,62da562ad9942a440f6986c9,2023-08-16_09h02.06.543,HF_wild_card,2022.2.4,Win32,5.454823155,62da562ad9942a440f6986c9,64d2fd46c836a06233681665,64dc824674030621af8a3d16,,,,,,,ctch,resources/DP.BMP,resources/DBN.BMP,Door3,-0.444444444,-0.049074074,1,0,0,2.4455,optionLeft,70,10005,5,9,0,9,0,1,,,,,,,,,,,,,,,,,,,,,,,,,,,,,,,,,,,,,,,
,,,,,,,62da562ad9942a440f6986c9,2023-08-16_09h02.06.543,HF_wild_card,2022.2.4,Win32,5.454823155,62da562ad9942a440f6986c9,64d2fd46c836a06233681665,64dc824674030621af8a3d16,,,,,,,decisionTrl,resources/DR.BMP,resources/DP.BMP,Door4,-0.343518519,-0.068518519,1,0,0,2.6919,optionLeft,60,10065,5,10,0,10,0,1,,,,,,,,,,,,,,,,,,,,,,,,,,,,,,,,,,,,,,,
,,,,,,,62da562ad9942a440f6986c9,2023-08-16_09h02.06.543,HF_wild_card,2022.2.4,Win32,5.454823155,62da562ad9942a440f6986c9,64d2fd46c836a06233681665,64dc824674030621af8a3d16,,,,,,,decisionTrl,resources/DG.BMP,resources/DBN.BMP,Door1,-0.331481481,-0.025925926,1,0,0,2.4836,optionLeft,30,10095,5,11,0,11,0,1,,,,,,,,,,,,,,,,,,,,,,,,,,,,,,,,,,,,,,,
,,,,,,,62da562ad9942a440f6986c9,2023-08-16_09h02.06.543,HF_wild_card,2022.2.4,Win32,5.454823155,62da562ad9942a440f6986c9,64d2fd46c836a06233681665,64dc824674030621af8a3d16,,,,,,,decisionTrl,resources/DR.BMP,resources/DP.BMP,Door3,0.355555556,0.002777778,1,0,0,2.417,optionRight,70,10165,5,12,0,12,0,1,,,,,,,,,,,,,,,,,,,,,,,,,,,,,,,,,,,,,,,
,,,,,,,62da562ad9942a440f6986c9,2023-08-16_09h02.06.543,HF_wild_card,2022.2.4,Win32,5.454823155,62da562ad9942a440f6986c9,64d2fd46c836a06233681665,64dc824674030621af8a3d16,,,,,,,decisionTrl,resources/DG.BMP,resources/DBN.BMP,Door1,-0.289814815,-0.041666667,1,0,0,2.186,optionLeft,30,10195,5,13,0,13,0,1,,,,,,,,,,,,,,,,,,,,,,,,,,,,,,,,,,,,,,,
,,,,,,,62da562ad9942a440f6986c9,2023-08-16_09h02.06.543,HF_wild_card,2022.2.4,Win32,5.454823155,62da562ad9942a440f6986c9,64d2fd46c836a06233681665,64dc824674030621af8a3d16,,,,,,,decisionTrl,resources/DBN.BMP,resources/DG.BMP,Door1,0.30462963,0.005555556,1,0,0,2.1471,optionRight,30,10225,5,14,0,14,0,1,,,,,,,,,,,,,,,,,,,,,,,,,,,,,,,,,,,,,,,
,,,,,,,62da562ad9942a440f6986c9,2023-08-16_09h02.06.543,HF_wild_card,2022.2.4,Win32,5.454823155,62da562ad9942a440f6986c9,64d2fd46c836a06233681665,64dc824674030621af8a3d16,,,,,,,decisionTrl,resources/DP.BMP,resources/DR.BMP,Door3,-0.269444444,-0.053703704,1,0,0,2.4427,optionLeft,70,10295,5,15,0,15,0,1,,,,,,,,,,,,,,,,,,,,,,,,,,,,,,,,,,,,,,,
,,,,,,,62da562ad9942a440f6986c9,2023-08-16_09h02.06.543,HF_wild_card,2022.2.4,Win32,5.454823155,62da562ad9942a440f6986c9,64d2fd46c836a06233681665,64dc824674030621af8a3d16,,,,,,,decisionTrl,resources/DY.BMP,resources/DR.BMP,WildCard_NonEx,-0.297222222,-0.043518519,1,0,0,1.8641,optionLeft,55,10350,5,16,0,16,0,1,,,,,,,,,,,,,,,,,,,,,,,,,,,,,,,,,,,,,,,
,,,,,,,62da562ad9942a440f6986c9,2023-08-16_09h02.06.543,HF_wild_card,2022.2.4,Win32,5.454823155,62da562ad9942a440f6986c9,64d2fd46c836a06233681665,64dc824674030621af8a3d16,,,,,,,decisionTrl,resources/DP.BMP,resources/DR.BMP,Door3,-0.326851852,-0.059259259,1,0,0,2.2078,optionLeft,70,10420,5,17,0,17,0,1,,,,,,,,,,,,,,,,,,,,,,,,,,,,,,,,,,,,,,,
,,,,,,,62da562ad9942a440f6986c9,2023-08-16_09h02.06.543,HF_wild_card,2022.2.4,Win32,5.454823155,62da562ad9942a440f6986c9,64d2fd46c836a06233681665,64dc824674030621af8a3d16,,,,,,,sngl,resources/Empty.png,resources/DG.BMP,Door1,0.431481481,0.040740741,1,0,0,2.476,optionRight,30,10450,5,18,0,18,0,1,,,,,,,,,,,,,,,,,,,,,,,,,,,,,,,,,,,,,,,
,,,,,,,62da562ad9942a440f6986c9,2023-08-16_09h02.06.543,HF_wild_card,2022.2.4,Win32,5.454823155,62da562ad9942a440f6986c9,64d2fd46c836a06233681665,64dc824674030621af8a3d16,,,,,,,decisionTrl,resources/DG.BMP,resources/DY.BMP,WildCard_NonEx,0.368518519,0.016666667,1,0,0,1.9216,optionRight,55,10505,5,19,0,19,0,1,,,,,,,,,,,,,,,,,,,,,,,,,,,,,,,,,,,,,,,
,,,,,,,62da562ad9942a440f6986c9,2023-08-16_09h02.06.543,HF_wild_card,2022.2.4,Win32,5.454823155,62da562ad9942a440f6986c9,64d2fd46c836a06233681665,64dc824674030621af8a3d16,,,,,,,decisionTrl,resources/DY.BMP,resources/DBN.BMP,WildCard_NonEx,-0.353703704,-0.07962963,1,0,0,1.895,optionLeft,45,10550,5,20,0,20,0,1,,,,,,,,,,,,,,,,,,,,,,,,,,,,,,,,,,,,,,,
,,,,,,,62da562ad9942a440f6986c9,2023-08-16_09h02.06.543,HF_wild_card,2022.2.4,Win32,5.454823155,62da562ad9942a440f6986c9,64d2fd46c836a06233681665,64dc824674030621af8a3d16,,,,,,,ctch,resources/DG.BMP,resources/DR.BMP,Door4,0.326851852,-0.017592593,1,0,0,3.8877,optionRight,80,10630,5,21,0,21,0,1,,,,,,,,,,,,,,,,,,,,,,,,,,,,,,,,,,,,,,,
,,,,,,,62da562ad9942a440f6986c9,2023-08-16_09h02.06.543,HF_wild_card,2022.2.4,Win32,5.454823155,62da562ad9942a440f6986c9,64d2fd46c836a06233681665,64dc824674030621af8a3d16,,,,,,,ctch,resources/DR.BMP,resources/DG.BMP,Door4,-0.428703704,-0.046296296,1,0,0,1.3856,optionLeft,60,10690,5,22,0,22,0,1,,,,,,,,,,,,,,,,,,,,,,,,,,,,,,,,,,,,,,,
,,,,,,,62da562ad9942a440f6986c9,2023-08-16_09h02.06.543,HF_wild_card,2022.2.4,Win32,5.454823155,62da562ad9942a440f6986c9,64d2fd46c836a06233681665,64dc824674030621af8a3d16,,,,,,,decisionTrl,resources/DG.BMP,resources/DBN.BMP,Door1,-0.29537037,-0.036111111,1,0,0,2.1643,optionLeft,30,10720,5,23,0,23,0,1,,,,,,,,,,,,,,,,,,,,,,,,,,,,,,,,,,,,,,,
,,,,,,,62da562ad9942a440f6986c9,2023-08-16_09h02.06.543,HF_wild_card,2022.2.4,Win32,5.454823155,62da562ad9942a440f6986c9,64d2fd46c836a06233681665,64dc824674030621af8a3d16,,,,,,,sngl,resources/Empty.png,resources/DY.BMP,WildCard_NonEx,0.421296296,0.021296296,1,0,0,1.4826,optionRight,55,10775,5,24,0,24,0,1,,,,,,,,,,,,,,,,,,,,,,,,,,,,,,,,,,,,,,,
,,,,,,,62da562ad9942a440f6986c9,2023-08-16_09h02.06.543,HF_wild_card,2022.2.4,Win32,5.454823155,62da562ad9942a440f6986c9,64d2fd46c836a06233681665,64dc824674030621af8a3d16,,,,,,,decisionTrl,resources/DY.BMP,resources/DP.BMP,Door3,0.393518519,0.028703704,1,0,0,1.6632,optionRight,70,10845,5,25,0,25,0,1,,,,,,,,,,,,,,,,,,,,,,,,,,,,,,,,,,,,,,,
,,,,,,,62da562ad9942a440f6986c9,2023-08-16_09h02.06.543,HF_wild_card,2022.2.4,Win32,5.454823155,62da562ad9942a440f6986c9,64d2fd46c836a06233681665,64dc824674030621af8a3d16,,,,,,,sngl,resources/DBN.BMP,resources/Empty.png,Door2,-0.286111111,-0.005555556,1,0,0,1.4678,optionLeft,40,10885,5,26,0,26,0,1,,,,,,,,,,,,,,,,,,,,,,,,,,,,,,,,,,,,,,,
,,,,,,,62da562ad9942a440f6986c9,2023-08-16_09h02.06.543,HF_wild_card,2022.2.4,Win32,5.454823155,62da562ad9942a440f6986c9,64d2fd46c836a06233681665,64dc824674030621af8a3d16,,,,,,,decisionTrl,resources/DR.BMP,resources/DP.BMP,Door3,0.341666667,-0.02962963,1,0,0,3.0511,optionRight,70,10955,5,27,0,27,0,1,,,,,,,,,,,,,,,,,,,,,,,,,,,,,,,,,,,,,,,
,,,,,,,62da562ad9942a440f6986c9,2023-08-16_09h02.06.543,HF_wild_card,2022.2.4,Win32,5.454823155,62da562ad9942a440f6986c9,64d2fd46c836a06233681665,64dc824674030621af8a3d16,,,,,,,decisionTrl,resources/DR.BMP,resources/DP.BMP,Door3,0.363888889,0.00462963,1,0,0,1.6497,optionRight,70,11025,5,28,0,28,0,1,,,,,,,,,,,,,,,,,,,,,,,,,,,,,,,,,,,,,,,
,,,,,,,62da562ad9942a440f6986c9,2023-08-16_09h02.06.543,HF_wild_card,2022.2.4,Win32,5.454823155,62da562ad9942a440f6986c9,64d2fd46c836a06233681665,64dc824674030621af8a3d16,,,,,,,decisionTrl,resources/DP.BMP,resources/DY.BMP,Door3,-0.325925926,-0.068518519,1,0,0,3.2939,optionLeft,70,11095,5,29,0,29,0,1,,,,,,,,,,,,,,,,,,,,,,,,,,,,,,,,,,,,,,,
,,,,,,,62da562ad9942a440f6986c9,2023-08-16_09h02.06.543,HF_wild_card,2022.2.4,Win32,5.454823155,62da562ad9942a440f6986c9,64d2fd46c836a06233681665,64dc824674030621af8a3d16,,,,,,,sngl,resources/Empty.png,resources/DR.BMP,Door4,0.32037037,-0.012962963,1,0,0,2.184,optionRight,60,11155,5,30,0,30,0,1,,,,,,,,,,,,,,,,,,,,,,,,,,,,,,,,,,,,,,,
,,,,,,,62da562ad9942a440f6986c9,2023-08-16_09h02.06.543,HF_wild_card,2022.2.4,Win32,5.454823155,62da562ad9942a440f6986c9,64d2fd46c836a06233681665,64dc824674030621af8a3d16,,,,,,,decisionTrl,resources/DP.BMP,resources/DR.BMP,Door3,-0.349074074,-0.025925926,1,0,0,1.9262,optionLeft,70,11225,5,31,0,31,0,1,,,,,,,,,,,,,,,,,,,,,,,,,,,,,,,,,,,,,,,
,,,,,,,62da562ad9942a440f6986c9,2023-08-16_09h02.06.543,HF_wild_card,2022.2.4,Win32,5.454823155,62da562ad9942a440f6986c9,64d2fd46c836a06233681665,64dc824674030621af8a3d16,,,,,,,ctch,resources/DBN.BMP,resources/DP.BMP,Door3,0.267592593,0.002777778,1,0,0,1.9456,optionRight,70,11295,5,32,0,32,0,1,,,,,,,,,,,,,,,,,,,,,,,,,,,,,,,,,,,,,,,
,,,,,,,62da562ad9942a440f6986c9,2023-08-16_09h02.06.543,HF_wild_card,2022.2.4,Win32,5.454823155,62da562ad9942a440f6986c9,64d2fd46c836a06233681665,64dc824674030621af8a3d16,,,,,,,decisionTrl,resources/DP.BMP,resources/DR.BMP,Door3,-0.344444444,-0.034259259,1,0,0,2.6948,optionLeft,70,11365,5,33,0,33,0,1,,,,,,,,,,,,,,,,,,,,,,,,,,,,,,,,,,,,,,,
,,,,,,,62da562ad9942a440f6986c9,2023-08-16_09h02.06.543,HF_wild_card,2022.2.4,Win32,5.454823155,62da562ad9942a440f6986c9,64d2fd46c836a06233681665,64dc824674030621af8a3d16,,,,,,,decisionTrl,resources/DBN.BMP,resources/DG.BMP,Door2,-0.312037037,-0.025925926,1,0,0,2.4694,optionLeft,20,11385,5,34,0,34,0,1,,,,,,,,,,,,,,,,,,,,,,,,,,,,,,,,,,,,,,,
,,,,,,,62da562ad9942a440f6986c9,2023-08-16_09h02.06.543,HF_wild_card,2022.2.4,Win32,5.454823155,62da562ad9942a440f6986c9,64d2fd46c836a06233681665,64dc824674030621af8a3d16,,,,,,,sngl,resources/DP.BMP,resources/Empty.png,Door3,-0.286111111,-0.017592593,1,0,0,1.7199,optionLeft,70,11455,5,35,0,35,0,1,,,,,,,,,,,,,,,,,,,,,,,,,,,,,,,,,,,,,,,
,,,,,,,62da562ad9942a440f6986c9,2023-08-16_09h02.06.543,HF_wild_card,2022.2.4,Win32,5.454823155,62da562ad9942a440f6986c9,64d2fd46c836a06233681665,64dc824674030621af8a3d16,,,,,,,sngl,resources/DY.BMP,resources/Empty.png,WildCard_NonEx,-0.25462963,-0.011111111,1,0,0,1.9425,optionLeft,45,11500,5,36,0,36,0,1,,,,,,,,,,,,,,,,,,,,,,,,,,,,,,,,,,,,,,,
,,,,,,,62da562ad9942a440f6986c9,2023-08-16_09h02.06.543,HF_wild_card,2022.2.4,Win32,5.454823155,62da562ad9942a440f6986c9,64d2fd46c836a06233681665,64dc824674030621af8a3d16,,,,,,,ctch,resources/DG.BMP,resources/DR.BMP,Door4,0.375,0.010185185,1,0,0,3.0004,optionRight,80,11580,5,37,0,37,0,1,,,,,,,,,,,,,,,,,,,,,,,,,,,,,,,,,,,,,,,
,,,,,,,62da562ad9942a440f6986c9,2023-08-16_09h02.06.543,HF_wild_card,2022.2.4,Win32,5.454823155,62da562ad9942a440f6986c9,64d2fd46c836a06233681665,64dc824674030621af8a3d16,,,,,,,decisionTrl,resources/DBN.BMP,resources/DG.BMP,Door1,0.407407407,-0.012037037,1,0,0,2.2386,optionRight,30,11610,5,38,0,38,0,1,,,,,,,,,,,,,,,,,,,,,,,,,,,,,,,,,,,,,,,
,,,,,,,62da562ad9942a440f6986c9,2023-08-16_09h02.06.543,HF_wild_card,2022.2.4,Win32,5.454823155,62da562ad9942a440f6986c9,64d2fd46c836a06233681665,64dc824674030621af8a3d16,,,,,,,ctch,resources/DBN.BMP,resources/DP.BMP,Door3,0.412962963,-0.001851852,1,0,0,1.6552,optionRight,70,11680,5,39,0,39,0,1,,,,,,,,,,,,,,,,,,,,,,,,,,,,,,,,,,,,,,,
,,,,,,,62da562ad9942a440f6986c9,2023-08-16_09h02.06.543,HF_wild_card,2022.2.4,Win32,5.454823155,62da562ad9942a440f6986c9,64d2fd46c836a06233681665,64dc824674030621af8a3d16,,,,,,,ctch,resources/DP.BMP,resources/DBN.BMP,Door3,-0.330555556,-0.05,1,0,0,1.6385,optionLeft,70,11750,5,40,0,40,0,1,,,,,,,,,,,,,,,,,,,,,,,,,,,,,,,,,,,,,,,
,,,,,,,62da562ad9942a440f6986c9,2023-08-16_09h02.06.543,HF_wild_card,2022.2.4,Win32,5.454823155,62da562ad9942a440f6986c9,64d2fd46c836a06233681665,64dc824674030621af8a3d16,,,,,,,decisionTrl,resources/DBN.BMP,resources/DY.BMP,WildCard_NonEx,0.344444444,-0.023148148,1,0,0,1.6597,optionRight,45,11795,5,41,0,41,0,1,,,,,,,,,,,,,,,,,,,,,,,,,,,,,,,,,,,,,,,
,,,,,,,62da562ad9942a440f6986c9,2023-08-16_09h02.06.543,HF_wild_card,2022.2.4,Win32,5.454823155,62da562ad9942a440f6986c9,64d2fd46c836a06233681665,64dc824674030621af8a3d16,,,,,,,decisionTrl,resources/DY.BMP,resources/DG.BMP,WildCard_NonEx,-0.337962963,-0.030555556,1,0,0,1.8969,optionLeft,55,11850,5,42,0,42,0,1,,,,,,,,,,,,,,,,,,,,,,,,,,,,,,,,,,,,,,,
,,,,,,,62da562ad9942a440f6986c9,2023-08-16_09h02.06.543,HF_wild_card,2022.2.4,Win32,5.454823155,62da562ad9942a440f6986c9,64d2fd46c836a06233681665,64dc824674030621af8a3d16,,,,,,,sngl,resources/Empty.png,resources/DP.BMP,Door3,0.4,0.011111111,1,0,0,1.7154,optionRight,70,11920,5,43,0,43,0,1,,,,,,,,,,,,,,,,,,,,,,,,,,,,,,,,,,,,,,,
,,,,,,,62da562ad9942a440f6986c9,2023-08-16_09h02.06.543,HF_wild_card,2022.2.4,Win32,5.454823155,62da562ad9942a440f6986c9,64d2fd46c836a06233681665,64dc824674030621af8a3d16,,,,,,,,,,,,,,,,,,,,,,,,,,4,0,4,0,1,,,,,,,,,,,,,,,,,,,,,,,,,,,,,,,,,,
,,,,,,,62da562ad9942a440f6986c9,2023-08-16_09h02.06.543,HF_wild_card,2022.2.4,Win32,5.454823155,62da562ad9942a440f6986c9,64d2fd46c836a06233681665,64dc824674030621af8a3d16,,,,,,,ctch,resources/DBN.BMP,resources/DP.BMP,Door3,0.367592593,-0.049074074,1,0,0,1.8922,optionRight,70,11990,6,0,0,0,0,1,,,,,,,,,,,,,,,,,,,,,,,,,,,,,,,,,,,,,,,
,,,,,,,62da562ad9942a440f6986c9,2023-08-16_09h02.06.543,HF_wild_card,2022.2.4,Win32,5.454823155,62da562ad9942a440f6986c9,64d2fd46c836a06233681665,64dc824674030621af8a3d16,,,,,,,sngl,resources/DR.BMP,resources/Empty.png,Door4,-0.219444444,-0.034259259,1,0,0,1.1942,optionLeft,60,12050,6,1,0,1,0,1,,,,,,,,,,,,,,,,,,,,,,,,,,,,,,,,,,,,,,,
,,,,,,,62da562ad9942a440f6986c9,2023-08-16_09h02.06.543,HF_wild_card,2022.2.4,Win32,5.454823155,62da562ad9942a440f6986c9,64d2fd46c836a06233681665,64dc824674030621af8a3d16,,,,,,,decisionTrl,resources/DG.BMP,resources/DBN.BMP,Door1,-0.291666667,-0.025925926,1,0,0,2.9924,optionLeft,30,12080,6,2,0,2,0,1,,,,,,,,,,,,,,,,,,,,,,,,,,,,,,,,,,,,,,,
,,,,,,,62da562ad9942a440f6986c9,2023-08-16_09h02.06.543,HF_wild_card,2022.2.4,Win32,5.454823155,62da562ad9942a440f6986c9,64d2fd46c836a06233681665,64dc824674030621af8a3d16,,,,,,,ctch,resources/DBN.BMP,resources/DP.BMP,Door3,0.242592593,-0.016666667,1,0,0,1.9453,optionRight,70,12150,6,3,0,3,0,1,,,,,,,,,,,,,,,,,,,,,,,,,,,,,,,,,,,,,,,
,,,,,,,62da562ad9942a440f6986c9,2023-08-16_09h02.06.543,HF_wild_card,2022.2.4,Win32,5.454823155,62da562ad9942a440f6986c9,64d2fd46c836a06233681665,64dc824674030621af8a3d16,,,,,,,ctch,resources/DR.BMP,resources/DG.BMP,Door4,-0.153703704,-0.030555556,1,0,0,2.1538,optionLeft,80,12230,6,4,0,4,0,1,,,,,,,,,,,,,,,,,,,,,,,,,,,,,,,,,,,,,,,
,,,,,,,62da562ad9942a440f6986c9,2023-08-16_09h02.06.543,HF_wild_card,2022.2.4,Win32,5.454823155,62da562ad9942a440f6986c9,64d2fd46c836a06233681665,64dc824674030621af8a3d16,,,,,,,ctch,resources/DP.BMP,resources/DBN.BMP,Door3,-0.143518519,-0.030555556,1,0,0,1.6012,optionLeft,70,12300,6,5,0,5,0,1,,,,,,,,,,,,,,,,,,,,,,,,,,,,,,,,,,,,,,,
,,,,,,,62da562ad9942a440f6986c9,2023-08-16_09h02.06.543,HF_wild_card,2022.2.4,Win32,5.454823155,62da562ad9942a440f6986c9,64d2fd46c836a06233681665,64dc824674030621af8a3d16,,,,,,,decisionTrl,resources/DY.BMP,resources/DR.BMP,WildCard_NonEx,-0.20462963,-0.012037037,1,0,0,2.1698,optionLeft,45,12345,6,6,0,6,0,1,,,,,,,,,,,,,,,,,,,,,,,,,,,,,,,,,,,,,,,
,,,,,,,62da562ad9942a440f6986c9,2023-08-16_09h02.06.543,HF_wild_card,2022.2.4,Win32,5.454823155,62da562ad9942a440f6986c9,64d2fd46c836a06233681665,64dc824674030621af8a3d16,,,,,,,sngl,resources/DBN.BMP,resources/Empty.png,Door2,-0.140740741,-0.010185185,1,0,0,1.465,optionLeft,20,12365,6,7,0,7,0,1,,,,,,,,,,,,,,,,,,,,,,,,,,,,,,,,,,,,,,,
,,,,,,,62da562ad9942a440f6986c9,2023-08-16_09h02.06.543,HF_wild_card,2022.2.4,Win32,5.454823155,62da562ad9942a440f6986c9,64d2fd46c836a06233681665,64dc824674030621af8a3d16,,,,,,,decisionTrl,resources/DR.BMP,resources/DP.BMP,Door3,0.20462963,0.007407407,1,0,0,1.9196,optionRight,70,12435,6,8,0,8,0,1,,,,,,,,,,,,,,,,,,,,,,,,,,,,,,,,,,,,,,,
,,,,,,,62da562ad9942a440f6986c9,2023-08-16_09h02.06.543,HF_wild_card,2022.2.4,Win32,5.454823155,62da562ad9942a440f6986c9,64d2fd46c836a06233681665,64dc824674030621af8a3d16,,,,,,,sngl,resources/DG.BMP,resources/Empty.png,Door1,-0.116666667,-0.014814815,1,0,0,1.2304,optionLeft,30,12465,6,9,0,9,0,1,,,,,,,,,,,,,,,,,,,,,,,,,,,,,,,,,,,,,,,
,,,,,,,62da562ad9942a440f6986c9,2023-08-16_09h02.06.543,HF_wild_card,2022.2.4,Win32,5.454823155,62da562ad9942a440f6986c9,64d2fd46c836a06233681665,64dc824674030621af8a3d16,,,,,,,decisionTrl,resources/DP.BMP,resources/DR.BMP,Door3,-0.153703704,-0.040740741,1,0,0,4.3622,optionLeft,70,12535,6,10,0,10,0,1,,,,,,,,,,,,,,,,,,,,,,,,,,,,,,,,,,,,,,,
,,,,,,,62da562ad9942a440f6986c9,2023-08-16_09h02.06.543,HF_wild_card,2022.2.4,Win32,5.454823155,62da562ad9942a440f6986c9,64d2fd46c836a06233681665,64dc824674030621af8a3d16,,,,,,,decisionTrl,resources/DG.BMP,resources/DY.BMP,WildCard_NonEx,0.185185185,0.006481481,1,0,0,5.1813,optionRight,55,12590,6,11,0,11,0,1,,,,,,,,,,,,,,,,,,,,,,,,,,,,,,,,,,,,,,,
,,,,,,,62da562ad9942a440f6986c9,2023-08-16_09h02.06.543,HF_wild_card,2022.2.4,Win32,5.454823155,62da562ad9942a440f6986c9,64d2fd46c836a06233681665,64dc824674030621af8a3d16,,,,,,,decisionTrl,resources/DR.BMP,resources/DP.BMP,Door3,0.127777778,-0.014814815,1,0,0,2.1633,optionRight,70,12660,6,12,0,12,0,1,,,,,,,,,,,,,,,,,,,,,,,,,,,,,,,,,,,,,,,
,,,,,,,62da562ad9942a440f6986c9,2023-08-16_09h02.06.543,HF_wild_card,2022.2.4,Win32,5.454823155,62da562ad9942a440f6986c9,64d2fd46c836a06233681665,64dc824674030621af8a3d16,,,,,,,decisionTrl,resources/DP.BMP,resources/DR.BMP,Door3,-0.140740741,-0.035185185,1,0,0,2.4505,optionLeft,70,12730,6,13,0,13,0,1,,,,,,,,,,,,,,,,,,,,,,,,,,,,,,,,,,,,,,,
,,,,,,,62da562ad9942a440f6986c9,2023-08-16_09h02.06.543,HF_wild_card,2022.2.4,Win32,5.454823155,62da562ad9942a440f6986c9,64d2fd46c836a06233681665,64dc824674030621af8a3d16,,,,,,,decisionTrl,resources/DR.BMP,resources/DP.BMP,Door3,-0.012037037,-0.010185185,1,0,0,0.5593,optionRight,70,12800,6,14,0,14,0,1,,,,,,,,,,,,,,,,,,,,,,,,,,,,,,,,,,,,,,,
,,,,,,,62da562ad9942a440f6986c9,2023-08-16_09h02.06.543,HF_wild_card,2022.2.4,Win32,5.454823155,62da562ad9942a440f6986c9,64d2fd46c836a06233681665,64dc824674030621af8a3d16,,,,,,,sngl,resources/Empty.png,resources/DY.BMP,WildCard_NonEx,0.183333333,0.02962963,1,0,0,1.4857,optionRight,55,12855,6,15,0,15,0,1,,,,,,,,,,,,,,,,,,,,,,,,,,,,,,,,,,,,,,,
,,,,,,,62da562ad9942a440f6986c9,2023-08-16_09h02.06.543,HF_wild_card,2022.2.4,Win32,5.454823155,62da562ad9942a440f6986c9,64d2fd46c836a06233681665,64dc824674030621af8a3d16,,,,,,,sngl,resources/DY.BMP,resources/Empty.png,WildCard_NonEx,-0.155555556,-0.006481481,1,0,0,2.1758,optionLeft,45,12900,6,16,0,16,0,1,,,,,,,,,,,,,,,,,,,,,,,,,,,,,,,,,,,,,,,
,,,,,,,62da562ad9942a440f6986c9,2023-08-16_09h02.06.543,HF_wild_card,2022.2.4,Win32,5.454823155,62da562ad9942a440f6986c9,64d2fd46c836a06233681665,64dc824674030621af8a3d16,,,,,,,decisionTrl,resources/DP.BMP,resources/DR.BMP,Door3,-0.207407407,-0.023148148,1,0,0,2.1909,optionLeft,70,12970,6,17,0,17,0,1,,,,,,,,,,,,,,,,,,,,,,,,,,,,,,,,,,,,,,,
,,,,,,,62da562ad9942a440f6986c9,2023-08-16_09h02.06.543,HF_wild_card,2022.2.4,Win32,5.454823155,62da562ad9942a440f6986c9,64d2fd46c836a06233681665,64dc824674030621af8a3d16,,,,,,,sngl,resources/DP.BMP,resources/Empty.png,Door3,-0.184259259,-0.028703704,1,0,0,1.6898,optionLeft,70,13040,6,18,0,18,0,1,,,,,,,,,,,,,,,,,,,,,,,,,,,,,,,,,,,,,,,
,,,,,,,62da562ad9942a440f6986c9,2023-08-16_09h02.06.543,HF_wild_card,2022.2.4,Win32,5.454823155,62da562ad9942a440f6986c9,64d2fd46c836a06233681665,64dc824674030621af8a3d16,,,,,,,sngl,resources/DY.BMP,resources/Empty.png,WildCard_NonEx,-0.194444444,-0.024074074,1,0,0,2.4254,optionLeft,55,13095,6,19,0,19,0,1,,,,,,,,,,,,,,,,,,,,,,,,,,,,,,,,,,,,,,,
,,,,,,,62da562ad9942a440f6986c9,2023-08-16_09h02.06.543,HF_wild_card,2022.2.4,Win32,5.454823155,62da562ad9942a440f6986c9,64d2fd46c836a06233681665,64dc824674030621af8a3d16,,,,,,,sngl,resources/Empty.png,resources/DP.BMP,Door3,0.225,-0.014814815,1,0,0,2.9174,optionRight,70,13165,6,20,0,20,0,1,,,,,,,,,,,,,,,,,,,,,,,,,,,,,,,,,,,,,,,
,,,,,,,62da562ad9942a440f6986c9,2023-08-16_09h02.06.543,HF_wild_card,2022.2.4,Win32,5.454823155,62da562ad9942a440f6986c9,64d2fd46c836a06233681665,64dc824674030621af8a3d16,,,,,,,sngl,resources/Empty.png,resources/DR.BMP,Door4,0.265740741,0.006481481,1,0,0,1.9244,optionRight,80,13245,6,21,0,21,0,1,,,,,,,,,,,,,,,,,,,,,,,,,,,,,,,,,,,,,,,
,,,,,,,62da562ad9942a440f6986c9,2023-08-16_09h02.06.543,HF_wild_card,2022.2.4,Win32,5.454823155,62da562ad9942a440f6986c9,64d2fd46c836a06233681665,64dc824674030621af8a3d16,,,,,,,ctch,resources/DR.BMP,resources/DG.BMP,Door4,-0.178703704,-0.016666667,1,0,0,1.6427,optionLeft,60,13305,6,22,0,22,0,1,,,,,,,,,,,,,,,,,,,,,,,,,,,,,,,,,,,,,,,
,,,,,,,62da562ad9942a440f6986c9,2023-08-16_09h02.06.543,HF_wild_card,2022.2.4,Win32,5.454823155,62da562ad9942a440f6986c9,64d2fd46c836a06233681665,64dc824674030621af8a3d16,,,,,,,decisionTrl,resources/DP.BMP,resources/DR.BMP,Door3,-0.260185185,-0.007407407,1,0,0,3.3071,optionLeft,70,13375,6,23,0,23,0,1,,,,,,,,,,,,,,,,,,,,,,,,,,,,,,,,,,,,,,,
,,,,,,,62da562ad9942a440f6986c9,2023-08-16_09h02.06.543,HF_wild_card,2022.2.4,Win32,5.454823155,62da562ad9942a440f6986c9,64d2fd46c836a06233681665,64dc824674030621af8a3d16,,,,,,,ctch,resources/DG.BMP,resources/DR.BMP,Door4,0.283333333,0.021296296,1,0,0,1.8875,optionRight,60,13435,6,24,0,24,0,1,,,,,,,,,,,,,,,,,,,,,,,,,,,,,,,,,,,,,,,
,,,,,,,62da562ad9942a440f6986c9,2023-08-16_09h02.06.543,HF_wild_card,2022.2.4,Win32,5.454823155,62da562ad9942a440f6986c9,64d2fd46c836a06233681665,64dc824674030621af8a3d16,,,,,,,decisionTrl,resources/DBN.BMP,resources/DG.BMP,Door1,0.32037037,-0.007407407,1,0,0,2.4902,optionRight,30,13465,6,25,0,25,0,1,,,,,,,,,,,,,,,,,,,,,,,,,,,,,,,,,,,,,,,
,,,,,,,62da562ad9942a440f6986c9,2023-08-16_09h02.06.543,HF_wild_card,2022.2.4,Win32,5.454823155,62da562ad9942a440f6986c9,64d2fd46c836a06233681665,64dc824674030621af8a3d16,,,,,,,decisionTrl,resources/DP.BMP,resources/DY.BMP,Door3,-0.282407407,-0.037962963,1,0,0,3.3001,optionLeft,70,13535,6,26,0,26,0,1,,,,,,,,,,,,,,,,,,,,,,,,,,,,,,,,,,,,,,,
,,,,,,,62da562ad9942a440f6986c9,2023-08-16_09h02.06.543,HF_wild_card,2022.2.4,Win32,5.454823155,62da562ad9942a440f6986c9,64d2fd46c836a06233681665,64dc824674030621af8a3d16,,,,,,,decisionTrl,resources/DY.BMP,resources/DBN.BMP,WildCard_NonEx,-0.238888889,-0.021296296,1,0,0,1.6475,optionLeft,45,13580,6,27,0,27,0,1,,,,,,,,,,,,,,,,,,,,,,,,,,,,,,,,,,,,,,,
,,,,,,,62da562ad9942a440f6986c9,2023-08-16_09h02.06.543,HF_wild_card,2022.2.4,Win32,5.454823155,62da562ad9942a440f6986c9,64d2fd46c836a06233681665,64dc824674030621af8a3d16,,,,,,,decisionTrl,resources/DR.BMP,resources/DY.BMP,Door4,-0.235185185,-0.016666667,1,0,0,2.8096,optionLeft,80,13660,6,28,0,28,0,1,,,,,,,,,,,,,,,,,,,,,,,,,,,,,,,,,,,,,,,
,,,,,,,62da562ad9942a440f6986c9,2023-08-16_09h02.06.543,HF_wild_card,2022.2.4,Win32,5.454823155,62da562ad9942a440f6986c9,64d2fd46c836a06233681665,64dc824674030621af8a3d16,,,,,,,decisionTrl,resources/DR.BMP,resources/DP.BMP,Door3,0.355555556,-0.002777778,1,0,0,2.1812,optionRight,70,13730,6,29,0,29,0,1,,,,,,,,,,,,,,,,,,,,,,,,,,,,,,,,,,,,,,,
,,,,,,,62da562ad9942a440f6986c9,2023-08-16_09h02.06.543,HF_wild_card,2022.2.4,Win32,5.454823155,62da562ad9942a440f6986c9,64d2fd46c836a06233681665,64dc824674030621af8a3d16,,,,,,,ctch,resources/DP.BMP,resources/DBN.BMP,Door3,-0.244444444,-0.037037037,1,0,0,1.6243,optionLeft,70,13800,6,30,0,30,0,1,,,,,,,,,,,,,,,,,,,,,,,,,,,,,,,,,,,,,,,
,,,,,,,62da562ad9942a440f6986c9,2023-08-16_09h02.06.543,HF_wild_card,2022.2.4,Win32,5.454823155,62da562ad9942a440f6986c9,64d2fd46c836a06233681665,64dc824674030621af8a3d16,,,,,,,decisionTrl,resources/DBN.BMP,resources/DY.BMP,WildCard_NonEx,0.259259259,0,1,0,0,1.9392,optionRight,55,13855,6,31,0,31,0,1,,,,,,,,,,,,,,,,,,,,,,,,,,,,,,,,,,,,,,,
,,,,,,,62da562ad9942a440f6986c9,2023-08-16_09h02.06.543,HF_wild_card,2022.2.4,Win32,5.454823155,62da562ad9942a440f6986c9,64d2fd46c836a06233681665,64dc824674030621af8a3d16,,,,,,,decisionTrl,resources/DBN.BMP,resources/DG.BMP,Door1,0.288888889,-0.02962963,1,0,0,1.9273,optionRight,30,13885,6,32,0,32,0,1,,,,,,,,,,,,,,,,,,,,,,,,,,,,,,,,,,,,,,,
,,,,,,,62da562ad9942a440f6986c9,2023-08-16_09h02.06.543,HF_wild_card,2022.2.4,Win32,5.454823155,62da562ad9942a440f6986c9,64d2fd46c836a06233681665,64dc824674030621af8a3d16,,,,,,,decisionTrl,resources/DG.BMP,resources/DBN.BMP,Door1,-0.221296296,-0.02037037,1,0,0,1.9396,optionLeft,30,13915,6,33,0,33,0,1,,,,,,,,,,,,,,,,,,,,,,,,,,,,,,,,,,,,,,,
,,,,,,,62da562ad9942a440f6986c9,2023-08-16_09h02.06.543,HF_wild_card,2022.2.4,Win32,5.454823155,62da562ad9942a440f6986c9,64d2fd46c836a06233681665,64dc824674030621af8a3d16,,,,,,,sngl,resources/Empty.png,resources/DBN.BMP,Door2,0.218518519,0.028703704,1,0,0,1.7304,optionRight,40,13955,6,34,0,34,0,1,,,,,,,,,,,,,,,,,,,,,,,,,,,,,,,,,,,,,,,
,,,,,,,62da562ad9942a440f6986c9,2023-08-16_09h02.06.543,HF_wild_card,2022.2.4,Win32,5.454823155,62da562ad9942a440f6986c9,64d2fd46c836a06233681665,64dc824674030621af8a3d16,,,,,,,decisionTrl,resources/DG.BMP,resources/DBN.BMP,Door1,-0.19537037,-0.023148148,1,0,0,2.168,optionLeft,30,13985,6,35,0,35,0,1,,,,,,,,,,,,,,,,,,,,,,,,,,,,,,,,,,,,,,,
,,,,,,,62da562ad9942a440f6986c9,2023-08-16_09h02.06.543,HF_wild_card,2022.2.4,Win32,5.454823155,62da562ad9942a440f6986c9,64d2fd46c836a06233681665,64dc824674030621af8a3d16,,,,,,,decisionTrl,resources/DY.BMP,resources/DP.BMP,Door3,0.251851852,0.007407407,1,0,0,2.1766,optionRight,70,14055,6,36,0,36,0,1,,,,,,,,,,,,,,,,,,,,,,,,,,,,,,,,,,,,,,,
,,,,,,,62da562ad9942a440f6986c9,2023-08-16_09h02.06.543,HF_wild_card,2022.2.4,Win32,5.454823155,62da562ad9942a440f6986c9,64d2fd46c836a06233681665,64dc824674030621af8a3d16,,,,,,,ctch,resources/DG.BMP,resources/DR.BMP,Door4,0.359259259,0.012037037,1,0,0,1.8776,optionRight,60,14115,6,37,0,37,0,1,,,,,,,,,,,,,,,,,,,,,,,,,,,,,,,,,,,,,,,
,,,,,,,62da562ad9942a440f6986c9,2023-08-16_09h02.06.543,HF_wild_card,2022.2.4,Win32,5.454823155,62da562ad9942a440f6986c9,64d2fd46c836a06233681665,64dc824674030621af8a3d16,,,,,,,sngl,resources/Empty.png,resources/DG.BMP,Door1,0.257407407,0.028703704,1,0,0,2.6923,optionRight,30,14145,6,38,0,38,0,1,,,,,,,,,,,,,,,,,,,,,,,,,,,,,,,,,,,,,,,
,,,,,,,62da562ad9942a440f6986c9,2023-08-16_09h02.06.543,HF_wild_card,2022.2.4,Win32,5.454823155,62da562ad9942a440f6986c9,64d2fd46c836a06233681665,64dc824674030621af8a3d16,,,,,,,decisionTrl,resources/DY.BMP,resources/DG.BMP,WildCard_NonEx,-0.252777778,-0.008333333,1,0,0,1.9174,optionLeft,55,14200,6,39,0,39,0,1,,,,,,,,,,,,,,,,,,,,,,,,,,,,,,,,,,,,,,,
,,,,,,,62da562ad9942a440f6986c9,2023-08-16_09h02.06.543,HF_wild_card,2022.2.4,Win32,5.454823155,62da562ad9942a440f6986c9,64d2fd46c836a06233681665,64dc824674030621af8a3d16,,,,,,,sngl,resources/Empty.png,resources/DY.BMP,WildCard_NonEx,0.251851852,0.033333333,1,0,0,1.4769,optionRight,45,14245,6,40,0,40,0,1,,,,,,,,,,,,,,,,,,,,,,,,,,,,,,,,,,,,,,,
,,,,,,,62da562ad9942a440f6986c9,2023-08-16_09h02.06.543,HF_wild_card,2022.2.4,Win32,5.454823155,62da562ad9942a440f6986c9,64d2fd46c836a06233681665,64dc824674030621af8a3d16,,,,,,,decisionTrl,resources/DBN.BMP,resources/DG.BMP,Door1,0.218518519,0.003703704,1,0,0,1.8992,optionRight,30,14275,6,41,0,41,0,1,,,,,,,,,,,,,,,,,,,,,,,,,,,,,,,,,,,,,,,
,,,,,,,62da562ad9942a440f6986c9,2023-08-16_09h02.06.543,HF_wild_card,2022.2.4,Win32,5.454823155,62da562ad9942a440f6986c9,64d2fd46c836a06233681665,64dc824674030621af8a3d16,,,,,,,decisionTrl,resources/DBN.BMP,resources/DG.BMP,Door1,0.233333333,0.017592593,1,0,0,2.0063,optionRight,30,14305,6,42,0,42,0,1,,,,,,,,,,,,,,,,,,,,,,,,,,,,,,,,,,,,,,,
,,,,,,,62da562ad9942a440f6986c9,2023-08-16_09h02.06.543,HF_wild_card,2022.2.4,Win32,5.454823155,62da562ad9942a440f6986c9,64d2fd46c836a06233681665,64dc824674030621af8a3d16,,,,,,,decisionTrl,resources/DG.BMP,resources/DBN.BMP,Door1,-0.197222222,-0.009259259,1,0,0,1.8739,optionLeft,30,14335,6,43,0,43,0,1,,,,,,,,,,,,,,,,,,,,,,,,,,,,,,,,,,,,,,,
,,,,,,,62da562ad9942a440f6986c9,2023-08-16_09h02.06.543,HF_wild_card,2022.2.4,Win32,5.454823155,62da562ad9942a440f6986c9,64d2fd46c836a06233681665,64dc824674030621af8a3d16,,,,,,,,,,,,,,,,,,,,,,,,,,5,0,5,0,1,,,,,,,,,,,,,,,,,,,,,,,,,,,,,,,,,,
,,,,,,,62da562ad9942a440f6986c9,2023-08-16_09h02.06.543,HF_wild_card,2022.2.4,Win32,5.454823155,62da562ad9942a440f6986c9,64d2fd46c836a06233681665,64dc824674030621af8a3d16,,,,,,,decisionTrl,resources/DG.BMP,resources/DBN.BMP,Door1,-0.312962963,-0.058333333,1,0,0,2.4334,optionLeft,30,14365,7,0,0,0,0,1,,,,,,,,,,,,,,,,,,,,,,,,,,,,,,,,,,,,,,,
,,,,,,,62da562ad9942a440f6986c9,2023-08-16_09h02.06.543,HF_wild_card,2022.2.4,Win32,5.454823155,62da562ad9942a440f6986c9,64d2fd46c836a06233681665,64dc824674030621af8a3d16,,,,,,,ctch,resources/DBN.BMP,resources/DP.BMP,Door3,0.277777778,-0.030555556,1,0,0,2.1755,optionRight,70,14435,7,1,0,1,0,1,,,,,,,,,,,,,,,,,,,,,,,,,,,,,,,,,,,,,,,
,,,,,,,62da562ad9942a440f6986c9,2023-08-16_09h02.06.543,HF_wild_card,2022.2.4,Win32,5.454823155,62da562ad9942a440f6986c9,64d2fd46c836a06233681665,64dc824674030621af8a3d16,,,,,,,decisionTrl,resources/DP.BMP,resources/DR.BMP,Door3,-0.324074074,-0.023148148,1,0,0,5.1273,optionLeft,70,14505,7,2,0,2,0,1,,,,,,,,,,,,,,,,,,,,,,,,,,,,,,,,,,,,,,,
,,,,,,,62da562ad9942a440f6986c9,2023-08-16_09h02.06.543,HF_wild_card,2022.2.4,Win32,5.454823155,62da562ad9942a440f6986c9,64d2fd46c836a06233681665,64dc824674030621af8a3d16,,,,,,,ctch,resources/DG.BMP,resources/DR.BMP,Door4,0.409259259,0.010185185,1,0,0,2.4204,optionRight,80,14585,7,3,0,3,0,1,,,,,,,,,,,,,,,,,,,,,,,,,,,,,,,,,,,,,,,
,,,,,,,62da562ad9942a440f6986c9,2023-08-16_09h02.06.543,HF_wild_card,2022.2.4,Win32,5.454823155,62da562ad9942a440f6986c9,64d2fd46c836a06233681665,64dc824674030621af8a3d16,,,,,,,ctch,resources/DP.BMP,resources/DBN.BMP,Door3,-0.32962963,-0.048148148,1,0,0,1.9005,optionLeft,70,14655,7,4,0,4,0,1,,,,,,,,,,,,,,,,,,,,,,,,,,,,,,,,,,,,,,,
,,,,,,,62da562ad9942a440f6986c9,2023-08-16_09h02.06.543,HF_wild_card,2022.2.4,Win32,5.454823155,62da562ad9942a440f6986c9,64d2fd46c836a06233681665,64dc824674030621af8a3d16,,,,,,,decisionTrl,resources/DR.BMP,resources/DP.BMP,Door3,0.346296296,0.003703704,1,0,0,2.5778,optionRight,70,14725,7,5,0,5,0,1,,,,,,,,,,,,,,,,,,,,,,,,,,,,,,,,,,,,,,,
,,,,,,,62da562ad9942a440f6986c9,2023-08-16_09h02.06.543,HF_wild_card,2022.2.4,Win32,5.454823155,62da562ad9942a440f6986c9,64d2fd46c836a06233681665,64dc824674030621af8a3d16,,,,,,,decisionTrl,resources/DBN.BMP,resources/DG.BMP,Door1,0.294444444,0.010185185,1,0,0,1.8706,optionRight,30,14755,7,6,0,6,0,1,,,,,,,,,,,,,,,,,,,,,,,,,,,,,,,,,,,,,,,
,,,,,,,62da562ad9942a440f6986c9,2023-08-16_09h02.06.543,HF_wild_card,2022.2.4,Win32,5.454823155,62da562ad9942a440f6986c9,64d2fd46c836a06233681665,64dc824674030621af8a3d16,,,,,,,decisionTrl,resources/DG.BMP,resources/DBN.BMP,Door1,-0.236111111,-0.000925926,1,0,0,1.5971,optionLeft,30,14785,7,7,0,7,0,1,,,,,,,,,,,,,,,,,,,,,,,,,,,,,,,,,,,,,,,
,,,,,,,62da562ad9942a440f6986c9,2023-08-16_09h02.06.543,HF_wild_card,2022.2.4,Win32,5.454823155,62da562ad9942a440f6986c9,64d2fd46c836a06233681665,64dc824674030621af8a3d16,,,,,,,decisionTrl,resources/DP.BMP,resources/DR.BMP,Door3,-0.258333333,-0.035185185,1,0,0,2.1486,optionLeft,70,14855,7,8,0,8,0,1,,,,,,,,,,,,,,,,,,,,,,,,,,,,,,,,,,,,,,,
,,,,,,,62da562ad9942a440f6986c9,2023-08-16_09h02.06.543,HF_wild_card,2022.2.4,Win32,5.454823155,62da562ad9942a440f6986c9,64d2fd46c836a06233681665,64dc824674030621af8a3d16,,,,,,,decisionTrl,resources/DR.BMP,resources/DP.BMP,Door3,0.309259259,-0.019444444,1,0,0,2.0004,optionRight,70,14925,7,9,0,9,0,1,,,,,,,,,,,,,,,,,,,,,,,,,,,,,,,,,,,,,,,
,,,,,,,62da562ad9942a440f6986c9,2023-08-16_09h02.06.543,HF_wild_card,2022.2.4,Win32,5.454823155,62da562ad9942a440f6986c9,64d2fd46c836a06233681665,64dc824674030621af8a3d16,,,,,,,decisionTrl,resources/DBN.BMP,resources/DG.BMP,Door1,0.296296296,0.000925926,1,0,0,2.1123,optionRight,30,14955,7,10,0,10,0,1,,,,,,,,,,,,,,,,,,,,,,,,,,,,,,,,,,,,,,,
,,,,,,,62da562ad9942a440f6986c9,2023-08-16_09h02.06.543,HF_wild_card,2022.2.4,Win32,5.454823155,62da562ad9942a440f6986c9,64d2fd46c836a06233681665,64dc824674030621af8a3d16,,,,,,,decisionTrl,resources/DP.BMP,resources/DR.BMP,Door3,-0.264814815,-0.032407407,1,0,0,2.5472,optionLeft,70,15025,7,11,0,11,0,1,,,,,,,,,,,,,,,,,,,,,,,,,,,,,,,,,,,,,,,
,,,,,,,62da562ad9942a440f6986c9,2023-08-16_09h02.06.543,HF_wild_card,2022.2.4,Win32,5.454823155,62da562ad9942a440f6986c9,64d2fd46c836a06233681665,64dc824674030621af8a3d16,,,,,,,ctch,resources/DP.BMP,resources/DBN.BMP,Door3,-0.231481481,-0.018518519,1,0,0,3.0943,optionLeft,70,15095,7,12,0,12,0,1,,,,,,,,,,,,,,,,,,,,,,,,,,,,,,,,,,,,,,,
,,,,,,,62da562ad9942a440f6986c9,2023-08-16_09h02.06.543,HF_wild_card,2022.2.4,Win32,5.454823155,62da562ad9942a440f6986c9,64d2fd46c836a06233681665,64dc824674030621af8a3d16,,,,,,,decisionTrl,resources/DP.BMP,resources/DR.BMP,Door3,-0.344444444,-0.027777778,1,0,0,2.2885,optionLeft,70,15165,7,13,0,13,0,1,,,,,,,,,,,,,,,,,,,,,,,,,,,,,,,,,,,,,,,
,,,,,,,62da562ad9942a440f6986c9,2023-08-16_09h02.06.543,HF_wild_card,2022.2.4,Win32,5.454823155,62da562ad9942a440f6986c9,64d2fd46c836a06233681665,64dc824674030621af8a3d16,,,,,,,decisionTrl,resources/DBN.BMP,resources/DG.BMP,Door1,0.262962963,0.006481481,1,0,0,1.855,optionRight,30,15195,7,14,0,14,0,1,,,,,,,,,,,,,,,,,,,,,,,,,,,,,,,,,,,,,,,
,,,,,,,62da562ad9942a440f6986c9,2023-08-16_09h02.06.543,HF_wild_card,2022.2.4,Win32,5.454823155,62da562ad9942a440f6986c9,64d2fd46c836a06233681665,64dc824674030621af8a3d16,,,,,,,ctch,resources/DR.BMP,resources/DG.BMP,Door4,-0.302777778,-0.040740741,1,0,0,4.2805,optionLeft,60,15255,7,15,0,15,0,1,,,,,,,,,,,,,,,,,,,,,,,,,,,,,,,,,,,,,,,
,,,,,,,62da562ad9942a440f6986c9,2023-08-16_09h02.06.543,HF_wild_card,2022.2.4,Win32,5.454823155,62da562ad9942a440f6986c9,64d2fd46c836a06233681665,64dc824674030621af8a3d16,,,,,,,decisionTrl,resources/DBN.BMP,resources/DG.BMP,Door1,0.280555556,0.012037037,1,0,0,1.8967,optionRight,30,15285,7,16,0,16,0,1,,,,,,,,,,,,,,,,,,,,,,,,,,,,,,,,,,,,,,,
,,,,,,,62da562ad9942a440f6986c9,2023-08-16_09h02.06.543,HF_wild_card,2022.2.4,Win32,5.454823155,62da562ad9942a440f6986c9,64d2fd46c836a06233681665,64dc824674030621af8a3d16,,,,,,,decisionTrl,resources/DG.BMP,resources/DBN.BMP,Door1,-0.25,-0.034259259,1,0,0,1.897,optionLeft,30,15315,7,17,0,17,0,1,,,,,,,,,,,,,,,,,,,,,,,,,,,,,,,,,,,,,,,
,,,,,,,62da562ad9942a440f6986c9,2023-08-16_09h02.06.543,HF_wild_card,2022.2.4,Win32,5.454823155,62da562ad9942a440f6986c9,64d2fd46c836a06233681665,64dc824674030621af8a3d16,,,,,,,decisionTrl,resources/DG.BMP,resources/DBN.BMP,Door1,-0.260185185,-0.022222222,1,0,0,1.4589,optionLeft,30,15345,7,18,0,18,0,1,,,,,,,,,,,,,,,,,,,,,,,,,,,,,,,,,,,,,,,
,,,,,,,62da562ad9942a440f6986c9,2023-08-16_09h02.06.543,HF_wild_card,2022.2.4,Win32,5.454823155,62da562ad9942a440f6986c9,64d2fd46c836a06233681665,64dc824674030621af8a3d16,,,,,,,decisionTrl,resources/DG.BMP,resources/DBN.BMP,Door1,-0.300925926,-0.022222222,1,0,0,1.8807,optionLeft,30,15375,7,19,0,19,0,1,,,,,,,,,,,,,,,,,,,,,,,,,,,,,,,,,,,,,,,
,,,,,,,62da562ad9942a440f6986c9,2023-08-16_09h02.06.543,HF_wild_card,2022.2.4,Win32,5.454823155,62da562ad9942a440f6986c9,64d2fd46c836a06233681665,64dc824674030621af8a3d16,,,,,,,decisionTrl,resources/DP.BMP,resources/DR.BMP,Door3,-0.25,-0.015740741,1,0,0,2.5435,optionLeft,70,15445,7,20,0,20,0,1,,,,,,,,,,,,,,,,,,,,,,,,,,,,,,,,,,,,,,,
