Condition,Low fixed image (Door1),Low risky image (Door2),High fixed image (Door3),High risky image (Door4),Extreme Wild Card,NonExtreme Wild Card,,date,expName,psychopyVersion,OS,frameRate,PROLIFIC_PID,STUDY_ID,SESSION_ID,mouse_2.x,mouse_2.y,mouse_2.leftButton,mouse_2.midButton,mouse_2.rightButton,mouse_2.clicked_name,Trial Type,Left Option Image,Right Option Image,Chosen Door,mouse.x,mouse.y,mouse.leftButton,mouse.midButton,mouse.rightButton,mouse.time,mouse.clicked_name,Feedback,Cumulative Reward,Block,trial.thisRepN,trial.thisTrialN,trial.thisN,trial.thisIndex,trial.ran,blocks.thisRepN,blocks.thisTrialN,blocks.thisN,blocks.thisIndex,blocks.ran,Money conversion,First Outcome Reported,Shown Door (First Outcome),Displayed Image (First Outcome),outcomes.thisRepN,outcomes.thisTrialN,outcomes.thisN,outcomes.thisIndex,outcomes.ran,judgments.thisRepN,judgments.thisTrialN,judgments.thisN,judgments.thisIndex,judgments.ran,freqMouse.x,freqMouse.y,freqMouse.leftButton,freqMouse.midButton,freqMouse.rightButton,freqMouse.clicked_name,FQJ for first outcome,FQJ for second outcome,Shown Door,Displayed Image,trials.thisRepN,trials.thisTrialN,trials.thisN,trials.thisIndex,trials.ran,judgBlock.thisRepN,judgBlock.thisTrialN,judgBlock.thisN,judgBlock.thisIndex,judgBlock.ran
1,resources/DG.BMP,resources/DR.BMP,resources/DBN.BMP,resources/DP.BMP,resources/DB.BMP,resources/DY.BMP,,2023-08-16_08h46.25.561,HF_wild_card,2022.2.4,Win32,7.5030012,5c8cfc3772503f0001e9c965,64d2fd46c836a06233681665,64dc7eb1eb61e76232e2ecd3,,,,,,,,,,,,,,,,,,,,,,,,,,,,,,,,,,,,,,,,,,,,,,,,,,,,,,,,,,,,,,,,
,,,,,,,,2023-08-16_08h46.25.561,HF_wild_card,2022.2.4,Win32,7.5030012,5c8cfc3772503f0001e9c965,64d2fd46c836a06233681665,64dc7eb1eb61e76232e2ecd3,-0.012695313,-0.42578125,1,0,0,agree,,,,,,,,,,,,,,,,,,,,,,,,,,,,,,,,,,,,,,,,,,,,,,,,,,,,,,,,,,
,,,,,,,,2023-08-16_08h46.25.561,HF_wild_card,2022.2.4,Win32,7.5030012,5c8cfc3772503f0001e9c965,64d2fd46c836a06233681665,64dc7eb1eb61e76232e2ecd3,,,,,,,,,,,,,,,,,,,,,,,,,,,,,,,,,,,,,,,,,,,,,,,,,,,,,,,,,,,,,,,,
,,,,,,,,2023-08-16_08h46.25.561,HF_wild_card,2022.2.4,Win32,7.5030012,5c8cfc3772503f0001e9c965,64d2fd46c836a06233681665,64dc7eb1eb61e76232e2ecd3,,,,,,,decisionTrl,resources/DR.BMP,resources/DG.BMP,Door2,-0.405273438,-0.0625,1,0,0,3.4469,optionLeft,20,20,1,0,0,0,0,1,,,,,,,,,,,,,,,,,,,,,,,,,,,,,,,,,,,,,,,
,,,,,,,,2023-08-16_08h46.25.561,HF_wild_card,2022.2.4,Win32,7.5030012,5c8cfc3772503f0001e9c965,64d2fd46c836a06233681665,64dc7eb1eb61e76232e2ecd3,,,,,,,decisionTrl,resources/DBN.BMP,resources/DY.BMP,WildCard_NonEx,0.397460938,-0.091796875,1,0,0,1.6083,optionRight,45,65,1,1,0,1,0,1,,,,,,,,,,,,,,,,,,,,,,,,,,,,,,,,,,,,,,,
,,,,,,,,2023-08-16_08h46.25.561,HF_wild_card,2022.2.4,Win32,7.5030012,5c8cfc3772503f0001e9c965,64d2fd46c836a06233681665,64dc7eb1eb61e76232e2ecd3,,,,,,,sngl,resources/DY.BMP,resources/Empty.png,WildCard_NonEx,-0.305664063,-0.078125,1,0,0,1.6013,optionLeft,55,120,1,2,0,2,0,1,,,,,,,,,,,,,,,,,,,,,,,,,,,,,,,,,,,,,,,
,,,,,,,,2023-08-16_08h46.25.561,HF_wild_card,2022.2.4,Win32,7.5030012,5c8cfc3772503f0001e9c965,64d2fd46c836a06233681665,64dc7eb1eb61e76232e2ecd3,,,,,,,decisionTrl,resources/DP.BMP,resources/DBN.BMP,Door3,0.397460938,-0.043945313,1,0,0,2.8829,optionRight,70,190,1,3,0,3,0,1,,,,,,,,,,,,,,,,,,,,,,,,,,,,,,,,,,,,,,,
,,,,,,,,2023-08-16_08h46.25.561,HF_wild_card,2022.2.4,Win32,7.5030012,5c8cfc3772503f0001e9c965,64d2fd46c836a06233681665,64dc7eb1eb61e76232e2ecd3,,,,,,,decisionTrl,resources/DBN.BMP,resources/DP.BMP,Door4,0.342773438,-0.081054688,1,0,0,1.4264,optionRight,80,270,1,4,0,4,0,1,,,,,,,,,,,,,,,,,,,,,,,,,,,,,,,,,,,,,,,
,,,,,,,,2023-08-16_08h46.25.561,HF_wild_card,2022.2.4,Win32,7.5030012,5c8cfc3772503f0001e9c965,64d2fd46c836a06233681665,64dc7eb1eb61e76232e2ecd3,,,,,,,decisionTrl,resources/DG.BMP,resources/DR.BMP,Door2,0.400390625,-0.021484375,1,0,0,2.0027,optionRight,20,290,1,5,0,5,0,1,,,,,,,,,,,,,,,,,,,,,,,,,,,,,,,,,,,,,,,
,,,,,,,,2023-08-16_08h46.25.561,HF_wild_card,2022.2.4,Win32,7.5030012,5c8cfc3772503f0001e9c965,64d2fd46c836a06233681665,64dc7eb1eb61e76232e2ecd3,,,,,,,sngl,resources/DG.BMP,resources/Empty.png,Door1,-0.346679688,-0.024414063,1,0,0,1.2927,optionLeft,30,320,1,6,0,6,0,1,,,,,,,,,,,,,,,,,,,,,,,,,,,,,,,,,,,,,,,
,,,,,,,,2023-08-16_08h46.25.561,HF_wild_card,2022.2.4,Win32,7.5030012,5c8cfc3772503f0001e9c965,64d2fd46c836a06233681665,64dc7eb1eb61e76232e2ecd3,,,,,,,ctch,resources/DP.BMP,resources/DG.BMP,Door4,-0.297851563,-0.079101563,1,0,0,1.9772,optionLeft,60,380,1,7,0,7,0,1,,,,,,,,,,,,,,,,,,,,,,,,,,,,,,,,,,,,,,,
,,,,,,,,2023-08-16_08h46.25.561,HF_wild_card,2022.2.4,Win32,7.5030012,5c8cfc3772503f0001e9c965,64d2fd46c836a06233681665,64dc7eb1eb61e76232e2ecd3,,,,,,,decisionTrl,resources/DG.BMP,resources/DY.BMP,WildCard_NonEx,0.392578125,-0.033203125,1,0,0,1.9598,optionRight,55,435,1,8,0,8,0,1,,,,,,,,,,,,,,,,,,,,,,,,,,,,,,,,,,,,,,,
,,,,,,,,2023-08-16_08h46.25.561,HF_wild_card,2022.2.4,Win32,7.5030012,5c8cfc3772503f0001e9c965,64d2fd46c836a06233681665,64dc7eb1eb61e76232e2ecd3,,,,,,,decisionTrl,resources/DR.BMP,resources/DY.BMP,WildCard_NonEx,0.452148438,-0.022460938,1,0,0,1.2564,optionRight,45,480,1,9,0,9,0,1,,,,,,,,,,,,,,,,,,,,,,,,,,,,,,,,,,,,,,,
,,,,,,,,2023-08-16_08h46.25.561,HF_wild_card,2022.2.4,Win32,7.5030012,5c8cfc3772503f0001e9c965,64d2fd46c836a06233681665,64dc7eb1eb61e76232e2ecd3,,,,,,,decisionTrl,resources/DP.BMP,resources/DBN.BMP,Door3,0.3359375,-0.005859375,1,0,0,1.4259,optionRight,70,550,1,10,0,10,0,1,,,,,,,,,,,,,,,,,,,,,,,,,,,,,,,,,,,,,,,
,,,,,,,,2023-08-16_08h46.25.561,HF_wild_card,2022.2.4,Win32,7.5030012,5c8cfc3772503f0001e9c965,64d2fd46c836a06233681665,64dc7eb1eb61e76232e2ecd3,,,,,,,ctch,resources/DR.BMP,resources/DBN.BMP,Door2,-0.354492188,-0.049804688,1,0,0,1.427,optionLeft,20,570,1,11,0,11,0,1,,,,,,,,,,,,,,,,,,,,,,,,,,,,,,,,,,,,,,,
,,,,,,,,2023-08-16_08h46.25.561,HF_wild_card,2022.2.4,Win32,7.5030012,5c8cfc3772503f0001e9c965,64d2fd46c836a06233681665,64dc7eb1eb61e76232e2ecd3,,,,,,,decisionTrl,resources/DBN.BMP,resources/DP.BMP,Door4,0.350585938,-0.03125,1,0,0,1.2806,optionRight,80,650,1,12,0,12,0,1,,,,,,,,,,,,,,,,,,,,,,,,,,,,,,,,,,,,,,,
,,,,,,,,2023-08-16_08h46.25.561,HF_wild_card,2022.2.4,Win32,7.5030012,5c8cfc3772503f0001e9c965,64d2fd46c836a06233681665,64dc7eb1eb61e76232e2ecd3,,,,,,,sngl,resources/Empty.png,resources/DBN.BMP,Door3,0.336914063,-0.004882813,1,0,0,1.1118,optionRight,70,720,1,13,0,13,0,1,,,,,,,,,,,,,,,,,,,,,,,,,,,,,,,,,,,,,,,
,,,,,,,,2023-08-16_08h46.25.561,HF_wild_card,2022.2.4,Win32,7.5030012,5c8cfc3772503f0001e9c965,64d2fd46c836a06233681665,64dc7eb1eb61e76232e2ecd3,,,,,,,ctch,resources/DP.BMP,resources/DG.BMP,Door1,0.368164063,0.002929688,1,0,0,1.4918,optionRight,30,750,1,14,0,14,0,1,,,,,,,,,,,,,,,,,,,,,,,,,,,,,,,,,,,,,,,
,,,,,,,,2023-08-16_08h46.25.561,HF_wild_card,2022.2.4,Win32,7.5030012,5c8cfc3772503f0001e9c965,64d2fd46c836a06233681665,64dc7eb1eb61e76232e2ecd3,,,,,,,ctch,resources/DR.BMP,resources/DBN.BMP,Door3,0.395507813,-0.028320313,1,0,0,1.792,optionRight,70,820,1,15,0,15,0,1,,,,,,,,,,,,,,,,,,,,,,,,,,,,,,,,,,,,,,,
,,,,,,,,2023-08-16_08h46.25.561,HF_wild_card,2022.2.4,Win32,7.5030012,5c8cfc3772503f0001e9c965,64d2fd46c836a06233681665,64dc7eb1eb61e76232e2ecd3,,,,,,,ctch,resources/DG.BMP,resources/DP.BMP,Door1,-0.333984375,-0.059570313,1,0,0,1.7905,optionLeft,30,850,1,16,0,16,0,1,,,,,,,,,,,,,,,,,,,,,,,,,,,,,,,,,,,,,,,
,,,,,,,,2023-08-16_08h46.25.561,HF_wild_card,2022.2.4,Win32,7.5030012,5c8cfc3772503f0001e9c965,64d2fd46c836a06233681665,64dc7eb1eb61e76232e2ecd3,,,,,,,decisionTrl,resources/DP.BMP,resources/DBN.BMP,Door3,0.30859375,0.010742188,1,0,0,1.0814,optionRight,70,920,1,17,0,17,0,1,,,,,,,,,,,,,,,,,,,,,,,,,,,,,,,,,,,,,,,
,,,,,,,,2023-08-16_08h46.25.561,HF_wild_card,2022.2.4,Win32,7.5030012,5c8cfc3772503f0001e9c965,64d2fd46c836a06233681665,64dc7eb1eb61e76232e2ecd3,,,,,,,decisionTrl,resources/DY.BMP,resources/DBN.BMP,Door3,0.352539063,0.012695313,1,0,0,0.9495,optionRight,70,990,1,18,0,18,0,1,,,,,,,,,,,,,,,,,,,,,,,,,,,,,,,,,,,,,,,
,,,,,,,,2023-08-16_08h46.25.561,HF_wild_card,2022.2.4,Win32,7.5030012,5c8cfc3772503f0001e9c965,64d2fd46c836a06233681665,64dc7eb1eb61e76232e2ecd3,,,,,,,decisionTrl,resources/DG.BMP,resources/DR.BMP,Door1,-0.278320313,-0.006835938,1,0,0,1.621,optionLeft,30,1020,1,19,0,19,0,1,,,,,,,,,,,,,,,,,,,,,,,,,,,,,,,,,,,,,,,
,,,,,,,,2023-08-16_08h46.25.561,HF_wild_card,2022.2.4,Win32,7.5030012,5c8cfc3772503f0001e9c965,64d2fd46c836a06233681665,64dc7eb1eb61e76232e2ecd3,,,,,,,decisionTrl,resources/DR.BMP,resources/DG.BMP,Door2,-0.357421875,-0.006835938,1,0,0,1.4388,optionLeft,20,1040,1,20,0,20,0,1,,,,,,,,,,,,,,,,,,,,,,,,,,,,,,,,,,,,,,,
,,,,,,,,2023-08-16_08h46.25.561,HF_wild_card,2022.2.4,Win32,7.5030012,5c8cfc3772503f0001e9c965,64d2fd46c836a06233681665,64dc7eb1eb61e76232e2ecd3,,,,,,,ctch,resources/DBN.BMP,resources/DR.BMP,Door2,0.303710938,-0.001953125,1,0,0,1.2502,optionRight,40,1080,1,21,0,21,0,1,,,,,,,,,,,,,,,,,,,,,,,,,,,,,,,,,,,,,,,
,,,,,,,,2023-08-16_08h46.25.561,HF_wild_card,2022.2.4,Win32,7.5030012,5c8cfc3772503f0001e9c965,64d2fd46c836a06233681665,64dc7eb1eb61e76232e2ecd3,,,,,,,ctch,resources/DBN.BMP,resources/DR.BMP,Door3,-0.3125,0.004882813,1,0,0,0.8963,optionLeft,70,1150,1,22,0,22,0,1,,,,,,,,,,,,,,,,,,,,,,,,,,,,,,,,,,,,,,,
,,,,,,,,2023-08-16_08h46.25.561,HF_wild_card,2022.2.4,Win32,7.5030012,5c8cfc3772503f0001e9c965,64d2fd46c836a06233681665,64dc7eb1eb61e76232e2ecd3,,,,,,,sngl,resources/DY.BMP,resources/Empty.png,WildCard_NonEx,-0.310546875,-0.026367188,1,0,0,1.2649,optionLeft,45,1195,1,23,0,23,0,1,,,,,,,,,,,,,,,,,,,,,,,,,,,,,,,,,,,,,,,
,,,,,,,,2023-08-16_08h46.25.561,HF_wild_card,2022.2.4,Win32,7.5030012,5c8cfc3772503f0001e9c965,64d2fd46c836a06233681665,64dc7eb1eb61e76232e2ecd3,,,,,,,decisionTrl,resources/DG.BMP,resources/DR.BMP,Door2,0.341796875,-0.016601563,1,0,0,2.6839,optionRight,20,1215,1,24,0,24,0,1,,,,,,,,,,,,,,,,,,,,,,,,,,,,,,,,,,,,,,,
,,,,,,,,2023-08-16_08h46.25.561,HF_wild_card,2022.2.4,Win32,7.5030012,5c8cfc3772503f0001e9c965,64d2fd46c836a06233681665,64dc7eb1eb61e76232e2ecd3,,,,,,,decisionTrl,resources/DY.BMP,resources/DG.BMP,WildCard_NonEx,-0.379882813,-0.038085938,1,0,0,2.1468,optionLeft,45,1260,1,25,0,25,0,1,,,,,,,,,,,,,,,,,,,,,,,,,,,,,,,,,,,,,,,
,,,,,,,,2023-08-16_08h46.25.561,HF_wild_card,2022.2.4,Win32,7.5030012,5c8cfc3772503f0001e9c965,64d2fd46c836a06233681665,64dc7eb1eb61e76232e2ecd3,,,,,,,decisionTrl,resources/DBN.BMP,resources/DP.BMP,Door3,-0.334960938,-0.0078125,1,0,0,2.1583,optionLeft,70,1330,1,26,0,26,0,1,,,,,,,,,,,,,,,,,,,,,,,,,,,,,,,,,,,,,,,
,,,,,,,,2023-08-16_08h46.25.561,HF_wild_card,2022.2.4,Win32,7.5030012,5c8cfc3772503f0001e9c965,64d2fd46c836a06233681665,64dc7eb1eb61e76232e2ecd3,,,,,,,sngl,resources/Empty.png,resources/DY.BMP,WildCard_NonEx,0.38671875,-0.002929688,1,0,0,3.8051,optionRight,45,1375,1,27,0,27,0,1,,,,,,,,,,,,,,,,,,,,,,,,,,,,,,,,,,,,,,,
,,,,,,,,2023-08-16_08h46.25.561,HF_wild_card,2022.2.4,Win32,7.5030012,5c8cfc3772503f0001e9c965,64d2fd46c836a06233681665,64dc7eb1eb61e76232e2ecd3,,,,,,,decisionTrl,resources/DG.BMP,resources/DR.BMP,Door1,-0.290039063,-0.026367188,1,0,0,2.5032,optionLeft,30,1405,1,28,0,28,0,1,,,,,,,,,,,,,,,,,,,,,,,,,,,,,,,,,,,,,,,
,,,,,,,,2023-08-16_08h46.25.561,HF_wild_card,2022.2.4,Win32,7.5030012,5c8cfc3772503f0001e9c965,64d2fd46c836a06233681665,64dc7eb1eb61e76232e2ecd3,,,,,,,sngl,resources/DBN.BMP,resources/Empty.png,Door3,-0.37109375,-0.012695313,1,0,0,1.592,optionLeft,70,1475,1,29,0,29,0,1,,,,,,,,,,,,,,,,,,,,,,,,,,,,,,,,,,,,,,,
,,,,,,,,2023-08-16_08h46.25.561,HF_wild_card,2022.2.4,Win32,7.5030012,5c8cfc3772503f0001e9c965,64d2fd46c836a06233681665,64dc7eb1eb61e76232e2ecd3,,,,,,,sngl,resources/DP.BMP,resources/Empty.png,Door4,-0.408203125,-0.065429688,1,0,0,1.919,optionLeft,80,1555,1,30,0,30,0,1,,,,,,,,,,,,,,,,,,,,,,,,,,,,,,,,,,,,,,,
,,,,,,,,2023-08-16_08h46.25.561,HF_wild_card,2022.2.4,Win32,7.5030012,5c8cfc3772503f0001e9c965,64d2fd46c836a06233681665,64dc7eb1eb61e76232e2ecd3,,,,,,,sngl,resources/DR.BMP,resources/Empty.png,Door2,-0.342773438,-0.05078125,1,0,0,1.1117,optionLeft,40,1595,1,31,0,31,0,1,,,,,,,,,,,,,,,,,,,,,,,,,,,,,,,,,,,,,,,
,,,,,,,,2023-08-16_08h46.25.561,HF_wild_card,2022.2.4,Win32,7.5030012,5c8cfc3772503f0001e9c965,64d2fd46c836a06233681665,64dc7eb1eb61e76232e2ecd3,,,,,,,decisionTrl,resources/DR.BMP,resources/DG.BMP,Door2,-0.446289063,-0.025390625,1,0,0,1.2798,optionLeft,40,1635,1,32,0,32,0,1,,,,,,,,,,,,,,,,,,,,,,,,,,,,,,,,,,,,,,,
,,,,,,,,2023-08-16_08h46.25.561,HF_wild_card,2022.2.4,Win32,7.5030012,5c8cfc3772503f0001e9c965,64d2fd46c836a06233681665,64dc7eb1eb61e76232e2ecd3,,,,,,,decisionTrl,resources/DP.BMP,resources/DY.BMP,WildCard_NonEx,0.34765625,-0.005859375,1,0,0,1.8115,optionRight,55,1690,1,33,0,33,0,1,,,,,,,,,,,,,,,,,,,,,,,,,,,,,,,,,,,,,,,
,,,,,,,,2023-08-16_08h46.25.561,HF_wild_card,2022.2.4,Win32,7.5030012,5c8cfc3772503f0001e9c965,64d2fd46c836a06233681665,64dc7eb1eb61e76232e2ecd3,,,,,,,decisionTrl,resources/DY.BMP,resources/DP.BMP,WildCard_NonEx,-0.2734375,-0.02734375,1,0,0,1.1314,optionLeft,55,1745,1,34,0,34,0,1,,,,,,,,,,,,,,,,,,,,,,,,,,,,,,,,,,,,,,,
,,,,,,,,2023-08-16_08h46.25.561,HF_wild_card,2022.2.4,Win32,7.5030012,5c8cfc3772503f0001e9c965,64d2fd46c836a06233681665,64dc7eb1eb61e76232e2ecd3,,,,,,,ctch,resources/DG.BMP,resources/DP.BMP,Door4,0.376953125,-0.043945313,1,0,0,1.4268,optionRight,80,1825,1,35,0,35,0,1,,,,,,,,,,,,,,,,,,,,,,,,,,,,,,,,,,,,,,,
,,,,,,,,2023-08-16_08h46.25.561,HF_wild_card,2022.2.4,Win32,7.5030012,5c8cfc3772503f0001e9c965,64d2fd46c836a06233681665,64dc7eb1eb61e76232e2ecd3,,,,,,,sngl,resources/Empty.png,resources/DG.BMP,Door1,0.309570313,-0.010742188,1,0,0,1.1301,optionRight,30,1855,1,36,0,36,0,1,,,,,,,,,,,,,,,,,,,,,,,,,,,,,,,,,,,,,,,
,,,,,,,,2023-08-16_08h46.25.561,HF_wild_card,2022.2.4,Win32,7.5030012,5c8cfc3772503f0001e9c965,64d2fd46c836a06233681665,64dc7eb1eb61e76232e2ecd3,,,,,,,decisionTrl,resources/DR.BMP,resources/DG.BMP,Door1,0.331054688,-0.008789063,1,0,0,1.4313,optionRight,30,1885,1,37,0,37,0,1,,,,,,,,,,,,,,,,,,,,,,,,,,,,,,,,,,,,,,,
,,,,,,,,2023-08-16_08h46.25.561,HF_wild_card,2022.2.4,Win32,7.5030012,5c8cfc3772503f0001e9c965,64d2fd46c836a06233681665,64dc7eb1eb61e76232e2ecd3,,,,,,,decisionTrl,resources/DY.BMP,resources/DR.BMP,WildCard_NonEx,-0.342773438,-0.049804688,1,0,0,1.2485,optionLeft,45,1930,1,38,0,38,0,1,,,,,,,,,,,,,,,,,,,,,,,,,,,,,,,,,,,,,,,
,,,,,,,,2023-08-16_08h46.25.561,HF_wild_card,2022.2.4,Win32,7.5030012,5c8cfc3772503f0001e9c965,64d2fd46c836a06233681665,64dc7eb1eb61e76232e2ecd3,,,,,,,sngl,resources/Empty.png,resources/DR.BMP,Door2,0.4296875,-0.021484375,1,0,0,1.1131,optionRight,20,1950,1,39,0,39,0,1,,,,,,,,,,,,,,,,,,,,,,,,,,,,,,,,,,,,,,,
,,,,,,,,2023-08-16_08h46.25.561,HF_wild_card,2022.2.4,Win32,7.5030012,5c8cfc3772503f0001e9c965,64d2fd46c836a06233681665,64dc7eb1eb61e76232e2ecd3,,,,,,,sngl,resources/Empty.png,resources/DP.BMP,Door4,0.336914063,-0.018554688,1,0,0,1.5852,optionRight,60,2010,1,40,0,40,0,1,,,,,,,,,,,,,,,,,,,,,,,,,,,,,,,,,,,,,,,
,,,,,,,,2023-08-16_08h46.25.561,HF_wild_card,2022.2.4,Win32,7.5030012,5c8cfc3772503f0001e9c965,64d2fd46c836a06233681665,64dc7eb1eb61e76232e2ecd3,,,,,,,decisionTrl,resources/DP.BMP,resources/DBN.BMP,Door4,-0.349609375,-0.047851563,1,0,0,0.8949,optionLeft,60,2070,1,41,0,41,0,1,,,,,,,,,,,,,,,,,,,,,,,,,,,,,,,,,,,,,,,
,,,,,,,,2023-08-16_08h46.25.561,HF_wild_card,2022.2.4,Win32,7.5030012,5c8cfc3772503f0001e9c965,64d2fd46c836a06233681665,64dc7eb1eb61e76232e2ecd3,,,,,,,decisionTrl,resources/DBN.BMP,resources/DP.BMP,Door3,-0.338867188,-0.026367188,1,0,0,1.0691,optionLeft,70,2140,1,42,0,42,0,1,,,,,,,,,,,,,,,,,,,,,,,,,,,,,,,,,,,,,,,
,,,,,,,,2023-08-16_08h46.25.561,HF_wild_card,2022.2.4,Win32,7.5030012,5c8cfc3772503f0001e9c965,64d2fd46c836a06233681665,64dc7eb1eb61e76232e2ecd3,,,,,,,sngl,resources/Empty.png,resources/DY.BMP,WildCard_NonEx,0.384765625,-0.010742188,1,0,0,1.2624,optionRight,55,2195,1,43,0,43,0,1,,,,,,,,,,,,,,,,,,,,,,,,,,,,,,,,,,,,,,,
,,,,,,,,2023-08-16_08h46.25.561,HF_wild_card,2022.2.4,Win32,7.5030012,5c8cfc3772503f0001e9c965,64d2fd46c836a06233681665,64dc7eb1eb61e76232e2ecd3,,,,,,,,,,,,,,,,,,,,,,,,,,0,0,0,0,1,,,,,,,,,,,,,,,,,,,,,,,,,,,,,,,,,,
,,,,,,,,2023-08-16_08h46.25.561,HF_wild_card,2022.2.4,Win32,7.5030012,5c8cfc3772503f0001e9c965,64d2fd46c836a06233681665,64dc7eb1eb61e76232e2ecd3,,,,,,,sngl,resources/DG.BMP,resources/Empty.png,Door1,-0.379882813,-0.060546875,1,0,0,1.9204,optionLeft,30,2225,2,0,0,0,0,1,,,,,,,,,,,,,,,,,,,,,,,,,,,,,,,,,,,,,,,
,,,,,,,,2023-08-16_08h46.25.561,HF_wild_card,2022.2.4,Win32,7.5030012,5c8cfc3772503f0001e9c965,64d2fd46c836a06233681665,64dc7eb1eb61e76232e2ecd3,,,,,,,sngl,resources/Empty.png,resources/DP.BMP,Door4,0.40234375,-0.033203125,1,0,0,1.2702,optionRight,80,2305,2,1,0,1,0,1,,,,,,,,,,,,,,,,,,,,,,,,,,,,,,,,,,,,,,,
,,,,,,,,2023-08-16_08h46.25.561,HF_wild_card,2022.2.4,Win32,7.5030012,5c8cfc3772503f0001e9c965,64d2fd46c836a06233681665,64dc7eb1eb61e76232e2ecd3,,,,,,,decisionTrl,resources/DG.BMP,resources/DR.BMP,Door1,-0.340820313,-0.025390625,1,0,0,1.6095,optionLeft,30,2335,2,2,0,2,0,1,,,,,,,,,,,,,,,,,,,,,,,,,,,,,,,,,,,,,,,
,,,,,,,,2023-08-16_08h46.25.561,HF_wild_card,2022.2.4,Win32,7.5030012,5c8cfc3772503f0001e9c965,64d2fd46c836a06233681665,64dc7eb1eb61e76232e2ecd3,,,,,,,decisionTrl,resources/DG.BMP,resources/DR.BMP,Door1,-0.325195313,-0.024414063,1,0,0,1.7873,optionLeft,30,2365,2,3,0,3,0,1,,,,,,,,,,,,,,,,,,,,,,,,,,,,,,,,,,,,,,,
,,,,,,,,2023-08-16_08h46.25.561,HF_wild_card,2022.2.4,Win32,7.5030012,5c8cfc3772503f0001e9c965,64d2fd46c836a06233681665,64dc7eb1eb61e76232e2ecd3,,,,,,,sngl,resources/DBN.BMP,resources/Empty.png,Door3,-0.377929688,0.01171875,1,0,0,0.9586,optionLeft,70,2435,2,4,0,4,0,1,,,,,,,,,,,,,,,,,,,,,,,,,,,,,,,,,,,,,,,
,,,,,,,,2023-08-16_08h46.25.561,HF_wild_card,2022.2.4,Win32,7.5030012,5c8cfc3772503f0001e9c965,64d2fd46c836a06233681665,64dc7eb1eb61e76232e2ecd3,,,,,,,decisionTrl,resources/DG.BMP,resources/DY.BMP,WildCard_NonEx,0.391601563,-0.0234375,1,0,0,1.8128,optionRight,45,2480,2,5,0,5,0,1,,,,,,,,,,,,,,,,,,,,,,,,,,,,,,,,,,,,,,,
,,,,,,,,2023-08-16_08h46.25.561,HF_wild_card,2022.2.4,Win32,7.5030012,5c8cfc3772503f0001e9c965,64d2fd46c836a06233681665,64dc7eb1eb61e76232e2ecd3,,,,,,,decisionTrl,resources/DG.BMP,resources/DR.BMP,Door1,-0.384765625,-0.0078125,1,0,0,1.4296,optionLeft,30,2510,2,6,0,6,0,1,,,,,,,,,,,,,,,,,,,,,,,,,,,,,,,,,,,,,,,
,,,,,,,,2023-08-16_08h46.25.561,HF_wild_card,2022.2.4,Win32,7.5030012,5c8cfc3772503f0001e9c965,64d2fd46c836a06233681665,64dc7eb1eb61e76232e2ecd3,,,,,,,decisionTrl,resources/DR.BMP,resources/DG.BMP,Door2,-0.40625,-0.03125,1,0,0,1.1083,optionLeft,20,2530,2,7,0,7,0,1,,,,,,,,,,,,,,,,,,,,,,,,,,,,,,,,,,,,,,,
,,,,,,,,2023-08-16_08h46.25.561,HF_wild_card,2022.2.4,Win32,7.5030012,5c8cfc3772503f0001e9c965,64d2fd46c836a06233681665,64dc7eb1eb61e76232e2ecd3,,,,,,,sngl,resources/Empty.png,resources/DY.BMP,WildCard_NonEx,0.434570313,-0.017578125,1,0,0,1.0491,optionRight,55,2585,2,8,0,8,0,1,,,,,,,,,,,,,,,,,,,,,,,,,,,,,,,,,,,,,,,
,,,,,,,,2023-08-16_08h46.25.561,HF_wild_card,2022.2.4,Win32,7.5030012,5c8cfc3772503f0001e9c965,64d2fd46c836a06233681665,64dc7eb1eb61e76232e2ecd3,,,,,,,ctch,resources/DG.BMP,resources/DP.BMP,Door4,0.409179688,-0.0546875,1,0,0,1.4384,optionRight,80,2665,2,9,0,9,0,1,,,,,,,,,,,,,,,,,,,,,,,,,,,,,,,,,,,,,,,
,,,,,,,,2023-08-16_08h46.25.561,HF_wild_card,2022.2.4,Win32,7.5030012,5c8cfc3772503f0001e9c965,64d2fd46c836a06233681665,64dc7eb1eb61e76232e2ecd3,,,,,,,decisionTrl,resources/DG.BMP,resources/DR.BMP,Door1,-0.413085938,-0.033203125,1,0,0,2.0109,optionLeft,30,2695,2,10,0,10,0,1,,,,,,,,,,,,,,,,,,,,,,,,,,,,,,,,,,,,,,,
,,,,,,,,2023-08-16_08h46.25.561,HF_wild_card,2022.2.4,Win32,7.5030012,5c8cfc3772503f0001e9c965,64d2fd46c836a06233681665,64dc7eb1eb61e76232e2ecd3,,,,,,,sngl,resources/DY.BMP,resources/Empty.png,WildCard_NonEx,-0.409179688,-0.06640625,1,0,0,1.1069,optionLeft,55,2750,2,11,0,11,0,1,,,,,,,,,,,,,,,,,,,,,,,,,,,,,,,,,,,,,,,
,,,,,,,,2023-08-16_08h46.25.561,HF_wild_card,2022.2.4,Win32,7.5030012,5c8cfc3772503f0001e9c965,64d2fd46c836a06233681665,64dc7eb1eb61e76232e2ecd3,,,,,,,sngl,resources/DR.BMP,resources/Empty.png,Door2,-0.40234375,-0.026367188,1,0,0,1.1539,optionLeft,20,2770,2,12,0,12,0,1,,,,,,,,,,,,,,,,,,,,,,,,,,,,,,,,,,,,,,,
,,,,,,,,2023-08-16_08h46.25.561,HF_wild_card,2022.2.4,Win32,7.5030012,5c8cfc3772503f0001e9c965,64d2fd46c836a06233681665,64dc7eb1eb61e76232e2ecd3,,,,,,,decisionTrl,resources/DY.BMP,resources/DG.BMP,WildCard_NonEx,-0.388671875,-0.032226563,1,0,0,1.8016,optionLeft,55,2825,2,13,0,13,0,1,,,,,,,,,,,,,,,,,,,,,,,,,,,,,,,,,,,,,,,
,,,,,,,,2023-08-16_08h46.25.561,HF_wild_card,2022.2.4,Win32,7.5030012,5c8cfc3772503f0001e9c965,64d2fd46c836a06233681665,64dc7eb1eb61e76232e2ecd3,,,,,,,ctch,resources/DR.BMP,resources/DBN.BMP,Door3,0.37890625,-0.0078125,1,0,0,1.2564,optionRight,70,2895,2,14,0,14,0,1,,,,,,,,,,,,,,,,,,,,,,,,,,,,,,,,,,,,,,,
,,,,,,,,2023-08-16_08h46.25.561,HF_wild_card,2022.2.4,Win32,7.5030012,5c8cfc3772503f0001e9c965,64d2fd46c836a06233681665,64dc7eb1eb61e76232e2ecd3,,,,,,,decisionTrl,resources/DR.BMP,resources/DY.BMP,WildCard_NonEx,0.39453125,-0.044921875,1,0,0,2.6995,optionRight,45,2940,2,15,0,15,0,1,,,,,,,,,,,,,,,,,,,,,,,,,,,,,,,,,,,,,,,
,,,,,,,,2023-08-16_08h46.25.561,HF_wild_card,2022.2.4,Win32,7.5030012,5c8cfc3772503f0001e9c965,64d2fd46c836a06233681665,64dc7eb1eb61e76232e2ecd3,,,,,,,decisionTrl,resources/DR.BMP,resources/DG.BMP,Door1,0.423828125,-0.051757813,1,0,0,1.9626,optionRight,30,2970,2,16,0,16,0,1,,,,,,,,,,,,,,,,,,,,,,,,,,,,,,,,,,,,,,,
,,,,,,,,2023-08-16_08h46.25.561,HF_wild_card,2022.2.4,Win32,7.5030012,5c8cfc3772503f0001e9c965,64d2fd46c836a06233681665,64dc7eb1eb61e76232e2ecd3,,,,,,,ctch,resources/DP.BMP,resources/DG.BMP,Door4,-0.393554688,-0.0234375,1,0,0,1.9924,optionLeft,60,3030,2,17,0,17,0,1,,,,,,,,,,,,,,,,,,,,,,,,,,,,,,,,,,,,,,,
,,,,,,,,2023-08-16_08h46.25.561,HF_wild_card,2022.2.4,Win32,7.5030012,5c8cfc3772503f0001e9c965,64d2fd46c836a06233681665,64dc7eb1eb61e76232e2ecd3,,,,,,,ctch,resources/DBN.BMP,resources/DR.BMP,Door3,-0.427734375,-0.016601563,1,0,0,1.2535,optionLeft,70,3100,2,18,0,18,0,1,,,,,,,,,,,,,,,,,,,,,,,,,,,,,,,,,,,,,,,
,,,,,,,,2023-08-16_08h46.25.561,HF_wild_card,2022.2.4,Win32,7.5030012,5c8cfc3772503f0001e9c965,64d2fd46c836a06233681665,64dc7eb1eb61e76232e2ecd3,,,,,,,decisionTrl,resources/DP.BMP,resources/DBN.BMP,Door3,0.412109375,-0.00390625,1,0,0,1.0752,optionRight,70,3170,2,19,0,19,0,1,,,,,,,,,,,,,,,,,,,,,,,,,,,,,,,,,,,,,,,
,,,,,,,,2023-08-16_08h46.25.561,HF_wild_card,2022.2.4,Win32,7.5030012,5c8cfc3772503f0001e9c965,64d2fd46c836a06233681665,64dc7eb1eb61e76232e2ecd3,,,,,,,sngl,resources/Empty.png,resources/DY.BMP,WildCard_NonEx,0.461914063,-0.022460938,1,0,0,1.1133,optionRight,45,3215,2,20,0,20,0,1,,,,,,,,,,,,,,,,,,,,,,,,,,,,,,,,,,,,,,,
,,,,,,,,2023-08-16_08h46.25.561,HF_wild_card,2022.2.4,Win32,7.5030012,5c8cfc3772503f0001e9c965,64d2fd46c836a06233681665,64dc7eb1eb61e76232e2ecd3,,,,,,,ctch,resources/DP.BMP,resources/DG.BMP,Door4,-0.399414063,-0.03125,1,0,0,2.1606,optionLeft,80,3295,2,21,0,21,0,1,,,,,,,,,,,,,,,,,,,,,,,,,,,,,,,,,,,,,,,
,,,,,,,,2023-08-16_08h46.25.561,HF_wild_card,2022.2.4,Win32,7.5030012,5c8cfc3772503f0001e9c965,64d2fd46c836a06233681665,64dc7eb1eb61e76232e2ecd3,,,,,,,sngl,resources/DY.BMP,resources/Empty.png,WildCard_NonEx,-0.396484375,-0.016601563,1,0,0,1.5847,optionLeft,45,3340,2,22,0,22,0,1,,,,,,,,,,,,,,,,,,,,,,,,,,,,,,,,,,,,,,,
,,,,,,,,2023-08-16_08h46.25.561,HF_wild_card,2022.2.4,Win32,7.5030012,5c8cfc3772503f0001e9c965,64d2fd46c836a06233681665,64dc7eb1eb61e76232e2ecd3,,,,,,,decisionTrl,resources/DBN.BMP,resources/DP.BMP,Door3,-0.426757813,-0.000976563,1,0,0,1.2621,optionLeft,70,3410,2,23,0,23,0,1,,,,,,,,,,,,,,,,,,,,,,,,,,,,,,,,,,,,,,,
,,,,,,,,2023-08-16_08h46.25.561,HF_wild_card,2022.2.4,Win32,7.5030012,5c8cfc3772503f0001e9c965,64d2fd46c836a06233681665,64dc7eb1eb61e76232e2ecd3,,,,,,,decisionTrl,resources/DP.BMP,resources/DBN.BMP,Door3,0.323242188,-0.008789063,1,0,0,1.2563,optionRight,70,3480,2,24,0,24,0,1,,,,,,,,,,,,,,,,,,,,,,,,,,,,,,,,,,,,,,,
,,,,,,,,2023-08-16_08h46.25.561,HF_wild_card,2022.2.4,Win32,7.5030012,5c8cfc3772503f0001e9c965,64d2fd46c836a06233681665,64dc7eb1eb61e76232e2ecd3,,,,,,,sngl,resources/Empty.png,resources/DG.BMP,Door1,0.427734375,-0.014648438,1,0,0,1.4235,optionRight,30,3510,2,25,0,25,0,1,,,,,,,,,,,,,,,,,,,,,,,,,,,,,,,,,,,,,,,
,,,,,,,,2023-08-16_08h46.25.561,HF_wild_card,2022.2.4,Win32,7.5030012,5c8cfc3772503f0001e9c965,64d2fd46c836a06233681665,64dc7eb1eb61e76232e2ecd3,,,,,,,decisionTrl,resources/DR.BMP,resources/DG.BMP,Door1,0.44140625,0.013671875,1,0,0,1.2666,optionRight,30,3540,2,26,0,26,0,1,,,,,,,,,,,,,,,,,,,,,,,,,,,,,,,,,,,,,,,
,,,,,,,,2023-08-16_08h46.25.561,HF_wild_card,2022.2.4,Win32,7.5030012,5c8cfc3772503f0001e9c965,64d2fd46c836a06233681665,64dc7eb1eb61e76232e2ecd3,,,,,,,decisionTrl,resources/DP.BMP,resources/DBN.BMP,Door3,0.364257813,0.013671875,1,0,0,1.0764,optionRight,70,3610,2,27,0,27,0,1,,,,,,,,,,,,,,,,,,,,,,,,,,,,,,,,,,,,,,,
,,,,,,,,2023-08-16_08h46.25.561,HF_wild_card,2022.2.4,Win32,7.5030012,5c8cfc3772503f0001e9c965,64d2fd46c836a06233681665,64dc7eb1eb61e76232e2ecd3,,,,,,,decisionTrl,resources/DY.BMP,resources/DP.BMP,WildCard_NonEx,-0.291992188,-0.069335938,1,0,0,2.5282,optionLeft,45,3655,2,28,0,28,0,1,,,,,,,,,,,,,,,,,,,,,,,,,,,,,,,,,,,,,,,
,,,,,,,,2023-08-16_08h46.25.561,HF_wild_card,2022.2.4,Win32,7.5030012,5c8cfc3772503f0001e9c965,64d2fd46c836a06233681665,64dc7eb1eb61e76232e2ecd3,,,,,,,sngl,resources/Empty.png,resources/DBN.BMP,Door3,0.3359375,-0.005859375,1,0,0,1.1096,optionRight,70,3725,2,29,0,29,0,1,,,,,,,,,,,,,,,,,,,,,,,,,,,,,,,,,,,,,,,
,,,,,,,,2023-08-16_08h46.25.561,HF_wild_card,2022.2.4,Win32,7.5030012,5c8cfc3772503f0001e9c965,64d2fd46c836a06233681665,64dc7eb1eb61e76232e2ecd3,,,,,,,decisionTrl,resources/DBN.BMP,resources/DP.BMP,Door3,-0.416992188,-0.024414063,1,0,0,1.2493,optionLeft,70,3795,2,30,0,30,0,1,,,,,,,,,,,,,,,,,,,,,,,,,,,,,,,,,,,,,,,
,,,,,,,,2023-08-16_08h46.25.561,HF_wild_card,2022.2.4,Win32,7.5030012,5c8cfc3772503f0001e9c965,64d2fd46c836a06233681665,64dc7eb1eb61e76232e2ecd3,,,,,,,decisionTrl,resources/DP.BMP,resources/DBN.BMP,Door3,0.346679688,-0.002929688,1,0,0,1.429,optionRight,70,3865,2,31,0,31,0,1,,,,,,,,,,,,,,,,,,,,,,,,,,,,,,,,,,,,,,,
,,,,,,,,2023-08-16_08h46.25.561,HF_wild_card,2022.2.4,Win32,7.5030012,5c8cfc3772503f0001e9c965,64d2fd46c836a06233681665,64dc7eb1eb61e76232e2ecd3,,,,,,,ctch,resources/DBN.BMP,resources/DR.BMP,Door3,-0.34375,0.001953125,1,0,0,1.7875,optionLeft,70,3935,2,32,0,32,0,1,,,,,,,,,,,,,,,,,,,,,,,,,,,,,,,,,,,,,,,
,,,,,,,,2023-08-16_08h46.25.561,HF_wild_card,2022.2.4,Win32,7.5030012,5c8cfc3772503f0001e9c965,64d2fd46c836a06233681665,64dc7eb1eb61e76232e2ecd3,,,,,,,decisionTrl,resources/DBN.BMP,resources/DP.BMP,Door3,-0.4140625,-0.005859375,1,0,0,3.0392,optionLeft,70,4005,2,33,0,33,0,1,,,,,,,,,,,,,,,,,,,,,,,,,,,,,,,,,,,,,,,
,,,,,,,,2023-08-16_08h46.25.561,HF_wild_card,2022.2.4,Win32,7.5030012,5c8cfc3772503f0001e9c965,64d2fd46c836a06233681665,64dc7eb1eb61e76232e2ecd3,,,,,,,decisionTrl,resources/DY.BMP,resources/DBN.BMP,Door3,0.3671875,-0.026367188,1,0,0,1.6085,optionRight,70,4075,2,34,0,34,0,1,,,,,,,,,,,,,,,,,,,,,,,,,,,,,,,,,,,,,,,
,,,,,,,,2023-08-16_08h46.25.561,HF_wild_card,2022.2.4,Win32,7.5030012,5c8cfc3772503f0001e9c965,64d2fd46c836a06233681665,64dc7eb1eb61e76232e2ecd3,,,,,,,ctch,resources/DG.BMP,resources/DP.BMP,Door4,0.404296875,-0.043945313,1,0,0,2.863,optionRight,80,4155,2,35,0,35,0,1,,,,,,,,,,,,,,,,,,,,,,,,,,,,,,,,,,,,,,,
,,,,,,,,2023-08-16_08h46.25.561,HF_wild_card,2022.2.4,Win32,7.5030012,5c8cfc3772503f0001e9c965,64d2fd46c836a06233681665,64dc7eb1eb61e76232e2ecd3,,,,,,,sngl,resources/DP.BMP,resources/Empty.png,Door4,-0.403320313,-0.021484375,1,0,0,0.9554,optionLeft,60,4215,2,36,0,36,0,1,,,,,,,,,,,,,,,,,,,,,,,,,,,,,,,,,,,,,,,
,,,,,,,,2023-08-16_08h46.25.561,HF_wild_card,2022.2.4,Win32,7.5030012,5c8cfc3772503f0001e9c965,64d2fd46c836a06233681665,64dc7eb1eb61e76232e2ecd3,,,,,,,ctch,resources/DR.BMP,resources/DBN.BMP,Door3,0.368164063,-0.016601563,1,0,0,1.0671,optionRight,70,4285,2,37,0,37,0,1,,,,,,,,,,,,,,,,,,,,,,,,,,,,,,,,,,,,,,,
,,,,,,,,2023-08-16_08h46.25.561,HF_wild_card,2022.2.4,Win32,7.5030012,5c8cfc3772503f0001e9c965,64d2fd46c836a06233681665,64dc7eb1eb61e76232e2ecd3,,,,,,,decisionTrl,resources/DBN.BMP,resources/DY.BMP,Door3,-0.341796875,-0.016601563,1,0,0,1.0695,optionLeft,70,4355,2,38,0,38,0,1,,,,,,,,,,,,,,,,,,,,,,,,,,,,,,,,,,,,,,,
,,,,,,,,2023-08-16_08h46.25.561,HF_wild_card,2022.2.4,Win32,7.5030012,5c8cfc3772503f0001e9c965,64d2fd46c836a06233681665,64dc7eb1eb61e76232e2ecd3,,,,,,,decisionTrl,resources/DR.BMP,resources/DG.BMP,Door1,0.377929688,-0.012695313,1,0,0,1.6094,optionRight,30,4385,2,39,0,39,0,1,,,,,,,,,,,,,,,,,,,,,,,,,,,,,,,,,,,,,,,
,,,,,,,,2023-08-16_08h46.25.561,HF_wild_card,2022.2.4,Win32,7.5030012,5c8cfc3772503f0001e9c965,64d2fd46c836a06233681665,64dc7eb1eb61e76232e2ecd3,,,,,,,decisionTrl,resources/DP.BMP,resources/DY.BMP,WildCard_NonEx,0.356445313,-0.030273438,1,0,0,1.4679,optionRight,55,4440,2,40,0,40,0,1,,,,,,,,,,,,,,,,,,,,,,,,,,,,,,,,,,,,,,,
,,,,,,,,2023-08-16_08h46.25.561,HF_wild_card,2022.2.4,Win32,7.5030012,5c8cfc3772503f0001e9c965,64d2fd46c836a06233681665,64dc7eb1eb61e76232e2ecd3,,,,,,,sngl,resources/Empty.png,resources/DR.BMP,Door2,0.313476563,-0.03515625,1,0,0,0.9472,optionRight,40,4480,2,41,0,41,0,1,,,,,,,,,,,,,,,,,,,,,,,,,,,,,,,,,,,,,,,
,,,,,,,,2023-08-16_08h46.25.561,HF_wild_card,2022.2.4,Win32,7.5030012,5c8cfc3772503f0001e9c965,64d2fd46c836a06233681665,64dc7eb1eb61e76232e2ecd3,,,,,,,decisionTrl,resources/DY.BMP,resources/DR.BMP,WildCard_NonEx,-0.384765625,-0.01953125,1,0,0,1.6101,optionLeft,45,4525,2,42,0,42,0,1,,,,,,,,,,,,,,,,,,,,,,,,,,,,,,,,,,,,,,,
,,,,,,,,2023-08-16_08h46.25.561,HF_wild_card,2022.2.4,Win32,7.5030012,5c8cfc3772503f0001e9c965,64d2fd46c836a06233681665,64dc7eb1eb61e76232e2ecd3,,,,,,,decisionTrl,resources/DBN.BMP,resources/DP.BMP,Door3,-0.491210938,-0.022460938,1,0,0,1.0752,optionLeft,70,4595,2,43,0,43,0,1,,,,,,,,,,,,,,,,,,,,,,,,,,,,,,,,,,,,,,,
,,,,,,,,2023-08-16_08h46.25.561,HF_wild_card,2022.2.4,Win32,7.5030012,5c8cfc3772503f0001e9c965,64d2fd46c836a06233681665,64dc7eb1eb61e76232e2ecd3,,,,,,,,,,,,,,,,,,,,,,,,,,1,0,1,0,1,,,,,,,,,,,,,,,,,,,,,,,,,,,,,,,,,,
,,,,,,,,2023-08-16_08h46.25.561,HF_wild_card,2022.2.4,Win32,7.5030012,5c8cfc3772503f0001e9c965,64d2fd46c836a06233681665,64dc7eb1eb61e76232e2ecd3,,,,,,,sngl,resources/DP.BMP,resources/Empty.png,Door4,-0.3984375,-0.06640625,1,0,0,3.1918,optionLeft,80,4675,3,0,0,0,0,1,,,,,,,,,,,,,,,,,,,,,,,,,,,,,,,,,,,,,,,
,,,,,,,,2023-08-16_08h46.25.561,HF_wild_card,2022.2.4,Win32,7.5030012,5c8cfc3772503f0001e9c965,64d2fd46c836a06233681665,64dc7eb1eb61e76232e2ecd3,,,,,,,decisionTrl,resources/DBN.BMP,resources/DP.BMP,Door3,-0.368164063,-0.032226563,1,0,0,1.0982,optionLeft,70,4745,3,1,0,1,0,1,,,,,,,,,,,,,,,,,,,,,,,,,,,,,,,,,,,,,,,
,,,,,,,,2023-08-16_08h46.25.561,HF_wild_card,2022.2.4,Win32,7.5030012,5c8cfc3772503f0001e9c965,64d2fd46c836a06233681665,64dc7eb1eb61e76232e2ecd3,,,,,,,sngl,resources/Empty.png,resources/DY.BMP,WildCard_NonEx,0.28515625,-0.026367188,1,0,0,1.2927,optionRight,55,4800,3,2,0,2,0,1,,,,,,,,,,,,,,,,,,,,,,,,,,,,,,,,,,,,,,,
,,,,,,,,2023-08-16_08h46.25.561,HF_wild_card,2022.2.4,Win32,7.5030012,5c8cfc3772503f0001e9c965,64d2fd46c836a06233681665,64dc7eb1eb61e76232e2ecd3,,,,,,,decisionTrl,resources/DBN.BMP,resources/DY.BMP,Door3,-0.4296875,-0.006835938,1,0,0,1.2819,optionLeft,70,4870,3,3,0,3,0,1,,,,,,,,,,,,,,,,,,,,,,,,,,,,,,,,,,,,,,,
,,,,,,,,2023-08-16_08h46.25.561,HF_wild_card,2022.2.4,Win32,7.5030012,5c8cfc3772503f0001e9c965,64d2fd46c836a06233681665,64dc7eb1eb61e76232e2ecd3,,,,,,,decisionTrl,resources/DP.BMP,resources/DBN.BMP,Door3,0.408203125,-0.026367188,1,0,0,0.8927,optionRight,70,4940,3,4,0,4,0,1,,,,,,,,,,,,,,,,,,,,,,,,,,,,,,,,,,,,,,,
,,,,,,,,2023-08-16_08h46.25.561,HF_wild_card,2022.2.4,Win32,7.5030012,5c8cfc3772503f0001e9c965,64d2fd46c836a06233681665,64dc7eb1eb61e76232e2ecd3,,,,,,,decisionTrl,resources/DG.BMP,resources/DR.BMP,Door1,-0.283203125,-0.041992188,1,0,0,1.7895,optionLeft,30,4970,3,5,0,5,0,1,,,,,,,,,,,,,,,,,,,,,,,,,,,,,,,,,,,,,,,
,,,,,,,,2023-08-16_08h46.25.561,HF_wild_card,2022.2.4,Win32,7.5030012,5c8cfc3772503f0001e9c965,64d2fd46c836a06233681665,64dc7eb1eb61e76232e2ecd3,,,,,,,decisionTrl,resources/DG.BMP,resources/DR.BMP,Door1,-0.271484375,-0.004882813,1,0,0,1.0705,optionLeft,30,5000,3,6,0,6,0,1,,,,,,,,,,,,,,,,,,,,,,,,,,,,,,,,,,,,,,,
,,,,,,,,2023-08-16_08h46.25.561,HF_wild_card,2022.2.4,Win32,7.5030012,5c8cfc3772503f0001e9c965,64d2fd46c836a06233681665,64dc7eb1eb61e76232e2ecd3,,,,,,,decisionTrl,resources/DBN.BMP,resources/DP.BMP,Door3,-0.408203125,-0.030273438,1,0,0,2.3469,optionLeft,70,5070,3,7,0,7,0,1,,,,,,,,,,,,,,,,,,,,,,,,,,,,,,,,,,,,,,,
,,,,,,,,2023-08-16_08h46.25.561,HF_wild_card,2022.2.4,Win32,7.5030012,5c8cfc3772503f0001e9c965,64d2fd46c836a06233681665,64dc7eb1eb61e76232e2ecd3,,,,,,,decisionTrl,resources/DR.BMP,resources/DY.BMP,WildCard_NonEx,0.3671875,-0.013671875,1,0,0,2.3458,optionRight,55,5125,3,8,0,8,0,1,,,,,,,,,,,,,,,,,,,,,,,,,,,,,,,,,,,,,,,
,,,,,,,,2023-08-16_08h46.25.561,HF_wild_card,2022.2.4,Win32,7.5030012,5c8cfc3772503f0001e9c965,64d2fd46c836a06233681665,64dc7eb1eb61e76232e2ecd3,,,,,,,decisionTrl,resources/DR.BMP,resources/DG.BMP,Door1,0.419921875,-0.047851563,1,0,0,1.6156,optionRight,30,5155,3,9,0,9,0,1,,,,,,,,,,,,,,,,,,,,,,,,,,,,,,,,,,,,,,,
,,,,,,,,2023-08-16_08h46.25.561,HF_wild_card,2022.2.4,Win32,7.5030012,5c8cfc3772503f0001e9c965,64d2fd46c836a06233681665,64dc7eb1eb61e76232e2ecd3,,,,,,,ctch,resources/DBN.BMP,resources/DR.BMP,Door3,-0.280273438,-0.028320313,1,0,0,1.0781,optionLeft,70,5225,3,10,0,10,0,1,,,,,,,,,,,,,,,,,,,,,,,,,,,,,,,,,,,,,,,
,,,,,,,,2023-08-16_08h46.25.561,HF_wild_card,2022.2.4,Win32,7.5030012,5c8cfc3772503f0001e9c965,64d2fd46c836a06233681665,64dc7eb1eb61e76232e2ecd3,,,,,,,ctch,resources/DR.BMP,resources/DBN.BMP,Door3,0.436523438,-0.006835938,1,0,0,1.0705,optionRight,70,5295,3,11,0,11,0,1,,,,,,,,,,,,,,,,,,,,,,,,,,,,,,,,,,,,,,,
,,,,,,,,2023-08-16_08h46.25.561,HF_wild_card,2022.2.4,Win32,7.5030012,5c8cfc3772503f0001e9c965,64d2fd46c836a06233681665,64dc7eb1eb61e76232e2ecd3,,,,,,,sngl,resources/DY.BMP,resources/Empty.png,WildCard_NonEx,-0.310546875,-0.029296875,1,0,0,1.1074,optionLeft,55,5350,3,12,0,12,0,1,,,,,,,,,,,,,,,,,,,,,,,,,,,,,,,,,,,,,,,
,,,,,,,,2023-08-16_08h46.25.561,HF_wild_card,2022.2.4,Win32,7.5030012,5c8cfc3772503f0001e9c965,64d2fd46c836a06233681665,64dc7eb1eb61e76232e2ecd3,,,,,,,sngl,resources/Empty.png,resources/DY.BMP,WildCard_NonEx,0.390625,-0.028320313,1,0,0,0.9469,optionRight,45,5395,3,13,0,13,0,1,,,,,,,,,,,,,,,,,,,,,,,,,,,,,,,,,,,,,,,
,,,,,,,,2023-08-16_08h46.25.561,HF_wild_card,2022.2.4,Win32,7.5030012,5c8cfc3772503f0001e9c965,64d2fd46c836a06233681665,64dc7eb1eb61e76232e2ecd3,,,,,,,sngl,resources/Empty.png,resources/DBN.BMP,Door3,0.348632813,0.000976563,1,0,0,0.9494,optionRight,70,5465,3,14,0,14,0,1,,,,,,,,,,,,,,,,,,,,,,,,,,,,,,,,,,,,,,,
,,,,,,,,2023-08-16_08h46.25.561,HF_wild_card,2022.2.4,Win32,7.5030012,5c8cfc3772503f0001e9c965,64d2fd46c836a06233681665,64dc7eb1eb61e76232e2ecd3,,,,,,,decisionTrl,resources/DP.BMP,resources/DBN.BMP,Door3,0.396484375,0.000976563,1,0,0,0.8906,optionRight,70,5535,3,15,0,15,0,1,,,,,,,,,,,,,,,,,,,,,,,,,,,,,,,,,,,,,,,
,,,,,,,,2023-08-16_08h46.25.561,HF_wild_card,2022.2.4,Win32,7.5030012,5c8cfc3772503f0001e9c965,64d2fd46c836a06233681665,64dc7eb1eb61e76232e2ecd3,,,,,,,decisionTrl,resources/DR.BMP,resources/DG.BMP,Door1,0.349609375,-0.021484375,1,0,0,2.1486,optionRight,30,5565,3,16,0,16,0,1,,,,,,,,,,,,,,,,,,,,,,,,,,,,,,,,,,,,,,,
,,,,,,,,2023-08-16_08h46.25.561,HF_wild_card,2022.2.4,Win32,7.5030012,5c8cfc3772503f0001e9c965,64d2fd46c836a06233681665,64dc7eb1eb61e76232e2ecd3,,,,,,,ctch,resources/DG.BMP,resources/DP.BMP,Door4,0.319335938,-0.05078125,1,0,0,1.8345,optionRight,60,5625,3,17,0,17,0,1,,,,,,,,,,,,,,,,,,,,,,,,,,,,,,,,,,,,,,,
,,,,,,,,2023-08-16_08h46.25.561,HF_wild_card,2022.2.4,Win32,7.5030012,5c8cfc3772503f0001e9c965,64d2fd46c836a06233681665,64dc7eb1eb61e76232e2ecd3,,,,,,,sngl,resources/Empty.png,resources/DP.BMP,Door4,0.336914063,-0.026367188,1,0,0,0.9473,optionRight,60,5685,3,18,0,18,0,1,,,,,,,,,,,,,,,,,,,,,,,,,,,,,,,,,,,,,,,
,,,,,,,,2023-08-16_08h46.25.561,HF_wild_card,2022.2.4,Win32,7.5030012,5c8cfc3772503f0001e9c965,64d2fd46c836a06233681665,64dc7eb1eb61e76232e2ecd3,,,,,,,decisionTrl,resources/DG.BMP,resources/DR.BMP,Door2,0.397460938,-0.041015625,1,0,0,2.8549,optionRight,20,5705,3,19,0,19,0,1,,,,,,,,,,,,,,,,,,,,,,,,,,,,,,,,,,,,,,,
,,,,,,,,2023-08-16_08h46.25.561,HF_wild_card,2022.2.4,Win32,7.5030012,5c8cfc3772503f0001e9c965,64d2fd46c836a06233681665,64dc7eb1eb61e76232e2ecd3,,,,,,,decisionTrl,resources/DP.BMP,resources/DY.BMP,WildCard_NonEx,0.29296875,-0.041992188,1,0,0,1.6367,optionRight,45,5750,3,20,0,20,0,1,,,,,,,,,,,,,,,,,,,,,,,,,,,,,,,,,,,,,,,
,,,,,,,,2023-08-16_08h46.25.561,HF_wild_card,2022.2.4,Win32,7.5030012,5c8cfc3772503f0001e9c965,64d2fd46c836a06233681665,64dc7eb1eb61e76232e2ecd3,,,,,,,decisionTrl,resources/DP.BMP,resources/DBN.BMP,Door3,0.397460938,-0.030273438,1,0,0,1.9665,optionRight,70,5820,3,21,0,21,0,1,,,,,,,,,,,,,,,,,,,,,,,,,,,,,,,,,,,,,,,
,,,,,,,,2023-08-16_08h46.25.561,HF_wild_card,2022.2.4,Win32,7.5030012,5c8cfc3772503f0001e9c965,64d2fd46c836a06233681665,64dc7eb1eb61e76232e2ecd3,,,,,,,decisionTrl,resources/DY.BMP,resources/DBN.BMP,Door3,0.356445313,-0.025390625,1,0,0,1.0762,optionRight,70,5890,3,22,0,22,0,1,,,,,,,,,,,,,,,,,,,,,,,,,,,,,,,,,,,,,,,
,,,,,,,,2023-08-16_08h46.25.561,HF_wild_card,2022.2.4,Win32,7.5030012,5c8cfc3772503f0001e9c965,64d2fd46c836a06233681665,64dc7eb1eb61e76232e2ecd3,,,,,,,sngl,resources/Empty.png,resources/DG.BMP,Door1,0.310546875,-0.01171875,1,0,0,0.9748,optionRight,30,5920,3,23,0,23,0,1,,,,,,,,,,,,,,,,,,,,,,,,,,,,,,,,,,,,,,,
,,,,,,,,2023-08-16_08h46.25.561,HF_wild_card,2022.2.4,Win32,7.5030012,5c8cfc3772503f0001e9c965,64d2fd46c836a06233681665,64dc7eb1eb61e76232e2ecd3,,,,,,,decisionTrl,resources/DG.BMP,resources/DY.BMP,WildCard_NonEx,0.364257813,-0.024414063,1,0,0,1.2561,optionRight,45,5965,3,24,0,24,0,1,,,,,,,,,,,,,,,,,,,,,,,,,,,,,,,,,,,,,,,
,,,,,,,,2023-08-16_08h46.25.561,HF_wild_card,2022.2.4,Win32,7.5030012,5c8cfc3772503f0001e9c965,64d2fd46c836a06233681665,64dc7eb1eb61e76232e2ecd3,,,,,,,decisionTrl,resources/DR.BMP,resources/DG.BMP,Door1,0.3046875,-0.008789063,1,0,0,1.4307,optionRight,30,5995,3,25,0,25,0,1,,,,,,,,,,,,,,,,,,,,,,,,,,,,,,,,,,,,,,,
,,,,,,,,2023-08-16_08h46.25.561,HF_wild_card,2022.2.4,Win32,7.5030012,5c8cfc3772503f0001e9c965,64d2fd46c836a06233681665,64dc7eb1eb61e76232e2ecd3,,,,,,,sngl,resources/DY.BMP,resources/Empty.png,WildCard_NonEx,-0.408203125,-0.014648438,1,0,0,0.9567,optionLeft,45,6040,3,26,0,26,0,1,,,,,,,,,,,,,,,,,,,,,,,,,,,,,,,,,,,,,,,
,,,,,,,,2023-08-16_08h46.25.561,HF_wild_card,2022.2.4,Win32,7.5030012,5c8cfc3772503f0001e9c965,64d2fd46c836a06233681665,64dc7eb1eb61e76232e2ecd3,,,,,,,decisionTrl,resources/DBN.BMP,resources/DP.BMP,Door3,-0.391601563,-0.005859375,1,0,0,1.0773,optionLeft,70,6110,3,27,0,27,0,1,,,,,,,,,,,,,,,,,,,,,,,,,,,,,,,,,,,,,,,
,,,,,,,,2023-08-16_08h46.25.561,HF_wild_card,2022.2.4,Win32,7.5030012,5c8cfc3772503f0001e9c965,64d2fd46c836a06233681665,64dc7eb1eb61e76232e2ecd3,,,,,,,sngl,resources/Empty.png,resources/DR.BMP,Door2,0.296875,-0.018554688,1,0,0,1.5875,optionRight,20,6130,3,28,0,28,0,1,,,,,,,,,,,,,,,,,,,,,,,,,,,,,,,,,,,,,,,
,,,,,,,,2023-08-16_08h46.25.561,HF_wild_card,2022.2.4,Win32,7.5030012,5c8cfc3772503f0001e9c965,64d2fd46c836a06233681665,64dc7eb1eb61e76232e2ecd3,,,,,,,decisionTrl,resources/DP.BMP,resources/DBN.BMP,Door3,0.400390625,-0.030273438,1,0,0,2.1485,optionRight,70,6200,3,29,0,29,0,1,,,,,,,,,,,,,,,,,,,,,,,,,,,,,,,,,,,,,,,
,,,,,,,,2023-08-16_08h46.25.561,HF_wild_card,2022.2.4,Win32,7.5030012,5c8cfc3772503f0001e9c965,64d2fd46c836a06233681665,64dc7eb1eb61e76232e2ecd3,,,,,,,decisionTrl,resources/DY.BMP,resources/DR.BMP,WildCard_NonEx,-0.350585938,-0.048828125,1,0,0,2.6961,optionLeft,45,6245,3,30,0,30,0,1,,,,,,,,,,,,,,,,,,,,,,,,,,,,,,,,,,,,,,,
,,,,,,,,2023-08-16_08h46.25.561,HF_wild_card,2022.2.4,Win32,7.5030012,5c8cfc3772503f0001e9c965,64d2fd46c836a06233681665,64dc7eb1eb61e76232e2ecd3,,,,,,,sngl,resources/DBN.BMP,resources/Empty.png,Door3,-0.361328125,-0.01953125,1,0,0,2.9987,optionLeft,70,6315,3,31,0,31,0,1,,,,,,,,,,,,,,,,,,,,,,,,,,,,,,,,,,,,,,,
,,,,,,,,2023-08-16_08h46.25.561,HF_wild_card,2022.2.4,Win32,7.5030012,5c8cfc3772503f0001e9c965,64d2fd46c836a06233681665,64dc7eb1eb61e76232e2ecd3,,,,,,,ctch,resources/DG.BMP,resources/DP.BMP,Door4,0.27734375,-0.090820313,1,0,0,1.7862,optionRight,60,6375,3,32,0,32,0,1,,,,,,,,,,,,,,,,,,,,,,,,,,,,,,,,,,,,,,,
,,,,,,,,2023-08-16_08h46.25.561,HF_wild_card,2022.2.4,Win32,7.5030012,5c8cfc3772503f0001e9c965,64d2fd46c836a06233681665,64dc7eb1eb61e76232e2ecd3,,,,,,,ctch,resources/DP.BMP,resources/DG.BMP,Door4,-0.3359375,-0.0625,1,0,0,1.9763,optionLeft,80,6455,3,33,0,33,0,1,,,,,,,,,,,,,,,,,,,,,,,,,,,,,,,,,,,,,,,
,,,,,,,,2023-08-16_08h46.25.561,HF_wild_card,2022.2.4,Win32,7.5030012,5c8cfc3772503f0001e9c965,64d2fd46c836a06233681665,64dc7eb1eb61e76232e2ecd3,,,,,,,decisionTrl,resources/DG.BMP,resources/DR.BMP,Door1,-0.349609375,-0.01953125,1,0,0,1.2721,optionLeft,30,6485,3,34,0,34,0,1,,,,,,,,,,,,,,,,,,,,,,,,,,,,,,,,,,,,,,,
,,,,,,,,2023-08-16_08h46.25.561,HF_wild_card,2022.2.4,Win32,7.5030012,5c8cfc3772503f0001e9c965,64d2fd46c836a06233681665,64dc7eb1eb61e76232e2ecd3,,,,,,,ctch,resources/DR.BMP,resources/DBN.BMP,Door3,0.455078125,-0.008789063,1,0,0,1.1041,optionRight,70,6555,3,35,0,35,0,1,,,,,,,,,,,,,,,,,,,,,,,,,,,,,,,,,,,,,,,
,,,,,,,,2023-08-16_08h46.25.561,HF_wild_card,2022.2.4,Win32,7.5030012,5c8cfc3772503f0001e9c965,64d2fd46c836a06233681665,64dc7eb1eb61e76232e2ecd3,,,,,,,decisionTrl,resources/DR.BMP,resources/DG.BMP,Door1,0.348632813,-0.021484375,1,0,0,1.9734,optionRight,30,6585,3,36,0,36,0,1,,,,,,,,,,,,,,,,,,,,,,,,,,,,,,,,,,,,,,,
,,,,,,,,2023-08-16_08h46.25.561,HF_wild_card,2022.2.4,Win32,7.5030012,5c8cfc3772503f0001e9c965,64d2fd46c836a06233681665,64dc7eb1eb61e76232e2ecd3,,,,,,,sngl,resources/DG.BMP,resources/Empty.png,Door1,-0.321289063,-0.00390625,1,0,0,1.5835,optionLeft,30,6615,3,37,0,37,0,1,,,,,,,,,,,,,,,,,,,,,,,,,,,,,,,,,,,,,,,
,,,,,,,,2023-08-16_08h46.25.561,HF_wild_card,2022.2.4,Win32,7.5030012,5c8cfc3772503f0001e9c965,64d2fd46c836a06233681665,64dc7eb1eb61e76232e2ecd3,,,,,,,decisionTrl,resources/DY.BMP,resources/DG.BMP,WildCard_NonEx,-0.404296875,-0.025390625,1,0,0,3.0676,optionLeft,55,6670,3,38,0,38,0,1,,,,,,,,,,,,,,,,,,,,,,,,,,,,,,,,,,,,,,,
,,,,,,,,2023-08-16_08h46.25.561,HF_wild_card,2022.2.4,Win32,7.5030012,5c8cfc3772503f0001e9c965,64d2fd46c836a06233681665,64dc7eb1eb61e76232e2ecd3,,,,,,,ctch,resources/DBN.BMP,resources/DR.BMP,Door3,-0.346679688,-0.006835938,1,0,0,1.0803,optionLeft,70,6740,3,39,0,39,0,1,,,,,,,,,,,,,,,,,,,,,,,,,,,,,,,,,,,,,,,
,,,,,,,,2023-08-16_08h46.25.561,HF_wild_card,2022.2.4,Win32,7.5030012,5c8cfc3772503f0001e9c965,64d2fd46c836a06233681665,64dc7eb1eb61e76232e2ecd3,,,,,,,ctch,resources/DP.BMP,resources/DG.BMP,Door4,-0.450195313,-0.043945313,1,0,0,2.1432,optionLeft,60,6800,3,40,0,40,0,1,,,,,,,,,,,,,,,,,,,,,,,,,,,,,,,,,,,,,,,
,,,,,,,,2023-08-16_08h46.25.561,HF_wild_card,2022.2.4,Win32,7.5030012,5c8cfc3772503f0001e9c965,64d2fd46c836a06233681665,64dc7eb1eb61e76232e2ecd3,,,,,,,sngl,resources/DR.BMP,resources/Empty.png,Door2,-0.315429688,-0.043945313,1,0,0,1.2762,optionLeft,40,6840,3,41,0,41,0,1,,,,,,,,,,,,,,,,,,,,,,,,,,,,,,,,,,,,,,,
,,,,,,,,2023-08-16_08h46.25.561,HF_wild_card,2022.2.4,Win32,7.5030012,5c8cfc3772503f0001e9c965,64d2fd46c836a06233681665,64dc7eb1eb61e76232e2ecd3,,,,,,,decisionTrl,resources/DY.BMP,resources/DP.BMP,WildCard_NonEx,-0.495117188,-0.049804688,1,0,0,1.4592,optionLeft,45,6885,3,42,0,42,0,1,,,,,,,,,,,,,,,,,,,,,,,,,,,,,,,,,,,,,,,
,,,,,,,,2023-08-16_08h46.25.561,HF_wild_card,2022.2.4,Win32,7.5030012,5c8cfc3772503f0001e9c965,64d2fd46c836a06233681665,64dc7eb1eb61e76232e2ecd3,,,,,,,decisionTrl,resources/DBN.BMP,resources/DP.BMP,Door3,-0.333007813,-0.026367188,1,0,0,1.2602,optionLeft,70,6955,3,43,0,43,0,1,,,,,,,,,,,,,,,,,,,,,,,,,,,,,,,,,,,,,,,
,,,,,,,,2023-08-16_08h46.25.561,HF_wild_card,2022.2.4,Win32,7.5030012,5c8cfc3772503f0001e9c965,64d2fd46c836a06233681665,64dc7eb1eb61e76232e2ecd3,,,,,,,,,,,,,,,,,,,,,,,,,,2,0,2,0,1,,,,,,,,,,,,,,,,,,,,,,,,,,,,,,,,,,
,,,,,,,,2023-08-16_08h46.25.561,HF_wild_card,2022.2.4,Win32,7.5030012,5c8cfc3772503f0001e9c965,64d2fd46c836a06233681665,64dc7eb1eb61e76232e2ecd3,,,,,,,decisionTrl,resources/DP.BMP,resources/DBN.BMP,Door3,0.34765625,-0.0703125,1,0,0,1.0769,optionRight,70,7025,4,0,0,0,0,1,,,,,,,,,,,,,,,,,,,,,,,,,,,,,,,,,,,,,,,
,,,,,,,,2023-08-16_08h46.25.561,HF_wild_card,2022.2.4,Win32,7.5030012,5c8cfc3772503f0001e9c965,64d2fd46c836a06233681665,64dc7eb1eb61e76232e2ecd3,,,,,,,decisionTrl,resources/DP.BMP,resources/DBN.BMP,Door3,0.423828125,0,1,0,0,0.8967,optionRight,70,7095,4,1,0,1,0,1,,,,,,,,,,,,,,,,,,,,,,,,,,,,,,,,,,,,,,,
,,,,,,,,2023-08-16_08h46.25.561,HF_wild_card,2022.2.4,Win32,7.5030012,5c8cfc3772503f0001e9c965,64d2fd46c836a06233681665,64dc7eb1eb61e76232e2ecd3,,,,,,,sngl,resources/DG.BMP,resources/Empty.png,Door1,-0.3046875,-0.012695313,1,0,0,1.2618,optionLeft,30,7125,4,2,0,2,0,1,,,,,,,,,,,,,,,,,,,,,,,,,,,,,,,,,,,,,,,
,,,,,,,,2023-08-16_08h46.25.561,HF_wild_card,2022.2.4,Win32,7.5030012,5c8cfc3772503f0001e9c965,64d2fd46c836a06233681665,64dc7eb1eb61e76232e2ecd3,,,,,,,ctch,resources/DBN.BMP,resources/DR.BMP,Door3,-0.334960938,-0.017578125,1,0,0,2.1415,optionLeft,70,7195,4,3,0,3,0,1,,,,,,,,,,,,,,,,,,,,,,,,,,,,,,,,,,,,,,,
,,,,,,,,2023-08-16_08h46.25.561,HF_wild_card,2022.2.4,Win32,7.5030012,5c8cfc3772503f0001e9c965,64d2fd46c836a06233681665,64dc7eb1eb61e76232e2ecd3,,,,,,,decisionTrl,resources/DB.BMP,resources/DBN.BMP,Door3,0.342773438,-0.005859375,1,0,0,1.066,optionRight,70,7265,4,4,0,4,0,1,,,,,,,,,,,,,,,,,,,,,,,,,,,,,,,,,,,,,,,
,,,,,,,,2023-08-16_08h46.25.561,HF_wild_card,2022.2.4,Win32,7.5030012,5c8cfc3772503f0001e9c965,64d2fd46c836a06233681665,64dc7eb1eb61e76232e2ecd3,,,,,,,sngl,resources/Empty.png,resources/DP.BMP,Door4,0.384765625,-0.053710938,1,0,0,2.367,optionRight,80,7345,4,5,0,5,0,1,,,,,,,,,,,,,,,,,,,,,,,,,,,,,,,,,,,,,,,
,,,,,,,,2023-08-16_08h46.25.561,HF_wild_card,2022.2.4,Win32,7.5030012,5c8cfc3772503f0001e9c965,64d2fd46c836a06233681665,64dc7eb1eb61e76232e2ecd3,,,,,,,decisionTrl,resources/DBN.BMP,resources/DP.BMP,Door4,0.359375,-0.048828125,1,0,0,1.7998,optionRight,60,7405,4,6,0,6,0,1,,,,,,,,,,,,,,,,,,,,,,,,,,,,,,,,,,,,,,,
,,,,,,,,2023-08-16_08h46.25.561,HF_wild_card,2022.2.4,Win32,7.5030012,5c8cfc3772503f0001e9c965,64d2fd46c836a06233681665,64dc7eb1eb61e76232e2ecd3,,,,,,,decisionTrl,resources/DBN.BMP,resources/DP.BMP,Door3,-0.384765625,-0.046875,1,0,0,1.8202,optionLeft,70,7475,4,7,0,7,0,1,,,,,,,,,,,,,,,,,,,,,,,,,,,,,,,,,,,,,,,
,,,,,,,,2023-08-16_08h46.25.561,HF_wild_card,2022.2.4,Win32,7.5030012,5c8cfc3772503f0001e9c965,64d2fd46c836a06233681665,64dc7eb1eb61e76232e2ecd3,,,,,,,decisionTrl,resources/DBN.BMP,resources/DP.BMP,Door3,-0.392578125,-0.036132813,1,0,0,1.0733,optionLeft,70,7545,4,8,0,8,0,1,,,,,,,,,,,,,,,,,,,,,,,,,,,,,,,,,,,,,,,
,,,,,,,,2023-08-16_08h46.25.561,HF_wild_card,2022.2.4,Win32,7.5030012,5c8cfc3772503f0001e9c965,64d2fd46c836a06233681665,64dc7eb1eb61e76232e2ecd3,,,,,,,decisionTrl,resources/DR.BMP,resources/DB.BMP,WildCard_Ex,0.404296875,-0.0390625,1,0,0,1.4302,optionRight,95,7640,4,9,0,9,0,1,,,,,,,,,,,,,,,,,,,,,,,,,,,,,,,,,,,,,,,
,,,,,,,,2023-08-16_08h46.25.561,HF_wild_card,2022.2.4,Win32,7.5030012,5c8cfc3772503f0001e9c965,64d2fd46c836a06233681665,64dc7eb1eb61e76232e2ecd3,,,,,,,sngl,resources/DBN.BMP,resources/Empty.png,Door3,-0.365234375,-0.03125,1,0,0,2.0562,optionLeft,70,7710,4,10,0,10,0,1,,,,,,,,,,,,,,,,,,,,,,,,,,,,,,,,,,,,,,,
,,,,,,,,2023-08-16_08h46.25.561,HF_wild_card,2022.2.4,Win32,7.5030012,5c8cfc3772503f0001e9c965,64d2fd46c836a06233681665,64dc7eb1eb61e76232e2ecd3,,,,,,,decisionTrl,resources/DBN.BMP,resources/DB.BMP,WildCard_Ex,0.370117188,-0.0390625,1,0,0,1.0716,optionRight,5,7715,4,11,0,11,0,1,,,,,,,,,,,,,,,,,,,,,,,,,,,,,,,,,,,,,,,
,,,,,,,,2023-08-16_08h46.25.561,HF_wild_card,2022.2.4,Win32,7.5030012,5c8cfc3772503f0001e9c965,64d2fd46c836a06233681665,64dc7eb1eb61e76232e2ecd3,,,,,,,sngl,resources/Empty.png,resources/DG.BMP,Door1,0.350585938,-0.043945313,1,0,0,1.2873,optionRight,30,7745,4,12,0,12,0,1,,,,,,,,,,,,,,,,,,,,,,,,,,,,,,,,,,,,,,,
,,,,,,,,2023-08-16_08h46.25.561,HF_wild_card,2022.2.4,Win32,7.5030012,5c8cfc3772503f0001e9c965,64d2fd46c836a06233681665,64dc7eb1eb61e76232e2ecd3,,,,,,,decisionTrl,resources/DG.BMP,resources/DB.BMP,WildCard_Ex,0.362304688,-0.064453125,1,0,0,2.897,optionRight,5,7750,4,13,0,13,0,1,,,,,,,,,,,,,,,,,,,,,,,,,,,,,,,,,,,,,,,
,,,,,,,,2023-08-16_08h46.25.561,HF_wild_card,2022.2.4,Win32,7.5030012,5c8cfc3772503f0001e9c965,64d2fd46c836a06233681665,64dc7eb1eb61e76232e2ecd3,,,,,,,decisionTrl,resources/DG.BMP,resources/DR.BMP,Door1,-0.375976563,-0.072265625,1,0,0,2.5098,optionLeft,30,7780,4,14,0,14,0,1,,,,,,,,,,,,,,,,,,,,,,,,,,,,,,,,,,,,,,,
,,,,,,,,2023-08-16_08h46.25.561,HF_wild_card,2022.2.4,Win32,7.5030012,5c8cfc3772503f0001e9c965,64d2fd46c836a06233681665,64dc7eb1eb61e76232e2ecd3,,,,,,,decisionTrl,resources/DR.BMP,resources/DG.BMP,Door1,0.401367188,-0.0390625,1,0,0,2.3216,optionRight,30,7810,4,15,0,15,0,1,,,,,,,,,,,,,,,,,,,,,,,,,,,,,,,,,,,,,,,
,,,,,,,,2023-08-16_08h46.25.561,HF_wild_card,2022.2.4,Win32,7.5030012,5c8cfc3772503f0001e9c965,64d2fd46c836a06233681665,64dc7eb1eb61e76232e2ecd3,,,,,,,decisionTrl,resources/DG.BMP,resources/DR.BMP,Door1,-0.431640625,-0.018554688,1,0,0,1.7933,optionLeft,30,7840,4,16,0,16,0,1,,,,,,,,,,,,,,,,,,,,,,,,,,,,,,,,,,,,,,,
,,,,,,,,2023-08-16_08h46.25.561,HF_wild_card,2022.2.4,Win32,7.5030012,5c8cfc3772503f0001e9c965,64d2fd46c836a06233681665,64dc7eb1eb61e76232e2ecd3,,,,,,,ctch,resources/DBN.BMP,resources/DR.BMP,Door3,-0.372070313,-0.02734375,1,0,0,1.0867,optionLeft,70,7910,4,17,0,17,0,1,,,,,,,,,,,,,,,,,,,,,,,,,,,,,,,,,,,,,,,
,,,,,,,,2023-08-16_08h46.25.561,HF_wild_card,2022.2.4,Win32,7.5030012,5c8cfc3772503f0001e9c965,64d2fd46c836a06233681665,64dc7eb1eb61e76232e2ecd3,,,,,,,sngl,resources/DB.BMP,resources/Empty.png,WildCard_Ex,-0.3828125,0.000976563,1,0,0,1.4722,optionLeft,95,8005,4,18,0,18,0,1,,,,,,,,,,,,,,,,,,,,,,,,,,,,,,,,,,,,,,,
,,,,,,,,2023-08-16_08h46.25.561,HF_wild_card,2022.2.4,Win32,7.5030012,5c8cfc3772503f0001e9c965,64d2fd46c836a06233681665,64dc7eb1eb61e76232e2ecd3,,,,,,,decisionTrl,resources/DG.BMP,resources/DR.BMP,Door1,-0.356445313,-0.02734375,1,0,0,1.979,optionLeft,30,8035,4,19,0,19,0,1,,,,,,,,,,,,,,,,,,,,,,,,,,,,,,,,,,,,,,,
,,,,,,,,2023-08-16_08h46.25.561,HF_wild_card,2022.2.4,Win32,7.5030012,5c8cfc3772503f0001e9c965,64d2fd46c836a06233681665,64dc7eb1eb61e76232e2ecd3,,,,,,,sngl,resources/Empty.png,resources/DBN.BMP,Door3,0.384765625,-0.049804688,1,0,0,1.426,optionRight,70,8105,4,20,0,20,0,1,,,,,,,,,,,,,,,,,,,,,,,,,,,,,,,,,,,,,,,
,,,,,,,,2023-08-16_08h46.25.561,HF_wild_card,2022.2.4,Win32,7.5030012,5c8cfc3772503f0001e9c965,64d2fd46c836a06233681665,64dc7eb1eb61e76232e2ecd3,,,,,,,decisionTrl,resources/DB.BMP,resources/DR.BMP,WildCard_Ex,-0.35546875,-0.078125,1,0,0,1.6136,optionLeft,95,8200,4,21,0,21,0,1,,,,,,,,,,,,,,,,,,,,,,,,,,,,,,,,,,,,,,,
,,,,,,,,2023-08-16_08h46.25.561,HF_wild_card,2022.2.4,Win32,7.5030012,5c8cfc3772503f0001e9c965,64d2fd46c836a06233681665,64dc7eb1eb61e76232e2ecd3,,,,,,,decisionTrl,resources/DR.BMP,resources/DG.BMP,Door1,0.3203125,-0.0390625,1,0,0,1.4241,optionRight,30,8230,4,22,0,22,0,1,,,,,,,,,,,,,,,,,,,,,,,,,,,,,,,,,,,,,,,
,,,,,,,,2023-08-16_08h46.25.561,HF_wild_card,2022.2.4,Win32,7.5030012,5c8cfc3772503f0001e9c965,64d2fd46c836a06233681665,64dc7eb1eb61e76232e2ecd3,,,,,,,sngl,resources/DR.BMP,resources/Empty.png,Door2,-0.346679688,-0.020507813,1,0,0,1.7913,optionLeft,20,8250,4,23,0,23,0,1,,,,,,,,,,,,,,,,,,,,,,,,,,,,,,,,,,,,,,,
,,,,,,,,2023-08-16_08h46.25.561,HF_wild_card,2022.2.4,Win32,7.5030012,5c8cfc3772503f0001e9c965,64d2fd46c836a06233681665,64dc7eb1eb61e76232e2ecd3,,,,,,,decisionTrl,resources/DP.BMP,resources/DBN.BMP,Door3,0.331054688,-0.001953125,1,0,0,1.4544,optionRight,70,8320,4,24,0,24,0,1,,,,,,,,,,,,,,,,,,,,,,,,,,,,,,,,,,,,,,,
,,,,,,,,2023-08-16_08h46.25.561,HF_wild_card,2022.2.4,Win32,7.5030012,5c8cfc3772503f0001e9c965,64d2fd46c836a06233681665,64dc7eb1eb61e76232e2ecd3,,,,,,,decisionTrl,resources/DB.BMP,resources/DP.BMP,WildCard_Ex,-0.33984375,-0.034179688,1,0,0,1.431,optionLeft,5,8325,4,25,0,25,0,1,,,,,,,,,,,,,,,,,,,,,,,,,,,,,,,,,,,,,,,
,,,,,,,,2023-08-16_08h46.25.561,HF_wild_card,2022.2.4,Win32,7.5030012,5c8cfc3772503f0001e9c965,64d2fd46c836a06233681665,64dc7eb1eb61e76232e2ecd3,,,,,,,ctch,resources/DG.BMP,resources/DP.BMP,Door4,0.42578125,-0.038085938,1,0,0,1.6177,optionRight,80,8405,4,26,0,26,0,1,,,,,,,,,,,,,,,,,,,,,,,,,,,,,,,,,,,,,,,
,,,,,,,,2023-08-16_08h46.25.561,HF_wild_card,2022.2.4,Win32,7.5030012,5c8cfc3772503f0001e9c965,64d2fd46c836a06233681665,64dc7eb1eb61e76232e2ecd3,,,,,,,decisionTrl,resources/DBN.BMP,resources/DP.BMP,Door3,-0.336914063,-0.041015625,1,0,0,3.0668,optionLeft,70,8475,4,27,0,27,0,1,,,,,,,,,,,,,,,,,,,,,,,,,,,,,,,,,,,,,,,
,,,,,,,,2023-08-16_08h46.25.561,HF_wild_card,2022.2.4,Win32,7.5030012,5c8cfc3772503f0001e9c965,64d2fd46c836a06233681665,64dc7eb1eb61e76232e2ecd3,,,,,,,decisionTrl,resources/DP.BMP,resources/DB.BMP,WildCard_Ex,0.431640625,-0.041015625,1,0,0,2.688,optionRight,95,8570,4,28,0,28,0,1,,,,,,,,,,,,,,,,,,,,,,,,,,,,,,,,,,,,,,,
,,,,,,,,2023-08-16_08h46.25.561,HF_wild_card,2022.2.4,Win32,7.5030012,5c8cfc3772503f0001e9c965,64d2fd46c836a06233681665,64dc7eb1eb61e76232e2ecd3,,,,,,,ctch,resources/DR.BMP,resources/DBN.BMP,Door3,0.385742188,-0.02734375,1,0,0,2.3345,optionRight,70,8640,4,29,0,29,0,1,,,,,,,,,,,,,,,,,,,,,,,,,,,,,,,,,,,,,,,
,,,,,,,,2023-08-16_08h46.25.561,HF_wild_card,2022.2.4,Win32,7.5030012,5c8cfc3772503f0001e9c965,64d2fd46c836a06233681665,64dc7eb1eb61e76232e2ecd3,,,,,,,decisionTrl,resources/DG.BMP,resources/DR.BMP,Door1,-0.33984375,-0.030273438,1,0,0,2.3802,optionLeft,30,8670,4,30,0,30,0,1,,,,,,,,,,,,,,,,,,,,,,,,,,,,,,,,,,,,,,,
,,,,,,,,2023-08-16_08h46.25.561,HF_wild_card,2022.2.4,Win32,7.5030012,5c8cfc3772503f0001e9c965,64d2fd46c836a06233681665,64dc7eb1eb61e76232e2ecd3,,,,,,,ctch,resources/DP.BMP,resources/DG.BMP,Door4,-0.407226563,-0.014648438,1,0,0,1.9613,optionLeft,60,8730,4,31,0,31,0,1,,,,,,,,,,,,,,,,,,,,,,,,,,,,,,,,,,,,,,,
,,,,,,,,2023-08-16_08h46.25.561,HF_wild_card,2022.2.4,Win32,7.5030012,5c8cfc3772503f0001e9c965,64d2fd46c836a06233681665,64dc7eb1eb61e76232e2ecd3,,,,,,,ctch,resources/DP.BMP,resources/DG.BMP,Door4,-0.453125,-0.014648438,1,0,0,1.453,optionLeft,60,8790,4,32,0,32,0,1,,,,,,,,,,,,,,,,,,,,,,,,,,,,,,,,,,,,,,,
,,,,,,,,2023-08-16_08h46.25.561,HF_wild_card,2022.2.4,Win32,7.5030012,5c8cfc3772503f0001e9c965,64d2fd46c836a06233681665,64dc7eb1eb61e76232e2ecd3,,,,,,,ctch,resources/DR.BMP,resources/DBN.BMP,Door3,0.4296875,0.012695313,1,0,0,1.069,optionRight,70,8860,4,33,0,33,0,1,,,,,,,,,,,,,,,,,,,,,,,,,,,,,,,,,,,,,,,
,,,,,,,,2023-08-16_08h46.25.561,HF_wild_card,2022.2.4,Win32,7.5030012,5c8cfc3772503f0001e9c965,64d2fd46c836a06233681665,64dc7eb1eb61e76232e2ecd3,,,,,,,decisionTrl,resources/DR.BMP,resources/DG.BMP,Door1,0.319335938,-0.008789063,1,0,0,1.4259,optionRight,30,8890,4,34,0,34,0,1,,,,,,,,,,,,,,,,,,,,,,,,,,,,,,,,,,,,,,,
,,,,,,,,2023-08-16_08h46.25.561,HF_wild_card,2022.2.4,Win32,7.5030012,5c8cfc3772503f0001e9c965,64d2fd46c836a06233681665,64dc7eb1eb61e76232e2ecd3,,,,,,,sngl,resources/Empty.png,resources/DR.BMP,Door2,0.455078125,-0.006835938,1,0,0,1.1134,optionRight,40,8930,4,35,0,35,0,1,,,,,,,,,,,,,,,,,,,,,,,,,,,,,,,,,,,,,,,
,,,,,,,,2023-08-16_08h46.25.561,HF_wild_card,2022.2.4,Win32,7.5030012,5c8cfc3772503f0001e9c965,64d2fd46c836a06233681665,64dc7eb1eb61e76232e2ecd3,,,,,,,sngl,resources/Empty.png,resources/DB.BMP,WildCard_Ex,0.368164063,-0.001953125,1,0,0,1.1168,optionRight,5,8935,4,36,0,36,0,1,,,,,,,,,,,,,,,,,,,,,,,,,,,,,,,,,,,,,,,
,,,,,,,,2023-08-16_08h46.25.561,HF_wild_card,2022.2.4,Win32,7.5030012,5c8cfc3772503f0001e9c965,64d2fd46c836a06233681665,64dc7eb1eb61e76232e2ecd3,,,,,,,decisionTrl,resources/DR.BMP,resources/DG.BMP,Door1,0.405273438,0.002929688,1,0,0,1.0784,optionRight,30,8965,4,37,0,37,0,1,,,,,,,,,,,,,,,,,,,,,,,,,,,,,,,,,,,,,,,
,,,,,,,,2023-08-16_08h46.25.561,HF_wild_card,2022.2.4,Win32,7.5030012,5c8cfc3772503f0001e9c965,64d2fd46c836a06233681665,64dc7eb1eb61e76232e2ecd3,,,,,,,sngl,resources/DP.BMP,resources/Empty.png,Door4,-0.345703125,-0.024414063,1,0,0,1.9098,optionLeft,60,9025,4,38,0,38,0,1,,,,,,,,,,,,,,,,,,,,,,,,,,,,,,,,,,,,,,,
,,,,,,,,2023-08-16_08h46.25.561,HF_wild_card,2022.2.4,Win32,7.5030012,5c8cfc3772503f0001e9c965,64d2fd46c836a06233681665,64dc7eb1eb61e76232e2ecd3,,,,,,,sngl,resources/Empty.png,resources/DB.BMP,WildCard_Ex,0.354492188,-0.025390625,1,0,0,1.2733,optionRight,95,9120,4,39,0,39,0,1,,,,,,,,,,,,,,,,,,,,,,,,,,,,,,,,,,,,,,,
,,,,,,,,2023-08-16_08h46.25.561,HF_wild_card,2022.2.4,Win32,7.5030012,5c8cfc3772503f0001e9c965,64d2fd46c836a06233681665,64dc7eb1eb61e76232e2ecd3,,,,,,,decisionTrl,resources/DB.BMP,resources/DG.BMP,WildCard_Ex,-0.381835938,-0.032226563,1,0,0,1.2832,optionLeft,5,9125,4,40,0,40,0,1,,,,,,,,,,,,,,,,,,,,,,,,,,,,,,,,,,,,,,,
,,,,,,,,2023-08-16_08h46.25.561,HF_wild_card,2022.2.4,Win32,7.5030012,5c8cfc3772503f0001e9c965,64d2fd46c836a06233681665,64dc7eb1eb61e76232e2ecd3,,,,,,,decisionTrl,resources/DP.BMP,resources/DBN.BMP,Door3,0.391601563,0.008789063,1,0,0,1.7678,optionRight,70,9195,4,41,0,41,0,1,,,,,,,,,,,,,,,,,,,,,,,,,,,,,,,,,,,,,,,
,,,,,,,,2023-08-16_08h46.25.561,HF_wild_card,2022.2.4,Win32,7.5030012,5c8cfc3772503f0001e9c965,64d2fd46c836a06233681665,64dc7eb1eb61e76232e2ecd3,,,,,,,ctch,resources/DG.BMP,resources/DP.BMP,Door4,0.432617188,-0.0390625,1,0,0,1.6595,optionRight,60,9255,4,42,0,42,0,1,,,,,,,,,,,,,,,,,,,,,,,,,,,,,,,,,,,,,,,
,,,,,,,,2023-08-16_08h46.25.561,HF_wild_card,2022.2.4,Win32,7.5030012,5c8cfc3772503f0001e9c965,64d2fd46c836a06233681665,64dc7eb1eb61e76232e2ecd3,,,,,,,sngl,resources/DB.BMP,resources/Empty.png,WildCard_Ex,-0.154296875,0.001953125,1,0,0,1.2942,optionLeft,5,9260,4,43,0,43,0,1,,,,,,,,,,,,,,,,,,,,,,,,,,,,,,,,,,,,,,,
,,,,,,,,2023-08-16_08h46.25.561,HF_wild_card,2022.2.4,Win32,7.5030012,5c8cfc3772503f0001e9c965,64d2fd46c836a06233681665,64dc7eb1eb61e76232e2ecd3,,,,,,,,,,,,,,,,,,,,,,,,,,3,0,3,0,1,,,,,,,,,,,,,,,,,,,,,,,,,,,,,,,,,,
,,,,,,,,2023-08-16_08h46.25.561,HF_wild_card,2022.2.4,Win32,7.5030012,5c8cfc3772503f0001e9c965,64d2fd46c836a06233681665,64dc7eb1eb61e76232e2ecd3,,,,,,,sngl,resources/Empty.png,resources/DP.BMP,Door4,0.314453125,-0.120117188,1,0,0,1.113,optionRight,60,9320,5,0,0,0,0,1,,,,,,,,,,,,,,,,,,,,,,,,,,,,,,,,,,,,,,,
,,,,,,,,2023-08-16_08h46.25.561,HF_wild_card,2022.2.4,Win32,7.5030012,5c8cfc3772503f0001e9c965,64d2fd46c836a06233681665,64dc7eb1eb61e76232e2ecd3,,,,,,,decisionTrl,resources/DP.BMP,resources/DBN.BMP,Door3,0.364257813,0.017578125,1,0,0,2.8923,optionRight,70,9390,5,1,0,1,0,1,,,,,,,,,,,,,,,,,,,,,,,,,,,,,,,,,,,,,,,
,,,,,,,,2023-08-16_08h46.25.561,HF_wild_card,2022.2.4,Win32,7.5030012,5c8cfc3772503f0001e9c965,64d2fd46c836a06233681665,64dc7eb1eb61e76232e2ecd3,,,,,,,sngl,resources/Empty.png,resources/DB.BMP,WildCard_Ex,0.349609375,0.002929688,1,0,0,2.3896,optionRight,5,9395,5,2,0,2,0,1,,,,,,,,,,,,,,,,,,,,,,,,,,,,,,,,,,,,,,,
,,,,,,,,2023-08-16_08h46.25.561,HF_wild_card,2022.2.4,Win32,7.5030012,5c8cfc3772503f0001e9c965,64d2fd46c836a06233681665,64dc7eb1eb61e76232e2ecd3,,,,,,,sngl,resources/Empty.png,resources/DG.BMP,Door1,0.418945313,-0.03515625,1,0,0,2.0812,optionRight,30,9425,5,3,0,3,0,1,,,,,,,,,,,,,,,,,,,,,,,,,,,,,,,,,,,,,,,
,,,,,,,,2023-08-16_08h46.25.561,HF_wild_card,2022.2.4,Win32,7.5030012,5c8cfc3772503f0001e9c965,64d2fd46c836a06233681665,64dc7eb1eb61e76232e2ecd3,,,,,,,decisionTrl,resources/DB.BMP,resources/DP.BMP,Door4,0.325195313,-0.065429688,1,0,0,3.6043,optionRight,60,9485,5,4,0,4,0,1,,,,,,,,,,,,,,,,,,,,,,,,,,,,,,,,,,,,,,,
,,,,,,,,2023-08-16_08h46.25.561,HF_wild_card,2022.2.4,Win32,7.5030012,5c8cfc3772503f0001e9c965,64d2fd46c836a06233681665,64dc7eb1eb61e76232e2ecd3,,,,,,,sngl,resources/DP.BMP,resources/Empty.png,Door4,-0.356445313,-0.087890625,1,0,0,1.1241,optionLeft,80,9565,5,5,0,5,0,1,,,,,,,,,,,,,,,,,,,,,,,,,,,,,,,,,,,,,,,
,,,,,,,,2023-08-16_08h46.25.561,HF_wild_card,2022.2.4,Win32,7.5030012,5c8cfc3772503f0001e9c965,64d2fd46c836a06233681665,64dc7eb1eb61e76232e2ecd3,,,,,,,decisionTrl,resources/DG.BMP,resources/DB.BMP,WildCard_Ex,0.350585938,-0.045898438,1,0,0,1.6257,optionRight,95,9660,5,6,0,6,0,1,,,,,,,,,,,,,,,,,,,,,,,,,,,,,,,,,,,,,,,
,,,,,,,,2023-08-16_08h46.25.561,HF_wild_card,2022.2.4,Win32,7.5030012,5c8cfc3772503f0001e9c965,64d2fd46c836a06233681665,64dc7eb1eb61e76232e2ecd3,,,,,,,decisionTrl,resources/DP.BMP,resources/DBN.BMP,Door3,0.43359375,-0.025390625,1,0,0,1.2543,optionRight,70,9730,5,7,0,7,0,1,,,,,,,,,,,,,,,,,,,,,,,,,,,,,,,,,,,,,,,
,,,,,,,,2023-08-16_08h46.25.561,HF_wild_card,2022.2.4,Win32,7.5030012,5c8cfc3772503f0001e9c965,64d2fd46c836a06233681665,64dc7eb1eb61e76232e2ecd3,,,,,,,sngl,resources/DBN.BMP,resources/Empty.png,Door3,-0.263671875,-0.024414063,1,0,0,0.9533,optionLeft,70,9800,5,8,0,8,0,1,,,,,,,,,,,,,,,,,,,,,,,,,,,,,,,,,,,,,,,
,,,,,,,,2023-08-16_08h46.25.561,HF_wild_card,2022.2.4,Win32,7.5030012,5c8cfc3772503f0001e9c965,64d2fd46c836a06233681665,64dc7eb1eb61e76232e2ecd3,,,,,,,ctch,resources/DG.BMP,resources/DP.BMP,Door4,0.370117188,-0.022460938,1,0,0,1.6162,optionRight,60,9860,5,9,0,9,0,1,,,,,,,,,,,,,,,,,,,,,,,,,,,,,,,,,,,,,,,
,,,,,,,,2023-08-16_08h46.25.561,HF_wild_card,2022.2.4,Win32,7.5030012,5c8cfc3772503f0001e9c965,64d2fd46c836a06233681665,64dc7eb1eb61e76232e2ecd3,,,,,,,sngl,resources/Empty.png,resources/DR.BMP,Door2,0.333007813,-0.038085938,1,0,0,0.954,optionRight,20,9880,5,10,0,10,0,1,,,,,,,,,,,,,,,,,,,,,,,,,,,,,,,,,,,,,,,
,,,,,,,,2023-08-16_08h46.25.561,HF_wild_card,2022.2.4,Win32,7.5030012,5c8cfc3772503f0001e9c965,64d2fd46c836a06233681665,64dc7eb1eb61e76232e2ecd3,,,,,,,decisionTrl,resources/DR.BMP,resources/DB.BMP,WildCard_Ex,0.329101563,-0.034179688,1,0,0,3.0866,optionRight,5,9885,5,11,0,11,0,1,,,,,,,,,,,,,,,,,,,,,,,,,,,,,,,,,,,,,,,
,,,,,,,,2023-08-16_08h46.25.561,HF_wild_card,2022.2.4,Win32,7.5030012,5c8cfc3772503f0001e9c965,64d2fd46c836a06233681665,64dc7eb1eb61e76232e2ecd3,,,,,,,ctch,resources/DG.BMP,resources/DP.BMP,Door4,0.399414063,-0.0546875,1,0,0,1.8065,optionRight,60,9945,5,12,0,12,0,1,,,,,,,,,,,,,,,,,,,,,,,,,,,,,,,,,,,,,,,
,,,,,,,,2023-08-16_08h46.25.561,HF_wild_card,2022.2.4,Win32,7.5030012,5c8cfc3772503f0001e9c965,64d2fd46c836a06233681665,64dc7eb1eb61e76232e2ecd3,,,,,,,ctch,resources/DP.BMP,resources/DG.BMP,Door4,-0.3984375,-0.067382813,1,0,0,2.744,optionLeft,60,10005,5,13,0,13,0,1,,,,,,,,,,,,,,,,,,,,,,,,,,,,,,,,,,,,,,,
,,,,,,,,2023-08-16_08h46.25.561,HF_wild_card,2022.2.4,Win32,7.5030012,5c8cfc3772503f0001e9c965,64d2fd46c836a06233681665,64dc7eb1eb61e76232e2ecd3,,,,,,,sngl,resources/Empty.png,resources/DBN.BMP,Door3,0.362304688,-0.017578125,1,0,0,1.0197,optionRight,70,10075,5,14,0,14,0,1,,,,,,,,,,,,,,,,,,,,,,,,,,,,,,,,,,,,,,,
,,,,,,,,2023-08-16_08h46.25.561,HF_wild_card,2022.2.4,Win32,7.5030012,5c8cfc3772503f0001e9c965,64d2fd46c836a06233681665,64dc7eb1eb61e76232e2ecd3,,,,,,,sngl,resources/DB.BMP,resources/Empty.png,WildCard_Ex,-0.362304688,-0.061523438,1,0,0,2.2243,optionLeft,5,10080,5,15,0,15,0,1,,,,,,,,,,,,,,,,,,,,,,,,,,,,,,,,,,,,,,,
,,,,,,,,2023-08-16_08h46.25.561,HF_wild_card,2022.2.4,Win32,7.5030012,5c8cfc3772503f0001e9c965,64d2fd46c836a06233681665,64dc7eb1eb61e76232e2ecd3,,,,,,,ctch,resources/DP.BMP,resources/DG.BMP,Door4,-0.372070313,-0.061523438,1,0,0,2.1545,optionLeft,80,10160,5,16,0,16,0,1,,,,,,,,,,,,,,,,,,,,,,,,,,,,,,,,,,,,,,,
,,,,,,,,2023-08-16_08h46.25.561,HF_wild_card,2022.2.4,Win32,7.5030012,5c8cfc3772503f0001e9c965,64d2fd46c836a06233681665,64dc7eb1eb61e76232e2ecd3,,,,,,,decisionTrl,resources/DR.BMP,resources/DG.BMP,Door1,0.389648438,-0.029296875,1,0,0,1.4645,optionRight,30,10190,5,17,0,17,0,1,,,,,,,,,,,,,,,,,,,,,,,,,,,,,,,,,,,,,,,
,,,,,,,,2023-08-16_08h46.25.561,HF_wild_card,2022.2.4,Win32,7.5030012,5c8cfc3772503f0001e9c965,64d2fd46c836a06233681665,64dc7eb1eb61e76232e2ecd3,,,,,,,decisionTrl,resources/DBN.BMP,resources/DP.BMP,Door3,-0.456054688,-0.020507813,1,0,0,1.2541,optionLeft,70,10260,5,18,0,18,0,1,,,,,,,,,,,,,,,,,,,,,,,,,,,,,,,,,,,,,,,
,,,,,,,,2023-08-16_08h46.25.561,HF_wild_card,2022.2.4,Win32,7.5030012,5c8cfc3772503f0001e9c965,64d2fd46c836a06233681665,64dc7eb1eb61e76232e2ecd3,,,,,,,ctch,resources/DR.BMP,resources/DBN.BMP,Door3,0.428710938,-0.004882813,1,0,0,1.0712,optionRight,70,10330,5,19,0,19,0,1,,,,,,,,,,,,,,,,,,,,,,,,,,,,,,,,,,,,,,,
,,,,,,,,2023-08-16_08h46.25.561,HF_wild_card,2022.2.4,Win32,7.5030012,5c8cfc3772503f0001e9c965,64d2fd46c836a06233681665,64dc7eb1eb61e76232e2ecd3,,,,,,,decisionTrl,resources/DBN.BMP,resources/DB.BMP,Door3,-0.366210938,-0.01953125,1,0,0,1.0766,optionLeft,70,10400,5,20,0,20,0,1,,,,,,,,,,,,,,,,,,,,,,,,,,,,,,,,,,,,,,,
,,,,,,,,2023-08-16_08h46.25.561,HF_wild_card,2022.2.4,Win32,7.5030012,5c8cfc3772503f0001e9c965,64d2fd46c836a06233681665,64dc7eb1eb61e76232e2ecd3,,,,,,,ctch,resources/DR.BMP,resources/DBN.BMP,Door3,0.350585938,-0.00390625,1,0,0,0.9037,optionRight,70,10470,5,21,0,21,0,1,,,,,,,,,,,,,,,,,,,,,,,,,,,,,,,,,,,,,,,
,,,,,,,,2023-08-16_08h46.25.561,HF_wild_card,2022.2.4,Win32,7.5030012,5c8cfc3772503f0001e9c965,64d2fd46c836a06233681665,64dc7eb1eb61e76232e2ecd3,,,,,,,decisionTrl,resources/DBN.BMP,resources/DP.BMP,Door3,-0.407226563,-0.012695313,1,0,0,0.896,optionLeft,70,10540,5,22,0,22,0,1,,,,,,,,,,,,,,,,,,,,,,,,,,,,,,,,,,,,,,,
,,,,,,,,2023-08-16_08h46.25.561,HF_wild_card,2022.2.4,Win32,7.5030012,5c8cfc3772503f0001e9c965,64d2fd46c836a06233681665,64dc7eb1eb61e76232e2ecd3,,,,,,,ctch,resources/DBN.BMP,resources/DR.BMP,Door3,-0.342773438,-0.012695313,1,0,0,1.8063,optionLeft,70,10610,5,23,0,23,0,1,,,,,,,,,,,,,,,,,,,,,,,,,,,,,,,,,,,,,,,
,,,,,,,,2023-08-16_08h46.25.561,HF_wild_card,2022.2.4,Win32,7.5030012,5c8cfc3772503f0001e9c965,64d2fd46c836a06233681665,64dc7eb1eb61e76232e2ecd3,,,,,,,decisionTrl,resources/DP.BMP,resources/DB.BMP,Door4,-0.379882813,-0.041015625,1,0,0,1.8051,optionLeft,60,10670,5,24,0,24,0,1,,,,,,,,,,,,,,,,,,,,,,,,,,,,,,,,,,,,,,,
,,,,,,,,2023-08-16_08h46.25.561,HF_wild_card,2022.2.4,Win32,7.5030012,5c8cfc3772503f0001e9c965,64d2fd46c836a06233681665,64dc7eb1eb61e76232e2ecd3,,,,,,,decisionTrl,resources/DG.BMP,resources/DR.BMP,Door1,-0.37890625,-0.026367188,1,0,0,2.1619,optionLeft,30,10700,5,25,0,25,0,1,,,,,,,,,,,,,,,,,,,,,,,,,,,,,,,,,,,,,,,
,,,,,,,,2023-08-16_08h46.25.561,HF_wild_card,2022.2.4,Win32,7.5030012,5c8cfc3772503f0001e9c965,64d2fd46c836a06233681665,64dc7eb1eb61e76232e2ecd3,,,,,,,decisionTrl,resources/DB.BMP,resources/DG.BMP,Door1,0.446289063,-0.045898438,1,0,0,2.6077,optionRight,30,10730,5,26,0,26,0,1,,,,,,,,,,,,,,,,,,,,,,,,,,,,,,,,,,,,,,,
,,,,,,,,2023-08-16_08h46.25.561,HF_wild_card,2022.2.4,Win32,7.5030012,5c8cfc3772503f0001e9c965,64d2fd46c836a06233681665,64dc7eb1eb61e76232e2ecd3,,,,,,,decisionTrl,resources/DBN.BMP,resources/DP.BMP,Door3,-0.403320313,-0.0234375,1,0,0,1.0834,optionLeft,70,10800,5,27,0,27,0,1,,,,,,,,,,,,,,,,,,,,,,,,,,,,,,,,,,,,,,,
,,,,,,,,2023-08-16_08h46.25.561,HF_wild_card,2022.2.4,Win32,7.5030012,5c8cfc3772503f0001e9c965,64d2fd46c836a06233681665,64dc7eb1eb61e76232e2ecd3,,,,,,,sngl,resources/DB.BMP,resources/Empty.png,WildCard_Ex,-0.466796875,-0.012695313,1,0,0,1.1056,optionLeft,95,10895,5,28,0,28,0,1,,,,,,,,,,,,,,,,,,,,,,,,,,,,,,,,,,,,,,,
,,,,,,,,2023-08-16_08h46.25.561,HF_wild_card,2022.2.4,Win32,7.5030012,5c8cfc3772503f0001e9c965,64d2fd46c836a06233681665,64dc7eb1eb61e76232e2ecd3,,,,,,,decisionTrl,resources/DR.BMP,resources/DG.BMP,Door1,0.362304688,-0.021484375,1,0,0,1.6839,optionRight,30,10925,5,29,0,29,0,1,,,,,,,,,,,,,,,,,,,,,,,,,,,,,,,,,,,,,,,
,,,,,,,,2023-08-16_08h46.25.561,HF_wild_card,2022.2.4,Win32,7.5030012,5c8cfc3772503f0001e9c965,64d2fd46c836a06233681665,64dc7eb1eb61e76232e2ecd3,,,,,,,sngl,resources/DG.BMP,resources/Empty.png,Door1,-0.310546875,-0.029296875,1,0,0,0.957,optionLeft,30,10955,5,30,0,30,0,1,,,,,,,,,,,,,,,,,,,,,,,,,,,,,,,,,,,,,,,
,,,,,,,,2023-08-16_08h46.25.561,HF_wild_card,2022.2.4,Win32,7.5030012,5c8cfc3772503f0001e9c965,64d2fd46c836a06233681665,64dc7eb1eb61e76232e2ecd3,,,,,,,decisionTrl,resources/DR.BMP,resources/DG.BMP,Door1,0.442382813,-0.026367188,1,0,0,1.6065,optionRight,30,10985,5,31,0,31,0,1,,,,,,,,,,,,,,,,,,,,,,,,,,,,,,,,,,,,,,,
,,,,,,,,2023-08-16_08h46.25.561,HF_wild_card,2022.2.4,Win32,7.5030012,5c8cfc3772503f0001e9c965,64d2fd46c836a06233681665,64dc7eb1eb61e76232e2ecd3,,,,,,,decisionTrl,resources/DP.BMP,resources/DBN.BMP,Door3,0.462890625,-0.013671875,1,0,0,1.0736,optionRight,70,11055,5,32,0,32,0,1,,,,,,,,,,,,,,,,,,,,,,,,,,,,,,,,,,,,,,,
,,,,,,,,2023-08-16_08h46.25.561,HF_wild_card,2022.2.4,Win32,7.5030012,5c8cfc3772503f0001e9c965,64d2fd46c836a06233681665,64dc7eb1eb61e76232e2ecd3,,,,,,,decisionTrl,resources/DP.BMP,resources/DBN.BMP,Door3,0.366210938,-0.017578125,1,0,0,0.8984,optionRight,70,11125,5,33,0,33,0,1,,,,,,,,,,,,,,,,,,,,,,,,,,,,,,,,,,,,,,,
,,,,,,,,2023-08-16_08h46.25.561,HF_wild_card,2022.2.4,Win32,7.5030012,5c8cfc3772503f0001e9c965,64d2fd46c836a06233681665,64dc7eb1eb61e76232e2ecd3,,,,,,,decisionTrl,resources/DG.BMP,resources/DR.BMP,Door1,-0.366210938,-0.015625,1,0,0,1.7957,optionLeft,30,11155,5,34,0,34,0,1,,,,,,,,,,,,,,,,,,,,,,,,,,,,,,,,,,,,,,,
,,,,,,,,2023-08-16_08h46.25.561,HF_wild_card,2022.2.4,Win32,7.5030012,5c8cfc3772503f0001e9c965,64d2fd46c836a06233681665,64dc7eb1eb61e76232e2ecd3,,,,,,,decisionTrl,resources/DB.BMP,resources/DBN.BMP,Door3,0.399414063,-0.013671875,1,0,0,1.2533,optionRight,70,11225,5,35,0,35,0,1,,,,,,,,,,,,,,,,,,,,,,,,,,,,,,,,,,,,,,,
,,,,,,,,2023-08-16_08h46.25.561,HF_wild_card,2022.2.4,Win32,7.5030012,5c8cfc3772503f0001e9c965,64d2fd46c836a06233681665,64dc7eb1eb61e76232e2ecd3,,,,,,,decisionTrl,resources/DBN.BMP,resources/DP.BMP,Door3,-0.39453125,-0.00390625,1,0,0,1.6237,optionLeft,70,11295,5,36,0,36,0,1,,,,,,,,,,,,,,,,,,,,,,,,,,,,,,,,,,,,,,,
,,,,,,,,2023-08-16_08h46.25.561,HF_wild_card,2022.2.4,Win32,7.5030012,5c8cfc3772503f0001e9c965,64d2fd46c836a06233681665,64dc7eb1eb61e76232e2ecd3,,,,,,,decisionTrl,resources/DG.BMP,resources/DR.BMP,Door1,-0.384765625,-0.022460938,1,0,0,2.8667,optionLeft,30,11325,5,37,0,37,0,1,,,,,,,,,,,,,,,,,,,,,,,,,,,,,,,,,,,,,,,
,,,,,,,,2023-08-16_08h46.25.561,HF_wild_card,2022.2.4,Win32,7.5030012,5c8cfc3772503f0001e9c965,64d2fd46c836a06233681665,64dc7eb1eb61e76232e2ecd3,,,,,,,decisionTrl,resources/DB.BMP,resources/DR.BMP,Door2,0.291992188,-0.034179688,1,0,0,3.2199,optionRight,20,11345,5,38,0,38,0,1,,,,,,,,,,,,,,,,,,,,,,,,,,,,,,,,,,,,,,,
,,,,,,,,2023-08-16_08h46.25.561,HF_wild_card,2022.2.4,Win32,7.5030012,5c8cfc3772503f0001e9c965,64d2fd46c836a06233681665,64dc7eb1eb61e76232e2ecd3,,,,,,,decisionTrl,resources/DR.BMP,resources/DG.BMP,Door1,0.375976563,-0.016601563,1,0,0,1.2487,optionRight,30,11375,5,39,0,39,0,1,,,,,,,,,,,,,,,,,,,,,,,,,,,,,,,,,,,,,,,
,,,,,,,,2023-08-16_08h46.25.561,HF_wild_card,2022.2.4,Win32,7.5030012,5c8cfc3772503f0001e9c965,64d2fd46c836a06233681665,64dc7eb1eb61e76232e2ecd3,,,,,,,sngl,resources/DR.BMP,resources/Empty.png,Door2,-0.34375,-0.040039063,1,0,0,1.1167,optionLeft,40,11415,5,40,0,40,0,1,,,,,,,,,,,,,,,,,,,,,,,,,,,,,,,,,,,,,,,
,,,,,,,,2023-08-16_08h46.25.561,HF_wild_card,2022.2.4,Win32,7.5030012,5c8cfc3772503f0001e9c965,64d2fd46c836a06233681665,64dc7eb1eb61e76232e2ecd3,,,,,,,ctch,resources/DBN.BMP,resources/DR.BMP,Door3,-0.530273438,-0.013671875,1,0,0,1.254,optionLeft,70,11485,5,41,0,41,0,1,,,,,,,,,,,,,,,,,,,,,,,,,,,,,,,,,,,,,,,
,,,,,,,,2023-08-16_08h46.25.561,HF_wild_card,2022.2.4,Win32,7.5030012,5c8cfc3772503f0001e9c965,64d2fd46c836a06233681665,64dc7eb1eb61e76232e2ecd3,,,,,,,sngl,resources/Empty.png,resources/DB.BMP,WildCard_Ex,0.342773438,-0.025390625,1,0,0,1.1104,optionRight,95,11580,5,42,0,42,0,1,,,,,,,,,,,,,,,,,,,,,,,,,,,,,,,,,,,,,,,
,,,,,,,,2023-08-16_08h46.25.561,HF_wild_card,2022.2.4,Win32,7.5030012,5c8cfc3772503f0001e9c965,64d2fd46c836a06233681665,64dc7eb1eb61e76232e2ecd3,,,,,,,decisionTrl,resources/DG.BMP,resources/DR.BMP,Door1,-0.34765625,-0.026367188,1,0,0,1.4304,optionLeft,30,11610,5,43,0,43,0,1,,,,,,,,,,,,,,,,,,,,,,,,,,,,,,,,,,,,,,,
,,,,,,,,2023-08-16_08h46.25.561,HF_wild_card,2022.2.4,Win32,7.5030012,5c8cfc3772503f0001e9c965,64d2fd46c836a06233681665,64dc7eb1eb61e76232e2ecd3,,,,,,,,,,,,,,,,,,,,,,,,,,4,0,4,0,1,,,,,,,,,,,,,,,,,,,,,,,,,,,,,,,,,,
,,,,,,,,2023-08-16_08h46.25.561,HF_wild_card,2022.2.4,Win32,7.5030012,5c8cfc3772503f0001e9c965,64d2fd46c836a06233681665,64dc7eb1eb61e76232e2ecd3,,,,,,,decisionTrl,resources/DBN.BMP,resources/DP.BMP,Door3,-0.334960938,-0.016601563,1,0,0,1.2482,optionLeft,70,11680,6,0,0,0,0,1,,,,,,,,,,,,,,,,,,,,,,,,,,,,,,,,,,,,,,,
,,,,,,,,2023-08-16_08h46.25.561,HF_wild_card,2022.2.4,Win32,7.5030012,5c8cfc3772503f0001e9c965,64d2fd46c836a06233681665,64dc7eb1eb61e76232e2ecd3,,,,,,,ctch,resources/DBN.BMP,resources/DR.BMP,Door3,-0.3515625,-0.022460938,1,0,0,0.8912,optionLeft,70,11750,6,1,0,1,0,1,,,,,,,,,,,,,,,,,,,,,,,,,,,,,,,,,,,,,,,
,,,,,,,,2023-08-16_08h46.25.561,HF_wild_card,2022.2.4,Win32,7.5030012,5c8cfc3772503f0001e9c965,64d2fd46c836a06233681665,64dc7eb1eb61e76232e2ecd3,,,,,,,sngl,resources/Empty.png,resources/DG.BMP,Door1,0.45703125,-0.029296875,1,0,0,1.4265,optionRight,30,11780,6,2,0,2,0,1,,,,,,,,,,,,,,,,,,,,,,,,,,,,,,,,,,,,,,,
,,,,,,,,2023-08-16_08h46.25.561,HF_wild_card,2022.2.4,Win32,7.5030012,5c8cfc3772503f0001e9c965,64d2fd46c836a06233681665,64dc7eb1eb61e76232e2ecd3,,,,,,,decisionTrl,resources/DBN.BMP,resources/DP.BMP,Door3,-0.358398438,-0.018554688,1,0,0,1.5602,optionLeft,70,11850,6,3,0,3,0,1,,,,,,,,,,,,,,,,,,,,,,,,,,,,,,,,,,,,,,,
,,,,,,,,2023-08-16_08h46.25.561,HF_wild_card,2022.2.4,Win32,7.5030012,5c8cfc3772503f0001e9c965,64d2fd46c836a06233681665,64dc7eb1eb61e76232e2ecd3,,,,,,,decisionTrl,resources/DP.BMP,resources/DB.BMP,WildCard_Ex,0.345703125,-0.029296875,1,0,0,1.4331,optionRight,95,11945,6,4,0,4,0,1,,,,,,,,,,,,,,,,,,,,,,,,,,,,,,,,,,,,,,,
,,,,,,,,2023-08-16_08h46.25.561,HF_wild_card,2022.2.4,Win32,7.5030012,5c8cfc3772503f0001e9c965,64d2fd46c836a06233681665,64dc7eb1eb61e76232e2ecd3,,,,,,,ctch,resources/DBN.BMP,resources/DR.BMP,Door3,-0.404296875,-0.020507813,1,0,0,1.8171,optionLeft,70,12015,6,5,0,5,0,1,,,,,,,,,,,,,,,,,,,,,,,,,,,,,,,,,,,,,,,
,,,,,,,,2023-08-16_08h46.25.561,HF_wild_card,2022.2.4,Win32,7.5030012,5c8cfc3772503f0001e9c965,64d2fd46c836a06233681665,64dc7eb1eb61e76232e2ecd3,,,,,,,sngl,resources/DG.BMP,resources/Empty.png,Door1,-0.450195313,0.000976563,1,0,0,0.9478,optionLeft,30,12045,6,6,0,6,0,1,,,,,,,,,,,,,,,,,,,,,,,,,,,,,,,,,,,,,,,
,,,,,,,,2023-08-16_08h46.25.561,HF_wild_card,2022.2.4,Win32,7.5030012,5c8cfc3772503f0001e9c965,64d2fd46c836a06233681665,64dc7eb1eb61e76232e2ecd3,,,,,,,sngl,resources/Empty.png,resources/DBN.BMP,Door3,0.375976563,-0.010742188,1,0,0,0.7908,optionRight,70,12115,6,7,0,7,0,1,,,,,,,,,,,,,,,,,,,,,,,,,,,,,,,,,,,,,,,
,,,,,,,,2023-08-16_08h46.25.561,HF_wild_card,2022.2.4,Win32,7.5030012,5c8cfc3772503f0001e9c965,64d2fd46c836a06233681665,64dc7eb1eb61e76232e2ecd3,,,,,,,decisionTrl,resources/DP.BMP,resources/DBN.BMP,Door3,0.403320313,-0.020507813,1,0,0,1.0922,optionRight,70,12185,6,8,0,8,0,1,,,,,,,,,,,,,,,,,,,,,,,,,,,,,,,,,,,,,,,
,,,,,,,,2023-08-16_08h46.25.561,HF_wild_card,2022.2.4,Win32,7.5030012,5c8cfc3772503f0001e9c965,64d2fd46c836a06233681665,64dc7eb1eb61e76232e2ecd3,,,,,,,decisionTrl,resources/DBN.BMP,resources/DB.BMP,Door3,-0.206054688,-0.013671875,1,0,0,0.9101,optionLeft,70,12255,6,9,0,9,0,1,,,,,,,,,,,,,,,,,,,,,,,,,,,,,,,,,,,,,,,
,,,,,,,,2023-08-16_08h46.25.561,HF_wild_card,2022.2.4,Win32,7.5030012,5c8cfc3772503f0001e9c965,64d2fd46c836a06233681665,64dc7eb1eb61e76232e2ecd3,,,,,,,decisionTrl,resources/DB.BMP,resources/DG.BMP,WildCard_Ex,-0.418945313,-0.024414063,1,0,0,1.9658,optionLeft,95,12350,6,10,0,10,0,1,,,,,,,,,,,,,,,,,,,,,,,,,,,,,,,,,,,,,,,
,,,,,,,,2023-08-16_08h46.25.561,HF_wild_card,2022.2.4,Win32,7.5030012,5c8cfc3772503f0001e9c965,64d2fd46c836a06233681665,64dc7eb1eb61e76232e2ecd3,,,,,,,sngl,resources/DB.BMP,resources/Empty.png,WildCard_Ex,-0.362304688,-0.0078125,1,0,0,1.1054,optionLeft,5,12355,6,11,0,11,0,1,,,,,,,,,,,,,,,,,,,,,,,,,,,,,,,,,,,,,,,
,,,,,,,,2023-08-16_08h46.25.561,HF_wild_card,2022.2.4,Win32,7.5030012,5c8cfc3772503f0001e9c965,64d2fd46c836a06233681665,64dc7eb1eb61e76232e2ecd3,,,,,,,sngl,resources/DB.BMP,resources/Empty.png,WildCard_Ex,-0.486328125,-0.022460938,1,0,0,0.9646,optionLeft,95,12450,6,12,0,12,0,1,,,,,,,,,,,,,,,,,,,,,,,,,,,,,,,,,,,,,,,
,,,,,,,,2023-08-16_08h46.25.561,HF_wild_card,2022.2.4,Win32,7.5030012,5c8cfc3772503f0001e9c965,64d2fd46c836a06233681665,64dc7eb1eb61e76232e2ecd3,,,,,,,ctch,resources/DG.BMP,resources/DP.BMP,Door4,0.298828125,-0.033203125,1,0,0,5.3727,optionRight,60,12510,6,13,0,13,0,1,,,,,,,,,,,,,,,,,,,,,,,,,,,,,,,,,,,,,,,
,,,,,,,,2023-08-16_08h46.25.561,HF_wild_card,2022.2.4,Win32,7.5030012,5c8cfc3772503f0001e9c965,64d2fd46c836a06233681665,64dc7eb1eb61e76232e2ecd3,,,,,,,sngl,resources/Empty.png,resources/DB.BMP,WildCard_Ex,0.317382813,-0.053710938,1,0,0,1.2676,optionRight,5,12515,6,14,0,14,0,1,,,,,,,,,,,,,,,,,,,,,,,,,,,,,,,,,,,,,,,
,,,,,,,,2023-08-16_08h46.25.561,HF_wild_card,2022.2.4,Win32,7.5030012,5c8cfc3772503f0001e9c965,64d2fd46c836a06233681665,64dc7eb1eb61e76232e2ecd3,,,,,,,decisionTrl,resources/DR.BMP,resources/DG.BMP,Door1,0.358398438,-0.043945313,1,0,0,1.7895,optionRight,30,12545,6,15,0,15,0,1,,,,,,,,,,,,,,,,,,,,,,,,,,,,,,,,,,,,,,,
,,,,,,,,2023-08-16_08h46.25.561,HF_wild_card,2022.2.4,Win32,7.5030012,5c8cfc3772503f0001e9c965,64d2fd46c836a06233681665,64dc7eb1eb61e76232e2ecd3,,,,,,,decisionTrl,resources/DR.BMP,resources/DB.BMP,WildCard_Ex,0.455078125,-0.056640625,1,0,0,0.8979,optionRight,5,12550,6,16,0,16,0,1,,,,,,,,,,,,,,,,,,,,,,,,,,,,,,,,,,,,,,,
,,,,,,,,2023-08-16_08h46.25.561,HF_wild_card,2022.2.4,Win32,7.5030012,5c8cfc3772503f0001e9c965,64d2fd46c836a06233681665,64dc7eb1eb61e76232e2ecd3,,,,,,,decisionTrl,resources/DG.BMP,resources/DR.BMP,Door1,-0.44140625,0.00390625,1,0,0,1.6428,optionLeft,30,12580,6,17,0,17,0,1,,,,,,,,,,,,,,,,,,,,,,,,,,,,,,,,,,,,,,,
,,,,,,,,2023-08-16_08h46.25.561,HF_wild_card,2022.2.4,Win32,7.5030012,5c8cfc3772503f0001e9c965,64d2fd46c836a06233681665,64dc7eb1eb61e76232e2ecd3,,,,,,,decisionTrl,resources/DP.BMP,resources/DBN.BMP,Door3,0.375,-0.013671875,1,0,0,1.7975,optionRight,70,12650,6,18,0,18,0,1,,,,,,,,,,,,,,,,,,,,,,,,,,,,,,,,,,,,,,,
,,,,,,,,2023-08-16_08h46.25.561,HF_wild_card,2022.2.4,Win32,7.5030012,5c8cfc3772503f0001e9c965,64d2fd46c836a06233681665,64dc7eb1eb61e76232e2ecd3,,,,,,,ctch,resources/DR.BMP,resources/DBN.BMP,Door3,0.34375,-0.00390625,1,0,0,0.8949,optionRight,70,12720,6,19,0,19,0,1,,,,,,,,,,,,,,,,,,,,,,,,,,,,,,,,,,,,,,,
,,,,,,,,2023-08-16_08h46.25.561,HF_wild_card,2022.2.4,Win32,7.5030012,5c8cfc3772503f0001e9c965,64d2fd46c836a06233681665,64dc7eb1eb61e76232e2ecd3,,,,,,,ctch,resources/DG.BMP,resources/DP.BMP,Door4,0.330078125,-0.049804688,1,0,0,1.7975,optionRight,60,12780,6,20,0,20,0,1,,,,,,,,,,,,,,,,,,,,,,,,,,,,,,,,,,,,,,,
,,,,,,,,2023-08-16_08h46.25.561,HF_wild_card,2022.2.4,Win32,7.5030012,5c8cfc3772503f0001e9c965,64d2fd46c836a06233681665,64dc7eb1eb61e76232e2ecd3,,,,,,,decisionTrl,resources/DG.BMP,resources/DB.BMP,WildCard_Ex,0.45703125,-0.045898438,1,0,0,1.281,optionRight,5,12785,6,21,0,21,0,1,,,,,,,,,,,,,,,,,,,,,,,,,,,,,,,,,,,,,,,
,,,,,,,,2023-08-16_08h46.25.561,HF_wild_card,2022.2.4,Win32,7.5030012,5c8cfc3772503f0001e9c965,64d2fd46c836a06233681665,64dc7eb1eb61e76232e2ecd3,,,,,,,decisionTrl,resources/DR.BMP,resources/DG.BMP,Door1,0.44921875,-0.034179688,1,0,0,1.0714,optionRight,30,12815,6,22,0,22,0,1,,,,,,,,,,,,,,,,,,,,,,,,,,,,,,,,,,,,,,,
,,,,,,,,2023-08-16_08h46.25.561,HF_wild_card,2022.2.4,Win32,7.5030012,5c8cfc3772503f0001e9c965,64d2fd46c836a06233681665,64dc7eb1eb61e76232e2ecd3,,,,,,,ctch,resources/DP.BMP,resources/DG.BMP,Door4,-0.362304688,-0.040039063,1,0,0,1.9703,optionLeft,60,12875,6,23,0,23,0,1,,,,,,,,,,,,,,,,,,,,,,,,,,,,,,,,,,,,,,,
,,,,,,,,2023-08-16_08h46.25.561,HF_wild_card,2022.2.4,Win32,7.5030012,5c8cfc3772503f0001e9c965,64d2fd46c836a06233681665,64dc7eb1eb61e76232e2ecd3,,,,,,,sngl,resources/DP.BMP,resources/Empty.png,Door4,-0.387695313,-0.049804688,1,0,0,2.2166,optionLeft,60,12935,6,24,0,24,0,1,,,,,,,,,,,,,,,,,,,,,,,,,,,,,,,,,,,,,,,
,,,,,,,,2023-08-16_08h46.25.561,HF_wild_card,2022.2.4,Win32,7.5030012,5c8cfc3772503f0001e9c965,64d2fd46c836a06233681665,64dc7eb1eb61e76232e2ecd3,,,,,,,sngl,resources/DBN.BMP,resources/Empty.png,Door3,-0.376953125,-0.004882813,1,0,0,1.105,optionLeft,70,13005,6,25,0,25,0,1,,,,,,,,,,,,,,,,,,,,,,,,,,,,,,,,,,,,,,,
,,,,,,,,2023-08-16_08h46.25.561,HF_wild_card,2022.2.4,Win32,7.5030012,5c8cfc3772503f0001e9c965,64d2fd46c836a06233681665,64dc7eb1eb61e76232e2ecd3,,,,,,,sngl,resources/Empty.png,resources/DP.BMP,Door4,0.356445313,-0.03515625,1,0,0,0.9447,optionRight,80,13085,6,26,0,26,0,1,,,,,,,,,,,,,,,,,,,,,,,,,,,,,,,,,,,,,,,
,,,,,,,,2023-08-16_08h46.25.561,HF_wild_card,2022.2.4,Win32,7.5030012,5c8cfc3772503f0001e9c965,64d2fd46c836a06233681665,64dc7eb1eb61e76232e2ecd3,,,,,,,decisionTrl,resources/DR.BMP,resources/DG.BMP,Door1,0.360351563,-0.021484375,1,0,0,1.2614,optionRight,30,13115,6,27,0,27,0,1,,,,,,,,,,,,,,,,,,,,,,,,,,,,,,,,,,,,,,,
,,,,,,,,2023-08-16_08h46.25.561,HF_wild_card,2022.2.4,Win32,7.5030012,5c8cfc3772503f0001e9c965,64d2fd46c836a06233681665,64dc7eb1eb61e76232e2ecd3,,,,,,,decisionTrl,resources/DR.BMP,resources/DG.BMP,Door1,0.466796875,-0.021484375,1,0,0,1.4519,optionRight,30,13145,6,28,0,28,0,1,,,,,,,,,,,,,,,,,,,,,,,,,,,,,,,,,,,,,,,
,,,,,,,,2023-08-16_08h46.25.561,HF_wild_card,2022.2.4,Win32,7.5030012,5c8cfc3772503f0001e9c965,64d2fd46c836a06233681665,64dc7eb1eb61e76232e2ecd3,,,,,,,sngl,resources/DR.BMP,resources/Empty.png,Door2,-0.392578125,-0.020507813,1,0,0,0.949,optionLeft,20,13165,6,29,0,29,0,1,,,,,,,,,,,,,,,,,,,,,,,,,,,,,,,,,,,,,,,
,,,,,,,,2023-08-16_08h46.25.561,HF_wild_card,2022.2.4,Win32,7.5030012,5c8cfc3772503f0001e9c965,64d2fd46c836a06233681665,64dc7eb1eb61e76232e2ecd3,,,,,,,ctch,resources/DR.BMP,resources/DBN.BMP,Door3,0.284179688,-0.021484375,1,0,0,1.1074,optionRight,70,13235,6,30,0,30,0,1,,,,,,,,,,,,,,,,,,,,,,,,,,,,,,,,,,,,,,,
,,,,,,,,2023-08-16_08h46.25.561,HF_wild_card,2022.2.4,Win32,7.5030012,5c8cfc3772503f0001e9c965,64d2fd46c836a06233681665,64dc7eb1eb61e76232e2ecd3,,,,,,,sngl,resources/Empty.png,resources/DB.BMP,WildCard_Ex,0.3828125,-0.041992188,1,0,0,1.1261,optionRight,95,13330,6,31,0,31,0,1,,,,,,,,,,,,,,,,,,,,,,,,,,,,,,,,,,,,,,,
,,,,,,,,2023-08-16_08h46.25.561,HF_wild_card,2022.2.4,Win32,7.5030012,5c8cfc3772503f0001e9c965,64d2fd46c836a06233681665,64dc7eb1eb61e76232e2ecd3,,,,,,,decisionTrl,resources/DG.BMP,resources/DR.BMP,Door1,-0.34765625,-0.01953125,1,0,0,2.1598,optionLeft,30,13360,6,32,0,32,0,1,,,,,,,,,,,,,,,,,,,,,,,,,,,,,,,,,,,,,,,
,,,,,,,,2023-08-16_08h46.25.561,HF_wild_card,2022.2.4,Win32,7.5030012,5c8cfc3772503f0001e9c965,64d2fd46c836a06233681665,64dc7eb1eb61e76232e2ecd3,,,,,,,decisionTrl,resources/DB.BMP,resources/DBN.BMP,Door3,0.407226563,-0.03125,1,0,0,2.8583,optionRight,70,13430,6,33,0,33,0,1,,,,,,,,,,,,,,,,,,,,,,,,,,,,,,,,,,,,,,,
,,,,,,,,2023-08-16_08h46.25.561,HF_wild_card,2022.2.4,Win32,7.5030012,5c8cfc3772503f0001e9c965,64d2fd46c836a06233681665,64dc7eb1eb61e76232e2ecd3,,,,,,,ctch,resources/DP.BMP,resources/DG.BMP,Door1,0.369140625,-0.008789063,1,0,0,1.0716,optionRight,30,13460,6,34,0,34,0,1,,,,,,,,,,,,,,,,,,,,,,,,,,,,,,,,,,,,,,,
,,,,,,,,2023-08-16_08h46.25.561,HF_wild_card,2022.2.4,Win32,7.5030012,5c8cfc3772503f0001e9c965,64d2fd46c836a06233681665,64dc7eb1eb61e76232e2ecd3,,,,,,,decisionTrl,resources/DP.BMP,resources/DBN.BMP,Door3,0.422851563,-0.0390625,1,0,0,1.0262,optionRight,70,13530,6,35,0,35,0,1,,,,,,,,,,,,,,,,,,,,,,,,,,,,,,,,,,,,,,,
,,,,,,,,2023-08-16_08h46.25.561,HF_wild_card,2022.2.4,Win32,7.5030012,5c8cfc3772503f0001e9c965,64d2fd46c836a06233681665,64dc7eb1eb61e76232e2ecd3,,,,,,,decisionTrl,resources/DBN.BMP,resources/DP.BMP,Door3,-0.37109375,-0.029296875,1,0,0,1.4573,optionLeft,70,13600,6,36,0,36,0,1,,,,,,,,,,,,,,,,,,,,,,,,,,,,,,,,,,,,,,,
,,,,,,,,2023-08-16_08h46.25.561,HF_wild_card,2022.2.4,Win32,7.5030012,5c8cfc3772503f0001e9c965,64d2fd46c836a06233681665,64dc7eb1eb61e76232e2ecd3,,,,,,,decisionTrl,resources/DB.BMP,resources/DR.BMP,WildCard_Ex,-0.438476563,-0.026367188,1,0,0,3.2247,optionLeft,95,13695,6,37,0,37,0,1,,,,,,,,,,,,,,,,,,,,,,,,,,,,,,,,,,,,,,,
,,,,,,,,2023-08-16_08h46.25.561,HF_wild_card,2022.2.4,Win32,7.5030012,5c8cfc3772503f0001e9c965,64d2fd46c836a06233681665,64dc7eb1eb61e76232e2ecd3,,,,,,,decisionTrl,resources/DP.BMP,resources/DBN.BMP,Door3,0.375,0.006835938,1,0,0,1.4408,optionRight,70,13765,6,38,0,38,0,1,,,,,,,,,,,,,,,,,,,,,,,,,,,,,,,,,,,,,,,
,,,,,,,,2023-08-16_08h46.25.561,HF_wild_card,2022.2.4,Win32,7.5030012,5c8cfc3772503f0001e9c965,64d2fd46c836a06233681665,64dc7eb1eb61e76232e2ecd3,,,,,,,decisionTrl,resources/DG.BMP,resources/DR.BMP,Door1,-0.352539063,-0.015625,1,0,0,2.1423,optionLeft,30,13795,6,39,0,39,0,1,,,,,,,,,,,,,,,,,,,,,,,,,,,,,,,,,,,,,,,
,,,,,,,,2023-08-16_08h46.25.561,HF_wild_card,2022.2.4,Win32,7.5030012,5c8cfc3772503f0001e9c965,64d2fd46c836a06233681665,64dc7eb1eb61e76232e2ecd3,,,,,,,decisionTrl,resources/DG.BMP,resources/DR.BMP,Door1,-0.377929688,-0.021484375,1,0,0,1.6102,optionLeft,30,13825,6,40,0,40,0,1,,,,,,,,,,,,,,,,,,,,,,,,,,,,,,,,,,,,,,,
,,,,,,,,2023-08-16_08h46.25.561,HF_wild_card,2022.2.4,Win32,7.5030012,5c8cfc3772503f0001e9c965,64d2fd46c836a06233681665,64dc7eb1eb61e76232e2ecd3,,,,,,,decisionTrl,resources/DBN.BMP,resources/DP.BMP,Door3,-0.387695313,-0.012695313,1,0,0,1.2526,optionLeft,70,13895,6,41,0,41,0,1,,,,,,,,,,,,,,,,,,,,,,,,,,,,,,,,,,,,,,,
,,,,,,,,2023-08-16_08h46.25.561,HF_wild_card,2022.2.4,Win32,7.5030012,5c8cfc3772503f0001e9c965,64d2fd46c836a06233681665,64dc7eb1eb61e76232e2ecd3,,,,,,,sngl,resources/Empty.png,resources/DR.BMP,Door2,0.330078125,-0.024414063,1,0,0,1.1099,optionRight,40,13935,6,42,0,42,0,1,,,,,,,,,,,,,,,,,,,,,,,,,,,,,,,,,,,,,,,
,,,,,,,,2023-08-16_08h46.25.561,HF_wild_card,2022.2.4,Win32,7.5030012,5c8cfc3772503f0001e9c965,64d2fd46c836a06233681665,64dc7eb1eb61e76232e2ecd3,,,,,,,decisionTrl,resources/DB.BMP,resources/DP.BMP,Door4,0.357421875,-0.034179688,1,0,0,1.9687,optionRight,60,13995,6,43,0,43,0,1,,,,,,,,,,,,,,,,,,,,,,,,,,,,,,,,,,,,,,,
,,,,,,,,2023-08-16_08h46.25.561,HF_wild_card,2022.2.4,Win32,7.5030012,5c8cfc3772503f0001e9c965,64d2fd46c836a06233681665,64dc7eb1eb61e76232e2ecd3,,,,,,,,,,,,,,,,,,,,,,,,,,5,0,5,0,1,,,,,,,,,,,,,,,,,,,,,,,,,,,,,,,,,,
,,,,,,,,2023-08-16_08h46.25.561,HF_wild_card,2022.2.4,Win32,7.5030012,5c8cfc3772503f0001e9c965,64d2fd46c836a06233681665,64dc7eb1eb61e76232e2ecd3,,,,,,,ctch,resources/DP.BMP,resources/DG.BMP,Door4,-0.3984375,-0.05859375,1,0,0,3.3656,optionLeft,60,14055,7,0,0,0,0,1,,,,,,,,,,,,,,,,,,,,,,,,,,,,,,,,,,,,,,,
,,,,,,,,2023-08-16_08h46.25.561,HF_wild_card,2022.2.4,Win32,7.5030012,5c8cfc3772503f0001e9c965,64d2fd46c836a06233681665,64dc7eb1eb61e76232e2ecd3,,,,,,,decisionTrl,resources/DG.BMP,resources/DR.BMP,Door1,-0.415039063,-0.040039063,1,0,0,1.5925,optionLeft,30,14085,7,1,0,1,0,1,,,,,,,,,,,,,,,,,,,,,,,,,,,,,,,,,,,,,,,
,,,,,,,,2023-08-16_08h46.25.561,HF_wild_card,2022.2.4,Win32,7.5030012,5c8cfc3772503f0001e9c965,64d2fd46c836a06233681665,64dc7eb1eb61e76232e2ecd3,,,,,,,decisionTrl,resources/DP.BMP,resources/DBN.BMP,Door3,0.432617188,-0.05859375,1,0,0,1.4163,optionRight,70,14155,7,2,0,2,0,1,,,,,,,,,,,,,,,,,,,,,,,,,,,,,,,,,,,,,,,
,,,,,,,,2023-08-16_08h46.25.561,HF_wild_card,2022.2.4,Win32,7.5030012,5c8cfc3772503f0001e9c965,64d2fd46c836a06233681665,64dc7eb1eb61e76232e2ecd3,,,,,,,decisionTrl,resources/DR.BMP,resources/DG.BMP,Door1,0.391601563,-0.021484375,1,0,0,1.4191,optionRight,30,14185,7,3,0,3,0,1,,,,,,,,,,,,,,,,,,,,,,,,,,,,,,,,,,,,,,,
,,,,,,,,2023-08-16_08h46.25.561,HF_wild_card,2022.2.4,Win32,7.5030012,5c8cfc3772503f0001e9c965,64d2fd46c836a06233681665,64dc7eb1eb61e76232e2ecd3,,,,,,,decisionTrl,resources/DP.BMP,resources/DBN.BMP,Door3,0.374023438,-0.017578125,1,0,0,0.911,optionRight,70,14255,7,4,0,4,0,1,,,,,,,,,,,,,,,,,,,,,,,,,,,,,,,,,,,,,,,
,,,,,,,,2023-08-16_08h46.25.561,HF_wild_card,2022.2.4,Win32,7.5030012,5c8cfc3772503f0001e9c965,64d2fd46c836a06233681665,64dc7eb1eb61e76232e2ecd3,,,,,,,decisionTrl,resources/DBN.BMP,resources/DP.BMP,Door3,-0.369140625,-0.008789063,1,0,0,1.7703,optionLeft,70,14325,7,5,0,5,0,1,,,,,,,,,,,,,,,,,,,,,,,,,,,,,,,,,,,,,,,
,,,,,,,,2023-08-16_08h46.25.561,HF_wild_card,2022.2.4,Win32,7.5030012,5c8cfc3772503f0001e9c965,64d2fd46c836a06233681665,64dc7eb1eb61e76232e2ecd3,,,,,,,ctch,resources/DBN.BMP,resources/DR.BMP,Door3,-0.26171875,0.015625,1,0,0,1.9979,optionLeft,70,14395,7,6,0,6,0,1,,,,,,,,,,,,,,,,,,,,,,,,,,,,,,,,,,,,,,,
,,,,,,,,2023-08-16_08h46.25.561,HF_wild_card,2022.2.4,Win32,7.5030012,5c8cfc3772503f0001e9c965,64d2fd46c836a06233681665,64dc7eb1eb61e76232e2ecd3,,,,,,,ctch,resources/DR.BMP,resources/DBN.BMP,Door3,0.366210938,-0.016601563,1,0,0,2.1221,optionRight,70,14465,7,7,0,7,0,1,,,,,,,,,,,,,,,,,,,,,,,,,,,,,,,,,,,,,,,
,,,,,,,,2023-08-16_08h46.25.561,HF_wild_card,2022.2.4,Win32,7.5030012,5c8cfc3772503f0001e9c965,64d2fd46c836a06233681665,64dc7eb1eb61e76232e2ecd3,,,,,,,decisionTrl,resources/DR.BMP,resources/DG.BMP,Door1,0.423828125,-0.052734375,1,0,0,1.7753,optionRight,30,14495,7,8,0,8,0,1,,,,,,,,,,,,,,,,,,,,,,,,,,,,,,,,,,,,,,,
,,,,,,,,2023-08-16_08h46.25.561,HF_wild_card,2022.2.4,Win32,7.5030012,5c8cfc3772503f0001e9c965,64d2fd46c836a06233681665,64dc7eb1eb61e76232e2ecd3,,,,,,,decisionTrl,resources/DBN.BMP,resources/DP.BMP,Door3,-0.409179688,-0.0234375,1,0,0,1.2452,optionLeft,70,14565,7,9,0,9,0,1,,,,,,,,,,,,,,,,,,,,,,,,,,,,,,,,,,,,,,,
,,,,,,,,2023-08-16_08h46.25.561,HF_wild_card,2022.2.4,Win32,7.5030012,5c8cfc3772503f0001e9c965,64d2fd46c836a06233681665,64dc7eb1eb61e76232e2ecd3,,,,,,,decisionTrl,resources/DP.BMP,resources/DBN.BMP,Door3,0.380859375,-0.010742188,1,0,0,1.4239,optionRight,70,14635,7,10,0,10,0,1,,,,,,,,,,,,,,,,,,,,,,,,,,,,,,,,,,,,,,,
,,,,,,,,2023-08-16_08h46.25.561,HF_wild_card,2022.2.4,Win32,7.5030012,5c8cfc3772503f0001e9c965,64d2fd46c836a06233681665,64dc7eb1eb61e76232e2ecd3,,,,,,,decisionTrl,resources/DP.BMP,resources/DBN.BMP,Door3,0.411132813,-0.006835938,1,0,0,1.5915,optionRight,70,14705,7,11,0,11,0,1,,,,,,,,,,,,,,,,,,,,,,,,,,,,,,,,,,,,,,,
,,,,,,,,2023-08-16_08h46.25.561,HF_wild_card,2022.2.4,Win32,7.5030012,5c8cfc3772503f0001e9c965,64d2fd46c836a06233681665,64dc7eb1eb61e76232e2ecd3,,,,,,,decisionTrl,resources/DG.BMP,resources/DR.BMP,Door1,-0.390625,-0.020507813,1,0,0,1.4185,optionLeft,30,14735,7,12,0,12,0,1,,,,,,,,,,,,,,,,,,,,,,,,,,,,,,,,,,,,,,,
,,,,,,,,2023-08-16_08h46.25.561,HF_wild_card,2022.2.4,Win32,7.5030012,5c8cfc3772503f0001e9c965,64d2fd46c836a06233681665,64dc7eb1eb61e76232e2ecd3,,,,,,,ctch,resources/DP.BMP,resources/DG.BMP,Door4,-0.424804688,-0.02734375,1,0,0,2.6668,optionLeft,60,14795,7,13,0,13,0,1,,,,,,,,,,,,,,,,,,,,,,,,,,,,,,,,,,,,,,,
,,,,,,,,2023-08-16_08h46.25.561,HF_wild_card,2022.2.4,Win32,7.5030012,5c8cfc3772503f0001e9c965,64d2fd46c836a06233681665,64dc7eb1eb61e76232e2ecd3,,,,,,,decisionTrl,resources/DBN.BMP,resources/DP.BMP,Door3,-0.372070313,0,1,0,0,1.424,optionLeft,70,14865,7,14,0,14,0,1,,,,,,,,,,,,,,,,,,,,,,,,,,,,,,,,,,,,,,,
,,,,,,,,2023-08-16_08h46.25.561,HF_wild_card,2022.2.4,Win32,7.5030012,5c8cfc3772503f0001e9c965,64d2fd46c836a06233681665,64dc7eb1eb61e76232e2ecd3,,,,,,,ctch,resources/DG.BMP,resources/DP.BMP,Door4,0.393554688,-0.038085938,1,0,0,1.9505,optionRight,80,14945,7,15,0,15,0,1,,,,,,,,,,,,,,,,,,,,,,,,,,,,,,,,,,,,,,,
,,,,,,,,2023-08-16_08h46.25.561,HF_wild_card,2022.2.4,Win32,7.5030012,5c8cfc3772503f0001e9c965,64d2fd46c836a06233681665,64dc7eb1eb61e76232e2ecd3,,,,,,,ctch,resources/DBN.BMP,resources/DR.BMP,Door3,-0.40234375,-0.00390625,1,0,0,1.4153,optionLeft,70,15015,7,16,0,16,0,1,,,,,,,,,,,,,,,,,,,,,,,,,,,,,,,,,,,,,,,
,,,,,,,,2023-08-16_08h46.25.561,HF_wild_card,2022.2.4,Win32,7.5030012,5c8cfc3772503f0001e9c965,64d2fd46c836a06233681665,64dc7eb1eb61e76232e2ecd3,,,,,,,decisionTrl,resources/DBN.BMP,resources/DP.BMP,Door3,-0.362304688,0.004882813,1,0,0,2.3307,optionLeft,70,15085,7,17,0,17,0,1,,,,,,,,,,,,,,,,,,,,,,,,,,,,,,,,,,,,,,,
,,,,,,,,2023-08-16_08h46.25.561,HF_wild_card,2022.2.4,Win32,7.5030012,5c8cfc3772503f0001e9c965,64d2fd46c836a06233681665,64dc7eb1eb61e76232e2ecd3,,,,,,,decisionTrl,resources/DBN.BMP,resources/DP.BMP,Door3,-0.41796875,0.008789063,1,0,0,1.2414,optionLeft,70,15155,7,18,0,18,0,1,,,,,,,,,,,,,,,,,,,,,,,,,,,,,,,,,,,,,,,
,,,,,,,,2023-08-16_08h46.25.561,HF_wild_card,2022.2.4,Win32,7.5030012,5c8cfc3772503f0001e9c965,64d2fd46c836a06233681665,64dc7eb1eb61e76232e2ecd3,,,,,,,decisionTrl,resources/DR.BMP,resources/DG.BMP,Door1,0.436523438,-0.021484375,1,0,0,1.9555,optionRight,30,15185,7,19,0,19,0,1,,,,,,,,,,,,,,,,,,,,,,,,,,,,,,,,,,,,,,,
,,,,,,,,2023-08-16_08h46.25.561,HF_wild_card,2022.2.4,Win32,7.5030012,5c8cfc3772503f0001e9c965,64d2fd46c836a06233681665,64dc7eb1eb61e76232e2ecd3,,,,,,,ctch,resources/DR.BMP,resources/DBN.BMP,Door3,0.38671875,-0.02734375,1,0,0,1.0692,optionRight,70,15255,7,20,0,20,0,1,,,,,,,,,,,,,,,,,,,,,,,,,,,,,,,,,,,,,,,
,,,,,,,,2023-08-16_08h46.25.561,HF_wild_card,2022.2.4,Win32,7.5030012,5c8cfc3772503f0001e9c965,64d2fd46c836a06233681665,64dc7eb1eb61e76232e2ecd3,,,,,,,decisionTrl,resources/DBN.BMP,resources/DP.BMP,Door3,-0.37890625,-0.009765625,1,0,0,1.4243,optionLeft,70,15325,7,21,0,21,0,1,,,,,,,,,,,,,,,,,,,,,,,,,,,,,,,,,,,,,,,
,,,,,,,,2023-08-16_08h46.25.561,HF_wild_card,2022.2.4,Win32,7.5030012,5c8cfc3772503f0001e9c965,64d2fd46c836a06233681665,64dc7eb1eb61e76232e2ecd3,,,,,,,ctch,resources/DBN.BMP,resources/DR.BMP,Door3,-0.380859375,-0.012695313,1,0,0,1.967,optionLeft,70,15395,7,22,0,22,0,1,,,,,,,,,,,,,,,,,,,,,,,,,,,,,,,,,,,,,,,
,,,,,,,,2023-08-16_08h46.25.561,HF_wild_card,2022.2.4,Win32,7.5030012,5c8cfc3772503f0001e9c965,64d2fd46c836a06233681665,64dc7eb1eb61e76232e2ecd3,,,,,,,ctch,resources/DG.BMP,resources/DP.BMP,Door4,0.362304688,-0.05859375,1,0,0,1.7778,optionRight,60,15455,7,23,0,23,0,1,,,,,,,,,,,,,,,,,,,,,,,,,,,,,,,,,,,,,,,
,,,,,,,,2023-08-16_08h46.25.561,HF_wild_card,2022.2.4,Win32,7.5030012,5c8cfc3772503f0001e9c965,64d2fd46c836a06233681665,64dc7eb1eb61e76232e2ecd3,,,,,,,decisionTrl,resources/DR.BMP,resources/DG.BMP,Door1,0.423828125,-0.049804688,1,0,0,1.2338,optionRight,30,15485,7,24,0,24,0,1,,,,,,,,,,,,,,,,,,,,,,,,,,,,,,,,,,,,,,,
,,,,,,,,2023-08-16_08h46.25.561,HF_wild_card,2022.2.4,Win32,7.5030012,5c8cfc3772503f0001e9c965,64d2fd46c836a06233681665,64dc7eb1eb61e76232e2ecd3,,,,,,,ctch,resources/DP.BMP,resources/DG.BMP,Door4,-0.342773438,-0.025390625,1,0,0,2.48,optionLeft,60,15545,7,25,0,25,0,1,,,,,,,,,,,,,,,,,,,,,,,,,,,,,,,,,,,,,,,
,,,,,,,,2023-08-16_08h46.25.561,HF_wild_card,2022.2.4,Win32,7.5030012,5c8cfc3772503f0001e9c965,64d2fd46c836a06233681665,64dc7eb1eb61e76232e2ecd3,,,,,,,decisionTrl,resources/DP.BMP,resources/DBN.BMP,Door3,0.384765625,0.00390625,1,0,0,1.4216,optionRight,70,15615,7,26,0,26,0,1,,,,,,,,,,,,,,,,,,,,,,,,,,,,,,,,,,,,,,,
,,,,,,,,2023-08-16_08h46.25.561,HF_wild_card,2022.2.4,Win32,7.5030012,5c8cfc3772503f0001e9c965,64d2fd46c836a06233681665,64dc7eb1eb61e76232e2ecd3,,,,,,,decisionTrl,resources/DG.BMP,resources/DR.BMP,Door1,-0.413085938,-0.01953125,1,0,0,1.4485,optionLeft,30,15645,7,27,0,27,0,1,,,,,,,,,,,,,,,,,,,,,,,,,,,,,,,,,,,,,,,
,,,,,,,,2023-08-16_08h46.25.561,HF_wild_card,2022.2.4,Win32,7.5030012,5c8cfc3772503f0001e9c965,64d2fd46c836a06233681665,64dc7eb1eb61e76232e2ecd3,,,,,,,decisionTrl,resources/DG.BMP,resources/DR.BMP,Door1,-0.384765625,-0.006835938,1,0,0,1.238,optionLeft,30,15675,7,28,0,28,0,1,,,,,,,,,,,,,,,,,,,,,,,,,,,,,,,,,,,,,,,
,,,,,,,,2023-08-16_08h46.25.561,HF_wild_card,2022.2.4,Win32,7.5030012,5c8cfc3772503f0001e9c965,64d2fd46c836a06233681665,64dc7eb1eb61e76232e2ecd3,,,,,,,decisionTrl,resources/DG.BMP,resources/DR.BMP,Door1,-0.307617188,-0.00390625,1,0,0,1.2388,optionLeft,30,15705,7,29,0,29,0,1,,,,,,,,,,,,,,,,,,,,,,,,,,,,,,,,,,,,,,,
,,,,,,,,2023-08-16_08h46.25.561,HF_wild_card,2022.2.4,Win32,7.5030012,5c8cfc3772503f0001e9c965,64d2fd46c836a06233681665,64dc7eb1eb61e76232e2ecd3,,,,,,,decisionTrl,resources/DR.BMP,resources/DG.BMP,Door1,0.43359375,-0.03515625,1,0,0,1.245,optionRight,30,15735,7,30,0,30,0,1,,,,,,,,,,,,,,,,,,,,,,,,,,,,,,,,,,,,,,,
,,,,,,,,2023-08-16_08h46.25.561,HF_wild_card,2022.2.4,Win32,7.5030012,5c8cfc3772503f0001e9c965,64d2fd46c836a06233681665,64dc7eb1eb61e76232e2ecd3,,,,,,,decisionTrl,resources/DP.BMP,resources/DBN.BMP,Door3,0.37109375,0.001953125,1,0,0,1.4186,optionRight,70,15805,7,31,0,31,0,1,,,,,,,,,,,,,,,,,,,,,,,,,,,,,,,,,,,,,,,
,,,,,,,,2023-08-16_08h46.25.561,HF_wild_card,2022.2.4,Win32,7.5030012,5c8cfc3772503f0001e9c965,64d2fd46c836a06233681665,64dc7eb1eb61e76232e2ecd3,,,,,,,decisionTrl,resources/DR.BMP,resources/DG.BMP,Door1,0.419921875,-0.022460938,1,0,0,1.4413,optionRight,30,15835,7,32,0,32,0,1,,,,,,,,,,,,,,,,,,,,,,,,,,,,,,,,,,,,,,,
,,,,,,,,2023-08-16_08h46.25.561,HF_wild_card,2022.2.4,Win32,7.5030012,5c8cfc3772503f0001e9c965,64d2fd46c836a06233681665,64dc7eb1eb61e76232e2ecd3,,,,,,,ctch,resources/DG.BMP,resources/DP.BMP,Door4,0.375976563,-0.033203125,1,0,0,1.4152,optionRight,80,15915,7,33,0,33,0,1,,,,,,,,,,,,,,,,,,,,,,,,,,,,,,,,,,,,,,,
,,,,,,,,2023-08-16_08h46.25.561,HF_wild_card,2022.2.4,Win32,7.5030012,5c8cfc3772503f0001e9c965,64d2fd46c836a06233681665,64dc7eb1eb61e76232e2ecd3,,,,,,,decisionTrl,resources/DG.BMP,resources/DR.BMP,Door1,-0.368164063,0.000976563,1,0,0,1.7749,optionLeft,30,15945,7,34,0,34,0,1,,,,,,,,,,,,,,,,,,,,,,,,,,,,,,,,,,,,,,,
,,,,,,,,2023-08-16_08h46.25.561,HF_wild_card,2022.2.4,Win32,7.5030012,5c8cfc3772503f0001e9c965,64d2fd46c836a06233681665,64dc7eb1eb61e76232e2ecd3,,,,,,,ctch,resources/DR.BMP,resources/DBN.BMP,Door3,0.412109375,-0.00390625,1,0,0,1.2377,optionRight,70,16015,7,35,0,35,0,1,,,,,,,,,,,,,,,,,,,,,,,,,,,,,,,,,,,,,,,
,,,,,,,,2023-08-16_08h46.25.561,HF_wild_card,2022.2.4,Win32,7.5030012,5c8cfc3772503f0001e9c965,64d2fd46c836a06233681665,64dc7eb1eb61e76232e2ecd3,,,,,,,,,,,,,,,,,,,,,,,,,,6,0,6,0,1,,,,,,,,,,,,,,,,,,,,,,,,,,,,,,,,,,
,,,,,,,,2023-08-16_08h46.25.561,HF_wild_card,2022.2.4,Win32,7.5030012,5c8cfc3772503f0001e9c965,64d2fd46c836a06233681665,64dc7eb1eb61e76232e2ecd3,,,,,,,,,,,,,,,,,,,,,,,,,,,,,,,4,,,,,,,,,,,,,,,,,,,,,,,,,,,,,,,,,
,,,,,,,,2023-08-16_08h46.25.561,HF_wild_card,2022.2.4,Win32,7.5030012,5c8cfc3772503f0001e9c965,64d2fd46c836a06233681665,64dc7eb1eb61e76232e2ecd3,,,,,,,,,,,,,,,,,,,,,,,,,,,,,,,,,,,,,,,,,,,,,,,,,,,,,,,,,,,,,,,,
,,,,,,,,2023-08-16_08h46.25.561,HF_wild_card,2022.2.4,Win32,7.5030012,5c8cfc3772503f0001e9c965,64d2fd46c836a06233681665,64dc7eb1eb61e76232e2ecd3,,,,,,,,,,,,,,,,,,,,,,,,,,,,,,,,20,Door2,resources/DR.BMP,0,0,0,0,1,,,,,,,,,,,,,,,,,,,,,,,,,
,,,,,,,,2023-08-16_08h46.25.561,HF_wild_card,2022.2.4,Win32,7.5030012,5c8cfc3772503f0001e9c965,64d2fd46c836a06233681665,64dc7eb1eb61e76232e2ecd3,,,,,,,,,,,,,,,,,,,,,,,,,,,,,,,,80,Door4,resources/DP.BMP,1,0,1,0,1,,,,,,,,,,,,,,,,,,,,,,,,,
,,,,,,,,2023-08-16_08h46.25.561,HF_wild_card,2022.2.4,Win32,7.5030012,5c8cfc3772503f0001e9c965,64d2fd46c836a06233681665,64dc7eb1eb61e76232e2ecd3,,,,,,,,,,,,,,,,,,,,,,,,,,,,,,,,95,WC_extreme,resources/DB.BMP,2,0,2,0,1,,,,,,,,,,,,,,,,,,,,,,,,,
,,,,,,,,2023-08-16_08h46.25.561,HF_wild_card,2022.2.4,Win32,7.5030012,5c8cfc3772503f0001e9c965,64d2fd46c836a06233681665,64dc7eb1eb61e76232e2ecd3,,,,,,,,,,,,,,,,,,,,,,,,,,,,,,,,70,Door3,resources/DBN.BMP,3,0,3,0,1,,,,,,,,,,,,,,,,,,,,,,,,,
,,,,,,,,2023-08-16_08h46.25.561,HF_wild_card,2022.2.4,Win32,7.5030012,5c8cfc3772503f0001e9c965,64d2fd46c836a06233681665,64dc7eb1eb61e76232e2ecd3,,,,,,,,,,,,,,,,,,,,,,,,,,,,,,,,60,WC_nonExtreme,resources/DY.BMP,4,0,4,0,1,,,,,,,,,,,,,,,,,,,,,,,,,
,,,,,,,,2023-08-16_08h46.25.561,HF_wild_card,2022.2.4,Win32,7.5030012,5c8cfc3772503f0001e9c965,64d2fd46c836a06233681665,64dc7eb1eb61e76232e2ecd3,,,,,,,,,,,,,,,,,,,,,,,,,,,,,,,,30,Door1,resources/DG.BMP,5,0,5,0,1,,,,,,,,,,,,,,,,,,,,,,,,,
,,,,,,,,2023-08-16_08h46.25.561,HF_wild_card,2022.2.4,Win32,7.5030012,5c8cfc3772503f0001e9c965,64d2fd46c836a06233681665,64dc7eb1eb61e76232e2ecd3,,,,,,,,,,,,,,,,,,,,,,,,,,,,,,,,,,,,,,,,,,,,,,,,,,,,,,,,,,,,,,,,
,,,,,,,,2023-08-16_08h46.25.561,HF_wild_card,2022.2.4,Win32,7.5030012,5c8cfc3772503f0001e9c965,64d2fd46c836a06233681665,64dc7eb1eb61e76232e2ecd3,,,,,,,,,,,,,,,,,,,,,,,,,,,,,,,,,,,,,,,,0,0,0,0,1,,,,,,,,,,,,,,,,,,,,
,,,,,,,,2023-08-16_08h46.25.561,HF_wild_card,2022.2.4,Win32,7.5030012,5c8cfc3772503f0001e9c965,64d2fd46c836a06233681665,64dc7eb1eb61e76232e2ecd3,,,,,,,,,,,,,,,,,,,,,,,,,,,,,,,,,,,,,,,,1,0,1,0,1,,,,,,,,,,,,,,,,,,,,
,,,,,,,,2023-08-16_08h46.25.561,HF_wild_card,2022.2.4,Win32,7.5030012,5c8cfc3772503f0001e9c965,64d2fd46c836a06233681665,64dc7eb1eb61e76232e2ecd3,,,,,,,,,,,,,,,,,,,,,,,,,,,,,,,,,,,,,,,,,,,,,-0.2890625,-0.404296875,1,0,0,yes,70%,0%,Door1,resources/DG.BMP,0,0,0,0,1,,,,,
