Condition,Low fixed image (Door1),Low risky image (Door2),High fixed image (Door3),High risky image (Door4),Extreme Wild Card,NonExtreme Wild Card,,date,expName,psychopyVersion,OS,frameRate,PROLIFIC_PID,STUDY_ID,SESSION_ID,mouse_2.x,mouse_2.y,mouse_2.leftButton,mouse_2.midButton,mouse_2.rightButton,mouse_2.clicked_name,Trial Type,Left Option Image,Right Option Image,Chosen Door,mouse.x,mouse.y,mouse.leftButton,mouse.midButton,mouse.rightButton,mouse.time,mouse.clicked_name,Feedback,Cumulative Reward,Block,trial.thisRepN,trial.thisTrialN,trial.thisN,trial.thisIndex,trial.ran,blocks.thisRepN,blocks.thisTrialN,blocks.thisN,blocks.thisIndex,blocks.ran,Money conversion,First Outcome Reported,Shown Door (First Outcome),Displayed Image (First Outcome),outcomes.thisRepN,outcomes.thisTrialN,outcomes.thisN,outcomes.thisIndex,outcomes.ran,judgments.thisRepN,judgments.thisTrialN,judgments.thisN,judgments.thisIndex,judgments.ran,freqMouse.x,freqMouse.y,freqMouse.leftButton,freqMouse.midButton,freqMouse.rightButton,freqMouse.clicked_name,trials.thisRepN,trials.thisTrialN,trials.thisN,trials.thisIndex,trials.ran,FQJ for first outcome,FQJ for second outcome,Shown Door,Displayed Image,judgBlock.thisRepN,judgBlock.thisTrialN,judgBlock.thisN,judgBlock.thisIndex,judgBlock.ran
0,resources/DP.BMP,resources/DY.BMP,resources/DBN.BMP,resources/DR.BMP,resources/DG.BMP,resources/DB.BMP,5cd5e34157a78e001c1bbf99,2023-08-16_08h47.12.750,HF_wild_card,2022.2.4,MacIntel,60.0024001,5cd5e34157a78e001c1bbf99,64d2fd46c836a06233681665,64dc7ee8ad91d76cb42eb0fb,,,,,,,,,,,,,,,,,,,,,,,,,,,,,,,,,,,,,,,,,,,,,,,,,,,,,,,,,,,,,,,,
,,,,,,,5cd5e34157a78e001c1bbf99,2023-08-16_08h47.12.750,HF_wild_card,2022.2.4,MacIntel,60.0024001,5cd5e34157a78e001c1bbf99,64d2fd46c836a06233681665,64dc7ee8ad91d76cb42eb0fb,0.01453559,-0.416814236,1,0,0,agree,,,,,,,,,,,,,,,,,,,,,,,,,,,,,,,,,,,,,,,,,,,,,,,,,,,,,,,,,,
,,,,,,,5cd5e34157a78e001c1bbf99,2023-08-16_08h47.12.750,HF_wild_card,2022.2.4,MacIntel,60.0024001,5cd5e34157a78e001c1bbf99,64d2fd46c836a06233681665,64dc7ee8ad91d76cb42eb0fb,,,,,,,,,,,,,,,,,,,,,,,,,,,,,,,,,,,,,,,,,,,,,,,,,,,,,,,,,,,,,,,,
,,,,,,,5cd5e34157a78e001c1bbf99,2023-08-16_08h47.12.750,HF_wild_card,2022.2.4,MacIntel,60.0024001,5cd5e34157a78e001c1bbf99,64d2fd46c836a06233681665,64dc7ee8ad91d76cb42eb0fb,,,,,,,decisionTrl,resources/DBN.BMP,resources/DR.BMP,Door4,0.272230903,-0.131679688,1,0,0,2.2373,optionRight,60,60,1,0,0,0,0,1,,,,,,,,,,,,,,,,,,,,,,,,,,,,,,,,,,,,,,,
,,,,,,,5cd5e34157a78e001c1bbf99,2023-08-16_08h47.12.750,HF_wild_card,2022.2.4,MacIntel,60.0024001,5cd5e34157a78e001c1bbf99,64d2fd46c836a06233681665,64dc7ee8ad91d76cb42eb0fb,,,,,,,decisionTrl,resources/DR.BMP,resources/DBN.BMP,Door4,-0.244392361,-0.020980903,1,0,0,1.5163,optionLeft,60,120,1,1,0,1,0,1,,,,,,,,,,,,,,,,,,,,,,,,,,,,,,,,,,,,,,,
,,,,,,,5cd5e34157a78e001c1bbf99,2023-08-16_08h47.12.750,HF_wild_card,2022.2.4,MacIntel,60.0024001,5cd5e34157a78e001c1bbf99,64d2fd46c836a06233681665,64dc7ee8ad91d76cb42eb0fb,,,,,,,decisionTrl,resources/DP.BMP,resources/DY.BMP,Door2,0.330034722,0.041063368,1,0,0,3.8647,optionRight,40,160,1,2,0,2,0,1,,,,,,,,,,,,,,,,,,,,,,,,,,,,,,,,,,,,,,,
,,,,,,,5cd5e34157a78e001c1bbf99,2023-08-16_08h47.12.750,HF_wild_card,2022.2.4,MacIntel,60.0024001,5cd5e34157a78e001c1bbf99,64d2fd46c836a06233681665,64dc7ee8ad91d76cb42eb0fb,,,,,,,decisionTrl,resources/DP.BMP,resources/DY.BMP,Door1,-0.447625868,0.026267361,1,0,0,1.6469,optionLeft,30,190,1,3,0,3,0,1,,,,,,,,,,,,,,,,,,,,,,,,,,,,,,,,,,,,,,,
,,,,,,,5cd5e34157a78e001c1bbf99,2023-08-16_08h47.12.750,HF_wild_card,2022.2.4,MacIntel,60.0024001,5cd5e34157a78e001c1bbf99,64d2fd46c836a06233681665,64dc7ee8ad91d76cb42eb0fb,,,,,,,decisionTrl,resources/DP.BMP,resources/DG.BMP,WildCard_Ex,0.217556424,-0.028155382,1,0,0,1.6461,optionRight,5,195,1,4,0,4,0,1,,,,,,,,,,,,,,,,,,,,,,,,,,,,,,,,,,,,,,,
,,,,,,,5cd5e34157a78e001c1bbf99,2023-08-16_08h47.12.750,HF_wild_card,2022.2.4,MacIntel,60.0024001,5cd5e34157a78e001c1bbf99,64d2fd46c836a06233681665,64dc7ee8ad91d76cb42eb0fb,,,,,,,decisionTrl,resources/DR.BMP,resources/DBN.BMP,Door3,0.322139757,0.016905382,1,0,0,2.1477,optionRight,70,265,1,5,0,5,0,1,,,,,,,,,,,,,,,,,,,,,,,,,,,,,,,,,,,,,,,
,,,,,,,5cd5e34157a78e001c1bbf99,2023-08-16_08h47.12.750,HF_wild_card,2022.2.4,MacIntel,60.0024001,5cd5e34157a78e001c1bbf99,64d2fd46c836a06233681665,64dc7ee8ad91d76cb42eb0fb,,,,,,,decisionTrl,resources/DP.BMP,resources/DY.BMP,Door2,0.181063368,-0.043051215,1,0,0,2.6155,optionRight,40,305,1,6,0,6,0,1,,,,,,,,,,,,,,,,,,,,,,,,,,,,,,,,,,,,,,,
,,,,,,,5cd5e34157a78e001c1bbf99,2023-08-16_08h47.12.750,HF_wild_card,2022.2.4,MacIntel,60.0024001,5cd5e34157a78e001c1bbf99,64d2fd46c836a06233681665,64dc7ee8ad91d76cb42eb0fb,,,,,,,sngl,resources/Empty.png,resources/DG.BMP,WildCard_Ex,0.212391493,-0.035186632,1,0,0,1.5157,optionRight,5,310,1,7,0,7,0,1,,,,,,,,,,,,,,,,,,,,,,,,,,,,,,,,,,,,,,,
,,,,,,,5cd5e34157a78e001c1bbf99,2023-08-16_08h47.12.750,HF_wild_card,2022.2.4,MacIntel,60.0024001,5cd5e34157a78e001c1bbf99,64d2fd46c836a06233681665,64dc7ee8ad91d76cb42eb0fb,,,,,,,sngl,resources/DG.BMP,resources/Empty.png,WildCard_Ex,-0.223836806,0.000594618,1,0,0,0.7781,optionLeft,5,315,1,8,0,8,0,1,,,,,,,,,,,,,,,,,,,,,,,,,,,,,,,,,,,,,,,
,,,,,,,5cd5e34157a78e001c1bbf99,2023-08-16_08h47.12.750,HF_wild_card,2022.2.4,MacIntel,60.0024001,5cd5e34157a78e001c1bbf99,64d2fd46c836a06233681665,64dc7ee8ad91d76cb42eb0fb,,,,,,,ctch,resources/DY.BMP,resources/DBN.BMP,Door3,0.252877604,-0.004878472,1,0,0,1.1812,optionRight,70,385,1,9,0,9,0,1,,,,,,,,,,,,,,,,,,,,,,,,,,,,,,,,,,,,,,,
,,,,,,,5cd5e34157a78e001c1bbf99,2023-08-16_08h47.12.750,HF_wild_card,2022.2.4,MacIntel,60.0024001,5cd5e34157a78e001c1bbf99,64d2fd46c836a06233681665,64dc7ee8ad91d76cb42eb0fb,,,,,,,sngl,resources/Empty.png,resources/DG.BMP,WildCard_Ex,0.197430556,-0.057703993,1,0,0,1.210599999,optionRight,95,480,1,10,0,10,0,1,,,,,,,,,,,,,,,,,,,,,,,,,,,,,,,,,,,,,,,
,,,,,,,5cd5e34157a78e001c1bbf99,2023-08-16_08h47.12.750,HF_wild_card,2022.2.4,MacIntel,60.0024001,5cd5e34157a78e001c1bbf99,64d2fd46c836a06233681665,64dc7ee8ad91d76cb42eb0fb,,,,,,,ctch,resources/DBN.BMP,resources/DY.BMP,Door3,-0.295737847,-0.007756076,1,0,0,0.9996,optionLeft,70,550,1,11,0,11,0,1,,,,,,,,,,,,,,,,,,,,,,,,,,,,,,,,,,,,,,,
,,,,,,,5cd5e34157a78e001c1bbf99,2023-08-16_08h47.12.750,HF_wild_card,2022.2.4,MacIntel,60.0024001,5cd5e34157a78e001c1bbf99,64d2fd46c836a06233681665,64dc7ee8ad91d76cb42eb0fb,,,,,,,decisionTrl,resources/DG.BMP,resources/DP.BMP,WildCard_Ex,-0.303038194,0.014895833,1,0,0,2.430200001,optionLeft,95,645,1,12,0,12,0,1,,,,,,,,,,,,,,,,,,,,,,,,,,,,,,,,,,,,,,,
,,,,,,,5cd5e34157a78e001c1bbf99,2023-08-16_08h47.12.750,HF_wild_card,2022.2.4,MacIntel,60.0024001,5cd5e34157a78e001c1bbf99,64d2fd46c836a06233681665,64dc7ee8ad91d76cb42eb0fb,,,,,,,decisionTrl,resources/DG.BMP,resources/DBN.BMP,WildCard_Ex,-0.258550347,-0.018198785,1,0,0,2.212900001,optionLeft,95,740,1,13,0,13,0,1,,,,,,,,,,,,,,,,,,,,,,,,,,,,,,,,,,,,,,,
,,,,,,,5cd5e34157a78e001c1bbf99,2023-08-16_08h47.12.750,HF_wild_card,2022.2.4,MacIntel,60.0024001,5cd5e34157a78e001c1bbf99,64d2fd46c836a06233681665,64dc7ee8ad91d76cb42eb0fb,,,,,,,decisionTrl,resources/DR.BMP,resources/DBN.BMP,Door3,0.353637153,0.021028646,1,0,0,1.1303,optionRight,70,810,1,14,0,14,0,1,,,,,,,,,,,,,,,,,,,,,,,,,,,,,,,,,,,,,,,
,,,,,,,5cd5e34157a78e001c1bbf99,2023-08-16_08h47.12.750,HF_wild_card,2022.2.4,MacIntel,60.0024001,5cd5e34157a78e001c1bbf99,64d2fd46c836a06233681665,64dc7ee8ad91d76cb42eb0fb,,,,,,,decisionTrl,resources/DBN.BMP,resources/DR.BMP,Door3,-0.332456597,0.022630208,1,0,0,1.5645,optionLeft,70,880,1,15,0,15,0,1,,,,,,,,,,,,,,,,,,,,,,,,,,,,,,,,,,,,,,,
,,,,,,,5cd5e34157a78e001c1bbf99,2023-08-16_08h47.12.750,HF_wild_card,2022.2.4,MacIntel,60.0024001,5cd5e34157a78e001c1bbf99,64d2fd46c836a06233681665,64dc7ee8ad91d76cb42eb0fb,,,,,,,decisionTrl,resources/DG.BMP,resources/DR.BMP,WildCard_Ex,-0.259678819,-0.025555556,1,0,0,0.980099999,optionLeft,95,975,1,16,0,16,0,1,,,,,,,,,,,,,,,,,,,,,,,,,,,,,,,,,,,,,,,
,,,,,,,5cd5e34157a78e001c1bbf99,2023-08-16_08h47.12.750,HF_wild_card,2022.2.4,MacIntel,60.0024001,5cd5e34157a78e001c1bbf99,64d2fd46c836a06233681665,64dc7ee8ad91d76cb42eb0fb,,,,,,,sngl,resources/DBN.BMP,resources/Empty.png,Door3,-0.275416667,0.025264757,1,0,0,0.927,optionLeft,70,1045,1,17,0,17,0,1,,,,,,,,,,,,,,,,,,,,,,,,,,,,,,,,,,,,,,,
,,,,,,,5cd5e34157a78e001c1bbf99,2023-08-16_08h47.12.750,HF_wild_card,2022.2.4,MacIntel,60.0024001,5cd5e34157a78e001c1bbf99,64d2fd46c836a06233681665,64dc7ee8ad91d76cb42eb0fb,,,,,,,sngl,resources/DY.BMP,resources/Empty.png,Door2,-0.217907986,0.010720486,1,0,0,1.147,optionLeft,40,1085,1,18,0,18,0,1,,,,,,,,,,,,,,,,,,,,,,,,,,,,,,,,,,,,,,,
,,,,,,,5cd5e34157a78e001c1bbf99,2023-08-16_08h47.12.750,HF_wild_card,2022.2.4,MacIntel,60.0024001,5cd5e34157a78e001c1bbf99,64d2fd46c836a06233681665,64dc7ee8ad91d76cb42eb0fb,,,,,,,decisionTrl,resources/DBN.BMP,resources/DG.BMP,WildCard_Ex,0.215099826,-0.005711806,1,0,0,1.883,optionRight,5,1090,1,19,0,19,0,1,,,,,,,,,,,,,,,,,,,,,,,,,,,,,,,,,,,,,,,
,,,,,,,5cd5e34157a78e001c1bbf99,2023-08-16_08h47.12.750,HF_wild_card,2022.2.4,MacIntel,60.0024001,5cd5e34157a78e001c1bbf99,64d2fd46c836a06233681665,64dc7ee8ad91d76cb42eb0fb,,,,,,,decisionTrl,resources/DR.BMP,resources/DBN.BMP,Door3,0.263962674,-0.014791667,1,0,0,0.8781,optionRight,70,1160,1,20,0,20,0,1,,,,,,,,,,,,,,,,,,,,,,,,,,,,,,,,,,,,,,,
,,,,,,,5cd5e34157a78e001c1bbf99,2023-08-16_08h47.12.750,HF_wild_card,2022.2.4,MacIntel,60.0024001,5cd5e34157a78e001c1bbf99,64d2fd46c836a06233681665,64dc7ee8ad91d76cb42eb0fb,,,,,,,ctch,resources/DP.BMP,resources/DR.BMP,Door4,0.223962674,0.008151042,1,0,0,1.4471,optionRight,80,1240,1,21,0,21,0,1,,,,,,,,,,,,,,,,,,,,,,,,,,,,,,,,,,,,,,,
,,,,,,,5cd5e34157a78e001c1bbf99,2023-08-16_08h47.12.750,HF_wild_card,2022.2.4,MacIntel,60.0024001,5cd5e34157a78e001c1bbf99,64d2fd46c836a06233681665,64dc7ee8ad91d76cb42eb0fb,,,,,,,decisionTrl,resources/DBN.BMP,resources/DR.BMP,Door4,0.208046875,0.013810764,1,0,0,1.063200001,optionRight,80,1320,1,22,0,22,0,1,,,,,,,,,,,,,,,,,,,,,,,,,,,,,,,,,,,,,,,
,,,,,,,5cd5e34157a78e001c1bbf99,2023-08-16_08h47.12.750,HF_wild_card,2022.2.4,MacIntel,60.0024001,5cd5e34157a78e001c1bbf99,64d2fd46c836a06233681665,64dc7ee8ad91d76cb42eb0fb,,,,,,,ctch,resources/DY.BMP,resources/DBN.BMP,Door3,0.158415799,-0.021349826,1,0,0,1.0141,optionRight,70,1390,1,23,0,23,0,1,,,,,,,,,,,,,,,,,,,,,,,,,,,,,,,,,,,,,,,
,,,,,,,5cd5e34157a78e001c1bbf99,2023-08-16_08h47.12.750,HF_wild_card,2022.2.4,MacIntel,60.0024001,5cd5e34157a78e001c1bbf99,64d2fd46c836a06233681665,64dc7ee8ad91d76cb42eb0fb,,,,,,,sngl,resources/Empty.png,resources/DBN.BMP,Door3,0.205021701,0.007022569,1,0,0,0.847900001,optionRight,70,1460,1,24,0,24,0,1,,,,,,,,,,,,,,,,,,,,,,,,,,,,,,,,,,,,,,,
,,,,,,,5cd5e34157a78e001c1bbf99,2023-08-16_08h47.12.750,HF_wild_card,2022.2.4,MacIntel,60.0024001,5cd5e34157a78e001c1bbf99,64d2fd46c836a06233681665,64dc7ee8ad91d76cb42eb0fb,,,,,,,sngl,resources/Empty.png,resources/DP.BMP,Door1,0.287664931,-0.034001736,1,0,0,1.0442,optionRight,30,1490,1,25,0,25,0,1,,,,,,,,,,,,,,,,,,,,,,,,,,,,,,,,,,,,,,,
,,,,,,,5cd5e34157a78e001c1bbf99,2023-08-16_08h47.12.750,HF_wild_card,2022.2.4,MacIntel,60.0024001,5cd5e34157a78e001c1bbf99,64d2fd46c836a06233681665,64dc7ee8ad91d76cb42eb0fb,,,,,,,decisionTrl,resources/DY.BMP,resources/DP.BMP,Door2,-0.166783854,-0.020581597,1,0,0,0.9498,optionLeft,40,1530,1,26,0,26,0,1,,,,,,,,,,,,,,,,,,,,,,,,,,,,,,,,,,,,,,,
,,,,,,,5cd5e34157a78e001c1bbf99,2023-08-16_08h47.12.750,HF_wild_card,2022.2.4,MacIntel,60.0024001,5cd5e34157a78e001c1bbf99,64d2fd46c836a06233681665,64dc7ee8ad91d76cb42eb0fb,,,,,,,sngl,resources/DR.BMP,resources/Empty.png,Door4,-0.259427083,0.027838542,1,0,0,0.7465,optionLeft,80,1610,1,27,0,27,0,1,,,,,,,,,,,,,,,,,,,,,,,,,,,,,,,,,,,,,,,
,,,,,,,5cd5e34157a78e001c1bbf99,2023-08-16_08h47.12.750,HF_wild_card,2022.2.4,MacIntel,60.0024001,5cd5e34157a78e001c1bbf99,64d2fd46c836a06233681665,64dc7ee8ad91d76cb42eb0fb,,,,,,,decisionTrl,resources/DR.BMP,resources/DG.BMP,Door4,-0.1775,-0.034084201,1,0,0,1.513900001,optionLeft,60,1670,1,28,0,28,0,1,,,,,,,,,,,,,,,,,,,,,,,,,,,,,,,,,,,,,,,
,,,,,,,5cd5e34157a78e001c1bbf99,2023-08-16_08h47.12.750,HF_wild_card,2022.2.4,MacIntel,60.0024001,5cd5e34157a78e001c1bbf99,64d2fd46c836a06233681665,64dc7ee8ad91d76cb42eb0fb,,,,,,,ctch,resources/DR.BMP,resources/DP.BMP,Door4,-0.231979167,0.003993056,1,0,0,1.4453,optionLeft,60,1730,1,29,0,29,0,1,,,,,,,,,,,,,,,,,,,,,,,,,,,,,,,,,,,,,,,
,,,,,,,5cd5e34157a78e001c1bbf99,2023-08-16_08h47.12.750,HF_wild_card,2022.2.4,MacIntel,60.0024001,5cd5e34157a78e001c1bbf99,64d2fd46c836a06233681665,64dc7ee8ad91d76cb42eb0fb,,,,,,,ctch,resources/DBN.BMP,resources/DY.BMP,Door3,-0.281775174,0.022356771,1,0,0,1.032099999,optionLeft,70,1800,1,30,0,30,0,1,,,,,,,,,,,,,,,,,,,,,,,,,,,,,,,,,,,,,,,
,,,,,,,5cd5e34157a78e001c1bbf99,2023-08-16_08h47.12.750,HF_wild_card,2022.2.4,MacIntel,60.0024001,5cd5e34157a78e001c1bbf99,64d2fd46c836a06233681665,64dc7ee8ad91d76cb42eb0fb,,,,,,,decisionTrl,resources/DG.BMP,resources/DY.BMP,WildCard_Ex,-0.238832465,0.005073785,1,0,0,1.3648,optionLeft,5,1805,1,31,0,31,0,1,,,,,,,,,,,,,,,,,,,,,,,,,,,,,,,,,,,,,,,
,,,,,,,5cd5e34157a78e001c1bbf99,2023-08-16_08h47.12.750,HF_wild_card,2022.2.4,MacIntel,60.0024001,5cd5e34157a78e001c1bbf99,64d2fd46c836a06233681665,64dc7ee8ad91d76cb42eb0fb,,,,,,,ctch,resources/DP.BMP,resources/DR.BMP,Door4,0.166892361,0.025299479,1,0,0,1.029900001,optionRight,80,1885,1,32,0,32,0,1,,,,,,,,,,,,,,,,,,,,,,,,,,,,,,,,,,,,,,,
,,,,,,,5cd5e34157a78e001c1bbf99,2023-08-16_08h47.12.750,HF_wild_card,2022.2.4,MacIntel,60.0024001,5cd5e34157a78e001c1bbf99,64d2fd46c836a06233681665,64dc7ee8ad91d76cb42eb0fb,,,,,,,ctch,resources/DR.BMP,resources/DP.BMP,Door4,-0.287521701,0.014960938,1,0,0,0.695599999,optionLeft,80,1965,1,33,0,33,0,1,,,,,,,,,,,,,,,,,,,,,,,,,,,,,,,,,,,,,,,
,,,,,,,5cd5e34157a78e001c1bbf99,2023-08-16_08h47.12.750,HF_wild_card,2022.2.4,MacIntel,60.0024001,5cd5e34157a78e001c1bbf99,64d2fd46c836a06233681665,64dc7ee8ad91d76cb42eb0fb,,,,,,,decisionTrl,resources/DBN.BMP,resources/DR.BMP,Door4,0.257209201,0.022131076,1,0,0,3.3294,optionRight,80,2045,1,34,0,34,0,1,,,,,,,,,,,,,,,,,,,,,,,,,,,,,,,,,,,,,,,
,,,,,,,5cd5e34157a78e001c1bbf99,2023-08-16_08h47.12.750,HF_wild_card,2022.2.4,MacIntel,60.0024001,5cd5e34157a78e001c1bbf99,64d2fd46c836a06233681665,64dc7ee8ad91d76cb42eb0fb,,,,,,,decisionTrl,resources/DY.BMP,resources/DP.BMP,Door2,-0.230221354,-0.027478299,1,0,0,1.2631,optionLeft,20,2065,1,35,0,35,0,1,,,,,,,,,,,,,,,,,,,,,,,,,,,,,,,,,,,,,,,
,,,,,,,5cd5e34157a78e001c1bbf99,2023-08-16_08h47.12.750,HF_wild_card,2022.2.4,MacIntel,60.0024001,5cd5e34157a78e001c1bbf99,64d2fd46c836a06233681665,64dc7ee8ad91d76cb42eb0fb,,,,,,,decisionTrl,resources/DY.BMP,resources/DP.BMP,Door1,0.172118056,0.001024306,1,0,0,0.9142,optionRight,30,2095,1,36,0,36,0,1,,,,,,,,,,,,,,,,,,,,,,,,,,,,,,,,,,,,,,,
,,,,,,,5cd5e34157a78e001c1bbf99,2023-08-16_08h47.12.750,HF_wild_card,2022.2.4,MacIntel,60.0024001,5cd5e34157a78e001c1bbf99,64d2fd46c836a06233681665,64dc7ee8ad91d76cb42eb0fb,,,,,,,sngl,resources/DG.BMP,resources/Empty.png,WildCard_Ex,-0.234192708,0.001280382,1,0,0,0.777900001,optionLeft,95,2190,1,37,0,37,0,1,,,,,,,,,,,,,,,,,,,,,,,,,,,,,,,,,,,,,,,
,,,,,,,5cd5e34157a78e001c1bbf99,2023-08-16_08h47.12.750,HF_wild_card,2022.2.4,MacIntel,60.0024001,5cd5e34157a78e001c1bbf99,64d2fd46c836a06233681665,64dc7ee8ad91d76cb42eb0fb,,,,,,,decisionTrl,resources/DY.BMP,resources/DP.BMP,Door1,0.231215278,0.022144097,1,0,0,2.0116,optionRight,30,2220,1,38,0,38,0,1,,,,,,,,,,,,,,,,,,,,,,,,,,,,,,,,,,,,,,,
,,,,,,,5cd5e34157a78e001c1bbf99,2023-08-16_08h47.12.750,HF_wild_card,2022.2.4,MacIntel,60.0024001,5cd5e34157a78e001c1bbf99,64d2fd46c836a06233681665,64dc7ee8ad91d76cb42eb0fb,,,,,,,sngl,resources/DP.BMP,resources/Empty.png,Door1,-0.23421875,-0.036397569,1,0,0,0.6666,optionLeft,30,2250,1,39,0,39,0,1,,,,,,,,,,,,,,,,,,,,,,,,,,,,,,,,,,,,,,,
,,,,,,,5cd5e34157a78e001c1bbf99,2023-08-16_08h47.12.750,HF_wild_card,2022.2.4,MacIntel,60.0024001,5cd5e34157a78e001c1bbf99,64d2fd46c836a06233681665,64dc7ee8ad91d76cb42eb0fb,,,,,,,decisionTrl,resources/DY.BMP,resources/DG.BMP,Door2,-0.281701389,0.021636285,1,0,0,2.9681,optionLeft,20,2270,1,40,0,40,0,1,,,,,,,,,,,,,,,,,,,,,,,,,,,,,,,,,,,,,,,
,,,,,,,5cd5e34157a78e001c1bbf99,2023-08-16_08h47.12.750,HF_wild_card,2022.2.4,MacIntel,60.0024001,5cd5e34157a78e001c1bbf99,64d2fd46c836a06233681665,64dc7ee8ad91d76cb42eb0fb,,,,,,,decisionTrl,resources/DP.BMP,resources/DY.BMP,Door1,-0.25797309,-0.004487847,1,0,0,0.901900001,optionLeft,30,2300,1,41,0,41,0,1,,,,,,,,,,,,,,,,,,,,,,,,,,,,,,,,,,,,,,,
,,,,,,,5cd5e34157a78e001c1bbf99,2023-08-16_08h47.12.750,HF_wild_card,2022.2.4,MacIntel,60.0024001,5cd5e34157a78e001c1bbf99,64d2fd46c836a06233681665,64dc7ee8ad91d76cb42eb0fb,,,,,,,sngl,resources/Empty.png,resources/DR.BMP,Door4,0.276987847,0.027365451,1,0,0,1.114400001,optionRight,60,2360,1,42,0,42,0,1,,,,,,,,,,,,,,,,,,,,,,,,,,,,,,,,,,,,,,,
,,,,,,,5cd5e34157a78e001c1bbf99,2023-08-16_08h47.12.750,HF_wild_card,2022.2.4,MacIntel,60.0024001,5cd5e34157a78e001c1bbf99,64d2fd46c836a06233681665,64dc7ee8ad91d76cb42eb0fb,,,,,,,sngl,resources/Empty.png,resources/DY.BMP,Door2,0.197847222,0.010195312,1,0,0,0.664,optionRight,20,2380,1,43,0,43,0,1,,,,,,,,,,,,,,,,,,,,,,,,,,,,,,,,,,,,,,,
,,,,,,,5cd5e34157a78e001c1bbf99,2023-08-16_08h47.12.750,HF_wild_card,2022.2.4,MacIntel,60.0024001,5cd5e34157a78e001c1bbf99,64d2fd46c836a06233681665,64dc7ee8ad91d76cb42eb0fb,,,,,,,,,,,,,,,,,,,,,,,,,,0,0,0,0,1,,,,,,,,,,,,,,,,,,,,,,,,,,,,,,,,,,
,,,,,,,5cd5e34157a78e001c1bbf99,2023-08-16_08h47.12.750,HF_wild_card,2022.2.4,MacIntel,60.0024001,5cd5e34157a78e001c1bbf99,64d2fd46c836a06233681665,64dc7ee8ad91d76cb42eb0fb,,,,,,,ctch,resources/DR.BMP,resources/DP.BMP,Door4,-0.195625,-0.021072049,1,0,0,1.7988,optionLeft,80,2460,2,0,0,0,0,1,,,,,,,,,,,,,,,,,,,,,,,,,,,,,,,,,,,,,,,
,,,,,,,5cd5e34157a78e001c1bbf99,2023-08-16_08h47.12.750,HF_wild_card,2022.2.4,MacIntel,60.0024001,5cd5e34157a78e001c1bbf99,64d2fd46c836a06233681665,64dc7ee8ad91d76cb42eb0fb,,,,,,,decisionTrl,resources/DG.BMP,resources/DP.BMP,WildCard_Ex,-0.237408854,0.013732639,1,0,0,1.714,optionLeft,5,2465,2,1,0,1,0,1,,,,,,,,,,,,,,,,,,,,,,,,,,,,,,,,,,,,,,,
,,,,,,,5cd5e34157a78e001c1bbf99,2023-08-16_08h47.12.750,HF_wild_card,2022.2.4,MacIntel,60.0024001,5cd5e34157a78e001c1bbf99,64d2fd46c836a06233681665,64dc7ee8ad91d76cb42eb0fb,,,,,,,decisionTrl,resources/DP.BMP,resources/DY.BMP,Door2,0.194496528,0.000078125,1,0,0,1.6486,optionRight,40,2505,2,2,0,2,0,1,,,,,,,,,,,,,,,,,,,,,,,,,,,,,,,,,,,,,,,
,,,,,,,5cd5e34157a78e001c1bbf99,2023-08-16_08h47.12.750,HF_wild_card,2022.2.4,MacIntel,60.0024001,5cd5e34157a78e001c1bbf99,64d2fd46c836a06233681665,64dc7ee8ad91d76cb42eb0fb,,,,,,,decisionTrl,resources/DG.BMP,resources/DY.BMP,Door2,0.232061632,-0.001918403,1,0,0,1.2663,optionRight,40,2545,2,3,0,3,0,1,,,,,,,,,,,,,,,,,,,,,,,,,,,,,,,,,,,,,,,
,,,,,,,5cd5e34157a78e001c1bbf99,2023-08-16_08h47.12.750,HF_wild_card,2022.2.4,MacIntel,60.0024001,5cd5e34157a78e001c1bbf99,64d2fd46c836a06233681665,64dc7ee8ad91d76cb42eb0fb,,,,,,,decisionTrl,resources/DP.BMP,resources/DY.BMP,Door2,0.246289062,-0.035646701,1,0,0,1.3643,optionRight,40,2585,2,4,0,4,0,1,,,,,,,,,,,,,,,,,,,,,,,,,,,,,,,,,,,,,,,
,,,,,,,5cd5e34157a78e001c1bbf99,2023-08-16_08h47.12.750,HF_wild_card,2022.2.4,MacIntel,60.0024001,5cd5e34157a78e001c1bbf99,64d2fd46c836a06233681665,64dc7ee8ad91d76cb42eb0fb,,,,,,,sngl,resources/Empty.png,resources/DP.BMP,Door1,0.120481771,-0.013585069,1,0,0,0.8308,optionRight,30,2615,2,5,0,5,0,1,,,,,,,,,,,,,,,,,,,,,,,,,,,,,,,,,,,,,,,
,,,,,,,5cd5e34157a78e001c1bbf99,2023-08-16_08h47.12.750,HF_wild_card,2022.2.4,MacIntel,60.0024001,5cd5e34157a78e001c1bbf99,64d2fd46c836a06233681665,64dc7ee8ad91d76cb42eb0fb,,,,,,,decisionTrl,resources/DR.BMP,resources/DBN.BMP,Door4,-0.328836806,-0.005559896,1,0,0,2.548099999,optionLeft,60,2675,2,6,0,6,0,1,,,,,,,,,,,,,,,,,,,,,,,,,,,,,,,,,,,,,,,
,,,,,,,5cd5e34157a78e001c1bbf99,2023-08-16_08h47.12.750,HF_wild_card,2022.2.4,MacIntel,60.0024001,5cd5e34157a78e001c1bbf99,64d2fd46c836a06233681665,64dc7ee8ad91d76cb42eb0fb,,,,,,,decisionTrl,resources/DR.BMP,resources/DBN.BMP,Door3,0.267400174,0.01578559,1,0,0,0.882,optionRight,70,2745,2,7,0,7,0,1,,,,,,,,,,,,,,,,,,,,,,,,,,,,,,,,,,,,,,,
,,,,,,,5cd5e34157a78e001c1bbf99,2023-08-16_08h47.12.750,HF_wild_card,2022.2.4,MacIntel,60.0024001,5cd5e34157a78e001c1bbf99,64d2fd46c836a06233681665,64dc7ee8ad91d76cb42eb0fb,,,,,,,decisionTrl,resources/DP.BMP,resources/DY.BMP,Door2,0.229014757,0.023103299,1,0,0,1.68,optionRight,20,2765,2,8,0,8,0,1,,,,,,,,,,,,,,,,,,,,,,,,,,,,,,,,,,,,,,,
,,,,,,,5cd5e34157a78e001c1bbf99,2023-08-16_08h47.12.750,HF_wild_card,2022.2.4,MacIntel,60.0024001,5cd5e34157a78e001c1bbf99,64d2fd46c836a06233681665,64dc7ee8ad91d76cb42eb0fb,,,,,,,ctch,resources/DBN.BMP,resources/DY.BMP,Door3,-0.228789063,0.030967882,1,0,0,1.5275,optionLeft,70,2835,2,9,0,9,0,1,,,,,,,,,,,,,,,,,,,,,,,,,,,,,,,,,,,,,,,
,,,,,,,5cd5e34157a78e001c1bbf99,2023-08-16_08h47.12.750,HF_wild_card,2022.2.4,MacIntel,60.0024001,5cd5e34157a78e001c1bbf99,64d2fd46c836a06233681665,64dc7ee8ad91d76cb42eb0fb,,,,,,,sngl,resources/Empty.png,resources/DG.BMP,WildCard_Ex,0.161571181,-0.001788194,1,0,0,0.8631,optionRight,95,2930,2,10,0,10,0,1,,,,,,,,,,,,,,,,,,,,,,,,,,,,,,,,,,,,,,,
,,,,,,,5cd5e34157a78e001c1bbf99,2023-08-16_08h47.12.750,HF_wild_card,2022.2.4,MacIntel,60.0024001,5cd5e34157a78e001c1bbf99,64d2fd46c836a06233681665,64dc7ee8ad91d76cb42eb0fb,,,,,,,ctch,resources/DP.BMP,resources/DR.BMP,Door4,0.315920139,0.014813368,1,0,0,1.8326,optionRight,80,3010,2,11,0,11,0,1,,,,,,,,,,,,,,,,,,,,,,,,,,,,,,,,,,,,,,,
,,,,,,,5cd5e34157a78e001c1bbf99,2023-08-16_08h47.12.750,HF_wild_card,2022.2.4,MacIntel,60.0024001,5cd5e34157a78e001c1bbf99,64d2fd46c836a06233681665,64dc7ee8ad91d76cb42eb0fb,,,,,,,decisionTrl,resources/DP.BMP,resources/DY.BMP,Door2,0.194852431,0.016961806,1,0,0,1.7817,optionRight,40,3050,2,12,0,12,0,1,,,,,,,,,,,,,,,,,,,,,,,,,,,,,,,,,,,,,,,
,,,,,,,5cd5e34157a78e001c1bbf99,2023-08-16_08h47.12.750,HF_wild_card,2022.2.4,MacIntel,60.0024001,5cd5e34157a78e001c1bbf99,64d2fd46c836a06233681665,64dc7ee8ad91d76cb42eb0fb,,,,,,,sngl,resources/Empty.png,resources/DBN.BMP,Door3,0.213962674,0.013055556,1,0,0,0.8995,optionRight,70,3120,2,13,0,13,0,1,,,,,,,,,,,,,,,,,,,,,,,,,,,,,,,,,,,,,,,
,,,,,,,5cd5e34157a78e001c1bbf99,2023-08-16_08h47.12.750,HF_wild_card,2022.2.4,MacIntel,60.0024001,5cd5e34157a78e001c1bbf99,64d2fd46c836a06233681665,64dc7ee8ad91d76cb42eb0fb,,,,,,,ctch,resources/DY.BMP,resources/DBN.BMP,Door3,0.172309028,0.044592014,1,0,0,2.1664,optionRight,70,3190,2,14,0,14,0,1,,,,,,,,,,,,,,,,,,,,,,,,,,,,,,,,,,,,,,,
,,,,,,,5cd5e34157a78e001c1bbf99,2023-08-16_08h47.12.750,HF_wild_card,2022.2.4,MacIntel,60.0024001,5cd5e34157a78e001c1bbf99,64d2fd46c836a06233681665,64dc7ee8ad91d76cb42eb0fb,,,,,,,decisionTrl,resources/DG.BMP,resources/DBN.BMP,WildCard_Ex,-0.194709201,-0.00515191,1,0,0,2.9457,optionLeft,95,3285,2,15,0,15,0,1,,,,,,,,,,,,,,,,,,,,,,,,,,,,,,,,,,,,,,,
,,,,,,,5cd5e34157a78e001c1bbf99,2023-08-16_08h47.12.750,HF_wild_card,2022.2.4,MacIntel,60.0024001,5cd5e34157a78e001c1bbf99,64d2fd46c836a06233681665,64dc7ee8ad91d76cb42eb0fb,,,,,,,decisionTrl,resources/DBN.BMP,resources/DG.BMP,WildCard_Ex,0.236028646,0.031367187,1,0,0,0.8975,optionRight,5,3290,2,16,0,16,0,1,,,,,,,,,,,,,,,,,,,,,,,,,,,,,,,,,,,,,,,
,,,,,,,5cd5e34157a78e001c1bbf99,2023-08-16_08h47.12.750,HF_wild_card,2022.2.4,MacIntel,60.0024001,5cd5e34157a78e001c1bbf99,64d2fd46c836a06233681665,64dc7ee8ad91d76cb42eb0fb,,,,,,,ctch,resources/DP.BMP,resources/DR.BMP,Door4,0.201349826,0.021228299,1,0,0,1.263400001,optionRight,80,3370,2,17,0,17,0,1,,,,,,,,,,,,,,,,,,,,,,,,,,,,,,,,,,,,,,,
,,,,,,,5cd5e34157a78e001c1bbf99,2023-08-16_08h47.12.750,HF_wild_card,2022.2.4,MacIntel,60.0024001,5cd5e34157a78e001c1bbf99,64d2fd46c836a06233681665,64dc7ee8ad91d76cb42eb0fb,,,,,,,decisionTrl,resources/DG.BMP,resources/DR.BMP,Door4,0.179296875,0.019457465,1,0,0,1.499599999,optionRight,80,3450,2,18,0,18,0,1,,,,,,,,,,,,,,,,,,,,,,,,,,,,,,,,,,,,,,,
,,,,,,,5cd5e34157a78e001c1bbf99,2023-08-16_08h47.12.750,HF_wild_card,2022.2.4,MacIntel,60.0024001,5cd5e34157a78e001c1bbf99,64d2fd46c836a06233681665,64dc7ee8ad91d76cb42eb0fb,,,,,,,sngl,resources/DG.BMP,resources/Empty.png,WildCard_Ex,-0.249756944,0.014613715,1,0,0,0.8605,optionLeft,95,3545,2,19,0,19,0,1,,,,,,,,,,,,,,,,,,,,,,,,,,,,,,,,,,,,,,,
,,,,,,,5cd5e34157a78e001c1bbf99,2023-08-16_08h47.12.750,HF_wild_card,2022.2.4,MacIntel,60.0024001,5cd5e34157a78e001c1bbf99,64d2fd46c836a06233681665,64dc7ee8ad91d76cb42eb0fb,,,,,,,decisionTrl,resources/DY.BMP,resources/DP.BMP,Door2,-0.206948785,-0.007061632,1,0,0,2.1815,optionLeft,20,3565,2,20,0,20,0,1,,,,,,,,,,,,,,,,,,,,,,,,,,,,,,,,,,,,,,,
,,,,,,,5cd5e34157a78e001c1bbf99,2023-08-16_08h47.12.750,HF_wild_card,2022.2.4,MacIntel,60.0024001,5cd5e34157a78e001c1bbf99,64d2fd46c836a06233681665,64dc7ee8ad91d76cb42eb0fb,,,,,,,ctch,resources/DBN.BMP,resources/DY.BMP,Door3,-0.218806424,-0.000429688,1,0,0,0.8956,optionLeft,70,3635,2,21,0,21,0,1,,,,,,,,,,,,,,,,,,,,,,,,,,,,,,,,,,,,,,,
,,,,,,,5cd5e34157a78e001c1bbf99,2023-08-16_08h47.12.750,HF_wild_card,2022.2.4,MacIntel,60.0024001,5cd5e34157a78e001c1bbf99,64d2fd46c836a06233681665,64dc7ee8ad91d76cb42eb0fb,,,,,,,decisionTrl,resources/DBN.BMP,resources/DR.BMP,Door4,0.237443576,0.022200521,1,0,0,4.0129,optionRight,60,3695,2,22,0,22,0,1,,,,,,,,,,,,,,,,,,,,,,,,,,,,,,,,,,,,,,,
,,,,,,,5cd5e34157a78e001c1bbf99,2023-08-16_08h47.12.750,HF_wild_card,2022.2.4,MacIntel,60.0024001,5cd5e34157a78e001c1bbf99,64d2fd46c836a06233681665,64dc7ee8ad91d76cb42eb0fb,,,,,,,sngl,resources/Empty.png,resources/DY.BMP,Door2,0.230138889,-0.004570312,1,0,0,0.8671,optionRight,40,3735,2,23,0,23,0,1,,,,,,,,,,,,,,,,,,,,,,,,,,,,,,,,,,,,,,,
,,,,,,,5cd5e34157a78e001c1bbf99,2023-08-16_08h47.12.750,HF_wild_card,2022.2.4,MacIntel,60.0024001,5cd5e34157a78e001c1bbf99,64d2fd46c836a06233681665,64dc7ee8ad91d76cb42eb0fb,,,,,,,sngl,resources/DP.BMP,resources/Empty.png,Door1,-0.211037326,0.004904514,1,0,0,2.0114,optionLeft,30,3765,2,24,0,24,0,1,,,,,,,,,,,,,,,,,,,,,,,,,,,,,,,,,,,,,,,
,,,,,,,5cd5e34157a78e001c1bbf99,2023-08-16_08h47.12.750,HF_wild_card,2022.2.4,MacIntel,60.0024001,5cd5e34157a78e001c1bbf99,64d2fd46c836a06233681665,64dc7ee8ad91d76cb42eb0fb,,,,,,,decisionTrl,resources/DP.BMP,resources/DG.BMP,WildCard_Ex,0.188576389,0.000490451,1,0,0,1.4299,optionRight,95,3860,2,25,0,25,0,1,,,,,,,,,,,,,,,,,,,,,,,,,,,,,,,,,,,,,,,
,,,,,,,5cd5e34157a78e001c1bbf99,2023-08-16_08h47.12.750,HF_wild_card,2022.2.4,MacIntel,60.0024001,5cd5e34157a78e001c1bbf99,64d2fd46c836a06233681665,64dc7ee8ad91d76cb42eb0fb,,,,,,,decisionTrl,resources/DBN.BMP,resources/DR.BMP,Door3,-0.217196181,0.001050347,1,0,0,1.661799999,optionLeft,70,3930,2,26,0,26,0,1,,,,,,,,,,,,,,,,,,,,,,,,,,,,,,,,,,,,,,,
,,,,,,,5cd5e34157a78e001c1bbf99,2023-08-16_08h47.12.750,HF_wild_card,2022.2.4,MacIntel,60.0024001,5cd5e34157a78e001c1bbf99,64d2fd46c836a06233681665,64dc7ee8ad91d76cb42eb0fb,,,,,,,sngl,resources/Empty.png,resources/DG.BMP,WildCard_Ex,0.202313368,-0.013033854,1,0,0,0.7833,optionRight,5,3935,2,27,0,27,0,1,,,,,,,,,,,,,,,,,,,,,,,,,,,,,,,,,,,,,,,
,,,,,,,5cd5e34157a78e001c1bbf99,2023-08-16_08h47.12.750,HF_wild_card,2022.2.4,MacIntel,60.0024001,5cd5e34157a78e001c1bbf99,64d2fd46c836a06233681665,64dc7ee8ad91d76cb42eb0fb,,,,,,,decisionTrl,resources/DBN.BMP,resources/DR.BMP,Door4,0.15655816,0.002986111,1,0,0,1.2981,optionRight,60,3995,2,28,0,28,0,1,,,,,,,,,,,,,,,,,,,,,,,,,,,,,,,,,,,,,,,
,,,,,,,5cd5e34157a78e001c1bbf99,2023-08-16_08h47.12.750,HF_wild_card,2022.2.4,MacIntel,60.0024001,5cd5e34157a78e001c1bbf99,64d2fd46c836a06233681665,64dc7ee8ad91d76cb42eb0fb,,,,,,,sngl,resources/DG.BMP,resources/Empty.png,WildCard_Ex,-0.158203125,-0.00812066,1,0,0,0.8644,optionLeft,5,4000,2,29,0,29,0,1,,,,,,,,,,,,,,,,,,,,,,,,,,,,,,,,,,,,,,,
,,,,,,,5cd5e34157a78e001c1bbf99,2023-08-16_08h47.12.750,HF_wild_card,2022.2.4,MacIntel,60.0024001,5cd5e34157a78e001c1bbf99,64d2fd46c836a06233681665,64dc7ee8ad91d76cb42eb0fb,,,,,,,sngl,resources/Empty.png,resources/DR.BMP,Door4,0.173988715,-0.007148438,1,0,0,0.6805,optionRight,80,4080,2,30,0,30,0,1,,,,,,,,,,,,,,,,,,,,,,,,,,,,,,,,,,,,,,,
,,,,,,,5cd5e34157a78e001c1bbf99,2023-08-16_08h47.12.750,HF_wild_card,2022.2.4,MacIntel,60.0024001,5cd5e34157a78e001c1bbf99,64d2fd46c836a06233681665,64dc7ee8ad91d76cb42eb0fb,,,,,,,decisionTrl,resources/DR.BMP,resources/DG.BMP,Door4,-0.152083333,-0.025828993,1,0,0,0.894,optionLeft,60,4140,2,31,0,31,0,1,,,,,,,,,,,,,,,,,,,,,,,,,,,,,,,,,,,,,,,
,,,,,,,5cd5e34157a78e001c1bbf99,2023-08-16_08h47.12.750,HF_wild_card,2022.2.4,MacIntel,60.0024001,5cd5e34157a78e001c1bbf99,64d2fd46c836a06233681665,64dc7ee8ad91d76cb42eb0fb,,,,,,,decisionTrl,resources/DR.BMP,resources/DBN.BMP,Door3,0.284427083,-0.000763889,1,0,0,0.814400001,optionRight,70,4210,2,32,0,32,0,1,,,,,,,,,,,,,,,,,,,,,,,,,,,,,,,,,,,,,,,
,,,,,,,5cd5e34157a78e001c1bbf99,2023-08-16_08h47.12.750,HF_wild_card,2022.2.4,MacIntel,60.0024001,5cd5e34157a78e001c1bbf99,64d2fd46c836a06233681665,64dc7ee8ad91d76cb42eb0fb,,,,,,,decisionTrl,resources/DY.BMP,resources/DP.BMP,Door2,-0.195898437,0.007356771,1,0,0,0.914799999,optionLeft,40,4250,2,33,0,33,0,1,,,,,,,,,,,,,,,,,,,,,,,,,,,,,,,,,,,,,,,
,,,,,,,5cd5e34157a78e001c1bbf99,2023-08-16_08h47.12.750,HF_wild_card,2022.2.4,MacIntel,60.0024001,5cd5e34157a78e001c1bbf99,64d2fd46c836a06233681665,64dc7ee8ad91d76cb42eb0fb,,,,,,,ctch,resources/DR.BMP,resources/DP.BMP,Door4,-0.228967014,0.001054688,1,0,0,1.8472,optionLeft,80,4330,2,34,0,34,0,1,,,,,,,,,,,,,,,,,,,,,,,,,,,,,,,,,,,,,,,
,,,,,,,5cd5e34157a78e001c1bbf99,2023-08-16_08h47.12.750,HF_wild_card,2022.2.4,MacIntel,60.0024001,5cd5e34157a78e001c1bbf99,64d2fd46c836a06233681665,64dc7ee8ad91d76cb42eb0fb,,,,,,,decisionTrl,resources/DY.BMP,resources/DP.BMP,Door2,-0.198758681,0.01219184,1,0,0,1.0466,optionLeft,20,4350,2,35,0,35,0,1,,,,,,,,,,,,,,,,,,,,,,,,,,,,,,,,,,,,,,,
,,,,,,,5cd5e34157a78e001c1bbf99,2023-08-16_08h47.12.750,HF_wild_card,2022.2.4,MacIntel,60.0024001,5cd5e34157a78e001c1bbf99,64d2fd46c836a06233681665,64dc7ee8ad91d76cb42eb0fb,,,,,,,decisionTrl,resources/DR.BMP,resources/DBN.BMP,Door4,-0.190724826,0.017925347,1,0,0,1.3951,optionLeft,80,4430,2,36,0,36,0,1,,,,,,,,,,,,,,,,,,,,,,,,,,,,,,,,,,,,,,,
,,,,,,,5cd5e34157a78e001c1bbf99,2023-08-16_08h47.12.750,HF_wild_card,2022.2.4,MacIntel,60.0024001,5cd5e34157a78e001c1bbf99,64d2fd46c836a06233681665,64dc7ee8ad91d76cb42eb0fb,,,,,,,decisionTrl,resources/DBN.BMP,resources/DR.BMP,Door4,0.183993056,0.006319444,1,0,0,1.0838,optionRight,60,4490,2,37,0,37,0,1,,,,,,,,,,,,,,,,,,,,,,,,,,,,,,,,,,,,,,,
,,,,,,,5cd5e34157a78e001c1bbf99,2023-08-16_08h47.12.750,HF_wild_card,2022.2.4,MacIntel,60.0024001,5cd5e34157a78e001c1bbf99,64d2fd46c836a06233681665,64dc7ee8ad91d76cb42eb0fb,,,,,,,sngl,resources/DBN.BMP,resources/Empty.png,Door3,-0.18421875,-0.008550347,1,0,0,0.7976,optionLeft,70,4560,2,38,0,38,0,1,,,,,,,,,,,,,,,,,,,,,,,,,,,,,,,,,,,,,,,
,,,,,,,5cd5e34157a78e001c1bbf99,2023-08-16_08h47.12.750,HF_wild_card,2022.2.4,MacIntel,60.0024001,5cd5e34157a78e001c1bbf99,64d2fd46c836a06233681665,64dc7ee8ad91d76cb42eb0fb,,,,,,,sngl,resources/DR.BMP,resources/Empty.png,Door4,-0.214678819,0.018953993,1,0,0,0.7799,optionLeft,60,4620,2,39,0,39,0,1,,,,,,,,,,,,,,,,,,,,,,,,,,,,,,,,,,,,,,,
,,,,,,,5cd5e34157a78e001c1bbf99,2023-08-16_08h47.12.750,HF_wild_card,2022.2.4,MacIntel,60.0024001,5cd5e34157a78e001c1bbf99,64d2fd46c836a06233681665,64dc7ee8ad91d76cb42eb0fb,,,,,,,decisionTrl,resources/DY.BMP,resources/DP.BMP,Door1,0.151970486,0.014340278,1,0,0,1.5812,optionRight,30,4650,2,40,0,40,0,1,,,,,,,,,,,,,,,,,,,,,,,,,,,,,,,,,,,,,,,
,,,,,,,5cd5e34157a78e001c1bbf99,2023-08-16_08h47.12.750,HF_wild_card,2022.2.4,MacIntel,60.0024001,5cd5e34157a78e001c1bbf99,64d2fd46c836a06233681665,64dc7ee8ad91d76cb42eb0fb,,,,,,,ctch,resources/DY.BMP,resources/DBN.BMP,Door3,0.259114583,0.036697049,1,0,0,1.1446,optionRight,70,4720,2,41,0,41,0,1,,,,,,,,,,,,,,,,,,,,,,,,,,,,,,,,,,,,,,,
,,,,,,,5cd5e34157a78e001c1bbf99,2023-08-16_08h47.12.750,HF_wild_card,2022.2.4,MacIntel,60.0024001,5cd5e34157a78e001c1bbf99,64d2fd46c836a06233681665,64dc7ee8ad91d76cb42eb0fb,,,,,,,decisionTrl,resources/DY.BMP,resources/DG.BMP,WildCard_Ex,0.173476562,0.026063368,1,0,0,2.767200001,optionRight,95,4815,2,42,0,42,0,1,,,,,,,,,,,,,,,,,,,,,,,,,,,,,,,,,,,,,,,
,,,,,,,5cd5e34157a78e001c1bbf99,2023-08-16_08h47.12.750,HF_wild_card,2022.2.4,MacIntel,60.0024001,5cd5e34157a78e001c1bbf99,64d2fd46c836a06233681665,64dc7ee8ad91d76cb42eb0fb,,,,,,,sngl,resources/DY.BMP,resources/Empty.png,Door2,-0.16578559,0.034947917,1,0,0,0.7776,optionLeft,20,4835,2,43,0,43,0,1,,,,,,,,,,,,,,,,,,,,,,,,,,,,,,,,,,,,,,,
,,,,,,,5cd5e34157a78e001c1bbf99,2023-08-16_08h47.12.750,HF_wild_card,2022.2.4,MacIntel,60.0024001,5cd5e34157a78e001c1bbf99,64d2fd46c836a06233681665,64dc7ee8ad91d76cb42eb0fb,,,,,,,,,,,,,,,,,,,,,,,,,,1,0,1,0,1,,,,,,,,,,,,,,,,,,,,,,,,,,,,,,,,,,
,,,,,,,5cd5e34157a78e001c1bbf99,2023-08-16_08h47.12.750,HF_wild_card,2022.2.4,MacIntel,60.0024001,5cd5e34157a78e001c1bbf99,64d2fd46c836a06233681665,64dc7ee8ad91d76cb42eb0fb,,,,,,,decisionTrl,resources/DBN.BMP,resources/DR.BMP,Door4,0.221809896,-0.026349826,1,0,0,3.1493,optionRight,60,4895,3,0,0,0,0,1,,,,,,,,,,,,,,,,,,,,,,,,,,,,,,,,,,,,,,,
,,,,,,,5cd5e34157a78e001c1bbf99,2023-08-16_08h47.12.750,HF_wild_card,2022.2.4,MacIntel,60.0024001,5cd5e34157a78e001c1bbf99,64d2fd46c836a06233681665,64dc7ee8ad91d76cb42eb0fb,,,,,,,decisionTrl,resources/DP.BMP,resources/DY.BMP,Door2,0.224383681,0.004986979,1,0,0,1.135099999,optionRight,40,4935,3,1,0,1,0,1,,,,,,,,,,,,,,,,,,,,,,,,,,,,,,,,,,,,,,,
,,,,,,,5cd5e34157a78e001c1bbf99,2023-08-16_08h47.12.750,HF_wild_card,2022.2.4,MacIntel,60.0024001,5cd5e34157a78e001c1bbf99,64d2fd46c836a06233681665,64dc7ee8ad91d76cb42eb0fb,,,,,,,decisionTrl,resources/DY.BMP,resources/DP.BMP,Door2,-0.1978125,0.002074653,1,0,0,0.6985,optionLeft,20,4955,3,2,0,2,0,1,,,,,,,,,,,,,,,,,,,,,,,,,,,,,,,,,,,,,,,
,,,,,,,5cd5e34157a78e001c1bbf99,2023-08-16_08h47.12.750,HF_wild_card,2022.2.4,MacIntel,60.0024001,5cd5e34157a78e001c1bbf99,64d2fd46c836a06233681665,64dc7ee8ad91d76cb42eb0fb,,,,,,,decisionTrl,resources/DBN.BMP,resources/DG.BMP,WildCard_Ex,0.167539063,0.037821181,1,0,0,2.4467,optionRight,95,5050,3,3,0,3,0,1,,,,,,,,,,,,,,,,,,,,,,,,,,,,,,,,,,,,,,,
,,,,,,,5cd5e34157a78e001c1bbf99,2023-08-16_08h47.12.750,HF_wild_card,2022.2.4,MacIntel,60.0024001,5cd5e34157a78e001c1bbf99,64d2fd46c836a06233681665,64dc7ee8ad91d76cb42eb0fb,,,,,,,ctch,resources/DP.BMP,resources/DR.BMP,Door4,0.181983507,0.038967014,1,0,0,1.3631,optionRight,60,5110,3,4,0,4,0,1,,,,,,,,,,,,,,,,,,,,,,,,,,,,,,,,,,,,,,,
,,,,,,,5cd5e34157a78e001c1bbf99,2023-08-16_08h47.12.750,HF_wild_card,2022.2.4,MacIntel,60.0024001,5cd5e34157a78e001c1bbf99,64d2fd46c836a06233681665,64dc7ee8ad91d76cb42eb0fb,,,,,,,decisionTrl,resources/DP.BMP,resources/DY.BMP,Door2,0.182057292,0.023450521,1,0,0,1.0815,optionRight,20,5130,3,5,0,5,0,1,,,,,,,,,,,,,,,,,,,,,,,,,,,,,,,,,,,,,,,
,,,,,,,5cd5e34157a78e001c1bbf99,2023-08-16_08h47.12.750,HF_wild_card,2022.2.4,MacIntel,60.0024001,5cd5e34157a78e001c1bbf99,64d2fd46c836a06233681665,64dc7ee8ad91d76cb42eb0fb,,,,,,,sngl,resources/DBN.BMP,resources/Empty.png,Door3,-0.186970486,-0.013363715,1,0,0,0.7835,optionLeft,70,5200,3,6,0,6,0,1,,,,,,,,,,,,,,,,,,,,,,,,,,,,,,,,,,,,,,,
,,,,,,,5cd5e34157a78e001c1bbf99,2023-08-16_08h47.12.750,HF_wild_card,2022.2.4,MacIntel,60.0024001,5cd5e34157a78e001c1bbf99,64d2fd46c836a06233681665,64dc7ee8ad91d76cb42eb0fb,,,,,,,ctch,resources/DY.BMP,resources/DBN.BMP,Door3,0.185542535,0.041280382,1,0,0,1.1649,optionRight,70,5270,3,7,0,7,0,1,,,,,,,,,,,,,,,,,,,,,,,,,,,,,,,,,,,,,,,
,,,,,,,5cd5e34157a78e001c1bbf99,2023-08-16_08h47.12.750,HF_wild_card,2022.2.4,MacIntel,60.0024001,5cd5e34157a78e001c1bbf99,64d2fd46c836a06233681665,64dc7ee8ad91d76cb42eb0fb,,,,,,,sngl,resources/DR.BMP,resources/Empty.png,Door4,-0.198654514,0.019288194,1,0,0,0.6788,optionLeft,80,5350,3,8,0,8,0,1,,,,,,,,,,,,,,,,,,,,,,,,,,,,,,,,,,,,,,,
,,,,,,,5cd5e34157a78e001c1bbf99,2023-08-16_08h47.12.750,HF_wild_card,2022.2.4,MacIntel,60.0024001,5cd5e34157a78e001c1bbf99,64d2fd46c836a06233681665,64dc7ee8ad91d76cb42eb0fb,,,,,,,decisionTrl,resources/DG.BMP,resources/DBN.BMP,Door3,0.17219184,0.035325521,1,0,0,1.4637,optionRight,70,5420,3,9,0,9,0,1,,,,,,,,,,,,,,,,,,,,,,,,,,,,,,,,,,,,,,,
,,,,,,,5cd5e34157a78e001c1bbf99,2023-08-16_08h47.12.750,HF_wild_card,2022.2.4,MacIntel,60.0024001,5cd5e34157a78e001c1bbf99,64d2fd46c836a06233681665,64dc7ee8ad91d76cb42eb0fb,,,,,,,sngl,resources/DG.BMP,resources/Empty.png,WildCard_Ex,-0.129327257,-0.016744792,1,0,0,0.7493,optionLeft,95,5515,3,10,0,10,0,1,,,,,,,,,,,,,,,,,,,,,,,,,,,,,,,,,,,,,,,
,,,,,,,5cd5e34157a78e001c1bbf99,2023-08-16_08h47.12.750,HF_wild_card,2022.2.4,MacIntel,60.0024001,5cd5e34157a78e001c1bbf99,64d2fd46c836a06233681665,64dc7ee8ad91d76cb42eb0fb,,,,,,,sngl,resources/DG.BMP,resources/Empty.png,WildCard_Ex,-0.192473958,-0.008151042,1,0,0,0.93,optionLeft,5,5520,3,11,0,11,0,1,,,,,,,,,,,,,,,,,,,,,,,,,,,,,,,,,,,,,,,
,,,,,,,5cd5e34157a78e001c1bbf99,2023-08-16_08h47.12.750,HF_wild_card,2022.2.4,MacIntel,60.0024001,5cd5e34157a78e001c1bbf99,64d2fd46c836a06233681665,64dc7ee8ad91d76cb42eb0fb,,,,,,,ctch,resources/DY.BMP,resources/DBN.BMP,Door3,0.201679688,-0.006801215,1,0,0,1.1969,optionRight,70,5590,3,12,0,12,0,1,,,,,,,,,,,,,,,,,,,,,,,,,,,,,,,,,,,,,,,
,,,,,,,5cd5e34157a78e001c1bbf99,2023-08-16_08h47.12.750,HF_wild_card,2022.2.4,MacIntel,60.0024001,5cd5e34157a78e001c1bbf99,64d2fd46c836a06233681665,64dc7ee8ad91d76cb42eb0fb,,,,,,,decisionTrl,resources/DY.BMP,resources/DG.BMP,WildCard_Ex,0.156514757,0.002960069,1,0,0,0.9642,optionRight,95,5685,3,13,0,13,0,1,,,,,,,,,,,,,,,,,,,,,,,,,,,,,,,,,,,,,,,
,,,,,,,5cd5e34157a78e001c1bbf99,2023-08-16_08h47.12.750,HF_wild_card,2022.2.4,MacIntel,60.0024001,5cd5e34157a78e001c1bbf99,64d2fd46c836a06233681665,64dc7ee8ad91d76cb42eb0fb,,,,,,,decisionTrl,resources/DY.BMP,resources/DP.BMP,Door2,-0.221163194,-0.009227431,1,0,0,0.913,optionLeft,20,5705,3,14,0,14,0,1,,,,,,,,,,,,,,,,,,,,,,,,,,,,,,,,,,,,,,,
,,,,,,,5cd5e34157a78e001c1bbf99,2023-08-16_08h47.12.750,HF_wild_card,2022.2.4,MacIntel,60.0024001,5cd5e34157a78e001c1bbf99,64d2fd46c836a06233681665,64dc7ee8ad91d76cb42eb0fb,,,,,,,decisionTrl,resources/DR.BMP,resources/DBN.BMP,Door3,0.200043403,0.027369792,1,0,0,2.9947,optionRight,70,5775,3,15,0,15,0,1,,,,,,,,,,,,,,,,,,,,,,,,,,,,,,,,,,,,,,,
,,,,,,,5cd5e34157a78e001c1bbf99,2023-08-16_08h47.12.750,HF_wild_card,2022.2.4,MacIntel,60.0024001,5cd5e34157a78e001c1bbf99,64d2fd46c836a06233681665,64dc7ee8ad91d76cb42eb0fb,,,,,,,decisionTrl,resources/DP.BMP,resources/DG.BMP,WildCard_Ex,0.190329861,0.017378472,1,0,0,1.4957,optionRight,95,5870,3,16,0,16,0,1,,,,,,,,,,,,,,,,,,,,,,,,,,,,,,,,,,,,,,,
,,,,,,,5cd5e34157a78e001c1bbf99,2023-08-16_08h47.12.750,HF_wild_card,2022.2.4,MacIntel,60.0024001,5cd5e34157a78e001c1bbf99,64d2fd46c836a06233681665,64dc7ee8ad91d76cb42eb0fb,,,,,,,decisionTrl,resources/DR.BMP,resources/DBN.BMP,Door4,-0.217777778,-0.005694444,1,0,0,1.5948,optionLeft,80,5950,3,17,0,17,0,1,,,,,,,,,,,,,,,,,,,,,,,,,,,,,,,,,,,,,,,
,,,,,,,5cd5e34157a78e001c1bbf99,2023-08-16_08h47.12.750,HF_wild_card,2022.2.4,MacIntel,60.0024001,5cd5e34157a78e001c1bbf99,64d2fd46c836a06233681665,64dc7ee8ad91d76cb42eb0fb,,,,,,,ctch,resources/DR.BMP,resources/DP.BMP,Door4,-0.190017361,-0.003489583,1,0,0,1.082099999,optionLeft,80,6030,3,18,0,18,0,1,,,,,,,,,,,,,,,,,,,,,,,,,,,,,,,,,,,,,,,
,,,,,,,5cd5e34157a78e001c1bbf99,2023-08-16_08h47.12.750,HF_wild_card,2022.2.4,MacIntel,60.0024001,5cd5e34157a78e001c1bbf99,64d2fd46c836a06233681665,64dc7ee8ad91d76cb42eb0fb,,,,,,,decisionTrl,resources/DG.BMP,resources/DR.BMP,Door4,0.253294271,0.01827691,1,0,0,1.330400001,optionRight,80,6110,3,19,0,19,0,1,,,,,,,,,,,,,,,,,,,,,,,,,,,,,,,,,,,,,,,
,,,,,,,5cd5e34157a78e001c1bbf99,2023-08-16_08h47.12.750,HF_wild_card,2022.2.4,MacIntel,60.0024001,5cd5e34157a78e001c1bbf99,64d2fd46c836a06233681665,64dc7ee8ad91d76cb42eb0fb,,,,,,,decisionTrl,resources/DP.BMP,resources/DY.BMP,Door2,0.174978299,0.011809896,1,0,0,1.7983,optionRight,40,6150,3,20,0,20,0,1,,,,,,,,,,,,,,,,,,,,,,,,,,,,,,,,,,,,,,,
,,,,,,,5cd5e34157a78e001c1bbf99,2023-08-16_08h47.12.750,HF_wild_card,2022.2.4,MacIntel,60.0024001,5cd5e34157a78e001c1bbf99,64d2fd46c836a06233681665,64dc7ee8ad91d76cb42eb0fb,,,,,,,decisionTrl,resources/DR.BMP,resources/DBN.BMP,Door4,-0.220525174,-0.038732639,1,0,0,1.829,optionLeft,80,6230,3,21,0,21,0,1,,,,,,,,,,,,,,,,,,,,,,,,,,,,,,,,,,,,,,,
,,,,,,,5cd5e34157a78e001c1bbf99,2023-08-16_08h47.12.750,HF_wild_card,2022.2.4,MacIntel,60.0024001,5cd5e34157a78e001c1bbf99,64d2fd46c836a06233681665,64dc7ee8ad91d76cb42eb0fb,,,,,,,sngl,resources/DP.BMP,resources/Empty.png,Door1,-0.192764757,-0.003980035,1,0,0,0.848400001,optionLeft,30,6260,3,22,0,22,0,1,,,,,,,,,,,,,,,,,,,,,,,,,,,,,,,,,,,,,,,
,,,,,,,5cd5e34157a78e001c1bbf99,2023-08-16_08h47.12.750,HF_wild_card,2022.2.4,MacIntel,60.0024001,5cd5e34157a78e001c1bbf99,64d2fd46c836a06233681665,64dc7ee8ad91d76cb42eb0fb,,,,,,,decisionTrl,resources/DG.BMP,resources/DP.BMP,Door1,0.173502604,0.039388021,1,0,0,2.5296,optionRight,30,6290,3,23,0,23,0,1,,,,,,,,,,,,,,,,,,,,,,,,,,,,,,,,,,,,,,,
,,,,,,,5cd5e34157a78e001c1bbf99,2023-08-16_08h47.12.750,HF_wild_card,2022.2.4,MacIntel,60.0024001,5cd5e34157a78e001c1bbf99,64d2fd46c836a06233681665,64dc7ee8ad91d76cb42eb0fb,,,,,,,sngl,resources/Empty.png,resources/DG.BMP,WildCard_Ex,0.2003125,-0.011818576,1,0,0,0.729,optionRight,95,6385,3,24,0,24,0,1,,,,,,,,,,,,,,,,,,,,,,,,,,,,,,,,,,,,,,,
,,,,,,,5cd5e34157a78e001c1bbf99,2023-08-16_08h47.12.750,HF_wild_card,2022.2.4,MacIntel,60.0024001,5cd5e34157a78e001c1bbf99,64d2fd46c836a06233681665,64dc7ee8ad91d76cb42eb0fb,,,,,,,sngl,resources/Empty.png,resources/DBN.BMP,Door3,0.209500868,0.000078125,1,0,0,0.766900001,optionRight,70,6455,3,25,0,25,0,1,,,,,,,,,,,,,,,,,,,,,,,,,,,,,,,,,,,,,,,
,,,,,,,5cd5e34157a78e001c1bbf99,2023-08-16_08h47.12.750,HF_wild_card,2022.2.4,MacIntel,60.0024001,5cd5e34157a78e001c1bbf99,64d2fd46c836a06233681665,64dc7ee8ad91d76cb42eb0fb,,,,,,,ctch,resources/DR.BMP,resources/DP.BMP,Door4,-0.37156684,-0.029639757,1,0,0,1.5801,optionLeft,80,6535,3,26,0,26,0,1,,,,,,,,,,,,,,,,,,,,,,,,,,,,,,,,,,,,,,,
,,,,,,,5cd5e34157a78e001c1bbf99,2023-08-16_08h47.12.750,HF_wild_card,2022.2.4,MacIntel,60.0024001,5cd5e34157a78e001c1bbf99,64d2fd46c836a06233681665,64dc7ee8ad91d76cb42eb0fb,,,,,,,sngl,resources/DY.BMP,resources/Empty.png,Door2,-0.157599826,0.002604167,1,0,0,0.6146,optionLeft,40,6575,3,27,0,27,0,1,,,,,,,,,,,,,,,,,,,,,,,,,,,,,,,,,,,,,,,
,,,,,,,5cd5e34157a78e001c1bbf99,2023-08-16_08h47.12.750,HF_wild_card,2022.2.4,MacIntel,60.0024001,5cd5e34157a78e001c1bbf99,64d2fd46c836a06233681665,64dc7ee8ad91d76cb42eb0fb,,,,,,,decisionTrl,resources/DY.BMP,resources/DP.BMP,Door2,-0.147196181,0.017022569,1,0,0,1.2491,optionLeft,20,6595,3,28,0,28,0,1,,,,,,,,,,,,,,,,,,,,,,,,,,,,,,,,,,,,,,,
,,,,,,,5cd5e34157a78e001c1bbf99,2023-08-16_08h47.12.750,HF_wild_card,2022.2.4,MacIntel,60.0024001,5cd5e34157a78e001c1bbf99,64d2fd46c836a06233681665,64dc7ee8ad91d76cb42eb0fb,,,,,,,sngl,resources/Empty.png,resources/DR.BMP,Door4,0.222078993,0.025082465,1,0,0,0.7119,optionRight,60,6655,3,29,0,29,0,1,,,,,,,,,,,,,,,,,,,,,,,,,,,,,,,,,,,,,,,
,,,,,,,5cd5e34157a78e001c1bbf99,2023-08-16_08h47.12.750,HF_wild_card,2022.2.4,MacIntel,60.0024001,5cd5e34157a78e001c1bbf99,64d2fd46c836a06233681665,64dc7ee8ad91d76cb42eb0fb,,,,,,,ctch,resources/DP.BMP,resources/DR.BMP,Door4,0.236875,0.001197917,1,0,0,1.3124,optionRight,80,6735,3,30,0,30,0,1,,,,,,,,,,,,,,,,,,,,,,,,,,,,,,,,,,,,,,,
,,,,,,,5cd5e34157a78e001c1bbf99,2023-08-16_08h47.12.750,HF_wild_card,2022.2.4,MacIntel,60.0024001,5cd5e34157a78e001c1bbf99,64d2fd46c836a06233681665,64dc7ee8ad91d76cb42eb0fb,,,,,,,decisionTrl,resources/DG.BMP,resources/DY.BMP,Door2,0.243081597,0.018732639,1,0,0,2.9481,optionRight,20,6755,3,31,0,31,0,1,,,,,,,,,,,,,,,,,,,,,,,,,,,,,,,,,,,,,,,
,,,,,,,5cd5e34157a78e001c1bbf99,2023-08-16_08h47.12.750,HF_wild_card,2022.2.4,MacIntel,60.0024001,5cd5e34157a78e001c1bbf99,64d2fd46c836a06233681665,64dc7ee8ad91d76cb42eb0fb,,,,,,,sngl,resources/Empty.png,resources/DP.BMP,Door1,0.129305556,0.000928819,1,0,0,0.845,optionRight,30,6785,3,32,0,32,0,1,,,,,,,,,,,,,,,,,,,,,,,,,,,,,,,,,,,,,,,
,,,,,,,5cd5e34157a78e001c1bbf99,2023-08-16_08h47.12.750,HF_wild_card,2022.2.4,MacIntel,60.0024001,5cd5e34157a78e001c1bbf99,64d2fd46c836a06233681665,64dc7ee8ad91d76cb42eb0fb,,,,,,,decisionTrl,resources/DY.BMP,resources/DP.BMP,Door2,-0.169700521,0.014544271,1,0,0,1.3284,optionLeft,20,6805,3,33,0,33,0,1,,,,,,,,,,,,,,,,,,,,,,,,,,,,,,,,,,,,,,,
,,,,,,,5cd5e34157a78e001c1bbf99,2023-08-16_08h47.12.750,HF_wild_card,2022.2.4,MacIntel,60.0024001,5cd5e34157a78e001c1bbf99,64d2fd46c836a06233681665,64dc7ee8ad91d76cb42eb0fb,,,,,,,ctch,resources/DBN.BMP,resources/DY.BMP,Door3,-0.165399306,0.007886285,1,0,0,0.9453,optionLeft,70,6875,3,34,0,34,0,1,,,,,,,,,,,,,,,,,,,,,,,,,,,,,,,,,,,,,,,
,,,,,,,5cd5e34157a78e001c1bbf99,2023-08-16_08h47.12.750,HF_wild_card,2022.2.4,MacIntel,60.0024001,5cd5e34157a78e001c1bbf99,64d2fd46c836a06233681665,64dc7ee8ad91d76cb42eb0fb,,,,,,,decisionTrl,resources/DBN.BMP,resources/DR.BMP,Door4,0.145885417,0.006076389,1,0,0,2.0496,optionRight,60,6935,3,35,0,35,0,1,,,,,,,,,,,,,,,,,,,,,,,,,,,,,,,,,,,,,,,
,,,,,,,5cd5e34157a78e001c1bbf99,2023-08-16_08h47.12.750,HF_wild_card,2022.2.4,MacIntel,60.0024001,5cd5e34157a78e001c1bbf99,64d2fd46c836a06233681665,64dc7ee8ad91d76cb42eb0fb,,,,,,,decisionTrl,resources/DR.BMP,resources/DG.BMP,WildCard_Ex,0.157690972,-0.013320313,1,0,0,1.1968,optionRight,95,7030,3,36,0,36,0,1,,,,,,,,,,,,,,,,,,,,,,,,,,,,,,,,,,,,,,,
,,,,,,,5cd5e34157a78e001c1bbf99,2023-08-16_08h47.12.750,HF_wild_card,2022.2.4,MacIntel,60.0024001,5cd5e34157a78e001c1bbf99,64d2fd46c836a06233681665,64dc7ee8ad91d76cb42eb0fb,,,,,,,ctch,resources/DBN.BMP,resources/DY.BMP,Door3,-0.249240451,-0.024131944,1,0,0,1.1643,optionLeft,70,7100,3,37,0,37,0,1,,,,,,,,,,,,,,,,,,,,,,,,,,,,,,,,,,,,,,,
,,,,,,,5cd5e34157a78e001c1bbf99,2023-08-16_08h47.12.750,HF_wild_card,2022.2.4,MacIntel,60.0024001,5cd5e34157a78e001c1bbf99,64d2fd46c836a06233681665,64dc7ee8ad91d76cb42eb0fb,,,,,,,sngl,resources/Empty.png,resources/DG.BMP,WildCard_Ex,0.248945312,-0.000520833,1,0,0,0.748099999,optionRight,5,7105,3,38,0,38,0,1,,,,,,,,,,,,,,,,,,,,,,,,,,,,,,,,,,,,,,,
,,,,,,,5cd5e34157a78e001c1bbf99,2023-08-16_08h47.12.750,HF_wild_card,2022.2.4,MacIntel,60.0024001,5cd5e34157a78e001c1bbf99,64d2fd46c836a06233681665,64dc7ee8ad91d76cb42eb0fb,,,,,,,decisionTrl,resources/DBN.BMP,resources/DR.BMP,Door3,-0.174414062,0.043133681,1,0,0,2.0643,optionLeft,70,7175,3,39,0,39,0,1,,,,,,,,,,,,,,,,,,,,,,,,,,,,,,,,,,,,,,,
,,,,,,,5cd5e34157a78e001c1bbf99,2023-08-16_08h47.12.750,HF_wild_card,2022.2.4,MacIntel,60.0024001,5cd5e34157a78e001c1bbf99,64d2fd46c836a06233681665,64dc7ee8ad91d76cb42eb0fb,,,,,,,sngl,resources/Empty.png,resources/DY.BMP,Door2,0.222690972,-0.010108507,1,0,0,0.796599999,optionRight,20,7195,3,40,0,40,0,1,,,,,,,,,,,,,,,,,,,,,,,,,,,,,,,,,,,,,,,
,,,,,,,5cd5e34157a78e001c1bbf99,2023-08-16_08h47.12.750,HF_wild_card,2022.2.4,MacIntel,60.0024001,5cd5e34157a78e001c1bbf99,64d2fd46c836a06233681665,64dc7ee8ad91d76cb42eb0fb,,,,,,,decisionTrl,resources/DR.BMP,resources/DBN.BMP,Door4,-0.149973958,-0.021692708,1,0,0,1.7648,optionLeft,80,7275,3,41,0,41,0,1,,,,,,,,,,,,,,,,,,,,,,,,,,,,,,,,,,,,,,,
,,,,,,,5cd5e34157a78e001c1bbf99,2023-08-16_08h47.12.750,HF_wild_card,2022.2.4,MacIntel,60.0024001,5cd5e34157a78e001c1bbf99,64d2fd46c836a06233681665,64dc7ee8ad91d76cb42eb0fb,,,,,,,decisionTrl,resources/DP.BMP,resources/DY.BMP,Door2,0.202634549,0.023142361,1,0,0,0.9994,optionRight,20,7295,3,42,0,42,0,1,,,,,,,,,,,,,,,,,,,,,,,,,,,,,,,,,,,,,,,
,,,,,,,5cd5e34157a78e001c1bbf99,2023-08-16_08h47.12.750,HF_wild_card,2022.2.4,MacIntel,60.0024001,5cd5e34157a78e001c1bbf99,64d2fd46c836a06233681665,64dc7ee8ad91d76cb42eb0fb,,,,,,,decisionTrl,resources/DBN.BMP,resources/DR.BMP,Door3,-0.172356771,-0.016215278,1,0,0,1.862200001,optionLeft,70,7365,3,43,0,43,0,1,,,,,,,,,,,,,,,,,,,,,,,,,,,,,,,,,,,,,,,
,,,,,,,5cd5e34157a78e001c1bbf99,2023-08-16_08h47.12.750,HF_wild_card,2022.2.4,MacIntel,60.0024001,5cd5e34157a78e001c1bbf99,64d2fd46c836a06233681665,64dc7ee8ad91d76cb42eb0fb,,,,,,,,,,,,,,,,,,,,,,,,,,2,0,2,0,1,,,,,,,,,,,,,,,,,,,,,,,,,,,,,,,,,,
,,,,,,,5cd5e34157a78e001c1bbf99,2023-08-16_08h47.12.750,HF_wild_card,2022.2.4,MacIntel,60.0024001,5cd5e34157a78e001c1bbf99,64d2fd46c836a06233681665,64dc7ee8ad91d76cb42eb0fb,,,,,,,decisionTrl,resources/DR.BMP,resources/DB.BMP,WildCard_NonEx,0.218988715,-0.004383681,1,0,0,1.516400001,optionRight,55,7420,4,0,0,0,0,1,,,,,,,,,,,,,,,,,,,,,,,,,,,,,,,,,,,,,,,
,,,,,,,5cd5e34157a78e001c1bbf99,2023-08-16_08h47.12.750,HF_wild_card,2022.2.4,MacIntel,60.0024001,5cd5e34157a78e001c1bbf99,64d2fd46c836a06233681665,64dc7ee8ad91d76cb42eb0fb,,,,,,,decisionTrl,resources/DR.BMP,resources/DBN.BMP,Door4,-0.23719184,0.001623264,1,0,0,1.2513,optionLeft,60,7480,4,1,0,1,0,1,,,,,,,,,,,,,,,,,,,,,,,,,,,,,,,,,,,,,,,
,,,,,,,5cd5e34157a78e001c1bbf99,2023-08-16_08h47.12.750,HF_wild_card,2022.2.4,MacIntel,60.0024001,5cd5e34157a78e001c1bbf99,64d2fd46c836a06233681665,64dc7ee8ad91d76cb42eb0fb,,,,,,,sngl,resources/Empty.png,resources/DB.BMP,WildCard_NonEx,0.219492187,-0.008298611,1,0,0,0.829900001,optionRight,55,7535,4,2,0,2,0,1,,,,,,,,,,,,,,,,,,,,,,,,,,,,,,,,,,,,,,,
,,,,,,,5cd5e34157a78e001c1bbf99,2023-08-16_08h47.12.750,HF_wild_card,2022.2.4,MacIntel,60.0024001,5cd5e34157a78e001c1bbf99,64d2fd46c836a06233681665,64dc7ee8ad91d76cb42eb0fb,,,,,,,decisionTrl,resources/DR.BMP,resources/DBN.BMP,Door3,0.22890625,-0.002374132,1,0,0,0.9142,optionRight,70,7605,4,3,0,3,0,1,,,,,,,,,,,,,,,,,,,,,,,,,,,,,,,,,,,,,,,
,,,,,,,5cd5e34157a78e001c1bbf99,2023-08-16_08h47.12.750,HF_wild_card,2022.2.4,MacIntel,60.0024001,5cd5e34157a78e001c1bbf99,64d2fd46c836a06233681665,64dc7ee8ad91d76cb42eb0fb,,,,,,,ctch,resources/DBN.BMP,resources/DY.BMP,Door3,-0.194227431,0.018411458,1,0,0,0.9775,optionLeft,70,7675,4,4,0,4,0,1,,,,,,,,,,,,,,,,,,,,,,,,,,,,,,,,,,,,,,,
,,,,,,,5cd5e34157a78e001c1bbf99,2023-08-16_08h47.12.750,HF_wild_card,2022.2.4,MacIntel,60.0024001,5cd5e34157a78e001c1bbf99,64d2fd46c836a06233681665,64dc7ee8ad91d76cb42eb0fb,,,,,,,decisionTrl,resources/DY.BMP,resources/DP.BMP,Door2,-0.154301215,0.025386285,1,0,0,1.0791,optionLeft,40,7715,4,5,0,5,0,1,,,,,,,,,,,,,,,,,,,,,,,,,,,,,,,,,,,,,,,
,,,,,,,5cd5e34157a78e001c1bbf99,2023-08-16_08h47.12.750,HF_wild_card,2022.2.4,MacIntel,60.0024001,5cd5e34157a78e001c1bbf99,64d2fd46c836a06233681665,64dc7ee8ad91d76cb42eb0fb,,,,,,,decisionTrl,resources/DP.BMP,resources/DY.BMP,Door2,0.160789931,-0.020334201,1,0,0,0.845,optionRight,40,7755,4,6,0,6,0,1,,,,,,,,,,,,,,,,,,,,,,,,,,,,,,,,,,,,,,,
,,,,,,,5cd5e34157a78e001c1bbf99,2023-08-16_08h47.12.750,HF_wild_card,2022.2.4,MacIntel,60.0024001,5cd5e34157a78e001c1bbf99,64d2fd46c836a06233681665,64dc7ee8ad91d76cb42eb0fb,,,,,,,ctch,resources/DP.BMP,resources/DR.BMP,Door4,0.183958333,0.025494792,1,0,0,1.029,optionRight,60,7815,4,7,0,7,0,1,,,,,,,,,,,,,,,,,,,,,,,,,,,,,,,,,,,,,,,
,,,,,,,5cd5e34157a78e001c1bbf99,2023-08-16_08h47.12.750,HF_wild_card,2022.2.4,MacIntel,60.0024001,5cd5e34157a78e001c1bbf99,64d2fd46c836a06233681665,64dc7ee8ad91d76cb42eb0fb,,,,,,,sngl,resources/DB.BMP,resources/Empty.png,WildCard_NonEx,-0.212764757,0.013207465,1,0,0,0.813,optionLeft,45,7860,4,8,0,8,0,1,,,,,,,,,,,,,,,,,,,,,,,,,,,,,,,,,,,,,,,
,,,,,,,5cd5e34157a78e001c1bbf99,2023-08-16_08h47.12.750,HF_wild_card,2022.2.4,MacIntel,60.0024001,5cd5e34157a78e001c1bbf99,64d2fd46c836a06233681665,64dc7ee8ad91d76cb42eb0fb,,,,,,,decisionTrl,resources/DR.BMP,resources/DBN.BMP,Door4,-0.224800347,0.011610243,1,0,0,2.2328,optionLeft,80,7940,4,9,0,9,0,1,,,,,,,,,,,,,,,,,,,,,,,,,,,,,,,,,,,,,,,
,,,,,,,5cd5e34157a78e001c1bbf99,2023-08-16_08h47.12.750,HF_wild_card,2022.2.4,MacIntel,60.0024001,5cd5e34157a78e001c1bbf99,64d2fd46c836a06233681665,64dc7ee8ad91d76cb42eb0fb,,,,,,,sngl,resources/Empty.png,resources/DP.BMP,Door1,0.186046007,-0.025963542,1,0,0,0.882099999,optionRight,30,7970,4,10,0,10,0,1,,,,,,,,,,,,,,,,,,,,,,,,,,,,,,,,,,,,,,,
,,,,,,,5cd5e34157a78e001c1bbf99,2023-08-16_08h47.12.750,HF_wild_card,2022.2.4,MacIntel,60.0024001,5cd5e34157a78e001c1bbf99,64d2fd46c836a06233681665,64dc7ee8ad91d76cb42eb0fb,,,,,,,sngl,resources/DP.BMP,resources/Empty.png,Door1,-0.207447917,-0.002756076,1,0,0,0.6288,optionLeft,30,8000,4,11,0,11,0,1,,,,,,,,,,,,,,,,,,,,,,,,,,,,,,,,,,,,,,,
,,,,,,,5cd5e34157a78e001c1bbf99,2023-08-16_08h47.12.750,HF_wild_card,2022.2.4,MacIntel,60.0024001,5cd5e34157a78e001c1bbf99,64d2fd46c836a06233681665,64dc7ee8ad91d76cb42eb0fb,,,,,,,decisionTrl,resources/DP.BMP,resources/DY.BMP,Door2,0.19702691,0.022643229,1,0,0,0.8617,optionRight,20,8020,4,12,0,12,0,1,,,,,,,,,,,,,,,,,,,,,,,,,,,,,,,,,,,,,,,
,,,,,,,5cd5e34157a78e001c1bbf99,2023-08-16_08h47.12.750,HF_wild_card,2022.2.4,MacIntel,60.0024001,5cd5e34157a78e001c1bbf99,64d2fd46c836a06233681665,64dc7ee8ad91d76cb42eb0fb,,,,,,,sngl,resources/DBN.BMP,resources/Empty.png,Door3,-0.196158854,0.012638889,1,0,0,0.629200001,optionLeft,70,8090,4,13,0,13,0,1,,,,,,,,,,,,,,,,,,,,,,,,,,,,,,,,,,,,,,,
,,,,,,,5cd5e34157a78e001c1bbf99,2023-08-16_08h47.12.750,HF_wild_card,2022.2.4,MacIntel,60.0024001,5cd5e34157a78e001c1bbf99,64d2fd46c836a06233681665,64dc7ee8ad91d76cb42eb0fb,,,,,,,sngl,resources/Empty.png,resources/DY.BMP,Door2,0.206484375,-0.018012153,1,0,0,0.7974,optionRight,40,8130,4,14,0,14,0,1,,,,,,,,,,,,,,,,,,,,,,,,,,,,,,,,,,,,,,,
,,,,,,,5cd5e34157a78e001c1bbf99,2023-08-16_08h47.12.750,HF_wild_card,2022.2.4,MacIntel,60.0024001,5cd5e34157a78e001c1bbf99,64d2fd46c836a06233681665,64dc7ee8ad91d76cb42eb0fb,,,,,,,decisionTrl,resources/DBN.BMP,resources/DB.BMP,Door3,-0.194301215,-0.030034722,1,0,0,1.433,optionLeft,70,8200,4,15,0,15,0,1,,,,,,,,,,,,,,,,,,,,,,,,,,,,,,,,,,,,,,,
,,,,,,,5cd5e34157a78e001c1bbf99,2023-08-16_08h47.12.750,HF_wild_card,2022.2.4,MacIntel,60.0024001,5cd5e34157a78e001c1bbf99,64d2fd46c836a06233681665,64dc7ee8ad91d76cb42eb0fb,,,,,,,decisionTrl,resources/DY.BMP,resources/DB.BMP,Door2,-0.181805556,-0.001814236,1,0,0,0.7328,optionLeft,20,8220,4,16,0,16,0,1,,,,,,,,,,,,,,,,,,,,,,,,,,,,,,,,,,,,,,,
,,,,,,,5cd5e34157a78e001c1bbf99,2023-08-16_08h47.12.750,HF_wild_card,2022.2.4,MacIntel,60.0024001,5cd5e34157a78e001c1bbf99,64d2fd46c836a06233681665,64dc7ee8ad91d76cb42eb0fb,,,,,,,decisionTrl,resources/DBN.BMP,resources/DR.BMP,Door3,-0.232065972,0.006553819,1,0,0,3.3144,optionLeft,70,8290,4,17,0,17,0,1,,,,,,,,,,,,,,,,,,,,,,,,,,,,,,,,,,,,,,,
,,,,,,,5cd5e34157a78e001c1bbf99,2023-08-16_08h47.12.750,HF_wild_card,2022.2.4,MacIntel,60.0024001,5cd5e34157a78e001c1bbf99,64d2fd46c836a06233681665,64dc7ee8ad91d76cb42eb0fb,,,,,,,ctch,resources/DR.BMP,resources/DP.BMP,Door4,-0.206762153,-0.003237847,1,0,0,1.047,optionLeft,60,8350,4,18,0,18,0,1,,,,,,,,,,,,,,,,,,,,,,,,,,,,,,,,,,,,,,,
,,,,,,,5cd5e34157a78e001c1bbf99,2023-08-16_08h47.12.750,HF_wild_card,2022.2.4,MacIntel,60.0024001,5cd5e34157a78e001c1bbf99,64d2fd46c836a06233681665,64dc7ee8ad91d76cb42eb0fb,,,,,,,sngl,resources/DY.BMP,resources/Empty.png,Door2,-0.217222222,-0.004405382,1,0,0,0.7781,optionLeft,20,8370,4,19,0,19,0,1,,,,,,,,,,,,,,,,,,,,,,,,,,,,,,,,,,,,,,,
,,,,,,,5cd5e34157a78e001c1bbf99,2023-08-16_08h47.12.750,HF_wild_card,2022.2.4,MacIntel,60.0024001,5cd5e34157a78e001c1bbf99,64d2fd46c836a06233681665,64dc7ee8ad91d76cb42eb0fb,,,,,,,sngl,resources/Empty.png,resources/DB.BMP,WildCard_NonEx,0.17375434,-0.010763889,1,0,0,0.7616,optionRight,45,8415,4,20,0,20,0,1,,,,,,,,,,,,,,,,,,,,,,,,,,,,,,,,,,,,,,,
,,,,,,,5cd5e34157a78e001c1bbf99,2023-08-16_08h47.12.750,HF_wild_card,2022.2.4,MacIntel,60.0024001,5cd5e34157a78e001c1bbf99,64d2fd46c836a06233681665,64dc7ee8ad91d76cb42eb0fb,,,,,,,ctch,resources/DY.BMP,resources/DBN.BMP,Door3,0.177378472,-0.007526042,1,0,0,0.9802,optionRight,70,8485,4,21,0,21,0,1,,,,,,,,,,,,,,,,,,,,,,,,,,,,,,,,,,,,,,,
,,,,,,,5cd5e34157a78e001c1bbf99,2023-08-16_08h47.12.750,HF_wild_card,2022.2.4,MacIntel,60.0024001,5cd5e34157a78e001c1bbf99,64d2fd46c836a06233681665,64dc7ee8ad91d76cb42eb0fb,,,,,,,decisionTrl,resources/DB.BMP,resources/DP.BMP,WildCard_NonEx,-0.329253472,0.01125,1,0,0,1.7272,optionLeft,55,8540,4,22,0,22,0,1,,,,,,,,,,,,,,,,,,,,,,,,,,,,,,,,,,,,,,,
,,,,,,,5cd5e34157a78e001c1bbf99,2023-08-16_08h47.12.750,HF_wild_card,2022.2.4,MacIntel,60.0024001,5cd5e34157a78e001c1bbf99,64d2fd46c836a06233681665,64dc7ee8ad91d76cb42eb0fb,,,,,,,decisionTrl,resources/DP.BMP,resources/DY.BMP,Door2,0.247543403,0.005099826,1,0,0,3.0477,optionRight,20,8560,4,23,0,23,0,1,,,,,,,,,,,,,,,,,,,,,,,,,,,,,,,,,,,,,,,
,,,,,,,5cd5e34157a78e001c1bbf99,2023-08-16_08h47.12.750,HF_wild_card,2022.2.4,MacIntel,60.0024001,5cd5e34157a78e001c1bbf99,64d2fd46c836a06233681665,64dc7ee8ad91d76cb42eb0fb,,,,,,,decisionTrl,resources/DBN.BMP,resources/DR.BMP,Door3,-0.229244792,0.012174479,1,0,0,1.7109,optionLeft,70,8630,4,24,0,24,0,1,,,,,,,,,,,,,,,,,,,,,,,,,,,,,,,,,,,,,,,
,,,,,,,5cd5e34157a78e001c1bbf99,2023-08-16_08h47.12.750,HF_wild_card,2022.2.4,MacIntel,60.0024001,5cd5e34157a78e001c1bbf99,64d2fd46c836a06233681665,64dc7ee8ad91d76cb42eb0fb,,,,,,,sngl,resources/Empty.png,resources/DBN.BMP,Door3,0.202695313,-0.014023437,1,0,0,0.761900001,optionRight,70,8700,4,25,0,25,0,1,,,,,,,,,,,,,,,,,,,,,,,,,,,,,,,,,,,,,,,
,,,,,,,5cd5e34157a78e001c1bbf99,2023-08-16_08h47.12.750,HF_wild_card,2022.2.4,MacIntel,60.0024001,5cd5e34157a78e001c1bbf99,64d2fd46c836a06233681665,64dc7ee8ad91d76cb42eb0fb,,,,,,,decisionTrl,resources/DY.BMP,resources/DP.BMP,Door1,0.202612847,-0.01875434,1,0,0,1.6135,optionRight,30,8730,4,26,0,26,0,1,,,,,,,,,,,,,,,,,,,,,,,,,,,,,,,,,,,,,,,
,,,,,,,5cd5e34157a78e001c1bbf99,2023-08-16_08h47.12.750,HF_wild_card,2022.2.4,MacIntel,60.0024001,5cd5e34157a78e001c1bbf99,64d2fd46c836a06233681665,64dc7ee8ad91d76cb42eb0fb,,,,,,,sngl,resources/Empty.png,resources/DR.BMP,Door4,0.212647569,0.005672743,1,0,0,0.729099999,optionRight,80,8810,4,27,0,27,0,1,,,,,,,,,,,,,,,,,,,,,,,,,,,,,,,,,,,,,,,
,,,,,,,5cd5e34157a78e001c1bbf99,2023-08-16_08h47.12.750,HF_wild_card,2022.2.4,MacIntel,60.0024001,5cd5e34157a78e001c1bbf99,64d2fd46c836a06233681665,64dc7ee8ad91d76cb42eb0fb,,,,,,,decisionTrl,resources/DR.BMP,resources/DBN.BMP,Door3,0.235577257,0.029340278,1,0,0,1.8128,optionRight,70,8880,4,28,0,28,0,1,,,,,,,,,,,,,,,,,,,,,,,,,,,,,,,,,,,,,,,
,,,,,,,5cd5e34157a78e001c1bbf99,2023-08-16_08h47.12.750,HF_wild_card,2022.2.4,MacIntel,60.0024001,5cd5e34157a78e001c1bbf99,64d2fd46c836a06233681665,64dc7ee8ad91d76cb42eb0fb,,,,,,,sngl,resources/DB.BMP,resources/Empty.png,WildCard_NonEx,-0.167070313,0.002374132,1,0,0,0.647299999,optionLeft,55,8935,4,29,0,29,0,1,,,,,,,,,,,,,,,,,,,,,,,,,,,,,,,,,,,,,,,
,,,,,,,5cd5e34157a78e001c1bbf99,2023-08-16_08h47.12.750,HF_wild_card,2022.2.4,MacIntel,60.0024001,5cd5e34157a78e001c1bbf99,64d2fd46c836a06233681665,64dc7ee8ad91d76cb42eb0fb,,,,,,,ctch,resources/DP.BMP,resources/DR.BMP,Door4,0.251901042,-0.008328993,1,0,0,0.8642,optionRight,60,8995,4,30,0,30,0,1,,,,,,,,,,,,,,,,,,,,,,,,,,,,,,,,,,,,,,,
,,,,,,,5cd5e34157a78e001c1bbf99,2023-08-16_08h47.12.750,HF_wild_card,2022.2.4,MacIntel,60.0024001,5cd5e34157a78e001c1bbf99,64d2fd46c836a06233681665,64dc7ee8ad91d76cb42eb0fb,,,,,,,decisionTrl,resources/DP.BMP,resources/DY.BMP,Door1,-0.154184028,0.022426215,1,0,0,3.8298,optionLeft,30,9025,4,31,0,31,0,1,,,,,,,,,,,,,,,,,,,,,,,,,,,,,,,,,,,,,,,
,,,,,,,5cd5e34157a78e001c1bbf99,2023-08-16_08h47.12.750,HF_wild_card,2022.2.4,MacIntel,60.0024001,5cd5e34157a78e001c1bbf99,64d2fd46c836a06233681665,64dc7ee8ad91d76cb42eb0fb,,,,,,,decisionTrl,resources/DP.BMP,resources/DB.BMP,WildCard_NonEx,0.162365451,0.002078993,1,0,0,1.2288,optionRight,45,9070,4,32,0,32,0,1,,,,,,,,,,,,,,,,,,,,,,,,,,,,,,,,,,,,,,,
,,,,,,,5cd5e34157a78e001c1bbf99,2023-08-16_08h47.12.750,HF_wild_card,2022.2.4,MacIntel,60.0024001,5cd5e34157a78e001c1bbf99,64d2fd46c836a06233681665,64dc7ee8ad91d76cb42eb0fb,,,,,,,decisionTrl,resources/DB.BMP,resources/DY.BMP,WildCard_NonEx,-0.19469184,0.021514757,1,0,0,1.762400001,optionLeft,45,9115,4,33,0,33,0,1,,,,,,,,,,,,,,,,,,,,,,,,,,,,,,,,,,,,,,,
,,,,,,,5cd5e34157a78e001c1bbf99,2023-08-16_08h47.12.750,HF_wild_card,2022.2.4,MacIntel,60.0024001,5cd5e34157a78e001c1bbf99,64d2fd46c836a06233681665,64dc7ee8ad91d76cb42eb0fb,,,,,,,ctch,resources/DBN.BMP,resources/DY.BMP,Door3,-0.197256944,0.068519965,1,0,0,0.997400001,optionLeft,70,9185,4,34,0,34,0,1,,,,,,,,,,,,,,,,,,,,,,,,,,,,,,,,,,,,,,,
,,,,,,,5cd5e34157a78e001c1bbf99,2023-08-16_08h47.12.750,HF_wild_card,2022.2.4,MacIntel,60.0024001,5cd5e34157a78e001c1bbf99,64d2fd46c836a06233681665,64dc7ee8ad91d76cb42eb0fb,,,,,,,ctch,resources/DR.BMP,resources/DP.BMP,Door4,-0.243654514,0.026753472,1,0,0,1.680700001,optionLeft,60,9245,4,35,0,35,0,1,,,,,,,,,,,,,,,,,,,,,,,,,,,,,,,,,,,,,,,
,,,,,,,5cd5e34157a78e001c1bbf99,2023-08-16_08h47.12.750,HF_wild_card,2022.2.4,MacIntel,60.0024001,5cd5e34157a78e001c1bbf99,64d2fd46c836a06233681665,64dc7ee8ad91d76cb42eb0fb,,,,,,,sngl,resources/DR.BMP,resources/Empty.png,Door4,-0.202491319,0.00062066,1,0,0,0.6768,optionLeft,60,9305,4,36,0,36,0,1,,,,,,,,,,,,,,,,,,,,,,,,,,,,,,,,,,,,,,,
,,,,,,,5cd5e34157a78e001c1bbf99,2023-08-16_08h47.12.750,HF_wild_card,2022.2.4,MacIntel,60.0024001,5cd5e34157a78e001c1bbf99,64d2fd46c836a06233681665,64dc7ee8ad91d76cb42eb0fb,,,,,,,decisionTrl,resources/DB.BMP,resources/DBN.BMP,Door3,0.249027778,0.014644097,1,0,0,1.1454,optionRight,70,9375,4,37,0,37,0,1,,,,,,,,,,,,,,,,,,,,,,,,,,,,,,,,,,,,,,,
,,,,,,,5cd5e34157a78e001c1bbf99,2023-08-16_08h47.12.750,HF_wild_card,2022.2.4,MacIntel,60.0024001,5cd5e34157a78e001c1bbf99,64d2fd46c836a06233681665,64dc7ee8ad91d76cb42eb0fb,,,,,,,decisionTrl,resources/DY.BMP,resources/DP.BMP,Door2,-0.154375,0.031888021,1,0,0,1.4952,optionLeft,20,9395,4,38,0,38,0,1,,,,,,,,,,,,,,,,,,,,,,,,,,,,,,,,,,,,,,,
,,,,,,,5cd5e34157a78e001c1bbf99,2023-08-16_08h47.12.750,HF_wild_card,2022.2.4,MacIntel,60.0024001,5cd5e34157a78e001c1bbf99,64d2fd46c836a06233681665,64dc7ee8ad91d76cb42eb0fb,,,,,,,decisionTrl,resources/DY.BMP,resources/DP.BMP,Door1,0.146501736,0.006467014,1,0,0,0.8976,optionRight,30,9425,4,39,0,39,0,1,,,,,,,,,,,,,,,,,,,,,,,,,,,,,,,,,,,,,,,
,,,,,,,5cd5e34157a78e001c1bbf99,2023-08-16_08h47.12.750,HF_wild_card,2022.2.4,MacIntel,60.0024001,5cd5e34157a78e001c1bbf99,64d2fd46c836a06233681665,64dc7ee8ad91d76cb42eb0fb,,,,,,,decisionTrl,resources/DB.BMP,resources/DR.BMP,Door4,0.167634549,0.000373264,1,0,0,1.831400001,optionRight,80,9505,4,40,0,40,0,1,,,,,,,,,,,,,,,,,,,,,,,,,,,,,,,,,,,,,,,
,,,,,,,5cd5e34157a78e001c1bbf99,2023-08-16_08h47.12.750,HF_wild_card,2022.2.4,MacIntel,60.0024001,5cd5e34157a78e001c1bbf99,64d2fd46c836a06233681665,64dc7ee8ad91d76cb42eb0fb,,,,,,,ctch,resources/DY.BMP,resources/DBN.BMP,Door3,0.199635417,0.012777778,1,0,0,1.0004,optionRight,70,9575,4,41,0,41,0,1,,,,,,,,,,,,,,,,,,,,,,,,,,,,,,,,,,,,,,,
,,,,,,,5cd5e34157a78e001c1bbf99,2023-08-16_08h47.12.750,HF_wild_card,2022.2.4,MacIntel,60.0024001,5cd5e34157a78e001c1bbf99,64d2fd46c836a06233681665,64dc7ee8ad91d76cb42eb0fb,,,,,,,decisionTrl,resources/DBN.BMP,resources/DR.BMP,Door3,-0.152291667,0.034882812,1,0,0,4.5807,optionLeft,70,9645,4,42,0,42,0,1,,,,,,,,,,,,,,,,,,,,,,,,,,,,,,,,,,,,,,,
,,,,,,,5cd5e34157a78e001c1bbf99,2023-08-16_08h47.12.750,HF_wild_card,2022.2.4,MacIntel,60.0024001,5cd5e34157a78e001c1bbf99,64d2fd46c836a06233681665,64dc7ee8ad91d76cb42eb0fb,,,,,,,decisionTrl,resources/DBN.BMP,resources/DR.BMP,Door4,0.207105035,-0.030425347,1,0,0,1.6335,optionRight,80,9725,4,43,0,43,0,1,,,,,,,,,,,,,,,,,,,,,,,,,,,,,,,,,,,,,,,
,,,,,,,5cd5e34157a78e001c1bbf99,2023-08-16_08h47.12.750,HF_wild_card,2022.2.4,MacIntel,60.0024001,5cd5e34157a78e001c1bbf99,64d2fd46c836a06233681665,64dc7ee8ad91d76cb42eb0fb,,,,,,,,,,,,,,,,,,,,,,,,,,3,0,3,0,1,,,,,,,,,,,,,,,,,,,,,,,,,,,,,,,,,,
,,,,,,,5cd5e34157a78e001c1bbf99,2023-08-16_08h47.12.750,HF_wild_card,2022.2.4,MacIntel,60.0024001,5cd5e34157a78e001c1bbf99,64d2fd46c836a06233681665,64dc7ee8ad91d76cb42eb0fb,,,,,,,decisionTrl,resources/DY.BMP,resources/DB.BMP,WildCard_NonEx,0.16046875,-0.033051215,1,0,0,0.849700001,optionRight,45,9770,5,0,0,0,0,1,,,,,,,,,,,,,,,,,,,,,,,,,,,,,,,,,,,,,,,
,,,,,,,5cd5e34157a78e001c1bbf99,2023-08-16_08h47.12.750,HF_wild_card,2022.2.4,MacIntel,60.0024001,5cd5e34157a78e001c1bbf99,64d2fd46c836a06233681665,64dc7ee8ad91d76cb42eb0fb,,,,,,,decisionTrl,resources/DY.BMP,resources/DP.BMP,Door1,0.244418403,0.01015625,1,0,0,1.9935,optionRight,30,9800,5,1,0,1,0,1,,,,,,,,,,,,,,,,,,,,,,,,,,,,,,,,,,,,,,,
,,,,,,,5cd5e34157a78e001c1bbf99,2023-08-16_08h47.12.750,HF_wild_card,2022.2.4,MacIntel,60.0024001,5cd5e34157a78e001c1bbf99,64d2fd46c836a06233681665,64dc7ee8ad91d76cb42eb0fb,,,,,,,decisionTrl,resources/DY.BMP,resources/DP.BMP,Door2,-0.176514757,-0.004756944,1,0,0,0.915,optionLeft,20,9820,5,2,0,2,0,1,,,,,,,,,,,,,,,,,,,,,,,,,,,,,,,,,,,,,,,
,,,,,,,5cd5e34157a78e001c1bbf99,2023-08-16_08h47.12.750,HF_wild_card,2022.2.4,MacIntel,60.0024001,5cd5e34157a78e001c1bbf99,64d2fd46c836a06233681665,64dc7ee8ad91d76cb42eb0fb,,,,,,,decisionTrl,resources/DP.BMP,resources/DY.BMP,Door1,-0.177890625,-0.024700521,1,0,0,1.6979,optionLeft,30,9850,5,3,0,3,0,1,,,,,,,,,,,,,,,,,,,,,,,,,,,,,,,,,,,,,,,
,,,,,,,5cd5e34157a78e001c1bbf99,2023-08-16_08h47.12.750,HF_wild_card,2022.2.4,MacIntel,60.0024001,5cd5e34157a78e001c1bbf99,64d2fd46c836a06233681665,64dc7ee8ad91d76cb42eb0fb,,,,,,,decisionTrl,resources/DR.BMP,resources/DBN.BMP,Door3,0.176263021,-0.007330729,1,0,0,1.632599999,optionRight,70,9920,5,4,0,4,0,1,,,,,,,,,,,,,,,,,,,,,,,,,,,,,,,,,,,,,,,
,,,,,,,5cd5e34157a78e001c1bbf99,2023-08-16_08h47.12.750,HF_wild_card,2022.2.4,MacIntel,60.0024001,5cd5e34157a78e001c1bbf99,64d2fd46c836a06233681665,64dc7ee8ad91d76cb42eb0fb,,,,,,,decisionTrl,resources/DR.BMP,resources/DBN.BMP,Door4,-0.162157118,-0.006796875,1,0,0,0.781400001,optionLeft,80,10000,5,5,0,5,0,1,,,,,,,,,,,,,,,,,,,,,,,,,,,,,,,,,,,,,,,
,,,,,,,5cd5e34157a78e001c1bbf99,2023-08-16_08h47.12.750,HF_wild_card,2022.2.4,MacIntel,60.0024001,5cd5e34157a78e001c1bbf99,64d2fd46c836a06233681665,64dc7ee8ad91d76cb42eb0fb,,,,,,,decisionTrl,resources/DP.BMP,resources/DY.BMP,Door2,0.183090278,0.002447917,1,0,0,1.5285,optionRight,40,10040,5,6,0,6,0,1,,,,,,,,,,,,,,,,,,,,,,,,,,,,,,,,,,,,,,,
,,,,,,,5cd5e34157a78e001c1bbf99,2023-08-16_08h47.12.750,HF_wild_card,2022.2.4,MacIntel,60.0024001,5cd5e34157a78e001c1bbf99,64d2fd46c836a06233681665,64dc7ee8ad91d76cb42eb0fb,,,,,,,decisionTrl,resources/DY.BMP,resources/DP.BMP,Door2,-0.130842014,0.015668403,1,0,0,1.3139,optionLeft,20,10060,5,7,0,7,0,1,,,,,,,,,,,,,,,,,,,,,,,,,,,,,,,,,,,,,,,
,,,,,,,5cd5e34157a78e001c1bbf99,2023-08-16_08h47.12.750,HF_wild_card,2022.2.4,MacIntel,60.0024001,5cd5e34157a78e001c1bbf99,64d2fd46c836a06233681665,64dc7ee8ad91d76cb42eb0fb,,,,,,,decisionTrl,resources/DBN.BMP,resources/DB.BMP,Door3,-0.172851563,0.020520833,1,0,0,1.213,optionLeft,70,10130,5,8,0,8,0,1,,,,,,,,,,,,,,,,,,,,,,,,,,,,,,,,,,,,,,,
,,,,,,,5cd5e34157a78e001c1bbf99,2023-08-16_08h47.12.750,HF_wild_card,2022.2.4,MacIntel,60.0024001,5cd5e34157a78e001c1bbf99,64d2fd46c836a06233681665,64dc7ee8ad91d76cb42eb0fb,,,,,,,ctch,resources/DP.BMP,resources/DR.BMP,Door4,0.182877604,0.013311632,1,0,0,0.915,optionRight,80,10210,5,9,0,9,0,1,,,,,,,,,,,,,,,,,,,,,,,,,,,,,,,,,,,,,,,
,,,,,,,5cd5e34157a78e001c1bbf99,2023-08-16_08h47.12.750,HF_wild_card,2022.2.4,MacIntel,60.0024001,5cd5e34157a78e001c1bbf99,64d2fd46c836a06233681665,64dc7ee8ad91d76cb42eb0fb,,,,,,,sngl,resources/DB.BMP,resources/Empty.png,WildCard_NonEx,-0.14484809,-0.017769097,1,0,0,0.7954,optionLeft,55,10265,5,10,0,10,0,1,,,,,,,,,,,,,,,,,,,,,,,,,,,,,,,,,,,,,,,
,,,,,,,5cd5e34157a78e001c1bbf99,2023-08-16_08h47.12.750,HF_wild_card,2022.2.4,MacIntel,60.0024001,5cd5e34157a78e001c1bbf99,64d2fd46c836a06233681665,64dc7ee8ad91d76cb42eb0fb,,,,,,,ctch,resources/DBN.BMP,resources/DY.BMP,Door3,-0.179440104,0.010798611,1,0,0,1.3629,optionLeft,70,10335,5,11,0,11,0,1,,,,,,,,,,,,,,,,,,,,,,,,,,,,,,,,,,,,,,,
,,,,,,,5cd5e34157a78e001c1bbf99,2023-08-16_08h47.12.750,HF_wild_card,2022.2.4,MacIntel,60.0024001,5cd5e34157a78e001c1bbf99,64d2fd46c836a06233681665,64dc7ee8ad91d76cb42eb0fb,,,,,,,sngl,resources/DB.BMP,resources/Empty.png,WildCard_NonEx,-0.247834201,-0.005802951,1,0,0,0.8657,optionLeft,45,10380,5,12,0,12,0,1,,,,,,,,,,,,,,,,,,,,,,,,,,,,,,,,,,,,,,,
,,,,,,,5cd5e34157a78e001c1bbf99,2023-08-16_08h47.12.750,HF_wild_card,2022.2.4,MacIntel,60.0024001,5cd5e34157a78e001c1bbf99,64d2fd46c836a06233681665,64dc7ee8ad91d76cb42eb0fb,,,,,,,ctch,resources/DBN.BMP,resources/DY.BMP,Door3,-0.166289063,0.022756076,1,0,0,1.611400001,optionLeft,70,10450,5,13,0,13,0,1,,,,,,,,,,,,,,,,,,,,,,,,,,,,,,,,,,,,,,,
,,,,,,,5cd5e34157a78e001c1bbf99,2023-08-16_08h47.12.750,HF_wild_card,2022.2.4,MacIntel,60.0024001,5cd5e34157a78e001c1bbf99,64d2fd46c836a06233681665,64dc7ee8ad91d76cb42eb0fb,,,,,,,decisionTrl,resources/DP.BMP,resources/DB.BMP,WildCard_NonEx,0.178932292,0.013684896,1,0,0,0.8145,optionRight,45,10495,5,14,0,14,0,1,,,,,,,,,,,,,,,,,,,,,,,,,,,,,,,,,,,,,,,
,,,,,,,5cd5e34157a78e001c1bbf99,2023-08-16_08h47.12.750,HF_wild_card,2022.2.4,MacIntel,60.0024001,5cd5e34157a78e001c1bbf99,64d2fd46c836a06233681665,64dc7ee8ad91d76cb42eb0fb,,,,,,,sngl,resources/Empty.png,resources/DB.BMP,WildCard_NonEx,0.215399306,-0.01171875,1,0,0,0.6825,optionRight,55,10550,5,15,0,15,0,1,,,,,,,,,,,,,,,,,,,,,,,,,,,,,,,,,,,,,,,
,,,,,,,5cd5e34157a78e001c1bbf99,2023-08-16_08h47.12.750,HF_wild_card,2022.2.4,MacIntel,60.0024001,5cd5e34157a78e001c1bbf99,64d2fd46c836a06233681665,64dc7ee8ad91d76cb42eb0fb,,,,,,,sngl,resources/Empty.png,resources/DP.BMP,Door1,0.184375,-0.018940972,1,0,0,0.827700001,optionRight,30,10580,5,16,0,16,0,1,,,,,,,,,,,,,,,,,,,,,,,,,,,,,,,,,,,,,,,
,,,,,,,5cd5e34157a78e001c1bbf99,2023-08-16_08h47.12.750,HF_wild_card,2022.2.4,MacIntel,60.0024001,5cd5e34157a78e001c1bbf99,64d2fd46c836a06233681665,64dc7ee8ad91d76cb42eb0fb,,,,,,,decisionTrl,resources/DR.BMP,resources/DBN.BMP,Door3,0.192786458,-0.013298611,1,0,0,1.695400001,optionRight,70,10650,5,17,0,17,0,1,,,,,,,,,,,,,,,,,,,,,,,,,,,,,,,,,,,,,,,
,,,,,,,5cd5e34157a78e001c1bbf99,2023-08-16_08h47.12.750,HF_wild_card,2022.2.4,MacIntel,60.0024001,5cd5e34157a78e001c1bbf99,64d2fd46c836a06233681665,64dc7ee8ad91d76cb42eb0fb,,,,,,,sngl,resources/Empty.png,resources/DR.BMP,Door4,0.216171875,-0.021731771,1,0,0,0.6975,optionRight,60,10710,5,18,0,18,0,1,,,,,,,,,,,,,,,,,,,,,,,,,,,,,,,,,,,,,,,
,,,,,,,5cd5e34157a78e001c1bbf99,2023-08-16_08h47.12.750,HF_wild_card,2022.2.4,MacIntel,60.0024001,5cd5e34157a78e001c1bbf99,64d2fd46c836a06233681665,64dc7ee8ad91d76cb42eb0fb,,,,,,,decisionTrl,resources/DY.BMP,resources/DP.BMP,Door1,0.187404514,0.025507813,1,0,0,2.231,optionRight,30,10740,5,19,0,19,0,1,,,,,,,,,,,,,,,,,,,,,,,,,,,,,,,,,,,,,,,
,,,,,,,5cd5e34157a78e001c1bbf99,2023-08-16_08h47.12.750,HF_wild_card,2022.2.4,MacIntel,60.0024001,5cd5e34157a78e001c1bbf99,64d2fd46c836a06233681665,64dc7ee8ad91d76cb42eb0fb,,,,,,,decisionTrl,resources/DBN.BMP,resources/DR.BMP,Door4,0.238463542,-0.032048611,1,0,0,1.631400001,optionRight,80,10820,5,20,0,20,0,1,,,,,,,,,,,,,,,,,,,,,,,,,,,,,,,,,,,,,,,
,,,,,,,5cd5e34157a78e001c1bbf99,2023-08-16_08h47.12.750,HF_wild_card,2022.2.4,MacIntel,60.0024001,5cd5e34157a78e001c1bbf99,64d2fd46c836a06233681665,64dc7ee8ad91d76cb42eb0fb,,,,,,,ctch,resources/DR.BMP,resources/DP.BMP,Door4,-0.235755208,-0.005013021,1,0,0,0.949,optionLeft,80,10900,5,21,0,21,0,1,,,,,,,,,,,,,,,,,,,,,,,,,,,,,,,,,,,,,,,
,,,,,,,5cd5e34157a78e001c1bbf99,2023-08-16_08h47.12.750,HF_wild_card,2022.2.4,MacIntel,60.0024001,5cd5e34157a78e001c1bbf99,64d2fd46c836a06233681665,64dc7ee8ad91d76cb42eb0fb,,,,,,,decisionTrl,resources/DBN.BMP,resources/DR.BMP,Door4,0.181276042,-0.003368056,1,0,0,0.9632,optionRight,60,10960,5,22,0,22,0,1,,,,,,,,,,,,,,,,,,,,,,,,,,,,,,,,,,,,,,,
,,,,,,,5cd5e34157a78e001c1bbf99,2023-08-16_08h47.12.750,HF_wild_card,2022.2.4,MacIntel,60.0024001,5cd5e34157a78e001c1bbf99,64d2fd46c836a06233681665,64dc7ee8ad91d76cb42eb0fb,,,,,,,ctch,resources/DR.BMP,resources/DP.BMP,Door4,-0.192599826,0.019301215,1,0,0,0.912099999,optionLeft,80,11040,5,23,0,23,0,1,,,,,,,,,,,,,,,,,,,,,,,,,,,,,,,,,,,,,,,
,,,,,,,5cd5e34157a78e001c1bbf99,2023-08-16_08h47.12.750,HF_wild_card,2022.2.4,MacIntel,60.0024001,5cd5e34157a78e001c1bbf99,64d2fd46c836a06233681665,64dc7ee8ad91d76cb42eb0fb,,,,,,,decisionTrl,resources/DB.BMP,resources/DY.BMP,WildCard_NonEx,-0.219500868,0.029205729,1,0,0,0.7642,optionLeft,45,11085,5,24,0,24,0,1,,,,,,,,,,,,,,,,,,,,,,,,,,,,,,,,,,,,,,,
,,,,,,,5cd5e34157a78e001c1bbf99,2023-08-16_08h47.12.750,HF_wild_card,2022.2.4,MacIntel,60.0024001,5cd5e34157a78e001c1bbf99,64d2fd46c836a06233681665,64dc7ee8ad91d76cb42eb0fb,,,,,,,decisionTrl,resources/DR.BMP,resources/DBN.BMP,Door4,-0.216710069,0.003272569,1,0,0,2.116099999,optionLeft,80,11165,5,25,0,25,0,1,,,,,,,,,,,,,,,,,,,,,,,,,,,,,,,,,,,,,,,
,,,,,,,5cd5e34157a78e001c1bbf99,2023-08-16_08h47.12.750,HF_wild_card,2022.2.4,MacIntel,60.0024001,5cd5e34157a78e001c1bbf99,64d2fd46c836a06233681665,64dc7ee8ad91d76cb42eb0fb,,,,,,,sngl,resources/DR.BMP,resources/Empty.png,Door4,-0.295885417,0.028502604,1,0,0,0.6817,optionLeft,80,11245,5,26,0,26,0,1,,,,,,,,,,,,,,,,,,,,,,,,,,,,,,,,,,,,,,,
,,,,,,,5cd5e34157a78e001c1bbf99,2023-08-16_08h47.12.750,HF_wild_card,2022.2.4,MacIntel,60.0024001,5cd5e34157a78e001c1bbf99,64d2fd46c836a06233681665,64dc7ee8ad91d76cb42eb0fb,,,,,,,decisionTrl,resources/DR.BMP,resources/DB.BMP,Door4,-0.252170139,0.006310764,1,0,0,0.8481,optionLeft,80,11325,5,27,0,27,0,1,,,,,,,,,,,,,,,,,,,,,,,,,,,,,,,,,,,,,,,
,,,,,,,5cd5e34157a78e001c1bbf99,2023-08-16_08h47.12.750,HF_wild_card,2022.2.4,MacIntel,60.0024001,5cd5e34157a78e001c1bbf99,64d2fd46c836a06233681665,64dc7ee8ad91d76cb42eb0fb,,,,,,,sngl,resources/Empty.png,resources/DB.BMP,WildCard_NonEx,0.135694444,-0.009127604,1,0,0,1.714900001,optionRight,45,11370,5,28,0,28,0,1,,,,,,,,,,,,,,,,,,,,,,,,,,,,,,,,,,,,,,,
,,,,,,,5cd5e34157a78e001c1bbf99,2023-08-16_08h47.12.750,HF_wild_card,2022.2.4,MacIntel,60.0024001,5cd5e34157a78e001c1bbf99,64d2fd46c836a06233681665,64dc7ee8ad91d76cb42eb0fb,,,,,,,decisionTrl,resources/DB.BMP,resources/DR.BMP,Door4,0.22328559,-0.010481771,1,0,0,1.3286,optionRight,60,11430,5,29,0,29,0,1,,,,,,,,,,,,,,,,,,,,,,,,,,,,,,,,,,,,,,,
,,,,,,,5cd5e34157a78e001c1bbf99,2023-08-16_08h47.12.750,HF_wild_card,2022.2.4,MacIntel,60.0024001,5cd5e34157a78e001c1bbf99,64d2fd46c836a06233681665,64dc7ee8ad91d76cb42eb0fb,,,,,,,sngl,resources/DBN.BMP,resources/Empty.png,Door3,-0.233932292,-0.015260417,1,0,0,0.5965,optionLeft,70,11500,5,30,0,30,0,1,,,,,,,,,,,,,,,,,,,,,,,,,,,,,,,,,,,,,,,
,,,,,,,5cd5e34157a78e001c1bbf99,2023-08-16_08h47.12.750,HF_wild_card,2022.2.4,MacIntel,60.0024001,5cd5e34157a78e001c1bbf99,64d2fd46c836a06233681665,64dc7ee8ad91d76cb42eb0fb,,,,,,,decisionTrl,resources/DBN.BMP,resources/DR.BMP,Door4,0.226979167,-0.019253472,1,0,0,0.715,optionRight,80,11580,5,31,0,31,0,1,,,,,,,,,,,,,,,,,,,,,,,,,,,,,,,,,,,,,,,
,,,,,,,5cd5e34157a78e001c1bbf99,2023-08-16_08h47.12.750,HF_wild_card,2022.2.4,MacIntel,60.0024001,5cd5e34157a78e001c1bbf99,64d2fd46c836a06233681665,64dc7ee8ad91d76cb42eb0fb,,,,,,,ctch,resources/DY.BMP,resources/DBN.BMP,Door3,0.204539931,0.014878472,1,0,0,0.9809,optionRight,70,11650,5,32,0,32,0,1,,,,,,,,,,,,,,,,,,,,,,,,,,,,,,,,,,,,,,,
,,,,,,,5cd5e34157a78e001c1bbf99,2023-08-16_08h47.12.750,HF_wild_card,2022.2.4,MacIntel,60.0024001,5cd5e34157a78e001c1bbf99,64d2fd46c836a06233681665,64dc7ee8ad91d76cb42eb0fb,,,,,,,sngl,resources/Empty.png,resources/DBN.BMP,Door3,0.199348958,0.029470486,1,0,0,0.6613,optionRight,70,11720,5,33,0,33,0,1,,,,,,,,,,,,,,,,,,,,,,,,,,,,,,,,,,,,,,,
,,,,,,,5cd5e34157a78e001c1bbf99,2023-08-16_08h47.12.750,HF_wild_card,2022.2.4,MacIntel,60.0024001,5cd5e34157a78e001c1bbf99,64d2fd46c836a06233681665,64dc7ee8ad91d76cb42eb0fb,,,,,,,decisionTrl,resources/DB.BMP,resources/DP.BMP,WildCard_NonEx,-0.250980903,-0.03828125,1,0,0,0.8309,optionLeft,55,11775,5,34,0,34,0,1,,,,,,,,,,,,,,,,,,,,,,,,,,,,,,,,,,,,,,,
,,,,,,,5cd5e34157a78e001c1bbf99,2023-08-16_08h47.12.750,HF_wild_card,2022.2.4,MacIntel,60.0024001,5cd5e34157a78e001c1bbf99,64d2fd46c836a06233681665,64dc7ee8ad91d76cb42eb0fb,,,,,,,sngl,resources/DP.BMP,resources/Empty.png,Door1,-0.194401042,-0.011601563,1,0,0,0.733200001,optionLeft,30,11805,5,35,0,35,0,1,,,,,,,,,,,,,,,,,,,,,,,,,,,,,,,,,,,,,,,
,,,,,,,5cd5e34157a78e001c1bbf99,2023-08-16_08h47.12.750,HF_wild_card,2022.2.4,MacIntel,60.0024001,5cd5e34157a78e001c1bbf99,64d2fd46c836a06233681665,64dc7ee8ad91d76cb42eb0fb,,,,,,,sngl,resources/DY.BMP,resources/Empty.png,Door2,-0.19656684,-0.001445312,1,0,0,0.596900001,optionLeft,40,11845,5,36,0,36,0,1,,,,,,,,,,,,,,,,,,,,,,,,,,,,,,,,,,,,,,,
,,,,,,,5cd5e34157a78e001c1bbf99,2023-08-16_08h47.12.750,HF_wild_card,2022.2.4,MacIntel,60.0024001,5cd5e34157a78e001c1bbf99,64d2fd46c836a06233681665,64dc7ee8ad91d76cb42eb0fb,,,,,,,decisionTrl,resources/DB.BMP,resources/DBN.BMP,Door3,0.178936632,0.006974826,1,0,0,1.962900001,optionRight,70,11915,5,37,0,37,0,1,,,,,,,,,,,,,,,,,,,,,,,,,,,,,,,,,,,,,,,
,,,,,,,5cd5e34157a78e001c1bbf99,2023-08-16_08h47.12.750,HF_wild_card,2022.2.4,MacIntel,60.0024001,5cd5e34157a78e001c1bbf99,64d2fd46c836a06233681665,64dc7ee8ad91d76cb42eb0fb,,,,,,,ctch,resources/DP.BMP,resources/DR.BMP,Door4,0.215915799,0.011319444,1,0,0,1.280099999,optionRight,60,11975,5,38,0,38,0,1,,,,,,,,,,,,,,,,,,,,,,,,,,,,,,,,,,,,,,,
,,,,,,,5cd5e34157a78e001c1bbf99,2023-08-16_08h47.12.750,HF_wild_card,2022.2.4,MacIntel,60.0024001,5cd5e34157a78e001c1bbf99,64d2fd46c836a06233681665,64dc7ee8ad91d76cb42eb0fb,,,,,,,sngl,resources/Empty.png,resources/DY.BMP,Door2,0.213776042,-0.017243924,1,0,0,0.7797,optionRight,20,11995,5,39,0,39,0,1,,,,,,,,,,,,,,,,,,,,,,,,,,,,,,,,,,,,,,,
,,,,,,,5cd5e34157a78e001c1bbf99,2023-08-16_08h47.12.750,HF_wild_card,2022.2.4,MacIntel,60.0024001,5cd5e34157a78e001c1bbf99,64d2fd46c836a06233681665,64dc7ee8ad91d76cb42eb0fb,,,,,,,decisionTrl,resources/DP.BMP,resources/DY.BMP,Door1,-0.221523438,0.015355903,1,0,0,1.365099999,optionLeft,30,12025,5,40,0,40,0,1,,,,,,,,,,,,,,,,,,,,,,,,,,,,,,,,,,,,,,,
,,,,,,,5cd5e34157a78e001c1bbf99,2023-08-16_08h47.12.750,HF_wild_card,2022.2.4,MacIntel,60.0024001,5cd5e34157a78e001c1bbf99,64d2fd46c836a06233681665,64dc7ee8ad91d76cb42eb0fb,,,,,,,ctch,resources/DY.BMP,resources/DBN.BMP,Door3,0.26780816,0.023198785,1,0,0,0.7992,optionRight,70,12095,5,41,0,41,0,1,,,,,,,,,,,,,,,,,,,,,,,,,,,,,,,,,,,,,,,
,,,,,,,5cd5e34157a78e001c1bbf99,2023-08-16_08h47.12.750,HF_wild_card,2022.2.4,MacIntel,60.0024001,5cd5e34157a78e001c1bbf99,64d2fd46c836a06233681665,64dc7ee8ad91d76cb42eb0fb,,,,,,,decisionTrl,resources/DP.BMP,resources/DY.BMP,Door1,-0.267890625,0.059743924,1,0,0,2.5824,optionLeft,30,12125,5,42,0,42,0,1,,,,,,,,,,,,,,,,,,,,,,,,,,,,,,,,,,,,,,,
,,,,,,,5cd5e34157a78e001c1bbf99,2023-08-16_08h47.12.750,HF_wild_card,2022.2.4,MacIntel,60.0024001,5cd5e34157a78e001c1bbf99,64d2fd46c836a06233681665,64dc7ee8ad91d76cb42eb0fb,,,,,,,decisionTrl,resources/DBN.BMP,resources/DR.BMP,Door4,0.314322917,0.010729167,1,0,0,1.197599999,optionRight,60,12185,5,43,0,43,0,1,,,,,,,,,,,,,,,,,,,,,,,,,,,,,,,,,,,,,,,
,,,,,,,5cd5e34157a78e001c1bbf99,2023-08-16_08h47.12.750,HF_wild_card,2022.2.4,MacIntel,60.0024001,5cd5e34157a78e001c1bbf99,64d2fd46c836a06233681665,64dc7ee8ad91d76cb42eb0fb,,,,,,,,,,,,,,,,,,,,,,,,,,4,0,4,0,1,,,,,,,,,,,,,,,,,,,,,,,,,,,,,,,,,,
,,,,,,,5cd5e34157a78e001c1bbf99,2023-08-16_08h47.12.750,HF_wild_card,2022.2.4,MacIntel,60.0024001,5cd5e34157a78e001c1bbf99,64d2fd46c836a06233681665,64dc7ee8ad91d76cb42eb0fb,,,,,,,decisionTrl,resources/DR.BMP,resources/DBN.BMP,Door4,0.013532986,-0.293177083,1,0,0,0.765,optionLeft,60,12245,6,0,0,0,0,1,,,,,,,,,,,,,,,,,,,,,,,,,,,,,,,,,,,,,,,
,,,,,,,5cd5e34157a78e001c1bbf99,2023-08-16_08h47.12.750,HF_wild_card,2022.2.4,MacIntel,60.0024001,5cd5e34157a78e001c1bbf99,64d2fd46c836a06233681665,64dc7ee8ad91d76cb42eb0fb,,,,,,,decisionTrl,resources/DP.BMP,resources/DB.BMP,WildCard_NonEx,0.219635417,-0.007100694,1,0,0,0.7622,optionRight,55,12300,6,1,0,1,0,1,,,,,,,,,,,,,,,,,,,,,,,,,,,,,,,,,,,,,,,
,,,,,,,5cd5e34157a78e001c1bbf99,2023-08-16_08h47.12.750,HF_wild_card,2022.2.4,MacIntel,60.0024001,5cd5e34157a78e001c1bbf99,64d2fd46c836a06233681665,64dc7ee8ad91d76cb42eb0fb,,,,,,,decisionTrl,resources/DR.BMP,resources/DBN.BMP,Door3,0.174887153,0.031280382,1,0,0,0.8324,optionRight,70,12370,6,2,0,2,0,1,,,,,,,,,,,,,,,,,,,,,,,,,,,,,,,,,,,,,,,
,,,,,,,5cd5e34157a78e001c1bbf99,2023-08-16_08h47.12.750,HF_wild_card,2022.2.4,MacIntel,60.0024001,5cd5e34157a78e001c1bbf99,64d2fd46c836a06233681665,64dc7ee8ad91d76cb42eb0fb,,,,,,,sngl,resources/Empty.png,resources/DR.BMP,Door4,0.215490451,0.006935764,1,0,0,0.6163,optionRight,80,12450,6,3,0,3,0,1,,,,,,,,,,,,,,,,,,,,,,,,,,,,,,,,,,,,,,,
,,,,,,,5cd5e34157a78e001c1bbf99,2023-08-16_08h47.12.750,HF_wild_card,2022.2.4,MacIntel,60.0024001,5cd5e34157a78e001c1bbf99,64d2fd46c836a06233681665,64dc7ee8ad91d76cb42eb0fb,,,,,,,decisionTrl,resources/DY.BMP,resources/DP.BMP,Door2,-0.185750868,0.008658854,1,0,0,2.6673,optionLeft,40,12490,6,4,0,4,0,1,,,,,,,,,,,,,,,,,,,,,,,,,,,,,,,,,,,,,,,
,,,,,,,5cd5e34157a78e001c1bbf99,2023-08-16_08h47.12.750,HF_wild_card,2022.2.4,MacIntel,60.0024001,5cd5e34157a78e001c1bbf99,64d2fd46c836a06233681665,64dc7ee8ad91d76cb42eb0fb,,,,,,,decisionTrl,resources/DY.BMP,resources/DB.BMP,WildCard_NonEx,0.192560764,0.013224826,1,0,0,1.214400001,optionRight,55,12545,6,5,0,5,0,1,,,,,,,,,,,,,,,,,,,,,,,,,,,,,,,,,,,,,,,
,,,,,,,5cd5e34157a78e001c1bbf99,2023-08-16_08h47.12.750,HF_wild_card,2022.2.4,MacIntel,60.0024001,5cd5e34157a78e001c1bbf99,64d2fd46c836a06233681665,64dc7ee8ad91d76cb42eb0fb,,,,,,,sngl,resources/Empty.png,resources/DBN.BMP,Door3,0.236909722,0.020642361,1,0,0,0.8646,optionRight,70,12615,6,6,0,6,0,1,,,,,,,,,,,,,,,,,,,,,,,,,,,,,,,,,,,,,,,
,,,,,,,5cd5e34157a78e001c1bbf99,2023-08-16_08h47.12.750,HF_wild_card,2022.2.4,MacIntel,60.0024001,5cd5e34157a78e001c1bbf99,64d2fd46c836a06233681665,64dc7ee8ad91d76cb42eb0fb,,,,,,,decisionTrl,resources/DR.BMP,resources/DBN.BMP,Door3,0.215729167,0.024908854,1,0,0,1.681900001,optionRight,70,12685,6,7,0,7,0,1,,,,,,,,,,,,,,,,,,,,,,,,,,,,,,,,,,,,,,,
,,,,,,,5cd5e34157a78e001c1bbf99,2023-08-16_08h47.12.750,HF_wild_card,2022.2.4,MacIntel,60.0024001,5cd5e34157a78e001c1bbf99,64d2fd46c836a06233681665,64dc7ee8ad91d76cb42eb0fb,,,,,,,decisionTrl,resources/DBN.BMP,resources/DR.BMP,Door3,-0.268767361,-0.015260417,1,0,0,1.330900001,optionLeft,70,12755,6,8,0,8,0,1,,,,,,,,,,,,,,,,,,,,,,,,,,,,,,,,,,,,,,,
,,,,,,,5cd5e34157a78e001c1bbf99,2023-08-16_08h47.12.750,HF_wild_card,2022.2.4,MacIntel,60.0024001,5cd5e34157a78e001c1bbf99,64d2fd46c836a06233681665,64dc7ee8ad91d76cb42eb0fb,,,,,,,ctch,resources/DP.BMP,resources/DR.BMP,Door4,0.152513021,0.001931424,1,0,0,0.8292,optionRight,60,12815,6,9,0,9,0,1,,,,,,,,,,,,,,,,,,,,,,,,,,,,,,,,,,,,,,,
,,,,,,,5cd5e34157a78e001c1bbf99,2023-08-16_08h47.12.750,HF_wild_card,2022.2.4,MacIntel,60.0024001,5cd5e34157a78e001c1bbf99,64d2fd46c836a06233681665,64dc7ee8ad91d76cb42eb0fb,,,,,,,decisionTrl,resources/DP.BMP,resources/DY.BMP,Door1,-0.186992187,0.00094184,1,0,0,1.8965,optionLeft,30,12845,6,10,0,10,0,1,,,,,,,,,,,,,,,,,,,,,,,,,,,,,,,,,,,,,,,
,,,,,,,5cd5e34157a78e001c1bbf99,2023-08-16_08h47.12.750,HF_wild_card,2022.2.4,MacIntel,60.0024001,5cd5e34157a78e001c1bbf99,64d2fd46c836a06233681665,64dc7ee8ad91d76cb42eb0fb,,,,,,,decisionTrl,resources/DBN.BMP,resources/DR.BMP,Door4,0.220963542,0.001024306,1,0,0,1.347400001,optionRight,80,12925,6,11,0,11,0,1,,,,,,,,,,,,,,,,,,,,,,,,,,,,,,,,,,,,,,,
,,,,,,,5cd5e34157a78e001c1bbf99,2023-08-16_08h47.12.750,HF_wild_card,2022.2.4,MacIntel,60.0024001,5cd5e34157a78e001c1bbf99,64d2fd46c836a06233681665,64dc7ee8ad91d76cb42eb0fb,,,,,,,sngl,resources/Empty.png,resources/DB.BMP,WildCard_NonEx,0.196367188,-0.002074653,1,0,0,0.698599999,optionRight,45,12970,6,12,0,12,0,1,,,,,,,,,,,,,,,,,,,,,,,,,,,,,,,,,,,,,,,
,,,,,,,5cd5e34157a78e001c1bbf99,2023-08-16_08h47.12.750,HF_wild_card,2022.2.4,MacIntel,60.0024001,5cd5e34157a78e001c1bbf99,64d2fd46c836a06233681665,64dc7ee8ad91d76cb42eb0fb,,,,,,,decisionTrl,resources/DY.BMP,resources/DP.BMP,Door2,-0.218424479,0.029761285,1,0,0,2.2637,optionLeft,40,13010,6,13,0,13,0,1,,,,,,,,,,,,,,,,,,,,,,,,,,,,,,,,,,,,,,,
,,,,,,,5cd5e34157a78e001c1bbf99,2023-08-16_08h47.12.750,HF_wild_card,2022.2.4,MacIntel,60.0024001,5cd5e34157a78e001c1bbf99,64d2fd46c836a06233681665,64dc7ee8ad91d76cb42eb0fb,,,,,,,decisionTrl,resources/DBN.BMP,resources/DR.BMP,Door4,0.170815972,0.02328559,1,0,0,1.182,optionRight,60,13070,6,14,0,14,0,1,,,,,,,,,,,,,,,,,,,,,,,,,,,,,,,,,,,,,,,
,,,,,,,5cd5e34157a78e001c1bbf99,2023-08-16_08h47.12.750,HF_wild_card,2022.2.4,MacIntel,60.0024001,5cd5e34157a78e001c1bbf99,64d2fd46c836a06233681665,64dc7ee8ad91d76cb42eb0fb,,,,,,,decisionTrl,resources/DB.BMP,resources/DBN.BMP,Door3,0.291228299,0.027517361,1,0,0,1.4313,optionRight,70,13140,6,15,0,15,0,1,,,,,,,,,,,,,,,,,,,,,,,,,,,,,,,,,,,,,,,
,,,,,,,5cd5e34157a78e001c1bbf99,2023-08-16_08h47.12.750,HF_wild_card,2022.2.4,MacIntel,60.0024001,5cd5e34157a78e001c1bbf99,64d2fd46c836a06233681665,64dc7ee8ad91d76cb42eb0fb,,,,,,,decisionTrl,resources/DB.BMP,resources/DR.BMP,Door4,0.20953559,-0.015668403,1,0,0,2.0295,optionRight,80,13220,6,16,0,16,0,1,,,,,,,,,,,,,,,,,,,,,,,,,,,,,,,,,,,,,,,
,,,,,,,5cd5e34157a78e001c1bbf99,2023-08-16_08h47.12.750,HF_wild_card,2022.2.4,MacIntel,60.0024001,5cd5e34157a78e001c1bbf99,64d2fd46c836a06233681665,64dc7ee8ad91d76cb42eb0fb,,,,,,,decisionTrl,resources/DY.BMP,resources/DP.BMP,Door2,-0.166002604,-0.013133681,1,0,0,1.6115,optionLeft,40,13260,6,17,0,17,0,1,,,,,,,,,,,,,,,,,,,,,,,,,,,,,,,,,,,,,,,
,,,,,,,5cd5e34157a78e001c1bbf99,2023-08-16_08h47.12.750,HF_wild_card,2022.2.4,MacIntel,60.0024001,5cd5e34157a78e001c1bbf99,64d2fd46c836a06233681665,64dc7ee8ad91d76cb42eb0fb,,,,,,,decisionTrl,resources/DP.BMP,resources/DY.BMP,Door1,-0.20484809,0.007586806,1,0,0,2.5666,optionLeft,30,13290,6,18,0,18,0,1,,,,,,,,,,,,,,,,,,,,,,,,,,,,,,,,,,,,,,,
,,,,,,,5cd5e34157a78e001c1bbf99,2023-08-16_08h47.12.750,HF_wild_card,2022.2.4,MacIntel,60.0024001,5cd5e34157a78e001c1bbf99,64d2fd46c836a06233681665,64dc7ee8ad91d76cb42eb0fb,,,,,,,ctch,resources/DP.BMP,resources/DR.BMP,Door4,0.230642361,0.010147569,1,0,0,1.1133,optionRight,60,13350,6,19,0,19,0,1,,,,,,,,,,,,,,,,,,,,,,,,,,,,,,,,,,,,,,,
,,,,,,,5cd5e34157a78e001c1bbf99,2023-08-16_08h47.12.750,HF_wild_card,2022.2.4,MacIntel,60.0024001,5cd5e34157a78e001c1bbf99,64d2fd46c836a06233681665,64dc7ee8ad91d76cb42eb0fb,,,,,,,sngl,resources/DBN.BMP,resources/Empty.png,Door3,-0.216388889,0.03718316,1,0,0,0.647099999,optionLeft,70,13420,6,20,0,20,0,1,,,,,,,,,,,,,,,,,,,,,,,,,,,,,,,,,,,,,,,
,,,,,,,5cd5e34157a78e001c1bbf99,2023-08-16_08h47.12.750,HF_wild_card,2022.2.4,MacIntel,60.0024001,5cd5e34157a78e001c1bbf99,64d2fd46c836a06233681665,64dc7ee8ad91d76cb42eb0fb,,,,,,,sngl,resources/DP.BMP,resources/Empty.png,Door1,-0.176037326,0.030329861,1,0,0,1.129,optionLeft,30,13450,6,21,0,21,0,1,,,,,,,,,,,,,,,,,,,,,,,,,,,,,,,,,,,,,,,
,,,,,,,5cd5e34157a78e001c1bbf99,2023-08-16_08h47.12.750,HF_wild_card,2022.2.4,MacIntel,60.0024001,5cd5e34157a78e001c1bbf99,64d2fd46c836a06233681665,64dc7ee8ad91d76cb42eb0fb,,,,,,,decisionTrl,resources/DBN.BMP,resources/DB.BMP,Door3,-0.229340278,0.03749566,1,0,0,1.1836,optionLeft,70,13520,6,22,0,22,0,1,,,,,,,,,,,,,,,,,,,,,,,,,,,,,,,,,,,,,,,
,,,,,,,5cd5e34157a78e001c1bbf99,2023-08-16_08h47.12.750,HF_wild_card,2022.2.4,MacIntel,60.0024001,5cd5e34157a78e001c1bbf99,64d2fd46c836a06233681665,64dc7ee8ad91d76cb42eb0fb,,,,,,,sngl,resources/DR.BMP,resources/Empty.png,Door4,-0.21750434,0.019895833,1,0,0,0.6658,optionLeft,60,13580,6,23,0,23,0,1,,,,,,,,,,,,,,,,,,,,,,,,,,,,,,,,,,,,,,,
,,,,,,,5cd5e34157a78e001c1bbf99,2023-08-16_08h47.12.750,HF_wild_card,2022.2.4,MacIntel,60.0024001,5cd5e34157a78e001c1bbf99,64d2fd46c836a06233681665,64dc7ee8ad91d76cb42eb0fb,,,,,,,ctch,resources/DR.BMP,resources/DP.BMP,Door4,-0.211111111,0.030117187,1,0,0,1.3493,optionLeft,80,13660,6,24,0,24,0,1,,,,,,,,,,,,,,,,,,,,,,,,,,,,,,,,,,,,,,,
,,,,,,,5cd5e34157a78e001c1bbf99,2023-08-16_08h47.12.750,HF_wild_card,2022.2.4,MacIntel,60.0024001,5cd5e34157a78e001c1bbf99,64d2fd46c836a06233681665,64dc7ee8ad91d76cb42eb0fb,,,,,,,sngl,resources/Empty.png,resources/DB.BMP,WildCard_NonEx,0.187912326,-0.007369792,1,0,0,0.681,optionRight,55,13715,6,25,0,25,0,1,,,,,,,,,,,,,,,,,,,,,,,,,,,,,,,,,,,,,,,
,,,,,,,5cd5e34157a78e001c1bbf99,2023-08-16_08h47.12.750,HF_wild_card,2022.2.4,MacIntel,60.0024001,5cd5e34157a78e001c1bbf99,64d2fd46c836a06233681665,64dc7ee8ad91d76cb42eb0fb,,,,,,,decisionTrl,resources/DR.BMP,resources/DBN.BMP,Door3,0.223815104,-0.007769097,1,0,0,2.0643,optionRight,70,13785,6,26,0,26,0,1,,,,,,,,,,,,,,,,,,,,,,,,,,,,,,,,,,,,,,,
,,,,,,,5cd5e34157a78e001c1bbf99,2023-08-16_08h47.12.750,HF_wild_card,2022.2.4,MacIntel,60.0024001,5cd5e34157a78e001c1bbf99,64d2fd46c836a06233681665,64dc7ee8ad91d76cb42eb0fb,,,,,,,sngl,resources/DB.BMP,resources/Empty.png,WildCard_NonEx,-0.168506944,0.004118924,1,0,0,0.6823,optionLeft,45,13830,6,27,0,27,0,1,,,,,,,,,,,,,,,,,,,,,,,,,,,,,,,,,,,,,,,
,,,,,,,5cd5e34157a78e001c1bbf99,2023-08-16_08h47.12.750,HF_wild_card,2022.2.4,MacIntel,60.0024001,5cd5e34157a78e001c1bbf99,64d2fd46c836a06233681665,64dc7ee8ad91d76cb42eb0fb,,,,,,,sngl,resources/DY.BMP,resources/Empty.png,Door2,-0.276579861,0.049179687,1,0,0,0.7298,optionLeft,20,13850,6,28,0,28,0,1,,,,,,,,,,,,,,,,,,,,,,,,,,,,,,,,,,,,,,,
,,,,,,,5cd5e34157a78e001c1bbf99,2023-08-16_08h47.12.750,HF_wild_card,2022.2.4,MacIntel,60.0024001,5cd5e34157a78e001c1bbf99,64d2fd46c836a06233681665,64dc7ee8ad91d76cb42eb0fb,,,,,,,ctch,resources/DBN.BMP,resources/DY.BMP,Door3,-0.205403646,0.016189236,1,0,0,0.8467,optionLeft,70,13920,6,29,0,29,0,1,,,,,,,,,,,,,,,,,,,,,,,,,,,,,,,,,,,,,,,
,,,,,,,5cd5e34157a78e001c1bbf99,2023-08-16_08h47.12.750,HF_wild_card,2022.2.4,MacIntel,60.0024001,5cd5e34157a78e001c1bbf99,64d2fd46c836a06233681665,64dc7ee8ad91d76cb42eb0fb,,,,,,,decisionTrl,resources/DB.BMP,resources/DP.BMP,WildCard_NonEx,-0.238350694,0.034973958,1,0,0,1.511799999,optionLeft,55,13975,6,30,0,30,0,1,,,,,,,,,,,,,,,,,,,,,,,,,,,,,,,,,,,,,,,
,,,,,,,5cd5e34157a78e001c1bbf99,2023-08-16_08h47.12.750,HF_wild_card,2022.2.4,MacIntel,60.0024001,5cd5e34157a78e001c1bbf99,64d2fd46c836a06233681665,64dc7ee8ad91d76cb42eb0fb,,,,,,,ctch,resources/DR.BMP,resources/DP.BMP,Door4,-0.278320313,0.008519965,1,0,0,1.363700001,optionLeft,80,14055,6,31,0,31,0,1,,,,,,,,,,,,,,,,,,,,,,,,,,,,,,,,,,,,,,,
,,,,,,,5cd5e34157a78e001c1bbf99,2023-08-16_08h47.12.750,HF_wild_card,2022.2.4,MacIntel,60.0024001,5cd5e34157a78e001c1bbf99,64d2fd46c836a06233681665,64dc7ee8ad91d76cb42eb0fb,,,,,,,sngl,resources/DB.BMP,resources/Empty.png,WildCard_NonEx,-0.14687934,-0.005872396,1,0,0,0.7288,optionLeft,55,14110,6,32,0,32,0,1,,,,,,,,,,,,,,,,,,,,,,,,,,,,,,,,,,,,,,,
,,,,,,,5cd5e34157a78e001c1bbf99,2023-08-16_08h47.12.750,HF_wild_card,2022.2.4,MacIntel,60.0024001,5cd5e34157a78e001c1bbf99,64d2fd46c836a06233681665,64dc7ee8ad91d76cb42eb0fb,,,,,,,decisionTrl,resources/DP.BMP,resources/DY.BMP,Door1,-0.27906684,0.017508681,1,0,0,1.2278,optionLeft,30,14140,6,33,0,33,0,1,,,,,,,,,,,,,,,,,,,,,,,,,,,,,,,,,,,,,,,
,,,,,,,5cd5e34157a78e001c1bbf99,2023-08-16_08h47.12.750,HF_wild_card,2022.2.4,MacIntel,60.0024001,5cd5e34157a78e001c1bbf99,64d2fd46c836a06233681665,64dc7ee8ad91d76cb42eb0fb,,,,,,,ctch,resources/DY.BMP,resources/DBN.BMP,Door3,0.224019097,0.027426215,1,0,0,0.8469,optionRight,70,14210,6,34,0,34,0,1,,,,,,,,,,,,,,,,,,,,,,,,,,,,,,,,,,,,,,,
,,,,,,,5cd5e34157a78e001c1bbf99,2023-08-16_08h47.12.750,HF_wild_card,2022.2.4,MacIntel,60.0024001,5cd5e34157a78e001c1bbf99,64d2fd46c836a06233681665,64dc7ee8ad91d76cb42eb0fb,,,,,,,decisionTrl,resources/DY.BMP,resources/DP.BMP,Door2,-0.158302951,-0.011124132,1,0,0,2.2474,optionLeft,20,14230,6,35,0,35,0,1,,,,,,,,,,,,,,,,,,,,,,,,,,,,,,,,,,,,,,,
,,,,,,,5cd5e34157a78e001c1bbf99,2023-08-16_08h47.12.750,HF_wild_card,2022.2.4,MacIntel,60.0024001,5cd5e34157a78e001c1bbf99,64d2fd46c836a06233681665,64dc7ee8ad91d76cb42eb0fb,,,,,,,sngl,resources/Empty.png,resources/DP.BMP,Door1,0.204648438,0.008272569,1,0,0,0.8794,optionRight,30,14260,6,36,0,36,0,1,,,,,,,,,,,,,,,,,,,,,,,,,,,,,,,,,,,,,,,
,,,,,,,5cd5e34157a78e001c1bbf99,2023-08-16_08h47.12.750,HF_wild_card,2022.2.4,MacIntel,60.0024001,5cd5e34157a78e001c1bbf99,64d2fd46c836a06233681665,64dc7ee8ad91d76cb42eb0fb,,,,,,,ctch,resources/DBN.BMP,resources/DY.BMP,Door3,-0.231601562,0.008511285,1,0,0,0.7776,optionLeft,70,14330,6,37,0,37,0,1,,,,,,,,,,,,,,,,,,,,,,,,,,,,,,,,,,,,,,,
,,,,,,,5cd5e34157a78e001c1bbf99,2023-08-16_08h47.12.750,HF_wild_card,2022.2.4,MacIntel,60.0024001,5cd5e34157a78e001c1bbf99,64d2fd46c836a06233681665,64dc7ee8ad91d76cb42eb0fb,,,,,,,sngl,resources/Empty.png,resources/DY.BMP,Door2,0.223697917,0.011232639,1,0,0,0.6307,optionRight,40,14370,6,38,0,38,0,1,,,,,,,,,,,,,,,,,,,,,,,,,,,,,,,,,,,,,,,
,,,,,,,5cd5e34157a78e001c1bbf99,2023-08-16_08h47.12.750,HF_wild_card,2022.2.4,MacIntel,60.0024001,5cd5e34157a78e001c1bbf99,64d2fd46c836a06233681665,64dc7ee8ad91d76cb42eb0fb,,,,,,,decisionTrl,resources/DBN.BMP,resources/DR.BMP,Door3,-0.158355035,0.013424479,1,0,0,1.9275,optionLeft,70,14440,6,39,0,39,0,1,,,,,,,,,,,,,,,,,,,,,,,,,,,,,,,,,,,,,,,
,,,,,,,5cd5e34157a78e001c1bbf99,2023-08-16_08h47.12.750,HF_wild_card,2022.2.4,MacIntel,60.0024001,5cd5e34157a78e001c1bbf99,64d2fd46c836a06233681665,64dc7ee8ad91d76cb42eb0fb,,,,,,,decisionTrl,resources/DB.BMP,resources/DY.BMP,WildCard_NonEx,-0.194600694,-0.015529514,1,0,0,0.765099999,optionLeft,45,14485,6,40,0,40,0,1,,,,,,,,,,,,,,,,,,,,,,,,,,,,,,,,,,,,,,,
,,,,,,,5cd5e34157a78e001c1bbf99,2023-08-16_08h47.12.750,HF_wild_card,2022.2.4,MacIntel,60.0024001,5cd5e34157a78e001c1bbf99,64d2fd46c836a06233681665,64dc7ee8ad91d76cb42eb0fb,,,,,,,ctch,resources/DY.BMP,resources/DBN.BMP,Door3,0.219631076,-0.01093316,1,0,0,0.7129,optionRight,70,14555,6,41,0,41,0,1,,,,,,,,,,,,,,,,,,,,,,,,,,,,,,,,,,,,,,,
,,,,,,,5cd5e34157a78e001c1bbf99,2023-08-16_08h47.12.750,HF_wild_card,2022.2.4,MacIntel,60.0024001,5cd5e34157a78e001c1bbf99,64d2fd46c836a06233681665,64dc7ee8ad91d76cb42eb0fb,,,,,,,decisionTrl,resources/DP.BMP,resources/DY.BMP,Door1,-0.240399306,-0.034917535,1,0,0,0.9613,optionLeft,30,14585,6,42,0,42,0,1,,,,,,,,,,,,,,,,,,,,,,,,,,,,,,,,,,,,,,,
,,,,,,,5cd5e34157a78e001c1bbf99,2023-08-16_08h47.12.750,HF_wild_card,2022.2.4,MacIntel,60.0024001,5cd5e34157a78e001c1bbf99,64d2fd46c836a06233681665,64dc7ee8ad91d76cb42eb0fb,,,,,,,decisionTrl,resources/DR.BMP,resources/DB.BMP,Door4,-0.181757813,0.007916667,1,0,0,1.3645,optionLeft,80,14665,6,43,0,43,0,1,,,,,,,,,,,,,,,,,,,,,,,,,,,,,,,,,,,,,,,
,,,,,,,5cd5e34157a78e001c1bbf99,2023-08-16_08h47.12.750,HF_wild_card,2022.2.4,MacIntel,60.0024001,5cd5e34157a78e001c1bbf99,64d2fd46c836a06233681665,64dc7ee8ad91d76cb42eb0fb,,,,,,,,,,,,,,,,,,,,,,,,,,5,0,5,0,1,,,,,,,,,,,,,,,,,,,,,,,,,,,,,,,,,,
,,,,,,,5cd5e34157a78e001c1bbf99,2023-08-16_08h47.12.750,HF_wild_card,2022.2.4,MacIntel,60.0024001,5cd5e34157a78e001c1bbf99,64d2fd46c836a06233681665,64dc7ee8ad91d76cb42eb0fb,,,,,,,decisionTrl,resources/DP.BMP,resources/DY.BMP,Door1,-0.164101562,-0.078823785,1,0,0,1.5791,optionLeft,30,14695,7,0,0,0,0,1,,,,,,,,,,,,,,,,,,,,,,,,,,,,,,,,,,,,,,,
,,,,,,,5cd5e34157a78e001c1bbf99,2023-08-16_08h47.12.750,HF_wild_card,2022.2.4,MacIntel,60.0024001,5cd5e34157a78e001c1bbf99,64d2fd46c836a06233681665,64dc7ee8ad91d76cb42eb0fb,,,,,,,decisionTrl,resources/DBN.BMP,resources/DR.BMP,Door3,-0.164175347,0.024019097,1,0,0,1.2996,optionLeft,70,14765,7,1,0,1,0,1,,,,,,,,,,,,,,,,,,,,,,,,,,,,,,,,,,,,,,,
,,,,,,,5cd5e34157a78e001c1bbf99,2023-08-16_08h47.12.750,HF_wild_card,2022.2.4,MacIntel,60.0024001,5cd5e34157a78e001c1bbf99,64d2fd46c836a06233681665,64dc7ee8ad91d76cb42eb0fb,,,,,,,decisionTrl,resources/DR.BMP,resources/DBN.BMP,Door4,-0.147573785,0.028311632,1,0,0,1.1018,optionLeft,60,14825,7,2,0,2,0,1,,,,,,,,,,,,,,,,,,,,,,,,,,,,,,,,,,,,,,,
,,,,,,,5cd5e34157a78e001c1bbf99,2023-08-16_08h47.12.750,HF_wild_card,2022.2.4,MacIntel,60.0024001,5cd5e34157a78e001c1bbf99,64d2fd46c836a06233681665,64dc7ee8ad91d76cb42eb0fb,,,,,,,ctch,resources/DP.BMP,resources/DR.BMP,Door4,0.264184028,0.014822049,1,0,0,0.8467,optionRight,60,14885,7,3,0,3,0,1,,,,,,,,,,,,,,,,,,,,,,,,,,,,,,,,,,,,,,,
,,,,,,,5cd5e34157a78e001c1bbf99,2023-08-16_08h47.12.750,HF_wild_card,2022.2.4,MacIntel,60.0024001,5cd5e34157a78e001c1bbf99,64d2fd46c836a06233681665,64dc7ee8ad91d76cb42eb0fb,,,,,,,decisionTrl,resources/DP.BMP,resources/DY.BMP,Door2,0.139227431,0.019973958,1,0,0,1.7162,optionRight,40,14925,7,4,0,4,0,1,,,,,,,,,,,,,,,,,,,,,,,,,,,,,,,,,,,,,,,
,,,,,,,5cd5e34157a78e001c1bbf99,2023-08-16_08h47.12.750,HF_wild_card,2022.2.4,MacIntel,60.0024001,5cd5e34157a78e001c1bbf99,64d2fd46c836a06233681665,64dc7ee8ad91d76cb42eb0fb,,,,,,,decisionTrl,resources/DR.BMP,resources/DBN.BMP,Door4,-0.165768229,0.01469184,1,0,0,5.9325,optionLeft,80,15005,7,5,0,5,0,1,,,,,,,,,,,,,,,,,,,,,,,,,,,,,,,,,,,,,,,
,,,,,,,5cd5e34157a78e001c1bbf99,2023-08-16_08h47.12.750,HF_wild_card,2022.2.4,MacIntel,60.0024001,5cd5e34157a78e001c1bbf99,64d2fd46c836a06233681665,64dc7ee8ad91d76cb42eb0fb,,,,,,,decisionTrl,resources/DBN.BMP,resources/DR.BMP,Door4,0.286236979,-0.018971354,1,0,0,3.9315,optionRight,80,15085,7,6,0,6,0,1,,,,,,,,,,,,,,,,,,,,,,,,,,,,,,,,,,,,,,,
,,,,,,,5cd5e34157a78e001c1bbf99,2023-08-16_08h47.12.750,HF_wild_card,2022.2.4,MacIntel,60.0024001,5cd5e34157a78e001c1bbf99,64d2fd46c836a06233681665,64dc7ee8ad91d76cb42eb0fb,,,,,,,decisionTrl,resources/DP.BMP,resources/DY.BMP,Door1,-0.130577257,0.025325521,1,0,0,2.3019,optionLeft,30,15115,7,7,0,7,0,1,,,,,,,,,,,,,,,,,,,,,,,,,,,,,,,,,,,,,,,
,,,,,,,5cd5e34157a78e001c1bbf99,2023-08-16_08h47.12.750,HF_wild_card,2022.2.4,MacIntel,60.0024001,5cd5e34157a78e001c1bbf99,64d2fd46c836a06233681665,64dc7ee8ad91d76cb42eb0fb,,,,,,,decisionTrl,resources/DY.BMP,resources/DP.BMP,Door2,-0.143676215,0.036493056,1,0,0,2.848599999,optionLeft,40,15155,7,8,0,8,0,1,,,,,,,,,,,,,,,,,,,,,,,,,,,,,,,,,,,,,,,
,,,,,,,5cd5e34157a78e001c1bbf99,2023-08-16_08h47.12.750,HF_wild_card,2022.2.4,MacIntel,60.0024001,5cd5e34157a78e001c1bbf99,64d2fd46c836a06233681665,64dc7ee8ad91d76cb42eb0fb,,,,,,,decisionTrl,resources/DBN.BMP,resources/DR.BMP,Door4,0.126388889,-0.025425347,1,0,0,3.865,optionRight,80,15235,7,9,0,9,0,1,,,,,,,,,,,,,,,,,,,,,,,,,,,,,,,,,,,,,,,
,,,,,,,5cd5e34157a78e001c1bbf99,2023-08-16_08h47.12.750,HF_wild_card,2022.2.4,MacIntel,60.0024001,5cd5e34157a78e001c1bbf99,64d2fd46c836a06233681665,64dc7ee8ad91d76cb42eb0fb,,,,,,,ctch,resources/DBN.BMP,resources/DY.BMP,Door3,-0.217174479,0.028671875,1,0,0,0.7959,optionLeft,70,15305,7,10,0,10,0,1,,,,,,,,,,,,,,,,,,,,,,,,,,,,,,,,,,,,,,,
,,,,,,,5cd5e34157a78e001c1bbf99,2023-08-16_08h47.12.750,HF_wild_card,2022.2.4,MacIntel,60.0024001,5cd5e34157a78e001c1bbf99,64d2fd46c836a06233681665,64dc7ee8ad91d76cb42eb0fb,,,,,,,decisionTrl,resources/DBN.BMP,resources/DR.BMP,Door3,-0.167708333,0.036115451,1,0,0,2.1168,optionLeft,70,15375,7,11,0,11,0,1,,,,,,,,,,,,,,,,,,,,,,,,,,,,,,,,,,,,,,,
,,,,,,,5cd5e34157a78e001c1bbf99,2023-08-16_08h47.12.750,HF_wild_card,2022.2.4,MacIntel,60.0024001,5cd5e34157a78e001c1bbf99,64d2fd46c836a06233681665,64dc7ee8ad91d76cb42eb0fb,,,,,,,ctch,resources/DY.BMP,resources/DBN.BMP,Door3,0.216176215,-0.003216146,1,0,0,0.849,optionRight,70,15445,7,12,0,12,0,1,,,,,,,,,,,,,,,,,,,,,,,,,,,,,,,,,,,,,,,
,,,,,,,5cd5e34157a78e001c1bbf99,2023-08-16_08h47.12.750,HF_wild_card,2022.2.4,MacIntel,60.0024001,5cd5e34157a78e001c1bbf99,64d2fd46c836a06233681665,64dc7ee8ad91d76cb42eb0fb,,,,,,,decisionTrl,resources/DR.BMP,resources/DBN.BMP,Door4,-0.169791667,0.009561632,1,0,0,1.480700001,optionLeft,80,15525,7,13,0,13,0,1,,,,,,,,,,,,,,,,,,,,,,,,,,,,,,,,,,,,,,,
,,,,,,,5cd5e34157a78e001c1bbf99,2023-08-16_08h47.12.750,HF_wild_card,2022.2.4,MacIntel,60.0024001,5cd5e34157a78e001c1bbf99,64d2fd46c836a06233681665,64dc7ee8ad91d76cb42eb0fb,,,,,,,decisionTrl,resources/DY.BMP,resources/DP.BMP,Door2,-0.123880208,0.033624132,1,0,0,1.5332,optionLeft,20,15545,7,14,0,14,0,1,,,,,,,,,,,,,,,,,,,,,,,,,,,,,,,,,,,,,,,
,,,,,,,5cd5e34157a78e001c1bbf99,2023-08-16_08h47.12.750,HF_wild_card,2022.2.4,MacIntel,60.0024001,5cd5e34157a78e001c1bbf99,64d2fd46c836a06233681665,64dc7ee8ad91d76cb42eb0fb,,,,,,,decisionTrl,resources/DR.BMP,resources/DBN.BMP,Door4,-0.203359375,0.004609375,1,0,0,1.3131,optionLeft,60,15605,7,15,0,15,0,1,,,,,,,,,,,,,,,,,,,,,,,,,,,,,,,,,,,,,,,
,,,,,,,5cd5e34157a78e001c1bbf99,2023-08-16_08h47.12.750,HF_wild_card,2022.2.4,MacIntel,60.0024001,5cd5e34157a78e001c1bbf99,64d2fd46c836a06233681665,64dc7ee8ad91d76cb42eb0fb,,,,,,,ctch,resources/DR.BMP,resources/DP.BMP,Door4,-0.228064236,0.041019965,1,0,0,0.6462,optionLeft,60,15665,7,16,0,16,0,1,,,,,,,,,,,,,,,,,,,,,,,,,,,,,,,,,,,,,,,
,,,,,,,5cd5e34157a78e001c1bbf99,2023-08-16_08h47.12.750,HF_wild_card,2022.2.4,MacIntel,60.0024001,5cd5e34157a78e001c1bbf99,64d2fd46c836a06233681665,64dc7ee8ad91d76cb42eb0fb,,,,,,,ctch,resources/DBN.BMP,resources/DY.BMP,Door3,-0.303359375,0.05656684,1,0,0,0.7806,optionLeft,70,15735,7,17,0,17,0,1,,,,,,,,,,,,,,,,,,,,,,,,,,,,,,,,,,,,,,,
