Condition,Low fixed image (Door1),Low risky image (Door2),High fixed image (Door3),High risky image (Door4),Extreme Wild Card,NonExtreme Wild Card,,date,expName,psychopyVersion,OS,frameRate,PROLIFIC_PID,STUDY_ID,SESSION_ID,mouse_2.x,mouse_2.y,mouse_2.leftButton,mouse_2.midButton,mouse_2.rightButton,mouse_2.clicked_name,Trial Type,Left Option Image,Right Option Image,Chosen Door,mouse.x,mouse.y,mouse.leftButton,mouse.midButton,mouse.rightButton,mouse.time,mouse.clicked_name,Feedback,Cumulative Reward,Block,trial.thisRepN,trial.thisTrialN,trial.thisN,trial.thisIndex,trial.ran,blocks.thisRepN,blocks.thisTrialN,blocks.thisN,blocks.thisIndex,blocks.ran,Money conversion,First Outcome Reported,Shown Door (First Outcome),Displayed Image (First Outcome),outcomes.thisRepN,outcomes.thisTrialN,outcomes.thisN,outcomes.thisIndex,outcomes.ran,judgments.thisRepN,judgments.thisTrialN,judgments.thisN,judgments.thisIndex,judgments.ran,freqMouse.x,freqMouse.y,freqMouse.leftButton,freqMouse.midButton,freqMouse.rightButton,freqMouse.clicked_name,FQJ for first outcome,FQJ for second outcome,Shown Door,Displayed Image,trials.thisRepN,trials.thisTrialN,trials.thisN,trials.thisIndex,trials.ran,judgBlock.thisRepN,judgBlock.thisTrialN,judgBlock.thisN,judgBlock.thisIndex,judgBlock.ran
1,resources/DB.BMP,resources/DG.BMP,resources/DY.BMP,resources/DP.BMP,resources/DR.BMP,resources/DBN.BMP,5e8f3e2a20456a20cf1ff85e,2023-08-07_15h43.58.231,HF_wild_card,2022.2.4,Win32,59.60185958,5e8f3e2a20456a20cf1ff85e,64ce5acb97489d65b14ecc7a,64d10316dec083e7203739f7,,,,,,,,,,,,,,,,,,,,,,,,,,,,,,,,,,,,,,,,,,,,,,,,,,,,,,,,,,,,,,,,
,,,,,,,5e8f3e2a20456a20cf1ff85e,2023-08-07_15h43.58.231,HF_wild_card,2022.2.4,Win32,59.60185958,5e8f3e2a20456a20cf1ff85e,64ce5acb97489d65b14ecc7a,64d10316dec083e7203739f7,-0.000925912,-0.415740755,1,0,0,agree,,,,,,,,,,,,,,,,,,,,,,,,,,,,,,,,,,,,,,,,,,,,,,,,,,,,,,,,,,
,,,,,,,5e8f3e2a20456a20cf1ff85e,2023-08-07_15h43.58.231,HF_wild_card,2022.2.4,Win32,59.60185958,5e8f3e2a20456a20cf1ff85e,64ce5acb97489d65b14ecc7a,64d10316dec083e7203739f7,,,,,,,,,,,,,,,,,,,,,,,,,,,,,,,,,,,,,,,,,,,,,,,,,,,,,,,,,,,,,,,,
,,,,,,,5e8f3e2a20456a20cf1ff85e,2023-08-07_15h43.58.231,HF_wild_card,2022.2.4,Win32,59.60185958,5e8f3e2a20456a20cf1ff85e,64ce5acb97489d65b14ecc7a,64d10316dec083e7203739f7,,,,,,,decisionTrl,resources/DB.BMP,resources/DG.BMP,Door2,0.438888974,-0.037962984,1,0,0,2.2995,optionRight,20,20,1,0,0,0,0,1,,,,,,,,,,,,,,,,,,,,,,,,,,,,,,,,,,,,,,,
,,,,,,,5e8f3e2a20456a20cf1ff85e,2023-08-07_15h43.58.231,HF_wild_card,2022.2.4,Win32,59.60185958,5e8f3e2a20456a20cf1ff85e,64ce5acb97489d65b14ecc7a,64d10316dec083e7203739f7,,,,,,,decisionTrl,resources/DY.BMP,resources/DP.BMP,Door4,0.524074131,0.030555548,1,0,0,1.5245,optionRight,60,80,1,1,0,1,0,1,,,,,,,,,,,,,,,,,,,,,,,,,,,,,,,,,,,,,,,
,,,,,,,5e8f3e2a20456a20cf1ff85e,2023-08-07_15h43.58.231,HF_wild_card,2022.2.4,Win32,59.60185958,5e8f3e2a20456a20cf1ff85e,64ce5acb97489d65b14ecc7a,64d10316dec083e7203739f7,,,,,,,ctch,resources/DP.BMP,resources/DB.BMP,Door4,-0.179629644,-0.115740741,1,0,0,1.2589,optionLeft,80,160,1,2,0,2,0,1,,,,,,,,,,,,,,,,,,,,,,,,,,,,,,,,,,,,,,,
,,,,,,,5e8f3e2a20456a20cf1ff85e,2023-08-07_15h43.58.231,HF_wild_card,2022.2.4,Win32,59.60185958,5e8f3e2a20456a20cf1ff85e,64ce5acb97489d65b14ecc7a,64d10316dec083e7203739f7,,,,,,,decisionTrl,resources/DY.BMP,resources/DP.BMP,Door4,0.41851849,-0.025000007,1,0,0,0.922,optionRight,80,240,1,3,0,3,0,1,,,,,,,,,,,,,,,,,,,,,,,,,,,,,,,,,,,,,,,
,,,,,,,5e8f3e2a20456a20cf1ff85e,2023-08-07_15h43.58.231,HF_wild_card,2022.2.4,Win32,59.60185958,5e8f3e2a20456a20cf1ff85e,64ce5acb97489d65b14ecc7a,64d10316dec083e7203739f7,,,,,,,sngl,resources/Empty.png,resources/DB.BMP,Door1,0.345370399,-0.002777771,1,0,0,1.2627,optionRight,30,270,1,4,0,4,0,1,,,,,,,,,,,,,,,,,,,,,,,,,,,,,,,,,,,,,,,
,,,,,,,5e8f3e2a20456a20cf1ff85e,2023-08-07_15h43.58.231,HF_wild_card,2022.2.4,Win32,59.60185958,5e8f3e2a20456a20cf1ff85e,64ce5acb97489d65b14ecc7a,64d10316dec083e7203739f7,,,,,,,decisionTrl,resources/DY.BMP,resources/DBN.BMP,Door3,-0.308333326,0.025925919,1,0,0,2.0241,optionLeft,70,340,1,5,0,5,0,1,,,,,,,,,,,,,,,,,,,,,,,,,,,,,,,,,,,,,,,
,,,,,,,5e8f3e2a20456a20cf1ff85e,2023-08-07_15h43.58.231,HF_wild_card,2022.2.4,Win32,59.60185958,5e8f3e2a20456a20cf1ff85e,64ce5acb97489d65b14ecc7a,64d10316dec083e7203739f7,,,,,,,decisionTrl,resources/DG.BMP,resources/DB.BMP,Door2,-0.323148127,0.009259259,1,0,0,2.1085,optionLeft,20,360,1,6,0,6,0,1,,,,,,,,,,,,,,,,,,,,,,,,,,,,,,,,,,,,,,,
,,,,,,,5e8f3e2a20456a20cf1ff85e,2023-08-07_15h43.58.231,HF_wild_card,2022.2.4,Win32,59.60185958,5e8f3e2a20456a20cf1ff85e,64ce5acb97489d65b14ecc7a,64d10316dec083e7203739f7,,,,,,,decisionTrl,resources/DBN.BMP,resources/DY.BMP,Door3,0.40370376,-0.005555577,1,0,0,1.5864,optionRight,70,430,1,7,0,7,0,1,,,,,,,,,,,,,,,,,,,,,,,,,,,,,,,,,,,,,,,
,,,,,,,5e8f3e2a20456a20cf1ff85e,2023-08-07_15h43.58.231,HF_wild_card,2022.2.4,Win32,59.60185958,5e8f3e2a20456a20cf1ff85e,64ce5acb97489d65b14ecc7a,64d10316dec083e7203739f7,,,,,,,ctch,resources/DY.BMP,resources/DG.BMP,Door2,0.395370342,0.026851831,1,0,0,1.1915,optionRight,40,470,1,8,0,8,0,1,,,,,,,,,,,,,,,,,,,,,,,,,,,,,,,,,,,,,,,
,,,,,,,5e8f3e2a20456a20cf1ff85e,2023-08-07_15h43.58.231,HF_wild_card,2022.2.4,Win32,59.60185958,5e8f3e2a20456a20cf1ff85e,64ce5acb97489d65b14ecc7a,64d10316dec083e7203739f7,,,,,,,ctch,resources/DG.BMP,resources/DY.BMP,Door2,-0.366666653,0.006481489,1,0,0,1.4865,optionLeft,40,510,1,9,0,9,0,1,,,,,,,,,,,,,,,,,,,,,,,,,,,,,,,,,,,,,,,
,,,,,,,5e8f3e2a20456a20cf1ff85e,2023-08-07_15h43.58.231,HF_wild_card,2022.2.4,Win32,59.60185958,5e8f3e2a20456a20cf1ff85e,64ce5acb97489d65b14ecc7a,64d10316dec083e7203739f7,,,,,,,decisionTrl,resources/DY.BMP,resources/DP.BMP,Door4,0.362037094,0.013888889,1,0,0,1.039,optionRight,60,570,1,10,0,10,0,1,,,,,,,,,,,,,,,,,,,,,,,,,,,,,,,,,,,,,,,
,,,,,,,5e8f3e2a20456a20cf1ff85e,2023-08-07_15h43.58.231,HF_wild_card,2022.2.4,Win32,59.60185958,5e8f3e2a20456a20cf1ff85e,64ce5acb97489d65b14ecc7a,64d10316dec083e7203739f7,,,,,,,decisionTrl,resources/DP.BMP,resources/DY.BMP,Door4,-0.384259259,0.012962942,1,0,0,1.7763,optionLeft,60,630,1,11,0,11,0,1,,,,,,,,,,,,,,,,,,,,,,,,,,,,,,,,,,,,,,,
,,,,,,,5e8f3e2a20456a20cf1ff85e,2023-08-07_15h43.58.231,HF_wild_card,2022.2.4,Win32,59.60185958,5e8f3e2a20456a20cf1ff85e,64ce5acb97489d65b14ecc7a,64d10316dec083e7203739f7,,,,,,,decisionTrl,resources/DBN.BMP,resources/DG.BMP,Door2,0.388888889,0.020370377,1,0,0,1.326,optionRight,20,650,1,12,0,12,0,1,,,,,,,,,,,,,,,,,,,,,,,,,,,,,,,,,,,,,,,
,,,,,,,5e8f3e2a20456a20cf1ff85e,2023-08-07_15h43.58.231,HF_wild_card,2022.2.4,Win32,59.60185958,5e8f3e2a20456a20cf1ff85e,64ce5acb97489d65b14ecc7a,64d10316dec083e7203739f7,,,,,,,decisionTrl,resources/DG.BMP,resources/DB.BMP,Door2,-0.380555541,0.03148146,1,0,0,1.4261,optionLeft,40,690,1,13,0,13,0,1,,,,,,,,,,,,,,,,,,,,,,,,,,,,,,,,,,,,,,,
,,,,,,,5e8f3e2a20456a20cf1ff85e,2023-08-07_15h43.58.231,HF_wild_card,2022.2.4,Win32,59.60185958,5e8f3e2a20456a20cf1ff85e,64ce5acb97489d65b14ecc7a,64d10316dec083e7203739f7,,,,,,,decisionTrl,resources/DB.BMP,resources/DG.BMP,Door2,0.415740826,-0.006481489,1,0,0,1.13,optionRight,40,730,1,14,0,14,0,1,,,,,,,,,,,,,,,,,,,,,,,,,,,,,,,,,,,,,,,
,,,,,,,5e8f3e2a20456a20cf1ff85e,2023-08-07_15h43.58.231,HF_wild_card,2022.2.4,Win32,59.60185958,5e8f3e2a20456a20cf1ff85e,64ce5acb97489d65b14ecc7a,64d10316dec083e7203739f7,,,,,,,sngl,resources/Empty.png,resources/DBN.BMP,WildCard_NonEx,0.425000085,0.018518519,1,0,0,1.4681,optionRight,45,775,1,15,0,15,0,1,,,,,,,,,,,,,,,,,,,,,,,,,,,,,,,,,,,,,,,
,,,,,,,5e8f3e2a20456a20cf1ff85e,2023-08-07_15h43.58.231,HF_wild_card,2022.2.4,Win32,59.60185958,5e8f3e2a20456a20cf1ff85e,64ce5acb97489d65b14ecc7a,64d10316dec083e7203739f7,,,,,,,decisionTrl,resources/DG.BMP,resources/DBN.BMP,Door2,-0.395370377,0.001851859,1,0,0,1.2961,optionLeft,20,795,1,16,0,16,0,1,,,,,,,,,,,,,,,,,,,,,,,,,,,,,,,,,,,,,,,
,,,,,,,5e8f3e2a20456a20cf1ff85e,2023-08-07_15h43.58.231,HF_wild_card,2022.2.4,Win32,59.60185958,5e8f3e2a20456a20cf1ff85e,64ce5acb97489d65b14ecc7a,64d10316dec083e7203739f7,,,,,,,decisionTrl,resources/DB.BMP,resources/DG.BMP,Door2,0.524074131,-0.015740748,1,0,0,0.8101,optionRight,40,835,1,17,0,17,0,1,,,,,,,,,,,,,,,,,,,,,,,,,,,,,,,,,,,,,,,
,,,,,,,5e8f3e2a20456a20cf1ff85e,2023-08-07_15h43.58.231,HF_wild_card,2022.2.4,Win32,59.60185958,5e8f3e2a20456a20cf1ff85e,64ce5acb97489d65b14ecc7a,64d10316dec083e7203739f7,,,,,,,sngl,resources/DBN.BMP,resources/Empty.png,WildCard_NonEx,-0.402777778,0.032407407,1,0,0,1.5921,optionLeft,55,890,1,18,0,18,0,1,,,,,,,,,,,,,,,,,,,,,,,,,,,,,,,,,,,,,,,
,,,,,,,5e8f3e2a20456a20cf1ff85e,2023-08-07_15h43.58.231,HF_wild_card,2022.2.4,Win32,59.60185958,5e8f3e2a20456a20cf1ff85e,64ce5acb97489d65b14ecc7a,64d10316dec083e7203739f7,,,,,,,sngl,resources/DG.BMP,resources/Empty.png,Door2,-0.35833334,0.018518519,1,0,0,0.943,optionLeft,40,930,1,19,0,19,0,1,,,,,,,,,,,,,,,,,,,,,,,,,,,,,,,,,,,,,,,
,,,,,,,5e8f3e2a20456a20cf1ff85e,2023-08-07_15h43.58.231,HF_wild_card,2022.2.4,Win32,59.60185958,5e8f3e2a20456a20cf1ff85e,64ce5acb97489d65b14ecc7a,64d10316dec083e7203739f7,,,,,,,decisionTrl,resources/DBN.BMP,resources/DP.BMP,Door4,0.402777778,-0.013888889,1,0,0,0.9601,optionRight,80,1010,1,20,0,20,0,1,,,,,,,,,,,,,,,,,,,,,,,,,,,,,,,,,,,,,,,
,,,,,,,5e8f3e2a20456a20cf1ff85e,2023-08-07_15h43.58.231,HF_wild_card,2022.2.4,Win32,59.60185958,5e8f3e2a20456a20cf1ff85e,64ce5acb97489d65b14ecc7a,64d10316dec083e7203739f7,,,,,,,sngl,resources/DBN.BMP,resources/Empty.png,WildCard_NonEx,-0.386111118,0.034259266,1,0,0,1.0586,optionLeft,45,1055,1,21,0,21,0,1,,,,,,,,,,,,,,,,,,,,,,,,,,,,,,,,,,,,,,,
,,,,,,,5e8f3e2a20456a20cf1ff85e,2023-08-07_15h43.58.231,HF_wild_card,2022.2.4,Win32,59.60185958,5e8f3e2a20456a20cf1ff85e,64ce5acb97489d65b14ecc7a,64d10316dec083e7203739f7,,,,,,,decisionTrl,resources/DP.BMP,resources/DY.BMP,Door4,-0.312962956,0.001851859,1,0,0,1.0935,optionLeft,80,1135,1,22,0,22,0,1,,,,,,,,,,,,,,,,,,,,,,,,,,,,,,,,,,,,,,,
,,,,,,,5e8f3e2a20456a20cf1ff85e,2023-08-07_15h43.58.231,HF_wild_card,2022.2.4,Win32,59.60185958,5e8f3e2a20456a20cf1ff85e,64ce5acb97489d65b14ecc7a,64d10316dec083e7203739f7,,,,,,,sngl,resources/DY.BMP,resources/Empty.png,Door3,-0.355555534,0.027777778,1,0,0,0.9099,optionLeft,70,1205,1,23,0,23,0,1,,,,,,,,,,,,,,,,,,,,,,,,,,,,,,,,,,,,,,,
,,,,,,,5e8f3e2a20456a20cf1ff85e,2023-08-07_15h43.58.231,HF_wild_card,2022.2.4,Win32,59.60185958,5e8f3e2a20456a20cf1ff85e,64ce5acb97489d65b14ecc7a,64d10316dec083e7203739f7,,,,,,,sngl,resources/Empty.png,resources/DY.BMP,Door3,0.434259344,0.01666666,1,0,0,0.8271,optionRight,70,1275,1,24,0,24,0,1,,,,,,,,,,,,,,,,,,,,,,,,,,,,,,,,,,,,,,,
,,,,,,,5e8f3e2a20456a20cf1ff85e,2023-08-07_15h43.58.231,HF_wild_card,2022.2.4,Win32,59.60185958,5e8f3e2a20456a20cf1ff85e,64ce5acb97489d65b14ecc7a,64d10316dec083e7203739f7,,,,,,,decisionTrl,resources/DG.BMP,resources/DB.BMP,Door2,-0.343518504,-0.006481489,1,0,0,0.8769,optionLeft,20,1295,1,25,0,25,0,1,,,,,,,,,,,,,,,,,,,,,,,,,,,,,,,,,,,,,,,
,,,,,,,5e8f3e2a20456a20cf1ff85e,2023-08-07_15h43.58.231,HF_wild_card,2022.2.4,Win32,59.60185958,5e8f3e2a20456a20cf1ff85e,64ce5acb97489d65b14ecc7a,64d10316dec083e7203739f7,,,,,,,decisionTrl,resources/DB.BMP,resources/DG.BMP,Door2,0.387963048,0.011111118,1,0,0,0.693,optionRight,20,1315,1,26,0,26,0,1,,,,,,,,,,,,,,,,,,,,,,,,,,,,,,,,,,,,,,,
,,,,,,,5e8f3e2a20456a20cf1ff85e,2023-08-07_15h43.58.231,HF_wild_card,2022.2.4,Win32,59.60185958,5e8f3e2a20456a20cf1ff85e,64ce5acb97489d65b14ecc7a,64d10316dec083e7203739f7,,,,,,,ctch,resources/DY.BMP,resources/DG.BMP,Door2,0.469444416,0.002777771,1,0,0,2.0091,optionRight,40,1355,1,27,0,27,0,1,,,,,,,,,,,,,,,,,,,,,,,,,,,,,,,,,,,,,,,
,,,,,,,5e8f3e2a20456a20cf1ff85e,2023-08-07_15h43.58.231,HF_wild_card,2022.2.4,Win32,59.60185958,5e8f3e2a20456a20cf1ff85e,64ce5acb97489d65b14ecc7a,64d10316dec083e7203739f7,,,,,,,sngl,resources/DB.BMP,resources/Empty.png,Door1,-0.389814801,-0.0074074,1,0,0,1.1436,optionLeft,30,1385,1,28,0,28,0,1,,,,,,,,,,,,,,,,,,,,,,,,,,,,,,,,,,,,,,,
,,,,,,,5e8f3e2a20456a20cf1ff85e,2023-08-07_15h43.58.231,HF_wild_card,2022.2.4,Win32,59.60185958,5e8f3e2a20456a20cf1ff85e,64ce5acb97489d65b14ecc7a,64d10316dec083e7203739f7,,,,,,,decisionTrl,resources/DP.BMP,resources/DY.BMP,Door4,-0.332407386,-0.013888889,1,0,0,1.0091,optionLeft,60,1445,1,29,0,29,0,1,,,,,,,,,,,,,,,,,,,,,,,,,,,,,,,,,,,,,,,
,,,,,,,5e8f3e2a20456a20cf1ff85e,2023-08-07_15h43.58.231,HF_wild_card,2022.2.4,Win32,59.60185958,5e8f3e2a20456a20cf1ff85e,64ce5acb97489d65b14ecc7a,64d10316dec083e7203739f7,,,,,,,sngl,resources/Empty.png,resources/DG.BMP,Door2,0.371296353,-0.002777771,1,0,0,0.8586,optionRight,20,1465,1,30,0,30,0,1,,,,,,,,,,,,,,,,,,,,,,,,,,,,,,,,,,,,,,,
,,,,,,,5e8f3e2a20456a20cf1ff85e,2023-08-07_15h43.58.231,HF_wild_card,2022.2.4,Win32,59.60185958,5e8f3e2a20456a20cf1ff85e,64ce5acb97489d65b14ecc7a,64d10316dec083e7203739f7,,,,,,,decisionTrl,resources/DB.BMP,resources/DBN.BMP,Door1,-0.408333319,0.008333312,1,0,0,0.8935,optionLeft,30,1495,1,31,0,31,0,1,,,,,,,,,,,,,,,,,,,,,,,,,,,,,,,,,,,,,,,
,,,,,,,5e8f3e2a20456a20cf1ff85e,2023-08-07_15h43.58.231,HF_wild_card,2022.2.4,Win32,59.60185958,5e8f3e2a20456a20cf1ff85e,64ce5acb97489d65b14ecc7a,64d10316dec083e7203739f7,,,,,,,decisionTrl,resources/DY.BMP,resources/DP.BMP,Door4,0.464814787,-0.046296296,1,0,0,0.7099,optionRight,80,1575,1,32,0,32,0,1,,,,,,,,,,,,,,,,,,,,,,,,,,,,,,,,,,,,,,,
,,,,,,,5e8f3e2a20456a20cf1ff85e,2023-08-07_15h43.58.231,HF_wild_card,2022.2.4,Win32,59.60185958,5e8f3e2a20456a20cf1ff85e,64ce5acb97489d65b14ecc7a,64d10316dec083e7203739f7,,,,,,,decisionTrl,resources/DP.BMP,resources/DBN.BMP,Door4,-0.374074053,0.014814801,1,0,0,0.6771,optionLeft,60,1635,1,33,0,33,0,1,,,,,,,,,,,,,,,,,,,,,,,,,,,,,,,,,,,,,,,
,,,,,,,5e8f3e2a20456a20cf1ff85e,2023-08-07_15h43.58.231,HF_wild_card,2022.2.4,Win32,59.60185958,5e8f3e2a20456a20cf1ff85e,64ce5acb97489d65b14ecc7a,64d10316dec083e7203739f7,,,,,,,sngl,resources/Empty.png,resources/DP.BMP,Door4,0.397222307,-0.035185178,1,0,0,0.894,optionRight,60,1695,1,34,0,34,0,1,,,,,,,,,,,,,,,,,,,,,,,,,,,,,,,,,,,,,,,
,,,,,,,5e8f3e2a20456a20cf1ff85e,2023-08-07_15h43.58.231,HF_wild_card,2022.2.4,Win32,59.60185958,5e8f3e2a20456a20cf1ff85e,64ce5acb97489d65b14ecc7a,64d10316dec083e7203739f7,,,,,,,sngl,resources/Empty.png,resources/DBN.BMP,WildCard_NonEx,0.37037037,-0.000925947,1,0,0,1.0771,optionRight,55,1750,1,35,0,35,0,1,,,,,,,,,,,,,,,,,,,,,,,,,,,,,,,,,,,,,,,
,,,,,,,5e8f3e2a20456a20cf1ff85e,2023-08-07_15h43.58.231,HF_wild_card,2022.2.4,Win32,59.60185958,5e8f3e2a20456a20cf1ff85e,64ce5acb97489d65b14ecc7a,64d10316dec083e7203739f7,,,,,,,ctch,resources/DP.BMP,resources/DB.BMP,Door4,-0.409259266,0.002777771,1,0,0,0.8927,optionLeft,80,1830,1,36,0,36,0,1,,,,,,,,,,,,,,,,,,,,,,,,,,,,,,,,,,,,,,,
,,,,,,,5e8f3e2a20456a20cf1ff85e,2023-08-07_15h43.58.231,HF_wild_card,2022.2.4,Win32,59.60185958,5e8f3e2a20456a20cf1ff85e,64ce5acb97489d65b14ecc7a,64d10316dec083e7203739f7,,,,,,,decisionTrl,resources/DP.BMP,resources/DY.BMP,Door4,-0.339814822,-0.001851859,1,0,0,0.8562,optionLeft,80,1910,1,37,0,37,0,1,,,,,,,,,,,,,,,,,,,,,,,,,,,,,,,,,,,,,,,
,,,,,,,5e8f3e2a20456a20cf1ff85e,2023-08-07_15h43.58.231,HF_wild_card,2022.2.4,Win32,59.60185958,5e8f3e2a20456a20cf1ff85e,64ce5acb97489d65b14ecc7a,64d10316dec083e7203739f7,,,,,,,ctch,resources/DB.BMP,resources/DP.BMP,Door4,0.337037122,-0.017592607,1,0,0,0.6605,optionRight,80,1990,1,38,0,38,0,1,,,,,,,,,,,,,,,,,,,,,,,,,,,,,,,,,,,,,,,
,,,,,,,5e8f3e2a20456a20cf1ff85e,2023-08-07_15h43.58.231,HF_wild_card,2022.2.4,Win32,59.60185958,5e8f3e2a20456a20cf1ff85e,64ce5acb97489d65b14ecc7a,64d10316dec083e7203739f7,,,,,,,decisionTrl,resources/DG.BMP,resources/DB.BMP,Door2,-0.434259238,0.02870369,1,0,0,0.7761,optionLeft,40,2030,1,39,0,39,0,1,,,,,,,,,,,,,,,,,,,,,,,,,,,,,,,,,,,,,,,
,,,,,,,5e8f3e2a20456a20cf1ff85e,2023-08-07_15h43.58.231,HF_wild_card,2022.2.4,Win32,59.60185958,5e8f3e2a20456a20cf1ff85e,64ce5acb97489d65b14ecc7a,64d10316dec083e7203739f7,,,,,,,decisionTrl,resources/DBN.BMP,resources/DB.BMP,Door1,0.378703788,-0.029629637,1,0,0,1.2252,optionRight,30,2060,1,40,0,40,0,1,,,,,,,,,,,,,,,,,,,,,,,,,,,,,,,,,,,,,,,
,,,,,,,5e8f3e2a20456a20cf1ff85e,2023-08-07_15h43.58.231,HF_wild_card,2022.2.4,Win32,59.60185958,5e8f3e2a20456a20cf1ff85e,64ce5acb97489d65b14ecc7a,64d10316dec083e7203739f7,,,,,,,sngl,resources/DP.BMP,resources/Empty.png,Door4,-0.296296296,0.005555541,1,0,0,0.7245,optionLeft,80,2140,1,41,0,41,0,1,,,,,,,,,,,,,,,,,,,,,,,,,,,,,,,,,,,,,,,
,,,,,,,5e8f3e2a20456a20cf1ff85e,2023-08-07_15h43.58.231,HF_wild_card,2022.2.4,Win32,59.60185958,5e8f3e2a20456a20cf1ff85e,64ce5acb97489d65b14ecc7a,64d10316dec083e7203739f7,,,,,,,ctch,resources/DG.BMP,resources/DY.BMP,Door2,-0.342592593,0.025925919,1,0,0,1.3761,optionLeft,40,2180,1,42,0,42,0,1,,,,,,,,,,,,,,,,,,,,,,,,,,,,,,,,,,,,,,,
,,,,,,,5e8f3e2a20456a20cf1ff85e,2023-08-07_15h43.58.231,HF_wild_card,2022.2.4,Win32,59.60185958,5e8f3e2a20456a20cf1ff85e,64ce5acb97489d65b14ecc7a,64d10316dec083e7203739f7,,,,,,,ctch,resources/DB.BMP,resources/DP.BMP,Door4,0.376851824,-0.00462963,1,0,0,0.8431,optionRight,80,2260,1,43,0,43,0,1,,,,,,,,,,,,,,,,,,,,,,,,,,,,,,,,,,,,,,,
,,,,,,,5e8f3e2a20456a20cf1ff85e,2023-08-07_15h43.58.231,HF_wild_card,2022.2.4,Win32,59.60185958,5e8f3e2a20456a20cf1ff85e,64ce5acb97489d65b14ecc7a,64d10316dec083e7203739f7,,,,,,,,,,,,,,,,,,,,,,,,,,0,0,0,0,1,,,,,,,,,,,,,,,,,,,,,,,,,,,,,,,,,,
,,,,,,,5e8f3e2a20456a20cf1ff85e,2023-08-07_15h43.58.231,HF_wild_card,2022.2.4,Win32,59.60185958,5e8f3e2a20456a20cf1ff85e,64ce5acb97489d65b14ecc7a,64d10316dec083e7203739f7,,,,,,,sngl,resources/DY.BMP,resources/Empty.png,Door3,-0.396296289,0.172222208,1,0,0,1.3869,optionLeft,70,2330,2,0,0,0,0,1,,,,,,,,,,,,,,,,,,,,,,,,,,,,,,,,,,,,,,,
,,,,,,,5e8f3e2a20456a20cf1ff85e,2023-08-07_15h43.58.231,HF_wild_card,2022.2.4,Win32,59.60185958,5e8f3e2a20456a20cf1ff85e,64ce5acb97489d65b14ecc7a,64d10316dec083e7203739f7,,,,,,,ctch,resources/DY.BMP,resources/DG.BMP,Door2,0.369444529,0.062037044,1,0,0,1.2758,optionRight,40,2370,2,1,0,1,0,1,,,,,,,,,,,,,,,,,,,,,,,,,,,,,,,,,,,,,,,
,,,,,,,5e8f3e2a20456a20cf1ff85e,2023-08-07_15h43.58.231,HF_wild_card,2022.2.4,Win32,59.60185958,5e8f3e2a20456a20cf1ff85e,64ce5acb97489d65b14ecc7a,64d10316dec083e7203739f7,,,,,,,ctch,resources/DG.BMP,resources/DY.BMP,Door2,-0.375925912,-0.003703718,1,0,0,1.6758,optionLeft,40,2410,2,2,0,2,0,1,,,,,,,,,,,,,,,,,,,,,,,,,,,,,,,,,,,,,,,
,,,,,,,5e8f3e2a20456a20cf1ff85e,2023-08-07_15h43.58.231,HF_wild_card,2022.2.4,Win32,59.60185958,5e8f3e2a20456a20cf1ff85e,64ce5acb97489d65b14ecc7a,64d10316dec083e7203739f7,,,,,,,decisionTrl,resources/DG.BMP,resources/DB.BMP,Door2,-0.393518519,-0.017592607,1,0,0,1.476,optionLeft,40,2450,2,3,0,3,0,1,,,,,,,,,,,,,,,,,,,,,,,,,,,,,,,,,,,,,,,
,,,,,,,5e8f3e2a20456a20cf1ff85e,2023-08-07_15h43.58.231,HF_wild_card,2022.2.4,Win32,59.60185958,5e8f3e2a20456a20cf1ff85e,64ce5acb97489d65b14ecc7a,64d10316dec083e7203739f7,,,,,,,sngl,resources/DBN.BMP,resources/Empty.png,WildCard_NonEx,-0.37962963,0.03148146,1,0,0,0.8425,optionLeft,45,2495,2,4,0,4,0,1,,,,,,,,,,,,,,,,,,,,,,,,,,,,,,,,,,,,,,,
,,,,,,,5e8f3e2a20456a20cf1ff85e,2023-08-07_15h43.58.231,HF_wild_card,2022.2.4,Win32,59.60185958,5e8f3e2a20456a20cf1ff85e,64ce5acb97489d65b14ecc7a,64d10316dec083e7203739f7,,,,,,,sngl,resources/Empty.png,resources/DBN.BMP,WildCard_NonEx,0.385185242,0.013888889,1,0,0,1.3427,optionRight,55,2550,2,5,0,5,0,1,,,,,,,,,,,,,,,,,,,,,,,,,,,,,,,,,,,,,,,
,,,,,,,5e8f3e2a20456a20cf1ff85e,2023-08-07_15h43.58.231,HF_wild_card,2022.2.4,Win32,59.60185958,5e8f3e2a20456a20cf1ff85e,64ce5acb97489d65b14ecc7a,64d10316dec083e7203739f7,,,,,,,decisionTrl,resources/DP.BMP,resources/DY.BMP,Door4,-0.375925912,-0.012962977,1,0,0,1.0436,optionLeft,60,2610,2,6,0,6,0,1,,,,,,,,,,,,,,,,,,,,,,,,,,,,,,,,,,,,,,,
,,,,,,,5e8f3e2a20456a20cf1ff85e,2023-08-07_15h43.58.231,HF_wild_card,2022.2.4,Win32,59.60185958,5e8f3e2a20456a20cf1ff85e,64ce5acb97489d65b14ecc7a,64d10316dec083e7203739f7,,,,,,,decisionTrl,resources/DG.BMP,resources/DB.BMP,Door2,-0.350925905,-0.008333347,1,0,0,1.2091,optionLeft,20,2630,2,7,0,7,0,1,,,,,,,,,,,,,,,,,,,,,,,,,,,,,,,,,,,,,,,
,,,,,,,5e8f3e2a20456a20cf1ff85e,2023-08-07_15h43.58.231,HF_wild_card,2022.2.4,Win32,59.60185958,5e8f3e2a20456a20cf1ff85e,64ce5acb97489d65b14ecc7a,64d10316dec083e7203739f7,,,,,,,sngl,resources/DG.BMP,resources/Empty.png,Door2,-0.412037037,0.008333312,1,0,0,1.4761,optionLeft,20,2650,2,8,0,8,0,1,,,,,,,,,,,,,,,,,,,,,,,,,,,,,,,,,,,,,,,
,,,,,,,5e8f3e2a20456a20cf1ff85e,2023-08-07_15h43.58.231,HF_wild_card,2022.2.4,Win32,59.60185958,5e8f3e2a20456a20cf1ff85e,64ce5acb97489d65b14ecc7a,64d10316dec083e7203739f7,,,,,,,decisionTrl,resources/DG.BMP,resources/DB.BMP,Door2,-0.412037037,-0.025000007,1,0,0,1.4097,optionLeft,40,2690,2,9,0,9,0,1,,,,,,,,,,,,,,,,,,,,,,,,,,,,,,,,,,,,,,,
,,,,,,,5e8f3e2a20456a20cf1ff85e,2023-08-07_15h43.58.231,HF_wild_card,2022.2.4,Win32,59.60185958,5e8f3e2a20456a20cf1ff85e,64ce5acb97489d65b14ecc7a,64d10316dec083e7203739f7,,,,,,,decisionTrl,resources/DBN.BMP,resources/DP.BMP,Door4,0.373148176,-0.026851866,1,0,0,0.8108,optionRight,80,2770,2,10,0,10,0,1,,,,,,,,,,,,,,,,,,,,,,,,,,,,,,,,,,,,,,,
,,,,,,,5e8f3e2a20456a20cf1ff85e,2023-08-07_15h43.58.231,HF_wild_card,2022.2.4,Win32,59.60185958,5e8f3e2a20456a20cf1ff85e,64ce5acb97489d65b14ecc7a,64d10316dec083e7203739f7,,,,,,,ctch,resources/DP.BMP,resources/DB.BMP,Door4,-0.3675926,-0.033333355,1,0,0,0.7608,optionLeft,60,2830,2,11,0,11,0,1,,,,,,,,,,,,,,,,,,,,,,,,,,,,,,,,,,,,,,,
,,,,,,,5e8f3e2a20456a20cf1ff85e,2023-08-07_15h43.58.231,HF_wild_card,2022.2.4,Win32,59.60185958,5e8f3e2a20456a20cf1ff85e,64ce5acb97489d65b14ecc7a,64d10316dec083e7203739f7,,,,,,,decisionTrl,resources/DB.BMP,resources/DG.BMP,Door2,0.425000085,-0.014814836,1,0,0,0.9263,optionRight,20,2850,2,12,0,12,0,1,,,,,,,,,,,,,,,,,,,,,,,,,,,,,,,,,,,,,,,
,,,,,,,5e8f3e2a20456a20cf1ff85e,2023-08-07_15h43.58.231,HF_wild_card,2022.2.4,Win32,59.60185958,5e8f3e2a20456a20cf1ff85e,64ce5acb97489d65b14ecc7a,64d10316dec083e7203739f7,,,,,,,decisionTrl,resources/DBN.BMP,resources/DB.BMP,Door1,0.330555527,0.000925912,1,0,0,0.6441,optionRight,30,2880,2,13,0,13,0,1,,,,,,,,,,,,,,,,,,,,,,,,,,,,,,,,,,,,,,,
,,,,,,,5e8f3e2a20456a20cf1ff85e,2023-08-07_15h43.58.231,HF_wild_card,2022.2.4,Win32,59.60185958,5e8f3e2a20456a20cf1ff85e,64ce5acb97489d65b14ecc7a,64d10316dec083e7203739f7,,,,,,,decisionTrl,resources/DY.BMP,resources/DP.BMP,Door4,0.397222307,-0.017592607,1,0,0,0.7764,optionRight,80,2960,2,14,0,14,0,1,,,,,,,,,,,,,,,,,,,,,,,,,,,,,,,,,,,,,,,
,,,,,,,5e8f3e2a20456a20cf1ff85e,2023-08-07_15h43.58.231,HF_wild_card,2022.2.4,Win32,59.60185958,5e8f3e2a20456a20cf1ff85e,64ce5acb97489d65b14ecc7a,64d10316dec083e7203739f7,,,,,,,decisionTrl,resources/DB.BMP,resources/DG.BMP,Door2,0.450925898,-0.015740748,1,0,0,0.8607,optionRight,40,3000,2,15,0,15,0,1,,,,,,,,,,,,,,,,,,,,,,,,,,,,,,,,,,,,,,,
,,,,,,,5e8f3e2a20456a20cf1ff85e,2023-08-07_15h43.58.231,HF_wild_card,2022.2.4,Win32,59.60185958,5e8f3e2a20456a20cf1ff85e,64ce5acb97489d65b14ecc7a,64d10316dec083e7203739f7,,,,,,,sngl,resources/Empty.png,resources/DG.BMP,Door2,0.484259288,-0.005555577,1,0,0,0.6277,optionRight,40,3040,2,16,0,16,0,1,,,,,,,,,,,,,,,,,,,,,,,,,,,,,,,,,,,,,,,
,,,,,,,5e8f3e2a20456a20cf1ff85e,2023-08-07_15h43.58.231,HF_wild_card,2022.2.4,Win32,59.60185958,5e8f3e2a20456a20cf1ff85e,64ce5acb97489d65b14ecc7a,64d10316dec083e7203739f7,,,,,,,decisionTrl,resources/DY.BMP,resources/DP.BMP,Door4,0.42314812,0.012962942,1,0,0,0.9265,optionRight,60,3100,2,17,0,17,0,1,,,,,,,,,,,,,,,,,,,,,,,,,,,,,,,,,,,,,,,
,,,,,,,5e8f3e2a20456a20cf1ff85e,2023-08-07_15h43.58.231,HF_wild_card,2022.2.4,Win32,59.60185958,5e8f3e2a20456a20cf1ff85e,64ce5acb97489d65b14ecc7a,64d10316dec083e7203739f7,,,,,,,ctch,resources/DB.BMP,resources/DP.BMP,Door4,0.404629601,-0.032407407,1,0,0,0.9439,optionRight,80,3180,2,18,0,18,0,1,,,,,,,,,,,,,,,,,,,,,,,,,,,,,,,,,,,,,,,
,,,,,,,5e8f3e2a20456a20cf1ff85e,2023-08-07_15h43.58.231,HF_wild_card,2022.2.4,Win32,59.60185958,5e8f3e2a20456a20cf1ff85e,64ce5acb97489d65b14ecc7a,64d10316dec083e7203739f7,,,,,,,decisionTrl,resources/DY.BMP,resources/DP.BMP,Door4,0.428703732,-0.030555548,1,0,0,0.8613,optionRight,60,3240,2,19,0,19,0,1,,,,,,,,,,,,,,,,,,,,,,,,,,,,,,,,,,,,,,,
,,,,,,,5e8f3e2a20456a20cf1ff85e,2023-08-07_15h43.58.231,HF_wild_card,2022.2.4,Win32,59.60185958,5e8f3e2a20456a20cf1ff85e,64ce5acb97489d65b14ecc7a,64d10316dec083e7203739f7,,,,,,,sngl,resources/DBN.BMP,resources/Empty.png,WildCard_NonEx,-0.419444437,0.035185178,1,0,0,0.7928,optionLeft,55,3295,2,20,0,20,0,1,,,,,,,,,,,,,,,,,,,,,,,,,,,,,,,,,,,,,,,
,,,,,,,5e8f3e2a20456a20cf1ff85e,2023-08-07_15h43.58.231,HF_wild_card,2022.2.4,Win32,59.60185958,5e8f3e2a20456a20cf1ff85e,64ce5acb97489d65b14ecc7a,64d10316dec083e7203739f7,,,,,,,ctch,resources/DP.BMP,resources/DB.BMP,Door4,-0.474074081,-0.005555577,1,0,0,1.4766,optionLeft,60,3355,2,21,0,21,0,1,,,,,,,,,,,,,,,,,,,,,,,,,,,,,,,,,,,,,,,
,,,,,,,5e8f3e2a20456a20cf1ff85e,2023-08-07_15h43.58.231,HF_wild_card,2022.2.4,Win32,59.60185958,5e8f3e2a20456a20cf1ff85e,64ce5acb97489d65b14ecc7a,64d10316dec083e7203739f7,,,,,,,ctch,resources/DG.BMP,resources/DY.BMP,Door2,-0.38703703,-0.011111118,1,0,0,1.2864,optionLeft,20,3375,2,22,0,22,0,1,,,,,,,,,,,,,,,,,,,,,,,,,,,,,,,,,,,,,,,
,,,,,,,5e8f3e2a20456a20cf1ff85e,2023-08-07_15h43.58.231,HF_wild_card,2022.2.4,Win32,59.60185958,5e8f3e2a20456a20cf1ff85e,64ce5acb97489d65b14ecc7a,64d10316dec083e7203739f7,,,,,,,sngl,resources/DP.BMP,resources/Empty.png,Door4,-0.304629608,-0.003703718,1,0,0,0.6602,optionLeft,60,3435,2,23,0,23,0,1,,,,,,,,,,,,,,,,,,,,,,,,,,,,,,,,,,,,,,,
,,,,,,,5e8f3e2a20456a20cf1ff85e,2023-08-07_15h43.58.231,HF_wild_card,2022.2.4,Win32,59.60185958,5e8f3e2a20456a20cf1ff85e,64ce5acb97489d65b14ecc7a,64d10316dec083e7203739f7,,,,,,,decisionTrl,resources/DG.BMP,resources/DB.BMP,Door2,-0.383333312,0.010185171,1,0,0,1.2436,optionLeft,20,3455,2,24,0,24,0,1,,,,,,,,,,,,,,,,,,,,,,,,,,,,,,,,,,,,,,,
,,,,,,,5e8f3e2a20456a20cf1ff85e,2023-08-07_15h43.58.231,HF_wild_card,2022.2.4,Win32,59.60185958,5e8f3e2a20456a20cf1ff85e,64ce5acb97489d65b14ecc7a,64d10316dec083e7203739f7,,,,,,,sngl,resources/Empty.png,resources/DP.BMP,Door4,0.399074131,-0.013888889,1,0,0,1.6928,optionRight,80,3535,2,25,0,25,0,1,,,,,,,,,,,,,,,,,,,,,,,,,,,,,,,,,,,,,,,
,,,,,,,5e8f3e2a20456a20cf1ff85e,2023-08-07_15h43.58.231,HF_wild_card,2022.2.4,Win32,59.60185958,5e8f3e2a20456a20cf1ff85e,64ce5acb97489d65b14ecc7a,64d10316dec083e7203739f7,,,,,,,decisionTrl,resources/DP.BMP,resources/DBN.BMP,Door4,-0.326851845,-0.01666666,1,0,0,0.7773,optionLeft,60,3595,2,26,0,26,0,1,,,,,,,,,,,,,,,,,,,,,,,,,,,,,,,,,,,,,,,
,,,,,,,5e8f3e2a20456a20cf1ff85e,2023-08-07_15h43.58.231,HF_wild_card,2022.2.4,Win32,59.60185958,5e8f3e2a20456a20cf1ff85e,64ce5acb97489d65b14ecc7a,64d10316dec083e7203739f7,,,,,,,decisionTrl,resources/DP.BMP,resources/DY.BMP,Door4,-0.439814815,-0.035185178,1,0,0,0.8434,optionLeft,80,3675,2,27,0,27,0,1,,,,,,,,,,,,,,,,,,,,,,,,,,,,,,,,,,,,,,,
,,,,,,,5e8f3e2a20456a20cf1ff85e,2023-08-07_15h43.58.231,HF_wild_card,2022.2.4,Win32,59.60185958,5e8f3e2a20456a20cf1ff85e,64ce5acb97489d65b14ecc7a,64d10316dec083e7203739f7,,,,,,,decisionTrl,resources/DB.BMP,resources/DBN.BMP,Door1,-0.422222208,-0.015740748,1,0,0,0.9764,optionLeft,30,3705,2,28,0,28,0,1,,,,,,,,,,,,,,,,,,,,,,,,,,,,,,,,,,,,,,,
,,,,,,,5e8f3e2a20456a20cf1ff85e,2023-08-07_15h43.58.231,HF_wild_card,2022.2.4,Win32,59.60185958,5e8f3e2a20456a20cf1ff85e,64ce5acb97489d65b14ecc7a,64d10316dec083e7203739f7,,,,,,,decisionTrl,resources/DY.BMP,resources/DP.BMP,Door4,0.375,-0.017592607,1,0,0,0.677,optionRight,60,3765,2,29,0,29,0,1,,,,,,,,,,,,,,,,,,,,,,,,,,,,,,,,,,,,,,,
,,,,,,,5e8f3e2a20456a20cf1ff85e,2023-08-07_15h43.58.231,HF_wild_card,2022.2.4,Win32,59.60185958,5e8f3e2a20456a20cf1ff85e,64ce5acb97489d65b14ecc7a,64d10316dec083e7203739f7,,,,,,,sngl,resources/DB.BMP,resources/Empty.png,Door1,-0.444444444,-0.032407407,1,0,0,0.9762,optionLeft,30,3795,2,30,0,30,0,1,,,,,,,,,,,,,,,,,,,,,,,,,,,,,,,,,,,,,,,
,,,,,,,5e8f3e2a20456a20cf1ff85e,2023-08-07_15h43.58.231,HF_wild_card,2022.2.4,Win32,59.60185958,5e8f3e2a20456a20cf1ff85e,64ce5acb97489d65b14ecc7a,64d10316dec083e7203739f7,,,,,,,decisionTrl,resources/DG.BMP,resources/DBN.BMP,Door2,-0.319444444,-0.025000007,1,0,0,1.0437,optionLeft,20,3815,2,31,0,31,0,1,,,,,,,,,,,,,,,,,,,,,,,,,,,,,,,,,,,,,,,
,,,,,,,5e8f3e2a20456a20cf1ff85e,2023-08-07_15h43.58.231,HF_wild_card,2022.2.4,Win32,59.60185958,5e8f3e2a20456a20cf1ff85e,64ce5acb97489d65b14ecc7a,64d10316dec083e7203739f7,,,,,,,decisionTrl,resources/DBN.BMP,resources/DY.BMP,Door3,0.412963019,-0.009259259,1,0,0,0.6444,optionRight,70,3885,2,32,0,32,0,1,,,,,,,,,,,,,,,,,,,,,,,,,,,,,,,,,,,,,,,
,,,,,,,5e8f3e2a20456a20cf1ff85e,2023-08-07_15h43.58.231,HF_wild_card,2022.2.4,Win32,59.60185958,5e8f3e2a20456a20cf1ff85e,64ce5acb97489d65b14ecc7a,64d10316dec083e7203739f7,,,,,,,decisionTrl,resources/DB.BMP,resources/DG.BMP,Door2,0.345370399,-0.033333355,1,0,0,1.4278,optionRight,40,3925,2,33,0,33,0,1,,,,,,,,,,,,,,,,,,,,,,,,,,,,,,,,,,,,,,,
,,,,,,,5e8f3e2a20456a20cf1ff85e,2023-08-07_15h43.58.231,HF_wild_card,2022.2.4,Win32,59.60185958,5e8f3e2a20456a20cf1ff85e,64ce5acb97489d65b14ecc7a,64d10316dec083e7203739f7,,,,,,,decisionTrl,resources/DY.BMP,resources/DBN.BMP,Door3,-0.311111097,-0.022222236,1,0,0,0.943,optionLeft,70,3995,2,34,0,34,0,1,,,,,,,,,,,,,,,,,,,,,,,,,,,,,,,,,,,,,,,
,,,,,,,5e8f3e2a20456a20cf1ff85e,2023-08-07_15h43.58.231,HF_wild_card,2022.2.4,Win32,59.60185958,5e8f3e2a20456a20cf1ff85e,64ce5acb97489d65b14ecc7a,64d10316dec083e7203739f7,,,,,,,decisionTrl,resources/DB.BMP,resources/DG.BMP,Door2,0.411111196,-0.023148148,1,0,0,1.5588,optionRight,20,4015,2,35,0,35,0,1,,,,,,,,,,,,,,,,,,,,,,,,,,,,,,,,,,,,,,,
,,,,,,,5e8f3e2a20456a20cf1ff85e,2023-08-07_15h43.58.231,HF_wild_card,2022.2.4,Win32,59.60185958,5e8f3e2a20456a20cf1ff85e,64ce5acb97489d65b14ecc7a,64d10316dec083e7203739f7,,,,,,,sngl,resources/Empty.png,resources/DB.BMP,Door1,0.40370376,-0.037962984,1,0,0,1.0598,optionRight,30,4045,2,36,0,36,0,1,,,,,,,,,,,,,,,,,,,,,,,,,,,,,,,,,,,,,,,
,,,,,,,5e8f3e2a20456a20cf1ff85e,2023-08-07_15h43.58.231,HF_wild_card,2022.2.4,Win32,59.60185958,5e8f3e2a20456a20cf1ff85e,64ce5acb97489d65b14ecc7a,64d10316dec083e7203739f7,,,,,,,sngl,resources/Empty.png,resources/DY.BMP,Door3,0.412037037,0.010185171,1,0,0,0.8104,optionRight,70,4115,2,37,0,37,0,1,,,,,,,,,,,,,,,,,,,,,,,,,,,,,,,,,,,,,,,
,,,,,,,5e8f3e2a20456a20cf1ff85e,2023-08-07_15h43.58.231,HF_wild_card,2022.2.4,Win32,59.60185958,5e8f3e2a20456a20cf1ff85e,64ce5acb97489d65b14ecc7a,64d10316dec083e7203739f7,,,,,,,decisionTrl,resources/DP.BMP,resources/DY.BMP,Door4,-0.422222208,-0.027777778,1,0,0,0.7269,optionLeft,80,4195,2,38,0,38,0,1,,,,,,,,,,,,,,,,,,,,,,,,,,,,,,,,,,,,,,,
,,,,,,,5e8f3e2a20456a20cf1ff85e,2023-08-07_15h43.58.231,HF_wild_card,2022.2.4,Win32,59.60185958,5e8f3e2a20456a20cf1ff85e,64ce5acb97489d65b14ecc7a,64d10316dec083e7203739f7,,,,,,,ctch,resources/DY.BMP,resources/DG.BMP,Door2,0.413888861,-0.032407407,1,0,0,0.7272,optionRight,40,4235,2,39,0,39,0,1,,,,,,,,,,,,,,,,,,,,,,,,,,,,,,,,,,,,,,,
,,,,,,,5e8f3e2a20456a20cf1ff85e,2023-08-07_15h43.58.231,HF_wild_card,2022.2.4,Win32,59.60185958,5e8f3e2a20456a20cf1ff85e,64ce5acb97489d65b14ecc7a,64d10316dec083e7203739f7,,,,,,,sngl,resources/Empty.png,resources/DBN.BMP,WildCard_NonEx,0.334259316,-0.021296289,1,0,0,0.8767,optionRight,45,4280,2,40,0,40,0,1,,,,,,,,,,,,,,,,,,,,,,,,,,,,,,,,,,,,,,,
,,,,,,,5e8f3e2a20456a20cf1ff85e,2023-08-07_15h43.58.231,HF_wild_card,2022.2.4,Win32,59.60185958,5e8f3e2a20456a20cf1ff85e,64ce5acb97489d65b14ecc7a,64d10316dec083e7203739f7,,,,,,,decisionTrl,resources/DP.BMP,resources/DY.BMP,Door4,-0.41111109,0.000925912,1,0,0,0.8095,optionLeft,60,4340,2,41,0,41,0,1,,,,,,,,,,,,,,,,,,,,,,,,,,,,,,,,,,,,,,,
,,,,,,,5e8f3e2a20456a20cf1ff85e,2023-08-07_15h43.58.231,HF_wild_card,2022.2.4,Win32,59.60185958,5e8f3e2a20456a20cf1ff85e,64ce5acb97489d65b14ecc7a,64d10316dec083e7203739f7,,,,,,,decisionTrl,resources/DBN.BMP,resources/DG.BMP,Door2,0.436111168,0,1,0,0,1.892,optionRight,20,4360,2,42,0,42,0,1,,,,,,,,,,,,,,,,,,,,,,,,,,,,,,,,,,,,,,,
,,,,,,,5e8f3e2a20456a20cf1ff85e,2023-08-07_15h43.58.231,HF_wild_card,2022.2.4,Win32,59.60185958,5e8f3e2a20456a20cf1ff85e,64ce5acb97489d65b14ecc7a,64d10316dec083e7203739f7,,,,,,,ctch,resources/DB.BMP,resources/DP.BMP,Door4,0.57685188,-0.08425928,1,0,0,0.7262,optionRight,80,4440,2,43,0,43,0,1,,,,,,,,,,,,,,,,,,,,,,,,,,,,,,,,,,,,,,,
,,,,,,,5e8f3e2a20456a20cf1ff85e,2023-08-07_15h43.58.231,HF_wild_card,2022.2.4,Win32,59.60185958,5e8f3e2a20456a20cf1ff85e,64ce5acb97489d65b14ecc7a,64d10316dec083e7203739f7,,,,,,,,,,,,,,,,,,,,,,,,,,1,0,1,0,1,,,,,,,,,,,,,,,,,,,,,,,,,,,,,,,,,,
,,,,,,,5e8f3e2a20456a20cf1ff85e,2023-08-07_15h43.58.231,HF_wild_card,2022.2.4,Win32,59.60185958,5e8f3e2a20456a20cf1ff85e,64ce5acb97489d65b14ecc7a,64d10316dec083e7203739f7,,,,,,,decisionTrl,resources/DB.BMP,resources/DG.BMP,Door2,0.3648149,-0.034259266,1,0,0,1.3063,optionRight,20,4460,3,0,0,0,0,1,,,,,,,,,,,,,,,,,,,,,,,,,,,,,,,,,,,,,,,
,,,,,,,5e8f3e2a20456a20cf1ff85e,2023-08-07_15h43.58.231,HF_wild_card,2022.2.4,Win32,59.60185958,5e8f3e2a20456a20cf1ff85e,64ce5acb97489d65b14ecc7a,64d10316dec083e7203739f7,,,,,,,sngl,resources/Empty.png,resources/DB.BMP,Door1,0.461111139,0.001851859,1,0,0,0.5532,optionRight,30,4490,3,1,0,1,0,1,,,,,,,,,,,,,,,,,,,,,,,,,,,,,,,,,,,,,,,
,,,,,,,5e8f3e2a20456a20cf1ff85e,2023-08-07_15h43.58.231,HF_wild_card,2022.2.4,Win32,59.60185958,5e8f3e2a20456a20cf1ff85e,64ce5acb97489d65b14ecc7a,64d10316dec083e7203739f7,,,,,,,decisionTrl,resources/DG.BMP,resources/DBN.BMP,WildCard_NonEx,0.424074102,-0.023148148,1,0,0,1.4286,optionRight,45,4535,3,2,0,2,0,1,,,,,,,,,,,,,,,,,,,,,,,,,,,,,,,,,,,,,,,
,,,,,,,5e8f3e2a20456a20cf1ff85e,2023-08-07_15h43.58.231,HF_wild_card,2022.2.4,Win32,59.60185958,5e8f3e2a20456a20cf1ff85e,64ce5acb97489d65b14ecc7a,64d10316dec083e7203739f7,,,,,,,sngl,resources/Empty.png,resources/DY.BMP,Door3,0.479629658,-0.021296289,1,0,0,0.5494,optionRight,70,4605,3,3,0,3,0,1,,,,,,,,,,,,,,,,,,,,,,,,,,,,,,,,,,,,,,,
,,,,,,,5e8f3e2a20456a20cf1ff85e,2023-08-07_15h43.58.231,HF_wild_card,2022.2.4,Win32,59.60185958,5e8f3e2a20456a20cf1ff85e,64ce5acb97489d65b14ecc7a,64d10316dec083e7203739f7,,,,,,,decisionTrl,resources/DG.BMP,resources/DB.BMP,Door1,0.397222307,-0.054629644,1,0,0,0.4113,optionRight,30,4635,3,4,0,4,0,1,,,,,,,,,,,,,,,,,,,,,,,,,,,,,,,,,,,,,,,
,,,,,,,5e8f3e2a20456a20cf1ff85e,2023-08-07_15h43.58.231,HF_wild_card,2022.2.4,Win32,59.60185958,5e8f3e2a20456a20cf1ff85e,64ce5acb97489d65b14ecc7a,64d10316dec083e7203739f7,,,,,,,sngl,resources/Empty.png,resources/DBN.BMP,WildCard_NonEx,0.422222279,-0.047222243,1,0,0,0.3771,optionRight,55,4690,3,5,0,5,0,1,,,,,,,,,,,,,,,,,,,,,,,,,,,,,,,,,,,,,,,
,,,,,,,5e8f3e2a20456a20cf1ff85e,2023-08-07_15h43.58.231,HF_wild_card,2022.2.4,Win32,59.60185958,5e8f3e2a20456a20cf1ff85e,64ce5acb97489d65b14ecc7a,64d10316dec083e7203739f7,,,,,,,decisionTrl,resources/DP.BMP,resources/DY.BMP,Door4,-0.424999979,-0.012962977,1,0,0,0.8762,optionLeft,80,4770,3,6,0,6,0,1,,,,,,,,,,,,,,,,,,,,,,,,,,,,,,,,,,,,,,,
,,,,,,,5e8f3e2a20456a20cf1ff85e,2023-08-07_15h43.58.231,HF_wild_card,2022.2.4,Win32,59.60185958,5e8f3e2a20456a20cf1ff85e,64ce5acb97489d65b14ecc7a,64d10316dec083e7203739f7,,,,,,,decisionTrl,resources/DY.BMP,resources/DP.BMP,Door4,0.503703788,-0.055555556,1,0,0,0.5609,optionRight,60,4830,3,7,0,7,0,1,,,,,,,,,,,,,,,,,,,,,,,,,,,,,,,,,,,,,,,
,,,,,,,5e8f3e2a20456a20cf1ff85e,2023-08-07_15h43.58.231,HF_wild_card,2022.2.4,Win32,59.60185958,5e8f3e2a20456a20cf1ff85e,64ce5acb97489d65b14ecc7a,64d10316dec083e7203739f7,,,,,,,decisionTrl,resources/DY.BMP,resources/DP.BMP,Door4,0.41851849,-0.043518526,1,0,0,0.5606,optionRight,80,4910,3,8,0,8,0,1,,,,,,,,,,,,,,,,,,,,,,,,,,,,,,,,,,,,,,,
,,,,,,,5e8f3e2a20456a20cf1ff85e,2023-08-07_15h43.58.231,HF_wild_card,2022.2.4,Win32,59.60185958,5e8f3e2a20456a20cf1ff85e,64ce5acb97489d65b14ecc7a,64d10316dec083e7203739f7,,,,,,,ctch,resources/DB.BMP,resources/DP.BMP,Door4,0.684259344,-0.175000014,1,0,0,0.5113,optionRight,80,4990,3,9,0,9,0,1,,,,,,,,,,,,,,,,,,,,,,,,,,,,,,,,,,,,,,,
,,,,,,,5e8f3e2a20456a20cf1ff85e,2023-08-07_15h43.58.231,HF_wild_card,2022.2.4,Win32,59.60185958,5e8f3e2a20456a20cf1ff85e,64ce5acb97489d65b14ecc7a,64d10316dec083e7203739f7,,,,,,,sngl,resources/Empty.png,resources/DG.BMP,Door2,0.429629714,-0.037962984,1,0,0,0.6439,optionRight,20,5010,3,10,0,10,0,1,,,,,,,,,,,,,,,,,,,,,,,,,,,,,,,,,,,,,,,
,,,,,,,5e8f3e2a20456a20cf1ff85e,2023-08-07_15h43.58.231,HF_wild_card,2022.2.4,Win32,59.60185958,5e8f3e2a20456a20cf1ff85e,64ce5acb97489d65b14ecc7a,64d10316dec083e7203739f7,,,,,,,decisionTrl,resources/DBN.BMP,resources/DB.BMP,Door1,0.345370399,-0.026851866,1,0,0,0.5442,optionRight,30,5040,3,11,0,11,0,1,,,,,,,,,,,,,,,,,,,,,,,,,,,,,,,,,,,,,,,
,,,,,,,5e8f3e2a20456a20cf1ff85e,2023-08-07_15h43.58.231,HF_wild_card,2022.2.4,Win32,59.60185958,5e8f3e2a20456a20cf1ff85e,64ce5acb97489d65b14ecc7a,64d10316dec083e7203739f7,,,,,,,sngl,resources/DG.BMP,resources/Empty.png,Door2,-0.580555563,0.14444443,1,0,0,0.7769,optionLeft,40,5080,3,12,0,12,0,1,,,,,,,,,,,,,,,,,,,,,,,,,,,,,,,,,,,,,,,
,,,,,,,5e8f3e2a20456a20cf1ff85e,2023-08-07_15h43.58.231,HF_wild_card,2022.2.4,Win32,59.60185958,5e8f3e2a20456a20cf1ff85e,64ce5acb97489d65b14ecc7a,64d10316dec083e7203739f7,,,,,,,decisionTrl,resources/DBN.BMP,resources/DP.BMP,Door4,0.354629658,-0.003703718,1,0,0,0.5265,optionRight,80,5160,3,13,0,13,0,1,,,,,,,,,,,,,,,,,,,,,,,,,,,,,,,,,,,,,,,
,,,,,,,5e8f3e2a20456a20cf1ff85e,2023-08-07_15h43.58.231,HF_wild_card,2022.2.4,Win32,59.60185958,5e8f3e2a20456a20cf1ff85e,64ce5acb97489d65b14ecc7a,64d10316dec083e7203739f7,,,,,,,decisionTrl,resources/DP.BMP,resources/DBN.BMP,Door4,-0.429629608,0.006481489,1,0,0,0.8936,optionLeft,60,5220,3,14,0,14,0,1,,,,,,,,,,,,,,,,,,,,,,,,,,,,,,,,,,,,,,,
,,,,,,,5e8f3e2a20456a20cf1ff85e,2023-08-07_15h43.58.231,HF_wild_card,2022.2.4,Win32,59.60185958,5e8f3e2a20456a20cf1ff85e,64ce5acb97489d65b14ecc7a,64d10316dec083e7203739f7,,,,,,,decisionTrl,resources/DB.BMP,resources/DG.BMP,Door2,0.635185242,-0.043518526,1,0,0,0.5774,optionRight,20,5240,3,15,0,15,0,1,,,,,,,,,,,,,,,,,,,,,,,,,,,,,,,,,,,,,,,
,,,,,,,5e8f3e2a20456a20cf1ff85e,2023-08-07_15h43.58.231,HF_wild_card,2022.2.4,Win32,59.60185958,5e8f3e2a20456a20cf1ff85e,64ce5acb97489d65b14ecc7a,64d10316dec083e7203739f7,,,,,,,decisionTrl,resources/DY.BMP,resources/DP.BMP,Door4,0.404629601,-0.003703718,1,0,0,0.5786,optionRight,60,5300,3,16,0,16,0,1,,,,,,,,,,,,,,,,,,,,,,,,,,,,,,,,,,,,,,,
,,,,,,,5e8f3e2a20456a20cf1ff85e,2023-08-07_15h43.58.231,HF_wild_card,2022.2.4,Win32,59.60185958,5e8f3e2a20456a20cf1ff85e,64ce5acb97489d65b14ecc7a,64d10316dec083e7203739f7,,,,,,,sngl,resources/DB.BMP,resources/Empty.png,Door1,-0.286111125,-0.000925947,1,0,0,0.8773,optionLeft,30,5330,3,17,0,17,0,1,,,,,,,,,,,,,,,,,,,,,,,,,,,,,,,,,,,,,,,
,,,,,,,5e8f3e2a20456a20cf1ff85e,2023-08-07_15h43.58.231,HF_wild_card,2022.2.4,Win32,59.60185958,5e8f3e2a20456a20cf1ff85e,64ce5acb97489d65b14ecc7a,64d10316dec083e7203739f7,,,,,,,ctch,resources/DP.BMP,resources/DB.BMP,Door4,-0.267592607,0.00462963,1,0,0,1.0934,optionLeft,80,5410,3,18,0,18,0,1,,,,,,,,,,,,,,,,,,,,,,,,,,,,,,,,,,,,,,,
,,,,,,,5e8f3e2a20456a20cf1ff85e,2023-08-07_15h43.58.231,HF_wild_card,2022.2.4,Win32,59.60185958,5e8f3e2a20456a20cf1ff85e,64ce5acb97489d65b14ecc7a,64d10316dec083e7203739f7,,,,,,,decisionTrl,resources/DP.BMP,resources/DY.BMP,Door3,0.392592677,-0.01203703,1,0,0,0.7944,optionRight,70,5480,3,19,0,19,0,1,,,,,,,,,,,,,,,,,,,,,,,,,,,,,,,,,,,,,,,
,,,,,,,5e8f3e2a20456a20cf1ff85e,2023-08-07_15h43.58.231,HF_wild_card,2022.2.4,Win32,59.60185958,5e8f3e2a20456a20cf1ff85e,64ce5acb97489d65b14ecc7a,64d10316dec083e7203739f7,,,,,,,ctch,resources/DP.BMP,resources/DB.BMP,Door4,-0.261111083,0.000925912,1,0,0,0.626,optionLeft,80,5560,3,20,0,20,0,1,,,,,,,,,,,,,,,,,,,,,,,,,,,,,,,,,,,,,,,
,,,,,,,5e8f3e2a20456a20cf1ff85e,2023-08-07_15h43.58.231,HF_wild_card,2022.2.4,Win32,59.60185958,5e8f3e2a20456a20cf1ff85e,64ce5acb97489d65b14ecc7a,64d10316dec083e7203739f7,,,,,,,decisionTrl,resources/DB.BMP,resources/DG.BMP,Door2,0.455555527,-0.035185178,1,0,0,1.1938,optionRight,20,5580,3,21,0,21,0,1,,,,,,,,,,,,,,,,,,,,,,,,,,,,,,,,,,,,,,,
,,,,,,,5e8f3e2a20456a20cf1ff85e,2023-08-07_15h43.58.231,HF_wild_card,2022.2.4,Win32,59.60185958,5e8f3e2a20456a20cf1ff85e,64ce5acb97489d65b14ecc7a,64d10316dec083e7203739f7,,,,,,,decisionTrl,resources/DY.BMP,resources/DBN.BMP,Door3,-0.372222229,-0.006481489,1,0,0,0.9428,optionLeft,70,5650,3,22,0,22,0,1,,,,,,,,,,,,,,,,,,,,,,,,,,,,,,,,,,,,,,,
,,,,,,,5e8f3e2a20456a20cf1ff85e,2023-08-07_15h43.58.231,HF_wild_card,2022.2.4,Win32,59.60185958,5e8f3e2a20456a20cf1ff85e,64ce5acb97489d65b14ecc7a,64d10316dec083e7203739f7,,,,,,,ctch,resources/DG.BMP,resources/DY.BMP,Door3,0.353703675,-0.014814836,1,0,0,1.9088,optionRight,70,5720,3,23,0,23,0,1,,,,,,,,,,,,,,,,,,,,,,,,,,,,,,,,,,,,,,,
,,,,,,,5e8f3e2a20456a20cf1ff85e,2023-08-07_15h43.58.231,HF_wild_card,2022.2.4,Win32,59.60185958,5e8f3e2a20456a20cf1ff85e,64ce5acb97489d65b14ecc7a,64d10316dec083e7203739f7,,,,,,,decisionTrl,resources/DG.BMP,resources/DB.BMP,Door2,-0.51666666,0.026851831,1,0,0,0.9938,optionLeft,20,5740,3,24,0,24,0,1,,,,,,,,,,,,,,,,,,,,,,,,,,,,,,,,,,,,,,,
,,,,,,,5e8f3e2a20456a20cf1ff85e,2023-08-07_15h43.58.231,HF_wild_card,2022.2.4,Win32,59.60185958,5e8f3e2a20456a20cf1ff85e,64ce5acb97489d65b14ecc7a,64d10316dec083e7203739f7,,,,,,,decisionTrl,resources/DB.BMP,resources/DBN.BMP,Door1,-0.349999993,-0.031481496,1,0,0,0.8763,optionLeft,30,5770,3,25,0,25,0,1,,,,,,,,,,,,,,,,,,,,,,,,,,,,,,,,,,,,,,,
,,,,,,,5e8f3e2a20456a20cf1ff85e,2023-08-07_15h43.58.231,HF_wild_card,2022.2.4,Win32,59.60185958,5e8f3e2a20456a20cf1ff85e,64ce5acb97489d65b14ecc7a,64d10316dec083e7203739f7,,,,,,,sngl,resources/Empty.png,resources/DBN.BMP,WildCard_NonEx,0.513888889,-0.037037037,1,0,0,0.6097,optionRight,45,5815,3,26,0,26,0,1,,,,,,,,,,,,,,,,,,,,,,,,,,,,,,,,,,,,,,,
,,,,,,,5e8f3e2a20456a20cf1ff85e,2023-08-07_15h43.58.231,HF_wild_card,2022.2.4,Win32,59.60185958,5e8f3e2a20456a20cf1ff85e,64ce5acb97489d65b14ecc7a,64d10316dec083e7203739f7,,,,,,,ctch,resources/DB.BMP,resources/DP.BMP,Door4,0.37962963,-0.027777778,1,0,0,0.7771,optionRight,60,5875,3,27,0,27,0,1,,,,,,,,,,,,,,,,,,,,,,,,,,,,,,,,,,,,,,,
,,,,,,,5e8f3e2a20456a20cf1ff85e,2023-08-07_15h43.58.231,HF_wild_card,2022.2.4,Win32,59.60185958,5e8f3e2a20456a20cf1ff85e,64ce5acb97489d65b14ecc7a,64d10316dec083e7203739f7,,,,,,,sngl,resources/DBN.BMP,resources/Empty.png,WildCard_NonEx,-0.357407393,0.011111118,1,0,0,0.6765,optionLeft,55,5930,3,28,0,28,0,1,,,,,,,,,,,,,,,,,,,,,,,,,,,,,,,,,,,,,,,
,,,,,,,5e8f3e2a20456a20cf1ff85e,2023-08-07_15h43.58.231,HF_wild_card,2022.2.4,Win32,59.60185958,5e8f3e2a20456a20cf1ff85e,64ce5acb97489d65b14ecc7a,64d10316dec083e7203739f7,,,,,,,sngl,resources/DY.BMP,resources/Empty.png,Door3,-0.290740755,-0.014814836,1,0,0,0.6936,optionLeft,70,6000,3,29,0,29,0,1,,,,,,,,,,,,,,,,,,,,,,,,,,,,,,,,,,,,,,,
,,,,,,,5e8f3e2a20456a20cf1ff85e,2023-08-07_15h43.58.231,HF_wild_card,2022.2.4,Win32,59.60185958,5e8f3e2a20456a20cf1ff85e,64ce5acb97489d65b14ecc7a,64d10316dec083e7203739f7,,,,,,,sngl,resources/Empty.png,resources/DP.BMP,Door4,0.465740769,-0.050000014,1,0,0,0.5943,optionRight,60,6060,3,30,0,30,0,1,,,,,,,,,,,,,,,,,,,,,,,,,,,,,,,,,,,,,,,
,,,,,,,5e8f3e2a20456a20cf1ff85e,2023-08-07_15h43.58.231,HF_wild_card,2022.2.4,Win32,59.60185958,5e8f3e2a20456a20cf1ff85e,64ce5acb97489d65b14ecc7a,64d10316dec083e7203739f7,,,,,,,decisionTrl,resources/DG.BMP,resources/DB.BMP,Door1,0.462962963,-0.036111125,1,0,0,1.9758,optionRight,30,6090,3,31,0,31,0,1,,,,,,,,,,,,,,,,,,,,,,,,,,,,,,,,,,,,,,,
,,,,,,,5e8f3e2a20456a20cf1ff85e,2023-08-07_15h43.58.231,HF_wild_card,2022.2.4,Win32,59.60185958,5e8f3e2a20456a20cf1ff85e,64ce5acb97489d65b14ecc7a,64d10316dec083e7203739f7,,,,,,,ctch,resources/DY.BMP,resources/DG.BMP,Door3,-0.54074072,0.014814801,1,0,0,1.2189,optionLeft,70,6160,3,32,0,32,0,1,,,,,,,,,,,,,,,,,,,,,,,,,,,,,,,,,,,,,,,
,,,,,,,5e8f3e2a20456a20cf1ff85e,2023-08-07_15h43.58.231,HF_wild_card,2022.2.4,Win32,59.60185958,5e8f3e2a20456a20cf1ff85e,64ce5acb97489d65b14ecc7a,64d10316dec083e7203739f7,,,,,,,decisionTrl,resources/DBN.BMP,resources/DG.BMP,WildCard_NonEx,-0.40370369,0.012962942,1,0,0,1.7713,optionLeft,45,6205,3,33,0,33,0,1,,,,,,,,,,,,,,,,,,,,,,,,,,,,,,,,,,,,,,,
,,,,,,,5e8f3e2a20456a20cf1ff85e,2023-08-07_15h43.58.231,HF_wild_card,2022.2.4,Win32,59.60185958,5e8f3e2a20456a20cf1ff85e,64ce5acb97489d65b14ecc7a,64d10316dec083e7203739f7,,,,,,,decisionTrl,resources/DY.BMP,resources/DP.BMP,Door4,0.398148148,-0.025925919,1,0,0,0.7936,optionRight,80,6285,3,34,0,34,0,1,,,,,,,,,,,,,,,,,,,,,,,,,,,,,,,,,,,,,,,
,,,,,,,5e8f3e2a20456a20cf1ff85e,2023-08-07_15h43.58.231,HF_wild_card,2022.2.4,Win32,59.60185958,5e8f3e2a20456a20cf1ff85e,64ce5acb97489d65b14ecc7a,64d10316dec083e7203739f7,,,,,,,decisionTrl,resources/DP.BMP,resources/DY.BMP,Door4,-0.326851845,-0.030555548,1,0,0,0.8092,optionLeft,60,6345,3,35,0,35,0,1,,,,,,,,,,,,,,,,,,,,,,,,,,,,,,,,,,,,,,,
,,,,,,,5e8f3e2a20456a20cf1ff85e,2023-08-07_15h43.58.231,HF_wild_card,2022.2.4,Win32,59.60185958,5e8f3e2a20456a20cf1ff85e,64ce5acb97489d65b14ecc7a,64d10316dec083e7203739f7,,,,,,,decisionTrl,resources/DP.BMP,resources/DY.BMP,Door4,-0.354629623,0.049999979,1,0,0,0.6603,optionLeft,80,6425,3,36,0,36,0,1,,,,,,,,,,,,,,,,,,,,,,,,,,,,,,,,,,,,,,,
,,,,,,,5e8f3e2a20456a20cf1ff85e,2023-08-07_15h43.58.231,HF_wild_card,2022.2.4,Win32,59.60185958,5e8f3e2a20456a20cf1ff85e,64ce5acb97489d65b14ecc7a,64d10316dec083e7203739f7,,,,,,,ctch,resources/DY.BMP,resources/DG.BMP,Door3,-0.461111104,-0.028703725,1,0,0,1.5926,optionLeft,70,6495,3,37,0,37,0,1,,,,,,,,,,,,,,,,,,,,,,,,,,,,,,,,,,,,,,,
,,,,,,,5e8f3e2a20456a20cf1ff85e,2023-08-07_15h43.58.231,HF_wild_card,2022.2.4,Win32,59.60185958,5e8f3e2a20456a20cf1ff85e,64ce5acb97489d65b14ecc7a,64d10316dec083e7203739f7,,,,,,,sngl,resources/DP.BMP,resources/Empty.png,Door4,-0.409259266,-0.009259259,1,0,0,0.8383,optionLeft,80,6575,3,38,0,38,0,1,,,,,,,,,,,,,,,,,,,,,,,,,,,,,,,,,,,,,,,
,,,,,,,5e8f3e2a20456a20cf1ff85e,2023-08-07_15h43.58.231,HF_wild_card,2022.2.4,Win32,59.60185958,5e8f3e2a20456a20cf1ff85e,64ce5acb97489d65b14ecc7a,64d10316dec083e7203739f7,,,,,,,ctch,resources/DG.BMP,resources/DY.BMP,Door3,0.41851849,0.0074074,1,0,0,1.6754,optionRight,70,6645,3,39,0,39,0,1,,,,,,,,,,,,,,,,,,,,,,,,,,,,,,,,,,,,,,,
,,,,,,,5e8f3e2a20456a20cf1ff85e,2023-08-07_15h43.58.231,HF_wild_card,2022.2.4,Win32,59.60185958,5e8f3e2a20456a20cf1ff85e,64ce5acb97489d65b14ecc7a,64d10316dec083e7203739f7,,,,,,,decisionTrl,resources/DG.BMP,resources/DB.BMP,Door1,0.383333418,0.006481489,1,0,0,2.4248,optionRight,30,6675,3,40,0,40,0,1,,,,,,,,,,,,,,,,,,,,,,,,,,,,,,,,,,,,,,,
,,,,,,,5e8f3e2a20456a20cf1ff85e,2023-08-07_15h43.58.231,HF_wild_card,2022.2.4,Win32,59.60185958,5e8f3e2a20456a20cf1ff85e,64ce5acb97489d65b14ecc7a,64d10316dec083e7203739f7,,,,,,,sngl,resources/DBN.BMP,resources/Empty.png,WildCard_NonEx,-0.327777757,-0.015740748,1,0,0,0.8098,optionLeft,45,6720,3,41,0,41,0,1,,,,,,,,,,,,,,,,,,,,,,,,,,,,,,,,,,,,,,,
,,,,,,,5e8f3e2a20456a20cf1ff85e,2023-08-07_15h43.58.231,HF_wild_card,2022.2.4,Win32,59.60185958,5e8f3e2a20456a20cf1ff85e,64ce5acb97489d65b14ecc7a,64d10316dec083e7203739f7,,,,,,,decisionTrl,resources/DB.BMP,resources/DG.BMP,Door1,-0.309259238,-0.068518533,1,0,0,1.2094,optionLeft,30,6750,3,42,0,42,0,1,,,,,,,,,,,,,,,,,,,,,,,,,,,,,,,,,,,,,,,
,,,,,,,5e8f3e2a20456a20cf1ff85e,2023-08-07_15h43.58.231,HF_wild_card,2022.2.4,Win32,59.60185958,5e8f3e2a20456a20cf1ff85e,64ce5acb97489d65b14ecc7a,64d10316dec083e7203739f7,,,,,,,decisionTrl,resources/DBN.BMP,resources/DY.BMP,Door3,0.396296325,-0.018518519,1,0,0,1.0591,optionRight,70,6820,3,43,0,43,0,1,,,,,,,,,,,,,,,,,,,,,,,,,,,,,,,,,,,,,,,
,,,,,,,5e8f3e2a20456a20cf1ff85e,2023-08-07_15h43.58.231,HF_wild_card,2022.2.4,Win32,59.60185958,5e8f3e2a20456a20cf1ff85e,64ce5acb97489d65b14ecc7a,64d10316dec083e7203739f7,,,,,,,,,,,,,,,,,,,,,,,,,,2,0,2,0,1,,,,,,,,,,,,,,,,,,,,,,,,,,,,,,,,,,
,,,,,,,5e8f3e2a20456a20cf1ff85e,2023-08-07_15h43.58.231,HF_wild_card,2022.2.4,Win32,59.60185958,5e8f3e2a20456a20cf1ff85e,64ce5acb97489d65b14ecc7a,64d10316dec083e7203739f7,,,,,,,decisionTrl,resources/DG.BMP,resources/DB.BMP,Door1,0.41851849,-0.071296303,1,0,0,1.1832,optionRight,30,6850,4,0,0,0,0,1,,,,,,,,,,,,,,,,,,,,,,,,,,,,,,,,,,,,,,,
,,,,,,,5e8f3e2a20456a20cf1ff85e,2023-08-07_15h43.58.231,HF_wild_card,2022.2.4,Win32,59.60185958,5e8f3e2a20456a20cf1ff85e,64ce5acb97489d65b14ecc7a,64d10316dec083e7203739f7,,,,,,,decisionTrl,resources/DB.BMP,resources/DG.BMP,Door1,-0.331481474,-0.072222215,1,0,0,0.9428,optionLeft,30,6880,4,1,0,1,0,1,,,,,,,,,,,,,,,,,,,,,,,,,,,,,,,,,,,,,,,
,,,,,,,5e8f3e2a20456a20cf1ff85e,2023-08-07_15h43.58.231,HF_wild_card,2022.2.4,Win32,59.60185958,5e8f3e2a20456a20cf1ff85e,64ce5acb97489d65b14ecc7a,64d10316dec083e7203739f7,,,,,,,decisionTrl,resources/DG.BMP,resources/DR.BMP,WildCard_Ex,0.407407407,-0.024074095,1,0,0,1.0267,optionRight,5,6885,4,2,0,2,0,1,,,,,,,,,,,,,,,,,,,,,,,,,,,,,,,,,,,,,,,
,,,,,,,5e8f3e2a20456a20cf1ff85e,2023-08-07_15h43.58.231,HF_wild_card,2022.2.4,Win32,59.60185958,5e8f3e2a20456a20cf1ff85e,64ce5acb97489d65b14ecc7a,64d10316dec083e7203739f7,,,,,,,decisionTrl,resources/DR.BMP,resources/DP.BMP,Door4,0.419444473,-0.011111118,1,0,0,0.9752,optionRight,60,6945,4,3,0,3,0,1,,,,,,,,,,,,,,,,,,,,,,,,,,,,,,,,,,,,,,,
,,,,,,,5e8f3e2a20456a20cf1ff85e,2023-08-07_15h43.58.231,HF_wild_card,2022.2.4,Win32,59.60185958,5e8f3e2a20456a20cf1ff85e,64ce5acb97489d65b14ecc7a,64d10316dec083e7203739f7,,,,,,,sngl,resources/Empty.png,resources/DR.BMP,WildCard_Ex,0.475926011,-0.039814808,1,0,0,0.7768,optionRight,95,7040,4,4,0,4,0,1,,,,,,,,,,,,,,,,,,,,,,,,,,,,,,,,,,,,,,,
,,,,,,,5e8f3e2a20456a20cf1ff85e,2023-08-07_15h43.58.231,HF_wild_card,2022.2.4,Win32,59.60185958,5e8f3e2a20456a20cf1ff85e,64ce5acb97489d65b14ecc7a,64d10316dec083e7203739f7,,,,,,,sngl,resources/Empty.png,resources/DR.BMP,WildCard_Ex,0.486111111,-0.001851859,1,0,0,0.4941,optionRight,5,7045,4,5,0,5,0,1,,,,,,,,,,,,,,,,,,,,,,,,,,,,,,,,,,,,,,,
,,,,,,,5e8f3e2a20456a20cf1ff85e,2023-08-07_15h43.58.231,HF_wild_card,2022.2.4,Win32,59.60185958,5e8f3e2a20456a20cf1ff85e,64ce5acb97489d65b14ecc7a,64d10316dec083e7203739f7,,,,,,,decisionTrl,resources/DP.BMP,resources/DY.BMP,Door4,-0.480555534,-0.00462963,1,0,0,0.7604,optionLeft,60,7105,4,6,0,6,0,1,,,,,,,,,,,,,,,,,,,,,,,,,,,,,,,,,,,,,,,
,,,,,,,5e8f3e2a20456a20cf1ff85e,2023-08-07_15h43.58.231,HF_wild_card,2022.2.4,Win32,59.60185958,5e8f3e2a20456a20cf1ff85e,64ce5acb97489d65b14ecc7a,64d10316dec083e7203739f7,,,,,,,sngl,resources/DB.BMP,resources/Empty.png,Door1,-0.345370363,-0.019444466,1,0,0,0.5595,optionLeft,30,7135,4,7,0,7,0,1,,,,,,,,,,,,,,,,,,,,,,,,,,,,,,,,,,,,,,,
,,,,,,,5e8f3e2a20456a20cf1ff85e,2023-08-07_15h43.58.231,HF_wild_card,2022.2.4,Win32,59.60185958,5e8f3e2a20456a20cf1ff85e,64ce5acb97489d65b14ecc7a,64d10316dec083e7203739f7,,,,,,,ctch,resources/DG.BMP,resources/DY.BMP,Door3,0.419444473,0.008333312,1,0,0,1.4098,optionRight,70,7205,4,8,0,8,0,1,,,,,,,,,,,,,,,,,,,,,,,,,,,,,,,,,,,,,,,
,,,,,,,5e8f3e2a20456a20cf1ff85e,2023-08-07_15h43.58.231,HF_wild_card,2022.2.4,Win32,59.60185958,5e8f3e2a20456a20cf1ff85e,64ce5acb97489d65b14ecc7a,64d10316dec083e7203739f7,,,,,,,decisionTrl,resources/DR.BMP,resources/DB.BMP,WildCard_Ex,-0.387962942,0.006481489,1,0,0,1.4424,optionLeft,95,7300,4,9,0,9,0,1,,,,,,,,,,,,,,,,,,,,,,,,,,,,,,,,,,,,,,,
,,,,,,,5e8f3e2a20456a20cf1ff85e,2023-08-07_15h43.58.231,HF_wild_card,2022.2.4,Win32,59.60185958,5e8f3e2a20456a20cf1ff85e,64ce5acb97489d65b14ecc7a,64d10316dec083e7203739f7,,,,,,,sngl,resources/Empty.png,resources/DP.BMP,Door4,0.481481481,-0.037037037,1,0,0,0.7753,optionRight,80,7380,4,10,0,10,0,1,,,,,,,,,,,,,,,,,,,,,,,,,,,,,,,,,,,,,,,
,,,,,,,5e8f3e2a20456a20cf1ff85e,2023-08-07_15h43.58.231,HF_wild_card,2022.2.4,Win32,59.60185958,5e8f3e2a20456a20cf1ff85e,64ce5acb97489d65b14ecc7a,64d10316dec083e7203739f7,,,,,,,sngl,resources/Empty.png,resources/DY.BMP,Door3,0.386111083,0.003703683,1,0,0,0.6598,optionRight,70,7450,4,11,0,11,0,1,,,,,,,,,,,,,,,,,,,,,,,,,,,,,,,,,,,,,,,
,,,,,,,5e8f3e2a20456a20cf1ff85e,2023-08-07_15h43.58.231,HF_wild_card,2022.2.4,Win32,59.60185958,5e8f3e2a20456a20cf1ff85e,64ce5acb97489d65b14ecc7a,64d10316dec083e7203739f7,,,,,,,sngl,resources/DP.BMP,resources/Empty.png,Door4,-0.275925884,0.006481489,1,0,0,0.7253,optionLeft,60,7510,4,12,0,12,0,1,,,,,,,,,,,,,,,,,,,,,,,,,,,,,,,,,,,,,,,
,,,,,,,5e8f3e2a20456a20cf1ff85e,2023-08-07_15h43.58.231,HF_wild_card,2022.2.4,Win32,59.60185958,5e8f3e2a20456a20cf1ff85e,64ce5acb97489d65b14ecc7a,64d10316dec083e7203739f7,,,,,,,decisionTrl,resources/DB.BMP,resources/DG.BMP,Door2,0.400925954,-0.010185206,1,0,0,1.0936,optionRight,40,7550,4,13,0,13,0,1,,,,,,,,,,,,,,,,,,,,,,,,,,,,,,,,,,,,,,,
,,,,,,,5e8f3e2a20456a20cf1ff85e,2023-08-07_15h43.58.231,HF_wild_card,2022.2.4,Win32,59.60185958,5e8f3e2a20456a20cf1ff85e,64ce5acb97489d65b14ecc7a,64d10316dec083e7203739f7,,,,,,,decisionTrl,resources/DB.BMP,resources/DG.BMP,Door2,0.49537037,-0.025925919,1,0,0,0.6269,optionRight,40,7590,4,14,0,14,0,1,,,,,,,,,,,,,,,,,,,,,,,,,,,,,,,,,,,,,,,
,,,,,,,5e8f3e2a20456a20cf1ff85e,2023-08-07_15h43.58.231,HF_wild_card,2022.2.4,Win32,59.60185958,5e8f3e2a20456a20cf1ff85e,64ce5acb97489d65b14ecc7a,64d10316dec083e7203739f7,,,,,,,decisionTrl,resources/DY.BMP,resources/DP.BMP,Door4,0.373148176,-0.035185178,1,0,0,0.8108,optionRight,60,7650,4,15,0,15,0,1,,,,,,,,,,,,,,,,,,,,,,,,,,,,,,,,,,,,,,,
,,,,,,,5e8f3e2a20456a20cf1ff85e,2023-08-07_15h43.58.231,HF_wild_card,2022.2.4,Win32,59.60185958,5e8f3e2a20456a20cf1ff85e,64ce5acb97489d65b14ecc7a,64d10316dec083e7203739f7,,,,,,,ctch,resources/DB.BMP,resources/DP.BMP,Door4,0.390740712,-0.032407407,1,0,0,0.6101,optionRight,60,7710,4,16,0,16,0,1,,,,,,,,,,,,,,,,,,,,,,,,,,,,,,,,,,,,,,,
,,,,,,,5e8f3e2a20456a20cf1ff85e,2023-08-07_15h43.58.231,HF_wild_card,2022.2.4,Win32,59.60185958,5e8f3e2a20456a20cf1ff85e,64ce5acb97489d65b14ecc7a,64d10316dec083e7203739f7,,,,,,,sngl,resources/Empty.png,resources/DB.BMP,Door1,0.411111196,-0.025000007,1,0,0,0.5252,optionRight,30,7740,4,17,0,17,0,1,,,,,,,,,,,,,,,,,,,,,,,,,,,,,,,,,,,,,,,
,,,,,,,5e8f3e2a20456a20cf1ff85e,2023-08-07_15h43.58.231,HF_wild_card,2022.2.4,Win32,59.60185958,5e8f3e2a20456a20cf1ff85e,64ce5acb97489d65b14ecc7a,64d10316dec083e7203739f7,,,,,,,decisionTrl,resources/DP.BMP,resources/DR.BMP,WildCard_Ex,0.413888861,-0.061111132,1,0,0,1.2081,optionRight,5,7745,4,18,0,18,0,1,,,,,,,,,,,,,,,,,,,,,,,,,,,,,,,,,,,,,,,
,,,,,,,5e8f3e2a20456a20cf1ff85e,2023-08-07_15h43.58.231,HF_wild_card,2022.2.4,Win32,59.60185958,5e8f3e2a20456a20cf1ff85e,64ce5acb97489d65b14ecc7a,64d10316dec083e7203739f7,,,,,,,ctch,resources/DB.BMP,resources/DP.BMP,Door4,0.359259288,-0.048148155,1,0,0,0.594,optionRight,60,7805,4,19,0,19,0,1,,,,,,,,,,,,,,,,,,,,,,,,,,,,,,,,,,,,,,,
,,,,,,,5e8f3e2a20456a20cf1ff85e,2023-08-07_15h43.58.231,HF_wild_card,2022.2.4,Win32,59.60185958,5e8f3e2a20456a20cf1ff85e,64ce5acb97489d65b14ecc7a,64d10316dec083e7203739f7,,,,,,,decisionTrl,resources/DP.BMP,resources/DY.BMP,Door4,-0.442592586,-0.005555577,1,0,0,0.7106,optionLeft,80,7885,4,20,0,20,0,1,,,,,,,,,,,,,,,,,,,,,,,,,,,,,,,,,,,,,,,
,,,,,,,5e8f3e2a20456a20cf1ff85e,2023-08-07_15h43.58.231,HF_wild_card,2022.2.4,Win32,59.60185958,5e8f3e2a20456a20cf1ff85e,64ce5acb97489d65b14ecc7a,64d10316dec083e7203739f7,,,,,,,sngl,resources/DG.BMP,resources/Empty.png,Door2,-0.336111104,-0.015740748,1,0,0,0.7112,optionLeft,20,7905,4,21,0,21,0,1,,,,,,,,,,,,,,,,,,,,,,,,,,,,,,,,,,,,,,,
,,,,,,,5e8f3e2a20456a20cf1ff85e,2023-08-07_15h43.58.231,HF_wild_card,2022.2.4,Win32,59.60185958,5e8f3e2a20456a20cf1ff85e,64ce5acb97489d65b14ecc7a,64d10316dec083e7203739f7,,,,,,,ctch,resources/DP.BMP,resources/DB.BMP,Door4,-0.375925912,0.0074074,1,0,0,1.4762,optionLeft,80,7985,4,22,0,22,0,1,,,,,,,,,,,,,,,,,,,,,,,,,,,,,,,,,,,,,,,
,,,,,,,5e8f3e2a20456a20cf1ff85e,2023-08-07_15h43.58.231,HF_wild_card,2022.2.4,Win32,59.60185958,5e8f3e2a20456a20cf1ff85e,64ce5acb97489d65b14ecc7a,64d10316dec083e7203739f7,,,,,,,decisionTrl,resources/DY.BMP,resources/DP.BMP,Door4,0.399074131,-0.012962977,1,0,0,0.7584,optionRight,60,8045,4,23,0,23,0,1,,,,,,,,,,,,,,,,,,,,,,,,,,,,,,,,,,,,,,,
,,,,,,,5e8f3e2a20456a20cf1ff85e,2023-08-07_15h43.58.231,HF_wild_card,2022.2.4,Win32,59.60185958,5e8f3e2a20456a20cf1ff85e,64ce5acb97489d65b14ecc7a,64d10316dec083e7203739f7,,,,,,,decisionTrl,resources/DP.BMP,resources/DY.BMP,Door3,0.381481453,0.017592571,1,0,0,0.6426,optionRight,70,8115,4,24,0,24,0,1,,,,,,,,,,,,,,,,,,,,,,,,,,,,,,,,,,,,,,,
,,,,,,,5e8f3e2a20456a20cf1ff85e,2023-08-07_15h43.58.231,HF_wild_card,2022.2.4,Win32,59.60185958,5e8f3e2a20456a20cf1ff85e,64ce5acb97489d65b14ecc7a,64d10316dec083e7203739f7,,,,,,,decisionTrl,resources/DG.BMP,resources/DB.BMP,Door1,0.407407407,-0.025000007,1,0,0,1.7751,optionRight,30,8145,4,25,0,25,0,1,,,,,,,,,,,,,,,,,,,,,,,,,,,,,,,,,,,,,,,
,,,,,,,5e8f3e2a20456a20cf1ff85e,2023-08-07_15h43.58.231,HF_wild_card,2022.2.4,Win32,59.60185958,5e8f3e2a20456a20cf1ff85e,64ce5acb97489d65b14ecc7a,64d10316dec083e7203739f7,,,,,,,decisionTrl,resources/DY.BMP,resources/DR.BMP,WildCard_Ex,0.522222307,-0.038888896,1,0,0,1.9755,optionRight,5,8150,4,26,0,26,0,1,,,,,,,,,,,,,,,,,,,,,,,,,,,,,,,,,,,,,,,
,,,,,,,5e8f3e2a20456a20cf1ff85e,2023-08-07_15h43.58.231,HF_wild_card,2022.2.4,Win32,59.60185958,5e8f3e2a20456a20cf1ff85e,64ce5acb97489d65b14ecc7a,64d10316dec083e7203739f7,,,,,,,decisionTrl,resources/DB.BMP,resources/DR.BMP,WildCard_Ex,0.453703704,-0.000925947,1,0,0,0.5944,optionRight,5,8155,4,27,0,27,0,1,,,,,,,,,,,,,,,,,,,,,,,,,,,,,,,,,,,,,,,
,,,,,,,5e8f3e2a20456a20cf1ff85e,2023-08-07_15h43.58.231,HF_wild_card,2022.2.4,Win32,59.60185958,5e8f3e2a20456a20cf1ff85e,64ce5acb97489d65b14ecc7a,64d10316dec083e7203739f7,,,,,,,decisionTrl,resources/DG.BMP,resources/DB.BMP,Door1,0.425000085,0.005555541,1,0,0,0.6434,optionRight,30,8185,4,28,0,28,0,1,,,,,,,,,,,,,,,,,,,,,,,,,,,,,,,,,,,,,,,
,,,,,,,5e8f3e2a20456a20cf1ff85e,2023-08-07_15h43.58.231,HF_wild_card,2022.2.4,Win32,59.60185958,5e8f3e2a20456a20cf1ff85e,64ce5acb97489d65b14ecc7a,64d10316dec083e7203739f7,,,,,,,ctch,resources/DY.BMP,resources/DG.BMP,Door3,-0.412962949,-0.001851859,1,0,0,2.026,optionLeft,70,8255,4,29,0,29,0,1,,,,,,,,,,,,,,,,,,,,,,,,,,,,,,,,,,,,,,,
,,,,,,,5e8f3e2a20456a20cf1ff85e,2023-08-07_15h43.58.231,HF_wild_card,2022.2.4,Win32,59.60185958,5e8f3e2a20456a20cf1ff85e,64ce5acb97489d65b14ecc7a,64d10316dec083e7203739f7,,,,,,,decisionTrl,resources/DY.BMP,resources/DP.BMP,Door4,0.325000057,0.013888889,1,0,0,0.7939,optionRight,60,8315,4,30,0,30,0,1,,,,,,,,,,,,,,,,,,,,,,,,,,,,,,,,,,,,,,,
,,,,,,,5e8f3e2a20456a20cf1ff85e,2023-08-07_15h43.58.231,HF_wild_card,2022.2.4,Win32,59.60185958,5e8f3e2a20456a20cf1ff85e,64ce5acb97489d65b14ecc7a,64d10316dec083e7203739f7,,,,,,,ctch,resources/DP.BMP,resources/DB.BMP,Door4,-0.350925905,-0.006481489,1,0,0,1.1925,optionLeft,80,8395,4,31,0,31,0,1,,,,,,,,,,,,,,,,,,,,,,,,,,,,,,,,,,,,,,,
,,,,,,,5e8f3e2a20456a20cf1ff85e,2023-08-07_15h43.58.231,HF_wild_card,2022.2.4,Win32,59.60185958,5e8f3e2a20456a20cf1ff85e,64ce5acb97489d65b14ecc7a,64d10316dec083e7203739f7,,,,,,,sngl,resources/DR.BMP,resources/Empty.png,WildCard_Ex,-0.41574072,-0.020370377,1,0,0,0.7425,optionLeft,95,8490,4,32,0,32,0,1,,,,,,,,,,,,,,,,,,,,,,,,,,,,,,,,,,,,,,,
,,,,,,,5e8f3e2a20456a20cf1ff85e,2023-08-07_15h43.58.231,HF_wild_card,2022.2.4,Win32,59.60185958,5e8f3e2a20456a20cf1ff85e,64ce5acb97489d65b14ecc7a,64d10316dec083e7203739f7,,,,,,,ctch,resources/DG.BMP,resources/DY.BMP,Door3,0.499074159,-0.015740748,1,0,0,2.3087,optionRight,70,8560,4,33,0,33,0,1,,,,,,,,,,,,,,,,,,,,,,,,,,,,,,,,,,,,,,,
,,,,,,,5e8f3e2a20456a20cf1ff85e,2023-08-07_15h43.58.231,HF_wild_card,2022.2.4,Win32,59.60185958,5e8f3e2a20456a20cf1ff85e,64ce5acb97489d65b14ecc7a,64d10316dec083e7203739f7,,,,,,,decisionTrl,resources/DG.BMP,resources/DB.BMP,Door1,0.350926011,-0.035185178,1,0,0,1.8917,optionRight,30,8590,4,34,0,34,0,1,,,,,,,,,,,,,,,,,,,,,,,,,,,,,,,,,,,,,,,
,,,,,,,5e8f3e2a20456a20cf1ff85e,2023-08-07_15h43.58.231,HF_wild_card,2022.2.4,Win32,59.60185958,5e8f3e2a20456a20cf1ff85e,64ce5acb97489d65b14ecc7a,64d10316dec083e7203739f7,,,,,,,sngl,resources/DR.BMP,resources/Empty.png,WildCard_Ex,-0.436111097,-0.00462963,1,0,0,0.76,optionLeft,5,8595,4,35,0,35,0,1,,,,,,,,,,,,,,,,,,,,,,,,,,,,,,,,,,,,,,,
,,,,,,,5e8f3e2a20456a20cf1ff85e,2023-08-07_15h43.58.231,HF_wild_card,2022.2.4,Win32,59.60185958,5e8f3e2a20456a20cf1ff85e,64ce5acb97489d65b14ecc7a,64d10316dec083e7203739f7,,,,,,,decisionTrl,resources/DB.BMP,resources/DG.BMP,Door1,-0.454629616,-0.012962977,1,0,0,0.994,optionLeft,30,8625,4,36,0,36,0,1,,,,,,,,,,,,,,,,,,,,,,,,,,,,,,,,,,,,,,,
,,,,,,,5e8f3e2a20456a20cf1ff85e,2023-08-07_15h43.58.231,HF_wild_card,2022.2.4,Win32,59.60185958,5e8f3e2a20456a20cf1ff85e,64ce5acb97489d65b14ecc7a,64d10316dec083e7203739f7,,,,,,,sngl,resources/DY.BMP,resources/Empty.png,Door3,-0.365740741,0.008333312,1,0,0,0.8097,optionLeft,70,8695,4,37,0,37,0,1,,,,,,,,,,,,,,,,,,,,,,,,,,,,,,,,,,,,,,,
,,,,,,,5e8f3e2a20456a20cf1ff85e,2023-08-07_15h43.58.231,HF_wild_card,2022.2.4,Win32,59.60185958,5e8f3e2a20456a20cf1ff85e,64ce5acb97489d65b14ecc7a,64d10316dec083e7203739f7,,,,,,,ctch,resources/DY.BMP,resources/DG.BMP,Door3,-0.330555563,-0.003703718,1,0,0,0.7126,optionLeft,70,8765,4,38,0,38,0,1,,,,,,,,,,,,,,,,,,,,,,,,,,,,,,,,,,,,,,,
,,,,,,,5e8f3e2a20456a20cf1ff85e,2023-08-07_15h43.58.231,HF_wild_card,2022.2.4,Win32,59.60185958,5e8f3e2a20456a20cf1ff85e,64ce5acb97489d65b14ecc7a,64d10316dec083e7203739f7,,,,,,,sngl,resources/Empty.png,resources/DG.BMP,Door2,0.409259231,-0.001851859,1,0,0,0.7269,optionRight,40,8805,4,39,0,39,0,1,,,,,,,,,,,,,,,,,,,,,,,,,,,,,,,,,,,,,,,
,,,,,,,5e8f3e2a20456a20cf1ff85e,2023-08-07_15h43.58.231,HF_wild_card,2022.2.4,Win32,59.60185958,5e8f3e2a20456a20cf1ff85e,64ce5acb97489d65b14ecc7a,64d10316dec083e7203739f7,,,,,,,decisionTrl,resources/DR.BMP,resources/DY.BMP,WildCard_Ex,-0.256481453,-0.006481489,1,0,0,1.0935,optionLeft,5,8810,4,40,0,40,0,1,,,,,,,,,,,,,,,,,,,,,,,,,,,,,,,,,,,,,,,
,,,,,,,5e8f3e2a20456a20cf1ff85e,2023-08-07_15h43.58.231,HF_wild_card,2022.2.4,Win32,59.60185958,5e8f3e2a20456a20cf1ff85e,64ce5acb97489d65b14ecc7a,64d10316dec083e7203739f7,,,,,,,decisionTrl,resources/DP.BMP,resources/DY.BMP,Door3,0.440740797,-0.018518519,1,0,0,0.7287,optionRight,70,8880,4,41,0,41,0,1,,,,,,,,,,,,,,,,,,,,,,,,,,,,,,,,,,,,,,,
,,,,,,,5e8f3e2a20456a20cf1ff85e,2023-08-07_15h43.58.231,HF_wild_card,2022.2.4,Win32,59.60185958,5e8f3e2a20456a20cf1ff85e,64ce5acb97489d65b14ecc7a,64d10316dec083e7203739f7,,,,,,,decisionTrl,resources/DY.BMP,resources/DP.BMP,Door4,0.432407379,0.013888889,1,0,0,0.7765,optionRight,60,8940,4,42,0,42,0,1,,,,,,,,,,,,,,,,,,,,,,,,,,,,,,,,,,,,,,,
,,,,,,,5e8f3e2a20456a20cf1ff85e,2023-08-07_15h43.58.231,HF_wild_card,2022.2.4,Win32,59.60185958,5e8f3e2a20456a20cf1ff85e,64ce5acb97489d65b14ecc7a,64d10316dec083e7203739f7,,,,,,,decisionTrl,resources/DR.BMP,resources/DG.BMP,WildCard_Ex,-0.331481474,-0.009259259,1,0,0,0.8605,optionLeft,95,9035,4,43,0,43,0,1,,,,,,,,,,,,,,,,,,,,,,,,,,,,,,,,,,,,,,,
,,,,,,,5e8f3e2a20456a20cf1ff85e,2023-08-07_15h43.58.231,HF_wild_card,2022.2.4,Win32,59.60185958,5e8f3e2a20456a20cf1ff85e,64ce5acb97489d65b14ecc7a,64d10316dec083e7203739f7,,,,,,,,,,,,,,,,,,,,,,,,,,3,0,3,0,1,,,,,,,,,,,,,,,,,,,,,,,,,,,,,,,,,,
,,,,,,,5e8f3e2a20456a20cf1ff85e,2023-08-07_15h43.58.231,HF_wild_card,2022.2.4,Win32,59.60185958,5e8f3e2a20456a20cf1ff85e,64ce5acb97489d65b14ecc7a,64d10316dec083e7203739f7,,,,,,,ctch,resources/DP.BMP,resources/DB.BMP,Door4,-0.480555534,-0.080555563,1,0,0,0.7558,optionLeft,60,9095,5,0,0,0,0,1,,,,,,,,,,,,,,,,,,,,,,,,,,,,,,,,,,,,,,,
,,,,,,,5e8f3e2a20456a20cf1ff85e,2023-08-07_15h43.58.231,HF_wild_card,2022.2.4,Win32,59.60185958,5e8f3e2a20456a20cf1ff85e,64ce5acb97489d65b14ecc7a,64d10316dec083e7203739f7,,,,,,,decisionTrl,resources/DP.BMP,resources/DY.BMP,Door3,0.308333362,0.032407407,1,0,0,0.6136,optionRight,70,9165,5,1,0,1,0,1,,,,,,,,,,,,,,,,,,,,,,,,,,,,,,,,,,,,,,,
,,,,,,,5e8f3e2a20456a20cf1ff85e,2023-08-07_15h43.58.231,HF_wild_card,2022.2.4,Win32,59.60185958,5e8f3e2a20456a20cf1ff85e,64ce5acb97489d65b14ecc7a,64d10316dec083e7203739f7,,,,,,,sngl,resources/DG.BMP,resources/Empty.png,Door2,-0.390740748,0.013888889,1,0,0,0.7939,optionLeft,40,9205,5,2,0,2,0,1,,,,,,,,,,,,,,,,,,,,,,,,,,,,,,,,,,,,,,,
,,,,,,,5e8f3e2a20456a20cf1ff85e,2023-08-07_15h43.58.231,HF_wild_card,2022.2.4,Win32,59.60185958,5e8f3e2a20456a20cf1ff85e,64ce5acb97489d65b14ecc7a,64d10316dec083e7203739f7,,,,,,,sngl,resources/Empty.png,resources/DR.BMP,WildCard_Ex,0.289814843,0.027777778,1,0,0,0.5886,optionRight,5,9210,5,3,0,3,0,1,,,,,,,,,,,,,,,,,,,,,,,,,,,,,,,,,,,,,,,
,,,,,,,5e8f3e2a20456a20cf1ff85e,2023-08-07_15h43.58.231,HF_wild_card,2022.2.4,Win32,59.60185958,5e8f3e2a20456a20cf1ff85e,64ce5acb97489d65b14ecc7a,64d10316dec083e7203739f7,,,,,,,sngl,resources/Empty.png,resources/DG.BMP,Door2,0.308333362,0.000925912,1,0,0,0.5431,optionRight,20,9230,5,4,0,4,0,1,,,,,,,,,,,,,,,,,,,,,,,,,,,,,,,,,,,,,,,
,,,,,,,5e8f3e2a20456a20cf1ff85e,2023-08-07_15h43.58.231,HF_wild_card,2022.2.4,Win32,59.60185958,5e8f3e2a20456a20cf1ff85e,64ce5acb97489d65b14ecc7a,64d10316dec083e7203739f7,,,,,,,decisionTrl,resources/DB.BMP,resources/DR.BMP,WildCard_Ex,0.337962963,-0.002777771,1,0,0,0.8806,optionRight,5,9235,5,5,0,5,0,1,,,,,,,,,,,,,,,,,,,,,,,,,,,,,,,,,,,,,,,
,,,,,,,5e8f3e2a20456a20cf1ff85e,2023-08-07_15h43.58.231,HF_wild_card,2022.2.4,Win32,59.60185958,5e8f3e2a20456a20cf1ff85e,64ce5acb97489d65b14ecc7a,64d10316dec083e7203739f7,,,,,,,decisionTrl,resources/DR.BMP,resources/DG.BMP,WildCard_Ex,-0.444444444,-0.002777771,1,0,0,0.5045,optionLeft,5,9240,5,6,0,6,0,1,,,,,,,,,,,,,,,,,,,,,,,,,,,,,,,,,,,,,,,
,,,,,,,5e8f3e2a20456a20cf1ff85e,2023-08-07_15h43.58.231,HF_wild_card,2022.2.4,Win32,59.60185958,5e8f3e2a20456a20cf1ff85e,64ce5acb97489d65b14ecc7a,64d10316dec083e7203739f7,,,,,,,decisionTrl,resources/DB.BMP,resources/DG.BMP,Door2,0.465740769,-0.010185206,1,0,0,0.4453,optionRight,40,9280,5,7,0,7,0,1,,,,,,,,,,,,,,,,,,,,,,,,,,,,,,,,,,,,,,,
,,,,,,,5e8f3e2a20456a20cf1ff85e,2023-08-07_15h43.58.231,HF_wild_card,2022.2.4,Win32,59.60185958,5e8f3e2a20456a20cf1ff85e,64ce5acb97489d65b14ecc7a,64d10316dec083e7203739f7,,,,,,,decisionTrl,resources/DR.BMP,resources/DB.BMP,Door1,0.233333376,-0.01203703,1,0,0,0.5056,optionRight,30,9310,5,8,0,8,0,1,,,,,,,,,,,,,,,,,,,,,,,,,,,,,,,,,,,,,,,
,,,,,,,5e8f3e2a20456a20cf1ff85e,2023-08-07_15h43.58.231,HF_wild_card,2022.2.4,Win32,59.60185958,5e8f3e2a20456a20cf1ff85e,64ce5acb97489d65b14ecc7a,64d10316dec083e7203739f7,,,,,,,decisionTrl,resources/DY.BMP,resources/DP.BMP,Door4,0.608333305,0.01203703,1,0,0,0.3703,optionRight,60,9370,5,9,0,9,0,1,,,,,,,,,,,,,,,,,,,,,,,,,,,,,,,,,,,,,,,
,,,,,,,5e8f3e2a20456a20cf1ff85e,2023-08-07_15h43.58.231,HF_wild_card,2022.2.4,Win32,59.60185958,5e8f3e2a20456a20cf1ff85e,64ce5acb97489d65b14ecc7a,64d10316dec083e7203739f7,,,,,,,ctch,resources/DG.BMP,resources/DY.BMP,Door3,0.323148233,0.000925912,1,0,0,0.4134,optionRight,70,9440,5,10,0,10,0,1,,,,,,,,,,,,,,,,,,,,,,,,,,,,,,,,,,,,,,,
,,,,,,,5e8f3e2a20456a20cf1ff85e,2023-08-07_15h43.58.231,HF_wild_card,2022.2.4,Win32,59.60185958,5e8f3e2a20456a20cf1ff85e,64ce5acb97489d65b14ecc7a,64d10316dec083e7203739f7,,,,,,,decisionTrl,resources/DY.BMP,resources/DP.BMP,Door4,0.251851894,0.002777771,1,0,0,0.447,optionRight,60,9500,5,11,0,11,0,1,,,,,,,,,,,,,,,,,,,,,,,,,,,,,,,,,,,,,,,
,,,,,,,5e8f3e2a20456a20cf1ff85e,2023-08-07_15h43.58.231,HF_wild_card,2022.2.4,Win32,59.60185958,5e8f3e2a20456a20cf1ff85e,64ce5acb97489d65b14ecc7a,64d10316dec083e7203739f7,,,,,,,decisionTrl,resources/DR.BMP,resources/DY.BMP,Door3,0.356481481,-0.00462963,1,0,0,0.3593,optionRight,70,9570,5,12,0,12,0,1,,,,,,,,,,,,,,,,,,,,,,,,,,,,,,,,,,,,,,,
,,,,,,,5e8f3e2a20456a20cf1ff85e,2023-08-07_15h43.58.231,HF_wild_card,2022.2.4,Win32,59.60185958,5e8f3e2a20456a20cf1ff85e,64ce5acb97489d65b14ecc7a,64d10316dec083e7203739f7,,,,,,,ctch,resources/DP.BMP,resources/DB.BMP,Door1,0.32222225,-0.01203703,1,0,0,0.3772,optionRight,30,9600,5,13,0,13,0,1,,,,,,,,,,,,,,,,,,,,,,,,,,,,,,,,,,,,,,,
,,,,,,,5e8f3e2a20456a20cf1ff85e,2023-08-07_15h43.58.231,HF_wild_card,2022.2.4,Win32,59.60185958,5e8f3e2a20456a20cf1ff85e,64ce5acb97489d65b14ecc7a,64d10316dec083e7203739f7,,,,,,,sngl,resources/Empty.png,resources/DP.BMP,Door4,0.324074074,-0.006481489,1,0,0,0.3775,optionRight,60,9660,5,14,0,14,0,1,,,,,,,,,,,,,,,,,,,,,,,,,,,,,,,,,,,,,,,
,,,,,,,5e8f3e2a20456a20cf1ff85e,2023-08-07_15h43.58.231,HF_wild_card,2022.2.4,Win32,59.60185958,5e8f3e2a20456a20cf1ff85e,64ce5acb97489d65b14ecc7a,64d10316dec083e7203739f7,,,,,,,decisionTrl,resources/DB.BMP,resources/DG.BMP,Door2,0.400925954,-0.005555577,1,0,0,1.2646,optionRight,40,9700,5,15,0,15,0,1,,,,,,,,,,,,,,,,,,,,,,,,,,,,,,,,,,,,,,,
,,,,,,,5e8f3e2a20456a20cf1ff85e,2023-08-07_15h43.58.231,HF_wild_card,2022.2.4,Win32,59.60185958,5e8f3e2a20456a20cf1ff85e,64ce5acb97489d65b14ecc7a,64d10316dec083e7203739f7,,,,,,,ctch,resources/DY.BMP,resources/DG.BMP,Door2,0.375925982,-0.0074074,1,0,0,0.3936,optionRight,40,9740,5,16,0,16,0,1,,,,,,,,,,,,,,,,,,,,,,,,,,,,,,,,,,,,,,,
,,,,,,,5e8f3e2a20456a20cf1ff85e,2023-08-07_15h43.58.231,HF_wild_card,2022.2.4,Win32,59.60185958,5e8f3e2a20456a20cf1ff85e,64ce5acb97489d65b14ecc7a,64d10316dec083e7203739f7,,,,,,,decisionTrl,resources/DG.BMP,resources/DB.BMP,Door1,0.375925982,-0.027777778,1,0,0,0.3104,optionRight,30,9770,5,17,0,17,0,1,,,,,,,,,,,,,,,,,,,,,,,,,,,,,,,,,,,,,,,
,,,,,,,5e8f3e2a20456a20cf1ff85e,2023-08-07_15h43.58.231,HF_wild_card,2022.2.4,Win32,59.60185958,5e8f3e2a20456a20cf1ff85e,64ce5acb97489d65b14ecc7a,64d10316dec083e7203739f7,,,,,,,decisionTrl,resources/DR.BMP,resources/DP.BMP,Door4,0.41851849,-0.024074095,1,0,0,0.2941,optionRight,60,9830,5,18,0,18,0,1,,,,,,,,,,,,,,,,,,,,,,,,,,,,,,,,,,,,,,,
,,,,,,,5e8f3e2a20456a20cf1ff85e,2023-08-07_15h43.58.231,HF_wild_card,2022.2.4,Win32,59.60185958,5e8f3e2a20456a20cf1ff85e,64ce5acb97489d65b14ecc7a,64d10316dec083e7203739f7,,,,,,,decisionTrl,resources/DP.BMP,resources/DY.BMP,Door3,0.344444416,-0.020370377,1,0,0,0.2435,optionRight,70,9900,5,19,0,19,0,1,,,,,,,,,,,,,,,,,,,,,,,,,,,,,,,,,,,,,,,
,,,,,,,5e8f3e2a20456a20cf1ff85e,2023-08-07_15h43.58.231,HF_wild_card,2022.2.4,Win32,59.60185958,5e8f3e2a20456a20cf1ff85e,64ce5acb97489d65b14ecc7a,64d10316dec083e7203739f7,,,,,,,sngl,resources/DR.BMP,resources/Empty.png,WildCard_Ex,0.337037122,-0.023148148,1,0,0,0.2941,optionLeft,5,9905,5,20,0,20,0,1,,,,,,,,,,,,,,,,,,,,,,,,,,,,,,,,,,,,,,,
,,,,,,,5e8f3e2a20456a20cf1ff85e,2023-08-07_15h43.58.231,HF_wild_card,2022.2.4,Win32,59.60185958,5e8f3e2a20456a20cf1ff85e,64ce5acb97489d65b14ecc7a,64d10316dec083e7203739f7,,,,,,,decisionTrl,resources/DP.BMP,resources/DY.BMP,Door3,0.332407492,-0.012962977,1,0,0,0.8101,optionRight,70,9975,5,21,0,21,0,1,,,,,,,,,,,,,,,,,,,,,,,,,,,,,,,,,,,,,,,
,,,,,,,5e8f3e2a20456a20cf1ff85e,2023-08-07_15h43.58.231,HF_wild_card,2022.2.4,Win32,59.60185958,5e8f3e2a20456a20cf1ff85e,64ce5acb97489d65b14ecc7a,64d10316dec083e7203739f7,,,,,,,decisionTrl,resources/DG.BMP,resources/DB.BMP,Door2,-0.485185164,0,1,0,0,1.0768,optionLeft,20,9995,5,22,0,22,0,1,,,,,,,,,,,,,,,,,,,,,,,,,,,,,,,,,,,,,,,
,,,,,,,5e8f3e2a20456a20cf1ff85e,2023-08-07_15h43.58.231,HF_wild_card,2022.2.4,Win32,59.60185958,5e8f3e2a20456a20cf1ff85e,64ce5acb97489d65b14ecc7a,64d10316dec083e7203739f7,,,,,,,ctch,resources/DB.BMP,resources/DP.BMP,Door4,0.235185199,-0.013888889,1,0,0,0.4772,optionRight,80,10075,5,23,0,23,0,1,,,,,,,,,,,,,,,,,,,,,,,,,,,,,,,,,,,,,,,
,,,,,,,5e8f3e2a20456a20cf1ff85e,2023-08-07_15h43.58.231,HF_wild_card,2022.2.4,Win32,59.60185958,5e8f3e2a20456a20cf1ff85e,64ce5acb97489d65b14ecc7a,64d10316dec083e7203739f7,,,,,,,ctch,resources/DB.BMP,resources/DP.BMP,Door4,0.313888974,-0.039814808,1,0,0,1.0928,optionRight,60,10135,5,24,0,24,0,1,,,,,,,,,,,,,,,,,,,,,,,,,,,,,,,,,,,,,,,
,,,,,,,5e8f3e2a20456a20cf1ff85e,2023-08-07_15h43.58.231,HF_wild_card,2022.2.4,Win32,59.60185958,5e8f3e2a20456a20cf1ff85e,64ce5acb97489d65b14ecc7a,64d10316dec083e7203739f7,,,,,,,decisionTrl,resources/DP.BMP,resources/DR.BMP,WildCard_Ex,0.26944443,0.027777778,1,0,0,3.934,optionRight,95,10230,5,25,0,25,0,1,,,,,,,,,,,,,,,,,,,,,,,,,,,,,,,,,,,,,,,
,,,,,,,5e8f3e2a20456a20cf1ff85e,2023-08-07_15h43.58.231,HF_wild_card,2022.2.4,Win32,59.60185958,5e8f3e2a20456a20cf1ff85e,64ce5acb97489d65b14ecc7a,64d10316dec083e7203739f7,,,,,,,decisionTrl,resources/DB.BMP,resources/DG.BMP,Door2,0.510185242,0.015740748,1,0,0,0.4782,optionRight,40,10270,5,26,0,26,0,1,,,,,,,,,,,,,,,,,,,,,,,,,,,,,,,,,,,,,,,
,,,,,,,5e8f3e2a20456a20cf1ff85e,2023-08-07_15h43.58.231,HF_wild_card,2022.2.4,Win32,59.60185958,5e8f3e2a20456a20cf1ff85e,64ce5acb97489d65b14ecc7a,64d10316dec083e7203739f7,,,,,,,decisionTrl,resources/DY.BMP,resources/DR.BMP,WildCard_Ex,0.513888889,-0.0074074,1,0,0,0.3441,optionRight,95,10365,5,27,0,27,0,1,,,,,,,,,,,,,,,,,,,,,,,,,,,,,,,,,,,,,,,
,,,,,,,5e8f3e2a20456a20cf1ff85e,2023-08-07_15h43.58.231,HF_wild_card,2022.2.4,Win32,59.60185958,5e8f3e2a20456a20cf1ff85e,64ce5acb97489d65b14ecc7a,64d10316dec083e7203739f7,,,,,,,sngl,resources/DR.BMP,resources/Empty.png,WildCard_Ex,-0.401851831,0.03148146,1,0,0,0.4607,optionLeft,95,10460,5,28,0,28,0,1,,,,,,,,,,,,,,,,,,,,,,,,,,,,,,,,,,,,,,,
,,,,,,,5e8f3e2a20456a20cf1ff85e,2023-08-07_15h43.58.231,HF_wild_card,2022.2.4,Win32,59.60185958,5e8f3e2a20456a20cf1ff85e,64ce5acb97489d65b14ecc7a,64d10316dec083e7203739f7,,,,,,,decisionTrl,resources/DP.BMP,resources/DY.BMP,Door3,0.281481496,-0.017592607,1,0,0,0.3942,optionRight,70,10530,5,29,0,29,0,1,,,,,,,,,,,,,,,,,,,,,,,,,,,,,,,,,,,,,,,
,,,,,,,5e8f3e2a20456a20cf1ff85e,2023-08-07_15h43.58.231,HF_wild_card,2022.2.4,Win32,59.60185958,5e8f3e2a20456a20cf1ff85e,64ce5acb97489d65b14ecc7a,64d10316dec083e7203739f7,,,,,,,decisionTrl,resources/DY.BMP,resources/DP.BMP,Door4,0.248148176,0.003703683,1,0,0,0.4101,optionRight,80,10610,5,30,0,30,0,1,,,,,,,,,,,,,,,,,,,,,,,,,,,,,,,,,,,,,,,
,,,,,,,5e8f3e2a20456a20cf1ff85e,2023-08-07_15h43.58.231,HF_wild_card,2022.2.4,Win32,59.60185958,5e8f3e2a20456a20cf1ff85e,64ce5acb97489d65b14ecc7a,64d10316dec083e7203739f7,,,,,,,sngl,resources/Empty.png,resources/DY.BMP,Door3,0.287962949,-0.048148155,1,0,0,0.8431,optionRight,70,10680,5,31,0,31,0,1,,,,,,,,,,,,,,,,,,,,,,,,,,,,,,,,,,,,,,,
,,,,,,,5e8f3e2a20456a20cf1ff85e,2023-08-07_15h43.58.231,HF_wild_card,2022.2.4,Win32,59.60185958,5e8f3e2a20456a20cf1ff85e,64ce5acb97489d65b14ecc7a,64d10316dec083e7203739f7,,,,,,,sngl,resources/Empty.png,resources/DB.BMP,Door1,0.613888917,-0.075925933,1,0,0,0.4097,optionRight,30,10710,5,32,0,32,0,1,,,,,,,,,,,,,,,,,,,,,,,,,,,,,,,,,,,,,,,
,,,,,,,5e8f3e2a20456a20cf1ff85e,2023-08-07_15h43.58.231,HF_wild_card,2022.2.4,Win32,59.60185958,5e8f3e2a20456a20cf1ff85e,64ce5acb97489d65b14ecc7a,64d10316dec083e7203739f7,,,,,,,ctch,resources/DY.BMP,resources/DG.BMP,Door2,0.369444529,-0.027777778,1,0,0,0.4932,optionRight,40,10750,5,33,0,33,0,1,,,,,,,,,,,,,,,,,,,,,,,,,,,,,,,,,,,,,,,
,,,,,,,5e8f3e2a20456a20cf1ff85e,2023-08-07_15h43.58.231,HF_wild_card,2022.2.4,Win32,59.60185958,5e8f3e2a20456a20cf1ff85e,64ce5acb97489d65b14ecc7a,64d10316dec083e7203739f7,,,,,,,decisionTrl,resources/DG.BMP,resources/DR.BMP,WildCard_Ex,0.291666667,-0.01203703,1,0,0,0.3928,optionRight,5,10755,5,34,0,34,0,1,,,,,,,,,,,,,,,,,,,,,,,,,,,,,,,,,,,,,,,
,,,,,,,5e8f3e2a20456a20cf1ff85e,2023-08-07_15h43.58.231,HF_wild_card,2022.2.4,Win32,59.60185958,5e8f3e2a20456a20cf1ff85e,64ce5acb97489d65b14ecc7a,64d10316dec083e7203739f7,,,,,,,sngl,resources/DB.BMP,resources/Empty.png,Door1,-0.363888882,0.001851859,1,0,0,0.4768,optionLeft,30,10785,5,35,0,35,0,1,,,,,,,,,,,,,,,,,,,,,,,,,,,,,,,,,,,,,,,
,,,,,,,5e8f3e2a20456a20cf1ff85e,2023-08-07_15h43.58.231,HF_wild_card,2022.2.4,Win32,59.60185958,5e8f3e2a20456a20cf1ff85e,64ce5acb97489d65b14ecc7a,64d10316dec083e7203739f7,,,,,,,decisionTrl,resources/DY.BMP,resources/DP.BMP,Door3,-0.439814815,0.030555548,1,0,0,0.4756,optionLeft,70,10855,5,36,0,36,0,1,,,,,,,,,,,,,,,,,,,,,,,,,,,,,,,,,,,,,,,
,,,,,,,5e8f3e2a20456a20cf1ff85e,2023-08-07_15h43.58.231,HF_wild_card,2022.2.4,Win32,59.60185958,5e8f3e2a20456a20cf1ff85e,64ce5acb97489d65b14ecc7a,64d10316dec083e7203739f7,,,,,,,sngl,resources/Empty.png,resources/DR.BMP,WildCard_Ex,0.259259259,0.001851859,1,0,0,0.3103,optionRight,95,10950,5,37,0,37,0,1,,,,,,,,,,,,,,,,,,,,,,,,,,,,,,,,,,,,,,,
,,,,,,,5e8f3e2a20456a20cf1ff85e,2023-08-07_15h43.58.231,HF_wild_card,2022.2.4,Win32,59.60185958,5e8f3e2a20456a20cf1ff85e,64ce5acb97489d65b14ecc7a,64d10316dec083e7203739f7,,,,,,,decisionTrl,resources/DG.BMP,resources/DB.BMP,Door1,0.294444473,0.015740748,1,0,0,0.4096,optionRight,30,10980,5,38,0,38,0,1,,,,,,,,,,,,,,,,,,,,,,,,,,,,,,,,,,,,,,,
,,,,,,,5e8f3e2a20456a20cf1ff85e,2023-08-07_15h43.58.231,HF_wild_card,2022.2.4,Win32,59.60185958,5e8f3e2a20456a20cf1ff85e,64ce5acb97489d65b14ecc7a,64d10316dec083e7203739f7,,,,,,,sngl,resources/DY.BMP,resources/Empty.png,Door3,-0.272222236,0.006481489,1,0,0,0.6928,optionLeft,70,11050,5,39,0,39,0,1,,,,,,,,,,,,,,,,,,,,,,,,,,,,,,,,,,,,,,,
,,,,,,,5e8f3e2a20456a20cf1ff85e,2023-08-07_15h43.58.231,HF_wild_card,2022.2.4,Win32,59.60185958,5e8f3e2a20456a20cf1ff85e,64ce5acb97489d65b14ecc7a,64d10316dec083e7203739f7,,,,,,,sngl,resources/DP.BMP,resources/Empty.png,Door4,-0.709259263,0.088888875,1,0,0,0.544,optionLeft,80,11130,5,40,0,40,0,1,,,,,,,,,,,,,,,,,,,,,,,,,,,,,,,,,,,,,,,
,,,,,,,5e8f3e2a20456a20cf1ff85e,2023-08-07_15h43.58.231,HF_wild_card,2022.2.4,Win32,59.60185958,5e8f3e2a20456a20cf1ff85e,64ce5acb97489d65b14ecc7a,64d10316dec083e7203739f7,,,,,,,ctch,resources/DG.BMP,resources/DY.BMP,Door3,0.229629658,0.017592571,1,0,0,0.3778,optionRight,70,11200,5,41,0,41,0,1,,,,,,,,,,,,,,,,,,,,,,,,,,,,,,,,,,,,,,,
,,,,,,,5e8f3e2a20456a20cf1ff85e,2023-08-07_15h43.58.231,HF_wild_card,2022.2.4,Win32,59.60185958,5e8f3e2a20456a20cf1ff85e,64ce5acb97489d65b14ecc7a,64d10316dec083e7203739f7,,,,,,,decisionTrl,resources/DB.BMP,resources/DG.BMP,Door1,-0.359259252,0.03148146,1,0,0,0.3773,optionLeft,30,11230,5,42,0,42,0,1,,,,,,,,,,,,,,,,,,,,,,,,,,,,,,,,,,,,,,,
,,,,,,,5e8f3e2a20456a20cf1ff85e,2023-08-07_15h43.58.231,HF_wild_card,2022.2.4,Win32,59.60185958,5e8f3e2a20456a20cf1ff85e,64ce5acb97489d65b14ecc7a,64d10316dec083e7203739f7,,,,,,,decisionTrl,resources/DG.BMP,resources/DB.BMP,Door1,0.321296268,-0.011111118,1,0,0,0.3431,optionRight,30,11260,5,43,0,43,0,1,,,,,,,,,,,,,,,,,,,,,,,,,,,,,,,,,,,,,,,
,,,,,,,5e8f3e2a20456a20cf1ff85e,2023-08-07_15h43.58.231,HF_wild_card,2022.2.4,Win32,59.60185958,5e8f3e2a20456a20cf1ff85e,64ce5acb97489d65b14ecc7a,64d10316dec083e7203739f7,,,,,,,,,,,,,,,,,,,,,,,,,,4,0,4,0,1,,,,,,,,,,,,,,,,,,,,,,,,,,,,,,,,,,
,,,,,,,5e8f3e2a20456a20cf1ff85e,2023-08-07_15h43.58.231,HF_wild_card,2022.2.4,Win32,59.60185958,5e8f3e2a20456a20cf1ff85e,64ce5acb97489d65b14ecc7a,64d10316dec083e7203739f7,,,,,,,sngl,resources/Empty.png,resources/DP.BMP,Door4,0.353703675,0.038888896,1,0,0,0.6253,optionRight,80,11340,6,0,0,0,0,1,,,,,,,,,,,,,,,,,,,,,,,,,,,,,,,,,,,,,,,
,,,,,,,5e8f3e2a20456a20cf1ff85e,2023-08-07_15h43.58.231,HF_wild_card,2022.2.4,Win32,59.60185958,5e8f3e2a20456a20cf1ff85e,64ce5acb97489d65b14ecc7a,64d10316dec083e7203739f7,,,,,,,decisionTrl,resources/DR.BMP,resources/DY.BMP,Door3,0.333333333,-0.019444466,1,0,0,0.3933,optionRight,70,11410,6,1,0,1,0,1,,,,,,,,,,,,,,,,,,,,,,,,,,,,,,,,,,,,,,,
,,,,,,,5e8f3e2a20456a20cf1ff85e,2023-08-07_15h43.58.231,HF_wild_card,2022.2.4,Win32,59.60185958,5e8f3e2a20456a20cf1ff85e,64ce5acb97489d65b14ecc7a,64d10316dec083e7203739f7,,,,,,,sngl,resources/DP.BMP,resources/Empty.png,Door4,-0.286111125,-0.003703718,1,0,0,0.2945,optionLeft,60,11470,6,2,0,2,0,1,,,,,,,,,,,,,,,,,,,,,,,,,,,,,,,,,,,,,,,
,,,,,,,5e8f3e2a20456a20cf1ff85e,2023-08-07_15h43.58.231,HF_wild_card,2022.2.4,Win32,59.60185958,5e8f3e2a20456a20cf1ff85e,64ce5acb97489d65b14ecc7a,64d10316dec083e7203739f7,,,,,,,decisionTrl,resources/DP.BMP,resources/DY.BMP,Door3,0.237037023,-0.000925947,1,0,0,0.2441,optionRight,70,11540,6,3,0,3,0,1,,,,,,,,,,,,,,,,,,,,,,,,,,,,,,,,,,,,,,,
,,,,,,,5e8f3e2a20456a20cf1ff85e,2023-08-07_15h43.58.231,HF_wild_card,2022.2.4,Win32,59.60185958,5e8f3e2a20456a20cf1ff85e,64ce5acb97489d65b14ecc7a,64d10316dec083e7203739f7,,,,,,,sngl,resources/DR.BMP,resources/Empty.png,WildCard_Ex,0.211111139,0.003703683,1,0,0,0.2431,optionLeft,5,11545,6,4,0,4,0,1,,,,,,,,,,,,,,,,,,,,,,,,,,,,,,,,,,,,,,,
,,,,,,,5e8f3e2a20456a20cf1ff85e,2023-08-07_15h43.58.231,HF_wild_card,2022.2.4,Win32,59.60185958,5e8f3e2a20456a20cf1ff85e,64ce5acb97489d65b14ecc7a,64d10316dec083e7203739f7,,,,,,,decisionTrl,resources/DR.BMP,resources/DG.BMP,Door2,0.337037122,-0.010185206,1,0,0,0.3601,optionRight,40,11585,6,5,0,5,0,1,,,,,,,,,,,,,,,,,,,,,,,,,,,,,,,,,,,,,,,
,,,,,,,5e8f3e2a20456a20cf1ff85e,2023-08-07_15h43.58.231,HF_wild_card,2022.2.4,Win32,59.60185958,5e8f3e2a20456a20cf1ff85e,64ce5acb97489d65b14ecc7a,64d10316dec083e7203739f7,,,,,,,ctch,resources/DP.BMP,resources/DB.BMP,Door1,0.336111139,-0.008333347,1,0,0,0.3437,optionRight,30,11615,6,6,0,6,0,1,,,,,,,,,,,,,,,,,,,,,,,,,,,,,,,,,,,,,,,
,,,,,,,5e8f3e2a20456a20cf1ff85e,2023-08-07_15h43.58.231,HF_wild_card,2022.2.4,Win32,59.60185958,5e8f3e2a20456a20cf1ff85e,64ce5acb97489d65b14ecc7a,64d10316dec083e7203739f7,,,,,,,decisionTrl,resources/DR.BMP,resources/DB.BMP,WildCard_Ex,-0.517592571,0.01203703,1,0,0,0.3086,optionLeft,95,11710,6,7,0,7,0,1,,,,,,,,,,,,,,,,,,,,,,,,,,,,,,,,,,,,,,,
,,,,,,,5e8f3e2a20456a20cf1ff85e,2023-08-07_15h43.58.231,HF_wild_card,2022.2.4,Win32,59.60185958,5e8f3e2a20456a20cf1ff85e,64ce5acb97489d65b14ecc7a,64d10316dec083e7203739f7,,,,,,,decisionTrl,resources/DB.BMP,resources/DG.BMP,Door2,0.255555541,-0.041666667,1,0,0,0.343,optionRight,40,11750,6,8,0,8,0,1,,,,,,,,,,,,,,,,,,,,,,,,,,,,,,,,,,,,,,,
,,,,,,,5e8f3e2a20456a20cf1ff85e,2023-08-07_15h43.58.231,HF_wild_card,2022.2.4,Win32,59.60185958,5e8f3e2a20456a20cf1ff85e,64ce5acb97489d65b14ecc7a,64d10316dec083e7203739f7,,,,,,,sngl,resources/Empty.png,resources/DB.BMP,Door1,0.24537037,-0.01666666,1,0,0,0.2605,optionRight,30,11780,6,9,0,9,0,1,,,,,,,,,,,,,,,,,,,,,,,,,,,,,,,,,,,,,,,
,,,,,,,5e8f3e2a20456a20cf1ff85e,2023-08-07_15h43.58.231,HF_wild_card,2022.2.4,Win32,59.60185958,5e8f3e2a20456a20cf1ff85e,64ce5acb97489d65b14ecc7a,64d10316dec083e7203739f7,,,,,,,decisionTrl,resources/DY.BMP,resources/DP.BMP,Door4,0.277777778,-0.003703718,1,0,0,0.244,optionRight,60,11840,6,10,0,10,0,1,,,,,,,,,,,,,,,,,,,,,,,,,,,,,,,,,,,,,,,
,,,,,,,5e8f3e2a20456a20cf1ff85e,2023-08-07_15h43.58.231,HF_wild_card,2022.2.4,Win32,59.60185958,5e8f3e2a20456a20cf1ff85e,64ce5acb97489d65b14ecc7a,64d10316dec083e7203739f7,,,,,,,decisionTrl,resources/DG.BMP,resources/DR.BMP,Door2,-0.180555556,0.003703683,1,0,0,0.31,optionLeft,20,11860,6,11,0,11,0,1,,,,,,,,,,,,,,,,,,,,,,,,,,,,,,,,,,,,,,,
,,,,,,,5e8f3e2a20456a20cf1ff85e,2023-08-07_15h43.58.231,HF_wild_card,2022.2.4,Win32,59.60185958,5e8f3e2a20456a20cf1ff85e,64ce5acb97489d65b14ecc7a,64d10316dec083e7203739f7,,,,,,,decisionTrl,resources/DY.BMP,resources/DP.BMP,Door4,0.297222279,-0.027777778,1,0,0,0.2943,optionRight,60,11920,6,12,0,12,0,1,,,,,,,,,,,,,,,,,,,,,,,,,,,,,,,,,,,,,,,
,,,,,,,5e8f3e2a20456a20cf1ff85e,2023-08-07_15h43.58.231,HF_wild_card,2022.2.4,Win32,59.60185958,5e8f3e2a20456a20cf1ff85e,64ce5acb97489d65b14ecc7a,64d10316dec083e7203739f7,,,,,,,decisionTrl,resources/DP.BMP,resources/DY.BMP,Door3,0.211111139,-0.01203703,1,0,0,0.3275,optionRight,70,11990,6,13,0,13,0,1,,,,,,,,,,,,,,,,,,,,,,,,,,,,,,,,,,,,,,,
,,,,,,,5e8f3e2a20456a20cf1ff85e,2023-08-07_15h43.58.231,HF_wild_card,2022.2.4,Win32,59.60185958,5e8f3e2a20456a20cf1ff85e,64ce5acb97489d65b14ecc7a,64d10316dec083e7203739f7,,,,,,,decisionTrl,resources/DY.BMP,resources/DR.BMP,Door3,-0.376851859,0.020370377,1,0,0,0.294,optionLeft,70,12060,6,14,0,14,0,1,,,,,,,,,,,,,,,,,,,,,,,,,,,,,,,,,,,,,,,
,,,,,,,5e8f3e2a20456a20cf1ff85e,2023-08-07_15h43.58.231,HF_wild_card,2022.2.4,Win32,59.60185958,5e8f3e2a20456a20cf1ff85e,64ce5acb97489d65b14ecc7a,64d10316dec083e7203739f7,,,,,,,sngl,resources/DY.BMP,resources/Empty.png,Door3,0.146296325,-0.003703718,1,0,0,0.2941,optionLeft,70,12130,6,15,0,15,0,1,,,,,,,,,,,,,,,,,,,,,,,,,,,,,,,,,,,,,,,
,,,,,,,5e8f3e2a20456a20cf1ff85e,2023-08-07_15h43.58.231,HF_wild_card,2022.2.4,Win32,59.60185958,5e8f3e2a20456a20cf1ff85e,64ce5acb97489d65b14ecc7a,64d10316dec083e7203739f7,,,,,,,decisionTrl,resources/DY.BMP,resources/DP.BMP,Door4,0.196296339,0.0074074,1,0,0,0.3103,optionRight,60,12190,6,16,0,16,0,1,,,,,,,,,,,,,,,,,,,,,,,,,,,,,,,,,,,,,,,
,,,,,,,5e8f3e2a20456a20cf1ff85e,2023-08-07_15h43.58.231,HF_wild_card,2022.2.4,Win32,59.60185958,5e8f3e2a20456a20cf1ff85e,64ce5acb97489d65b14ecc7a,64d10316dec083e7203739f7,,,,,,,decisionTrl,resources/DB.BMP,resources/DG.BMP,Door2,0.173148191,0.003703683,1,0,0,0.3266,optionRight,40,12230,6,17,0,17,0,1,,,,,,,,,,,,,,,,,,,,,,,,,,,,,,,,,,,,,,,
,,,,,,,5e8f3e2a20456a20cf1ff85e,2023-08-07_15h43.58.231,HF_wild_card,2022.2.4,Win32,59.60185958,5e8f3e2a20456a20cf1ff85e,64ce5acb97489d65b14ecc7a,64d10316dec083e7203739f7,,,,,,,decisionTrl,resources/DG.BMP,resources/DB.BMP,Door1,0.190740727,-0.00462963,1,0,0,0.3444,optionRight,30,12260,6,18,0,18,0,1,,,,,,,,,,,,,,,,,,,,,,,,,,,,,,,,,,,,,,,
,,,,,,,5e8f3e2a20456a20cf1ff85e,2023-08-07_15h43.58.231,HF_wild_card,2022.2.4,Win32,59.60185958,5e8f3e2a20456a20cf1ff85e,64ce5acb97489d65b14ecc7a,64d10316dec083e7203739f7,,,,,,,ctch,resources/DY.BMP,resources/DG.BMP,Door2,0.190740727,0.01203703,1,0,0,0.3124,optionRight,40,12300,6,19,0,19,0,1,,,,,,,,,,,,,,,,,,,,,,,,,,,,,,,,,,,,,,,
,,,,,,,5e8f3e2a20456a20cf1ff85e,2023-08-07_15h43.58.231,HF_wild_card,2022.2.4,Win32,59.60185958,5e8f3e2a20456a20cf1ff85e,64ce5acb97489d65b14ecc7a,64d10316dec083e7203739f7,,,,,,,decisionTrl,resources/DP.BMP,resources/DY.BMP,Door3,0.172222208,0,1,0,0,0.3445,optionRight,70,12370,6,20,0,20,0,1,,,,,,,,,,,,,,,,,,,,,,,,,,,,,,,,,,,,,,,
,,,,,,,5e8f3e2a20456a20cf1ff85e,2023-08-07_15h43.58.231,HF_wild_card,2022.2.4,Win32,59.60185958,5e8f3e2a20456a20cf1ff85e,64ce5acb97489d65b14ecc7a,64d10316dec083e7203739f7,,,,,,,ctch,resources/DP.BMP,resources/DB.BMP,Door4,-0.374074053,0.02407406,1,0,0,0.3433,optionLeft,80,12450,6,21,0,21,0,1,,,,,,,,,,,,,,,,,,,,,,,,,,,,,,,,,,,,,,,
,,,,,,,5e8f3e2a20456a20cf1ff85e,2023-08-07_15h43.58.231,HF_wild_card,2022.2.4,Win32,59.60185958,5e8f3e2a20456a20cf1ff85e,64ce5acb97489d65b14ecc7a,64d10316dec083e7203739f7,,,,,,,sngl,resources/Empty.png,resources/DG.BMP,Door2,0.323148233,0.008333312,1,0,0,0.4257,optionRight,40,12490,6,22,0,22,0,1,,,,,,,,,,,,,,,,,,,,,,,,,,,,,,,,,,,,,,,
,,,,,,,5e8f3e2a20456a20cf1ff85e,2023-08-07_15h43.58.231,HF_wild_card,2022.2.4,Win32,59.60185958,5e8f3e2a20456a20cf1ff85e,64ce5acb97489d65b14ecc7a,64d10316dec083e7203739f7,,,,,,,decisionTrl,resources/DB.BMP,resources/DG.BMP,Door2,0.22129631,0.008333312,1,0,0,0.3277,optionRight,40,12530,6,23,0,23,0,1,,,,,,,,,,,,,,,,,,,,,,,,,,,,,,,,,,,,,,,
,,,,,,,5e8f3e2a20456a20cf1ff85e,2023-08-07_15h43.58.231,HF_wild_card,2022.2.4,Win32,59.60185958,5e8f3e2a20456a20cf1ff85e,64ce5acb97489d65b14ecc7a,64d10316dec083e7203739f7,,,,,,,sngl,resources/Empty.png,resources/DR.BMP,WildCard_Ex,0.316666638,0.032407407,1,0,0,0.6781,optionRight,95,12625,6,24,0,24,0,1,,,,,,,,,,,,,,,,,,,,,,,,,,,,,,,,,,,,,,,
,,,,,,,5e8f3e2a20456a20cf1ff85e,2023-08-07_15h43.58.231,HF_wild_card,2022.2.4,Win32,59.60185958,5e8f3e2a20456a20cf1ff85e,64ce5acb97489d65b14ecc7a,64d10316dec083e7203739f7,,,,,,,decisionTrl,resources/DR.BMP,resources/DP.BMP,Door4,0.280555584,-0.005555577,1,0,0,0.3434,optionRight,60,12685,6,25,0,25,0,1,,,,,,,,,,,,,,,,,,,,,,,,,,,,,,,,,,,,,,,
,,,,,,,5e8f3e2a20456a20cf1ff85e,2023-08-07_15h43.58.231,HF_wild_card,2022.2.4,Win32,59.60185958,5e8f3e2a20456a20cf1ff85e,64ce5acb97489d65b14ecc7a,64d10316dec083e7203739f7,,,,,,,sngl,resources/DB.BMP,resources/Empty.png,Door1,-0.241666653,0.013888889,1,0,0,0.5768,optionLeft,30,12715,6,26,0,26,0,1,,,,,,,,,,,,,,,,,,,,,,,,,,,,,,,,,,,,,,,
,,,,,,,5e8f3e2a20456a20cf1ff85e,2023-08-07_15h43.58.231,HF_wild_card,2022.2.4,Win32,59.60185958,5e8f3e2a20456a20cf1ff85e,64ce5acb97489d65b14ecc7a,64d10316dec083e7203739f7,,,,,,,decisionTrl,resources/DP.BMP,resources/DY.BMP,Door3,0.374074159,-0.020370377,1,0,0,0.4101,optionRight,70,12785,6,27,0,27,0,1,,,,,,,,,,,,,,,,,,,,,,,,,,,,,,,,,,,,,,,
,,,,,,,5e8f3e2a20456a20cf1ff85e,2023-08-07_15h43.58.231,HF_wild_card,2022.2.4,Win32,59.60185958,5e8f3e2a20456a20cf1ff85e,64ce5acb97489d65b14ecc7a,64d10316dec083e7203739f7,,,,,,,ctch,resources/DB.BMP,resources/DP.BMP,Door4,0.280555584,-0.000925947,1,0,0,0.3267,optionRight,80,12865,6,28,0,28,0,1,,,,,,,,,,,,,,,,,,,,,,,,,,,,,,,,,,,,,,,
,,,,,,,5e8f3e2a20456a20cf1ff85e,2023-08-07_15h43.58.231,HF_wild_card,2022.2.4,Win32,59.60185958,5e8f3e2a20456a20cf1ff85e,64ce5acb97489d65b14ecc7a,64d10316dec083e7203739f7,,,,,,,sngl,resources/DG.BMP,resources/Empty.png,Door2,-0.529629637,0.066666674,1,0,0,0.4933,optionLeft,20,12885,6,29,0,29,0,1,,,,,,,,,,,,,,,,,,,,,,,,,,,,,,,,,,,,,,,
,,,,,,,5e8f3e2a20456a20cf1ff85e,2023-08-07_15h43.58.231,HF_wild_card,2022.2.4,Win32,59.60185958,5e8f3e2a20456a20cf1ff85e,64ce5acb97489d65b14ecc7a,64d10316dec083e7203739f7,,,,,,,decisionTrl,resources/DP.BMP,resources/DR.BMP,WildCard_Ex,0.273148148,-0.010185206,1,0,0,0.4035,optionRight,5,12890,6,30,0,30,0,1,,,,,,,,,,,,,,,,,,,,,,,,,,,,,,,,,,,,,,,
,,,,,,,5e8f3e2a20456a20cf1ff85e,2023-08-07_15h43.58.231,HF_wild_card,2022.2.4,Win32,59.60185958,5e8f3e2a20456a20cf1ff85e,64ce5acb97489d65b14ecc7a,64d10316dec083e7203739f7,,,,,,,decisionTrl,resources/DY.BMP,resources/DP.BMP,Door3,-0.251851824,0.003703683,1,0,0,0.3929,optionLeft,70,12960,6,31,0,31,0,1,,,,,,,,,,,,,,,,,,,,,,,,,,,,,,,,,,,,,,,
,,,,,,,5e8f3e2a20456a20cf1ff85e,2023-08-07_15h43.58.231,HF_wild_card,2022.2.4,Win32,59.60185958,5e8f3e2a20456a20cf1ff85e,64ce5acb97489d65b14ecc7a,64d10316dec083e7203739f7,,,,,,,sngl,resources/DR.BMP,resources/Empty.png,WildCard_Ex,-0.281481496,0.027777778,1,0,0,0.776,optionLeft,95,13055,6,32,0,32,0,1,,,,,,,,,,,,,,,,,,,,,,,,,,,,,,,,,,,,,,,
,,,,,,,5e8f3e2a20456a20cf1ff85e,2023-08-07_15h43.58.231,HF_wild_card,2022.2.4,Win32,59.60185958,5e8f3e2a20456a20cf1ff85e,64ce5acb97489d65b14ecc7a,64d10316dec083e7203739f7,,,,,,,ctch,resources/DB.BMP,resources/DP.BMP,Door4,0.272222236,0.000925912,1,0,0,0.3439,optionRight,80,13135,6,33,0,33,0,1,,,,,,,,,,,,,,,,,,,,,,,,,,,,,,,,,,,,,,,
,,,,,,,5e8f3e2a20456a20cf1ff85e,2023-08-07_15h43.58.231,HF_wild_card,2022.2.4,Win32,59.60185958,5e8f3e2a20456a20cf1ff85e,64ce5acb97489d65b14ecc7a,64d10316dec083e7203739f7,,,,,,,decisionTrl,resources/DB.BMP,resources/DG.BMP,Door1,-0.405555548,0.078703704,1,0,0,0.3769,optionLeft,30,13165,6,34,0,34,0,1,,,,,,,,,,,,,,,,,,,,,,,,,,,,,,,,,,,,,,,
,,,,,,,5e8f3e2a20456a20cf1ff85e,2023-08-07_15h43.58.231,HF_wild_card,2022.2.4,Win32,59.60185958,5e8f3e2a20456a20cf1ff85e,64ce5acb97489d65b14ecc7a,64d10316dec083e7203739f7,,,,,,,sngl,resources/Empty.png,resources/DY.BMP,Door3,0.443518603,-0.058333326,1,0,0,0.5603,optionRight,70,13235,6,35,0,35,0,1,,,,,,,,,,,,,,,,,,,,,,,,,,,,,,,,,,,,,,,
,,,,,,,5e8f3e2a20456a20cf1ff85e,2023-08-07_15h43.58.231,HF_wild_card,2022.2.4,Win32,59.60185958,5e8f3e2a20456a20cf1ff85e,64ce5acb97489d65b14ecc7a,64d10316dec083e7203739f7,,,,,,,decisionTrl,resources/DG.BMP,resources/DB.BMP,Door2,-0.426851838,0.075925933,1,0,0,0.345,optionLeft,20,13255,6,36,0,36,0,1,,,,,,,,,,,,,,,,,,,,,,,,,,,,,,,,,,,,,,,
,,,,,,,5e8f3e2a20456a20cf1ff85e,2023-08-07_15h43.58.231,HF_wild_card,2022.2.4,Win32,59.60185958,5e8f3e2a20456a20cf1ff85e,64ce5acb97489d65b14ecc7a,64d10316dec083e7203739f7,,,,,,,ctch,resources/DY.BMP,resources/DG.BMP,Door2,0.262962977,-0.022222236,1,0,0,0.4441,optionRight,20,13275,6,37,0,37,0,1,,,,,,,,,,,,,,,,,,,,,,,,,,,,,,,,,,,,,,,
,,,,,,,5e8f3e2a20456a20cf1ff85e,2023-08-07_15h43.58.231,HF_wild_card,2022.2.4,Win32,59.60185958,5e8f3e2a20456a20cf1ff85e,64ce5acb97489d65b14ecc7a,64d10316dec083e7203739f7,,,,,,,decisionTrl,resources/DG.BMP,resources/DB.BMP,Door1,0.338888945,-0.033333355,1,0,0,0.3937,optionRight,30,13305,6,38,0,38,0,1,,,,,,,,,,,,,,,,,,,,,,,,,,,,,,,,,,,,,,,
,,,,,,,5e8f3e2a20456a20cf1ff85e,2023-08-07_15h43.58.231,HF_wild_card,2022.2.4,Win32,59.60185958,5e8f3e2a20456a20cf1ff85e,64ce5acb97489d65b14ecc7a,64d10316dec083e7203739f7,,,,,,,decisionTrl,resources/DB.BMP,resources/DR.BMP,WildCard_Ex,0.227777764,-0.021296289,1,0,0,0.36,optionRight,5,13310,6,39,0,39,0,1,,,,,,,,,,,,,,,,,,,,,,,,,,,,,,,,,,,,,,,
,,,,,,,5e8f3e2a20456a20cf1ff85e,2023-08-07_15h43.58.231,HF_wild_card,2022.2.4,Win32,59.60185958,5e8f3e2a20456a20cf1ff85e,64ce5acb97489d65b14ecc7a,64d10316dec083e7203739f7,,,,,,,decisionTrl,resources/DG.BMP,resources/DB.BMP,Door1,0.25,-0.01203703,1,0,0,0.3268,optionRight,30,13340,6,40,0,40,0,1,,,,,,,,,,,,,,,,,,,,,,,,,,,,,,,,,,,,,,,
,,,,,,,5e8f3e2a20456a20cf1ff85e,2023-08-07_15h43.58.231,HF_wild_card,2022.2.4,Win32,59.60185958,5e8f3e2a20456a20cf1ff85e,64ce5acb97489d65b14ecc7a,64d10316dec083e7203739f7,,,,,,,ctch,resources/DG.BMP,resources/DY.BMP,Door3,0.399074131,-0.020370377,1,0,0,0.4095,optionRight,70,13410,6,41,0,41,0,1,,,,,,,,,,,,,,,,,,,,,,,,,,,,,,,,,,,,,,,
,,,,,,,5e8f3e2a20456a20cf1ff85e,2023-08-07_15h43.58.231,HF_wild_card,2022.2.4,Win32,59.60185958,5e8f3e2a20456a20cf1ff85e,64ce5acb97489d65b14ecc7a,64d10316dec083e7203739f7,,,,,,,ctch,resources/DG.BMP,resources/DY.BMP,Door2,-0.271296254,0.021296289,1,0,0,0.4108,optionLeft,20,13430,6,42,0,42,0,1,,,,,,,,,,,,,,,,,,,,,,,,,,,,,,,,,,,,,,,
,,,,,,,5e8f3e2a20456a20cf1ff85e,2023-08-07_15h43.58.231,HF_wild_card,2022.2.4,Win32,59.60185958,5e8f3e2a20456a20cf1ff85e,64ce5acb97489d65b14ecc7a,64d10316dec083e7203739f7,,,,,,,sngl,resources/Empty.png,resources/DR.BMP,WildCard_Ex,0.214814857,-0.006481489,1,0,0,0.3774,optionRight,5,13435,6,43,0,43,0,1,,,,,,,,,,,,,,,,,,,,,,,,,,,,,,,,,,,,,,,
,,,,,,,5e8f3e2a20456a20cf1ff85e,2023-08-07_15h43.58.231,HF_wild_card,2022.2.4,Win32,59.60185958,5e8f3e2a20456a20cf1ff85e,64ce5acb97489d65b14ecc7a,64d10316dec083e7203739f7,,,,,,,,,,,,,,,,,,,,,,,,,,5,0,5,0,1,,,,,,,,,,,,,,,,,,,,,,,,,,,,,,,,,,
,,,,,,,5e8f3e2a20456a20cf1ff85e,2023-08-07_15h43.58.231,HF_wild_card,2022.2.4,Win32,59.60185958,5e8f3e2a20456a20cf1ff85e,64ce5acb97489d65b14ecc7a,64d10316dec083e7203739f7,,,,,,,ctch,resources/DP.BMP,resources/DB.BMP,Door1,0.506481453,-0.000925947,1,0,0,0.519,optionRight,30,13465,7,0,0,0,0,1,,,,,,,,,,,,,,,,,,,,,,,,,,,,,,,,,,,,,,,
,,,,,,,5e8f3e2a20456a20cf1ff85e,2023-08-07_15h43.58.231,HF_wild_card,2022.2.4,Win32,59.60185958,5e8f3e2a20456a20cf1ff85e,64ce5acb97489d65b14ecc7a,64d10316dec083e7203739f7,,,,,,,decisionTrl,resources/DY.BMP,resources/DP.BMP,Door4,0.67777775,-0.08425928,1,0,0,0.4957,optionRight,60,13525,7,1,0,1,0,1,,,,,,,,,,,,,,,,,,,,,,,,,,,,,,,,,,,,,,,
,,,,,,,5e8f3e2a20456a20cf1ff85e,2023-08-07_15h43.58.231,HF_wild_card,2022.2.4,Win32,59.60185958,5e8f3e2a20456a20cf1ff85e,64ce5acb97489d65b14ecc7a,64d10316dec083e7203739f7,,,,,,,decisionTrl,resources/DG.BMP,resources/DB.BMP,Door1,0.394444501,-0.014814836,1,0,0,0.4004,optionRight,30,13555,7,2,0,2,0,1,,,,,,,,,,,,,,,,,,,,,,,,,,,,,,,,,,,,,,,
,,,,,,,5e8f3e2a20456a20cf1ff85e,2023-08-07_15h43.58.231,HF_wild_card,2022.2.4,Win32,59.60185958,5e8f3e2a20456a20cf1ff85e,64ce5acb97489d65b14ecc7a,64d10316dec083e7203739f7,,,,,,,decisionTrl,resources/DY.BMP,resources/DP.BMP,Door4,0.297222279,0.001851859,1,0,0,0.5308,optionRight,60,13615,7,3,0,3,0,1,,,,,,,,,,,,,,,,,,,,,,,,,,,,,,,,,,,,,,,
,,,,,,,5e8f3e2a20456a20cf1ff85e,2023-08-07_15h43.58.231,HF_wild_card,2022.2.4,Win32,59.60185958,5e8f3e2a20456a20cf1ff85e,64ce5acb97489d65b14ecc7a,64d10316dec083e7203739f7,,,,,,,decisionTrl,resources/DY.BMP,resources/DP.BMP,Door4,0.361111111,-0.01203703,1,0,0,0.4485,optionRight,60,13675,7,4,0,4,0,1,,,,,,,,,,,,,,,,,,,,,,,,,,,,,,,,,,,,,,,
,,,,,,,5e8f3e2a20456a20cf1ff85e,2023-08-07_15h43.58.231,HF_wild_card,2022.2.4,Win32,59.60185958,5e8f3e2a20456a20cf1ff85e,64ce5acb97489d65b14ecc7a,64d10316dec083e7203739f7,,,,,,,ctch,resources/DG.BMP,resources/DY.BMP,Door3,0.291666667,-0.006481489,1,0,0,0.8773,optionRight,70,13745,7,5,0,5,0,1,,,,,,,,,,,,,,,,,,,,,,,,,,,,,,,,,,,,,,,
,,,,,,,5e8f3e2a20456a20cf1ff85e,2023-08-07_15h43.58.231,HF_wild_card,2022.2.4,Win32,59.60185958,5e8f3e2a20456a20cf1ff85e,64ce5acb97489d65b14ecc7a,64d10316dec083e7203739f7,,,,,,,decisionTrl,resources/DG.BMP,resources/DB.BMP,Door1,0.35555564,-0.020370377,1,0,0,0.5802,optionRight,30,13775,7,6,0,6,0,1,,,,,,,,,,,,,,,,,,,,,,,,,,,,,,,,,,,,,,,
,,,,,,,5e8f3e2a20456a20cf1ff85e,2023-08-07_15h43.58.231,HF_wild_card,2022.2.4,Win32,59.60185958,5e8f3e2a20456a20cf1ff85e,64ce5acb97489d65b14ecc7a,64d10316dec083e7203739f7,,,,,,,decisionTrl,resources/DP.BMP,resources/DY.BMP,Door4,-0.304629608,0.00462963,1,0,0,0.9127,optionLeft,60,13835,7,7,0,7,0,1,,,,,,,,,,,,,,,,,,,,,,,,,,,,,,,,,,,,,,,
,,,,,,,5e8f3e2a20456a20cf1ff85e,2023-08-07_15h43.58.231,HF_wild_card,2022.2.4,Win32,59.60185958,5e8f3e2a20456a20cf1ff85e,64ce5acb97489d65b14ecc7a,64d10316dec083e7203739f7,,,,,,,ctch,resources/DP.BMP,resources/DB.BMP,Door4,-0.401851831,0.061111097,1,0,0,0.6472,optionLeft,80,13915,7,8,0,8,0,1,,,,,,,,,,,,,,,,,,,,,,,,,,,,,,,,,,,,,,,
,,,,,,,5e8f3e2a20456a20cf1ff85e,2023-08-07_15h43.58.231,HF_wild_card,2022.2.4,Win32,59.60185958,5e8f3e2a20456a20cf1ff85e,64ce5acb97489d65b14ecc7a,64d10316dec083e7203739f7,,,,,,,ctch,resources/DB.BMP,resources/DP.BMP,Door4,0.372222194,-0.029629637,1,0,0,0.5304,optionRight,60,13975,7,9,0,9,0,1,,,,,,,,,,,,,,,,,,,,,,,,,,,,,,,,,,,,,,,
,,,,,,,5e8f3e2a20456a20cf1ff85e,2023-08-07_15h43.58.231,HF_wild_card,2022.2.4,Win32,59.60185958,5e8f3e2a20456a20cf1ff85e,64ce5acb97489d65b14ecc7a,64d10316dec083e7203739f7,,,,,,,ctch,resources/DG.BMP,resources/DY.BMP,Door3,0.45648151,-0.026851866,1,0,0,0.712,optionRight,70,14045,7,10,0,10,0,1,,,,,,,,,,,,,,,,,,,,,,,,,,,,,,,,,,,,,,,
,,,,,,,5e8f3e2a20456a20cf1ff85e,2023-08-07_15h43.58.231,HF_wild_card,2022.2.4,Win32,59.60185958,5e8f3e2a20456a20cf1ff85e,64ce5acb97489d65b14ecc7a,64d10316dec083e7203739f7,,,,,,,decisionTrl,resources/DP.BMP,resources/DY.BMP,Door4,-0.380555541,0.025000007,1,0,0,0.962,optionLeft,80,14125,7,11,0,11,0,1,,,,,,,,,,,,,,,,,,,,,,,,,,,,,,,,,,,,,,,
,,,,,,,5e8f3e2a20456a20cf1ff85e,2023-08-07_15h43.58.231,HF_wild_card,2022.2.4,Win32,59.60185958,5e8f3e2a20456a20cf1ff85e,64ce5acb97489d65b14ecc7a,64d10316dec083e7203739f7,,,,,,,decisionTrl,resources/DB.BMP,resources/DG.BMP,Door2,0.393518519,-0.026851866,1,0,0,1.2441,optionRight,40,14165,7,12,0,12,0,1,,,,,,,,,,,,,,,,,,,,,,,,,,,,,,,,,,,,,,,
,,,,,,,5e8f3e2a20456a20cf1ff85e,2023-08-07_15h43.58.231,HF_wild_card,2022.2.4,Win32,59.60185958,5e8f3e2a20456a20cf1ff85e,64ce5acb97489d65b14ecc7a,64d10316dec083e7203739f7,,,,,,,decisionTrl,resources/DG.BMP,resources/DB.BMP,Door1,0.343518575,-0.022222236,1,0,0,0.579,optionRight,30,14195,7,13,0,13,0,1,,,,,,,,,,,,,,,,,,,,,,,,,,,,,,,,,,,,,,,
,,,,,,,5e8f3e2a20456a20cf1ff85e,2023-08-07_15h43.58.231,HF_wild_card,2022.2.4,Win32,59.60185958,5e8f3e2a20456a20cf1ff85e,64ce5acb97489d65b14ecc7a,64d10316dec083e7203739f7,,,,,,,decisionTrl,resources/DG.BMP,resources/DB.BMP,Door1,0.373148176,0.012962942,1,0,0,0.5481,optionRight,30,14225,7,14,0,14,0,1,,,,,,,,,,,,,,,,,,,,,,,,,,,,,,,,,,,,,,,
,,,,,,,5e8f3e2a20456a20cf1ff85e,2023-08-07_15h43.58.231,HF_wild_card,2022.2.4,Win32,59.60185958,5e8f3e2a20456a20cf1ff85e,64ce5acb97489d65b14ecc7a,64d10316dec083e7203739f7,,,,,,,decisionTrl,resources/DG.BMP,resources/DB.BMP,Door1,0.349074046,-0.010185206,1,0,0,0.4482,optionRight,30,14255,7,15,0,15,0,1,,,,,,,,,,,,,,,,,,,,,,,,,,,,,,,,,,,,,,,
,,,,,,,5e8f3e2a20456a20cf1ff85e,2023-08-07_15h43.58.231,HF_wild_card,2022.2.4,Win32,59.60185958,5e8f3e2a20456a20cf1ff85e,64ce5acb97489d65b14ecc7a,64d10316dec083e7203739f7,,,,,,,decisionTrl,resources/DP.BMP,resources/DY.BMP,Door4,-0.241666653,-0.001851859,1,0,0,0.7633,optionLeft,60,14315,7,16,0,16,0,1,,,,,,,,,,,,,,,,,,,,,,,,,,,,,,,,,,,,,,,
,,,,,,,5e8f3e2a20456a20cf1ff85e,2023-08-07_15h43.58.231,HF_wild_card,2022.2.4,Win32,59.60185958,5e8f3e2a20456a20cf1ff85e,64ce5acb97489d65b14ecc7a,64d10316dec083e7203739f7,,,,,,,decisionTrl,resources/DG.BMP,resources/DB.BMP,Door1,0.333333333,0.045370349,1,0,0,0.5451,optionRight,30,14345,7,17,0,17,0,1,,,,,,,,,,,,,,,,,,,,,,,,,,,,,,,,,,,,,,,
,,,,,,,5e8f3e2a20456a20cf1ff85e,2023-08-07_15h43.58.231,HF_wild_card,2022.2.4,Win32,59.60185958,5e8f3e2a20456a20cf1ff85e,64ce5acb97489d65b14ecc7a,64d10316dec083e7203739f7,,,,,,,ctch,resources/DY.BMP,resources/DG.BMP,Door2,0.374074159,0.0074074,1,0,0,0.4797,optionRight,20,14365,7,18,0,18,0,1,,,,,,,,,,,,,,,,,,,,,,,,,,,,,,,,,,,,,,,
,,,,,,,5e8f3e2a20456a20cf1ff85e,2023-08-07_15h43.58.231,HF_wild_card,2022.2.4,Win32,59.60185958,5e8f3e2a20456a20cf1ff85e,64ce5acb97489d65b14ecc7a,64d10316dec083e7203739f7,,,,,,,ctch,resources/DG.BMP,resources/DY.BMP,Door3,0.438888974,-0.010185206,1,0,0,0.663,optionRight,70,14435,7,19,0,19,0,1,,,,,,,,,,,,,,,,,,,,,,,,,,,,,,,,,,,,,,,
,,,,,,,5e8f3e2a20456a20cf1ff85e,2023-08-07_15h43.58.231,HF_wild_card,2022.2.4,Win32,59.60185958,5e8f3e2a20456a20cf1ff85e,64ce5acb97489d65b14ecc7a,64d10316dec083e7203739f7,,,,,,,ctch,resources/DB.BMP,resources/DP.BMP,Door4,0.472222222,-0.002777771,1,0,0,0.4983,optionRight,60,14495,7,20,0,20,0,1,,,,,,,,,,,,,,,,,,,,,,,,,,,,,,,,,,,,,,,
