Condition,Low fixed image (Door1),Low risky image (Door2),High fixed image (Door3),High risky image (Door4),Extreme Wild Card,NonExtreme Wild Card,,date,expName,psychopyVersion,OS,frameRate,PROLIFIC_PID,STUDY_ID,SESSION_ID,mouse_2.x,mouse_2.y,mouse_2.leftButton,mouse_2.midButton,mouse_2.rightButton,mouse_2.clicked_name,Trial Type,Left Option Image,Right Option Image,Chosen Door,mouse.x,mouse.y,mouse.leftButton,mouse.midButton,mouse.rightButton,mouse.time,mouse.clicked_name,Feedback,Cumulative Reward,Block,trial.thisRepN,trial.thisTrialN,trial.thisN,trial.thisIndex,trial.ran,blocks.thisRepN,blocks.thisTrialN,blocks.thisN,blocks.thisIndex,blocks.ran,Money conversion,First Outcome Reported,Shown Door (First Outcome),Displayed Image (First Outcome),outcomes.thisRepN,outcomes.thisTrialN,outcomes.thisN,outcomes.thisIndex,outcomes.ran,judgments.thisRepN,judgments.thisTrialN,judgments.thisN,judgments.thisIndex,judgments.ran,freqMouse.x,freqMouse.y,freqMouse.leftButton,freqMouse.midButton,freqMouse.rightButton,freqMouse.clicked_name,trials.thisRepN,trials.thisTrialN,trials.thisN,trials.thisIndex,trials.ran,FQJ for first outcome,FQJ for second outcome,Shown Door,Displayed Image,judgBlock.thisRepN,judgBlock.thisTrialN,judgBlock.thisN,judgBlock.thisIndex,judgBlock.ran
0,resources/DP.BMP,resources/DG.BMP,resources/DB.BMP,resources/DR.BMP,resources/DY.BMP,resources/DBN.BMP,,2023-08-16_08h36.44.911,HF_wild_card,2022.2.4,Win32,60.12506013,63f1bdcac90b79cd273a2d5c,64d2fd46c836a06233681665,64dc7c750db31b126fbe898e,,,,,,,,,,,,,,,,,,,,,,,,,,,,,,,,,,,,,,,,,,,,,,,,,,,,,,,,,,,,,,,,
,,,,,,,,2023-08-16_08h36.44.911,HF_wild_card,2022.2.4,Win32,60.12506013,63f1bdcac90b79cd273a2d5c,64d2fd46c836a06233681665,64dc7c750db31b126fbe898e,0.001851894,-0.416666667,1,0,0,agree,,,,,,,,,,,,,,,,,,,,,,,,,,,,,,,,,,,,,,,,,,,,,,,,,,,,,,,,,,
,,,,,,,,2023-08-16_08h36.44.911,HF_wild_card,2022.2.4,Win32,60.12506013,63f1bdcac90b79cd273a2d5c,64d2fd46c836a06233681665,64dc7c750db31b126fbe898e,,,,,,,,,,,,,,,,,,,,,,,,,,,,,,,,,,,,,,,,,,,,,,,,,,,,,,,,,,,,,,,,
,,,,,,,,2023-08-16_08h36.44.911,HF_wild_card,2022.2.4,Win32,60.12506013,63f1bdcac90b79cd273a2d5c,64d2fd46c836a06233681665,64dc7c750db31b126fbe898e,,,,,,,sngl,resources/Empty.png,resources/DB.BMP,Door3,0.240740741,-0.175925926,1,0,0,2.9152,optionRight,70,70,1,0,0,0,0,1,,,,,,,,,,,,,,,,,,,,,,,,,,,,,,,,,,,,,,,
,,,,,,,,2023-08-16_08h36.44.911,HF_wild_card,2022.2.4,Win32,60.12506013,63f1bdcac90b79cd273a2d5c,64d2fd46c836a06233681665,64dc7c750db31b126fbe898e,,,,,,,sngl,resources/Empty.png,resources/DY.BMP,WildCard_Ex,0.37962963,0.055555556,1,0,0,2.1461,optionRight,95,165,1,1,0,1,0,1,,,,,,,,,,,,,,,,,,,,,,,,,,,,,,,,,,,,,,,
,,,,,,,,2023-08-16_08h36.44.911,HF_wild_card,2022.2.4,Win32,60.12506013,63f1bdcac90b79cd273a2d5c,64d2fd46c836a06233681665,64dc7c750db31b126fbe898e,,,,,,,sngl,resources/DY.BMP,resources/Empty.png,WildCard_Ex,-0.353703711,0.04074072,1,0,0,1.2015,optionLeft,5,170,1,2,0,2,0,1,,,,,,,,,,,,,,,,,,,,,,,,,,,,,,,,,,,,,,,
,,,,,,,,2023-08-16_08h36.44.911,HF_wild_card,2022.2.4,Win32,60.12506013,63f1bdcac90b79cd273a2d5c,64d2fd46c836a06233681665,64dc7c750db31b126fbe898e,,,,,,,ctch,resources/DP.BMP,resources/DR.BMP,Door4,0.469444416,-0.077777792,1,0,0,2.0468,optionRight,60,230,1,3,0,3,0,1,,,,,,,,,,,,,,,,,,,,,,,,,,,,,,,,,,,,,,,
,,,,,,,,2023-08-16_08h36.44.911,HF_wild_card,2022.2.4,Win32,60.12506013,63f1bdcac90b79cd273a2d5c,64d2fd46c836a06233681665,64dc7c750db31b126fbe898e,,,,,,,sngl,resources/Empty.png,resources/DR.BMP,Door4,0.26944443,-0.027777778,1,0,0,1.7015,optionRight,60,290,1,4,0,4,0,1,,,,,,,,,,,,,,,,,,,,,,,,,,,,,,,,,,,,,,,
,,,,,,,,2023-08-16_08h36.44.911,HF_wild_card,2022.2.4,Win32,60.12506013,63f1bdcac90b79cd273a2d5c,64d2fd46c836a06233681665,64dc7c750db31b126fbe898e,,,,,,,sngl,resources/DR.BMP,resources/Empty.png,Door4,-0.301851838,-0.047222243,1,0,0,0.6523,optionLeft,80,370,1,5,0,5,0,1,,,,,,,,,,,,,,,,,,,,,,,,,,,,,,,,,,,,,,,
,,,,,,,,2023-08-16_08h36.44.911,HF_wild_card,2022.2.4,Win32,60.12506013,63f1bdcac90b79cd273a2d5c,64d2fd46c836a06233681665,64dc7c750db31b126fbe898e,,,,,,,ctch,resources/DR.BMP,resources/DP.BMP,Door1,0.236111111,0.017592571,1,0,0,2.1784,optionRight,30,400,1,6,0,6,0,1,,,,,,,,,,,,,,,,,,,,,,,,,,,,,,,,,,,,,,,
,,,,,,,,2023-08-16_08h36.44.911,HF_wild_card,2022.2.4,Win32,60.12506013,63f1bdcac90b79cd273a2d5c,64d2fd46c836a06233681665,64dc7c750db31b126fbe898e,,,,,,,decisionTrl,resources/DP.BMP,resources/DG.BMP,Door2,0.237963005,-0.037037037,1,0,0,1.7011,optionRight,40,440,1,7,0,7,0,1,,,,,,,,,,,,,,,,,,,,,,,,,,,,,,,,,,,,,,,
,,,,,,,,2023-08-16_08h36.44.911,HF_wild_card,2022.2.4,Win32,60.12506013,63f1bdcac90b79cd273a2d5c,64d2fd46c836a06233681665,64dc7c750db31b126fbe898e,,,,,,,ctch,resources/DG.BMP,resources/DB.BMP,Door2,-0.224999958,0.000925912,1,0,0,1.8629,optionLeft,20,460,1,8,0,8,0,1,,,,,,,,,,,,,,,,,,,,,,,,,,,,,,,,,,,,,,,
,,,,,,,,2023-08-16_08h36.44.911,HF_wild_card,2022.2.4,Win32,60.12506013,63f1bdcac90b79cd273a2d5c,64d2fd46c836a06233681665,64dc7c750db31b126fbe898e,,,,,,,decisionTrl,resources/DP.BMP,resources/DG.BMP,Door2,0.25462963,-0.009259259,1,0,0,1.863,optionRight,40,500,1,9,0,9,0,1,,,,,,,,,,,,,,,,,,,,,,,,,,,,,,,,,,,,,,,
,,,,,,,,2023-08-16_08h36.44.911,HF_wild_card,2022.2.4,Win32,60.12506013,63f1bdcac90b79cd273a2d5c,64d2fd46c836a06233681665,64dc7c750db31b126fbe898e,,,,,,,decisionTrl,resources/DP.BMP,resources/DG.BMP,Door2,0.29814812,0.017592571,1,0,0,1.9309,optionRight,40,540,1,10,0,10,0,1,,,,,,,,,,,,,,,,,,,,,,,,,,,,,,,,,,,,,,,
,,,,,,,,2023-08-16_08h36.44.911,HF_wild_card,2022.2.4,Win32,60.12506013,63f1bdcac90b79cd273a2d5c,64d2fd46c836a06233681665,64dc7c750db31b126fbe898e,,,,,,,sngl,resources/Empty.png,resources/DG.BMP,Door2,0.32222225,0,1,0,0,0.8959,optionRight,20,560,1,11,0,11,0,1,,,,,,,,,,,,,,,,,,,,,,,,,,,,,,,,,,,,,,,
,,,,,,,,2023-08-16_08h36.44.911,HF_wild_card,2022.2.4,Win32,60.12506013,63f1bdcac90b79cd273a2d5c,64d2fd46c836a06233681665,64dc7c750db31b126fbe898e,,,,,,,sngl,resources/DG.BMP,resources/Empty.png,Door2,-0.324999986,-0.028703725,1,0,0,0.8632,optionLeft,40,600,1,12,0,12,0,1,,,,,,,,,,,,,,,,,,,,,,,,,,,,,,,,,,,,,,,
,,,,,,,,2023-08-16_08h36.44.911,HF_wild_card,2022.2.4,Win32,60.12506013,63f1bdcac90b79cd273a2d5c,64d2fd46c836a06233681665,64dc7c750db31b126fbe898e,,,,,,,decisionTrl,resources/DR.BMP,resources/DY.BMP,WildCard_Ex,0.217592593,-0.025925919,1,0,0,1.7295,optionRight,95,695,1,13,0,13,0,1,,,,,,,,,,,,,,,,,,,,,,,,,,,,,,,,,,,,,,,
,,,,,,,,2023-08-16_08h36.44.911,HF_wild_card,2022.2.4,Win32,60.12506013,63f1bdcac90b79cd273a2d5c,64d2fd46c836a06233681665,64dc7c750db31b126fbe898e,,,,,,,ctch,resources/DG.BMP,resources/DB.BMP,Door3,0.234259288,0.01666666,1,0,0,2.2627,optionRight,70,765,1,14,0,14,0,1,,,,,,,,,,,,,,,,,,,,,,,,,,,,,,,,,,,,,,,
,,,,,,,,2023-08-16_08h36.44.911,HF_wild_card,2022.2.4,Win32,60.12506013,63f1bdcac90b79cd273a2d5c,64d2fd46c836a06233681665,64dc7c750db31b126fbe898e,,,,,,,decisionTrl,resources/DY.BMP,resources/DP.BMP,WildCard_Ex,-0.207407422,0.032407407,1,0,0,1.4937,optionLeft,95,860,1,15,0,15,0,1,,,,,,,,,,,,,,,,,,,,,,,,,,,,,,,,,,,,,,,
,,,,,,,,2023-08-16_08h36.44.911,HF_wild_card,2022.2.4,Win32,60.12506013,63f1bdcac90b79cd273a2d5c,64d2fd46c836a06233681665,64dc7c750db31b126fbe898e,,,,,,,decisionTrl,resources/DP.BMP,resources/DG.BMP,Door2,0.304629714,-0.011111118,1,0,0,1.8755,optionRight,40,900,1,16,0,16,0,1,,,,,,,,,,,,,,,,,,,,,,,,,,,,,,,,,,,,,,,
,,,,,,,,2023-08-16_08h36.44.911,HF_wild_card,2022.2.4,Win32,60.12506013,63f1bdcac90b79cd273a2d5c,64d2fd46c836a06233681665,64dc7c750db31b126fbe898e,,,,,,,decisionTrl,resources/DG.BMP,resources/DP.BMP,Door1,0.280555584,-0.026851866,1,0,0,1.4263,optionRight,30,930,1,17,0,17,0,1,,,,,,,,,,,,,,,,,,,,,,,,,,,,,,,,,,,,,,,
,,,,,,,,2023-08-16_08h36.44.911,HF_wild_card,2022.2.4,Win32,60.12506013,63f1bdcac90b79cd273a2d5c,64d2fd46c836a06233681665,64dc7c750db31b126fbe898e,,,,,,,decisionTrl,resources/DR.BMP,resources/DB.BMP,Door3,0.20185188,-0.003703718,1,0,0,1.8508,optionRight,70,1000,1,18,0,18,0,1,,,,,,,,,,,,,,,,,,,,,,,,,,,,,,,,,,,,,,,
,,,,,,,,2023-08-16_08h36.44.911,HF_wild_card,2022.2.4,Win32,60.12506013,63f1bdcac90b79cd273a2d5c,64d2fd46c836a06233681665,64dc7c750db31b126fbe898e,,,,,,,sngl,resources/DY.BMP,resources/Empty.png,WildCard_Ex,-0.26944443,0.046296296,1,0,0,1.1117,optionLeft,95,1095,1,19,0,19,0,1,,,,,,,,,,,,,,,,,,,,,,,,,,,,,,,,,,,,,,,
,,,,,,,,2023-08-16_08h36.44.911,HF_wild_card,2022.2.4,Win32,60.12506013,63f1bdcac90b79cd273a2d5c,64d2fd46c836a06233681665,64dc7c750db31b126fbe898e,,,,,,,decisionTrl,resources/DG.BMP,resources/DP.BMP,Door2,-0.215740698,0.015740748,1,0,0,1.251,optionLeft,40,1135,1,20,0,20,0,1,,,,,,,,,,,,,,,,,,,,,,,,,,,,,,,,,,,,,,,
,,,,,,,,2023-08-16_08h36.44.911,HF_wild_card,2022.2.4,Win32,60.12506013,63f1bdcac90b79cd273a2d5c,64d2fd46c836a06233681665,64dc7c750db31b126fbe898e,,,,,,,sngl,resources/Empty.png,resources/DY.BMP,WildCard_Ex,0.272222236,-0.00462963,1,0,0,0.893,optionRight,5,1140,1,21,0,21,0,1,,,,,,,,,,,,,,,,,,,,,,,,,,,,,,,,,,,,,,,
,,,,,,,,2023-08-16_08h36.44.911,HF_wild_card,2022.2.4,Win32,60.12506013,63f1bdcac90b79cd273a2d5c,64d2fd46c836a06233681665,64dc7c750db31b126fbe898e,,,,,,,decisionTrl,resources/DY.BMP,resources/DG.BMP,Door2,0.22129631,0,1,0,0,1.4006,optionRight,40,1180,1,22,0,22,0,1,,,,,,,,,,,,,,,,,,,,,,,,,,,,,,,,,,,,,,,
,,,,,,,,2023-08-16_08h36.44.911,HF_wild_card,2022.2.4,Win32,60.12506013,63f1bdcac90b79cd273a2d5c,64d2fd46c836a06233681665,64dc7c750db31b126fbe898e,,,,,,,decisionTrl,resources/DY.BMP,resources/DB.BMP,Door3,0.207407422,-0.001851859,1,0,0,1.8674,optionRight,70,1250,1,23,0,23,0,1,,,,,,,,,,,,,,,,,,,,,,,,,,,,,,,,,,,,,,,
,,,,,,,,2023-08-16_08h36.44.911,HF_wild_card,2022.2.4,Win32,60.12506013,63f1bdcac90b79cd273a2d5c,64d2fd46c836a06233681665,64dc7c750db31b126fbe898e,,,,,,,sngl,resources/DB.BMP,resources/Empty.png,Door3,-0.312962956,-0.042592614,1,0,0,0.9133,optionLeft,70,1320,1,24,0,24,0,1,,,,,,,,,,,,,,,,,,,,,,,,,,,,,,,,,,,,,,,
,,,,,,,,2023-08-16_08h36.44.911,HF_wild_card,2022.2.4,Win32,60.12506013,63f1bdcac90b79cd273a2d5c,64d2fd46c836a06233681665,64dc7c750db31b126fbe898e,,,,,,,ctch,resources/DR.BMP,resources/DP.BMP,Door1,0.240740741,-0.011111118,1,0,0,1.4418,optionRight,30,1350,1,25,0,25,0,1,,,,,,,,,,,,,,,,,,,,,,,,,,,,,,,,,,,,,,,
,,,,,,,,2023-08-16_08h36.44.911,HF_wild_card,2022.2.4,Win32,60.12506013,63f1bdcac90b79cd273a2d5c,64d2fd46c836a06233681665,64dc7c750db31b126fbe898e,,,,,,,decisionTrl,resources/DG.BMP,resources/DP.BMP,Door2,-0.213888875,0.012962942,1,0,0,1.4305,optionLeft,40,1390,1,26,0,26,0,1,,,,,,,,,,,,,,,,,,,,,,,,,,,,,,,,,,,,,,,
,,,,,,,,2023-08-16_08h36.44.911,HF_wild_card,2022.2.4,Win32,60.12506013,63f1bdcac90b79cd273a2d5c,64d2fd46c836a06233681665,64dc7c750db31b126fbe898e,,,,,,,decisionTrl,resources/DY.BMP,resources/DR.BMP,WildCard_Ex,-0.326851845,-0.026851866,1,0,0,1.1313,optionLeft,95,1485,1,27,0,27,0,1,,,,,,,,,,,,,,,,,,,,,,,,,,,,,,,,,,,,,,,
,,,,,,,,2023-08-16_08h36.44.911,HF_wild_card,2022.2.4,Win32,60.12506013,63f1bdcac90b79cd273a2d5c,64d2fd46c836a06233681665,64dc7c750db31b126fbe898e,,,,,,,ctch,resources/DB.BMP,resources/DG.BMP,Door3,-0.238888847,-0.009259259,1,0,0,1.2641,optionLeft,70,1555,1,28,0,28,0,1,,,,,,,,,,,,,,,,,,,,,,,,,,,,,,,,,,,,,,,
,,,,,,,,2023-08-16_08h36.44.911,HF_wild_card,2022.2.4,Win32,60.12506013,63f1bdcac90b79cd273a2d5c,64d2fd46c836a06233681665,64dc7c750db31b126fbe898e,,,,,,,ctch,resources/DB.BMP,resources/DG.BMP,Door3,-0.208333333,-0.018518519,1,0,0,2.8137,optionLeft,70,1625,1,29,0,29,0,1,,,,,,,,,,,,,,,,,,,,,,,,,,,,,,,,,,,,,,,
,,,,,,,,2023-08-16_08h36.44.911,HF_wild_card,2022.2.4,Win32,60.12506013,63f1bdcac90b79cd273a2d5c,64d2fd46c836a06233681665,64dc7c750db31b126fbe898e,,,,,,,decisionTrl,resources/DR.BMP,resources/DB.BMP,Door4,-0.264814801,-0.019444466,1,0,0,1.298,optionLeft,80,1705,1,30,0,30,0,1,,,,,,,,,,,,,,,,,,,,,,,,,,,,,,,,,,,,,,,
,,,,,,,,2023-08-16_08h36.44.911,HF_wild_card,2022.2.4,Win32,60.12506013,63f1bdcac90b79cd273a2d5c,64d2fd46c836a06233681665,64dc7c750db31b126fbe898e,,,,,,,decisionTrl,resources/DG.BMP,resources/DY.BMP,Door2,-0.319444444,0.029629637,1,0,0,1.8475,optionLeft,20,1725,1,31,0,31,0,1,,,,,,,,,,,,,,,,,,,,,,,,,,,,,,,,,,,,,,,
,,,,,,,,2023-08-16_08h36.44.911,HF_wild_card,2022.2.4,Win32,60.12506013,63f1bdcac90b79cd273a2d5c,64d2fd46c836a06233681665,64dc7c750db31b126fbe898e,,,,,,,decisionTrl,resources/DP.BMP,resources/DY.BMP,WildCard_Ex,0.280555584,0.070370356,1,0,0,1.5476,optionRight,5,1730,1,32,0,32,0,1,,,,,,,,,,,,,,,,,,,,,,,,,,,,,,,,,,,,,,,
,,,,,,,,2023-08-16_08h36.44.911,HF_wild_card,2022.2.4,Win32,60.12506013,63f1bdcac90b79cd273a2d5c,64d2fd46c836a06233681665,64dc7c750db31b126fbe898e,,,,,,,sngl,resources/Empty.png,resources/DP.BMP,Door1,0.208333333,0.037037037,1,0,0,0.9476,optionRight,30,1760,1,33,0,33,0,1,,,,,,,,,,,,,,,,,,,,,,,,,,,,,,,,,,,,,,,
,,,,,,,,2023-08-16_08h36.44.911,HF_wild_card,2022.2.4,Win32,60.12506013,63f1bdcac90b79cd273a2d5c,64d2fd46c836a06233681665,64dc7c750db31b126fbe898e,,,,,,,decisionTrl,resources/DB.BMP,resources/DR.BMP,Door3,-0.412962949,0.02407406,1,0,0,0.6586,optionLeft,70,1830,1,34,0,34,0,1,,,,,,,,,,,,,,,,,,,,,,,,,,,,,,,,,,,,,,,
,,,,,,,,2023-08-16_08h36.44.911,HF_wild_card,2022.2.4,Win32,60.12506013,63f1bdcac90b79cd273a2d5c,64d2fd46c836a06233681665,64dc7c750db31b126fbe898e,,,,,,,ctch,resources/DP.BMP,resources/DR.BMP,Door4,0.320370427,0.03611109,1,0,0,0.7311,optionRight,80,1910,1,35,0,35,0,1,,,,,,,,,,,,,,,,,,,,,,,,,,,,,,,,,,,,,,,
,,,,,,,,2023-08-16_08h36.44.911,HF_wild_card,2022.2.4,Win32,60.12506013,63f1bdcac90b79cd273a2d5c,64d2fd46c836a06233681665,64dc7c750db31b126fbe898e,,,,,,,decisionTrl,resources/DB.BMP,resources/DY.BMP,Door3,-0.326851845,0.045370349,1,0,0,1.2481,optionLeft,70,1980,1,36,0,36,0,1,,,,,,,,,,,,,,,,,,,,,,,,,,,,,,,,,,,,,,,
,,,,,,,,2023-08-16_08h36.44.911,HF_wild_card,2022.2.4,Win32,60.12506013,63f1bdcac90b79cd273a2d5c,64d2fd46c836a06233681665,64dc7c750db31b126fbe898e,,,,,,,decisionTrl,resources/DB.BMP,resources/DR.BMP,Door3,-0.246296282,0.009259259,1,0,0,1.1634,optionLeft,70,2050,1,37,0,37,0,1,,,,,,,,,,,,,,,,,,,,,,,,,,,,,,,,,,,,,,,
,,,,,,,,2023-08-16_08h36.44.911,HF_wild_card,2022.2.4,Win32,60.12506013,63f1bdcac90b79cd273a2d5c,64d2fd46c836a06233681665,64dc7c750db31b126fbe898e,,,,,,,decisionTrl,resources/DR.BMP,resources/DB.BMP,Door4,-0.25,0.035185178,1,0,0,1.6439,optionLeft,60,2110,1,38,0,38,0,1,,,,,,,,,,,,,,,,,,,,,,,,,,,,,,,,,,,,,,,
,,,,,,,,2023-08-16_08h36.44.911,HF_wild_card,2022.2.4,Win32,60.12506013,63f1bdcac90b79cd273a2d5c,64d2fd46c836a06233681665,64dc7c750db31b126fbe898e,,,,,,,decisionTrl,resources/DB.BMP,resources/DR.BMP,Door3,-0.22129631,0.018518519,1,0,0,1.172,optionLeft,70,2180,1,39,0,39,0,1,,,,,,,,,,,,,,,,,,,,,,,,,,,,,,,,,,,,,,,
,,,,,,,,2023-08-16_08h36.44.911,HF_wild_card,2022.2.4,Win32,60.12506013,63f1bdcac90b79cd273a2d5c,64d2fd46c836a06233681665,64dc7c750db31b126fbe898e,,,,,,,decisionTrl,resources/DR.BMP,resources/DB.BMP,Door4,-0.22592594,0.010185171,1,0,0,1.9463,optionLeft,80,2260,1,40,0,40,0,1,,,,,,,,,,,,,,,,,,,,,,,,,,,,,,,,,,,,,,,
,,,,,,,,2023-08-16_08h36.44.911,HF_wild_card,2022.2.4,Win32,60.12506013,63f1bdcac90b79cd273a2d5c,64d2fd46c836a06233681665,64dc7c750db31b126fbe898e,,,,,,,sngl,resources/DP.BMP,resources/Empty.png,Door1,-0.236111111,0.005555541,1,0,0,0.8732,optionLeft,30,2290,1,41,0,41,0,1,,,,,,,,,,,,,,,,,,,,,,,,,,,,,,,,,,,,,,,
,,,,,,,,2023-08-16_08h36.44.911,HF_wild_card,2022.2.4,Win32,60.12506013,63f1bdcac90b79cd273a2d5c,64d2fd46c836a06233681665,64dc7c750db31b126fbe898e,,,,,,,decisionTrl,resources/DG.BMP,resources/DP.BMP,Door1,0.313888974,0.035185178,1,0,0,1.1423,optionRight,30,2320,1,42,0,42,0,1,,,,,,,,,,,,,,,,,,,,,,,,,,,,,,,,,,,,,,,
,,,,,,,,2023-08-16_08h36.44.911,HF_wild_card,2022.2.4,Win32,60.12506013,63f1bdcac90b79cd273a2d5c,64d2fd46c836a06233681665,64dc7c750db31b126fbe898e,,,,,,,decisionTrl,resources/DB.BMP,resources/DR.BMP,Door3,-0.266666624,-0.001851859,1,0,0,0.9301,optionLeft,70,2390,1,43,0,43,0,1,,,,,,,,,,,,,,,,,,,,,,,,,,,,,,,,,,,,,,,
,,,,,,,,2023-08-16_08h36.44.911,HF_wild_card,2022.2.4,Win32,60.12506013,63f1bdcac90b79cd273a2d5c,64d2fd46c836a06233681665,64dc7c750db31b126fbe898e,,,,,,,,,,,,,,,,,,,,,,,,,,0,0,0,0,1,,,,,,,,,,,,,,,,,,,,,,,,,,,,,,,,,,
,,,,,,,,2023-08-16_08h36.44.911,HF_wild_card,2022.2.4,Win32,60.12506013,63f1bdcac90b79cd273a2d5c,64d2fd46c836a06233681665,64dc7c750db31b126fbe898e,,,,,,,sngl,resources/Empty.png,resources/DB.BMP,Door3,0.353703675,-0.147222236,1,0,0,0.8879,optionRight,70,2460,2,0,0,0,0,1,,,,,,,,,,,,,,,,,,,,,,,,,,,,,,,,,,,,,,,
,,,,,,,,2023-08-16_08h36.44.911,HF_wild_card,2022.2.4,Win32,60.12506013,63f1bdcac90b79cd273a2d5c,64d2fd46c836a06233681665,64dc7c750db31b126fbe898e,,,,,,,sngl,resources/DY.BMP,resources/Empty.png,WildCard_Ex,-0.324999986,-0.022222236,1,0,0,0.8469,optionLeft,95,2555,2,1,0,1,0,1,,,,,,,,,,,,,,,,,,,,,,,,,,,,,,,,,,,,,,,
,,,,,,,,2023-08-16_08h36.44.911,HF_wild_card,2022.2.4,Win32,60.12506013,63f1bdcac90b79cd273a2d5c,64d2fd46c836a06233681665,64dc7c750db31b126fbe898e,,,,,,,decisionTrl,resources/DY.BMP,resources/DG.BMP,WildCard_Ex,-0.326851845,-0.029629637,1,0,0,1.7126,optionLeft,95,2650,2,2,0,2,0,1,,,,,,,,,,,,,,,,,,,,,,,,,,,,,,,,,,,,,,,
,,,,,,,,2023-08-16_08h36.44.911,HF_wild_card,2022.2.4,Win32,60.12506013,63f1bdcac90b79cd273a2d5c,64d2fd46c836a06233681665,64dc7c750db31b126fbe898e,,,,,,,decisionTrl,resources/DP.BMP,resources/DG.BMP,Door1,-0.357407393,-0.000925947,1,0,0,0.8295,optionLeft,30,2680,2,3,0,3,0,1,,,,,,,,,,,,,,,,,,,,,,,,,,,,,,,,,,,,,,,
,,,,,,,,2023-08-16_08h36.44.911,HF_wild_card,2022.2.4,Win32,60.12506013,63f1bdcac90b79cd273a2d5c,64d2fd46c836a06233681665,64dc7c750db31b126fbe898e,,,,,,,decisionTrl,resources/DG.BMP,resources/DP.BMP,Door1,0.340740769,0.005555541,1,0,0,0.8795,optionRight,30,2710,2,4,0,4,0,1,,,,,,,,,,,,,,,,,,,,,,,,,,,,,,,,,,,,,,,
,,,,,,,,2023-08-16_08h36.44.911,HF_wild_card,2022.2.4,Win32,60.12506013,63f1bdcac90b79cd273a2d5c,64d2fd46c836a06233681665,64dc7c750db31b126fbe898e,,,,,,,decisionTrl,resources/DB.BMP,resources/DR.BMP,Door3,-0.317592586,0.008333312,1,0,0,0.9842,optionLeft,70,2780,2,5,0,5,0,1,,,,,,,,,,,,,,,,,,,,,,,,,,,,,,,,,,,,,,,
,,,,,,,,2023-08-16_08h36.44.911,HF_wild_card,2022.2.4,Win32,60.12506013,63f1bdcac90b79cd273a2d5c,64d2fd46c836a06233681665,64dc7c750db31b126fbe898e,,,,,,,ctch,resources/DG.BMP,resources/DB.BMP,Door3,0.280555584,0.04074072,1,0,0,1.7976,optionRight,70,2850,2,6,0,6,0,1,,,,,,,,,,,,,,,,,,,,,,,,,,,,,,,,,,,,,,,
,,,,,,,,2023-08-16_08h36.44.911,HF_wild_card,2022.2.4,Win32,60.12506013,63f1bdcac90b79cd273a2d5c,64d2fd46c836a06233681665,64dc7c750db31b126fbe898e,,,,,,,decisionTrl,resources/DB.BMP,resources/DR.BMP,Door4,0.175000014,0.02407406,1,0,0,1.5627,optionRight,60,2910,2,7,0,7,0,1,,,,,,,,,,,,,,,,,,,,,,,,,,,,,,,,,,,,,,,
,,,,,,,,2023-08-16_08h36.44.911,HF_wild_card,2022.2.4,Win32,60.12506013,63f1bdcac90b79cd273a2d5c,64d2fd46c836a06233681665,64dc7c750db31b126fbe898e,,,,,,,decisionTrl,resources/DY.BMP,resources/DP.BMP,WildCard_Ex,-0.224074046,-0.002777771,1,0,0,1.396,optionLeft,95,3005,2,8,0,8,0,1,,,,,,,,,,,,,,,,,,,,,,,,,,,,,,,,,,,,,,,
,,,,,,,,2023-08-16_08h36.44.911,HF_wild_card,2022.2.4,Win32,60.12506013,63f1bdcac90b79cd273a2d5c,64d2fd46c836a06233681665,64dc7c750db31b126fbe898e,,,,,,,sngl,resources/DY.BMP,resources/Empty.png,WildCard_Ex,-0.300925926,0.006481489,1,0,0,0.9797,optionLeft,5,3010,2,9,0,9,0,1,,,,,,,,,,,,,,,,,,,,,,,,,,,,,,,,,,,,,,,
,,,,,,,,2023-08-16_08h36.44.911,HF_wild_card,2022.2.4,Win32,60.12506013,63f1bdcac90b79cd273a2d5c,64d2fd46c836a06233681665,64dc7c750db31b126fbe898e,,,,,,,sngl,resources/DR.BMP,resources/Empty.png,Door4,-0.253703718,-0.008333347,1,0,0,0.9301,optionLeft,60,3070,2,10,0,10,0,1,,,,,,,,,,,,,,,,,,,,,,,,,,,,,,,,,,,,,,,
,,,,,,,,2023-08-16_08h36.44.911,HF_wild_card,2022.2.4,Win32,60.12506013,63f1bdcac90b79cd273a2d5c,64d2fd46c836a06233681665,64dc7c750db31b126fbe898e,,,,,,,sngl,resources/Empty.png,resources/DR.BMP,Door4,0.282407407,-0.011111118,1,0,0,0.9966,optionRight,80,3150,2,11,0,11,0,1,,,,,,,,,,,,,,,,,,,,,,,,,,,,,,,,,,,,,,,
,,,,,,,,2023-08-16_08h36.44.911,HF_wild_card,2022.2.4,Win32,60.12506013,63f1bdcac90b79cd273a2d5c,64d2fd46c836a06233681665,64dc7c750db31b126fbe898e,,,,,,,sngl,resources/DG.BMP,resources/Empty.png,Door2,-0.336111104,-0.019444466,1,0,0,1.0303,optionLeft,20,3170,2,12,0,12,0,1,,,,,,,,,,,,,,,,,,,,,,,,,,,,,,,,,,,,,,,
,,,,,,,,2023-08-16_08h36.44.911,HF_wild_card,2022.2.4,Win32,60.12506013,63f1bdcac90b79cd273a2d5c,64d2fd46c836a06233681665,64dc7c750db31b126fbe898e,,,,,,,decisionTrl,resources/DR.BMP,resources/DY.BMP,WildCard_Ex,0.279629672,0.011111118,1,0,0,1.2587,optionRight,95,3265,2,13,0,13,0,1,,,,,,,,,,,,,,,,,,,,,,,,,,,,,,,,,,,,,,,
,,,,,,,,2023-08-16_08h36.44.911,HF_wild_card,2022.2.4,Win32,60.12506013,63f1bdcac90b79cd273a2d5c,64d2fd46c836a06233681665,64dc7c750db31b126fbe898e,,,,,,,ctch,resources/DR.BMP,resources/DP.BMP,Door1,0.258333347,0.012962942,1,0,0,1.5466,optionRight,30,3295,2,14,0,14,0,1,,,,,,,,,,,,,,,,,,,,,,,,,,,,,,,,,,,,,,,
,,,,,,,,2023-08-16_08h36.44.911,HF_wild_card,2022.2.4,Win32,60.12506013,63f1bdcac90b79cd273a2d5c,64d2fd46c836a06233681665,64dc7c750db31b126fbe898e,,,,,,,decisionTrl,resources/DG.BMP,resources/DP.BMP,Door2,-0.217592593,0.027777778,1,0,0,1.0077,optionLeft,20,3315,2,15,0,15,0,1,,,,,,,,,,,,,,,,,,,,,,,,,,,,,,,,,,,,,,,
,,,,,,,,2023-08-16_08h36.44.911,HF_wild_card,2022.2.4,Win32,60.12506013,63f1bdcac90b79cd273a2d5c,64d2fd46c836a06233681665,64dc7c750db31b126fbe898e,,,,,,,decisionTrl,resources/DR.BMP,resources/DB.BMP,Door3,0.294444473,0.03148146,1,0,0,0.9128,optionRight,70,3385,2,16,0,16,0,1,,,,,,,,,,,,,,,,,,,,,,,,,,,,,,,,,,,,,,,
,,,,,,,,2023-08-16_08h36.44.911,HF_wild_card,2022.2.4,Win32,60.12506013,63f1bdcac90b79cd273a2d5c,64d2fd46c836a06233681665,64dc7c750db31b126fbe898e,,,,,,,decisionTrl,resources/DB.BMP,resources/DR.BMP,Door4,0.213888875,0.060185185,1,0,0,1.2798,optionRight,80,3465,2,17,0,17,0,1,,,,,,,,,,,,,,,,,,,,,,,,,,,,,,,,,,,,,,,
,,,,,,,,2023-08-16_08h36.44.911,HF_wild_card,2022.2.4,Win32,60.12506013,63f1bdcac90b79cd273a2d5c,64d2fd46c836a06233681665,64dc7c750db31b126fbe898e,,,,,,,ctch,resources/DB.BMP,resources/DG.BMP,Door3,-0.342592593,-0.031481496,1,0,0,1.4255,optionLeft,70,3535,2,18,0,18,0,1,,,,,,,,,,,,,,,,,,,,,,,,,,,,,,,,,,,,,,,
,,,,,,,,2023-08-16_08h36.44.911,HF_wild_card,2022.2.4,Win32,60.12506013,63f1bdcac90b79cd273a2d5c,64d2fd46c836a06233681665,64dc7c750db31b126fbe898e,,,,,,,decisionTrl,resources/DG.BMP,resources/DP.BMP,Door1,0.190740727,0.060185185,1,0,0,1.4598,optionRight,30,3565,2,19,0,19,0,1,,,,,,,,,,,,,,,,,,,,,,,,,,,,,,,,,,,,,,,
,,,,,,,,2023-08-16_08h36.44.911,HF_wild_card,2022.2.4,Win32,60.12506013,63f1bdcac90b79cd273a2d5c,64d2fd46c836a06233681665,64dc7c750db31b126fbe898e,,,,,,,sngl,resources/Empty.png,resources/DY.BMP,WildCard_Ex,0.204629616,0.063888868,1,0,0,0.963,optionRight,5,3570,2,20,0,20,0,1,,,,,,,,,,,,,,,,,,,,,,,,,,,,,,,,,,,,,,,
,,,,,,,,2023-08-16_08h36.44.911,HF_wild_card,2022.2.4,Win32,60.12506013,63f1bdcac90b79cd273a2d5c,64d2fd46c836a06233681665,64dc7c750db31b126fbe898e,,,,,,,sngl,resources/Empty.png,resources/DY.BMP,WildCard_Ex,0.234259288,0.071296303,1,0,0,0.897,optionRight,95,3665,2,21,0,21,0,1,,,,,,,,,,,,,,,,,,,,,,,,,,,,,,,,,,,,,,,
,,,,,,,,2023-08-16_08h36.44.911,HF_wild_card,2022.2.4,Win32,60.12506013,63f1bdcac90b79cd273a2d5c,64d2fd46c836a06233681665,64dc7c750db31b126fbe898e,,,,,,,decisionTrl,resources/DB.BMP,resources/DR.BMP,Door3,-0.307407414,0.013888889,1,0,0,1.7797,optionLeft,70,3735,2,22,0,22,0,1,,,,,,,,,,,,,,,,,,,,,,,,,,,,,,,,,,,,,,,
,,,,,,,,2023-08-16_08h36.44.911,HF_wild_card,2022.2.4,Win32,60.12506013,63f1bdcac90b79cd273a2d5c,64d2fd46c836a06233681665,64dc7c750db31b126fbe898e,,,,,,,sngl,resources/Empty.png,resources/DP.BMP,Door1,0.325925898,0.067592586,1,0,0,1.3066,optionRight,30,3765,2,23,0,23,0,1,,,,,,,,,,,,,,,,,,,,,,,,,,,,,,,,,,,,,,,
,,,,,,,,2023-08-16_08h36.44.911,HF_wild_card,2022.2.4,Win32,60.12506013,63f1bdcac90b79cd273a2d5c,64d2fd46c836a06233681665,64dc7c750db31b126fbe898e,,,,,,,ctch,resources/DP.BMP,resources/DR.BMP,Door1,-0.237037023,0.006481489,1,0,0,2.4896,optionLeft,30,3795,2,24,0,24,0,1,,,,,,,,,,,,,,,,,,,,,,,,,,,,,,,,,,,,,,,
,,,,,,,,2023-08-16_08h36.44.911,HF_wild_card,2022.2.4,Win32,60.12506013,63f1bdcac90b79cd273a2d5c,64d2fd46c836a06233681665,64dc7c750db31b126fbe898e,,,,,,,decisionTrl,resources/DG.BMP,resources/DP.BMP,Door1,0.380555612,0.045370349,1,0,0,1.2294,optionRight,30,3825,2,25,0,25,0,1,,,,,,,,,,,,,,,,,,,,,,,,,,,,,,,,,,,,,,,
,,,,,,,,2023-08-16_08h36.44.911,HF_wild_card,2022.2.4,Win32,60.12506013,63f1bdcac90b79cd273a2d5c,64d2fd46c836a06233681665,64dc7c750db31b126fbe898e,,,,,,,ctch,resources/DB.BMP,resources/DG.BMP,Door3,-0.247222194,-0.014814836,1,0,0,1.3644,optionLeft,70,3895,2,26,0,26,0,1,,,,,,,,,,,,,,,,,,,,,,,,,,,,,,,,,,,,,,,
,,,,,,,,2023-08-16_08h36.44.911,HF_wild_card,2022.2.4,Win32,60.12506013,63f1bdcac90b79cd273a2d5c,64d2fd46c836a06233681665,64dc7c750db31b126fbe898e,,,,,,,decisionTrl,resources/DR.BMP,resources/DB.BMP,Door3,0.25462963,0.065740727,1,0,0,2.063,optionRight,70,3965,2,27,0,27,0,1,,,,,,,,,,,,,,,,,,,,,,,,,,,,,,,,,,,,,,,
,,,,,,,,2023-08-16_08h36.44.911,HF_wild_card,2022.2.4,Win32,60.12506013,63f1bdcac90b79cd273a2d5c,64d2fd46c836a06233681665,64dc7c750db31b126fbe898e,,,,,,,ctch,resources/DG.BMP,resources/DB.BMP,Door3,0.239814829,0.035185178,1,0,0,1.4798,optionRight,70,4035,2,28,0,28,0,1,,,,,,,,,,,,,,,,,,,,,,,,,,,,,,,,,,,,,,,
,,,,,,,,2023-08-16_08h36.44.911,HF_wild_card,2022.2.4,Win32,60.12506013,63f1bdcac90b79cd273a2d5c,64d2fd46c836a06233681665,64dc7c750db31b126fbe898e,,,,,,,decisionTrl,resources/DP.BMP,resources/DG.BMP,Door1,-0.305555556,-0.017592607,1,0,0,2.2124,optionLeft,30,4065,2,29,0,29,0,1,,,,,,,,,,,,,,,,,,,,,,,,,,,,,,,,,,,,,,,
,,,,,,,,2023-08-16_08h36.44.911,HF_wild_card,2022.2.4,Win32,60.12506013,63f1bdcac90b79cd273a2d5c,64d2fd46c836a06233681665,64dc7c750db31b126fbe898e,,,,,,,decisionTrl,resources/DP.BMP,resources/DY.BMP,WildCard_Ex,0.341666751,0.003703683,1,0,0,3.1612,optionRight,5,4070,2,30,0,30,0,1,,,,,,,,,,,,,,,,,,,,,,,,,,,,,,,,,,,,,,,
,,,,,,,,2023-08-16_08h36.44.911,HF_wild_card,2022.2.4,Win32,60.12506013,63f1bdcac90b79cd273a2d5c,64d2fd46c836a06233681665,64dc7c750db31b126fbe898e,,,,,,,sngl,resources/Empty.png,resources/DG.BMP,Door2,0.296296296,0.033333319,1,0,0,1.0288,optionRight,40,4110,2,31,0,31,0,1,,,,,,,,,,,,,,,,,,,,,,,,,,,,,,,,,,,,,,,
,,,,,,,,2023-08-16_08h36.44.911,HF_wild_card,2022.2.4,Win32,60.12506013,63f1bdcac90b79cd273a2d5c,64d2fd46c836a06233681665,64dc7c750db31b126fbe898e,,,,,,,decisionTrl,resources/DP.BMP,resources/DG.BMP,Door2,0.249074088,0.079629616,1,0,0,1.8299,optionRight,40,4150,2,32,0,32,0,1,,,,,,,,,,,,,,,,,,,,,,,,,,,,,,,,,,,,,,,
,,,,,,,,2023-08-16_08h36.44.911,HF_wild_card,2022.2.4,Win32,60.12506013,63f1bdcac90b79cd273a2d5c,64d2fd46c836a06233681665,64dc7c750db31b126fbe898e,,,,,,,decisionTrl,resources/DB.BMP,resources/DY.BMP,Door3,-0.321296303,-0.036111125,1,0,0,0.996,optionLeft,70,4220,2,33,0,33,0,1,,,,,,,,,,,,,,,,,,,,,,,,,,,,,,,,,,,,,,,
,,,,,,,,2023-08-16_08h36.44.911,HF_wild_card,2022.2.4,Win32,60.12506013,63f1bdcac90b79cd273a2d5c,64d2fd46c836a06233681665,64dc7c750db31b126fbe898e,,,,,,,ctch,resources/DP.BMP,resources/DR.BMP,Door4,0.173148191,0.049999979,1,0,0,2.096,optionRight,60,4280,2,34,0,34,0,1,,,,,,,,,,,,,,,,,,,,,,,,,,,,,,,,,,,,,,,
,,,,,,,,2023-08-16_08h36.44.911,HF_wild_card,2022.2.4,Win32,60.12506013,63f1bdcac90b79cd273a2d5c,64d2fd46c836a06233681665,64dc7c750db31b126fbe898e,,,,,,,sngl,resources/DB.BMP,resources/Empty.png,Door3,-0.277777778,-0.001851859,1,0,0,0.9969,optionLeft,70,4350,2,35,0,35,0,1,,,,,,,,,,,,,,,,,,,,,,,,,,,,,,,,,,,,,,,
,,,,,,,,2023-08-16_08h36.44.911,HF_wild_card,2022.2.4,Win32,60.12506013,63f1bdcac90b79cd273a2d5c,64d2fd46c836a06233681665,64dc7c750db31b126fbe898e,,,,,,,decisionTrl,resources/DP.BMP,resources/DG.BMP,Door2,0.196296339,0.094444452,1,0,0,1.9819,optionRight,40,4390,2,36,0,36,0,1,,,,,,,,,,,,,,,,,,,,,,,,,,,,,,,,,,,,,,,
,,,,,,,,2023-08-16_08h36.44.911,HF_wild_card,2022.2.4,Win32,60.12506013,63f1bdcac90b79cd273a2d5c,64d2fd46c836a06233681665,64dc7c750db31b126fbe898e,,,,,,,ctch,resources/DR.BMP,resources/DP.BMP,Door4,-0.19722218,0.009259259,1,0,0,1.3135,optionLeft,80,4470,2,37,0,37,0,1,,,,,,,,,,,,,,,,,,,,,,,,,,,,,,,,,,,,,,,
,,,,,,,,2023-08-16_08h36.44.911,HF_wild_card,2022.2.4,Win32,60.12506013,63f1bdcac90b79cd273a2d5c,64d2fd46c836a06233681665,64dc7c750db31b126fbe898e,,,,,,,decisionTrl,resources/DR.BMP,resources/DB.BMP,Door4,-0.242592564,0.017592571,1,0,0,1.7124,optionLeft,80,4550,2,38,0,38,0,1,,,,,,,,,,,,,,,,,,,,,,,,,,,,,,,,,,,,,,,
,,,,,,,,2023-08-16_08h36.44.911,HF_wild_card,2022.2.4,Win32,60.12506013,63f1bdcac90b79cd273a2d5c,64d2fd46c836a06233681665,64dc7c750db31b126fbe898e,,,,,,,decisionTrl,resources/DG.BMP,resources/DY.BMP,WildCard_Ex,0.187962991,0.025000007,1,0,0,2.4127,optionRight,95,4645,2,39,0,39,0,1,,,,,,,,,,,,,,,,,,,,,,,,,,,,,,,,,,,,,,,
,,,,,,,,2023-08-16_08h36.44.911,HF_wild_card,2022.2.4,Win32,60.12506013,63f1bdcac90b79cd273a2d5c,64d2fd46c836a06233681665,64dc7c750db31b126fbe898e,,,,,,,decisionTrl,resources/DR.BMP,resources/DB.BMP,Door4,-0.249074088,0.013888889,1,0,0,2.3462,optionLeft,60,4705,2,40,0,40,0,1,,,,,,,,,,,,,,,,,,,,,,,,,,,,,,,,,,,,,,,
,,,,,,,,2023-08-16_08h36.44.911,HF_wild_card,2022.2.4,Win32,60.12506013,63f1bdcac90b79cd273a2d5c,64d2fd46c836a06233681665,64dc7c750db31b126fbe898e,,,,,,,decisionTrl,resources/DY.BMP,resources/DR.BMP,WildCard_Ex,-0.117592564,0.008333312,1,0,0,2.1795,optionLeft,95,4800,2,41,0,41,0,1,,,,,,,,,,,,,,,,,,,,,,,,,,,,,,,,,,,,,,,
,,,,,,,,2023-08-16_08h36.44.911,HF_wild_card,2022.2.4,Win32,60.12506013,63f1bdcac90b79cd273a2d5c,64d2fd46c836a06233681665,64dc7c750db31b126fbe898e,,,,,,,sngl,resources/DP.BMP,resources/Empty.png,Door1,-0.182407379,0.005555541,1,0,0,1.7094,optionLeft,30,4830,2,42,0,42,0,1,,,,,,,,,,,,,,,,,,,,,,,,,,,,,,,,,,,,,,,
,,,,,,,,2023-08-16_08h36.44.911,HF_wild_card,2022.2.4,Win32,60.12506013,63f1bdcac90b79cd273a2d5c,64d2fd46c836a06233681665,64dc7c750db31b126fbe898e,,,,,,,decisionTrl,resources/DY.BMP,resources/DB.BMP,WildCard_Ex,-0.184259273,-0.003703718,1,0,0,2.6624,optionLeft,5,4835,2,43,0,43,0,1,,,,,,,,,,,,,,,,,,,,,,,,,,,,,,,,,,,,,,,
,,,,,,,,2023-08-16_08h36.44.911,HF_wild_card,2022.2.4,Win32,60.12506013,63f1bdcac90b79cd273a2d5c,64d2fd46c836a06233681665,64dc7c750db31b126fbe898e,,,,,,,,,,,,,,,,,,,,,,,,,,1,0,1,0,1,,,,,,,,,,,,,,,,,,,,,,,,,,,,,,,,,,
,,,,,,,,2023-08-16_08h36.44.911,HF_wild_card,2022.2.4,Win32,60.12506013,63f1bdcac90b79cd273a2d5c,64d2fd46c836a06233681665,64dc7c750db31b126fbe898e,,,,,,,decisionTrl,resources/DP.BMP,resources/DG.BMP,Door2,0.210185228,-0.184259273,1,0,0,1.7836,optionRight,20,4855,3,0,0,0,0,1,,,,,,,,,,,,,,,,,,,,,,,,,,,,,,,,,,,,,,,
,,,,,,,,2023-08-16_08h36.44.911,HF_wild_card,2022.2.4,Win32,60.12506013,63f1bdcac90b79cd273a2d5c,64d2fd46c836a06233681665,64dc7c750db31b126fbe898e,,,,,,,ctch,resources/DR.BMP,resources/DP.BMP,Door4,-0.217592593,0.0074074,1,0,0,1.3883,optionLeft,60,4915,3,1,0,1,0,1,,,,,,,,,,,,,,,,,,,,,,,,,,,,,,,,,,,,,,,
,,,,,,,,2023-08-16_08h36.44.911,HF_wild_card,2022.2.4,Win32,60.12506013,63f1bdcac90b79cd273a2d5c,64d2fd46c836a06233681665,64dc7c750db31b126fbe898e,,,,,,,sngl,resources/DY.BMP,resources/Empty.png,WildCard_Ex,-0.156481496,0.021296289,1,0,0,0.945,optionLeft,5,4920,3,2,0,2,0,1,,,,,,,,,,,,,,,,,,,,,,,,,,,,,,,,,,,,,,,
,,,,,,,,2023-08-16_08h36.44.911,HF_wild_card,2022.2.4,Win32,60.12506013,63f1bdcac90b79cd273a2d5c,64d2fd46c836a06233681665,64dc7c750db31b126fbe898e,,,,,,,decisionTrl,resources/DR.BMP,resources/DB.BMP,Door3,0.263888889,0.071296303,1,0,0,0.9297,optionRight,70,4990,3,3,0,3,0,1,,,,,,,,,,,,,,,,,,,,,,,,,,,,,,,,,,,,,,,
,,,,,,,,2023-08-16_08h36.44.911,HF_wild_card,2022.2.4,Win32,60.12506013,63f1bdcac90b79cd273a2d5c,64d2fd46c836a06233681665,64dc7c750db31b126fbe898e,,,,,,,sngl,resources/Empty.png,resources/DY.BMP,WildCard_Ex,0.258333347,0.101851852,1,0,0,1.1132,optionRight,95,5085,3,4,0,4,0,1,,,,,,,,,,,,,,,,,,,,,,,,,,,,,,,,,,,,,,,
,,,,,,,,2023-08-16_08h36.44.911,HF_wild_card,2022.2.4,Win32,60.12506013,63f1bdcac90b79cd273a2d5c,64d2fd46c836a06233681665,64dc7c750db31b126fbe898e,,,,,,,decisionTrl,resources/DB.BMP,resources/DR.BMP,Door3,-0.195370356,0.047222208,1,0,0,1.8292,optionLeft,70,5155,3,5,0,5,0,1,,,,,,,,,,,,,,,,,,,,,,,,,,,,,,,,,,,,,,,
,,,,,,,,2023-08-16_08h36.44.911,HF_wild_card,2022.2.4,Win32,60.12506013,63f1bdcac90b79cd273a2d5c,64d2fd46c836a06233681665,64dc7c750db31b126fbe898e,,,,,,,decisionTrl,resources/DB.BMP,resources/DR.BMP,Door4,0.213888875,0.1175926,1,0,0,1.0468,optionRight,60,5215,3,6,0,6,0,1,,,,,,,,,,,,,,,,,,,,,,,,,,,,,,,,,,,,,,,
,,,,,,,,2023-08-16_08h36.44.911,HF_wild_card,2022.2.4,Win32,60.12506013,63f1bdcac90b79cd273a2d5c,64d2fd46c836a06233681665,64dc7c750db31b126fbe898e,,,,,,,decisionTrl,resources/DR.BMP,resources/DB.BMP,Door4,-0.175000014,0.034259266,1,0,0,1.2092,optionLeft,80,5295,3,7,0,7,0,1,,,,,,,,,,,,,,,,,,,,,,,,,,,,,,,,,,,,,,,
,,,,,,,,2023-08-16_08h36.44.911,HF_wild_card,2022.2.4,Win32,60.12506013,63f1bdcac90b79cd273a2d5c,64d2fd46c836a06233681665,64dc7c750db31b126fbe898e,,,,,,,sngl,resources/DB.BMP,resources/Empty.png,Door3,-0.186111097,0.048148155,1,0,0,1.3422,optionLeft,70,5365,3,8,0,8,0,1,,,,,,,,,,,,,,,,,,,,,,,,,,,,,,,,,,,,,,,
,,,,,,,,2023-08-16_08h36.44.911,HF_wild_card,2022.2.4,Win32,60.12506013,63f1bdcac90b79cd273a2d5c,64d2fd46c836a06233681665,64dc7c750db31b126fbe898e,,,,,,,ctch,resources/DB.BMP,resources/DG.BMP,Door2,0.150925954,0.04074072,1,0,0,2.0594,optionRight,20,5385,3,9,0,9,0,1,,,,,,,,,,,,,,,,,,,,,,,,,,,,,,,,,,,,,,,
,,,,,,,,2023-08-16_08h36.44.911,HF_wild_card,2022.2.4,Win32,60.12506013,63f1bdcac90b79cd273a2d5c,64d2fd46c836a06233681665,64dc7c750db31b126fbe898e,,,,,,,sngl,resources/Empty.png,resources/DG.BMP,Door2,0.35555564,0.069444444,1,0,0,1.0466,optionRight,20,5405,3,10,0,10,0,1,,,,,,,,,,,,,,,,,,,,,,,,,,,,,,,,,,,,,,,
,,,,,,,,2023-08-16_08h36.44.911,HF_wild_card,2022.2.4,Win32,60.12506013,63f1bdcac90b79cd273a2d5c,64d2fd46c836a06233681665,64dc7c750db31b126fbe898e,,,,,,,ctch,resources/DG.BMP,resources/DB.BMP,Door3,0.262962977,0.022222201,1,0,0,1.3963,optionRight,70,5475,3,11,0,11,0,1,,,,,,,,,,,,,,,,,,,,,,,,,,,,,,,,,,,,,,,
,,,,,,,,2023-08-16_08h36.44.911,HF_wild_card,2022.2.4,Win32,60.12506013,63f1bdcac90b79cd273a2d5c,64d2fd46c836a06233681665,64dc7c750db31b126fbe898e,,,,,,,sngl,resources/DG.BMP,resources/Empty.png,Door2,-0.242592564,0.01944443,1,0,0,0.7769,optionLeft,40,5515,3,12,0,12,0,1,,,,,,,,,,,,,,,,,,,,,,,,,,,,,,,,,,,,,,,
,,,,,,,,2023-08-16_08h36.44.911,HF_wild_card,2022.2.4,Win32,60.12506013,63f1bdcac90b79cd273a2d5c,64d2fd46c836a06233681665,64dc7c750db31b126fbe898e,,,,,,,decisionTrl,resources/DG.BMP,resources/DP.BMP,Door1,0.263888889,0.062037044,1,0,0,1.7515,optionRight,30,5545,3,13,0,13,0,1,,,,,,,,,,,,,,,,,,,,,,,,,,,,,,,,,,,,,,,
,,,,,,,,2023-08-16_08h36.44.911,HF_wild_card,2022.2.4,Win32,60.12506013,63f1bdcac90b79cd273a2d5c,64d2fd46c836a06233681665,64dc7c750db31b126fbe898e,,,,,,,ctch,resources/DP.BMP,resources/DR.BMP,Door4,0.285185213,0.085185192,1,0,0,1.2281,optionRight,60,5605,3,14,0,14,0,1,,,,,,,,,,,,,,,,,,,,,,,,,,,,,,,,,,,,,,,
,,,,,,,,2023-08-16_08h36.44.911,HF_wild_card,2022.2.4,Win32,60.12506013,63f1bdcac90b79cd273a2d5c,64d2fd46c836a06233681665,64dc7c750db31b126fbe898e,,,,,,,sngl,resources/Empty.png,resources/DY.BMP,WildCard_Ex,0.174074102,0.201851845,1,0,0,1.3584,optionRight,5,5610,3,15,0,15,0,1,,,,,,,,,,,,,,,,,,,,,,,,,,,,,,,,,,,,,,,
,,,,,,,,2023-08-16_08h36.44.911,HF_wild_card,2022.2.4,Win32,60.12506013,63f1bdcac90b79cd273a2d5c,64d2fd46c836a06233681665,64dc7c750db31b126fbe898e,,,,,,,ctch,resources/DR.BMP,resources/DP.BMP,Door4,-0.292592578,0,1,0,0,1.8043,optionLeft,60,5670,3,16,0,16,0,1,,,,,,,,,,,,,,,,,,,,,,,,,,,,,,,,,,,,,,,
,,,,,,,,2023-08-16_08h36.44.911,HF_wild_card,2022.2.4,Win32,60.12506013,63f1bdcac90b79cd273a2d5c,64d2fd46c836a06233681665,64dc7c750db31b126fbe898e,,,,,,,sngl,resources/Empty.png,resources/DP.BMP,Door1,0.33148151,0.130555541,1,0,0,0.8348,optionRight,30,5700,3,17,0,17,0,1,,,,,,,,,,,,,,,,,,,,,,,,,,,,,,,,,,,,,,,
,,,,,,,,2023-08-16_08h36.44.911,HF_wild_card,2022.2.4,Win32,60.12506013,63f1bdcac90b79cd273a2d5c,64d2fd46c836a06233681665,64dc7c750db31b126fbe898e,,,,,,,decisionTrl,resources/DG.BMP,resources/DP.BMP,Door2,-0.191666638,0,1,0,0,1.0298,optionLeft,20,5720,3,18,0,18,0,1,,,,,,,,,,,,,,,,,,,,,,,,,,,,,,,,,,,,,,,
,,,,,,,,2023-08-16_08h36.44.911,HF_wild_card,2022.2.4,Win32,60.12506013,63f1bdcac90b79cd273a2d5c,64d2fd46c836a06233681665,64dc7c750db31b126fbe898e,,,,,,,decisionTrl,resources/DR.BMP,resources/DB.BMP,Door3,0.270370413,0.020370377,1,0,0,1.1267,optionRight,70,5790,3,19,0,19,0,1,,,,,,,,,,,,,,,,,,,,,,,,,,,,,,,,,,,,,,,
,,,,,,,,2023-08-16_08h36.44.911,HF_wild_card,2022.2.4,Win32,60.12506013,63f1bdcac90b79cd273a2d5c,64d2fd46c836a06233681665,64dc7c750db31b126fbe898e,,,,,,,decisionTrl,resources/DR.BMP,resources/DY.BMP,WildCard_Ex,0.308333362,0.037962949,1,0,0,2.0939,optionRight,5,5795,3,20,0,20,0,1,,,,,,,,,,,,,,,,,,,,,,,,,,,,,,,,,,,,,,,
,,,,,,,,2023-08-16_08h36.44.911,HF_wild_card,2022.2.4,Win32,60.12506013,63f1bdcac90b79cd273a2d5c,64d2fd46c836a06233681665,64dc7c750db31b126fbe898e,,,,,,,decisionTrl,resources/DP.BMP,resources/DY.BMP,Door1,-0.285185143,0.009259259,1,0,0,1.7466,optionLeft,30,5825,3,21,0,21,0,1,,,,,,,,,,,,,,,,,,,,,,,,,,,,,,,,,,,,,,,
,,,,,,,,2023-08-16_08h36.44.911,HF_wild_card,2022.2.4,Win32,60.12506013,63f1bdcac90b79cd273a2d5c,64d2fd46c836a06233681665,64dc7c750db31b126fbe898e,,,,,,,decisionTrl,resources/DB.BMP,resources/DY.BMP,WildCard_Ex,0.270370413,0.013888889,1,0,0,1.1297,optionRight,95,5920,3,22,0,22,0,1,,,,,,,,,,,,,,,,,,,,,,,,,,,,,,,,,,,,,,,
,,,,,,,,2023-08-16_08h36.44.911,HF_wild_card,2022.2.4,Win32,60.12506013,63f1bdcac90b79cd273a2d5c,64d2fd46c836a06233681665,64dc7c750db31b126fbe898e,,,,,,,sngl,resources/DP.BMP,resources/Empty.png,Door1,-0.259259259,0.006481489,1,0,0,0.8846,optionLeft,30,5950,3,23,0,23,0,1,,,,,,,,,,,,,,,,,,,,,,,,,,,,,,,,,,,,,,,
,,,,,,,,2023-08-16_08h36.44.911,HF_wild_card,2022.2.4,Win32,60.12506013,63f1bdcac90b79cd273a2d5c,64d2fd46c836a06233681665,64dc7c750db31b126fbe898e,,,,,,,decisionTrl,resources/DY.BMP,resources/DP.BMP,WildCard_Ex,-0.178703661,0.01203703,1,0,0,2.6461,optionLeft,95,6045,3,24,0,24,0,1,,,,,,,,,,,,,,,,,,,,,,,,,,,,,,,,,,,,,,,
,,,,,,,,2023-08-16_08h36.44.911,HF_wild_card,2022.2.4,Win32,60.12506013,63f1bdcac90b79cd273a2d5c,64d2fd46c836a06233681665,64dc7c750db31b126fbe898e,,,,,,,decisionTrl,resources/DP.BMP,resources/DG.BMP,Door2,0.217592593,0.014814801,1,0,0,2.5125,optionRight,40,6085,3,25,0,25,0,1,,,,,,,,,,,,,,,,,,,,,,,,,,,,,,,,,,,,,,,
,,,,,,,,2023-08-16_08h36.44.911,HF_wild_card,2022.2.4,Win32,60.12506013,63f1bdcac90b79cd273a2d5c,64d2fd46c836a06233681665,64dc7c750db31b126fbe898e,,,,,,,decisionTrl,resources/DY.BMP,resources/DR.BMP,Door4,0.366666723,0.022222201,1,0,0,2.5627,optionRight,80,6165,3,26,0,26,0,1,,,,,,,,,,,,,,,,,,,,,,,,,,,,,,,,,,,,,,,
,,,,,,,,2023-08-16_08h36.44.911,HF_wild_card,2022.2.4,Win32,60.12506013,63f1bdcac90b79cd273a2d5c,64d2fd46c836a06233681665,64dc7c750db31b126fbe898e,,,,,,,sngl,resources/Empty.png,resources/DR.BMP,Door4,0.207407422,0,1,0,0,0.868,optionRight,60,6225,3,27,0,27,0,1,,,,,,,,,,,,,,,,,,,,,,,,,,,,,,,,,,,,,,,
,,,,,,,,2023-08-16_08h36.44.911,HF_wild_card,2022.2.4,Win32,60.12506013,63f1bdcac90b79cd273a2d5c,64d2fd46c836a06233681665,64dc7c750db31b126fbe898e,,,,,,,decisionTrl,resources/DP.BMP,resources/DG.BMP,Door2,0.312962991,0.023148148,1,0,0,1.3798,optionRight,40,6265,3,28,0,28,0,1,,,,,,,,,,,,,,,,,,,,,,,,,,,,,,,,,,,,,,,
,,,,,,,,2023-08-16_08h36.44.911,HF_wild_card,2022.2.4,Win32,60.12506013,63f1bdcac90b79cd273a2d5c,64d2fd46c836a06233681665,64dc7c750db31b126fbe898e,,,,,,,decisionTrl,resources/DY.BMP,resources/DB.BMP,Door3,0.237037023,0.012962942,1,0,0,1.6957,optionRight,70,6335,3,29,0,29,0,1,,,,,,,,,,,,,,,,,,,,,,,,,,,,,,,,,,,,,,,
,,,,,,,,2023-08-16_08h36.44.911,HF_wild_card,2022.2.4,Win32,60.12506013,63f1bdcac90b79cd273a2d5c,64d2fd46c836a06233681665,64dc7c750db31b126fbe898e,,,,,,,sngl,resources/Empty.png,resources/DB.BMP,Door3,0.285185213,0.045370349,1,0,0,1.3261,optionRight,70,6405,3,30,0,30,0,1,,,,,,,,,,,,,,,,,,,,,,,,,,,,,,,,,,,,,,,
,,,,,,,,2023-08-16_08h36.44.911,HF_wild_card,2022.2.4,Win32,60.12506013,63f1bdcac90b79cd273a2d5c,64d2fd46c836a06233681665,64dc7c750db31b126fbe898e,,,,,,,decisionTrl,resources/DP.BMP,resources/DG.BMP,Door2,0.202777792,0.018518519,1,0,0,2.825,optionRight,20,6425,3,31,0,31,0,1,,,,,,,,,,,,,,,,,,,,,,,,,,,,,,,,,,,,,,,
,,,,,,,,2023-08-16_08h36.44.911,HF_wild_card,2022.2.4,Win32,60.12506013,63f1bdcac90b79cd273a2d5c,64d2fd46c836a06233681665,64dc7c750db31b126fbe898e,,,,,,,sngl,resources/DR.BMP,resources/Empty.png,Door4,-0.244444459,0,1,0,0,1.1179,optionLeft,80,6505,3,32,0,32,0,1,,,,,,,,,,,,,,,,,,,,,,,,,,,,,,,,,,,,,,,
,,,,,,,,2023-08-16_08h36.44.911,HF_wild_card,2022.2.4,Win32,60.12506013,63f1bdcac90b79cd273a2d5c,64d2fd46c836a06233681665,64dc7c750db31b126fbe898e,,,,,,,decisionTrl,resources/DB.BMP,resources/DR.BMP,Door3,-0.178703661,0.034259266,1,0,0,1.4307,optionLeft,70,6575,3,33,0,33,0,1,,,,,,,,,,,,,,,,,,,,,,,,,,,,,,,,,,,,,,,
,,,,,,,,2023-08-16_08h36.44.911,HF_wild_card,2022.2.4,Win32,60.12506013,63f1bdcac90b79cd273a2d5c,64d2fd46c836a06233681665,64dc7c750db31b126fbe898e,,,,,,,decisionTrl,resources/DR.BMP,resources/DB.BMP,Door4,-0.193518533,-0.002777771,1,0,0,1.6128,optionLeft,60,6635,3,34,0,34,0,1,,,,,,,,,,,,,,,,,,,,,,,,,,,,,,,,,,,,,,,
,,,,,,,,2023-08-16_08h36.44.911,HF_wild_card,2022.2.4,Win32,60.12506013,63f1bdcac90b79cd273a2d5c,64d2fd46c836a06233681665,64dc7c750db31b126fbe898e,,,,,,,sngl,resources/DY.BMP,resources/Empty.png,WildCard_Ex,-0.212037051,-0.008333347,1,0,0,1.5657,optionLeft,95,6730,3,35,0,35,0,1,,,,,,,,,,,,,,,,,,,,,,,,,,,,,,,,,,,,,,,
,,,,,,,,2023-08-16_08h36.44.911,HF_wild_card,2022.2.4,Win32,60.12506013,63f1bdcac90b79cd273a2d5c,64d2fd46c836a06233681665,64dc7c750db31b126fbe898e,,,,,,,decisionTrl,resources/DG.BMP,resources/DP.BMP,Door1,0.299074102,0.059259238,1,0,0,3.4449,optionRight,30,6760,3,36,0,36,0,1,,,,,,,,,,,,,,,,,,,,,,,,,,,,,,,,,,,,,,,
,,,,,,,,2023-08-16_08h36.44.911,HF_wild_card,2022.2.4,Win32,60.12506013,63f1bdcac90b79cd273a2d5c,64d2fd46c836a06233681665,64dc7c750db31b126fbe898e,,,,,,,ctch,resources/DG.BMP,resources/DB.BMP,Door3,0.134259259,0.062037044,1,0,0,2.2959,optionRight,70,6830,3,37,0,37,0,1,,,,,,,,,,,,,,,,,,,,,,,,,,,,,,,,,,,,,,,
,,,,,,,,2023-08-16_08h36.44.911,HF_wild_card,2022.2.4,Win32,60.12506013,63f1bdcac90b79cd273a2d5c,64d2fd46c836a06233681665,64dc7c750db31b126fbe898e,,,,,,,decisionTrl,resources/DB.BMP,resources/DR.BMP,Door3,-0.302777785,-0.033333355,1,0,0,2.1295,optionLeft,70,6900,3,38,0,38,0,1,,,,,,,,,,,,,,,,,,,,,,,,,,,,,,,,,,,,,,,
,,,,,,,,2023-08-16_08h36.44.911,HF_wild_card,2022.2.4,Win32,60.12506013,63f1bdcac90b79cd273a2d5c,64d2fd46c836a06233681665,64dc7c750db31b126fbe898e,,,,,,,decisionTrl,resources/DY.BMP,resources/DG.BMP,Door2,0.199999986,0.052777785,1,0,0,1.7672,optionRight,40,6940,3,39,0,39,0,1,,,,,,,,,,,,,,,,,,,,,,,,,,,,,,,,,,,,,,,
,,,,,,,,2023-08-16_08h36.44.911,HF_wild_card,2022.2.4,Win32,60.12506013,63f1bdcac90b79cd273a2d5c,64d2fd46c836a06233681665,64dc7c750db31b126fbe898e,,,,,,,ctch,resources/DP.BMP,resources/DR.BMP,Door4,0.275000042,0.070370356,1,0,0,2.2672,optionRight,80,7020,3,40,0,40,0,1,,,,,,,,,,,,,,,,,,,,,,,,,,,,,,,,,,,,,,,
,,,,,,,,2023-08-16_08h36.44.911,HF_wild_card,2022.2.4,Win32,60.12506013,63f1bdcac90b79cd273a2d5c,64d2fd46c836a06233681665,64dc7c750db31b126fbe898e,,,,,,,decisionTrl,resources/DG.BMP,resources/DY.BMP,WildCard_Ex,0.136111153,0.037037037,1,0,0,1.9426,optionRight,95,7115,3,41,0,41,0,1,,,,,,,,,,,,,,,,,,,,,,,,,,,,,,,,,,,,,,,
,,,,,,,,2023-08-16_08h36.44.911,HF_wild_card,2022.2.4,Win32,60.12506013,63f1bdcac90b79cd273a2d5c,64d2fd46c836a06233681665,64dc7c750db31b126fbe898e,,,,,,,ctch,resources/DB.BMP,resources/DG.BMP,Door3,-0.187962921,-0.017592607,1,0,0,2.3124,optionLeft,70,7185,3,42,0,42,0,1,,,,,,,,,,,,,,,,,,,,,,,,,,,,,,,,,,,,,,,
,,,,,,,,2023-08-16_08h36.44.911,HF_wild_card,2022.2.4,Win32,60.12506013,63f1bdcac90b79cd273a2d5c,64d2fd46c836a06233681665,64dc7c750db31b126fbe898e,,,,,,,decisionTrl,resources/DG.BMP,resources/DP.BMP,Door2,-0.186111097,-0.001851859,1,0,0,1.9625,optionLeft,20,7205,3,43,0,43,0,1,,,,,,,,,,,,,,,,,,,,,,,,,,,,,,,,,,,,,,,
,,,,,,,,2023-08-16_08h36.44.911,HF_wild_card,2022.2.4,Win32,60.12506013,63f1bdcac90b79cd273a2d5c,64d2fd46c836a06233681665,64dc7c750db31b126fbe898e,,,,,,,,,,,,,,,,,,,,,,,,,,2,0,2,0,1,,,,,,,,,,,,,,,,,,,,,,,,,,,,,,,,,,
,,,,,,,,2023-08-16_08h36.44.911,HF_wild_card,2022.2.4,Win32,60.12506013,63f1bdcac90b79cd273a2d5c,64d2fd46c836a06233681665,64dc7c750db31b126fbe898e,,,,,,,decisionTrl,resources/DB.BMP,resources/DR.BMP,Door4,0.287037037,-0.073148162,1,0,0,1.0579,optionRight,80,7285,4,0,0,0,0,1,,,,,,,,,,,,,,,,,,,,,,,,,,,,,,,,,,,,,,,
,,,,,,,,2023-08-16_08h36.44.911,HF_wild_card,2022.2.4,Win32,60.12506013,63f1bdcac90b79cd273a2d5c,64d2fd46c836a06233681665,64dc7c750db31b126fbe898e,,,,,,,ctch,resources/DP.BMP,resources/DR.BMP,Door1,-0.242592564,-0.002777771,1,0,0,0.8801,optionLeft,30,7315,4,1,0,1,0,1,,,,,,,,,,,,,,,,,,,,,,,,,,,,,,,,,,,,,,,
,,,,,,,,2023-08-16_08h36.44.911,HF_wild_card,2022.2.4,Win32,60.12506013,63f1bdcac90b79cd273a2d5c,64d2fd46c836a06233681665,64dc7c750db31b126fbe898e,,,,,,,sngl,resources/DP.BMP,resources/Empty.png,Door1,-0.180555556,-0.037037037,1,0,0,1.1147,optionLeft,30,7345,4,2,0,2,0,1,,,,,,,,,,,,,,,,,,,,,,,,,,,,,,,,,,,,,,,
,,,,,,,,2023-08-16_08h36.44.911,HF_wild_card,2022.2.4,Win32,60.12506013,63f1bdcac90b79cd273a2d5c,64d2fd46c836a06233681665,64dc7c750db31b126fbe898e,,,,,,,decisionTrl,resources/DG.BMP,resources/DP.BMP,Door1,0.213888875,-0.013888889,1,0,0,0.7287,optionRight,30,7375,4,3,0,3,0,1,,,,,,,,,,,,,,,,,,,,,,,,,,,,,,,,,,,,,,,
,,,,,,,,2023-08-16_08h36.44.911,HF_wild_card,2022.2.4,Win32,60.12506013,63f1bdcac90b79cd273a2d5c,64d2fd46c836a06233681665,64dc7c750db31b126fbe898e,,,,,,,sngl,resources/DBN.BMP,resources/Empty.png,WildCard_NonEx,-0.229629587,-0.008333347,1,0,0,0.9288,optionLeft,55,7430,4,4,0,4,0,1,,,,,,,,,,,,,,,,,,,,,,,,,,,,,,,,,,,,,,,
,,,,,,,,2023-08-16_08h36.44.911,HF_wild_card,2022.2.4,Win32,60.12506013,63f1bdcac90b79cd273a2d5c,64d2fd46c836a06233681665,64dc7c750db31b126fbe898e,,,,,,,decisionTrl,resources/DP.BMP,resources/DG.BMP,Door2,0.147222236,0.034259266,1,0,0,1.879,optionRight,40,7470,4,5,0,5,0,1,,,,,,,,,,,,,,,,,,,,,,,,,,,,,,,,,,,,,,,
,,,,,,,,2023-08-16_08h36.44.911,HF_wild_card,2022.2.4,Win32,60.12506013,63f1bdcac90b79cd273a2d5c,64d2fd46c836a06233681665,64dc7c750db31b126fbe898e,,,,,,,sngl,resources/DG.BMP,resources/Empty.png,Door2,-0.195370356,0.01203703,1,0,0,0.9629,optionLeft,20,7490,4,6,0,6,0,1,,,,,,,,,,,,,,,,,,,,,,,,,,,,,,,,,,,,,,,
,,,,,,,,2023-08-16_08h36.44.911,HF_wild_card,2022.2.4,Win32,60.12506013,63f1bdcac90b79cd273a2d5c,64d2fd46c836a06233681665,64dc7c750db31b126fbe898e,,,,,,,decisionTrl,resources/DBN.BMP,resources/DR.BMP,WildCard_NonEx,-0.217592593,0.021296289,1,0,0,1.0931,optionLeft,45,7535,4,7,0,7,0,1,,,,,,,,,,,,,,,,,,,,,,,,,,,,,,,,,,,,,,,
,,,,,,,,2023-08-16_08h36.44.911,HF_wild_card,2022.2.4,Win32,60.12506013,63f1bdcac90b79cd273a2d5c,64d2fd46c836a06233681665,64dc7c750db31b126fbe898e,,,,,,,sngl,resources/DBN.BMP,resources/Empty.png,WildCard_NonEx,-0.175000014,-0.013888889,1,0,0,0.9134,optionLeft,45,7580,4,8,0,8,0,1,,,,,,,,,,,,,,,,,,,,,,,,,,,,,,,,,,,,,,,
,,,,,,,,2023-08-16_08h36.44.911,HF_wild_card,2022.2.4,Win32,60.12506013,63f1bdcac90b79cd273a2d5c,64d2fd46c836a06233681665,64dc7c750db31b126fbe898e,,,,,,,decisionTrl,resources/DP.BMP,resources/DG.BMP,Door2,0.158333319,0.049999979,1,0,0,1.7963,optionRight,40,7620,4,9,0,9,0,1,,,,,,,,,,,,,,,,,,,,,,,,,,,,,,,,,,,,,,,
,,,,,,,,2023-08-16_08h36.44.911,HF_wild_card,2022.2.4,Win32,60.12506013,63f1bdcac90b79cd273a2d5c,64d2fd46c836a06233681665,64dc7c750db31b126fbe898e,,,,,,,decisionTrl,resources/DG.BMP,resources/DP.BMP,Door1,0.156481496,0.037962949,1,0,0,1.2344,optionRight,30,7650,4,10,0,10,0,1,,,,,,,,,,,,,,,,,,,,,,,,,,,,,,,,,,,,,,,
,,,,,,,,2023-08-16_08h36.44.911,HF_wild_card,2022.2.4,Win32,60.12506013,63f1bdcac90b79cd273a2d5c,64d2fd46c836a06233681665,64dc7c750db31b126fbe898e,,,,,,,decisionTrl,resources/DR.BMP,resources/DB.BMP,Door3,0.208333333,0.027777778,1,0,0,1.5676,optionRight,70,7720,4,11,0,11,0,1,,,,,,,,,,,,,,,,,,,,,,,,,,,,,,,,,,,,,,,
,,,,,,,,2023-08-16_08h36.44.911,HF_wild_card,2022.2.4,Win32,60.12506013,63f1bdcac90b79cd273a2d5c,64d2fd46c836a06233681665,64dc7c750db31b126fbe898e,,,,,,,decisionTrl,resources/DG.BMP,resources/DP.BMP,Door1,0.164814843,0.068518497,1,0,0,2.5088,optionRight,30,7750,4,12,0,12,0,1,,,,,,,,,,,,,,,,,,,,,,,,,,,,,,,,,,,,,,,
,,,,,,,,2023-08-16_08h36.44.911,HF_wild_card,2022.2.4,Win32,60.12506013,63f1bdcac90b79cd273a2d5c,64d2fd46c836a06233681665,64dc7c750db31b126fbe898e,,,,,,,ctch,resources/DR.BMP,resources/DP.BMP,Door4,-0.263888889,0.0074074,1,0,0,1.796,optionLeft,60,7810,4,13,0,13,0,1,,,,,,,,,,,,,,,,,,,,,,,,,,,,,,,,,,,,,,,
,,,,,,,,2023-08-16_08h36.44.911,HF_wild_card,2022.2.4,Win32,60.12506013,63f1bdcac90b79cd273a2d5c,64d2fd46c836a06233681665,64dc7c750db31b126fbe898e,,,,,,,sngl,resources/Empty.png,resources/DR.BMP,Door4,0.165740755,-0.000925947,1,0,0,1.0303,optionRight,80,7890,4,14,0,14,0,1,,,,,,,,,,,,,,,,,,,,,,,,,,,,,,,,,,,,,,,
,,,,,,,,2023-08-16_08h36.44.911,HF_wild_card,2022.2.4,Win32,60.12506013,63f1bdcac90b79cd273a2d5c,64d2fd46c836a06233681665,64dc7c750db31b126fbe898e,,,,,,,decisionTrl,resources/DG.BMP,resources/DP.BMP,Door1,0.134259259,0.010185171,1,0,0,1.9128,optionRight,30,7920,4,15,0,15,0,1,,,,,,,,,,,,,,,,,,,,,,,,,,,,,,,,,,,,,,,
,,,,,,,,2023-08-16_08h36.44.911,HF_wild_card,2022.2.4,Win32,60.12506013,63f1bdcac90b79cd273a2d5c,64d2fd46c836a06233681665,64dc7c750db31b126fbe898e,,,,,,,ctch,resources/DG.BMP,resources/DB.BMP,Door3,0.211111139,0.03611109,1,0,0,1.2796,optionRight,70,7990,4,16,0,16,0,1,,,,,,,,,,,,,,,,,,,,,,,,,,,,,,,,,,,,,,,
,,,,,,,,2023-08-16_08h36.44.911,HF_wild_card,2022.2.4,Win32,60.12506013,63f1bdcac90b79cd273a2d5c,64d2fd46c836a06233681665,64dc7c750db31b126fbe898e,,,,,,,sngl,resources/Empty.png,resources/DP.BMP,Door1,0.20185188,-0.00462963,1,0,0,0.9466,optionRight,30,8020,4,17,0,17,0,1,,,,,,,,,,,,,,,,,,,,,,,,,,,,,,,,,,,,,,,
,,,,,,,,2023-08-16_08h36.44.911,HF_wild_card,2022.2.4,Win32,60.12506013,63f1bdcac90b79cd273a2d5c,64d2fd46c836a06233681665,64dc7c750db31b126fbe898e,,,,,,,decisionTrl,resources/DBN.BMP,resources/DB.BMP,Door3,0.189814815,0.052777785,1,0,0,3.0672,optionRight,70,8090,4,18,0,18,0,1,,,,,,,,,,,,,,,,,,,,,,,,,,,,,,,,,,,,,,,
,,,,,,,,2023-08-16_08h36.44.911,HF_wild_card,2022.2.4,Win32,60.12506013,63f1bdcac90b79cd273a2d5c,64d2fd46c836a06233681665,64dc7c750db31b126fbe898e,,,,,,,decisionTrl,resources/DP.BMP,resources/DBN.BMP,WildCard_NonEx,0.155555584,0.008333312,1,0,0,1.9044,optionRight,55,8145,4,19,0,19,0,1,,,,,,,,,,,,,,,,,,,,,,,,,,,,,,,,,,,,,,,
,,,,,,,,2023-08-16_08h36.44.911,HF_wild_card,2022.2.4,Win32,60.12506013,63f1bdcac90b79cd273a2d5c,64d2fd46c836a06233681665,64dc7c750db31b126fbe898e,,,,,,,decisionTrl,resources/DBN.BMP,resources/DP.BMP,WildCard_NonEx,-0.215740698,0.01944443,1,0,0,1.9962,optionLeft,55,8200,4,20,0,20,0,1,,,,,,,,,,,,,,,,,,,,,,,,,,,,,,,,,,,,,,,
,,,,,,,,2023-08-16_08h36.44.911,HF_wild_card,2022.2.4,Win32,60.12506013,63f1bdcac90b79cd273a2d5c,64d2fd46c836a06233681665,64dc7c750db31b126fbe898e,,,,,,,decisionTrl,resources/DR.BMP,resources/DB.BMP,Door3,0.25462963,0.032407407,1,0,0,1.8962,optionRight,70,8270,4,21,0,21,0,1,,,,,,,,,,,,,,,,,,,,,,,,,,,,,,,,,,,,,,,
,,,,,,,,2023-08-16_08h36.44.911,HF_wild_card,2022.2.4,Win32,60.12506013,63f1bdcac90b79cd273a2d5c,64d2fd46c836a06233681665,64dc7c750db31b126fbe898e,,,,,,,decisionTrl,resources/DB.BMP,resources/DR.BMP,Door3,-0.312962956,-0.027777778,1,0,0,1.063,optionLeft,70,8340,4,22,0,22,0,1,,,,,,,,,,,,,,,,,,,,,,,,,,,,,,,,,,,,,,,
,,,,,,,,2023-08-16_08h36.44.911,HF_wild_card,2022.2.4,Win32,60.12506013,63f1bdcac90b79cd273a2d5c,64d2fd46c836a06233681665,64dc7c750db31b126fbe898e,,,,,,,decisionTrl,resources/DR.BMP,resources/DB.BMP,Door3,0.224074116,0.002777771,1,0,0,1.0132,optionRight,70,8410,4,23,0,23,0,1,,,,,,,,,,,,,,,,,,,,,,,,,,,,,,,,,,,,,,,
,,,,,,,,2023-08-16_08h36.44.911,HF_wild_card,2022.2.4,Win32,60.12506013,63f1bdcac90b79cd273a2d5c,64d2fd46c836a06233681665,64dc7c750db31b126fbe898e,,,,,,,sngl,resources/DR.BMP,resources/Empty.png,Door4,-0.187962921,0.008333312,1,0,0,0.9101,optionLeft,60,8470,4,24,0,24,0,1,,,,,,,,,,,,,,,,,,,,,,,,,,,,,,,,,,,,,,,
,,,,,,,,2023-08-16_08h36.44.911,HF_wild_card,2022.2.4,Win32,60.12506013,63f1bdcac90b79cd273a2d5c,64d2fd46c836a06233681665,64dc7c750db31b126fbe898e,,,,,,,decisionTrl,resources/DP.BMP,resources/DG.BMP,Door2,0.248148176,0.041666667,1,0,0,1.8005,optionRight,40,8510,4,25,0,25,0,1,,,,,,,,,,,,,,,,,,,,,,,,,,,,,,,,,,,,,,,
,,,,,,,,2023-08-16_08h36.44.911,HF_wild_card,2022.2.4,Win32,60.12506013,63f1bdcac90b79cd273a2d5c,64d2fd46c836a06233681665,64dc7c750db31b126fbe898e,,,,,,,sngl,resources/Empty.png,resources/DBN.BMP,WildCard_NonEx,0.220370399,0.034259266,1,0,0,0.9131,optionRight,45,8555,4,26,0,26,0,1,,,,,,,,,,,,,,,,,,,,,,,,,,,,,,,,,,,,,,,
,,,,,,,,2023-08-16_08h36.44.911,HF_wild_card,2022.2.4,Win32,60.12506013,63f1bdcac90b79cd273a2d5c,64d2fd46c836a06233681665,64dc7c750db31b126fbe898e,,,,,,,sngl,resources/Empty.png,resources/DG.BMP,Door2,0.239814829,0.032407407,1,0,0,0.9767,optionRight,40,8595,4,27,0,27,0,1,,,,,,,,,,,,,,,,,,,,,,,,,,,,,,,,,,,,,,,
,,,,,,,,2023-08-16_08h36.44.911,HF_wild_card,2022.2.4,Win32,60.12506013,63f1bdcac90b79cd273a2d5c,64d2fd46c836a06233681665,64dc7c750db31b126fbe898e,,,,,,,decisionTrl,resources/DR.BMP,resources/DB.BMP,Door3,0.25,0.057407414,1,0,0,1.5841,optionRight,70,8665,4,28,0,28,0,1,,,,,,,,,,,,,,,,,,,,,,,,,,,,,,,,,,,,,,,
,,,,,,,,2023-08-16_08h36.44.911,HF_wild_card,2022.2.4,Win32,60.12506013,63f1bdcac90b79cd273a2d5c,64d2fd46c836a06233681665,64dc7c750db31b126fbe898e,,,,,,,decisionTrl,resources/DB.BMP,resources/DBN.BMP,Door3,-0.318518497,0.0074074,1,0,0,1.4799,optionLeft,70,8735,4,29,0,29,0,1,,,,,,,,,,,,,,,,,,,,,,,,,,,,,,,,,,,,,,,
,,,,,,,,2023-08-16_08h36.44.911,HF_wild_card,2022.2.4,Win32,60.12506013,63f1bdcac90b79cd273a2d5c,64d2fd46c836a06233681665,64dc7c750db31b126fbe898e,,,,,,,decisionTrl,resources/DR.BMP,resources/DBN.BMP,WildCard_NonEx,0.22592594,0.027777778,1,0,0,1.7127,optionRight,55,8790,4,30,0,30,0,1,,,,,,,,,,,,,,,,,,,,,,,,,,,,,,,,,,,,,,,
,,,,,,,,2023-08-16_08h36.44.911,HF_wild_card,2022.2.4,Win32,60.12506013,63f1bdcac90b79cd273a2d5c,64d2fd46c836a06233681665,64dc7c750db31b126fbe898e,,,,,,,ctch,resources/DP.BMP,resources/DR.BMP,Door4,0.217592593,0.063888868,1,0,0,1.9284,optionRight,80,8870,4,31,0,31,0,1,,,,,,,,,,,,,,,,,,,,,,,,,,,,,,,,,,,,,,,
,,,,,,,,2023-08-16_08h36.44.911,HF_wild_card,2022.2.4,Win32,60.12506013,63f1bdcac90b79cd273a2d5c,64d2fd46c836a06233681665,64dc7c750db31b126fbe898e,,,,,,,sngl,resources/DB.BMP,resources/Empty.png,Door3,-0.321296303,0.01944443,1,0,0,0.7519,optionLeft,70,8940,4,32,0,32,0,1,,,,,,,,,,,,,,,,,,,,,,,,,,,,,,,,,,,,,,,
,,,,,,,,2023-08-16_08h36.44.911,HF_wild_card,2022.2.4,Win32,60.12506013,63f1bdcac90b79cd273a2d5c,64d2fd46c836a06233681665,64dc7c750db31b126fbe898e,,,,,,,ctch,resources/DG.BMP,resources/DB.BMP,Door3,0.227777764,0.050925926,1,0,0,1.601,optionRight,70,9010,4,33,0,33,0,1,,,,,,,,,,,,,,,,,,,,,,,,,,,,,,,,,,,,,,,
,,,,,,,,2023-08-16_08h36.44.911,HF_wild_card,2022.2.4,Win32,60.12506013,63f1bdcac90b79cd273a2d5c,64d2fd46c836a06233681665,64dc7c750db31b126fbe898e,,,,,,,decisionTrl,resources/DP.BMP,resources/DG.BMP,Door2,0.164814843,0.037037037,1,0,0,0.861,optionRight,20,9030,4,34,0,34,0,1,,,,,,,,,,,,,,,,,,,,,,,,,,,,,,,,,,,,,,,
,,,,,,,,2023-08-16_08h36.44.911,HF_wild_card,2022.2.4,Win32,60.12506013,63f1bdcac90b79cd273a2d5c,64d2fd46c836a06233681665,64dc7c750db31b126fbe898e,,,,,,,decisionTrl,resources/DBN.BMP,resources/DG.BMP,WildCard_NonEx,-0.17314812,0.003703683,1,0,0,0.9101,optionLeft,55,9085,4,35,0,35,0,1,,,,,,,,,,,,,,,,,,,,,,,,,,,,,,,,,,,,,,,
,,,,,,,,2023-08-16_08h36.44.911,HF_wild_card,2022.2.4,Win32,60.12506013,63f1bdcac90b79cd273a2d5c,64d2fd46c836a06233681665,64dc7c750db31b126fbe898e,,,,,,,ctch,resources/DR.BMP,resources/DP.BMP,Door4,-0.262036995,-0.014814836,1,0,0,1.2602,optionLeft,60,9145,4,36,0,36,0,1,,,,,,,,,,,,,,,,,,,,,,,,,,,,,,,,,,,,,,,
,,,,,,,,2023-08-16_08h36.44.911,HF_wild_card,2022.2.4,Win32,60.12506013,63f1bdcac90b79cd273a2d5c,64d2fd46c836a06233681665,64dc7c750db31b126fbe898e,,,,,,,decisionTrl,resources/DB.BMP,resources/DR.BMP,Door3,-0.255555541,0.00462963,1,0,0,0.9777,optionLeft,70,9215,4,37,0,37,0,1,,,,,,,,,,,,,,,,,,,,,,,,,,,,,,,,,,,,,,,
,,,,,,,,2023-08-16_08h36.44.911,HF_wild_card,2022.2.4,Win32,60.12506013,63f1bdcac90b79cd273a2d5c,64d2fd46c836a06233681665,64dc7c750db31b126fbe898e,,,,,,,sngl,resources/Empty.png,resources/DBN.BMP,WildCard_NonEx,0.161111125,0.062037044,1,0,0,0.8509,optionRight,55,9270,4,38,0,38,0,1,,,,,,,,,,,,,,,,,,,,,,,,,,,,,,,,,,,,,,,
,,,,,,,,2023-08-16_08h36.44.911,HF_wild_card,2022.2.4,Win32,60.12506013,63f1bdcac90b79cd273a2d5c,64d2fd46c836a06233681665,64dc7c750db31b126fbe898e,,,,,,,sngl,resources/Empty.png,resources/DB.BMP,Door3,0.147222236,0.04074072,1,0,0,0.8799,optionRight,70,9340,4,39,0,39,0,1,,,,,,,,,,,,,,,,,,,,,,,,,,,,,,,,,,,,,,,
,,,,,,,,2023-08-16_08h36.44.911,HF_wild_card,2022.2.4,Win32,60.12506013,63f1bdcac90b79cd273a2d5c,64d2fd46c836a06233681665,64dc7c750db31b126fbe898e,,,,,,,decisionTrl,resources/DB.BMP,resources/DR.BMP,Door4,0.273148148,0.047222208,1,0,0,0.9133,optionRight,80,9420,4,40,0,40,0,1,,,,,,,,,,,,,,,,,,,,,,,,,,,,,,,,,,,,,,,
,,,,,,,,2023-08-16_08h36.44.911,HF_wild_card,2022.2.4,Win32,60.12506013,63f1bdcac90b79cd273a2d5c,64d2fd46c836a06233681665,64dc7c750db31b126fbe898e,,,,,,,ctch,resources/DB.BMP,resources/DG.BMP,Door3,-0.213888875,-0.022222236,1,0,0,1.8965,optionLeft,70,9490,4,41,0,41,0,1,,,,,,,,,,,,,,,,,,,,,,,,,,,,,,,,,,,,,,,
,,,,,,,,2023-08-16_08h36.44.911,HF_wild_card,2022.2.4,Win32,60.12506013,63f1bdcac90b79cd273a2d5c,64d2fd46c836a06233681665,64dc7c750db31b126fbe898e,,,,,,,ctch,resources/DB.BMP,resources/DG.BMP,Door3,-0.179629644,-0.020370377,1,0,0,2.0129,optionLeft,70,9560,4,42,0,42,0,1,,,,,,,,,,,,,,,,,,,,,,,,,,,,,,,,,,,,,,,
,,,,,,,,2023-08-16_08h36.44.911,HF_wild_card,2022.2.4,Win32,60.12506013,63f1bdcac90b79cd273a2d5c,64d2fd46c836a06233681665,64dc7c750db31b126fbe898e,,,,,,,decisionTrl,resources/DG.BMP,resources/DBN.BMP,Door2,-0.186111097,0.01203703,1,0,0,1.4293,optionLeft,40,9600,4,43,0,43,0,1,,,,,,,,,,,,,,,,,,,,,,,,,,,,,,,,,,,,,,,
,,,,,,,,2023-08-16_08h36.44.911,HF_wild_card,2022.2.4,Win32,60.12506013,63f1bdcac90b79cd273a2d5c,64d2fd46c836a06233681665,64dc7c750db31b126fbe898e,,,,,,,,,,,,,,,,,,,,,,,,,,3,0,3,0,1,,,,,,,,,,,,,,,,,,,,,,,,,,,,,,,,,,
,,,,,,,,2023-08-16_08h36.44.911,HF_wild_card,2022.2.4,Win32,60.12506013,63f1bdcac90b79cd273a2d5c,64d2fd46c836a06233681665,64dc7c750db31b126fbe898e,,,,,,,decisionTrl,resources/DR.BMP,resources/DB.BMP,Door3,0.289814843,-0.10092594,1,0,0,1.2545,optionRight,70,9670,5,0,0,0,0,1,,,,,,,,,,,,,,,,,,,,,,,,,,,,,,,,,,,,,,,
,,,,,,,,2023-08-16_08h36.44.911,HF_wild_card,2022.2.4,Win32,60.12506013,63f1bdcac90b79cd273a2d5c,64d2fd46c836a06233681665,64dc7c750db31b126fbe898e,,,,,,,sngl,resources/Empty.png,resources/DG.BMP,Door2,0.268518519,0.081481474,1,0,0,0.8144,optionRight,20,9690,5,1,0,1,0,1,,,,,,,,,,,,,,,,,,,,,,,,,,,,,,,,,,,,,,,
,,,,,,,,2023-08-16_08h36.44.911,HF_wild_card,2022.2.4,Win32,60.12506013,63f1bdcac90b79cd273a2d5c,64d2fd46c836a06233681665,64dc7c750db31b126fbe898e,,,,,,,decisionTrl,resources/DB.BMP,resources/DR.BMP,Door4,0.319444444,0.056481467,1,0,0,1.0766,optionRight,60,9750,5,2,0,2,0,1,,,,,,,,,,,,,,,,,,,,,,,,,,,,,,,,,,,,,,,
,,,,,,,,2023-08-16_08h36.44.911,HF_wild_card,2022.2.4,Win32,60.12506013,63f1bdcac90b79cd273a2d5c,64d2fd46c836a06233681665,64dc7c750db31b126fbe898e,,,,,,,decisionTrl,resources/DP.BMP,resources/DG.BMP,Door1,-0.214814787,-0.049074067,1,0,0,1.3462,optionLeft,30,9780,5,3,0,3,0,1,,,,,,,,,,,,,,,,,,,,,,,,,,,,,,,,,,,,,,,
,,,,,,,,2023-08-16_08h36.44.911,HF_wild_card,2022.2.4,Win32,60.12506013,63f1bdcac90b79cd273a2d5c,64d2fd46c836a06233681665,64dc7c750db31b126fbe898e,,,,,,,decisionTrl,resources/DB.BMP,resources/DR.BMP,Door4,0.272222236,0.069444444,1,0,0,2.4117,optionRight,60,9840,5,4,0,4,0,1,,,,,,,,,,,,,,,,,,,,,,,,,,,,,,,,,,,,,,,
,,,,,,,,2023-08-16_08h36.44.911,HF_wild_card,2022.2.4,Win32,60.12506013,63f1bdcac90b79cd273a2d5c,64d2fd46c836a06233681665,64dc7c750db31b126fbe898e,,,,,,,decisionTrl,resources/DB.BMP,resources/DBN.BMP,Door3,-0.237962935,-0.01203703,1,0,0,2.3222,optionLeft,70,9910,5,5,0,5,0,1,,,,,,,,,,,,,,,,,,,,,,,,,,,,,,,,,,,,,,,
,,,,,,,,2023-08-16_08h36.44.911,HF_wild_card,2022.2.4,Win32,60.12506013,63f1bdcac90b79cd273a2d5c,64d2fd46c836a06233681665,64dc7c750db31b126fbe898e,,,,,,,decisionTrl,resources/DR.BMP,resources/DB.BMP,Door3,0.215740769,0.063888868,1,0,0,1.5429,optionRight,70,9980,5,6,0,6,0,1,,,,,,,,,,,,,,,,,,,,,,,,,,,,,,,,,,,,,,,
,,,,,,,,2023-08-16_08h36.44.911,HF_wild_card,2022.2.4,Win32,60.12506013,63f1bdcac90b79cd273a2d5c,64d2fd46c836a06233681665,64dc7c750db31b126fbe898e,,,,,,,sngl,resources/Empty.png,resources/DBN.BMP,WildCard_NonEx,0.235185199,0.057407414,1,0,0,0.8829,optionRight,55,10035,5,7,0,7,0,1,,,,,,,,,,,,,,,,,,,,,,,,,,,,,,,,,,,,,,,
,,,,,,,,2023-08-16_08h36.44.911,HF_wild_card,2022.2.4,Win32,60.12506013,63f1bdcac90b79cd273a2d5c,64d2fd46c836a06233681665,64dc7c750db31b126fbe898e,,,,,,,sngl,resources/Empty.png,resources/DB.BMP,Door3,0.352777834,0.101851852,1,0,0,1.3517,optionRight,70,10105,5,8,0,8,0,1,,,,,,,,,,,,,,,,,,,,,,,,,,,,,,,,,,,,,,,
,,,,,,,,2023-08-16_08h36.44.911,HF_wild_card,2022.2.4,Win32,60.12506013,63f1bdcac90b79cd273a2d5c,64d2fd46c836a06233681665,64dc7c750db31b126fbe898e,,,,,,,ctch,resources/DR.BMP,resources/DP.BMP,Door4,-0.143518519,-0.019444466,1,0,0,2.7363,optionLeft,80,10185,5,9,0,9,0,1,,,,,,,,,,,,,,,,,,,,,,,,,,,,,,,,,,,,,,,
,,,,,,,,2023-08-16_08h36.44.911,HF_wild_card,2022.2.4,Win32,60.12506013,63f1bdcac90b79cd273a2d5c,64d2fd46c836a06233681665,64dc7c750db31b126fbe898e,,,,,,,ctch,resources/DB.BMP,resources/DG.BMP,Door3,-0.335185192,-0.037962984,1,0,0,1.1461,optionLeft,70,10255,5,10,0,10,0,1,,,,,,,,,,,,,,,,,,,,,,,,,,,,,,,,,,,,,,,
,,,,,,,,2023-08-16_08h36.44.911,HF_wild_card,2022.2.4,Win32,60.12506013,63f1bdcac90b79cd273a2d5c,64d2fd46c836a06233681665,64dc7c750db31b126fbe898e,,,,,,,ctch,resources/DG.BMP,resources/DB.BMP,Door3,0.318518603,0.061111097,1,0,0,1.0969,optionRight,70,10325,5,11,0,11,0,1,,,,,,,,,,,,,,,,,,,,,,,,,,,,,,,,,,,,,,,
,,,,,,,,2023-08-16_08h36.44.911,HF_wild_card,2022.2.4,Win32,60.12506013,63f1bdcac90b79cd273a2d5c,64d2fd46c836a06233681665,64dc7c750db31b126fbe898e,,,,,,,decisionTrl,resources/DG.BMP,resources/DP.BMP,Door2,-0.204629616,0.002777771,1,0,0,1.3673,optionLeft,20,10345,5,12,0,12,0,1,,,,,,,,,,,,,,,,,,,,,,,,,,,,,,,,,,,,,,,
,,,,,,,,2023-08-16_08h36.44.911,HF_wild_card,2022.2.4,Win32,60.12506013,63f1bdcac90b79cd273a2d5c,64d2fd46c836a06233681665,64dc7c750db31b126fbe898e,,,,,,,decisionTrl,resources/DBN.BMP,resources/DB.BMP,Door3,0.224074116,-0.006481489,1,0,0,1.6765,optionRight,70,10415,5,13,0,13,0,1,,,,,,,,,,,,,,,,,,,,,,,,,,,,,,,,,,,,,,,
,,,,,,,,2023-08-16_08h36.44.911,HF_wild_card,2022.2.4,Win32,60.12506013,63f1bdcac90b79cd273a2d5c,64d2fd46c836a06233681665,64dc7c750db31b126fbe898e,,,,,,,sngl,resources/DG.BMP,resources/Empty.png,Door2,-0.210185157,-0.015740748,1,0,0,1.9796,optionLeft,40,10455,5,14,0,14,0,1,,,,,,,,,,,,,,,,,,,,,,,,,,,,,,,,,,,,,,,
,,,,,,,,2023-08-16_08h36.44.911,HF_wild_card,2022.2.4,Win32,60.12506013,63f1bdcac90b79cd273a2d5c,64d2fd46c836a06233681665,64dc7c750db31b126fbe898e,,,,,,,decisionTrl,resources/DG.BMP,resources/DP.BMP,Door1,0.232407393,0.030555548,1,0,0,1.0635,optionRight,30,10485,5,15,0,15,0,1,,,,,,,,,,,,,,,,,,,,,,,,,,,,,,,,,,,,,,,
,,,,,,,,2023-08-16_08h36.44.911,HF_wild_card,2022.2.4,Win32,60.12506013,63f1bdcac90b79cd273a2d5c,64d2fd46c836a06233681665,64dc7c750db31b126fbe898e,,,,,,,decisionTrl,resources/DP.BMP,resources/DG.BMP,Door2,0.311111168,0.072222215,1,0,0,1.197,optionRight,40,10525,5,16,0,16,0,1,,,,,,,,,,,,,,,,,,,,,,,,,,,,,,,,,,,,,,,
,,,,,,,,2023-08-16_08h36.44.911,HF_wild_card,2022.2.4,Win32,60.12506013,63f1bdcac90b79cd273a2d5c,64d2fd46c836a06233681665,64dc7c750db31b126fbe898e,,,,,,,decisionTrl,resources/DP.BMP,resources/DBN.BMP,WildCard_NonEx,0.24537037,0.030555548,1,0,0,2.0632,optionRight,55,10580,5,17,0,17,0,1,,,,,,,,,,,,,,,,,,,,,,,,,,,,,,,,,,,,,,,
,,,,,,,,2023-08-16_08h36.44.911,HF_wild_card,2022.2.4,Win32,60.12506013,63f1bdcac90b79cd273a2d5c,64d2fd46c836a06233681665,64dc7c750db31b126fbe898e,,,,,,,sngl,resources/Empty.png,resources/DBN.BMP,WildCard_NonEx,0.262037065,-0.013888889,1,0,0,0.9103,optionRight,45,10625,5,18,0,18,0,1,,,,,,,,,,,,,,,,,,,,,,,,,,,,,,,,,,,,,,,
,,,,,,,,2023-08-16_08h36.44.911,HF_wild_card,2022.2.4,Win32,60.12506013,63f1bdcac90b79cd273a2d5c,64d2fd46c836a06233681665,64dc7c750db31b126fbe898e,,,,,,,decisionTrl,resources/DG.BMP,resources/DBN.BMP,WildCard_NonEx,0.12962963,0.021296289,1,0,0,3.303,optionRight,55,10680,5,19,0,19,0,1,,,,,,,,,,,,,,,,,,,,,,,,,,,,,,,,,,,,,,,
,,,,,,,,2023-08-16_08h36.44.911,HF_wild_card,2022.2.4,Win32,60.12506013,63f1bdcac90b79cd273a2d5c,64d2fd46c836a06233681665,64dc7c750db31b126fbe898e,,,,,,,decisionTrl,resources/DG.BMP,resources/DP.BMP,Door2,-0.24537037,-0.003703718,1,0,0,1.3965,optionLeft,40,10720,5,20,0,20,0,1,,,,,,,,,,,,,,,,,,,,,,,,,,,,,,,,,,,,,,,
,,,,,,,,2023-08-16_08h36.44.911,HF_wild_card,2022.2.4,Win32,60.12506013,63f1bdcac90b79cd273a2d5c,64d2fd46c836a06233681665,64dc7c750db31b126fbe898e,,,,,,,sngl,resources/DP.BMP,resources/Empty.png,Door1,-0.206481439,-0.034259266,1,0,0,0.9261,optionLeft,30,10750,5,21,0,21,0,1,,,,,,,,,,,,,,,,,,,,,,,,,,,,,,,,,,,,,,,
,,,,,,,,2023-08-16_08h36.44.911,HF_wild_card,2022.2.4,Win32,60.12506013,63f1bdcac90b79cd273a2d5c,64d2fd46c836a06233681665,64dc7c750db31b126fbe898e,,,,,,,ctch,resources/DP.BMP,resources/DR.BMP,Door4,0.195370356,0.025925919,1,0,0,1.7783,optionRight,80,10830,5,22,0,22,0,1,,,,,,,,,,,,,,,,,,,,,,,,,,,,,,,,,,,,,,,
,,,,,,,,2023-08-16_08h36.44.911,HF_wild_card,2022.2.4,Win32,60.12506013,63f1bdcac90b79cd273a2d5c,64d2fd46c836a06233681665,64dc7c750db31b126fbe898e,,,,,,,ctch,resources/DP.BMP,resources/DR.BMP,Door4,0.286111125,0.058333326,1,0,0,1.0019,optionRight,80,10910,5,23,0,23,0,1,,,,,,,,,,,,,,,,,,,,,,,,,,,,,,,,,,,,,,,
,,,,,,,,2023-08-16_08h36.44.911,HF_wild_card,2022.2.4,Win32,60.12506013,63f1bdcac90b79cd273a2d5c,64d2fd46c836a06233681665,64dc7c750db31b126fbe898e,,,,,,,sngl,resources/DR.BMP,resources/Empty.png,Door4,-0.183333291,-0.011111118,1,0,0,0.8469,optionLeft,80,10990,5,24,0,24,0,1,,,,,,,,,,,,,,,,,,,,,,,,,,,,,,,,,,,,,,,
,,,,,,,,2023-08-16_08h36.44.911,HF_wild_card,2022.2.4,Win32,60.12506013,63f1bdcac90b79cd273a2d5c,64d2fd46c836a06233681665,64dc7c750db31b126fbe898e,,,,,,,decisionTrl,resources/DR.BMP,resources/DB.BMP,Door3,0.287962949,0.012962942,1,0,0,0.999,optionRight,70,11060,5,25,0,25,0,1,,,,,,,,,,,,,,,,,,,,,,,,,,,,,,,,,,,,,,,
,,,,,,,,2023-08-16_08h36.44.911,HF_wild_card,2022.2.4,Win32,60.12506013,63f1bdcac90b79cd273a2d5c,64d2fd46c836a06233681665,64dc7c750db31b126fbe898e,,,,,,,decisionTrl,resources/DR.BMP,resources/DB.BMP,Door4,-0.261111083,-0.010185206,1,0,0,1.245,optionLeft,80,11140,5,26,0,26,0,1,,,,,,,,,,,,,,,,,,,,,,,,,,,,,,,,,,,,,,,
,,,,,,,,2023-08-16_08h36.44.911,HF_wild_card,2022.2.4,Win32,60.12506013,63f1bdcac90b79cd273a2d5c,64d2fd46c836a06233681665,64dc7c750db31b126fbe898e,,,,,,,ctch,resources/DB.BMP,resources/DG.BMP,Door3,-0.22129631,-0.036111125,1,0,0,1.5461,optionLeft,70,11210,5,27,0,27,0,1,,,,,,,,,,,,,,,,,,,,,,,,,,,,,,,,,,,,,,,
,,,,,,,,2023-08-16_08h36.44.911,HF_wild_card,2022.2.4,Win32,60.12506013,63f1bdcac90b79cd273a2d5c,64d2fd46c836a06233681665,64dc7c750db31b126fbe898e,,,,,,,sngl,resources/Empty.png,resources/DP.BMP,Door1,0.211111139,0.04074072,1,0,0,0.8184,optionRight,30,11240,5,28,0,28,0,1,,,,,,,,,,,,,,,,,,,,,,,,,,,,,,,,,,,,,,,
,,,,,,,,2023-08-16_08h36.44.911,HF_wild_card,2022.2.4,Win32,60.12506013,63f1bdcac90b79cd273a2d5c,64d2fd46c836a06233681665,64dc7c750db31b126fbe898e,,,,,,,decisionTrl,resources/DB.BMP,resources/DR.BMP,Door4,0.18240745,0.015740748,1,0,0,1.696,optionRight,80,11320,5,29,0,29,0,1,,,,,,,,,,,,,,,,,,,,,,,,,,,,,,,,,,,,,,,
,,,,,,,,2023-08-16_08h36.44.911,HF_wild_card,2022.2.4,Win32,60.12506013,63f1bdcac90b79cd273a2d5c,64d2fd46c836a06233681665,64dc7c750db31b126fbe898e,,,,,,,decisionTrl,resources/DB.BMP,resources/DR.BMP,Door4,0.23055557,0.01666666,1,0,0,1.1297,optionRight,80,11400,5,30,0,30,0,1,,,,,,,,,,,,,,,,,,,,,,,,,,,,,,,,,,,,,,,
,,,,,,,,2023-08-16_08h36.44.911,HF_wild_card,2022.2.4,Win32,60.12506013,63f1bdcac90b79cd273a2d5c,64d2fd46c836a06233681665,64dc7c750db31b126fbe898e,,,,,,,decisionTrl,resources/DBN.BMP,resources/DG.BMP,WildCard_NonEx,-0.152777778,-0.010185206,1,0,0,1.2965,optionLeft,45,11445,5,31,0,31,0,1,,,,,,,,,,,,,,,,,,,,,,,,,,,,,,,,,,,,,,,
,,,,,,,,2023-08-16_08h36.44.911,HF_wild_card,2022.2.4,Win32,60.12506013,63f1bdcac90b79cd273a2d5c,64d2fd46c836a06233681665,64dc7c750db31b126fbe898e,,,,,,,decisionTrl,resources/DR.BMP,resources/DBN.BMP,Door4,-0.236111111,-0.020370377,1,0,0,1.634,optionLeft,60,11505,5,32,0,32,0,1,,,,,,,,,,,,,,,,,,,,,,,,,,,,,,,,,,,,,,,
,,,,,,,,2023-08-16_08h36.44.911,HF_wild_card,2022.2.4,Win32,60.12506013,63f1bdcac90b79cd273a2d5c,64d2fd46c836a06233681665,64dc7c750db31b126fbe898e,,,,,,,sngl,resources/DBN.BMP,resources/Empty.png,WildCard_NonEx,-0.214814787,-0.018518519,1,0,0,0.8301,optionLeft,55,11560,5,33,0,33,0,1,,,,,,,,,,,,,,,,,,,,,,,,,,,,,,,,,,,,,,,
,,,,,,,,2023-08-16_08h36.44.911,HF_wild_card,2022.2.4,Win32,60.12506013,63f1bdcac90b79cd273a2d5c,64d2fd46c836a06233681665,64dc7c750db31b126fbe898e,,,,,,,decisionTrl,resources/DBN.BMP,resources/DR.BMP,Door4,0.296296296,0.054629608,1,0,0,0.8964,optionRight,60,11620,5,34,0,34,0,1,,,,,,,,,,,,,,,,,,,,,,,,,,,,,,,,,,,,,,,
,,,,,,,,2023-08-16_08h36.44.911,HF_wild_card,2022.2.4,Win32,60.12506013,63f1bdcac90b79cd273a2d5c,64d2fd46c836a06233681665,64dc7c750db31b126fbe898e,,,,,,,ctch,resources/DG.BMP,resources/DB.BMP,Door3,0.272222236,0.051851838,1,0,0,1.2131,optionRight,70,11690,5,35,0,35,0,1,,,,,,,,,,,,,,,,,,,,,,,,,,,,,,,,,,,,,,,
,,,,,,,,2023-08-16_08h36.44.911,HF_wild_card,2022.2.4,Win32,60.12506013,63f1bdcac90b79cd273a2d5c,64d2fd46c836a06233681665,64dc7c750db31b126fbe898e,,,,,,,decisionTrl,resources/DP.BMP,resources/DG.BMP,Door2,0.155555584,0.02870369,1,0,0,2.2129,optionRight,20,11710,5,36,0,36,0,1,,,,,,,,,,,,,,,,,,,,,,,,,,,,,,,,,,,,,,,
,,,,,,,,2023-08-16_08h36.44.911,HF_wild_card,2022.2.4,Win32,60.12506013,63f1bdcac90b79cd273a2d5c,64d2fd46c836a06233681665,64dc7c750db31b126fbe898e,,,,,,,sngl,resources/Empty.png,resources/DR.BMP,Door4,0.246296282,0.050925926,1,0,0,0.8634,optionRight,60,11770,5,37,0,37,0,1,,,,,,,,,,,,,,,,,,,,,,,,,,,,,,,,,,,,,,,
,,,,,,,,2023-08-16_08h36.44.911,HF_wild_card,2022.2.4,Win32,60.12506013,63f1bdcac90b79cd273a2d5c,64d2fd46c836a06233681665,64dc7c750db31b126fbe898e,,,,,,,decisionTrl,resources/DBN.BMP,resources/DP.BMP,WildCard_NonEx,-0.262036995,-0.020370377,1,0,0,1.3301,optionLeft,45,11815,5,38,0,38,0,1,,,,,,,,,,,,,,,,,,,,,,,,,,,,,,,,,,,,,,,
,,,,,,,,2023-08-16_08h36.44.911,HF_wild_card,2022.2.4,Win32,60.12506013,63f1bdcac90b79cd273a2d5c,64d2fd46c836a06233681665,64dc7c750db31b126fbe898e,,,,,,,ctch,resources/DR.BMP,resources/DP.BMP,Door4,-0.291666667,-0.035185178,1,0,0,1.2634,optionLeft,60,11875,5,39,0,39,0,1,,,,,,,,,,,,,,,,,,,,,,,,,,,,,,,,,,,,,,,
,,,,,,,,2023-08-16_08h36.44.911,HF_wild_card,2022.2.4,Win32,60.12506013,63f1bdcac90b79cd273a2d5c,64d2fd46c836a06233681665,64dc7c750db31b126fbe898e,,,,,,,sngl,resources/DB.BMP,resources/Empty.png,Door3,-0.210185157,-0.006481489,1,0,0,0.7629,optionLeft,70,11945,5,40,0,40,0,1,,,,,,,,,,,,,,,,,,,,,,,,,,,,,,,,,,,,,,,
,,,,,,,,2023-08-16_08h36.44.911,HF_wild_card,2022.2.4,Win32,60.12506013,63f1bdcac90b79cd273a2d5c,64d2fd46c836a06233681665,64dc7c750db31b126fbe898e,,,,,,,decisionTrl,resources/DG.BMP,resources/DP.BMP,Door1,0.22592594,0.054629608,1,0,0,2.514,optionRight,30,11975,5,41,0,41,0,1,,,,,,,,,,,,,,,,,,,,,,,,,,,,,,,,,,,,,,,
,,,,,,,,2023-08-16_08h36.44.911,HF_wild_card,2022.2.4,Win32,60.12506013,63f1bdcac90b79cd273a2d5c,64d2fd46c836a06233681665,64dc7c750db31b126fbe898e,,,,,,,decisionTrl,resources/DP.BMP,resources/DG.BMP,Door2,0.309259344,0.051851838,1,0,0,1.2145,optionRight,40,12015,5,42,0,42,0,1,,,,,,,,,,,,,,,,,,,,,,,,,,,,,,,,,,,,,,,
,,,,,,,,2023-08-16_08h36.44.911,HF_wild_card,2022.2.4,Win32,60.12506013,63f1bdcac90b79cd273a2d5c,64d2fd46c836a06233681665,64dc7c750db31b126fbe898e,,,,,,,sngl,resources/DBN.BMP,resources/Empty.png,WildCard_NonEx,-0.240740741,-0.034259266,1,0,0,0.8968,optionLeft,45,12060,5,43,0,43,0,1,,,,,,,,,,,,,,,,,,,,,,,,,,,,,,,,,,,,,,,
,,,,,,,,2023-08-16_08h36.44.911,HF_wild_card,2022.2.4,Win32,60.12506013,63f1bdcac90b79cd273a2d5c,64d2fd46c836a06233681665,64dc7c750db31b126fbe898e,,,,,,,,,,,,,,,,,,,,,,,,,,4,0,4,0,1,,,,,,,,,,,,,,,,,,,,,,,,,,,,,,,,,,
,,,,,,,,2023-08-16_08h36.44.911,HF_wild_card,2022.2.4,Win32,60.12506013,63f1bdcac90b79cd273a2d5c,64d2fd46c836a06233681665,64dc7c750db31b126fbe898e,,,,,,,sngl,resources/DG.BMP,resources/Empty.png,Door2,-0.349999993,-0.098148134,1,0,0,1.2372,optionLeft,20,12080,6,0,0,0,0,1,,,,,,,,,,,,,,,,,,,,,,,,,,,,,,,,,,,,,,,
,,,,,,,,2023-08-16_08h36.44.911,HF_wild_card,2022.2.4,Win32,60.12506013,63f1bdcac90b79cd273a2d5c,64d2fd46c836a06233681665,64dc7c750db31b126fbe898e,,,,,,,ctch,resources/DR.BMP,resources/DP.BMP,Door4,-0.312037044,-0.021296289,1,0,0,1.1961,optionLeft,60,12140,6,1,0,1,0,1,,,,,,,,,,,,,,,,,,,,,,,,,,,,,,,,,,,,,,,
,,,,,,,,2023-08-16_08h36.44.911,HF_wild_card,2022.2.4,Win32,60.12506013,63f1bdcac90b79cd273a2d5c,64d2fd46c836a06233681665,64dc7c750db31b126fbe898e,,,,,,,ctch,resources/DG.BMP,resources/DB.BMP,Door3,0.276851866,0.037962949,1,0,0,2.2281,optionRight,70,12210,6,2,0,2,0,1,,,,,,,,,,,,,,,,,,,,,,,,,,,,,,,,,,,,,,,
,,,,,,,,2023-08-16_08h36.44.911,HF_wild_card,2022.2.4,Win32,60.12506013,63f1bdcac90b79cd273a2d5c,64d2fd46c836a06233681665,64dc7c750db31b126fbe898e,,,,,,,decisionTrl,resources/DBN.BMP,resources/DP.BMP,WildCard_NonEx,-0.263888889,-0.018518519,1,0,0,1.3595,optionLeft,45,12255,6,3,0,3,0,1,,,,,,,,,,,,,,,,,,,,,,,,,,,,,,,,,,,,,,,
,,,,,,,,2023-08-16_08h36.44.911,HF_wild_card,2022.2.4,Win32,60.12506013,63f1bdcac90b79cd273a2d5c,64d2fd46c836a06233681665,64dc7c750db31b126fbe898e,,,,,,,decisionTrl,resources/DP.BMP,resources/DG.BMP,Door2,0.250925912,0.070370356,1,0,0,1.8273,optionRight,20,12275,6,4,0,4,0,1,,,,,,,,,,,,,,,,,,,,,,,,,,,,,,,,,,,,,,,
,,,,,,,,2023-08-16_08h36.44.911,HF_wild_card,2022.2.4,Win32,60.12506013,63f1bdcac90b79cd273a2d5c,64d2fd46c836a06233681665,64dc7c750db31b126fbe898e,,,,,,,ctch,resources/DP.BMP,resources/DR.BMP,Door4,0.199074074,-0.014814836,1,0,0,2.1428,optionRight,80,12355,6,5,0,5,0,1,,,,,,,,,,,,,,,,,,,,,,,,,,,,,,,,,,,,,,,
,,,,,,,,2023-08-16_08h36.44.911,HF_wild_card,2022.2.4,Win32,60.12506013,63f1bdcac90b79cd273a2d5c,64d2fd46c836a06233681665,64dc7c750db31b126fbe898e,,,,,,,decisionTrl,resources/DG.BMP,resources/DP.BMP,Door1,0.262037065,0.063888868,1,0,0,1.6962,optionRight,30,12385,6,6,0,6,0,1,,,,,,,,,,,,,,,,,,,,,,,,,,,,,,,,,,,,,,,
,,,,,,,,2023-08-16_08h36.44.911,HF_wild_card,2022.2.4,Win32,60.12506013,63f1bdcac90b79cd273a2d5c,64d2fd46c836a06233681665,64dc7c750db31b126fbe898e,,,,,,,decisionTrl,resources/DBN.BMP,resources/DR.BMP,Door4,0.335185157,0.058333326,1,0,0,2.2294,optionRight,80,12465,6,7,0,7,0,1,,,,,,,,,,,,,,,,,,,,,,,,,,,,,,,,,,,,,,,
,,,,,,,,2023-08-16_08h36.44.911,HF_wild_card,2022.2.4,Win32,60.12506013,63f1bdcac90b79cd273a2d5c,64d2fd46c836a06233681665,64dc7c750db31b126fbe898e,,,,,,,sngl,resources/Empty.png,resources/DBN.BMP,WildCard_NonEx,0.239814829,-0.002777771,1,0,0,1.6314,optionRight,45,12510,6,8,0,8,0,1,,,,,,,,,,,,,,,,,,,,,,,,,,,,,,,,,,,,,,,
,,,,,,,,2023-08-16_08h36.44.911,HF_wild_card,2022.2.4,Win32,60.12506013,63f1bdcac90b79cd273a2d5c,64d2fd46c836a06233681665,64dc7c750db31b126fbe898e,,,,,,,decisionTrl,resources/DP.BMP,resources/DG.BMP,Door1,-0.194444444,-0.038888896,1,0,0,1.8614,optionLeft,30,12540,6,9,0,9,0,1,,,,,,,,,,,,,,,,,,,,,,,,,,,,,,,,,,,,,,,
,,,,,,,,2023-08-16_08h36.44.911,HF_wild_card,2022.2.4,Win32,60.12506013,63f1bdcac90b79cd273a2d5c,64d2fd46c836a06233681665,64dc7c750db31b126fbe898e,,,,,,,ctch,resources/DB.BMP,resources/DG.BMP,Door3,-0.216666681,-0.019444466,1,0,0,1.4131,optionLeft,70,12610,6,10,0,10,0,1,,,,,,,,,,,,,,,,,,,,,,,,,,,,,,,,,,,,,,,
,,,,,,,,2023-08-16_08h36.44.911,HF_wild_card,2022.2.4,Win32,60.12506013,63f1bdcac90b79cd273a2d5c,64d2fd46c836a06233681665,64dc7c750db31b126fbe898e,,,,,,,decisionTrl,resources/DB.BMP,resources/DR.BMP,Door4,0.309259344,0.054629608,1,0,0,1.7937,optionRight,80,12690,6,11,0,11,0,1,,,,,,,,,,,,,,,,,,,,,,,,,,,,,,,,,,,,,,,
,,,,,,,,2023-08-16_08h36.44.911,HF_wild_card,2022.2.4,Win32,60.12506013,63f1bdcac90b79cd273a2d5c,64d2fd46c836a06233681665,64dc7c750db31b126fbe898e,,,,,,,decisionTrl,resources/DP.BMP,resources/DG.BMP,Door2,0.366666723,0.082407386,1,0,0,2.0627,optionRight,40,12730,6,12,0,12,0,1,,,,,,,,,,,,,,,,,,,,,,,,,,,,,,,,,,,,,,,
,,,,,,,,2023-08-16_08h36.44.911,HF_wild_card,2022.2.4,Win32,60.12506013,63f1bdcac90b79cd273a2d5c,64d2fd46c836a06233681665,64dc7c750db31b126fbe898e,,,,,,,decisionTrl,resources/DR.BMP,resources/DB.BMP,Door4,-0.205555527,0.000925912,1,0,0,1.7311,optionLeft,80,12810,6,13,0,13,0,1,,,,,,,,,,,,,,,,,,,,,,,,,,,,,,,,,,,,,,,
,,,,,,,,2023-08-16_08h36.44.911,HF_wild_card,2022.2.4,Win32,60.12506013,63f1bdcac90b79cd273a2d5c,64d2fd46c836a06233681665,64dc7c750db31b126fbe898e,,,,,,,sngl,resources/DBN.BMP,resources/Empty.png,WildCard_NonEx,-0.282407407,0.008333312,1,0,0,0.8798,optionLeft,55,12865,6,14,0,14,0,1,,,,,,,,,,,,,,,,,,,,,,,,,,,,,,,,,,,,,,,
,,,,,,,,2023-08-16_08h36.44.911,HF_wild_card,2022.2.4,Win32,60.12506013,63f1bdcac90b79cd273a2d5c,64d2fd46c836a06233681665,64dc7c750db31b126fbe898e,,,,,,,sngl,resources/DP.BMP,resources/Empty.png,Door1,-0.246296282,-0.015740748,1,0,0,0.8425,optionLeft,30,12895,6,15,0,15,0,1,,,,,,,,,,,,,,,,,,,,,,,,,,,,,,,,,,,,,,,
,,,,,,,,2023-08-16_08h36.44.911,HF_wild_card,2022.2.4,Win32,60.12506013,63f1bdcac90b79cd273a2d5c,64d2fd46c836a06233681665,64dc7c750db31b126fbe898e,,,,,,,decisionTrl,resources/DP.BMP,resources/DG.BMP,Door2,0.208333333,0.014814801,1,0,0,1.5771,optionRight,20,12915,6,16,0,16,0,1,,,,,,,,,,,,,,,,,,,,,,,,,,,,,,,,,,,,,,,
,,,,,,,,2023-08-16_08h36.44.911,HF_wild_card,2022.2.4,Win32,60.12506013,63f1bdcac90b79cd273a2d5c,64d2fd46c836a06233681665,64dc7c750db31b126fbe898e,,,,,,,sngl,resources/Empty.png,resources/DBN.BMP,WildCard_NonEx,0.17777782,0.01666666,1,0,0,1.1301,optionRight,55,12970,6,17,0,17,0,1,,,,,,,,,,,,,,,,,,,,,,,,,,,,,,,,,,,,,,,
,,,,,,,,2023-08-16_08h36.44.911,HF_wild_card,2022.2.4,Win32,60.12506013,63f1bdcac90b79cd273a2d5c,64d2fd46c836a06233681665,64dc7c750db31b126fbe898e,,,,,,,sngl,resources/DB.BMP,resources/Empty.png,Door3,-0.271296254,-0.038888896,1,0,0,0.9014,optionLeft,70,13040,6,18,0,18,0,1,,,,,,,,,,,,,,,,,,,,,,,,,,,,,,,,,,,,,,,
,,,,,,,,2023-08-16_08h36.44.911,HF_wild_card,2022.2.4,Win32,60.12506013,63f1bdcac90b79cd273a2d5c,64d2fd46c836a06233681665,64dc7c750db31b126fbe898e,,,,,,,sngl,resources/DBN.BMP,resources/Empty.png,WildCard_NonEx,-0.210185157,-0.022222236,1,0,0,0.78,optionLeft,45,13085,6,19,0,19,0,1,,,,,,,,,,,,,,,,,,,,,,,,,,,,,,,,,,,,,,,
,,,,,,,,2023-08-16_08h36.44.911,HF_wild_card,2022.2.4,Win32,60.12506013,63f1bdcac90b79cd273a2d5c,64d2fd46c836a06233681665,64dc7c750db31b126fbe898e,,,,,,,decisionTrl,resources/DG.BMP,resources/DP.BMP,Door2,-0.25462963,-0.021296289,1,0,0,1.2799,optionLeft,20,13105,6,20,0,20,0,1,,,,,,,,,,,,,,,,,,,,,,,,,,,,,,,,,,,,,,,
,,,,,,,,2023-08-16_08h36.44.911,HF_wild_card,2022.2.4,Win32,60.12506013,63f1bdcac90b79cd273a2d5c,64d2fd46c836a06233681665,64dc7c750db31b126fbe898e,,,,,,,decisionTrl,resources/DB.BMP,resources/DR.BMP,Door4,0.377777806,0.030555548,1,0,0,1.3296,optionRight,60,13165,6,21,0,21,0,1,,,,,,,,,,,,,,,,,,,,,,,,,,,,,,,,,,,,,,,
,,,,,,,,2023-08-16_08h36.44.911,HF_wild_card,2022.2.4,Win32,60.12506013,63f1bdcac90b79cd273a2d5c,64d2fd46c836a06233681665,64dc7c750db31b126fbe898e,,,,,,,decisionTrl,resources/DR.BMP,resources/DB.BMP,Door4,-0.314814815,-0.019444466,1,0,0,1.7959,optionLeft,60,13225,6,22,0,22,0,1,,,,,,,,,,,,,,,,,,,,,,,,,,,,,,,,,,,,,,,
,,,,,,,,2023-08-16_08h36.44.911,HF_wild_card,2022.2.4,Win32,60.12506013,63f1bdcac90b79cd273a2d5c,64d2fd46c836a06233681665,64dc7c750db31b126fbe898e,,,,,,,decisionTrl,resources/DG.BMP,resources/DP.BMP,Door2,-0.237962935,-0.018518519,1,0,0,1.3966,optionLeft,40,13265,6,23,0,23,0,1,,,,,,,,,,,,,,,,,,,,,,,,,,,,,,,,,,,,,,,
,,,,,,,,2023-08-16_08h36.44.911,HF_wild_card,2022.2.4,Win32,60.12506013,63f1bdcac90b79cd273a2d5c,64d2fd46c836a06233681665,64dc7c750db31b126fbe898e,,,,,,,sngl,resources/DR.BMP,resources/Empty.png,Door4,-0.252777735,-0.057407414,1,0,0,0.8808,optionLeft,60,13325,6,24,0,24,0,1,,,,,,,,,,,,,,,,,,,,,,,,,,,,,,,,,,,,,,,
,,,,,,,,2023-08-16_08h36.44.911,HF_wild_card,2022.2.4,Win32,60.12506013,63f1bdcac90b79cd273a2d5c,64d2fd46c836a06233681665,64dc7c750db31b126fbe898e,,,,,,,ctch,resources/DB.BMP,resources/DG.BMP,Door3,-0.249074088,-0.035185178,1,0,0,1.0428,optionLeft,70,13395,6,25,0,25,0,1,,,,,,,,,,,,,,,,,,,,,,,,,,,,,,,,,,,,,,,
,,,,,,,,2023-08-16_08h36.44.911,HF_wild_card,2022.2.4,Win32,60.12506013,63f1bdcac90b79cd273a2d5c,64d2fd46c836a06233681665,64dc7c750db31b126fbe898e,,,,,,,sngl,resources/Empty.png,resources/DB.BMP,Door3,0.280555584,0.052777785,1,0,0,0.8803,optionRight,70,13465,6,26,0,26,0,1,,,,,,,,,,,,,,,,,,,,,,,,,,,,,,,,,,,,,,,
,,,,,,,,2023-08-16_08h36.44.911,HF_wild_card,2022.2.4,Win32,60.12506013,63f1bdcac90b79cd273a2d5c,64d2fd46c836a06233681665,64dc7c750db31b126fbe898e,,,,,,,decisionTrl,resources/DP.BMP,resources/DBN.BMP,WildCard_NonEx,0.264814801,0.060185185,1,0,0,1.7264,optionRight,55,13520,6,27,0,27,0,1,,,,,,,,,,,,,,,,,,,,,,,,,,,,,,,,,,,,,,,
,,,,,,,,2023-08-16_08h36.44.911,HF_wild_card,2022.2.4,Win32,60.12506013,63f1bdcac90b79cd273a2d5c,64d2fd46c836a06233681665,64dc7c750db31b126fbe898e,,,,,,,sngl,resources/Empty.png,resources/DG.BMP,Door2,0.290740755,0.03148146,1,0,0,0.8643,optionRight,40,13560,6,28,0,28,0,1,,,,,,,,,,,,,,,,,,,,,,,,,,,,,,,,,,,,,,,
,,,,,,,,2023-08-16_08h36.44.911,HF_wild_card,2022.2.4,Win32,60.12506013,63f1bdcac90b79cd273a2d5c,64d2fd46c836a06233681665,64dc7c750db31b126fbe898e,,,,,,,decisionTrl,resources/DG.BMP,resources/DBN.BMP,WildCard_NonEx,0.25,0.02407406,1,0,0,1.2792,optionRight,55,13615,6,29,0,29,0,1,,,,,,,,,,,,,,,,,,,,,,,,,,,,,,,,,,,,,,,
,,,,,,,,2023-08-16_08h36.44.911,HF_wild_card,2022.2.4,Win32,60.12506013,63f1bdcac90b79cd273a2d5c,64d2fd46c836a06233681665,64dc7c750db31b126fbe898e,,,,,,,ctch,resources/DG.BMP,resources/DB.BMP,Door3,0.32222225,0.033333319,1,0,0,1.2178,optionRight,70,13685,6,30,0,30,0,1,,,,,,,,,,,,,,,,,,,,,,,,,,,,,,,,,,,,,,,
,,,,,,,,2023-08-16_08h36.44.911,HF_wild_card,2022.2.4,Win32,60.12506013,63f1bdcac90b79cd273a2d5c,64d2fd46c836a06233681665,64dc7c750db31b126fbe898e,,,,,,,decisionTrl,resources/DB.BMP,resources/DR.BMP,Door4,0.301851908,0.044444437,1,0,0,1.2258,optionRight,80,13765,6,31,0,31,0,1,,,,,,,,,,,,,,,,,,,,,,,,,,,,,,,,,,,,,,,
,,,,,,,,2023-08-16_08h36.44.911,HF_wild_card,2022.2.4,Win32,60.12506013,63f1bdcac90b79cd273a2d5c,64d2fd46c836a06233681665,64dc7c750db31b126fbe898e,,,,,,,decisionTrl,resources/DR.BMP,resources/DB.BMP,Door4,-0.264814801,-0.00462963,1,0,0,1.3629,optionLeft,80,13845,6,32,0,32,0,1,,,,,,,,,,,,,,,,,,,,,,,,,,,,,,,,,,,,,,,
,,,,,,,,2023-08-16_08h36.44.911,HF_wild_card,2022.2.4,Win32,60.12506013,63f1bdcac90b79cd273a2d5c,64d2fd46c836a06233681665,64dc7c750db31b126fbe898e,,,,,,,ctch,resources/DR.BMP,resources/DP.BMP,Door4,-0.262962977,-0.014814836,1,0,0,1.5701,optionLeft,80,13925,6,33,0,33,0,1,,,,,,,,,,,,,,,,,,,,,,,,,,,,,,,,,,,,,,,
,,,,,,,,2023-08-16_08h36.44.911,HF_wild_card,2022.2.4,Win32,60.12506013,63f1bdcac90b79cd273a2d5c,64d2fd46c836a06233681665,64dc7c750db31b126fbe898e,,,,,,,decisionTrl,resources/DBN.BMP,resources/DG.BMP,WildCard_NonEx,-0.218518504,-0.001851859,1,0,0,1.6129,optionLeft,55,13980,6,34,0,34,0,1,,,,,,,,,,,,,,,,,,,,,,,,,,,,,,,,,,,,,,,
,,,,,,,,2023-08-16_08h36.44.911,HF_wild_card,2022.2.4,Win32,60.12506013,63f1bdcac90b79cd273a2d5c,64d2fd46c836a06233681665,64dc7c750db31b126fbe898e,,,,,,,decisionTrl,resources/DG.BMP,resources/DP.BMP,Door2,-0.23055557,-0.037037037,1,0,0,1.6297,optionLeft,20,14000,6,35,0,35,0,1,,,,,,,,,,,,,,,,,,,,,,,,,,,,,,,,,,,,,,,
,,,,,,,,2023-08-16_08h36.44.911,HF_wild_card,2022.2.4,Win32,60.12506013,63f1bdcac90b79cd273a2d5c,64d2fd46c836a06233681665,64dc7c750db31b126fbe898e,,,,,,,ctch,resources/DP.BMP,resources/DR.BMP,Door4,0.284259302,0.052777785,1,0,0,1.1965,optionRight,80,14080,6,36,0,36,0,1,,,,,,,,,,,,,,,,,,,,,,,,,,,,,,,,,,,,,,,
,,,,,,,,2023-08-16_08h36.44.911,HF_wild_card,2022.2.4,Win32,60.12506013,63f1bdcac90b79cd273a2d5c,64d2fd46c836a06233681665,64dc7c750db31b126fbe898e,,,,,,,decisionTrl,resources/DR.BMP,resources/DB.BMP,Door4,-0.289814772,-0.041666667,1,0,0,0.9465,optionLeft,80,14160,6,37,0,37,0,1,,,,,,,,,,,,,,,,,,,,,,,,,,,,,,,,,,,,,,,
,,,,,,,,2023-08-16_08h36.44.911,HF_wild_card,2022.2.4,Win32,60.12506013,63f1bdcac90b79cd273a2d5c,64d2fd46c836a06233681665,64dc7c750db31b126fbe898e,,,,,,,decisionTrl,resources/DBN.BMP,resources/DB.BMP,Door3,0.321296268,-0.002777771,1,0,0,1.5625,optionRight,70,14230,6,38,0,38,0,1,,,,,,,,,,,,,,,,,,,,,,,,,,,,,,,,,,,,,,,
,,,,,,,,2023-08-16_08h36.44.911,HF_wild_card,2022.2.4,Win32,60.12506013,63f1bdcac90b79cd273a2d5c,64d2fd46c836a06233681665,64dc7c750db31b126fbe898e,,,,,,,sngl,resources/Empty.png,resources/DP.BMP,Door1,0.186111097,0.032407407,1,0,0,1.5129,optionRight,30,14260,6,39,0,39,0,1,,,,,,,,,,,,,,,,,,,,,,,,,,,,,,,,,,,,,,,
,,,,,,,,2023-08-16_08h36.44.911,HF_wild_card,2022.2.4,Win32,60.12506013,63f1bdcac90b79cd273a2d5c,64d2fd46c836a06233681665,64dc7c750db31b126fbe898e,,,,,,,decisionTrl,resources/DR.BMP,resources/DBN.BMP,Door4,-0.183333291,-0.001851859,1,0,0,1.9961,optionLeft,80,14340,6,40,0,40,0,1,,,,,,,,,,,,,,,,,,,,,,,,,,,,,,,,,,,,,,,
,,,,,,,,2023-08-16_08h36.44.911,HF_wild_card,2022.2.4,Win32,60.12506013,63f1bdcac90b79cd273a2d5c,64d2fd46c836a06233681665,64dc7c750db31b126fbe898e,,,,,,,decisionTrl,resources/DB.BMP,resources/DBN.BMP,Door3,-0.231481481,-0.025925919,1,0,0,2.096,optionLeft,70,14410,6,41,0,41,0,1,,,,,,,,,,,,,,,,,,,,,,,,,,,,,,,,,,,,,,,
,,,,,,,,2023-08-16_08h36.44.911,HF_wild_card,2022.2.4,Win32,60.12506013,63f1bdcac90b79cd273a2d5c,64d2fd46c836a06233681665,64dc7c750db31b126fbe898e,,,,,,,sngl,resources/Empty.png,resources/DR.BMP,Door4,0.335185157,0.037962949,1,0,0,0.9146,optionRight,80,14490,6,42,0,42,0,1,,,,,,,,,,,,,,,,,,,,,,,,,,,,,,,,,,,,,,,
,,,,,,,,2023-08-16_08h36.44.911,HF_wild_card,2022.2.4,Win32,60.12506013,63f1bdcac90b79cd273a2d5c,64d2fd46c836a06233681665,64dc7c750db31b126fbe898e,,,,,,,decisionTrl,resources/DB.BMP,resources/DR.BMP,Door4,0.37037037,0.035185178,1,0,0,1.4322,optionRight,60,14550,6,43,0,43,0,1,,,,,,,,,,,,,,,,,,,,,,,,,,,,,,,,,,,,,,,
,,,,,,,,2023-08-16_08h36.44.911,HF_wild_card,2022.2.4,Win32,60.12506013,63f1bdcac90b79cd273a2d5c,64d2fd46c836a06233681665,64dc7c750db31b126fbe898e,,,,,,,,,,,,,,,,,,,,,,,,,,5,0,5,0,1,,,,,,,,,,,,,,,,,,,,,,,,,,,,,,,,,,
,,,,,,,,2023-08-16_08h36.44.911,HF_wild_card,2022.2.4,Win32,60.12506013,63f1bdcac90b79cd273a2d5c,64d2fd46c836a06233681665,64dc7c750db31b126fbe898e,,,,,,,decisionTrl,resources/DB.BMP,resources/DR.BMP,Door4,0.26944443,-0.124074088,1,0,0,1.0836,optionRight,80,14630,7,0,0,0,0,1,,,,,,,,,,,,,,,,,,,,,,,,,,,,,,,,,,,,,,,
,,,,,,,,2023-08-16_08h36.44.911,HF_wild_card,2022.2.4,Win32,60.12506013,63f1bdcac90b79cd273a2d5c,64d2fd46c836a06233681665,64dc7c750db31b126fbe898e,,,,,,,decisionTrl,resources/DG.BMP,resources/DP.BMP,Door2,-0.275925884,0.042592578,1,0,0,2.3617,optionLeft,40,14670,7,1,0,1,0,1,,,,,,,,,,,,,,,,,,,,,,,,,,,,,,,,,,,,,,,
,,,,,,,,2023-08-16_08h36.44.911,HF_wild_card,2022.2.4,Win32,60.12506013,63f1bdcac90b79cd273a2d5c,64d2fd46c836a06233681665,64dc7c750db31b126fbe898e,,,,,,,decisionTrl,resources/DB.BMP,resources/DR.BMP,Door4,0.270370413,-0.022222236,1,0,0,2.4136,optionRight,60,14730,7,2,0,2,0,1,,,,,,,,,,,,,,,,,,,,,,,,,,,,,,,,,,,,,,,
,,,,,,,,2023-08-16_08h36.44.911,HF_wild_card,2022.2.4,Win32,60.12506013,63f1bdcac90b79cd273a2d5c,64d2fd46c836a06233681665,64dc7c750db31b126fbe898e,,,,,,,decisionTrl,resources/DR.BMP,resources/DB.BMP,Door4,-0.199074074,-0.011111118,1,0,0,1.2354,optionLeft,60,14790,7,3,0,3,0,1,,,,,,,,,,,,,,,,,,,,,,,,,,,,,,,,,,,,,,,
,,,,,,,,2023-08-16_08h36.44.911,HF_wild_card,2022.2.4,Win32,60.12506013,63f1bdcac90b79cd273a2d5c,64d2fd46c836a06233681665,64dc7c750db31b126fbe898e,,,,,,,decisionTrl,resources/DB.BMP,resources/DR.BMP,Door4,0.263888889,-0.021296289,1,0,0,1.0192,optionRight,80,14870,7,4,0,4,0,1,,,,,,,,,,,,,,,,,,,,,,,,,,,,,,,,,,,,,,,
,,,,,,,,2023-08-16_08h36.44.911,HF_wild_card,2022.2.4,Win32,60.12506013,63f1bdcac90b79cd273a2d5c,64d2fd46c836a06233681665,64dc7c750db31b126fbe898e,,,,,,,decisionTrl,resources/DG.BMP,resources/DP.BMP,Door2,-0.249074088,-0.047222243,1,0,0,1.3141,optionLeft,40,14910,7,5,0,5,0,1,,,,,,,,,,,,,,,,,,,,,,,,,,,,,,,,,,,,,,,
,,,,,,,,2023-08-16_08h36.44.911,HF_wild_card,2022.2.4,Win32,60.12506013,63f1bdcac90b79cd273a2d5c,64d2fd46c836a06233681665,64dc7c750db31b126fbe898e,,,,,,,ctch,resources/DR.BMP,resources/DP.BMP,Door4,-0.186111097,-0.018518519,1,0,0,1.427,optionLeft,80,14990,7,6,0,6,0,1,,,,,,,,,,,,,,,,,,,,,,,,,,,,,,,,,,,,,,,
,,,,,,,,2023-08-16_08h36.44.911,HF_wild_card,2022.2.4,Win32,60.12506013,63f1bdcac90b79cd273a2d5c,64d2fd46c836a06233681665,64dc7c750db31b126fbe898e,,,,,,,ctch,resources/DR.BMP,resources/DP.BMP,Door4,-0.263888889,-0.036111125,1,0,0,0.9189,optionLeft,80,15070,7,7,0,7,0,1,,,,,,,,,,,,,,,,,,,,,,,,,,,,,,,,,,,,,,,
,,,,,,,,2023-08-16_08h36.44.911,HF_wild_card,2022.2.4,Win32,60.12506013,63f1bdcac90b79cd273a2d5c,64d2fd46c836a06233681665,64dc7c750db31b126fbe898e,,,,,,,decisionTrl,resources/DP.BMP,resources/DG.BMP,Door2,0.316666638,0.010185171,1,0,0,1.4181,optionRight,40,15110,7,8,0,8,0,1,,,,,,,,,,,,,,,,,,,,,,,,,,,,,,,,,,,,,,,
,,,,,,,,2023-08-16_08h36.44.911,HF_wild_card,2022.2.4,Win32,60.12506013,63f1bdcac90b79cd273a2d5c,64d2fd46c836a06233681665,64dc7c750db31b126fbe898e,,,,,,,ctch,resources/DG.BMP,resources/DB.BMP,Door3,0.307407379,0.03148146,1,0,0,1.6805,optionRight,70,15180,7,9,0,9,0,1,,,,,,,,,,,,,,,,,,,,,,,,,,,,,,,,,,,,,,,
,,,,,,,,2023-08-16_08h36.44.911,HF_wild_card,2022.2.4,Win32,60.12506013,63f1bdcac90b79cd273a2d5c,64d2fd46c836a06233681665,64dc7c750db31b126fbe898e,,,,,,,ctch,resources/DP.BMP,resources/DR.BMP,Door4,0.262962977,0.037962949,1,0,0,1.4816,optionRight,80,15260,7,10,0,10,0,1,,,,,,,,,,,,,,,,,,,,,,,,,,,,,,,,,,,,,,,
,,,,,,,,2023-08-16_08h36.44.911,HF_wild_card,2022.2.4,Win32,60.12506013,63f1bdcac90b79cd273a2d5c,64d2fd46c836a06233681665,64dc7c750db31b126fbe898e,,,,,,,decisionTrl,resources/DR.BMP,resources/DB.BMP,Door4,-0.244444459,-0.045370384,1,0,0,1.6824,optionLeft,60,15320,7,11,0,11,0,1,,,,,,,,,,,,,,,,,,,,,,,,,,,,,,,,,,,,,,,
,,,,,,,,2023-08-16_08h36.44.911,HF_wild_card,2022.2.4,Win32,60.12506013,63f1bdcac90b79cd273a2d5c,64d2fd46c836a06233681665,64dc7c750db31b126fbe898e,,,,,,,ctch,resources/DB.BMP,resources/DG.BMP,Door3,-0.22129631,-0.050925926,1,0,0,1.0308,optionLeft,70,15390,7,12,0,12,0,1,,,,,,,,,,,,,,,,,,,,,,,,,,,,,,,,,,,,,,,
,,,,,,,,2023-08-16_08h36.44.911,HF_wild_card,2022.2.4,Win32,60.12506013,63f1bdcac90b79cd273a2d5c,64d2fd46c836a06233681665,64dc7c750db31b126fbe898e,,,,,,,decisionTrl,resources/DP.BMP,resources/DG.BMP,Door2,0.283333319,0.011111118,1,0,0,1.2812,optionRight,40,15430,7,13,0,13,0,1,,,,,,,,,,,,,,,,,,,,,,,,,,,,,,,,,,,,,,,
,,,,,,,,2023-08-16_08h36.44.911,HF_wild_card,2022.2.4,Win32,60.12506013,63f1bdcac90b79cd273a2d5c,64d2fd46c836a06233681665,64dc7c750db31b126fbe898e,,,,,,,decisionTrl,resources/DG.BMP,resources/DP.BMP,Door2,-0.287962949,-0.012962977,1,0,0,1.5635,optionLeft,40,15470,7,14,0,14,0,1,,,,,,,,,,,,,,,,,,,,,,,,,,,,,,,,,,,,,,,
,,,,,,,,2023-08-16_08h36.44.911,HF_wild_card,2022.2.4,Win32,60.12506013,63f1bdcac90b79cd273a2d5c,64d2fd46c836a06233681665,64dc7c750db31b126fbe898e,,,,,,,decisionTrl,resources/DG.BMP,resources/DP.BMP,Door2,-0.262036995,-0.01666666,1,0,0,1.4998,optionLeft,40,15510,7,15,0,15,0,1,,,,,,,,,,,,,,,,,,,,,,,,,,,,,,,,,,,,,,,
,,,,,,,,2023-08-16_08h36.44.911,HF_wild_card,2022.2.4,Win32,60.12506013,63f1bdcac90b79cd273a2d5c,64d2fd46c836a06233681665,64dc7c750db31b126fbe898e,,,,,,,decisionTrl,resources/DB.BMP,resources/DR.BMP,Door4,0.207407422,-0.000925947,1,0,0,1.1641,optionRight,80,15590,7,16,0,16,0,1,,,,,,,,,,,,,,,,,,,,,,,,,,,,,,,,,,,,,,,
,,,,,,,,2023-08-16_08h36.44.911,HF_wild_card,2022.2.4,Win32,60.12506013,63f1bdcac90b79cd273a2d5c,64d2fd46c836a06233681665,64dc7c750db31b126fbe898e,,,,,,,ctch,resources/DG.BMP,resources/DB.BMP,Door3,0.237037023,0.01944443,1,0,0,1.6303,optionRight,70,15660,7,17,0,17,0,1,,,,,,,,,,,,,,,,,,,,,,,,,,,,,,,,,,,,,,,
,,,,,,,,2023-08-16_08h36.44.911,HF_wild_card,2022.2.4,Win32,60.12506013,63f1bdcac90b79cd273a2d5c,64d2fd46c836a06233681665,64dc7c750db31b126fbe898e,,,,,,,ctch,resources/DG.BMP,resources/DB.BMP,Door3,0.287962949,0.021296289,1,0,0,0.9996,optionRight,70,15730,7,18,0,18,0,1,,,,,,,,,,,,,,,,,,,,,,,,,,,,,,,,,,,,,,,
,,,,,,,,2023-08-16_08h36.44.911,HF_wild_card,2022.2.4,Win32,60.12506013,63f1bdcac90b79cd273a2d5c,64d2fd46c836a06233681665,64dc7c750db31b126fbe898e,,,,,,,decisionTrl,resources/DP.BMP,resources/DG.BMP,Door2,0.300925926,0.002777771,1,0,0,1.527,optionRight,40,15770,7,19,0,19,0,1,,,,,,,,,,,,,,,,,,,,,,,,,,,,,,,,,,,,,,,
,,,,,,,,2023-08-16_08h36.44.911,HF_wild_card,2022.2.4,Win32,60.12506013,63f1bdcac90b79cd273a2d5c,64d2fd46c836a06233681665,64dc7c750db31b126fbe898e,,,,,,,decisionTrl,resources/DR.BMP,resources/DB.BMP,Door4,-0.246296282,-0.032407407,1,0,0,1.1355,optionLeft,60,15830,7,20,0,20,0,1,,,,,,,,,,,,,,,,,,,,,,,,,,,,,,,,,,,,,,,
,,,,,,,,2023-08-16_08h36.44.911,HF_wild_card,2022.2.4,Win32,60.12506013,63f1bdcac90b79cd273a2d5c,64d2fd46c836a06233681665,64dc7c750db31b126fbe898e,,,,,,,decisionTrl,resources/DG.BMP,resources/DP.BMP,Door2,-0.206481439,-0.023148148,1,0,0,1.2272,optionLeft,20,15850,7,21,0,21,0,1,,,,,,,,,,,,,,,,,,,,,,,,,,,,,,,,,,,,,,,
,,,,,,,,2023-08-16_08h36.44.911,HF_wild_card,2022.2.4,Win32,60.12506013,63f1bdcac90b79cd273a2d5c,64d2fd46c836a06233681665,64dc7c750db31b126fbe898e,,,,,,,decisionTrl,resources/DR.BMP,resources/DB.BMP,Door4,-0.023148148,0.001851859,1,0,0,0.6973,optionLeft,80,15930,7,22,0,22,0,1,,,,,,,,,,,,,,,,,,,,,,,,,,,,,,,,,,,,,,,
,,,,,,,,2023-08-16_08h36.44.911,HF_wild_card,2022.2.4,Win32,60.12506013,63f1bdcac90b79cd273a2d5c,64d2fd46c836a06233681665,64dc7c750db31b126fbe898e,,,,,,,decisionTrl,resources/DB.BMP,resources/DR.BMP,Door4,0.291666667,0.01666666,1,0,0,1.3309,optionRight,60,15990,7,23,0,23,0,1,,,,,,,,,,,,,,,,,,,,,,,,,,,,,,,,,,,,,,,
,,,,,,,,2023-08-16_08h36.44.911,HF_wild_card,2022.2.4,Win32,60.12506013,63f1bdcac90b79cd273a2d5c,64d2fd46c836a06233681665,64dc7c750db31b126fbe898e,,,,,,,decisionTrl,resources/DP.BMP,resources/DG.BMP,Door2,0.367592564,-0.076851845,1,0,0,1.5304,optionRight,20,16010,7,24,0,24,0,1,,,,,,,,,,,,,,,,,,,,,,,,,,,,,,,,,,,,,,,
,,,,,,,,2023-08-16_08h36.44.911,HF_wild_card,2022.2.4,Win32,60.12506013,63f1bdcac90b79cd273a2d5c,64d2fd46c836a06233681665,64dc7c750db31b126fbe898e,,,,,,,decisionTrl,resources/DR.BMP,resources/DB.BMP,Door4,-0.295370384,-0.01666666,1,0,0,1.1191,optionLeft,60,16070,7,25,0,25,0,1,,,,,,,,,,,,,,,,,,,,,,,,,,,,,,,,,,,,,,,
,,,,,,,,2023-08-16_08h36.44.911,HF_wild_card,2022.2.4,Win32,60.12506013,63f1bdcac90b79cd273a2d5c,64d2fd46c836a06233681665,64dc7c750db31b126fbe898e,,,,,,,ctch,resources/DR.BMP,resources/DP.BMP,Door4,-0.247222194,-0.027777778,1,0,0,0.9638,optionLeft,60,16130,7,26,0,26,0,1,,,,,,,,,,,,,,,,,,,,,,,,,,,,,,,,,,,,,,,
,,,,,,,,2023-08-16_08h36.44.911,HF_wild_card,2022.2.4,Win32,60.12506013,63f1bdcac90b79cd273a2d5c,64d2fd46c836a06233681665,64dc7c750db31b126fbe898e,,,,,,,decisionTrl,resources/DP.BMP,resources/DG.BMP,Door2,0.371296353,0.034259266,1,0,0,1.5142,optionRight,40,16170,7,27,0,27,0,1,,,,,,,,,,,,,,,,,,,,,,,,,,,,,,,,,,,,,,,
,,,,,,,,2023-08-16_08h36.44.911,HF_wild_card,2022.2.4,Win32,60.12506013,63f1bdcac90b79cd273a2d5c,64d2fd46c836a06233681665,64dc7c750db31b126fbe898e,,,,,,,decisionTrl,resources/DG.BMP,resources/DP.BMP,Door2,-0.223148134,-0.01666666,1,0,0,1.947,optionLeft,40,16210,7,28,0,28,0,1,,,,,,,,,,,,,,,,,,,,,,,,,,,,,,,,,,,,,,,
,,,,,,,,2023-08-16_08h36.44.911,HF_wild_card,2022.2.4,Win32,60.12506013,63f1bdcac90b79cd273a2d5c,64d2fd46c836a06233681665,64dc7c750db31b126fbe898e,,,,,,,decisionTrl,resources/DP.BMP,resources/DG.BMP,Door2,0.266666695,0.009259259,1,0,0,2.8538,optionRight,20,16230,7,29,0,29,0,1,,,,,,,,,,,,,,,,,,,,,,,,,,,,,,,,,,,,,,,
,,,,,,,,2023-08-16_08h36.44.911,HF_wild_card,2022.2.4,Win32,60.12506013,63f1bdcac90b79cd273a2d5c,64d2fd46c836a06233681665,64dc7c750db31b126fbe898e,,,,,,,decisionTrl,resources/DB.BMP,resources/DR.BMP,Door4,0.145370413,-0.005555577,1,0,0,1.3988,optionRight,60,16290,7,30,0,30,0,1,,,,,,,,,,,,,,,,,,,,,,,,,,,,,,,,,,,,,,,
,,,,,,,,2023-08-16_08h36.44.911,HF_wild_card,2022.2.4,Win32,60.12506013,63f1bdcac90b79cd273a2d5c,64d2fd46c836a06233681665,64dc7c750db31b126fbe898e,,,,,,,decisionTrl,resources/DR.BMP,resources/DB.BMP,Door4,-0.216666681,-0.053703697,1,0,0,2.6631,optionLeft,60,16350,7,31,0,31,0,1,,,,,,,,,,,,,,,,,,,,,,,,,,,,,,,,,,,,,,,
,,,,,,,,2023-08-16_08h36.44.911,HF_wild_card,2022.2.4,Win32,60.12506013,63f1bdcac90b79cd273a2d5c,64d2fd46c836a06233681665,64dc7c750db31b126fbe898e,,,,,,,ctch,resources/DB.BMP,resources/DG.BMP,Door3,-0.155555513,-0.01203703,1,0,0,1.8775,optionLeft,70,16420,7,32,0,32,0,1,,,,,,,,,,,,,,,,,,,,,,,,,,,,,,,,,,,,,,,
,,,,,,,,2023-08-16_08h36.44.911,HF_wild_card,2022.2.4,Win32,60.12506013,63f1bdcac90b79cd273a2d5c,64d2fd46c836a06233681665,64dc7c750db31b126fbe898e,,,,,,,ctch,resources/DB.BMP,resources/DG.BMP,Door3,-0.251851824,-0.052777785,1,0,0,1.6772,optionLeft,70,16490,7,33,0,33,0,1,,,,,,,,,,,,,,,,,,,,,,,,,,,,,,,,,,,,,,,
,,,,,,,,2023-08-16_08h36.44.911,HF_wild_card,2022.2.4,Win32,60.12506013,63f1bdcac90b79cd273a2d5c,64d2fd46c836a06233681665,64dc7c750db31b126fbe898e,,,,,,,ctch,resources/DP.BMP,resources/DR.BMP,Door4,0.242592635,0.01666666,1,0,0,1.1959,optionRight,60,16550,7,34,0,34,0,1,,,,,,,,,,,,,,,,,,,,,,,,,,,,,,,,,,,,,,,
,,,,,,,,2023-08-16_08h36.44.911,HF_wild_card,2022.2.4,Win32,60.12506013,63f1bdcac90b79cd273a2d5c,64d2fd46c836a06233681665,64dc7c750db31b126fbe898e,,,,,,,ctch,resources/DP.BMP,resources/DR.BMP,Door4,0.318518603,0.035185178,1,0,0,1.3183,optionRight,80,16630,7,35,0,35,0,1,,,,,,,,,,,,,,,,,,,,,,,,,,,,,,,,,,,,,,,
,,,,,,,,2023-08-16_08h36.44.911,HF_wild_card,2022.2.4,Win32,60.12506013,63f1bdcac90b79cd273a2d5c,64d2fd46c836a06233681665,64dc7c750db31b126fbe898e,,,,,,,,,,,,,,,,,,,,,,,,,,6,0,6,0,1,,,,,,,,,,,,,,,,,,,,,,,,,,,,,,,,,,
,,,,,,,,2023-08-16_08h36.44.911,HF_wild_card,2022.2.4,Win32,60.12506013,63f1bdcac90b79cd273a2d5c,64d2fd46c836a06233681665,64dc7c750db31b126fbe898e,,,,,,,,,,,,,,,,,,,,,,,,,,,,,,,4,,,,,,,,,,,,,,,,,,,,,,,,,,,,,,,,,
,,,,,,,,2023-08-16_08h36.44.911,HF_wild_card,2022.2.4,Win32,60.12506013,63f1bdcac90b79cd273a2d5c,64d2fd46c836a06233681665,64dc7c750db31b126fbe898e,,,,,,,,,,,,,,,,,,,,,,,,,,,,,,,,,,,,,,,,,,,,,,,,,,,,,,,,,,,,,,,,
,,,,,,,,2023-08-16_08h36.44.911,HF_wild_card,2022.2.4,Win32,60.12506013,63f1bdcac90b79cd273a2d5c,64d2fd46c836a06233681665,64dc7c750db31b126fbe898e,,,,,,,,,,,,,,,,,,,,,,,,,,,,,,,,80,Door4,resources/DR.BMP,0,0,0,0,1,,,,,,,,,,,,,,,,,,,,,,,,,
,,,,,,,,2023-08-16_08h36.44.911,HF_wild_card,2022.2.4,Win32,60.12506013,63f1bdcac90b79cd273a2d5c,64d2fd46c836a06233681665,64dc7c750db31b126fbe898e,,,,,,,,,,,,,,,,,,,,,,,,,,,,,,,,90,WC_extreme,resources/DY.BMP,1,0,1,0,1,,,,,,,,,,,,,,,,,,,,,,,,,
,,,,,,,,2023-08-16_08h36.44.911,HF_wild_card,2022.2.4,Win32,60.12506013,63f1bdcac90b79cd273a2d5c,64d2fd46c836a06233681665,64dc7c750db31b126fbe898e,,,,,,,,,,,,,,,,,,,,,,,,,,,,,,,,20,Door1,resources/DP.BMP,2,0,2,0,1,,,,,,,,,,,,,,,,,,,,,,,,,
,,,,,,,,2023-08-16_08h36.44.911,HF_wild_card,2022.2.4,Win32,60.12506013,63f1bdcac90b79cd273a2d5c,64d2fd46c836a06233681665,64dc7c750db31b126fbe898e,,,,,,,,,,,,,,,,,,,,,,,,,,,,,,,,70,Door3,resources/DB.BMP,3,0,3,0,1,,,,,,,,,,,,,,,,,,,,,,,,,
,,,,,,,,2023-08-16_08h36.44.911,HF_wild_card,2022.2.4,Win32,60.12506013,63f1bdcac90b79cd273a2d5c,64d2fd46c836a06233681665,64dc7c750db31b126fbe898e,,,,,,,,,,,,,,,,,,,,,,,,,,,,,,,,40,Door2,resources/DG.BMP,4,0,4,0,1,,,,,,,,,,,,,,,,,,,,,,,,,
,,,,,,,,2023-08-16_08h36.44.911,HF_wild_card,2022.2.4,Win32,60.12506013,63f1bdcac90b79cd273a2d5c,64d2fd46c836a06233681665,64dc7c750db31b126fbe898e,,,,,,,,,,,,,,,,,,,,,,,,,,,,,,,,45,WC_nonExtreme,resources/DBN.BMP,5,0,5,0,1,,,,,,,,,,,,,,,,,,,,,,,,,
,,,,,,,,2023-08-16_08h36.44.911,HF_wild_card,2022.2.4,Win32,60.12506013,63f1bdcac90b79cd273a2d5c,64d2fd46c836a06233681665,64dc7c750db31b126fbe898e,,,,,,,,,,,,,,,,,,,,,,,,,,,,,,,,,,,,,,,,,,,,,,,,,,,,,,,,,,,,,,,,
,,,,,,,,2023-08-16_08h36.44.911,HF_wild_card,2022.2.4,Win32,60.12506013,63f1bdcac90b79cd273a2d5c,64d2fd46c836a06233681665,64dc7c750db31b126fbe898e,,,,,,,,,,,,,,,,,,,,,,,,,,,,,,,,,,,,,,,,0,0,0,0,1,,,,,,,,,,,,,,,,,,,,
