Condition,Low fixed image (Door1),Low risky image (Door2),High fixed image (Door3),High risky image (Door4),Extreme Wild Card,NonExtreme Wild Card,,date,expName,psychopyVersion,OS,frameRate,PROLIFIC_PID,STUDY_ID,SESSION_ID,mouse_2.x,mouse_2.y,mouse_2.leftButton,mouse_2.midButton,mouse_2.rightButton,mouse_2.clicked_name,Trial Type,Left Option Image,Right Option Image,Chosen Door,mouse.x,mouse.y,mouse.leftButton,mouse.midButton,mouse.rightButton,mouse.time,mouse.clicked_name,Feedback,Cumulative Reward,Block,trial.thisRepN,trial.thisTrialN,trial.thisN,trial.thisIndex,trial.ran,blocks.thisRepN,blocks.thisTrialN,blocks.thisN,blocks.thisIndex,blocks.ran,Money conversion,First Outcome Reported,Shown Door (First Outcome),Displayed Image (First Outcome),outcomes.thisRepN,outcomes.thisTrialN,outcomes.thisN,outcomes.thisIndex,outcomes.ran,judgments.thisRepN,judgments.thisTrialN,judgments.thisN,judgments.thisIndex,judgments.ran,freqMouse.x,freqMouse.y,freqMouse.leftButton,freqMouse.midButton,freqMouse.rightButton,freqMouse.clicked_name,FQJ for first outcome,FQJ for second outcome,Shown Door,Displayed Image,trials.thisRepN,trials.thisTrialN,trials.thisN,trials.thisIndex,trials.ran,judgBlock.thisRepN,judgBlock.thisTrialN,judgBlock.thisN,judgBlock.thisIndex,judgBlock.ran
1,resources/DY.BMP,resources/DP.BMP,resources/DR.BMP,resources/DG.BMP,resources/DBN.BMP,resources/DB.BMP,,2023-08-16_10h12.33.426,HF_wild_card,2022.2.4,Win32,59.62673663,6173c5b0aa4bc2370fd2c1f2,64d2fd46c836a06233681665,64dc7e8170a266150a12709b,,,,,,,,,,,,,,,,,,,,,,,,,,,,,,,,,,,,,,,,,,,,,,,,,,,,,,,,,,,,,,,,
,,,,,,,,2023-08-16_10h12.33.426,HF_wild_card,2022.2.4,Win32,59.62673663,6173c5b0aa4bc2370fd2c1f2,64d2fd46c836a06233681665,64dc7e8170a266150a12709b,-0.000925912,-0.419444473,1,0,0,agree,,,,,,,,,,,,,,,,,,,,,,,,,,,,,,,,,,,,,,,,,,,,,,,,,,,,,,,,,,
,,,,,,,,2023-08-16_10h12.33.426,HF_wild_card,2022.2.4,Win32,59.62673663,6173c5b0aa4bc2370fd2c1f2,64d2fd46c836a06233681665,64dc7e8170a266150a12709b,,,,,,,,,,,,,,,,,,,,,,,,,,,,,,,,,,,,,,,,,,,,,,,,,,,,,,,,,,,,,,,,
,,,,,,,,2023-08-16_10h12.33.426,HF_wild_card,2022.2.4,Win32,59.62673663,6173c5b0aa4bc2370fd2c1f2,64d2fd46c836a06233681665,64dc7e8170a266150a12709b,,,,,,,sngl,resources/DG.BMP,resources/Empty.png,Door4,-0.327777757,-0.059259273,1,0,0,1.6095,optionLeft,80,80,1,0,0,0,0,1,,,,,,,,,,,,,,,,,,,,,,,,,,,,,,,,,,,,,,,
,,,,,,,,2023-08-16_10h12.33.426,HF_wild_card,2022.2.4,Win32,59.62673663,6173c5b0aa4bc2370fd2c1f2,64d2fd46c836a06233681665,64dc7e8170a266150a12709b,,,,,,,sngl,resources/Empty.png,resources/DR.BMP,Door3,0.32685188,0.041666667,1,0,0,0.6696,optionRight,70,150,1,1,0,1,0,1,,,,,,,,,,,,,,,,,,,,,,,,,,,,,,,,,,,,,,,
,,,,,,,,2023-08-16_10h12.33.426,HF_wild_card,2022.2.4,Win32,59.62673663,6173c5b0aa4bc2370fd2c1f2,64d2fd46c836a06233681665,64dc7e8170a266150a12709b,,,,,,,decisionTrl,resources/DP.BMP,resources/DY.BMP,Door1,0.487962935,0.018518519,1,0,0,0.8107,optionRight,30,180,1,2,0,2,0,1,,,,,,,,,,,,,,,,,,,,,,,,,,,,,,,,,,,,,,,
,,,,,,,,2023-08-16_10h12.33.426,HF_wild_card,2022.2.4,Win32,59.62673663,6173c5b0aa4bc2370fd2c1f2,64d2fd46c836a06233681665,64dc7e8170a266150a12709b,,,,,,,decisionTrl,resources/DR.BMP,resources/DG.BMP,Door3,-0.25462963,-0.023148148,1,0,0,0.544,optionLeft,70,250,1,3,0,3,0,1,,,,,,,,,,,,,,,,,,,,,,,,,,,,,,,,,,,,,,,
,,,,,,,,2023-08-16_10h12.33.426,HF_wild_card,2022.2.4,Win32,59.62673663,6173c5b0aa4bc2370fd2c1f2,64d2fd46c836a06233681665,64dc7e8170a266150a12709b,,,,,,,sngl,resources/Empty.png,resources/DB.BMP,WildCard_NonEx,0.202777792,0.011111118,1,0,0,0.5108,optionRight,55,305,1,4,0,4,0,1,,,,,,,,,,,,,,,,,,,,,,,,,,,,,,,,,,,,,,,
,,,,,,,,2023-08-16_10h12.33.426,HF_wild_card,2022.2.4,Win32,59.62673663,6173c5b0aa4bc2370fd2c1f2,64d2fd46c836a06233681665,64dc7e8170a266150a12709b,,,,,,,ctch,resources/DG.BMP,resources/DY.BMP,Door4,-0.175000014,0.000925912,1,0,0,0.7265,optionLeft,60,365,1,5,0,5,0,1,,,,,,,,,,,,,,,,,,,,,,,,,,,,,,,,,,,,,,,
,,,,,,,,2023-08-16_10h12.33.426,HF_wild_card,2022.2.4,Win32,59.62673663,6173c5b0aa4bc2370fd2c1f2,64d2fd46c836a06233681665,64dc7e8170a266150a12709b,,,,,,,decisionTrl,resources/DP.BMP,resources/DY.BMP,Door1,0.27407406,0.033333319,1,0,0,0.7929,optionRight,30,395,1,6,0,6,0,1,,,,,,,,,,,,,,,,,,,,,,,,,,,,,,,,,,,,,,,
,,,,,,,,2023-08-16_10h12.33.426,HF_wild_card,2022.2.4,Win32,59.62673663,6173c5b0aa4bc2370fd2c1f2,64d2fd46c836a06233681665,64dc7e8170a266150a12709b,,,,,,,decisionTrl,resources/DB.BMP,resources/DP.BMP,Door2,0.293518561,-0.000925947,1,0,0,1.227,optionRight,20,415,1,7,0,7,0,1,,,,,,,,,,,,,,,,,,,,,,,,,,,,,,,,,,,,,,,
,,,,,,,,2023-08-16_10h12.33.426,HF_wild_card,2022.2.4,Win32,59.62673663,6173c5b0aa4bc2370fd2c1f2,64d2fd46c836a06233681665,64dc7e8170a266150a12709b,,,,,,,ctch,resources/DY.BMP,resources/DG.BMP,Door4,0.344444416,0.048148155,1,0,0,0.6429,optionRight,80,495,1,8,0,8,0,1,,,,,,,,,,,,,,,,,,,,,,,,,,,,,,,,,,,,,,,
,,,,,,,,2023-08-16_10h12.33.426,HF_wild_card,2022.2.4,Win32,59.62673663,6173c5b0aa4bc2370fd2c1f2,64d2fd46c836a06233681665,64dc7e8170a266150a12709b,,,,,,,sngl,resources/DB.BMP,resources/Empty.png,WildCard_NonEx,-0.236111111,0.001851859,1,0,0,0.5775,optionLeft,55,550,1,9,0,9,0,1,,,,,,,,,,,,,,,,,,,,,,,,,,,,,,,,,,,,,,,
,,,,,,,,2023-08-16_10h12.33.426,HF_wild_card,2022.2.4,Win32,59.62673663,6173c5b0aa4bc2370fd2c1f2,64d2fd46c836a06233681665,64dc7e8170a266150a12709b,,,,,,,decisionTrl,resources/DB.BMP,resources/DG.BMP,Door4,0.425925926,0.088888875,1,0,0,0.5115,optionRight,60,610,1,10,0,10,0,1,,,,,,,,,,,,,,,,,,,,,,,,,,,,,,,,,,,,,,,
,,,,,,,,2023-08-16_10h12.33.426,HF_wild_card,2022.2.4,Win32,59.62673663,6173c5b0aa4bc2370fd2c1f2,64d2fd46c836a06233681665,64dc7e8170a266150a12709b,,,,,,,decisionTrl,resources/DY.BMP,resources/DP.BMP,Door1,-0.388888889,-0.023148148,1,0,0,0.8287,optionLeft,30,640,1,11,0,11,0,1,,,,,,,,,,,,,,,,,,,,,,,,,,,,,,,,,,,,,,,
,,,,,,,,2023-08-16_10h12.33.426,HF_wild_card,2022.2.4,Win32,59.62673663,6173c5b0aa4bc2370fd2c1f2,64d2fd46c836a06233681665,64dc7e8170a266150a12709b,,,,,,,ctch,resources/DR.BMP,resources/DP.BMP,Door3,-0.277777778,-0.027777778,1,0,0,0.5939,optionLeft,70,710,1,12,0,12,0,1,,,,,,,,,,,,,,,,,,,,,,,,,,,,,,,,,,,,,,,
,,,,,,,,2023-08-16_10h12.33.426,HF_wild_card,2022.2.4,Win32,59.62673663,6173c5b0aa4bc2370fd2c1f2,64d2fd46c836a06233681665,64dc7e8170a266150a12709b,,,,,,,ctch,resources/DG.BMP,resources/DY.BMP,Door4,-0.237962935,-0.000925947,1,0,0,0.5445,optionLeft,80,790,1,13,0,13,0,1,,,,,,,,,,,,,,,,,,,,,,,,,,,,,,,,,,,,,,,
,,,,,,,,2023-08-16_10h12.33.426,HF_wild_card,2022.2.4,Win32,59.62673663,6173c5b0aa4bc2370fd2c1f2,64d2fd46c836a06233681665,64dc7e8170a266150a12709b,,,,,,,decisionTrl,resources/DR.BMP,resources/DG.BMP,Door3,-0.220370328,0.037962949,1,0,0,1.6555,optionLeft,70,860,1,14,0,14,0,1,,,,,,,,,,,,,,,,,,,,,,,,,,,,,,,,,,,,,,,
,,,,,,,,2023-08-16_10h12.33.426,HF_wild_card,2022.2.4,Win32,59.62673663,6173c5b0aa4bc2370fd2c1f2,64d2fd46c836a06233681665,64dc7e8170a266150a12709b,,,,,,,decisionTrl,resources/DY.BMP,resources/DP.BMP,Door2,0.320370427,-0.019444466,1,0,0,1.5109,optionRight,20,880,1,15,0,15,0,1,,,,,,,,,,,,,,,,,,,,,,,,,,,,,,,,,,,,,,,
,,,,,,,,2023-08-16_10h12.33.426,HF_wild_card,2022.2.4,Win32,59.62673663,6173c5b0aa4bc2370fd2c1f2,64d2fd46c836a06233681665,64dc7e8170a266150a12709b,,,,,,,decisionTrl,resources/DY.BMP,resources/DB.BMP,Door1,-0.295370384,-0.049074067,1,0,0,0.461,optionLeft,30,910,1,16,0,16,0,1,,,,,,,,,,,,,,,,,,,,,,,,,,,,,,,,,,,,,,,
,,,,,,,,2023-08-16_10h12.33.426,HF_wild_card,2022.2.4,Win32,59.62673663,6173c5b0aa4bc2370fd2c1f2,64d2fd46c836a06233681665,64dc7e8170a266150a12709b,,,,,,,sngl,resources/DR.BMP,resources/Empty.png,Door3,-0.228703675,-0.000925947,1,0,0,0.4912,optionLeft,70,980,1,17,0,17,0,1,,,,,,,,,,,,,,,,,,,,,,,,,,,,,,,,,,,,,,,
,,,,,,,,2023-08-16_10h12.33.426,HF_wild_card,2022.2.4,Win32,59.62673663,6173c5b0aa4bc2370fd2c1f2,64d2fd46c836a06233681665,64dc7e8170a266150a12709b,,,,,,,decisionTrl,resources/DR.BMP,resources/DB.BMP,WildCard_NonEx,0.280555584,0.032407407,1,0,0,0.5781,optionRight,45,1025,1,18,0,18,0,1,,,,,,,,,,,,,,,,,,,,,,,,,,,,,,,,,,,,,,,
,,,,,,,,2023-08-16_10h12.33.426,HF_wild_card,2022.2.4,Win32,59.62673663,6173c5b0aa4bc2370fd2c1f2,64d2fd46c836a06233681665,64dc7e8170a266150a12709b,,,,,,,decisionTrl,resources/DP.BMP,resources/DY.BMP,Door1,0.222222222,0.059259238,1,0,0,0.7541,optionRight,30,1055,1,19,0,19,0,1,,,,,,,,,,,,,,,,,,,,,,,,,,,,,,,,,,,,,,,
,,,,,,,,2023-08-16_10h12.33.426,HF_wild_card,2022.2.4,Win32,59.62673663,6173c5b0aa4bc2370fd2c1f2,64d2fd46c836a06233681665,64dc7e8170a266150a12709b,,,,,,,sngl,resources/Empty.png,resources/DG.BMP,Door4,0.317592621,0.050925926,1,0,0,0.578,optionRight,60,1115,1,20,0,20,0,1,,,,,,,,,,,,,,,,,,,,,,,,,,,,,,,,,,,,,,,
,,,,,,,,2023-08-16_10h12.33.426,HF_wild_card,2022.2.4,Win32,59.62673663,6173c5b0aa4bc2370fd2c1f2,64d2fd46c836a06233681665,64dc7e8170a266150a12709b,,,,,,,decisionTrl,resources/DP.BMP,resources/DB.BMP,WildCard_NonEx,0.253703718,0.017592571,1,0,0,0.845,optionRight,45,1160,1,21,0,21,0,1,,,,,,,,,,,,,,,,,,,,,,,,,,,,,,,,,,,,,,,
,,,,,,,,2023-08-16_10h12.33.426,HF_wild_card,2022.2.4,Win32,59.62673663,6173c5b0aa4bc2370fd2c1f2,64d2fd46c836a06233681665,64dc7e8170a266150a12709b,,,,,,,decisionTrl,resources/DB.BMP,resources/DY.BMP,WildCard_NonEx,-0.162962949,-0.002777771,1,0,0,0.5613,optionLeft,55,1215,1,22,0,22,0,1,,,,,,,,,,,,,,,,,,,,,,,,,,,,,,,,,,,,,,,
,,,,,,,,2023-08-16_10h12.33.426,HF_wild_card,2022.2.4,Win32,59.62673663,6173c5b0aa4bc2370fd2c1f2,64d2fd46c836a06233681665,64dc7e8170a266150a12709b,,,,,,,decisionTrl,resources/DR.BMP,resources/DG.BMP,Door4,0.337037122,0.030555548,1,0,0,0.5028,optionRight,60,1275,1,23,0,23,0,1,,,,,,,,,,,,,,,,,,,,,,,,,,,,,,,,,,,,,,,
,,,,,,,,2023-08-16_10h12.33.426,HF_wild_card,2022.2.4,Win32,59.62673663,6173c5b0aa4bc2370fd2c1f2,64d2fd46c836a06233681665,64dc7e8170a266150a12709b,,,,,,,ctch,resources/DR.BMP,resources/DP.BMP,Door3,-0.280555513,-0.015740748,1,0,0,0.5719,optionLeft,70,1345,1,24,0,24,0,1,,,,,,,,,,,,,,,,,,,,,,,,,,,,,,,,,,,,,,,
,,,,,,,,2023-08-16_10h12.33.426,HF_wild_card,2022.2.4,Win32,59.62673663,6173c5b0aa4bc2370fd2c1f2,64d2fd46c836a06233681665,64dc7e8170a266150a12709b,,,,,,,ctch,resources/DP.BMP,resources/DR.BMP,Door3,0.252777806,0.048148155,1,0,0,0.445,optionRight,70,1415,1,25,0,25,0,1,,,,,,,,,,,,,,,,,,,,,,,,,,,,,,,,,,,,,,,
,,,,,,,,2023-08-16_10h12.33.426,HF_wild_card,2022.2.4,Win32,59.62673663,6173c5b0aa4bc2370fd2c1f2,64d2fd46c836a06233681665,64dc7e8170a266150a12709b,,,,,,,decisionTrl,resources/DG.BMP,resources/DR.BMP,Door4,-0.312962956,0.020370377,1,0,0,0.2616,optionLeft,80,1495,1,26,0,26,0,1,,,,,,,,,,,,,,,,,,,,,,,,,,,,,,,,,,,,,,,
,,,,,,,,2023-08-16_10h12.33.426,HF_wild_card,2022.2.4,Win32,59.62673663,6173c5b0aa4bc2370fd2c1f2,64d2fd46c836a06233681665,64dc7e8170a266150a12709b,,,,,,,sngl,resources/Empty.png,resources/DB.BMP,WildCard_NonEx,0.61018527,0.104629623,1,0,0,0.3727,optionRight,45,1540,1,27,0,27,0,1,,,,,,,,,,,,,,,,,,,,,,,,,,,,,,,,,,,,,,,
,,,,,,,,2023-08-16_10h12.33.426,HF_wild_card,2022.2.4,Win32,59.62673663,6173c5b0aa4bc2370fd2c1f2,64d2fd46c836a06233681665,64dc7e8170a266150a12709b,,,,,,,decisionTrl,resources/DY.BMP,resources/DP.BMP,Door1,-0.397222201,-0.006481489,1,0,0,0.295,optionLeft,30,1570,1,28,0,28,0,1,,,,,,,,,,,,,,,,,,,,,,,,,,,,,,,,,,,,,,,
,,,,,,,,2023-08-16_10h12.33.426,HF_wild_card,2022.2.4,Win32,59.62673663,6173c5b0aa4bc2370fd2c1f2,64d2fd46c836a06233681665,64dc7e8170a266150a12709b,,,,,,,decisionTrl,resources/DG.BMP,resources/DB.BMP,WildCard_NonEx,0.432407379,0.050925926,1,0,0,0.2,optionRight,45,1615,1,29,0,29,0,1,,,,,,,,,,,,,,,,,,,,,,,,,,,,,,,,,,,,,,,
,,,,,,,,2023-08-16_10h12.33.426,HF_wild_card,2022.2.4,Win32,59.62673663,6173c5b0aa4bc2370fd2c1f2,64d2fd46c836a06233681665,64dc7e8170a266150a12709b,,,,,,,decisionTrl,resources/DR.BMP,resources/DG.BMP,Door4,0.537963019,0.094444452,1,0,0,0.4214,optionRight,80,1695,1,30,0,30,0,1,,,,,,,,,,,,,,,,,,,,,,,,,,,,,,,,,,,,,,,
,,,,,,,,2023-08-16_10h12.33.426,HF_wild_card,2022.2.4,Win32,59.62673663,6173c5b0aa4bc2370fd2c1f2,64d2fd46c836a06233681665,64dc7e8170a266150a12709b,,,,,,,ctch,resources/DY.BMP,resources/DG.BMP,Door4,0.578703704,0.107407393,1,0,0,0.4192,optionRight,60,1755,1,31,0,31,0,1,,,,,,,,,,,,,,,,,,,,,,,,,,,,,,,,,,,,,,,
,,,,,,,,2023-08-16_10h12.33.426,HF_wild_card,2022.2.4,Win32,59.62673663,6173c5b0aa4bc2370fd2c1f2,64d2fd46c836a06233681665,64dc7e8170a266150a12709b,,,,,,,decisionTrl,resources/DG.BMP,resources/DR.BMP,Door4,-0.312962956,-0.013888889,1,0,0,0.4264,optionLeft,80,1835,1,32,0,32,0,1,,,,,,,,,,,,,,,,,,,,,,,,,,,,,,,,,,,,,,,
,,,,,,,,2023-08-16_10h12.33.426,HF_wild_card,2022.2.4,Win32,59.62673663,6173c5b0aa4bc2370fd2c1f2,64d2fd46c836a06233681665,64dc7e8170a266150a12709b,,,,,,,decisionTrl,resources/DY.BMP,resources/DP.BMP,Door1,-0.252777735,-0.013888889,1,0,0,0.6621,optionLeft,30,1865,1,33,0,33,0,1,,,,,,,,,,,,,,,,,,,,,,,,,,,,,,,,,,,,,,,
,,,,,,,,2023-08-16_10h12.33.426,HF_wild_card,2022.2.4,Win32,59.62673663,6173c5b0aa4bc2370fd2c1f2,64d2fd46c836a06233681665,64dc7e8170a266150a12709b,,,,,,,ctch,resources/DP.BMP,resources/DR.BMP,Door2,-0.368518511,-0.019444466,1,0,0,0.9777,optionLeft,40,1905,1,34,0,34,0,1,,,,,,,,,,,,,,,,,,,,,,,,,,,,,,,,,,,,,,,
,,,,,,,,2023-08-16_10h12.33.426,HF_wild_card,2022.2.4,Win32,59.62673663,6173c5b0aa4bc2370fd2c1f2,64d2fd46c836a06233681665,64dc7e8170a266150a12709b,,,,,,,sngl,resources/Empty.png,resources/DP.BMP,Door2,0.349074046,0.037962949,1,0,0,0.378,optionRight,20,1925,1,35,0,35,0,1,,,,,,,,,,,,,,,,,,,,,,,,,,,,,,,,,,,,,,,
,,,,,,,,2023-08-16_10h12.33.426,HF_wild_card,2022.2.4,Win32,59.62673663,6173c5b0aa4bc2370fd2c1f2,64d2fd46c836a06233681665,64dc7e8170a266150a12709b,,,,,,,sngl,resources/DB.BMP,resources/Empty.png,WildCard_NonEx,-0.178703661,-0.010185206,1,0,0,0.5948,optionLeft,45,1970,1,36,0,36,0,1,,,,,,,,,,,,,,,,,,,,,,,,,,,,,,,,,,,,,,,
,,,,,,,,2023-08-16_10h12.33.426,HF_wild_card,2022.2.4,Win32,59.62673663,6173c5b0aa4bc2370fd2c1f2,64d2fd46c836a06233681665,64dc7e8170a266150a12709b,,,,,,,sngl,resources/Empty.png,resources/DY.BMP,Door1,0.362037094,0.01666666,1,0,0,39.7186,optionRight,30,2000,1,37,0,37,0,1,,,,,,,,,,,,,,,,,,,,,,,,,,,,,,,,,,,,,,,
,,,,,,,,2023-08-16_10h12.33.426,HF_wild_card,2022.2.4,Win32,59.62673663,6173c5b0aa4bc2370fd2c1f2,64d2fd46c836a06233681665,64dc7e8170a266150a12709b,,,,,,,decisionTrl,resources/DG.BMP,resources/DR.BMP,Door4,-0.285185143,0.0074074,1,0,0,0.7114,optionLeft,60,2060,1,38,0,38,0,1,,,,,,,,,,,,,,,,,,,,,,,,,,,,,,,,,,,,,,,
,,,,,,,,2023-08-16_10h12.33.426,HF_wild_card,2022.2.4,Win32,59.62673663,6173c5b0aa4bc2370fd2c1f2,64d2fd46c836a06233681665,64dc7e8170a266150a12709b,,,,,,,decisionTrl,resources/DG.BMP,resources/DR.BMP,Door4,-0.339814822,0.01944443,1,0,0,0.8041,optionLeft,80,2140,1,39,0,39,0,1,,,,,,,,,,,,,,,,,,,,,,,,,,,,,,,,,,,,,,,
,,,,,,,,2023-08-16_10h12.33.426,HF_wild_card,2022.2.4,Win32,59.62673663,6173c5b0aa4bc2370fd2c1f2,64d2fd46c836a06233681665,64dc7e8170a266150a12709b,,,,,,,decisionTrl,resources/DP.BMP,resources/DY.BMP,Door1,0.257407436,0.008333312,1,0,0,0.7082,optionRight,30,2170,1,40,0,40,0,1,,,,,,,,,,,,,,,,,,,,,,,,,,,,,,,,,,,,,,,
,,,,,,,,2023-08-16_10h12.33.426,HF_wild_card,2022.2.4,Win32,59.62673663,6173c5b0aa4bc2370fd2c1f2,64d2fd46c836a06233681665,64dc7e8170a266150a12709b,,,,,,,decisionTrl,resources/DB.BMP,resources/DR.BMP,WildCard_NonEx,-0.3675926,0.025925919,1,0,0,0.5275,optionLeft,45,2215,1,41,0,41,0,1,,,,,,,,,,,,,,,,,,,,,,,,,,,,,,,,,,,,,,,
,,,,,,,,2023-08-16_10h12.33.426,HF_wild_card,2022.2.4,Win32,59.62673663,6173c5b0aa4bc2370fd2c1f2,64d2fd46c836a06233681665,64dc7e8170a266150a12709b,,,,,,,sngl,resources/DY.BMP,resources/Empty.png,Door1,-0.201851809,0.003703683,1,0,0,0.476,optionLeft,30,2245,1,42,0,42,0,1,,,,,,,,,,,,,,,,,,,,,,,,,,,,,,,,,,,,,,,
,,,,,,,,2023-08-16_10h12.33.426,HF_wild_card,2022.2.4,Win32,59.62673663,6173c5b0aa4bc2370fd2c1f2,64d2fd46c836a06233681665,64dc7e8170a266150a12709b,,,,,,,sngl,resources/DP.BMP,resources/Empty.png,Door2,-0.357407393,-0.015740748,1,0,0,0.4943,optionLeft,40,2285,1,43,0,43,0,1,,,,,,,,,,,,,,,,,,,,,,,,,,,,,,,,,,,,,,,
,,,,,,,,2023-08-16_10h12.33.426,HF_wild_card,2022.2.4,Win32,59.62673663,6173c5b0aa4bc2370fd2c1f2,64d2fd46c836a06233681665,64dc7e8170a266150a12709b,,,,,,,,,,,,,,,,,,,,,,,,,,0,0,0,0,1,,,,,,,,,,,,,,,,,,,,,,,,,,,,,,,,,,
,,,,,,,,2023-08-16_10h12.33.426,HF_wild_card,2022.2.4,Win32,59.62673663,6173c5b0aa4bc2370fd2c1f2,64d2fd46c836a06233681665,64dc7e8170a266150a12709b,,,,,,,decisionTrl,resources/DY.BMP,resources/DP.BMP,Door1,-0.327777757,-0.021296289,1,0,0,0.5286,optionLeft,30,2315,2,0,0,0,0,1,,,,,,,,,,,,,,,,,,,,,,,,,,,,,,,,,,,,,,,
,,,,,,,,2023-08-16_10h12.33.426,HF_wild_card,2022.2.4,Win32,59.62673663,6173c5b0aa4bc2370fd2c1f2,64d2fd46c836a06233681665,64dc7e8170a266150a12709b,,,,,,,sngl,resources/DB.BMP,resources/Empty.png,WildCard_NonEx,-0.597222222,-0.119444459,1,0,0,0.4044,optionLeft,45,2360,2,1,0,1,0,1,,,,,,,,,,,,,,,,,,,,,,,,,,,,,,,,,,,,,,,
,,,,,,,,2023-08-16_10h12.33.426,HF_wild_card,2022.2.4,Win32,59.62673663,6173c5b0aa4bc2370fd2c1f2,64d2fd46c836a06233681665,64dc7e8170a266150a12709b,,,,,,,decisionTrl,resources/DR.BMP,resources/DG.BMP,Door4,0.217592593,0,1,0,0,0.4653,optionRight,60,2420,2,2,0,2,0,1,,,,,,,,,,,,,,,,,,,,,,,,,,,,,,,,,,,,,,,
,,,,,,,,2023-08-16_10h12.33.426,HF_wild_card,2022.2.4,Win32,59.62673663,6173c5b0aa4bc2370fd2c1f2,64d2fd46c836a06233681665,64dc7e8170a266150a12709b,,,,,,,decisionTrl,resources/DB.BMP,resources/DY.BMP,WildCard_NonEx,-0.284259231,0,1,0,0,0.2636,optionLeft,45,2465,2,3,0,3,0,1,,,,,,,,,,,,,,,,,,,,,,,,,,,,,,,,,,,,,,,
,,,,,,,,2023-08-16_10h12.33.426,HF_wild_card,2022.2.4,Win32,59.62673663,6173c5b0aa4bc2370fd2c1f2,64d2fd46c836a06233681665,64dc7e8170a266150a12709b,,,,,,,decisionTrl,resources/DB.BMP,resources/DR.BMP,WildCard_NonEx,-0.432407414,0.023148148,1,0,0,0.2779,optionLeft,45,2510,2,4,0,4,0,1,,,,,,,,,,,,,,,,,,,,,,,,,,,,,,,,,,,,,,,
,,,,,,,,2023-08-16_10h12.33.426,HF_wild_card,2022.2.4,Win32,59.62673663,6173c5b0aa4bc2370fd2c1f2,64d2fd46c836a06233681665,64dc7e8170a266150a12709b,,,,,,,decisionTrl,resources/DG.BMP,resources/DR.BMP,Door4,-0.41574072,-0.011111118,1,0,0,0.4782,optionLeft,60,2570,2,5,0,5,0,1,,,,,,,,,,,,,,,,,,,,,,,,,,,,,,,,,,,,,,,
,,,,,,,,2023-08-16_10h12.33.426,HF_wild_card,2022.2.4,Win32,59.62673663,6173c5b0aa4bc2370fd2c1f2,64d2fd46c836a06233681665,64dc7e8170a266150a12709b,,,,,,,decisionTrl,resources/DP.BMP,resources/DY.BMP,Door1,0.351851852,0.043518526,1,0,0,0.4786,optionRight,30,2600,2,6,0,6,0,1,,,,,,,,,,,,,,,,,,,,,,,,,,,,,,,,,,,,,,,
,,,,,,,,2023-08-16_10h12.33.426,HF_wild_card,2022.2.4,Win32,59.62673663,6173c5b0aa4bc2370fd2c1f2,64d2fd46c836a06233681665,64dc7e8170a266150a12709b,,,,,,,sngl,resources/Empty.png,resources/DB.BMP,WildCard_NonEx,0.537963019,0.018518519,1,0,0,0.4951,optionRight,45,2645,2,7,0,7,0,1,,,,,,,,,,,,,,,,,,,,,,,,,,,,,,,,,,,,,,,
,,,,,,,,2023-08-16_10h12.33.426,HF_wild_card,2022.2.4,Win32,59.62673663,6173c5b0aa4bc2370fd2c1f2,64d2fd46c836a06233681665,64dc7e8170a266150a12709b,,,,,,,sngl,resources/DG.BMP,resources/Empty.png,Door4,-0.421296296,0.049074067,1,0,0,0.2953,optionLeft,60,2705,2,8,0,8,0,1,,,,,,,,,,,,,,,,,,,,,,,,,,,,,,,,,,,,,,,
,,,,,,,,2023-08-16_10h12.33.426,HF_wild_card,2022.2.4,Win32,59.62673663,6173c5b0aa4bc2370fd2c1f2,64d2fd46c836a06233681665,64dc7e8170a266150a12709b,,,,,,,sngl,resources/DR.BMP,resources/Empty.png,Door3,-0.258333347,-0.018518519,1,0,0,0.4951,optionLeft,70,2775,2,9,0,9,0,1,,,,,,,,,,,,,,,,,,,,,,,,,,,,,,,,,,,,,,,
,,,,,,,,2023-08-16_10h12.33.426,HF_wild_card,2022.2.4,Win32,59.62673663,6173c5b0aa4bc2370fd2c1f2,64d2fd46c836a06233681665,64dc7e8170a266150a12709b,,,,,,,decisionTrl,resources/DG.BMP,resources/DR.BMP,Door4,-0.214814787,-0.01203703,1,0,0,0.6452,optionLeft,60,2835,2,10,0,10,0,1,,,,,,,,,,,,,,,,,,,,,,,,,,,,,,,,,,,,,,,
,,,,,,,,2023-08-16_10h12.33.426,HF_wild_card,2022.2.4,Win32,59.62673663,6173c5b0aa4bc2370fd2c1f2,64d2fd46c836a06233681665,64dc7e8170a266150a12709b,,,,,,,decisionTrl,resources/DG.BMP,resources/DR.BMP,Door4,-0.333333333,-0.030555548,1,0,0,0.4333,optionLeft,60,2895,2,11,0,11,0,1,,,,,,,,,,,,,,,,,,,,,,,,,,,,,,,,,,,,,,,
,,,,,,,,2023-08-16_10h12.33.426,HF_wild_card,2022.2.4,Win32,59.62673663,6173c5b0aa4bc2370fd2c1f2,64d2fd46c836a06233681665,64dc7e8170a266150a12709b,,,,,,,decisionTrl,resources/DG.BMP,resources/DB.BMP,Door4,-0.250925912,-0.025000007,1,0,0,0.6785,optionLeft,80,2975,2,12,0,12,0,1,,,,,,,,,,,,,,,,,,,,,,,,,,,,,,,,,,,,,,,
,,,,,,,,2023-08-16_10h12.33.426,HF_wild_card,2022.2.4,Win32,59.62673663,6173c5b0aa4bc2370fd2c1f2,64d2fd46c836a06233681665,64dc7e8170a266150a12709b,,,,,,,decisionTrl,resources/DR.BMP,resources/DG.BMP,Door4,0.22592594,0.046296296,1,0,0,0.6443,optionRight,60,3035,2,13,0,13,0,1,,,,,,,,,,,,,,,,,,,,,,,,,,,,,,,,,,,,,,,
,,,,,,,,2023-08-16_10h12.33.426,HF_wild_card,2022.2.4,Win32,59.62673663,6173c5b0aa4bc2370fd2c1f2,64d2fd46c836a06233681665,64dc7e8170a266150a12709b,,,,,,,decisionTrl,resources/DY.BMP,resources/DB.BMP,Door1,-0.318518497,-0.010185206,1,0,0,0.4797,optionLeft,30,3065,2,14,0,14,0,1,,,,,,,,,,,,,,,,,,,,,,,,,,,,,,,,,,,,,,,
,,,,,,,,2023-08-16_10h12.33.426,HF_wild_card,2022.2.4,Win32,59.62673663,6173c5b0aa4bc2370fd2c1f2,64d2fd46c836a06233681665,64dc7e8170a266150a12709b,,,,,,,decisionTrl,resources/DP.BMP,resources/DY.BMP,Door2,-0.333333333,-0.00462963,1,0,0,0.477,optionLeft,40,3105,2,15,0,15,0,1,,,,,,,,,,,,,,,,,,,,,,,,,,,,,,,,,,,,,,,
,,,,,,,,2023-08-16_10h12.33.426,HF_wild_card,2022.2.4,Win32,59.62673663,6173c5b0aa4bc2370fd2c1f2,64d2fd46c836a06233681665,64dc7e8170a266150a12709b,,,,,,,decisionTrl,resources/DP.BMP,resources/DB.BMP,WildCard_NonEx,0.262962977,0.049074067,1,0,0,1.0265,optionRight,55,3160,2,16,0,16,0,1,,,,,,,,,,,,,,,,,,,,,,,,,,,,,,,,,,,,,,,
,,,,,,,,2023-08-16_10h12.33.426,HF_wild_card,2022.2.4,Win32,59.62673663,6173c5b0aa4bc2370fd2c1f2,64d2fd46c836a06233681665,64dc7e8170a266150a12709b,,,,,,,decisionTrl,resources/DR.BMP,resources/DG.BMP,Door4,0.344444416,0.062037044,1,0,0,0.6762,optionRight,80,3240,2,17,0,17,0,1,,,,,,,,,,,,,,,,,,,,,,,,,,,,,,,,,,,,,,,
,,,,,,,,2023-08-16_10h12.33.426,HF_wild_card,2022.2.4,Win32,59.62673663,6173c5b0aa4bc2370fd2c1f2,64d2fd46c836a06233681665,64dc7e8170a266150a12709b,,,,,,,sngl,resources/Empty.png,resources/DY.BMP,Door1,0.26944443,0.052777785,1,0,0,0.4589,optionRight,30,3270,2,18,0,18,0,1,,,,,,,,,,,,,,,,,,,,,,,,,,,,,,,,,,,,,,,
,,,,,,,,2023-08-16_10h12.33.426,HF_wild_card,2022.2.4,Win32,59.62673663,6173c5b0aa4bc2370fd2c1f2,64d2fd46c836a06233681665,64dc7e8170a266150a12709b,,,,,,,sngl,resources/Empty.png,resources/DB.BMP,WildCard_NonEx,0.312962991,0.046296296,1,0,0,0.4935,optionRight,55,3325,2,19,0,19,0,1,,,,,,,,,,,,,,,,,,,,,,,,,,,,,,,,,,,,,,,
,,,,,,,,2023-08-16_10h12.33.426,HF_wild_card,2022.2.4,Win32,59.62673663,6173c5b0aa4bc2370fd2c1f2,64d2fd46c836a06233681665,64dc7e8170a266150a12709b,,,,,,,sngl,resources/Empty.png,resources/DG.BMP,Door4,0.599074046,0.115740741,1,0,0,0.5113,optionRight,80,3405,2,20,0,20,0,1,,,,,,,,,,,,,,,,,,,,,,,,,,,,,,,,,,,,,,,
,,,,,,,,2023-08-16_10h12.33.426,HF_wild_card,2022.2.4,Win32,59.62673663,6173c5b0aa4bc2370fd2c1f2,64d2fd46c836a06233681665,64dc7e8170a266150a12709b,,,,,,,decisionTrl,resources/DP.BMP,resources/DY.BMP,Door2,-0.364814794,0.029629637,1,0,0,0.3772,optionLeft,20,3425,2,21,0,21,0,1,,,,,,,,,,,,,,,,,,,,,,,,,,,,,,,,,,,,,,,
,,,,,,,,2023-08-16_10h12.33.426,HF_wild_card,2022.2.4,Win32,59.62673663,6173c5b0aa4bc2370fd2c1f2,64d2fd46c836a06233681665,64dc7e8170a266150a12709b,,,,,,,decisionTrl,resources/DY.BMP,resources/DP.BMP,Door1,-0.493518511,-0.019444466,1,0,0,0.5435,optionLeft,30,3455,2,22,0,22,0,1,,,,,,,,,,,,,,,,,,,,,,,,,,,,,,,,,,,,,,,
,,,,,,,,2023-08-16_10h12.33.426,HF_wild_card,2022.2.4,Win32,59.62673663,6173c5b0aa4bc2370fd2c1f2,64d2fd46c836a06233681665,64dc7e8170a266150a12709b,,,,,,,decisionTrl,resources/DY.BMP,resources/DP.BMP,Door2,0.618518547,0.075925933,1,0,0,0.4955,optionRight,40,3495,2,23,0,23,0,1,,,,,,,,,,,,,,,,,,,,,,,,,,,,,,,,,,,,,,,
,,,,,,,,2023-08-16_10h12.33.426,HF_wild_card,2022.2.4,Win32,59.62673663,6173c5b0aa4bc2370fd2c1f2,64d2fd46c836a06233681665,64dc7e8170a266150a12709b,,,,,,,ctch,resources/DP.BMP,resources/DR.BMP,Door2,-0.365740741,0.013888889,1,0,0,0.4281,optionLeft,20,3515,2,24,0,24,0,1,,,,,,,,,,,,,,,,,,,,,,,,,,,,,,,,,,,,,,,
,,,,,,,,2023-08-16_10h12.33.426,HF_wild_card,2022.2.4,Win32,59.62673663,6173c5b0aa4bc2370fd2c1f2,64d2fd46c836a06233681665,64dc7e8170a266150a12709b,,,,,,,decisionTrl,resources/DY.BMP,resources/DP.BMP,Door2,0.253703718,0.037037037,1,0,0,0.6782,optionRight,20,3535,2,25,0,25,0,1,,,,,,,,,,,,,,,,,,,,,,,,,,,,,,,,,,,,,,,
,,,,,,,,2023-08-16_10h12.33.426,HF_wild_card,2022.2.4,Win32,59.62673663,6173c5b0aa4bc2370fd2c1f2,64d2fd46c836a06233681665,64dc7e8170a266150a12709b,,,,,,,ctch,resources/DG.BMP,resources/DY.BMP,Door4,-0.22592594,-0.001851859,1,0,0,0.4611,optionLeft,60,3595,2,26,0,26,0,1,,,,,,,,,,,,,,,,,,,,,,,,,,,,,,,,,,,,,,,
,,,,,,,,2023-08-16_10h12.33.426,HF_wild_card,2022.2.4,Win32,59.62673663,6173c5b0aa4bc2370fd2c1f2,64d2fd46c836a06233681665,64dc7e8170a266150a12709b,,,,,,,ctch,resources/DG.BMP,resources/DY.BMP,Door4,-0.378703683,-0.005555577,1,0,0,0.4618,optionLeft,80,3675,2,27,0,27,0,1,,,,,,,,,,,,,,,,,,,,,,,,,,,,,,,,,,,,,,,
,,,,,,,,2023-08-16_10h12.33.426,HF_wild_card,2022.2.4,Win32,59.62673663,6173c5b0aa4bc2370fd2c1f2,64d2fd46c836a06233681665,64dc7e8170a266150a12709b,,,,,,,ctch,resources/DY.BMP,resources/DG.BMP,Door4,0.366666723,0.049999979,1,0,0,0.4608,optionRight,80,3755,2,28,0,28,0,1,,,,,,,,,,,,,,,,,,,,,,,,,,,,,,,,,,,,,,,
,,,,,,,,2023-08-16_10h12.33.426,HF_wild_card,2022.2.4,Win32,59.62673663,6173c5b0aa4bc2370fd2c1f2,64d2fd46c836a06233681665,64dc7e8170a266150a12709b,,,,,,,decisionTrl,resources/DR.BMP,resources/DG.BMP,Door4,0.277777778,0.053703697,1,0,0,0.4562,optionRight,80,3835,2,29,0,29,0,1,,,,,,,,,,,,,,,,,,,,,,,,,,,,,,,,,,,,,,,
,,,,,,,,2023-08-16_10h12.33.426,HF_wild_card,2022.2.4,Win32,59.62673663,6173c5b0aa4bc2370fd2c1f2,64d2fd46c836a06233681665,64dc7e8170a266150a12709b,,,,,,,sngl,resources/Empty.png,resources/DP.BMP,Door2,0.208333333,0.01944443,1,0,0,0.5613,optionRight,40,3875,2,30,0,30,0,1,,,,,,,,,,,,,,,,,,,,,,,,,,,,,,,,,,,,,,,
,,,,,,,,2023-08-16_10h12.33.426,HF_wild_card,2022.2.4,Win32,59.62673663,6173c5b0aa4bc2370fd2c1f2,64d2fd46c836a06233681665,64dc7e8170a266150a12709b,,,,,,,ctch,resources/DR.BMP,resources/DP.BMP,Door3,-0.255555541,-0.038888896,1,0,0,0.5114,optionLeft,70,3945,2,31,0,31,0,1,,,,,,,,,,,,,,,,,,,,,,,,,,,,,,,,,,,,,,,
,,,,,,,,2023-08-16_10h12.33.426,HF_wild_card,2022.2.4,Win32,59.62673663,6173c5b0aa4bc2370fd2c1f2,64d2fd46c836a06233681665,64dc7e8170a266150a12709b,,,,,,,sngl,resources/DB.BMP,resources/Empty.png,WildCard_NonEx,-0.224999958,-0.038888896,1,0,0,0.5712,optionLeft,55,4000,2,32,0,32,0,1,,,,,,,,,,,,,,,,,,,,,,,,,,,,,,,,,,,,,,,
,,,,,,,,2023-08-16_10h12.33.426,HF_wild_card,2022.2.4,Win32,59.62673663,6173c5b0aa4bc2370fd2c1f2,64d2fd46c836a06233681665,64dc7e8170a266150a12709b,,,,,,,sngl,resources/DP.BMP,resources/Empty.png,Door2,-0.307407414,-0.010185206,1,0,0,0.504,optionLeft,20,4020,2,33,0,33,0,1,,,,,,,,,,,,,,,,,,,,,,,,,,,,,,,,,,,,,,,
,,,,,,,,2023-08-16_10h12.33.426,HF_wild_card,2022.2.4,Win32,59.62673663,6173c5b0aa4bc2370fd2c1f2,64d2fd46c836a06233681665,64dc7e8170a266150a12709b,,,,,,,decisionTrl,resources/DB.BMP,resources/DP.BMP,WildCard_NonEx,-0.242592564,-0.025925919,1,0,0,0.5793,optionLeft,55,4075,2,34,0,34,0,1,,,,,,,,,,,,,,,,,,,,,,,,,,,,,,,,,,,,,,,
,,,,,,,,2023-08-16_10h12.33.426,HF_wild_card,2022.2.4,Win32,59.62673663,6173c5b0aa4bc2370fd2c1f2,64d2fd46c836a06233681665,64dc7e8170a266150a12709b,,,,,,,decisionTrl,resources/DB.BMP,resources/DG.BMP,Door4,0.288888931,0,1,0,0,0.3545,optionRight,60,4135,2,35,0,35,0,1,,,,,,,,,,,,,,,,,,,,,,,,,,,,,,,,,,,,,,,
,,,,,,,,2023-08-16_10h12.33.426,HF_wild_card,2022.2.4,Win32,59.62673663,6173c5b0aa4bc2370fd2c1f2,64d2fd46c836a06233681665,64dc7e8170a266150a12709b,,,,,,,decisionTrl,resources/DR.BMP,resources/DB.BMP,Door3,-0.572222215,-0.097222222,1,0,0,0.3783,optionLeft,70,4205,2,36,0,36,0,1,,,,,,,,,,,,,,,,,,,,,,,,,,,,,,,,,,,,,,,
,,,,,,,,2023-08-16_10h12.33.426,HF_wild_card,2022.2.4,Win32,59.62673663,6173c5b0aa4bc2370fd2c1f2,64d2fd46c836a06233681665,64dc7e8170a266150a12709b,,,,,,,decisionTrl,resources/DP.BMP,resources/DY.BMP,Door2,-0.260185171,-0.040740755,1,0,0,0.8935,optionLeft,20,4225,2,37,0,37,0,1,,,,,,,,,,,,,,,,,,,,,,,,,,,,,,,,,,,,,,,
,,,,,,,,2023-08-16_10h12.33.426,HF_wild_card,2022.2.4,Win32,59.62673663,6173c5b0aa4bc2370fd2c1f2,64d2fd46c836a06233681665,64dc7e8170a266150a12709b,,,,,,,ctch,resources/DY.BMP,resources/DG.BMP,Door4,0.176851838,-0.005555577,1,0,0,0.4614,optionRight,60,4285,2,38,0,38,0,1,,,,,,,,,,,,,,,,,,,,,,,,,,,,,,,,,,,,,,,
,,,,,,,,2023-08-16_10h12.33.426,HF_wild_card,2022.2.4,Win32,59.62673663,6173c5b0aa4bc2370fd2c1f2,64d2fd46c836a06233681665,64dc7e8170a266150a12709b,,,,,,,ctch,resources/DR.BMP,resources/DP.BMP,Door3,-0.188888903,0.001851859,1,0,0,0.477,optionLeft,70,4355,2,39,0,39,0,1,,,,,,,,,,,,,,,,,,,,,,,,,,,,,,,,,,,,,,,
,,,,,,,,2023-08-16_10h12.33.426,HF_wild_card,2022.2.4,Win32,59.62673663,6173c5b0aa4bc2370fd2c1f2,64d2fd46c836a06233681665,64dc7e8170a266150a12709b,,,,,,,sngl,resources/Empty.png,resources/DR.BMP,Door3,0.307407379,0.013888889,1,0,0,0.4318,optionRight,70,4425,2,40,0,40,0,1,,,,,,,,,,,,,,,,,,,,,,,,,,,,,,,,,,,,,,,
,,,,,,,,2023-08-16_10h12.33.426,HF_wild_card,2022.2.4,Win32,59.62673663,6173c5b0aa4bc2370fd2c1f2,64d2fd46c836a06233681665,64dc7e8170a266150a12709b,,,,,,,ctch,resources/DP.BMP,resources/DR.BMP,Door3,0.294444473,0.043518526,1,0,0,0.4566,optionRight,70,4495,2,41,0,41,0,1,,,,,,,,,,,,,,,,,,,,,,,,,,,,,,,,,,,,,,,
,,,,,,,,2023-08-16_10h12.33.426,HF_wild_card,2022.2.4,Win32,59.62673663,6173c5b0aa4bc2370fd2c1f2,64d2fd46c836a06233681665,64dc7e8170a266150a12709b,,,,,,,decisionTrl,resources/DG.BMP,resources/DR.BMP,Door3,0.319444444,0.042592578,1,0,0,0.4463,optionRight,70,4565,2,42,0,42,0,1,,,,,,,,,,,,,,,,,,,,,,,,,,,,,,,,,,,,,,,
,,,,,,,,2023-08-16_10h12.33.426,HF_wild_card,2022.2.4,Win32,59.62673663,6173c5b0aa4bc2370fd2c1f2,64d2fd46c836a06233681665,64dc7e8170a266150a12709b,,,,,,,sngl,resources/DY.BMP,resources/Empty.png,Door1,-0.249074088,-0.027777778,1,0,0,0.5719,optionLeft,30,4595,2,43,0,43,0,1,,,,,,,,,,,,,,,,,,,,,,,,,,,,,,,,,,,,,,,
,,,,,,,,2023-08-16_10h12.33.426,HF_wild_card,2022.2.4,Win32,59.62673663,6173c5b0aa4bc2370fd2c1f2,64d2fd46c836a06233681665,64dc7e8170a266150a12709b,,,,,,,,,,,,,,,,,,,,,,,,,,1,0,1,0,1,,,,,,,,,,,,,,,,,,,,,,,,,,,,,,,,,,
,,,,,,,,2023-08-16_10h12.33.426,HF_wild_card,2022.2.4,Win32,59.62673663,6173c5b0aa4bc2370fd2c1f2,64d2fd46c836a06233681665,64dc7e8170a266150a12709b,,,,,,,decisionTrl,resources/DR.BMP,resources/DB.BMP,Door3,-0.37037037,-0.100000028,1,0,0,0.7586,optionLeft,70,4665,3,0,0,0,0,1,,,,,,,,,,,,,,,,,,,,,,,,,,,,,,,,,,,,,,,
,,,,,,,,2023-08-16_10h12.33.426,HF_wild_card,2022.2.4,Win32,59.62673663,6173c5b0aa4bc2370fd2c1f2,64d2fd46c836a06233681665,64dc7e8170a266150a12709b,,,,,,,ctch,resources/DP.BMP,resources/DR.BMP,Door3,0.375,0.052777785,1,0,0,0.4112,optionRight,70,4735,3,1,0,1,0,1,,,,,,,,,,,,,,,,,,,,,,,,,,,,,,,,,,,,,,,
,,,,,,,,2023-08-16_10h12.33.426,HF_wild_card,2022.2.4,Win32,59.62673663,6173c5b0aa4bc2370fd2c1f2,64d2fd46c836a06233681665,64dc7e8170a266150a12709b,,,,,,,decisionTrl,resources/DB.BMP,resources/DP.BMP,WildCard_NonEx,-0.223148134,-0.013888889,1,0,0,0.5616,optionLeft,45,4780,3,2,0,2,0,1,,,,,,,,,,,,,,,,,,,,,,,,,,,,,,,,,,,,,,,
,,,,,,,,2023-08-16_10h12.33.426,HF_wild_card,2022.2.4,Win32,59.62673663,6173c5b0aa4bc2370fd2c1f2,64d2fd46c836a06233681665,64dc7e8170a266150a12709b,,,,,,,decisionTrl,resources/DB.BMP,resources/DR.BMP,Door3,0.378703788,0.053703697,1,0,0,0.8451,optionRight,70,4850,3,3,0,3,0,1,,,,,,,,,,,,,,,,,,,,,,,,,,,,,,,,,,,,,,,
,,,,,,,,2023-08-16_10h12.33.426,HF_wild_card,2022.2.4,Win32,59.62673663,6173c5b0aa4bc2370fd2c1f2,64d2fd46c836a06233681665,64dc7e8170a266150a12709b,,,,,,,decisionTrl,resources/DR.BMP,resources/DG.BMP,Door4,0.362037094,0.060185185,1,0,0,0.4376,optionRight,60,4910,3,4,0,4,0,1,,,,,,,,,,,,,,,,,,,,,,,,,,,,,,,,,,,,,,,
,,,,,,,,2023-08-16_10h12.33.426,HF_wild_card,2022.2.4,Win32,59.62673663,6173c5b0aa4bc2370fd2c1f2,64d2fd46c836a06233681665,64dc7e8170a266150a12709b,,,,,,,decisionTrl,resources/DR.BMP,resources/DG.BMP,Door3,-0.271296254,0.014814801,1,0,0,0.9785,optionLeft,70,4980,3,5,0,5,0,1,,,,,,,,,,,,,,,,,,,,,,,,,,,,,,,,,,,,,,,
,,,,,,,,2023-08-16_10h12.33.426,HF_wild_card,2022.2.4,Win32,59.62673663,6173c5b0aa4bc2370fd2c1f2,64d2fd46c836a06233681665,64dc7e8170a266150a12709b,,,,,,,sngl,resources/Empty.png,resources/DB.BMP,WildCard_NonEx,0.186111097,0.034259266,1,0,0,0.9439,optionRight,45,5025,3,6,0,6,0,1,,,,,,,,,,,,,,,,,,,,,,,,,,,,,,,,,,,,,,,
,,,,,,,,2023-08-16_10h12.33.426,HF_wild_card,2022.2.4,Win32,59.62673663,6173c5b0aa4bc2370fd2c1f2,64d2fd46c836a06233681665,64dc7e8170a266150a12709b,,,,,,,decisionTrl,resources/DB.BMP,resources/DG.BMP,Door4,0.324074074,0.098148134,1,0,0,0.6782,optionRight,60,5085,3,7,0,7,0,1,,,,,,,,,,,,,,,,,,,,,,,,,,,,,,,,,,,,,,,
,,,,,,,,2023-08-16_10h12.33.426,HF_wild_card,2022.2.4,Win32,59.62673663,6173c5b0aa4bc2370fd2c1f2,64d2fd46c836a06233681665,64dc7e8170a266150a12709b,,,,,,,decisionTrl,resources/DY.BMP,resources/DP.BMP,Door2,0.22592594,0.054629608,1,0,0,1.0261,optionRight,20,5105,3,8,0,8,0,1,,,,,,,,,,,,,,,,,,,,,,,,,,,,,,,,,,,,,,,
,,,,,,,,2023-08-16_10h12.33.426,HF_wild_card,2022.2.4,Win32,59.62673663,6173c5b0aa4bc2370fd2c1f2,64d2fd46c836a06233681665,64dc7e8170a266150a12709b,,,,,,,ctch,resources/DG.BMP,resources/DY.BMP,Door4,-0.349074081,-0.052777785,1,0,0,0.5282,optionLeft,60,5165,3,9,0,9,0,1,,,,,,,,,,,,,,,,,,,,,,,,,,,,,,,,,,,,,,,
,,,,,,,,2023-08-16_10h12.33.426,HF_wild_card,2022.2.4,Win32,59.62673663,6173c5b0aa4bc2370fd2c1f2,64d2fd46c836a06233681665,64dc7e8170a266150a12709b,,,,,,,decisionTrl,resources/DG.BMP,resources/DR.BMP,Door4,-0.409259266,-0.061111132,1,0,0,0.4472,optionLeft,80,5245,3,10,0,10,0,1,,,,,,,,,,,,,,,,,,,,,,,,,,,,,,,,,,,,,,,
,,,,,,,,2023-08-16_10h12.33.426,HF_wild_card,2022.2.4,Win32,59.62673663,6173c5b0aa4bc2370fd2c1f2,64d2fd46c836a06233681665,64dc7e8170a266150a12709b,,,,,,,decisionTrl,resources/DP.BMP,resources/DY.BMP,Door1,0.308333362,0.072222215,1,0,0,0.7278,optionRight,30,5275,3,11,0,11,0,1,,,,,,,,,,,,,,,,,,,,,,,,,,,,,,,,,,,,,,,
,,,,,,,,2023-08-16_10h12.33.426,HF_wild_card,2022.2.4,Win32,59.62673663,6173c5b0aa4bc2370fd2c1f2,64d2fd46c836a06233681665,64dc7e8170a266150a12709b,,,,,,,sngl,resources/Empty.png,resources/DY.BMP,Door1,0.426851908,0.075925933,1,0,0,0.4906,optionRight,30,5305,3,12,0,12,0,1,,,,,,,,,,,,,,,,,,,,,,,,,,,,,,,,,,,,,,,
,,,,,,,,2023-08-16_10h12.33.426,HF_wild_card,2022.2.4,Win32,59.62673663,6173c5b0aa4bc2370fd2c1f2,64d2fd46c836a06233681665,64dc7e8170a266150a12709b,,,,,,,sngl,resources/Empty.png,resources/DG.BMP,Door4,0.369444529,0.059259238,1,0,0,0.5317,optionRight,60,5365,3,13,0,13,0,1,,,,,,,,,,,,,,,,,,,,,,,,,,,,,,,,,,,,,,,
,,,,,,,,2023-08-16_10h12.33.426,HF_wild_card,2022.2.4,Win32,59.62673663,6173c5b0aa4bc2370fd2c1f2,64d2fd46c836a06233681665,64dc7e8170a266150a12709b,,,,,,,decisionTrl,resources/DY.BMP,resources/DP.BMP,Door1,-0.331481474,0.012962942,1,0,0,0.3873,optionLeft,30,5395,3,14,0,14,0,1,,,,,,,,,,,,,,,,,,,,,,,,,,,,,,,,,,,,,,,
,,,,,,,,2023-08-16_10h12.33.426,HF_wild_card,2022.2.4,Win32,59.62673663,6173c5b0aa4bc2370fd2c1f2,64d2fd46c836a06233681665,64dc7e8170a266150a12709b,,,,,,,decisionTrl,resources/DY.BMP,resources/DP.BMP,Door1,-0.318518497,-0.001851859,1,0,0,0.5121,optionLeft,30,5425,3,15,0,15,0,1,,,,,,,,,,,,,,,,,,,,,,,,,,,,,,,,,,,,,,,
,,,,,,,,2023-08-16_10h12.33.426,HF_wild_card,2022.2.4,Win32,59.62673663,6173c5b0aa4bc2370fd2c1f2,64d2fd46c836a06233681665,64dc7e8170a266150a12709b,,,,,,,sngl,resources/DP.BMP,resources/Empty.png,Door2,-0.454629616,-0.055555556,1,0,0,0.4488,optionLeft,40,5465,3,16,0,16,0,1,,,,,,,,,,,,,,,,,,,,,,,,,,,,,,,,,,,,,,,
,,,,,,,,2023-08-16_10h12.33.426,HF_wild_card,2022.2.4,Win32,59.62673663,6173c5b0aa4bc2370fd2c1f2,64d2fd46c836a06233681665,64dc7e8170a266150a12709b,,,,,,,decisionTrl,resources/DR.BMP,resources/DG.BMP,Door4,0.223148134,0.045370349,1,0,0,0.4717,optionRight,80,5545,3,17,0,17,0,1,,,,,,,,,,,,,,,,,,,,,,,,,,,,,,,,,,,,,,,
,,,,,,,,2023-08-16_10h12.33.426,HF_wild_card,2022.2.4,Win32,59.62673663,6173c5b0aa4bc2370fd2c1f2,64d2fd46c836a06233681665,64dc7e8170a266150a12709b,,,,,,,decisionTrl,resources/DR.BMP,resources/DG.BMP,Door3,-0.270370342,-0.010185206,1,0,0,0.5869,optionLeft,70,5615,3,18,0,18,0,1,,,,,,,,,,,,,,,,,,,,,,,,,,,,,,,,,,,,,,,
,,,,,,,,2023-08-16_10h12.33.426,HF_wild_card,2022.2.4,Win32,59.62673663,6173c5b0aa4bc2370fd2c1f2,64d2fd46c836a06233681665,64dc7e8170a266150a12709b,,,,,,,sngl,resources/Empty.png,resources/DR.BMP,Door3,0.250925912,0.032407407,1,0,0,0.4128,optionRight,70,5685,3,19,0,19,0,1,,,,,,,,,,,,,,,,,,,,,,,,,,,,,,,,,,,,,,,
,,,,,,,,2023-08-16_10h12.33.426,HF_wild_card,2022.2.4,Win32,59.62673663,6173c5b0aa4bc2370fd2c1f2,64d2fd46c836a06233681665,64dc7e8170a266150a12709b,,,,,,,sngl,resources/DB.BMP,resources/Empty.png,WildCard_NonEx,-0.189814815,-0.005555577,1,0,0,0.3943,optionLeft,55,5740,3,20,0,20,0,1,,,,,,,,,,,,,,,,,,,,,,,,,,,,,,,,,,,,,,,
,,,,,,,,2023-08-16_10h12.33.426,HF_wild_card,2022.2.4,Win32,59.62673663,6173c5b0aa4bc2370fd2c1f2,64d2fd46c836a06233681665,64dc7e8170a266150a12709b,,,,,,,decisionTrl,resources/DB.BMP,resources/DY.BMP,WildCard_NonEx,-0.451851845,-0.047222243,1,0,0,0.5617,optionLeft,55,5795,3,21,0,21,0,1,,,,,,,,,,,,,,,,,,,,,,,,,,,,,,,,,,,,,,,
,,,,,,,,2023-08-16_10h12.33.426,HF_wild_card,2022.2.4,Win32,59.62673663,6173c5b0aa4bc2370fd2c1f2,64d2fd46c836a06233681665,64dc7e8170a266150a12709b,,,,,,,sngl,resources/Empty.png,resources/DP.BMP,Door2,0.367592564,0.051851838,1,0,0,0.5277,optionRight,20,5815,3,22,0,22,0,1,,,,,,,,,,,,,,,,,,,,,,,,,,,,,,,,,,,,,,,
,,,,,,,,2023-08-16_10h12.33.426,HF_wild_card,2022.2.4,Win32,59.62673663,6173c5b0aa4bc2370fd2c1f2,64d2fd46c836a06233681665,64dc7e8170a266150a12709b,,,,,,,ctch,resources/DR.BMP,resources/DP.BMP,Door3,-0.261111083,-0.019444466,1,0,0,0.5117,optionLeft,70,5885,3,23,0,23,0,1,,,,,,,,,,,,,,,,,,,,,,,,,,,,,,,,,,,,,,,
,,,,,,,,2023-08-16_10h12.33.426,HF_wild_card,2022.2.4,Win32,59.62673663,6173c5b0aa4bc2370fd2c1f2,64d2fd46c836a06233681665,64dc7e8170a266150a12709b,,,,,,,decisionTrl,resources/DG.BMP,resources/DR.BMP,Door4,-0.220370328,-0.028703725,1,0,0,0.5111,optionLeft,60,5945,3,24,0,24,0,1,,,,,,,,,,,,,,,,,,,,,,,,,,,,,,,,,,,,,,,
,,,,,,,,2023-08-16_10h12.33.426,HF_wild_card,2022.2.4,Win32,59.62673663,6173c5b0aa4bc2370fd2c1f2,64d2fd46c836a06233681665,64dc7e8170a266150a12709b,,,,,,,ctch,resources/DR.BMP,resources/DP.BMP,Door3,-0.127777735,0.006481489,1,0,0,0.6666,optionLeft,70,6015,3,25,0,25,0,1,,,,,,,,,,,,,,,,,,,,,,,,,,,,,,,,,,,,,,,
,,,,,,,,2023-08-16_10h12.33.426,HF_wild_card,2022.2.4,Win32,59.62673663,6173c5b0aa4bc2370fd2c1f2,64d2fd46c836a06233681665,64dc7e8170a266150a12709b,,,,,,,decisionTrl,resources/DP.BMP,resources/DB.BMP,WildCard_NonEx,0.22129631,0.037962949,1,0,0,0.4548,optionRight,45,6060,3,26,0,26,0,1,,,,,,,,,,,,,,,,,,,,,,,,,,,,,,,,,,,,,,,
,,,,,,,,2023-08-16_10h12.33.426,HF_wild_card,2022.2.4,Win32,59.62673663,6173c5b0aa4bc2370fd2c1f2,64d2fd46c836a06233681665,64dc7e8170a266150a12709b,,,,,,,sngl,resources/Empty.png,resources/DB.BMP,WildCard_NonEx,0.316666638,0,1,0,0,1.8943,optionRight,55,6115,3,27,0,27,0,1,,,,,,,,,,,,,,,,,,,,,,,,,,,,,,,,,,,,,,,
,,,,,,,,2023-08-16_10h12.33.426,HF_wild_card,2022.2.4,Win32,59.62673663,6173c5b0aa4bc2370fd2c1f2,64d2fd46c836a06233681665,64dc7e8170a266150a12709b,,,,,,,decisionTrl,resources/DY.BMP,resources/DB.BMP,WildCard_NonEx,0.462962963,0.070370356,1,0,0,11.5114,optionRight,55,6170,3,28,0,28,0,1,,,,,,,,,,,,,,,,,,,,,,,,,,,,,,,,,,,,,,,
,,,,,,,,2023-08-16_10h12.33.426,HF_wild_card,2022.2.4,Win32,59.62673663,6173c5b0aa4bc2370fd2c1f2,64d2fd46c836a06233681665,64dc7e8170a266150a12709b,,,,,,,ctch,resources/DY.BMP,resources/DG.BMP,Door4,0.414814843,0.088888875,1,0,0,0.4603,optionRight,60,6230,3,29,0,29,0,1,,,,,,,,,,,,,,,,,,,,,,,,,,,,,,,,,,,,,,,
,,,,,,,,2023-08-16_10h12.33.426,HF_wild_card,2022.2.4,Win32,59.62673663,6173c5b0aa4bc2370fd2c1f2,64d2fd46c836a06233681665,64dc7e8170a266150a12709b,,,,,,,decisionTrl,resources/DP.BMP,resources/DY.BMP,Door2,-0.189814815,-0.006481489,1,0,0,0.4075,optionLeft,20,6250,3,30,0,30,0,1,,,,,,,,,,,,,,,,,,,,,,,,,,,,,,,,,,,,,,,
,,,,,,,,2023-08-16_10h12.33.426,HF_wild_card,2022.2.4,Win32,59.62673663,6173c5b0aa4bc2370fd2c1f2,64d2fd46c836a06233681665,64dc7e8170a266150a12709b,,,,,,,sngl,resources/DR.BMP,resources/Empty.png,Door3,-0.401851831,-0.027777778,1,0,0,0.4113,optionLeft,70,6320,3,31,0,31,0,1,,,,,,,,,,,,,,,,,,,,,,,,,,,,,,,,,,,,,,,
,,,,,,,,2023-08-16_10h12.33.426,HF_wild_card,2022.2.4,Win32,59.62673663,6173c5b0aa4bc2370fd2c1f2,64d2fd46c836a06233681665,64dc7e8170a266150a12709b,,,,,,,sngl,resources/DB.BMP,resources/Empty.png,WildCard_NonEx,-0.294444402,-0.002777771,1,0,0,0.4446,optionLeft,45,6365,3,32,0,32,0,1,,,,,,,,,,,,,,,,,,,,,,,,,,,,,,,,,,,,,,,
,,,,,,,,2023-08-16_10h12.33.426,HF_wild_card,2022.2.4,Win32,59.62673663,6173c5b0aa4bc2370fd2c1f2,64d2fd46c836a06233681665,64dc7e8170a266150a12709b,,,,,,,sngl,resources/DG.BMP,resources/Empty.png,Door4,-0.373148141,-0.009259259,1,0,0,0.4086,optionLeft,80,6445,3,33,0,33,0,1,,,,,,,,,,,,,,,,,,,,,,,,,,,,,,,,,,,,,,,
,,,,,,,,2023-08-16_10h12.33.426,HF_wild_card,2022.2.4,Win32,59.62673663,6173c5b0aa4bc2370fd2c1f2,64d2fd46c836a06233681665,64dc7e8170a266150a12709b,,,,,,,decisionTrl,resources/DG.BMP,resources/DR.BMP,Door3,0.399999972,0.092592593,1,0,0,0.8611,optionRight,70,6515,3,34,0,34,0,1,,,,,,,,,,,,,,,,,,,,,,,,,,,,,,,,,,,,,,,
,,,,,,,,2023-08-16_10h12.33.426,HF_wild_card,2022.2.4,Win32,59.62673663,6173c5b0aa4bc2370fd2c1f2,64d2fd46c836a06233681665,64dc7e8170a266150a12709b,,,,,,,ctch,resources/DP.BMP,resources/DR.BMP,Door3,0.436111168,0.087037016,1,0,0,0.4102,optionRight,70,6585,3,35,0,35,0,1,,,,,,,,,,,,,,,,,,,,,,,,,,,,,,,,,,,,,,,
,,,,,,,,2023-08-16_10h12.33.426,HF_wild_card,2022.2.4,Win32,59.62673663,6173c5b0aa4bc2370fd2c1f2,64d2fd46c836a06233681665,64dc7e8170a266150a12709b,,,,,,,decisionTrl,resources/DG.BMP,resources/DR.BMP,Door4,-0.29351849,0.002777771,1,0,0,0.8932,optionLeft,80,6665,3,36,0,36,0,1,,,,,,,,,,,,,,,,,,,,,,,,,,,,,,,,,,,,,,,
,,,,,,,,2023-08-16_10h12.33.426,HF_wild_card,2022.2.4,Win32,59.62673663,6173c5b0aa4bc2370fd2c1f2,64d2fd46c836a06233681665,64dc7e8170a266150a12709b,,,,,,,sngl,resources/DY.BMP,resources/Empty.png,Door1,-0.299074067,-0.01203703,1,0,0,0.4269,optionLeft,30,6695,3,37,0,37,0,1,,,,,,,,,,,,,,,,,,,,,,,,,,,,,,,,,,,,,,,
,,,,,,,,2023-08-16_10h12.33.426,HF_wild_card,2022.2.4,Win32,59.62673663,6173c5b0aa4bc2370fd2c1f2,64d2fd46c836a06233681665,64dc7e8170a266150a12709b,,,,,,,decisionTrl,resources/DP.BMP,resources/DY.BMP,Door1,0.179629644,0.001851859,1,0,0,0.4185,optionRight,30,6725,3,38,0,38,0,1,,,,,,,,,,,,,,,,,,,,,,,,,,,,,,,,,,,,,,,
,,,,,,,,2023-08-16_10h12.33.426,HF_wild_card,2022.2.4,Win32,59.62673663,6173c5b0aa4bc2370fd2c1f2,64d2fd46c836a06233681665,64dc7e8170a266150a12709b,,,,,,,ctch,resources/DG.BMP,resources/DY.BMP,Door4,-0.26944443,-0.054629644,1,0,0,0.4775,optionLeft,60,6785,3,39,0,39,0,1,,,,,,,,,,,,,,,,,,,,,,,,,,,,,,,,,,,,,,,
,,,,,,,,2023-08-16_10h12.33.426,HF_wild_card,2022.2.4,Win32,59.62673663,6173c5b0aa4bc2370fd2c1f2,64d2fd46c836a06233681665,64dc7e8170a266150a12709b,,,,,,,ctch,resources/DY.BMP,resources/DG.BMP,Door4,0.237037023,0.022222201,1,0,0,0.4933,optionRight,80,6865,3,40,0,40,0,1,,,,,,,,,,,,,,,,,,,,,,,,,,,,,,,,,,,,,,,
,,,,,,,,2023-08-16_10h12.33.426,HF_wild_card,2022.2.4,Win32,59.62673663,6173c5b0aa4bc2370fd2c1f2,64d2fd46c836a06233681665,64dc7e8170a266150a12709b,,,,,,,decisionTrl,resources/DG.BMP,resources/DB.BMP,Door4,-0.255555541,-0.027777778,1,0,0,0.5277,optionLeft,80,6945,3,41,0,41,0,1,,,,,,,,,,,,,,,,,,,,,,,,,,,,,,,,,,,,,,,
,,,,,,,,2023-08-16_10h12.33.426,HF_wild_card,2022.2.4,Win32,59.62673663,6173c5b0aa4bc2370fd2c1f2,64d2fd46c836a06233681665,64dc7e8170a266150a12709b,,,,,,,decisionTrl,resources/DP.BMP,resources/DY.BMP,Door1,0.344444416,0.025000007,1,0,0,0.7627,optionRight,30,6975,3,42,0,42,0,1,,,,,,,,,,,,,,,,,,,,,,,,,,,,,,,,,,,,,,,
,,,,,,,,2023-08-16_10h12.33.426,HF_wild_card,2022.2.4,Win32,59.62673663,6173c5b0aa4bc2370fd2c1f2,64d2fd46c836a06233681665,64dc7e8170a266150a12709b,,,,,,,decisionTrl,resources/DY.BMP,resources/DP.BMP,Door1,-0.246296282,-0.024074095,1,0,0,0.495,optionLeft,30,7005,3,43,0,43,0,1,,,,,,,,,,,,,,,,,,,,,,,,,,,,,,,,,,,,,,,
,,,,,,,,2023-08-16_10h12.33.426,HF_wild_card,2022.2.4,Win32,59.62673663,6173c5b0aa4bc2370fd2c1f2,64d2fd46c836a06233681665,64dc7e8170a266150a12709b,,,,,,,,,,,,,,,,,,,,,,,,,,2,0,2,0,1,,,,,,,,,,,,,,,,,,,,,,,,,,,,,,,,,,
,,,,,,,,2023-08-16_10h12.33.426,HF_wild_card,2022.2.4,Win32,59.62673663,6173c5b0aa4bc2370fd2c1f2,64d2fd46c836a06233681665,64dc7e8170a266150a12709b,,,,,,,decisionTrl,resources/DP.BMP,resources/DY.BMP,Door2,-0.333333333,0.078703704,1,0,0,1.3342,optionLeft,20,7025,4,0,0,0,0,1,,,,,,,,,,,,,,,,,,,,,,,,,,,,,,,,,,,,,,,
,,,,,,,,2023-08-16_10h12.33.426,HF_wild_card,2022.2.4,Win32,59.62673663,6173c5b0aa4bc2370fd2c1f2,64d2fd46c836a06233681665,64dc7e8170a266150a12709b,,,,,,,sngl,resources/DBN.BMP,resources/Empty.png,WildCard_Ex,-0.292592578,-0.018518519,1,0,0,0.3951,optionLeft,5,7030,4,1,0,1,0,1,,,,,,,,,,,,,,,,,,,,,,,,,,,,,,,,,,,,,,,
,,,,,,,,2023-08-16_10h12.33.426,HF_wild_card,2022.2.4,Win32,59.62673663,6173c5b0aa4bc2370fd2c1f2,64d2fd46c836a06233681665,64dc7e8170a266150a12709b,,,,,,,decisionTrl,resources/DP.BMP,resources/DY.BMP,Door1,0.417592649,0.018518519,1,0,0,0.3634,optionRight,30,7060,4,2,0,2,0,1,,,,,,,,,,,,,,,,,,,,,,,,,,,,,,,,,,,,,,,
,,,,,,,,2023-08-16_10h12.33.426,HF_wild_card,2022.2.4,Win32,59.62673663,6173c5b0aa4bc2370fd2c1f2,64d2fd46c836a06233681665,64dc7e8170a266150a12709b,,,,,,,decisionTrl,resources/DBN.BMP,resources/DR.BMP,WildCard_Ex,-0.268518519,0.00462963,1,0,0,0.246,optionLeft,5,7065,4,3,0,3,0,1,,,,,,,,,,,,,,,,,,,,,,,,,,,,,,,,,,,,,,,
,,,,,,,,2023-08-16_10h12.33.426,HF_wild_card,2022.2.4,Win32,59.62673663,6173c5b0aa4bc2370fd2c1f2,64d2fd46c836a06233681665,64dc7e8170a266150a12709b,,,,,,,sngl,resources/DY.BMP,resources/Empty.png,Door1,-0.332407386,-0.010185206,1,0,0,0.8126,optionLeft,30,7095,4,4,0,4,0,1,,,,,,,,,,,,,,,,,,,,,,,,,,,,,,,,,,,,,,,
,,,,,,,,2023-08-16_10h12.33.426,HF_wild_card,2022.2.4,Win32,59.62673663,6173c5b0aa4bc2370fd2c1f2,64d2fd46c836a06233681665,64dc7e8170a266150a12709b,,,,,,,ctch,resources/DP.BMP,resources/DR.BMP,Door3,0.239814829,0.017592571,1,0,0,0.285,optionRight,70,7165,4,5,0,5,0,1,,,,,,,,,,,,,,,,,,,,,,,,,,,,,,,,,,,,,,,
,,,,,,,,2023-08-16_10h12.33.426,HF_wild_card,2022.2.4,Win32,59.62673663,6173c5b0aa4bc2370fd2c1f2,64d2fd46c836a06233681665,64dc7e8170a266150a12709b,,,,,,,decisionTrl,resources/DBN.BMP,resources/DP.BMP,WildCard_Ex,-0.19259255,-0.005555577,1,0,0,0.2257,optionLeft,5,7170,4,6,0,6,0,1,,,,,,,,,,,,,,,,,,,,,,,,,,,,,,,,,,,,,,,
,,,,,,,,2023-08-16_10h12.33.426,HF_wild_card,2022.2.4,Win32,59.62673663,6173c5b0aa4bc2370fd2c1f2,64d2fd46c836a06233681665,64dc7e8170a266150a12709b,,,,,,,sngl,resources/Empty.png,resources/DP.BMP,Door2,0.334259316,0.04074072,1,0,0,0.6135,optionRight,40,7210,4,7,0,7,0,1,,,,,,,,,,,,,,,,,,,,,,,,,,,,,,,,,,,,,,,
,,,,,,,,2023-08-16_10h12.33.426,HF_wild_card,2022.2.4,Win32,59.62673663,6173c5b0aa4bc2370fd2c1f2,64d2fd46c836a06233681665,64dc7e8170a266150a12709b,,,,,,,decisionTrl,resources/DBN.BMP,resources/DY.BMP,WildCard_Ex,-0.271296254,0.000925912,1,0,0,0.6964,optionLeft,5,7215,4,8,0,8,0,1,,,,,,,,,,,,,,,,,,,,,,,,,,,,,,,,,,,,,,,
,,,,,,,,2023-08-16_10h12.33.426,HF_wild_card,2022.2.4,Win32,59.62673663,6173c5b0aa4bc2370fd2c1f2,64d2fd46c836a06233681665,64dc7e8170a266150a12709b,,,,,,,decisionTrl,resources/DR.BMP,resources/DG.BMP,Door3,-0.257407365,0.043518526,1,0,0,1.2799,optionLeft,70,7285,4,9,0,9,0,1,,,,,,,,,,,,,,,,,,,,,,,,,,,,,,,,,,,,,,,
,,,,,,,,2023-08-16_10h12.33.426,HF_wild_card,2022.2.4,Win32,59.62673663,6173c5b0aa4bc2370fd2c1f2,64d2fd46c836a06233681665,64dc7e8170a266150a12709b,,,,,,,decisionTrl,resources/DY.BMP,resources/DP.BMP,Door2,0.312037009,0.025925919,1,0,0,0.763,optionRight,40,7325,4,10,0,10,0,1,,,,,,,,,,,,,,,,,,,,,,,,,,,,,,,,,,,,,,,
,,,,,,,,2023-08-16_10h12.33.426,HF_wild_card,2022.2.4,Win32,59.62673663,6173c5b0aa4bc2370fd2c1f2,64d2fd46c836a06233681665,64dc7e8170a266150a12709b,,,,,,,sngl,resources/Empty.png,resources/DG.BMP,Door4,0.317592621,0.00462963,1,0,0,0.7459,optionRight,80,7405,4,11,0,11,0,1,,,,,,,,,,,,,,,,,,,,,,,,,,,,,,,,,,,,,,,
,,,,,,,,2023-08-16_10h12.33.426,HF_wild_card,2022.2.4,Win32,59.62673663,6173c5b0aa4bc2370fd2c1f2,64d2fd46c836a06233681665,64dc7e8170a266150a12709b,,,,,,,decisionTrl,resources/DR.BMP,resources/DG.BMP,Door3,-0.273148148,0.0074074,1,0,0,0.9635,optionLeft,70,7475,4,12,0,12,0,1,,,,,,,,,,,,,,,,,,,,,,,,,,,,,,,,,,,,,,,
,,,,,,,,2023-08-16_10h12.33.426,HF_wild_card,2022.2.4,Win32,59.62673663,6173c5b0aa4bc2370fd2c1f2,64d2fd46c836a06233681665,64dc7e8170a266150a12709b,,,,,,,sngl,resources/Empty.png,resources/DBN.BMP,WildCard_Ex,0.50462963,0.101851852,1,0,0,1.0462,optionRight,95,7570,4,13,0,13,0,1,,,,,,,,,,,,,,,,,,,,,,,,,,,,,,,,,,,,,,,
,,,,,,,,2023-08-16_10h12.33.426,HF_wild_card,2022.2.4,Win32,59.62673663,6173c5b0aa4bc2370fd2c1f2,64d2fd46c836a06233681665,64dc7e8170a266150a12709b,,,,,,,sngl,resources/Empty.png,resources/DY.BMP,Door1,0.299074102,0.062037044,1,0,0,0.4842,optionRight,30,7600,4,14,0,14,0,1,,,,,,,,,,,,,,,,,,,,,,,,,,,,,,,,,,,,,,,
,,,,,,,,2023-08-16_10h12.33.426,HF_wild_card,2022.2.4,Win32,59.62673663,6173c5b0aa4bc2370fd2c1f2,64d2fd46c836a06233681665,64dc7e8170a266150a12709b,,,,,,,decisionTrl,resources/DP.BMP,resources/DY.BMP,Door2,-0.291666667,-0.002777771,1,0,0,0.4462,optionLeft,40,7640,4,15,0,15,0,1,,,,,,,,,,,,,,,,,,,,,,,,,,,,,,,,,,,,,,,
,,,,,,,,2023-08-16_10h12.33.426,HF_wild_card,2022.2.4,Win32,59.62673663,6173c5b0aa4bc2370fd2c1f2,64d2fd46c836a06233681665,64dc7e8170a266150a12709b,,,,,,,decisionTrl,resources/DY.BMP,resources/DBN.BMP,WildCard_Ex,0.430555556,0.112037023,1,0,0,0.9258,optionRight,95,7735,4,16,0,16,0,1,,,,,,,,,,,,,,,,,,,,,,,,,,,,,,,,,,,,,,,
,,,,,,,,2023-08-16_10h12.33.426,HF_wild_card,2022.2.4,Win32,59.62673663,6173c5b0aa4bc2370fd2c1f2,64d2fd46c836a06233681665,64dc7e8170a266150a12709b,,,,,,,decisionTrl,resources/DP.BMP,resources/DY.BMP,Door1,0.213888875,0.038888896,1,0,0,0.693,optionRight,30,7765,4,17,0,17,0,1,,,,,,,,,,,,,,,,,,,,,,,,,,,,,,,,,,,,,,,
,,,,,,,,2023-08-16_10h12.33.426,HF_wild_card,2022.2.4,Win32,59.62673663,6173c5b0aa4bc2370fd2c1f2,64d2fd46c836a06233681665,64dc7e8170a266150a12709b,,,,,,,decisionTrl,resources/DBN.BMP,resources/DG.BMP,WildCard_Ex,-0.25462963,-0.012962977,1,0,0,0.4633,optionLeft,5,7770,4,18,0,18,0,1,,,,,,,,,,,,,,,,,,,,,,,,,,,,,,,,,,,,,,,
,,,,,,,,2023-08-16_10h12.33.426,HF_wild_card,2022.2.4,Win32,59.62673663,6173c5b0aa4bc2370fd2c1f2,64d2fd46c836a06233681665,64dc7e8170a266150a12709b,,,,,,,decisionTrl,resources/DG.BMP,resources/DR.BMP,Door4,-0.303703697,-0.00462963,1,0,0,0.4797,optionLeft,60,7830,4,19,0,19,0,1,,,,,,,,,,,,,,,,,,,,,,,,,,,,,,,,,,,,,,,
,,,,,,,,2023-08-16_10h12.33.426,HF_wild_card,2022.2.4,Win32,59.62673663,6173c5b0aa4bc2370fd2c1f2,64d2fd46c836a06233681665,64dc7e8170a266150a12709b,,,,,,,decisionTrl,resources/DG.BMP,resources/DR.BMP,Door3,0.239814829,0.078703704,1,0,0,0.7471,optionRight,70,7900,4,20,0,20,0,1,,,,,,,,,,,,,,,,,,,,,,,,,,,,,,,,,,,,,,,
,,,,,,,,2023-08-16_10h12.33.426,HF_wild_card,2022.2.4,Win32,59.62673663,6173c5b0aa4bc2370fd2c1f2,64d2fd46c836a06233681665,64dc7e8170a266150a12709b,,,,,,,ctch,resources/DP.BMP,resources/DR.BMP,Door3,0.208333333,0.059259238,1,0,0,0.5587,optionRight,70,7970,4,21,0,21,0,1,,,,,,,,,,,,,,,,,,,,,,,,,,,,,,,,,,,,,,,
,,,,,,,,2023-08-16_10h12.33.426,HF_wild_card,2022.2.4,Win32,59.62673663,6173c5b0aa4bc2370fd2c1f2,64d2fd46c836a06233681665,64dc7e8170a266150a12709b,,,,,,,decisionTrl,resources/DG.BMP,resources/DBN.BMP,Door4,-0.321296303,-0.030555548,1,0,0,0.5662,optionLeft,60,8030,4,22,0,22,0,1,,,,,,,,,,,,,,,,,,,,,,,,,,,,,,,,,,,,,,,
,,,,,,,,2023-08-16_10h12.33.426,HF_wild_card,2022.2.4,Win32,59.62673663,6173c5b0aa4bc2370fd2c1f2,64d2fd46c836a06233681665,64dc7e8170a266150a12709b,,,,,,,decisionTrl,resources/DR.BMP,resources/DG.BMP,Door4,0.151851866,0.027777778,1,0,0,0.5968,optionRight,60,8090,4,23,0,23,0,1,,,,,,,,,,,,,,,,,,,,,,,,,,,,,,,,,,,,,,,
,,,,,,,,2023-08-16_10h12.33.426,HF_wild_card,2022.2.4,Win32,59.62673663,6173c5b0aa4bc2370fd2c1f2,64d2fd46c836a06233681665,64dc7e8170a266150a12709b,,,,,,,decisionTrl,resources/DR.BMP,resources/DG.BMP,Door3,-0.215740698,-0.00462963,1,0,0,0.492,optionLeft,70,8160,4,24,0,24,0,1,,,,,,,,,,,,,,,,,,,,,,,,,,,,,,,,,,,,,,,
,,,,,,,,2023-08-16_10h12.33.426,HF_wild_card,2022.2.4,Win32,59.62673663,6173c5b0aa4bc2370fd2c1f2,64d2fd46c836a06233681665,64dc7e8170a266150a12709b,,,,,,,decisionTrl,resources/DY.BMP,resources/DP.BMP,Door1,-0.232407393,0.012962942,1,0,0,0.5923,optionLeft,30,8190,4,25,0,25,0,1,,,,,,,,,,,,,,,,,,,,,,,,,,,,,,,,,,,,,,,
,,,,,,,,2023-08-16_10h12.33.426,HF_wild_card,2022.2.4,Win32,59.62673663,6173c5b0aa4bc2370fd2c1f2,64d2fd46c836a06233681665,64dc7e8170a266150a12709b,,,,,,,sngl,resources/DP.BMP,resources/Empty.png,Door2,-0.414814808,0.058333326,1,0,0,0.7014,optionLeft,20,8210,4,26,0,26,0,1,,,,,,,,,,,,,,,,,,,,,,,,,,,,,,,,,,,,,,,
,,,,,,,,2023-08-16_10h12.33.426,HF_wild_card,2022.2.4,Win32,59.62673663,6173c5b0aa4bc2370fd2c1f2,64d2fd46c836a06233681665,64dc7e8170a266150a12709b,,,,,,,decisionTrl,resources/DG.BMP,resources/DR.BMP,Door3,0.344444416,0.062037044,1,0,0,0.6658,optionRight,70,8280,4,27,0,27,0,1,,,,,,,,,,,,,,,,,,,,,,,,,,,,,,,,,,,,,,,
,,,,,,,,2023-08-16_10h12.33.426,HF_wild_card,2022.2.4,Win32,59.62673663,6173c5b0aa4bc2370fd2c1f2,64d2fd46c836a06233681665,64dc7e8170a266150a12709b,,,,,,,sngl,resources/Empty.png,resources/DBN.BMP,WildCard_Ex,0.20185188,0.038888896,1,0,0,0.4469,optionRight,5,8285,4,28,0,28,0,1,,,,,,,,,,,,,,,,,,,,,,,,,,,,,,,,,,,,,,,
,,,,,,,,2023-08-16_10h12.33.426,HF_wild_card,2022.2.4,Win32,59.62673663,6173c5b0aa4bc2370fd2c1f2,64d2fd46c836a06233681665,64dc7e8170a266150a12709b,,,,,,,decisionTrl,resources/DY.BMP,resources/DP.BMP,Door1,-0.334259245,0.001851859,1,0,0,0.5589,optionLeft,30,8315,4,29,0,29,0,1,,,,,,,,,,,,,,,,,,,,,,,,,,,,,,,,,,,,,,,
,,,,,,,,2023-08-16_10h12.33.426,HF_wild_card,2022.2.4,Win32,59.62673663,6173c5b0aa4bc2370fd2c1f2,64d2fd46c836a06233681665,64dc7e8170a266150a12709b,,,,,,,decisionTrl,resources/DY.BMP,resources/DP.BMP,Door2,0.354629658,0.082407386,1,0,0,0.4267,optionRight,40,8355,4,30,0,30,0,1,,,,,,,,,,,,,,,,,,,,,,,,,,,,,,,,,,,,,,,
,,,,,,,,2023-08-16_10h12.33.426,HF_wild_card,2022.2.4,Win32,59.62673663,6173c5b0aa4bc2370fd2c1f2,64d2fd46c836a06233681665,64dc7e8170a266150a12709b,,,,,,,decisionTrl,resources/DR.BMP,resources/DBN.BMP,WildCard_Ex,0.410185213,0.080555563,1,0,0,0.5304,optionRight,95,8450,4,31,0,31,0,1,,,,,,,,,,,,,,,,,,,,,,,,,,,,,,,,,,,,,,,
,,,,,,,,2023-08-16_10h12.33.426,HF_wild_card,2022.2.4,Win32,59.62673663,6173c5b0aa4bc2370fd2c1f2,64d2fd46c836a06233681665,64dc7e8170a266150a12709b,,,,,,,sngl,resources/DG.BMP,resources/Empty.png,Door4,-0.36296297,-0.062037044,1,0,0,0.4965,optionLeft,60,8510,4,32,0,32,0,1,,,,,,,,,,,,,,,,,,,,,,,,,,,,,,,,,,,,,,,
,,,,,,,,2023-08-16_10h12.33.426,HF_wild_card,2022.2.4,Win32,59.62673663,6173c5b0aa4bc2370fd2c1f2,64d2fd46c836a06233681665,64dc7e8170a266150a12709b,,,,,,,ctch,resources/DY.BMP,resources/DG.BMP,Door4,0.162962949,0.013888889,1,0,0,0.5127,optionRight,60,8570,4,33,0,33,0,1,,,,,,,,,,,,,,,,,,,,,,,,,,,,,,,,,,,,,,,
,,,,,,,,2023-08-16_10h12.33.426,HF_wild_card,2022.2.4,Win32,59.62673663,6173c5b0aa4bc2370fd2c1f2,64d2fd46c836a06233681665,64dc7e8170a266150a12709b,,,,,,,sngl,resources/Empty.png,resources/DR.BMP,Door3,0.151851866,0.032407407,1,0,0,0.4631,optionRight,70,8640,4,34,0,34,0,1,,,,,,,,,,,,,,,,,,,,,,,,,,,,,,,,,,,,,,,
,,,,,,,,2023-08-16_10h12.33.426,HF_wild_card,2022.2.4,Win32,59.62673663,6173c5b0aa4bc2370fd2c1f2,64d2fd46c836a06233681665,64dc7e8170a266150a12709b,,,,,,,decisionTrl,resources/DG.BMP,resources/DR.BMP,Door3,0.419444473,0.079629616,1,0,0,0.7976,optionRight,70,8710,4,35,0,35,0,1,,,,,,,,,,,,,,,,,,,,,,,,,,,,,,,,,,,,,,,
,,,,,,,,2023-08-16_10h12.33.426,HF_wild_card,2022.2.4,Win32,59.62673663,6173c5b0aa4bc2370fd2c1f2,64d2fd46c836a06233681665,64dc7e8170a266150a12709b,,,,,,,decisionTrl,resources/DP.BMP,resources/DBN.BMP,WildCard_Ex,0.35555564,0.062962956,1,0,0,0.5956,optionRight,95,8805,4,36,0,36,0,1,,,,,,,,,,,,,,,,,,,,,,,,,,,,,,,,,,,,,,,
,,,,,,,,2023-08-16_10h12.33.426,HF_wild_card,2022.2.4,Win32,59.62673663,6173c5b0aa4bc2370fd2c1f2,64d2fd46c836a06233681665,64dc7e8170a266150a12709b,,,,,,,ctch,resources/DR.BMP,resources/DP.BMP,Door3,-0.186111097,-0.062962956,1,0,0,0.6323,optionLeft,70,8875,4,37,0,37,0,1,,,,,,,,,,,,,,,,,,,,,,,,,,,,,,,,,,,,,,,
,,,,,,,,2023-08-16_10h12.33.426,HF_wild_card,2022.2.4,Win32,59.62673663,6173c5b0aa4bc2370fd2c1f2,64d2fd46c836a06233681665,64dc7e8170a266150a12709b,,,,,,,ctch,resources/DG.BMP,resources/DY.BMP,Door4,-0.165740755,-0.018518519,1,0,0,0.513,optionLeft,80,8955,4,38,0,38,0,1,,,,,,,,,,,,,,,,,,,,,,,,,,,,,,,,,,,,,,,
,,,,,,,,2023-08-16_10h12.33.426,HF_wild_card,2022.2.4,Win32,59.62673663,6173c5b0aa4bc2370fd2c1f2,64d2fd46c836a06233681665,64dc7e8170a266150a12709b,,,,,,,sngl,resources/DBN.BMP,resources/Empty.png,WildCard_Ex,-0.357407393,-0.003703718,1,0,0,1.0302,optionLeft,95,9050,4,39,0,39,0,1,,,,,,,,,,,,,,,,,,,,,,,,,,,,,,,,,,,,,,,
,,,,,,,,2023-08-16_10h12.33.426,HF_wild_card,2022.2.4,Win32,59.62673663,6173c5b0aa4bc2370fd2c1f2,64d2fd46c836a06233681665,64dc7e8170a266150a12709b,,,,,,,ctch,resources/DG.BMP,resources/DY.BMP,Door4,-0.474999993,-0.057407414,1,0,0,0.6632,optionLeft,80,9130,4,40,0,40,0,1,,,,,,,,,,,,,,,,,,,,,,,,,,,,,,,,,,,,,,,
,,,,,,,,2023-08-16_10h12.33.426,HF_wild_card,2022.2.4,Win32,59.62673663,6173c5b0aa4bc2370fd2c1f2,64d2fd46c836a06233681665,64dc7e8170a266150a12709b,,,,,,,sngl,resources/DR.BMP,resources/Empty.png,Door3,-0.404629637,-0.066666674,1,0,0,0.4088,optionLeft,70,9200,4,41,0,41,0,1,,,,,,,,,,,,,,,,,,,,,,,,,,,,,,,,,,,,,,,
,,,,,,,,2023-08-16_10h12.33.426,HF_wild_card,2022.2.4,Win32,59.62673663,6173c5b0aa4bc2370fd2c1f2,64d2fd46c836a06233681665,64dc7e8170a266150a12709b,,,,,,,ctch,resources/DR.BMP,resources/DP.BMP,Door3,-0.163888861,-0.00462963,1,0,0,0.5181,optionLeft,70,9270,4,42,0,42,0,1,,,,,,,,,,,,,,,,,,,,,,,,,,,,,,,,,,,,,,,
,,,,,,,,2023-08-16_10h12.33.426,HF_wild_card,2022.2.4,Win32,59.62673663,6173c5b0aa4bc2370fd2c1f2,64d2fd46c836a06233681665,64dc7e8170a266150a12709b,,,,,,,ctch,resources/DY.BMP,resources/DG.BMP,Door1,-0.347222222,-0.026851866,1,0,0,0.3466,optionLeft,30,9300,4,43,0,43,0,1,,,,,,,,,,,,,,,,,,,,,,,,,,,,,,,,,,,,,,,
,,,,,,,,2023-08-16_10h12.33.426,HF_wild_card,2022.2.4,Win32,59.62673663,6173c5b0aa4bc2370fd2c1f2,64d2fd46c836a06233681665,64dc7e8170a266150a12709b,,,,,,,,,,,,,,,,,,,,,,,,,,3,0,3,0,1,,,,,,,,,,,,,,,,,,,,,,,,,,,,,,,,,,
,,,,,,,,2023-08-16_10h12.33.426,HF_wild_card,2022.2.4,Win32,59.62673663,6173c5b0aa4bc2370fd2c1f2,64d2fd46c836a06233681665,64dc7e8170a266150a12709b,,,,,,,decisionTrl,resources/DG.BMP,resources/DR.BMP,Door4,-0.456481474,-0.021296289,1,0,0,0.4663,optionLeft,80,9380,5,0,0,0,0,1,,,,,,,,,,,,,,,,,,,,,,,,,,,,,,,,,,,,,,,
,,,,,,,,2023-08-16_10h12.33.426,HF_wild_card,2022.2.4,Win32,59.62673663,6173c5b0aa4bc2370fd2c1f2,64d2fd46c836a06233681665,64dc7e8170a266150a12709b,,,,,,,sngl,resources/DBN.BMP,resources/Empty.png,WildCard_Ex,-0.193518533,-0.001851859,1,0,0,0.4005,optionLeft,5,9385,5,1,0,1,0,1,,,,,,,,,,,,,,,,,,,,,,,,,,,,,,,,,,,,,,,
,,,,,,,,2023-08-16_10h12.33.426,HF_wild_card,2022.2.4,Win32,59.62673663,6173c5b0aa4bc2370fd2c1f2,64d2fd46c836a06233681665,64dc7e8170a266150a12709b,,,,,,,ctch,resources/DG.BMP,resources/DY.BMP,Door4,-0.325925933,-0.002777771,1,0,0,0.3993,optionLeft,80,9465,5,2,0,2,0,1,,,,,,,,,,,,,,,,,,,,,,,,,,,,,,,,,,,,,,,
,,,,,,,,2023-08-16_10h12.33.426,HF_wild_card,2022.2.4,Win32,59.62673663,6173c5b0aa4bc2370fd2c1f2,64d2fd46c836a06233681665,64dc7e8170a266150a12709b,,,,,,,decisionTrl,resources/DY.BMP,resources/DP.BMP,Door1,-0.234259217,0.008333312,1,0,0,0.5596,optionLeft,30,9495,5,3,0,3,0,1,,,,,,,,,,,,,,,,,,,,,,,,,,,,,,,,,,,,,,,
,,,,,,,,2023-08-16_10h12.33.426,HF_wild_card,2022.2.4,Win32,59.62673663,6173c5b0aa4bc2370fd2c1f2,64d2fd46c836a06233681665,64dc7e8170a266150a12709b,,,,,,,sngl,resources/DR.BMP,resources/Empty.png,Door3,-0.196296268,0.0074074,1,0,0,0.7746,optionLeft,70,9565,5,4,0,4,0,1,,,,,,,,,,,,,,,,,,,,,,,,,,,,,,,,,,,,,,,
,,,,,,,,2023-08-16_10h12.33.426,HF_wild_card,2022.2.4,Win32,59.62673663,6173c5b0aa4bc2370fd2c1f2,64d2fd46c836a06233681665,64dc7e8170a266150a12709b,,,,,,,decisionTrl,resources/DY.BMP,resources/DP.BMP,Door1,-0.289814772,0.042592578,1,0,0,0.7335,optionLeft,30,9595,5,5,0,5,0,1,,,,,,,,,,,,,,,,,,,,,,,,,,,,,,,,,,,,,,,
,,,,,,,,2023-08-16_10h12.33.426,HF_wild_card,2022.2.4,Win32,59.62673663,6173c5b0aa4bc2370fd2c1f2,64d2fd46c836a06233681665,64dc7e8170a266150a12709b,,,,,,,decisionTrl,resources/DG.BMP,resources/DR.BMP,Door3,0.136111153,0.073148127,1,0,0,0.8964,optionRight,70,9665,5,6,0,6,0,1,,,,,,,,,,,,,,,,,,,,,,,,,,,,,,,,,,,,,,,
,,,,,,,,2023-08-16_10h12.33.426,HF_wild_card,2022.2.4,Win32,59.62673663,6173c5b0aa4bc2370fd2c1f2,64d2fd46c836a06233681665,64dc7e8170a266150a12709b,,,,,,,ctch,resources/DG.BMP,resources/DY.BMP,Door4,-0.259259259,-0.024074095,1,0,0,0.3472,optionLeft,80,9745,5,7,0,7,0,1,,,,,,,,,,,,,,,,,,,,,,,,,,,,,,,,,,,,,,,
,,,,,,,,2023-08-16_10h12.33.426,HF_wild_card,2022.2.4,Win32,59.62673663,6173c5b0aa4bc2370fd2c1f2,64d2fd46c836a06233681665,64dc7e8170a266150a12709b,,,,,,,decisionTrl,resources/DY.BMP,resources/DP.BMP,Door1,-0.19259255,-0.002777771,1,0,0,0.5754,optionLeft,30,9775,5,8,0,8,0,1,,,,,,,,,,,,,,,,,,,,,,,,,,,,,,,,,,,,,,,
,,,,,,,,2023-08-16_10h12.33.426,HF_wild_card,2022.2.4,Win32,59.62673663,6173c5b0aa4bc2370fd2c1f2,64d2fd46c836a06233681665,64dc7e8170a266150a12709b,,,,,,,decisionTrl,resources/DBN.BMP,resources/DP.BMP,WildCard_Ex,-0.233333305,0.039814808,1,0,0,0.3302,optionLeft,95,9870,5,9,0,9,0,1,,,,,,,,,,,,,,,,,,,,,,,,,,,,,,,,,,,,,,,
,,,,,,,,2023-08-16_10h12.33.426,HF_wild_card,2022.2.4,Win32,59.62673663,6173c5b0aa4bc2370fd2c1f2,64d2fd46c836a06233681665,64dc7e8170a266150a12709b,,,,,,,decisionTrl,resources/DR.BMP,resources/DG.BMP,Door4,0.275000042,0.099999993,1,0,0,0.5649,optionRight,60,9930,5,10,0,10,0,1,,,,,,,,,,,,,,,,,,,,,,,,,,,,,,,,,,,,,,,
,,,,,,,,2023-08-16_10h12.33.426,HF_wild_card,2022.2.4,Win32,59.62673663,6173c5b0aa4bc2370fd2c1f2,64d2fd46c836a06233681665,64dc7e8170a266150a12709b,,,,,,,decisionTrl,resources/DP.BMP,resources/DY.BMP,Door2,-0.204629616,0.073148127,1,0,0,0.3792,optionLeft,20,9950,5,11,0,11,0,1,,,,,,,,,,,,,,,,,,,,,,,,,,,,,,,,,,,,,,,
,,,,,,,,2023-08-16_10h12.33.426,HF_wild_card,2022.2.4,Win32,59.62673663,6173c5b0aa4bc2370fd2c1f2,64d2fd46c836a06233681665,64dc7e8170a266150a12709b,,,,,,,ctch,resources/DY.BMP,resources/DG.BMP,Door4,0.357407464,0.086111104,1,0,0,0.497,optionRight,60,10010,5,12,0,12,0,1,,,,,,,,,,,,,,,,,,,,,,,,,,,,,,,,,,,,,,,
,,,,,,,,2023-08-16_10h12.33.426,HF_wild_card,2022.2.4,Win32,59.62673663,6173c5b0aa4bc2370fd2c1f2,64d2fd46c836a06233681665,64dc7e8170a266150a12709b,,,,,,,sngl,resources/Empty.png,resources/DR.BMP,Door3,0.448148233,0.104629623,1,0,0,0.4316,optionRight,70,10080,5,13,0,13,0,1,,,,,,,,,,,,,,,,,,,,,,,,,,,,,,,,,,,,,,,
,,,,,,,,2023-08-16_10h12.33.426,HF_wild_card,2022.2.4,Win32,59.62673663,6173c5b0aa4bc2370fd2c1f2,64d2fd46c836a06233681665,64dc7e8170a266150a12709b,,,,,,,sngl,resources/Empty.png,resources/DBN.BMP,WildCard_Ex,0.271296325,0.080555563,1,0,0,0.4305,optionRight,95,10175,5,14,0,14,0,1,,,,,,,,,,,,,,,,,,,,,,,,,,,,,,,,,,,,,,,
,,,,,,,,2023-08-16_10h12.33.426,HF_wild_card,2022.2.4,Win32,59.62673663,6173c5b0aa4bc2370fd2c1f2,64d2fd46c836a06233681665,64dc7e8170a266150a12709b,,,,,,,ctch,resources/DR.BMP,resources/DP.BMP,Door3,-0.237037023,0.01203703,1,0,0,0.5092,optionLeft,70,10245,5,15,0,15,0,1,,,,,,,,,,,,,,,,,,,,,,,,,,,,,,,,,,,,,,,
,,,,,,,,2023-08-16_10h12.33.426,HF_wild_card,2022.2.4,Win32,59.62673663,6173c5b0aa4bc2370fd2c1f2,64d2fd46c836a06233681665,64dc7e8170a266150a12709b,,,,,,,sngl,resources/Empty.png,resources/DBN.BMP,WildCard_Ex,0.301851908,0.033333319,1,0,0,0.4129,optionRight,5,10250,5,16,0,16,0,1,,,,,,,,,,,,,,,,,,,,,,,,,,,,,,,,,,,,,,,
,,,,,,,,2023-08-16_10h12.33.426,HF_wild_card,2022.2.4,Win32,59.62673663,6173c5b0aa4bc2370fd2c1f2,64d2fd46c836a06233681665,64dc7e8170a266150a12709b,,,,,,,decisionTrl,resources/DR.BMP,resources/DG.BMP,Door4,0.372222194,0.060185185,1,0,0,0.5942,optionRight,60,10310,5,17,0,17,0,1,,,,,,,,,,,,,,,,,,,,,,,,,,,,,,,,,,,,,,,
,,,,,,,,2023-08-16_10h12.33.426,HF_wild_card,2022.2.4,Win32,59.62673663,6173c5b0aa4bc2370fd2c1f2,64d2fd46c836a06233681665,64dc7e8170a266150a12709b,,,,,,,decisionTrl,resources/DBN.BMP,resources/DG.BMP,WildCard_Ex,-0.211111069,-0.0074074,1,0,0,0.7631,optionLeft,95,10405,5,18,0,18,0,1,,,,,,,,,,,,,,,,,,,,,,,,,,,,,,,,,,,,,,,
,,,,,,,,2023-08-16_10h12.33.426,HF_wild_card,2022.2.4,Win32,59.62673663,6173c5b0aa4bc2370fd2c1f2,64d2fd46c836a06233681665,64dc7e8170a266150a12709b,,,,,,,decisionTrl,resources/DP.BMP,resources/DY.BMP,Door1,0.179629644,0.03611109,1,0,0,0.692,optionRight,30,10435,5,19,0,19,0,1,,,,,,,,,,,,,,,,,,,,,,,,,,,,,,,,,,,,,,,
,,,,,,,,2023-08-16_10h12.33.426,HF_wild_card,2022.2.4,Win32,59.62673663,6173c5b0aa4bc2370fd2c1f2,64d2fd46c836a06233681665,64dc7e8170a266150a12709b,,,,,,,ctch,resources/DP.BMP,resources/DR.BMP,Door3,0.301851908,0.079629616,1,0,0,0.5404,optionRight,70,10505,5,20,0,20,0,1,,,,,,,,,,,,,,,,,,,,,,,,,,,,,,,,,,,,,,,
,,,,,,,,2023-08-16_10h12.33.426,HF_wild_card,2022.2.4,Win32,59.62673663,6173c5b0aa4bc2370fd2c1f2,64d2fd46c836a06233681665,64dc7e8170a266150a12709b,,,,,,,decisionTrl,resources/DY.BMP,resources/DBN.BMP,WildCard_Ex,0.229629658,0.063888868,1,0,0,0.5768,optionRight,5,10510,5,21,0,21,0,1,,,,,,,,,,,,,,,,,,,,,,,,,,,,,,,,,,,,,,,
,,,,,,,,2023-08-16_10h12.33.426,HF_wild_card,2022.2.4,Win32,59.62673663,6173c5b0aa4bc2370fd2c1f2,64d2fd46c836a06233681665,64dc7e8170a266150a12709b,,,,,,,decisionTrl,resources/DR.BMP,resources/DG.BMP,Door4,0.446296268,0.115740741,1,0,0,0.7612,optionRight,80,10590,5,22,0,22,0,1,,,,,,,,,,,,,,,,,,,,,,,,,,,,,,,,,,,,,,,
,,,,,,,,2023-08-16_10h12.33.426,HF_wild_card,2022.2.4,Win32,59.62673663,6173c5b0aa4bc2370fd2c1f2,64d2fd46c836a06233681665,64dc7e8170a266150a12709b,,,,,,,ctch,resources/DY.BMP,resources/DG.BMP,Door1,-0.333333333,-0.01666666,1,0,0,0.3101,optionLeft,30,10620,5,23,0,23,0,1,,,,,,,,,,,,,,,,,,,,,,,,,,,,,,,,,,,,,,,
,,,,,,,,2023-08-16_10h12.33.426,HF_wild_card,2022.2.4,Win32,59.62673663,6173c5b0aa4bc2370fd2c1f2,64d2fd46c836a06233681665,64dc7e8170a266150a12709b,,,,,,,decisionTrl,resources/DP.BMP,resources/DY.BMP,Door2,-0.224999958,0.002777771,1,0,0,0.3181,optionLeft,20,10640,5,24,0,24,0,1,,,,,,,,,,,,,,,,,,,,,,,,,,,,,,,,,,,,,,,
,,,,,,,,2023-08-16_10h12.33.426,HF_wild_card,2022.2.4,Win32,59.62673663,6173c5b0aa4bc2370fd2c1f2,64d2fd46c836a06233681665,64dc7e8170a266150a12709b,,,,,,,decisionTrl,resources/DBN.BMP,resources/DR.BMP,Door3,0.178703732,0.015740748,1,0,0,0.2644,optionRight,70,10710,5,25,0,25,0,1,,,,,,,,,,,,,,,,,,,,,,,,,,,,,,,,,,,,,,,
,,,,,,,,2023-08-16_10h12.33.426,HF_wild_card,2022.2.4,Win32,59.62673663,6173c5b0aa4bc2370fd2c1f2,64d2fd46c836a06233681665,64dc7e8170a266150a12709b,,,,,,,ctch,resources/DR.BMP,resources/DP.BMP,Door3,-0.287962949,-0.019444466,1,0,0,0.2999,optionLeft,70,10780,5,26,0,26,0,1,,,,,,,,,,,,,,,,,,,,,,,,,,,,,,,,,,,,,,,
,,,,,,,,2023-08-16_10h12.33.426,HF_wild_card,2022.2.4,Win32,59.62673663,6173c5b0aa4bc2370fd2c1f2,64d2fd46c836a06233681665,64dc7e8170a266150a12709b,,,,,,,decisionTrl,resources/DP.BMP,resources/DY.BMP,Door1,0.266666695,0.018518519,1,0,0,0.379,optionRight,30,10810,5,27,0,27,0,1,,,,,,,,,,,,,,,,,,,,,,,,,,,,,,,,,,,,,,,
,,,,,,,,2023-08-16_10h12.33.426,HF_wild_card,2022.2.4,Win32,59.62673663,6173c5b0aa4bc2370fd2c1f2,64d2fd46c836a06233681665,64dc7e8170a266150a12709b,,,,,,,decisionTrl,resources/DR.BMP,resources/DBN.BMP,Door3,-0.307407414,-0.01203703,1,0,0,0.2631,optionLeft,70,10880,5,28,0,28,0,1,,,,,,,,,,,,,,,,,,,,,,,,,,,,,,,,,,,,,,,
,,,,,,,,2023-08-16_10h12.33.426,HF_wild_card,2022.2.4,Win32,59.62673663,6173c5b0aa4bc2370fd2c1f2,64d2fd46c836a06233681665,64dc7e8170a266150a12709b,,,,,,,decisionTrl,resources/DG.BMP,resources/DBN.BMP,WildCard_Ex,0.232407393,0.034259266,1,0,0,0.2194,optionRight,95,10975,5,29,0,29,0,1,,,,,,,,,,,,,,,,,,,,,,,,,,,,,,,,,,,,,,,
,,,,,,,,2023-08-16_10h12.33.426,HF_wild_card,2022.2.4,Win32,59.62673663,6173c5b0aa4bc2370fd2c1f2,64d2fd46c836a06233681665,64dc7e8170a266150a12709b,,,,,,,decisionTrl,resources/DG.BMP,resources/DR.BMP,Door3,0.350926011,0.025925919,1,0,0,0.3466,optionRight,70,11045,5,30,0,30,0,1,,,,,,,,,,,,,,,,,,,,,,,,,,,,,,,,,,,,,,,
,,,,,,,,2023-08-16_10h12.33.426,HF_wild_card,2022.2.4,Win32,59.62673663,6173c5b0aa4bc2370fd2c1f2,64d2fd46c836a06233681665,64dc7e8170a266150a12709b,,,,,,,sngl,resources/Empty.png,resources/DG.BMP,Door4,0.228703746,0.030555548,1,0,0,0.4166,optionRight,60,11105,5,31,0,31,0,1,,,,,,,,,,,,,,,,,,,,,,,,,,,,,,,,,,,,,,,
,,,,,,,,2023-08-16_10h12.33.426,HF_wild_card,2022.2.4,Win32,59.62673663,6173c5b0aa4bc2370fd2c1f2,64d2fd46c836a06233681665,64dc7e8170a266150a12709b,,,,,,,decisionTrl,resources/DY.BMP,resources/DP.BMP,Door1,-0.284259231,0.022222201,1,0,0,0.5762,optionLeft,30,11135,5,32,0,32,0,1,,,,,,,,,,,,,,,,,,,,,,,,,,,,,,,,,,,,,,,
,,,,,,,,2023-08-16_10h12.33.426,HF_wild_card,2022.2.4,Win32,59.62673663,6173c5b0aa4bc2370fd2c1f2,64d2fd46c836a06233681665,64dc7e8170a266150a12709b,,,,,,,sngl,resources/Empty.png,resources/DY.BMP,Door1,0.377777806,0.072222215,1,0,0,0.3622,optionRight,30,11165,5,33,0,33,0,1,,,,,,,,,,,,,,,,,,,,,,,,,,,,,,,,,,,,,,,
,,,,,,,,2023-08-16_10h12.33.426,HF_wild_card,2022.2.4,Win32,59.62673663,6173c5b0aa4bc2370fd2c1f2,64d2fd46c836a06233681665,64dc7e8170a266150a12709b,,,,,,,sngl,resources/DY.BMP,resources/Empty.png,Door1,-0.375,-0.023148148,1,0,0,0.41,optionLeft,30,11195,5,34,0,34,0,1,,,,,,,,,,,,,,,,,,,,,,,,,,,,,,,,,,,,,,,
,,,,,,,,2023-08-16_10h12.33.426,HF_wild_card,2022.2.4,Win32,59.62673663,6173c5b0aa4bc2370fd2c1f2,64d2fd46c836a06233681665,64dc7e8170a266150a12709b,,,,,,,decisionTrl,resources/DBN.BMP,resources/DY.BMP,WildCard_Ex,-0.289814772,0.034259266,1,0,0,0.7096,optionLeft,5,11200,5,35,0,35,0,1,,,,,,,,,,,,,,,,,,,,,,,,,,,,,,,,,,,,,,,
,,,,,,,,2023-08-16_10h12.33.426,HF_wild_card,2022.2.4,Win32,59.62673663,6173c5b0aa4bc2370fd2c1f2,64d2fd46c836a06233681665,64dc7e8170a266150a12709b,,,,,,,ctch,resources/DP.BMP,resources/DR.BMP,Door3,0.411111196,0.053703697,1,0,0,0.6459,optionRight,70,11270,5,36,0,36,0,1,,,,,,,,,,,,,,,,,,,,,,,,,,,,,,,,,,,,,,,
,,,,,,,,2023-08-16_10h12.33.426,HF_wild_card,2022.2.4,Win32,59.62673663,6173c5b0aa4bc2370fd2c1f2,64d2fd46c836a06233681665,64dc7e8170a266150a12709b,,,,,,,sngl,resources/DG.BMP,resources/Empty.png,Door4,-0.224999958,-0.024074095,1,0,0,1.064,optionLeft,80,11350,5,37,0,37,0,1,,,,,,,,,,,,,,,,,,,,,,,,,,,,,,,,,,,,,,,
,,,,,,,,2023-08-16_10h12.33.426,HF_wild_card,2022.2.4,Win32,59.62673663,6173c5b0aa4bc2370fd2c1f2,64d2fd46c836a06233681665,64dc7e8170a266150a12709b,,,,,,,decisionTrl,resources/DP.BMP,resources/DBN.BMP,WildCard_Ex,0.217592593,0.049074067,1,0,0,0.4181,optionRight,5,11355,5,38,0,38,0,1,,,,,,,,,,,,,,,,,,,,,,,,,,,,,,,,,,,,,,,
,,,,,,,,2023-08-16_10h12.33.426,HF_wild_card,2022.2.4,Win32,59.62673663,6173c5b0aa4bc2370fd2c1f2,64d2fd46c836a06233681665,64dc7e8170a266150a12709b,,,,,,,sngl,resources/Empty.png,resources/DP.BMP,Door2,0.148148148,0.027777778,1,0,0,0.6463,optionRight,20,11375,5,39,0,39,0,1,,,,,,,,,,,,,,,,,,,,,,,,,,,,,,,,,,,,,,,
,,,,,,,,2023-08-16_10h12.33.426,HF_wild_card,2022.2.4,Win32,59.62673663,6173c5b0aa4bc2370fd2c1f2,64d2fd46c836a06233681665,64dc7e8170a266150a12709b,,,,,,,decisionTrl,resources/DG.BMP,resources/DR.BMP,Door4,-0.301851838,-0.047222243,1,0,0,0.4035,optionLeft,80,11455,5,40,0,40,0,1,,,,,,,,,,,,,,,,,,,,,,,,,,,,,,,,,,,,,,,
,,,,,,,,2023-08-16_10h12.33.426,HF_wild_card,2022.2.4,Win32,59.62673663,6173c5b0aa4bc2370fd2c1f2,64d2fd46c836a06233681665,64dc7e8170a266150a12709b,,,,,,,sngl,resources/DBN.BMP,resources/Empty.png,WildCard_Ex,-0.360185164,-0.053703697,1,0,0,0.4253,optionLeft,95,11550,5,41,0,41,0,1,,,,,,,,,,,,,,,,,,,,,,,,,,,,,,,,,,,,,,,
,,,,,,,,2023-08-16_10h12.33.426,HF_wild_card,2022.2.4,Win32,59.62673663,6173c5b0aa4bc2370fd2c1f2,64d2fd46c836a06233681665,64dc7e8170a266150a12709b,,,,,,,decisionTrl,resources/DR.BMP,resources/DG.BMP,Door4,0.328703704,0.015740748,1,0,0,0.5601,optionRight,80,11630,5,42,0,42,0,1,,,,,,,,,,,,,,,,,,,,,,,,,,,,,,,,,,,,,,,
,,,,,,,,2023-08-16_10h12.33.426,HF_wild_card,2022.2.4,Win32,59.62673663,6173c5b0aa4bc2370fd2c1f2,64d2fd46c836a06233681665,64dc7e8170a266150a12709b,,,,,,,sngl,resources/DP.BMP,resources/Empty.png,Door2,-0.216666681,-0.070370392,1,0,0,0.4263,optionLeft,40,11670,5,43,0,43,0,1,,,,,,,,,,,,,,,,,,,,,,,,,,,,,,,,,,,,,,,
,,,,,,,,2023-08-16_10h12.33.426,HF_wild_card,2022.2.4,Win32,59.62673663,6173c5b0aa4bc2370fd2c1f2,64d2fd46c836a06233681665,64dc7e8170a266150a12709b,,,,,,,,,,,,,,,,,,,,,,,,,,4,0,4,0,1,,,,,,,,,,,,,,,,,,,,,,,,,,,,,,,,,,
,,,,,,,,2023-08-16_10h12.33.426,HF_wild_card,2022.2.4,Win32,59.62673663,6173c5b0aa4bc2370fd2c1f2,64d2fd46c836a06233681665,64dc7e8170a266150a12709b,,,,,,,sngl,resources/DBN.BMP,resources/Empty.png,WildCard_Ex,-0.287037037,-0.132407436,1,0,0,0.6794,optionLeft,5,11675,6,0,0,0,0,1,,,,,,,,,,,,,,,,,,,,,,,,,,,,,,,,,,,,,,,
,,,,,,,,2023-08-16_10h12.33.426,HF_wild_card,2022.2.4,Win32,59.62673663,6173c5b0aa4bc2370fd2c1f2,64d2fd46c836a06233681665,64dc7e8170a266150a12709b,,,,,,,decisionTrl,resources/DP.BMP,resources/DBN.BMP,WildCard_Ex,0.253703718,0.027777778,1,0,0,0.4319,optionRight,5,11680,6,1,0,1,0,1,,,,,,,,,,,,,,,,,,,,,,,,,,,,,,,,,,,,,,,
,,,,,,,,2023-08-16_10h12.33.426,HF_wild_card,2022.2.4,Win32,59.62673663,6173c5b0aa4bc2370fd2c1f2,64d2fd46c836a06233681665,64dc7e8170a266150a12709b,,,,,,,ctch,resources/DY.BMP,resources/DG.BMP,Door4,0.210185228,0.000925912,1,0,0,0.5763,optionRight,60,11740,6,2,0,2,0,1,,,,,,,,,,,,,,,,,,,,,,,,,,,,,,,,,,,,,,,
,,,,,,,,2023-08-16_10h12.33.426,HF_wild_card,2022.2.4,Win32,59.62673663,6173c5b0aa4bc2370fd2c1f2,64d2fd46c836a06233681665,64dc7e8170a266150a12709b,,,,,,,decisionTrl,resources/DG.BMP,resources/DR.BMP,Door4,-0.347222222,-0.034259266,1,0,0,0.378,optionLeft,60,11800,6,3,0,3,0,1,,,,,,,,,,,,,,,,,,,,,,,,,,,,,,,,,,,,,,,
,,,,,,,,2023-08-16_10h12.33.426,HF_wild_card,2022.2.4,Win32,59.62673663,6173c5b0aa4bc2370fd2c1f2,64d2fd46c836a06233681665,64dc7e8170a266150a12709b,,,,,,,sngl,resources/DP.BMP,resources/Empty.png,Door2,-0.301851838,0.001851859,1,0,0,0.9472,optionLeft,20,11820,6,4,0,4,0,1,,,,,,,,,,,,,,,,,,,,,,,,,,,,,,,,,,,,,,,
,,,,,,,,2023-08-16_10h12.33.426,HF_wild_card,2022.2.4,Win32,59.62673663,6173c5b0aa4bc2370fd2c1f2,64d2fd46c836a06233681665,64dc7e8170a266150a12709b,,,,,,,decisionTrl,resources/DR.BMP,resources/DBN.BMP,WildCard_Ex,0.306481538,0.083333333,1,0,0,1.2299,optionRight,5,11825,6,5,0,5,0,1,,,,,,,,,,,,,,,,,,,,,,,,,,,,,,,,,,,,,,,
,,,,,,,,2023-08-16_10h12.33.426,HF_wild_card,2022.2.4,Win32,59.62673663,6173c5b0aa4bc2370fd2c1f2,64d2fd46c836a06233681665,64dc7e8170a266150a12709b,,,,,,,decisionTrl,resources/DBN.BMP,resources/DY.BMP,WildCard_Ex,-0.361111111,-0.034259266,1,0,0,0.4001,optionLeft,5,11830,6,6,0,6,0,1,,,,,,,,,,,,,,,,,,,,,,,,,,,,,,,,,,,,,,,
,,,,,,,,2023-08-16_10h12.33.426,HF_wild_card,2022.2.4,Win32,59.62673663,6173c5b0aa4bc2370fd2c1f2,64d2fd46c836a06233681665,64dc7e8170a266150a12709b,,,,,,,decisionTrl,resources/DY.BMP,resources/DP.BMP,Door2,0.246296282,0.037962949,1,0,0,0.447,optionRight,20,11850,6,7,0,7,0,1,,,,,,,,,,,,,,,,,,,,,,,,,,,,,,,,,,,,,,,
,,,,,,,,2023-08-16_10h12.33.426,HF_wild_card,2022.2.4,Win32,59.62673663,6173c5b0aa4bc2370fd2c1f2,64d2fd46c836a06233681665,64dc7e8170a266150a12709b,,,,,,,ctch,resources/DG.BMP,resources/DY.BMP,Door4,-0.22129631,0.005555541,1,0,0,0.4347,optionLeft,60,11910,6,8,0,8,0,1,,,,,,,,,,,,,,,,,,,,,,,,,,,,,,,,,,,,,,,
,,,,,,,,2023-08-16_10h12.33.426,HF_wild_card,2022.2.4,Win32,59.62673663,6173c5b0aa4bc2370fd2c1f2,64d2fd46c836a06233681665,64dc7e8170a266150a12709b,,,,,,,sngl,resources/Empty.png,resources/DBN.BMP,WildCard_Ex,0.290740755,0.061111097,1,0,0,0.4516,optionRight,5,11915,6,9,0,9,0,1,,,,,,,,,,,,,,,,,,,,,,,,,,,,,,,,,,,,,,,
,,,,,,,,2023-08-16_10h12.33.426,HF_wild_card,2022.2.4,Win32,59.62673663,6173c5b0aa4bc2370fd2c1f2,64d2fd46c836a06233681665,64dc7e8170a266150a12709b,,,,,,,ctch,resources/DP.BMP,resources/DR.BMP,Door3,0.312037009,0.074074074,1,0,0,0.4958,optionRight,70,11985,6,10,0,10,0,1,,,,,,,,,,,,,,,,,,,,,,,,,,,,,,,,,,,,,,,
,,,,,,,,2023-08-16_10h12.33.426,HF_wild_card,2022.2.4,Win32,59.62673663,6173c5b0aa4bc2370fd2c1f2,64d2fd46c836a06233681665,64dc7e8170a266150a12709b,,,,,,,decisionTrl,resources/DG.BMP,resources/DR.BMP,Door3,0.186111097,0.050925926,1,0,0,0.5514,optionRight,70,12055,6,11,0,11,0,1,,,,,,,,,,,,,,,,,,,,,,,,,,,,,,,,,,,,,,,
,,,,,,,,2023-08-16_10h12.33.426,HF_wild_card,2022.2.4,Win32,59.62673663,6173c5b0aa4bc2370fd2c1f2,64d2fd46c836a06233681665,64dc7e8170a266150a12709b,,,,,,,sngl,resources/Empty.png,resources/DBN.BMP,WildCard_Ex,0.126851894,0.025000007,1,0,0,0.5347,optionRight,95,12150,6,12,0,12,0,1,,,,,,,,,,,,,,,,,,,,,,,,,,,,,,,,,,,,,,,
,,,,,,,,2023-08-16_10h12.33.426,HF_wild_card,2022.2.4,Win32,59.62673663,6173c5b0aa4bc2370fd2c1f2,64d2fd46c836a06233681665,64dc7e8170a266150a12709b,,,,,,,decisionTrl,resources/DY.BMP,resources/DP.BMP,Door1,-0.183333291,-0.020370377,1,0,0,0.5424,optionLeft,30,12180,6,13,0,13,0,1,,,,,,,,,,,,,,,,,,,,,,,,,,,,,,,,,,,,,,,
,,,,,,,,2023-08-16_10h12.33.426,HF_wild_card,2022.2.4,Win32,59.62673663,6173c5b0aa4bc2370fd2c1f2,64d2fd46c836a06233681665,64dc7e8170a266150a12709b,,,,,,,ctch,resources/DG.BMP,resources/DY.BMP,Door4,-0.174074032,-0.010185206,1,0,0,0.6,optionLeft,60,12240,6,14,0,14,0,1,,,,,,,,,,,,,,,,,,,,,,,,,,,,,,,,,,,,,,,
,,,,,,,,2023-08-16_10h12.33.426,HF_wild_card,2022.2.4,Win32,59.62673663,6173c5b0aa4bc2370fd2c1f2,64d2fd46c836a06233681665,64dc7e8170a266150a12709b,,,,,,,decisionTrl,resources/DY.BMP,resources/DP.BMP,Door1,-0.222222222,0.000925912,1,0,0,1.53,optionLeft,30,12270,6,15,0,15,0,1,,,,,,,,,,,,,,,,,,,,,,,,,,,,,,,,,,,,,,,
,,,,,,,,2023-08-16_10h12.33.426,HF_wild_card,2022.2.4,Win32,59.62673663,6173c5b0aa4bc2370fd2c1f2,64d2fd46c836a06233681665,64dc7e8170a266150a12709b,,,,,,,decisionTrl,resources/DP.BMP,resources/DY.BMP,Door1,0.223148134,0.043518526,1,0,0,0.9784,optionRight,30,12300,6,16,0,16,0,1,,,,,,,,,,,,,,,,,,,,,,,,,,,,,,,,,,,,,,,
,,,,,,,,2023-08-16_10h12.33.426,HF_wild_card,2022.2.4,Win32,59.62673663,6173c5b0aa4bc2370fd2c1f2,64d2fd46c836a06233681665,64dc7e8170a266150a12709b,,,,,,,decisionTrl,resources/DR.BMP,resources/DG.BMP,Door3,-0.237962935,0.002777771,1,0,0,0.3763,optionLeft,70,12370,6,17,0,17,0,1,,,,,,,,,,,,,,,,,,,,,,,,,,,,,,,,,,,,,,,
,,,,,,,,2023-08-16_10h12.33.426,HF_wild_card,2022.2.4,Win32,59.62673663,6173c5b0aa4bc2370fd2c1f2,64d2fd46c836a06233681665,64dc7e8170a266150a12709b,,,,,,,decisionTrl,resources/DY.BMP,resources/DP.BMP,Door1,-0.271296254,-0.01666666,1,0,0,0.4819,optionLeft,30,12400,6,18,0,18,0,1,,,,,,,,,,,,,,,,,,,,,,,,,,,,,,,,,,,,,,,
,,,,,,,,2023-08-16_10h12.33.426,HF_wild_card,2022.2.4,Win32,59.62673663,6173c5b0aa4bc2370fd2c1f2,64d2fd46c836a06233681665,64dc7e8170a266150a12709b,,,,,,,decisionTrl,resources/DR.BMP,resources/DG.BMP,Door4,0.293518561,0.062037044,1,0,0,0.596,optionRight,80,12480,6,19,0,19,0,1,,,,,,,,,,,,,,,,,,,,,,,,,,,,,,,,,,,,,,,
,,,,,,,,2023-08-16_10h12.33.426,HF_wild_card,2022.2.4,Win32,59.62673663,6173c5b0aa4bc2370fd2c1f2,64d2fd46c836a06233681665,64dc7e8170a266150a12709b,,,,,,,sngl,resources/DBN.BMP,resources/Empty.png,WildCard_Ex,-0.328703704,-0.033333355,1,0,0,0.4611,optionLeft,95,12575,6,20,0,20,0,1,,,,,,,,,,,,,,,,,,,,,,,,,,,,,,,,,,,,,,,
,,,,,,,,2023-08-16_10h12.33.426,HF_wild_card,2022.2.4,Win32,59.62673663,6173c5b0aa4bc2370fd2c1f2,64d2fd46c836a06233681665,64dc7e8170a266150a12709b,,,,,,,decisionTrl,resources/DBN.BMP,resources/DG.BMP,Door4,0.297222279,0.073148127,1,0,0,0.4305,optionRight,60,12635,6,21,0,21,0,1,,,,,,,,,,,,,,,,,,,,,,,,,,,,,,,,,,,,,,,
,,,,,,,,2023-08-16_10h12.33.426,HF_wild_card,2022.2.4,Win32,59.62673663,6173c5b0aa4bc2370fd2c1f2,64d2fd46c836a06233681665,64dc7e8170a266150a12709b,,,,,,,sngl,resources/Empty.png,resources/DY.BMP,Door1,0.366666723,0.067592586,1,0,0,0.4145,optionRight,30,12665,6,22,0,22,0,1,,,,,,,,,,,,,,,,,,,,,,,,,,,,,,,,,,,,,,,
,,,,,,,,2023-08-16_10h12.33.426,HF_wild_card,2022.2.4,Win32,59.62673663,6173c5b0aa4bc2370fd2c1f2,64d2fd46c836a06233681665,64dc7e8170a266150a12709b,,,,,,,decisionTrl,resources/DY.BMP,resources/DBN.BMP,WildCard_Ex,0.228703746,0.105555534,1,0,0,0.6139,optionRight,95,12760,6,23,0,23,0,1,,,,,,,,,,,,,,,,,,,,,,,,,,,,,,,,,,,,,,,
,,,,,,,,2023-08-16_10h12.33.426,HF_wild_card,2022.2.4,Win32,59.62673663,6173c5b0aa4bc2370fd2c1f2,64d2fd46c836a06233681665,64dc7e8170a266150a12709b,,,,,,,decisionTrl,resources/DBN.BMP,resources/DR.BMP,WildCard_Ex,-0.37962963,-0.057407414,1,0,0,0.4426,optionLeft,95,12855,6,24,0,24,0,1,,,,,,,,,,,,,,,,,,,,,,,,,,,,,,,,,,,,,,,
,,,,,,,,2023-08-16_10h12.33.426,HF_wild_card,2022.2.4,Win32,59.62673663,6173c5b0aa4bc2370fd2c1f2,64d2fd46c836a06233681665,64dc7e8170a266150a12709b,,,,,,,sngl,resources/DG.BMP,resources/Empty.png,Door4,-0.242592564,-0.022222236,1,0,0,0.4801,optionLeft,60,12915,6,25,0,25,0,1,,,,,,,,,,,,,,,,,,,,,,,,,,,,,,,,,,,,,,,
,,,,,,,,2023-08-16_10h12.33.426,HF_wild_card,2022.2.4,Win32,59.62673663,6173c5b0aa4bc2370fd2c1f2,64d2fd46c836a06233681665,64dc7e8170a266150a12709b,,,,,,,decisionTrl,resources/DR.BMP,resources/DG.BMP,Door4,0.266666695,0.070370356,1,0,0,0.5798,optionRight,80,12995,6,26,0,26,0,1,,,,,,,,,,,,,,,,,,,,,,,,,,,,,,,,,,,,,,,
,,,,,,,,2023-08-16_10h12.33.426,HF_wild_card,2022.2.4,Win32,59.62673663,6173c5b0aa4bc2370fd2c1f2,64d2fd46c836a06233681665,64dc7e8170a266150a12709b,,,,,,,sngl,resources/DY.BMP,resources/Empty.png,Door1,-0.219444416,-0.008333347,1,0,0,0.4832,optionLeft,30,13025,6,27,0,27,0,1,,,,,,,,,,,,,,,,,,,,,,,,,,,,,,,,,,,,,,,
,,,,,,,,2023-08-16_10h12.33.426,HF_wild_card,2022.2.4,Win32,59.62673663,6173c5b0aa4bc2370fd2c1f2,64d2fd46c836a06233681665,64dc7e8170a266150a12709b,,,,,,,decisionTrl,resources/DP.BMP,resources/DY.BMP,Door1,0.264814801,0.061111097,1,0,0,0.5269,optionRight,30,13055,6,28,0,28,0,1,,,,,,,,,,,,,,,,,,,,,,,,,,,,,,,,,,,,,,,
,,,,,,,,2023-08-16_10h12.33.426,HF_wild_card,2022.2.4,Win32,59.62673663,6173c5b0aa4bc2370fd2c1f2,64d2fd46c836a06233681665,64dc7e8170a266150a12709b,,,,,,,sngl,resources/DR.BMP,resources/Empty.png,Door3,-0.349074081,-0.038888896,1,0,0,0.4466,optionLeft,70,13125,6,29,0,29,0,1,,,,,,,,,,,,,,,,,,,,,,,,,,,,,,,,,,,,,,,
,,,,,,,,2023-08-16_10h12.33.426,HF_wild_card,2022.2.4,Win32,59.62673663,6173c5b0aa4bc2370fd2c1f2,64d2fd46c836a06233681665,64dc7e8170a266150a12709b,,,,,,,ctch,resources/DY.BMP,resources/DG.BMP,Door4,0.250925912,0.045370349,1,0,0,0.4434,optionRight,60,13185,6,30,0,30,0,1,,,,,,,,,,,,,,,,,,,,,,,,,,,,,,,,,,,,,,,
,,,,,,,,2023-08-16_10h12.33.426,HF_wild_card,2022.2.4,Win32,59.62673663,6173c5b0aa4bc2370fd2c1f2,64d2fd46c836a06233681665,64dc7e8170a266150a12709b,,,,,,,decisionTrl,resources/DG.BMP,resources/DBN.BMP,Door4,-0.207407422,0.01203703,1,0,0,0.4429,optionLeft,60,13245,6,31,0,31,0,1,,,,,,,,,,,,,,,,,,,,,,,,,,,,,,,,,,,,,,,
,,,,,,,,2023-08-16_10h12.33.426,HF_wild_card,2022.2.4,Win32,59.62673663,6173c5b0aa4bc2370fd2c1f2,64d2fd46c836a06233681665,64dc7e8170a266150a12709b,,,,,,,ctch,resources/DP.BMP,resources/DR.BMP,Door3,0.187037079,0.01666666,1,0,0,0.6632,optionRight,70,13315,6,32,0,32,0,1,,,,,,,,,,,,,,,,,,,,,,,,,,,,,,,,,,,,,,,
,,,,,,,,2023-08-16_10h12.33.426,HF_wild_card,2022.2.4,Win32,59.62673663,6173c5b0aa4bc2370fd2c1f2,64d2fd46c836a06233681665,64dc7e8170a266150a12709b,,,,,,,decisionTrl,resources/DG.BMP,resources/DR.BMP,Door4,-0.29351849,-0.009259259,1,0,0,0.6093,optionLeft,60,13375,6,33,0,33,0,1,,,,,,,,,,,,,,,,,,,,,,,,,,,,,,,,,,,,,,,
,,,,,,,,2023-08-16_10h12.33.426,HF_wild_card,2022.2.4,Win32,59.62673663,6173c5b0aa4bc2370fd2c1f2,64d2fd46c836a06233681665,64dc7e8170a266150a12709b,,,,,,,sngl,resources/Empty.png,resources/DR.BMP,Door3,0.12962963,-0.01203703,1,0,0,0.4821,optionRight,70,13445,6,34,0,34,0,1,,,,,,,,,,,,,,,,,,,,,,,,,,,,,,,,,,,,,,,
,,,,,,,,2023-08-16_10h12.33.426,HF_wild_card,2022.2.4,Win32,59.62673663,6173c5b0aa4bc2370fd2c1f2,64d2fd46c836a06233681665,64dc7e8170a266150a12709b,,,,,,,decisionTrl,resources/DG.BMP,resources/DR.BMP,Door4,-0.234259217,-0.015740748,1,0,0,0.5315,optionLeft,80,13525,6,35,0,35,0,1,,,,,,,,,,,,,,,,,,,,,,,,,,,,,,,,,,,,,,,
,,,,,,,,2023-08-16_10h12.33.426,HF_wild_card,2022.2.4,Win32,59.62673663,6173c5b0aa4bc2370fd2c1f2,64d2fd46c836a06233681665,64dc7e8170a266150a12709b,,,,,,,decisionTrl,resources/DP.BMP,resources/DY.BMP,Door2,-0.430555556,-0.026851866,1,0,0,0.841,optionLeft,40,13565,6,36,0,36,0,1,,,,,,,,,,,,,,,,,,,,,,,,,,,,,,,,,,,,,,,
,,,,,,,,2023-08-16_10h12.33.426,HF_wild_card,2022.2.4,Win32,59.62673663,6173c5b0aa4bc2370fd2c1f2,64d2fd46c836a06233681665,64dc7e8170a266150a12709b,,,,,,,decisionTrl,resources/DP.BMP,resources/DY.BMP,Door1,0.411111196,0.068518497,1,0,0,0.5308,optionRight,30,13595,6,37,0,37,0,1,,,,,,,,,,,,,,,,,,,,,,,,,,,,,,,,,,,,,,,
,,,,,,,,2023-08-16_10h12.33.426,HF_wild_card,2022.2.4,Win32,59.62673663,6173c5b0aa4bc2370fd2c1f2,64d2fd46c836a06233681665,64dc7e8170a266150a12709b,,,,,,,sngl,resources/Empty.png,resources/DP.BMP,Door2,0.342592593,0.078703704,1,0,0,0.4145,optionRight,40,13635,6,38,0,38,0,1,,,,,,,,,,,,,,,,,,,,,,,,,,,,,,,,,,,,,,,
,,,,,,,,2023-08-16_10h12.33.426,HF_wild_card,2022.2.4,Win32,59.62673663,6173c5b0aa4bc2370fd2c1f2,64d2fd46c836a06233681665,64dc7e8170a266150a12709b,,,,,,,sngl,resources/Empty.png,resources/DG.BMP,Door4,0.32222225,0.078703704,1,0,0,0.4165,optionRight,80,13715,6,39,0,39,0,1,,,,,,,,,,,,,,,,,,,,,,,,,,,,,,,,,,,,,,,
,,,,,,,,2023-08-16_10h12.33.426,HF_wild_card,2022.2.4,Win32,59.62673663,6173c5b0aa4bc2370fd2c1f2,64d2fd46c836a06233681665,64dc7e8170a266150a12709b,,,,,,,decisionTrl,resources/DR.BMP,resources/DG.BMP,Door4,0.169444473,0.055555556,1,0,0,0.4858,optionRight,80,13795,6,40,0,40,0,1,,,,,,,,,,,,,,,,,,,,,,,,,,,,,,,,,,,,,,,
,,,,,,,,2023-08-16_10h12.33.426,HF_wild_card,2022.2.4,Win32,59.62673663,6173c5b0aa4bc2370fd2c1f2,64d2fd46c836a06233681665,64dc7e8170a266150a12709b,,,,,,,ctch,resources/DR.BMP,resources/DP.BMP,Door3,-0.325925933,-0.041666667,1,0,0,0.4956,optionLeft,70,13865,6,41,0,41,0,1,,,,,,,,,,,,,,,,,,,,,,,,,,,,,,,,,,,,,,,
,,,,,,,,2023-08-16_10h12.33.426,HF_wild_card,2022.2.4,Win32,59.62673663,6173c5b0aa4bc2370fd2c1f2,64d2fd46c836a06233681665,64dc7e8170a266150a12709b,,,,,,,decisionTrl,resources/DBN.BMP,resources/DP.BMP,WildCard_Ex,-0.198148162,-0.005555577,1,0,0,0.5635,optionLeft,95,13960,6,42,0,42,0,1,,,,,,,,,,,,,,,,,,,,,,,,,,,,,,,,,,,,,,,
,,,,,,,,2023-08-16_10h12.33.426,HF_wild_card,2022.2.4,Win32,59.62673663,6173c5b0aa4bc2370fd2c1f2,64d2fd46c836a06233681665,64dc7e8170a266150a12709b,,,,,,,ctch,resources/DR.BMP,resources/DP.BMP,Door3,-0.224074046,-0.022222236,1,0,0,0.5326,optionLeft,70,14030,6,43,0,43,0,1,,,,,,,,,,,,,,,,,,,,,,,,,,,,,,,,,,,,,,,
,,,,,,,,2023-08-16_10h12.33.426,HF_wild_card,2022.2.4,Win32,59.62673663,6173c5b0aa4bc2370fd2c1f2,64d2fd46c836a06233681665,64dc7e8170a266150a12709b,,,,,,,,,,,,,,,,,,,,,,,,,,5,0,5,0,1,,,,,,,,,,,,,,,,,,,,,,,,,,,,,,,,,,
,,,,,,,,2023-08-16_10h12.33.426,HF_wild_card,2022.2.4,Win32,59.62673663,6173c5b0aa4bc2370fd2c1f2,64d2fd46c836a06233681665,64dc7e8170a266150a12709b,,,,,,,ctch,resources/DY.BMP,resources/DG.BMP,Door4,0.27870369,0.059259238,1,0,0,0.5773,optionRight,60,14090,7,0,0,0,0,1,,,,,,,,,,,,,,,,,,,,,,,,,,,,,,,,,,,,,,,
,,,,,,,,2023-08-16_10h12.33.426,HF_wild_card,2022.2.4,Win32,59.62673663,6173c5b0aa4bc2370fd2c1f2,64d2fd46c836a06233681665,64dc7e8170a266150a12709b,,,,,,,ctch,resources/DG.BMP,resources/DY.BMP,Door4,-0.337962963,-0.019444466,1,0,0,0.4606,optionLeft,80,14170,7,1,0,1,0,1,,,,,,,,,,,,,,,,,,,,,,,,,,,,,,,,,,,,,,,
,,,,,,,,2023-08-16_10h12.33.426,HF_wild_card,2022.2.4,Win32,59.62673663,6173c5b0aa4bc2370fd2c1f2,64d2fd46c836a06233681665,64dc7e8170a266150a12709b,,,,,,,ctch,resources/DP.BMP,resources/DR.BMP,Door3,0.262962977,0.046296296,1,0,0,0.5508,optionRight,70,14240,7,2,0,2,0,1,,,,,,,,,,,,,,,,,,,,,,,,,,,,,,,,,,,,,,,
,,,,,,,,2023-08-16_10h12.33.426,HF_wild_card,2022.2.4,Win32,59.62673663,6173c5b0aa4bc2370fd2c1f2,64d2fd46c836a06233681665,64dc7e8170a266150a12709b,,,,,,,ctch,resources/DR.BMP,resources/DP.BMP,Door3,-0.206481439,-0.009259259,1,0,0,0.5309,optionLeft,70,14310,7,3,0,3,0,1,,,,,,,,,,,,,,,,,,,,,,,,,,,,,,,,,,,,,,,
,,,,,,,,2023-08-16_10h12.33.426,HF_wild_card,2022.2.4,Win32,59.62673663,6173c5b0aa4bc2370fd2c1f2,64d2fd46c836a06233681665,64dc7e8170a266150a12709b,,,,,,,ctch,resources/DP.BMP,resources/DR.BMP,Door3,0.175925926,0.026851831,1,0,0,0.5308,optionRight,70,14380,7,4,0,4,0,1,,,,,,,,,,,,,,,,,,,,,,,,,,,,,,,,,,,,,,,
,,,,,,,,2023-08-16_10h12.33.426,HF_wild_card,2022.2.4,Win32,59.62673663,6173c5b0aa4bc2370fd2c1f2,64d2fd46c836a06233681665,64dc7e8170a266150a12709b,,,,,,,ctch,resources/DR.BMP,resources/DP.BMP,Door3,-0.243518476,0,1,0,0,0.4442,optionLeft,70,14450,7,5,0,5,0,1,,,,,,,,,,,,,,,,,,,,,,,,,,,,,,,,,,,,,,,
,,,,,,,,2023-08-16_10h12.33.426,HF_wild_card,2022.2.4,Win32,59.62673663,6173c5b0aa4bc2370fd2c1f2,64d2fd46c836a06233681665,64dc7e8170a266150a12709b,,,,,,,ctch,resources/DY.BMP,resources/DG.BMP,Door4,0.262962977,0.051851838,1,0,0,0.5497,optionRight,60,14510,7,6,0,6,0,1,,,,,,,,,,,,,,,,,,,,,,,,,,,,,,,,,,,,,,,
,,,,,,,,2023-08-16_10h12.33.426,HF_wild_card,2022.2.4,Win32,59.62673663,6173c5b0aa4bc2370fd2c1f2,64d2fd46c836a06233681665,64dc7e8170a266150a12709b,,,,,,,ctch,resources/DG.BMP,resources/DY.BMP,Door4,-0.312962956,-0.025000007,1,0,0,0.5304,optionLeft,80,14590,7,7,0,7,0,1,,,,,,,,,,,,,,,,,,,,,,,,,,,,,,,,,,,,,,,
,,,,,,,,2023-08-16_10h12.33.426,HF_wild_card,2022.2.4,Win32,59.62673663,6173c5b0aa4bc2370fd2c1f2,64d2fd46c836a06233681665,64dc7e8170a266150a12709b,,,,,,,decisionTrl,resources/DR.BMP,resources/DG.BMP,Door3,-0.195370356,-0.003703718,1,0,0,0.3777,optionLeft,70,14660,7,8,0,8,0,1,,,,,,,,,,,,,,,,,,,,,,,,,,,,,,,,,,,,,,,
,,,,,,,,2023-08-16_10h12.33.426,HF_wild_card,2022.2.4,Win32,59.62673663,6173c5b0aa4bc2370fd2c1f2,64d2fd46c836a06233681665,64dc7e8170a266150a12709b,,,,,,,decisionTrl,resources/DG.BMP,resources/DR.BMP,Door3,0.366666723,0.051851838,1,0,0,1.0813,optionRight,70,14730,7,9,0,9,0,1,,,,,,,,,,,,,,,,,,,,,,,,,,,,,,,,,,,,,,,
,,,,,,,,2023-08-16_10h12.33.426,HF_wild_card,2022.2.4,Win32,59.62673663,6173c5b0aa4bc2370fd2c1f2,64d2fd46c836a06233681665,64dc7e8170a266150a12709b,,,,,,,decisionTrl,resources/DY.BMP,resources/DP.BMP,Door1,-0.259259259,0.002777771,1,0,0,0.7981,optionLeft,30,14760,7,10,0,10,0,1,,,,,,,,,,,,,,,,,,,,,,,,,,,,,,,,,,,,,,,
,,,,,,,,2023-08-16_10h12.33.426,HF_wild_card,2022.2.4,Win32,59.62673663,6173c5b0aa4bc2370fd2c1f2,64d2fd46c836a06233681665,64dc7e8170a266150a12709b,,,,,,,decisionTrl,resources/DG.BMP,resources/DR.BMP,Door3,0.271296325,0.080555563,1,0,0,0.4483,optionRight,70,14830,7,11,0,11,0,1,,,,,,,,,,,,,,,,,,,,,,,,,,,,,,,,,,,,,,,
,,,,,,,,2023-08-16_10h12.33.426,HF_wild_card,2022.2.4,Win32,59.62673663,6173c5b0aa4bc2370fd2c1f2,64d2fd46c836a06233681665,64dc7e8170a266150a12709b,,,,,,,decisionTrl,resources/DY.BMP,resources/DP.BMP,Door1,-0.183333291,-0.01666666,1,0,0,0.5662,optionLeft,30,14860,7,12,0,12,0,1,,,,,,,,,,,,,,,,,,,,,,,,,,,,,,,,,,,,,,,
,,,,,,,,2023-08-16_10h12.33.426,HF_wild_card,2022.2.4,Win32,59.62673663,6173c5b0aa4bc2370fd2c1f2,64d2fd46c836a06233681665,64dc7e8170a266150a12709b,,,,,,,decisionTrl,resources/DG.BMP,resources/DR.BMP,Door4,-0.577777757,-0.062037044,1,0,0,1.2646,optionLeft,60,14920,7,13,0,13,0,1,,,,,,,,,,,,,,,,,,,,,,,,,,,,,,,,,,,,,,,
,,,,,,,,2023-08-16_10h12.33.426,HF_wild_card,2022.2.4,Win32,59.62673663,6173c5b0aa4bc2370fd2c1f2,64d2fd46c836a06233681665,64dc7e8170a266150a12709b,,,,,,,decisionTrl,resources/DR.BMP,resources/DG.BMP,Door4,0.237037023,0.045370349,1,0,0,0.6119,optionRight,80,15000,7,14,0,14,0,1,,,,,,,,,,,,,,,,,,,,,,,,,,,,,,,,,,,,,,,
,,,,,,,,2023-08-16_10h12.33.426,HF_wild_card,2022.2.4,Win32,59.62673663,6173c5b0aa4bc2370fd2c1f2,64d2fd46c836a06233681665,64dc7e8170a266150a12709b,,,,,,,decisionTrl,resources/DP.BMP,resources/DY.BMP,Door2,-0.147222236,0.002777771,1,0,0,0.5106,optionLeft,40,15040,7,15,0,15,0,1,,,,,,,,,,,,,,,,,,,,,,,,,,,,,,,,,,,,,,,
,,,,,,,,2023-08-16_10h12.33.426,HF_wild_card,2022.2.4,Win32,59.62673663,6173c5b0aa4bc2370fd2c1f2,64d2fd46c836a06233681665,64dc7e8170a266150a12709b,,,,,,,decisionTrl,resources/DY.BMP,resources/DP.BMP,Door1,-0.24537037,-0.008333347,1,0,0,0.6479,optionLeft,30,15070,7,16,0,16,0,1,,,,,,,,,,,,,,,,,,,,,,,,,,,,,,,,,,,,,,,
,,,,,,,,2023-08-16_10h12.33.426,HF_wild_card,2022.2.4,Win32,59.62673663,6173c5b0aa4bc2370fd2c1f2,64d2fd46c836a06233681665,64dc7e8170a266150a12709b,,,,,,,ctch,resources/DR.BMP,resources/DP.BMP,Door3,-0.185185185,-0.01203703,1,0,0,0.5139,optionLeft,70,15140,7,17,0,17,0,1,,,,,,,,,,,,,,,,,,,,,,,,,,,,,,,,,,,,,,,
,,,,,,,,2023-08-16_10h12.33.426,HF_wild_card,2022.2.4,Win32,59.62673663,6173c5b0aa4bc2370fd2c1f2,64d2fd46c836a06233681665,64dc7e8170a266150a12709b,,,,,,,decisionTrl,resources/DG.BMP,resources/DR.BMP,Door4,-0.150925884,0.01203703,1,0,0,0.6045,optionLeft,80,15220,7,18,0,18,0,1,,,,,,,,,,,,,,,,,,,,,,,,,,,,,,,,,,,,,,,
,,,,,,,,2023-08-16_10h12.33.426,HF_wild_card,2022.2.4,Win32,59.62673663,6173c5b0aa4bc2370fd2c1f2,64d2fd46c836a06233681665,64dc7e8170a266150a12709b,,,,,,,decisionTrl,resources/DR.BMP,resources/DG.BMP,Door3,-0.199074074,-0.000925947,1,0,0,0.4324,optionLeft,70,15290,7,19,0,19,0,1,,,,,,,,,,,,,,,,,,,,,,,,,,,,,,,,,,,,,,,
,,,,,,,,2023-08-16_10h12.33.426,HF_wild_card,2022.2.4,Win32,59.62673663,6173c5b0aa4bc2370fd2c1f2,64d2fd46c836a06233681665,64dc7e8170a266150a12709b,,,,,,,decisionTrl,resources/DP.BMP,resources/DY.BMP,Door2,-0.167592578,-0.010185206,1,0,0,0.4477,optionLeft,40,15330,7,20,0,20,0,1,,,,,,,,,,,,,,,,,,,,,,,,,,,,,,,,,,,,,,,
,,,,,,,,2023-08-16_10h12.33.426,HF_wild_card,2022.2.4,Win32,59.62673663,6173c5b0aa4bc2370fd2c1f2,64d2fd46c836a06233681665,64dc7e8170a266150a12709b,,,,,,,ctch,resources/DP.BMP,resources/DR.BMP,Door3,0.22592594,0.010185171,1,0,0,0.4146,optionRight,70,15400,7,21,0,21,0,1,,,,,,,,,,,,,,,,,,,,,,,,,,,,,,,,,,,,,,,
,,,,,,,,2023-08-16_10h12.33.426,HF_wild_card,2022.2.4,Win32,59.62673663,6173c5b0aa4bc2370fd2c1f2,64d2fd46c836a06233681665,64dc7e8170a266150a12709b,,,,,,,decisionTrl,resources/DP.BMP,resources/DY.BMP,Door2,-0.162037037,-0.037962984,1,0,0,0.7449,optionLeft,40,15440,7,22,0,22,0,1,,,,,,,,,,,,,,,,,,,,,,,,,,,,,,,,,,,,,,,
,,,,,,,,2023-08-16_10h12.33.426,HF_wild_card,2022.2.4,Win32,59.62673663,6173c5b0aa4bc2370fd2c1f2,64d2fd46c836a06233681665,64dc7e8170a266150a12709b,,,,,,,decisionTrl,resources/DP.BMP,resources/DY.BMP,Door1,0.191666709,-0.005555577,1,0,0,0.8612,optionRight,30,15470,7,23,0,23,0,1,,,,,,,,,,,,,,,,,,,,,,,,,,,,,,,,,,,,,,,
,,,,,,,,2023-08-16_10h12.33.426,HF_wild_card,2022.2.4,Win32,59.62673663,6173c5b0aa4bc2370fd2c1f2,64d2fd46c836a06233681665,64dc7e8170a266150a12709b,,,,,,,ctch,resources/DY.BMP,resources/DG.BMP,Door1,-0.185185185,-0.049074067,1,0,0,0.3693,optionLeft,30,15500,7,24,0,24,0,1,,,,,,,,,,,,,,,,,,,,,,,,,,,,,,,,,,,,,,,
,,,,,,,,2023-08-16_10h12.33.426,HF_wild_card,2022.2.4,Win32,59.62673663,6173c5b0aa4bc2370fd2c1f2,64d2fd46c836a06233681665,64dc7e8170a266150a12709b,,,,,,,decisionTrl,resources/DY.BMP,resources/DP.BMP,Door2,0.207407422,0.03148146,1,0,0,0.5935,optionRight,40,15540,7,25,0,25,0,1,,,,,,,,,,,,,,,,,,,,,,,,,,,,,,,,,,,,,,,
,,,,,,,,2023-08-16_10h12.33.426,HF_wild_card,2022.2.4,Win32,59.62673663,6173c5b0aa4bc2370fd2c1f2,64d2fd46c836a06233681665,64dc7e8170a266150a12709b,,,,,,,decisionTrl,resources/DG.BMP,resources/DR.BMP,Door4,-0.201851809,-0.029629637,1,0,0,0.4109,optionLeft,80,15620,7,26,0,26,0,1,,,,,,,,,,,,,,,,,,,,,,,,,,,,,,,,,,,,,,,
,,,,,,,,2023-08-16_10h12.33.426,HF_wild_card,2022.2.4,Win32,59.62673663,6173c5b0aa4bc2370fd2c1f2,64d2fd46c836a06233681665,64dc7e8170a266150a12709b,,,,,,,decisionTrl,resources/DG.BMP,resources/DR.BMP,Door4,-0.244444459,-0.035185178,1,0,0,0.4525,optionLeft,80,15700,7,27,0,27,0,1,,,,,,,,,,,,,,,,,,,,,,,,,,,,,,,,,,,,,,,
,,,,,,,,2023-08-16_10h12.33.426,HF_wild_card,2022.2.4,Win32,59.62673663,6173c5b0aa4bc2370fd2c1f2,64d2fd46c836a06233681665,64dc7e8170a266150a12709b,,,,,,,ctch,resources/DG.BMP,resources/DY.BMP,Door4,-0.240740741,-0.000925947,1,0,0,0.4649,optionLeft,80,15780,7,28,0,28,0,1,,,,,,,,,,,,,,,,,,,,,,,,,,,,,,,,,,,,,,,
,,,,,,,,2023-08-16_10h12.33.426,HF_wild_card,2022.2.4,Win32,59.62673663,6173c5b0aa4bc2370fd2c1f2,64d2fd46c836a06233681665,64dc7e8170a266150a12709b,,,,,,,decisionTrl,resources/DR.BMP,resources/DG.BMP,Door3,-0.228703675,-0.026851866,1,0,0,0.597,optionLeft,70,15850,7,29,0,29,0,1,,,,,,,,,,,,,,,,,,,,,,,,,,,,,,,,,,,,,,,
,,,,,,,,2023-08-16_10h12.33.426,HF_wild_card,2022.2.4,Win32,59.62673663,6173c5b0aa4bc2370fd2c1f2,64d2fd46c836a06233681665,64dc7e8170a266150a12709b,,,,,,,decisionTrl,resources/DP.BMP,resources/DY.BMP,Door2,-0.486111111,-0.057407414,1,0,0,0.4816,optionLeft,20,15870,7,30,0,30,0,1,,,,,,,,,,,,,,,,,,,,,,,,,,,,,,,,,,,,,,,
,,,,,,,,2023-08-16_10h12.33.426,HF_wild_card,2022.2.4,Win32,59.62673663,6173c5b0aa4bc2370fd2c1f2,64d2fd46c836a06233681665,64dc7e8170a266150a12709b,,,,,,,decisionTrl,resources/DP.BMP,resources/DY.BMP,Door1,0.323148233,0.02870369,1,0,0,0.6279,optionRight,30,15900,7,31,0,31,0,1,,,,,,,,,,,,,,,,,,,,,,,,,,,,,,,,,,,,,,,
,,,,,,,,2023-08-16_10h12.33.426,HF_wild_card,2022.2.4,Win32,59.62673663,6173c5b0aa4bc2370fd2c1f2,64d2fd46c836a06233681665,64dc7e8170a266150a12709b,,,,,,,decisionTrl,resources/DY.BMP,resources/DP.BMP,Door1,-0.244444459,-0.040740755,1,0,0,0.5031,optionLeft,30,15930,7,32,0,32,0,1,,,,,,,,,,,,,,,,,,,,,,,,,,,,,,,,,,,,,,,
,,,,,,,,2023-08-16_10h12.33.426,HF_wild_card,2022.2.4,Win32,59.62673663,6173c5b0aa4bc2370fd2c1f2,64d2fd46c836a06233681665,64dc7e8170a266150a12709b,,,,,,,decisionTrl,resources/DR.BMP,resources/DG.BMP,Door4,0.336111139,0.041666667,1,0,0,0.432,optionRight,60,15990,7,33,0,33,0,1,,,,,,,,,,,,,,,,,,,,,,,,,,,,,,,,,,,,,,,
,,,,,,,,2023-08-16_10h12.33.426,HF_wild_card,2022.2.4,Win32,59.62673663,6173c5b0aa4bc2370fd2c1f2,64d2fd46c836a06233681665,64dc7e8170a266150a12709b,,,,,,,decisionTrl,resources/DY.BMP,resources/DP.BMP,Door1,-0.166666667,-0.005555577,1,0,0,0.5492,optionLeft,30,16020,7,34,0,34,0,1,,,,,,,,,,,,,,,,,,,,,,,,,,,,,,,,,,,,,,,
,,,,,,,,2023-08-16_10h12.33.426,HF_wild_card,2022.2.4,Win32,59.62673663,6173c5b0aa4bc2370fd2c1f2,64d2fd46c836a06233681665,64dc7e8170a266150a12709b,,,,,,,decisionTrl,resources/DR.BMP,resources/DG.BMP,Door4,0.311111168,0.025000007,1,0,0,0.461,optionRight,60,16080,7,35,0,35,0,1,,,,,,,,,,,,,,,,,,,,,,,,,,,,,,,,,,,,,,,
,,,,,,,,2023-08-16_10h12.33.426,HF_wild_card,2022.2.4,Win32,59.62673663,6173c5b0aa4bc2370fd2c1f2,64d2fd46c836a06233681665,64dc7e8170a266150a12709b,,,,,,,,,,,,,,,,,,,,,,,,,,6,0,6,0,1,,,,,,,,,,,,,,,,,,,,,,,,,,,,,,,,,,
,,,,,,,,2023-08-16_10h12.33.426,HF_wild_card,2022.2.4,Win32,59.62673663,6173c5b0aa4bc2370fd2c1f2,64d2fd46c836a06233681665,64dc7e8170a266150a12709b,,,,,,,,,,,,,,,,,,,,,,,,,,,,,,,4,,,,,,,,,,,,,,,,,,,,,,,,,,,,,,,,,
,,,,,,,,2023-08-16_10h12.33.426,HF_wild_card,2022.2.4,Win32,59.62673663,6173c5b0aa4bc2370fd2c1f2,64d2fd46c836a06233681665,64dc7e8170a266150a12709b,,,,,,,,,,,,,,,,,,,,,,,,,,,,,,,,,,,,,,,,,,,,,,,,,,,,,,,,,,,,,,,,
,,,,,,,,2023-08-16_10h12.33.426,HF_wild_card,2022.2.4,Win32,59.62673663,6173c5b0aa4bc2370fd2c1f2,64d2fd46c836a06233681665,64dc7e8170a266150a12709b,,,,,,,,,,,,,,,,,,,,,,,,,,,,,,,,40,WC_extreme,resources/DBN.BMP,0,0,0,0,1,,,,,,,,,,,,,,,,,,,,,,,,,
,,,,,,,,2023-08-16_10h12.33.426,HF_wild_card,2022.2.4,Win32,59.62673663,6173c5b0aa4bc2370fd2c1f2,64d2fd46c836a06233681665,64dc7e8170a266150a12709b,,,,,,,,,,,,,,,,,,,,,,,,,,,,,,,,10,Door1,resources/DY.BMP,1,0,1,0,1,,,,,,,,,,,,,,,,,,,,,,,,,
,,,,,,,,2023-08-16_10h12.33.426,HF_wild_card,2022.2.4,Win32,59.62673663,6173c5b0aa4bc2370fd2c1f2,64d2fd46c836a06233681665,64dc7e8170a266150a12709b,,,,,,,,,,,,,,,,,,,,,,,,,,,,,,,,60,Door4,resources/DG.BMP,2,0,2,0,1,,,,,,,,,,,,,,,,,,,,,,,,,
,,,,,,,,2023-08-16_10h12.33.426,HF_wild_card,2022.2.4,Win32,59.62673663,6173c5b0aa4bc2370fd2c1f2,64d2fd46c836a06233681665,64dc7e8170a266150a12709b,,,,,,,,,,,,,,,,,,,,,,,,,,,,,,,,40,WC_nonExtreme,resources/DB.BMP,3,0,3,0,1,,,,,,,,,,,,,,,,,,,,,,,,,
,,,,,,,,2023-08-16_10h12.33.426,HF_wild_card,2022.2.4,Win32,59.62673663,6173c5b0aa4bc2370fd2c1f2,64d2fd46c836a06233681665,64dc7e8170a266150a12709b,,,,,,,,,,,,,,,,,,,,,,,,,,,,,,,,5,Door2,resources/DP.BMP,4,0,4,0,1,,,,,,,,,,,,,,,,,,,,,,,,,
,,,,,,,,2023-08-16_10h12.33.426,HF_wild_card,2022.2.4,Win32,59.62673663,6173c5b0aa4bc2370fd2c1f2,64d2fd46c836a06233681665,64dc7e8170a266150a12709b,,,,,,,,,,,,,,,,,,,,,,,,,,,,,,,,80,Door3,resources/DR.BMP,5,0,5,0,1,,,,,,,,,,,,,,,,,,,,,,,,,
,,,,,,,,2023-08-16_10h12.33.426,HF_wild_card,2022.2.4,Win32,59.62673663,6173c5b0aa4bc2370fd2c1f2,64d2fd46c836a06233681665,64dc7e8170a266150a12709b,,,,,,,,,,,,,,,,,,,,,,,,,,,,,,,,,,,,,,,,,,,,,,,,,,,,,,,,,,,,,,,,
,,,,,,,,2023-08-16_10h12.33.426,HF_wild_card,2022.2.4,Win32,59.62673663,6173c5b0aa4bc2370fd2c1f2,64d2fd46c836a06233681665,64dc7e8170a266150a12709b,,,,,,,,,,,,,,,,,,,,,,,,,,,,,,,,,,,,,,,,0,0,0,0,1,,,,,,,,,,,,,,,,,,,,
