Condition,Low fixed image (Door1),Low risky image (Door2),High fixed image (Door3),High risky image (Door4),Extreme Wild Card,NonExtreme Wild Card,,date,expName,psychopyVersion,OS,frameRate,PROLIFIC_PID,STUDY_ID,SESSION_ID,mouse_2.x,mouse_2.y,mouse_2.leftButton,mouse_2.midButton,mouse_2.rightButton,mouse_2.clicked_name,Trial Type,Left Option Image,Right Option Image,Chosen Door,mouse.x,mouse.y,mouse.leftButton,mouse.midButton,mouse.rightButton,mouse.time,mouse.clicked_name,Feedback,Cumulative Reward,Block,trial.thisRepN,trial.thisTrialN,trial.thisN,trial.thisIndex,trial.ran,blocks.thisRepN,blocks.thisTrialN,blocks.thisN,blocks.thisIndex,blocks.ran,Money conversion,First Outcome Reported,Shown Door (First Outcome),Displayed Image (First Outcome),outcomes.thisRepN,outcomes.thisTrialN,outcomes.thisN,outcomes.thisIndex,outcomes.ran,judgments.thisRepN,judgments.thisTrialN,judgments.thisN,judgments.thisIndex,judgments.ran,freqMouse.x,freqMouse.y,freqMouse.leftButton,freqMouse.midButton,freqMouse.rightButton,freqMouse.clicked_name,trials.thisRepN,trials.thisTrialN,trials.thisN,trials.thisIndex,trials.ran,FQJ for first outcome,FQJ for second outcome,Shown Door,Displayed Image,judgBlock.thisRepN,judgBlock.thisTrialN,judgBlock.thisN,judgBlock.thisIndex,judgBlock.ran
1,resources/DP.BMP,resources/DBN.BMP,resources/DR.BMP,resources/DB.BMP,resources/DG.BMP,resources/DY.BMP,,2023-08-24_08h12.53.173,HF_wild_card,2022.2.4,MacIntel,59.84082341,613e72b49567f3e1d92b2ff5,64e63663dbcaf322d2eec8da,64e702cc52f22cf9bc8bc95d,,,,,,,,,,,,,,,,,,,,,,,,,,,,,,,,,,,,,,,,,,,,,,,,,,,,,,,,,,,,,,,,
,,,,,,,,2023-08-24_08h12.53.173,HF_wild_card,2022.2.4,MacIntel,59.84082341,613e72b49567f3e1d92b2ff5,64e63663dbcaf322d2eec8da,64e702cc52f22cf9bc8bc95d,0.010707465,-0.428077257,1,0,0,agree,,,,,,,,,,,,,,,,,,,,,,,,,,,,,,,,,,,,,,,,,,,,,,,,,,,,,,,,,,
,,,,,,,,2023-08-24_08h12.53.173,HF_wild_card,2022.2.4,MacIntel,59.84082341,613e72b49567f3e1d92b2ff5,64e63663dbcaf322d2eec8da,64e702cc52f22cf9bc8bc95d,,,,,,,,,,,,,,,,,,,,,,,,,,,,,,,,,,,,,,,,,,,,,,,,,,,,,,,,,,,,,,,,
,,,,,,,,2023-08-24_08h12.53.173,HF_wild_card,2022.2.4,MacIntel,59.84082341,613e72b49567f3e1d92b2ff5,64e63663dbcaf322d2eec8da,64e702cc52f22cf9bc8bc95d,,,,,,,sngl,resources/DP.BMP,resources/Empty.png,Door1,-0.372400174,-0.086258681,1,0,0,4.5131,optionLeft,30,30,1,0,0,0,0,1,,,,,,,,,,,,,,,,,,,,,,,,,,,,,,,,,,,,,,,
,,,,,,,,2023-08-24_08h12.53.173,HF_wild_card,2022.2.4,MacIntel,59.84082341,613e72b49567f3e1d92b2ff5,64e63663dbcaf322d2eec8da,64e702cc52f22cf9bc8bc95d,,,,,,,ctch,resources/DR.BMP,resources/DBN.BMP,Door2,0.365611979,-0.018888889,1,0,0,1.5977,optionRight,40,70,1,1,0,1,0,1,,,,,,,,,,,,,,,,,,,,,,,,,,,,,,,,,,,,,,,
,,,,,,,,2023-08-24_08h12.53.173,HF_wild_card,2022.2.4,MacIntel,59.84082341,613e72b49567f3e1d92b2ff5,64e63663dbcaf322d2eec8da,64e702cc52f22cf9bc8bc95d,,,,,,,sngl,resources/DR.BMP,resources/Empty.png,Door3,-0.37047309,-0.029375,1,0,0,2.516,optionLeft,70,140,1,2,0,2,0,1,,,,,,,,,,,,,,,,,,,,,,,,,,,,,,,,,,,,,,,
,,,,,,,,2023-08-24_08h12.53.173,HF_wild_card,2022.2.4,MacIntel,59.84082341,613e72b49567f3e1d92b2ff5,64e63663dbcaf322d2eec8da,64e702cc52f22cf9bc8bc95d,,,,,,,decisionTrl,resources/DY.BMP,resources/DB.BMP,Door4,0.411679688,-0.03765191,1,0,0,1.9849,optionRight,80,220,1,3,0,3,0,1,,,,,,,,,,,,,,,,,,,,,,,,,,,,,,,,,,,,,,,
,,,,,,,,2023-08-24_08h12.53.173,HF_wild_card,2022.2.4,MacIntel,59.84082341,613e72b49567f3e1d92b2ff5,64e63663dbcaf322d2eec8da,64e702cc52f22cf9bc8bc95d,,,,,,,decisionTrl,resources/DR.BMP,resources/DB.BMP,Door4,0.413307292,-0.038923611,1,0,0,1.2984,optionRight,60,280,1,4,0,4,0,1,,,,,,,,,,,,,,,,,,,,,,,,,,,,,,,,,,,,,,,
,,,,,,,,2023-08-24_08h12.53.173,HF_wild_card,2022.2.4,MacIntel,59.84082341,613e72b49567f3e1d92b2ff5,64e63663dbcaf322d2eec8da,64e702cc52f22cf9bc8bc95d,,,,,,,decisionTrl,resources/DBN.BMP,resources/DP.BMP,Door2,-0.427829861,-0.038272569,1,0,0,1.5839,optionLeft,20,300,1,5,0,5,0,1,,,,,,,,,,,,,,,,,,,,,,,,,,,,,,,,,,,,,,,
,,,,,,,,2023-08-24_08h12.53.173,HF_wild_card,2022.2.4,MacIntel,59.84082341,613e72b49567f3e1d92b2ff5,64e63663dbcaf322d2eec8da,64e702cc52f22cf9bc8bc95d,,,,,,,decisionTrl,resources/DB.BMP,resources/DR.BMP,Door4,-0.410334201,-0.009583333,1,0,0,1.9495,optionLeft,80,380,1,6,0,6,0,1,,,,,,,,,,,,,,,,,,,,,,,,,,,,,,,,,,,,,,,
,,,,,,,,2023-08-24_08h12.53.173,HF_wild_card,2022.2.4,MacIntel,59.84082341,613e72b49567f3e1d92b2ff5,64e63663dbcaf322d2eec8da,64e702cc52f22cf9bc8bc95d,,,,,,,sngl,resources/Empty.png,resources/DR.BMP,Door3,0.404774306,-0.057591146,1,0,0,1.4317,optionRight,70,450,1,7,0,7,0,1,,,,,,,,,,,,,,,,,,,,,,,,,,,,,,,,,,,,,,,
,,,,,,,,2023-08-24_08h12.53.173,HF_wild_card,2022.2.4,MacIntel,59.84082341,613e72b49567f3e1d92b2ff5,64e63663dbcaf322d2eec8da,64e702cc52f22cf9bc8bc95d,,,,,,,decisionTrl,resources/DY.BMP,resources/DR.BMP,Door3,0.371549479,-0.015121528,1,0,0,2.1317,optionRight,70,520,1,8,0,8,0,1,,,,,,,,,,,,,,,,,,,,,,,,,,,,,,,,,,,,,,,
,,,,,,,,2023-08-24_08h12.53.173,HF_wild_card,2022.2.4,MacIntel,59.84082341,613e72b49567f3e1d92b2ff5,64e63663dbcaf322d2eec8da,64e702cc52f22cf9bc8bc95d,,,,,,,decisionTrl,resources/DBN.BMP,resources/DY.BMP,Door2,-0.401853299,0.025603299,1,0,0,1.7835,optionLeft,20,540,1,9,0,9,0,1,,,,,,,,,,,,,,,,,,,,,,,,,,,,,,,,,,,,,,,
,,,,,,,,2023-08-24_08h12.53.173,HF_wild_card,2022.2.4,MacIntel,59.84082341,613e72b49567f3e1d92b2ff5,64e63663dbcaf322d2eec8da,64e702cc52f22cf9bc8bc95d,,,,,,,ctch,resources/DB.BMP,resources/DP.BMP,Door4,-0.371953125,0.015828993,1,0,0,1.632,optionLeft,80,620,1,10,0,10,0,1,,,,,,,,,,,,,,,,,,,,,,,,,,,,,,,,,,,,,,,
,,,,,,,,2023-08-24_08h12.53.173,HF_wild_card,2022.2.4,MacIntel,59.84082341,613e72b49567f3e1d92b2ff5,64e63663dbcaf322d2eec8da,64e702cc52f22cf9bc8bc95d,,,,,,,sngl,resources/Empty.png,resources/DBN.BMP,Door2,0.422304687,0.057708333,1,0,0,1.0308,optionRight,20,640,1,11,0,11,0,1,,,,,,,,,,,,,,,,,,,,,,,,,,,,,,,,,,,,,,,
,,,,,,,,2023-08-24_08h12.53.173,HF_wild_card,2022.2.4,MacIntel,59.84082341,613e72b49567f3e1d92b2ff5,64e63663dbcaf322d2eec8da,64e702cc52f22cf9bc8bc95d,,,,,,,decisionTrl,resources/DP.BMP,resources/DBN.BMP,Door1,-0.357391493,0.004605035,1,0,0,2.1343,optionLeft,30,670,1,12,0,12,0,1,,,,,,,,,,,,,,,,,,,,,,,,,,,,,,,,,,,,,,,
,,,,,,,,2023-08-24_08h12.53.173,HF_wild_card,2022.2.4,MacIntel,59.84082341,613e72b49567f3e1d92b2ff5,64e63663dbcaf322d2eec8da,64e702cc52f22cf9bc8bc95d,,,,,,,sngl,resources/DBN.BMP,resources/Empty.png,Door2,-0.454414062,0.007469618,1,0,0,1.1486,optionLeft,40,710,1,13,0,13,0,1,,,,,,,,,,,,,,,,,,,,,,,,,,,,,,,,,,,,,,,
,,,,,,,,2023-08-24_08h12.53.173,HF_wild_card,2022.2.4,MacIntel,59.84082341,613e72b49567f3e1d92b2ff5,64e63663dbcaf322d2eec8da,64e702cc52f22cf9bc8bc95d,,,,,,,sngl,resources/DY.BMP,resources/Empty.png,WildCard_NonEx,-0.327855903,0.003185764,1,0,0,1.1809,optionLeft,55,765,1,14,0,14,0,1,,,,,,,,,,,,,,,,,,,,,,,,,,,,,,,,,,,,,,,
,,,,,,,,2023-08-24_08h12.53.173,HF_wild_card,2022.2.4,MacIntel,59.84082341,613e72b49567f3e1d92b2ff5,64e63663dbcaf322d2eec8da,64e702cc52f22cf9bc8bc95d,,,,,,,decisionTrl,resources/DB.BMP,resources/DR.BMP,Door4,-0.412460938,0.011319444,1,0,0,1.4479,optionLeft,60,825,1,15,0,15,0,1,,,,,,,,,,,,,,,,,,,,,,,,,,,,,,,,,,,,,,,
,,,,,,,,2023-08-24_08h12.53.173,HF_wild_card,2022.2.4,MacIntel,59.84082341,613e72b49567f3e1d92b2ff5,64e63663dbcaf322d2eec8da,64e702cc52f22cf9bc8bc95d,,,,,,,decisionTrl,resources/DP.BMP,resources/DY.BMP,WildCard_NonEx,0.397296007,0.002881944,1,0,0,1.7497,optionRight,45,870,1,16,0,16,0,1,,,,,,,,,,,,,,,,,,,,,,,,,,,,,,,,,,,,,,,
,,,,,,,,2023-08-24_08h12.53.173,HF_wild_card,2022.2.4,MacIntel,59.84082341,613e72b49567f3e1d92b2ff5,64e63663dbcaf322d2eec8da,64e702cc52f22cf9bc8bc95d,,,,,,,decisionTrl,resources/DBN.BMP,resources/DP.BMP,Door2,-0.464717882,-0.010572917,1,0,0,1.0318,optionLeft,20,890,1,17,0,17,0,1,,,,,,,,,,,,,,,,,,,,,,,,,,,,,,,,,,,,,,,
,,,,,,,,2023-08-24_08h12.53.173,HF_wild_card,2022.2.4,MacIntel,59.84082341,613e72b49567f3e1d92b2ff5,64e63663dbcaf322d2eec8da,64e702cc52f22cf9bc8bc95d,,,,,,,decisionTrl,resources/DB.BMP,resources/DR.BMP,Door4,-0.372144097,-0.002951389,1,0,0,1.0446,optionLeft,80,970,1,18,0,18,0,1,,,,,,,,,,,,,,,,,,,,,,,,,,,,,,,,,,,,,,,
,,,,,,,,2023-08-24_08h12.53.173,HF_wild_card,2022.2.4,MacIntel,59.84082341,613e72b49567f3e1d92b2ff5,64e63663dbcaf322d2eec8da,64e702cc52f22cf9bc8bc95d,,,,,,,decisionTrl,resources/DR.BMP,resources/DB.BMP,Door4,0.397148438,0.028250868,1,0,0,1.3652,optionRight,60,1030,1,19,0,19,0,1,,,,,,,,,,,,,,,,,,,,,,,,,,,,,,,,,,,,,,,
,,,,,,,,2023-08-24_08h12.53.173,HF_wild_card,2022.2.4,MacIntel,59.84082341,613e72b49567f3e1d92b2ff5,64e63663dbcaf322d2eec8da,64e702cc52f22cf9bc8bc95d,,,,,,,sngl,resources/DY.BMP,resources/Empty.png,WildCard_NonEx,-0.394019097,0.025364583,1,0,0,1.2152,optionLeft,45,1075,1,20,0,20,0,1,,,,,,,,,,,,,,,,,,,,,,,,,,,,,,,,,,,,,,,
,,,,,,,,2023-08-24_08h12.53.173,HF_wild_card,2022.2.4,MacIntel,59.84082341,613e72b49567f3e1d92b2ff5,64e63663dbcaf322d2eec8da,64e702cc52f22cf9bc8bc95d,,,,,,,sngl,resources/Empty.png,resources/DB.BMP,Door4,0.340325521,-0.019661458,1,0,0,0.8141,optionRight,60,1135,1,21,0,21,0,1,,,,,,,,,,,,,,,,,,,,,,,,,,,,,,,,,,,,,,,
,,,,,,,,2023-08-24_08h12.53.173,HF_wild_card,2022.2.4,MacIntel,59.84082341,613e72b49567f3e1d92b2ff5,64e63663dbcaf322d2eec8da,64e702cc52f22cf9bc8bc95d,,,,,,,decisionTrl,resources/DR.BMP,resources/DB.BMP,Door4,0.366501736,0.006827257,1,0,0,1.0464,optionRight,60,1195,1,22,0,22,0,1,,,,,,,,,,,,,,,,,,,,,,,,,,,,,,,,,,,,,,,
,,,,,,,,2023-08-24_08h12.53.173,HF_wild_card,2022.2.4,MacIntel,59.84082341,613e72b49567f3e1d92b2ff5,64e63663dbcaf322d2eec8da,64e702cc52f22cf9bc8bc95d,,,,,,,decisionTrl,resources/DR.BMP,resources/DB.BMP,Door4,0.398624132,0.010421007,1,0,0,1.0141,optionRight,80,1275,1,23,0,23,0,1,,,,,,,,,,,,,,,,,,,,,,,,,,,,,,,,,,,,,,,
,,,,,,,,2023-08-24_08h12.53.173,HF_wild_card,2022.2.4,MacIntel,59.84082341,613e72b49567f3e1d92b2ff5,64e63663dbcaf322d2eec8da,64e702cc52f22cf9bc8bc95d,,,,,,,sngl,resources/Empty.png,resources/DP.BMP,Door1,0.311072049,-0.021940104,1,0,0,1.7825,optionRight,30,1305,1,24,0,24,0,1,,,,,,,,,,,,,,,,,,,,,,,,,,,,,,,,,,,,,,,
,,,,,,,,2023-08-24_08h12.53.173,HF_wild_card,2022.2.4,MacIntel,59.84082341,613e72b49567f3e1d92b2ff5,64e63663dbcaf322d2eec8da,64e702cc52f22cf9bc8bc95d,,,,,,,decisionTrl,resources/DBN.BMP,resources/DP.BMP,Door2,-0.393645833,0.022161458,1,0,0,0.9112,optionLeft,40,1345,1,25,0,25,0,1,,,,,,,,,,,,,,,,,,,,,,,,,,,,,,,,,,,,,,,
,,,,,,,,2023-08-24_08h12.53.173,HF_wild_card,2022.2.4,MacIntel,59.84082341,613e72b49567f3e1d92b2ff5,64e63663dbcaf322d2eec8da,64e702cc52f22cf9bc8bc95d,,,,,,,decisionTrl,resources/DBN.BMP,resources/DP.BMP,Door2,-0.423489583,0.049869792,1,0,0,0.9976,optionLeft,40,1385,1,26,0,26,0,1,,,,,,,,,,,,,,,,,,,,,,,,,,,,,,,,,,,,,,,
,,,,,,,,2023-08-24_08h12.53.173,HF_wild_card,2022.2.4,MacIntel,59.84082341,613e72b49567f3e1d92b2ff5,64e63663dbcaf322d2eec8da,64e702cc52f22cf9bc8bc95d,,,,,,,decisionTrl,resources/DB.BMP,resources/DR.BMP,Door4,-0.341453993,0.00858941,1,0,0,1.0809,optionLeft,60,1445,1,27,0,27,0,1,,,,,,,,,,,,,,,,,,,,,,,,,,,,,,,,,,,,,,,
,,,,,,,,2023-08-24_08h12.53.173,HF_wild_card,2022.2.4,MacIntel,59.84082341,613e72b49567f3e1d92b2ff5,64e63663dbcaf322d2eec8da,64e702cc52f22cf9bc8bc95d,,,,,,,ctch,resources/DP.BMP,resources/DB.BMP,Door4,0.400855035,0.003164063,1,0,0,1.0997,optionRight,80,1525,1,28,0,28,0,1,,,,,,,,,,,,,,,,,,,,,,,,,,,,,,,,,,,,,,,
,,,,,,,,2023-08-24_08h12.53.173,HF_wild_card,2022.2.4,MacIntel,59.84082341,613e72b49567f3e1d92b2ff5,64e63663dbcaf322d2eec8da,64e702cc52f22cf9bc8bc95d,,,,,,,sngl,resources/Empty.png,resources/DY.BMP,WildCard_NonEx,0.35203559,0.006827257,1,0,0,1.2183,optionRight,55,1580,1,29,0,29,0,1,,,,,,,,,,,,,,,,,,,,,,,,,,,,,,,,,,,,,,,
,,,,,,,,2023-08-24_08h12.53.173,HF_wild_card,2022.2.4,MacIntel,59.84082341,613e72b49567f3e1d92b2ff5,64e63663dbcaf322d2eec8da,64e702cc52f22cf9bc8bc95d,,,,,,,ctch,resources/DP.BMP,resources/DB.BMP,Door4,0.367621528,0.006501736,1,0,0,1.148,optionRight,80,1660,1,30,0,30,0,1,,,,,,,,,,,,,,,,,,,,,,,,,,,,,,,,,,,,,,,
,,,,,,,,2023-08-24_08h12.53.173,HF_wild_card,2022.2.4,MacIntel,59.84082341,613e72b49567f3e1d92b2ff5,64e63663dbcaf322d2eec8da,64e702cc52f22cf9bc8bc95d,,,,,,,sngl,resources/DB.BMP,resources/Empty.png,Door4,-0.420069444,-0.011510417,1,0,0,0.8992,optionLeft,80,1740,1,31,0,31,0,1,,,,,,,,,,,,,,,,,,,,,,,,,,,,,,,,,,,,,,,
,,,,,,,,2023-08-24_08h12.53.173,HF_wild_card,2022.2.4,MacIntel,59.84082341,613e72b49567f3e1d92b2ff5,64e63663dbcaf322d2eec8da,64e702cc52f22cf9bc8bc95d,,,,,,,decisionTrl,resources/DR.BMP,resources/DY.BMP,Door3,-0.396067708,0.017638889,1,0,0,1.9667,optionLeft,70,1810,1,32,0,32,0,1,,,,,,,,,,,,,,,,,,,,,,,,,,,,,,,,,,,,,,,
,,,,,,,,2023-08-24_08h12.53.173,HF_wild_card,2022.2.4,MacIntel,59.84082341,613e72b49567f3e1d92b2ff5,64e63663dbcaf322d2eec8da,64e702cc52f22cf9bc8bc95d,,,,,,,sngl,resources/Empty.png,resources/DY.BMP,WildCard_NonEx,0.449444444,0.016258681,1,0,0,1.1151,optionRight,45,1855,1,33,0,33,0,1,,,,,,,,,,,,,,,,,,,,,,,,,,,,,,,,,,,,,,,
,,,,,,,,2023-08-24_08h12.53.173,HF_wild_card,2022.2.4,MacIntel,59.84082341,613e72b49567f3e1d92b2ff5,64e63663dbcaf322d2eec8da,64e702cc52f22cf9bc8bc95d,,,,,,,decisionTrl,resources/DP.BMP,resources/DBN.BMP,Door2,0.406510417,0.078177083,1,0,0,1.416,optionRight,20,1875,1,34,0,34,0,1,,,,,,,,,,,,,,,,,,,,,,,,,,,,,,,,,,,,,,,
,,,,,,,,2023-08-24_08h12.53.173,HF_wild_card,2022.2.4,MacIntel,59.84082341,613e72b49567f3e1d92b2ff5,64e63663dbcaf322d2eec8da,64e702cc52f22cf9bc8bc95d,,,,,,,ctch,resources/DBN.BMP,resources/DR.BMP,Door2,-0.37234809,0.011883681,1,0,0,0.9462,optionLeft,20,1895,1,35,0,35,0,1,,,,,,,,,,,,,,,,,,,,,,,,,,,,,,,,,,,,,,,
,,,,,,,,2023-08-24_08h12.53.173,HF_wild_card,2022.2.4,MacIntel,59.84082341,613e72b49567f3e1d92b2ff5,64e63663dbcaf322d2eec8da,64e702cc52f22cf9bc8bc95d,,,,,,,decisionTrl,resources/DP.BMP,resources/DBN.BMP,Door2,0.409418403,0.051380208,1,0,0,1.0826,optionRight,40,1935,1,36,0,36,0,1,,,,,,,,,,,,,,,,,,,,,,,,,,,,,,,,,,,,,,,
,,,,,,,,2023-08-24_08h12.53.173,HF_wild_card,2022.2.4,MacIntel,59.84082341,613e72b49567f3e1d92b2ff5,64e63663dbcaf322d2eec8da,64e702cc52f22cf9bc8bc95d,,,,,,,ctch,resources/DBN.BMP,resources/DR.BMP,Door2,-0.369162326,0.019487847,1,0,0,1.1305,optionLeft,20,1955,1,37,0,37,0,1,,,,,,,,,,,,,,,,,,,,,,,,,,,,,,,,,,,,,,,
,,,,,,,,2023-08-24_08h12.53.173,HF_wild_card,2022.2.4,MacIntel,59.84082341,613e72b49567f3e1d92b2ff5,64e63663dbcaf322d2eec8da,64e702cc52f22cf9bc8bc95d,,,,,,,decisionTrl,resources/DP.BMP,resources/DBN.BMP,Door2,0.403789063,0.043355035,1,0,0,1.1824,optionRight,40,1995,1,38,0,38,0,1,,,,,,,,,,,,,,,,,,,,,,,,,,,,,,,,,,,,,,,
,,,,,,,,2023-08-24_08h12.53.173,HF_wild_card,2022.2.4,MacIntel,59.84082341,613e72b49567f3e1d92b2ff5,64e63663dbcaf322d2eec8da,64e702cc52f22cf9bc8bc95d,,,,,,,decisionTrl,resources/DY.BMP,resources/DBN.BMP,Door2,0.375915799,0.051844618,1,0,0,2.3002,optionRight,40,2035,1,39,0,39,0,1,,,,,,,,,,,,,,,,,,,,,,,,,,,,,,,,,,,,,,,
,,,,,,,,2023-08-24_08h12.53.173,HF_wild_card,2022.2.4,MacIntel,59.84082341,613e72b49567f3e1d92b2ff5,64e63663dbcaf322d2eec8da,64e702cc52f22cf9bc8bc95d,,,,,,,ctch,resources/DB.BMP,resources/DP.BMP,Door4,-0.383250868,0.012881944,1,0,0,1.6325,optionLeft,80,2115,1,40,0,40,0,1,,,,,,,,,,,,,,,,,,,,,,,,,,,,,,,,,,,,,,,
,,,,,,,,2023-08-24_08h12.53.173,HF_wild_card,2022.2.4,MacIntel,59.84082341,613e72b49567f3e1d92b2ff5,64e63663dbcaf322d2eec8da,64e702cc52f22cf9bc8bc95d,,,,,,,decisionTrl,resources/DB.BMP,resources/DY.BMP,Door4,-0.419639757,0.015633681,1,0,0,1.0664,optionLeft,80,2195,1,41,0,41,0,1,,,,,,,,,,,,,,,,,,,,,,,,,,,,,,,,,,,,,,,
,,,,,,,,2023-08-24_08h12.53.173,HF_wild_card,2022.2.4,MacIntel,59.84082341,613e72b49567f3e1d92b2ff5,64e63663dbcaf322d2eec8da,64e702cc52f22cf9bc8bc95d,,,,,,,ctch,resources/DR.BMP,resources/DBN.BMP,Door2,0.404357639,0.052599826,1,0,0,1.2647,optionRight,20,2215,1,42,0,42,0,1,,,,,,,,,,,,,,,,,,,,,,,,,,,,,,,,,,,,,,,
,,,,,,,,2023-08-24_08h12.53.173,HF_wild_card,2022.2.4,MacIntel,59.84082341,613e72b49567f3e1d92b2ff5,64e63663dbcaf322d2eec8da,64e702cc52f22cf9bc8bc95d,,,,,,,decisionTrl,resources/DY.BMP,resources/DP.BMP,WildCard_NonEx,-0.423914931,0.05672309,1,0,0,2.116,optionLeft,55,2270,1,43,0,43,0,1,,,,,,,,,,,,,,,,,,,,,,,,,,,,,,,,,,,,,,,
,,,,,,,,2023-08-24_08h12.53.173,HF_wild_card,2022.2.4,MacIntel,59.84082341,613e72b49567f3e1d92b2ff5,64e63663dbcaf322d2eec8da,64e702cc52f22cf9bc8bc95d,,,,,,,,,,,,,,,,,,,,,,,,,,0,0,0,0,1,,,,,,,,,,,,,,,,,,,,,,,,,,,,,,,,,,
,,,,,,,,2023-08-24_08h12.53.173,HF_wild_card,2022.2.4,MacIntel,59.84082341,613e72b49567f3e1d92b2ff5,64e63663dbcaf322d2eec8da,64e702cc52f22cf9bc8bc95d,,,,,,,decisionTrl,resources/DY.BMP,resources/DB.BMP,Door4,0.383051215,-0.00078125,1,0,0,1.2273,optionRight,80,2350,2,0,0,0,0,1,,,,,,,,,,,,,,,,,,,,,,,,,,,,,,,,,,,,,,,
,,,,,,,,2023-08-24_08h12.53.173,HF_wild_card,2022.2.4,MacIntel,59.84082341,613e72b49567f3e1d92b2ff5,64e63663dbcaf322d2eec8da,64e702cc52f22cf9bc8bc95d,,,,,,,sngl,resources/Empty.png,resources/DP.BMP,Door1,0.376328125,0.001206597,1,0,0,1.4162,optionRight,30,2380,2,1,0,1,0,1,,,,,,,,,,,,,,,,,,,,,,,,,,,,,,,,,,,,,,,
,,,,,,,,2023-08-24_08h12.53.173,HF_wild_card,2022.2.4,MacIntel,59.84082341,613e72b49567f3e1d92b2ff5,64e63663dbcaf322d2eec8da,64e702cc52f22cf9bc8bc95d,,,,,,,sngl,resources/DB.BMP,resources/Empty.png,Door4,-0.382274306,-0.015490451,1,0,0,0.9317,optionLeft,60,2440,2,2,0,2,0,1,,,,,,,,,,,,,,,,,,,,,,,,,,,,,,,,,,,,,,,
,,,,,,,,2023-08-24_08h12.53.173,HF_wild_card,2022.2.4,MacIntel,59.84082341,613e72b49567f3e1d92b2ff5,64e63663dbcaf322d2eec8da,64e702cc52f22cf9bc8bc95d,,,,,,,decisionTrl,resources/DY.BMP,resources/DBN.BMP,Door2,0.371922743,0.014366319,1,0,0,1.4665,optionRight,40,2480,2,3,0,3,0,1,,,,,,,,,,,,,,,,,,,,,,,,,,,,,,,,,,,,,,,
,,,,,,,,2023-08-24_08h12.53.173,HF_wild_card,2022.2.4,MacIntel,59.84082341,613e72b49567f3e1d92b2ff5,64e63663dbcaf322d2eec8da,64e702cc52f22cf9bc8bc95d,,,,,,,sngl,resources/Empty.png,resources/DBN.BMP,Door2,0.404943576,0.038350694,1,0,0,0.9132,optionRight,40,2520,2,4,0,4,0,1,,,,,,,,,,,,,,,,,,,,,,,,,,,,,,,,,,,,,,,
,,,,,,,,2023-08-24_08h12.53.173,HF_wild_card,2022.2.4,MacIntel,59.84082341,613e72b49567f3e1d92b2ff5,64e63663dbcaf322d2eec8da,64e702cc52f22cf9bc8bc95d,,,,,,,decisionTrl,resources/DBN.BMP,resources/DP.BMP,Door2,-0.398498264,0.049913194,1,0,0,1.349,optionLeft,40,2560,2,5,0,5,0,1,,,,,,,,,,,,,,,,,,,,,,,,,,,,,,,,,,,,,,,
,,,,,,,,2023-08-24_08h12.53.173,HF_wild_card,2022.2.4,MacIntel,59.84082341,613e72b49567f3e1d92b2ff5,64e63663dbcaf322d2eec8da,64e702cc52f22cf9bc8bc95d,,,,,,,decisionTrl,resources/DBN.BMP,resources/DP.BMP,Door2,-0.373897569,0.043554688,1,0,0,1.0794,optionLeft,40,2600,2,6,0,6,0,1,,,,,,,,,,,,,,,,,,,,,,,,,,,,,,,,,,,,,,,
,,,,,,,,2023-08-24_08h12.53.173,HF_wild_card,2022.2.4,MacIntel,59.84082341,613e72b49567f3e1d92b2ff5,64e63663dbcaf322d2eec8da,64e702cc52f22cf9bc8bc95d,,,,,,,decisionTrl,resources/DBN.BMP,resources/DY.BMP,Door2,-0.349487847,0.049270833,1,0,0,1.0155,optionLeft,40,2640,2,7,0,7,0,1,,,,,,,,,,,,,,,,,,,,,,,,,,,,,,,,,,,,,,,
,,,,,,,,2023-08-24_08h12.53.173,HF_wild_card,2022.2.4,MacIntel,59.84082341,613e72b49567f3e1d92b2ff5,64e63663dbcaf322d2eec8da,64e702cc52f22cf9bc8bc95d,,,,,,,ctch,resources/DBN.BMP,resources/DR.BMP,Door2,-0.405703125,0.052434896,1,0,0,1.0298,optionLeft,40,2680,2,8,0,8,0,1,,,,,,,,,,,,,,,,,,,,,,,,,,,,,,,,,,,,,,,
,,,,,,,,2023-08-24_08h12.53.173,HF_wild_card,2022.2.4,MacIntel,59.84082341,613e72b49567f3e1d92b2ff5,64e63663dbcaf322d2eec8da,64e702cc52f22cf9bc8bc95d,,,,,,,sngl,resources/DR.BMP,resources/Empty.png,Door3,-0.33030816,0.005985243,1,0,0,1.181,optionLeft,70,2750,2,9,0,9,0,1,,,,,,,,,,,,,,,,,,,,,,,,,,,,,,,,,,,,,,,
,,,,,,,,2023-08-24_08h12.53.173,HF_wild_card,2022.2.4,MacIntel,59.84082341,613e72b49567f3e1d92b2ff5,64e63663dbcaf322d2eec8da,64e702cc52f22cf9bc8bc95d,,,,,,,decisionTrl,resources/DR.BMP,resources/DY.BMP,Door3,-0.425394965,0.011814236,1,0,0,1.6485,optionLeft,70,2820,2,10,0,10,0,1,,,,,,,,,,,,,,,,,,,,,,,,,,,,,,,,,,,,,,,
,,,,,,,,2023-08-24_08h12.53.173,HF_wild_card,2022.2.4,MacIntel,59.84082341,613e72b49567f3e1d92b2ff5,64e63663dbcaf322d2eec8da,64e702cc52f22cf9bc8bc95d,,,,,,,decisionTrl,resources/DB.BMP,resources/DR.BMP,Door3,0.409487847,0.008958333,1,0,0,1.0395,optionRight,70,2890,2,11,0,11,0,1,,,,,,,,,,,,,,,,,,,,,,,,,,,,,,,,,,,,,,,
,,,,,,,,2023-08-24_08h12.53.173,HF_wild_card,2022.2.4,MacIntel,59.84082341,613e72b49567f3e1d92b2ff5,64e63663dbcaf322d2eec8da,64e702cc52f22cf9bc8bc95d,,,,,,,decisionTrl,resources/DP.BMP,resources/DBN.BMP,Door1,-0.362621528,-0.011024306,1,0,0,1.5672,optionLeft,30,2920,2,12,0,12,0,1,,,,,,,,,,,,,,,,,,,,,,,,,,,,,,,,,,,,,,,
,,,,,,,,2023-08-24_08h12.53.173,HF_wild_card,2022.2.4,MacIntel,59.84082341,613e72b49567f3e1d92b2ff5,64e63663dbcaf322d2eec8da,64e702cc52f22cf9bc8bc95d,,,,,,,ctch,resources/DP.BMP,resources/DB.BMP,Door4,0.399513889,0.001575521,1,0,0,0.9813,optionRight,60,2980,2,13,0,13,0,1,,,,,,,,,,,,,,,,,,,,,,,,,,,,,,,,,,,,,,,
,,,,,,,,2023-08-24_08h12.53.173,HF_wild_card,2022.2.4,MacIntel,59.84082341,613e72b49567f3e1d92b2ff5,64e63663dbcaf322d2eec8da,64e702cc52f22cf9bc8bc95d,,,,,,,ctch,resources/DB.BMP,resources/DP.BMP,Door4,-0.348311632,-0.016753472,1,0,0,1.0302,optionLeft,80,3060,2,14,0,14,0,1,,,,,,,,,,,,,,,,,,,,,,,,,,,,,,,,,,,,,,,
,,,,,,,,2023-08-24_08h12.53.173,HF_wild_card,2022.2.4,MacIntel,59.84082341,613e72b49567f3e1d92b2ff5,64e63663dbcaf322d2eec8da,64e702cc52f22cf9bc8bc95d,,,,,,,ctch,resources/DP.BMP,resources/DB.BMP,Door4,0.345368924,0.008502604,1,0,0,0.9149,optionRight,60,3120,2,15,0,15,0,1,,,,,,,,,,,,,,,,,,,,,,,,,,,,,,,,,,,,,,,
,,,,,,,,2023-08-24_08h12.53.173,HF_wild_card,2022.2.4,MacIntel,59.84082341,613e72b49567f3e1d92b2ff5,64e63663dbcaf322d2eec8da,64e702cc52f22cf9bc8bc95d,,,,,,,decisionTrl,resources/DR.BMP,resources/DB.BMP,Door4,0.475451389,0.033168403,1,0,0,1.0813,optionRight,60,3180,2,16,0,16,0,1,,,,,,,,,,,,,,,,,,,,,,,,,,,,,,,,,,,,,,,
,,,,,,,,2023-08-24_08h12.53.173,HF_wild_card,2022.2.4,MacIntel,59.84082341,613e72b49567f3e1d92b2ff5,64e63663dbcaf322d2eec8da,64e702cc52f22cf9bc8bc95d,,,,,,,decisionTrl,resources/DB.BMP,resources/DR.BMP,Door4,-0.379704861,0.000533854,1,0,0,1.0803,optionLeft,60,3240,2,17,0,17,0,1,,,,,,,,,,,,,,,,,,,,,,,,,,,,,,,,,,,,,,,
,,,,,,,,2023-08-24_08h12.53.173,HF_wild_card,2022.2.4,MacIntel,59.84082341,613e72b49567f3e1d92b2ff5,64e63663dbcaf322d2eec8da,64e702cc52f22cf9bc8bc95d,,,,,,,decisionTrl,resources/DB.BMP,resources/DY.BMP,Door4,-0.393776042,0.021684028,1,0,0,1.3148,optionLeft,60,3300,2,18,0,18,0,1,,,,,,,,,,,,,,,,,,,,,,,,,,,,,,,,,,,,,,,
,,,,,,,,2023-08-24_08h12.53.173,HF_wild_card,2022.2.4,MacIntel,59.84082341,613e72b49567f3e1d92b2ff5,64e63663dbcaf322d2eec8da,64e702cc52f22cf9bc8bc95d,,,,,,,decisionTrl,resources/DBN.BMP,resources/DP.BMP,Door2,-0.41734375,0.00687066,1,0,0,2.2855,optionLeft,40,3340,2,19,0,19,0,1,,,,,,,,,,,,,,,,,,,,,,,,,,,,,,,,,,,,,,,
,,,,,,,,2023-08-24_08h12.53.173,HF_wild_card,2022.2.4,MacIntel,59.84082341,613e72b49567f3e1d92b2ff5,64e63663dbcaf322d2eec8da,64e702cc52f22cf9bc8bc95d,,,,,,,decisionTrl,resources/DP.BMP,resources/DBN.BMP,Door2,0.408524306,0.032326389,1,0,0,0.9691,optionRight,20,3360,2,20,0,20,0,1,,,,,,,,,,,,,,,,,,,,,,,,,,,,,,,,,,,,,,,
,,,,,,,,2023-08-24_08h12.53.173,HF_wild_card,2022.2.4,MacIntel,59.84082341,613e72b49567f3e1d92b2ff5,64e63663dbcaf322d2eec8da,64e702cc52f22cf9bc8bc95d,,,,,,,decisionTrl,resources/DP.BMP,resources/DY.BMP,WildCard_NonEx,0.369227431,0.001809896,1,0,0,1.5995,optionRight,45,3405,2,21,0,21,0,1,,,,,,,,,,,,,,,,,,,,,,,,,,,,,,,,,,,,,,,
,,,,,,,,2023-08-24_08h12.53.173,HF_wild_card,2022.2.4,MacIntel,59.84082341,613e72b49567f3e1d92b2ff5,64e63663dbcaf322d2eec8da,64e702cc52f22cf9bc8bc95d,,,,,,,sngl,resources/Empty.png,resources/DY.BMP,WildCard_NonEx,0.400798611,0.029500868,1,0,0,1.3139,optionRight,45,3450,2,22,0,22,0,1,,,,,,,,,,,,,,,,,,,,,,,,,,,,,,,,,,,,,,,
,,,,,,,,2023-08-24_08h12.53.173,HF_wild_card,2022.2.4,MacIntel,59.84082341,613e72b49567f3e1d92b2ff5,64e63663dbcaf322d2eec8da,64e702cc52f22cf9bc8bc95d,,,,,,,decisionTrl,resources/DR.BMP,resources/DB.BMP,Door4,0.369383681,0.037842882,1,0,0,1.2826,optionRight,60,3510,2,23,0,23,0,1,,,,,,,,,,,,,,,,,,,,,,,,,,,,,,,,,,,,,,,
,,,,,,,,2023-08-24_08h12.53.173,HF_wild_card,2022.2.4,MacIntel,59.84082341,613e72b49567f3e1d92b2ff5,64e63663dbcaf322d2eec8da,64e702cc52f22cf9bc8bc95d,,,,,,,ctch,resources/DBN.BMP,resources/DR.BMP,Door2,-0.372743056,0.016132812,1,0,0,1.1313,optionLeft,20,3530,2,24,0,24,0,1,,,,,,,,,,,,,,,,,,,,,,,,,,,,,,,,,,,,,,,
,,,,,,,,2023-08-24_08h12.53.173,HF_wild_card,2022.2.4,MacIntel,59.84082341,613e72b49567f3e1d92b2ff5,64e63663dbcaf322d2eec8da,64e702cc52f22cf9bc8bc95d,,,,,,,sngl,resources/DY.BMP,resources/Empty.png,WildCard_NonEx,-0.396015625,0.012230903,1,0,0,1.0815,optionLeft,45,3575,2,25,0,25,0,1,,,,,,,,,,,,,,,,,,,,,,,,,,,,,,,,,,,,,,,
,,,,,,,,2023-08-24_08h12.53.173,HF_wild_card,2022.2.4,MacIntel,59.84082341,613e72b49567f3e1d92b2ff5,64e63663dbcaf322d2eec8da,64e702cc52f22cf9bc8bc95d,,,,,,,ctch,resources/DR.BMP,resources/DBN.BMP,Door3,-0.379561632,0.007070313,1,0,0,1.582,optionLeft,70,3645,2,26,0,26,0,1,,,,,,,,,,,,,,,,,,,,,,,,,,,,,,,,,,,,,,,
,,,,,,,,2023-08-24_08h12.53.173,HF_wild_card,2022.2.4,MacIntel,59.84082341,613e72b49567f3e1d92b2ff5,64e63663dbcaf322d2eec8da,64e702cc52f22cf9bc8bc95d,,,,,,,decisionTrl,resources/DP.BMP,resources/DBN.BMP,Door2,0.424787326,0.065481771,1,0,0,2.6021,optionRight,40,3685,2,27,0,27,0,1,,,,,,,,,,,,,,,,,,,,,,,,,,,,,,,,,,,,,,,
,,,,,,,,2023-08-24_08h12.53.173,HF_wild_card,2022.2.4,MacIntel,59.84082341,613e72b49567f3e1d92b2ff5,64e63663dbcaf322d2eec8da,64e702cc52f22cf9bc8bc95d,,,,,,,decisionTrl,resources/DB.BMP,resources/DR.BMP,Door3,0.410438368,0.031805556,1,0,0,3.1549,optionRight,70,3755,2,28,0,28,0,1,,,,,,,,,,,,,,,,,,,,,,,,,,,,,,,,,,,,,,,
,,,,,,,,2023-08-24_08h12.53.173,HF_wild_card,2022.2.4,MacIntel,59.84082341,613e72b49567f3e1d92b2ff5,64e63663dbcaf322d2eec8da,64e702cc52f22cf9bc8bc95d,,,,,,,decisionTrl,resources/DR.BMP,resources/DB.BMP,Door3,-0.452248264,-0.002834201,1,0,0,1.1163,optionLeft,70,3825,2,29,0,29,0,1,,,,,,,,,,,,,,,,,,,,,,,,,,,,,,,,,,,,,,,
,,,,,,,,2023-08-24_08h12.53.173,HF_wild_card,2022.2.4,MacIntel,59.84082341,613e72b49567f3e1d92b2ff5,64e63663dbcaf322d2eec8da,64e702cc52f22cf9bc8bc95d,,,,,,,sngl,resources/DBN.BMP,resources/Empty.png,Door2,-0.357751736,0.041979167,1,0,0,1.2314,optionLeft,20,3845,2,30,0,30,0,1,,,,,,,,,,,,,,,,,,,,,,,,,,,,,,,,,,,,,,,
,,,,,,,,2023-08-24_08h12.53.173,HF_wild_card,2022.2.4,MacIntel,59.84082341,613e72b49567f3e1d92b2ff5,64e63663dbcaf322d2eec8da,64e702cc52f22cf9bc8bc95d,,,,,,,decisionTrl,resources/DB.BMP,resources/DR.BMP,Door3,0.387842882,0.006024306,1,0,0,1.2998,optionRight,70,3915,2,31,0,31,0,1,,,,,,,,,,,,,,,,,,,,,,,,,,,,,,,,,,,,,,,
,,,,,,,,2023-08-24_08h12.53.173,HF_wild_card,2022.2.4,MacIntel,59.84082341,613e72b49567f3e1d92b2ff5,64e63663dbcaf322d2eec8da,64e702cc52f22cf9bc8bc95d,,,,,,,decisionTrl,resources/DBN.BMP,resources/DP.BMP,Door1,0.408042535,0.016267361,1,0,0,1.5488,optionRight,30,3945,2,32,0,32,0,1,,,,,,,,,,,,,,,,,,,,,,,,,,,,,,,,,,,,,,,
,,,,,,,,2023-08-24_08h12.53.173,HF_wild_card,2022.2.4,MacIntel,59.84082341,613e72b49567f3e1d92b2ff5,64e63663dbcaf322d2eec8da,64e702cc52f22cf9bc8bc95d,,,,,,,decisionTrl,resources/DR.BMP,resources/DB.BMP,Door3,-0.372135417,0.023980035,1,0,0,1.6491,optionLeft,70,4015,2,33,0,33,0,1,,,,,,,,,,,,,,,,,,,,,,,,,,,,,,,,,,,,,,,
,,,,,,,,2023-08-24_08h12.53.173,HF_wild_card,2022.2.4,MacIntel,59.84082341,613e72b49567f3e1d92b2ff5,64e63663dbcaf322d2eec8da,64e702cc52f22cf9bc8bc95d,,,,,,,sngl,resources/Empty.png,resources/DR.BMP,Door3,0.397664931,0.016584201,1,0,0,1.114,optionRight,70,4085,2,34,0,34,0,1,,,,,,,,,,,,,,,,,,,,,,,,,,,,,,,,,,,,,,,
,,,,,,,,2023-08-24_08h12.53.173,HF_wild_card,2022.2.4,MacIntel,59.84082341,613e72b49567f3e1d92b2ff5,64e63663dbcaf322d2eec8da,64e702cc52f22cf9bc8bc95d,,,,,,,decisionTrl,resources/DY.BMP,resources/DR.BMP,Door3,0.3925,0.01484375,1,0,0,1.8667,optionRight,70,4155,2,35,0,35,0,1,,,,,,,,,,,,,,,,,,,,,,,,,,,,,,,,,,,,,,,
,,,,,,,,2023-08-24_08h12.53.173,HF_wild_card,2022.2.4,MacIntel,59.84082341,613e72b49567f3e1d92b2ff5,64e63663dbcaf322d2eec8da,64e702cc52f22cf9bc8bc95d,,,,,,,sngl,resources/DP.BMP,resources/Empty.png,Door1,-0.418415799,0.018967014,1,0,0,1.3133,optionLeft,30,4185,2,36,0,36,0,1,,,,,,,,,,,,,,,,,,,,,,,,,,,,,,,,,,,,,,,
,,,,,,,,2023-08-24_08h12.53.173,HF_wild_card,2022.2.4,MacIntel,59.84082341,613e72b49567f3e1d92b2ff5,64e63663dbcaf322d2eec8da,64e702cc52f22cf9bc8bc95d,,,,,,,ctch,resources/DB.BMP,resources/DP.BMP,Door4,-0.397291667,-0.004487847,1,0,0,2.8038,optionLeft,60,4245,2,37,0,37,0,1,,,,,,,,,,,,,,,,,,,,,,,,,,,,,,,,,,,,,,,
,,,,,,,,2023-08-24_08h12.53.173,HF_wild_card,2022.2.4,MacIntel,59.84082341,613e72b49567f3e1d92b2ff5,64e63663dbcaf322d2eec8da,64e702cc52f22cf9bc8bc95d,,,,,,,decisionTrl,resources/DP.BMP,resources/DBN.BMP,Door2,0.449913194,0.047434896,1,0,0,1.8341,optionRight,40,4285,2,38,0,38,0,1,,,,,,,,,,,,,,,,,,,,,,,,,,,,,,,,,,,,,,,
,,,,,,,,2023-08-24_08h12.53.173,HF_wild_card,2022.2.4,MacIntel,59.84082341,613e72b49567f3e1d92b2ff5,64e63663dbcaf322d2eec8da,64e702cc52f22cf9bc8bc95d,,,,,,,sngl,resources/Empty.png,resources/DY.BMP,WildCard_NonEx,0.407144097,0.063663194,1,0,0,1.0826,optionRight,55,4340,2,39,0,39,0,1,,,,,,,,,,,,,,,,,,,,,,,,,,,,,,,,,,,,,,,
,,,,,,,,2023-08-24_08h12.53.173,HF_wild_card,2022.2.4,MacIntel,59.84082341,613e72b49567f3e1d92b2ff5,64e63663dbcaf322d2eec8da,64e702cc52f22cf9bc8bc95d,,,,,,,decisionTrl,resources/DY.BMP,resources/DP.BMP,WildCard_NonEx,-0.355898437,0.010368924,1,0,0,1.4833,optionLeft,55,4395,2,40,0,40,0,1,,,,,,,,,,,,,,,,,,,,,,,,,,,,,,,,,,,,,,,
,,,,,,,,2023-08-24_08h12.53.173,HF_wild_card,2022.2.4,MacIntel,59.84082341,613e72b49567f3e1d92b2ff5,64e63663dbcaf322d2eec8da,64e702cc52f22cf9bc8bc95d,,,,,,,ctch,resources/DR.BMP,resources/DBN.BMP,Door3,-0.45874566,-0.000872396,1,0,0,1.2824,optionLeft,70,4465,2,41,0,41,0,1,,,,,,,,,,,,,,,,,,,,,,,,,,,,,,,,,,,,,,,
,,,,,,,,2023-08-24_08h12.53.173,HF_wild_card,2022.2.4,MacIntel,59.84082341,613e72b49567f3e1d92b2ff5,64e63663dbcaf322d2eec8da,64e702cc52f22cf9bc8bc95d,,,,,,,sngl,resources/DY.BMP,resources/Empty.png,WildCard_NonEx,-0.366579861,0.021223958,1,0,0,1.0975,optionLeft,55,4520,2,42,0,42,0,1,,,,,,,,,,,,,,,,,,,,,,,,,,,,,,,,,,,,,,,
,,,,,,,,2023-08-24_08h12.53.173,HF_wild_card,2022.2.4,MacIntel,59.84082341,613e72b49567f3e1d92b2ff5,64e63663dbcaf322d2eec8da,64e702cc52f22cf9bc8bc95d,,,,,,,sngl,resources/Empty.png,resources/DB.BMP,Door4,0.365577257,-0.001336806,1,0,0,1.1633,optionRight,80,4600,2,43,0,43,0,1,,,,,,,,,,,,,,,,,,,,,,,,,,,,,,,,,,,,,,,
,,,,,,,,2023-08-24_08h12.53.173,HF_wild_card,2022.2.4,MacIntel,59.84082341,613e72b49567f3e1d92b2ff5,64e63663dbcaf322d2eec8da,64e702cc52f22cf9bc8bc95d,,,,,,,,,,,,,,,,,,,,,,,,,,1,0,1,0,1,,,,,,,,,,,,,,,,,,,,,,,,,,,,,,,,,,
,,,,,,,,2023-08-24_08h12.53.173,HF_wild_card,2022.2.4,MacIntel,59.84082341,613e72b49567f3e1d92b2ff5,64e63663dbcaf322d2eec8da,64e702cc52f22cf9bc8bc95d,,,,,,,decisionTrl,resources/DB.BMP,resources/DR.BMP,Door4,-0.401206597,-0.011041667,1,0,0,1.7758,optionLeft,80,4680,3,0,0,0,0,1,,,,,,,,,,,,,,,,,,,,,,,,,,,,,,,,,,,,,,,
,,,,,,,,2023-08-24_08h12.53.173,HF_wild_card,2022.2.4,MacIntel,59.84082341,613e72b49567f3e1d92b2ff5,64e63663dbcaf322d2eec8da,64e702cc52f22cf9bc8bc95d,,,,,,,decisionTrl,resources/DB.BMP,resources/DY.BMP,Door4,-0.388532986,0.014917535,1,0,0,1.2808,optionLeft,80,4760,3,1,0,1,0,1,,,,,,,,,,,,,,,,,,,,,,,,,,,,,,,,,,,,,,,
,,,,,,,,2023-08-24_08h12.53.173,HF_wild_card,2022.2.4,MacIntel,59.84082341,613e72b49567f3e1d92b2ff5,64e63663dbcaf322d2eec8da,64e702cc52f22cf9bc8bc95d,,,,,,,decisionTrl,resources/DB.BMP,resources/DR.BMP,Door4,-0.373064236,0.021649306,1,0,0,1.1649,optionLeft,60,4820,3,2,0,2,0,1,,,,,,,,,,,,,,,,,,,,,,,,,,,,,,,,,,,,,,,
,,,,,,,,2023-08-24_08h12.53.173,HF_wild_card,2022.2.4,MacIntel,59.84082341,613e72b49567f3e1d92b2ff5,64e63663dbcaf322d2eec8da,64e702cc52f22cf9bc8bc95d,,,,,,,decisionTrl,resources/DB.BMP,resources/DR.BMP,Door4,-0.349739583,0.010859375,1,0,0,1.0488,optionLeft,80,4900,3,3,0,3,0,1,,,,,,,,,,,,,,,,,,,,,,,,,,,,,,,,,,,,,,,
,,,,,,,,2023-08-24_08h12.53.173,HF_wild_card,2022.2.4,MacIntel,59.84082341,613e72b49567f3e1d92b2ff5,64e63663dbcaf322d2eec8da,64e702cc52f22cf9bc8bc95d,,,,,,,decisionTrl,resources/DR.BMP,resources/DB.BMP,Door4,0.478012153,0.042126736,1,0,0,1.0484,optionRight,80,4980,3,4,0,4,0,1,,,,,,,,,,,,,,,,,,,,,,,,,,,,,,,,,,,,,,,
,,,,,,,,2023-08-24_08h12.53.173,HF_wild_card,2022.2.4,MacIntel,59.84082341,613e72b49567f3e1d92b2ff5,64e63663dbcaf322d2eec8da,64e702cc52f22cf9bc8bc95d,,,,,,,sngl,resources/DB.BMP,resources/Empty.png,Door4,-0.364448785,0.016119792,1,0,0,1.0172,optionLeft,80,5060,3,5,0,5,0,1,,,,,,,,,,,,,,,,,,,,,,,,,,,,,,,,,,,,,,,
,,,,,,,,2023-08-24_08h12.53.173,HF_wild_card,2022.2.4,MacIntel,59.84082341,613e72b49567f3e1d92b2ff5,64e63663dbcaf322d2eec8da,64e702cc52f22cf9bc8bc95d,,,,,,,decisionTrl,resources/DR.BMP,resources/DY.BMP,Door3,-0.416384549,0.024557292,1,0,0,2.3851,optionLeft,70,5130,3,6,0,6,0,1,,,,,,,,,,,,,,,,,,,,,,,,,,,,,,,,,,,,,,,
,,,,,,,,2023-08-24_08h12.53.173,HF_wild_card,2022.2.4,MacIntel,59.84082341,613e72b49567f3e1d92b2ff5,64e63663dbcaf322d2eec8da,64e702cc52f22cf9bc8bc95d,,,,,,,decisionTrl,resources/DP.BMP,resources/DBN.BMP,Door2,0.407013889,0.064270833,1,0,0,2.1506,optionRight,40,5170,3,7,0,7,0,1,,,,,,,,,,,,,,,,,,,,,,,,,,,,,,,,,,,,,,,
,,,,,,,,2023-08-24_08h12.53.173,HF_wild_card,2022.2.4,MacIntel,59.84082341,613e72b49567f3e1d92b2ff5,64e63663dbcaf322d2eec8da,64e702cc52f22cf9bc8bc95d,,,,,,,decisionTrl,resources/DB.BMP,resources/DR.BMP,Door4,-0.392131076,0.026805556,1,0,0,1.2807,optionLeft,60,5230,3,8,0,8,0,1,,,,,,,,,,,,,,,,,,,,,,,,,,,,,,,,,,,,,,,
,,,,,,,,2023-08-24_08h12.53.173,HF_wild_card,2022.2.4,MacIntel,59.84082341,613e72b49567f3e1d92b2ff5,64e63663dbcaf322d2eec8da,64e702cc52f22cf9bc8bc95d,,,,,,,ctch,resources/DR.BMP,resources/DBN.BMP,Door2,0.418776042,0.075013021,1,0,0,1.5472,optionRight,20,5250,3,9,0,9,0,1,,,,,,,,,,,,,,,,,,,,,,,,,,,,,,,,,,,,,,,
,,,,,,,,2023-08-24_08h12.53.173,HF_wild_card,2022.2.4,MacIntel,59.84082341,613e72b49567f3e1d92b2ff5,64e63663dbcaf322d2eec8da,64e702cc52f22cf9bc8bc95d,,,,,,,ctch,resources/DR.BMP,resources/DBN.BMP,Door3,-0.384778646,0.025516493,1,0,0,1.0801,optionLeft,70,5320,3,10,0,10,0,1,,,,,,,,,,,,,,,,,,,,,,,,,,,,,,,,,,,,,,,
,,,,,,,,2023-08-24_08h12.53.173,HF_wild_card,2022.2.4,MacIntel,59.84082341,613e72b49567f3e1d92b2ff5,64e63663dbcaf322d2eec8da,64e702cc52f22cf9bc8bc95d,,,,,,,sngl,resources/Empty.png,resources/DBN.BMP,Door2,0.342647569,0.019283854,1,0,0,1.2324,optionRight,20,5340,3,11,0,11,0,1,,,,,,,,,,,,,,,,,,,,,,,,,,,,,,,,,,,,,,,
,,,,,,,,2023-08-24_08h12.53.173,HF_wild_card,2022.2.4,MacIntel,59.84082341,613e72b49567f3e1d92b2ff5,64e63663dbcaf322d2eec8da,64e702cc52f22cf9bc8bc95d,,,,,,,decisionTrl,resources/DP.BMP,resources/DBN.BMP,Door2,0.40749566,0.072152778,1,0,0,3.5382,optionRight,20,5360,3,12,0,12,0,1,,,,,,,,,,,,,,,,,,,,,,,,,,,,,,,,,,,,,,,
,,,,,,,,2023-08-24_08h12.53.173,HF_wild_card,2022.2.4,MacIntel,59.84082341,613e72b49567f3e1d92b2ff5,64e63663dbcaf322d2eec8da,64e702cc52f22cf9bc8bc95d,,,,,,,sngl,resources/Empty.png,resources/DB.BMP,Door4,0.428168403,0.041883681,1,0,0,0.9473,optionRight,60,5420,3,13,0,13,0,1,,,,,,,,,,,,,,,,,,,,,,,,,,,,,,,,,,,,,,,
,,,,,,,,2023-08-24_08h12.53.173,HF_wild_card,2022.2.4,MacIntel,59.84082341,613e72b49567f3e1d92b2ff5,64e63663dbcaf322d2eec8da,64e702cc52f22cf9bc8bc95d,,,,,,,ctch,resources/DP.BMP,resources/DB.BMP,Door4,0.377465278,0.007491319,1,0,0,1.3981,optionRight,80,5500,3,14,0,14,0,1,,,,,,,,,,,,,,,,,,,,,,,,,,,,,,,,,,,,,,,
,,,,,,,,2023-08-24_08h12.53.173,HF_wild_card,2022.2.4,MacIntel,59.84082341,613e72b49567f3e1d92b2ff5,64e63663dbcaf322d2eec8da,64e702cc52f22cf9bc8bc95d,,,,,,,decisionTrl,resources/DBN.BMP,resources/DP.BMP,Door1,0.406970486,0.012131076,1,0,0,1.3172,optionRight,30,5530,3,15,0,15,0,1,,,,,,,,,,,,,,,,,,,,,,,,,,,,,,,,,,,,,,,
,,,,,,,,2023-08-24_08h12.53.173,HF_wild_card,2022.2.4,MacIntel,59.84082341,613e72b49567f3e1d92b2ff5,64e63663dbcaf322d2eec8da,64e702cc52f22cf9bc8bc95d,,,,,,,decisionTrl,resources/DP.BMP,resources/DBN.BMP,Door2,0.411171875,0.080625,1,0,0,1.7497,optionRight,40,5570,3,16,0,16,0,1,,,,,,,,,,,,,,,,,,,,,,,,,,,,,,,,,,,,,,,
,,,,,,,,2023-08-24_08h12.53.173,HF_wild_card,2022.2.4,MacIntel,59.84082341,613e72b49567f3e1d92b2ff5,64e63663dbcaf322d2eec8da,64e702cc52f22cf9bc8bc95d,,,,,,,decisionTrl,resources/DBN.BMP,resources/DY.BMP,Door2,-0.377239583,0.097855903,1,0,0,3.1869,optionLeft,40,5610,3,17,0,17,0,1,,,,,,,,,,,,,,,,,,,,,,,,,,,,,,,,,,,,,,,
,,,,,,,,2023-08-24_08h12.53.173,HF_wild_card,2022.2.4,MacIntel,59.84082341,613e72b49567f3e1d92b2ff5,64e63663dbcaf322d2eec8da,64e702cc52f22cf9bc8bc95d,,,,,,,decisionTrl,resources/DY.BMP,resources/DP.BMP,WildCard_NonEx,-0.405490451,0.032052951,1,0,0,1.5313,optionLeft,55,5665,3,18,0,18,0,1,,,,,,,,,,,,,,,,,,,,,,,,,,,,,,,,,,,,,,,
,,,,,,,,2023-08-24_08h12.53.173,HF_wild_card,2022.2.4,MacIntel,59.84082341,613e72b49567f3e1d92b2ff5,64e63663dbcaf322d2eec8da,64e702cc52f22cf9bc8bc95d,,,,,,,ctch,resources/DBN.BMP,resources/DR.BMP,Door3,0.379539931,0.026671007,1,0,0,1.2656,optionRight,70,5735,3,19,0,19,0,1,,,,,,,,,,,,,,,,,,,,,,,,,,,,,,,,,,,,,,,
,,,,,,,,2023-08-24_08h12.53.173,HF_wild_card,2022.2.4,MacIntel,59.84082341,613e72b49567f3e1d92b2ff5,64e63663dbcaf322d2eec8da,64e702cc52f22cf9bc8bc95d,,,,,,,ctch,resources/DBN.BMP,resources/DR.BMP,Door3,0.401749132,0.046128472,1,0,0,0.9967,optionRight,70,5805,3,20,0,20,0,1,,,,,,,,,,,,,,,,,,,,,,,,,,,,,,,,,,,,,,,
,,,,,,,,2023-08-24_08h12.53.173,HF_wild_card,2022.2.4,MacIntel,59.84082341,613e72b49567f3e1d92b2ff5,64e63663dbcaf322d2eec8da,64e702cc52f22cf9bc8bc95d,,,,,,,decisionTrl,resources/DY.BMP,resources/DBN.BMP,Door2,0.367795139,0.046788194,1,0,0,2.3029,optionRight,40,5845,3,21,0,21,0,1,,,,,,,,,,,,,,,,,,,,,,,,,,,,,,,,,,,,,,,
,,,,,,,,2023-08-24_08h12.53.173,HF_wild_card,2022.2.4,MacIntel,59.84082341,613e72b49567f3e1d92b2ff5,64e63663dbcaf322d2eec8da,64e702cc52f22cf9bc8bc95d,,,,,,,sngl,resources/Empty.png,resources/DR.BMP,Door3,0.358407118,0.047530382,1,0,0,1.1817,optionRight,70,5915,3,22,0,22,0,1,,,,,,,,,,,,,,,,,,,,,,,,,,,,,,,,,,,,,,,
,,,,,,,,2023-08-24_08h12.53.173,HF_wild_card,2022.2.4,MacIntel,59.84082341,613e72b49567f3e1d92b2ff5,64e63663dbcaf322d2eec8da,64e702cc52f22cf9bc8bc95d,,,,,,,ctch,resources/DP.BMP,resources/DB.BMP,Door4,0.376844618,0.040967882,1,0,0,1.3131,optionRight,80,5995,3,23,0,23,0,1,,,,,,,,,,,,,,,,,,,,,,,,,,,,,,,,,,,,,,,
,,,,,,,,2023-08-24_08h12.53.173,HF_wild_card,2022.2.4,MacIntel,59.84082341,613e72b49567f3e1d92b2ff5,64e63663dbcaf322d2eec8da,64e702cc52f22cf9bc8bc95d,,,,,,,sngl,resources/Empty.png,resources/DY.BMP,WildCard_NonEx,0.371414931,0.050677083,1,0,0,1.1639,optionRight,45,6040,3,24,0,24,0,1,,,,,,,,,,,,,,,,,,,,,,,,,,,,,,,,,,,,,,,
,,,,,,,,2023-08-24_08h12.53.173,HF_wild_card,2022.2.4,MacIntel,59.84082341,613e72b49567f3e1d92b2ff5,64e63663dbcaf322d2eec8da,64e702cc52f22cf9bc8bc95d,,,,,,,ctch,resources/DB.BMP,resources/DP.BMP,Door4,-0.319887153,0.025859375,1,0,0,1.216,optionLeft,80,6120,3,25,0,25,0,1,,,,,,,,,,,,,,,,,,,,,,,,,,,,,,,,,,,,,,,
,,,,,,,,2023-08-24_08h12.53.173,HF_wild_card,2022.2.4,MacIntel,59.84082341,613e72b49567f3e1d92b2ff5,64e63663dbcaf322d2eec8da,64e702cc52f22cf9bc8bc95d,,,,,,,ctch,resources/DB.BMP,resources/DP.BMP,Door4,-0.429982639,0.016302083,1,0,0,0.8475,optionLeft,80,6200,3,26,0,26,0,1,,,,,,,,,,,,,,,,,,,,,,,,,,,,,,,,,,,,,,,
,,,,,,,,2023-08-24_08h12.53.173,HF_wild_card,2022.2.4,MacIntel,59.84082341,613e72b49567f3e1d92b2ff5,64e63663dbcaf322d2eec8da,64e702cc52f22cf9bc8bc95d,,,,,,,decisionTrl,resources/DBN.BMP,resources/DP.BMP,Door2,-0.371189236,0.068111979,1,0,0,1.8002,optionLeft,40,6240,3,27,0,27,0,1,,,,,,,,,,,,,,,,,,,,,,,,,,,,,,,,,,,,,,,
,,,,,,,,2023-08-24_08h12.53.173,HF_wild_card,2022.2.4,MacIntel,59.84082341,613e72b49567f3e1d92b2ff5,64e63663dbcaf322d2eec8da,64e702cc52f22cf9bc8bc95d,,,,,,,sngl,resources/DY.BMP,resources/Empty.png,WildCard_NonEx,-0.359257812,0.01390191,1,0,0,1.1998,optionLeft,55,6295,3,28,0,28,0,1,,,,,,,,,,,,,,,,,,,,,,,,,,,,,,,,,,,,,,,
,,,,,,,,2023-08-24_08h12.53.173,HF_wild_card,2022.2.4,MacIntel,59.84082341,613e72b49567f3e1d92b2ff5,64e63663dbcaf322d2eec8da,64e702cc52f22cf9bc8bc95d,,,,,,,sngl,resources/Empty.png,resources/DP.BMP,Door1,0.445455729,0.050672743,1,0,0,1.0327,optionRight,30,6325,3,29,0,29,0,1,,,,,,,,,,,,,,,,,,,,,,,,,,,,,,,,,,,,,,,
,,,,,,,,2023-08-24_08h12.53.173,HF_wild_card,2022.2.4,MacIntel,59.84082341,613e72b49567f3e1d92b2ff5,64e63663dbcaf322d2eec8da,64e702cc52f22cf9bc8bc95d,,,,,,,decisionTrl,resources/DBN.BMP,resources/DP.BMP,Door2,-0.42077691,0.075690104,1,0,0,1.4501,optionLeft,40,6365,3,30,0,30,0,1,,,,,,,,,,,,,,,,,,,,,,,,,,,,,,,,,,,,,,,
,,,,,,,,2023-08-24_08h12.53.173,HF_wild_card,2022.2.4,MacIntel,59.84082341,613e72b49567f3e1d92b2ff5,64e63663dbcaf322d2eec8da,64e702cc52f22cf9bc8bc95d,,,,,,,sngl,resources/DBN.BMP,resources/Empty.png,Door2,-0.363493924,0.033797743,1,0,0,0.8629,optionLeft,40,6405,3,31,0,31,0,1,,,,,,,,,,,,,,,,,,,,,,,,,,,,,,,,,,,,,,,
,,,,,,,,2023-08-24_08h12.53.173,HF_wild_card,2022.2.4,MacIntel,59.84082341,613e72b49567f3e1d92b2ff5,64e63663dbcaf322d2eec8da,64e702cc52f22cf9bc8bc95d,,,,,,,decisionTrl,resources/DP.BMP,resources/DBN.BMP,Door2,0.365542535,0.02796875,1,0,0,1.2815,optionRight,20,6425,3,32,0,32,0,1,,,,,,,,,,,,,,,,,,,,,,,,,,,,,,,,,,,,,,,
,,,,,,,,2023-08-24_08h12.53.173,HF_wild_card,2022.2.4,MacIntel,59.84082341,613e72b49567f3e1d92b2ff5,64e63663dbcaf322d2eec8da,64e702cc52f22cf9bc8bc95d,,,,,,,sngl,resources/DY.BMP,resources/Empty.png,WildCard_NonEx,-0.375303819,-0.000928819,1,0,0,0.9482,optionLeft,45,6470,3,33,0,33,0,1,,,,,,,,,,,,,,,,,,,,,,,,,,,,,,,,,,,,,,,
,,,,,,,,2023-08-24_08h12.53.173,HF_wild_card,2022.2.4,MacIntel,59.84082341,613e72b49567f3e1d92b2ff5,64e63663dbcaf322d2eec8da,64e702cc52f22cf9bc8bc95d,,,,,,,sngl,resources/Empty.png,resources/DY.BMP,WildCard_NonEx,0.377352431,0.023038194,1,0,0,1.0326,optionRight,55,6525,3,34,0,34,0,1,,,,,,,,,,,,,,,,,,,,,,,,,,,,,,,,,,,,,,,
,,,,,,,,2023-08-24_08h12.53.173,HF_wild_card,2022.2.4,MacIntel,59.84082341,613e72b49567f3e1d92b2ff5,64e63663dbcaf322d2eec8da,64e702cc52f22cf9bc8bc95d,,,,,,,sngl,resources/DR.BMP,resources/Empty.png,Door3,-0.411814236,0.012248264,1,0,0,0.998,optionLeft,70,6595,3,35,0,35,0,1,,,,,,,,,,,,,,,,,,,,,,,,,,,,,,,,,,,,,,,
,,,,,,,,2023-08-24_08h12.53.173,HF_wild_card,2022.2.4,MacIntel,59.84082341,613e72b49567f3e1d92b2ff5,64e63663dbcaf322d2eec8da,64e702cc52f22cf9bc8bc95d,,,,,,,decisionTrl,resources/DR.BMP,resources/DB.BMP,Door4,0.415989583,0.014765625,1,0,0,1.0336,optionRight,60,6655,3,36,0,36,0,1,,,,,,,,,,,,,,,,,,,,,,,,,,,,,,,,,,,,,,,
,,,,,,,,2023-08-24_08h12.53.173,HF_wild_card,2022.2.4,MacIntel,59.84082341,613e72b49567f3e1d92b2ff5,64e63663dbcaf322d2eec8da,64e702cc52f22cf9bc8bc95d,,,,,,,decisionTrl,resources/DP.BMP,resources/DY.BMP,WildCard_NonEx,0.410750868,0.046644965,1,0,0,1.4318,optionRight,45,6700,3,37,0,37,0,1,,,,,,,,,,,,,,,,,,,,,,,,,,,,,,,,,,,,,,,
,,,,,,,,2023-08-24_08h12.53.173,HF_wild_card,2022.2.4,MacIntel,59.84082341,613e72b49567f3e1d92b2ff5,64e63663dbcaf322d2eec8da,64e702cc52f22cf9bc8bc95d,,,,,,,decisionTrl,resources/DY.BMP,resources/DR.BMP,Door3,0.40858941,0.040737847,1,0,0,1.0649,optionRight,70,6770,3,38,0,38,0,1,,,,,,,,,,,,,,,,,,,,,,,,,,,,,,,,,,,,,,,
,,,,,,,,2023-08-24_08h12.53.173,HF_wild_card,2022.2.4,MacIntel,59.84082341,613e72b49567f3e1d92b2ff5,64e63663dbcaf322d2eec8da,64e702cc52f22cf9bc8bc95d,,,,,,,decisionTrl,resources/DBN.BMP,resources/DP.BMP,Door2,-0.418541667,0.058302951,1,0,0,2.3512,optionLeft,20,6790,3,39,0,39,0,1,,,,,,,,,,,,,,,,,,,,,,,,,,,,,,,,,,,,,,,
,,,,,,,,2023-08-24_08h12.53.173,HF_wild_card,2022.2.4,MacIntel,59.84082341,613e72b49567f3e1d92b2ff5,64e63663dbcaf322d2eec8da,64e702cc52f22cf9bc8bc95d,,,,,,,sngl,resources/DP.BMP,resources/Empty.png,Door1,-0.42796875,-0.007860243,1,0,0,0.9807,optionLeft,30,6820,3,40,0,40,0,1,,,,,,,,,,,,,,,,,,,,,,,,,,,,,,,,,,,,,,,
,,,,,,,,2023-08-24_08h12.53.173,HF_wild_card,2022.2.4,MacIntel,59.84082341,613e72b49567f3e1d92b2ff5,64e63663dbcaf322d2eec8da,64e702cc52f22cf9bc8bc95d,,,,,,,decisionTrl,resources/DR.BMP,resources/DB.BMP,Door4,0.385737847,0.04437934,1,0,0,1.3994,optionRight,60,6880,3,41,0,41,0,1,,,,,,,,,,,,,,,,,,,,,,,,,,,,,,,,,,,,,,,
,,,,,,,,2023-08-24_08h12.53.173,HF_wild_card,2022.2.4,MacIntel,59.84082341,613e72b49567f3e1d92b2ff5,64e63663dbcaf322d2eec8da,64e702cc52f22cf9bc8bc95d,,,,,,,decisionTrl,resources/DR.BMP,resources/DB.BMP,Door3,-0.390607639,0.036002604,1,0,0,1.2001,optionLeft,70,6950,3,42,0,42,0,1,,,,,,,,,,,,,,,,,,,,,,,,,,,,,,,,,,,,,,,
,,,,,,,,2023-08-24_08h12.53.173,HF_wild_card,2022.2.4,MacIntel,59.84082341,613e72b49567f3e1d92b2ff5,64e63663dbcaf322d2eec8da,64e702cc52f22cf9bc8bc95d,,,,,,,decisionTrl,resources/DY.BMP,resources/DB.BMP,Door4,0.397243924,0.035217014,1,0,0,1.4983,optionRight,60,7010,3,43,0,43,0,1,,,,,,,,,,,,,,,,,,,,,,,,,,,,,,,,,,,,,,,
,,,,,,,,2023-08-24_08h12.53.173,HF_wild_card,2022.2.4,MacIntel,59.84082341,613e72b49567f3e1d92b2ff5,64e63663dbcaf322d2eec8da,64e702cc52f22cf9bc8bc95d,,,,,,,,,,,,,,,,,,,,,,,,,,2,0,2,0,1,,,,,,,,,,,,,,,,,,,,,,,,,,,,,,,,,,
,,,,,,,,2023-08-24_08h12.53.173,HF_wild_card,2022.2.4,MacIntel,59.84082341,613e72b49567f3e1d92b2ff5,64e63663dbcaf322d2eec8da,64e702cc52f22cf9bc8bc95d,,,,,,,ctch,resources/DBN.BMP,resources/DR.BMP,Door3,0.434045139,0.043246528,1,0,0,1.2473,optionRight,70,7080,4,0,0,0,0,1,,,,,,,,,,,,,,,,,,,,,,,,,,,,,,,,,,,,,,,
,,,,,,,,2023-08-24_08h12.53.173,HF_wild_card,2022.2.4,MacIntel,59.84082341,613e72b49567f3e1d92b2ff5,64e63663dbcaf322d2eec8da,64e702cc52f22cf9bc8bc95d,,,,,,,decisionTrl,resources/DG.BMP,resources/DR.BMP,WildCard_Ex,-0.374613715,0.037677951,1,0,0,1.6359,optionLeft,95,7175,4,1,0,1,0,1,,,,,,,,,,,,,,,,,,,,,,,,,,,,,,,,,,,,,,,
,,,,,,,,2023-08-24_08h12.53.173,HF_wild_card,2022.2.4,MacIntel,59.84082341,613e72b49567f3e1d92b2ff5,64e63663dbcaf322d2eec8da,64e702cc52f22cf9bc8bc95d,,,,,,,decisionTrl,resources/DG.BMP,resources/DBN.BMP,WildCard_Ex,-0.410746528,0.03124566,1,0,0,1.0306,optionLeft,5,7180,4,2,0,2,0,1,,,,,,,,,,,,,,,,,,,,,,,,,,,,,,,,,,,,,,,
,,,,,,,,2023-08-24_08h12.53.173,HF_wild_card,2022.2.4,MacIntel,59.84082341,613e72b49567f3e1d92b2ff5,64e63663dbcaf322d2eec8da,64e702cc52f22cf9bc8bc95d,,,,,,,decisionTrl,resources/DP.BMP,resources/DBN.BMP,Door2,0.443958333,0.066323785,1,0,0,1.4167,optionRight,20,7200,4,3,0,3,0,1,,,,,,,,,,,,,,,,,,,,,,,,,,,,,,,,,,,,,,,
,,,,,,,,2023-08-24_08h12.53.173,HF_wild_card,2022.2.4,MacIntel,59.84082341,613e72b49567f3e1d92b2ff5,64e63663dbcaf322d2eec8da,64e702cc52f22cf9bc8bc95d,,,,,,,decisionTrl,resources/DBN.BMP,resources/DP.BMP,Door1,0.398081597,0.052699653,1,0,0,2.8526,optionRight,30,7230,4,4,0,4,0,1,,,,,,,,,,,,,,,,,,,,,,,,,,,,,,,,,,,,,,,
,,,,,,,,2023-08-24_08h12.53.173,HF_wild_card,2022.2.4,MacIntel,59.84082341,613e72b49567f3e1d92b2ff5,64e63663dbcaf322d2eec8da,64e702cc52f22cf9bc8bc95d,,,,,,,ctch,resources/DP.BMP,resources/DB.BMP,Door4,0.388333333,0.077131076,1,0,0,1.2489,optionRight,80,7310,4,5,0,5,0,1,,,,,,,,,,,,,,,,,,,,,,,,,,,,,,,,,,,,,,,
,,,,,,,,2023-08-24_08h12.53.173,HF_wild_card,2022.2.4,MacIntel,59.84082341,613e72b49567f3e1d92b2ff5,64e63663dbcaf322d2eec8da,64e702cc52f22cf9bc8bc95d,,,,,,,sngl,resources/Empty.png,resources/DG.BMP,WildCard_Ex,0.382760417,0.051019965,1,0,0,1.0485,optionRight,5,7315,4,6,0,6,0,1,,,,,,,,,,,,,,,,,,,,,,,,,,,,,,,,,,,,,,,
,,,,,,,,2023-08-24_08h12.53.173,HF_wild_card,2022.2.4,MacIntel,59.84082341,613e72b49567f3e1d92b2ff5,64e63663dbcaf322d2eec8da,64e702cc52f22cf9bc8bc95d,,,,,,,decisionTrl,resources/DBN.BMP,resources/DG.BMP,WildCard_Ex,0.39187934,0.036019965,1,0,0,1.7324,optionRight,5,7320,4,7,0,7,0,1,,,,,,,,,,,,,,,,,,,,,,,,,,,,,,,,,,,,,,,
,,,,,,,,2023-08-24_08h12.53.173,HF_wild_card,2022.2.4,MacIntel,59.84082341,613e72b49567f3e1d92b2ff5,64e63663dbcaf322d2eec8da,64e702cc52f22cf9bc8bc95d,,,,,,,decisionTrl,resources/DG.BMP,resources/DB.BMP,Door4,0.381961806,0.040334201,1,0,0,1.4174,optionRight,80,7400,4,8,0,8,0,1,,,,,,,,,,,,,,,,,,,,,,,,,,,,,,,,,,,,,,,
,,,,,,,,2023-08-24_08h12.53.173,HF_wild_card,2022.2.4,MacIntel,59.84082341,613e72b49567f3e1d92b2ff5,64e63663dbcaf322d2eec8da,64e702cc52f22cf9bc8bc95d,,,,,,,ctch,resources/DB.BMP,resources/DP.BMP,Door4,-0.359305556,0.037734375,1,0,0,1.3828,optionLeft,60,7460,4,9,0,9,0,1,,,,,,,,,,,,,,,,,,,,,,,,,,,,,,,,,,,,,,,
,,,,,,,,2023-08-24_08h12.53.173,HF_wild_card,2022.2.4,MacIntel,59.84082341,613e72b49567f3e1d92b2ff5,64e63663dbcaf322d2eec8da,64e702cc52f22cf9bc8bc95d,,,,,,,ctch,resources/DP.BMP,resources/DB.BMP,Door4,0.386302083,0.038641493,1,0,0,0.9652,optionRight,80,7540,4,10,0,10,0,1,,,,,,,,,,,,,,,,,,,,,,,,,,,,,,,,,,,,,,,
,,,,,,,,2023-08-24_08h12.53.173,HF_wild_card,2022.2.4,MacIntel,59.84082341,613e72b49567f3e1d92b2ff5,64e63663dbcaf322d2eec8da,64e702cc52f22cf9bc8bc95d,,,,,,,sngl,resources/Empty.png,resources/DR.BMP,Door3,0.421397569,0.087482639,1,0,0,0.9644,optionRight,70,7610,4,11,0,11,0,1,,,,,,,,,,,,,,,,,,,,,,,,,,,,,,,,,,,,,,,
,,,,,,,,2023-08-24_08h12.53.173,HF_wild_card,2022.2.4,MacIntel,59.84082341,613e72b49567f3e1d92b2ff5,64e63663dbcaf322d2eec8da,64e702cc52f22cf9bc8bc95d,,,,,,,ctch,resources/DR.BMP,resources/DBN.BMP,Door3,-0.416076389,0.054275174,1,0,0,1.1635,optionLeft,70,7680,4,12,0,12,0,1,,,,,,,,,,,,,,,,,,,,,,,,,,,,,,,,,,,,,,,
,,,,,,,,2023-08-24_08h12.53.173,HF_wild_card,2022.2.4,MacIntel,59.84082341,613e72b49567f3e1d92b2ff5,64e63663dbcaf322d2eec8da,64e702cc52f22cf9bc8bc95d,,,,,,,decisionTrl,resources/DBN.BMP,resources/DP.BMP,Door2,-0.384257813,0.061393229,1,0,0,2.0493,optionLeft,40,7720,4,13,0,13,0,1,,,,,,,,,,,,,,,,,,,,,,,,,,,,,,,,,,,,,,,
,,,,,,,,2023-08-24_08h12.53.173,HF_wild_card,2022.2.4,MacIntel,59.84082341,613e72b49567f3e1d92b2ff5,64e63663dbcaf322d2eec8da,64e702cc52f22cf9bc8bc95d,,,,,,,sngl,resources/DB.BMP,resources/Empty.png,Door4,-0.386375868,0.026701389,1,0,0,0.9807,optionLeft,60,7780,4,14,0,14,0,1,,,,,,,,,,,,,,,,,,,,,,,,,,,,,,,,,,,,,,,
,,,,,,,,2023-08-24_08h12.53.173,HF_wild_card,2022.2.4,MacIntel,59.84082341,613e72b49567f3e1d92b2ff5,64e63663dbcaf322d2eec8da,64e702cc52f22cf9bc8bc95d,,,,,,,decisionTrl,resources/DP.BMP,resources/DBN.BMP,Door2,0.378259549,0.103650174,1,0,0,2.1338,optionRight,20,7800,4,15,0,15,0,1,,,,,,,,,,,,,,,,,,,,,,,,,,,,,,,,,,,,,,,
,,,,,,,,2023-08-24_08h12.53.173,HF_wild_card,2022.2.4,MacIntel,59.84082341,613e72b49567f3e1d92b2ff5,64e63663dbcaf322d2eec8da,64e702cc52f22cf9bc8bc95d,,,,,,,sngl,resources/Empty.png,resources/DG.BMP,WildCard_Ex,0.478268229,0.045112847,1,0,0,1.0482,optionRight,95,7895,4,16,0,16,0,1,,,,,,,,,,,,,,,,,,,,,,,,,,,,,,,,,,,,,,,
,,,,,,,,2023-08-24_08h12.53.173,HF_wild_card,2022.2.4,MacIntel,59.84082341,613e72b49567f3e1d92b2ff5,64e63663dbcaf322d2eec8da,64e702cc52f22cf9bc8bc95d,,,,,,,decisionTrl,resources/DR.BMP,resources/DB.BMP,Door3,-0.401306424,0.016592882,1,0,0,2.7357,optionLeft,70,7965,4,17,0,17,0,1,,,,,,,,,,,,,,,,,,,,,,,,,,,,,,,,,,,,,,,
,,,,,,,,2023-08-24_08h12.53.173,HF_wild_card,2022.2.4,MacIntel,59.84082341,613e72b49567f3e1d92b2ff5,64e63663dbcaf322d2eec8da,64e702cc52f22cf9bc8bc95d,,,,,,,sngl,resources/DBN.BMP,resources/Empty.png,Door2,-0.392912326,0.072391493,1,0,0,1.015,optionLeft,20,7985,4,18,0,18,0,1,,,,,,,,,,,,,,,,,,,,,,,,,,,,,,,,,,,,,,,
,,,,,,,,2023-08-24_08h12.53.173,HF_wild_card,2022.2.4,MacIntel,59.84082341,613e72b49567f3e1d92b2ff5,64e63663dbcaf322d2eec8da,64e702cc52f22cf9bc8bc95d,,,,,,,decisionTrl,resources/DP.BMP,resources/DG.BMP,Door1,-0.405073785,0.017009549,1,0,0,2.1692,optionLeft,30,8015,4,19,0,19,0,1,,,,,,,,,,,,,,,,,,,,,,,,,,,,,,,,,,,,,,,
,,,,,,,,2023-08-24_08h12.53.173,HF_wild_card,2022.2.4,MacIntel,59.84082341,613e72b49567f3e1d92b2ff5,64e63663dbcaf322d2eec8da,64e702cc52f22cf9bc8bc95d,,,,,,,ctch,resources/DB.BMP,resources/DP.BMP,Door4,-0.378888889,0.051158854,1,0,0,1.8325,optionLeft,60,8075,4,20,0,20,0,1,,,,,,,,,,,,,,,,,,,,,,,,,,,,,,,,,,,,,,,
,,,,,,,,2023-08-24_08h12.53.173,HF_wild_card,2022.2.4,MacIntel,59.84082341,613e72b49567f3e1d92b2ff5,64e63663dbcaf322d2eec8da,64e702cc52f22cf9bc8bc95d,,,,,,,ctch,resources/DR.BMP,resources/DBN.BMP,Door3,-0.390638021,0.014956597,1,0,0,1.1948,optionLeft,70,8145,4,21,0,21,0,1,,,,,,,,,,,,,,,,,,,,,,,,,,,,,,,,,,,,,,,
,,,,,,,,2023-08-24_08h12.53.173,HF_wild_card,2022.2.4,MacIntel,59.84082341,613e72b49567f3e1d92b2ff5,64e63663dbcaf322d2eec8da,64e702cc52f22cf9bc8bc95d,,,,,,,sngl,resources/DG.BMP,resources/Empty.png,WildCard_Ex,-0.440030382,0.013776042,1,0,0,0.9651,optionLeft,5,8150,4,22,0,22,0,1,,,,,,,,,,,,,,,,,,,,,,,,,,,,,,,,,,,,,,,
,,,,,,,,2023-08-24_08h12.53.173,HF_wild_card,2022.2.4,MacIntel,59.84082341,613e72b49567f3e1d92b2ff5,64e63663dbcaf322d2eec8da,64e702cc52f22cf9bc8bc95d,,,,,,,decisionTrl,resources/DP.BMP,resources/DBN.BMP,Door2,0.415065104,0.078736979,1,0,0,2.3357,optionRight,40,8190,4,23,0,23,0,1,,,,,,,,,,,,,,,,,,,,,,,,,,,,,,,,,,,,,,,
,,,,,,,,2023-08-24_08h12.53.173,HF_wild_card,2022.2.4,MacIntel,59.84082341,613e72b49567f3e1d92b2ff5,64e63663dbcaf322d2eec8da,64e702cc52f22cf9bc8bc95d,,,,,,,decisionTrl,resources/DB.BMP,resources/DR.BMP,Door4,-0.368320313,0.004657118,1,0,0,1.1319,optionLeft,80,8270,4,24,0,24,0,1,,,,,,,,,,,,,,,,,,,,,,,,,,,,,,,,,,,,,,,
,,,,,,,,2023-08-24_08h12.53.173,HF_wild_card,2022.2.4,MacIntel,59.84082341,613e72b49567f3e1d92b2ff5,64e63663dbcaf322d2eec8da,64e702cc52f22cf9bc8bc95d,,,,,,,sngl,resources/DP.BMP,resources/Empty.png,Door1,-0.357178819,-0.000364583,1,0,0,1.049,optionLeft,30,8300,4,25,0,25,0,1,,,,,,,,,,,,,,,,,,,,,,,,,,,,,,,,,,,,,,,
,,,,,,,,2023-08-24_08h12.53.173,HF_wild_card,2022.2.4,MacIntel,59.84082341,613e72b49567f3e1d92b2ff5,64e63663dbcaf322d2eec8da,64e702cc52f22cf9bc8bc95d,,,,,,,sngl,resources/DG.BMP,resources/Empty.png,WildCard_Ex,-0.359192708,0.041440972,1,0,0,0.8981,optionLeft,95,8395,4,26,0,26,0,1,,,,,,,,,,,,,,,,,,,,,,,,,,,,,,,,,,,,,,,
,,,,,,,,2023-08-24_08h12.53.173,HF_wild_card,2022.2.4,MacIntel,59.84082341,613e72b49567f3e1d92b2ff5,64e63663dbcaf322d2eec8da,64e702cc52f22cf9bc8bc95d,,,,,,,decisionTrl,resources/DBN.BMP,resources/DP.BMP,Door2,-0.311354167,0.06734809,1,0,0,2.2517,optionLeft,40,8435,4,27,0,27,0,1,,,,,,,,,,,,,,,,,,,,,,,,,,,,,,,,,,,,,,,
,,,,,,,,2023-08-24_08h12.53.173,HF_wild_card,2022.2.4,MacIntel,59.84082341,613e72b49567f3e1d92b2ff5,64e63663dbcaf322d2eec8da,64e702cc52f22cf9bc8bc95d,,,,,,,decisionTrl,resources/DBN.BMP,resources/DP.BMP,Door2,-0.382460937,0.047482639,1,0,0,1.0478,optionLeft,40,8475,4,28,0,28,0,1,,,,,,,,,,,,,,,,,,,,,,,,,,,,,,,,,,,,,,,
,,,,,,,,2023-08-24_08h12.53.173,HF_wild_card,2022.2.4,MacIntel,59.84082341,613e72b49567f3e1d92b2ff5,64e63663dbcaf322d2eec8da,64e702cc52f22cf9bc8bc95d,,,,,,,decisionTrl,resources/DR.BMP,resources/DB.BMP,Door4,0.387795139,0.090412326,1,0,0,1.367,optionRight,80,8555,4,29,0,29,0,1,,,,,,,,,,,,,,,,,,,,,,,,,,,,,,,,,,,,,,,
,,,,,,,,2023-08-24_08h12.53.173,HF_wild_card,2022.2.4,MacIntel,59.84082341,613e72b49567f3e1d92b2ff5,64e63663dbcaf322d2eec8da,64e702cc52f22cf9bc8bc95d,,,,,,,ctch,resources/DBN.BMP,resources/DR.BMP,Door3,0.407391493,0.052517361,1,0,0,2.2178,optionRight,70,8625,4,30,0,30,0,1,,,,,,,,,,,,,,,,,,,,,,,,,,,,,,,,,,,,,,,
,,,,,,,,2023-08-24_08h12.53.173,HF_wild_card,2022.2.4,MacIntel,59.84082341,613e72b49567f3e1d92b2ff5,64e63663dbcaf322d2eec8da,64e702cc52f22cf9bc8bc95d,,,,,,,sngl,resources/Empty.png,resources/DBN.BMP,Door2,0.4025,0.082786458,1,0,0,1.0327,optionRight,40,8665,4,31,0,31,0,1,,,,,,,,,,,,,,,,,,,,,,,,,,,,,,,,,,,,,,,
,,,,,,,,2023-08-24_08h12.53.173,HF_wild_card,2022.2.4,MacIntel,59.84082341,613e72b49567f3e1d92b2ff5,64e63663dbcaf322d2eec8da,64e702cc52f22cf9bc8bc95d,,,,,,,decisionTrl,resources/DB.BMP,resources/DR.BMP,Door3,0.392456597,0.043289931,1,0,0,1.6182,optionRight,70,8735,4,32,0,32,0,1,,,,,,,,,,,,,,,,,,,,,,,,,,,,,,,,,,,,,,,
,,,,,,,,2023-08-24_08h12.53.173,HF_wild_card,2022.2.4,MacIntel,59.84082341,613e72b49567f3e1d92b2ff5,64e63663dbcaf322d2eec8da,64e702cc52f22cf9bc8bc95d,,,,,,,decisionTrl,resources/DR.BMP,resources/DB.BMP,Door4,0.377803819,0.050269097,1,0,0,1.3317,optionRight,60,8795,4,33,0,33,0,1,,,,,,,,,,,,,,,,,,,,,,,,,,,,,,,,,,,,,,,
,,,,,,,,2023-08-24_08h12.53.173,HF_wild_card,2022.2.4,MacIntel,59.84082341,613e72b49567f3e1d92b2ff5,64e63663dbcaf322d2eec8da,64e702cc52f22cf9bc8bc95d,,,,,,,decisionTrl,resources/DB.BMP,resources/DR.BMP,Door3,0.395047743,0.056922743,1,0,0,1.5998,optionRight,70,8865,4,34,0,34,0,1,,,,,,,,,,,,,,,,,,,,,,,,,,,,,,,,,,,,,,,
,,,,,,,,2023-08-24_08h12.53.173,HF_wild_card,2022.2.4,MacIntel,59.84082341,613e72b49567f3e1d92b2ff5,64e63663dbcaf322d2eec8da,64e702cc52f22cf9bc8bc95d,,,,,,,decisionTrl,resources/DG.BMP,resources/DP.BMP,WildCard_Ex,-0.359422743,0.043559028,1,0,0,1.182,optionLeft,95,8960,4,35,0,35,0,1,,,,,,,,,,,,,,,,,,,,,,,,,,,,,,,,,,,,,,,
,,,,,,,,2023-08-24_08h12.53.173,HF_wild_card,2022.2.4,MacIntel,59.84082341,613e72b49567f3e1d92b2ff5,64e63663dbcaf322d2eec8da,64e702cc52f22cf9bc8bc95d,,,,,,,sngl,resources/Empty.png,resources/DB.BMP,Door4,0.406028646,0.054500868,1,0,0,1.0973,optionRight,80,9040,4,36,0,36,0,1,,,,,,,,,,,,,,,,,,,,,,,,,,,,,,,,,,,,,,,
,,,,,,,,2023-08-24_08h12.53.173,HF_wild_card,2022.2.4,MacIntel,59.84082341,613e72b49567f3e1d92b2ff5,64e63663dbcaf322d2eec8da,64e702cc52f22cf9bc8bc95d,,,,,,,sngl,resources/DR.BMP,resources/Empty.png,Door3,-0.488007813,0.044375,1,0,0,1.1325,optionLeft,70,9110,4,37,0,37,0,1,,,,,,,,,,,,,,,,,,,,,,,,,,,,,,,,,,,,,,,
,,,,,,,,2023-08-24_08h12.53.173,HF_wild_card,2022.2.4,MacIntel,59.84082341,613e72b49567f3e1d92b2ff5,64e63663dbcaf322d2eec8da,64e702cc52f22cf9bc8bc95d,,,,,,,decisionTrl,resources/DR.BMP,resources/DG.BMP,WildCard_Ex,0.403220486,0.061067708,1,0,0,1.2814,optionRight,95,9205,4,38,0,38,0,1,,,,,,,,,,,,,,,,,,,,,,,,,,,,,,,,,,,,,,,
,,,,,,,,2023-08-24_08h12.53.173,HF_wild_card,2022.2.4,MacIntel,59.84082341,613e72b49567f3e1d92b2ff5,64e63663dbcaf322d2eec8da,64e702cc52f22cf9bc8bc95d,,,,,,,sngl,resources/Empty.png,resources/DP.BMP,Door1,0.376827257,0.041966146,1,0,0,1.1797,optionRight,30,9235,4,39,0,39,0,1,,,,,,,,,,,,,,,,,,,,,,,,,,,,,,,,,,,,,,,
,,,,,,,,2023-08-24_08h12.53.173,HF_wild_card,2022.2.4,MacIntel,59.84082341,613e72b49567f3e1d92b2ff5,64e63663dbcaf322d2eec8da,64e702cc52f22cf9bc8bc95d,,,,,,,decisionTrl,resources/DP.BMP,resources/DBN.BMP,Door1,-0.342942708,0.006705729,1,0,0,1.1502,optionLeft,30,9265,4,40,0,40,0,1,,,,,,,,,,,,,,,,,,,,,,,,,,,,,,,,,,,,,,,
,,,,,,,,2023-08-24_08h12.53.173,HF_wild_card,2022.2.4,MacIntel,59.84082341,613e72b49567f3e1d92b2ff5,64e63663dbcaf322d2eec8da,64e702cc52f22cf9bc8bc95d,,,,,,,decisionTrl,resources/DR.BMP,resources/DB.BMP,Door3,-0.374570313,0.054752604,1,0,0,1.5508,optionLeft,70,9335,4,41,0,41,0,1,,,,,,,,,,,,,,,,,,,,,,,,,,,,,,,,,,,,,,,
,,,,,,,,2023-08-24_08h12.53.173,HF_wild_card,2022.2.4,MacIntel,59.84082341,613e72b49567f3e1d92b2ff5,64e63663dbcaf322d2eec8da,64e702cc52f22cf9bc8bc95d,,,,,,,decisionTrl,resources/DB.BMP,resources/DG.BMP,WildCard_Ex,0.438758681,0.045286458,1,0,0,1.1465,optionRight,95,9430,4,42,0,42,0,1,,,,,,,,,,,,,,,,,,,,,,,,,,,,,,,,,,,,,,,
,,,,,,,,2023-08-24_08h12.53.173,HF_wild_card,2022.2.4,MacIntel,59.84082341,613e72b49567f3e1d92b2ff5,64e63663dbcaf322d2eec8da,64e702cc52f22cf9bc8bc95d,,,,,,,decisionTrl,resources/DB.BMP,resources/DR.BMP,Door3,0.387738715,0.045008681,1,0,0,2.2846,optionRight,70,9500,4,43,0,43,0,1,,,,,,,,,,,,,,,,,,,,,,,,,,,,,,,,,,,,,,,
,,,,,,,,2023-08-24_08h12.53.173,HF_wild_card,2022.2.4,MacIntel,59.84082341,613e72b49567f3e1d92b2ff5,64e63663dbcaf322d2eec8da,64e702cc52f22cf9bc8bc95d,,,,,,,,,,,,,,,,,,,,,,,,,,3,0,3,0,1,,,,,,,,,,,,,,,,,,,,,,,,,,,,,,,,,,
,,,,,,,,2023-08-24_08h12.53.173,HF_wild_card,2022.2.4,MacIntel,59.84082341,613e72b49567f3e1d92b2ff5,64e63663dbcaf322d2eec8da,64e702cc52f22cf9bc8bc95d,,,,,,,sngl,resources/Empty.png,resources/DP.BMP,Door1,0.382977431,0.009609375,1,0,0,1.0965,optionRight,30,9530,5,0,0,0,0,1,,,,,,,,,,,,,,,,,,,,,,,,,,,,,,,,,,,,,,,
,,,,,,,,2023-08-24_08h12.53.173,HF_wild_card,2022.2.4,MacIntel,59.84082341,613e72b49567f3e1d92b2ff5,64e63663dbcaf322d2eec8da,64e702cc52f22cf9bc8bc95d,,,,,,,sngl,resources/Empty.png,resources/DBN.BMP,Door2,0.418993056,0.027447917,1,0,0,0.9979,optionRight,20,9550,5,1,0,1,0,1,,,,,,,,,,,,,,,,,,,,,,,,,,,,,,,,,,,,,,,
,,,,,,,,2023-08-24_08h12.53.173,HF_wild_card,2022.2.4,MacIntel,59.84082341,613e72b49567f3e1d92b2ff5,64e63663dbcaf322d2eec8da,64e702cc52f22cf9bc8bc95d,,,,,,,decisionTrl,resources/DBN.BMP,resources/DG.BMP,WildCard_Ex,0.425026042,0.075794271,1,0,0,1.2462,optionRight,95,9645,5,2,0,2,0,1,,,,,,,,,,,,,,,,,,,,,,,,,,,,,,,,,,,,,,,
,,,,,,,,2023-08-24_08h12.53.173,HF_wild_card,2022.2.4,MacIntel,59.84082341,613e72b49567f3e1d92b2ff5,64e63663dbcaf322d2eec8da,64e702cc52f22cf9bc8bc95d,,,,,,,decisionTrl,resources/DG.BMP,resources/DB.BMP,WildCard_Ex,-0.347282986,0.053272569,1,0,0,1.0145,optionLeft,5,9650,5,3,0,3,0,1,,,,,,,,,,,,,,,,,,,,,,,,,,,,,,,,,,,,,,,
,,,,,,,,2023-08-24_08h12.53.173,HF_wild_card,2022.2.4,MacIntel,59.84082341,613e72b49567f3e1d92b2ff5,64e63663dbcaf322d2eec8da,64e702cc52f22cf9bc8bc95d,,,,,,,ctch,resources/DR.BMP,resources/DBN.BMP,Door3,-0.402764757,0.029092882,1,0,0,1.0983,optionLeft,70,9720,5,4,0,4,0,1,,,,,,,,,,,,,,,,,,,,,,,,,,,,,,,,,,,,,,,
,,,,,,,,2023-08-24_08h12.53.173,HF_wild_card,2022.2.4,MacIntel,59.84082341,613e72b49567f3e1d92b2ff5,64e63663dbcaf322d2eec8da,64e702cc52f22cf9bc8bc95d,,,,,,,decisionTrl,resources/DG.BMP,resources/DP.BMP,WildCard_Ex,-0.423780382,0.026367188,1,0,0,1.0153,optionLeft,5,9725,5,5,0,5,0,1,,,,,,,,,,,,,,,,,,,,,,,,,,,,,,,,,,,,,,,
,,,,,,,,2023-08-24_08h12.53.173,HF_wild_card,2022.2.4,MacIntel,59.84082341,613e72b49567f3e1d92b2ff5,64e63663dbcaf322d2eec8da,64e702cc52f22cf9bc8bc95d,,,,,,,decisionTrl,resources/DBN.BMP,resources/DP.BMP,Door1,0.41233941,0.038923611,1,0,0,1.0288,optionRight,30,9755,5,6,0,6,0,1,,,,,,,,,,,,,,,,,,,,,,,,,,,,,,,,,,,,,,,
,,,,,,,,2023-08-24_08h12.53.173,HF_wild_card,2022.2.4,MacIntel,59.84082341,613e72b49567f3e1d92b2ff5,64e63663dbcaf322d2eec8da,64e702cc52f22cf9bc8bc95d,,,,,,,ctch,resources/DB.BMP,resources/DP.BMP,Door4,-0.388810764,0.021571181,1,0,0,0.9793,optionLeft,80,9835,5,7,0,7,0,1,,,,,,,,,,,,,,,,,,,,,,,,,,,,,,,,,,,,,,,
,,,,,,,,2023-08-24_08h12.53.173,HF_wild_card,2022.2.4,MacIntel,59.84082341,613e72b49567f3e1d92b2ff5,64e63663dbcaf322d2eec8da,64e702cc52f22cf9bc8bc95d,,,,,,,decisionTrl,resources/DR.BMP,resources/DB.BMP,Door4,0.381779514,0.088832465,1,0,0,1.7834,optionRight,80,9915,5,8,0,8,0,1,,,,,,,,,,,,,,,,,,,,,,,,,,,,,,,,,,,,,,,
,,,,,,,,2023-08-24_08h12.53.173,HF_wild_card,2022.2.4,MacIntel,59.84082341,613e72b49567f3e1d92b2ff5,64e63663dbcaf322d2eec8da,64e702cc52f22cf9bc8bc95d,,,,,,,decisionTrl,resources/DP.BMP,resources/DG.BMP,WildCard_Ex,0.398016493,0.053211806,1,0,0,1.1826,optionRight,95,10010,5,9,0,9,0,1,,,,,,,,,,,,,,,,,,,,,,,,,,,,,,,,,,,,,,,
,,,,,,,,2023-08-24_08h12.53.173,HF_wild_card,2022.2.4,MacIntel,59.84082341,613e72b49567f3e1d92b2ff5,64e63663dbcaf322d2eec8da,64e702cc52f22cf9bc8bc95d,,,,,,,decisionTrl,resources/DB.BMP,resources/DG.BMP,Door4,-0.364088542,0.037122396,1,0,0,1.5953,optionLeft,80,10090,5,10,0,10,0,1,,,,,,,,,,,,,,,,,,,,,,,,,,,,,,,,,,,,,,,
,,,,,,,,2023-08-24_08h12.53.173,HF_wild_card,2022.2.4,MacIntel,59.84082341,613e72b49567f3e1d92b2ff5,64e63663dbcaf322d2eec8da,64e702cc52f22cf9bc8bc95d,,,,,,,decisionTrl,resources/DBN.BMP,resources/DP.BMP,Door2,-0.324791667,0.017365451,1,0,0,1.4001,optionLeft,20,10110,5,11,0,11,0,1,,,,,,,,,,,,,,,,,,,,,,,,,,,,,,,,,,,,,,,
,,,,,,,,2023-08-24_08h12.53.173,HF_wild_card,2022.2.4,MacIntel,59.84082341,613e72b49567f3e1d92b2ff5,64e63663dbcaf322d2eec8da,64e702cc52f22cf9bc8bc95d,,,,,,,decisionTrl,resources/DG.BMP,resources/DR.BMP,Door3,0.402894965,0.040117187,1,0,0,2.5352,optionRight,70,10180,5,12,0,12,0,1,,,,,,,,,,,,,,,,,,,,,,,,,,,,,,,,,,,,,,,
,,,,,,,,2023-08-24_08h12.53.173,HF_wild_card,2022.2.4,MacIntel,59.84082341,613e72b49567f3e1d92b2ff5,64e63663dbcaf322d2eec8da,64e702cc52f22cf9bc8bc95d,,,,,,,ctch,resources/DB.BMP,resources/DP.BMP,Door4,-0.38765625,0.035889757,1,0,0,1.1323,optionLeft,60,10240,5,13,0,13,0,1,,,,,,,,,,,,,,,,,,,,,,,,,,,,,,,,,,,,,,,
,,,,,,,,2023-08-24_08h12.53.173,HF_wild_card,2022.2.4,MacIntel,59.84082341,613e72b49567f3e1d92b2ff5,64e63663dbcaf322d2eec8da,64e702cc52f22cf9bc8bc95d,,,,,,,decisionTrl,resources/DR.BMP,resources/DB.BMP,Door4,0.425013021,0.031744792,1,0,0,0.9986,optionRight,60,10300,5,14,0,14,0,1,,,,,,,,,,,,,,,,,,,,,,,,,,,,,,,,,,,,,,,
,,,,,,,,2023-08-24_08h12.53.173,HF_wild_card,2022.2.4,MacIntel,59.84082341,613e72b49567f3e1d92b2ff5,64e63663dbcaf322d2eec8da,64e702cc52f22cf9bc8bc95d,,,,,,,sngl,resources/DBN.BMP,resources/Empty.png,Door2,-0.428524306,0.030186632,1,0,0,0.947,optionLeft,40,10340,5,15,0,15,0,1,,,,,,,,,,,,,,,,,,,,,,,,,,,,,,,,,,,,,,,
,,,,,,,,2023-08-24_08h12.53.173,HF_wild_card,2022.2.4,MacIntel,59.84082341,613e72b49567f3e1d92b2ff5,64e63663dbcaf322d2eec8da,64e702cc52f22cf9bc8bc95d,,,,,,,decisionTrl,resources/DP.BMP,resources/DBN.BMP,Door2,0.385954861,0.095112847,1,0,0,1.5329,optionRight,40,10380,5,16,0,16,0,1,,,,,,,,,,,,,,,,,,,,,,,,,,,,,,,,,,,,,,,
,,,,,,,,2023-08-24_08h12.53.173,HF_wild_card,2022.2.4,MacIntel,59.84082341,613e72b49567f3e1d92b2ff5,64e63663dbcaf322d2eec8da,64e702cc52f22cf9bc8bc95d,,,,,,,decisionTrl,resources/DB.BMP,resources/DR.BMP,Door3,0.405182292,0.058012153,1,0,0,1.6327,optionRight,70,10450,5,17,0,17,0,1,,,,,,,,,,,,,,,,,,,,,,,,,,,,,,,,,,,,,,,
,,,,,,,,2023-08-24_08h12.53.173,HF_wild_card,2022.2.4,MacIntel,59.84082341,613e72b49567f3e1d92b2ff5,64e63663dbcaf322d2eec8da,64e702cc52f22cf9bc8bc95d,,,,,,,sngl,resources/DG.BMP,resources/Empty.png,WildCard_Ex,-0.373585069,0.032400174,1,0,0,0.8464,optionLeft,5,10455,5,18,0,18,0,1,,,,,,,,,,,,,,,,,,,,,,,,,,,,,,,,,,,,,,,
,,,,,,,,2023-08-24_08h12.53.173,HF_wild_card,2022.2.4,MacIntel,59.84082341,613e72b49567f3e1d92b2ff5,64e63663dbcaf322d2eec8da,64e702cc52f22cf9bc8bc95d,,,,,,,sngl,resources/Empty.png,resources/DG.BMP,WildCard_Ex,0.398151042,0.028172743,1,0,0,0.8994,optionRight,5,10460,5,19,0,19,0,1,,,,,,,,,,,,,,,,,,,,,,,,,,,,,,,,,,,,,,,
,,,,,,,,2023-08-24_08h12.53.173,HF_wild_card,2022.2.4,MacIntel,59.84082341,613e72b49567f3e1d92b2ff5,64e63663dbcaf322d2eec8da,64e702cc52f22cf9bc8bc95d,,,,,,,decisionTrl,resources/DB.BMP,resources/DR.BMP,Door3,0.399388021,0.053446181,1,0,0,1.4314,optionRight,70,10530,5,20,0,20,0,1,,,,,,,,,,,,,,,,,,,,,,,,,,,,,,,,,,,,,,,
,,,,,,,,2023-08-24_08h12.53.173,HF_wild_card,2022.2.4,MacIntel,59.84082341,613e72b49567f3e1d92b2ff5,64e63663dbcaf322d2eec8da,64e702cc52f22cf9bc8bc95d,,,,,,,sngl,resources/DG.BMP,resources/Empty.png,WildCard_Ex,-0.334375,0.025056424,1,0,0,0.932,optionLeft,95,10625,5,21,0,21,0,1,,,,,,,,,,,,,,,,,,,,,,,,,,,,,,,,,,,,,,,
,,,,,,,,2023-08-24_08h12.53.173,HF_wild_card,2022.2.4,MacIntel,59.84082341,613e72b49567f3e1d92b2ff5,64e63663dbcaf322d2eec8da,64e702cc52f22cf9bc8bc95d,,,,,,,sngl,resources/Empty.png,resources/DG.BMP,WildCard_Ex,0.406809896,0.012664931,1,0,0,0.8989,optionRight,95,10720,5,22,0,22,0,1,,,,,,,,,,,,,,,,,,,,,,,,,,,,,,,,,,,,,,,
,,,,,,,,2023-08-24_08h12.53.173,HF_wild_card,2022.2.4,MacIntel,59.84082341,613e72b49567f3e1d92b2ff5,64e63663dbcaf322d2eec8da,64e702cc52f22cf9bc8bc95d,,,,,,,ctch,resources/DBN.BMP,resources/DR.BMP,Door3,0.401519097,0.080642361,1,0,0,1.5162,optionRight,70,10790,5,23,0,23,0,1,,,,,,,,,,,,,,,,,,,,,,,,,,,,,,,,,,,,,,,
,,,,,,,,2023-08-24_08h12.53.173,HF_wild_card,2022.2.4,MacIntel,59.84082341,613e72b49567f3e1d92b2ff5,64e63663dbcaf322d2eec8da,64e702cc52f22cf9bc8bc95d,,,,,,,decisionTrl,resources/DG.BMP,resources/DBN.BMP,WildCard_Ex,-0.363355035,0.055394965,1,0,0,1.2807,optionLeft,5,10795,5,24,0,24,0,1,,,,,,,,,,,,,,,,,,,,,,,,,,,,,,,,,,,,,,,
,,,,,,,,2023-08-24_08h12.53.173,HF_wild_card,2022.2.4,MacIntel,59.84082341,613e72b49567f3e1d92b2ff5,64e63663dbcaf322d2eec8da,64e702cc52f22cf9bc8bc95d,,,,,,,decisionTrl,resources/DP.BMP,resources/DBN.BMP,Door2,0.452092014,0.07655816,1,0,0,1.2482,optionRight,20,10815,5,25,0,25,0,1,,,,,,,,,,,,,,,,,,,,,,,,,,,,,,,,,,,,,,,
,,,,,,,,2023-08-24_08h12.53.173,HF_wild_card,2022.2.4,MacIntel,59.84082341,613e72b49567f3e1d92b2ff5,64e63663dbcaf322d2eec8da,64e702cc52f22cf9bc8bc95d,,,,,,,decisionTrl,resources/DR.BMP,resources/DB.BMP,Door4,0.375047743,0.061046007,1,0,0,1.0161,optionRight,60,10875,5,26,0,26,0,1,,,,,,,,,,,,,,,,,,,,,,,,,,,,,,,,,,,,,,,
,,,,,,,,2023-08-24_08h12.53.173,HF_wild_card,2022.2.4,MacIntel,59.84082341,613e72b49567f3e1d92b2ff5,64e63663dbcaf322d2eec8da,64e702cc52f22cf9bc8bc95d,,,,,,,decisionTrl,resources/DR.BMP,resources/DB.BMP,Door3,-0.372057292,0.033116319,1,0,0,1.0485,optionLeft,70,10945,5,27,0,27,0,1,,,,,,,,,,,,,,,,,,,,,,,,,,,,,,,,,,,,,,,
,,,,,,,,2023-08-24_08h12.53.173,HF_wild_card,2022.2.4,MacIntel,59.84082341,613e72b49567f3e1d92b2ff5,64e63663dbcaf322d2eec8da,64e702cc52f22cf9bc8bc95d,,,,,,,sngl,resources/DP.BMP,resources/Empty.png,Door1,-0.324322917,0.001046007,1,0,0,1.0317,optionLeft,30,10975,5,28,0,28,0,1,,,,,,,,,,,,,,,,,,,,,,,,,,,,,,,,,,,,,,,
,,,,,,,,2023-08-24_08h12.53.173,HF_wild_card,2022.2.4,MacIntel,59.84082341,613e72b49567f3e1d92b2ff5,64e63663dbcaf322d2eec8da,64e702cc52f22cf9bc8bc95d,,,,,,,sngl,resources/Empty.png,resources/DR.BMP,Door3,0.327044271,0.031710069,1,0,0,0.8311,optionRight,70,11045,5,29,0,29,0,1,,,,,,,,,,,,,,,,,,,,,,,,,,,,,,,,,,,,,,,
,,,,,,,,2023-08-24_08h12.53.173,HF_wild_card,2022.2.4,MacIntel,59.84082341,613e72b49567f3e1d92b2ff5,64e63663dbcaf322d2eec8da,64e702cc52f22cf9bc8bc95d,,,,,,,sngl,resources/DB.BMP,resources/Empty.png,Door4,-0.376423611,0.005959201,1,0,0,0.9141,optionLeft,80,11125,5,30,0,30,0,1,,,,,,,,,,,,,,,,,,,,,,,,,,,,,,,,,,,,,,,
,,,,,,,,2023-08-24_08h12.53.173,HF_wild_card,2022.2.4,MacIntel,59.84082341,613e72b49567f3e1d92b2ff5,64e63663dbcaf322d2eec8da,64e702cc52f22cf9bc8bc95d,,,,,,,ctch,resources/DR.BMP,resources/DBN.BMP,Door3,-0.391740451,0.045572917,1,0,0,1.7838,optionLeft,70,11195,5,31,0,31,0,1,,,,,,,,,,,,,,,,,,,,,,,,,,,,,,,,,,,,,,,
,,,,,,,,2023-08-24_08h12.53.173,HF_wild_card,2022.2.4,MacIntel,59.84082341,613e72b49567f3e1d92b2ff5,64e63663dbcaf322d2eec8da,64e702cc52f22cf9bc8bc95d,,,,,,,ctch,resources/DP.BMP,resources/DB.BMP,Door4,0.401085069,0.04797309,1,0,0,1.2983,optionRight,60,11255,5,32,0,32,0,1,,,,,,,,,,,,,,,,,,,,,,,,,,,,,,,,,,,,,,,
,,,,,,,,2023-08-24_08h12.53.173,HF_wild_card,2022.2.4,MacIntel,59.84082341,613e72b49567f3e1d92b2ff5,64e63663dbcaf322d2eec8da,64e702cc52f22cf9bc8bc95d,,,,,,,ctch,resources/DBN.BMP,resources/DR.BMP,Door3,0.413138021,0.056783854,1,0,0,1.0471,optionRight,70,11325,5,33,0,33,0,1,,,,,,,,,,,,,,,,,,,,,,,,,,,,,,,,,,,,,,,
,,,,,,,,2023-08-24_08h12.53.173,HF_wild_card,2022.2.4,MacIntel,59.84082341,613e72b49567f3e1d92b2ff5,64e63663dbcaf322d2eec8da,64e702cc52f22cf9bc8bc95d,,,,,,,decisionTrl,resources/DP.BMP,resources/DBN.BMP,Door2,0.429748264,0.132092014,1,0,0,1.4144,optionRight,40,11365,5,34,0,34,0,1,,,,,,,,,,,,,,,,,,,,,,,,,,,,,,,,,,,,,,,
,,,,,,,,2023-08-24_08h12.53.173,HF_wild_card,2022.2.4,MacIntel,59.84082341,613e72b49567f3e1d92b2ff5,64e63663dbcaf322d2eec8da,64e702cc52f22cf9bc8bc95d,,,,,,,ctch,resources/DP.BMP,resources/DB.BMP,Door4,0.393537326,0.054114583,1,0,0,1.1322,optionRight,80,11445,5,35,0,35,0,1,,,,,,,,,,,,,,,,,,,,,,,,,,,,,,,,,,,,,,,
,,,,,,,,2023-08-24_08h12.53.173,HF_wild_card,2022.2.4,MacIntel,59.84082341,613e72b49567f3e1d92b2ff5,64e63663dbcaf322d2eec8da,64e702cc52f22cf9bc8bc95d,,,,,,,decisionTrl,resources/DB.BMP,resources/DR.BMP,Door4,-0.386770833,0.067265625,1,0,0,1.4673,optionLeft,80,11525,5,36,0,36,0,1,,,,,,,,,,,,,,,,,,,,,,,,,,,,,,,,,,,,,,,
,,,,,,,,2023-08-24_08h12.53.173,HF_wild_card,2022.2.4,MacIntel,59.84082341,613e72b49567f3e1d92b2ff5,64e63663dbcaf322d2eec8da,64e702cc52f22cf9bc8bc95d,,,,,,,decisionTrl,resources/DBN.BMP,resources/DP.BMP,Door2,-0.349605035,0.069544271,1,0,0,1.5797,optionLeft,40,11565,5,37,0,37,0,1,,,,,,,,,,,,,,,,,,,,,,,,,,,,,,,,,,,,,,,
,,,,,,,,2023-08-24_08h12.53.173,HF_wild_card,2022.2.4,MacIntel,59.84082341,613e72b49567f3e1d92b2ff5,64e63663dbcaf322d2eec8da,64e702cc52f22cf9bc8bc95d,,,,,,,decisionTrl,resources/DR.BMP,resources/DG.BMP,WildCard_Ex,0.423546007,0.047482639,1,0,0,1.2489,optionRight,5,11570,5,38,0,38,0,1,,,,,,,,,,,,,,,,,,,,,,,,,,,,,,,,,,,,,,,
,,,,,,,,2023-08-24_08h12.53.173,HF_wild_card,2022.2.4,MacIntel,59.84082341,613e72b49567f3e1d92b2ff5,64e63663dbcaf322d2eec8da,64e702cc52f22cf9bc8bc95d,,,,,,,decisionTrl,resources/DP.BMP,resources/DBN.BMP,Door2,0.392478299,0.094743924,1,0,0,1.1491,optionRight,40,11610,5,39,0,39,0,1,,,,,,,,,,,,,,,,,,,,,,,,,,,,,,,,,,,,,,,
,,,,,,,,2023-08-24_08h12.53.173,HF_wild_card,2022.2.4,MacIntel,59.84082341,613e72b49567f3e1d92b2ff5,64e63663dbcaf322d2eec8da,64e702cc52f22cf9bc8bc95d,,,,,,,sngl,resources/DR.BMP,resources/Empty.png,Door3,-0.409123264,0.045820313,1,0,0,0.8652,optionLeft,70,11680,5,40,0,40,0,1,,,,,,,,,,,,,,,,,,,,,,,,,,,,,,,,,,,,,,,
,,,,,,,,2023-08-24_08h12.53.173,HF_wild_card,2022.2.4,MacIntel,59.84082341,613e72b49567f3e1d92b2ff5,64e63663dbcaf322d2eec8da,64e702cc52f22cf9bc8bc95d,,,,,,,decisionTrl,resources/DBN.BMP,resources/DP.BMP,Door2,-0.381653646,0.139036458,1,0,0,1.684,optionLeft,20,11700,5,41,0,41,0,1,,,,,,,,,,,,,,,,,,,,,,,,,,,,,,,,,,,,,,,
,,,,,,,,2023-08-24_08h12.53.173,HF_wild_card,2022.2.4,MacIntel,59.84082341,613e72b49567f3e1d92b2ff5,64e63663dbcaf322d2eec8da,64e702cc52f22cf9bc8bc95d,,,,,,,sngl,resources/Empty.png,resources/DB.BMP,Door4,0.355646701,0.010850694,1,0,0,0.8984,optionRight,60,11760,5,42,0,42,0,1,,,,,,,,,,,,,,,,,,,,,,,,,,,,,,,,,,,,,,,
,,,,,,,,2023-08-24_08h12.53.173,HF_wild_card,2022.2.4,MacIntel,59.84082341,613e72b49567f3e1d92b2ff5,64e63663dbcaf322d2eec8da,64e702cc52f22cf9bc8bc95d,,,,,,,decisionTrl,resources/DB.BMP,resources/DR.BMP,Door3,0.395989583,0.050017361,1,0,0,1.7166,optionRight,70,11830,5,43,0,43,0,1,,,,,,,,,,,,,,,,,,,,,,,,,,,,,,,,,,,,,,,
,,,,,,,,2023-08-24_08h12.53.173,HF_wild_card,2022.2.4,MacIntel,59.84082341,613e72b49567f3e1d92b2ff5,64e63663dbcaf322d2eec8da,64e702cc52f22cf9bc8bc95d,,,,,,,,,,,,,,,,,,,,,,,,,,4,0,4,0,1,,,,,,,,,,,,,,,,,,,,,,,,,,,,,,,,,,
,,,,,,,,2023-08-24_08h12.53.173,HF_wild_card,2022.2.4,MacIntel,59.84082341,613e72b49567f3e1d92b2ff5,64e63663dbcaf322d2eec8da,64e702cc52f22cf9bc8bc95d,,,,,,,decisionTrl,resources/DG.BMP,resources/DR.BMP,Door3,0.395516493,0.057634549,1,0,0,2.2368,optionRight,70,11900,6,0,0,0,0,1,,,,,,,,,,,,,,,,,,,,,,,,,,,,,,,,,,,,,,,
,,,,,,,,2023-08-24_08h12.53.173,HF_wild_card,2022.2.4,MacIntel,59.84082341,613e72b49567f3e1d92b2ff5,64e63663dbcaf322d2eec8da,64e702cc52f22cf9bc8bc95d,,,,,,,decisionTrl,resources/DR.BMP,resources/DB.BMP,Door4,0.383559028,0.077122396,1,0,0,1.8161,optionRight,60,11960,6,1,0,1,0,1,,,,,,,,,,,,,,,,,,,,,,,,,,,,,,,,,,,,,,,
,,,,,,,,2023-08-24_08h12.53.173,HF_wild_card,2022.2.4,MacIntel,59.84082341,613e72b49567f3e1d92b2ff5,64e63663dbcaf322d2eec8da,64e702cc52f22cf9bc8bc95d,,,,,,,decisionTrl,resources/DB.BMP,resources/DG.BMP,WildCard_Ex,0.418819444,0.064010417,1,0,0,1.3321,optionRight,5,11965,6,2,0,2,0,1,,,,,,,,,,,,,,,,,,,,,,,,,,,,,,,,,,,,,,,
,,,,,,,,2023-08-24_08h12.53.173,HF_wild_card,2022.2.4,MacIntel,59.84082341,613e72b49567f3e1d92b2ff5,64e63663dbcaf322d2eec8da,64e702cc52f22cf9bc8bc95d,,,,,,,decisionTrl,resources/DBN.BMP,resources/DP.BMP,Door2,-0.406072049,0.146028646,1,0,0,1.7816,optionLeft,40,12005,6,3,0,3,0,1,,,,,,,,,,,,,,,,,,,,,,,,,,,,,,,,,,,,,,,
,,,,,,,,2023-08-24_08h12.53.173,HF_wild_card,2022.2.4,MacIntel,59.84082341,613e72b49567f3e1d92b2ff5,64e63663dbcaf322d2eec8da,64e702cc52f22cf9bc8bc95d,,,,,,,decisionTrl,resources/DBN.BMP,resources/DP.BMP,Door2,-0.359236111,0.078932292,1,0,0,1.0639,optionLeft,20,12025,6,4,0,4,0,1,,,,,,,,,,,,,,,,,,,,,,,,,,,,,,,,,,,,,,,
,,,,,,,,2023-08-24_08h12.53.173,HF_wild_card,2022.2.4,MacIntel,59.84082341,613e72b49567f3e1d92b2ff5,64e63663dbcaf322d2eec8da,64e702cc52f22cf9bc8bc95d,,,,,,,decisionTrl,resources/DP.BMP,resources/DBN.BMP,Door2,0.393133681,0.11827691,1,0,0,1.9016,optionRight,20,12045,6,5,0,5,0,1,,,,,,,,,,,,,,,,,,,,,,,,,,,,,,,,,,,,,,,
,,,,,,,,2023-08-24_08h12.53.173,HF_wild_card,2022.2.4,MacIntel,59.84082341,613e72b49567f3e1d92b2ff5,64e63663dbcaf322d2eec8da,64e702cc52f22cf9bc8bc95d,,,,,,,ctch,resources/DBN.BMP,resources/DR.BMP,Door3,0.399904514,0.053776042,1,0,0,1.5153,optionRight,70,12115,6,6,0,6,0,1,,,,,,,,,,,,,,,,,,,,,,,,,,,,,,,,,,,,,,,
,,,,,,,,2023-08-24_08h12.53.173,HF_wild_card,2022.2.4,MacIntel,59.84082341,613e72b49567f3e1d92b2ff5,64e63663dbcaf322d2eec8da,64e702cc52f22cf9bc8bc95d,,,,,,,ctch,resources/DR.BMP,resources/DBN.BMP,Door3,-0.413845486,0.055868056,1,0,0,1.1178,optionLeft,70,12185,6,7,0,7,0,1,,,,,,,,,,,,,,,,,,,,,,,,,,,,,,,,,,,,,,,
,,,,,,,,2023-08-24_08h12.53.173,HF_wild_card,2022.2.4,MacIntel,59.84082341,613e72b49567f3e1d92b2ff5,64e63663dbcaf322d2eec8da,64e702cc52f22cf9bc8bc95d,,,,,,,decisionTrl,resources/DBN.BMP,resources/DG.BMP,WildCard_Ex,0.423519965,0.064296875,1,0,0,1.2305,optionRight,95,12280,6,8,0,8,0,1,,,,,,,,,,,,,,,,,,,,,,,,,,,,,,,,,,,,,,,
,,,,,,,,2023-08-24_08h12.53.173,HF_wild_card,2022.2.4,MacIntel,59.84082341,613e72b49567f3e1d92b2ff5,64e63663dbcaf322d2eec8da,64e702cc52f22cf9bc8bc95d,,,,,,,sngl,resources/Empty.png,resources/DB.BMP,Door4,0.358815104,0.07468316,1,0,0,1.0304,optionRight,80,12360,6,9,0,9,0,1,,,,,,,,,,,,,,,,,,,,,,,,,,,,,,,,,,,,,,,
,,,,,,,,2023-08-24_08h12.53.173,HF_wild_card,2022.2.4,MacIntel,59.84082341,613e72b49567f3e1d92b2ff5,64e63663dbcaf322d2eec8da,64e702cc52f22cf9bc8bc95d,,,,,,,sngl,resources/DB.BMP,resources/Empty.png,Door4,-0.374965278,0.039440104,1,0,0,0.8788,optionLeft,60,12420,6,10,0,10,0,1,,,,,,,,,,,,,,,,,,,,,,,,,,,,,,,,,,,,,,,
,,,,,,,,2023-08-24_08h12.53.173,HF_wild_card,2022.2.4,MacIntel,59.84082341,613e72b49567f3e1d92b2ff5,64e63663dbcaf322d2eec8da,64e702cc52f22cf9bc8bc95d,,,,,,,sngl,resources/DBN.BMP,resources/Empty.png,Door2,-0.403381076,0.094171007,1,0,0,0.9317,optionLeft,20,12440,6,11,0,11,0,1,,,,,,,,,,,,,,,,,,,,,,,,,,,,,,,,,,,,,,,
,,,,,,,,2023-08-24_08h12.53.173,HF_wild_card,2022.2.4,MacIntel,59.84082341,613e72b49567f3e1d92b2ff5,64e63663dbcaf322d2eec8da,64e702cc52f22cf9bc8bc95d,,,,,,,ctch,resources/DP.BMP,resources/DB.BMP,Door4,0.428836806,0.034049479,1,0,0,1.4159,optionRight,60,12500,6,12,0,12,0,1,,,,,,,,,,,,,,,,,,,,,,,,,,,,,,,,,,,,,,,
,,,,,,,,2023-08-24_08h12.53.173,HF_wild_card,2022.2.4,MacIntel,59.84082341,613e72b49567f3e1d92b2ff5,64e63663dbcaf322d2eec8da,64e702cc52f22cf9bc8bc95d,,,,,,,sngl,resources/DP.BMP,resources/Empty.png,Door1,-0.404418403,0.02359375,1,0,0,0.9641,optionLeft,30,12530,6,13,0,13,0,1,,,,,,,,,,,,,,,,,,,,,,,,,,,,,,,,,,,,,,,
,,,,,,,,2023-08-24_08h12.53.173,HF_wild_card,2022.2.4,MacIntel,59.84082341,613e72b49567f3e1d92b2ff5,64e63663dbcaf322d2eec8da,64e702cc52f22cf9bc8bc95d,,,,,,,decisionTrl,resources/DR.BMP,resources/DB.BMP,Door4,0.389835069,0.039513889,1,0,0,0.98,optionRight,80,12610,6,14,0,14,0,1,,,,,,,,,,,,,,,,,,,,,,,,,,,,,,,,,,,,,,,
,,,,,,,,2023-08-24_08h12.53.173,HF_wild_card,2022.2.4,MacIntel,59.84082341,613e72b49567f3e1d92b2ff5,64e63663dbcaf322d2eec8da,64e702cc52f22cf9bc8bc95d,,,,,,,decisionTrl,resources/DR.BMP,resources/DB.BMP,Door4,0.381258681,0.088029514,1,0,0,1.1143,optionRight,60,12670,6,15,0,15,0,1,,,,,,,,,,,,,,,,,,,,,,,,,,,,,,,,,,,,,,,
,,,,,,,,2023-08-24_08h12.53.173,HF_wild_card,2022.2.4,MacIntel,59.84082341,613e72b49567f3e1d92b2ff5,64e63663dbcaf322d2eec8da,64e702cc52f22cf9bc8bc95d,,,,,,,decisionTrl,resources/DG.BMP,resources/DBN.BMP,Door2,0.395138889,0.10155816,1,0,0,2.4694,optionRight,20,12690,6,16,0,16,0,1,,,,,,,,,,,,,,,,,,,,,,,,,,,,,,,,,,,,,,,
,,,,,,,,2023-08-24_08h12.53.173,HF_wild_card,2022.2.4,MacIntel,59.84082341,613e72b49567f3e1d92b2ff5,64e63663dbcaf322d2eec8da,64e702cc52f22cf9bc8bc95d,,,,,,,decisionTrl,resources/DG.BMP,resources/DB.BMP,Door4,0.387330729,0.068194444,1,0,0,1.7,optionRight,80,12770,6,17,0,17,0,1,,,,,,,,,,,,,,,,,,,,,,,,,,,,,,,,,,,,,,,
,,,,,,,,2023-08-24_08h12.53.173,HF_wild_card,2022.2.4,MacIntel,59.84082341,613e72b49567f3e1d92b2ff5,64e63663dbcaf322d2eec8da,64e702cc52f22cf9bc8bc95d,,,,,,,sngl,resources/Empty.png,resources/DR.BMP,Door3,0.376497396,0.034921875,1,0,0,1.0804,optionRight,70,12840,6,18,0,18,0,1,,,,,,,,,,,,,,,,,,,,,,,,,,,,,,,,,,,,,,,
,,,,,,,,2023-08-24_08h12.53.173,HF_wild_card,2022.2.4,MacIntel,59.84082341,613e72b49567f3e1d92b2ff5,64e63663dbcaf322d2eec8da,64e702cc52f22cf9bc8bc95d,,,,,,,ctch,resources/DP.BMP,resources/DB.BMP,Door4,0.3975,0.054991319,1,0,0,1.2986,optionRight,80,12920,6,19,0,19,0,1,,,,,,,,,,,,,,,,,,,,,,,,,,,,,,,,,,,,,,,
,,,,,,,,2023-08-24_08h12.53.173,HF_wild_card,2022.2.4,MacIntel,59.84082341,613e72b49567f3e1d92b2ff5,64e63663dbcaf322d2eec8da,64e702cc52f22cf9bc8bc95d,,,,,,,sngl,resources/Empty.png,resources/DG.BMP,WildCard_Ex,0.376284722,0.058572049,1,0,0,0.8819,optionRight,5,12925,6,20,0,20,0,1,,,,,,,,,,,,,,,,,,,,,,,,,,,,,,,,,,,,,,,
,,,,,,,,2023-08-24_08h12.53.173,HF_wild_card,2022.2.4,MacIntel,59.84082341,613e72b49567f3e1d92b2ff5,64e63663dbcaf322d2eec8da,64e702cc52f22cf9bc8bc95d,,,,,,,decisionTrl,resources/DBN.BMP,resources/DP.BMP,Door2,-0.372756076,0.092430556,1,0,0,1.1966,optionLeft,20,12945,6,21,0,21,0,1,,,,,,,,,,,,,,,,,,,,,,,,,,,,,,,,,,,,,,,
,,,,,,,,2023-08-24_08h12.53.173,HF_wild_card,2022.2.4,MacIntel,59.84082341,613e72b49567f3e1d92b2ff5,64e63663dbcaf322d2eec8da,64e702cc52f22cf9bc8bc95d,,,,,,,ctch,resources/DR.BMP,resources/DBN.BMP,Door3,-0.410907118,0.045394965,1,0,0,1.5664,optionLeft,70,13015,6,22,0,22,0,1,,,,,,,,,,,,,,,,,,,,,,,,,,,,,,,,,,,,,,,
,,,,,,,,2023-08-24_08h12.53.173,HF_wild_card,2022.2.4,MacIntel,59.84082341,613e72b49567f3e1d92b2ff5,64e63663dbcaf322d2eec8da,64e702cc52f22cf9bc8bc95d,,,,,,,ctch,resources/DB.BMP,resources/DP.BMP,Door4,-0.423654514,0.074040799,1,0,0,1.0805,optionLeft,60,13075,6,23,0,23,0,1,,,,,,,,,,,,,,,,,,,,,,,,,,,,,,,,,,,,,,,
,,,,,,,,2023-08-24_08h12.53.173,HF_wild_card,2022.2.4,MacIntel,59.84082341,613e72b49567f3e1d92b2ff5,64e63663dbcaf322d2eec8da,64e702cc52f22cf9bc8bc95d,,,,,,,decisionTrl,resources/DP.BMP,resources/DBN.BMP,Door1,-0.399071181,0.049513889,1,0,0,1.6655,optionLeft,30,13105,6,24,0,24,0,1,,,,,,,,,,,,,,,,,,,,,,,,,,,,,,,,,,,,,,,
,,,,,,,,2023-08-24_08h12.53.173,HF_wild_card,2022.2.4,MacIntel,59.84082341,613e72b49567f3e1d92b2ff5,64e63663dbcaf322d2eec8da,64e702cc52f22cf9bc8bc95d,,,,,,,sngl,resources/DR.BMP,resources/Empty.png,Door3,-0.418528646,0.051115451,1,0,0,0.9981,optionLeft,70,13175,6,25,0,25,0,1,,,,,,,,,,,,,,,,,,,,,,,,,,,,,,,,,,,,,,,
,,,,,,,,2023-08-24_08h12.53.173,HF_wild_card,2022.2.4,MacIntel,59.84082341,613e72b49567f3e1d92b2ff5,64e63663dbcaf322d2eec8da,64e702cc52f22cf9bc8bc95d,,,,,,,sngl,resources/DG.BMP,resources/Empty.png,WildCard_Ex,-0.353858507,0.074466146,1,0,0,0.9642,optionLeft,95,13270,6,26,0,26,0,1,,,,,,,,,,,,,,,,,,,,,,,,,,,,,,,,,,,,,,,
,,,,,,,,2023-08-24_08h12.53.173,HF_wild_card,2022.2.4,MacIntel,59.84082341,613e72b49567f3e1d92b2ff5,64e63663dbcaf322d2eec8da,64e702cc52f22cf9bc8bc95d,,,,,,,decisionTrl,resources/DP.BMP,resources/DBN.BMP,Door1,-0.388606771,0.042612847,1,0,0,1.6997,optionLeft,30,13300,6,27,0,27,0,1,,,,,,,,,,,,,,,,,,,,,,,,,,,,,,,,,,,,,,,
,,,,,,,,2023-08-24_08h12.53.173,HF_wild_card,2022.2.4,MacIntel,59.84082341,613e72b49567f3e1d92b2ff5,64e63663dbcaf322d2eec8da,64e702cc52f22cf9bc8bc95d,,,,,,,sngl,resources/Empty.png,resources/DBN.BMP,Door2,0.398220486,0.09858941,1,0,0,0.8491,optionRight,40,13340,6,28,0,28,0,1,,,,,,,,,,,,,,,,,,,,,,,,,,,,,,,,,,,,,,,
,,,,,,,,2023-08-24_08h12.53.173,HF_wild_card,2022.2.4,MacIntel,59.84082341,613e72b49567f3e1d92b2ff5,64e63663dbcaf322d2eec8da,64e702cc52f22cf9bc8bc95d,,,,,,,sngl,resources/Empty.png,resources/DP.BMP,Door1,0.400073785,0.056796875,1,0,0,0.9138,optionRight,30,13370,6,29,0,29,0,1,,,,,,,,,,,,,,,,,,,,,,,,,,,,,,,,,,,,,,,
,,,,,,,,2023-08-24_08h12.53.173,HF_wild_card,2022.2.4,MacIntel,59.84082341,613e72b49567f3e1d92b2ff5,64e63663dbcaf322d2eec8da,64e702cc52f22cf9bc8bc95d,,,,,,,decisionTrl,resources/DB.BMP,resources/DR.BMP,Door4,-0.382413194,0.056297743,1,0,0,1.8344,optionLeft,60,13430,6,30,0,30,0,1,,,,,,,,,,,,,,,,,,,,,,,,,,,,,,,,,,,,,,,
,,,,,,,,2023-08-24_08h12.53.173,HF_wild_card,2022.2.4,MacIntel,59.84082341,613e72b49567f3e1d92b2ff5,64e63663dbcaf322d2eec8da,64e702cc52f22cf9bc8bc95d,,,,,,,sngl,resources/Empty.png,resources/DG.BMP,WildCard_Ex,0.470130208,0.081289062,1,0,0,0.7807,optionRight,95,13525,6,31,0,31,0,1,,,,,,,,,,,,,,,,,,,,,,,,,,,,,,,,,,,,,,,
,,,,,,,,2023-08-24_08h12.53.173,HF_wild_card,2022.2.4,MacIntel,59.84082341,613e72b49567f3e1d92b2ff5,64e63663dbcaf322d2eec8da,64e702cc52f22cf9bc8bc95d,,,,,,,decisionTrl,resources/DR.BMP,resources/DG.BMP,WildCard_Ex,0.451171875,0.09672309,1,0,0,0.9473,optionRight,5,13530,6,32,0,32,0,1,,,,,,,,,,,,,,,,,,,,,,,,,,,,,,,,,,,,,,,
,,,,,,,,2023-08-24_08h12.53.173,HF_wild_card,2022.2.4,MacIntel,59.84082341,613e72b49567f3e1d92b2ff5,64e63663dbcaf322d2eec8da,64e702cc52f22cf9bc8bc95d,,,,,,,ctch,resources/DBN.BMP,resources/DR.BMP,Door3,0.393845486,0.053211806,1,0,0,1.3653,optionRight,70,13600,6,33,0,33,0,1,,,,,,,,,,,,,,,,,,,,,,,,,,,,,,,,,,,,,,,
,,,,,,,,2023-08-24_08h12.53.173,HF_wild_card,2022.2.4,MacIntel,59.84082341,613e72b49567f3e1d92b2ff5,64e63663dbcaf322d2eec8da,64e702cc52f22cf9bc8bc95d,,,,,,,decisionTrl,resources/DBN.BMP,resources/DP.BMP,Door2,-0.378294271,0.104986979,1,0,0,1.4152,optionLeft,20,13620,6,34,0,34,0,1,,,,,,,,,,,,,,,,,,,,,,,,,,,,,,,,,,,,,,,
,,,,,,,,2023-08-24_08h12.53.173,HF_wild_card,2022.2.4,MacIntel,59.84082341,613e72b49567f3e1d92b2ff5,64e63663dbcaf322d2eec8da,64e702cc52f22cf9bc8bc95d,,,,,,,decisionTrl,resources/DP.BMP,resources/DG.BMP,WildCard_Ex,0.396966146,0.064561632,1,0,0,1.3316,optionRight,95,13715,6,35,0,35,0,1,,,,,,,,,,,,,,,,,,,,,,,,,,,,,,,,,,,,,,,
,,,,,,,,2023-08-24_08h12.53.173,HF_wild_card,2022.2.4,MacIntel,59.84082341,613e72b49567f3e1d92b2ff5,64e63663dbcaf322d2eec8da,64e702cc52f22cf9bc8bc95d,,,,,,,decisionTrl,resources/DB.BMP,resources/DR.BMP,Door3,0.374765625,0.035399306,1,0,0,1.2662,optionRight,70,13785,6,36,0,36,0,1,,,,,,,,,,,,,,,,,,,,,,,,,,,,,,,,,,,,,,,
,,,,,,,,2023-08-24_08h12.53.173,HF_wild_card,2022.2.4,MacIntel,59.84082341,613e72b49567f3e1d92b2ff5,64e63663dbcaf322d2eec8da,64e702cc52f22cf9bc8bc95d,,,,,,,decisionTrl,resources/DG.BMP,resources/DP.BMP,WildCard_Ex,-0.400217014,0.076106771,1,0,0,1.4493,optionLeft,5,13790,6,37,0,37,0,1,,,,,,,,,,,,,,,,,,,,,,,,,,,,,,,,,,,,,,,
,,,,,,,,2023-08-24_08h12.53.173,HF_wild_card,2022.2.4,MacIntel,59.84082341,613e72b49567f3e1d92b2ff5,64e63663dbcaf322d2eec8da,64e702cc52f22cf9bc8bc95d,,,,,,,decisionTrl,resources/DB.BMP,resources/DR.BMP,Door3,0.394210069,0.048146701,1,0,0,1.2658,optionRight,70,13860,6,38,0,38,0,1,,,,,,,,,,,,,,,,,,,,,,,,,,,,,,,,,,,,,,,
,,,,,,,,2023-08-24_08h12.53.173,HF_wild_card,2022.2.4,MacIntel,59.84082341,613e72b49567f3e1d92b2ff5,64e63663dbcaf322d2eec8da,64e702cc52f22cf9bc8bc95d,,,,,,,sngl,resources/DG.BMP,resources/Empty.png,WildCard_Ex,-0.399648438,0.000351562,1,0,0,0.9144,optionLeft,5,13865,6,39,0,39,0,1,,,,,,,,,,,,,,,,,,,,,,,,,,,,,,,,,,,,,,,
,,,,,,,,2023-08-24_08h12.53.173,HF_wild_card,2022.2.4,MacIntel,59.84082341,613e72b49567f3e1d92b2ff5,64e63663dbcaf322d2eec8da,64e702cc52f22cf9bc8bc95d,,,,,,,ctch,resources/DB.BMP,resources/DP.BMP,Door4,-0.421019965,0.04124566,1,0,0,1.3618,optionLeft,80,13945,6,40,0,40,0,1,,,,,,,,,,,,,,,,,,,,,,,,,,,,,,,,,,,,,,,
,,,,,,,,2023-08-24_08h12.53.173,HF_wild_card,2022.2.4,MacIntel,59.84082341,613e72b49567f3e1d92b2ff5,64e63663dbcaf322d2eec8da,64e702cc52f22cf9bc8bc95d,,,,,,,decisionTrl,resources/DP.BMP,resources/DBN.BMP,Door2,0.402256944,0.102486979,1,0,0,1.784,optionRight,40,13985,6,41,0,41,0,1,,,,,,,,,,,,,,,,,,,,,,,,,,,,,,,,,,,,,,,
,,,,,,,,2023-08-24_08h12.53.173,HF_wild_card,2022.2.4,MacIntel,59.84082341,613e72b49567f3e1d92b2ff5,64e63663dbcaf322d2eec8da,64e702cc52f22cf9bc8bc95d,,,,,,,decisionTrl,resources/DB.BMP,resources/DR.BMP,Door3,0.402282986,0.049891493,1,0,0,1.699,optionRight,70,14055,6,42,0,42,0,1,,,,,,,,,,,,,,,,,,,,,,,,,,,,,,,,,,,,,,,
,,,,,,,,2023-08-24_08h12.53.173,HF_wild_card,2022.2.4,MacIntel,59.84082341,613e72b49567f3e1d92b2ff5,64e63663dbcaf322d2eec8da,64e702cc52f22cf9bc8bc95d,,,,,,,decisionTrl,resources/DR.BMP,resources/DB.BMP,Door4,0.37984375,0.055755208,1,0,0,1.3148,optionRight,60,14115,6,43,0,43,0,1,,,,,,,,,,,,,,,,,,,,,,,,,,,,,,,,,,,,,,,
,,,,,,,,2023-08-24_08h12.53.173,HF_wild_card,2022.2.4,MacIntel,59.84082341,613e72b49567f3e1d92b2ff5,64e63663dbcaf322d2eec8da,64e702cc52f22cf9bc8bc95d,,,,,,,,,,,,,,,,,,,,,,,,,,5,0,5,0,1,,,,,,,,,,,,,,,,,,,,,,,,,,,,,,,,,,
,,,,,,,,2023-08-24_08h12.53.173,HF_wild_card,2022.2.4,MacIntel,59.84082341,613e72b49567f3e1d92b2ff5,64e63663dbcaf322d2eec8da,64e702cc52f22cf9bc8bc95d,,,,,,,decisionTrl,resources/DP.BMP,resources/DBN.BMP,Door1,-0.369956597,0.024149306,1,0,0,2.0511,optionLeft,30,14145,7,0,0,0,0,1,,,,,,,,,,,,,,,,,,,,,,,,,,,,,,,,,,,,,,,
,,,,,,,,2023-08-24_08h12.53.173,HF_wild_card,2022.2.4,MacIntel,59.84082341,613e72b49567f3e1d92b2ff5,64e63663dbcaf322d2eec8da,64e702cc52f22cf9bc8bc95d,,,,,,,decisionTrl,resources/DBN.BMP,resources/DP.BMP,Door2,-0.375998264,0.108255208,1,0,0,3.1383,optionLeft,40,14185,7,1,0,1,0,1,,,,,,,,,,,,,,,,,,,,,,,,,,,,,,,,,,,,,,,
,,,,,,,,2023-08-24_08h12.53.173,HF_wild_card,2022.2.4,MacIntel,59.84082341,613e72b49567f3e1d92b2ff5,64e63663dbcaf322d2eec8da,64e702cc52f22cf9bc8bc95d,,,,,,,ctch,resources/DP.BMP,resources/DB.BMP,Door4,0.39531684,0.064092882,1,0,0,1.1339,optionRight,60,14245,7,2,0,2,0,1,,,,,,,,,,,,,,,,,,,,,,,,,,,,,,,,,,,,,,,
,,,,,,,,2023-08-24_08h12.53.173,HF_wild_card,2022.2.4,MacIntel,59.84082341,613e72b49567f3e1d92b2ff5,64e63663dbcaf322d2eec8da,64e702cc52f22cf9bc8bc95d,,,,,,,decisionTrl,resources/DP.BMP,resources/DBN.BMP,Door2,0.398962674,0.128715278,1,0,0,1.5339,optionRight,20,14265,7,3,0,3,0,1,,,,,,,,,,,,,,,,,,,,,,,,,,,,,,,,,,,,,,,
,,,,,,,,2023-08-24_08h12.53.173,HF_wild_card,2022.2.4,MacIntel,59.84082341,613e72b49567f3e1d92b2ff5,64e63663dbcaf322d2eec8da,64e702cc52f22cf9bc8bc95d,,,,,,,ctch,resources/DB.BMP,resources/DP.BMP,Door4,-0.425703125,0.07078559,1,0,0,1.1827,optionLeft,80,14345,7,4,0,4,0,1,,,,,,,,,,,,,,,,,,,,,,,,,,,,,,,,,,,,,,,
,,,,,,,,2023-08-24_08h12.53.173,HF_wild_card,2022.2.4,MacIntel,59.84082341,613e72b49567f3e1d92b2ff5,64e63663dbcaf322d2eec8da,64e702cc52f22cf9bc8bc95d,,,,,,,ctch,resources/DR.BMP,resources/DBN.BMP,Door3,-0.371228299,0.031805556,1,0,0,1.1987,optionLeft,70,14415,7,5,0,5,0,1,,,,,,,,,,,,,,,,,,,,,,,,,,,,,,,,,,,,,,,
,,,,,,,,2023-08-24_08h12.53.173,HF_wild_card,2022.2.4,MacIntel,59.84082341,613e72b49567f3e1d92b2ff5,64e63663dbcaf322d2eec8da,64e702cc52f22cf9bc8bc95d,,,,,,,ctch,resources/DBN.BMP,resources/DR.BMP,Door3,0.402599826,0.014822049,1,0,0,1.0513,optionRight,70,14485,7,6,0,6,0,1,,,,,,,,,,,,,,,,,,,,,,,,,,,,,,,,,,,,,,,
,,,,,,,,2023-08-24_08h12.53.173,HF_wild_card,2022.2.4,MacIntel,59.84082341,613e72b49567f3e1d92b2ff5,64e63663dbcaf322d2eec8da,64e702cc52f22cf9bc8bc95d,,,,,,,decisionTrl,resources/DP.BMP,resources/DBN.BMP,Door2,0.402955729,0.132612847,1,0,0,1.2501,optionRight,40,14525,7,7,0,7,0,1,,,,,,,,,,,,,,,,,,,,,,,,,,,,,,,,,,,,,,,
,,,,,,,,2023-08-24_08h12.53.173,HF_wild_card,2022.2.4,MacIntel,59.84082341,613e72b49567f3e1d92b2ff5,64e63663dbcaf322d2eec8da,64e702cc52f22cf9bc8bc95d,,,,,,,decisionTrl,resources/DBN.BMP,resources/DP.BMP,Door2,-0.42453559,0.088663194,1,0,0,1.0837,optionLeft,20,14545,7,8,0,8,0,1,,,,,,,,,,,,,,,,,,,,,,,,,,,,,,,,,,,,,,,
,,,,,,,,2023-08-24_08h12.53.173,HF_wild_card,2022.2.4,MacIntel,59.84082341,613e72b49567f3e1d92b2ff5,64e63663dbcaf322d2eec8da,64e702cc52f22cf9bc8bc95d,,,,,,,ctch,resources/DB.BMP,resources/DP.BMP,Door4,-0.393029514,0.035525174,1,0,0,1.0823,optionLeft,80,14625,7,9,0,9,0,1,,,,,,,,,,,,,,,,,,,,,,,,,,,,,,,,,,,,,,,
,,,,,,,,2023-08-24_08h12.53.173,HF_wild_card,2022.2.4,MacIntel,59.84082341,613e72b49567f3e1d92b2ff5,64e63663dbcaf322d2eec8da,64e702cc52f22cf9bc8bc95d,,,,,,,ctch,resources/DBN.BMP,resources/DR.BMP,Door3,0.37719184,0.043506944,1,0,0,1.0816,optionRight,70,14695,7,10,0,10,0,1,,,,,,,,,,,,,,,,,,,,,,,,,,,,,,,,,,,,,,,
,,,,,,,,2023-08-24_08h12.53.173,HF_wild_card,2022.2.4,MacIntel,59.84082341,613e72b49567f3e1d92b2ff5,64e63663dbcaf322d2eec8da,64e702cc52f22cf9bc8bc95d,,,,,,,ctch,resources/DBN.BMP,resources/DR.BMP,Door3,0.401922743,0.029648437,1,0,0,1.3032,optionRight,70,14765,7,11,0,11,0,1,,,,,,,,,,,,,,,,,,,,,,,,,,,,,,,,,,,,,,,
,,,,,,,,2023-08-24_08h12.53.173,HF_wild_card,2022.2.4,MacIntel,59.84082341,613e72b49567f3e1d92b2ff5,64e63663dbcaf322d2eec8da,64e702cc52f22cf9bc8bc95d,,,,,,,decisionTrl,resources/DB.BMP,resources/DR.BMP,Door3,0.401319444,0.054188368,1,0,0,1.4854,optionRight,70,14835,7,12,0,12,0,1,,,,,,,,,,,,,,,,,,,,,,,,,,,,,,,,,,,,,,,
,,,,,,,,2023-08-24_08h12.53.173,HF_wild_card,2022.2.4,MacIntel,59.84082341,613e72b49567f3e1d92b2ff5,64e63663dbcaf322d2eec8da,64e702cc52f22cf9bc8bc95d,,,,,,,decisionTrl,resources/DBN.BMP,resources/DP.BMP,Door2,-0.40766059,0.101844618,1,0,0,1.1683,optionLeft,40,14875,7,13,0,13,0,1,,,,,,,,,,,,,,,,,,,,,,,,,,,,,,,,,,,,,,,
,,,,,,,,2023-08-24_08h12.53.173,HF_wild_card,2022.2.4,MacIntel,59.84082341,613e72b49567f3e1d92b2ff5,64e63663dbcaf322d2eec8da,64e702cc52f22cf9bc8bc95d,,,,,,,ctch,resources/DP.BMP,resources/DB.BMP,Door4,0.388771701,0.050746528,1,0,0,1.1491,optionRight,60,14935,7,14,0,14,0,1,,,,,,,,,,,,,,,,,,,,,,,,,,,,,,,,,,,,,,,
,,,,,,,,2023-08-24_08h12.53.173,HF_wild_card,2022.2.4,MacIntel,59.84082341,613e72b49567f3e1d92b2ff5,64e63663dbcaf322d2eec8da,64e702cc52f22cf9bc8bc95d,,,,,,,decisionTrl,resources/DP.BMP,resources/DBN.BMP,Door2,0.406901042,0.096158854,1,0,0,1.4855,optionRight,20,14955,7,15,0,15,0,1,,,,,,,,,,,,,,,,,,,,,,,,,,,,,,,,,,,,,,,
,,,,,,,,2023-08-24_08h12.53.173,HF_wild_card,2022.2.4,MacIntel,59.84082341,613e72b49567f3e1d92b2ff5,64e63663dbcaf322d2eec8da,64e702cc52f22cf9bc8bc95d,,,,,,,decisionTrl,resources/DR.BMP,resources/DB.BMP,Door4,0.38780816,0.050251736,1,0,0,1.2334,optionRight,60,15015,7,16,0,16,0,1,,,,,,,,,,,,,,,,,,,,,,,,,,,,,,,,,,,,,,,
,,,,,,,,2023-08-24_08h12.53.173,HF_wild_card,2022.2.4,MacIntel,59.84082341,613e72b49567f3e1d92b2ff5,64e63663dbcaf322d2eec8da,64e702cc52f22cf9bc8bc95d,,,,,,,ctch,resources/DR.BMP,resources/DBN.BMP,Door3,-0.412912326,0.032400174,1,0,0,0.9286,optionLeft,70,15085,7,17,0,17,0,1,,,,,,,,,,,,,,,,,,,,,,,,,,,,,,,,,,,,,,,
,,,,,,,,2023-08-24_08h12.53.173,HF_wild_card,2022.2.4,MacIntel,59.84082341,613e72b49567f3e1d92b2ff5,64e63663dbcaf322d2eec8da,64e702cc52f22cf9bc8bc95d,,,,,,,decisionTrl,resources/DR.BMP,resources/DB.BMP,Door3,-0.388350694,0.048085938,1,0,0,1.3833,optionLeft,70,15155,7,18,0,18,0,1,,,,,,,,,,,,,,,,,,,,,,,,,,,,,,,,,,,,,,,
,,,,,,,,2023-08-24_08h12.53.173,HF_wild_card,2022.2.4,MacIntel,59.84082341,613e72b49567f3e1d92b2ff5,64e63663dbcaf322d2eec8da,64e702cc52f22cf9bc8bc95d,,,,,,,decisionTrl,resources/DR.BMP,resources/DB.BMP,Door4,0.389123264,0.04046441,1,0,0,1.1645,optionRight,80,15235,7,19,0,19,0,1,,,,,,,,,,,,,,,,,,,,,,,,,,,,,,,,,,,,,,,
,,,,,,,,2023-08-24_08h12.53.173,HF_wild_card,2022.2.4,MacIntel,59.84082341,613e72b49567f3e1d92b2ff5,64e63663dbcaf322d2eec8da,64e702cc52f22cf9bc8bc95d,,,,,,,decisionTrl,resources/DP.BMP,resources/DBN.BMP,Door2,0.38468316,0.055872396,1,0,0,1.3522,optionRight,20,15255,7,20,0,20,0,1,,,,,,,,,,,,,,,,,,,,,,,,,,,,,,,,,,,,,,,
,,,,,,,,2023-08-24_08h12.53.173,HF_wild_card,2022.2.4,MacIntel,59.84082341,613e72b49567f3e1d92b2ff5,64e63663dbcaf322d2eec8da,64e702cc52f22cf9bc8bc95d,,,,,,,ctch,resources/DB.BMP,resources/DP.BMP,Door4,-0.461184896,0.041202257,1,0,0,1.2516,optionLeft,60,15315,7,21,0,21,0,1,,,,,,,,,,,,,,,,,,,,,,,,,,,,,,,,,,,,,,,
,,,,,,,,2023-08-24_08h12.53.173,HF_wild_card,2022.2.4,MacIntel,59.84082341,613e72b49567f3e1d92b2ff5,64e63663dbcaf322d2eec8da,64e702cc52f22cf9bc8bc95d,,,,,,,decisionTrl,resources/DB.BMP,resources/DR.BMP,Door3,0.397113715,0.048780382,1,0,0,1.2831,optionRight,70,15385,7,22,0,22,0,1,,,,,,,,,,,,,,,,,,,,,,,,,,,,,,,,,,,,,,,
,,,,,,,,2023-08-24_08h12.53.173,HF_wild_card,2022.2.4,MacIntel,59.84082341,613e72b49567f3e1d92b2ff5,64e63663dbcaf322d2eec8da,64e702cc52f22cf9bc8bc95d,,,,,,,decisionTrl,resources/DR.BMP,resources/DB.BMP,Door4,0.402703993,0.052608507,1,0,0,1.3015,optionRight,80,15465,7,23,0,23,0,1,,,,,,,,,,,,,,,,,,,,,,,,,,,,,,,,,,,,,,,
,,,,,,,,2023-08-24_08h12.53.173,HF_wild_card,2022.2.4,MacIntel,59.84082341,613e72b49567f3e1d92b2ff5,64e63663dbcaf322d2eec8da,64e702cc52f22cf9bc8bc95d,,,,,,,decisionTrl,resources/DBN.BMP,resources/DP.BMP,Door2,-0.425963542,0.108732639,1,0,0,1.2858,optionLeft,40,15505,7,24,0,24,0,1,,,,,,,,,,,,,,,,,,,,,,,,,,,,,,,,,,,,,,,
,,,,,,,,2023-08-24_08h12.53.173,HF_wild_card,2022.2.4,MacIntel,59.84082341,613e72b49567f3e1d92b2ff5,64e63663dbcaf322d2eec8da,64e702cc52f22cf9bc8bc95d,,,,,,,decisionTrl,resources/DB.BMP,resources/DR.BMP,Door3,0.383198785,0.059830729,1,0,0,1.15,optionRight,70,15575,7,25,0,25,0,1,,,,,,,,,,,,,,,,,,,,,,,,,,,,,,,,,,,,,,,
,,,,,,,,2023-08-24_08h12.53.173,HF_wild_card,2022.2.4,MacIntel,59.84082341,613e72b49567f3e1d92b2ff5,64e63663dbcaf322d2eec8da,64e702cc52f22cf9bc8bc95d,,,,,,,decisionTrl,resources/DP.BMP,resources/DBN.BMP,Door2,0.414544271,0.09140625,1,0,0,1.3355,optionRight,20,15595,7,26,0,26,0,1,,,,,,,,,,,,,,,,,,,,,,,,,,,,,,,,,,,,,,,
,,,,,,,,2023-08-24_08h12.53.173,HF_wild_card,2022.2.4,MacIntel,59.84082341,613e72b49567f3e1d92b2ff5,64e63663dbcaf322d2eec8da,64e702cc52f22cf9bc8bc95d,,,,,,,decisionTrl,resources/DB.BMP,resources/DR.BMP,Door4,-0.395577257,0.022838542,1,0,0,0.9492,optionLeft,60,15655,7,27,0,27,0,1,,,,,,,,,,,,,,,,,,,,,,,,,,,,,,,,,,,,,,,
,,,,,,,,2023-08-24_08h12.53.173,HF_wild_card,2022.2.4,MacIntel,59.84082341,613e72b49567f3e1d92b2ff5,64e63663dbcaf322d2eec8da,64e702cc52f22cf9bc8bc95d,,,,,,,ctch,resources/DP.BMP,resources/DB.BMP,Door4,0.341280382,0.015447049,1,0,0,1.0302,optionRight,80,15735,7,28,0,28,0,1,,,,,,,,,,,,,,,,,,,,,,,,,,,,,,,,,,,,,,,
,,,,,,,,2023-08-24_08h12.53.173,HF_wild_card,2022.2.4,MacIntel,59.84082341,613e72b49567f3e1d92b2ff5,64e63663dbcaf322d2eec8da,64e702cc52f22cf9bc8bc95d,,,,,,,decisionTrl,resources/DBN.BMP,resources/DP.BMP,Door2,-0.368650174,0.086163194,1,0,0,1.2337,optionLeft,40,15775,7,29,0,29,0,1,,,,,,,,,,,,,,,,,,,,,,,,,,,,,,,,,,,,,,,
,,,,,,,,2023-08-24_08h12.53.173,HF_wild_card,2022.2.4,MacIntel,59.84082341,613e72b49567f3e1d92b2ff5,64e63663dbcaf322d2eec8da,64e702cc52f22cf9bc8bc95d,,,,,,,decisionTrl,resources/DR.BMP,resources/DB.BMP,Door4,0.391905382,0.035672743,1,0,0,1.0997,optionRight,80,15855,7,30,0,30,0,1,,,,,,,,,,,,,,,,,,,,,,,,,,,,,,,,,,,,,,,
,,,,,,,,2023-08-24_08h12.53.173,HF_wild_card,2022.2.4,MacIntel,59.84082341,613e72b49567f3e1d92b2ff5,64e63663dbcaf322d2eec8da,64e702cc52f22cf9bc8bc95d,,,,,,,decisionTrl,resources/DB.BMP,resources/DR.BMP,Door3,0.392300347,0.013515625,1,0,0,1.367,optionRight,70,15925,7,31,0,31,0,1,,,,,,,,,,,,,,,,,,,,,,,,,,,,,,,,,,,,,,,
,,,,,,,,2023-08-24_08h12.53.173,HF_wild_card,2022.2.4,MacIntel,59.84082341,613e72b49567f3e1d92b2ff5,64e63663dbcaf322d2eec8da,64e702cc52f22cf9bc8bc95d,,,,,,,decisionTrl,resources/DR.BMP,resources/DB.BMP,Door4,0.388020833,0.054817708,1,0,0,2.1326,optionRight,60,15985,7,32,0,32,0,1,,,,,,,,,,,,,,,,,,,,,,,,,,,,,,,,,,,,,,,
,,,,,,,,2023-08-24_08h12.53.173,HF_wild_card,2022.2.4,MacIntel,59.84082341,613e72b49567f3e1d92b2ff5,64e63663dbcaf322d2eec8da,64e702cc52f22cf9bc8bc95d,,,,,,,ctch,resources/DR.BMP,resources/DBN.BMP,Door3,-0.404852431,0.040733507,1,0,0,1.3183,optionLeft,70,16055,7,33,0,33,0,1,,,,,,,,,,,,,,,,,,,,,,,,,,,,,,,,,,,,,,,
,,,,,,,,2023-08-24_08h12.53.173,HF_wild_card,2022.2.4,MacIntel,59.84082341,613e72b49567f3e1d92b2ff5,64e63663dbcaf322d2eec8da,64e702cc52f22cf9bc8bc95d,,,,,,,decisionTrl,resources/DBN.BMP,resources/DP.BMP,Door2,-0.387395833,0.113229167,1,0,0,1.8202,optionLeft,40,16095,7,34,0,34,0,1,,,,,,,,,,,,,,,,,,,,,,,,,,,,,,,,,,,,,,,
,,,,,,,,2023-08-24_08h12.53.173,HF_wild_card,2022.2.4,MacIntel,59.84082341,613e72b49567f3e1d92b2ff5,64e63663dbcaf322d2eec8da,64e702cc52f22cf9bc8bc95d,,,,,,,decisionTrl,resources/DB.BMP,resources/DR.BMP,Door3,0.405811632,0.047625868,1,0,0,1.3338,optionRight,70,16165,7,35,0,35,0,1,,,,,,,,,,,,,,,,,,,,,,,,,,,,,,,,,,,,,,,
,,,,,,,,2023-08-24_08h12.53.173,HF_wild_card,2022.2.4,MacIntel,59.84082341,613e72b49567f3e1d92b2ff5,64e63663dbcaf322d2eec8da,64e702cc52f22cf9bc8bc95d,,,,,,,,,,,,,,,,,,,,,,,,,,6,0,6,0,1,,,,,,,,,,,,,,,,,,,,,,,,,,,,,,,,,,
,,,,,,,,2023-08-24_08h12.53.173,HF_wild_card,2022.2.4,MacIntel,59.84082341,613e72b49567f3e1d92b2ff5,64e63663dbcaf322d2eec8da,64e702cc52f22cf9bc8bc95d,,,,,,,,,,,,,,,,,,,,,,,,,,,,,,,4,,,,,,,,,,,,,,,,,,,,,,,,,,,,,,,,,
,,,,,,,,2023-08-24_08h12.53.173,HF_wild_card,2022.2.4,MacIntel,59.84082341,613e72b49567f3e1d92b2ff5,64e63663dbcaf322d2eec8da,64e702cc52f22cf9bc8bc95d,,,,,,,,,,,,,,,,,,,,,,,,,,,,,,,,,,,,,,,,,,,,,,,,,,,,,,,,,,,,,,,,
,,,,,,,,2023-08-24_08h12.53.173,HF_wild_card,2022.2.4,MacIntel,59.84082341,613e72b49567f3e1d92b2ff5,64e63663dbcaf322d2eec8da,64e702cc52f22cf9bc8bc95d,,,,,,,,,,,,,,,,,,,,,,,,,,,,,,,,30,Door1,resources/DP.BMP,0,0,0,0,1,,,,,,,,,,,,,,,,,,,,,,,,,
,,,,,,,,2023-08-24_08h12.53.173,HF_wild_card,2022.2.4,MacIntel,59.84082341,613e72b49567f3e1d92b2ff5,64e63663dbcaf322d2eec8da,64e702cc52f22cf9bc8bc95d,,,,,,,,,,,,,,,,,,,,,,,,,,,,,,,,40,WC_nonExtreme,resources/DY.BMP,1,0,1,0,1,,,,,,,,,,,,,,,,,,,,,,,,,
,,,,,,,,2023-08-24_08h12.53.173,HF_wild_card,2022.2.4,MacIntel,59.84082341,613e72b49567f3e1d92b2ff5,64e63663dbcaf322d2eec8da,64e702cc52f22cf9bc8bc95d,,,,,,,,,,,,,,,,,,,,,,,,,,,,,,,,20,Door2,resources/DBN.BMP,2,0,2,0,1,,,,,,,,,,,,,,,,,,,,,,,,,
,,,,,,,,2023-08-24_08h12.53.173,HF_wild_card,2022.2.4,MacIntel,59.84082341,613e72b49567f3e1d92b2ff5,64e63663dbcaf322d2eec8da,64e702cc52f22cf9bc8bc95d,,,,,,,,,,,,,,,,,,,,,,,,,,,,,,,,70,Door3,resources/DR.BMP,3,0,3,0,1,,,,,,,,,,,,,,,,,,,,,,,,,
