Condition,Low fixed image (Door1),Low risky image (Door2),High fixed image (Door3),High risky image (Door4),NonExtreme Wild Card 1,NonExtreme Wild Card 2,,date,expName,psychopyVersion,OS,frameRate,PROLIFIC_PID,STUDY_ID,SESSION_ID,mouse_2.x,mouse_2.y,mouse_2.leftButton,mouse_2.midButton,mouse_2.rightButton,mouse_2.clicked_name,Trial Type,Left Option Image,Right Option Image,Chosen Door,mouse.x,mouse.y,mouse.leftButton,mouse.midButton,mouse.rightButton,mouse.time,mouse.clicked_name,Feedback,Cumulative Reward,Block,trial.thisRepN,trial.thisTrialN,trial.thisN,trial.thisIndex,trial.ran,blocks.thisRepN,blocks.thisTrialN,blocks.thisN,blocks.thisIndex,blocks.ran,Money conversion,First Outcome Reported,Shown Door (First Outcome),Displayed Image (First Outcome),outcomes.thisRepN,outcomes.thisTrialN,outcomes.thisN,outcomes.thisIndex,outcomes.ran,judgments.thisRepN,judgments.thisTrialN,judgments.thisN,judgments.thisIndex,judgments.ran,freqMouse.x,freqMouse.y,freqMouse.leftButton,freqMouse.midButton,freqMouse.rightButton,freqMouse.clicked_name,FQJ for first outcome,FQJ for second outcome,Shown Door,Displayed Image,trials.thisRepN,trials.thisTrialN,trials.thisN,trials.thisIndex,trials.ran,judgBlock.thisRepN,judgBlock.thisTrialN,judgBlock.thisN,judgBlock.thisIndex,judgBlock.ran
2,resources/DBN.BMP,resources/DB.BMP,resources/DR.BMP,resources/DP.BMP,resources/DY.BMP,resources/DG.BMP,,2023-08-03_08h02.06.579,HF_wild_card,2022.2.4,MacIntel,55.55555556,63d7be523261fcaf84e94668,64b543b0a84ad6ab4a25b86a,64cb5075f8aa335d717cb388,,,,,,,,,,,,,,,,,,,,,,,,,,,,,,,,,,,,,,,,,,,,,,,,,,,,,,,,,,,,,,,,
,,,,,,,,2023-08-03_08h02.06.579,HF_wild_card,2022.2.4,MacIntel,55.55555556,63d7be523261fcaf84e94668,64b543b0a84ad6ab4a25b86a,64cb5075f8aa335d717cb388,0.0025,-0.41,1,0,0,agree,,,,,,,,,,,,,,,,,,,,,,,,,,,,,,,,,,,,,,,,,,,,,,,,,,,,,,,,,,
,,,,,,,,2023-08-03_08h02.06.579,HF_wild_card,2022.2.4,MacIntel,55.55555556,63d7be523261fcaf84e94668,64b543b0a84ad6ab4a25b86a,64cb5075f8aa335d717cb388,,,,,,,,,,,,,,,,,,,,,,,,,,,,,,,,,,,,,,,,,,,,,,,,,,,,,,,,,,,,,,,,
,,,,,,,,2023-08-03_08h02.06.579,HF_wild_card,2022.2.4,MacIntel,55.55555556,63d7be523261fcaf84e94668,64b543b0a84ad6ab4a25b86a,64cb5075f8aa335d717cb388,,,,,,,decisionTrl,resources/DP.BMP,resources/DR.BMP,Door4,-0.29,-0.18875,1,0,0,1.968,optionLeft,80,80,1,0,0,0,0,1,,,,,,,,,,,,,,,,,,,,,,,,,,,,,,,,,,,,,,,
,,,,,,,,2023-08-03_08h02.06.579,HF_wild_card,2022.2.4,MacIntel,55.55555556,63d7be523261fcaf84e94668,64b543b0a84ad6ab4a25b86a,64cb5075f8aa335d717cb388,,,,,,,decisionTrl,resources/DG.BMP,resources/DBN.BMP,Door1,0.3275,-0.12625,1,0,0,2.791,optionRight,30,110,1,1,0,1,0,1,,,,,,,,,,,,,,,,,,,,,,,,,,,,,,,,,,,,,,,
,,,,,,,,2023-08-03_08h02.06.579,HF_wild_card,2022.2.4,MacIntel,55.55555556,63d7be523261fcaf84e94668,64b543b0a84ad6ab4a25b86a,64cb5075f8aa335d717cb388,,,,,,,sngl,resources/DB.BMP,resources/Empty.png,Door2,-0.32875,-0.07,1,0,0,1.109,optionLeft,40,150,1,2,0,2,0,1,,,,,,,,,,,,,,,,,,,,,,,,,,,,,,,,,,,,,,,
,,,,,,,,2023-08-03_08h02.06.579,HF_wild_card,2022.2.4,MacIntel,55.55555556,63d7be523261fcaf84e94668,64b543b0a84ad6ab4a25b86a,64cb5075f8aa335d717cb388,,,,,,,decisionTrl,resources/DG.BMP,resources/DB.BMP,WildCard_NonEx,-0.2775,-0.07625,1,0,0,1.364,optionLeft,55,205,1,3,0,3,0,1,,,,,,,,,,,,,,,,,,,,,,,,,,,,,,,,,,,,,,,
,,,,,,,,2023-08-03_08h02.06.579,HF_wild_card,2022.2.4,MacIntel,55.55555556,63d7be523261fcaf84e94668,64b543b0a84ad6ab4a25b86a,64cb5075f8aa335d717cb388,,,,,,,decisionTrl,resources/DR.BMP,resources/DP.BMP,Door3,-0.35875,-0.14625,1,0,0,1.063,optionLeft,70,275,1,4,0,4,0,1,,,,,,,,,,,,,,,,,,,,,,,,,,,,,,,,,,,,,,,
,,,,,,,,2023-08-03_08h02.06.579,HF_wild_card,2022.2.4,MacIntel,55.55555556,63d7be523261fcaf84e94668,64b543b0a84ad6ab4a25b86a,64cb5075f8aa335d717cb388,,,,,,,decisionTrl,resources/DP.BMP,resources/DR.BMP,Door4,-0.33,-0.08625,1,0,0,0.774,optionLeft,80,355,1,5,0,5,0,1,,,,,,,,,,,,,,,,,,,,,,,,,,,,,,,,,,,,,,,
,,,,,,,,2023-08-03_08h02.06.579,HF_wild_card,2022.2.4,MacIntel,55.55555556,63d7be523261fcaf84e94668,64b543b0a84ad6ab4a25b86a,64cb5075f8aa335d717cb388,,,,,,,decisionTrl,resources/DB.BMP,resources/DBN.BMP,Door2,-0.3075,-0.03125,1,0,0,1.329,optionLeft,40,395,1,6,0,6,0,1,,,,,,,,,,,,,,,,,,,,,,,,,,,,,,,,,,,,,,,
,,,,,,,,2023-08-03_08h02.06.579,HF_wild_card,2022.2.4,MacIntel,55.55555556,63d7be523261fcaf84e94668,64b543b0a84ad6ab4a25b86a,64cb5075f8aa335d717cb388,,,,,,,decisionTrl,resources/DB.BMP,resources/DBN.BMP,Door2,-0.37,-0.015,1,0,0,0.695,optionLeft,40,435,1,7,0,7,0,1,,,,,,,,,,,,,,,,,,,,,,,,,,,,,,,,,,,,,,,
,,,,,,,,2023-08-03_08h02.06.579,HF_wild_card,2022.2.4,MacIntel,55.55555556,63d7be523261fcaf84e94668,64b543b0a84ad6ab4a25b86a,64cb5075f8aa335d717cb388,,,,,,,decisionTrl,resources/DG.BMP,resources/DR.BMP,Door3,0.4475,-0.11625,1,0,0,2.013,optionRight,70,505,1,8,0,8,0,1,,,,,,,,,,,,,,,,,,,,,,,,,,,,,,,,,,,,,,,
,,,,,,,,2023-08-03_08h02.06.579,HF_wild_card,2022.2.4,MacIntel,55.55555556,63d7be523261fcaf84e94668,64b543b0a84ad6ab4a25b86a,64cb5075f8aa335d717cb388,,,,,,,sngl,resources/DG.BMP,resources/Empty.png,WildCard_NonEx,-0.29875,-0.03875,1,0,0,1.142,optionLeft,55,560,1,9,0,9,0,1,,,,,,,,,,,,,,,,,,,,,,,,,,,,,,,,,,,,,,,
,,,,,,,,2023-08-03_08h02.06.579,HF_wild_card,2022.2.4,MacIntel,55.55555556,63d7be523261fcaf84e94668,64b543b0a84ad6ab4a25b86a,64cb5075f8aa335d717cb388,,,,,,,ctch,resources/DB.BMP,resources/DR.BMP,Door3,0.38625,-0.03375,1,0,0,1.395,optionRight,70,630,1,10,0,10,0,1,,,,,,,,,,,,,,,,,,,,,,,,,,,,,,,,,,,,,,,
,,,,,,,,2023-08-03_08h02.06.579,HF_wild_card,2022.2.4,MacIntel,55.55555556,63d7be523261fcaf84e94668,64b543b0a84ad6ab4a25b86a,64cb5075f8aa335d717cb388,,,,,,,decisionTrl,resources/DP.BMP,resources/DR.BMP,Door4,-0.29875,-0.0825,1,0,0,0.759,optionLeft,80,710,1,11,0,11,0,1,,,,,,,,,,,,,,,,,,,,,,,,,,,,,,,,,,,,,,,
,,,,,,,,2023-08-03_08h02.06.579,HF_wild_card,2022.2.4,MacIntel,55.55555556,63d7be523261fcaf84e94668,64b543b0a84ad6ab4a25b86a,64cb5075f8aa335d717cb388,,,,,,,sngl,resources/DBN.BMP,resources/Empty.png,Door1,-0.37625,-0.00875,1,0,0,0.982,optionLeft,30,740,1,12,0,12,0,1,,,,,,,,,,,,,,,,,,,,,,,,,,,,,,,,,,,,,,,
,,,,,,,,2023-08-03_08h02.06.579,HF_wild_card,2022.2.4,MacIntel,55.55555556,63d7be523261fcaf84e94668,64b543b0a84ad6ab4a25b86a,64cb5075f8aa335d717cb388,,,,,,,decisionTrl,resources/DB.BMP,resources/DG.BMP,Door2,-0.43375,-0.03,1,0,0,2.294,optionLeft,20,760,1,13,0,13,0,1,,,,,,,,,,,,,,,,,,,,,,,,,,,,,,,,,,,,,,,
,,,,,,,,2023-08-03_08h02.06.579,HF_wild_card,2022.2.4,MacIntel,55.55555556,63d7be523261fcaf84e94668,64b543b0a84ad6ab4a25b86a,64cb5075f8aa335d717cb388,,,,,,,decisionTrl,resources/DBN.BMP,resources/DB.BMP,Door1,-0.32875,-0.05,1,0,0,1.173,optionLeft,30,790,1,14,0,14,0,1,,,,,,,,,,,,,,,,,,,,,,,,,,,,,,,,,,,,,,,
,,,,,,,,2023-08-03_08h02.06.579,HF_wild_card,2022.2.4,MacIntel,55.55555556,63d7be523261fcaf84e94668,64b543b0a84ad6ab4a25b86a,64cb5075f8aa335d717cb388,,,,,,,sngl,resources/Empty.png,resources/DP.BMP,Door4,0.3375,-0.0775,1,0,0,0.724,optionRight,60,850,1,15,0,15,0,1,,,,,,,,,,,,,,,,,,,,,,,,,,,,,,,,,,,,,,,
,,,,,,,,2023-08-03_08h02.06.579,HF_wild_card,2022.2.4,MacIntel,55.55555556,63d7be523261fcaf84e94668,64b543b0a84ad6ab4a25b86a,64cb5075f8aa335d717cb388,,,,,,,ctch,resources/DR.BMP,resources/DB.BMP,Door3,-0.3775,-0.04125,1,0,0,1.195,optionLeft,70,920,1,16,0,16,0,1,,,,,,,,,,,,,,,,,,,,,,,,,,,,,,,,,,,,,,,
,,,,,,,,2023-08-03_08h02.06.579,HF_wild_card,2022.2.4,MacIntel,55.55555556,63d7be523261fcaf84e94668,64b543b0a84ad6ab4a25b86a,64cb5075f8aa335d717cb388,,,,,,,ctch,resources/DP.BMP,resources/DBN.BMP,Door4,-0.31125,-0.055,1,0,0,0.893,optionLeft,80,1000,1,17,0,17,0,1,,,,,,,,,,,,,,,,,,,,,,,,,,,,,,,,,,,,,,,
,,,,,,,,2023-08-03_08h02.06.579,HF_wild_card,2022.2.4,MacIntel,55.55555556,63d7be523261fcaf84e94668,64b543b0a84ad6ab4a25b86a,64cb5075f8aa335d717cb388,,,,,,,sngl,resources/Empty.png,resources/DG.BMP,WildCard_NonEx,0.3975,-0.00875,1,0,0,1.275,optionRight,45,1045,1,18,0,18,0,1,,,,,,,,,,,,,,,,,,,,,,,,,,,,,,,,,,,,,,,
,,,,,,,,2023-08-03_08h02.06.579,HF_wild_card,2022.2.4,MacIntel,55.55555556,63d7be523261fcaf84e94668,64b543b0a84ad6ab4a25b86a,64cb5075f8aa335d717cb388,,,,,,,decisionTrl,resources/DP.BMP,resources/DR.BMP,Door4,-0.3625,-0.065,1,0,0,0.838,optionLeft,80,1125,1,19,0,19,0,1,,,,,,,,,,,,,,,,,,,,,,,,,,,,,,,,,,,,,,,
,,,,,,,,2023-08-03_08h02.06.579,HF_wild_card,2022.2.4,MacIntel,55.55555556,63d7be523261fcaf84e94668,64b543b0a84ad6ab4a25b86a,64cb5075f8aa335d717cb388,,,,,,,decisionTrl,resources/DBN.BMP,resources/DB.BMP,Door1,-0.43125,-0.0375,1,0,0,1.619,optionLeft,30,1155,1,20,0,20,0,1,,,,,,,,,,,,,,,,,,,,,,,,,,,,,,,,,,,,,,,
,,,,,,,,2023-08-03_08h02.06.579,HF_wild_card,2022.2.4,MacIntel,55.55555556,63d7be523261fcaf84e94668,64b543b0a84ad6ab4a25b86a,64cb5075f8aa335d717cb388,,,,,,,decisionTrl,resources/DBN.BMP,resources/DB.BMP,Door1,-0.30875,-0.025,1,0,0,1.131,optionLeft,30,1185,1,21,0,21,0,1,,,,,,,,,,,,,,,,,,,,,,,,,,,,,,,,,,,,,,,
,,,,,,,,2023-08-03_08h02.06.579,HF_wild_card,2022.2.4,MacIntel,55.55555556,63d7be523261fcaf84e94668,64b543b0a84ad6ab4a25b86a,64cb5075f8aa335d717cb388,,,,,,,sngl,resources/DG.BMP,resources/Empty.png,WildCard_NonEx,-0.32,-0.01375,1,0,0,0.693,optionLeft,45,1230,1,22,0,22,0,1,,,,,,,,,,,,,,,,,,,,,,,,,,,,,,,,,,,,,,,
,,,,,,,,2023-08-03_08h02.06.579,HF_wild_card,2022.2.4,MacIntel,55.55555556,63d7be523261fcaf84e94668,64b543b0a84ad6ab4a25b86a,64cb5075f8aa335d717cb388,,,,,,,ctch,resources/DB.BMP,resources/DR.BMP,Door3,0.43625,-0.1325,1,0,0,1.632,optionRight,70,1300,1,23,0,23,0,1,,,,,,,,,,,,,,,,,,,,,,,,,,,,,,,,,,,,,,,
,,,,,,,,2023-08-03_08h02.06.579,HF_wild_card,2022.2.4,MacIntel,55.55555556,63d7be523261fcaf84e94668,64b543b0a84ad6ab4a25b86a,64cb5075f8aa335d717cb388,,,,,,,ctch,resources/DR.BMP,resources/DB.BMP,Door3,-0.29375,-0.0375,1,0,0,0.756,optionLeft,70,1370,1,24,0,24,0,1,,,,,,,,,,,,,,,,,,,,,,,,,,,,,,,,,,,,,,,
,,,,,,,,2023-08-03_08h02.06.579,HF_wild_card,2022.2.4,MacIntel,55.55555556,63d7be523261fcaf84e94668,64b543b0a84ad6ab4a25b86a,64cb5075f8aa335d717cb388,,,,,,,sngl,resources/Empty.png,resources/DG.BMP,WildCard_NonEx,0.35,-0.02,1,0,0,0.805,optionRight,55,1425,1,25,0,25,0,1,,,,,,,,,,,,,,,,,,,,,,,,,,,,,,,,,,,,,,,
,,,,,,,,2023-08-03_08h02.06.579,HF_wild_card,2022.2.4,MacIntel,55.55555556,63d7be523261fcaf84e94668,64b543b0a84ad6ab4a25b86a,64cb5075f8aa335d717cb388,,,,,,,decisionTrl,resources/DR.BMP,resources/DP.BMP,Door4,0.29625,-0.01,1,0,0,0.853,optionRight,80,1505,1,26,0,26,0,1,,,,,,,,,,,,,,,,,,,,,,,,,,,,,,,,,,,,,,,
,,,,,,,,2023-08-03_08h02.06.579,HF_wild_card,2022.2.4,MacIntel,55.55555556,63d7be523261fcaf84e94668,64b543b0a84ad6ab4a25b86a,64cb5075f8aa335d717cb388,,,,,,,sngl,resources/DR.BMP,resources/Empty.png,Door3,-0.3525,-0.03625,1,0,0,0.633,optionLeft,70,1575,1,27,0,27,0,1,,,,,,,,,,,,,,,,,,,,,,,,,,,,,,,,,,,,,,,
,,,,,,,,2023-08-03_08h02.06.579,HF_wild_card,2022.2.4,MacIntel,55.55555556,63d7be523261fcaf84e94668,64b543b0a84ad6ab4a25b86a,64cb5075f8aa335d717cb388,,,,,,,decisionTrl,resources/DR.BMP,resources/DP.BMP,Door4,0.2775,-0.11625,1,0,0,0.947,optionRight,80,1655,1,28,0,28,0,1,,,,,,,,,,,,,,,,,,,,,,,,,,,,,,,,,,,,,,,
,,,,,,,,2023-08-03_08h02.06.579,HF_wild_card,2022.2.4,MacIntel,55.55555556,63d7be523261fcaf84e94668,64b543b0a84ad6ab4a25b86a,64cb5075f8aa335d717cb388,,,,,,,sngl,resources/Empty.png,resources/DBN.BMP,Door1,0.335,-0.0375,1,0,0,0.733,optionRight,30,1685,1,29,0,29,0,1,,,,,,,,,,,,,,,,,,,,,,,,,,,,,,,,,,,,,,,
,,,,,,,,2023-08-03_08h02.06.579,HF_wild_card,2022.2.4,MacIntel,55.55555556,63d7be523261fcaf84e94668,64b543b0a84ad6ab4a25b86a,64cb5075f8aa335d717cb388,,,,,,,decisionTrl,resources/DB.BMP,resources/DBN.BMP,Door2,-0.35875,-0.09625,1,0,0,1.867,optionLeft,20,1705,1,30,0,30,0,1,,,,,,,,,,,,,,,,,,,,,,,,,,,,,,,,,,,,,,,
,,,,,,,,2023-08-03_08h02.06.579,HF_wild_card,2022.2.4,MacIntel,55.55555556,63d7be523261fcaf84e94668,64b543b0a84ad6ab4a25b86a,64cb5075f8aa335d717cb388,,,,,,,ctch,resources/DBN.BMP,resources/DP.BMP,Door4,0.355,-0.02125,1,0,0,1.014,optionRight,80,1785,1,31,0,31,0,1,,,,,,,,,,,,,,,,,,,,,,,,,,,,,,,,,,,,,,,
,,,,,,,,2023-08-03_08h02.06.579,HF_wild_card,2022.2.4,MacIntel,55.55555556,63d7be523261fcaf84e94668,64b543b0a84ad6ab4a25b86a,64cb5075f8aa335d717cb388,,,,,,,sngl,resources/DP.BMP,resources/Empty.png,Door4,-0.2975,-0.02,1,0,0,0.666,optionLeft,80,1865,1,32,0,32,0,1,,,,,,,,,,,,,,,,,,,,,,,,,,,,,,,,,,,,,,,
,,,,,,,,2023-08-03_08h02.06.579,HF_wild_card,2022.2.4,MacIntel,55.55555556,63d7be523261fcaf84e94668,64b543b0a84ad6ab4a25b86a,64cb5075f8aa335d717cb388,,,,,,,decisionTrl,resources/DB.BMP,resources/DBN.BMP,Door1,0.34875,-0.00375,1,0,0,1.139,optionRight,30,1895,1,33,0,33,0,1,,,,,,,,,,,,,,,,,,,,,,,,,,,,,,,,,,,,,,,
,,,,,,,,2023-08-03_08h02.06.579,HF_wild_card,2022.2.4,MacIntel,55.55555556,63d7be523261fcaf84e94668,64b543b0a84ad6ab4a25b86a,64cb5075f8aa335d717cb388,,,,,,,decisionTrl,resources/DP.BMP,resources/DG.BMP,Door4,-0.30875,-0.0125,1,0,0,0.657,optionLeft,60,1955,1,34,0,34,0,1,,,,,,,,,,,,,,,,,,,,,,,,,,,,,,,,,,,,,,,
,,,,,,,,2023-08-03_08h02.06.579,HF_wild_card,2022.2.4,MacIntel,55.55555556,63d7be523261fcaf84e94668,64b543b0a84ad6ab4a25b86a,64cb5075f8aa335d717cb388,,,,,,,decisionTrl,resources/DR.BMP,resources/DG.BMP,WildCard_NonEx,0.3275,-0.0125,1,0,0,1.292,optionRight,55,2010,1,35,0,35,0,1,,,,,,,,,,,,,,,,,,,,,,,,,,,,,,,,,,,,,,,
,,,,,,,,2023-08-03_08h02.06.579,HF_wild_card,2022.2.4,MacIntel,55.55555556,63d7be523261fcaf84e94668,64b543b0a84ad6ab4a25b86a,64cb5075f8aa335d717cb388,,,,,,,sngl,resources/Empty.png,resources/DB.BMP,Door2,0.25625,-0.0225,1,0,0,0.755,optionRight,20,2030,1,36,0,36,0,1,,,,,,,,,,,,,,,,,,,,,,,,,,,,,,,,,,,,,,,
,,,,,,,,2023-08-03_08h02.06.579,HF_wild_card,2022.2.4,MacIntel,55.55555556,63d7be523261fcaf84e94668,64b543b0a84ad6ab4a25b86a,64cb5075f8aa335d717cb388,,,,,,,sngl,resources/Empty.png,resources/DR.BMP,Door3,0.2825,-0.0375,1,0,0,0.584,optionRight,70,2100,1,37,0,37,0,1,,,,,,,,,,,,,,,,,,,,,,,,,,,,,,,,,,,,,,,
,,,,,,,,2023-08-03_08h02.06.579,HF_wild_card,2022.2.4,MacIntel,55.55555556,63d7be523261fcaf84e94668,64b543b0a84ad6ab4a25b86a,64cb5075f8aa335d717cb388,,,,,,,ctch,resources/DBN.BMP,resources/DP.BMP,Door4,0.2825,0.0075,1,0,0,1.295,optionRight,80,2180,1,38,0,38,0,1,,,,,,,,,,,,,,,,,,,,,,,,,,,,,,,,,,,,,,,
,,,,,,,,2023-08-03_08h02.06.579,HF_wild_card,2022.2.4,MacIntel,55.55555556,63d7be523261fcaf84e94668,64b543b0a84ad6ab4a25b86a,64cb5075f8aa335d717cb388,,,,,,,ctch,resources/DP.BMP,resources/DBN.BMP,Door4,-0.265,-0.005,1,0,0,0.79,optionLeft,60,2240,1,39,0,39,0,1,,,,,,,,,,,,,,,,,,,,,,,,,,,,,,,,,,,,,,,
,,,,,,,,2023-08-03_08h02.06.579,HF_wild_card,2022.2.4,MacIntel,55.55555556,63d7be523261fcaf84e94668,64b543b0a84ad6ab4a25b86a,64cb5075f8aa335d717cb388,,,,,,,decisionTrl,resources/DBN.BMP,resources/DB.BMP,Door1,-0.36875,0.00625,1,0,0,1.224,optionLeft,30,2270,1,40,0,40,0,1,,,,,,,,,,,,,,,,,,,,,,,,,,,,,,,,,,,,,,,
,,,,,,,,2023-08-03_08h02.06.579,HF_wild_card,2022.2.4,MacIntel,55.55555556,63d7be523261fcaf84e94668,64b543b0a84ad6ab4a25b86a,64cb5075f8aa335d717cb388,,,,,,,decisionTrl,resources/DR.BMP,resources/DP.BMP,Door3,-0.27875,-0.0375,1,0,0,0.643,optionLeft,70,2340,1,41,0,41,0,1,,,,,,,,,,,,,,,,,,,,,,,,,,,,,,,,,,,,,,,
,,,,,,,,2023-08-03_08h02.06.579,HF_wild_card,2022.2.4,MacIntel,55.55555556,63d7be523261fcaf84e94668,64b543b0a84ad6ab4a25b86a,64cb5075f8aa335d717cb388,,,,,,,decisionTrl,resources/DG.BMP,resources/DP.BMP,Door4,0.37875,-0.05625,1,0,0,1.344,optionRight,60,2400,1,42,0,42,0,1,,,,,,,,,,,,,,,,,,,,,,,,,,,,,,,,,,,,,,,
,,,,,,,,2023-08-03_08h02.06.579,HF_wild_card,2022.2.4,MacIntel,55.55555556,63d7be523261fcaf84e94668,64b543b0a84ad6ab4a25b86a,64cb5075f8aa335d717cb388,,,,,,,decisionTrl,resources/DBN.BMP,resources/DG.BMP,WildCard_NonEx,0.24375,-0.0525,1,0,0,1.042,optionRight,45,2445,1,43,0,43,0,1,,,,,,,,,,,,,,,,,,,,,,,,,,,,,,,,,,,,,,,
,,,,,,,,2023-08-03_08h02.06.579,HF_wild_card,2022.2.4,MacIntel,55.55555556,63d7be523261fcaf84e94668,64b543b0a84ad6ab4a25b86a,64cb5075f8aa335d717cb388,,,,,,,,,,,,,,,,,,,,,,,,,,0,0,0,0,1,,,,,,,,,,,,,,,,,,,,,,,,,,,,,,,,,,
,,,,,,,,2023-08-03_08h02.06.579,HF_wild_card,2022.2.4,MacIntel,55.55555556,63d7be523261fcaf84e94668,64b543b0a84ad6ab4a25b86a,64cb5075f8aa335d717cb388,,,,,,,decisionTrl,resources/DP.BMP,resources/DR.BMP,Door4,-0.4,-0.1125,1,0,0,0.711,optionLeft,80,2525,2,0,0,0,0,1,,,,,,,,,,,,,,,,,,,,,,,,,,,,,,,,,,,,,,,
,,,,,,,,2023-08-03_08h02.06.579,HF_wild_card,2022.2.4,MacIntel,55.55555556,63d7be523261fcaf84e94668,64b543b0a84ad6ab4a25b86a,64cb5075f8aa335d717cb388,,,,,,,decisionTrl,resources/DG.BMP,resources/DP.BMP,Door4,0.39625,-0.12,1,0,0,0.632,optionRight,80,2605,2,1,0,1,0,1,,,,,,,,,,,,,,,,,,,,,,,,,,,,,,,,,,,,,,,
,,,,,,,,2023-08-03_08h02.06.579,HF_wild_card,2022.2.4,MacIntel,55.55555556,63d7be523261fcaf84e94668,64b543b0a84ad6ab4a25b86a,64cb5075f8aa335d717cb388,,,,,,,decisionTrl,resources/DBN.BMP,resources/DG.BMP,WildCard_NonEx,0.47875,-0.14875,1,0,0,1.429,optionRight,55,2660,2,2,0,2,0,1,,,,,,,,,,,,,,,,,,,,,,,,,,,,,,,,,,,,,,,
,,,,,,,,2023-08-03_08h02.06.579,HF_wild_card,2022.2.4,MacIntel,55.55555556,63d7be523261fcaf84e94668,64b543b0a84ad6ab4a25b86a,64cb5075f8aa335d717cb388,,,,,,,ctch,resources/DP.BMP,resources/DBN.BMP,Door4,-0.3375,0.005,1,0,0,0.657,optionLeft,60,2720,2,3,0,3,0,1,,,,,,,,,,,,,,,,,,,,,,,,,,,,,,,,,,,,,,,
,,,,,,,,2023-08-03_08h02.06.579,HF_wild_card,2022.2.4,MacIntel,55.55555556,63d7be523261fcaf84e94668,64b543b0a84ad6ab4a25b86a,64cb5075f8aa335d717cb388,,,,,,,decisionTrl,resources/DP.BMP,resources/DR.BMP,Door4,-0.47875,-0.16,1,0,0,0.668,optionLeft,60,2780,2,4,0,4,0,1,,,,,,,,,,,,,,,,,,,,,,,,,,,,,,,,,,,,,,,
,,,,,,,,2023-08-03_08h02.06.579,HF_wild_card,2022.2.4,MacIntel,55.55555556,63d7be523261fcaf84e94668,64b543b0a84ad6ab4a25b86a,64cb5075f8aa335d717cb388,,,,,,,ctch,resources/DB.BMP,resources/DR.BMP,Door3,0.28375,-0.04375,1,0,0,0.629,optionRight,70,2850,2,5,0,5,0,1,,,,,,,,,,,,,,,,,,,,,,,,,,,,,,,,,,,,,,,
,,,,,,,,2023-08-03_08h02.06.579,HF_wild_card,2022.2.4,MacIntel,55.55555556,63d7be523261fcaf84e94668,64b543b0a84ad6ab4a25b86a,64cb5075f8aa335d717cb388,,,,,,,ctch,resources/DBN.BMP,resources/DP.BMP,Door4,0.355,0.01875,1,0,0,1.023,optionRight,80,2930,2,6,0,6,0,1,,,,,,,,,,,,,,,,,,,,,,,,,,,,,,,,,,,,,,,
,,,,,,,,2023-08-03_08h02.06.579,HF_wild_card,2022.2.4,MacIntel,55.55555556,63d7be523261fcaf84e94668,64b543b0a84ad6ab4a25b86a,64cb5075f8aa335d717cb388,,,,,,,decisionTrl,resources/DB.BMP,resources/DBN.BMP,Door1,0.2975,-0.1075,1,0,0,1.244,optionRight,30,2960,2,7,0,7,0,1,,,,,,,,,,,,,,,,,,,,,,,,,,,,,,,,,,,,,,,
,,,,,,,,2023-08-03_08h02.06.579,HF_wild_card,2022.2.4,MacIntel,55.55555556,63d7be523261fcaf84e94668,64b543b0a84ad6ab4a25b86a,64cb5075f8aa335d717cb388,,,,,,,sngl,resources/Empty.png,resources/DG.BMP,WildCard_NonEx,0.285,-0.04,1,0,0,0.721,optionRight,55,3015,2,8,0,8,0,1,,,,,,,,,,,,,,,,,,,,,,,,,,,,,,,,,,,,,,,
,,,,,,,,2023-08-03_08h02.06.579,HF_wild_card,2022.2.4,MacIntel,55.55555556,63d7be523261fcaf84e94668,64b543b0a84ad6ab4a25b86a,64cb5075f8aa335d717cb388,,,,,,,decisionTrl,resources/DBN.BMP,resources/DB.BMP,Door1,-0.34625,-0.1075,1,0,0,0.678,optionLeft,30,3045,2,9,0,9,0,1,,,,,,,,,,,,,,,,,,,,,,,,,,,,,,,,,,,,,,,
,,,,,,,,2023-08-03_08h02.06.579,HF_wild_card,2022.2.4,MacIntel,55.55555556,63d7be523261fcaf84e94668,64b543b0a84ad6ab4a25b86a,64cb5075f8aa335d717cb388,,,,,,,decisionTrl,resources/DB.BMP,resources/DBN.BMP,Door1,0.3475,-0.10125,1,0,0,0.825,optionRight,30,3075,2,10,0,10,0,1,,,,,,,,,,,,,,,,,,,,,,,,,,,,,,,,,,,,,,,
,,,,,,,,2023-08-03_08h02.06.579,HF_wild_card,2022.2.4,MacIntel,55.55555556,63d7be523261fcaf84e94668,64b543b0a84ad6ab4a25b86a,64cb5075f8aa335d717cb388,,,,,,,decisionTrl,resources/DR.BMP,resources/DP.BMP,Door3,-0.38375,-0.04125,1,0,0,1.023,optionLeft,70,3145,2,11,0,11,0,1,,,,,,,,,,,,,,,,,,,,,,,,,,,,,,,,,,,,,,,
,,,,,,,,2023-08-03_08h02.06.579,HF_wild_card,2022.2.4,MacIntel,55.55555556,63d7be523261fcaf84e94668,64b543b0a84ad6ab4a25b86a,64cb5075f8aa335d717cb388,,,,,,,sngl,resources/Empty.png,resources/DP.BMP,Door4,0.31125,-0.0225,1,0,0,0.643,optionRight,80,3225,2,12,0,12,0,1,,,,,,,,,,,,,,,,,,,,,,,,,,,,,,,,,,,,,,,
,,,,,,,,2023-08-03_08h02.06.579,HF_wild_card,2022.2.4,MacIntel,55.55555556,63d7be523261fcaf84e94668,64b543b0a84ad6ab4a25b86a,64cb5075f8aa335d717cb388,,,,,,,sngl,resources/Empty.png,resources/DG.BMP,WildCard_NonEx,0.245,-0.01375,1,0,0,0.663,optionRight,45,3270,2,13,0,13,0,1,,,,,,,,,,,,,,,,,,,,,,,,,,,,,,,,,,,,,,,
,,,,,,,,2023-08-03_08h02.06.579,HF_wild_card,2022.2.4,MacIntel,55.55555556,63d7be523261fcaf84e94668,64b543b0a84ad6ab4a25b86a,64cb5075f8aa335d717cb388,,,,,,,sngl,resources/Empty.png,resources/DR.BMP,Door3,0.265,-0.0675,1,0,0,0.746,optionRight,70,3340,2,14,0,14,0,1,,,,,,,,,,,,,,,,,,,,,,,,,,,,,,,,,,,,,,,
,,,,,,,,2023-08-03_08h02.06.579,HF_wild_card,2022.2.4,MacIntel,55.55555556,63d7be523261fcaf84e94668,64b543b0a84ad6ab4a25b86a,64cb5075f8aa335d717cb388,,,,,,,sngl,resources/DP.BMP,resources/Empty.png,Door4,-0.26,-0.0225,1,0,0,0.567,optionLeft,60,3400,2,15,0,15,0,1,,,,,,,,,,,,,,,,,,,,,,,,,,,,,,,,,,,,,,,
,,,,,,,,2023-08-03_08h02.06.579,HF_wild_card,2022.2.4,MacIntel,55.55555556,63d7be523261fcaf84e94668,64b543b0a84ad6ab4a25b86a,64cb5075f8aa335d717cb388,,,,,,,sngl,resources/DB.BMP,resources/Empty.png,Door2,-0.24125,-0.01,1,0,0,0.762,optionLeft,20,3420,2,16,0,16,0,1,,,,,,,,,,,,,,,,,,,,,,,,,,,,,,,,,,,,,,,
,,,,,,,,2023-08-03_08h02.06.579,HF_wild_card,2022.2.4,MacIntel,55.55555556,63d7be523261fcaf84e94668,64b543b0a84ad6ab4a25b86a,64cb5075f8aa335d717cb388,,,,,,,ctch,resources/DR.BMP,resources/DB.BMP,Door3,-0.24875,-0.08625,1,0,0,1.644,optionLeft,70,3490,2,17,0,17,0,1,,,,,,,,,,,,,,,,,,,,,,,,,,,,,,,,,,,,,,,
,,,,,,,,2023-08-03_08h02.06.579,HF_wild_card,2022.2.4,MacIntel,55.55555556,63d7be523261fcaf84e94668,64b543b0a84ad6ab4a25b86a,64cb5075f8aa335d717cb388,,,,,,,sngl,resources/Empty.png,resources/DBN.BMP,Door1,0.30375,-0.03,1,0,0,0.558,optionRight,30,3520,2,18,0,18,0,1,,,,,,,,,,,,,,,,,,,,,,,,,,,,,,,,,,,,,,,
,,,,,,,,2023-08-03_08h02.06.579,HF_wild_card,2022.2.4,MacIntel,55.55555556,63d7be523261fcaf84e94668,64b543b0a84ad6ab4a25b86a,64cb5075f8aa335d717cb388,,,,,,,decisionTrl,resources/DB.BMP,resources/DBN.BMP,Door1,0.24,-0.01125,1,0,0,1.075,optionRight,30,3550,2,19,0,19,0,1,,,,,,,,,,,,,,,,,,,,,,,,,,,,,,,,,,,,,,,
,,,,,,,,2023-08-03_08h02.06.579,HF_wild_card,2022.2.4,MacIntel,55.55555556,63d7be523261fcaf84e94668,64b543b0a84ad6ab4a25b86a,64cb5075f8aa335d717cb388,,,,,,,decisionTrl,resources/DG.BMP,resources/DR.BMP,Door3,0.24875,-0.0275,1,0,0,1.177,optionRight,70,3620,2,20,0,20,0,1,,,,,,,,,,,,,,,,,,,,,,,,,,,,,,,,,,,,,,,
,,,,,,,,2023-08-03_08h02.06.579,HF_wild_card,2022.2.4,MacIntel,55.55555556,63d7be523261fcaf84e94668,64b543b0a84ad6ab4a25b86a,64cb5075f8aa335d717cb388,,,,,,,sngl,resources/DR.BMP,resources/Empty.png,Door3,-0.2775,-0.03625,1,0,0,0.574,optionLeft,70,3690,2,21,0,21,0,1,,,,,,,,,,,,,,,,,,,,,,,,,,,,,,,,,,,,,,,
,,,,,,,,2023-08-03_08h02.06.579,HF_wild_card,2022.2.4,MacIntel,55.55555556,63d7be523261fcaf84e94668,64b543b0a84ad6ab4a25b86a,64cb5075f8aa335d717cb388,,,,,,,decisionTrl,resources/DG.BMP,resources/DB.BMP,WildCard_NonEx,-0.305,-0.035,1,0,0,1.079,optionLeft,45,3735,2,22,0,22,0,1,,,,,,,,,,,,,,,,,,,,,,,,,,,,,,,,,,,,,,,
,,,,,,,,2023-08-03_08h02.06.579,HF_wild_card,2022.2.4,MacIntel,55.55555556,63d7be523261fcaf84e94668,64b543b0a84ad6ab4a25b86a,64cb5075f8aa335d717cb388,,,,,,,decisionTrl,resources/DB.BMP,resources/DG.BMP,WildCard_NonEx,0.3625,-0.06375,1,0,0,0.744,optionRight,45,3780,2,23,0,23,0,1,,,,,,,,,,,,,,,,,,,,,,,,,,,,,,,,,,,,,,,
,,,,,,,,2023-08-03_08h02.06.579,HF_wild_card,2022.2.4,MacIntel,55.55555556,63d7be523261fcaf84e94668,64b543b0a84ad6ab4a25b86a,64cb5075f8aa335d717cb388,,,,,,,sngl,resources/Empty.png,resources/DB.BMP,Door2,0.2575,-0.0375,1,0,0,0.656,optionRight,40,3820,2,24,0,24,0,1,,,,,,,,,,,,,,,,,,,,,,,,,,,,,,,,,,,,,,,
,,,,,,,,2023-08-03_08h02.06.579,HF_wild_card,2022.2.4,MacIntel,55.55555556,63d7be523261fcaf84e94668,64b543b0a84ad6ab4a25b86a,64cb5075f8aa335d717cb388,,,,,,,decisionTrl,resources/DB.BMP,resources/DBN.BMP,Door1,0.285,-0.08375,1,0,0,0.897,optionRight,30,3850,2,25,0,25,0,1,,,,,,,,,,,,,,,,,,,,,,,,,,,,,,,,,,,,,,,
,,,,,,,,2023-08-03_08h02.06.579,HF_wild_card,2022.2.4,MacIntel,55.55555556,63d7be523261fcaf84e94668,64b543b0a84ad6ab4a25b86a,64cb5075f8aa335d717cb388,,,,,,,decisionTrl,resources/DP.BMP,resources/DG.BMP,Door4,-0.3425,-0.0325,1,0,0,0.927,optionLeft,80,3930,2,26,0,26,0,1,,,,,,,,,,,,,,,,,,,,,,,,,,,,,,,,,,,,,,,
,,,,,,,,2023-08-03_08h02.06.579,HF_wild_card,2022.2.4,MacIntel,55.55555556,63d7be523261fcaf84e94668,64b543b0a84ad6ab4a25b86a,64cb5075f8aa335d717cb388,,,,,,,decisionTrl,resources/DBN.BMP,resources/DB.BMP,Door2,0.21,-0.08,1,0,0,2.117,optionRight,40,3970,2,27,0,27,0,1,,,,,,,,,,,,,,,,,,,,,,,,,,,,,,,,,,,,,,,
,,,,,,,,2023-08-03_08h02.06.579,HF_wild_card,2022.2.4,MacIntel,55.55555556,63d7be523261fcaf84e94668,64b543b0a84ad6ab4a25b86a,64cb5075f8aa335d717cb388,,,,,,,decisionTrl,resources/DR.BMP,resources/DP.BMP,Door4,0.3725,-0.045,1,0,0,0.954,optionRight,80,4050,2,28,0,28,0,1,,,,,,,,,,,,,,,,,,,,,,,,,,,,,,,,,,,,,,,
,,,,,,,,2023-08-03_08h02.06.579,HF_wild_card,2022.2.4,MacIntel,55.55555556,63d7be523261fcaf84e94668,64b543b0a84ad6ab4a25b86a,64cb5075f8aa335d717cb388,,,,,,,sngl,resources/DG.BMP,resources/Empty.png,WildCard_NonEx,-0.2025,0.005,1,0,0,0.624,optionLeft,55,4105,2,29,0,29,0,1,,,,,,,,,,,,,,,,,,,,,,,,,,,,,,,,,,,,,,,
,,,,,,,,2023-08-03_08h02.06.579,HF_wild_card,2022.2.4,MacIntel,55.55555556,63d7be523261fcaf84e94668,64b543b0a84ad6ab4a25b86a,64cb5075f8aa335d717cb388,,,,,,,decisionTrl,resources/DG.BMP,resources/DBN.BMP,WildCard_NonEx,-0.30125,0.00125,1,0,0,1.611,optionLeft,45,4150,2,30,0,30,0,1,,,,,,,,,,,,,,,,,,,,,,,,,,,,,,,,,,,,,,,
,,,,,,,,2023-08-03_08h02.06.579,HF_wild_card,2022.2.4,MacIntel,55.55555556,63d7be523261fcaf84e94668,64b543b0a84ad6ab4a25b86a,64cb5075f8aa335d717cb388,,,,,,,ctch,resources/DB.BMP,resources/DR.BMP,Door3,0.39625,-0.04375,1,0,0,1.958,optionRight,70,4220,2,31,0,31,0,1,,,,,,,,,,,,,,,,,,,,,,,,,,,,,,,,,,,,,,,
,,,,,,,,2023-08-03_08h02.06.579,HF_wild_card,2022.2.4,MacIntel,55.55555556,63d7be523261fcaf84e94668,64b543b0a84ad6ab4a25b86a,64cb5075f8aa335d717cb388,,,,,,,decisionTrl,resources/DP.BMP,resources/DR.BMP,Door4,-0.335,-0.09625,1,0,0,0.961,optionLeft,60,4280,2,32,0,32,0,1,,,,,,,,,,,,,,,,,,,,,,,,,,,,,,,,,,,,,,,
,,,,,,,,2023-08-03_08h02.06.579,HF_wild_card,2022.2.4,MacIntel,55.55555556,63d7be523261fcaf84e94668,64b543b0a84ad6ab4a25b86a,64cb5075f8aa335d717cb388,,,,,,,decisionTrl,resources/DR.BMP,resources/DG.BMP,Door3,-0.295,-0.065,1,0,0,1.391,optionLeft,70,4350,2,33,0,33,0,1,,,,,,,,,,,,,,,,,,,,,,,,,,,,,,,,,,,,,,,
,,,,,,,,2023-08-03_08h02.06.579,HF_wild_card,2022.2.4,MacIntel,55.55555556,63d7be523261fcaf84e94668,64b543b0a84ad6ab4a25b86a,64cb5075f8aa335d717cb388,,,,,,,ctch,resources/DP.BMP,resources/DBN.BMP,Door4,-0.35,0.00125,1,0,0,2.69,optionLeft,60,4410,2,34,0,34,0,1,,,,,,,,,,,,,,,,,,,,,,,,,,,,,,,,,,,,,,,
,,,,,,,,2023-08-03_08h02.06.579,HF_wild_card,2022.2.4,MacIntel,55.55555556,63d7be523261fcaf84e94668,64b543b0a84ad6ab4a25b86a,64cb5075f8aa335d717cb388,,,,,,,ctch,resources/DR.BMP,resources/DB.BMP,Door3,-0.22125,-0.0425,1,0,0,1.156,optionLeft,70,4480,2,35,0,35,0,1,,,,,,,,,,,,,,,,,,,,,,,,,,,,,,,,,,,,,,,
,,,,,,,,2023-08-03_08h02.06.579,HF_wild_card,2022.2.4,MacIntel,55.55555556,63d7be523261fcaf84e94668,64b543b0a84ad6ab4a25b86a,64cb5075f8aa335d717cb388,,,,,,,decisionTrl,resources/DBN.BMP,resources/DB.BMP,Door2,0.22125,-0.05375,1,0,0,1.857,optionRight,40,4520,2,36,0,36,0,1,,,,,,,,,,,,,,,,,,,,,,,,,,,,,,,,,,,,,,,
,,,,,,,,2023-08-03_08h02.06.579,HF_wild_card,2022.2.4,MacIntel,55.55555556,63d7be523261fcaf84e94668,64b543b0a84ad6ab4a25b86a,64cb5075f8aa335d717cb388,,,,,,,decisionTrl,resources/DR.BMP,resources/DP.BMP,Door4,0.31875,-0.075,1,0,0,1.261,optionRight,60,4580,2,37,0,37,0,1,,,,,,,,,,,,,,,,,,,,,,,,,,,,,,,,,,,,,,,
,,,,,,,,2023-08-03_08h02.06.579,HF_wild_card,2022.2.4,MacIntel,55.55555556,63d7be523261fcaf84e94668,64b543b0a84ad6ab4a25b86a,64cb5075f8aa335d717cb388,,,,,,,decisionTrl,resources/DR.BMP,resources/DP.BMP,Door3,-0.2925,-0.04375,1,0,0,0.711,optionLeft,70,4650,2,38,0,38,0,1,,,,,,,,,,,,,,,,,,,,,,,,,,,,,,,,,,,,,,,
,,,,,,,,2023-08-03_08h02.06.579,HF_wild_card,2022.2.4,MacIntel,55.55555556,63d7be523261fcaf84e94668,64b543b0a84ad6ab4a25b86a,64cb5075f8aa335d717cb388,,,,,,,decisionTrl,resources/DP.BMP,resources/DR.BMP,Door3,0.30625,-0.03,1,0,0,0.561,optionRight,70,4720,2,39,0,39,0,1,,,,,,,,,,,,,,,,,,,,,,,,,,,,,,,,,,,,,,,
,,,,,,,,2023-08-03_08h02.06.579,HF_wild_card,2022.2.4,MacIntel,55.55555556,63d7be523261fcaf84e94668,64b543b0a84ad6ab4a25b86a,64cb5075f8aa335d717cb388,,,,,,,sngl,resources/DBN.BMP,resources/Empty.png,Door1,-0.2725,-0.03375,1,0,0,0.543,optionLeft,30,4750,2,40,0,40,0,1,,,,,,,,,,,,,,,,,,,,,,,,,,,,,,,,,,,,,,,
,,,,,,,,2023-08-03_08h02.06.579,HF_wild_card,2022.2.4,MacIntel,55.55555556,63d7be523261fcaf84e94668,64b543b0a84ad6ab4a25b86a,64cb5075f8aa335d717cb388,,,,,,,sngl,resources/DG.BMP,resources/Empty.png,WildCard_NonEx,-0.25875,-0.02875,1,0,0,0.786,optionLeft,45,4795,2,41,0,41,0,1,,,,,,,,,,,,,,,,,,,,,,,,,,,,,,,,,,,,,,,
,,,,,,,,2023-08-03_08h02.06.579,HF_wild_card,2022.2.4,MacIntel,55.55555556,63d7be523261fcaf84e94668,64b543b0a84ad6ab4a25b86a,64cb5075f8aa335d717cb388,,,,,,,ctch,resources/DBN.BMP,resources/DP.BMP,Door4,0.29625,-0.055,1,0,0,0.962,optionRight,80,4875,2,42,0,42,0,1,,,,,,,,,,,,,,,,,,,,,,,,,,,,,,,,,,,,,,,
,,,,,,,,2023-08-03_08h02.06.579,HF_wild_card,2022.2.4,MacIntel,55.55555556,63d7be523261fcaf84e94668,64b543b0a84ad6ab4a25b86a,64cb5075f8aa335d717cb388,,,,,,,decisionTrl,resources/DBN.BMP,resources/DB.BMP,Door2,0.4075,-0.11,1,0,0,1.822,optionRight,40,4915,2,43,0,43,0,1,,,,,,,,,,,,,,,,,,,,,,,,,,,,,,,,,,,,,,,
,,,,,,,,2023-08-03_08h02.06.579,HF_wild_card,2022.2.4,MacIntel,55.55555556,63d7be523261fcaf84e94668,64b543b0a84ad6ab4a25b86a,64cb5075f8aa335d717cb388,,,,,,,,,,,,,,,,,,,,,,,,,,1,0,1,0,1,,,,,,,,,,,,,,,,,,,,,,,,,,,,,,,,,,
,,,,,,,,2023-08-03_08h02.06.579,HF_wild_card,2022.2.4,MacIntel,55.55555556,63d7be523261fcaf84e94668,64b543b0a84ad6ab4a25b86a,64cb5075f8aa335d717cb388,,,,,,,sngl,resources/Empty.png,resources/DG.BMP,WildCard_NonEx,0.22375,-0.01375,1,0,0,0.57,optionRight,45,4960,3,0,0,0,0,1,,,,,,,,,,,,,,,,,,,,,,,,,,,,,,,,,,,,,,,
,,,,,,,,2023-08-03_08h02.06.579,HF_wild_card,2022.2.4,MacIntel,55.55555556,63d7be523261fcaf84e94668,64b543b0a84ad6ab4a25b86a,64cb5075f8aa335d717cb388,,,,,,,decisionTrl,resources/DP.BMP,resources/DR.BMP,Door4,-0.31375,-0.03,1,0,0,1.627,optionLeft,60,5020,3,1,0,1,0,1,,,,,,,,,,,,,,,,,,,,,,,,,,,,,,,,,,,,,,,
,,,,,,,,2023-08-03_08h02.06.579,HF_wild_card,2022.2.4,MacIntel,55.55555556,63d7be523261fcaf84e94668,64b543b0a84ad6ab4a25b86a,64cb5075f8aa335d717cb388,,,,,,,decisionTrl,resources/DB.BMP,resources/DBN.BMP,Door2,-0.225,0.0075,1,0,0,1.476,optionLeft,20,5040,3,2,0,2,0,1,,,,,,,,,,,,,,,,,,,,,,,,,,,,,,,,,,,,,,,
,,,,,,,,2023-08-03_08h02.06.579,HF_wild_card,2022.2.4,MacIntel,55.55555556,63d7be523261fcaf84e94668,64b543b0a84ad6ab4a25b86a,64cb5075f8aa335d717cb388,,,,,,,decisionTrl,resources/DR.BMP,resources/DP.BMP,Door3,-0.22,-0.02625,1,0,0,0.794,optionLeft,70,5110,3,3,0,3,0,1,,,,,,,,,,,,,,,,,,,,,,,,,,,,,,,,,,,,,,,
,,,,,,,,2023-08-03_08h02.06.579,HF_wild_card,2022.2.4,MacIntel,55.55555556,63d7be523261fcaf84e94668,64b543b0a84ad6ab4a25b86a,64cb5075f8aa335d717cb388,,,,,,,decisionTrl,resources/DG.BMP,resources/DBN.BMP,WildCard_NonEx,-0.36875,-0.105,1,0,0,2.528,optionLeft,45,5155,3,4,0,4,0,1,,,,,,,,,,,,,,,,,,,,,,,,,,,,,,,,,,,,,,,
,,,,,,,,2023-08-03_08h02.06.579,HF_wild_card,2022.2.4,MacIntel,55.55555556,63d7be523261fcaf84e94668,64b543b0a84ad6ab4a25b86a,64cb5075f8aa335d717cb388,,,,,,,sngl,resources/Empty.png,resources/DG.BMP,WildCard_NonEx,0.30875,-0.025,1,0,0,0.727,optionRight,55,5210,3,5,0,5,0,1,,,,,,,,,,,,,,,,,,,,,,,,,,,,,,,,,,,,,,,
,,,,,,,,2023-08-03_08h02.06.579,HF_wild_card,2022.2.4,MacIntel,55.55555556,63d7be523261fcaf84e94668,64b543b0a84ad6ab4a25b86a,64cb5075f8aa335d717cb388,,,,,,,decisionTrl,resources/DBN.BMP,resources/DB.BMP,Door1,-0.27,-0.02375,1,0,0,1.977,optionLeft,30,5240,3,6,0,6,0,1,,,,,,,,,,,,,,,,,,,,,,,,,,,,,,,,,,,,,,,
,,,,,,,,2023-08-03_08h02.06.579,HF_wild_card,2022.2.4,MacIntel,55.55555556,63d7be523261fcaf84e94668,64b543b0a84ad6ab4a25b86a,64cb5075f8aa335d717cb388,,,,,,,sngl,resources/DG.BMP,resources/Empty.png,WildCard_NonEx,-0.285,-0.1175,1,0,0,0.661,optionLeft,45,5285,3,7,0,7,0,1,,,,,,,,,,,,,,,,,,,,,,,,,,,,,,,,,,,,,,,
,,,,,,,,2023-08-03_08h02.06.579,HF_wild_card,2022.2.4,MacIntel,55.55555556,63d7be523261fcaf84e94668,64b543b0a84ad6ab4a25b86a,64cb5075f8aa335d717cb388,,,,,,,sngl,resources/DP.BMP,resources/Empty.png,Door4,-0.20125,-0.0275,1,0,0,0.626,optionLeft,80,5365,3,8,0,8,0,1,,,,,,,,,,,,,,,,,,,,,,,,,,,,,,,,,,,,,,,
,,,,,,,,2023-08-03_08h02.06.579,HF_wild_card,2022.2.4,MacIntel,55.55555556,63d7be523261fcaf84e94668,64b543b0a84ad6ab4a25b86a,64cb5075f8aa335d717cb388,,,,,,,decisionTrl,resources/DBN.BMP,resources/DB.BMP,Door1,-0.2775,-0.0275,1,0,0,0.854,optionLeft,30,5395,3,9,0,9,0,1,,,,,,,,,,,,,,,,,,,,,,,,,,,,,,,,,,,,,,,
,,,,,,,,2023-08-03_08h02.06.579,HF_wild_card,2022.2.4,MacIntel,55.55555556,63d7be523261fcaf84e94668,64b543b0a84ad6ab4a25b86a,64cb5075f8aa335d717cb388,,,,,,,sngl,resources/Empty.png,resources/DBN.BMP,Door1,0.31125,-0.0475,1,0,0,0.561,optionRight,30,5425,3,10,0,10,0,1,,,,,,,,,,,,,,,,,,,,,,,,,,,,,,,,,,,,,,,
,,,,,,,,2023-08-03_08h02.06.579,HF_wild_card,2022.2.4,MacIntel,55.55555556,63d7be523261fcaf84e94668,64b543b0a84ad6ab4a25b86a,64cb5075f8aa335d717cb388,,,,,,,decisionTrl,resources/DG.BMP,resources/DR.BMP,Door3,0.40125,-0.17625,1,0,0,1.887,optionRight,70,5495,3,11,0,11,0,1,,,,,,,,,,,,,,,,,,,,,,,,,,,,,,,,,,,,,,,
,,,,,,,,2023-08-03_08h02.06.579,HF_wild_card,2022.2.4,MacIntel,55.55555556,63d7be523261fcaf84e94668,64b543b0a84ad6ab4a25b86a,64cb5075f8aa335d717cb388,,,,,,,decisionTrl,resources/DB.BMP,resources/DBN.BMP,Door1,0.3375,-0.0875,1,0,0,1.008,optionRight,30,5525,3,12,0,12,0,1,,,,,,,,,,,,,,,,,,,,,,,,,,,,,,,,,,,,,,,
,,,,,,,,2023-08-03_08h02.06.579,HF_wild_card,2022.2.4,MacIntel,55.55555556,63d7be523261fcaf84e94668,64b543b0a84ad6ab4a25b86a,64cb5075f8aa335d717cb388,,,,,,,decisionTrl,resources/DBN.BMP,resources/DB.BMP,Door1,-0.24,-0.00375,1,0,0,0.945,optionLeft,30,5555,3,13,0,13,0,1,,,,,,,,,,,,,,,,,,,,,,,,,,,,,,,,,,,,,,,
,,,,,,,,2023-08-03_08h02.06.579,HF_wild_card,2022.2.4,MacIntel,55.55555556,63d7be523261fcaf84e94668,64b543b0a84ad6ab4a25b86a,64cb5075f8aa335d717cb388,,,,,,,sngl,resources/Empty.png,resources/DR.BMP,Door3,0.29625,-0.12,1,0,0,1.173,optionRight,70,5625,3,14,0,14,0,1,,,,,,,,,,,,,,,,,,,,,,,,,,,,,,,,,,,,,,,
,,,,,,,,2023-08-03_08h02.06.579,HF_wild_card,2022.2.4,MacIntel,55.55555556,63d7be523261fcaf84e94668,64b543b0a84ad6ab4a25b86a,64cb5075f8aa335d717cb388,,,,,,,ctch,resources/DP.BMP,resources/DBN.BMP,Door4,-0.33125,-0.05625,1,0,0,0.795,optionLeft,60,5685,3,15,0,15,0,1,,,,,,,,,,,,,,,,,,,,,,,,,,,,,,,,,,,,,,,
,,,,,,,,2023-08-03_08h02.06.579,HF_wild_card,2022.2.4,MacIntel,55.55555556,63d7be523261fcaf84e94668,64b543b0a84ad6ab4a25b86a,64cb5075f8aa335d717cb388,,,,,,,decisionTrl,resources/DR.BMP,resources/DP.BMP,Door3,-0.2325,-0.05125,1,0,0,1.091,optionLeft,70,5755,3,16,0,16,0,1,,,,,,,,,,,,,,,,,,,,,,,,,,,,,,,,,,,,,,,
,,,,,,,,2023-08-03_08h02.06.579,HF_wild_card,2022.2.4,MacIntel,55.55555556,63d7be523261fcaf84e94668,64b543b0a84ad6ab4a25b86a,64cb5075f8aa335d717cb388,,,,,,,decisionTrl,resources/DB.BMP,resources/DBN.BMP,Door1,0.345,-0.08375,1,0,0,1.863,optionRight,30,5785,3,17,0,17,0,1,,,,,,,,,,,,,,,,,,,,,,,,,,,,,,,,,,,,,,,
,,,,,,,,2023-08-03_08h02.06.579,HF_wild_card,2022.2.4,MacIntel,55.55555556,63d7be523261fcaf84e94668,64b543b0a84ad6ab4a25b86a,64cb5075f8aa335d717cb388,,,,,,,ctch,resources/DR.BMP,resources/DB.BMP,Door3,-0.255,-0.00625,1,0,0,0.776,optionLeft,70,5855,3,18,0,18,0,1,,,,,,,,,,,,,,,,,,,,,,,,,,,,,,,,,,,,,,,
,,,,,,,,2023-08-03_08h02.06.579,HF_wild_card,2022.2.4,MacIntel,55.55555556,63d7be523261fcaf84e94668,64b543b0a84ad6ab4a25b86a,64cb5075f8aa335d717cb388,,,,,,,decisionTrl,resources/DG.BMP,resources/DP.BMP,Door4,0.31375,-0.03875,1,0,0,0.924,optionRight,60,5915,3,19,0,19,0,1,,,,,,,,,,,,,,,,,,,,,,,,,,,,,,,,,,,,,,,
,,,,,,,,2023-08-03_08h02.06.579,HF_wild_card,2022.2.4,MacIntel,55.55555556,63d7be523261fcaf84e94668,64b543b0a84ad6ab4a25b86a,64cb5075f8aa335d717cb388,,,,,,,sngl,resources/DG.BMP,resources/Empty.png,WildCard_NonEx,-0.21125,-0.01875,1,0,0,0.557,optionLeft,55,5970,3,20,0,20,0,1,,,,,,,,,,,,,,,,,,,,,,,,,,,,,,,,,,,,,,,
,,,,,,,,2023-08-03_08h02.06.579,HF_wild_card,2022.2.4,MacIntel,55.55555556,63d7be523261fcaf84e94668,64b543b0a84ad6ab4a25b86a,64cb5075f8aa335d717cb388,,,,,,,decisionTrl,resources/DP.BMP,resources/DR.BMP,Door3,0.3575,-0.07375,1,0,0,1.393,optionRight,70,6040,3,21,0,21,0,1,,,,,,,,,,,,,,,,,,,,,,,,,,,,,,,,,,,,,,,
,,,,,,,,2023-08-03_08h02.06.579,HF_wild_card,2022.2.4,MacIntel,55.55555556,63d7be523261fcaf84e94668,64b543b0a84ad6ab4a25b86a,64cb5075f8aa335d717cb388,,,,,,,decisionTrl,resources/DBN.BMP,resources/DG.BMP,WildCard_NonEx,0.35375,-0.04625,1,0,0,1.575,optionRight,45,6085,3,22,0,22,0,1,,,,,,,,,,,,,,,,,,,,,,,,,,,,,,,,,,,,,,,
,,,,,,,,2023-08-03_08h02.06.579,HF_wild_card,2022.2.4,MacIntel,55.55555556,63d7be523261fcaf84e94668,64b543b0a84ad6ab4a25b86a,64cb5075f8aa335d717cb388,,,,,,,decisionTrl,resources/DR.BMP,resources/DG.BMP,Door3,-0.29,-0.04,1,0,0,1.124,optionLeft,70,6155,3,23,0,23,0,1,,,,,,,,,,,,,,,,,,,,,,,,,,,,,,,,,,,,,,,
,,,,,,,,2023-08-03_08h02.06.579,HF_wild_card,2022.2.4,MacIntel,55.55555556,63d7be523261fcaf84e94668,64b543b0a84ad6ab4a25b86a,64cb5075f8aa335d717cb388,,,,,,,decisionTrl,resources/DB.BMP,resources/DBN.BMP,Door1,0.3575,-0.0125,1,0,0,0.977,optionRight,30,6185,3,24,0,24,0,1,,,,,,,,,,,,,,,,,,,,,,,,,,,,,,,,,,,,,,,
,,,,,,,,2023-08-03_08h02.06.579,HF_wild_card,2022.2.4,MacIntel,55.55555556,63d7be523261fcaf84e94668,64b543b0a84ad6ab4a25b86a,64cb5075f8aa335d717cb388,,,,,,,decisionTrl,resources/DP.BMP,resources/DG.BMP,Door4,-0.3175,-0.0125,1,0,0,0.891,optionLeft,80,6265,3,25,0,25,0,1,,,,,,,,,,,,,,,,,,,,,,,,,,,,,,,,,,,,,,,
,,,,,,,,2023-08-03_08h02.06.579,HF_wild_card,2022.2.4,MacIntel,55.55555556,63d7be523261fcaf84e94668,64b543b0a84ad6ab4a25b86a,64cb5075f8aa335d717cb388,,,,,,,decisionTrl,resources/DR.BMP,resources/DP.BMP,Door4,0.3275,-0.07,1,0,0,0.599,optionRight,80,6345,3,26,0,26,0,1,,,,,,,,,,,,,,,,,,,,,,,,,,,,,,,,,,,,,,,
,,,,,,,,2023-08-03_08h02.06.579,HF_wild_card,2022.2.4,MacIntel,55.55555556,63d7be523261fcaf84e94668,64b543b0a84ad6ab4a25b86a,64cb5075f8aa335d717cb388,,,,,,,decisionTrl,resources/DG.BMP,resources/DB.BMP,WildCard_NonEx,-0.3625,-0.0625,1,0,0,1.195,optionLeft,45,6390,3,27,0,27,0,1,,,,,,,,,,,,,,,,,,,,,,,,,,,,,,,,,,,,,,,
,,,,,,,,2023-08-03_08h02.06.579,HF_wild_card,2022.2.4,MacIntel,55.55555556,63d7be523261fcaf84e94668,64b543b0a84ad6ab4a25b86a,64cb5075f8aa335d717cb388,,,,,,,sngl,resources/DB.BMP,resources/Empty.png,Door2,-0.23125,-0.06125,1,0,0,0.56,optionLeft,40,6430,3,28,0,28,0,1,,,,,,,,,,,,,,,,,,,,,,,,,,,,,,,,,,,,,,,
,,,,,,,,2023-08-03_08h02.06.579,HF_wild_card,2022.2.4,MacIntel,55.55555556,63d7be523261fcaf84e94668,64b543b0a84ad6ab4a25b86a,64cb5075f8aa335d717cb388,,,,,,,sngl,resources/Empty.png,resources/DB.BMP,Door2,0.21,-0.03875,1,0,0,0.489,optionRight,20,6450,3,29,0,29,0,1,,,,,,,,,,,,,,,,,,,,,,,,,,,,,,,,,,,,,,,
,,,,,,,,2023-08-03_08h02.06.579,HF_wild_card,2022.2.4,MacIntel,55.55555556,63d7be523261fcaf84e94668,64b543b0a84ad6ab4a25b86a,64cb5075f8aa335d717cb388,,,,,,,sngl,resources/DBN.BMP,resources/Empty.png,Door1,-0.19625,-0.005,1,0,0,0.438,optionLeft,30,6480,3,30,0,30,0,1,,,,,,,,,,,,,,,,,,,,,,,,,,,,,,,,,,,,,,,
,,,,,,,,2023-08-03_08h02.06.579,HF_wild_card,2022.2.4,MacIntel,55.55555556,63d7be523261fcaf84e94668,64b543b0a84ad6ab4a25b86a,64cb5075f8aa335d717cb388,,,,,,,decisionTrl,resources/DP.BMP,resources/DR.BMP,Door3,0.3625,-0.02625,1,0,0,1.446,optionRight,70,6550,3,31,0,31,0,1,,,,,,,,,,,,,,,,,,,,,,,,,,,,,,,,,,,,,,,
,,,,,,,,2023-08-03_08h02.06.579,HF_wild_card,2022.2.4,MacIntel,55.55555556,63d7be523261fcaf84e94668,64b543b0a84ad6ab4a25b86a,64cb5075f8aa335d717cb388,,,,,,,decisionTrl,resources/DP.BMP,resources/DR.BMP,Door4,-0.24625,-0.03875,1,0,0,0.578,optionLeft,60,6610,3,32,0,32,0,1,,,,,,,,,,,,,,,,,,,,,,,,,,,,,,,,,,,,,,,
,,,,,,,,2023-08-03_08h02.06.579,HF_wild_card,2022.2.4,MacIntel,55.55555556,63d7be523261fcaf84e94668,64b543b0a84ad6ab4a25b86a,64cb5075f8aa335d717cb388,,,,,,,ctch,resources/DBN.BMP,resources/DP.BMP,Door4,0.30875,-0.1,1,0,0,0.674,optionRight,80,6690,3,33,0,33,0,1,,,,,,,,,,,,,,,,,,,,,,,,,,,,,,,,,,,,,,,
,,,,,,,,2023-08-03_08h02.06.579,HF_wild_card,2022.2.4,MacIntel,55.55555556,63d7be523261fcaf84e94668,64b543b0a84ad6ab4a25b86a,64cb5075f8aa335d717cb388,,,,,,,ctch,resources/DR.BMP,resources/DB.BMP,Door3,-0.245,-0.04625,1,0,0,0.922,optionLeft,70,6760,3,34,0,34,0,1,,,,,,,,,,,,,,,,,,,,,,,,,,,,,,,,,,,,,,,
,,,,,,,,2023-08-03_08h02.06.579,HF_wild_card,2022.2.4,MacIntel,55.55555556,63d7be523261fcaf84e94668,64b543b0a84ad6ab4a25b86a,64cb5075f8aa335d717cb388,,,,,,,ctch,resources/DB.BMP,resources/DR.BMP,Door3,0.32875,-0.01125,1,0,0,1.231,optionRight,70,6830,3,35,0,35,0,1,,,,,,,,,,,,,,,,,,,,,,,,,,,,,,,,,,,,,,,
,,,,,,,,2023-08-03_08h02.06.579,HF_wild_card,2022.2.4,MacIntel,55.55555556,63d7be523261fcaf84e94668,64b543b0a84ad6ab4a25b86a,64cb5075f8aa335d717cb388,,,,,,,ctch,resources/DB.BMP,resources/DR.BMP,Door3,0.27875,-0.03125,1,0,0,1.073,optionRight,70,6900,3,36,0,36,0,1,,,,,,,,,,,,,,,,,,,,,,,,,,,,,,,,,,,,,,,
,,,,,,,,2023-08-03_08h02.06.579,HF_wild_card,2022.2.4,MacIntel,55.55555556,63d7be523261fcaf84e94668,64b543b0a84ad6ab4a25b86a,64cb5075f8aa335d717cb388,,,,,,,sngl,resources/DR.BMP,resources/Empty.png,Door3,-0.29,-0.02125,1,0,0,0.606,optionLeft,70,6970,3,37,0,37,0,1,,,,,,,,,,,,,,,,,,,,,,,,,,,,,,,,,,,,,,,
,,,,,,,,2023-08-03_08h02.06.579,HF_wild_card,2022.2.4,MacIntel,55.55555556,63d7be523261fcaf84e94668,64b543b0a84ad6ab4a25b86a,64cb5075f8aa335d717cb388,,,,,,,decisionTrl,resources/DB.BMP,resources/DG.BMP,WildCard_NonEx,0.34,-0.1275,1,0,0,1.493,optionRight,45,7015,3,38,0,38,0,1,,,,,,,,,,,,,,,,,,,,,,,,,,,,,,,,,,,,,,,
,,,,,,,,2023-08-03_08h02.06.579,HF_wild_card,2022.2.4,MacIntel,55.55555556,63d7be523261fcaf84e94668,64b543b0a84ad6ab4a25b86a,64cb5075f8aa335d717cb388,,,,,,,ctch,resources/DBN.BMP,resources/DP.BMP,Door4,0.27,-0.07625,1,0,0,0.783,optionRight,80,7095,3,39,0,39,0,1,,,,,,,,,,,,,,,,,,,,,,,,,,,,,,,,,,,,,,,
,,,,,,,,2023-08-03_08h02.06.579,HF_wild_card,2022.2.4,MacIntel,55.55555556,63d7be523261fcaf84e94668,64b543b0a84ad6ab4a25b86a,64cb5075f8aa335d717cb388,,,,,,,ctch,resources/DP.BMP,resources/DBN.BMP,Door4,-0.2675,0.00625,1,0,0,0.849,optionLeft,80,7175,3,40,0,40,0,1,,,,,,,,,,,,,,,,,,,,,,,,,,,,,,,,,,,,,,,
,,,,,,,,2023-08-03_08h02.06.579,HF_wild_card,2022.2.4,MacIntel,55.55555556,63d7be523261fcaf84e94668,64b543b0a84ad6ab4a25b86a,64cb5075f8aa335d717cb388,,,,,,,decisionTrl,resources/DBN.BMP,resources/DB.BMP,Door2,0.29375,-0.08,1,0,0,0.704,optionRight,20,7195,3,41,0,41,0,1,,,,,,,,,,,,,,,,,,,,,,,,,,,,,,,,,,,,,,,
,,,,,,,,2023-08-03_08h02.06.579,HF_wild_card,2022.2.4,MacIntel,55.55555556,63d7be523261fcaf84e94668,64b543b0a84ad6ab4a25b86a,64cb5075f8aa335d717cb388,,,,,,,decisionTrl,resources/DR.BMP,resources/DP.BMP,Door4,0.2575,-0.03,1,0,0,0.759,optionRight,60,7255,3,42,0,42,0,1,,,,,,,,,,,,,,,,,,,,,,,,,,,,,,,,,,,,,,,
,,,,,,,,2023-08-03_08h02.06.579,HF_wild_card,2022.2.4,MacIntel,55.55555556,63d7be523261fcaf84e94668,64b543b0a84ad6ab4a25b86a,64cb5075f8aa335d717cb388,,,,,,,sngl,resources/Empty.png,resources/DP.BMP,Door4,0.235,-0.0275,1,0,0,0.589,optionRight,60,7315,3,43,0,43,0,1,,,,,,,,,,,,,,,,,,,,,,,,,,,,,,,,,,,,,,,
,,,,,,,,2023-08-03_08h02.06.579,HF_wild_card,2022.2.4,MacIntel,55.55555556,63d7be523261fcaf84e94668,64b543b0a84ad6ab4a25b86a,64cb5075f8aa335d717cb388,,,,,,,,,,,,,,,,,,,,,,,,,,2,0,2,0,1,,,,,,,,,,,,,,,,,,,,,,,,,,,,,,,,,,
,,,,,,,,2023-08-03_08h02.06.579,HF_wild_card,2022.2.4,MacIntel,55.55555556,63d7be523261fcaf84e94668,64b543b0a84ad6ab4a25b86a,64cb5075f8aa335d717cb388,,,,,,,sngl,resources/DB.BMP,resources/Empty.png,Door2,-0.3525,-0.05375,1,0,0,0.692,optionLeft,20,7335,4,0,0,0,0,1,,,,,,,,,,,,,,,,,,,,,,,,,,,,,,,,,,,,,,,
,,,,,,,,2023-08-03_08h02.06.579,HF_wild_card,2022.2.4,MacIntel,55.55555556,63d7be523261fcaf84e94668,64b543b0a84ad6ab4a25b86a,64cb5075f8aa335d717cb388,,,,,,,ctch,resources/DBN.BMP,resources/DP.BMP,Door4,0.19625,-0.09375,1,0,0,0.646,optionRight,60,7395,4,1,0,1,0,1,,,,,,,,,,,,,,,,,,,,,,,,,,,,,,,,,,,,,,,
,,,,,,,,2023-08-03_08h02.06.579,HF_wild_card,2022.2.4,MacIntel,55.55555556,63d7be523261fcaf84e94668,64b543b0a84ad6ab4a25b86a,64cb5075f8aa335d717cb388,,,,,,,sngl,resources/Empty.png,resources/DY.BMP,WildCard_Ex,0.305,-0.05,1,0,0,0.593,optionRight,45,7440,4,2,0,2,0,1,,,,,,,,,,,,,,,,,,,,,,,,,,,,,,,,,,,,,,,
,,,,,,,,2023-08-03_08h02.06.579,HF_wild_card,2022.2.4,MacIntel,55.55555556,63d7be523261fcaf84e94668,64b543b0a84ad6ab4a25b86a,64cb5075f8aa335d717cb388,,,,,,,decisionTrl,resources/DBN.BMP,resources/DB.BMP,Door1,-0.335,-0.0275,1,0,0,1.258,optionLeft,30,7470,4,3,0,3,0,1,,,,,,,,,,,,,,,,,,,,,,,,,,,,,,,,,,,,,,,
,,,,,,,,2023-08-03_08h02.06.579,HF_wild_card,2022.2.4,MacIntel,55.55555556,63d7be523261fcaf84e94668,64b543b0a84ad6ab4a25b86a,64cb5075f8aa335d717cb388,,,,,,,decisionTrl,resources/DP.BMP,resources/DR.BMP,Door3,0.2975,-0.10625,1,0,0,1.611,optionRight,70,7540,4,4,0,4,0,1,,,,,,,,,,,,,,,,,,,,,,,,,,,,,,,,,,,,,,,
,,,,,,,,2023-08-03_08h02.06.579,HF_wild_card,2022.2.4,MacIntel,55.55555556,63d7be523261fcaf84e94668,64b543b0a84ad6ab4a25b86a,64cb5075f8aa335d717cb388,,,,,,,decisionTrl,resources/DP.BMP,resources/DR.BMP,Door4,-0.3475,-0.11375,1,0,0,0.646,optionLeft,60,7600,4,5,0,5,0,1,,,,,,,,,,,,,,,,,,,,,,,,,,,,,,,,,,,,,,,
,,,,,,,,2023-08-03_08h02.06.579,HF_wild_card,2022.2.4,MacIntel,55.55555556,63d7be523261fcaf84e94668,64b543b0a84ad6ab4a25b86a,64cb5075f8aa335d717cb388,,,,,,,ctch,resources/DP.BMP,resources/DBN.BMP,Door4,-0.26125,-0.1,1,0,0,0.71,optionLeft,60,7660,4,6,0,6,0,1,,,,,,,,,,,,,,,,,,,,,,,,,,,,,,,,,,,,,,,
,,,,,,,,2023-08-03_08h02.06.579,HF_wild_card,2022.2.4,MacIntel,55.55555556,63d7be523261fcaf84e94668,64b543b0a84ad6ab4a25b86a,64cb5075f8aa335d717cb388,,,,,,,sngl,resources/DBN.BMP,resources/Empty.png,Door1,-0.28,-0.17125,1,0,0,0.603,optionLeft,30,7690,4,7,0,7,0,1,,,,,,,,,,,,,,,,,,,,,,,,,,,,,,,,,,,,,,,
,,,,,,,,2023-08-03_08h02.06.579,HF_wild_card,2022.2.4,MacIntel,55.55555556,63d7be523261fcaf84e94668,64b543b0a84ad6ab4a25b86a,64cb5075f8aa335d717cb388,,,,,,,decisionTrl,resources/DBN.BMP,resources/DB.BMP,Door1,-0.335,-0.0675,1,0,0,1.329,optionLeft,30,7720,4,8,0,8,0,1,,,,,,,,,,,,,,,,,,,,,,,,,,,,,,,,,,,,,,,
,,,,,,,,2023-08-03_08h02.06.579,HF_wild_card,2022.2.4,MacIntel,55.55555556,63d7be523261fcaf84e94668,64b543b0a84ad6ab4a25b86a,64cb5075f8aa335d717cb388,,,,,,,decisionTrl,resources/DY.BMP,resources/DP.BMP,WildCard_Ex,-0.17625,-0.1025,1,0,0,1.278,optionLeft,55,7775,4,9,0,9,0,1,,,,,,,,,,,,,,,,,,,,,,,,,,,,,,,,,,,,,,,
,,,,,,,,2023-08-03_08h02.06.579,HF_wild_card,2022.2.4,MacIntel,55.55555556,63d7be523261fcaf84e94668,64b543b0a84ad6ab4a25b86a,64cb5075f8aa335d717cb388,,,,,,,decisionTrl,resources/DB.BMP,resources/DBN.BMP,Door1,0.295,-0.18125,1,0,0,1.027,optionRight,30,7805,4,10,0,10,0,1,,,,,,,,,,,,,,,,,,,,,,,,,,,,,,,,,,,,,,,
,,,,,,,,2023-08-03_08h02.06.579,HF_wild_card,2022.2.4,MacIntel,55.55555556,63d7be523261fcaf84e94668,64b543b0a84ad6ab4a25b86a,64cb5075f8aa335d717cb388,,,,,,,decisionTrl,resources/DP.BMP,resources/DY.BMP,Door4,-0.22125,-0.035,1,0,0,1.061,optionLeft,60,7865,4,11,0,11,0,1,,,,,,,,,,,,,,,,,,,,,,,,,,,,,,,,,,,,,,,
,,,,,,,,2023-08-03_08h02.06.579,HF_wild_card,2022.2.4,MacIntel,55.55555556,63d7be523261fcaf84e94668,64b543b0a84ad6ab4a25b86a,64cb5075f8aa335d717cb388,,,,,,,decisionTrl,resources/DP.BMP,resources/DR.BMP,Door3,0.27375,-0.03125,1,0,0,1.108,optionRight,70,7935,4,12,0,12,0,1,,,,,,,,,,,,,,,,,,,,,,,,,,,,,,,,,,,,,,,
,,,,,,,,2023-08-03_08h02.06.579,HF_wild_card,2022.2.4,MacIntel,55.55555556,63d7be523261fcaf84e94668,64b543b0a84ad6ab4a25b86a,64cb5075f8aa335d717cb388,,,,,,,decisionTrl,resources/DB.BMP,resources/DBN.BMP,Door1,0.4,-0.105,1,0,0,0.878,optionRight,30,7965,4,13,0,13,0,1,,,,,,,,,,,,,,,,,,,,,,,,,,,,,,,,,,,,,,,
,,,,,,,,2023-08-03_08h02.06.579,HF_wild_card,2022.2.4,MacIntel,55.55555556,63d7be523261fcaf84e94668,64b543b0a84ad6ab4a25b86a,64cb5075f8aa335d717cb388,,,,,,,decisionTrl,resources/DP.BMP,resources/DR.BMP,Door3,0.31375,-0.0575,1,0,0,1.07,optionRight,70,8035,4,14,0,14,0,1,,,,,,,,,,,,,,,,,,,,,,,,,,,,,,,,,,,,,,,
,,,,,,,,2023-08-03_08h02.06.579,HF_wild_card,2022.2.4,MacIntel,55.55555556,63d7be523261fcaf84e94668,64b543b0a84ad6ab4a25b86a,64cb5075f8aa335d717cb388,,,,,,,ctch,resources/DBN.BMP,resources/DP.BMP,Door4,0.27375,-0.04375,1,0,0,0.611,optionRight,80,8115,4,15,0,15,0,1,,,,,,,,,,,,,,,,,,,,,,,,,,,,,,,,,,,,,,,
,,,,,,,,2023-08-03_08h02.06.579,HF_wild_card,2022.2.4,MacIntel,55.55555556,63d7be523261fcaf84e94668,64b543b0a84ad6ab4a25b86a,64cb5075f8aa335d717cb388,,,,,,,sngl,resources/DY.BMP,resources/Empty.png,WildCard_Ex,-0.16,-0.025,1,0,0,0.624,optionLeft,55,8170,4,16,0,16,0,1,,,,,,,,,,,,,,,,,,,,,,,,,,,,,,,,,,,,,,,
,,,,,,,,2023-08-03_08h02.06.579,HF_wild_card,2022.2.4,MacIntel,55.55555556,63d7be523261fcaf84e94668,64b543b0a84ad6ab4a25b86a,64cb5075f8aa335d717cb388,,,,,,,decisionTrl,resources/DR.BMP,resources/DP.BMP,Door4,0.2425,-0.095,1,0,0,0.861,optionRight,60,8230,4,17,0,17,0,1,,,,,,,,,,,,,,,,,,,,,,,,,,,,,,,,,,,,,,,
,,,,,,,,2023-08-03_08h02.06.579,HF_wild_card,2022.2.4,MacIntel,55.55555556,63d7be523261fcaf84e94668,64b543b0a84ad6ab4a25b86a,64cb5075f8aa335d717cb388,,,,,,,decisionTrl,resources/DBN.BMP,resources/DB.BMP,Door1,-0.22375,-0.01125,1,0,0,0.945,optionLeft,30,8260,4,18,0,18,0,1,,,,,,,,,,,,,,,,,,,,,,,,,,,,,,,,,,,,,,,
,,,,,,,,2023-08-03_08h02.06.579,HF_wild_card,2022.2.4,MacIntel,55.55555556,63d7be523261fcaf84e94668,64b543b0a84ad6ab4a25b86a,64cb5075f8aa335d717cb388,,,,,,,ctch,resources/DB.BMP,resources/DR.BMP,Door3,0.3025,-0.0675,1,0,0,0.761,optionRight,70,8330,4,19,0,19,0,1,,,,,,,,,,,,,,,,,,,,,,,,,,,,,,,,,,,,,,,
,,,,,,,,2023-08-03_08h02.06.579,HF_wild_card,2022.2.4,MacIntel,55.55555556,63d7be523261fcaf84e94668,64b543b0a84ad6ab4a25b86a,64cb5075f8aa335d717cb388,,,,,,,sngl,resources/Empty.png,resources/DY.BMP,WildCard_Ex,0.22375,-0.07125,1,0,0,0.645,optionRight,55,8385,4,20,0,20,0,1,,,,,,,,,,,,,,,,,,,,,,,,,,,,,,,,,,,,,,,
,,,,,,,,2023-08-03_08h02.06.579,HF_wild_card,2022.2.4,MacIntel,55.55555556,63d7be523261fcaf84e94668,64b543b0a84ad6ab4a25b86a,64cb5075f8aa335d717cb388,,,,,,,decisionTrl,resources/DBN.BMP,resources/DY.BMP,WildCard_Ex,0.2775,-0.055,1,0,0,0.737,optionRight,55,8440,4,21,0,21,0,1,,,,,,,,,,,,,,,,,,,,,,,,,,,,,,,,,,,,,,,
,,,,,,,,2023-08-03_08h02.06.579,HF_wild_card,2022.2.4,MacIntel,55.55555556,63d7be523261fcaf84e94668,64b543b0a84ad6ab4a25b86a,64cb5075f8aa335d717cb388,,,,,,,decisionTrl,resources/DY.BMP,resources/DR.BMP,Door3,0.2675,-0.10125,1,0,0,1.044,optionRight,70,8510,4,22,0,22,0,1,,,,,,,,,,,,,,,,,,,,,,,,,,,,,,,,,,,,,,,
,,,,,,,,2023-08-03_08h02.06.579,HF_wild_card,2022.2.4,MacIntel,55.55555556,63d7be523261fcaf84e94668,64b543b0a84ad6ab4a25b86a,64cb5075f8aa335d717cb388,,,,,,,decisionTrl,resources/DY.BMP,resources/DBN.BMP,WildCard_Ex,-0.1975,-0.0175,1,0,0,1.128,optionLeft,55,8565,4,23,0,23,0,1,,,,,,,,,,,,,,,,,,,,,,,,,,,,,,,,,,,,,,,
,,,,,,,,2023-08-03_08h02.06.579,HF_wild_card,2022.2.4,MacIntel,55.55555556,63d7be523261fcaf84e94668,64b543b0a84ad6ab4a25b86a,64cb5075f8aa335d717cb388,,,,,,,ctch,resources/DR.BMP,resources/DB.BMP,Door3,-0.3125,-0.1275,1,0,0,0.876,optionLeft,70,8635,4,24,0,24,0,1,,,,,,,,,,,,,,,,,,,,,,,,,,,,,,,,,,,,,,,
,,,,,,,,2023-08-03_08h02.06.579,HF_wild_card,2022.2.4,MacIntel,55.55555556,63d7be523261fcaf84e94668,64b543b0a84ad6ab4a25b86a,64cb5075f8aa335d717cb388,,,,,,,decisionTrl,resources/DB.BMP,resources/DY.BMP,WildCard_Ex,0.2325,-0.005,1,0,0,0.928,optionRight,45,8680,4,25,0,25,0,1,,,,,,,,,,,,,,,,,,,,,,,,,,,,,,,,,,,,,,,
,,,,,,,,2023-08-03_08h02.06.579,HF_wild_card,2022.2.4,MacIntel,55.55555556,63d7be523261fcaf84e94668,64b543b0a84ad6ab4a25b86a,64cb5075f8aa335d717cb388,,,,,,,decisionTrl,resources/DR.BMP,resources/DP.BMP,Door3,-0.28375,-0.03625,1,0,0,0.961,optionLeft,70,8750,4,26,0,26,0,1,,,,,,,,,,,,,,,,,,,,,,,,,,,,,,,,,,,,,,,
,,,,,,,,2023-08-03_08h02.06.579,HF_wild_card,2022.2.4,MacIntel,55.55555556,63d7be523261fcaf84e94668,64b543b0a84ad6ab4a25b86a,64cb5075f8aa335d717cb388,,,,,,,decisionTrl,resources/DR.BMP,resources/DP.BMP,Door3,-0.13125,-0.09375,1,0,0,1.261,optionLeft,70,8820,4,27,0,27,0,1,,,,,,,,,,,,,,,,,,,,,,,,,,,,,,,,,,,,,,,
,,,,,,,,2023-08-03_08h02.06.579,HF_wild_card,2022.2.4,MacIntel,55.55555556,63d7be523261fcaf84e94668,64b543b0a84ad6ab4a25b86a,64cb5075f8aa335d717cb388,,,,,,,decisionTrl,resources/DY.BMP,resources/DB.BMP,WildCard_Ex,-0.34875,-0.04375,1,0,0,1.693,optionLeft,45,8865,4,28,0,28,0,1,,,,,,,,,,,,,,,,,,,,,,,,,,,,,,,,,,,,,,,
,,,,,,,,2023-08-03_08h02.06.579,HF_wild_card,2022.2.4,MacIntel,55.55555556,63d7be523261fcaf84e94668,64b543b0a84ad6ab4a25b86a,64cb5075f8aa335d717cb388,,,,,,,decisionTrl,resources/DBN.BMP,resources/DB.BMP,Door1,-0.40625,-0.04625,1,0,0,1.045,optionLeft,30,8895,4,29,0,29,0,1,,,,,,,,,,,,,,,,,,,,,,,,,,,,,,,,,,,,,,,
,,,,,,,,2023-08-03_08h02.06.579,HF_wild_card,2022.2.4,MacIntel,55.55555556,63d7be523261fcaf84e94668,64b543b0a84ad6ab4a25b86a,64cb5075f8aa335d717cb388,,,,,,,ctch,resources/DR.BMP,resources/DB.BMP,Door3,-0.235,-0.05,1,0,0,0.729,optionLeft,70,8965,4,30,0,30,0,1,,,,,,,,,,,,,,,,,,,,,,,,,,,,,,,,,,,,,,,
,,,,,,,,2023-08-03_08h02.06.579,HF_wild_card,2022.2.4,MacIntel,55.55555556,63d7be523261fcaf84e94668,64b543b0a84ad6ab4a25b86a,64cb5075f8aa335d717cb388,,,,,,,sngl,resources/Empty.png,resources/DB.BMP,Door2,0.29,-0.10875,1,0,0,0.561,optionRight,40,9005,4,31,0,31,0,1,,,,,,,,,,,,,,,,,,,,,,,,,,,,,,,,,,,,,,,
,,,,,,,,2023-08-03_08h02.06.579,HF_wild_card,2022.2.4,MacIntel,55.55555556,63d7be523261fcaf84e94668,64b543b0a84ad6ab4a25b86a,64cb5075f8aa335d717cb388,,,,,,,decisionTrl,resources/DR.BMP,resources/DP.BMP,Door3,-0.13,-0.10125,1,0,0,1.095,optionLeft,70,9075,4,32,0,32,0,1,,,,,,,,,,,,,,,,,,,,,,,,,,,,,,,,,,,,,,,
,,,,,,,,2023-08-03_08h02.06.579,HF_wild_card,2022.2.4,MacIntel,55.55555556,63d7be523261fcaf84e94668,64b543b0a84ad6ab4a25b86a,64cb5075f8aa335d717cb388,,,,,,,ctch,resources/DP.BMP,resources/DBN.BMP,Door4,-0.3675,-0.16625,1,0,0,0.627,optionLeft,60,9135,4,33,0,33,0,1,,,,,,,,,,,,,,,,,,,,,,,,,,,,,,,,,,,,,,,
,,,,,,,,2023-08-03_08h02.06.579,HF_wild_card,2022.2.4,MacIntel,55.55555556,63d7be523261fcaf84e94668,64b543b0a84ad6ab4a25b86a,64cb5075f8aa335d717cb388,,,,,,,sngl,resources/Empty.png,resources/DR.BMP,Door3,0.31,-0.06,1,0,0,0.76,optionRight,70,9205,4,34,0,34,0,1,,,,,,,,,,,,,,,,,,,,,,,,,,,,,,,,,,,,,,,
,,,,,,,,2023-08-03_08h02.06.579,HF_wild_card,2022.2.4,MacIntel,55.55555556,63d7be523261fcaf84e94668,64b543b0a84ad6ab4a25b86a,64cb5075f8aa335d717cb388,,,,,,,decisionTrl,resources/DB.BMP,resources/DBN.BMP,Door1,0.275,-0.0275,1,0,0,0.843,optionRight,30,9235,4,35,0,35,0,1,,,,,,,,,,,,,,,,,,,,,,,,,,,,,,,,,,,,,,,
,,,,,,,,2023-08-03_08h02.06.579,HF_wild_card,2022.2.4,MacIntel,55.55555556,63d7be523261fcaf84e94668,64b543b0a84ad6ab4a25b86a,64cb5075f8aa335d717cb388,,,,,,,sngl,resources/DR.BMP,resources/Empty.png,Door3,-0.20125,-0.00875,1,0,0,0.477,optionLeft,70,9305,4,36,0,36,0,1,,,,,,,,,,,,,,,,,,,,,,,,,,,,,,,,,,,,,,,
,,,,,,,,2023-08-03_08h02.06.579,HF_wild_card,2022.2.4,MacIntel,55.55555556,63d7be523261fcaf84e94668,64b543b0a84ad6ab4a25b86a,64cb5075f8aa335d717cb388,,,,,,,ctch,resources/DB.BMP,resources/DR.BMP,Door3,0.2225,-0.035,1,0,0,0.558,optionRight,70,9375,4,37,0,37,0,1,,,,,,,,,,,,,,,,,,,,,,,,,,,,,,,,,,,,,,,
,,,,,,,,2023-08-03_08h02.06.579,HF_wild_card,2022.2.4,MacIntel,55.55555556,63d7be523261fcaf84e94668,64b543b0a84ad6ab4a25b86a,64cb5075f8aa335d717cb388,,,,,,,sngl,resources/DY.BMP,resources/Empty.png,WildCard_Ex,-0.2425,-0.0225,1,0,0,0.561,optionLeft,45,9420,4,38,0,38,0,1,,,,,,,,,,,,,,,,,,,,,,,,,,,,,,,,,,,,,,,
,,,,,,,,2023-08-03_08h02.06.579,HF_wild_card,2022.2.4,MacIntel,55.55555556,63d7be523261fcaf84e94668,64b543b0a84ad6ab4a25b86a,64cb5075f8aa335d717cb388,,,,,,,sngl,resources/Empty.png,resources/DP.BMP,Door4,0.26875,-0.0925,1,0,0,0.527,optionRight,80,9500,4,39,0,39,0,1,,,,,,,,,,,,,,,,,,,,,,,,,,,,,,,,,,,,,,,
,,,,,,,,2023-08-03_08h02.06.579,HF_wild_card,2022.2.4,MacIntel,55.55555556,63d7be523261fcaf84e94668,64b543b0a84ad6ab4a25b86a,64cb5075f8aa335d717cb388,,,,,,,decisionTrl,resources/DR.BMP,resources/DY.BMP,Door3,-0.255,-0.06875,1,0,0,0.712,optionLeft,70,9570,4,40,0,40,0,1,,,,,,,,,,,,,,,,,,,,,,,,,,,,,,,,,,,,,,,
,,,,,,,,2023-08-03_08h02.06.579,HF_wild_card,2022.2.4,MacIntel,55.55555556,63d7be523261fcaf84e94668,64b543b0a84ad6ab4a25b86a,64cb5075f8aa335d717cb388,,,,,,,sngl,resources/Empty.png,resources/DBN.BMP,Door1,0.24125,-0.0625,1,0,0,0.609,optionRight,30,9600,4,41,0,41,0,1,,,,,,,,,,,,,,,,,,,,,,,,,,,,,,,,,,,,,,,
,,,,,,,,2023-08-03_08h02.06.579,HF_wild_card,2022.2.4,MacIntel,55.55555556,63d7be523261fcaf84e94668,64b543b0a84ad6ab4a25b86a,64cb5075f8aa335d717cb388,,,,,,,decisionTrl,resources/DB.BMP,resources/DBN.BMP,Door1,0.22875,0.00125,1,0,0,0.895,optionRight,30,9630,4,42,0,42,0,1,,,,,,,,,,,,,,,,,,,,,,,,,,,,,,,,,,,,,,,
,,,,,,,,2023-08-03_08h02.06.579,HF_wild_card,2022.2.4,MacIntel,55.55555556,63d7be523261fcaf84e94668,64b543b0a84ad6ab4a25b86a,64cb5075f8aa335d717cb388,,,,,,,sngl,resources/DP.BMP,resources/Empty.png,Door4,-0.19875,-0.0575,1,0,0,0.527,optionLeft,60,9690,4,43,0,43,0,1,,,,,,,,,,,,,,,,,,,,,,,,,,,,,,,,,,,,,,,
,,,,,,,,2023-08-03_08h02.06.579,HF_wild_card,2022.2.4,MacIntel,55.55555556,63d7be523261fcaf84e94668,64b543b0a84ad6ab4a25b86a,64cb5075f8aa335d717cb388,,,,,,,,,,,,,,,,,,,,,,,,,,3,0,3,0,1,,,,,,,,,,,,,,,,,,,,,,,,,,,,,,,,,,
,,,,,,,,2023-08-03_08h02.06.579,HF_wild_card,2022.2.4,MacIntel,55.55555556,63d7be523261fcaf84e94668,64b543b0a84ad6ab4a25b86a,64cb5075f8aa335d717cb388,,,,,,,decisionTrl,resources/DBN.BMP,resources/DB.BMP,Door1,-0.39125,-0.03,1,0,0,1.659,optionLeft,30,9720,5,0,0,0,0,1,,,,,,,,,,,,,,,,,,,,,,,,,,,,,,,,,,,,,,,
,,,,,,,,2023-08-03_08h02.06.579,HF_wild_card,2022.2.4,MacIntel,55.55555556,63d7be523261fcaf84e94668,64b543b0a84ad6ab4a25b86a,64cb5075f8aa335d717cb388,,,,,,,sngl,resources/Empty.png,resources/DR.BMP,Door3,0.2175,-0.0375,1,0,0,0.527,optionRight,70,9790,5,1,0,1,0,1,,,,,,,,,,,,,,,,,,,,,,,,,,,,,,,,,,,,,,,
,,,,,,,,2023-08-03_08h02.06.579,HF_wild_card,2022.2.4,MacIntel,55.55555556,63d7be523261fcaf84e94668,64b543b0a84ad6ab4a25b86a,64cb5075f8aa335d717cb388,,,,,,,sngl,resources/Empty.png,resources/DB.BMP,Door2,0.215,-0.04625,1,0,0,0.511,optionRight,20,9810,5,2,0,2,0,1,,,,,,,,,,,,,,,,,,,,,,,,,,,,,,,,,,,,,,,
,,,,,,,,2023-08-03_08h02.06.579,HF_wild_card,2022.2.4,MacIntel,55.55555556,63d7be523261fcaf84e94668,64b543b0a84ad6ab4a25b86a,64cb5075f8aa335d717cb388,,,,,,,sngl,resources/Empty.png,resources/DP.BMP,Door4,0.13375,-0.0125,1,0,0,0.778,optionRight,60,9870,5,3,0,3,0,1,,,,,,,,,,,,,,,,,,,,,,,,,,,,,,,,,,,,,,,
,,,,,,,,2023-08-03_08h02.06.579,HF_wild_card,2022.2.4,MacIntel,55.55555556,63d7be523261fcaf84e94668,64b543b0a84ad6ab4a25b86a,64cb5075f8aa335d717cb388,,,,,,,ctch,resources/DBN.BMP,resources/DP.BMP,Door4,0.2825,-0.0475,1,0,0,1.144,optionRight,60,9930,5,4,0,4,0,1,,,,,,,,,,,,,,,,,,,,,,,,,,,,,,,,,,,,,,,
,,,,,,,,2023-08-03_08h02.06.579,HF_wild_card,2022.2.4,MacIntel,55.55555556,63d7be523261fcaf84e94668,64b543b0a84ad6ab4a25b86a,64cb5075f8aa335d717cb388,,,,,,,decisionTrl,resources/DB.BMP,resources/DBN.BMP,Door1,0.435,-0.07875,1,0,0,0.998,optionRight,30,9960,5,5,0,5,0,1,,,,,,,,,,,,,,,,,,,,,,,,,,,,,,,,,,,,,,,
,,,,,,,,2023-08-03_08h02.06.579,HF_wild_card,2022.2.4,MacIntel,55.55555556,63d7be523261fcaf84e94668,64b543b0a84ad6ab4a25b86a,64cb5075f8aa335d717cb388,,,,,,,decisionTrl,resources/DBN.BMP,resources/DB.BMP,Door1,-0.32125,-0.02875,1,0,0,0.627,optionLeft,30,9990,5,6,0,6,0,1,,,,,,,,,,,,,,,,,,,,,,,,,,,,,,,,,,,,,,,
,,,,,,,,2023-08-03_08h02.06.579,HF_wild_card,2022.2.4,MacIntel,55.55555556,63d7be523261fcaf84e94668,64b543b0a84ad6ab4a25b86a,64cb5075f8aa335d717cb388,,,,,,,ctch,resources/DR.BMP,resources/DB.BMP,Door3,-0.35,0.00125,1,0,0,1.04,optionLeft,70,10060,5,7,0,7,0,1,,,,,,,,,,,,,,,,,,,,,,,,,,,,,,,,,,,,,,,
,,,,,,,,2023-08-03_08h02.06.579,HF_wild_card,2022.2.4,MacIntel,55.55555556,63d7be523261fcaf84e94668,64b543b0a84ad6ab4a25b86a,64cb5075f8aa335d717cb388,,,,,,,ctch,resources/DP.BMP,resources/DBN.BMP,Door4,-0.24875,-0.0275,1,0,0,0.825,optionLeft,80,10140,5,8,0,8,0,1,,,,,,,,,,,,,,,,,,,,,,,,,,,,,,,,,,,,,,,
,,,,,,,,2023-08-03_08h02.06.579,HF_wild_card,2022.2.4,MacIntel,55.55555556,63d7be523261fcaf84e94668,64b543b0a84ad6ab4a25b86a,64cb5075f8aa335d717cb388,,,,,,,sngl,resources/Empty.png,resources/DY.BMP,WildCard_Ex,0.32,-0.035,1,0,0,0.588,optionRight,45,10185,5,9,0,9,0,1,,,,,,,,,,,,,,,,,,,,,,,,,,,,,,,,,,,,,,,
,,,,,,,,2023-08-03_08h02.06.579,HF_wild_card,2022.2.4,MacIntel,55.55555556,63d7be523261fcaf84e94668,64b543b0a84ad6ab4a25b86a,64cb5075f8aa335d717cb388,,,,,,,ctch,resources/DB.BMP,resources/DR.BMP,Door3,0.2775,-0.02875,1,0,0,0.874,optionRight,70,10255,5,10,0,10,0,1,,,,,,,,,,,,,,,,,,,,,,,,,,,,,,,,,,,,,,,
,,,,,,,,2023-08-03_08h02.06.579,HF_wild_card,2022.2.4,MacIntel,55.55555556,63d7be523261fcaf84e94668,64b543b0a84ad6ab4a25b86a,64cb5075f8aa335d717cb388,,,,,,,decisionTrl,resources/DB.BMP,resources/DY.BMP,WildCard_Ex,0.21875,-0.055,1,0,0,1.492,optionRight,55,10310,5,11,0,11,0,1,,,,,,,,,,,,,,,,,,,,,,,,,,,,,,,,,,,,,,,
,,,,,,,,2023-08-03_08h02.06.579,HF_wild_card,2022.2.4,MacIntel,55.55555556,63d7be523261fcaf84e94668,64b543b0a84ad6ab4a25b86a,64cb5075f8aa335d717cb388,,,,,,,decisionTrl,resources/DY.BMP,resources/DB.BMP,WildCard_Ex,-0.23,-0.0175,1,0,0,0.628,optionLeft,55,10365,5,12,0,12,0,1,,,,,,,,,,,,,,,,,,,,,,,,,,,,,,,,,,,,,,,
,,,,,,,,2023-08-03_08h02.06.579,HF_wild_card,2022.2.4,MacIntel,55.55555556,63d7be523261fcaf84e94668,64b543b0a84ad6ab4a25b86a,64cb5075f8aa335d717cb388,,,,,,,decisionTrl,resources/DR.BMP,resources/DP.BMP,Door3,-0.30375,-0.0425,1,0,0,1.011,optionLeft,70,10435,5,13,0,13,0,1,,,,,,,,,,,,,,,,,,,,,,,,,,,,,,,,,,,,,,,
,,,,,,,,2023-08-03_08h02.06.579,HF_wild_card,2022.2.4,MacIntel,55.55555556,63d7be523261fcaf84e94668,64b543b0a84ad6ab4a25b86a,64cb5075f8aa335d717cb388,,,,,,,ctch,resources/DBN.BMP,resources/DP.BMP,Door4,0.3175,-0.04,1,0,0,0.58,optionRight,80,10515,5,14,0,14,0,1,,,,,,,,,,,,,,,,,,,,,,,,,,,,,,,,,,,,,,,
,,,,,,,,2023-08-03_08h02.06.579,HF_wild_card,2022.2.4,MacIntel,55.55555556,63d7be523261fcaf84e94668,64b543b0a84ad6ab4a25b86a,64cb5075f8aa335d717cb388,,,,,,,decisionTrl,resources/DB.BMP,resources/DBN.BMP,Door1,0.33875,0,1,0,0,0.86,optionRight,30,10545,5,15,0,15,0,1,,,,,,,,,,,,,,,,,,,,,,,,,,,,,,,,,,,,,,,
,,,,,,,,2023-08-03_08h02.06.579,HF_wild_card,2022.2.4,MacIntel,55.55555556,63d7be523261fcaf84e94668,64b543b0a84ad6ab4a25b86a,64cb5075f8aa335d717cb388,,,,,,,ctch,resources/DP.BMP,resources/DBN.BMP,Door4,-0.20875,-0.03125,1,0,0,0.666,optionLeft,80,10625,5,16,0,16,0,1,,,,,,,,,,,,,,,,,,,,,,,,,,,,,,,,,,,,,,,
,,,,,,,,2023-08-03_08h02.06.579,HF_wild_card,2022.2.4,MacIntel,55.55555556,63d7be523261fcaf84e94668,64b543b0a84ad6ab4a25b86a,64cb5075f8aa335d717cb388,,,,,,,decisionTrl,resources/DY.BMP,resources/DR.BMP,Door3,0.2375,-0.0425,1,0,0,1.088,optionRight,70,10695,5,17,0,17,0,1,,,,,,,,,,,,,,,,,,,,,,,,,,,,,,,,,,,,,,,
,,,,,,,,2023-08-03_08h02.06.579,HF_wild_card,2022.2.4,MacIntel,55.55555556,63d7be523261fcaf84e94668,64b543b0a84ad6ab4a25b86a,64cb5075f8aa335d717cb388,,,,,,,sngl,resources/Empty.png,resources/DBN.BMP,Door1,0.22,-0.0225,1,0,0,0.625,optionRight,30,10725,5,18,0,18,0,1,,,,,,,,,,,,,,,,,,,,,,,,,,,,,,,,,,,,,,,
,,,,,,,,2023-08-03_08h02.06.579,HF_wild_card,2022.2.4,MacIntel,55.55555556,63d7be523261fcaf84e94668,64b543b0a84ad6ab4a25b86a,64cb5075f8aa335d717cb388,,,,,,,sngl,resources/DBN.BMP,resources/Empty.png,Door1,-0.275,-0.0075,1,0,0,1.429,optionLeft,30,10755,5,19,0,19,0,1,,,,,,,,,,,,,,,,,,,,,,,,,,,,,,,,,,,,,,,
,,,,,,,,2023-08-03_08h02.06.579,HF_wild_card,2022.2.4,MacIntel,55.55555556,63d7be523261fcaf84e94668,64b543b0a84ad6ab4a25b86a,64cb5075f8aa335d717cb388,,,,,,,sngl,resources/DB.BMP,resources/Empty.png,Door2,-0.3225,-0.09875,1,0,0,4.612,optionLeft,40,10795,5,20,0,20,0,1,,,,,,,,,,,,,,,,,,,,,,,,,,,,,,,,,,,,,,,
,,,,,,,,2023-08-03_08h02.06.579,HF_wild_card,2022.2.4,MacIntel,55.55555556,63d7be523261fcaf84e94668,64b543b0a84ad6ab4a25b86a,64cb5075f8aa335d717cb388,,,,,,,ctch,resources/DR.BMP,resources/DB.BMP,Door3,-0.18375,-0.06,1,0,0,2.963,optionLeft,70,10865,5,21,0,21,0,1,,,,,,,,,,,,,,,,,,,,,,,,,,,,,,,,,,,,,,,
,,,,,,,,2023-08-03_08h02.06.579,HF_wild_card,2022.2.4,MacIntel,55.55555556,63d7be523261fcaf84e94668,64b543b0a84ad6ab4a25b86a,64cb5075f8aa335d717cb388,,,,,,,decisionTrl,resources/DP.BMP,resources/DR.BMP,Door4,-0.3025,-0.03625,1,0,0,0.978,optionLeft,80,10945,5,22,0,22,0,1,,,,,,,,,,,,,,,,,,,,,,,,,,,,,,,,,,,,,,,
,,,,,,,,2023-08-03_08h02.06.579,HF_wild_card,2022.2.4,MacIntel,55.55555556,63d7be523261fcaf84e94668,64b543b0a84ad6ab4a25b86a,64cb5075f8aa335d717cb388,,,,,,,sngl,resources/Empty.png,resources/DY.BMP,WildCard_Ex,0.235,-0.0425,1,0,0,0.592,optionRight,55,11000,5,23,0,23,0,1,,,,,,,,,,,,,,,,,,,,,,,,,,,,,,,,,,,,,,,
,,,,,,,,2023-08-03_08h02.06.579,HF_wild_card,2022.2.4,MacIntel,55.55555556,63d7be523261fcaf84e94668,64b543b0a84ad6ab4a25b86a,64cb5075f8aa335d717cb388,,,,,,,sngl,resources/DY.BMP,resources/Empty.png,WildCard_Ex,-0.19,-0.015,1,0,0,0.494,optionLeft,45,11045,5,24,0,24,0,1,,,,,,,,,,,,,,,,,,,,,,,,,,,,,,,,,,,,,,,
,,,,,,,,2023-08-03_08h02.06.579,HF_wild_card,2022.2.4,MacIntel,55.55555556,63d7be523261fcaf84e94668,64b543b0a84ad6ab4a25b86a,64cb5075f8aa335d717cb388,,,,,,,decisionTrl,resources/DB.BMP,resources/DBN.BMP,Door1,0.45625,-0.05375,1,0,0,0.862,optionRight,30,11075,5,25,0,25,0,1,,,,,,,,,,,,,,,,,,,,,,,,,,,,,,,,,,,,,,,
,,,,,,,,2023-08-03_08h02.06.579,HF_wild_card,2022.2.4,MacIntel,55.55555556,63d7be523261fcaf84e94668,64b543b0a84ad6ab4a25b86a,64cb5075f8aa335d717cb388,,,,,,,decisionTrl,resources/DR.BMP,resources/DY.BMP,Door3,-0.31375,-0.0575,1,0,0,0.595,optionLeft,70,11145,5,26,0,26,0,1,,,,,,,,,,,,,,,,,,,,,,,,,,,,,,,,,,,,,,,
,,,,,,,,2023-08-03_08h02.06.579,HF_wild_card,2022.2.4,MacIntel,55.55555556,63d7be523261fcaf84e94668,64b543b0a84ad6ab4a25b86a,64cb5075f8aa335d717cb388,,,,,,,sngl,resources/DY.BMP,resources/Empty.png,WildCard_Ex,-0.17875,-0.04375,1,0,0,0.577,optionLeft,55,11200,5,27,0,27,0,1,,,,,,,,,,,,,,,,,,,,,,,,,,,,,,,,,,,,,,,
,,,,,,,,2023-08-03_08h02.06.579,HF_wild_card,2022.2.4,MacIntel,55.55555556,63d7be523261fcaf84e94668,64b543b0a84ad6ab4a25b86a,64cb5075f8aa335d717cb388,,,,,,,decisionTrl,resources/DP.BMP,resources/DR.BMP,Door4,-0.35875,-0.1475,1,0,0,0.66,optionLeft,80,11280,5,28,0,28,0,1,,,,,,,,,,,,,,,,,,,,,,,,,,,,,,,,,,,,,,,
,,,,,,,,2023-08-03_08h02.06.579,HF_wild_card,2022.2.4,MacIntel,55.55555556,63d7be523261fcaf84e94668,64b543b0a84ad6ab4a25b86a,64cb5075f8aa335d717cb388,,,,,,,decisionTrl,resources/DY.BMP,resources/DP.BMP,Door4,0.2725,-0.06875,1,0,0,0.578,optionRight,60,11340,5,29,0,29,0,1,,,,,,,,,,,,,,,,,,,,,,,,,,,,,,,,,,,,,,,
,,,,,,,,2023-08-03_08h02.06.579,HF_wild_card,2022.2.4,MacIntel,55.55555556,63d7be523261fcaf84e94668,64b543b0a84ad6ab4a25b86a,64cb5075f8aa335d717cb388,,,,,,,decisionTrl,resources/DBN.BMP,resources/DB.BMP,Door1,-0.2625,-0.0475,1,0,0,1.879,optionLeft,30,11370,5,30,0,30,0,1,,,,,,,,,,,,,,,,,,,,,,,,,,,,,,,,,,,,,,,
,,,,,,,,2023-08-03_08h02.06.579,HF_wild_card,2022.2.4,MacIntel,55.55555556,63d7be523261fcaf84e94668,64b543b0a84ad6ab4a25b86a,64cb5075f8aa335d717cb388,,,,,,,decisionTrl,resources/DP.BMP,resources/DR.BMP,Door4,-0.315,-0.0725,1,0,0,0.644,optionLeft,60,11430,5,31,0,31,0,1,,,,,,,,,,,,,,,,,,,,,,,,,,,,,,,,,,,,,,,
,,,,,,,,2023-08-03_08h02.06.579,HF_wild_card,2022.2.4,MacIntel,55.55555556,63d7be523261fcaf84e94668,64b543b0a84ad6ab4a25b86a,64cb5075f8aa335d717cb388,,,,,,,decisionTrl,resources/DY.BMP,resources/DBN.BMP,WildCard_Ex,-0.315,-0.06875,1,0,0,0.611,optionLeft,55,11485,5,32,0,32,0,1,,,,,,,,,,,,,,,,,,,,,,,,,,,,,,,,,,,,,,,
,,,,,,,,2023-08-03_08h02.06.579,HF_wild_card,2022.2.4,MacIntel,55.55555556,63d7be523261fcaf84e94668,64b543b0a84ad6ab4a25b86a,64cb5075f8aa335d717cb388,,,,,,,ctch,resources/DB.BMP,resources/DR.BMP,Door3,0.26,-0.04625,1,0,0,0.567,optionRight,70,11555,5,33,0,33,0,1,,,,,,,,,,,,,,,,,,,,,,,,,,,,,,,,,,,,,,,
,,,,,,,,2023-08-03_08h02.06.579,HF_wild_card,2022.2.4,MacIntel,55.55555556,63d7be523261fcaf84e94668,64b543b0a84ad6ab4a25b86a,64cb5075f8aa335d717cb388,,,,,,,sngl,resources/DR.BMP,resources/Empty.png,Door3,-0.205,-0.0275,1,0,0,0.46,optionLeft,70,11625,5,34,0,34,0,1,,,,,,,,,,,,,,,,,,,,,,,,,,,,,,,,,,,,,,,
,,,,,,,,2023-08-03_08h02.06.579,HF_wild_card,2022.2.4,MacIntel,55.55555556,63d7be523261fcaf84e94668,64b543b0a84ad6ab4a25b86a,64cb5075f8aa335d717cb388,,,,,,,decisionTrl,resources/DBN.BMP,resources/DY.BMP,WildCard_Ex,0.2375,-0.08625,1,0,0,0.578,optionRight,55,11680,5,35,0,35,0,1,,,,,,,,,,,,,,,,,,,,,,,,,,,,,,,,,,,,,,,
,,,,,,,,2023-08-03_08h02.06.579,HF_wild_card,2022.2.4,MacIntel,55.55555556,63d7be523261fcaf84e94668,64b543b0a84ad6ab4a25b86a,64cb5075f8aa335d717cb388,,,,,,,decisionTrl,resources/DBN.BMP,resources/DB.BMP,Door1,-0.32,-0.06125,1,0,0,1.563,optionLeft,30,11710,5,36,0,36,0,1,,,,,,,,,,,,,,,,,,,,,,,,,,,,,,,,,,,,,,,
,,,,,,,,2023-08-03_08h02.06.579,HF_wild_card,2022.2.4,MacIntel,55.55555556,63d7be523261fcaf84e94668,64b543b0a84ad6ab4a25b86a,64cb5075f8aa335d717cb388,,,,,,,decisionTrl,resources/DB.BMP,resources/DBN.BMP,Door1,0.2675,-0.05375,1,0,0,0.81,optionRight,30,11740,5,37,0,37,0,1,,,,,,,,,,,,,,,,,,,,,,,,,,,,,,,,,,,,,,,
,,,,,,,,2023-08-03_08h02.06.579,HF_wild_card,2022.2.4,MacIntel,55.55555556,63d7be523261fcaf84e94668,64b543b0a84ad6ab4a25b86a,64cb5075f8aa335d717cb388,,,,,,,decisionTrl,resources/DR.BMP,resources/DP.BMP,Door3,-0.16625,-0.03,0,0,1,0.693,optionLeft,70,11810,5,38,0,38,0,1,,,,,,,,,,,,,,,,,,,,,,,,,,,,,,,,,,,,,,,
,,,,,,,,2023-08-03_08h02.06.579,HF_wild_card,2022.2.4,MacIntel,55.55555556,63d7be523261fcaf84e94668,64b543b0a84ad6ab4a25b86a,64cb5075f8aa335d717cb388,,,,,,,sngl,resources/DP.BMP,resources/Empty.png,Door4,-0.00375,0.00625,0,0,1,0.057,optionLeft,80,11890,5,39,0,39,0,1,,,,,,,,,,,,,,,,,,,,,,,,,,,,,,,,,,,,,,,
,,,,,,,,2023-08-03_08h02.06.579,HF_wild_card,2022.2.4,MacIntel,55.55555556,63d7be523261fcaf84e94668,64b543b0a84ad6ab4a25b86a,64cb5075f8aa335d717cb388,,,,,,,decisionTrl,resources/DR.BMP,resources/DP.BMP,Door4,0.01375,0.01125,0,0,1,0.062,optionRight,60,11950,5,40,0,40,0,1,,,,,,,,,,,,,,,,,,,,,,,,,,,,,,,,,,,,,,,
,,,,,,,,2023-08-03_08h02.06.579,HF_wild_card,2022.2.4,MacIntel,55.55555556,63d7be523261fcaf84e94668,64b543b0a84ad6ab4a25b86a,64cb5075f8aa335d717cb388,,,,,,,decisionTrl,resources/DP.BMP,resources/DY.BMP,Door4,-0.005,-0.00375,0,0,1,0.112,optionLeft,80,12030,5,41,0,41,0,1,,,,,,,,,,,,,,,,,,,,,,,,,,,,,,,,,,,,,,,
,,,,,,,,2023-08-03_08h02.06.579,HF_wild_card,2022.2.4,MacIntel,55.55555556,63d7be523261fcaf84e94668,64b543b0a84ad6ab4a25b86a,64cb5075f8aa335d717cb388,,,,,,,decisionTrl,resources/DP.BMP,resources/DR.BMP,Door3,-0.0025,0.005,0,0,1,0.076,optionRight,70,12100,5,42,0,42,0,1,,,,,,,,,,,,,,,,,,,,,,,,,,,,,,,,,,,,,,,
,,,,,,,,2023-08-03_08h02.06.579,HF_wild_card,2022.2.4,MacIntel,55.55555556,63d7be523261fcaf84e94668,64b543b0a84ad6ab4a25b86a,64cb5075f8aa335d717cb388,,,,,,,decisionTrl,resources/DR.BMP,resources/DP.BMP,Door3,-0.005,-0.0125,0,0,1,0.094,optionLeft,70,12170,5,43,0,43,0,1,,,,,,,,,,,,,,,,,,,,,,,,,,,,,,,,,,,,,,,
,,,,,,,,2023-08-03_08h02.06.579,HF_wild_card,2022.2.4,MacIntel,55.55555556,63d7be523261fcaf84e94668,64b543b0a84ad6ab4a25b86a,64cb5075f8aa335d717cb388,,,,,,,,,,,,,,,,,,,,,,,,,,4,0,4,0,1,,,,,,,,,,,,,,,,,,,,,,,,,,,,,,,,,,
,,,,,,,,2023-08-03_08h02.06.579,HF_wild_card,2022.2.4,MacIntel,55.55555556,63d7be523261fcaf84e94668,64b543b0a84ad6ab4a25b86a,64cb5075f8aa335d717cb388,,,,,,,decisionTrl,resources/DP.BMP,resources/DR.BMP,Door3,-0.02625,-0.29625,0,0,1,0.159,optionRight,70,12240,6,0,0,0,0,1,,,,,,,,,,,,,,,,,,,,,,,,,,,,,,,,,,,,,,,
,,,,,,,,2023-08-03_08h02.06.579,HF_wild_card,2022.2.4,MacIntel,55.55555556,63d7be523261fcaf84e94668,64b543b0a84ad6ab4a25b86a,64cb5075f8aa335d717cb388,,,,,,,ctch,resources/DP.BMP,resources/DBN.BMP,Door4,0.015,0.005,0,0,1,0.061,optionLeft,60,12300,6,1,0,1,0,1,,,,,,,,,,,,,,,,,,,,,,,,,,,,,,,,,,,,,,,
,,,,,,,,2023-08-03_08h02.06.579,HF_wild_card,2022.2.4,MacIntel,55.55555556,63d7be523261fcaf84e94668,64b543b0a84ad6ab4a25b86a,64cb5075f8aa335d717cb388,,,,,,,sngl,resources/Empty.png,resources/DY.BMP,WildCard_Ex,0.01125,0.0075,0,0,1,0.076,optionRight,45,12345,6,2,0,2,0,1,,,,,,,,,,,,,,,,,,,,,,,,,,,,,,,,,,,,,,,
,,,,,,,,2023-08-03_08h02.06.579,HF_wild_card,2022.2.4,MacIntel,55.55555556,63d7be523261fcaf84e94668,64b543b0a84ad6ab4a25b86a,64cb5075f8aa335d717cb388,,,,,,,decisionTrl,resources/DBN.BMP,resources/DB.BMP,Door1,-0.005,-0.0025,0,0,1,0.06,optionLeft,30,12375,6,3,0,3,0,1,,,,,,,,,,,,,,,,,,,,,,,,,,,,,,,,,,,,,,,
,,,,,,,,2023-08-03_08h02.06.579,HF_wild_card,2022.2.4,MacIntel,55.55555556,63d7be523261fcaf84e94668,64b543b0a84ad6ab4a25b86a,64cb5075f8aa335d717cb388,,,,,,,decisionTrl,resources/DB.BMP,resources/DBN.BMP,Door1,0.01375,0.0025,0,0,1,0.062,optionRight,30,12405,6,4,0,4,0,1,,,,,,,,,,,,,,,,,,,,,,,,,,,,,,,,,,,,,,,
,,,,,,,,2023-08-03_08h02.06.579,HF_wild_card,2022.2.4,MacIntel,55.55555556,63d7be523261fcaf84e94668,64b543b0a84ad6ab4a25b86a,64cb5075f8aa335d717cb388,,,,,,,sngl,resources/DR.BMP,resources/Empty.png,Door3,0,-0.01125,0,0,1,0.062,optionLeft,70,12475,6,5,0,5,0,1,,,,,,,,,,,,,,,,,,,,,,,,,,,,,,,,,,,,,,,
,,,,,,,,2023-08-03_08h02.06.579,HF_wild_card,2022.2.4,MacIntel,55.55555556,63d7be523261fcaf84e94668,64b543b0a84ad6ab4a25b86a,64cb5075f8aa335d717cb388,,,,,,,decisionTrl,resources/DR.BMP,resources/DP.BMP,Door3,-0.00375,-0.00125,0,0,1,0.076,optionLeft,70,12545,6,6,0,6,0,1,,,,,,,,,,,,,,,,,,,,,,,,,,,,,,,,,,,,,,,
,,,,,,,,2023-08-03_08h02.06.579,HF_wild_card,2022.2.4,MacIntel,55.55555556,63d7be523261fcaf84e94668,64b543b0a84ad6ab4a25b86a,64cb5075f8aa335d717cb388,,,,,,,decisionTrl,resources/DR.BMP,resources/DP.BMP,Door4,-0.0075,-0.00625,0,0,1,0.061,optionRight,60,12605,6,7,0,7,0,1,,,,,,,,,,,,,,,,,,,,,,,,,,,,,,,,,,,,,,,
,,,,,,,,2023-08-03_08h02.06.579,HF_wild_card,2022.2.4,MacIntel,55.55555556,63d7be523261fcaf84e94668,64b543b0a84ad6ab4a25b86a,64cb5075f8aa335d717cb388,,,,,,,decisionTrl,resources/DP.BMP,resources/DR.BMP,Door3,-0.01875,0.005,0,0,1,0.078,optionRight,70,12675,6,8,0,8,0,1,,,,,,,,,,,,,,,,,,,,,,,,,,,,,,,,,,,,,,,
,,,,,,,,2023-08-03_08h02.06.579,HF_wild_card,2022.2.4,MacIntel,55.55555556,63d7be523261fcaf84e94668,64b543b0a84ad6ab4a25b86a,64cb5075f8aa335d717cb388,,,,,,,decisionTrl,resources/DBN.BMP,resources/DB.BMP,Door1,-0.00125,-0.015,0,0,1,0.093,optionLeft,30,12705,6,9,0,9,0,1,,,,,,,,,,,,,,,,,,,,,,,,,,,,,,,,,,,,,,,
,,,,,,,,2023-08-03_08h02.06.579,HF_wild_card,2022.2.4,MacIntel,55.55555556,63d7be523261fcaf84e94668,64b543b0a84ad6ab4a25b86a,64cb5075f8aa335d717cb388,,,,,,,sngl,resources/DB.BMP,resources/Empty.png,Door2,-0.25375,-0.0125,1,0,1,0.562,optionLeft,20,12725,6,10,0,10,0,1,,,,,,,,,,,,,,,,,,,,,,,,,,,,,,,,,,,,,,,
,,,,,,,,2023-08-03_08h02.06.579,HF_wild_card,2022.2.4,MacIntel,55.55555556,63d7be523261fcaf84e94668,64b543b0a84ad6ab4a25b86a,64cb5075f8aa335d717cb388,,,,,,,ctch,resources/DBN.BMP,resources/DP.BMP,Door4,-0.00375,0.005,0,0,1,0.078,optionRight,80,12805,6,11,0,11,0,1,,,,,,,,,,,,,,,,,,,,,,,,,,,,,,,,,,,,,,,
,,,,,,,,2023-08-03_08h02.06.579,HF_wild_card,2022.2.4,MacIntel,55.55555556,63d7be523261fcaf84e94668,64b543b0a84ad6ab4a25b86a,64cb5075f8aa335d717cb388,,,,,,,sngl,resources/DY.BMP,resources/Empty.png,WildCard_Ex,-0.01,0.0025,0,0,1,0.084,optionLeft,45,12850,6,12,0,12,0,1,,,,,,,,,,,,,,,,,,,,,,,,,,,,,,,,,,,,,,,
,,,,,,,,2023-08-03_08h02.06.579,HF_wild_card,2022.2.4,MacIntel,55.55555556,63d7be523261fcaf84e94668,64b543b0a84ad6ab4a25b86a,64cb5075f8aa335d717cb388,,,,,,,decisionTrl,resources/DB.BMP,resources/DBN.BMP,Door2,-0.00125,-0.00625,0,0,1,0.128,optionLeft,20,12870,6,13,0,13,0,1,,,,,,,,,,,,,,,,,,,,,,,,,,,,,,,,,,,,,,,
,,,,,,,,2023-08-03_08h02.06.579,HF_wild_card,2022.2.4,MacIntel,55.55555556,63d7be523261fcaf84e94668,64b543b0a84ad6ab4a25b86a,64cb5075f8aa335d717cb388,,,,,,,ctch,resources/DP.BMP,resources/DBN.BMP,Door4,0.005,0.00625,0,0,1,0.118,optionLeft,60,12930,6,14,0,14,0,1,,,,,,,,,,,,,,,,,,,,,,,,,,,,,,,,,,,,,,,
,,,,,,,,2023-08-03_08h02.06.579,HF_wild_card,2022.2.4,MacIntel,55.55555556,63d7be523261fcaf84e94668,64b543b0a84ad6ab4a25b86a,64cb5075f8aa335d717cb388,,,,,,,ctch,resources/DB.BMP,resources/DR.BMP,Door3,0.01875,0.0075,0,0,1,0.077,optionRight,70,13000,6,15,0,15,0,1,,,,,,,,,,,,,,,,,,,,,,,,,,,,,,,,,,,,,,,
,,,,,,,,2023-08-03_08h02.06.579,HF_wild_card,2022.2.4,MacIntel,55.55555556,63d7be523261fcaf84e94668,64b543b0a84ad6ab4a25b86a,64cb5075f8aa335d717cb388,,,,,,,decisionTrl,resources/DR.BMP,resources/DY.BMP,Door3,0.005,-0.00875,0,0,1,0.077,optionLeft,70,13070,6,16,0,16,0,1,,,,,,,,,,,,,,,,,,,,,,,,,,,,,,,,,,,,,,,
,,,,,,,,2023-08-03_08h02.06.579,HF_wild_card,2022.2.4,MacIntel,55.55555556,63d7be523261fcaf84e94668,64b543b0a84ad6ab4a25b86a,64cb5075f8aa335d717cb388,,,,,,,decisionTrl,resources/DY.BMP,resources/DB.BMP,WildCard_Ex,0.0175,-0.00375,0,0,1,0.076,optionLeft,55,13125,6,17,0,17,0,1,,,,,,,,,,,,,,,,,,,,,,,,,,,,,,,,,,,,,,,
,,,,,,,,2023-08-03_08h02.06.579,HF_wild_card,2022.2.4,MacIntel,55.55555556,63d7be523261fcaf84e94668,64b543b0a84ad6ab4a25b86a,64cb5075f8aa335d717cb388,,,,,,,sngl,resources/Empty.png,resources/DR.BMP,Door3,0.0025,-0.0125,0,0,1,0.077,optionRight,70,13195,6,18,0,18,0,1,,,,,,,,,,,,,,,,,,,,,,,,,,,,,,,,,,,,,,,
,,,,,,,,2023-08-03_08h02.06.579,HF_wild_card,2022.2.4,MacIntel,55.55555556,63d7be523261fcaf84e94668,64b543b0a84ad6ab4a25b86a,64cb5075f8aa335d717cb388,,,,,,,decisionTrl,resources/DBN.BMP,resources/DB.BMP,Door1,-0.0125,0.00375,0,0,1,0.113,optionLeft,30,13225,6,19,0,19,0,1,,,,,,,,,,,,,,,,,,,,,,,,,,,,,,,,,,,,,,,
,,,,,,,,2023-08-03_08h02.06.579,HF_wild_card,2022.2.4,MacIntel,55.55555556,63d7be523261fcaf84e94668,64b543b0a84ad6ab4a25b86a,64cb5075f8aa335d717cb388,,,,,,,sngl,resources/Empty.png,resources/DB.BMP,Door2,0.01375,-0.01625,0,0,1,0.11,optionRight,40,13265,6,20,0,20,0,1,,,,,,,,,,,,,,,,,,,,,,,,,,,,,,,,,,,,,,,
,,,,,,,,2023-08-03_08h02.06.579,HF_wild_card,2022.2.4,MacIntel,55.55555556,63d7be523261fcaf84e94668,64b543b0a84ad6ab4a25b86a,64cb5075f8aa335d717cb388,,,,,,,decisionTrl,resources/DP.BMP,resources/DR.BMP,Door3,-0.0225,-0.0025,0,0,1,0.076,optionRight,70,13335,6,21,0,21,0,1,,,,,,,,,,,,,,,,,,,,,,,,,,,,,,,,,,,,,,,
,,,,,,,,2023-08-03_08h02.06.579,HF_wild_card,2022.2.4,MacIntel,55.55555556,63d7be523261fcaf84e94668,64b543b0a84ad6ab4a25b86a,64cb5075f8aa335d717cb388,,,,,,,decisionTrl,resources/DB.BMP,resources/DY.BMP,WildCard_Ex,-0.00625,-0.0175,0,0,1,0.076,optionRight,55,13390,6,22,0,22,0,1,,,,,,,,,,,,,,,,,,,,,,,,,,,,,,,,,,,,,,,
,,,,,,,,2023-08-03_08h02.06.579,HF_wild_card,2022.2.4,MacIntel,55.55555556,63d7be523261fcaf84e94668,64b543b0a84ad6ab4a25b86a,64cb5075f8aa335d717cb388,,,,,,,sngl,resources/DP.BMP,resources/Empty.png,Door4,0.02,0.005,0,0,1,0.094,optionLeft,60,13450,6,23,0,23,0,1,,,,,,,,,,,,,,,,,,,,,,,,,,,,,,,,,,,,,,,
,,,,,,,,2023-08-03_08h02.06.579,HF_wild_card,2022.2.4,MacIntel,55.55555556,63d7be523261fcaf84e94668,64b543b0a84ad6ab4a25b86a,64cb5075f8aa335d717cb388,,,,,,,decisionTrl,resources/DY.BMP,resources/DP.BMP,Door4,-0.0125,0.0025,0,0,1,0.061,optionRight,80,13530,6,24,0,24,0,1,,,,,,,,,,,,,,,,,,,,,,,,,,,,,,,,,,,,,,,
,,,,,,,,2023-08-03_08h02.06.579,HF_wild_card,2022.2.4,MacIntel,55.55555556,63d7be523261fcaf84e94668,64b543b0a84ad6ab4a25b86a,64cb5075f8aa335d717cb388,,,,,,,decisionTrl,resources/DY.BMP,resources/DBN.BMP,WildCard_Ex,0.015,-0.00625,0,0,1,0.077,optionLeft,45,13575,6,25,0,25,0,1,,,,,,,,,,,,,,,,,,,,,,,,,,,,,,,,,,,,,,,
,,,,,,,,2023-08-03_08h02.06.579,HF_wild_card,2022.2.4,MacIntel,55.55555556,63d7be523261fcaf84e94668,64b543b0a84ad6ab4a25b86a,64cb5075f8aa335d717cb388,,,,,,,sngl,resources/Empty.png,resources/DP.BMP,Door4,0.01375,-0.00125,0,0,1,0.076,optionRight,80,13655,6,26,0,26,0,1,,,,,,,,,,,,,,,,,,,,,,,,,,,,,,,,,,,,,,,
,,,,,,,,2023-08-03_08h02.06.579,HF_wild_card,2022.2.4,MacIntel,55.55555556,63d7be523261fcaf84e94668,64b543b0a84ad6ab4a25b86a,64cb5075f8aa335d717cb388,,,,,,,sngl,resources/Empty.png,resources/DY.BMP,WildCard_Ex,-0.015,-0.0075,0,0,1,0.076,optionRight,55,13710,6,27,0,27,0,1,,,,,,,,,,,,,,,,,,,,,,,,,,,,,,,,,,,,,,,
,,,,,,,,2023-08-03_08h02.06.579,HF_wild_card,2022.2.4,MacIntel,55.55555556,63d7be523261fcaf84e94668,64b543b0a84ad6ab4a25b86a,64cb5075f8aa335d717cb388,,,,,,,ctch,resources/DBN.BMP,resources/DP.BMP,Door4,-0.0025,-0.0125,0,0,1,0.06,optionRight,60,13770,6,28,0,28,0,1,,,,,,,,,,,,,,,,,,,,,,,,,,,,,,,,,,,,,,,
,,,,,,,,2023-08-03_08h02.06.579,HF_wild_card,2022.2.4,MacIntel,55.55555556,63d7be523261fcaf84e94668,64b543b0a84ad6ab4a25b86a,64cb5075f8aa335d717cb388,,,,,,,decisionTrl,resources/DR.BMP,resources/DP.BMP,Door4,0.0025,-0.01375,0,0,1,0.077,optionRight,60,13830,6,29,0,29,0,1,,,,,,,,,,,,,,,,,,,,,,,,,,,,,,,,,,,,,,,
,,,,,,,,2023-08-03_08h02.06.579,HF_wild_card,2022.2.4,MacIntel,55.55555556,63d7be523261fcaf84e94668,64b543b0a84ad6ab4a25b86a,64cb5075f8aa335d717cb388,,,,,,,decisionTrl,resources/DBN.BMP,resources/DB.BMP,Door1,0.00375,-0.0125,0,0,1,0.078,optionLeft,30,13860,6,30,0,30,0,1,,,,,,,,,,,,,,,,,,,,,,,,,,,,,,,,,,,,,,,
,,,,,,,,2023-08-03_08h02.06.579,HF_wild_card,2022.2.4,MacIntel,55.55555556,63d7be523261fcaf84e94668,64b543b0a84ad6ab4a25b86a,64cb5075f8aa335d717cb388,,,,,,,decisionTrl,resources/DB.BMP,resources/DBN.BMP,Door1,0.355,-0.09,1,0,1,0.845,optionRight,30,13890,6,31,0,31,0,1,,,,,,,,,,,,,,,,,,,,,,,,,,,,,,,,,,,,,,,
,,,,,,,,2023-08-03_08h02.06.579,HF_wild_card,2022.2.4,MacIntel,55.55555556,63d7be523261fcaf84e94668,64b543b0a84ad6ab4a25b86a,64cb5075f8aa335d717cb388,,,,,,,sngl,resources/DY.BMP,resources/Empty.png,WildCard_Ex,-0.005,-0.00375,0,0,1,0.077,optionLeft,55,13945,6,32,0,32,0,1,,,,,,,,,,,,,,,,,,,,,,,,,,,,,,,,,,,,,,,
,,,,,,,,2023-08-03_08h02.06.579,HF_wild_card,2022.2.4,MacIntel,55.55555556,63d7be523261fcaf84e94668,64b543b0a84ad6ab4a25b86a,64cb5075f8aa335d717cb388,,,,,,,sngl,resources/Empty.png,resources/DBN.BMP,Door1,-0.015,0.01,0,0,1,0.076,optionRight,30,13975,6,33,0,33,0,1,,,,,,,,,,,,,,,,,,,,,,,,,,,,,,,,,,,,,,,
,,,,,,,,2023-08-03_08h02.06.579,HF_wild_card,2022.2.4,MacIntel,55.55555556,63d7be523261fcaf84e94668,64b543b0a84ad6ab4a25b86a,64cb5075f8aa335d717cb388,,,,,,,decisionTrl,resources/DY.BMP,resources/DR.BMP,Door3,0.0075,-0.00125,0,0,1,0.1,optionRight,70,14045,6,34,0,34,0,1,,,,,,,,,,,,,,,,,,,,,,,,,,,,,,,,,,,,,,,
,,,,,,,,2023-08-03_08h02.06.579,HF_wild_card,2022.2.4,MacIntel,55.55555556,63d7be523261fcaf84e94668,64b543b0a84ad6ab4a25b86a,64cb5075f8aa335d717cb388,,,,,,,decisionTrl,resources/DBN.BMP,resources/DY.BMP,Door1,-0.0125,-0.015,0,0,1,0.078,optionLeft,30,14075,6,35,0,35,0,1,,,,,,,,,,,,,,,,,,,,,,,,,,,,,,,,,,,,,,,
,,,,,,,,2023-08-03_08h02.06.579,HF_wild_card,2022.2.4,MacIntel,55.55555556,63d7be523261fcaf84e94668,64b543b0a84ad6ab4a25b86a,64cb5075f8aa335d717cb388,,,,,,,decisionTrl,resources/DB.BMP,resources/DBN.BMP,Door1,-0.01125,0,0,0,1,0.077,optionRight,30,14105,6,36,0,36,0,1,,,,,,,,,,,,,,,,,,,,,,,,,,,,,,,,,,,,,,,
,,,,,,,,2023-08-03_08h02.06.579,HF_wild_card,2022.2.4,MacIntel,55.55555556,63d7be523261fcaf84e94668,64b543b0a84ad6ab4a25b86a,64cb5075f8aa335d717cb388,,,,,,,decisionTrl,resources/DP.BMP,resources/DR.BMP,Door3,-0.0125,-0.01375,0,0,1,0.06,optionRight,70,14175,6,37,0,37,0,1,,,,,,,,,,,,,,,,,,,,,,,,,,,,,,,,,,,,,,,
,,,,,,,,2023-08-03_08h02.06.579,HF_wild_card,2022.2.4,MacIntel,55.55555556,63d7be523261fcaf84e94668,64b543b0a84ad6ab4a25b86a,64cb5075f8aa335d717cb388,,,,,,,decisionTrl,resources/DP.BMP,resources/DY.BMP,Door4,-0.00125,-0.015,0,0,1,0.06,optionLeft,60,14235,6,38,0,38,0,1,,,,,,,,,,,,,,,,,,,,,,,,,,,,,,,,,,,,,,,
,,,,,,,,2023-08-03_08h02.06.579,HF_wild_card,2022.2.4,MacIntel,55.55555556,63d7be523261fcaf84e94668,64b543b0a84ad6ab4a25b86a,64cb5075f8aa335d717cb388,,,,,,,sngl,resources/DBN.BMP,resources/Empty.png,Door1,0.02,0.00875,0,0,1,0.112,optionLeft,30,14265,6,39,0,39,0,1,,,,,,,,,,,,,,,,,,,,,,,,,,,,,,,,,,,,,,,
,,,,,,,,2023-08-03_08h02.06.579,HF_wild_card,2022.2.4,MacIntel,55.55555556,63d7be523261fcaf84e94668,64b543b0a84ad6ab4a25b86a,64cb5075f8aa335d717cb388,,,,,,,decisionTrl,resources/DR.BMP,resources/DP.BMP,Door3,-0.00625,-0.00125,0,0,1,0.075,optionLeft,70,14335,6,40,0,40,0,1,,,,,,,,,,,,,,,,,,,,,,,,,,,,,,,,,,,,,,,
,,,,,,,,2023-08-03_08h02.06.579,HF_wild_card,2022.2.4,MacIntel,55.55555556,63d7be523261fcaf84e94668,64b543b0a84ad6ab4a25b86a,64cb5075f8aa335d717cb388,,,,,,,ctch,resources/DR.BMP,resources/DB.BMP,Door3,0.01625,0.0025,0,0,1,0.078,optionLeft,70,14405,6,41,0,41,0,1,,,,,,,,,,,,,,,,,,,,,,,,,,,,,,,,,,,,,,,
,,,,,,,,2023-08-03_08h02.06.579,HF_wild_card,2022.2.4,MacIntel,55.55555556,63d7be523261fcaf84e94668,64b543b0a84ad6ab4a25b86a,64cb5075f8aa335d717cb388,,,,,,,ctch,resources/DB.BMP,resources/DR.BMP,Door3,-0.00375,-0.00125,0,0,1,0.077,optionRight,70,14475,6,42,0,42,0,1,,,,,,,,,,,,,,,,,,,,,,,,,,,,,,,,,,,,,,,
,,,,,,,,2023-08-03_08h02.06.579,HF_wild_card,2022.2.4,MacIntel,55.55555556,63d7be523261fcaf84e94668,64b543b0a84ad6ab4a25b86a,64cb5075f8aa335d717cb388,,,,,,,ctch,resources/DR.BMP,resources/DB.BMP,Door3,-0.0075,-0.01375,0,0,1,0.096,optionLeft,70,14545,6,43,0,43,0,1,,,,,,,,,,,,,,,,,,,,,,,,,,,,,,,,,,,,,,,
,,,,,,,,2023-08-03_08h02.06.579,HF_wild_card,2022.2.4,MacIntel,55.55555556,63d7be523261fcaf84e94668,64b543b0a84ad6ab4a25b86a,64cb5075f8aa335d717cb388,,,,,,,,,,,,,,,,,,,,,,,,,,5,0,5,0,1,,,,,,,,,,,,,,,,,,,,,,,,,,,,,,,,,,
,,,,,,,,2023-08-03_08h02.06.579,HF_wild_card,2022.2.4,MacIntel,55.55555556,63d7be523261fcaf84e94668,64b543b0a84ad6ab4a25b86a,64cb5075f8aa335d717cb388,,,,,,,decisionTrl,resources/DP.BMP,resources/DR.BMP,Door3,0.305,-0.18,1,0,1,1.677,optionRight,70,14615,7,0,0,0,0,1,,,,,,,,,,,,,,,,,,,,,,,,,,,,,,,,,,,,,,,
,,,,,,,,2023-08-03_08h02.06.579,HF_wild_card,2022.2.4,MacIntel,55.55555556,63d7be523261fcaf84e94668,64b543b0a84ad6ab4a25b86a,64cb5075f8aa335d717cb388,,,,,,,decisionTrl,resources/DP.BMP,resources/DR.BMP,Door3,0.00375,0.01125,0,0,1,0.079,optionRight,70,14685,7,1,0,1,0,1,,,,,,,,,,,,,,,,,,,,,,,,,,,,,,,,,,,,,,,
,,,,,,,,2023-08-03_08h02.06.579,HF_wild_card,2022.2.4,MacIntel,55.55555556,63d7be523261fcaf84e94668,64b543b0a84ad6ab4a25b86a,64cb5075f8aa335d717cb388,,,,,,,decisionTrl,resources/DB.BMP,resources/DBN.BMP,Door1,0.0075,-0.005,0,0,1,0.08,optionRight,30,14715,7,2,0,2,0,1,,,,,,,,,,,,,,,,,,,,,,,,,,,,,,,,,,,,,,,
,,,,,,,,2023-08-03_08h02.06.579,HF_wild_card,2022.2.4,MacIntel,55.55555556,63d7be523261fcaf84e94668,64b543b0a84ad6ab4a25b86a,64cb5075f8aa335d717cb388,,,,,,,decisionTrl,resources/DR.BMP,resources/DP.BMP,Door3,0.00625,-0.015,0,0,1,0.13,optionLeft,70,14785,7,3,0,3,0,1,,,,,,,,,,,,,,,,,,,,,,,,,,,,,,,,,,,,,,,
,,,,,,,,2023-08-03_08h02.06.579,HF_wild_card,2022.2.4,MacIntel,55.55555556,63d7be523261fcaf84e94668,64b543b0a84ad6ab4a25b86a,64cb5075f8aa335d717cb388,,,,,,,ctch,resources/DP.BMP,resources/DBN.BMP,Door4,0.005,-0.0075,0,0,1,0.081,optionLeft,60,14845,7,4,0,4,0,1,,,,,,,,,,,,,,,,,,,,,,,,,,,,,,,,,,,,,,,
,,,,,,,,2023-08-03_08h02.06.579,HF_wild_card,2022.2.4,MacIntel,55.55555556,63d7be523261fcaf84e94668,64b543b0a84ad6ab4a25b86a,64cb5075f8aa335d717cb388,,,,,,,decisionTrl,resources/DB.BMP,resources/DBN.BMP,Door1,-0.01875,-0.00375,0,0,1,0.114,optionRight,30,14875,7,5,0,5,0,1,,,,,,,,,,,,,,,,,,,,,,,,,,,,,,,,,,,,,,,
,,,,,,,,2023-08-03_08h02.06.579,HF_wild_card,2022.2.4,MacIntel,55.55555556,63d7be523261fcaf84e94668,64b543b0a84ad6ab4a25b86a,64cb5075f8aa335d717cb388,,,,,,,decisionTrl,resources/DP.BMP,resources/DR.BMP,Door4,0.00625,-0.0025,0,0,1,0.064,optionLeft,80,14955,7,6,0,6,0,1,,,,,,,,,,,,,,,,,,,,,,,,,,,,,,,,,,,,,,,
,,,,,,,,2023-08-03_08h02.06.579,HF_wild_card,2022.2.4,MacIntel,55.55555556,63d7be523261fcaf84e94668,64b543b0a84ad6ab4a25b86a,64cb5075f8aa335d717cb388,,,,,,,decisionTrl,resources/DR.BMP,resources/DP.BMP,Door3,-0.0075,-0.00625,0,0,1,0.063,optionLeft,70,15025,7,7,0,7,0,1,,,,,,,,,,,,,,,,,,,,,,,,,,,,,,,,,,,,,,,
,,,,,,,,2023-08-03_08h02.06.579,HF_wild_card,2022.2.4,MacIntel,55.55555556,63d7be523261fcaf84e94668,64b543b0a84ad6ab4a25b86a,64cb5075f8aa335d717cb388,,,,,,,ctch,resources/DBN.BMP,resources/DP.BMP,Door4,-0.0075,-0.01625,0,0,1,0.064,optionRight,60,15085,7,8,0,8,0,1,,,,,,,,,,,,,,,,,,,,,,,,,,,,,,,,,,,,,,,
,,,,,,,,2023-08-03_08h02.06.579,HF_wild_card,2022.2.4,MacIntel,55.55555556,63d7be523261fcaf84e94668,64b543b0a84ad6ab4a25b86a,64cb5075f8aa335d717cb388,,,,,,,decisionTrl,resources/DP.BMP,resources/DR.BMP,Door3,0.01125,-0.0025,0,0,1,0.079,optionRight,70,15155,7,9,0,9,0,1,,,,,,,,,,,,,,,,,,,,,,,,,,,,,,,,,,,,,,,
,,,,,,,,2023-08-03_08h02.06.579,HF_wild_card,2022.2.4,MacIntel,55.55555556,63d7be523261fcaf84e94668,64b543b0a84ad6ab4a25b86a,64cb5075f8aa335d717cb388,,,,,,,ctch,resources/DB.BMP,resources/DR.BMP,Door3,0.0075,-0.0225,0,0,1,0.095,optionRight,70,15225,7,10,0,10,0,1,,,,,,,,,,,,,,,,,,,,,,,,,,,,,,,,,,,,,,,
,,,,,,,,2023-08-03_08h02.06.579,HF_wild_card,2022.2.4,MacIntel,55.55555556,63d7be523261fcaf84e94668,64b543b0a84ad6ab4a25b86a,64cb5075f8aa335d717cb388,,,,,,,ctch,resources/DP.BMP,resources/DBN.BMP,Door4,0.00875,-0.0025,0,0,1,0.08,optionLeft,80,15305,7,11,0,11,0,1,,,,,,,,,,,,,,,,,,,,,,,,,,,,,,,,,,,,,,,
,,,,,,,,2023-08-03_08h02.06.579,HF_wild_card,2022.2.4,MacIntel,55.55555556,63d7be523261fcaf84e94668,64b543b0a84ad6ab4a25b86a,64cb5075f8aa335d717cb388,,,,,,,decisionTrl,resources/DR.BMP,resources/DP.BMP,Door4,0.00875,-0.015,0,0,1,0.096,optionRight,60,15365,7,12,0,12,0,1,,,,,,,,,,,,,,,,,,,,,,,,,,,,,,,,,,,,,,,
,,,,,,,,2023-08-03_08h02.06.579,HF_wild_card,2022.2.4,MacIntel,55.55555556,63d7be523261fcaf84e94668,64b543b0a84ad6ab4a25b86a,64cb5075f8aa335d717cb388,,,,,,,decisionTrl,resources/DBN.BMP,resources/DB.BMP,Door1,-0.0075,0.005,0,0,1,0.064,optionLeft,30,15395,7,13,0,13,0,1,,,,,,,,,,,,,,,,,,,,,,,,,,,,,,,,,,,,,,,
,,,,,,,,2023-08-03_08h02.06.579,HF_wild_card,2022.2.4,MacIntel,55.55555556,63d7be523261fcaf84e94668,64b543b0a84ad6ab4a25b86a,64cb5075f8aa335d717cb388,,,,,,,decisionTrl,resources/DR.BMP,resources/DP.BMP,Door3,0.00875,-0.005,0,0,1,0.063,optionLeft,70,15465,7,14,0,14,0,1,,,,,,,,,,,,,,,,,,,,,,,,,,,,,,,,,,,,,,,
,,,,,,,,2023-08-03_08h02.06.579,HF_wild_card,2022.2.4,MacIntel,55.55555556,63d7be523261fcaf84e94668,64b543b0a84ad6ab4a25b86a,64cb5075f8aa335d717cb388,,,,,,,ctch,resources/DR.BMP,resources/DB.BMP,Door3,-0.00375,-0.00875,0,0,1,0.048,optionLeft,70,15535,7,15,0,15,0,1,,,,,,,,,,,,,,,,,,,,,,,,,,,,,,,,,,,,,,,
,,,,,,,,2023-08-03_08h02.06.579,HF_wild_card,2022.2.4,MacIntel,55.55555556,63d7be523261fcaf84e94668,64b543b0a84ad6ab4a25b86a,64cb5075f8aa335d717cb388,,,,,,,ctch,resources/DR.BMP,resources/DB.BMP,Door3,-0.0125,-0.00625,0,0,1,0.083,optionLeft,70,15605,7,16,0,16,0,1,,,,,,,,,,,,,,,,,,,,,,,,,,,,,,,,,,,,,,,
,,,,,,,,2023-08-03_08h02.06.579,HF_wild_card,2022.2.4,MacIntel,55.55555556,63d7be523261fcaf84e94668,64b543b0a84ad6ab4a25b86a,64cb5075f8aa335d717cb388,,,,,,,decisionTrl,resources/DR.BMP,resources/DP.BMP,Door3,-0.00125,-0.0125,0,0,1,0.08,optionLeft,70,15675,7,17,0,17,0,1,,,,,,,,,,,,,,,,,,,,,,,,,,,,,,,,,,,,,,,
,,,,,,,,2023-08-03_08h02.06.579,HF_wild_card,2022.2.4,MacIntel,55.55555556,63d7be523261fcaf84e94668,64b543b0a84ad6ab4a25b86a,64cb5075f8aa335d717cb388,,,,,,,decisionTrl,resources/DBN.BMP,resources/DB.BMP,Door1,0,0.005,0,0,1,0.08,optionLeft,30,15705,7,18,0,18,0,1,,,,,,,,,,,,,,,,,,,,,,,,,,,,,,,,,,,,,,,
,,,,,,,,2023-08-03_08h02.06.579,HF_wild_card,2022.2.4,MacIntel,55.55555556,63d7be523261fcaf84e94668,64b543b0a84ad6ab4a25b86a,64cb5075f8aa335d717cb388,,,,,,,decisionTrl,resources/DP.BMP,resources/DR.BMP,Door3,0.0075,0.00625,0,0,1,0.097,optionRight,70,15775,7,19,0,19,0,1,,,,,,,,,,,,,,,,,,,,,,,,,,,,,,,,,,,,,,,
,,,,,,,,2023-08-03_08h02.06.579,HF_wild_card,2022.2.4,MacIntel,55.55555556,63d7be523261fcaf84e94668,64b543b0a84ad6ab4a25b86a,64cb5075f8aa335d717cb388,,,,,,,decisionTrl,resources/DB.BMP,resources/DBN.BMP,Door1,0,0.0075,0,0,1,0.081,optionRight,30,15805,7,20,0,20,0,1,,,,,,,,,,,,,,,,,,,,,,,,,,,,,,,,,,,,,,,
,,,,,,,,2023-08-03_08h02.06.579,HF_wild_card,2022.2.4,MacIntel,55.55555556,63d7be523261fcaf84e94668,64b543b0a84ad6ab4a25b86a,64cb5075f8aa335d717cb388,,,,,,,ctch,resources/DBN.BMP,resources/DP.BMP,Door4,0.00125,-0.02,0,0,1,0.08,optionRight,60,15865,7,21,0,21,0,1,,,,,,,,,,,,,,,,,,,,,,,,,,,,,,,,,,,,,,,
,,,,,,,,2023-08-03_08h02.06.579,HF_wild_card,2022.2.4,MacIntel,55.55555556,63d7be523261fcaf84e94668,64b543b0a84ad6ab4a25b86a,64cb5075f8aa335d717cb388,,,,,,,decisionTrl,resources/DP.BMP,resources/DR.BMP,Door4,0.0025,-0.01125,0,0,1,0.084,optionLeft,80,15945,7,22,0,22,0,1,,,,,,,,,,,,,,,,,,,,,,,,,,,,,,,,,,,,,,,
,,,,,,,,2023-08-03_08h02.06.579,HF_wild_card,2022.2.4,MacIntel,55.55555556,63d7be523261fcaf84e94668,64b543b0a84ad6ab4a25b86a,64cb5075f8aa335d717cb388,,,,,,,decisionTrl,resources/DBN.BMP,resources/DB.BMP,Door1,-0.0025,-0.005,0,0,1,0.047,optionLeft,30,15975,7,23,0,23,0,1,,,,,,,,,,,,,,,,,,,,,,,,,,,,,,,,,,,,,,,
,,,,,,,,2023-08-03_08h02.06.579,HF_wild_card,2022.2.4,MacIntel,55.55555556,63d7be523261fcaf84e94668,64b543b0a84ad6ab4a25b86a,64cb5075f8aa335d717cb388,,,,,,,decisionTrl,resources/DBN.BMP,resources/DB.BMP,Door1,-0.00625,-0.01,0,0,1,0.081,optionLeft,30,16005,7,24,0,24,0,1,,,,,,,,,,,,,,,,,,,,,,,,,,,,,,,,,,,,,,,
,,,,,,,,2023-08-03_08h02.06.579,HF_wild_card,2022.2.4,MacIntel,55.55555556,63d7be523261fcaf84e94668,64b543b0a84ad6ab4a25b86a,64cb5075f8aa335d717cb388,,,,,,,ctch,resources/DR.BMP,resources/DB.BMP,Door3,0.01125,0.00125,0,0,1,0.065,optionLeft,70,16075,7,25,0,25,0,1,,,,,,,,,,,,,,,,,,,,,,,,,,,,,,,,,,,,,,,
,,,,,,,,2023-08-03_08h02.06.579,HF_wild_card,2022.2.4,MacIntel,55.55555556,63d7be523261fcaf84e94668,64b543b0a84ad6ab4a25b86a,64cb5075f8aa335d717cb388,,,,,,,ctch,resources/DB.BMP,resources/DR.BMP,Door3,-0.00625,-0.0125,0,0,1,0.097,optionRight,70,16145,7,26,0,26,0,1,,,,,,,,,,,,,,,,,,,,,,,,,,,,,,,,,,,,,,,
,,,,,,,,2023-08-03_08h02.06.579,HF_wild_card,2022.2.4,MacIntel,55.55555556,63d7be523261fcaf84e94668,64b543b0a84ad6ab4a25b86a,64cb5075f8aa335d717cb388,,,,,,,ctch,resources/DP.BMP,resources/DBN.BMP,Door4,0.0075,-0.01,0,0,1,0.097,optionLeft,60,16205,7,27,0,27,0,1,,,,,,,,,,,,,,,,,,,,,,,,,,,,,,,,,,,,,,,
,,,,,,,,2023-08-03_08h02.06.579,HF_wild_card,2022.2.4,MacIntel,55.55555556,63d7be523261fcaf84e94668,64b543b0a84ad6ab4a25b86a,64cb5075f8aa335d717cb388,,,,,,,decisionTrl,resources/DB.BMP,resources/DBN.BMP,Door1,-0.0125,0.0025,0,0,1,0.082,optionRight,30,16235,7,28,0,28,0,1,,,,,,,,,,,,,,,,,,,,,,,,,,,,,,,,,,,,,,,
,,,,,,,,2023-08-03_08h02.06.579,HF_wild_card,2022.2.4,MacIntel,55.55555556,63d7be523261fcaf84e94668,64b543b0a84ad6ab4a25b86a,64cb5075f8aa335d717cb388,,,,,,,decisionTrl,resources/DB.BMP,resources/DBN.BMP,Door1,-0.00375,-0.01,0,0,1,0.081,optionRight,30,16265,7,29,0,29,0,1,,,,,,,,,,,,,,,,,,,,,,,,,,,,,,,,,,,,,,,
,,,,,,,,2023-08-03_08h02.06.579,HF_wild_card,2022.2.4,MacIntel,55.55555556,63d7be523261fcaf84e94668,64b543b0a84ad6ab4a25b86a,64cb5075f8aa335d717cb388,,,,,,,decisionTrl,resources/DBN.BMP,resources/DB.BMP,Door1,0.00625,0,0,0,1,0.081,optionLeft,30,16295,7,30,0,30,0,1,,,,,,,,,,,,,,,,,,,,,,,,,,,,,,,,,,,,,,,
,,,,,,,,2023-08-03_08h02.06.579,HF_wild_card,2022.2.4,MacIntel,55.55555556,63d7be523261fcaf84e94668,64b543b0a84ad6ab4a25b86a,64cb5075f8aa335d717cb388,,,,,,,decisionTrl,resources/DR.BMP,resources/DP.BMP,Door3,-0.00125,-0.00625,0,0,1,0.08,optionLeft,70,16365,7,31,0,31,0,1,,,,,,,,,,,,,,,,,,,,,,,,,,,,,,,,,,,,,,,
,,,,,,,,2023-08-03_08h02.06.579,HF_wild_card,2022.2.4,MacIntel,55.55555556,63d7be523261fcaf84e94668,64b543b0a84ad6ab4a25b86a,64cb5075f8aa335d717cb388,,,,,,,decisionTrl,resources/DBN.BMP,resources/DB.BMP,Door1,-0.0025,-0.00875,0,0,1,0.097,optionLeft,30,16395,7,32,0,32,0,1,,,,,,,,,,,,,,,,,,,,,,,,,,,,,,,,,,,,,,,
,,,,,,,,2023-08-03_08h02.06.579,HF_wild_card,2022.2.4,MacIntel,55.55555556,63d7be523261fcaf84e94668,64b543b0a84ad6ab4a25b86a,64cb5075f8aa335d717cb388,,,,,,,ctch,resources/DB.BMP,resources/DR.BMP,Door3,-0.00625,-0.00125,0,0,1,0.097,optionRight,70,16465,7,33,0,33,0,1,,,,,,,,,,,,,,,,,,,,,,,,,,,,,,,,,,,,,,,
,,,,,,,,2023-08-03_08h02.06.579,HF_wild_card,2022.2.4,MacIntel,55.55555556,63d7be523261fcaf84e94668,64b543b0a84ad6ab4a25b86a,64cb5075f8aa335d717cb388,,,,,,,ctch,resources/DBN.BMP,resources/DP.BMP,Door4,0.01375,-0.01125,0,0,1,0.098,optionRight,60,16525,7,34,0,34,0,1,,,,,,,,,,,,,,,,,,,,,,,,,,,,,,,,,,,,,,,
,,,,,,,,2023-08-03_08h02.06.579,HF_wild_card,2022.2.4,MacIntel,55.55555556,63d7be523261fcaf84e94668,64b543b0a84ad6ab4a25b86a,64cb5075f8aa335d717cb388,,,,,,,decisionTrl,resources/DB.BMP,resources/DBN.BMP,Door1,0.0125,0,0,0,1,0.097,optionRight,30,16555,7,35,0,35,0,1,,,,,,,,,,,,,,,,,,,,,,,,,,,,,,,,,,,,,,,
,,,,,,,,2023-08-03_08h02.06.579,HF_wild_card,2022.2.4,MacIntel,55.55555556,63d7be523261fcaf84e94668,64b543b0a84ad6ab4a25b86a,64cb5075f8aa335d717cb388,,,,,,,,,,,,,,,,,,,,,,,,,,6,0,6,0,1,,,,,,,,,,,,,,,,,,,,,,,,,,,,,,,,,,
,,,,,,,,2023-08-03_08h02.06.579,HF_wild_card,2022.2.4,MacIntel,55.55555556,63d7be523261fcaf84e94668,64b543b0a84ad6ab4a25b86a,64cb5075f8aa335d717cb388,,,,,,,,,,,,,,,,,,,,,,,,,,,,,,,4,,,,,,,,,,,,,,,,,,,,,,,,,,,,,,,,,
,,,,,,,,2023-08-03_08h02.06.579,HF_wild_card,2022.2.4,MacIntel,55.55555556,63d7be523261fcaf84e94668,64b543b0a84ad6ab4a25b86a,64cb5075f8aa335d717cb388,,,,,,,,,,,,,,,,,,,,,,,,,,,,,,,,,,,,,,,,,,,,,,,,,,,,,,,,,,,,,,,,
,,,,,,,,2023-08-03_08h02.06.579,HF_wild_card,2022.2.4,MacIntel,55.55555556,63d7be523261fcaf84e94668,64b543b0a84ad6ab4a25b86a,64cb5075f8aa335d717cb388,,,,,,,,,,,,,,,,,,,,,,,,,,,,,,,,45,WC_extreme,resources/DY.BMP,0,0,0,0,1,,,,,,,,,,,,,,,,,,,,,,,,,
,,,,,,,,2023-08-03_08h02.06.579,HF_wild_card,2022.2.4,MacIntel,55.55555556,63d7be523261fcaf84e94668,64b543b0a84ad6ab4a25b86a,64cb5075f8aa335d717cb388,,,,,,,,,,,,,,,,,,,,,,,,,,,,,,,,30,Door1,resources/DBN.BMP,1,0,1,0,1,,,,,,,,,,,,,,,,,,,,,,,,,
,,,,,,,,2023-08-03_08h02.06.579,HF_wild_card,2022.2.4,MacIntel,55.55555556,63d7be523261fcaf84e94668,64b543b0a84ad6ab4a25b86a,64cb5075f8aa335d717cb388,,,,,,,,,,,,,,,,,,,,,,,,,,,,,,,,35,WC_nonExtreme,resources/DG.BMP,2,0,2,0,1,,,,,,,,,,,,,,,,,,,,,,,,,
,,,,,,,,2023-08-03_08h02.06.579,HF_wild_card,2022.2.4,MacIntel,55.55555556,63d7be523261fcaf84e94668,64b543b0a84ad6ab4a25b86a,64cb5075f8aa335d717cb388,,,,,,,,,,,,,,,,,,,,,,,,,,,,,,,,20,Door2,resources/DB.BMP,3,0,3,0,1,,,,,,,,,,,,,,,,,,,,,,,,,
,,,,,,,,2023-08-03_08h02.06.579,HF_wild_card,2022.2.4,MacIntel,55.55555556,63d7be523261fcaf84e94668,64b543b0a84ad6ab4a25b86a,64cb5075f8aa335d717cb388,,,,,,,,,,,,,,,,,,,,,,,,,,,,,,,,70,Door3,resources/DR.BMP,4,0,4,0,1,,,,,,,,,,,,,,,,,,,,,,,,,
,,,,,,,,2023-08-03_08h02.06.579,HF_wild_card,2022.2.4,MacIntel,55.55555556,63d7be523261fcaf84e94668,64b543b0a84ad6ab4a25b86a,64cb5075f8aa335d717cb388,,,,,,,,,,,,,,,,,,,,,,,,,,,,,,,,80,Door4,resources/DP.BMP,5,0,5,0,1,,,,,,,,,,,,,,,,,,,,,,,,,
,,,,,,,,2023-08-03_08h02.06.579,HF_wild_card,2022.2.4,MacIntel,55.55555556,63d7be523261fcaf84e94668,64b543b0a84ad6ab4a25b86a,64cb5075f8aa335d717cb388,,,,,,,,,,,,,,,,,,,,,,,,,,,,,,,,,,,,,,,,,,,,,,,,,,,,,,,,,,,,,,,,
,,,,,,,,2023-08-03_08h02.06.579,HF_wild_card,2022.2.4,MacIntel,55.55555556,63d7be523261fcaf84e94668,64b543b0a84ad6ab4a25b86a,64cb5075f8aa335d717cb388,,,,,,,,,,,,,,,,,,,,,,,,,,,,,,,,,,,,,,,,0,0,0,0,1,,,,,,,,,,,,,,,,,,,,
,,,,,,,,2023-08-03_08h02.06.579,HF_wild_card,2022.2.4,MacIntel,55.55555556,63d7be523261fcaf84e94668,64b543b0a84ad6ab4a25b86a,64cb5075f8aa335d717cb388,,,,,,,,,,,,,,,,,,,,,,,,,,,,,,,,,,,,,,,,1,0,1,0,1,,,,,,,,,,,,,,,,,,,,
,,,,,,,,2023-08-03_08h02.06.579,HF_wild_card,2022.2.4,MacIntel,55.55555556,63d7be523261fcaf84e94668,64b543b0a84ad6ab4a25b86a,64cb5075f8aa335d717cb388,,,,,,,,,,,,,,,,,,,,,,,,,,,,,,,,,,,,,,,,,,,,,-0.25875,-0.4025,1,0,1,yes,100%,0%,Door1,resources/DBN.BMP,0,0,0,0,1,,,,,
,,,,,,,,2023-08-03_08h02.06.579,HF_wild_card,2022.2.4,MacIntel,55.55555556,63d7be523261fcaf84e94668,64b543b0a84ad6ab4a25b86a,64cb5075f8aa335d717cb388,,,,,,,,,,,,,,,,,,,,,,,,,,,,,,,,,,,,,,,,,,,,,,,,,,,,,,,,,,,,0,0,0,0,1
,,,,,,,,2023-08-03_08h02.06.579,HF_wild_card,2022.2.4,MacIntel,55.55555556,63d7be523261fcaf84e94668,64b543b0a84ad6ab4a25b86a,64cb5075f8aa335d717cb388,,,,,,,,,,,,,,,,,,,,,,,,,,,,,,,,,,,,,,,,0,0,0,0,1,,,,,,,,,,,,,,,,,,,,
,,,,,,,,2023-08-03_08h02.06.579,HF_wild_card,2022.2.4,MacIntel,55.55555556,63d7be523261fcaf84e94668,64b543b0a84ad6ab4a25b86a,64cb5075f8aa335d717cb388,,,,,,,,,,,,,,,,,,,,,,,,,,,,,,,,,,,,,,,,1,0,1,0,1,,,,,,,,,,,,,,,,,,,,
,,,,,,,,2023-08-03_08h02.06.579,HF_wild_card,2022.2.4,MacIntel,55.55555556,63d7be523261fcaf84e94668,64b543b0a84ad6ab4a25b86a,64cb5075f8aa335d717cb388,,,,,,,,,,,,,,,,,,,,,,,,,,,,,,,,,,,,,,,,,,,,,-0.27375,-0.40625,1,0,1,yes,85%,15%,WC_extreme,resources/DY.BMP,0,0,0,0,1,,,,,
,,,,,,,,2023-08-03_08h02.06.579,HF_wild_card,2022.2.4,MacIntel,55.55555556,63d7be523261fcaf84e94668,64b543b0a84ad6ab4a25b86a,64cb5075f8aa335d717cb388,,,,,,,,,,,,,,,,,,,,,,,,,,,,,,,,,,,,,,,,,,,,,,,,,,,,,,,,,,,,1,0,1,0,1
,,,,,,,,2023-08-03_08h02.06.579,HF_wild_card,2022.2.4,MacIntel,55.55555556,63d7be523261fcaf84e94668,64b543b0a84ad6ab4a25b86a,64cb5075f8aa335d717cb388,,,,,,,,,,,,,,,,,,,,,,,,,,,,,,,,,,,,,,,,0,0,0,0,1,,,,,,,,,,,,,,,,,,,,
