Condition,Low fixed image (Door1),Low risky image (Door2),High fixed image (Door3),High risky image (Door4),NonExtreme Wild Card 1,NonExtreme Wild Card 2,,date,expName,psychopyVersion,OS,frameRate,PROLIFIC_PID,STUDY_ID,SESSION_ID,mouse_2.x,mouse_2.y,mouse_2.leftButton,mouse_2.midButton,mouse_2.rightButton,mouse_2.clicked_name,Trial Type,Left Option Image,Right Option Image,Chosen Door,mouse.x,mouse.y,mouse.leftButton,mouse.midButton,mouse.rightButton,mouse.time,mouse.clicked_name,Feedback,Cumulative Reward,Block,trial.thisRepN,trial.thisTrialN,trial.thisN,trial.thisIndex,trial.ran,blocks.thisRepN,blocks.thisTrialN,blocks.thisN,blocks.thisIndex,blocks.ran,Money conversion,First Outcome Reported,Shown Door (First Outcome),Displayed Image (First Outcome),outcomes.thisRepN,outcomes.thisTrialN,outcomes.thisN,outcomes.thisIndex,outcomes.ran,judgments.thisRepN,judgments.thisTrialN,judgments.thisN,judgments.thisIndex,judgments.ran,freqMouse.x,freqMouse.y,freqMouse.leftButton,freqMouse.midButton,freqMouse.rightButton,freqMouse.clicked_name,trials.thisRepN,trials.thisTrialN,trials.thisN,trials.thisIndex,trials.ran,FQJ for first outcome,FQJ for second outcome,Shown Door,Displayed Image,judgBlock.thisRepN,judgBlock.thisTrialN,judgBlock.thisN,judgBlock.thisIndex,judgBlock.ran
2,resources/DP.BMP,resources/DG.BMP,resources/DBN.BMP,resources/DR.BMP,resources/DB.BMP,resources/DY.BMP,,2023-08-16_08h43.57.695,HF_wild_card,2022.2.4,MacIntel,29.98680581,5d88fa49c6bd1b00180fea8a,64d2fd46c836a06233681665,64dc7e2ab080931385feb1ce,,,,,,,,,,,,,,,,,,,,,,,,,,,,,,,,,,,,,,,,,,,,,,,,,,,,,,,,,,,,,,,,
,,,,,,,,2023-08-16_08h43.57.695,HF_wild_card,2022.2.4,MacIntel,29.98680581,5d88fa49c6bd1b00180fea8a,64d2fd46c836a06233681665,64dc7e2ab080931385feb1ce,0.018109589,-0.424356918,1,0,0,agree,,,,,,,,,,,,,,,,,,,,,,,,,,,,,,,,,,,,,,,,,,,,,,,,,,,,,,,,,,
,,,,,,,,2023-08-16_08h43.57.695,HF_wild_card,2022.2.4,MacIntel,29.98680581,5d88fa49c6bd1b00180fea8a,64d2fd46c836a06233681665,64dc7e2ab080931385feb1ce,,,,,,,,,,,,,,,,,,,,,,,,,,,,,,,,,,,,,,,,,,,,,,,,,,,,,,,,,,,,,,,,
,,,,,,,,2023-08-16_08h43.57.695,HF_wild_card,2022.2.4,MacIntel,29.98680581,5d88fa49c6bd1b00180fea8a,64d2fd46c836a06233681665,64dc7e2ab080931385feb1ce,,,,,,,sngl,resources/DR.BMP,resources/Empty.png,Door4,-0.409816666,-0.054291916,1,0,0,10.0971,optionLeft,80,80,1,0,0,0,0,1,,,,,,,,,,,,,,,,,,,,,,,,,,,,,,,,,,,,,,,
,,,,,,,,2023-08-16_08h43.57.695,HF_wild_card,2022.2.4,MacIntel,29.98680581,5d88fa49c6bd1b00180fea8a,64d2fd46c836a06233681665,64dc7e2ab080931385feb1ce,,,,,,,sngl,resources/DBN.BMP,resources/Empty.png,Door3,-0.25694603,-0.042638435,1,0,0,6.7971,optionLeft,70,150,1,1,0,1,0,1,,,,,,,,,,,,,,,,,,,,,,,,,,,,,,,,,,,,,,,
,,,,,,,,2023-08-16_08h43.57.695,HF_wild_card,2022.2.4,MacIntel,29.98680581,5d88fa49c6bd1b00180fea8a,64d2fd46c836a06233681665,64dc7e2ab080931385feb1ce,,,,,,,decisionTrl,resources/DP.BMP,resources/DG.BMP,Door2,0.032900543,-0.036386566,1,0,0,8.4127,optionRight,40,190,1,2,0,2,0,1,,,,,,,,,,,,,,,,,,,,,,,,,,,,,,,,,,,,,,,
,,,,,,,,2023-08-16_08h43.57.695,HF_wild_card,2022.2.4,MacIntel,29.98680581,5d88fa49c6bd1b00180fea8a,64d2fd46c836a06233681665,64dc7e2ab080931385feb1ce,,,,,,,decisionTrl,resources/DR.BMP,resources/DY.BMP,WildCard_NonEx,0.179271317,-0.031621094,1,0,0,12.9747,optionRight,45,235,1,3,0,3,0,1,,,,,,,,,,,,,,,,,,,,,,,,,,,,,,,,,,,,,,,
,,,,,,,,2023-08-16_08h43.57.695,HF_wild_card,2022.2.4,MacIntel,29.98680581,5d88fa49c6bd1b00180fea8a,64d2fd46c836a06233681665,64dc7e2ab080931385feb1ce,,,,,,,ctch,resources/DBN.BMP,resources/DG.BMP,Door2,0.014312744,-0.011397247,1,0,0,13.8666,optionRight,20,255,1,4,0,4,0,1,,,,,,,,,,,,,,,,,,,,,,,,,,,,,,,,,,,,,,,
,,,,,,,,2023-08-16_08h43.57.695,HF_wild_card,2022.2.4,MacIntel,29.98680581,5d88fa49c6bd1b00180fea8a,64d2fd46c836a06233681665,64dc7e2ab080931385feb1ce,,,,,,,decisionTrl,resources/DG.BMP,resources/DP.BMP,Door1,0.008999634,-0.011638336,1,0,0,5.752,optionRight,30,285,1,5,0,5,0,1,,,,,,,,,,,,,,,,,,,,,,,,,,,,,,,,,,,,,,,
,,,,,,,,2023-08-16_08h43.57.695,HF_wild_card,2022.2.4,MacIntel,29.98680581,5d88fa49c6bd1b00180fea8a,64d2fd46c836a06233681665,64dc7e2ab080931385feb1ce,,,,,,,decisionTrl,resources/DBN.BMP,resources/DR.BMP,Door4,0.126590118,-0.159099808,1,0,0,6.8115,optionRight,80,365,1,6,0,6,0,1,,,,,,,,,,,,,,,,,,,,,,,,,,,,,,,,,,,,,,,
,,,,,,,,2023-08-16_08h43.57.695,HF_wild_card,2022.2.4,MacIntel,29.98680581,5d88fa49c6bd1b00180fea8a,64d2fd46c836a06233681665,64dc7e2ab080931385feb1ce,,,,,,,decisionTrl,resources/DG.BMP,resources/DP.BMP,Door1,-0.001239929,-0.009330254,1,0,0,3.8981,optionRight,30,395,1,7,0,7,0,1,,,,,,,,,,,,,,,,,,,,,,,,,,,,,,,,,,,,,,,
,,,,,,,,2023-08-16_08h43.57.695,HF_wild_card,2022.2.4,MacIntel,29.98680581,5d88fa49c6bd1b00180fea8a,64d2fd46c836a06233681665,64dc7e2ab080931385feb1ce,,,,,,,decisionTrl,resources/DBN.BMP,resources/DY.BMP,WildCard_NonEx,0.1796035,-0.002993774,1,0,0,3.2072,optionRight,55,450,1,8,0,8,0,1,,,,,,,,,,,,,,,,,,,,,,,,,,,,,,,,,,,,,,,
,,,,,,,,2023-08-16_08h43.57.695,HF_wild_card,2022.2.4,MacIntel,29.98680581,5d88fa49c6bd1b00180fea8a,64d2fd46c836a06233681665,64dc7e2ab080931385feb1ce,,,,,,,sngl,resources/DY.BMP,resources/Empty.png,WildCard_NonEx,0.000640488,0.006530113,1,0,0,2.8444,optionLeft,55,505,1,9,0,9,0,1,,,,,,,,,,,,,,,,,,,,,,,,,,,,,,,,,,,,,,,
,,,,,,,,2023-08-16_08h43.57.695,HF_wild_card,2022.2.4,MacIntel,29.98680581,5d88fa49c6bd1b00180fea8a,64d2fd46c836a06233681665,64dc7e2ab080931385feb1ce,,,,,,,decisionTrl,resources/DR.BMP,resources/DBN.BMP,Door3,-0.002615433,0.00482811,1,0,0,5.0964,optionRight,70,575,1,10,0,10,0,1,,,,,,,,,,,,,,,,,,,,,,,,,,,,,,,,,,,,,,,
,,,,,,,,2023-08-16_08h43.57.695,HF_wild_card,2022.2.4,MacIntel,29.98680581,5d88fa49c6bd1b00180fea8a,64d2fd46c836a06233681665,64dc7e2ab080931385feb1ce,,,,,,,decisionTrl,resources/DR.BMP,resources/DBN.BMP,Door3,0.119581451,0.020910034,1,0,0,4.9596,optionRight,70,645,1,11,0,11,0,1,,,,,,,,,,,,,,,,,,,,,,,,,,,,,,,,,,,,,,,
,,,,,,,,2023-08-16_08h43.57.695,HF_wild_card,2022.2.4,MacIntel,29.98680581,5d88fa49c6bd1b00180fea8a,64d2fd46c836a06233681665,64dc7e2ab080931385feb1ce,,,,,,,sngl,resources/Empty.png,resources/DY.BMP,WildCard_NonEx,0.157275467,-0.023581848,1,0,0,5.8468,optionRight,55,700,1,12,0,12,0,1,,,,,,,,,,,,,,,,,,,,,,,,,,,,,,,,,,,,,,,
,,,,,,,,2023-08-16_08h43.57.695,HF_wild_card,2022.2.4,MacIntel,29.98680581,5d88fa49c6bd1b00180fea8a,64d2fd46c836a06233681665,64dc7e2ab080931385feb1ce,,,,,,,ctch,resources/DR.BMP,resources/DP.BMP,Door1,0.003020706,0.001684799,1,0,0,2.1375,optionRight,30,730,1,13,0,13,0,1,,,,,,,,,,,,,,,,,,,,,,,,,,,,,,,,,,,,,,,
,,,,,,,,2023-08-16_08h43.57.695,HF_wild_card,2022.2.4,MacIntel,29.98680581,5d88fa49c6bd1b00180fea8a,64d2fd46c836a06233681665,64dc7e2ab080931385feb1ce,,,,,,,decisionTrl,resources/DY.BMP,resources/DR.BMP,Door4,-0.000172348,-0.004497147,1,0,0,1.8772,optionRight,60,790,1,14,0,14,0,1,,,,,,,,,,,,,,,,,,,,,,,,,,,,,,,,,,,,,,,
,,,,,,,,2023-08-16_08h43.57.695,HF_wild_card,2022.2.4,MacIntel,29.98680581,5d88fa49c6bd1b00180fea8a,64d2fd46c836a06233681665,64dc7e2ab080931385feb1ce,,,,,,,decisionTrl,resources/DBN.BMP,resources/DR.BMP,Door4,0.004292831,-0.011613197,1,0,0,2.8391,optionRight,60,850,1,15,0,15,0,1,,,,,,,,,,,,,,,,,,,,,,,,,,,,,,,,,,,,,,,
,,,,,,,,2023-08-16_08h43.57.695,HF_wild_card,2022.2.4,MacIntel,29.98680581,5d88fa49c6bd1b00180fea8a,64d2fd46c836a06233681665,64dc7e2ab080931385feb1ce,,,,,,,ctch,resources/DBN.BMP,resources/DG.BMP,Door2,-0.001055069,-0.005368347,1,0,0,4.0423,optionRight,40,890,1,16,0,16,0,1,,,,,,,,,,,,,,,,,,,,,,,,,,,,,,,,,,,,,,,
,,,,,,,,2023-08-16_08h43.57.695,HF_wild_card,2022.2.4,MacIntel,29.98680581,5d88fa49c6bd1b00180fea8a,64d2fd46c836a06233681665,64dc7e2ab080931385feb1ce,,,,,,,decisionTrl,resources/DR.BMP,resources/DBN.BMP,Door3,0.068073502,-0.06310276,1,0,0,6.2096,optionRight,70,960,1,17,0,17,0,1,,,,,,,,,,,,,,,,,,,,,,,,,,,,,,,,,,,,,,,
,,,,,,,,2023-08-16_08h43.57.695,HF_wild_card,2022.2.4,MacIntel,29.98680581,5d88fa49c6bd1b00180fea8a,64d2fd46c836a06233681665,64dc7e2ab080931385feb1ce,,,,,,,sngl,resources/DY.BMP,resources/Empty.png,WildCard_NonEx,-0.125939331,0.027991257,1,0,0,3.1471,optionLeft,45,1005,1,18,0,18,0,1,,,,,,,,,,,,,,,,,,,,,,,,,,,,,,,,,,,,,,,
,,,,,,,,2023-08-16_08h43.57.695,HF_wild_card,2022.2.4,MacIntel,29.98680581,5d88fa49c6bd1b00180fea8a,64d2fd46c836a06233681665,64dc7e2ab080931385feb1ce,,,,,,,decisionTrl,resources/DP.BMP,resources/DY.BMP,WildCard_NonEx,0.170329666,-0.121847839,1,0,0,12.1284,optionRight,55,1060,1,19,0,19,0,1,,,,,,,,,,,,,,,,,,,,,,,,,,,,,,,,,,,,,,,
,,,,,,,,2023-08-16_08h43.57.695,HF_wild_card,2022.2.4,MacIntel,29.98680581,5d88fa49c6bd1b00180fea8a,64d2fd46c836a06233681665,64dc7e2ab080931385feb1ce,,,,,,,decisionTrl,resources/DG.BMP,resources/DP.BMP,Door1,0.006029053,0.001060524,1,0,0,4.8424,optionRight,30,1090,1,20,0,20,0,1,,,,,,,,,,,,,,,,,,,,,,,,,,,,,,,,,,,,,,,
,,,,,,,,2023-08-16_08h43.57.695,HF_wild_card,2022.2.4,MacIntel,29.98680581,5d88fa49c6bd1b00180fea8a,64d2fd46c836a06233681665,64dc7e2ab080931385feb1ce,,,,,,,decisionTrl,resources/DP.BMP,resources/DG.BMP,Door2,0.003765182,-0.001744881,1,0,0,4.1802,optionRight,40,1130,1,21,0,21,0,1,,,,,,,,,,,,,,,,,,,,,,,,,,,,,,,,,,,,,,,
,,,,,,,,2023-08-16_08h43.57.695,HF_wild_card,2022.2.4,MacIntel,29.98680581,5d88fa49c6bd1b00180fea8a,64d2fd46c836a06233681665,64dc7e2ab080931385feb1ce,,,,,,,ctch,resources/DP.BMP,resources/DR.BMP,Door4,0.164743576,-0.013680725,1,0,0,4.3748,optionRight,60,1190,1,22,0,22,0,1,,,,,,,,,,,,,,,,,,,,,,,,,,,,,,,,,,,,,,,
,,,,,,,,2023-08-16_08h43.57.695,HF_wild_card,2022.2.4,MacIntel,29.98680581,5d88fa49c6bd1b00180fea8a,64d2fd46c836a06233681665,64dc7e2ab080931385feb1ce,,,,,,,decisionTrl,resources/DG.BMP,resources/DY.BMP,WildCard_NonEx,-0.003294601,-0.004515343,1,0,0,5.0607,optionRight,55,1245,1,23,0,23,0,1,,,,,,,,,,,,,,,,,,,,,,,,,,,,,,,,,,,,,,,
,,,,,,,,2023-08-16_08h43.57.695,HF_wild_card,2022.2.4,MacIntel,29.98680581,5d88fa49c6bd1b00180fea8a,64d2fd46c836a06233681665,64dc7e2ab080931385feb1ce,,,,,,,sngl,resources/Empty.png,resources/DG.BMP,Door2,0.188712463,0.005863838,1,0,0,3.3578,optionRight,20,1265,1,24,0,24,0,1,,,,,,,,,,,,,,,,,,,,,,,,,,,,,,,,,,,,,,,
,,,,,,,,2023-08-16_08h43.57.695,HF_wild_card,2022.2.4,MacIntel,29.98680581,5d88fa49c6bd1b00180fea8a,64d2fd46c836a06233681665,64dc7e2ab080931385feb1ce,,,,,,,sngl,resources/DP.BMP,resources/Empty.png,Door1,0.009660034,-0.008772354,1,0,0,3.0788,optionLeft,30,1295,1,25,0,25,0,1,,,,,,,,,,,,,,,,,,,,,,,,,,,,,,,,,,,,,,,
,,,,,,,,2023-08-16_08h43.57.695,HF_wild_card,2022.2.4,MacIntel,29.98680581,5d88fa49c6bd1b00180fea8a,64d2fd46c836a06233681665,64dc7e2ab080931385feb1ce,,,,,,,decisionTrl,resources/DP.BMP,resources/DG.BMP,Door2,0.167952118,0.017275162,1,0,0,3.0599,optionRight,40,1335,1,26,0,26,0,1,,,,,,,,,,,,,,,,,,,,,,,,,,,,,,,,,,,,,,,
,,,,,,,,2023-08-16_08h43.57.695,HF_wild_card,2022.2.4,MacIntel,29.98680581,5d88fa49c6bd1b00180fea8a,64d2fd46c836a06233681665,64dc7e2ab080931385feb1ce,,,,,,,ctch,resources/DG.BMP,resources/DBN.BMP,Door3,0.012025452,-0.005778618,1,0,0,3.2425,optionRight,70,1405,1,27,0,27,0,1,,,,,,,,,,,,,,,,,,,,,,,,,,,,,,,,,,,,,,,
,,,,,,,,2023-08-16_08h43.57.695,HF_wild_card,2022.2.4,MacIntel,29.98680581,5d88fa49c6bd1b00180fea8a,64d2fd46c836a06233681665,64dc7e2ab080931385feb1ce,,,,,,,sngl,resources/DG.BMP,resources/Empty.png,Door2,-0.108727798,0.036014557,1,0,0,9.5977,optionLeft,40,1445,1,28,0,28,0,1,,,,,,,,,,,,,,,,,,,,,,,,,,,,,,,,,,,,,,,
,,,,,,,,2023-08-16_08h43.57.695,HF_wild_card,2022.2.4,MacIntel,29.98680581,5d88fa49c6bd1b00180fea8a,64d2fd46c836a06233681665,64dc7e2ab080931385feb1ce,,,,,,,sngl,resources/Empty.png,resources/DY.BMP,WildCard_NonEx,-0.012035522,-0.000663605,1,0,0,2.5889,optionRight,45,1490,1,29,0,29,0,1,,,,,,,,,,,,,,,,,,,,,,,,,,,,,,,,,,,,,,,
,,,,,,,,2023-08-16_08h43.57.695,HF_wild_card,2022.2.4,MacIntel,29.98680581,5d88fa49c6bd1b00180fea8a,64d2fd46c836a06233681665,64dc7e2ab080931385feb1ce,,,,,,,decisionTrl,resources/DBN.BMP,resources/DR.BMP,Door4,0.118312836,0.016533737,1,0,0,3.1373,optionRight,60,1550,1,30,0,30,0,1,,,,,,,,,,,,,,,,,,,,,,,,,,,,,,,,,,,,,,,
,,,,,,,,2023-08-16_08h43.57.695,HF_wild_card,2022.2.4,MacIntel,29.98680581,5d88fa49c6bd1b00180fea8a,64d2fd46c836a06233681665,64dc7e2ab080931385feb1ce,,,,,,,ctch,resources/DG.BMP,resources/DBN.BMP,Door3,0.004038239,0.000877762,1,0,0,2.0056,optionRight,70,1620,1,31,0,31,0,1,,,,,,,,,,,,,,,,,,,,,,,,,,,,,,,,,,,,,,,
,,,,,,,,2023-08-16_08h43.57.695,HF_wild_card,2022.2.4,MacIntel,29.98680581,5d88fa49c6bd1b00180fea8a,64d2fd46c836a06233681665,64dc7e2ab080931385feb1ce,,,,,,,decisionTrl,resources/DY.BMP,resources/DBN.BMP,Door3,0.064352188,-0.006888123,1,0,0,4.0039,optionRight,70,1690,1,32,0,32,0,1,,,,,,,,,,,,,,,,,,,,,,,,,,,,,,,,,,,,,,,
,,,,,,,,2023-08-16_08h43.57.695,HF_wild_card,2022.2.4,MacIntel,29.98680581,5d88fa49c6bd1b00180fea8a,64d2fd46c836a06233681665,64dc7e2ab080931385feb1ce,,,,,,,decisionTrl,resources/DY.BMP,resources/DP.BMP,Door1,0.108662643,0.017360687,1,0,0,3.7708,optionRight,30,1720,1,33,0,33,0,1,,,,,,,,,,,,,,,,,,,,,,,,,,,,,,,,,,,,,,,
,,,,,,,,2023-08-16_08h43.57.695,HF_wild_card,2022.2.4,MacIntel,29.98680581,5d88fa49c6bd1b00180fea8a,64d2fd46c836a06233681665,64dc7e2ab080931385feb1ce,,,,,,,sngl,resources/Empty.png,resources/DBN.BMP,Door3,0.011196899,-0.003414803,1,0,0,2.5484,optionRight,70,1790,1,34,0,34,0,1,,,,,,,,,,,,,,,,,,,,,,,,,,,,,,,,,,,,,,,
,,,,,,,,2023-08-16_08h43.57.695,HF_wild_card,2022.2.4,MacIntel,29.98680581,5d88fa49c6bd1b00180fea8a,64d2fd46c836a06233681665,64dc7e2ab080931385feb1ce,,,,,,,decisionTrl,resources/DY.BMP,resources/DG.BMP,Door2,0.010827408,-0.000475311,1,0,0,2.4601,optionRight,40,1830,1,35,0,35,0,1,,,,,,,,,,,,,,,,,,,,,,,,,,,,,,,,,,,,,,,
,,,,,,,,2023-08-16_08h43.57.695,HF_wild_card,2022.2.4,MacIntel,29.98680581,5d88fa49c6bd1b00180fea8a,64d2fd46c836a06233681665,64dc7e2ab080931385feb1ce,,,,,,,decisionTrl,resources/DR.BMP,resources/DBN.BMP,Door3,-0.064050064,-0.006667938,1,0,0,5.9051,optionRight,70,1900,1,36,0,36,0,1,,,,,,,,,,,,,,,,,,,,,,,,,,,,,,,,,,,,,,,
,,,,,,,,2023-08-16_08h43.57.695,HF_wild_card,2022.2.4,MacIntel,29.98680581,5d88fa49c6bd1b00180fea8a,64d2fd46c836a06233681665,64dc7e2ab080931385feb1ce,,,,,,,decisionTrl,resources/DP.BMP,resources/DG.BMP,Door2,0.103267822,-0.069210587,1,0,0,2.6761,optionRight,40,1940,1,37,0,37,0,1,,,,,,,,,,,,,,,,,,,,,,,,,,,,,,,,,,,,,,,
,,,,,,,,2023-08-16_08h43.57.695,HF_wild_card,2022.2.4,MacIntel,29.98680581,5d88fa49c6bd1b00180fea8a,64d2fd46c836a06233681665,64dc7e2ab080931385feb1ce,,,,,,,ctch,resources/DR.BMP,resources/DP.BMP,Door1,0.118255844,-0.04041996,1,0,0,3.049,optionRight,30,1970,1,38,0,38,0,1,,,,,,,,,,,,,,,,,,,,,,,,,,,,,,,,,,,,,,,
,,,,,,,,2023-08-16_08h43.57.695,HF_wild_card,2022.2.4,MacIntel,29.98680581,5d88fa49c6bd1b00180fea8a,64d2fd46c836a06233681665,64dc7e2ab080931385feb1ce,,,,,,,decisionTrl,resources/DBN.BMP,resources/DR.BMP,Door4,0.037016144,0.004867554,1,0,0,3.9045,optionRight,60,2030,1,39,0,39,0,1,,,,,,,,,,,,,,,,,,,,,,,,,,,,,,,,,,,,,,,
,,,,,,,,2023-08-16_08h43.57.695,HF_wild_card,2022.2.4,MacIntel,29.98680581,5d88fa49c6bd1b00180fea8a,64d2fd46c836a06233681665,64dc7e2ab080931385feb1ce,,,,,,,sngl,resources/Empty.png,resources/DP.BMP,Door1,0.005346222,-0.006097336,1,0,0,1.7531,optionRight,30,2060,1,40,0,40,0,1,,,,,,,,,,,,,,,,,,,,,,,,,,,,,,,,,,,,,,,
,,,,,,,,2023-08-16_08h43.57.695,HF_wild_card,2022.2.4,MacIntel,29.98680581,5d88fa49c6bd1b00180fea8a,64d2fd46c836a06233681665,64dc7e2ab080931385feb1ce,,,,,,,decisionTrl,resources/DG.BMP,resources/DP.BMP,Door1,0.053145523,-0.034343109,1,0,0,3.7162,optionRight,30,2090,1,41,0,41,0,1,,,,,,,,,,,,,,,,,,,,,,,,,,,,,,,,,,,,,,,
,,,,,,,,2023-08-16_08h43.57.695,HF_wild_card,2022.2.4,MacIntel,29.98680581,5d88fa49c6bd1b00180fea8a,64d2fd46c836a06233681665,64dc7e2ab080931385feb1ce,,,,,,,ctch,resources/DP.BMP,resources/DR.BMP,Door4,0.072439728,-0.066937981,1,0,0,2.8384,optionRight,80,2170,1,42,0,42,0,1,,,,,,,,,,,,,,,,,,,,,,,,,,,,,,,,,,,,,,,
,,,,,,,,2023-08-16_08h43.57.695,HF_wild_card,2022.2.4,MacIntel,29.98680581,5d88fa49c6bd1b00180fea8a,64d2fd46c836a06233681665,64dc7e2ab080931385feb1ce,,,,,,,sngl,resources/Empty.png,resources/DR.BMP,Door4,0.008018646,0.004353714,1,0,0,2.4207,optionRight,60,2230,1,43,0,43,0,1,,,,,,,,,,,,,,,,,,,,,,,,,,,,,,,,,,,,,,,
,,,,,,,,2023-08-16_08h43.57.695,HF_wild_card,2022.2.4,MacIntel,29.98680581,5d88fa49c6bd1b00180fea8a,64d2fd46c836a06233681665,64dc7e2ab080931385feb1ce,,,,,,,,,,,,,,,,,,,,,,,,,,0,0,0,0,1,,,,,,,,,,,,,,,,,,,,,,,,,,,,,,,,,,
,,,,,,,,2023-08-16_08h43.57.695,HF_wild_card,2022.2.4,MacIntel,29.98680581,5d88fa49c6bd1b00180fea8a,64d2fd46c836a06233681665,64dc7e2ab080931385feb1ce,,,,,,,decisionTrl,resources/DBN.BMP,resources/DR.BMP,Door4,0.031595993,-0.112590256,1,0,0,6.9769,optionRight,60,2290,2,0,0,0,0,1,,,,,,,,,,,,,,,,,,,,,,,,,,,,,,,,,,,,,,,
,,,,,,,,2023-08-16_08h43.57.695,HF_wild_card,2022.2.4,MacIntel,29.98680581,5d88fa49c6bd1b00180fea8a,64d2fd46c836a06233681665,64dc7e2ab080931385feb1ce,,,,,,,decisionTrl,resources/DP.BMP,resources/DG.BMP,Door2,0.010097504,-0.006326675,1,0,0,6.3495,optionRight,40,2330,2,1,0,1,0,1,,,,,,,,,,,,,,,,,,,,,,,,,,,,,,,,,,,,,,,
,,,,,,,,2023-08-16_08h43.57.695,HF_wild_card,2022.2.4,MacIntel,29.98680581,5d88fa49c6bd1b00180fea8a,64d2fd46c836a06233681665,64dc7e2ab080931385feb1ce,,,,,,,decisionTrl,resources/DP.BMP,resources/DG.BMP,Door2,-0.003134384,0.001168404,1,0,0,4.1406,optionRight,40,2370,2,2,0,2,0,1,,,,,,,,,,,,,,,,,,,,,,,,,,,,,,,,,,,,,,,
,,,,,,,,2023-08-16_08h43.57.695,HF_wild_card,2022.2.4,MacIntel,29.98680581,5d88fa49c6bd1b00180fea8a,64d2fd46c836a06233681665,64dc7e2ab080931385feb1ce,,,,,,,decisionTrl,resources/DR.BMP,resources/DBN.BMP,Door3,0.013547668,-0.064710541,1,0,0,4.6139,optionRight,70,2440,2,3,0,3,0,1,,,,,,,,,,,,,,,,,,,,,,,,,,,,,,,,,,,,,,,
,,,,,,,,2023-08-16_08h43.57.695,HF_wild_card,2022.2.4,MacIntel,29.98680581,5d88fa49c6bd1b00180fea8a,64d2fd46c836a06233681665,64dc7e2ab080931385feb1ce,,,,,,,ctch,resources/DP.BMP,resources/DR.BMP,Door4,0.07993927,0.000816269,1,0,0,3.0024,optionRight,80,2520,2,4,0,4,0,1,,,,,,,,,,,,,,,,,,,,,,,,,,,,,,,,,,,,,,,
,,,,,,,,2023-08-16_08h43.57.695,HF_wild_card,2022.2.4,MacIntel,29.98680581,5d88fa49c6bd1b00180fea8a,64d2fd46c836a06233681665,64dc7e2ab080931385feb1ce,,,,,,,ctch,resources/DBN.BMP,resources/DG.BMP,Door2,0.045719223,-0.006063385,1,0,0,3.8801,optionRight,20,2540,2,5,0,5,0,1,,,,,,,,,,,,,,,,,,,,,,,,,,,,,,,,,,,,,,,
,,,,,,,,2023-08-16_08h43.57.695,HF_wild_card,2022.2.4,MacIntel,29.98680581,5d88fa49c6bd1b00180fea8a,64d2fd46c836a06233681665,64dc7e2ab080931385feb1ce,,,,,,,sngl,resources/DR.BMP,resources/Empty.png,Door4,-0.124899292,0.011206856,1,0,0,2.6121,optionLeft,60,2600,2,6,0,6,0,1,,,,,,,,,,,,,,,,,,,,,,,,,,,,,,,,,,,,,,,
,,,,,,,,2023-08-16_08h43.57.695,HF_wild_card,2022.2.4,MacIntel,29.98680581,5d88fa49c6bd1b00180fea8a,64d2fd46c836a06233681665,64dc7e2ab080931385feb1ce,,,,,,,decisionTrl,resources/DBN.BMP,resources/DR.BMP,Door4,0.020631714,-0.015397873,1,0,0,2.5355,optionRight,80,2680,2,7,0,7,0,1,,,,,,,,,,,,,,,,,,,,,,,,,,,,,,,,,,,,,,,
,,,,,,,,2023-08-16_08h43.57.695,HF_wild_card,2022.2.4,MacIntel,29.98680581,5d88fa49c6bd1b00180fea8a,64d2fd46c836a06233681665,64dc7e2ab080931385feb1ce,,,,,,,decisionTrl,resources/DR.BMP,resources/DBN.BMP,Door3,0.025673676,-0.038279877,1,0,0,4.3139,optionRight,70,2750,2,8,0,8,0,1,,,,,,,,,,,,,,,,,,,,,,,,,,,,,,,,,,,,,,,
,,,,,,,,2023-08-16_08h43.57.695,HF_wild_card,2022.2.4,MacIntel,29.98680581,5d88fa49c6bd1b00180fea8a,64d2fd46c836a06233681665,64dc7e2ab080931385feb1ce,,,,,,,ctch,resources/DP.BMP,resources/DR.BMP,Door4,0.007433243,0.010855637,1,0,0,1.3257,optionRight,80,2830,2,9,0,9,0,1,,,,,,,,,,,,,,,,,,,,,,,,,,,,,,,,,,,,,,,
,,,,,,,,2023-08-16_08h43.57.695,HF_wild_card,2022.2.4,MacIntel,29.98680581,5d88fa49c6bd1b00180fea8a,64d2fd46c836a06233681665,64dc7e2ab080931385feb1ce,,,,,,,decisionTrl,resources/DY.BMP,resources/DG.BMP,Door2,0.013075714,-0.101966324,1,0,0,1.979,optionRight,40,2870,2,10,0,10,0,1,,,,,,,,,,,,,,,,,,,,,,,,,,,,,,,,,,,,,,,
,,,,,,,,2023-08-16_08h43.57.695,HF_wild_card,2022.2.4,MacIntel,29.98680581,5d88fa49c6bd1b00180fea8a,64d2fd46c836a06233681665,64dc7e2ab080931385feb1ce,,,,,,,decisionTrl,resources/DBN.BMP,resources/DR.BMP,Door4,0.034603119,-0.063506546,1,0,0,2.6472,optionRight,60,2930,2,11,0,11,0,1,,,,,,,,,,,,,,,,,,,,,,,,,,,,,,,,,,,,,,,
,,,,,,,,2023-08-16_08h43.57.695,HF_wild_card,2022.2.4,MacIntel,29.98680581,5d88fa49c6bd1b00180fea8a,64d2fd46c836a06233681665,64dc7e2ab080931385feb1ce,,,,,,,decisionTrl,resources/DBN.BMP,resources/DR.BMP,Door4,0.104144821,-0.066792755,1,0,0,3.5902,optionRight,80,3010,2,12,0,12,0,1,,,,,,,,,,,,,,,,,,,,,,,,,,,,,,,,,,,,,,,
,,,,,,,,2023-08-16_08h43.57.695,HF_wild_card,2022.2.4,MacIntel,29.98680581,5d88fa49c6bd1b00180fea8a,64d2fd46c836a06233681665,64dc7e2ab080931385feb1ce,,,,,,,sngl,resources/Empty.png,resources/DY.BMP,WildCard_NonEx,0.127033005,-0.036222534,1,0,0,3.4139,optionRight,45,3055,2,13,0,13,0,1,,,,,,,,,,,,,,,,,,,,,,,,,,,,,,,,,,,,,,,
,,,,,,,,2023-08-16_08h43.57.695,HF_wild_card,2022.2.4,MacIntel,29.98680581,5d88fa49c6bd1b00180fea8a,64d2fd46c836a06233681665,64dc7e2ab080931385feb1ce,,,,,,,sngl,resources/Empty.png,resources/DG.BMP,Door2,0.024712448,-0.020995483,1,0,0,2.9858,optionRight,40,3095,2,14,0,14,0,1,,,,,,,,,,,,,,,,,,,,,,,,,,,,,,,,,,,,,,,
,,,,,,,,2023-08-16_08h43.57.695,HF_wild_card,2022.2.4,MacIntel,29.98680581,5d88fa49c6bd1b00180fea8a,64d2fd46c836a06233681665,64dc7e2ab080931385feb1ce,,,,,,,ctch,resources/DR.BMP,resources/DP.BMP,Door1,0.023927307,0.005513916,1,0,0,4.0842,optionRight,30,3125,2,15,0,15,0,1,,,,,,,,,,,,,,,,,,,,,,,,,,,,,,,,,,,,,,,
,,,,,,,,2023-08-16_08h43.57.695,HF_wild_card,2022.2.4,MacIntel,29.98680581,5d88fa49c6bd1b00180fea8a,64d2fd46c836a06233681665,64dc7e2ab080931385feb1ce,,,,,,,ctch,resources/DBN.BMP,resources/DG.BMP,Door2,0.030485306,-0.020100861,1,0,0,4.043,optionRight,20,3145,2,16,0,16,0,1,,,,,,,,,,,,,,,,,,,,,,,,,,,,,,,,,,,,,,,
,,,,,,,,2023-08-16_08h43.57.695,HF_wild_card,2022.2.4,MacIntel,29.98680581,5d88fa49c6bd1b00180fea8a,64d2fd46c836a06233681665,64dc7e2ab080931385feb1ce,,,,,,,ctch,resources/DR.BMP,resources/DP.BMP,Door1,0.010144501,0.002633171,1,0,0,1.1013,optionRight,30,3175,2,17,0,17,0,1,,,,,,,,,,,,,,,,,,,,,,,,,,,,,,,,,,,,,,,
,,,,,,,,2023-08-16_08h43.57.695,HF_wild_card,2022.2.4,MacIntel,29.98680581,5d88fa49c6bd1b00180fea8a,64d2fd46c836a06233681665,64dc7e2ab080931385feb1ce,,,,,,,ctch,resources/DG.BMP,resources/DBN.BMP,Door3,0.002776566,-0.005468636,1,0,0,3.3878,optionRight,70,3245,2,18,0,18,0,1,,,,,,,,,,,,,,,,,,,,,,,,,,,,,,,,,,,,,,,
,,,,,,,,2023-08-16_08h43.57.695,HF_wild_card,2022.2.4,MacIntel,29.98680581,5d88fa49c6bd1b00180fea8a,64d2fd46c836a06233681665,64dc7e2ab080931385feb1ce,,,,,,,sngl,resources/DP.BMP,resources/Empty.png,Door1,0.028873978,-0.029570885,1,0,0,2.4783,optionLeft,30,3275,2,19,0,19,0,1,,,,,,,,,,,,,,,,,,,,,,,,,,,,,,,,,,,,,,,
,,,,,,,,2023-08-16_08h43.57.695,HF_wild_card,2022.2.4,MacIntel,29.98680581,5d88fa49c6bd1b00180fea8a,64d2fd46c836a06233681665,64dc7e2ab080931385feb1ce,,,,,,,decisionTrl,resources/DR.BMP,resources/DY.BMP,WildCard_NonEx,0.130995331,-0.034212036,1,0,0,3.476,optionRight,45,3320,2,20,0,20,0,1,,,,,,,,,,,,,,,,,,,,,,,,,,,,,,,,,,,,,,,
,,,,,,,,2023-08-16_08h43.57.695,HF_wild_card,2022.2.4,MacIntel,29.98680581,5d88fa49c6bd1b00180fea8a,64d2fd46c836a06233681665,64dc7e2ab080931385feb1ce,,,,,,,decisionTrl,resources/DBN.BMP,resources/DY.BMP,WildCard_NonEx,0.001267776,0.006139755,1,0,0,2.4196,optionRight,45,3365,2,21,0,21,0,1,,,,,,,,,,,,,,,,,,,,,,,,,,,,,,,,,,,,,,,
,,,,,,,,2023-08-16_08h43.57.695,HF_wild_card,2022.2.4,MacIntel,29.98680581,5d88fa49c6bd1b00180fea8a,64d2fd46c836a06233681665,64dc7e2ab080931385feb1ce,,,,,,,sngl,resources/DY.BMP,resources/Empty.png,WildCard_NonEx,0.007695694,-0.008316803,1,0,0,2.3654,optionLeft,45,3410,2,22,0,22,0,1,,,,,,,,,,,,,,,,,,,,,,,,,,,,,,,,,,,,,,,
,,,,,,,,2023-08-16_08h43.57.695,HF_wild_card,2022.2.4,MacIntel,29.98680581,5d88fa49c6bd1b00180fea8a,64d2fd46c836a06233681665,64dc7e2ab080931385feb1ce,,,,,,,decisionTrl,resources/DG.BMP,resources/DP.BMP,Door1,0.140002899,-0.027753601,1,0,0,1.8115,optionRight,30,3440,2,23,0,23,0,1,,,,,,,,,,,,,,,,,,,,,,,,,,,,,,,,,,,,,,,
,,,,,,,,2023-08-16_08h43.57.695,HF_wild_card,2022.2.4,MacIntel,29.98680581,5d88fa49c6bd1b00180fea8a,64d2fd46c836a06233681665,64dc7e2ab080931385feb1ce,,,,,,,sngl,resources/Empty.png,resources/DP.BMP,Door1,-0.011991119,-0.001202469,1,0,0,1.8019,optionRight,30,3470,2,24,0,24,0,1,,,,,,,,,,,,,,,,,,,,,,,,,,,,,,,,,,,,,,,
,,,,,,,,2023-08-16_08h43.57.695,HF_wild_card,2022.2.4,MacIntel,29.98680581,5d88fa49c6bd1b00180fea8a,64d2fd46c836a06233681665,64dc7e2ab080931385feb1ce,,,,,,,sngl,resources/Empty.png,resources/DY.BMP,WildCard_NonEx,0.154110489,-0.038437576,1,0,0,2.9997,optionRight,55,3525,2,25,0,25,0,1,,,,,,,,,,,,,,,,,,,,,,,,,,,,,,,,,,,,,,,
,,,,,,,,2023-08-16_08h43.57.695,HF_wild_card,2022.2.4,MacIntel,29.98680581,5d88fa49c6bd1b00180fea8a,64d2fd46c836a06233681665,64dc7e2ab080931385feb1ce,,,,,,,decisionTrl,resources/DP.BMP,resources/DY.BMP,WildCard_NonEx,0.040668182,0.005750465,1,0,0,3.4011,optionRight,45,3570,2,26,0,26,0,1,,,,,,,,,,,,,,,,,,,,,,,,,,,,,,,,,,,,,,,
,,,,,,,,2023-08-16_08h43.57.695,HF_wild_card,2022.2.4,MacIntel,29.98680581,5d88fa49c6bd1b00180fea8a,64d2fd46c836a06233681665,64dc7e2ab080931385feb1ce,,,,,,,decisionTrl,resources/DP.BMP,resources/DG.BMP,Door2,-7.14111E-05,-0.014883041,1,0,0,2.4176,optionRight,40,3610,2,27,0,27,0,1,,,,,,,,,,,,,,,,,,,,,,,,,,,,,,,,,,,,,,,
,,,,,,,,2023-08-16_08h43.57.695,HF_wild_card,2022.2.4,MacIntel,29.98680581,5d88fa49c6bd1b00180fea8a,64d2fd46c836a06233681665,64dc7e2ab080931385feb1ce,,,,,,,decisionTrl,resources/DY.BMP,resources/DR.BMP,Door4,0.26328598,-0.063112717,1,0,0,2.6479,optionRight,80,3690,2,28,0,28,0,1,,,,,,,,,,,,,,,,,,,,,,,,,,,,,,,,,,,,,,,
,,,,,,,,2023-08-16_08h43.57.695,HF_wild_card,2022.2.4,MacIntel,29.98680581,5d88fa49c6bd1b00180fea8a,64d2fd46c836a06233681665,64dc7e2ab080931385feb1ce,,,,,,,decisionTrl,resources/DG.BMP,resources/DP.BMP,Door1,0.051349716,-0.070547256,1,0,0,2.346,optionRight,30,3720,2,29,0,29,0,1,,,,,,,,,,,,,,,,,,,,,,,,,,,,,,,,,,,,,,,
,,,,,,,,2023-08-16_08h43.57.695,HF_wild_card,2022.2.4,MacIntel,29.98680581,5d88fa49c6bd1b00180fea8a,64d2fd46c836a06233681665,64dc7e2ab080931385feb1ce,,,,,,,sngl,resources/DBN.BMP,resources/Empty.png,Door3,0.005747986,0.008123093,1,0,0,2.4415,optionLeft,70,3790,2,30,0,30,0,1,,,,,,,,,,,,,,,,,,,,,,,,,,,,,,,,,,,,,,,
,,,,,,,,2023-08-16_08h43.57.695,HF_wild_card,2022.2.4,MacIntel,29.98680581,5d88fa49c6bd1b00180fea8a,64d2fd46c836a06233681665,64dc7e2ab080931385feb1ce,,,,,,,sngl,resources/Empty.png,resources/DBN.BMP,Door3,0.008075562,0.007857971,1,0,0,2.437,optionRight,70,3860,2,31,0,31,0,1,,,,,,,,,,,,,,,,,,,,,,,,,,,,,,,,,,,,,,,
,,,,,,,,2023-08-16_08h43.57.695,HF_wild_card,2022.2.4,MacIntel,29.98680581,5d88fa49c6bd1b00180fea8a,64d2fd46c836a06233681665,64dc7e2ab080931385feb1ce,,,,,,,decisionTrl,resources/DY.BMP,resources/DP.BMP,Door1,0.006182938,-0.03358284,1,0,0,3.9678,optionRight,30,3890,2,32,0,32,0,1,,,,,,,,,,,,,,,,,,,,,,,,,,,,,,,,,,,,,,,
,,,,,,,,2023-08-16_08h43.57.695,HF_wild_card,2022.2.4,MacIntel,29.98680581,5d88fa49c6bd1b00180fea8a,64d2fd46c836a06233681665,64dc7e2ab080931385feb1ce,,,,,,,decisionTrl,resources/DG.BMP,resources/DP.BMP,Door1,0.226634827,-0.076847153,1,0,0,2.5698,optionRight,30,3920,2,33,0,33,0,1,,,,,,,,,,,,,,,,,,,,,,,,,,,,,,,,,,,,,,,
,,,,,,,,2023-08-16_08h43.57.695,HF_wild_card,2022.2.4,MacIntel,29.98680581,5d88fa49c6bd1b00180fea8a,64d2fd46c836a06233681665,64dc7e2ab080931385feb1ce,,,,,,,sngl,resources/Empty.png,resources/DR.BMP,Door4,0.278072968,-0.081126099,1,0,0,1.3471,optionRight,80,4000,2,34,0,34,0,1,,,,,,,,,,,,,,,,,,,,,,,,,,,,,,,,,,,,,,,
,,,,,,,,2023-08-16_08h43.57.695,HF_wild_card,2022.2.4,MacIntel,29.98680581,5d88fa49c6bd1b00180fea8a,64d2fd46c836a06233681665,64dc7e2ab080931385feb1ce,,,,,,,ctch,resources/DG.BMP,resources/DBN.BMP,Door3,0.147313232,-0.080565643,1,0,0,2.414,optionRight,70,4070,2,35,0,35,0,1,,,,,,,,,,,,,,,,,,,,,,,,,,,,,,,,,,,,,,,
,,,,,,,,2023-08-16_08h43.57.695,HF_wild_card,2022.2.4,MacIntel,29.98680581,5d88fa49c6bd1b00180fea8a,64d2fd46c836a06233681665,64dc7e2ab080931385feb1ce,,,,,,,decisionTrl,resources/DR.BMP,resources/DBN.BMP,Door3,0.143388901,-0.026921692,1,0,0,1.8171,optionRight,70,4140,2,36,0,36,0,1,,,,,,,,,,,,,,,,,,,,,,,,,,,,,,,,,,,,,,,
,,,,,,,,2023-08-16_08h43.57.695,HF_wild_card,2022.2.4,MacIntel,29.98680581,5d88fa49c6bd1b00180fea8a,64d2fd46c836a06233681665,64dc7e2ab080931385feb1ce,,,,,,,decisionTrl,resources/DG.BMP,resources/DY.BMP,WildCard_NonEx,0.182032089,-0.058111877,1,0,0,1.3884,optionRight,55,4195,2,37,0,37,0,1,,,,,,,,,,,,,,,,,,,,,,,,,,,,,,,,,,,,,,,
,,,,,,,,2023-08-16_08h43.57.695,HF_wild_card,2022.2.4,MacIntel,29.98680581,5d88fa49c6bd1b00180fea8a,64d2fd46c836a06233681665,64dc7e2ab080931385feb1ce,,,,,,,decisionTrl,resources/DR.BMP,resources/DBN.BMP,Door3,0.20023819,-0.130448227,1,0,0,1.6465,optionRight,70,4265,2,38,0,38,0,1,,,,,,,,,,,,,,,,,,,,,,,,,,,,,,,,,,,,,,,
,,,,,,,,2023-08-16_08h43.57.695,HF_wild_card,2022.2.4,MacIntel,29.98680581,5d88fa49c6bd1b00180fea8a,64d2fd46c836a06233681665,64dc7e2ab080931385feb1ce,,,,,,,sngl,resources/DY.BMP,resources/Empty.png,WildCard_NonEx,-0.00361496,-0.006052933,1,0,0,1.0192,optionLeft,55,4320,2,39,0,39,0,1,,,,,,,,,,,,,,,,,,,,,,,,,,,,,,,,,,,,,,,
,,,,,,,,2023-08-16_08h43.57.695,HF_wild_card,2022.2.4,MacIntel,29.98680581,5d88fa49c6bd1b00180fea8a,64d2fd46c836a06233681665,64dc7e2ab080931385feb1ce,,,,,,,decisionTrl,resources/DG.BMP,resources/DP.BMP,Door1,0.106353683,-0.033678131,1,0,0,2.3112,optionRight,30,4350,2,40,0,40,0,1,,,,,,,,,,,,,,,,,,,,,,,,,,,,,,,,,,,,,,,
,,,,,,,,2023-08-16_08h43.57.695,HF_wild_card,2022.2.4,MacIntel,29.98680581,5d88fa49c6bd1b00180fea8a,64d2fd46c836a06233681665,64dc7e2ab080931385feb1ce,,,,,,,sngl,resources/DG.BMP,resources/Empty.png,Door2,-0.006669769,-0.010253105,1,0,0,1.2354,optionLeft,20,4370,2,41,0,41,0,1,,,,,,,,,,,,,,,,,,,,,,,,,,,,,,,,,,,,,,,
,,,,,,,,2023-08-16_08h43.57.695,HF_wild_card,2022.2.4,MacIntel,29.98680581,5d88fa49c6bd1b00180fea8a,64d2fd46c836a06233681665,64dc7e2ab080931385feb1ce,,,,,,,decisionTrl,resources/DY.BMP,resources/DBN.BMP,WildCard_NonEx,-0.145823975,-0.017597961,1,0,0,2.8393,optionLeft,45,4415,2,42,0,42,0,1,,,,,,,,,,,,,,,,,,,,,,,,,,,,,,,,,,,,,,,
,,,,,,,,2023-08-16_08h43.57.695,HF_wild_card,2022.2.4,MacIntel,29.98680581,5d88fa49c6bd1b00180fea8a,64d2fd46c836a06233681665,64dc7e2ab080931385feb1ce,,,,,,,decisionTrl,resources/DP.BMP,resources/DG.BMP,Door1,0.052811356,-0.020232124,1,0,0,2.423,optionLeft,30,4445,2,43,0,43,0,1,,,,,,,,,,,,,,,,,,,,,,,,,,,,,,,,,,,,,,,
,,,,,,,,2023-08-16_08h43.57.695,HF_wild_card,2022.2.4,MacIntel,29.98680581,5d88fa49c6bd1b00180fea8a,64d2fd46c836a06233681665,64dc7e2ab080931385feb1ce,,,,,,,,,,,,,,,,,,,,,,,,,,1,0,1,0,1,,,,,,,,,,,,,,,,,,,,,,,,,,,,,,,,,,
,,,,,,,,2023-08-16_08h43.57.695,HF_wild_card,2022.2.4,MacIntel,29.98680581,5d88fa49c6bd1b00180fea8a,64d2fd46c836a06233681665,64dc7e2ab080931385feb1ce,,,,,,,decisionTrl,resources/DBN.BMP,resources/DR.BMP,Door4,0.040346222,-0.102319107,1,0,0,1.5784,optionRight,60,4505,3,0,0,0,0,1,,,,,,,,,,,,,,,,,,,,,,,,,,,,,,,,,,,,,,,
,,,,,,,,2023-08-16_08h43.57.695,HF_wild_card,2022.2.4,MacIntel,29.98680581,5d88fa49c6bd1b00180fea8a,64d2fd46c836a06233681665,64dc7e2ab080931385feb1ce,,,,,,,decisionTrl,resources/DG.BMP,resources/DP.BMP,Door1,0.140147476,-0.009784279,1,0,0,3.8336,optionRight,30,4535,3,1,0,1,0,1,,,,,,,,,,,,,,,,,,,,,,,,,,,,,,,,,,,,,,,
,,,,,,,,2023-08-16_08h43.57.695,HF_wild_card,2022.2.4,MacIntel,29.98680581,5d88fa49c6bd1b00180fea8a,64d2fd46c836a06233681665,64dc7e2ab080931385feb1ce,,,,,,,sngl,resources/Empty.png,resources/DG.BMP,Door2,0.151785049,-0.053397522,1,0,0,2.5128,optionRight,20,4555,3,2,0,2,0,1,,,,,,,,,,,,,,,,,,,,,,,,,,,,,,,,,,,,,,,
,,,,,,,,2023-08-16_08h43.57.695,HF_wild_card,2022.2.4,MacIntel,29.98680581,5d88fa49c6bd1b00180fea8a,64d2fd46c836a06233681665,64dc7e2ab080931385feb1ce,,,,,,,decisionTrl,resources/DBN.BMP,resources/DR.BMP,Door4,0.123275223,-0.026417542,1,0,0,2.1982,optionRight,60,4615,3,3,0,3,0,1,,,,,,,,,,,,,,,,,,,,,,,,,,,,,,,,,,,,,,,
,,,,,,,,2023-08-16_08h43.57.695,HF_wild_card,2022.2.4,MacIntel,29.98680581,5d88fa49c6bd1b00180fea8a,64d2fd46c836a06233681665,64dc7e2ab080931385feb1ce,,,,,,,sngl,resources/DY.BMP,resources/Empty.png,WildCard_NonEx,-0.14614502,-0.025497475,1,0,0,2.0282,optionLeft,45,4660,3,4,0,4,0,1,,,,,,,,,,,,,,,,,,,,,,,,,,,,,,,,,,,,,,,
,,,,,,,,2023-08-16_08h43.57.695,HF_wild_card,2022.2.4,MacIntel,29.98680581,5d88fa49c6bd1b00180fea8a,64d2fd46c836a06233681665,64dc7e2ab080931385feb1ce,,,,,,,decisionTrl,resources/DY.BMP,resources/DP.BMP,Door1,0.147232056,-0.002736855,1,0,0,2.508,optionRight,30,4690,3,5,0,5,0,1,,,,,,,,,,,,,,,,,,,,,,,,,,,,,,,,,,,,,,,
,,,,,,,,2023-08-16_08h43.57.695,HF_wild_card,2022.2.4,MacIntel,29.98680581,5d88fa49c6bd1b00180fea8a,64d2fd46c836a06233681665,64dc7e2ab080931385feb1ce,,,,,,,decisionTrl,resources/DP.BMP,resources/DG.BMP,Door2,0.164401398,-0.007579651,1,0,0,1.8547,optionRight,20,4710,3,6,0,6,0,1,,,,,,,,,,,,,,,,,,,,,,,,,,,,,,,,,,,,,,,
,,,,,,,,2023-08-16_08h43.57.695,HF_wild_card,2022.2.4,MacIntel,29.98680581,5d88fa49c6bd1b00180fea8a,64d2fd46c836a06233681665,64dc7e2ab080931385feb1ce,,,,,,,decisionTrl,resources/DR.BMP,resources/DBN.BMP,Door3,0.21062767,-0.013056145,1,0,0,2.1568,optionRight,70,4780,3,7,0,7,0,1,,,,,,,,,,,,,,,,,,,,,,,,,,,,,,,,,,,,,,,
,,,,,,,,2023-08-16_08h43.57.695,HF_wild_card,2022.2.4,MacIntel,29.98680581,5d88fa49c6bd1b00180fea8a,64d2fd46c836a06233681665,64dc7e2ab080931385feb1ce,,,,,,,decisionTrl,resources/DY.BMP,resources/DG.BMP,Door2,0.179058151,0.014148178,1,0,0,2.2335,optionRight,40,4820,3,8,0,8,0,1,,,,,,,,,,,,,,,,,,,,,,,,,,,,,,,,,,,,,,,
,,,,,,,,2023-08-16_08h43.57.695,HF_wild_card,2022.2.4,MacIntel,29.98680581,5d88fa49c6bd1b00180fea8a,64d2fd46c836a06233681665,64dc7e2ab080931385feb1ce,,,,,,,sngl,resources/Empty.png,resources/DR.BMP,Door4,0.157930145,-0.013276253,1,0,0,1.4267,optionRight,60,4880,3,9,0,9,0,1,,,,,,,,,,,,,,,,,,,,,,,,,,,,,,,,,,,,,,,
,,,,,,,,2023-08-16_08h43.57.695,HF_wild_card,2022.2.4,MacIntel,29.98680581,5d88fa49c6bd1b00180fea8a,64d2fd46c836a06233681665,64dc7e2ab080931385feb1ce,,,,,,,decisionTrl,resources/DP.BMP,resources/DY.BMP,WildCard_NonEx,-0.010525208,-0.012573471,1,0,0,1.4795,optionRight,45,4925,3,10,0,10,0,1,,,,,,,,,,,,,,,,,,,,,,,,,,,,,,,,,,,,,,,
,,,,,,,,2023-08-16_08h43.57.695,HF_wild_card,2022.2.4,MacIntel,29.98680581,5d88fa49c6bd1b00180fea8a,64d2fd46c836a06233681665,64dc7e2ab080931385feb1ce,,,,,,,ctch,resources/DG.BMP,resources/DBN.BMP,Door3,0.007921066,-0.013426285,1,0,0,1.4165,optionRight,70,4995,3,11,0,11,0,1,,,,,,,,,,,,,,,,,,,,,,,,,,,,,,,,,,,,,,,
,,,,,,,,2023-08-16_08h43.57.695,HF_wild_card,2022.2.4,MacIntel,29.98680581,5d88fa49c6bd1b00180fea8a,64d2fd46c836a06233681665,64dc7e2ab080931385feb1ce,,,,,,,decisionTrl,resources/DG.BMP,resources/DP.BMP,Door1,0.01919632,-0.026071091,1,0,0,1.1352,optionRight,30,5025,3,12,0,12,0,1,,,,,,,,,,,,,,,,,,,,,,,,,,,,,,,,,,,,,,,
,,,,,,,,2023-08-16_08h43.57.695,HF_wild_card,2022.2.4,MacIntel,29.98680581,5d88fa49c6bd1b00180fea8a,64d2fd46c836a06233681665,64dc7e2ab080931385feb1ce,,,,,,,decisionTrl,resources/DG.BMP,resources/DP.BMP,Door1,0.00357811,-0.003659897,1,0,0,1.1733,optionRight,30,5055,3,13,0,13,0,1,,,,,,,,,,,,,,,,,,,,,,,,,,,,,,,,,,,,,,,
,,,,,,,,2023-08-16_08h43.57.695,HF_wild_card,2022.2.4,MacIntel,29.98680581,5d88fa49c6bd1b00180fea8a,64d2fd46c836a06233681665,64dc7e2ab080931385feb1ce,,,,,,,sngl,resources/DG.BMP,resources/Empty.png,Door2,0.009298019,-0.00307724,1,0,0,1.0348,optionLeft,40,5095,3,14,0,14,0,1,,,,,,,,,,,,,,,,,,,,,,,,,,,,,,,,,,,,,,,
,,,,,,,,2023-08-16_08h43.57.695,HF_wild_card,2022.2.4,MacIntel,29.98680581,5d88fa49c6bd1b00180fea8a,64d2fd46c836a06233681665,64dc7e2ab080931385feb1ce,,,,,,,decisionTrl,resources/DY.BMP,resources/DR.BMP,WildCard_NonEx,-0.003091049,0.014791641,1,0,0,1.4415,optionLeft,45,5140,3,15,0,15,0,1,,,,,,,,,,,,,,,,,,,,,,,,,,,,,,,,,,,,,,,
,,,,,,,,2023-08-16_08h43.57.695,HF_wild_card,2022.2.4,MacIntel,29.98680581,5d88fa49c6bd1b00180fea8a,64d2fd46c836a06233681665,64dc7e2ab080931385feb1ce,,,,,,,decisionTrl,resources/DG.BMP,resources/DP.BMP,Door2,-0.165835037,0.005394707,1,0,0,1.1735,optionLeft,20,5160,3,16,0,16,0,1,,,,,,,,,,,,,,,,,,,,,,,,,,,,,,,,,,,,,,,
,,,,,,,,2023-08-16_08h43.57.695,HF_wild_card,2022.2.4,MacIntel,29.98680581,5d88fa49c6bd1b00180fea8a,64d2fd46c836a06233681665,64dc7e2ab080931385feb1ce,,,,,,,ctch,resources/DG.BMP,resources/DBN.BMP,Door2,-0.117899628,0.001517715,1,0,0,1.5867,optionLeft,20,5180,3,17,0,17,0,1,,,,,,,,,,,,,,,,,,,,,,,,,,,,,,,,,,,,,,,
,,,,,,,,2023-08-16_08h43.57.695,HF_wild_card,2022.2.4,MacIntel,29.98680581,5d88fa49c6bd1b00180fea8a,64d2fd46c836a06233681665,64dc7e2ab080931385feb1ce,,,,,,,sngl,resources/DP.BMP,resources/Empty.png,Door1,-0.102064972,-0.013070602,1,0,0,1.3184,optionLeft,30,5210,3,18,0,18,0,1,,,,,,,,,,,,,,,,,,,,,,,,,,,,,,,,,,,,,,,
,,,,,,,,2023-08-16_08h43.57.695,HF_wild_card,2022.2.4,MacIntel,29.98680581,5d88fa49c6bd1b00180fea8a,64d2fd46c836a06233681665,64dc7e2ab080931385feb1ce,,,,,,,decisionTrl,resources/DP.BMP,resources/DG.BMP,Door1,-0.14691391,-0.02541069,1,0,0,1.4751,optionLeft,30,5240,3,19,0,19,0,1,,,,,,,,,,,,,,,,,,,,,,,,,,,,,,,,,,,,,,,
,,,,,,,,2023-08-16_08h43.57.695,HF_wild_card,2022.2.4,MacIntel,29.98680581,5d88fa49c6bd1b00180fea8a,64d2fd46c836a06233681665,64dc7e2ab080931385feb1ce,,,,,,,ctch,resources/DP.BMP,resources/DR.BMP,Door1,0.006681137,0.004063988,1,0,0,1.7036,optionLeft,30,5270,3,20,0,20,0,1,,,,,,,,,,,,,,,,,,,,,,,,,,,,,,,,,,,,,,,
,,,,,,,,2023-08-16_08h43.57.695,HF_wild_card,2022.2.4,MacIntel,29.98680581,5d88fa49c6bd1b00180fea8a,64d2fd46c836a06233681665,64dc7e2ab080931385feb1ce,,,,,,,sngl,resources/Empty.png,resources/DP.BMP,Door1,-0.000422668,-0.002034836,1,0,0,1.2329,optionRight,30,5300,3,21,0,21,0,1,,,,,,,,,,,,,,,,,,,,,,,,,,,,,,,,,,,,,,,
,,,,,,,,2023-08-16_08h43.57.695,HF_wild_card,2022.2.4,MacIntel,29.98680581,5d88fa49c6bd1b00180fea8a,64d2fd46c836a06233681665,64dc7e2ab080931385feb1ce,,,,,,,decisionTrl,resources/DR.BMP,resources/DBN.BMP,Door4,-0.178987846,0.013371277,1,0,0,1.5588,optionLeft,80,5380,3,22,0,22,0,1,,,,,,,,,,,,,,,,,,,,,,,,,,,,,,,,,,,,,,,
,,,,,,,,2023-08-16_08h43.57.695,HF_wild_card,2022.2.4,MacIntel,29.98680581,5d88fa49c6bd1b00180fea8a,64d2fd46c836a06233681665,64dc7e2ab080931385feb1ce,,,,,,,decisionTrl,resources/DBN.BMP,resources/DR.BMP,Door3,-0.153263245,-0.030821114,1,0,0,1.8532,optionLeft,70,5450,3,23,0,23,0,1,,,,,,,,,,,,,,,,,,,,,,,,,,,,,,,,,,,,,,,
,,,,,,,,2023-08-16_08h43.57.695,HF_wild_card,2022.2.4,MacIntel,29.98680581,5d88fa49c6bd1b00180fea8a,64d2fd46c836a06233681665,64dc7e2ab080931385feb1ce,,,,,,,sngl,resources/DBN.BMP,resources/Empty.png,Door3,-0.205252075,-0.039915009,1,0,0,1.227,optionLeft,70,5520,3,24,0,24,0,1,,,,,,,,,,,,,,,,,,,,,,,,,,,,,,,,,,,,,,,
,,,,,,,,2023-08-16_08h43.57.695,HF_wild_card,2022.2.4,MacIntel,29.98680581,5d88fa49c6bd1b00180fea8a,64d2fd46c836a06233681665,64dc7e2ab080931385feb1ce,,,,,,,decisionTrl,resources/DY.BMP,resources/DBN.BMP,Door3,0.133718872,0.016700439,1,0,0,1.2281,optionRight,70,5590,3,25,0,25,0,1,,,,,,,,,,,,,,,,,,,,,,,,,,,,,,,,,,,,,,,
,,,,,,,,2023-08-16_08h43.57.695,HF_wild_card,2022.2.4,MacIntel,29.98680581,5d88fa49c6bd1b00180fea8a,64d2fd46c836a06233681665,64dc7e2ab080931385feb1ce,,,,,,,ctch,resources/DP.BMP,resources/DR.BMP,Door1,-0.002174377,-0.005456161,1,0,0,2.6274,optionLeft,30,5620,3,26,0,26,0,1,,,,,,,,,,,,,,,,,,,,,,,,,,,,,,,,,,,,,,,
,,,,,,,,2023-08-16_08h43.57.695,HF_wild_card,2022.2.4,MacIntel,29.98680581,5d88fa49c6bd1b00180fea8a,64d2fd46c836a06233681665,64dc7e2ab080931385feb1ce,,,,,,,decisionTrl,resources/DR.BMP,resources/DY.BMP,Door4,-0.159198074,0.00314312,1,0,0,1.1758,optionLeft,60,5680,3,27,0,27,0,1,,,,,,,,,,,,,,,,,,,,,,,,,,,,,,,,,,,,,,,
,,,,,,,,2023-08-16_08h43.57.695,HF_wild_card,2022.2.4,MacIntel,29.98680581,5d88fa49c6bd1b00180fea8a,64d2fd46c836a06233681665,64dc7e2ab080931385feb1ce,,,,,,,sngl,resources/Empty.png,resources/DY.BMP,WildCard_NonEx,0.135164566,0.01737381,1,0,0,1.37,optionRight,45,5725,3,28,0,28,0,1,,,,,,,,,,,,,,,,,,,,,,,,,,,,,,,,,,,,,,,
,,,,,,,,2023-08-16_08h43.57.695,HF_wild_card,2022.2.4,MacIntel,29.98680581,5d88fa49c6bd1b00180fea8a,64d2fd46c836a06233681665,64dc7e2ab080931385feb1ce,,,,,,,sngl,resources/Empty.png,resources/DBN.BMP,Door3,0.148638382,0.015426521,1,0,0,8.3601,optionRight,70,5795,3,29,0,29,0,1,,,,,,,,,,,,,,,,,,,,,,,,,,,,,,,,,,,,,,,
,,,,,,,,2023-08-16_08h43.57.695,HF_wild_card,2022.2.4,MacIntel,29.98680581,5d88fa49c6bd1b00180fea8a,64d2fd46c836a06233681665,64dc7e2ab080931385feb1ce,,,,,,,decisionTrl,resources/DBN.BMP,resources/DY.BMP,Door3,-0.140338516,-0.014028244,1,0,0,1.5833,optionLeft,70,5865,3,30,0,30,0,1,,,,,,,,,,,,,,,,,,,,,,,,,,,,,,,,,,,,,,,
,,,,,,,,2023-08-16_08h43.57.695,HF_wild_card,2022.2.4,MacIntel,29.98680581,5d88fa49c6bd1b00180fea8a,64d2fd46c836a06233681665,64dc7e2ab080931385feb1ce,,,,,,,decisionTrl,resources/DBN.BMP,resources/DR.BMP,Door3,-0.0013591,-0.008326187,1,0,0,0.9335,optionLeft,70,5935,3,31,0,31,0,1,,,,,,,,,,,,,,,,,,,,,,,,,,,,,,,,,,,,,,,
,,,,,,,,2023-08-16_08h43.57.695,HF_wild_card,2022.2.4,MacIntel,29.98680581,5d88fa49c6bd1b00180fea8a,64d2fd46c836a06233681665,64dc7e2ab080931385feb1ce,,,,,,,decisionTrl,resources/DR.BMP,resources/DBN.BMP,Door4,-0.151918411,-0.014788628,1,0,0,1.0184,optionLeft,60,5995,3,32,0,32,0,1,,,,,,,,,,,,,,,,,,,,,,,,,,,,,,,,,,,,,,,
,,,,,,,,2023-08-16_08h43.57.695,HF_wild_card,2022.2.4,MacIntel,29.98680581,5d88fa49c6bd1b00180fea8a,64d2fd46c836a06233681665,64dc7e2ab080931385feb1ce,,,,,,,sngl,resources/DY.BMP,resources/Empty.png,WildCard_NonEx,0.011049652,-0.008980484,1,0,0,1.0118,optionLeft,55,6050,3,33,0,33,0,1,,,,,,,,,,,,,,,,,,,,,,,,,,,,,,,,,,,,,,,
,,,,,,,,2023-08-16_08h43.57.695,HF_wild_card,2022.2.4,MacIntel,29.98680581,5d88fa49c6bd1b00180fea8a,64d2fd46c836a06233681665,64dc7e2ab080931385feb1ce,,,,,,,decisionTrl,resources/DP.BMP,resources/DG.BMP,Door2,-0.002556229,-0.007587967,1,0,0,0.8011,optionRight,40,6090,3,34,0,34,0,1,,,,,,,,,,,,,,,,,,,,,,,,,,,,,,,,,,,,,,,
,,,,,,,,2023-08-16_08h43.57.695,HF_wild_card,2022.2.4,MacIntel,29.98680581,5d88fa49c6bd1b00180fea8a,64d2fd46c836a06233681665,64dc7e2ab080931385feb1ce,,,,,,,sngl,resources/DR.BMP,resources/Empty.png,Door4,-0.171627121,0.006876183,1,0,0,1.0583,optionLeft,80,6170,3,35,0,35,0,1,,,,,,,,,,,,,,,,,,,,,,,,,,,,,,,,,,,,,,,
,,,,,,,,2023-08-16_08h43.57.695,HF_wild_card,2022.2.4,MacIntel,29.98680581,5d88fa49c6bd1b00180fea8a,64d2fd46c836a06233681665,64dc7e2ab080931385feb1ce,,,,,,,sngl,resources/Empty.png,resources/DY.BMP,WildCard_NonEx,-0.007341156,-0.000467224,1,0,0,0.7916,optionRight,55,6225,3,36,0,36,0,1,,,,,,,,,,,,,,,,,,,,,,,,,,,,,,,,,,,,,,,
,,,,,,,,2023-08-16_08h43.57.695,HF_wild_card,2022.2.4,MacIntel,29.98680581,5d88fa49c6bd1b00180fea8a,64d2fd46c836a06233681665,64dc7e2ab080931385feb1ce,,,,,,,ctch,resources/DBN.BMP,resources/DG.BMP,Door2,0.135090027,-0.026683464,1,0,0,1.4573,optionRight,20,6245,3,37,0,37,0,1,,,,,,,,,,,,,,,,,,,,,,,,,,,,,,,,,,,,,,,
,,,,,,,,2023-08-16_08h43.57.695,HF_wild_card,2022.2.4,MacIntel,29.98680581,5d88fa49c6bd1b00180fea8a,64d2fd46c836a06233681665,64dc7e2ab080931385feb1ce,,,,,,,ctch,resources/DR.BMP,resources/DP.BMP,Door1,0.021021042,-0.005049057,1,0,0,14.5876,optionRight,30,6275,3,38,0,38,0,1,,,,,,,,,,,,,,,,,,,,,,,,,,,,,,,,,,,,,,,
,,,,,,,,2023-08-16_08h43.57.695,HF_wild_card,2022.2.4,MacIntel,29.98680581,5d88fa49c6bd1b00180fea8a,64d2fd46c836a06233681665,64dc7e2ab080931385feb1ce,,,,,,,ctch,resources/DR.BMP,resources/DP.BMP,Door1,0.131924133,-0.032034302,1,0,0,1.9734,optionRight,30,6305,3,39,0,39,0,1,,,,,,,,,,,,,,,,,,,,,,,,,,,,,,,,,,,,,,,
,,,,,,,,2023-08-16_08h43.57.695,HF_wild_card,2022.2.4,MacIntel,29.98680581,5d88fa49c6bd1b00180fea8a,64d2fd46c836a06233681665,64dc7e2ab080931385feb1ce,,,,,,,ctch,resources/DBN.BMP,resources/DG.BMP,Door2,0.204280014,-0.021055756,1,0,0,2.0018,optionRight,20,6325,3,40,0,40,0,1,,,,,,,,,,,,,,,,,,,,,,,,,,,,,,,,,,,,,,,
,,,,,,,,2023-08-16_08h43.57.695,HF_wild_card,2022.2.4,MacIntel,29.98680581,5d88fa49c6bd1b00180fea8a,64d2fd46c836a06233681665,64dc7e2ab080931385feb1ce,,,,,,,decisionTrl,resources/DR.BMP,resources/DBN.BMP,Door3,0.138875275,-0.042535095,1,0,0,3.0186,optionRight,70,6395,3,41,0,41,0,1,,,,,,,,,,,,,,,,,,,,,,,,,,,,,,,,,,,,,,,
,,,,,,,,2023-08-16_08h43.57.695,HF_wild_card,2022.2.4,MacIntel,29.98680581,5d88fa49c6bd1b00180fea8a,64d2fd46c836a06233681665,64dc7e2ab080931385feb1ce,,,,,,,decisionTrl,resources/DG.BMP,resources/DY.BMP,WildCard_NonEx,0.122048798,-0.017718353,1,0,0,3.1138,optionRight,45,6440,3,42,0,42,0,1,,,,,,,,,,,,,,,,,,,,,,,,,,,,,,,,,,,,,,,
,,,,,,,,2023-08-16_08h43.57.695,HF_wild_card,2022.2.4,MacIntel,29.98680581,5d88fa49c6bd1b00180fea8a,64d2fd46c836a06233681665,64dc7e2ab080931385feb1ce,,,,,,,decisionTrl,resources/DP.BMP,resources/DG.BMP,Door2,0.008053055,-0.011603394,1,0,0,2.4922,optionRight,20,6460,3,43,0,43,0,1,,,,,,,,,,,,,,,,,,,,,,,,,,,,,,,,,,,,,,,
,,,,,,,,2023-08-16_08h43.57.695,HF_wild_card,2022.2.4,MacIntel,29.98680581,5d88fa49c6bd1b00180fea8a,64d2fd46c836a06233681665,64dc7e2ab080931385feb1ce,,,,,,,,,,,,,,,,,,,,,,,,,,2,0,2,0,1,,,,,,,,,,,,,,,,,,,,,,,,,,,,,,,,,,
,,,,,,,,2023-08-16_08h43.57.695,HF_wild_card,2022.2.4,MacIntel,29.98680581,5d88fa49c6bd1b00180fea8a,64d2fd46c836a06233681665,64dc7e2ab080931385feb1ce,,,,,,,decisionTrl,resources/DG.BMP,resources/DP.BMP,Door1,0.193429871,-0.15657959,1,0,0,5.1076,optionRight,30,6490,4,0,0,0,0,1,,,,,,,,,,,,,,,,,,,,,,,,,,,,,,,,,,,,,,,
,,,,,,,,2023-08-16_08h43.57.695,HF_wild_card,2022.2.4,MacIntel,29.98680581,5d88fa49c6bd1b00180fea8a,64d2fd46c836a06233681665,64dc7e2ab080931385feb1ce,,,,,,,decisionTrl,resources/DBN.BMP,resources/DR.BMP,Door4,0.240786819,-0.065227737,1,0,0,3.5927,optionRight,60,6550,4,1,0,1,0,1,,,,,,,,,,,,,,,,,,,,,,,,,,,,,,,,,,,,,,,
,,,,,,,,2023-08-16_08h43.57.695,HF_wild_card,2022.2.4,MacIntel,29.98680581,5d88fa49c6bd1b00180fea8a,64d2fd46c836a06233681665,64dc7e2ab080931385feb1ce,,,,,,,decisionTrl,resources/DG.BMP,resources/DB.BMP,WildCard_Ex,0.183255539,-0.02139946,1,0,0,3.819,optionRight,55,6605,4,2,0,2,0,1,,,,,,,,,,,,,,,,,,,,,,,,,,,,,,,,,,,,,,,
,,,,,,,,2023-08-16_08h43.57.695,HF_wild_card,2022.2.4,MacIntel,29.98680581,5d88fa49c6bd1b00180fea8a,64d2fd46c836a06233681665,64dc7e2ab080931385feb1ce,,,,,,,decisionTrl,resources/DG.BMP,resources/DP.BMP,Door1,0.362277298,-0.029495468,1,0,0,2.306,optionRight,30,6635,4,3,0,3,0,1,,,,,,,,,,,,,,,,,,,,,,,,,,,,,,,,,,,,,,,
,,,,,,,,2023-08-16_08h43.57.695,HF_wild_card,2022.2.4,MacIntel,29.98680581,5d88fa49c6bd1b00180fea8a,64d2fd46c836a06233681665,64dc7e2ab080931385feb1ce,,,,,,,decisionTrl,resources/DBN.BMP,resources/DR.BMP,Door4,0.189427338,-0.040997849,1,0,0,3.3687,optionRight,60,6695,4,4,0,4,0,1,,,,,,,,,,,,,,,,,,,,,,,,,,,,,,,,,,,,,,,
,,,,,,,,2023-08-16_08h43.57.695,HF_wild_card,2022.2.4,MacIntel,29.98680581,5d88fa49c6bd1b00180fea8a,64d2fd46c836a06233681665,64dc7e2ab080931385feb1ce,,,,,,,sngl,resources/Empty.png,resources/DG.BMP,Door2,0.176303101,-0.047915649,1,0,0,1.8143,optionRight,40,6735,4,5,0,5,0,1,,,,,,,,,,,,,,,,,,,,,,,,,,,,,,,,,,,,,,,
,,,,,,,,2023-08-16_08h43.57.695,HF_wild_card,2022.2.4,MacIntel,29.98680581,5d88fa49c6bd1b00180fea8a,64d2fd46c836a06233681665,64dc7e2ab080931385feb1ce,,,,,,,sngl,resources/Empty.png,resources/DP.BMP,Door1,0.217159729,-0.044460754,1,0,0,1.6545,optionRight,30,6765,4,6,0,6,0,1,,,,,,,,,,,,,,,,,,,,,,,,,,,,,,,,,,,,,,,
,,,,,,,,2023-08-16_08h43.57.695,HF_wild_card,2022.2.4,MacIntel,29.98680581,5d88fa49c6bd1b00180fea8a,64d2fd46c836a06233681665,64dc7e2ab080931385feb1ce,,,,,,,decisionTrl,resources/DBN.BMP,resources/DB.BMP,WildCard_Ex,0.197782059,-0.075312347,1,0,0,3.62,optionRight,55,6820,4,7,0,7,0,1,,,,,,,,,,,,,,,,,,,,,,,,,,,,,,,,,,,,,,,
,,,,,,,,2023-08-16_08h43.57.695,HF_wild_card,2022.2.4,MacIntel,29.98680581,5d88fa49c6bd1b00180fea8a,64d2fd46c836a06233681665,64dc7e2ab080931385feb1ce,,,,,,,ctch,resources/DR.BMP,resources/DP.BMP,Door1,0.013682404,0.043336487,1,0,0,4.9082,optionRight,30,6850,4,8,0,8,0,1,,,,,,,,,,,,,,,,,,,,,,,,,,,,,,,,,,,,,,,
,,,,,,,,2023-08-16_08h43.57.695,HF_wild_card,2022.2.4,MacIntel,29.98680581,5d88fa49c6bd1b00180fea8a,64d2fd46c836a06233681665,64dc7e2ab080931385feb1ce,,,,,,,decisionTrl,resources/DBN.BMP,resources/DR.BMP,Door4,0.155513687,-0.038635101,1,0,0,2.347,optionRight,80,6930,4,9,0,9,0,1,,,,,,,,,,,,,,,,,,,,,,,,,,,,,,,,,,,,,,,
,,,,,,,,2023-08-16_08h43.57.695,HF_wild_card,2022.2.4,MacIntel,29.98680581,5d88fa49c6bd1b00180fea8a,64d2fd46c836a06233681665,64dc7e2ab080931385feb1ce,,,,,,,sngl,resources/Empty.png,resources/DB.BMP,WildCard_Ex,0.172247391,-0.021710014,1,0,0,2.1782,optionRight,45,6975,4,10,0,10,0,1,,,,,,,,,,,,,,,,,,,,,,,,,,,,,,,,,,,,,,,
,,,,,,,,2023-08-16_08h43.57.695,HF_wild_card,2022.2.4,MacIntel,29.98680581,5d88fa49c6bd1b00180fea8a,64d2fd46c836a06233681665,64dc7e2ab080931385feb1ce,,,,,,,sngl,resources/DP.BMP,resources/Empty.png,Door1,0.098233261,-0.020269966,1,0,0,3.4475,optionLeft,30,7005,4,11,0,11,0,1,,,,,,,,,,,,,,,,,,,,,,,,,,,,,,,,,,,,,,,
,,,,,,,,2023-08-16_08h43.57.695,HF_wild_card,2022.2.4,MacIntel,29.98680581,5d88fa49c6bd1b00180fea8a,64d2fd46c836a06233681665,64dc7e2ab080931385feb1ce,,,,,,,sngl,resources/Empty.png,resources/DR.BMP,Door4,0.130347443,4.19617E-06,1,0,0,1.3546,optionRight,80,7085,4,12,0,12,0,1,,,,,,,,,,,,,,,,,,,,,,,,,,,,,,,,,,,,,,,
,,,,,,,,2023-08-16_08h43.57.695,HF_wild_card,2022.2.4,MacIntel,29.98680581,5d88fa49c6bd1b00180fea8a,64d2fd46c836a06233681665,64dc7e2ab080931385feb1ce,,,,,,,decisionTrl,resources/DP.BMP,resources/DG.BMP,Door1,-0.161108246,-0.03411705,1,0,0,3.4809,optionLeft,30,7115,4,13,0,13,0,1,,,,,,,,,,,,,,,,,,,,,,,,,,,,,,,,,,,,,,,
,,,,,,,,2023-08-16_08h43.57.695,HF_wild_card,2022.2.4,MacIntel,29.98680581,5d88fa49c6bd1b00180fea8a,64d2fd46c836a06233681665,64dc7e2ab080931385feb1ce,,,,,,,decisionTrl,resources/DR.BMP,resources/DBN.BMP,Door4,0.089703217,-0.0859552,1,0,0,2.7144,optionLeft,60,7175,4,14,0,14,0,1,,,,,,,,,,,,,,,,,,,,,,,,,,,,,,,,,,,,,,,
,,,,,,,,2023-08-16_08h43.57.695,HF_wild_card,2022.2.4,MacIntel,29.98680581,5d88fa49c6bd1b00180fea8a,64d2fd46c836a06233681665,64dc7e2ab080931385feb1ce,,,,,,,ctch,resources/DP.BMP,resources/DR.BMP,Door1,-0.135198135,-0.052541656,1,0,0,2.5504,optionLeft,30,7205,4,15,0,15,0,1,,,,,,,,,,,,,,,,,,,,,,,,,,,,,,,,,,,,,,,
,,,,,,,,2023-08-16_08h43.57.695,HF_wild_card,2022.2.4,MacIntel,29.98680581,5d88fa49c6bd1b00180fea8a,64d2fd46c836a06233681665,64dc7e2ab080931385feb1ce,,,,,,,decisionTrl,resources/DR.BMP,resources/DBN.BMP,Door4,-0.143327637,-0.039296951,1,0,0,2.4287,optionLeft,60,7265,4,16,0,16,0,1,,,,,,,,,,,,,,,,,,,,,,,,,,,,,,,,,,,,,,,
,,,,,,,,2023-08-16_08h43.57.695,HF_wild_card,2022.2.4,MacIntel,29.98680581,5d88fa49c6bd1b00180fea8a,64d2fd46c836a06233681665,64dc7e2ab080931385feb1ce,,,,,,,decisionTrl,resources/DB.BMP,resources/DG.BMP,WildCard_Ex,-0.123425827,-0.005590286,1,0,0,2.5066,optionLeft,45,7310,4,17,0,17,0,1,,,,,,,,,,,,,,,,,,,,,,,,,,,,,,,,,,,,,,,
,,,,,,,,2023-08-16_08h43.57.695,HF_wild_card,2022.2.4,MacIntel,29.98680581,5d88fa49c6bd1b00180fea8a,64d2fd46c836a06233681665,64dc7e2ab080931385feb1ce,,,,,,,sngl,resources/DB.BMP,resources/Empty.png,WildCard_Ex,0.017298584,0.004277306,1,0,0,1.4581,optionLeft,45,7355,4,18,0,18,0,1,,,,,,,,,,,,,,,,,,,,,,,,,,,,,,,,,,,,,,,
,,,,,,,,2023-08-16_08h43.57.695,HF_wild_card,2022.2.4,MacIntel,29.98680581,5d88fa49c6bd1b00180fea8a,64d2fd46c836a06233681665,64dc7e2ab080931385feb1ce,,,,,,,sngl,resources/DBN.BMP,resources/Empty.png,Door3,-0.186990623,0.00289856,1,0,0,1.4944,optionLeft,70,7425,4,19,0,19,0,1,,,,,,,,,,,,,,,,,,,,,,,,,,,,,,,,,,,,,,,
,,,,,,,,2023-08-16_08h43.57.695,HF_wild_card,2022.2.4,MacIntel,29.98680581,5d88fa49c6bd1b00180fea8a,64d2fd46c836a06233681665,64dc7e2ab080931385feb1ce,,,,,,,ctch,resources/DG.BMP,resources/DBN.BMP,Door2,-0.173659286,0.006973648,1,0,0,2.1969,optionLeft,20,7445,4,20,0,20,0,1,,,,,,,,,,,,,,,,,,,,,,,,,,,,,,,,,,,,,,,
,,,,,,,,2023-08-16_08h43.57.695,HF_wild_card,2022.2.4,MacIntel,29.98680581,5d88fa49c6bd1b00180fea8a,64d2fd46c836a06233681665,64dc7e2ab080931385feb1ce,,,,,,,decisionTrl,resources/DR.BMP,resources/DB.BMP,Door4,-0.140529938,0.020288734,1,0,0,2.2283,optionLeft,80,7525,4,21,0,21,0,1,,,,,,,,,,,,,,,,,,,,,,,,,,,,,,,,,,,,,,,
,,,,,,,,2023-08-16_08h43.57.695,HF_wild_card,2022.2.4,MacIntel,29.98680581,5d88fa49c6bd1b00180fea8a,64d2fd46c836a06233681665,64dc7e2ab080931385feb1ce,,,,,,,decisionTrl,resources/DG.BMP,resources/DP.BMP,Door2,-0.137398376,-0.009867706,1,0,0,6.8245,optionLeft,20,7545,4,22,0,22,0,1,,,,,,,,,,,,,,,,,,,,,,,,,,,,,,,,,,,,,,,
,,,,,,,,2023-08-16_08h43.57.695,HF_wild_card,2022.2.4,MacIntel,29.98680581,5d88fa49c6bd1b00180fea8a,64d2fd46c836a06233681665,64dc7e2ab080931385feb1ce,,,,,,,ctch,resources/DBN.BMP,resources/DG.BMP,Door3,-0.142643661,-0.016206436,1,0,0,1.6428,optionLeft,70,7615,4,23,0,23,0,1,,,,,,,,,,,,,,,,,,,,,,,,,,,,,,,,,,,,,,,
,,,,,,,,2023-08-16_08h43.57.695,HF_wild_card,2022.2.4,MacIntel,29.98680581,5d88fa49c6bd1b00180fea8a,64d2fd46c836a06233681665,64dc7e2ab080931385feb1ce,,,,,,,decisionTrl,resources/DB.BMP,resources/DBN.BMP,WildCard_Ex,-0.138743057,0.004045715,1,0,0,3.4523,optionLeft,45,7660,4,24,0,24,0,1,,,,,,,,,,,,,,,,,,,,,,,,,,,,,,,,,,,,,,,
,,,,,,,,2023-08-16_08h43.57.695,HF_wild_card,2022.2.4,MacIntel,29.98680581,5d88fa49c6bd1b00180fea8a,64d2fd46c836a06233681665,64dc7e2ab080931385feb1ce,,,,,,,decisionTrl,resources/DB.BMP,resources/DP.BMP,WildCard_Ex,-0.162465935,-0.0467099,1,0,0,6.1942,optionLeft,45,7705,4,25,0,25,0,1,,,,,,,,,,,,,,,,,,,,,,,,,,,,,,,,,,,,,,,
,,,,,,,,2023-08-16_08h43.57.695,HF_wild_card,2022.2.4,MacIntel,29.98680581,5d88fa49c6bd1b00180fea8a,64d2fd46c836a06233681665,64dc7e2ab080931385feb1ce,,,,,,,decisionTrl,resources/DR.BMP,resources/DBN.BMP,Door4,-0.200487938,-0.074862061,1,0,0,3.0677,optionLeft,60,7765,4,26,0,26,0,1,,,,,,,,,,,,,,,,,,,,,,,,,,,,,,,,,,,,,,,
,,,,,,,,2023-08-16_08h43.57.695,HF_wild_card,2022.2.4,MacIntel,29.98680581,5d88fa49c6bd1b00180fea8a,64d2fd46c836a06233681665,64dc7e2ab080931385feb1ce,,,,,,,decisionTrl,resources/DP.BMP,resources/DB.BMP,Door1,-0.149689636,-0.052912979,1,0,0,6.6195,optionLeft,30,7795,4,27,0,27,0,1,,,,,,,,,,,,,,,,,,,,,,,,,,,,,,,,,,,,,,,
,,,,,,,,2023-08-16_08h43.57.695,HF_wild_card,2022.2.4,MacIntel,29.98680581,5d88fa49c6bd1b00180fea8a,64d2fd46c836a06233681665,64dc7e2ab080931385feb1ce,,,,,,,ctch,resources/DBN.BMP,resources/DG.BMP,Door3,-0.195168648,-0.029698105,1,0,0,1.9335,optionLeft,70,7865,4,28,0,28,0,1,,,,,,,,,,,,,,,,,,,,,,,,,,,,,,,,,,,,,,,
,,,,,,,,2023-08-16_08h43.57.695,HF_wild_card,2022.2.4,MacIntel,29.98680581,5d88fa49c6bd1b00180fea8a,64d2fd46c836a06233681665,64dc7e2ab080931385feb1ce,,,,,,,decisionTrl,resources/DB.BMP,resources/DR.BMP,WildCard_Ex,-0.219597359,-0.037830124,1,0,0,1.9678,optionLeft,55,7920,4,29,0,29,0,1,,,,,,,,,,,,,,,,,,,,,,,,,,,,,,,,,,,,,,,
,,,,,,,,2023-08-16_08h43.57.695,HF_wild_card,2022.2.4,MacIntel,29.98680581,5d88fa49c6bd1b00180fea8a,64d2fd46c836a06233681665,64dc7e2ab080931385feb1ce,,,,,,,sngl,resources/Empty.png,resources/DBN.BMP,Door3,-0.198637962,-0.026229095,1,0,0,1.1476,optionRight,70,7990,4,30,0,30,0,1,,,,,,,,,,,,,,,,,,,,,,,,,,,,,,,,,,,,,,,
,,,,,,,,2023-08-16_08h43.57.695,HF_wild_card,2022.2.4,MacIntel,29.98680581,5d88fa49c6bd1b00180fea8a,64d2fd46c836a06233681665,64dc7e2ab080931385feb1ce,,,,,,,ctch,resources/DR.BMP,resources/DP.BMP,Door4,-0.154902115,-0.058991547,1,0,0,2.6359,optionLeft,60,8050,4,31,0,31,0,1,,,,,,,,,,,,,,,,,,,,,,,,,,,,,,,,,,,,,,,
,,,,,,,,2023-08-16_08h43.57.695,HF_wild_card,2022.2.4,MacIntel,29.98680581,5d88fa49c6bd1b00180fea8a,64d2fd46c836a06233681665,64dc7e2ab080931385feb1ce,,,,,,,sngl,resources/DR.BMP,resources/Empty.png,Door4,-0.153858414,-0.035495262,1,0,0,1.5367,optionLeft,60,8110,4,32,0,32,0,1,,,,,,,,,,,,,,,,,,,,,,,,,,,,,,,,,,,,,,,
,,,,,,,,2023-08-16_08h43.57.695,HF_wild_card,2022.2.4,MacIntel,29.98680581,5d88fa49c6bd1b00180fea8a,64d2fd46c836a06233681665,64dc7e2ab080931385feb1ce,,,,,,,sngl,resources/Empty.png,resources/DB.BMP,WildCard_Ex,-0.055333252,-0.030321503,1,0,0,2.1036,optionRight,55,8165,4,33,0,33,0,1,,,,,,,,,,,,,,,,,,,,,,,,,,,,,,,,,,,,,,,
,,,,,,,,2023-08-16_08h43.57.695,HF_wild_card,2022.2.4,MacIntel,29.98680581,5d88fa49c6bd1b00180fea8a,64d2fd46c836a06233681665,64dc7e2ab080931385feb1ce,,,,,,,sngl,resources/DB.BMP,resources/Empty.png,WildCard_Ex,-0.134703674,-0.065293198,1,0,0,2.5102,optionLeft,55,8220,4,34,0,34,0,1,,,,,,,,,,,,,,,,,,,,,,,,,,,,,,,,,,,,,,,
,,,,,,,,2023-08-16_08h43.57.695,HF_wild_card,2022.2.4,MacIntel,29.98680581,5d88fa49c6bd1b00180fea8a,64d2fd46c836a06233681665,64dc7e2ab080931385feb1ce,,,,,,,ctch,resources/DG.BMP,resources/DBN.BMP,Door2,-0.141164551,-0.046100159,1,0,0,3.4965,optionLeft,20,8240,4,35,0,35,0,1,,,,,,,,,,,,,,,,,,,,,,,,,,,,,,,,,,,,,,,
,,,,,,,,2023-08-16_08h43.57.695,HF_wild_card,2022.2.4,MacIntel,29.98680581,5d88fa49c6bd1b00180fea8a,64d2fd46c836a06233681665,64dc7e2ab080931385feb1ce,,,,,,,ctch,resources/DP.BMP,resources/DR.BMP,Door1,-0.163895988,-0.055979233,1,0,0,2.0067,optionLeft,30,8270,4,36,0,36,0,1,,,,,,,,,,,,,,,,,,,,,,,,,,,,,,,,,,,,,,,
,,,,,,,,2023-08-16_08h43.57.695,HF_wild_card,2022.2.4,MacIntel,29.98680581,5d88fa49c6bd1b00180fea8a,64d2fd46c836a06233681665,64dc7e2ab080931385feb1ce,,,,,,,sngl,resources/DG.BMP,resources/Empty.png,Door2,-0.179159431,-0.049259033,1,0,0,1.7889,optionLeft,20,8290,4,37,0,37,0,1,,,,,,,,,,,,,,,,,,,,,,,,,,,,,,,,,,,,,,,
,,,,,,,,2023-08-16_08h43.57.695,HF_wild_card,2022.2.4,MacIntel,29.98680581,5d88fa49c6bd1b00180fea8a,64d2fd46c836a06233681665,64dc7e2ab080931385feb1ce,,,,,,,decisionTrl,resources/DR.BMP,resources/DBN.BMP,Door4,-0.036103745,-0.031417885,1,0,0,1.5138,optionLeft,60,8350,4,38,0,38,0,1,,,,,,,,,,,,,,,,,,,,,,,,,,,,,,,,,,,,,,,
,,,,,,,,2023-08-16_08h43.57.695,HF_wild_card,2022.2.4,MacIntel,29.98680581,5d88fa49c6bd1b00180fea8a,64d2fd46c836a06233681665,64dc7e2ab080931385feb1ce,,,,,,,decisionTrl,resources/DBN.BMP,resources/DR.BMP,Door4,0.147250137,-0.110050201,1,0,0,2.2365,optionRight,60,8410,4,39,0,39,0,1,,,,,,,,,,,,,,,,,,,,,,,,,,,,,,,,,,,,,,,
,,,,,,,,2023-08-16_08h43.57.695,HF_wild_card,2022.2.4,MacIntel,29.98680581,5d88fa49c6bd1b00180fea8a,64d2fd46c836a06233681665,64dc7e2ab080931385feb1ce,,,,,,,decisionTrl,resources/DP.BMP,resources/DG.BMP,Door1,0.000614548,-0.010688057,1,0,0,2.0082,optionLeft,30,8440,4,40,0,40,0,1,,,,,,,,,,,,,,,,,,,,,,,,,,,,,,,,,,,,,,,
,,,,,,,,2023-08-16_08h43.57.695,HF_wild_card,2022.2.4,MacIntel,29.98680581,5d88fa49c6bd1b00180fea8a,64d2fd46c836a06233681665,64dc7e2ab080931385feb1ce,,,,,,,decisionTrl,resources/DG.BMP,resources/DP.BMP,Door2,-0.171094055,-0.008975754,1,0,0,2.3088,optionLeft,20,8460,4,41,0,41,0,1,,,,,,,,,,,,,,,,,,,,,,,,,,,,,,,,,,,,,,,
,,,,,,,,2023-08-16_08h43.57.695,HF_wild_card,2022.2.4,MacIntel,29.98680581,5d88fa49c6bd1b00180fea8a,64d2fd46c836a06233681665,64dc7e2ab080931385feb1ce,,,,,,,decisionTrl,resources/DP.BMP,resources/DG.BMP,Door1,-0.140071335,-0.042924271,1,0,0,2.6288,optionLeft,30,8490,4,42,0,42,0,1,,,,,,,,,,,,,,,,,,,,,,,,,,,,,,,,,,,,,,,
,,,,,,,,2023-08-16_08h43.57.695,HF_wild_card,2022.2.4,MacIntel,29.98680581,5d88fa49c6bd1b00180fea8a,64d2fd46c836a06233681665,64dc7e2ab080931385feb1ce,,,,,,,decisionTrl,resources/DP.BMP,resources/DG.BMP,Door1,-0.176814384,-0.05214325,1,0,0,3.4417,optionLeft,30,8520,4,43,0,43,0,1,,,,,,,,,,,,,,,,,,,,,,,,,,,,,,,,,,,,,,,
,,,,,,,,2023-08-16_08h43.57.695,HF_wild_card,2022.2.4,MacIntel,29.98680581,5d88fa49c6bd1b00180fea8a,64d2fd46c836a06233681665,64dc7e2ab080931385feb1ce,,,,,,,,,,,,,,,,,,,,,,,,,,3,0,3,0,1,,,,,,,,,,,,,,,,,,,,,,,,,,,,,,,,,,
,,,,,,,,2023-08-16_08h43.57.695,HF_wild_card,2022.2.4,MacIntel,29.98680581,5d88fa49c6bd1b00180fea8a,64d2fd46c836a06233681665,64dc7e2ab080931385feb1ce,,,,,,,sngl,resources/DBN.BMP,resources/Empty.png,Door3,-0.209353104,-0.094245262,1,0,0,4.448,optionLeft,70,8590,5,0,0,0,0,1,,,,,,,,,,,,,,,,,,,,,,,,,,,,,,,,,,,,,,,
,,,,,,,,2023-08-16_08h43.57.695,HF_wild_card,2022.2.4,MacIntel,29.98680581,5d88fa49c6bd1b00180fea8a,64d2fd46c836a06233681665,64dc7e2ab080931385feb1ce,,,,,,,decisionTrl,resources/DBN.BMP,resources/DR.BMP,Door3,-0.146107941,-0.064348984,1,0,0,3.6598,optionLeft,70,8660,5,1,0,1,0,1,,,,,,,,,,,,,,,,,,,,,,,,,,,,,,,,,,,,,,,
,,,,,,,,2023-08-16_08h43.57.695,HF_wild_card,2022.2.4,MacIntel,29.98680581,5d88fa49c6bd1b00180fea8a,64d2fd46c836a06233681665,64dc7e2ab080931385feb1ce,,,,,,,decisionTrl,resources/DR.BMP,resources/DBN.BMP,Door4,-0.14065094,-0.040118561,1,0,0,2.3782,optionLeft,80,8740,5,2,0,2,0,1,,,,,,,,,,,,,,,,,,,,,,,,,,,,,,,,,,,,,,,
,,,,,,,,2023-08-16_08h43.57.695,HF_wild_card,2022.2.4,MacIntel,29.98680581,5d88fa49c6bd1b00180fea8a,64d2fd46c836a06233681665,64dc7e2ab080931385feb1ce,,,,,,,decisionTrl,resources/DB.BMP,resources/DR.BMP,WildCard_Ex,-0.221094017,-0.055800705,1,0,0,4.7266,optionLeft,55,8795,5,3,0,3,0,1,,,,,,,,,,,,,,,,,,,,,,,,,,,,,,,,,,,,,,,
,,,,,,,,2023-08-16_08h43.57.695,HF_wild_card,2022.2.4,MacIntel,29.98680581,5d88fa49c6bd1b00180fea8a,64d2fd46c836a06233681665,64dc7e2ab080931385feb1ce,,,,,,,decisionTrl,resources/DG.BMP,resources/DB.BMP,Door2,-0.247042694,-0.071767502,1,0,0,2.421,optionLeft,20,8815,5,4,0,4,0,1,,,,,,,,,,,,,,,,,,,,,,,,,,,,,,,,,,,,,,,
,,,,,,,,2023-08-16_08h43.57.695,HF_wild_card,2022.2.4,MacIntel,29.98680581,5d88fa49c6bd1b00180fea8a,64d2fd46c836a06233681665,64dc7e2ab080931385feb1ce,,,,,,,decisionTrl,resources/DBN.BMP,resources/DB.BMP,Door3,-0.181812973,-0.01059906,1,0,0,2.9989,optionLeft,70,8885,5,5,0,5,0,1,,,,,,,,,,,,,,,,,,,,,,,,,,,,,,,,,,,,,,,
,,,,,,,,2023-08-16_08h43.57.695,HF_wild_card,2022.2.4,MacIntel,29.98680581,5d88fa49c6bd1b00180fea8a,64d2fd46c836a06233681665,64dc7e2ab080931385feb1ce,,,,,,,ctch,resources/DG.BMP,resources/DBN.BMP,Door2,-0.185195885,-0.042557831,1,0,0,1.6619,optionLeft,40,8925,5,6,0,6,0,1,,,,,,,,,,,,,,,,,,,,,,,,,,,,,,,,,,,,,,,
,,,,,,,,2023-08-16_08h43.57.695,HF_wild_card,2022.2.4,MacIntel,29.98680581,5d88fa49c6bd1b00180fea8a,64d2fd46c836a06233681665,64dc7e2ab080931385feb1ce,,,,,,,decisionTrl,resources/DG.BMP,resources/DP.BMP,Door2,-0.186856728,0.012152405,1,0,0,2.6842,optionLeft,40,8965,5,7,0,7,0,1,,,,,,,,,,,,,,,,,,,,,,,,,,,,,,,,,,,,,,,
,,,,,,,,2023-08-16_08h43.57.695,HF_wild_card,2022.2.4,MacIntel,29.98680581,5d88fa49c6bd1b00180fea8a,64d2fd46c836a06233681665,64dc7e2ab080931385feb1ce,,,,,,,decisionTrl,resources/DP.BMP,resources/DG.BMP,Door1,-0.230919914,-0.03363842,1,0,0,2.2376,optionLeft,30,8995,5,8,0,8,0,1,,,,,,,,,,,,,,,,,,,,,,,,,,,,,,,,,,,,,,,
,,,,,,,,2023-08-16_08h43.57.695,HF_wild_card,2022.2.4,MacIntel,29.98680581,5d88fa49c6bd1b00180fea8a,64d2fd46c836a06233681665,64dc7e2ab080931385feb1ce,,,,,,,decisionTrl,resources/DR.BMP,resources/DB.BMP,Door4,-0.299323463,-0.053984756,1,0,0,3.9731,optionLeft,60,9055,5,9,0,9,0,1,,,,,,,,,,,,,,,,,,,,,,,,,,,,,,,,,,,,,,,
,,,,,,,,2023-08-16_08h43.57.695,HF_wild_card,2022.2.4,MacIntel,29.98680581,5d88fa49c6bd1b00180fea8a,64d2fd46c836a06233681665,64dc7e2ab080931385feb1ce,,,,,,,sngl,resources/DR.BMP,resources/Empty.png,Door4,-0.145498428,-0.019789276,1,0,0,1.3529,optionLeft,80,9135,5,10,0,10,0,1,,,,,,,,,,,,,,,,,,,,,,,,,,,,,,,,,,,,,,,
,,,,,,,,2023-08-16_08h43.57.695,HF_wild_card,2022.2.4,MacIntel,29.98680581,5d88fa49c6bd1b00180fea8a,64d2fd46c836a06233681665,64dc7e2ab080931385feb1ce,,,,,,,decisionTrl,resources/DR.BMP,resources/DBN.BMP,Door4,-0.127886887,-0.037532883,1,0,0,2.5137,optionLeft,80,9215,5,11,0,11,0,1,,,,,,,,,,,,,,,,,,,,,,,,,,,,,,,,,,,,,,,
,,,,,,,,2023-08-16_08h43.57.695,HF_wild_card,2022.2.4,MacIntel,29.98680581,5d88fa49c6bd1b00180fea8a,64d2fd46c836a06233681665,64dc7e2ab080931385feb1ce,,,,,,,decisionTrl,resources/DP.BMP,resources/DG.BMP,Door1,-0.223209,-0.021764221,1,0,0,2.7626,optionLeft,30,9245,5,12,0,12,0,1,,,,,,,,,,,,,,,,,,,,,,,,,,,,,,,,,,,,,,,
,,,,,,,,2023-08-16_08h43.57.695,HF_wild_card,2022.2.4,MacIntel,29.98680581,5d88fa49c6bd1b00180fea8a,64d2fd46c836a06233681665,64dc7e2ab080931385feb1ce,,,,,,,decisionTrl,resources/DR.BMP,resources/DBN.BMP,Door4,-0.283058777,0.000327148,1,0,0,2.2317,optionLeft,60,9305,5,13,0,13,0,1,,,,,,,,,,,,,,,,,,,,,,,,,,,,,,,,,,,,,,,
,,,,,,,,2023-08-16_08h43.57.695,HF_wild_card,2022.2.4,MacIntel,29.98680581,5d88fa49c6bd1b00180fea8a,64d2fd46c836a06233681665,64dc7e2ab080931385feb1ce,,,,,,,decisionTrl,resources/DBN.BMP,resources/DR.BMP,Door3,-0.294936409,-0.014771729,1,0,0,1.6826,optionLeft,70,9375,5,14,0,14,0,1,,,,,,,,,,,,,,,,,,,,,,,,,,,,,,,,,,,,,,,
,,,,,,,,2023-08-16_08h43.57.695,HF_wild_card,2022.2.4,MacIntel,29.98680581,5d88fa49c6bd1b00180fea8a,64d2fd46c836a06233681665,64dc7e2ab080931385feb1ce,,,,,,,decisionTrl,resources/DBN.BMP,resources/DR.BMP,Door3,-0.245660172,0.007735977,1,0,0,3.6248,optionLeft,70,9445,5,15,0,15,0,1,,,,,,,,,,,,,,,,,,,,,,,,,,,,,,,,,,,,,,,
,,,,,,,,2023-08-16_08h43.57.695,HF_wild_card,2022.2.4,MacIntel,29.98680581,5d88fa49c6bd1b00180fea8a,64d2fd46c836a06233681665,64dc7e2ab080931385feb1ce,,,,,,,ctch,resources/DR.BMP,resources/DP.BMP,Door4,-0.286860237,-0.016583862,1,0,0,3.1618,optionLeft,80,9525,5,16,0,16,0,1,,,,,,,,,,,,,,,,,,,,,,,,,,,,,,,,,,,,,,,
,,,,,,,,2023-08-16_08h43.57.695,HF_wild_card,2022.2.4,MacIntel,29.98680581,5d88fa49c6bd1b00180fea8a,64d2fd46c836a06233681665,64dc7e2ab080931385feb1ce,,,,,,,decisionTrl,resources/DP.BMP,resources/DB.BMP,Door1,-0.240797043,-0.032861023,1,0,0,5.1835,optionLeft,30,9555,5,17,0,17,0,1,,,,,,,,,,,,,,,,,,,,,,,,,,,,,,,,,,,,,,,
,,,,,,,,2023-08-16_08h43.57.695,HF_wild_card,2022.2.4,MacIntel,29.98680581,5d88fa49c6bd1b00180fea8a,64d2fd46c836a06233681665,64dc7e2ab080931385feb1ce,,,,,,,sngl,resources/Empty.png,resources/DG.BMP,Door2,-0.008941803,-0.022160873,1,0,0,4.1664,optionRight,20,9575,5,18,0,18,0,1,,,,,,,,,,,,,,,,,,,,,,,,,,,,,,,,,,,,,,,
,,,,,,,,2023-08-16_08h43.57.695,HF_wild_card,2022.2.4,MacIntel,29.98680581,5d88fa49c6bd1b00180fea8a,64d2fd46c836a06233681665,64dc7e2ab080931385feb1ce,,,,,,,sngl,resources/Empty.png,resources/DB.BMP,WildCard_Ex,0.152454071,-0.022865715,1,0,0,2.3325,optionRight,55,9630,5,19,0,19,0,1,,,,,,,,,,,,,,,,,,,,,,,,,,,,,,,,,,,,,,,
,,,,,,,,2023-08-16_08h43.57.695,HF_wild_card,2022.2.4,MacIntel,29.98680581,5d88fa49c6bd1b00180fea8a,64d2fd46c836a06233681665,64dc7e2ab080931385feb1ce,,,,,,,decisionTrl,resources/DG.BMP,resources/DP.BMP,Door2,-0.197928543,-0.000899734,1,0,0,8.4415,optionLeft,40,9670,5,20,0,20,0,1,,,,,,,,,,,,,,,,,,,,,,,,,,,,,,,,,,,,,,,
,,,,,,,,2023-08-16_08h43.57.695,HF_wild_card,2022.2.4,MacIntel,29.98680581,5d88fa49c6bd1b00180fea8a,64d2fd46c836a06233681665,64dc7e2ab080931385feb1ce,,,,,,,decisionTrl,resources/DBN.BMP,resources/DR.BMP,Door3,-0.227950935,-0.05276947,1,0,0,5.1416,optionLeft,70,9740,5,21,0,21,0,1,,,,,,,,,,,,,,,,,,,,,,,,,,,,,,,,,,,,,,,
,,,,,,,,2023-08-16_08h43.57.695,HF_wild_card,2022.2.4,MacIntel,29.98680581,5d88fa49c6bd1b00180fea8a,64d2fd46c836a06233681665,64dc7e2ab080931385feb1ce,,,,,,,sngl,resources/DG.BMP,resources/Empty.png,Door2,-0.193459892,0.012461395,1,0,0,2.3102,optionLeft,40,9780,5,22,0,22,0,1,,,,,,,,,,,,,,,,,,,,,,,,,,,,,,,,,,,,,,,
,,,,,,,,2023-08-16_08h43.57.695,HF_wild_card,2022.2.4,MacIntel,29.98680581,5d88fa49c6bd1b00180fea8a,64d2fd46c836a06233681665,64dc7e2ab080931385feb1ce,,,,,,,ctch,resources/DBN.BMP,resources/DG.BMP,Door3,-0.16624424,-0.00651123,1,0,0,2.7558,optionLeft,70,9850,5,23,0,23,0,1,,,,,,,,,,,,,,,,,,,,,,,,,,,,,,,,,,,,,,,
,,,,,,,,2023-08-16_08h43.57.695,HF_wild_card,2022.2.4,MacIntel,29.98680581,5d88fa49c6bd1b00180fea8a,64d2fd46c836a06233681665,64dc7e2ab080931385feb1ce,,,,,,,decisionTrl,resources/DG.BMP,resources/DP.BMP,Door2,-0.138375473,-0.000897217,1,0,0,1.7212,optionLeft,20,9870,5,24,0,24,0,1,,,,,,,,,,,,,,,,,,,,,,,,,,,,,,,,,,,,,,,
,,,,,,,,2023-08-16_08h43.57.695,HF_wild_card,2022.2.4,MacIntel,29.98680581,5d88fa49c6bd1b00180fea8a,64d2fd46c836a06233681665,64dc7e2ab080931385feb1ce,,,,,,,ctch,resources/DG.BMP,resources/DBN.BMP,Door2,-0.148947754,-0.020693283,1,0,0,1.4792,optionLeft,20,9890,5,25,0,25,0,1,,,,,,,,,,,,,,,,,,,,,,,,,,,,,,,,,,,,,,,
,,,,,,,,2023-08-16_08h43.57.695,HF_wild_card,2022.2.4,MacIntel,29.98680581,5d88fa49c6bd1b00180fea8a,64d2fd46c836a06233681665,64dc7e2ab080931385feb1ce,,,,,,,decisionTrl,resources/DB.BMP,resources/DG.BMP,WildCard_Ex,-0.160899773,0.009153557,1,0,0,2.7466,optionLeft,55,9945,5,26,0,26,0,1,,,,,,,,,,,,,,,,,,,,,,,,,,,,,,,,,,,,,,,
,,,,,,,,2023-08-16_08h43.57.695,HF_wild_card,2022.2.4,MacIntel,29.98680581,5d88fa49c6bd1b00180fea8a,64d2fd46c836a06233681665,64dc7e2ab080931385feb1ce,,,,,,,ctch,resources/DP.BMP,resources/DR.BMP,Door1,-0.166333466,-0.016265068,1,0,0,1.4382,optionLeft,30,9975,5,27,0,27,0,1,,,,,,,,,,,,,,,,,,,,,,,,,,,,,,,,,,,,,,,
,,,,,,,,2023-08-16_08h43.57.695,HF_wild_card,2022.2.4,MacIntel,29.98680581,5d88fa49c6bd1b00180fea8a,64d2fd46c836a06233681665,64dc7e2ab080931385feb1ce,,,,,,,decisionTrl,resources/DP.BMP,resources/DG.BMP,Door1,-0.163661957,-0.041333351,1,0,0,2.2762,optionLeft,30,10005,5,28,0,28,0,1,,,,,,,,,,,,,,,,,,,,,,,,,,,,,,,,,,,,,,,
,,,,,,,,2023-08-16_08h43.57.695,HF_wild_card,2022.2.4,MacIntel,29.98680581,5d88fa49c6bd1b00180fea8a,64d2fd46c836a06233681665,64dc7e2ab080931385feb1ce,,,,,,,decisionTrl,resources/DB.BMP,resources/DP.BMP,WildCard_Ex,-0.233770332,-0.032474861,1,0,0,3.4395,optionLeft,55,10060,5,29,0,29,0,1,,,,,,,,,,,,,,,,,,,,,,,,,,,,,,,,,,,,,,,
,,,,,,,,2023-08-16_08h43.57.695,HF_wild_card,2022.2.4,MacIntel,29.98680581,5d88fa49c6bd1b00180fea8a,64d2fd46c836a06233681665,64dc7e2ab080931385feb1ce,,,,,,,ctch,resources/DP.BMP,resources/DR.BMP,Door1,-0.261018524,-0.014427986,1,0,0,2.6089,optionLeft,30,10090,5,30,0,30,0,1,,,,,,,,,,,,,,,,,,,,,,,,,,,,,,,,,,,,,,,
,,,,,,,,2023-08-16_08h43.57.695,HF_wild_card,2022.2.4,MacIntel,29.98680581,5d88fa49c6bd1b00180fea8a,64d2fd46c836a06233681665,64dc7e2ab080931385feb1ce,,,,,,,sngl,resources/DB.BMP,resources/Empty.png,WildCard_Ex,-0.159561386,0.009714737,1,0,0,1.8907,optionLeft,45,10135,5,31,0,31,0,1,,,,,,,,,,,,,,,,,,,,,,,,,,,,,,,,,,,,,,,
,,,,,,,,2023-08-16_08h43.57.695,HF_wild_card,2022.2.4,MacIntel,29.98680581,5d88fa49c6bd1b00180fea8a,64d2fd46c836a06233681665,64dc7e2ab080931385feb1ce,,,,,,,decisionTrl,resources/DB.BMP,resources/DBN.BMP,WildCard_Ex,-0.168058014,0.012046394,1,0,0,2.1892,optionLeft,45,10180,5,32,0,32,0,1,,,,,,,,,,,,,,,,,,,,,,,,,,,,,,,,,,,,,,,
,,,,,,,,2023-08-16_08h43.57.695,HF_wild_card,2022.2.4,MacIntel,29.98680581,5d88fa49c6bd1b00180fea8a,64d2fd46c836a06233681665,64dc7e2ab080931385feb1ce,,,,,,,ctch,resources/DR.BMP,resources/DP.BMP,Door4,-0.233954964,-0.060786819,1,0,0,2.4068,optionLeft,80,10260,5,33,0,33,0,1,,,,,,,,,,,,,,,,,,,,,,,,,,,,,,,,,,,,,,,
,,,,,,,,2023-08-16_08h43.57.695,HF_wild_card,2022.2.4,MacIntel,29.98680581,5d88fa49c6bd1b00180fea8a,64d2fd46c836a06233681665,64dc7e2ab080931385feb1ce,,,,,,,sngl,resources/DB.BMP,resources/Empty.png,WildCard_Ex,-0.290007973,-0.034511642,1,0,0,1.2983,optionLeft,55,10315,5,34,0,34,0,1,,,,,,,,,,,,,,,,,,,,,,,,,,,,,,,,,,,,,,,
,,,,,,,,2023-08-16_08h43.57.695,HF_wild_card,2022.2.4,MacIntel,29.98680581,5d88fa49c6bd1b00180fea8a,64d2fd46c836a06233681665,64dc7e2ab080931385feb1ce,,,,,,,decisionTrl,resources/DR.BMP,resources/DBN.BMP,Door4,-0.131926498,0.002175674,1,0,0,1.6464,optionLeft,80,10395,5,35,0,35,0,1,,,,,,,,,,,,,,,,,,,,,,,,,,,,,,,,,,,,,,,
,,,,,,,,2023-08-16_08h43.57.695,HF_wild_card,2022.2.4,MacIntel,29.98680581,5d88fa49c6bd1b00180fea8a,64d2fd46c836a06233681665,64dc7e2ab080931385feb1ce,,,,,,,decisionTrl,resources/DP.BMP,resources/DG.BMP,Door1,-0.158874359,-0.00656311,1,0,0,2.0866,optionLeft,30,10425,5,36,0,36,0,1,,,,,,,,,,,,,,,,,,,,,,,,,,,,,,,,,,,,,,,
,,,,,,,,2023-08-16_08h43.57.695,HF_wild_card,2022.2.4,MacIntel,29.98680581,5d88fa49c6bd1b00180fea8a,64d2fd46c836a06233681665,64dc7e2ab080931385feb1ce,,,,,,,sngl,resources/DP.BMP,resources/Empty.png,Door1,-0.258083344,-0.005667877,1,0,0,1.4265,optionLeft,30,10455,5,37,0,37,0,1,,,,,,,,,,,,,,,,,,,,,,,,,,,,,,,,,,,,,,,
,,,,,,,,2023-08-16_08h43.57.695,HF_wild_card,2022.2.4,MacIntel,29.98680581,5d88fa49c6bd1b00180fea8a,64d2fd46c836a06233681665,64dc7e2ab080931385feb1ce,,,,,,,sngl,resources/Empty.png,resources/DB.BMP,WildCard_Ex,0.238082504,-0.059571571,1,0,0,2.1058,optionRight,45,10500,5,38,0,38,0,1,,,,,,,,,,,,,,,,,,,,,,,,,,,,,,,,,,,,,,,
,,,,,,,,2023-08-16_08h43.57.695,HF_wild_card,2022.2.4,MacIntel,29.98680581,5d88fa49c6bd1b00180fea8a,64d2fd46c836a06233681665,64dc7e2ab080931385feb1ce,,,,,,,ctch,resources/DBN.BMP,resources/DG.BMP,Door3,-0.23170517,-0.01711525,1,0,0,2.4626,optionLeft,70,10570,5,39,0,39,0,1,,,,,,,,,,,,,,,,,,,,,,,,,,,,,,,,,,,,,,,
,,,,,,,,2023-08-16_08h43.57.695,HF_wild_card,2022.2.4,MacIntel,29.98680581,5d88fa49c6bd1b00180fea8a,64d2fd46c836a06233681665,64dc7e2ab080931385feb1ce,,,,,,,sngl,resources/Empty.png,resources/DP.BMP,Door1,0.257787018,-0.029354019,1,0,0,1.5032,optionRight,30,10600,5,40,0,40,0,1,,,,,,,,,,,,,,,,,,,,,,,,,,,,,,,,,,,,,,,
,,,,,,,,2023-08-16_08h43.57.695,HF_wild_card,2022.2.4,MacIntel,29.98680581,5d88fa49c6bd1b00180fea8a,64d2fd46c836a06233681665,64dc7e2ab080931385feb1ce,,,,,,,sngl,resources/Empty.png,resources/DR.BMP,Door4,0.158913879,-0.014688568,1,0,0,1.3494,optionRight,60,10660,5,41,0,41,0,1,,,,,,,,,,,,,,,,,,,,,,,,,,,,,,,,,,,,,,,
,,,,,,,,2023-08-16_08h43.57.695,HF_wild_card,2022.2.4,MacIntel,29.98680581,5d88fa49c6bd1b00180fea8a,64d2fd46c836a06233681665,64dc7e2ab080931385feb1ce,,,,,,,sngl,resources/Empty.png,resources/DBN.BMP,Door3,0.155019989,-0.02964386,1,0,0,2.1361,optionRight,70,10730,5,42,0,42,0,1,,,,,,,,,,,,,,,,,,,,,,,,,,,,,,,,,,,,,,,
,,,,,,,,2023-08-16_08h43.57.695,HF_wild_card,2022.2.4,MacIntel,29.98680581,5d88fa49c6bd1b00180fea8a,64d2fd46c836a06233681665,64dc7e2ab080931385feb1ce,,,,,,,decisionTrl,resources/DG.BMP,resources/DP.BMP,Door1,0.005524292,-0.012098541,1,0,0,2.0672,optionRight,30,10760,5,43,0,43,0,1,,,,,,,,,,,,,,,,,,,,,,,,,,,,,,,,,,,,,,,
,,,,,,,,2023-08-16_08h43.57.695,HF_wild_card,2022.2.4,MacIntel,29.98680581,5d88fa49c6bd1b00180fea8a,64d2fd46c836a06233681665,64dc7e2ab080931385feb1ce,,,,,,,,,,,,,,,,,,,,,,,,,,4,0,4,0,1,,,,,,,,,,,,,,,,,,,,,,,,,,,,,,,,,,
,,,,,,,,2023-08-16_08h43.57.695,HF_wild_card,2022.2.4,MacIntel,29.98680581,5d88fa49c6bd1b00180fea8a,64d2fd46c836a06233681665,64dc7e2ab080931385feb1ce,,,,,,,sngl,resources/Empty.png,resources/DG.BMP,Door2,0.255244751,-0.130437469,1,0,0,3.1599,optionRight,40,10800,6,0,0,0,0,1,,,,,,,,,,,,,,,,,,,,,,,,,,,,,,,,,,,,,,,
,,,,,,,,2023-08-16_08h43.57.695,HF_wild_card,2022.2.4,MacIntel,29.98680581,5d88fa49c6bd1b00180fea8a,64d2fd46c836a06233681665,64dc7e2ab080931385feb1ce,,,,,,,decisionTrl,resources/DBN.BMP,resources/DR.BMP,Door3,-0.138834229,-0.076429214,1,0,0,3.1204,optionLeft,70,10870,6,1,0,1,0,1,,,,,,,,,,,,,,,,,,,,,,,,,,,,,,,,,,,,,,,
,,,,,,,,2023-08-16_08h43.57.695,HF_wild_card,2022.2.4,MacIntel,29.98680581,5d88fa49c6bd1b00180fea8a,64d2fd46c836a06233681665,64dc7e2ab080931385feb1ce,,,,,,,decisionTrl,resources/DBN.BMP,resources/DR.BMP,Door4,0.201897583,0.024072266,1,0,0,1.3094,optionRight,60,10930,6,2,0,2,0,1,,,,,,,,,,,,,,,,,,,,,,,,,,,,,,,,,,,,,,,
,,,,,,,,2023-08-16_08h43.57.695,HF_wild_card,2022.2.4,MacIntel,29.98680581,5d88fa49c6bd1b00180fea8a,64d2fd46c836a06233681665,64dc7e2ab080931385feb1ce,,,,,,,decisionTrl,resources/DG.BMP,resources/DB.BMP,Door2,-0.151034012,-0.024295959,1,0,0,1.4717,optionLeft,20,10950,6,3,0,3,0,1,,,,,,,,,,,,,,,,,,,,,,,,,,,,,,,,,,,,,,,
,,,,,,,,2023-08-16_08h43.57.695,HF_wild_card,2022.2.4,MacIntel,29.98680581,5d88fa49c6bd1b00180fea8a,64d2fd46c836a06233681665,64dc7e2ab080931385feb1ce,,,,,,,sngl,resources/Empty.png,resources/DR.BMP,Door4,0.217265854,0.000492058,1,0,0,1.0004,optionRight,80,11030,6,4,0,4,0,1,,,,,,,,,,,,,,,,,,,,,,,,,,,,,,,,,,,,,,,
,,,,,,,,2023-08-16_08h43.57.695,HF_wild_card,2022.2.4,MacIntel,29.98680581,5d88fa49c6bd1b00180fea8a,64d2fd46c836a06233681665,64dc7e2ab080931385feb1ce,,,,,,,decisionTrl,resources/DBN.BMP,resources/DR.BMP,Door3,-0.132693863,-0.031821747,1,0,0,1.5871,optionLeft,70,11100,6,5,0,5,0,1,,,,,,,,,,,,,,,,,,,,,,,,,,,,,,,,,,,,,,,
,,,,,,,,2023-08-16_08h43.57.695,HF_wild_card,2022.2.4,MacIntel,29.98680581,5d88fa49c6bd1b00180fea8a,64d2fd46c836a06233681665,64dc7e2ab080931385feb1ce,,,,,,,decisionTrl,resources/DP.BMP,resources/DG.BMP,Door2,0.212896423,0.003370628,1,0,0,2.577,optionRight,20,11120,6,6,0,6,0,1,,,,,,,,,,,,,,,,,,,,,,,,,,,,,,,,,,,,,,,
,,,,,,,,2023-08-16_08h43.57.695,HF_wild_card,2022.2.4,MacIntel,29.98680581,5d88fa49c6bd1b00180fea8a,64d2fd46c836a06233681665,64dc7e2ab080931385feb1ce,,,,,,,ctch,resources/DG.BMP,resources/DBN.BMP,Door3,0.132257462,-0.037059517,1,0,0,2.6888,optionRight,70,11190,6,7,0,7,0,1,,,,,,,,,,,,,,,,,,,,,,,,,,,,,,,,,,,,,,,
,,,,,,,,2023-08-16_08h43.57.695,HF_wild_card,2022.2.4,MacIntel,29.98680581,5d88fa49c6bd1b00180fea8a,64d2fd46c836a06233681665,64dc7e2ab080931385feb1ce,,,,,,,decisionTrl,resources/DR.BMP,resources/DBN.BMP,Door3,0.128092041,-0.037407608,1,0,0,4.1914,optionRight,70,11260,6,8,0,8,0,1,,,,,,,,,,,,,,,,,,,,,,,,,,,,,,,,,,,,,,,
,,,,,,,,2023-08-16_08h43.57.695,HF_wild_card,2022.2.4,MacIntel,29.98680581,5d88fa49c6bd1b00180fea8a,64d2fd46c836a06233681665,64dc7e2ab080931385feb1ce,,,,,,,sngl,resources/DB.BMP,resources/Empty.png,WildCard_Ex,0.00881546,0.001501083,1,0,0,1.7623,optionLeft,45,11305,6,9,0,9,0,1,,,,,,,,,,,,,,,,,,,,,,,,,,,,,,,,,,,,,,,
,,,,,,,,2023-08-16_08h43.57.695,HF_wild_card,2022.2.4,MacIntel,29.98680581,5d88fa49c6bd1b00180fea8a,64d2fd46c836a06233681665,64dc7e2ab080931385feb1ce,,,,,,,sngl,resources/DB.BMP,resources/Empty.png,WildCard_Ex,-0.127353897,0.005915833,1,0,0,2.2668,optionLeft,55,11360,6,10,0,10,0,1,,,,,,,,,,,,,,,,,,,,,,,,,,,,,,,,,,,,,,,
,,,,,,,,2023-08-16_08h43.57.695,HF_wild_card,2022.2.4,MacIntel,29.98680581,5d88fa49c6bd1b00180fea8a,64d2fd46c836a06233681665,64dc7e2ab080931385feb1ce,,,,,,,decisionTrl,resources/DR.BMP,resources/DBN.BMP,Door4,-0.150504684,-0.022061691,1,0,0,14.0691,optionLeft,60,11420,6,11,0,11,0,1,,,,,,,,,,,,,,,,,,,,,,,,,,,,,,,,,,,,,,,
,,,,,,,,2023-08-16_08h43.57.695,HF_wild_card,2022.2.4,MacIntel,29.98680581,5d88fa49c6bd1b00180fea8a,64d2fd46c836a06233681665,64dc7e2ab080931385feb1ce,,,,,,,decisionTrl,resources/DP.BMP,resources/DG.BMP,Door1,-0.189183578,-0.046698036,1,0,0,5.9275,optionLeft,30,11450,6,12,0,12,0,1,,,,,,,,,,,,,,,,,,,,,,,,,,,,,,,,,,,,,,,
,,,,,,,,2023-08-16_08h43.57.695,HF_wild_card,2022.2.4,MacIntel,29.98680581,5d88fa49c6bd1b00180fea8a,64d2fd46c836a06233681665,64dc7e2ab080931385feb1ce,,,,,,,decisionTrl,resources/DBN.BMP,resources/DR.BMP,Door3,-0.10776535,-0.014907455,1,0,0,2.4265,optionLeft,70,11520,6,13,0,13,0,1,,,,,,,,,,,,,,,,,,,,,,,,,,,,,,,,,,,,,,,
,,,,,,,,2023-08-16_08h43.57.695,HF_wild_card,2022.2.4,MacIntel,29.98680581,5d88fa49c6bd1b00180fea8a,64d2fd46c836a06233681665,64dc7e2ab080931385feb1ce,,,,,,,decisionTrl,resources/DBN.BMP,resources/DB.BMP,Door3,-0.142450409,-0.017371674,1,0,0,1.2885,optionLeft,70,11590,6,14,0,14,0,1,,,,,,,,,,,,,,,,,,,,,,,,,,,,,,,,,,,,,,,
,,,,,,,,2023-08-16_08h43.57.695,HF_wild_card,2022.2.4,MacIntel,29.98680581,5d88fa49c6bd1b00180fea8a,64d2fd46c836a06233681665,64dc7e2ab080931385feb1ce,,,,,,,ctch,resources/DBN.BMP,resources/DG.BMP,Door3,-0.156371002,-0.004765167,1,0,0,1.2412,optionLeft,70,11660,6,15,0,15,0,1,,,,,,,,,,,,,,,,,,,,,,,,,,,,,,,,,,,,,,,
,,,,,,,,2023-08-16_08h43.57.695,HF_wild_card,2022.2.4,MacIntel,29.98680581,5d88fa49c6bd1b00180fea8a,64d2fd46c836a06233681665,64dc7e2ab080931385feb1ce,,,,,,,sngl,resources/Empty.png,resources/DB.BMP,WildCard_Ex,0.007745514,-0.003755951,1,0,0,1.1698,optionRight,45,11705,6,16,0,16,0,1,,,,,,,,,,,,,,,,,,,,,,,,,,,,,,,,,,,,,,,
,,,,,,,,2023-08-16_08h43.57.695,HF_wild_card,2022.2.4,MacIntel,29.98680581,5d88fa49c6bd1b00180fea8a,64d2fd46c836a06233681665,64dc7e2ab080931385feb1ce,,,,,,,decisionTrl,resources/DB.BMP,resources/DBN.BMP,WildCard_Ex,-0.201161156,-0.046936073,1,0,0,1.5086,optionLeft,45,11750,6,17,0,17,0,1,,,,,,,,,,,,,,,,,,,,,,,,,,,,,,,,,,,,,,,
,,,,,,,,2023-08-16_08h43.57.695,HF_wild_card,2022.2.4,MacIntel,29.98680581,5d88fa49c6bd1b00180fea8a,64d2fd46c836a06233681665,64dc7e2ab080931385feb1ce,,,,,,,decisionTrl,resources/DP.BMP,resources/DG.BMP,Door1,-0.163084908,0.005660553,1,0,0,1.8376,optionLeft,30,11780,6,18,0,18,0,1,,,,,,,,,,,,,,,,,,,,,,,,,,,,,,,,,,,,,,,
,,,,,,,,2023-08-16_08h43.57.695,HF_wild_card,2022.2.4,MacIntel,29.98680581,5d88fa49c6bd1b00180fea8a,64d2fd46c836a06233681665,64dc7e2ab080931385feb1ce,,,,,,,decisionTrl,resources/DR.BMP,resources/DBN.BMP,Door3,0.118724594,0.016763763,1,0,0,2.0861,optionRight,70,11850,6,19,0,19,0,1,,,,,,,,,,,,,,,,,,,,,,,,,,,,,,,,,,,,,,,
,,,,,,,,2023-08-16_08h43.57.695,HF_wild_card,2022.2.4,MacIntel,29.98680581,5d88fa49c6bd1b00180fea8a,64d2fd46c836a06233681665,64dc7e2ab080931385feb1ce,,,,,,,ctch,resources/DG.BMP,resources/DBN.BMP,Door2,-0.173982239,-0.027901726,1,0,0,1.7468,optionLeft,20,11870,6,20,0,20,0,1,,,,,,,,,,,,,,,,,,,,,,,,,,,,,,,,,,,,,,,
,,,,,,,,2023-08-16_08h43.57.695,HF_wild_card,2022.2.4,MacIntel,29.98680581,5d88fa49c6bd1b00180fea8a,64d2fd46c836a06233681665,64dc7e2ab080931385feb1ce,,,,,,,decisionTrl,resources/DP.BMP,resources/DB.BMP,Door1,-0.214175835,-0.008997421,1,0,0,1.2141,optionLeft,30,11900,6,21,0,21,0,1,,,,,,,,,,,,,,,,,,,,,,,,,,,,,,,,,,,,,,,
,,,,,,,,2023-08-16_08h43.57.695,HF_wild_card,2022.2.4,MacIntel,29.98680581,5d88fa49c6bd1b00180fea8a,64d2fd46c836a06233681665,64dc7e2ab080931385feb1ce,,,,,,,ctch,resources/DBN.BMP,resources/DG.BMP,Door3,-0.195385704,-0.001015091,1,0,0,1.3242,optionLeft,70,11970,6,22,0,22,0,1,,,,,,,,,,,,,,,,,,,,,,,,,,,,,,,,,,,,,,,
,,,,,,,,2023-08-16_08h43.57.695,HF_wild_card,2022.2.4,MacIntel,29.98680581,5d88fa49c6bd1b00180fea8a,64d2fd46c836a06233681665,64dc7e2ab080931385feb1ce,,,,,,,sngl,resources/DP.BMP,resources/Empty.png,Door1,-0.195945396,-0.030354004,1,0,0,1.4803,optionLeft,30,12000,6,23,0,23,0,1,,,,,,,,,,,,,,,,,,,,,,,,,,,,,,,,,,,,,,,
,,,,,,,,2023-08-16_08h43.57.695,HF_wild_card,2022.2.4,MacIntel,29.98680581,5d88fa49c6bd1b00180fea8a,64d2fd46c836a06233681665,64dc7e2ab080931385feb1ce,,,,,,,sngl,resources/Empty.png,resources/DP.BMP,Door1,0.167745056,-0.03942997,1,0,0,1.3755,optionRight,30,12030,6,24,0,24,0,1,,,,,,,,,,,,,,,,,,,,,,,,,,,,,,,,,,,,,,,
,,,,,,,,2023-08-16_08h43.57.695,HF_wild_card,2022.2.4,MacIntel,29.98680581,5d88fa49c6bd1b00180fea8a,64d2fd46c836a06233681665,64dc7e2ab080931385feb1ce,,,,,,,sngl,resources/DR.BMP,resources/Empty.png,Door4,-0.300069046,-0.022899818,1,0,0,1.5486,optionLeft,60,12090,6,25,0,25,0,1,,,,,,,,,,,,,,,,,,,,,,,,,,,,,,,,,,,,,,,
,,,,,,,,2023-08-16_08h43.57.695,HF_wild_card,2022.2.4,MacIntel,29.98680581,5d88fa49c6bd1b00180fea8a,64d2fd46c836a06233681665,64dc7e2ab080931385feb1ce,,,,,,,decisionTrl,resources/DG.BMP,resources/DP.BMP,Door2,-0.159786758,-0.043809776,1,0,0,3.8619,optionLeft,20,12110,6,26,0,26,0,1,,,,,,,,,,,,,,,,,,,,,,,,,,,,,,,,,,,,,,,
,,,,,,,,2023-08-16_08h43.57.695,HF_wild_card,2022.2.4,MacIntel,29.98680581,5d88fa49c6bd1b00180fea8a,64d2fd46c836a06233681665,64dc7e2ab080931385feb1ce,,,,,,,decisionTrl,resources/DB.BMP,resources/DP.BMP,Door1,0.116041641,-0.017832909,1,0,0,2.9563,optionRight,30,12140,6,27,0,27,0,1,,,,,,,,,,,,,,,,,,,,,,,,,,,,,,,,,,,,,,,
,,,,,,,,2023-08-16_08h43.57.695,HF_wild_card,2022.2.4,MacIntel,29.98680581,5d88fa49c6bd1b00180fea8a,64d2fd46c836a06233681665,64dc7e2ab080931385feb1ce,,,,,,,decisionTrl,resources/DG.BMP,resources/DP.BMP,Door2,-0.20322525,-0.003927612,1,0,0,3.8922,optionLeft,40,12180,6,28,0,28,0,1,,,,,,,,,,,,,,,,,,,,,,,,,,,,,,,,,,,,,,,
,,,,,,,,2023-08-16_08h43.57.695,HF_wild_card,2022.2.4,MacIntel,29.98680581,5d88fa49c6bd1b00180fea8a,64d2fd46c836a06233681665,64dc7e2ab080931385feb1ce,,,,,,,decisionTrl,resources/DG.BMP,resources/DP.BMP,Door2,0.003757401,0.008188019,1,0,0,1.3434,optionLeft,40,12220,6,29,0,29,0,1,,,,,,,,,,,,,,,,,,,,,,,,,,,,,,,,,,,,,,,
,,,,,,,,2023-08-16_08h43.57.695,HF_wild_card,2022.2.4,MacIntel,29.98680581,5d88fa49c6bd1b00180fea8a,64d2fd46c836a06233681665,64dc7e2ab080931385feb1ce,,,,,,,decisionTrl,resources/DR.BMP,resources/DB.BMP,Door4,-0.118598099,-0.036910019,1,0,0,1.332,optionLeft,60,12280,6,30,0,30,0,1,,,,,,,,,,,,,,,,,,,,,,,,,,,,,,,,,,,,,,,
,,,,,,,,2023-08-16_08h43.57.695,HF_wild_card,2022.2.4,MacIntel,29.98680581,5d88fa49c6bd1b00180fea8a,64d2fd46c836a06233681665,64dc7e2ab080931385feb1ce,,,,,,,decisionTrl,resources/DB.BMP,resources/DR.BMP,WildCard_Ex,-0.187613869,-0.117427025,1,0,0,3.0228,optionLeft,45,12325,6,31,0,31,0,1,,,,,,,,,,,,,,,,,,,,,,,,,,,,,,,,,,,,,,,
,,,,,,,,2023-08-16_08h43.57.695,HF_wild_card,2022.2.4,MacIntel,29.98680581,5d88fa49c6bd1b00180fea8a,64d2fd46c836a06233681665,64dc7e2ab080931385feb1ce,,,,,,,sngl,resources/Empty.png,resources/DBN.BMP,Door3,0.262500229,-0.008471527,1,0,0,1.2372,optionRight,70,12395,6,32,0,32,0,1,,,,,,,,,,,,,,,,,,,,,,,,,,,,,,,,,,,,,,,
,,,,,,,,2023-08-16_08h43.57.695,HF_wild_card,2022.2.4,MacIntel,29.98680581,5d88fa49c6bd1b00180fea8a,64d2fd46c836a06233681665,64dc7e2ab080931385feb1ce,,,,,,,sngl,resources/Empty.png,resources/DB.BMP,WildCard_Ex,0.151824265,-0.033879776,1,0,0,1.094,optionRight,55,12450,6,33,0,33,0,1,,,,,,,,,,,,,,,,,,,,,,,,,,,,,,,,,,,,,,,
,,,,,,,,2023-08-16_08h43.57.695,HF_wild_card,2022.2.4,MacIntel,29.98680581,5d88fa49c6bd1b00180fea8a,64d2fd46c836a06233681665,64dc7e2ab080931385feb1ce,,,,,,,sngl,resources/DBN.BMP,resources/Empty.png,Door3,-0.193796387,-0.004328575,1,0,0,2.0569,optionLeft,70,12520,6,34,0,34,0,1,,,,,,,,,,,,,,,,,,,,,,,,,,,,,,,,,,,,,,,
,,,,,,,,2023-08-16_08h43.57.695,HF_wild_card,2022.2.4,MacIntel,29.98680581,5d88fa49c6bd1b00180fea8a,64d2fd46c836a06233681665,64dc7e2ab080931385feb1ce,,,,,,,decisionTrl,resources/DR.BMP,resources/DBN.BMP,Door4,-0.009903259,-0.006880455,1,0,0,1.6265,optionLeft,60,12580,6,35,0,35,0,1,,,,,,,,,,,,,,,,,,,,,,,,,,,,,,,,,,,,,,,
,,,,,,,,2023-08-16_08h43.57.695,HF_wild_card,2022.2.4,MacIntel,29.98680581,5d88fa49c6bd1b00180fea8a,64d2fd46c836a06233681665,64dc7e2ab080931385feb1ce,,,,,,,decisionTrl,resources/DG.BMP,resources/DP.BMP,Door2,-0.229988136,-0.001939392,1,0,0,1.3623,optionLeft,40,12620,6,36,0,36,0,1,,,,,,,,,,,,,,,,,,,,,,,,,,,,,,,,,,,,,,,
,,,,,,,,2023-08-16_08h43.57.695,HF_wild_card,2022.2.4,MacIntel,29.98680581,5d88fa49c6bd1b00180fea8a,64d2fd46c836a06233681665,64dc7e2ab080931385feb1ce,,,,,,,sngl,resources/DG.BMP,resources/Empty.png,Door2,-0.002368011,-0.012484589,1,0,0,1.1983,optionLeft,20,12640,6,37,0,37,0,1,,,,,,,,,,,,,,,,,,,,,,,,,,,,,,,,,,,,,,,
,,,,,,,,2023-08-16_08h43.57.695,HF_wild_card,2022.2.4,MacIntel,29.98680581,5d88fa49c6bd1b00180fea8a,64d2fd46c836a06233681665,64dc7e2ab080931385feb1ce,,,,,,,ctch,resources/DR.BMP,resources/DP.BMP,Door4,-0.141315994,-0.013860855,1,0,0,1.0921,optionLeft,60,12700,6,38,0,38,0,1,,,,,,,,,,,,,,,,,,,,,,,,,,,,,,,,,,,,,,,
,,,,,,,,2023-08-16_08h43.57.695,HF_wild_card,2022.2.4,MacIntel,29.98680581,5d88fa49c6bd1b00180fea8a,64d2fd46c836a06233681665,64dc7e2ab080931385feb1ce,,,,,,,decisionTrl,resources/DP.BMP,resources/DG.BMP,Door1,-0.140875702,-0.016308594,1,0,0,1.4163,optionLeft,30,12730,6,39,0,39,0,1,,,,,,,,,,,,,,,,,,,,,,,,,,,,,,,,,,,,,,,
,,,,,,,,2023-08-16_08h43.57.695,HF_wild_card,2022.2.4,MacIntel,29.98680581,5d88fa49c6bd1b00180fea8a,64d2fd46c836a06233681665,64dc7e2ab080931385feb1ce,,,,,,,decisionTrl,resources/DB.BMP,resources/DG.BMP,WildCard_Ex,-0.164104881,-0.016986694,1,0,0,0.9275,optionLeft,45,12775,6,40,0,40,0,1,,,,,,,,,,,,,,,,,,,,,,,,,,,,,,,,,,,,,,,
,,,,,,,,2023-08-16_08h43.57.695,HF_wild_card,2022.2.4,MacIntel,29.98680581,5d88fa49c6bd1b00180fea8a,64d2fd46c836a06233681665,64dc7e2ab080931385feb1ce,,,,,,,ctch,resources/DR.BMP,resources/DP.BMP,Door4,-0.181451111,0.016315536,1,0,0,1.219,optionLeft,80,12855,6,41,0,41,0,1,,,,,,,,,,,,,,,,,,,,,,,,,,,,,,,,,,,,,,,
,,,,,,,,2023-08-16_08h43.57.695,HF_wild_card,2022.2.4,MacIntel,29.98680581,5d88fa49c6bd1b00180fea8a,64d2fd46c836a06233681665,64dc7e2ab080931385feb1ce,,,,,,,ctch,resources/DP.BMP,resources/DR.BMP,Door1,-0.165492897,-0.039225998,1,0,0,1.1349,optionLeft,30,12885,6,42,0,42,0,1,,,,,,,,,,,,,,,,,,,,,,,,,,,,,,,,,,,,,,,
,,,,,,,,2023-08-16_08h43.57.695,HF_wild_card,2022.2.4,MacIntel,29.98680581,5d88fa49c6bd1b00180fea8a,64d2fd46c836a06233681665,64dc7e2ab080931385feb1ce,,,,,,,ctch,resources/DP.BMP,resources/DR.BMP,Door1,-0.16251358,-0.093204117,1,0,0,0.9077,optionLeft,30,12915,6,43,0,43,0,1,,,,,,,,,,,,,,,,,,,,,,,,,,,,,,,,,,,,,,,
,,,,,,,,2023-08-16_08h43.57.695,HF_wild_card,2022.2.4,MacIntel,29.98680581,5d88fa49c6bd1b00180fea8a,64d2fd46c836a06233681665,64dc7e2ab080931385feb1ce,,,,,,,,,,,,,,,,,,,,,,,,,,5,0,5,0,1,,,,,,,,,,,,,,,,,,,,,,,,,,,,,,,,,,
,,,,,,,,2023-08-16_08h43.57.695,HF_wild_card,2022.2.4,MacIntel,29.98680581,5d88fa49c6bd1b00180fea8a,64d2fd46c836a06233681665,64dc7e2ab080931385feb1ce,,,,,,,ctch,resources/DG.BMP,resources/DBN.BMP,Door2,-0.169461212,-0.193372803,1,0,0,5.9473,optionLeft,20,12935,7,0,0,0,0,1,,,,,,,,,,,,,,,,,,,,,,,,,,,,,,,,,,,,,,,
,,,,,,,,2023-08-16_08h43.57.695,HF_wild_card,2022.2.4,MacIntel,29.98680581,5d88fa49c6bd1b00180fea8a,64d2fd46c836a06233681665,64dc7e2ab080931385feb1ce,,,,,,,decisionTrl,resources/DG.BMP,resources/DP.BMP,Door2,-0.191158371,-0.030507736,1,0,0,2.712,optionLeft,20,12955,7,1,0,1,0,1,,,,,,,,,,,,,,,,,,,,,,,,,,,,,,,,,,,,,,,
,,,,,,,,2023-08-16_08h43.57.695,HF_wild_card,2022.2.4,MacIntel,29.98680581,5d88fa49c6bd1b00180fea8a,64d2fd46c836a06233681665,64dc7e2ab080931385feb1ce,,,,,,,decisionTrl,resources/DBN.BMP,resources/DR.BMP,Door3,-0.173087387,0.041272278,1,0,0,3.5271,optionLeft,70,13025,7,2,0,2,0,1,,,,,,,,,,,,,,,,,,,,,,,,,,,,,,,,,,,,,,,
,,,,,,,,2023-08-16_08h43.57.695,HF_wild_card,2022.2.4,MacIntel,29.98680581,5d88fa49c6bd1b00180fea8a,64d2fd46c836a06233681665,64dc7e2ab080931385feb1ce,,,,,,,decisionTrl,resources/DP.BMP,resources/DG.BMP,Door1,-0.19978878,-0.043607559,1,0,0,2.3378,optionLeft,30,13055,7,3,0,3,0,1,,,,,,,,,,,,,,,,,,,,,,,,,,,,,,,,,,,,,,,
,,,,,,,,2023-08-16_08h43.57.695,HF_wild_card,2022.2.4,MacIntel,29.98680581,5d88fa49c6bd1b00180fea8a,64d2fd46c836a06233681665,64dc7e2ab080931385feb1ce,,,,,,,ctch,resources/DP.BMP,resources/DR.BMP,Door1,-0.166811218,-0.073301659,1,0,0,2.2305,optionLeft,30,13085,7,4,0,4,0,1,,,,,,,,,,,,,,,,,,,,,,,,,,,,,,,,,,,,,,,
,,,,,,,,2023-08-16_08h43.57.695,HF_wild_card,2022.2.4,MacIntel,29.98680581,5d88fa49c6bd1b00180fea8a,64d2fd46c836a06233681665,64dc7e2ab080931385feb1ce,,,,,,,decisionTrl,resources/DR.BMP,resources/DBN.BMP,Door4,-0.195632362,-0.041361008,1,0,0,2.0415,optionLeft,80,13165,7,5,0,5,0,1,,,,,,,,,,,,,,,,,,,,,,,,,,,,,,,,,,,,,,,
,,,,,,,,2023-08-16_08h43.57.695,HF_wild_card,2022.2.4,MacIntel,29.98680581,5d88fa49c6bd1b00180fea8a,64d2fd46c836a06233681665,64dc7e2ab080931385feb1ce,,,,,,,decisionTrl,resources/DP.BMP,resources/DG.BMP,Door1,-0.138693619,-0.042387505,1,0,0,1.6632,optionLeft,30,13195,7,6,0,6,0,1,,,,,,,,,,,,,,,,,,,,,,,,,,,,,,,,,,,,,,,
,,,,,,,,2023-08-16_08h43.57.695,HF_wild_card,2022.2.4,MacIntel,29.98680581,5d88fa49c6bd1b00180fea8a,64d2fd46c836a06233681665,64dc7e2ab080931385feb1ce,,,,,,,decisionTrl,resources/DR.BMP,resources/DBN.BMP,Door4,-0.248783646,-0.07864006,1,0,0,3.6443,optionLeft,60,13255,7,7,0,7,0,1,,,,,,,,,,,,,,,,,,,,,,,,,,,,,,,,,,,,,,,
,,,,,,,,2023-08-16_08h43.57.695,HF_wild_card,2022.2.4,MacIntel,29.98680581,5d88fa49c6bd1b00180fea8a,64d2fd46c836a06233681665,64dc7e2ab080931385feb1ce,,,,,,,decisionTrl,resources/DBN.BMP,resources/DR.BMP,Door3,-0.185389328,-0.013360329,1,0,0,4.1184,optionLeft,70,13325,7,8,0,8,0,1,,,,,,,,,,,,,,,,,,,,,,,,,,,,,,,,,,,,,,,
,,,,,,,,2023-08-16_08h43.57.695,HF_wild_card,2022.2.4,MacIntel,29.98680581,5d88fa49c6bd1b00180fea8a,64d2fd46c836a06233681665,64dc7e2ab080931385feb1ce,,,,,,,decisionTrl,resources/DG.BMP,resources/DP.BMP,Door2,-0.212097588,-0.048675346,1,0,0,1.2053,optionLeft,20,13345,7,9,0,9,0,1,,,,,,,,,,,,,,,,,,,,,,,,,,,,,,,,,,,,,,,
,,,,,,,,2023-08-16_08h43.57.695,HF_wild_card,2022.2.4,MacIntel,29.98680581,5d88fa49c6bd1b00180fea8a,64d2fd46c836a06233681665,64dc7e2ab080931385feb1ce,,,,,,,decisionTrl,resources/DP.BMP,resources/DG.BMP,Door1,-0.155873871,-0.039423599,1,0,0,1.3243,optionLeft,30,13375,7,10,0,10,0,1,,,,,,,,,,,,,,,,,,,,,,,,,,,,,,,,,,,,,,,
,,,,,,,,2023-08-16_08h43.57.695,HF_wild_card,2022.2.4,MacIntel,29.98680581,5d88fa49c6bd1b00180fea8a,64d2fd46c836a06233681665,64dc7e2ab080931385feb1ce,,,,,,,decisionTrl,resources/DG.BMP,resources/DP.BMP,Door2,-0.218361015,-0.020680809,1,0,0,1.5878,optionLeft,40,13415,7,11,0,11,0,1,,,,,,,,,,,,,,,,,,,,,,,,,,,,,,,,,,,,,,,
,,,,,,,,2023-08-16_08h43.57.695,HF_wild_card,2022.2.4,MacIntel,29.98680581,5d88fa49c6bd1b00180fea8a,64d2fd46c836a06233681665,64dc7e2ab080931385feb1ce,,,,,,,decisionTrl,resources/DBN.BMP,resources/DR.BMP,Door3,-0.154183731,-0.059370193,1,0,0,1.9689,optionLeft,70,13485,7,12,0,12,0,1,,,,,,,,,,,,,,,,,,,,,,,,,,,,,,,,,,,,,,,
,,,,,,,,2023-08-16_08h43.57.695,HF_wild_card,2022.2.4,MacIntel,29.98680581,5d88fa49c6bd1b00180fea8a,64d2fd46c836a06233681665,64dc7e2ab080931385feb1ce,,,,,,,decisionTrl,resources/DG.BMP,resources/DP.BMP,Door2,-0.218937225,-0.01517952,1,0,0,1.1892,optionLeft,20,13505,7,13,0,13,0,1,,,,,,,,,,,,,,,,,,,,,,,,,,,,,,,,,,,,,,,
,,,,,,,,2023-08-16_08h43.57.695,HF_wild_card,2022.2.4,MacIntel,29.98680581,5d88fa49c6bd1b00180fea8a,64d2fd46c836a06233681665,64dc7e2ab080931385feb1ce,,,,,,,decisionTrl,resources/DG.BMP,resources/DP.BMP,Door2,-0.172815399,-0.03161705,1,0,0,1.0635,optionLeft,20,13525,7,14,0,14,0,1,,,,,,,,,,,,,,,,,,,,,,,,,,,,,,,,,,,,,,,
,,,,,,,,2023-08-16_08h43.57.695,HF_wild_card,2022.2.4,MacIntel,29.98680581,5d88fa49c6bd1b00180fea8a,64d2fd46c836a06233681665,64dc7e2ab080931385feb1ce,,,,,,,ctch,resources/DP.BMP,resources/DR.BMP,Door1,-0.206072655,-0.055106201,1,0,0,1.0578,optionLeft,30,13555,7,15,0,15,0,1,,,,,,,,,,,,,,,,,,,,,,,,,,,,,,,,,,,,,,,
,,,,,,,,2023-08-16_08h43.57.695,HF_wild_card,2022.2.4,MacIntel,29.98680581,5d88fa49c6bd1b00180fea8a,64d2fd46c836a06233681665,64dc7e2ab080931385feb1ce,,,,,,,ctch,resources/DR.BMP,resources/DP.BMP,Door4,-0.158997879,-0.038365326,1,0,0,1.339,optionLeft,60,13615,7,16,0,16,0,1,,,,,,,,,,,,,,,,,,,,,,,,,,,,,,,,,,,,,,,
,,,,,,,,2023-08-16_08h43.57.695,HF_wild_card,2022.2.4,MacIntel,29.98680581,5d88fa49c6bd1b00180fea8a,64d2fd46c836a06233681665,64dc7e2ab080931385feb1ce,,,,,,,ctch,resources/DR.BMP,resources/DP.BMP,Door4,-0.184158325,-0.045280952,1,0,0,1.1164,optionLeft,60,13675,7,17,0,17,0,1,,,,,,,,,,,,,,,,,,,,,,,,,,,,,,,,,,,,,,,
,,,,,,,,2023-08-16_08h43.57.695,HF_wild_card,2022.2.4,MacIntel,29.98680581,5d88fa49c6bd1b00180fea8a,64d2fd46c836a06233681665,64dc7e2ab080931385feb1ce,,,,,,,ctch,resources/DBN.BMP,resources/DG.BMP,Door3,-0.186037369,-0.048969154,1,0,0,1.1293,optionLeft,70,13745,7,18,0,18,0,1,,,,,,,,,,,,,,,,,,,,,,,,,,,,,,,,,,,,,,,
,,,,,,,,2023-08-16_08h43.57.695,HF_wild_card,2022.2.4,MacIntel,29.98680581,5d88fa49c6bd1b00180fea8a,64d2fd46c836a06233681665,64dc7e2ab080931385feb1ce,,,,,,,decisionTrl,resources/DG.BMP,resources/DP.BMP,Door2,-0.178489151,-0.040910034,1,0,0,1.4396,optionLeft,20,13765,7,19,0,19,0,1,,,,,,,,,,,,,,,,,,,,,,,,,,,,,,,,,,,,,,,
,,,,,,,,2023-08-16_08h43.57.695,HF_wild_card,2022.2.4,MacIntel,29.98680581,5d88fa49c6bd1b00180fea8a,64d2fd46c836a06233681665,64dc7e2ab080931385feb1ce,,,,,,,ctch,resources/DBN.BMP,resources/DG.BMP,Door3,-0.137564316,-0.057920303,1,0,0,1.3367,optionLeft,70,13835,7,20,0,20,0,1,,,,,,,,,,,,,,,,,,,,,,,,,,,,,,,,,,,,,,,
,,,,,,,,2023-08-16_08h43.57.695,HF_wild_card,2022.2.4,MacIntel,29.98680581,5d88fa49c6bd1b00180fea8a,64d2fd46c836a06233681665,64dc7e2ab080931385feb1ce,,,,,,,ctch,resources/DR.BMP,resources/DP.BMP,Door4,-0.178433914,-0.061658859,1,0,0,1.4333,optionLeft,80,13915,7,21,0,21,0,1,,,,,,,,,,,,,,,,,,,,,,,,,,,,,,,,,,,,,,,
,,,,,,,,2023-08-16_08h43.57.695,HF_wild_card,2022.2.4,MacIntel,29.98680581,5d88fa49c6bd1b00180fea8a,64d2fd46c836a06233681665,64dc7e2ab080931385feb1ce,,,,,,,ctch,resources/DBN.BMP,resources/DG.BMP,Door3,-0.143606491,-0.03965065,1,0,0,1.3675,optionLeft,70,13985,7,22,0,22,0,1,,,,,,,,,,,,,,,,,,,,,,,,,,,,,,,,,,,,,,,
,,,,,,,,2023-08-16_08h43.57.695,HF_wild_card,2022.2.4,MacIntel,29.98680581,5d88fa49c6bd1b00180fea8a,64d2fd46c836a06233681665,64dc7e2ab080931385feb1ce,,,,,,,decisionTrl,resources/DP.BMP,resources/DG.BMP,Door1,-0.185920868,-0.073939056,1,0,0,2.0111,optionLeft,30,14015,7,23,0,23,0,1,,,,,,,,,,,,,,,,,,,,,,,,,,,,,,,,,,,,,,,
,,,,,,,,2023-08-16_08h43.57.695,HF_wild_card,2022.2.4,MacIntel,29.98680581,5d88fa49c6bd1b00180fea8a,64d2fd46c836a06233681665,64dc7e2ab080931385feb1ce,,,,,,,decisionTrl,resources/DR.BMP,resources/DBN.BMP,Door4,-0.142928925,-0.0569487,1,0,0,1.3743,optionLeft,80,14095,7,24,0,24,0,1,,,,,,,,,,,,,,,,,,,,,,,,,,,,,,,,,,,,,,,
,,,,,,,,2023-08-16_08h43.57.695,HF_wild_card,2022.2.4,MacIntel,29.98680581,5d88fa49c6bd1b00180fea8a,64d2fd46c836a06233681665,64dc7e2ab080931385feb1ce,,,,,,,ctch,resources/DG.BMP,resources/DBN.BMP,Door2,-0.208083916,-0.049209213,1,0,0,1.462,optionLeft,20,14115,7,25,0,25,0,1,,,,,,,,,,,,,,,,,,,,,,,,,,,,,,,,,,,,,,,
,,,,,,,,2023-08-16_08h43.57.695,HF_wild_card,2022.2.4,MacIntel,29.98680581,5d88fa49c6bd1b00180fea8a,64d2fd46c836a06233681665,64dc7e2ab080931385feb1ce,,,,,,,decisionTrl,resources/DR.BMP,resources/DBN.BMP,Door4,-0.173134956,-0.090110207,1,0,0,1.3328,optionLeft,80,14195,7,26,0,26,0,1,,,,,,,,,,,,,,,,,,,,,,,,,,,,,,,,,,,,,,,
,,,,,,,,2023-08-16_08h43.57.695,HF_wild_card,2022.2.4,MacIntel,29.98680581,5d88fa49c6bd1b00180fea8a,64d2fd46c836a06233681665,64dc7e2ab080931385feb1ce,,,,,,,decisionTrl,resources/DR.BMP,resources/DBN.BMP,Door4,-0.149682465,-0.059593468,1,0,0,1.3332,optionLeft,80,14275,7,27,0,27,0,1,,,,,,,,,,,,,,,,,,,,,,,,,,,,,,,,,,,,,,,
,,,,,,,,2023-08-16_08h43.57.695,HF_wild_card,2022.2.4,MacIntel,29.98680581,5d88fa49c6bd1b00180fea8a,64d2fd46c836a06233681665,64dc7e2ab080931385feb1ce,,,,,,,decisionTrl,resources/DBN.BMP,resources/DR.BMP,Door3,-0.165314178,-0.08322525,1,0,0,4.9233,optionLeft,70,14345,7,28,0,28,0,1,,,,,,,,,,,,,,,,,,,,,,,,,,,,,,,,,,,,,,,
,,,,,,,,2023-08-16_08h43.57.695,HF_wild_card,2022.2.4,MacIntel,29.98680581,5d88fa49c6bd1b00180fea8a,64d2fd46c836a06233681665,64dc7e2ab080931385feb1ce,,,,,,,decisionTrl,resources/DBN.BMP,resources/DR.BMP,Door3,-0.182192345,-0.030113525,1,0,0,2.7236,optionLeft,70,14415,7,29,0,29,0,1,,,,,,,,,,,,,,,,,,,,,,,,,,,,,,,,,,,,,,,
,,,,,,,,2023-08-16_08h43.57.695,HF_wild_card,2022.2.4,MacIntel,29.98680581,5d88fa49c6bd1b00180fea8a,64d2fd46c836a06233681665,64dc7e2ab080931385feb1ce,,,,,,,ctch,resources/DG.BMP,resources/DBN.BMP,Door2,-0.199981041,-0.049135742,1,0,0,1.1045,optionLeft,20,14435,7,30,0,30,0,1,,,,,,,,,,,,,,,,,,,,,,,,,,,,,,,,,,,,,,,
,,,,,,,,2023-08-16_08h43.57.695,HF_wild_card,2022.2.4,MacIntel,29.98680581,5d88fa49c6bd1b00180fea8a,64d2fd46c836a06233681665,64dc7e2ab080931385feb1ce,,,,,,,decisionTrl,resources/DP.BMP,resources/DG.BMP,Door1,-0.191649628,-0.097718735,1,0,0,0.8728,optionLeft,30,14465,7,31,0,31,0,1,,,,,,,,,,,,,,,,,,,,,,,,,,,,,,,,,,,,,,,
,,,,,,,,2023-08-16_08h43.57.695,HF_wild_card,2022.2.4,MacIntel,29.98680581,5d88fa49c6bd1b00180fea8a,64d2fd46c836a06233681665,64dc7e2ab080931385feb1ce,,,,,,,decisionTrl,resources/DR.BMP,resources/DBN.BMP,Door4,-0.200914154,-0.080803909,1,0,0,0.8973,optionLeft,60,14525,7,32,0,32,0,1,,,,,,,,,,,,,,,,,,,,,,,,,,,,,,,,,,,,,,,
,,,,,,,,2023-08-16_08h43.57.695,HF_wild_card,2022.2.4,MacIntel,29.98680581,5d88fa49c6bd1b00180fea8a,64d2fd46c836a06233681665,64dc7e2ab080931385feb1ce,,,,,,,ctch,resources/DP.BMP,resources/DR.BMP,Door1,-0.178599739,-0.054944229,1,0,0,0.9735,optionLeft,30,14555,7,33,0,33,0,1,,,,,,,,,,,,,,,,,,,,,,,,,,,,,,,,,,,,,,,
,,,,,,,,2023-08-16_08h43.57.695,HF_wild_card,2022.2.4,MacIntel,29.98680581,5d88fa49c6bd1b00180fea8a,64d2fd46c836a06233681665,64dc7e2ab080931385feb1ce,,,,,,,decisionTrl,resources/DBN.BMP,resources/DR.BMP,Door3,-0.190721054,-0.035204468,1,0,0,1.2258,optionLeft,70,14625,7,34,0,34,0,1,,,,,,,,,,,,,,,,,,,,,,,,,,,,,,,,,,,,,,,
,,,,,,,,2023-08-16_08h43.57.695,HF_wild_card,2022.2.4,MacIntel,29.98680581,5d88fa49c6bd1b00180fea8a,64d2fd46c836a06233681665,64dc7e2ab080931385feb1ce,,,,,,,decisionTrl,resources/DP.BMP,resources/DG.BMP,Door1,-0.167406197,-0.09162838,1,0,0,1.1555,optionLeft,30,14655,7,35,0,35,0,1,,,,,,,,,,,,,,,,,,,,,,,,,,,,,,,,,,,,,,,
,,,,,,,,2023-08-16_08h43.57.695,HF_wild_card,2022.2.4,MacIntel,29.98680581,5d88fa49c6bd1b00180fea8a,64d2fd46c836a06233681665,64dc7e2ab080931385feb1ce,,,,,,,,,,,,,,,,,,,,,,,,,,6,0,6,0,1,,,,,,,,,,,,,,,,,,,,,,,,,,,,,,,,,,
,,,,,,,,2023-08-16_08h43.57.695,HF_wild_card,2022.2.4,MacIntel,29.98680581,5d88fa49c6bd1b00180fea8a,64d2fd46c836a06233681665,64dc7e2ab080931385feb1ce,,,,,,,,,,,,,,,,,,,,,,,,,,,,,,,3,,,,,,,,,,,,,,,,,,,,,,,,,,,,,,,,,
,,,,,,,,2023-08-16_08h43.57.695,HF_wild_card,2022.2.4,MacIntel,29.98680581,5d88fa49c6bd1b00180fea8a,64d2fd46c836a06233681665,64dc7e2ab080931385feb1ce,,,,,,,,,,,,,,,,,,,,,,,,,,,,,,,,,,,,,,,,,,,,,,,,,,,,,,,,,,,,,,,,
,,,,,,,,2023-08-16_08h43.57.695,HF_wild_card,2022.2.4,MacIntel,29.98680581,5d88fa49c6bd1b00180fea8a,64d2fd46c836a06233681665,64dc7e2ab080931385feb1ce,,,,,,,,,,,,,,,,,,,,,,,,,,,,,,,,70,Door4,resources/DR.BMP,0,0,0,0,1,,,,,,,,,,,,,,,,,,,,,,,,,
,,,,,,,,2023-08-16_08h43.57.695,HF_wild_card,2022.2.4,MacIntel,29.98680581,5d88fa49c6bd1b00180fea8a,64d2fd46c836a06233681665,64dc7e2ab080931385feb1ce,,,,,,,,,,,,,,,,,,,,,,,,,,,,,,,,20,WC_extreme,resources/DB.BMP,1,0,1,0,1,,,,,,,,,,,,,,,,,,,,,,,,,
