Condition,Low fixed image (Door1),Low risky image (Door2),High fixed image (Door3),High risky image (Door4),Extreme Wild Card,NonExtreme Wild Card,,date,expName,psychopyVersion,OS,frameRate,PROLIFIC_PID,STUDY_ID,SESSION_ID,mouse_2.x,mouse_2.y,mouse_2.leftButton,mouse_2.midButton,mouse_2.rightButton,mouse_2.clicked_name,Trial Type,Left Option Image,Right Option Image,Chosen Door,mouse.x,mouse.y,mouse.leftButton,mouse.midButton,mouse.rightButton,mouse.time,mouse.clicked_name,Feedback,Cumulative Reward,Block,trial.thisRepN,trial.thisTrialN,trial.thisN,trial.thisIndex,trial.ran,blocks.thisRepN,blocks.thisTrialN,blocks.thisN,blocks.thisIndex,blocks.ran,Money conversion,First Outcome Reported,Shown Door (First Outcome),Displayed Image (First Outcome),outcomes.thisRepN,outcomes.thisTrialN,outcomes.thisN,outcomes.thisIndex,outcomes.ran,judgments.thisRepN,judgments.thisTrialN,judgments.thisN,judgments.thisIndex,judgments.ran,freqMouse.x,freqMouse.y,freqMouse.leftButton,freqMouse.midButton,freqMouse.rightButton,freqMouse.clicked_name,FQJ for first outcome,FQJ for second outcome,Shown Door,Displayed Image,trials.thisRepN,trials.thisTrialN,trials.thisN,trials.thisIndex,trials.ran,judgBlock.thisRepN,judgBlock.thisTrialN,judgBlock.thisN,judgBlock.thisIndex,judgBlock.ran
1,resources/DG.BMP,resources/DY.BMP,resources/DB.BMP,resources/DBN.BMP,resources/DP.BMP,resources/DR.BMP,,2023-08-16_08h43.16.755,HF_wild_card,2022.2.4,Win32,59.97001499,634bd25388a86856529729a4,64d2fd46c836a06233681665,64dc7dcd7aadb8a0fe86deb6,,,,,,,,,,,,,,,,,,,,,,,,,,,,,,,,,,,,,,,,,,,,,,,,,,,,,,,,,,,,,,,,
,,,,,,,,2023-08-16_08h43.16.755,HF_wild_card,2022.2.4,Win32,59.97001499,634bd25388a86856529729a4,64d2fd46c836a06233681665,64dc7dcd7aadb8a0fe86deb6,0.023148148,-0.416666667,1,0,0,agree,,,,,,,,,,,,,,,,,,,,,,,,,,,,,,,,,,,,,,,,,,,,,,,,,,,,,,,,,,
,,,,,,,,2023-08-16_08h43.16.755,HF_wild_card,2022.2.4,Win32,59.97001499,634bd25388a86856529729a4,64d2fd46c836a06233681665,64dc7dcd7aadb8a0fe86deb6,,,,,,,,,,,,,,,,,,,,,,,,,,,,,,,,,,,,,,,,,,,,,,,,,,,,,,,,,,,,,,,,
,,,,,,,,2023-08-16_08h43.16.755,HF_wild_card,2022.2.4,Win32,59.97001499,634bd25388a86856529729a4,64d2fd46c836a06233681665,64dc7dcd7aadb8a0fe86deb6,,,,,,,sngl,resources/DY.BMP,resources/Empty.png,Door2,-0.30462963,-0.037037037,1,0,0,2.9693,optionLeft,40,40,1,0,0,0,0,1,,,,,,,,,,,,,,,,,,,,,,,,,,,,,,,,,,,,,,,
,,,,,,,,2023-08-16_08h43.16.755,HF_wild_card,2022.2.4,Win32,59.97001499,634bd25388a86856529729a4,64d2fd46c836a06233681665,64dc7dcd7aadb8a0fe86deb6,,,,,,,decisionTrl,resources/DY.BMP,resources/DG.BMP,Door1,0.287037037,-0.060185185,1,0,0,3.6642,optionRight,30,70,1,1,0,1,0,1,,,,,,,,,,,,,,,,,,,,,,,,,,,,,,,,,,,,,,,
,,,,,,,,2023-08-16_08h43.16.755,HF_wild_card,2022.2.4,Win32,59.97001499,634bd25388a86856529729a4,64d2fd46c836a06233681665,64dc7dcd7aadb8a0fe86deb6,,,,,,,ctch,resources/DY.BMP,resources/DB.BMP,Door3,0.144444444,-0.034259259,1,0,0,3.3313,optionRight,70,140,1,2,0,2,0,1,,,,,,,,,,,,,,,,,,,,,,,,,,,,,,,,,,,,,,,
,,,,,,,,2023-08-16_08h43.16.755,HF_wild_card,2022.2.4,Win32,59.97001499,634bd25388a86856529729a4,64d2fd46c836a06233681665,64dc7dcd7aadb8a0fe86deb6,,,,,,,decisionTrl,resources/DR.BMP,resources/DBN.BMP,WildCard_NonEx,-0.300925926,-0.02962963,1,0,0,3.0922,optionLeft,45,185,1,3,0,3,0,1,,,,,,,,,,,,,,,,,,,,,,,,,,,,,,,,,,,,,,,
,,,,,,,,2023-08-16_08h43.16.755,HF_wild_card,2022.2.4,Win32,59.97001499,634bd25388a86856529729a4,64d2fd46c836a06233681665,64dc7dcd7aadb8a0fe86deb6,,,,,,,ctch,resources/DB.BMP,resources/DY.BMP,Door3,-0.167592593,-0.025925926,1,0,0,2.342,optionLeft,70,255,1,4,0,4,0,1,,,,,,,,,,,,,,,,,,,,,,,,,,,,,,,,,,,,,,,
,,,,,,,,2023-08-16_08h43.16.755,HF_wild_card,2022.2.4,Win32,59.97001499,634bd25388a86856529729a4,64d2fd46c836a06233681665,64dc7dcd7aadb8a0fe86deb6,,,,,,,decisionTrl,resources/DB.BMP,resources/DBN.BMP,Door4,0.299074074,-0.003703704,1,0,0,1.3736,optionRight,80,335,1,5,0,5,0,1,,,,,,,,,,,,,,,,,,,,,,,,,,,,,,,,,,,,,,,
,,,,,,,,2023-08-16_08h43.16.755,HF_wild_card,2022.2.4,Win32,59.97001499,634bd25388a86856529729a4,64d2fd46c836a06233681665,64dc7dcd7aadb8a0fe86deb6,,,,,,,decisionTrl,resources/DB.BMP,resources/DR.BMP,Door3,-0.243518519,0.011111111,1,0,0,2.3489,optionLeft,70,405,1,6,0,6,0,1,,,,,,,,,,,,,,,,,,,,,,,,,,,,,,,,,,,,,,,
,,,,,,,,2023-08-16_08h43.16.755,HF_wild_card,2022.2.4,Win32,59.97001499,634bd25388a86856529729a4,64d2fd46c836a06233681665,64dc7dcd7aadb8a0fe86deb6,,,,,,,sngl,resources/DG.BMP,resources/Empty.png,Door1,-0.17962963,0.001851852,1,0,0,1.4092,optionLeft,30,435,1,7,0,7,0,1,,,,,,,,,,,,,,,,,,,,,,,,,,,,,,,,,,,,,,,
,,,,,,,,2023-08-16_08h43.16.755,HF_wild_card,2022.2.4,Win32,59.97001499,634bd25388a86856529729a4,64d2fd46c836a06233681665,64dc7dcd7aadb8a0fe86deb6,,,,,,,decisionTrl,resources/DY.BMP,resources/DG.BMP,Door1,0.356481481,-0.003703704,1,0,0,6.007,optionRight,30,465,1,8,0,8,0,1,,,,,,,,,,,,,,,,,,,,,,,,,,,,,,,,,,,,,,,
,,,,,,,,2023-08-16_08h43.16.755,HF_wild_card,2022.2.4,Win32,59.97001499,634bd25388a86856529729a4,64d2fd46c836a06233681665,64dc7dcd7aadb8a0fe86deb6,,,,,,,decisionTrl,resources/DBN.BMP,resources/DB.BMP,Door4,-0.418518519,0.041666667,1,0,0,1.2518,optionLeft,60,525,1,9,0,9,0,1,,,,,,,,,,,,,,,,,,,,,,,,,,,,,,,,,,,,,,,
,,,,,,,,2023-08-16_08h43.16.755,HF_wild_card,2022.2.4,Win32,59.97001499,634bd25388a86856529729a4,64d2fd46c836a06233681665,64dc7dcd7aadb8a0fe86deb6,,,,,,,decisionTrl,resources/DBN.BMP,resources/DB.BMP,Door4,-0.160185185,-0.006481481,1,0,0,4.8382,optionLeft,80,605,1,10,0,10,0,1,,,,,,,,,,,,,,,,,,,,,,,,,,,,,,,,,,,,,,,
,,,,,,,,2023-08-16_08h43.16.755,HF_wild_card,2022.2.4,Win32,59.97001499,634bd25388a86856529729a4,64d2fd46c836a06233681665,64dc7dcd7aadb8a0fe86deb6,,,,,,,decisionTrl,resources/DR.BMP,resources/DB.BMP,Door3,0.227777778,-0.001851852,1,0,0,1.2666,optionRight,70,675,1,11,0,11,0,1,,,,,,,,,,,,,,,,,,,,,,,,,,,,,,,,,,,,,,,
,,,,,,,,2023-08-16_08h43.16.755,HF_wild_card,2022.2.4,Win32,59.97001499,634bd25388a86856529729a4,64d2fd46c836a06233681665,64dc7dcd7aadb8a0fe86deb6,,,,,,,ctch,resources/DG.BMP,resources/DBN.BMP,Door4,0.207407407,0.016666667,1,0,0,1.4738,optionRight,80,755,1,12,0,12,0,1,,,,,,,,,,,,,,,,,,,,,,,,,,,,,,,,,,,,,,,
,,,,,,,,2023-08-16_08h43.16.755,HF_wild_card,2022.2.4,Win32,59.97001499,634bd25388a86856529729a4,64d2fd46c836a06233681665,64dc7dcd7aadb8a0fe86deb6,,,,,,,decisionTrl,resources/DR.BMP,resources/DG.BMP,WildCard_NonEx,-0.237962963,-0.014814815,1,0,0,3.1534,optionLeft,45,800,1,13,0,13,0,1,,,,,,,,,,,,,,,,,,,,,,,,,,,,,,,,,,,,,,,
,,,,,,,,2023-08-16_08h43.16.755,HF_wild_card,2022.2.4,Win32,59.97001499,634bd25388a86856529729a4,64d2fd46c836a06233681665,64dc7dcd7aadb8a0fe86deb6,,,,,,,sngl,resources/Empty.png,resources/DR.BMP,WildCard_NonEx,0.257407407,-0.006481481,1,0,0,0.9181,optionRight,45,845,1,14,0,14,0,1,,,,,,,,,,,,,,,,,,,,,,,,,,,,,,,,,,,,,,,
,,,,,,,,2023-08-16_08h43.16.755,HF_wild_card,2022.2.4,Win32,59.97001499,634bd25388a86856529729a4,64d2fd46c836a06233681665,64dc7dcd7aadb8a0fe86deb6,,,,,,,decisionTrl,resources/DG.BMP,resources/DY.BMP,Door2,0.194444444,0.015740741,1,0,0,2.0965,optionRight,40,885,1,15,0,15,0,1,,,,,,,,,,,,,,,,,,,,,,,,,,,,,,,,,,,,,,,
,,,,,,,,2023-08-16_08h43.16.755,HF_wild_card,2022.2.4,Win32,59.97001499,634bd25388a86856529729a4,64d2fd46c836a06233681665,64dc7dcd7aadb8a0fe86deb6,,,,,,,decisionTrl,resources/DY.BMP,resources/DG.BMP,Door2,-0.209259259,0.006481481,1,0,0,1.362,optionLeft,20,905,1,16,0,16,0,1,,,,,,,,,,,,,,,,,,,,,,,,,,,,,,,,,,,,,,,
,,,,,,,,2023-08-16_08h43.16.755,HF_wild_card,2022.2.4,Win32,59.97001499,634bd25388a86856529729a4,64d2fd46c836a06233681665,64dc7dcd7aadb8a0fe86deb6,,,,,,,ctch,resources/DB.BMP,resources/DY.BMP,Door3,-0.271296296,0.007407407,1,0,0,0.8957,optionLeft,70,975,1,17,0,17,0,1,,,,,,,,,,,,,,,,,,,,,,,,,,,,,,,,,,,,,,,
,,,,,,,,2023-08-16_08h43.16.755,HF_wild_card,2022.2.4,Win32,59.97001499,634bd25388a86856529729a4,64d2fd46c836a06233681665,64dc7dcd7aadb8a0fe86deb6,,,,,,,decisionTrl,resources/DY.BMP,resources/DR.BMP,WildCard_NonEx,0.238888889,0.000925926,1,0,0,4.5014,optionRight,55,1030,1,18,0,18,0,1,,,,,,,,,,,,,,,,,,,,,,,,,,,,,,,,,,,,,,,
,,,,,,,,2023-08-16_08h43.16.755,HF_wild_card,2022.2.4,Win32,59.97001499,634bd25388a86856529729a4,64d2fd46c836a06233681665,64dc7dcd7aadb8a0fe86deb6,,,,,,,ctch,resources/DBN.BMP,resources/DG.BMP,Door4,-0.255555556,0.000925926,1,0,0,1.0119,optionLeft,80,1110,1,19,0,19,0,1,,,,,,,,,,,,,,,,,,,,,,,,,,,,,,,,,,,,,,,
,,,,,,,,2023-08-16_08h43.16.755,HF_wild_card,2022.2.4,Win32,59.97001499,634bd25388a86856529729a4,64d2fd46c836a06233681665,64dc7dcd7aadb8a0fe86deb6,,,,,,,decisionTrl,resources/DG.BMP,resources/DR.BMP,WildCard_NonEx,0.244444444,-0.012037037,1,0,0,3.4495,optionRight,45,1155,1,20,0,20,0,1,,,,,,,,,,,,,,,,,,,,,,,,,,,,,,,,,,,,,,,
,,,,,,,,2023-08-16_08h43.16.755,HF_wild_card,2022.2.4,Win32,59.97001499,634bd25388a86856529729a4,64d2fd46c836a06233681665,64dc7dcd7aadb8a0fe86deb6,,,,,,,decisionTrl,resources/DBN.BMP,resources/DB.BMP,Door4,-0.358333333,0.022222222,1,0,0,1.38,optionLeft,60,1215,1,21,0,21,0,1,,,,,,,,,,,,,,,,,,,,,,,,,,,,,,,,,,,,,,,
,,,,,,,,2023-08-16_08h43.16.755,HF_wild_card,2022.2.4,Win32,59.97001499,634bd25388a86856529729a4,64d2fd46c836a06233681665,64dc7dcd7aadb8a0fe86deb6,,,,,,,decisionTrl,resources/DG.BMP,resources/DY.BMP,Door2,0.267592593,0.025925926,1,0,0,1.9655,optionRight,40,1255,1,22,0,22,0,1,,,,,,,,,,,,,,,,,,,,,,,,,,,,,,,,,,,,,,,
,,,,,,,,2023-08-16_08h43.16.755,HF_wild_card,2022.2.4,Win32,59.97001499,634bd25388a86856529729a4,64d2fd46c836a06233681665,64dc7dcd7aadb8a0fe86deb6,,,,,,,sngl,resources/DR.BMP,resources/Empty.png,WildCard_NonEx,-0.183333333,0.015740741,1,0,0,0.8801,optionLeft,55,1310,1,23,0,23,0,1,,,,,,,,,,,,,,,,,,,,,,,,,,,,,,,,,,,,,,,
,,,,,,,,2023-08-16_08h43.16.755,HF_wild_card,2022.2.4,Win32,59.97001499,634bd25388a86856529729a4,64d2fd46c836a06233681665,64dc7dcd7aadb8a0fe86deb6,,,,,,,ctch,resources/DBN.BMP,resources/DG.BMP,Door4,-0.187962963,-0.002777778,1,0,0,1.2261,optionLeft,80,1390,1,24,0,24,0,1,,,,,,,,,,,,,,,,,,,,,,,,,,,,,,,,,,,,,,,
,,,,,,,,2023-08-16_08h43.16.755,HF_wild_card,2022.2.4,Win32,59.97001499,634bd25388a86856529729a4,64d2fd46c836a06233681665,64dc7dcd7aadb8a0fe86deb6,,,,,,,sngl,resources/Empty.png,resources/DY.BMP,Door2,0.133333333,0.012037037,1,0,0,0.94,optionRight,20,1410,1,25,0,25,0,1,,,,,,,,,,,,,,,,,,,,,,,,,,,,,,,,,,,,,,,
,,,,,,,,2023-08-16_08h43.16.755,HF_wild_card,2022.2.4,Win32,59.97001499,634bd25388a86856529729a4,64d2fd46c836a06233681665,64dc7dcd7aadb8a0fe86deb6,,,,,,,ctch,resources/DY.BMP,resources/DB.BMP,Door3,0.164814815,0.021296296,1,0,0,0.9778,optionRight,70,1480,1,26,0,26,0,1,,,,,,,,,,,,,,,,,,,,,,,,,,,,,,,,,,,,,,,
,,,,,,,,2023-08-16_08h43.16.755,HF_wild_card,2022.2.4,Win32,59.97001499,634bd25388a86856529729a4,64d2fd46c836a06233681665,64dc7dcd7aadb8a0fe86deb6,,,,,,,decisionTrl,resources/DBN.BMP,resources/DR.BMP,Door4,-0.192592593,0.021296296,1,0,0,0.9619,optionLeft,60,1540,1,27,0,27,0,1,,,,,,,,,,,,,,,,,,,,,,,,,,,,,,,,,,,,,,,
,,,,,,,,2023-08-16_08h43.16.755,HF_wild_card,2022.2.4,Win32,59.97001499,634bd25388a86856529729a4,64d2fd46c836a06233681665,64dc7dcd7aadb8a0fe86deb6,,,,,,,sngl,resources/Empty.png,resources/DBN.BMP,Door4,0.212962963,0.037037037,1,0,0,0.6937,optionRight,60,1600,1,28,0,28,0,1,,,,,,,,,,,,,,,,,,,,,,,,,,,,,,,,,,,,,,,
,,,,,,,,2023-08-16_08h43.16.755,HF_wild_card,2022.2.4,Win32,59.97001499,634bd25388a86856529729a4,64d2fd46c836a06233681665,64dc7dcd7aadb8a0fe86deb6,,,,,,,decisionTrl,resources/DB.BMP,resources/DBN.BMP,Door4,0.199074074,0.030555556,1,0,0,1.1627,optionRight,80,1680,1,29,0,29,0,1,,,,,,,,,,,,,,,,,,,,,,,,,,,,,,,,,,,,,,,
,,,,,,,,2023-08-16_08h43.16.755,HF_wild_card,2022.2.4,Win32,59.97001499,634bd25388a86856529729a4,64d2fd46c836a06233681665,64dc7dcd7aadb8a0fe86deb6,,,,,,,sngl,resources/DR.BMP,resources/Empty.png,WildCard_NonEx,-0.193518519,0.027777778,1,0,0,1.0289,optionLeft,45,1725,1,30,0,30,0,1,,,,,,,,,,,,,,,,,,,,,,,,,,,,,,,,,,,,,,,
,,,,,,,,2023-08-16_08h43.16.755,HF_wild_card,2022.2.4,Win32,59.97001499,634bd25388a86856529729a4,64d2fd46c836a06233681665,64dc7dcd7aadb8a0fe86deb6,,,,,,,ctch,resources/DG.BMP,resources/DBN.BMP,Door4,0.207407407,0.078703704,1,0,0,1.5515,optionRight,80,1805,1,31,0,31,0,1,,,,,,,,,,,,,,,,,,,,,,,,,,,,,,,,,,,,,,,
,,,,,,,,2023-08-16_08h43.16.755,HF_wild_card,2022.2.4,Win32,59.97001499,634bd25388a86856529729a4,64d2fd46c836a06233681665,64dc7dcd7aadb8a0fe86deb6,,,,,,,decisionTrl,resources/DR.BMP,resources/DY.BMP,Door2,0.140740741,0.037037037,1,0,0,2.2008,optionRight,40,1845,1,32,0,32,0,1,,,,,,,,,,,,,,,,,,,,,,,,,,,,,,,,,,,,,,,
,,,,,,,,2023-08-16_08h43.16.755,HF_wild_card,2022.2.4,Win32,59.97001499,634bd25388a86856529729a4,64d2fd46c836a06233681665,64dc7dcd7aadb8a0fe86deb6,,,,,,,decisionTrl,resources/DG.BMP,resources/DY.BMP,Door2,0.15462963,0.037962963,1,0,0,1.3963,optionRight,20,1865,1,33,0,33,0,1,,,,,,,,,,,,,,,,,,,,,,,,,,,,,,,,,,,,,,,
,,,,,,,,2023-08-16_08h43.16.755,HF_wild_card,2022.2.4,Win32,59.97001499,634bd25388a86856529729a4,64d2fd46c836a06233681665,64dc7dcd7aadb8a0fe86deb6,,,,,,,sngl,resources/Empty.png,resources/DB.BMP,Door3,0.222222222,0.038888889,1,0,0,0.6996,optionRight,70,1935,1,34,0,34,0,1,,,,,,,,,,,,,,,,,,,,,,,,,,,,,,,,,,,,,,,
,,,,,,,,2023-08-16_08h43.16.755,HF_wild_card,2022.2.4,Win32,59.97001499,634bd25388a86856529729a4,64d2fd46c836a06233681665,64dc7dcd7aadb8a0fe86deb6,,,,,,,decisionTrl,resources/DY.BMP,resources/DG.BMP,Door2,-0.209259259,-0.019444444,1,0,0,2.3964,optionLeft,20,1955,1,35,0,35,0,1,,,,,,,,,,,,,,,,,,,,,,,,,,,,,,,,,,,,,,,
,,,,,,,,2023-08-16_08h43.16.755,HF_wild_card,2022.2.4,Win32,59.97001499,634bd25388a86856529729a4,64d2fd46c836a06233681665,64dc7dcd7aadb8a0fe86deb6,,,,,,,decisionTrl,resources/DB.BMP,resources/DBN.BMP,Door4,0.210185185,0.038888889,1,0,0,0.8577,optionRight,60,2015,1,36,0,36,0,1,,,,,,,,,,,,,,,,,,,,,,,,,,,,,,,,,,,,,,,
,,,,,,,,2023-08-16_08h43.16.755,HF_wild_card,2022.2.4,Win32,59.97001499,634bd25388a86856529729a4,64d2fd46c836a06233681665,64dc7dcd7aadb8a0fe86deb6,,,,,,,sngl,resources/DB.BMP,resources/Empty.png,Door3,-0.203703704,-0.000925926,1,0,0,0.7447,optionLeft,70,2085,1,37,0,37,0,1,,,,,,,,,,,,,,,,,,,,,,,,,,,,,,,,,,,,,,,
,,,,,,,,2023-08-16_08h43.16.755,HF_wild_card,2022.2.4,Win32,59.97001499,634bd25388a86856529729a4,64d2fd46c836a06233681665,64dc7dcd7aadb8a0fe86deb6,,,,,,,sngl,resources/Empty.png,resources/DG.BMP,Door1,0.217592593,0.000925926,1,0,0,1.1132,optionRight,30,2115,1,38,0,38,0,1,,,,,,,,,,,,,,,,,,,,,,,,,,,,,,,,,,,,,,,
,,,,,,,,2023-08-16_08h43.16.755,HF_wild_card,2022.2.4,Win32,59.97001499,634bd25388a86856529729a4,64d2fd46c836a06233681665,64dc7dcd7aadb8a0fe86deb6,,,,,,,sngl,resources/DBN.BMP,resources/Empty.png,Door4,-0.222222222,-0.003703704,1,0,0,0.6442,optionLeft,80,2195,1,39,0,39,0,1,,,,,,,,,,,,,,,,,,,,,,,,,,,,,,,,,,,,,,,
,,,,,,,,2023-08-16_08h43.16.755,HF_wild_card,2022.2.4,Win32,59.97001499,634bd25388a86856529729a4,64d2fd46c836a06233681665,64dc7dcd7aadb8a0fe86deb6,,,,,,,decisionTrl,resources/DBN.BMP,resources/DB.BMP,Door4,-0.358333333,-0.007407407,1,0,0,1.7072,optionLeft,80,2275,1,40,0,40,0,1,,,,,,,,,,,,,,,,,,,,,,,,,,,,,,,,,,,,,,,
,,,,,,,,2023-08-16_08h43.16.755,HF_wild_card,2022.2.4,Win32,59.97001499,634bd25388a86856529729a4,64d2fd46c836a06233681665,64dc7dcd7aadb8a0fe86deb6,,,,,,,decisionTrl,resources/DG.BMP,resources/DY.BMP,Door1,-0.175925926,0.047222222,1,0,0,4.8695,optionLeft,30,2305,1,41,0,41,0,1,,,,,,,,,,,,,,,,,,,,,,,,,,,,,,,,,,,,,,,
,,,,,,,,2023-08-16_08h43.16.755,HF_wild_card,2022.2.4,Win32,59.97001499,634bd25388a86856529729a4,64d2fd46c836a06233681665,64dc7dcd7aadb8a0fe86deb6,,,,,,,decisionTrl,resources/DB.BMP,resources/DBN.BMP,Door4,0.189814815,0.003703704,1,0,0,0.7507,optionRight,60,2365,1,42,0,42,0,1,,,,,,,,,,,,,,,,,,,,,,,,,,,,,,,,,,,,,,,
,,,,,,,,2023-08-16_08h43.16.755,HF_wild_card,2022.2.4,Win32,59.97001499,634bd25388a86856529729a4,64d2fd46c836a06233681665,64dc7dcd7aadb8a0fe86deb6,,,,,,,sngl,resources/Empty.png,resources/DR.BMP,WildCard_NonEx,0.146296296,0.009259259,1,0,0,0.8163,optionRight,55,2420,1,43,0,43,0,1,,,,,,,,,,,,,,,,,,,,,,,,,,,,,,,,,,,,,,,
,,,,,,,,2023-08-16_08h43.16.755,HF_wild_card,2022.2.4,Win32,59.97001499,634bd25388a86856529729a4,64d2fd46c836a06233681665,64dc7dcd7aadb8a0fe86deb6,,,,,,,,,,,,,,,,,,,,,,,,,,0,0,0,0,1,,,,,,,,,,,,,,,,,,,,,,,,,,,,,,,,,,
,,,,,,,,2023-08-16_08h43.16.755,HF_wild_card,2022.2.4,Win32,59.97001499,634bd25388a86856529729a4,64d2fd46c836a06233681665,64dc7dcd7aadb8a0fe86deb6,,,,,,,ctch,resources/DY.BMP,resources/DB.BMP,Door3,0.318518519,-0.049074074,1,0,0,1.6046,optionRight,70,2490,2,0,0,0,0,1,,,,,,,,,,,,,,,,,,,,,,,,,,,,,,,,,,,,,,,
,,,,,,,,2023-08-16_08h43.16.755,HF_wild_card,2022.2.4,Win32,59.97001499,634bd25388a86856529729a4,64d2fd46c836a06233681665,64dc7dcd7aadb8a0fe86deb6,,,,,,,decisionTrl,resources/DG.BMP,resources/DY.BMP,Door2,0.205555556,-0.007407407,1,0,0,4.5124,optionRight,40,2530,2,1,0,1,0,1,,,,,,,,,,,,,,,,,,,,,,,,,,,,,,,,,,,,,,,
,,,,,,,,2023-08-16_08h43.16.755,HF_wild_card,2022.2.4,Win32,59.97001499,634bd25388a86856529729a4,64d2fd46c836a06233681665,64dc7dcd7aadb8a0fe86deb6,,,,,,,sngl,resources/Empty.png,resources/DR.BMP,WildCard_NonEx,0.407407407,-0.00462963,1,0,0,0.7453,optionRight,55,2585,2,2,0,2,0,1,,,,,,,,,,,,,,,,,,,,,,,,,,,,,,,,,,,,,,,
,,,,,,,,2023-08-16_08h43.16.755,HF_wild_card,2022.2.4,Win32,59.97001499,634bd25388a86856529729a4,64d2fd46c836a06233681665,64dc7dcd7aadb8a0fe86deb6,,,,,,,ctch,resources/DB.BMP,resources/DY.BMP,Door3,-0.242592593,-0.005555556,1,0,0,0.7785,optionLeft,70,2655,2,3,0,3,0,1,,,,,,,,,,,,,,,,,,,,,,,,,,,,,,,,,,,,,,,
,,,,,,,,2023-08-16_08h43.16.755,HF_wild_card,2022.2.4,Win32,59.97001499,634bd25388a86856529729a4,64d2fd46c836a06233681665,64dc7dcd7aadb8a0fe86deb6,,,,,,,decisionTrl,resources/DG.BMP,resources/DY.BMP,Door2,0.248148148,0.010185185,1,0,0,1.2635,optionRight,40,2695,2,4,0,4,0,1,,,,,,,,,,,,,,,,,,,,,,,,,,,,,,,,,,,,,,,
,,,,,,,,2023-08-16_08h43.16.755,HF_wild_card,2022.2.4,Win32,59.97001499,634bd25388a86856529729a4,64d2fd46c836a06233681665,64dc7dcd7aadb8a0fe86deb6,,,,,,,ctch,resources/DB.BMP,resources/DY.BMP,Door3,-0.151851852,0.023148148,1,0,0,1.6346,optionLeft,70,2765,2,5,0,5,0,1,,,,,,,,,,,,,,,,,,,,,,,,,,,,,,,,,,,,,,,
,,,,,,,,2023-08-16_08h43.16.755,HF_wild_card,2022.2.4,Win32,59.97001499,634bd25388a86856529729a4,64d2fd46c836a06233681665,64dc7dcd7aadb8a0fe86deb6,,,,,,,sngl,resources/DBN.BMP,resources/Empty.png,Door4,-0.276851852,0.034259259,1,0,0,0.9517,optionLeft,60,2825,2,6,0,6,0,1,,,,,,,,,,,,,,,,,,,,,,,,,,,,,,,,,,,,,,,
,,,,,,,,2023-08-16_08h43.16.755,HF_wild_card,2022.2.4,Win32,59.97001499,634bd25388a86856529729a4,64d2fd46c836a06233681665,64dc7dcd7aadb8a0fe86deb6,,,,,,,sngl,resources/DG.BMP,resources/Empty.png,Door1,-0.126851852,0.02037037,1,0,0,0.6451,optionLeft,30,2855,2,7,0,7,0,1,,,,,,,,,,,,,,,,,,,,,,,,,,,,,,,,,,,,,,,
,,,,,,,,2023-08-16_08h43.16.755,HF_wild_card,2022.2.4,Win32,59.97001499,634bd25388a86856529729a4,64d2fd46c836a06233681665,64dc7dcd7aadb8a0fe86deb6,,,,,,,decisionTrl,resources/DR.BMP,resources/DBN.BMP,Door4,0.191666667,0.021296296,1,0,0,0.7313,optionRight,80,2935,2,8,0,8,0,1,,,,,,,,,,,,,,,,,,,,,,,,,,,,,,,,,,,,,,,
,,,,,,,,2023-08-16_08h43.16.755,HF_wild_card,2022.2.4,Win32,59.97001499,634bd25388a86856529729a4,64d2fd46c836a06233681665,64dc7dcd7aadb8a0fe86deb6,,,,,,,decisionTrl,resources/DB.BMP,resources/DBN.BMP,Door4,0.156481481,0.022222222,1,0,0,0.7149,optionRight,60,2995,2,9,0,9,0,1,,,,,,,,,,,,,,,,,,,,,,,,,,,,,,,,,,,,,,,
,,,,,,,,2023-08-16_08h43.16.755,HF_wild_card,2022.2.4,Win32,59.97001499,634bd25388a86856529729a4,64d2fd46c836a06233681665,64dc7dcd7aadb8a0fe86deb6,,,,,,,decisionTrl,resources/DY.BMP,resources/DR.BMP,Door2,-0.205555556,0.017592593,1,0,0,2.8652,optionLeft,40,3035,2,10,0,10,0,1,,,,,,,,,,,,,,,,,,,,,,,,,,,,,,,,,,,,,,,
,,,,,,,,2023-08-16_08h43.16.755,HF_wild_card,2022.2.4,Win32,59.97001499,634bd25388a86856529729a4,64d2fd46c836a06233681665,64dc7dcd7aadb8a0fe86deb6,,,,,,,decisionTrl,resources/DY.BMP,resources/DG.BMP,Door2,-0.188888889,0.006481481,1,0,0,1.2414,optionLeft,40,3075,2,11,0,11,0,1,,,,,,,,,,,,,,,,,,,,,,,,,,,,,,,,,,,,,,,
,,,,,,,,2023-08-16_08h43.16.755,HF_wild_card,2022.2.4,Win32,59.97001499,634bd25388a86856529729a4,64d2fd46c836a06233681665,64dc7dcd7aadb8a0fe86deb6,,,,,,,ctch,resources/DY.BMP,resources/DB.BMP,Door3,0.272222222,0.011111111,1,0,0,0.7643,optionRight,70,3145,2,12,0,12,0,1,,,,,,,,,,,,,,,,,,,,,,,,,,,,,,,,,,,,,,,
,,,,,,,,2023-08-16_08h43.16.755,HF_wild_card,2022.2.4,Win32,59.97001499,634bd25388a86856529729a4,64d2fd46c836a06233681665,64dc7dcd7aadb8a0fe86deb6,,,,,,,sngl,resources/Empty.png,resources/DBN.BMP,Door4,0.187962963,0.028703704,1,0,0,0.6945,optionRight,80,3225,2,13,0,13,0,1,,,,,,,,,,,,,,,,,,,,,,,,,,,,,,,,,,,,,,,
,,,,,,,,2023-08-16_08h43.16.755,HF_wild_card,2022.2.4,Win32,59.97001499,634bd25388a86856529729a4,64d2fd46c836a06233681665,64dc7dcd7aadb8a0fe86deb6,,,,,,,decisionTrl,resources/DG.BMP,resources/DY.BMP,Door2,0.186111111,0.025,1,0,0,1.4289,optionRight,20,3245,2,14,0,14,0,1,,,,,,,,,,,,,,,,,,,,,,,,,,,,,,,,,,,,,,,
,,,,,,,,2023-08-16_08h43.16.755,HF_wild_card,2022.2.4,Win32,59.97001499,634bd25388a86856529729a4,64d2fd46c836a06233681665,64dc7dcd7aadb8a0fe86deb6,,,,,,,sngl,resources/Empty.png,resources/DG.BMP,Door1,0.176851852,0.009259259,1,0,0,0.744,optionRight,30,3275,2,15,0,15,0,1,,,,,,,,,,,,,,,,,,,,,,,,,,,,,,,,,,,,,,,
,,,,,,,,2023-08-16_08h43.16.755,HF_wild_card,2022.2.4,Win32,59.97001499,634bd25388a86856529729a4,64d2fd46c836a06233681665,64dc7dcd7aadb8a0fe86deb6,,,,,,,sngl,resources/DR.BMP,resources/Empty.png,WildCard_NonEx,-0.269444444,0.00462963,1,0,0,0.5785,optionLeft,55,3330,2,16,0,16,0,1,,,,,,,,,,,,,,,,,,,,,,,,,,,,,,,,,,,,,,,
,,,,,,,,2023-08-16_08h43.16.755,HF_wild_card,2022.2.4,Win32,59.97001499,634bd25388a86856529729a4,64d2fd46c836a06233681665,64dc7dcd7aadb8a0fe86deb6,,,,,,,sngl,resources/DB.BMP,resources/Empty.png,Door3,-0.347222222,-0.017592593,1,0,0,0.5943,optionLeft,70,3400,2,17,0,17,0,1,,,,,,,,,,,,,,,,,,,,,,,,,,,,,,,,,,,,,,,
,,,,,,,,2023-08-16_08h43.16.755,HF_wild_card,2022.2.4,Win32,59.97001499,634bd25388a86856529729a4,64d2fd46c836a06233681665,64dc7dcd7aadb8a0fe86deb6,,,,,,,sngl,resources/Empty.png,resources/DB.BMP,Door3,0.2,0.011111111,1,0,0,0.6129,optionRight,70,3470,2,18,0,18,0,1,,,,,,,,,,,,,,,,,,,,,,,,,,,,,,,,,,,,,,,
,,,,,,,,2023-08-16_08h43.16.755,HF_wild_card,2022.2.4,Win32,59.97001499,634bd25388a86856529729a4,64d2fd46c836a06233681665,64dc7dcd7aadb8a0fe86deb6,,,,,,,ctch,resources/DBN.BMP,resources/DG.BMP,Door4,-0.160185185,-0.036111111,1,0,0,1.3332,optionLeft,60,3530,2,19,0,19,0,1,,,,,,,,,,,,,,,,,,,,,,,,,,,,,,,,,,,,,,,
,,,,,,,,2023-08-16_08h43.16.755,HF_wild_card,2022.2.4,Win32,59.97001499,634bd25388a86856529729a4,64d2fd46c836a06233681665,64dc7dcd7aadb8a0fe86deb6,,,,,,,ctch,resources/DG.BMP,resources/DBN.BMP,Door4,0.207407407,0.044444444,1,0,0,0.6962,optionRight,60,3590,2,20,0,20,0,1,,,,,,,,,,,,,,,,,,,,,,,,,,,,,,,,,,,,,,,
,,,,,,,,2023-08-16_08h43.16.755,HF_wild_card,2022.2.4,Win32,59.97001499,634bd25388a86856529729a4,64d2fd46c836a06233681665,64dc7dcd7aadb8a0fe86deb6,,,,,,,decisionTrl,resources/DG.BMP,resources/DR.BMP,WildCard_NonEx,0.212037037,0.038888889,1,0,0,2.2316,optionRight,55,3645,2,21,0,21,0,1,,,,,,,,,,,,,,,,,,,,,,,,,,,,,,,,,,,,,,,
,,,,,,,,2023-08-16_08h43.16.755,HF_wild_card,2022.2.4,Win32,59.97001499,634bd25388a86856529729a4,64d2fd46c836a06233681665,64dc7dcd7aadb8a0fe86deb6,,,,,,,decisionTrl,resources/DB.BMP,resources/DBN.BMP,Door4,0.314814815,0.057407407,1,0,0,0.699,optionRight,80,3725,2,22,0,22,0,1,,,,,,,,,,,,,,,,,,,,,,,,,,,,,,,,,,,,,,,
,,,,,,,,2023-08-16_08h43.16.755,HF_wild_card,2022.2.4,Win32,59.97001499,634bd25388a86856529729a4,64d2fd46c836a06233681665,64dc7dcd7aadb8a0fe86deb6,,,,,,,decisionTrl,resources/DY.BMP,resources/DG.BMP,Door2,-0.177777778,0.000925926,1,0,0,1.2798,optionLeft,40,3765,2,23,0,23,0,1,,,,,,,,,,,,,,,,,,,,,,,,,,,,,,,,,,,,,,,
,,,,,,,,2023-08-16_08h43.16.755,HF_wild_card,2022.2.4,Win32,59.97001499,634bd25388a86856529729a4,64d2fd46c836a06233681665,64dc7dcd7aadb8a0fe86deb6,,,,,,,decisionTrl,resources/DBN.BMP,resources/DB.BMP,Door3,0.24537037,0.032407407,1,0,0,0.6349,optionRight,70,3835,2,24,0,24,0,1,,,,,,,,,,,,,,,,,,,,,,,,,,,,,,,,,,,,,,,
,,,,,,,,2023-08-16_08h43.16.755,HF_wild_card,2022.2.4,Win32,59.97001499,634bd25388a86856529729a4,64d2fd46c836a06233681665,64dc7dcd7aadb8a0fe86deb6,,,,,,,decisionTrl,resources/DR.BMP,resources/DG.BMP,WildCard_NonEx,-0.114814815,-0.008333333,1,0,0,4.705,optionLeft,45,3880,2,25,0,25,0,1,,,,,,,,,,,,,,,,,,,,,,,,,,,,,,,,,,,,,,,
,,,,,,,,2023-08-16_08h43.16.755,HF_wild_card,2022.2.4,Win32,59.97001499,634bd25388a86856529729a4,64d2fd46c836a06233681665,64dc7dcd7aadb8a0fe86deb6,,,,,,,decisionTrl,resources/DY.BMP,resources/DG.BMP,Door2,-0.138888889,-0.02037037,1,0,0,4.0264,optionLeft,40,3920,2,26,0,26,0,1,,,,,,,,,,,,,,,,,,,,,,,,,,,,,,,,,,,,,,,
,,,,,,,,2023-08-16_08h43.16.755,HF_wild_card,2022.2.4,Win32,59.97001499,634bd25388a86856529729a4,64d2fd46c836a06233681665,64dc7dcd7aadb8a0fe86deb6,,,,,,,decisionTrl,resources/DR.BMP,resources/DB.BMP,Door3,0.133333333,0.022222222,1,0,0,1.0595,optionRight,70,3990,2,27,0,27,0,1,,,,,,,,,,,,,,,,,,,,,,,,,,,,,,,,,,,,,,,
,,,,,,,,2023-08-16_08h43.16.755,HF_wild_card,2022.2.4,Win32,59.97001499,634bd25388a86856529729a4,64d2fd46c836a06233681665,64dc7dcd7aadb8a0fe86deb6,,,,,,,sngl,resources/DR.BMP,resources/Empty.png,WildCard_NonEx,-0.24537037,0.001851852,1,0,0,0.7659,optionLeft,45,4035,2,28,0,28,0,1,,,,,,,,,,,,,,,,,,,,,,,,,,,,,,,,,,,,,,,
,,,,,,,,2023-08-16_08h43.16.755,HF_wild_card,2022.2.4,Win32,59.97001499,634bd25388a86856529729a4,64d2fd46c836a06233681665,64dc7dcd7aadb8a0fe86deb6,,,,,,,decisionTrl,resources/DR.BMP,resources/DY.BMP,Door2,0.437962963,-0.001851852,1,0,0,2.1808,optionRight,20,4055,2,29,0,29,0,1,,,,,,,,,,,,,,,,,,,,,,,,,,,,,,,,,,,,,,,
,,,,,,,,2023-08-16_08h43.16.755,HF_wild_card,2022.2.4,Win32,59.97001499,634bd25388a86856529729a4,64d2fd46c836a06233681665,64dc7dcd7aadb8a0fe86deb6,,,,,,,sngl,resources/Empty.png,resources/DR.BMP,WildCard_NonEx,0.314814815,0.028703704,1,0,0,0.6522,optionRight,45,4100,2,30,0,30,0,1,,,,,,,,,,,,,,,,,,,,,,,,,,,,,,,,,,,,,,,
,,,,,,,,2023-08-16_08h43.16.755,HF_wild_card,2022.2.4,Win32,59.97001499,634bd25388a86856529729a4,64d2fd46c836a06233681665,64dc7dcd7aadb8a0fe86deb6,,,,,,,ctch,resources/DBN.BMP,resources/DG.BMP,Door4,-0.288888889,0.02962963,1,0,0,0.7002,optionLeft,80,4180,2,31,0,31,0,1,,,,,,,,,,,,,,,,,,,,,,,,,,,,,,,,,,,,,,,
,,,,,,,,2023-08-16_08h43.16.755,HF_wild_card,2022.2.4,Win32,59.97001499,634bd25388a86856529729a4,64d2fd46c836a06233681665,64dc7dcd7aadb8a0fe86deb6,,,,,,,decisionTrl,resources/DBN.BMP,resources/DB.BMP,Door4,-0.286111111,0.02037037,1,0,0,2.8427,optionLeft,60,4240,2,32,0,32,0,1,,,,,,,,,,,,,,,,,,,,,,,,,,,,,,,,,,,,,,,
,,,,,,,,2023-08-16_08h43.16.755,HF_wild_card,2022.2.4,Win32,59.97001499,634bd25388a86856529729a4,64d2fd46c836a06233681665,64dc7dcd7aadb8a0fe86deb6,,,,,,,decisionTrl,resources/DB.BMP,resources/DR.BMP,Door3,-0.268518519,-0.059259259,1,0,0,0.6503,optionLeft,70,4310,2,33,0,33,0,1,,,,,,,,,,,,,,,,,,,,,,,,,,,,,,,,,,,,,,,
,,,,,,,,2023-08-16_08h43.16.755,HF_wild_card,2022.2.4,Win32,59.97001499,634bd25388a86856529729a4,64d2fd46c836a06233681665,64dc7dcd7aadb8a0fe86deb6,,,,,,,decisionTrl,resources/DB.BMP,resources/DBN.BMP,Door4,0.255555556,0.048148148,1,0,0,0.9979,optionRight,60,4370,2,34,0,34,0,1,,,,,,,,,,,,,,,,,,,,,,,,,,,,,,,,,,,,,,,
,,,,,,,,2023-08-16_08h43.16.755,HF_wild_card,2022.2.4,Win32,59.97001499,634bd25388a86856529729a4,64d2fd46c836a06233681665,64dc7dcd7aadb8a0fe86deb6,,,,,,,sngl,resources/Empty.png,resources/DY.BMP,Door2,0.234259259,0.056481481,1,0,0,0.6963,optionRight,40,4410,2,35,0,35,0,1,,,,,,,,,,,,,,,,,,,,,,,,,,,,,,,,,,,,,,,
,,,,,,,,2023-08-16_08h43.16.755,HF_wild_card,2022.2.4,Win32,59.97001499,634bd25388a86856529729a4,64d2fd46c836a06233681665,64dc7dcd7aadb8a0fe86deb6,,,,,,,decisionTrl,resources/DBN.BMP,resources/DB.BMP,Door4,-0.324074074,0.006481481,1,0,0,0.6792,optionLeft,60,4470,2,36,0,36,0,1,,,,,,,,,,,,,,,,,,,,,,,,,,,,,,,,,,,,,,,
,,,,,,,,2023-08-16_08h43.16.755,HF_wild_card,2022.2.4,Win32,59.97001499,634bd25388a86856529729a4,64d2fd46c836a06233681665,64dc7dcd7aadb8a0fe86deb6,,,,,,,ctch,resources/DG.BMP,resources/DBN.BMP,Door4,0.17962963,0.027777778,1,0,0,0.6783,optionRight,60,4530,2,37,0,37,0,1,,,,,,,,,,,,,,,,,,,,,,,,,,,,,,,,,,,,,,,
,,,,,,,,2023-08-16_08h43.16.755,HF_wild_card,2022.2.4,Win32,59.97001499,634bd25388a86856529729a4,64d2fd46c836a06233681665,64dc7dcd7aadb8a0fe86deb6,,,,,,,decisionTrl,resources/DBN.BMP,resources/DR.BMP,Door4,-0.230555556,-0.000925926,1,0,0,0.6315,optionLeft,80,4610,2,38,0,38,0,1,,,,,,,,,,,,,,,,,,,,,,,,,,,,,,,,,,,,,,,
,,,,,,,,2023-08-16_08h43.16.755,HF_wild_card,2022.2.4,Win32,59.97001499,634bd25388a86856529729a4,64d2fd46c836a06233681665,64dc7dcd7aadb8a0fe86deb6,,,,,,,decisionTrl,resources/DB.BMP,resources/DBN.BMP,Door4,0.389814815,0.049074074,1,0,0,1.0431,optionRight,80,4690,2,39,0,39,0,1,,,,,,,,,,,,,,,,,,,,,,,,,,,,,,,,,,,,,,,
,,,,,,,,2023-08-16_08h43.16.755,HF_wild_card,2022.2.4,Win32,59.97001499,634bd25388a86856529729a4,64d2fd46c836a06233681665,64dc7dcd7aadb8a0fe86deb6,,,,,,,decisionTrl,resources/DBN.BMP,resources/DB.BMP,Door4,-0.240740741,-0.010185185,1,0,0,0.5531,optionLeft,60,4750,2,40,0,40,0,1,,,,,,,,,,,,,,,,,,,,,,,,,,,,,,,,,,,,,,,
,,,,,,,,2023-08-16_08h43.16.755,HF_wild_card,2022.2.4,Win32,59.97001499,634bd25388a86856529729a4,64d2fd46c836a06233681665,64dc7dcd7aadb8a0fe86deb6,,,,,,,decisionTrl,resources/DG.BMP,resources/DY.BMP,Door2,0.276851852,0.008333333,1,0,0,1.2683,optionRight,20,4770,2,41,0,41,0,1,,,,,,,,,,,,,,,,,,,,,,,,,,,,,,,,,,,,,,,
,,,,,,,,2023-08-16_08h43.16.755,HF_wild_card,2022.2.4,Win32,59.97001499,634bd25388a86856529729a4,64d2fd46c836a06233681665,64dc7dcd7aadb8a0fe86deb6,,,,,,,decisionTrl,resources/DY.BMP,resources/DG.BMP,Door1,0.265740741,0.034259259,1,0,0,1.0796,optionRight,30,4800,2,42,0,42,0,1,,,,,,,,,,,,,,,,,,,,,,,,,,,,,,,,,,,,,,,
,,,,,,,,2023-08-16_08h43.16.755,HF_wild_card,2022.2.4,Win32,59.97001499,634bd25388a86856529729a4,64d2fd46c836a06233681665,64dc7dcd7aadb8a0fe86deb6,,,,,,,sngl,resources/DY.BMP,resources/Empty.png,Door2,-0.269444444,-0.018518519,1,0,0,0.9461,optionLeft,20,4820,2,43,0,43,0,1,,,,,,,,,,,,,,,,,,,,,,,,,,,,,,,,,,,,,,,
,,,,,,,,2023-08-16_08h43.16.755,HF_wild_card,2022.2.4,Win32,59.97001499,634bd25388a86856529729a4,64d2fd46c836a06233681665,64dc7dcd7aadb8a0fe86deb6,,,,,,,,,,,,,,,,,,,,,,,,,,1,0,1,0,1,,,,,,,,,,,,,,,,,,,,,,,,,,,,,,,,,,
,,,,,,,,2023-08-16_08h43.16.755,HF_wild_card,2022.2.4,Win32,59.97001499,634bd25388a86856529729a4,64d2fd46c836a06233681665,64dc7dcd7aadb8a0fe86deb6,,,,,,,ctch,resources/DB.BMP,resources/DY.BMP,Door3,-0.376851852,-0.053703704,1,0,0,2.2797,optionLeft,70,4890,3,0,0,0,0,1,,,,,,,,,,,,,,,,,,,,,,,,,,,,,,,,,,,,,,,
,,,,,,,,2023-08-16_08h43.16.755,HF_wild_card,2022.2.4,Win32,59.97001499,634bd25388a86856529729a4,64d2fd46c836a06233681665,64dc7dcd7aadb8a0fe86deb6,,,,,,,ctch,resources/DBN.BMP,resources/DG.BMP,Door4,-0.373148148,-0.015740741,1,0,0,0.6961,optionLeft,60,4950,3,1,0,1,0,1,,,,,,,,,,,,,,,,,,,,,,,,,,,,,,,,,,,,,,,
,,,,,,,,2023-08-16_08h43.16.755,HF_wild_card,2022.2.4,Win32,59.97001499,634bd25388a86856529729a4,64d2fd46c836a06233681665,64dc7dcd7aadb8a0fe86deb6,,,,,,,sngl,resources/Empty.png,resources/DR.BMP,WildCard_NonEx,0.128703704,0.02037037,1,0,0,0.7953,optionRight,45,4995,3,2,0,2,0,1,,,,,,,,,,,,,,,,,,,,,,,,,,,,,,,,,,,,,,,
,,,,,,,,2023-08-16_08h43.16.755,HF_wild_card,2022.2.4,Win32,59.97001499,634bd25388a86856529729a4,64d2fd46c836a06233681665,64dc7dcd7aadb8a0fe86deb6,,,,,,,decisionTrl,resources/DY.BMP,resources/DG.BMP,Door1,0.327777778,0.058333333,1,0,0,2.7469,optionRight,30,5025,3,3,0,3,0,1,,,,,,,,,,,,,,,,,,,,,,,,,,,,,,,,,,,,,,,
,,,,,,,,2023-08-16_08h43.16.755,HF_wild_card,2022.2.4,Win32,59.97001499,634bd25388a86856529729a4,64d2fd46c836a06233681665,64dc7dcd7aadb8a0fe86deb6,,,,,,,decisionTrl,resources/DG.BMP,resources/DY.BMP,Door1,-0.233333333,0.006481481,1,0,0,1.0462,optionLeft,30,5055,3,4,0,4,0,1,,,,,,,,,,,,,,,,,,,,,,,,,,,,,,,,,,,,,,,
,,,,,,,,2023-08-16_08h43.16.755,HF_wild_card,2022.2.4,Win32,59.97001499,634bd25388a86856529729a4,64d2fd46c836a06233681665,64dc7dcd7aadb8a0fe86deb6,,,,,,,decisionTrl,resources/DY.BMP,resources/DR.BMP,WildCard_NonEx,0.348148148,0.033333333,1,0,0,1.1809,optionRight,45,5100,3,5,0,5,0,1,,,,,,,,,,,,,,,,,,,,,,,,,,,,,,,,,,,,,,,
,,,,,,,,2023-08-16_08h43.16.755,HF_wild_card,2022.2.4,Win32,59.97001499,634bd25388a86856529729a4,64d2fd46c836a06233681665,64dc7dcd7aadb8a0fe86deb6,,,,,,,decisionTrl,resources/DR.BMP,resources/DBN.BMP,Door4,0.091666667,0.043518519,1,0,0,0.7287,optionRight,80,5180,3,6,0,6,0,1,,,,,,,,,,,,,,,,,,,,,,,,,,,,,,,,,,,,,,,
,,,,,,,,2023-08-16_08h43.16.755,HF_wild_card,2022.2.4,Win32,59.97001499,634bd25388a86856529729a4,64d2fd46c836a06233681665,64dc7dcd7aadb8a0fe86deb6,,,,,,,decisionTrl,resources/DBN.BMP,resources/DB.BMP,Door4,-0.151851852,-0.008333333,1,0,0,1.3004,optionLeft,60,5240,3,7,0,7,0,1,,,,,,,,,,,,,,,,,,,,,,,,,,,,,,,,,,,,,,,
,,,,,,,,2023-08-16_08h43.16.755,HF_wild_card,2022.2.4,Win32,59.97001499,634bd25388a86856529729a4,64d2fd46c836a06233681665,64dc7dcd7aadb8a0fe86deb6,,,,,,,ctch,resources/DG.BMP,resources/DBN.BMP,Door4,0.271296296,0.019444444,1,0,0,0.7802,optionRight,80,5320,3,8,0,8,0,1,,,,,,,,,,,,,,,,,,,,,,,,,,,,,,,,,,,,,,,
,,,,,,,,2023-08-16_08h43.16.755,HF_wild_card,2022.2.4,Win32,59.97001499,634bd25388a86856529729a4,64d2fd46c836a06233681665,64dc7dcd7aadb8a0fe86deb6,,,,,,,ctch,resources/DBN.BMP,resources/DG.BMP,Door4,-0.231481481,0.000925926,1,0,0,0.7316,optionLeft,80,5400,3,9,0,9,0,1,,,,,,,,,,,,,,,,,,,,,,,,,,,,,,,,,,,,,,,
,,,,,,,,2023-08-16_08h43.16.755,HF_wild_card,2022.2.4,Win32,59.97001499,634bd25388a86856529729a4,64d2fd46c836a06233681665,64dc7dcd7aadb8a0fe86deb6,,,,,,,decisionTrl,resources/DG.BMP,resources/DY.BMP,Door1,-0.260185185,0.034259259,1,0,0,1.499,optionLeft,30,5430,3,10,0,10,0,1,,,,,,,,,,,,,,,,,,,,,,,,,,,,,,,,,,,,,,,
,,,,,,,,2023-08-16_08h43.16.755,HF_wild_card,2022.2.4,Win32,59.97001499,634bd25388a86856529729a4,64d2fd46c836a06233681665,64dc7dcd7aadb8a0fe86deb6,,,,,,,sngl,resources/DY.BMP,resources/Empty.png,Door2,-0.231481481,0.006481481,1,0,0,0.6984,optionLeft,40,5470,3,11,0,11,0,1,,,,,,,,,,,,,,,,,,,,,,,,,,,,,,,,,,,,,,,
,,,,,,,,2023-08-16_08h43.16.755,HF_wild_card,2022.2.4,Win32,59.97001499,634bd25388a86856529729a4,64d2fd46c836a06233681665,64dc7dcd7aadb8a0fe86deb6,,,,,,,decisionTrl,resources/DY.BMP,resources/DG.BMP,Door2,-0.265740741,-0.002777778,1,0,0,1.1231,optionLeft,20,5490,3,12,0,12,0,1,,,,,,,,,,,,,,,,,,,,,,,,,,,,,,,,,,,,,,,
,,,,,,,,2023-08-16_08h43.16.755,HF_wild_card,2022.2.4,Win32,59.97001499,634bd25388a86856529729a4,64d2fd46c836a06233681665,64dc7dcd7aadb8a0fe86deb6,,,,,,,decisionTrl,resources/DB.BMP,resources/DBN.BMP,Door3,-0.311111111,-0.012962963,1,0,0,1.7911,optionLeft,70,5560,3,13,0,13,0,1,,,,,,,,,,,,,,,,,,,,,,,,,,,,,,,,,,,,,,,
,,,,,,,,2023-08-16_08h43.16.755,HF_wild_card,2022.2.4,Win32,59.97001499,634bd25388a86856529729a4,64d2fd46c836a06233681665,64dc7dcd7aadb8a0fe86deb6,,,,,,,sngl,resources/DG.BMP,resources/Empty.png,Door1,-0.181481481,-0.012962963,1,0,0,0.9032,optionLeft,30,5590,3,14,0,14,0,1,,,,,,,,,,,,,,,,,,,,,,,,,,,,,,,,,,,,,,,
,,,,,,,,2023-08-16_08h43.16.755,HF_wild_card,2022.2.4,Win32,59.97001499,634bd25388a86856529729a4,64d2fd46c836a06233681665,64dc7dcd7aadb8a0fe86deb6,,,,,,,decisionTrl,resources/DG.BMP,resources/DY.BMP,Door2,0.263888889,0.065740741,1,0,0,0.8168,optionRight,20,5610,3,15,0,15,0,1,,,,,,,,,,,,,,,,,,,,,,,,,,,,,,,,,,,,,,,
,,,,,,,,2023-08-16_08h43.16.755,HF_wild_card,2022.2.4,Win32,59.97001499,634bd25388a86856529729a4,64d2fd46c836a06233681665,64dc7dcd7aadb8a0fe86deb6,,,,,,,decisionTrl,resources/DY.BMP,resources/DG.BMP,Door1,0.20462963,0.034259259,1,0,0,0.8614,optionRight,30,5640,3,16,0,16,0,1,,,,,,,,,,,,,,,,,,,,,,,,,,,,,,,,,,,,,,,
,,,,,,,,2023-08-16_08h43.16.755,HF_wild_card,2022.2.4,Win32,59.97001499,634bd25388a86856529729a4,64d2fd46c836a06233681665,64dc7dcd7aadb8a0fe86deb6,,,,,,,decisionTrl,resources/DB.BMP,resources/DBN.BMP,Door3,-0.219444444,0.002777778,1,0,0,1.0185,optionLeft,70,5710,3,17,0,17,0,1,,,,,,,,,,,,,,,,,,,,,,,,,,,,,,,,,,,,,,,
,,,,,,,,2023-08-16_08h43.16.755,HF_wild_card,2022.2.4,Win32,59.97001499,634bd25388a86856529729a4,64d2fd46c836a06233681665,64dc7dcd7aadb8a0fe86deb6,,,,,,,sngl,resources/Empty.png,resources/DBN.BMP,Door4,0.294444444,0.032407407,1,0,0,0.7014,optionRight,60,5770,3,18,0,18,0,1,,,,,,,,,,,,,,,,,,,,,,,,,,,,,,,,,,,,,,,
,,,,,,,,2023-08-16_08h43.16.755,HF_wild_card,2022.2.4,Win32,59.97001499,634bd25388a86856529729a4,64d2fd46c836a06233681665,64dc7dcd7aadb8a0fe86deb6,,,,,,,sngl,resources/DR.BMP,resources/Empty.png,WildCard_NonEx,-0.277777778,0.007407407,1,0,0,0.705,optionLeft,45,5815,3,19,0,19,0,1,,,,,,,,,,,,,,,,,,,,,,,,,,,,,,,,,,,,,,,
,,,,,,,,2023-08-16_08h43.16.755,HF_wild_card,2022.2.4,Win32,59.97001499,634bd25388a86856529729a4,64d2fd46c836a06233681665,64dc7dcd7aadb8a0fe86deb6,,,,,,,sngl,resources/DR.BMP,resources/Empty.png,WildCard_NonEx,-0.25462963,0.013888889,1,0,0,0.7424,optionLeft,55,5870,3,20,0,20,0,1,,,,,,,,,,,,,,,,,,,,,,,,,,,,,,,,,,,,,,,
,,,,,,,,2023-08-16_08h43.16.755,HF_wild_card,2022.2.4,Win32,59.97001499,634bd25388a86856529729a4,64d2fd46c836a06233681665,64dc7dcd7aadb8a0fe86deb6,,,,,,,sngl,resources/Empty.png,resources/DY.BMP,Door2,0.399074074,0.032407407,1,0,0,0.5818,optionRight,20,5890,3,21,0,21,0,1,,,,,,,,,,,,,,,,,,,,,,,,,,,,,,,,,,,,,,,
,,,,,,,,2023-08-16_08h43.16.755,HF_wild_card,2022.2.4,Win32,59.97001499,634bd25388a86856529729a4,64d2fd46c836a06233681665,64dc7dcd7aadb8a0fe86deb6,,,,,,,decisionTrl,resources/DG.BMP,resources/DR.BMP,WildCard_NonEx,0.388888889,0.02962963,1,0,0,2.6123,optionRight,45,5935,3,22,0,22,0,1,,,,,,,,,,,,,,,,,,,,,,,,,,,,,,,,,,,,,,,
,,,,,,,,2023-08-16_08h43.16.755,HF_wild_card,2022.2.4,Win32,59.97001499,634bd25388a86856529729a4,64d2fd46c836a06233681665,64dc7dcd7aadb8a0fe86deb6,,,,,,,decisionTrl,resources/DB.BMP,resources/DBN.BMP,Door3,-0.273148148,-0.010185185,1,0,0,0.9222,optionLeft,70,6005,3,23,0,23,0,1,,,,,,,,,,,,,,,,,,,,,,,,,,,,,,,,,,,,,,,
,,,,,,,,2023-08-16_08h43.16.755,HF_wild_card,2022.2.4,Win32,59.97001499,634bd25388a86856529729a4,64d2fd46c836a06233681665,64dc7dcd7aadb8a0fe86deb6,,,,,,,sngl,resources/Empty.png,resources/DG.BMP,Door1,0.235185185,0.016666667,1,0,0,0.6871,optionRight,30,6035,3,24,0,24,0,1,,,,,,,,,,,,,,,,,,,,,,,,,,,,,,,,,,,,,,,
,,,,,,,,2023-08-16_08h43.16.755,HF_wild_card,2022.2.4,Win32,59.97001499,634bd25388a86856529729a4,64d2fd46c836a06233681665,64dc7dcd7aadb8a0fe86deb6,,,,,,,decisionTrl,resources/DG.BMP,resources/DY.BMP,Door1,-0.29537037,-0.015740741,1,0,0,1.6123,optionLeft,30,6065,3,25,0,25,0,1,,,,,,,,,,,,,,,,,,,,,,,,,,,,,,,,,,,,,,,
,,,,,,,,2023-08-16_08h43.16.755,HF_wild_card,2022.2.4,Win32,59.97001499,634bd25388a86856529729a4,64d2fd46c836a06233681665,64dc7dcd7aadb8a0fe86deb6,,,,,,,ctch,resources/DB.BMP,resources/DY.BMP,Door3,-0.274074074,-0.008333333,1,0,0,1.046,optionLeft,70,6135,3,26,0,26,0,1,,,,,,,,,,,,,,,,,,,,,,,,,,,,,,,,,,,,,,,
,,,,,,,,2023-08-16_08h43.16.755,HF_wild_card,2022.2.4,Win32,59.97001499,634bd25388a86856529729a4,64d2fd46c836a06233681665,64dc7dcd7aadb8a0fe86deb6,,,,,,,ctch,resources/DG.BMP,resources/DBN.BMP,Door4,0.240740741,0.031481481,1,0,0,1.1475,optionRight,80,6215,3,27,0,27,0,1,,,,,,,,,,,,,,,,,,,,,,,,,,,,,,,,,,,,,,,
,,,,,,,,2023-08-16_08h43.16.755,HF_wild_card,2022.2.4,Win32,59.97001499,634bd25388a86856529729a4,64d2fd46c836a06233681665,64dc7dcd7aadb8a0fe86deb6,,,,,,,sngl,resources/Empty.png,resources/DB.BMP,Door3,0.333333333,0.011111111,1,0,0,1.1786,optionRight,70,6285,3,28,0,28,0,1,,,,,,,,,,,,,,,,,,,,,,,,,,,,,,,,,,,,,,,
,,,,,,,,2023-08-16_08h43.16.755,HF_wild_card,2022.2.4,Win32,59.97001499,634bd25388a86856529729a4,64d2fd46c836a06233681665,64dc7dcd7aadb8a0fe86deb6,,,,,,,ctch,resources/DY.BMP,resources/DB.BMP,Door3,0.400925926,0.036111111,1,0,0,2.7989,optionRight,70,6355,3,29,0,29,0,1,,,,,,,,,,,,,,,,,,,,,,,,,,,,,,,,,,,,,,,
,,,,,,,,2023-08-16_08h43.16.755,HF_wild_card,2022.2.4,Win32,59.97001499,634bd25388a86856529729a4,64d2fd46c836a06233681665,64dc7dcd7aadb8a0fe86deb6,,,,,,,sngl,resources/DBN.BMP,resources/Empty.png,Door4,-0.233333333,0.000925926,1,0,0,0.5645,optionLeft,80,6435,3,30,0,30,0,1,,,,,,,,,,,,,,,,,,,,,,,,,,,,,,,,,,,,,,,
,,,,,,,,2023-08-16_08h43.16.755,HF_wild_card,2022.2.4,Win32,59.97001499,634bd25388a86856529729a4,64d2fd46c836a06233681665,64dc7dcd7aadb8a0fe86deb6,,,,,,,sngl,resources/DB.BMP,resources/Empty.png,Door3,-0.27962963,0.001851852,1,0,0,0.5878,optionLeft,70,6505,3,31,0,31,0,1,,,,,,,,,,,,,,,,,,,,,,,,,,,,,,,,,,,,,,,
,,,,,,,,2023-08-16_08h43.16.755,HF_wild_card,2022.2.4,Win32,59.97001499,634bd25388a86856529729a4,64d2fd46c836a06233681665,64dc7dcd7aadb8a0fe86deb6,,,,,,,decisionTrl,resources/DBN.BMP,resources/DB.BMP,Door3,0.244444444,0.028703704,1,0,0,1.3224,optionRight,70,6575,3,32,0,32,0,1,,,,,,,,,,,,,,,,,,,,,,,,,,,,,,,,,,,,,,,
,,,,,,,,2023-08-16_08h43.16.755,HF_wild_card,2022.2.4,Win32,59.97001499,634bd25388a86856529729a4,64d2fd46c836a06233681665,64dc7dcd7aadb8a0fe86deb6,,,,,,,sngl,resources/Empty.png,resources/DR.BMP,WildCard_NonEx,0.157407407,0.028703704,1,0,0,0.6126,optionRight,55,6630,3,33,0,33,0,1,,,,,,,,,,,,,,,,,,,,,,,,,,,,,,,,,,,,,,,
,,,,,,,,2023-08-16_08h43.16.755,HF_wild_card,2022.2.4,Win32,59.97001499,634bd25388a86856529729a4,64d2fd46c836a06233681665,64dc7dcd7aadb8a0fe86deb6,,,,,,,decisionTrl,resources/DB.BMP,resources/DR.BMP,Door3,-0.177777778,-0.016666667,1,0,0,0.7796,optionLeft,70,6700,3,34,0,34,0,1,,,,,,,,,,,,,,,,,,,,,,,,,,,,,,,,,,,,,,,
,,,,,,,,2023-08-16_08h43.16.755,HF_wild_card,2022.2.4,Win32,59.97001499,634bd25388a86856529729a4,64d2fd46c836a06233681665,64dc7dcd7aadb8a0fe86deb6,,,,,,,decisionTrl,resources/DY.BMP,resources/DG.BMP,Door1,0.168518519,0.009259259,1,0,0,1.4184,optionRight,30,6730,3,35,0,35,0,1,,,,,,,,,,,,,,,,,,,,,,,,,,,,,,,,,,,,,,,
,,,,,,,,2023-08-16_08h43.16.755,HF_wild_card,2022.2.4,Win32,59.97001499,634bd25388a86856529729a4,64d2fd46c836a06233681665,64dc7dcd7aadb8a0fe86deb6,,,,,,,decisionTrl,resources/DBN.BMP,resources/DB.BMP,Door3,0.17962963,0.016666667,1,0,0,1.066,optionRight,70,6800,3,36,0,36,0,1,,,,,,,,,,,,,,,,,,,,,,,,,,,,,,,,,,,,,,,
,,,,,,,,2023-08-16_08h43.16.755,HF_wild_card,2022.2.4,Win32,59.97001499,634bd25388a86856529729a4,64d2fd46c836a06233681665,64dc7dcd7aadb8a0fe86deb6,,,,,,,decisionTrl,resources/DR.BMP,resources/DG.BMP,Door1,0.214814815,0.025925926,1,0,0,1.0276,optionRight,30,6830,3,37,0,37,0,1,,,,,,,,,,,,,,,,,,,,,,,,,,,,,,,,,,,,,,,
,,,,,,,,2023-08-16_08h43.16.755,HF_wild_card,2022.2.4,Win32,59.97001499,634bd25388a86856529729a4,64d2fd46c836a06233681665,64dc7dcd7aadb8a0fe86deb6,,,,,,,ctch,resources/DY.BMP,resources/DB.BMP,Door3,0.255555556,0.011111111,1,0,0,1.2779,optionRight,70,6900,3,38,0,38,0,1,,,,,,,,,,,,,,,,,,,,,,,,,,,,,,,,,,,,,,,
,,,,,,,,2023-08-16_08h43.16.755,HF_wild_card,2022.2.4,Win32,59.97001499,634bd25388a86856529729a4,64d2fd46c836a06233681665,64dc7dcd7aadb8a0fe86deb6,,,,,,,decisionTrl,resources/DBN.BMP,resources/DR.BMP,Door4,-0.313888889,-0.02037037,1,0,0,1.414,optionLeft,80,6980,3,39,0,39,0,1,,,,,,,,,,,,,,,,,,,,,,,,,,,,,,,,,,,,,,,
,,,,,,,,2023-08-16_08h43.16.755,HF_wild_card,2022.2.4,Win32,59.97001499,634bd25388a86856529729a4,64d2fd46c836a06233681665,64dc7dcd7aadb8a0fe86deb6,,,,,,,decisionTrl,resources/DR.BMP,resources/DY.BMP,WildCard_NonEx,-0.330555556,0.006481481,1,0,0,1.505,optionLeft,55,7035,3,40,0,40,0,1,,,,,,,,,,,,,,,,,,,,,,,,,,,,,,,,,,,,,,,
,,,,,,,,2023-08-16_08h43.16.755,HF_wild_card,2022.2.4,Win32,59.97001499,634bd25388a86856529729a4,64d2fd46c836a06233681665,64dc7dcd7aadb8a0fe86deb6,,,,,,,decisionTrl,resources/DB.BMP,resources/DBN.BMP,Door3,-0.17037037,-0.012037037,1,0,0,1.2634,optionLeft,70,7105,3,41,0,41,0,1,,,,,,,,,,,,,,,,,,,,,,,,,,,,,,,,,,,,,,,
,,,,,,,,2023-08-16_08h43.16.755,HF_wild_card,2022.2.4,Win32,59.97001499,634bd25388a86856529729a4,64d2fd46c836a06233681665,64dc7dcd7aadb8a0fe86deb6,,,,,,,decisionTrl,resources/DR.BMP,resources/DB.BMP,Door3,0.166666667,0.022222222,1,0,0,0.8958,optionRight,70,7175,3,42,0,42,0,1,,,,,,,,,,,,,,,,,,,,,,,,,,,,,,,,,,,,,,,
,,,,,,,,2023-08-16_08h43.16.755,HF_wild_card,2022.2.4,Win32,59.97001499,634bd25388a86856529729a4,64d2fd46c836a06233681665,64dc7dcd7aadb8a0fe86deb6,,,,,,,decisionTrl,resources/DBN.BMP,resources/DB.BMP,Door3,0.137962963,0.026851852,1,0,0,0.9987,optionRight,70,7245,3,43,0,43,0,1,,,,,,,,,,,,,,,,,,,,,,,,,,,,,,,,,,,,,,,
,,,,,,,,2023-08-16_08h43.16.755,HF_wild_card,2022.2.4,Win32,59.97001499,634bd25388a86856529729a4,64d2fd46c836a06233681665,64dc7dcd7aadb8a0fe86deb6,,,,,,,,,,,,,,,,,,,,,,,,,,2,0,2,0,1,,,,,,,,,,,,,,,,,,,,,,,,,,,,,,,,,,
,,,,,,,,2023-08-16_08h43.16.755,HF_wild_card,2022.2.4,Win32,59.97001499,634bd25388a86856529729a4,64d2fd46c836a06233681665,64dc7dcd7aadb8a0fe86deb6,,,,,,,ctch,resources/DBN.BMP,resources/DG.BMP,Door4,-0.277777778,0.002777778,1,0,0,1.9231,optionLeft,60,7305,4,0,0,0,0,1,,,,,,,,,,,,,,,,,,,,,,,,,,,,,,,,,,,,,,,
,,,,,,,,2023-08-16_08h43.16.755,HF_wild_card,2022.2.4,Win32,59.97001499,634bd25388a86856529729a4,64d2fd46c836a06233681665,64dc7dcd7aadb8a0fe86deb6,,,,,,,decisionTrl,resources/DY.BMP,resources/DP.BMP,WildCard_Ex,0.215740741,0.012962963,1,0,0,1.2978,optionRight,5,7310,4,1,0,1,0,1,,,,,,,,,,,,,,,,,,,,,,,,,,,,,,,,,,,,,,,
,,,,,,,,2023-08-16_08h43.16.755,HF_wild_card,2022.2.4,Win32,59.97001499,634bd25388a86856529729a4,64d2fd46c836a06233681665,64dc7dcd7aadb8a0fe86deb6,,,,,,,decisionTrl,resources/DG.BMP,resources/DY.BMP,Door1,-0.207407407,-0.003703704,1,0,0,1.8483,optionLeft,30,7340,4,2,0,2,0,1,,,,,,,,,,,,,,,,,,,,,,,,,,,,,,,,,,,,,,,
,,,,,,,,2023-08-16_08h43.16.755,HF_wild_card,2022.2.4,Win32,59.97001499,634bd25388a86856529729a4,64d2fd46c836a06233681665,64dc7dcd7aadb8a0fe86deb6,,,,,,,decisionTrl,resources/DY.BMP,resources/DG.BMP,Door1,0.139814815,0.025,1,0,0,2.0658,optionRight,30,7370,4,3,0,3,0,1,,,,,,,,,,,,,,,,,,,,,,,,,,,,,,,,,,,,,,,
,,,,,,,,2023-08-16_08h43.16.755,HF_wild_card,2022.2.4,Win32,59.97001499,634bd25388a86856529729a4,64d2fd46c836a06233681665,64dc7dcd7aadb8a0fe86deb6,,,,,,,ctch,resources/DB.BMP,resources/DY.BMP,Door3,-0.223148148,0.00462963,1,0,0,0.8822,optionLeft,70,7440,4,4,0,4,0,1,,,,,,,,,,,,,,,,,,,,,,,,,,,,,,,,,,,,,,,
,,,,,,,,2023-08-16_08h43.16.755,HF_wild_card,2022.2.4,Win32,59.97001499,634bd25388a86856529729a4,64d2fd46c836a06233681665,64dc7dcd7aadb8a0fe86deb6,,,,,,,decisionTrl,resources/DBN.BMP,resources/DB.BMP,Door3,0.110185185,0.021296296,1,0,0,1.4235,optionRight,70,7510,4,5,0,5,0,1,,,,,,,,,,,,,,,,,,,,,,,,,,,,,,,,,,,,,,,
,,,,,,,,2023-08-16_08h43.16.755,HF_wild_card,2022.2.4,Win32,59.97001499,634bd25388a86856529729a4,64d2fd46c836a06233681665,64dc7dcd7aadb8a0fe86deb6,,,,,,,sngl,resources/DP.BMP,resources/Empty.png,WildCard_Ex,-0.19537037,-0.012037037,1,0,0,1.1132,optionLeft,95,7605,4,6,0,6,0,1,,,,,,,,,,,,,,,,,,,,,,,,,,,,,,,,,,,,,,,
,,,,,,,,2023-08-16_08h43.16.755,HF_wild_card,2022.2.4,Win32,59.97001499,634bd25388a86856529729a4,64d2fd46c836a06233681665,64dc7dcd7aadb8a0fe86deb6,,,,,,,sngl,resources/DBN.BMP,resources/Empty.png,Door4,-0.164814815,-0.003703704,1,0,0,0.9799,optionLeft,60,7665,4,7,0,7,0,1,,,,,,,,,,,,,,,,,,,,,,,,,,,,,,,,,,,,,,,
,,,,,,,,2023-08-16_08h43.16.755,HF_wild_card,2022.2.4,Win32,59.97001499,634bd25388a86856529729a4,64d2fd46c836a06233681665,64dc7dcd7aadb8a0fe86deb6,,,,,,,ctch,resources/DY.BMP,resources/DB.BMP,Door3,0.137962963,0.022222222,1,0,0,1.4817,optionRight,70,7735,4,8,0,8,0,1,,,,,,,,,,,,,,,,,,,,,,,,,,,,,,,,,,,,,,,
,,,,,,,,2023-08-16_08h43.16.755,HF_wild_card,2022.2.4,Win32,59.97001499,634bd25388a86856529729a4,64d2fd46c836a06233681665,64dc7dcd7aadb8a0fe86deb6,,,,,,,ctch,resources/DB.BMP,resources/DY.BMP,Door3,-0.284259259,0.009259259,1,0,0,1.7405,optionLeft,70,7805,4,9,0,9,0,1,,,,,,,,,,,,,,,,,,,,,,,,,,,,,,,,,,,,,,,
,,,,,,,,2023-08-16_08h43.16.755,HF_wild_card,2022.2.4,Win32,59.97001499,634bd25388a86856529729a4,64d2fd46c836a06233681665,64dc7dcd7aadb8a0fe86deb6,,,,,,,decisionTrl,resources/DY.BMP,resources/DG.BMP,Door1,0.187037037,0.023148148,1,0,0,0.8809,optionRight,30,7835,4,10,0,10,0,1,,,,,,,,,,,,,,,,,,,,,,,,,,,,,,,,,,,,,,,
,,,,,,,,2023-08-16_08h43.16.755,HF_wild_card,2022.2.4,Win32,59.97001499,634bd25388a86856529729a4,64d2fd46c836a06233681665,64dc7dcd7aadb8a0fe86deb6,,,,,,,sngl,resources/DG.BMP,resources/Empty.png,Door1,-0.125925926,0.000925926,1,0,0,0.7292,optionLeft,30,7865,4,11,0,11,0,1,,,,,,,,,,,,,,,,,,,,,,,,,,,,,,,,,,,,,,,
,,,,,,,,2023-08-16_08h43.16.755,HF_wild_card,2022.2.4,Win32,59.97001499,634bd25388a86856529729a4,64d2fd46c836a06233681665,64dc7dcd7aadb8a0fe86deb6,,,,,,,decisionTrl,resources/DG.BMP,resources/DY.BMP,Door1,-0.105555556,-0.002777778,1,0,0,0.9277,optionLeft,30,7895,4,12,0,12,0,1,,,,,,,,,,,,,,,,,,,,,,,,,,,,,,,,,,,,,,,
,,,,,,,,2023-08-16_08h43.16.755,HF_wild_card,2022.2.4,Win32,59.97001499,634bd25388a86856529729a4,64d2fd46c836a06233681665,64dc7dcd7aadb8a0fe86deb6,,,,,,,decisionTrl,resources/DP.BMP,resources/DG.BMP,WildCard_Ex,-0.167592593,-0.010185185,1,0,0,1.3968,optionLeft,95,7990,4,13,0,13,0,1,,,,,,,,,,,,,,,,,,,,,,,,,,,,,,,,,,,,,,,
,,,,,,,,2023-08-16_08h43.16.755,HF_wild_card,2022.2.4,Win32,59.97001499,634bd25388a86856529729a4,64d2fd46c836a06233681665,64dc7dcd7aadb8a0fe86deb6,,,,,,,sngl,resources/Empty.png,resources/DP.BMP,WildCard_Ex,0.240740741,-0.000925926,1,0,0,1.0296,optionRight,5,7995,4,14,0,14,0,1,,,,,,,,,,,,,,,,,,,,,,,,,,,,,,,,,,,,,,,
,,,,,,,,2023-08-16_08h43.16.755,HF_wild_card,2022.2.4,Win32,59.97001499,634bd25388a86856529729a4,64d2fd46c836a06233681665,64dc7dcd7aadb8a0fe86deb6,,,,,,,sngl,resources/Empty.png,resources/DB.BMP,Door3,0.187037037,-0.001851852,1,0,0,0.7786,optionRight,70,8065,4,15,0,15,0,1,,,,,,,,,,,,,,,,,,,,,,,,,,,,,,,,,,,,,,,
,,,,,,,,2023-08-16_08h43.16.755,HF_wild_card,2022.2.4,Win32,59.97001499,634bd25388a86856529729a4,64d2fd46c836a06233681665,64dc7dcd7aadb8a0fe86deb6,,,,,,,decisionTrl,resources/DG.BMP,resources/DP.BMP,WildCard_Ex,0.188888889,0.003703704,1,0,0,1.1418,optionRight,95,8160,4,16,0,16,0,1,,,,,,,,,,,,,,,,,,,,,,,,,,,,,,,,,,,,,,,
,,,,,,,,2023-08-16_08h43.16.755,HF_wild_card,2022.2.4,Win32,59.97001499,634bd25388a86856529729a4,64d2fd46c836a06233681665,64dc7dcd7aadb8a0fe86deb6,,,,,,,sngl,resources/Empty.png,resources/DP.BMP,WildCard_Ex,0.262037037,0.02037037,1,0,0,0.629,optionRight,95,8255,4,17,0,17,0,1,,,,,,,,,,,,,,,,,,,,,,,,,,,,,,,,,,,,,,,
,,,,,,,,2023-08-16_08h43.16.755,HF_wild_card,2022.2.4,Win32,59.97001499,634bd25388a86856529729a4,64d2fd46c836a06233681665,64dc7dcd7aadb8a0fe86deb6,,,,,,,ctch,resources/DY.BMP,resources/DB.BMP,Door3,0.27037037,0.024074074,1,0,0,2.8292,optionRight,70,8325,4,18,0,18,0,1,,,,,,,,,,,,,,,,,,,,,,,,,,,,,,,,,,,,,,,
,,,,,,,,2023-08-16_08h43.16.755,HF_wild_card,2022.2.4,Win32,59.97001499,634bd25388a86856529729a4,64d2fd46c836a06233681665,64dc7dcd7aadb8a0fe86deb6,,,,,,,decisionTrl,resources/DY.BMP,resources/DG.BMP,Door1,0.231481481,0.040740741,1,0,0,1.4708,optionRight,30,8355,4,19,0,19,0,1,,,,,,,,,,,,,,,,,,,,,,,,,,,,,,,,,,,,,,,
,,,,,,,,2023-08-16_08h43.16.755,HF_wild_card,2022.2.4,Win32,59.97001499,634bd25388a86856529729a4,64d2fd46c836a06233681665,64dc7dcd7aadb8a0fe86deb6,,,,,,,decisionTrl,resources/DBN.BMP,resources/DB.BMP,Door3,0.132407407,0.027777778,1,0,0,1.1287,optionRight,70,8425,4,20,0,20,0,1,,,,,,,,,,,,,,,,,,,,,,,,,,,,,,,,,,,,,,,
,,,,,,,,2023-08-16_08h43.16.755,HF_wild_card,2022.2.4,Win32,59.97001499,634bd25388a86856529729a4,64d2fd46c836a06233681665,64dc7dcd7aadb8a0fe86deb6,,,,,,,sngl,resources/DP.BMP,resources/Empty.png,WildCard_Ex,-0.162037037,-0.00462963,1,0,0,0.6384,optionLeft,5,8430,4,21,0,21,0,1,,,,,,,,,,,,,,,,,,,,,,,,,,,,,,,,,,,,,,,
,,,,,,,,2023-08-16_08h43.16.755,HF_wild_card,2022.2.4,Win32,59.97001499,634bd25388a86856529729a4,64d2fd46c836a06233681665,64dc7dcd7aadb8a0fe86deb6,,,,,,,decisionTrl,resources/DP.BMP,resources/DY.BMP,WildCard_Ex,-0.215740741,0.000925926,1,0,0,0.9959,optionLeft,95,8525,4,22,0,22,0,1,,,,,,,,,,,,,,,,,,,,,,,,,,,,,,,,,,,,,,,
,,,,,,,,2023-08-16_08h43.16.755,HF_wild_card,2022.2.4,Win32,59.97001499,634bd25388a86856529729a4,64d2fd46c836a06233681665,64dc7dcd7aadb8a0fe86deb6,,,,,,,decisionTrl,resources/DB.BMP,resources/DBN.BMP,Door4,0.35462963,0.014814815,1,0,0,2.2475,optionRight,80,8605,4,23,0,23,0,1,,,,,,,,,,,,,,,,,,,,,,,,,,,,,,,,,,,,,,,
,,,,,,,,2023-08-16_08h43.16.755,HF_wild_card,2022.2.4,Win32,59.97001499,634bd25388a86856529729a4,64d2fd46c836a06233681665,64dc7dcd7aadb8a0fe86deb6,,,,,,,decisionTrl,resources/DP.BMP,resources/DB.BMP,WildCard_Ex,-0.215740741,0.009259259,1,0,0,1.073,optionLeft,95,8700,4,24,0,24,0,1,,,,,,,,,,,,,,,,,,,,,,,,,,,,,,,,,,,,,,,
,,,,,,,,2023-08-16_08h43.16.755,HF_wild_card,2022.2.4,Win32,59.97001499,634bd25388a86856529729a4,64d2fd46c836a06233681665,64dc7dcd7aadb8a0fe86deb6,,,,,,,sngl,resources/Empty.png,resources/DG.BMP,Door1,0.207407407,0.037962963,1,0,0,0.5959,optionRight,30,8730,4,25,0,25,0,1,,,,,,,,,,,,,,,,,,,,,,,,,,,,,,,,,,,,,,,
,,,,,,,,2023-08-16_08h43.16.755,HF_wild_card,2022.2.4,Win32,59.97001499,634bd25388a86856529729a4,64d2fd46c836a06233681665,64dc7dcd7aadb8a0fe86deb6,,,,,,,sngl,resources/DB.BMP,resources/Empty.png,Door3,-0.24537037,0.019444444,1,0,0,0.5601,optionLeft,70,8800,4,26,0,26,0,1,,,,,,,,,,,,,,,,,,,,,,,,,,,,,,,,,,,,,,,
,,,,,,,,2023-08-16_08h43.16.755,HF_wild_card,2022.2.4,Win32,59.97001499,634bd25388a86856529729a4,64d2fd46c836a06233681665,64dc7dcd7aadb8a0fe86deb6,,,,,,,decisionTrl,resources/DP.BMP,resources/DBN.BMP,WildCard_Ex,-0.209259259,0,1,0,0,1.048,optionLeft,5,8805,4,27,0,27,0,1,,,,,,,,,,,,,,,,,,,,,,,,,,,,,,,,,,,,,,,
,,,,,,,,2023-08-16_08h43.16.755,HF_wild_card,2022.2.4,Win32,59.97001499,634bd25388a86856529729a4,64d2fd46c836a06233681665,64dc7dcd7aadb8a0fe86deb6,,,,,,,decisionTrl,resources/DG.BMP,resources/DY.BMP,Door1,-0.190740741,-0.005555556,1,0,0,1.6638,optionLeft,30,8835,4,28,0,28,0,1,,,,,,,,,,,,,,,,,,,,,,,,,,,,,,,,,,,,,,,
,,,,,,,,2023-08-16_08h43.16.755,HF_wild_card,2022.2.4,Win32,59.97001499,634bd25388a86856529729a4,64d2fd46c836a06233681665,64dc7dcd7aadb8a0fe86deb6,,,,,,,sngl,resources/DY.BMP,resources/Empty.png,Door2,-0.237037037,-0.02037037,1,0,0,0.6301,optionLeft,20,8855,4,29,0,29,0,1,,,,,,,,,,,,,,,,,,,,,,,,,,,,,,,,,,,,,,,
,,,,,,,,2023-08-16_08h43.16.755,HF_wild_card,2022.2.4,Win32,59.97001499,634bd25388a86856529729a4,64d2fd46c836a06233681665,64dc7dcd7aadb8a0fe86deb6,,,,,,,decisionTrl,resources/DG.BMP,resources/DY.BMP,Door2,0.209259259,0.010185185,1,0,0,0.9133,optionRight,20,8875,4,30,0,30,0,1,,,,,,,,,,,,,,,,,,,,,,,,,,,,,,,,,,,,,,,
,,,,,,,,2023-08-16_08h43.16.755,HF_wild_card,2022.2.4,Win32,59.97001499,634bd25388a86856529729a4,64d2fd46c836a06233681665,64dc7dcd7aadb8a0fe86deb6,,,,,,,decisionTrl,resources/DBN.BMP,resources/DP.BMP,WildCard_Ex,0.196296296,0.011111111,1,0,0,0.8705,optionRight,5,8880,4,31,0,31,0,1,,,,,,,,,,,,,,,,,,,,,,,,,,,,,,,,,,,,,,,
,,,,,,,,2023-08-16_08h43.16.755,HF_wild_card,2022.2.4,Win32,59.97001499,634bd25388a86856529729a4,64d2fd46c836a06233681665,64dc7dcd7aadb8a0fe86deb6,,,,,,,decisionTrl,resources/DBN.BMP,resources/DB.BMP,Door3,0.375925926,0.012962963,1,0,0,0.9768,optionRight,70,8950,4,32,0,32,0,1,,,,,,,,,,,,,,,,,,,,,,,,,,,,,,,,,,,,,,,
,,,,,,,,2023-08-16_08h43.16.755,HF_wild_card,2022.2.4,Win32,59.97001499,634bd25388a86856529729a4,64d2fd46c836a06233681665,64dc7dcd7aadb8a0fe86deb6,,,,,,,sngl,resources/Empty.png,resources/DBN.BMP,Door4,0.173148148,0.042592593,1,0,0,0.6954,optionRight,80,9030,4,33,0,33,0,1,,,,,,,,,,,,,,,,,,,,,,,,,,,,,,,,,,,,,,,
,,,,,,,,2023-08-16_08h43.16.755,HF_wild_card,2022.2.4,Win32,59.97001499,634bd25388a86856529729a4,64d2fd46c836a06233681665,64dc7dcd7aadb8a0fe86deb6,,,,,,,ctch,resources/DG.BMP,resources/DBN.BMP,Door4,0.243518519,0.040740741,1,0,0,0.9465,optionRight,80,9110,4,34,0,34,0,1,,,,,,,,,,,,,,,,,,,,,,,,,,,,,,,,,,,,,,,
,,,,,,,,2023-08-16_08h43.16.755,HF_wild_card,2022.2.4,Win32,59.97001499,634bd25388a86856529729a4,64d2fd46c836a06233681665,64dc7dcd7aadb8a0fe86deb6,,,,,,,decisionTrl,resources/DBN.BMP,resources/DB.BMP,Door4,-0.186111111,-0.006481481,1,0,0,1.133,optionLeft,80,9190,4,35,0,35,0,1,,,,,,,,,,,,,,,,,,,,,,,,,,,,,,,,,,,,,,,
,,,,,,,,2023-08-16_08h43.16.755,HF_wild_card,2022.2.4,Win32,59.97001499,634bd25388a86856529729a4,64d2fd46c836a06233681665,64dc7dcd7aadb8a0fe86deb6,,,,,,,ctch,resources/DBN.BMP,resources/DG.BMP,Door4,-0.184259259,-0.010185185,1,0,0,1.0638,optionLeft,60,9250,4,36,0,36,0,1,,,,,,,,,,,,,,,,,,,,,,,,,,,,,,,,,,,,,,,
,,,,,,,,2023-08-16_08h43.16.755,HF_wild_card,2022.2.4,Win32,59.97001499,634bd25388a86856529729a4,64d2fd46c836a06233681665,64dc7dcd7aadb8a0fe86deb6,,,,,,,decisionTrl,resources/DB.BMP,resources/DBN.BMP,Door4,0.239814815,0.046296296,1,0,0,1.1639,optionRight,80,9330,4,37,0,37,0,1,,,,,,,,,,,,,,,,,,,,,,,,,,,,,,,,,,,,,,,
,,,,,,,,2023-08-16_08h43.16.755,HF_wild_card,2022.2.4,Win32,59.97001499,634bd25388a86856529729a4,64d2fd46c836a06233681665,64dc7dcd7aadb8a0fe86deb6,,,,,,,decisionTrl,resources/DB.BMP,resources/DBN.BMP,Door4,-0.009259259,0.002777778,0,0,1,0.0734,optionRight,60,9390,4,38,0,38,0,1,,,,,,,,,,,,,,,,,,,,,,,,,,,,,,,,,,,,,,,
,,,,,,,,2023-08-16_08h43.16.755,HF_wild_card,2022.2.4,Win32,59.97001499,634bd25388a86856529729a4,64d2fd46c836a06233681665,64dc7dcd7aadb8a0fe86deb6,,,,,,,decisionTrl,resources/DB.BMP,resources/DP.BMP,WildCard_Ex,0.018518519,0.016666667,0,0,1,0.0908,optionRight,5,9395,4,39,0,39,0,1,,,,,,,,,,,,,,,,,,,,,,,,,,,,,,,,,,,,,,,
,,,,,,,,2023-08-16_08h43.16.755,HF_wild_card,2022.2.4,Win32,59.97001499,634bd25388a86856529729a4,64d2fd46c836a06233681665,64dc7dcd7aadb8a0fe86deb6,,,,,,,ctch,resources/DG.BMP,resources/DBN.BMP,Door4,-0.023148148,0.007407407,0,0,1,0.0782,optionRight,80,9475,4,40,0,40,0,1,,,,,,,,,,,,,,,,,,,,,,,,,,,,,,,,,,,,,,,
,,,,,,,,2023-08-16_08h43.16.755,HF_wild_card,2022.2.4,Win32,59.97001499,634bd25388a86856529729a4,64d2fd46c836a06233681665,64dc7dcd7aadb8a0fe86deb6,,,,,,,sngl,resources/Empty.png,resources/DY.BMP,Door2,-0.011111111,-0.006481481,0,0,1,0.0949,optionRight,40,9515,4,41,0,41,0,1,,,,,,,,,,,,,,,,,,,,,,,,,,,,,,,,,,,,,,,
,,,,,,,,2023-08-16_08h43.16.755,HF_wild_card,2022.2.4,Win32,59.97001499,634bd25388a86856529729a4,64d2fd46c836a06233681665,64dc7dcd7aadb8a0fe86deb6,,,,,,,decisionTrl,resources/DB.BMP,resources/DBN.BMP,Door4,-0.006481481,-0.005555556,0,0,1,0.0606,optionRight,80,9595,4,42,0,42,0,1,,,,,,,,,,,,,,,,,,,,,,,,,,,,,,,,,,,,,,,
,,,,,,,,2023-08-16_08h43.16.755,HF_wild_card,2022.2.4,Win32,59.97001499,634bd25388a86856529729a4,64d2fd46c836a06233681665,64dc7dcd7aadb8a0fe86deb6,,,,,,,decisionTrl,resources/DY.BMP,resources/DG.BMP,Door1,-0.013888889,-0.003703704,0,0,1,0.091,optionRight,30,9625,4,43,0,43,0,1,,,,,,,,,,,,,,,,,,,,,,,,,,,,,,,,,,,,,,,
,,,,,,,,2023-08-16_08h43.16.755,HF_wild_card,2022.2.4,Win32,59.97001499,634bd25388a86856529729a4,64d2fd46c836a06233681665,64dc7dcd7aadb8a0fe86deb6,,,,,,,,,,,,,,,,,,,,,,,,,,3,0,3,0,1,,,,,,,,,,,,,,,,,,,,,,,,,,,,,,,,,,
,,,,,,,,2023-08-16_08h43.16.755,HF_wild_card,2022.2.4,Win32,59.97001499,634bd25388a86856529729a4,64d2fd46c836a06233681665,64dc7dcd7aadb8a0fe86deb6,,,,,,,sngl,resources/Empty.png,resources/DB.BMP,Door3,0.051851852,-0.285185185,0,0,1,0.0864,optionRight,70,9695,5,0,0,0,0,1,,,,,,,,,,,,,,,,,,,,,,,,,,,,,,,,,,,,,,,
,,,,,,,,2023-08-16_08h43.16.755,HF_wild_card,2022.2.4,Win32,59.97001499,634bd25388a86856529729a4,64d2fd46c836a06233681665,64dc7dcd7aadb8a0fe86deb6,,,,,,,decisionTrl,resources/DY.BMP,resources/DG.BMP,Door1,0.008333333,0.00462963,0,0,1,0.1177,optionRight,30,9725,5,1,0,1,0,1,,,,,,,,,,,,,,,,,,,,,,,,,,,,,,,,,,,,,,,
,,,,,,,,2023-08-16_08h43.16.755,HF_wild_card,2022.2.4,Win32,59.97001499,634bd25388a86856529729a4,64d2fd46c836a06233681665,64dc7dcd7aadb8a0fe86deb6,,,,,,,decisionTrl,resources/DG.BMP,resources/DY.BMP,Door1,-0.015740741,-0.003703704,0,0,1,0.1108,optionLeft,30,9755,5,2,0,2,0,1,,,,,,,,,,,,,,,,,,,,,,,,,,,,,,,,,,,,,,,
,,,,,,,,2023-08-16_08h43.16.755,HF_wild_card,2022.2.4,Win32,59.97001499,634bd25388a86856529729a4,64d2fd46c836a06233681665,64dc7dcd7aadb8a0fe86deb6,,,,,,,decisionTrl,resources/DB.BMP,resources/DBN.BMP,Door4,0.011111111,-0.001851852,0,0,1,0.1108,optionRight,60,9815,5,3,0,3,0,1,,,,,,,,,,,,,,,,,,,,,,,,,,,,,,,,,,,,,,,
,,,,,,,,2023-08-16_08h43.16.755,HF_wild_card,2022.2.4,Win32,59.97001499,634bd25388a86856529729a4,64d2fd46c836a06233681665,64dc7dcd7aadb8a0fe86deb6,,,,,,,sngl,resources/DP.BMP,resources/Empty.png,WildCard_Ex,-0.008333333,0.012037037,0,0,1,0.0744,optionLeft,5,9820,5,4,0,4,0,1,,,,,,,,,,,,,,,,,,,,,,,,,,,,,,,,,,,,,,,
,,,,,,,,2023-08-16_08h43.16.755,HF_wild_card,2022.2.4,Win32,59.97001499,634bd25388a86856529729a4,64d2fd46c836a06233681665,64dc7dcd7aadb8a0fe86deb6,,,,,,,decisionTrl,resources/DG.BMP,resources/DP.BMP,WildCard_Ex,-0.000925926,-0.00462963,0,0,1,0.1057,optionRight,5,9825,5,5,0,5,0,1,,,,,,,,,,,,,,,,,,,,,,,,,,,,,,,,,,,,,,,
,,,,,,,,2023-08-16_08h43.16.755,HF_wild_card,2022.2.4,Win32,59.97001499,634bd25388a86856529729a4,64d2fd46c836a06233681665,64dc7dcd7aadb8a0fe86deb6,,,,,,,sngl,resources/Empty.png,resources/DY.BMP,Door2,-0.017592593,0.001851852,0,0,1,0.1447,optionRight,20,9845,5,6,0,6,0,1,,,,,,,,,,,,,,,,,,,,,,,,,,,,,,,,,,,,,,,
,,,,,,,,2023-08-16_08h43.16.755,HF_wild_card,2022.2.4,Win32,59.97001499,634bd25388a86856529729a4,64d2fd46c836a06233681665,64dc7dcd7aadb8a0fe86deb6,,,,,,,decisionTrl,resources/DBN.BMP,resources/DB.BMP,Door3,-0.02037037,0,0,0,1,0.0886,optionRight,70,9915,5,7,0,7,0,1,,,,,,,,,,,,,,,,,,,,,,,,,,,,,,,,,,,,,,,
,,,,,,,,2023-08-16_08h43.16.755,HF_wild_card,2022.2.4,Win32,59.97001499,634bd25388a86856529729a4,64d2fd46c836a06233681665,64dc7dcd7aadb8a0fe86deb6,,,,,,,ctch,resources/DG.BMP,resources/DBN.BMP,Door4,-0.017592593,0.012037037,0,0,1,0.1102,optionRight,60,9975,5,8,0,8,0,1,,,,,,,,,,,,,,,,,,,,,,,,,,,,,,,,,,,,,,,
,,,,,,,,2023-08-16_08h43.16.755,HF_wild_card,2022.2.4,Win32,59.97001499,634bd25388a86856529729a4,64d2fd46c836a06233681665,64dc7dcd7aadb8a0fe86deb6,,,,,,,decisionTrl,resources/DY.BMP,resources/DP.BMP,WildCard_Ex,-0.024074074,0.00462963,0,0,1,0.1101,optionRight,5,9980,5,9,0,9,0,1,,,,,,,,,,,,,,,,,,,,,,,,,,,,,,,,,,,,,,,
,,,,,,,,2023-08-16_08h43.16.755,HF_wild_card,2022.2.4,Win32,59.97001499,634bd25388a86856529729a4,64d2fd46c836a06233681665,64dc7dcd7aadb8a0fe86deb6,,,,,,,decisionTrl,resources/DBN.BMP,resources/DB.BMP,Door4,-0.001851852,-0.003703704,0,0,1,0.0786,optionLeft,60,10040,5,10,0,10,0,1,,,,,,,,,,,,,,,,,,,,,,,,,,,,,,,,,,,,,,,
,,,,,,,,2023-08-16_08h43.16.755,HF_wild_card,2022.2.4,Win32,59.97001499,634bd25388a86856529729a4,64d2fd46c836a06233681665,64dc7dcd7aadb8a0fe86deb6,,,,,,,sngl,resources/DB.BMP,resources/Empty.png,Door3,-0.009259259,0.00462963,0,0,1,0.0763,optionLeft,70,10110,5,11,0,11,0,1,,,,,,,,,,,,,,,,,,,,,,,,,,,,,,,,,,,,,,,
,,,,,,,,2023-08-16_08h43.16.755,HF_wild_card,2022.2.4,Win32,59.97001499,634bd25388a86856529729a4,64d2fd46c836a06233681665,64dc7dcd7aadb8a0fe86deb6,,,,,,,ctch,resources/DBN.BMP,resources/DG.BMP,Door4,0.015740741,-0.000925926,0,0,1,0.1331,optionLeft,60,10170,5,12,0,12,0,1,,,,,,,,,,,,,,,,,,,,,,,,,,,,,,,,,,,,,,,
,,,,,,,,2023-08-16_08h43.16.755,HF_wild_card,2022.2.4,Win32,59.97001499,634bd25388a86856529729a4,64d2fd46c836a06233681665,64dc7dcd7aadb8a0fe86deb6,,,,,,,decisionTrl,resources/DB.BMP,resources/DBN.BMP,Door3,0.02037037,-0.007407407,0,0,1,0.0878,optionLeft,70,10240,5,13,0,13,0,1,,,,,,,,,,,,,,,,,,,,,,,,,,,,,,,,,,,,,,,
,,,,,,,,2023-08-16_08h43.16.755,HF_wild_card,2022.2.4,Win32,59.97001499,634bd25388a86856529729a4,64d2fd46c836a06233681665,64dc7dcd7aadb8a0fe86deb6,,,,,,,decisionTrl,resources/DBN.BMP,resources/DB.BMP,Door3,0.002777778,0.012037037,0,0,1,0.0937,optionRight,70,10310,5,14,0,14,0,1,,,,,,,,,,,,,,,,,,,,,,,,,,,,,,,,,,,,,,,
,,,,,,,,2023-08-16_08h43.16.755,HF_wild_card,2022.2.4,Win32,59.97001499,634bd25388a86856529729a4,64d2fd46c836a06233681665,64dc7dcd7aadb8a0fe86deb6,,,,,,,decisionTrl,resources/DB.BMP,resources/DP.BMP,Door3,-0.012962963,0,0,0,1,0.0883,optionLeft,70,10380,5,15,0,15,0,1,,,,,,,,,,,,,,,,,,,,,,,,,,,,,,,,,,,,,,,
,,,,,,,,2023-08-16_08h43.16.755,HF_wild_card,2022.2.4,Win32,59.97001499,634bd25388a86856529729a4,64d2fd46c836a06233681665,64dc7dcd7aadb8a0fe86deb6,,,,,,,decisionTrl,resources/DP.BMP,resources/DY.BMP,WildCard_Ex,-0.000925926,0.008333333,0,0,1,0.0917,optionLeft,5,10385,5,16,0,16,0,1,,,,,,,,,,,,,,,,,,,,,,,,,,,,,,,,,,,,,,,
,,,,,,,,2023-08-16_08h43.16.755,HF_wild_card,2022.2.4,Win32,59.97001499,634bd25388a86856529729a4,64d2fd46c836a06233681665,64dc7dcd7aadb8a0fe86deb6,,,,,,,decisionTrl,resources/DBN.BMP,resources/DP.BMP,Door4,0.008333333,-0.000925926,0,0,1,0.0692,optionLeft,80,10465,5,17,0,17,0,1,,,,,,,,,,,,,,,,,,,,,,,,,,,,,,,,,,,,,,,
,,,,,,,,2023-08-16_08h43.16.755,HF_wild_card,2022.2.4,Win32,59.97001499,634bd25388a86856529729a4,64d2fd46c836a06233681665,64dc7dcd7aadb8a0fe86deb6,,,,,,,decisionTrl,resources/DY.BMP,resources/DG.BMP,Door2,0.00462963,-0.005555556,0,0,1,0.1352,optionLeft,40,10505,5,18,0,18,0,1,,,,,,,,,,,,,,,,,,,,,,,,,,,,,,,,,,,,,,,
,,,,,,,,2023-08-16_08h43.16.755,HF_wild_card,2022.2.4,Win32,59.97001499,634bd25388a86856529729a4,64d2fd46c836a06233681665,64dc7dcd7aadb8a0fe86deb6,,,,,,,sngl,resources/DG.BMP,resources/Empty.png,Door1,-0.001851852,-0.009259259,0,0,1,0.0747,optionLeft,30,10535,5,19,0,19,0,1,,,,,,,,,,,,,,,,,,,,,,,,,,,,,,,,,,,,,,,
,,,,,,,,2023-08-16_08h43.16.755,HF_wild_card,2022.2.4,Win32,59.97001499,634bd25388a86856529729a4,64d2fd46c836a06233681665,64dc7dcd7aadb8a0fe86deb6,,,,,,,sngl,resources/Empty.png,resources/DP.BMP,WildCard_Ex,0.003703704,0.000925926,0,0,1,0.1089,optionRight,95,10630,5,20,0,20,0,1,,,,,,,,,,,,,,,,,,,,,,,,,,,,,,,,,,,,,,,
,,,,,,,,2023-08-16_08h43.16.755,HF_wild_card,2022.2.4,Win32,59.97001499,634bd25388a86856529729a4,64d2fd46c836a06233681665,64dc7dcd7aadb8a0fe86deb6,,,,,,,decisionTrl,resources/DBN.BMP,resources/DB.BMP,Door4,0.011111111,0.010185185,0,0,1,0.041,optionLeft,80,10710,5,21,0,21,0,1,,,,,,,,,,,,,,,,,,,,,,,,,,,,,,,,,,,,,,,
,,,,,,,,2023-08-16_08h43.16.755,HF_wild_card,2022.2.4,Win32,59.97001499,634bd25388a86856529729a4,64d2fd46c836a06233681665,64dc7dcd7aadb8a0fe86deb6,,,,,,,sngl,resources/DP.BMP,resources/Empty.png,WildCard_Ex,-0.003703704,0.013888889,0,0,1,0.0787,optionLeft,95,10805,5,22,0,22,0,1,,,,,,,,,,,,,,,,,,,,,,,,,,,,,,,,,,,,,,,
,,,,,,,,2023-08-16_08h43.16.755,HF_wild_card,2022.2.4,Win32,59.97001499,634bd25388a86856529729a4,64d2fd46c836a06233681665,64dc7dcd7aadb8a0fe86deb6,,,,,,,ctch,resources/DG.BMP,resources/DBN.BMP,Door4,-0.003703704,-0.002777778,0,0,1,0.1078,optionRight,80,10885,5,23,0,23,0,1,,,,,,,,,,,,,,,,,,,,,,,,,,,,,,,,,,,,,,,
,,,,,,,,2023-08-16_08h43.16.755,HF_wild_card,2022.2.4,Win32,59.97001499,634bd25388a86856529729a4,64d2fd46c836a06233681665,64dc7dcd7aadb8a0fe86deb6,,,,,,,sngl,resources/Empty.png,resources/DBN.BMP,Door4,-0.015740741,-0.012037037,0,0,1,0.092,optionRight,60,10945,5,24,0,24,0,1,,,,,,,,,,,,,,,,,,,,,,,,,,,,,,,,,,,,,,,
,,,,,,,,2023-08-16_08h43.16.755,HF_wild_card,2022.2.4,Win32,59.97001499,634bd25388a86856529729a4,64d2fd46c836a06233681665,64dc7dcd7aadb8a0fe86deb6,,,,,,,decisionTrl,resources/DB.BMP,resources/DBN.BMP,Door4,-0.010185185,-0.011111111,0,0,1,0.0845,optionRight,80,11025,5,25,0,25,0,1,,,,,,,,,,,,,,,,,,,,,,,,,,,,,,,,,,,,,,,
,,,,,,,,2023-08-16_08h43.16.755,HF_wild_card,2022.2.4,Win32,59.97001499,634bd25388a86856529729a4,64d2fd46c836a06233681665,64dc7dcd7aadb8a0fe86deb6,,,,,,,ctch,resources/DBN.BMP,resources/DG.BMP,Door4,0,-0.001851852,0,0,1,0.1159,optionLeft,80,11105,5,26,0,26,0,1,,,,,,,,,,,,,,,,,,,,,,,,,,,,,,,,,,,,,,,
,,,,,,,,2023-08-16_08h43.16.755,HF_wild_card,2022.2.4,Win32,59.97001499,634bd25388a86856529729a4,64d2fd46c836a06233681665,64dc7dcd7aadb8a0fe86deb6,,,,,,,ctch,resources/DB.BMP,resources/DY.BMP,Door3,-0.003703704,-0.002777778,0,0,1,0.0839,optionLeft,70,11175,5,27,0,27,0,1,,,,,,,,,,,,,,,,,,,,,,,,,,,,,,,,,,,,,,,
,,,,,,,,2023-08-16_08h43.16.755,HF_wild_card,2022.2.4,Win32,59.97001499,634bd25388a86856529729a4,64d2fd46c836a06233681665,64dc7dcd7aadb8a0fe86deb6,,,,,,,decisionTrl,resources/DB.BMP,resources/DBN.BMP,Door4,-0.000925926,0,0,0,1,0.0873,optionRight,60,11235,5,28,0,28,0,1,,,,,,,,,,,,,,,,,,,,,,,,,,,,,,,,,,,,,,,
,,,,,,,,2023-08-16_08h43.16.755,HF_wild_card,2022.2.4,Win32,59.97001499,634bd25388a86856529729a4,64d2fd46c836a06233681665,64dc7dcd7aadb8a0fe86deb6,,,,,,,sngl,resources/DY.BMP,resources/Empty.png,Door2,-0.001851852,0.012962963,0,0,1,0.1032,optionLeft,40,11275,5,29,0,29,0,1,,,,,,,,,,,,,,,,,,,,,,,,,,,,,,,,,,,,,,,
,,,,,,,,2023-08-16_08h43.16.755,HF_wild_card,2022.2.4,Win32,59.97001499,634bd25388a86856529729a4,64d2fd46c836a06233681665,64dc7dcd7aadb8a0fe86deb6,,,,,,,ctch,resources/DB.BMP,resources/DY.BMP,Door3,0.012962963,-0.012962963,0,0,1,0.1147,optionLeft,70,11345,5,30,0,30,0,1,,,,,,,,,,,,,,,,,,,,,,,,,,,,,,,,,,,,,,,
,,,,,,,,2023-08-16_08h43.16.755,HF_wild_card,2022.2.4,Win32,59.97001499,634bd25388a86856529729a4,64d2fd46c836a06233681665,64dc7dcd7aadb8a0fe86deb6,,,,,,,decisionTrl,resources/DY.BMP,resources/DG.BMP,Door2,-0.02037037,0,0,0,1,0.1018,optionLeft,40,11385,5,31,0,31,0,1,,,,,,,,,,,,,,,,,,,,,,,,,,,,,,,,,,,,,,,
,,,,,,,,2023-08-16_08h43.16.755,HF_wild_card,2022.2.4,Win32,59.97001499,634bd25388a86856529729a4,64d2fd46c836a06233681665,64dc7dcd7aadb8a0fe86deb6,,,,,,,decisionTrl,resources/DG.BMP,resources/DY.BMP,Door2,0.016666667,-0.001851852,0,0,1,0.0888,optionRight,20,11405,5,32,0,32,0,1,,,,,,,,,,,,,,,,,,,,,,,,,,,,,,,,,,,,,,,
,,,,,,,,2023-08-16_08h43.16.755,HF_wild_card,2022.2.4,Win32,59.97001499,634bd25388a86856529729a4,64d2fd46c836a06233681665,64dc7dcd7aadb8a0fe86deb6,,,,,,,sngl,resources/DBN.BMP,resources/Empty.png,Door4,-0.019444444,-0.006481481,0,0,1,0.0818,optionLeft,80,11485,5,33,0,33,0,1,,,,,,,,,,,,,,,,,,,,,,,,,,,,,,,,,,,,,,,
,,,,,,,,2023-08-16_08h43.16.755,HF_wild_card,2022.2.4,Win32,59.97001499,634bd25388a86856529729a4,64d2fd46c836a06233681665,64dc7dcd7aadb8a0fe86deb6,,,,,,,decisionTrl,resources/DP.BMP,resources/DG.BMP,WildCard_Ex,0.001851852,-0.008333333,0,0,1,0.1093,optionLeft,5,11490,5,34,0,34,0,1,,,,,,,,,,,,,,,,,,,,,,,,,,,,,,,,,,,,,,,
,,,,,,,,2023-08-16_08h43.16.755,HF_wild_card,2022.2.4,Win32,59.97001499,634bd25388a86856529729a4,64d2fd46c836a06233681665,64dc7dcd7aadb8a0fe86deb6,,,,,,,decisionTrl,resources/DG.BMP,resources/DY.BMP,Door1,0,-0.001851852,0,0,1,0.091,optionLeft,30,11520,5,35,0,35,0,1,,,,,,,,,,,,,,,,,,,,,,,,,,,,,,,,,,,,,,,
,,,,,,,,2023-08-16_08h43.16.755,HF_wild_card,2022.2.4,Win32,59.97001499,634bd25388a86856529729a4,64d2fd46c836a06233681665,64dc7dcd7aadb8a0fe86deb6,,,,,,,decisionTrl,resources/DP.BMP,resources/DB.BMP,WildCard_Ex,-0.021296296,0.008333333,0,0,1,0.1249,optionLeft,5,11525,5,36,0,36,0,1,,,,,,,,,,,,,,,,,,,,,,,,,,,,,,,,,,,,,,,
,,,,,,,,2023-08-16_08h43.16.755,HF_wild_card,2022.2.4,Win32,59.97001499,634bd25388a86856529729a4,64d2fd46c836a06233681665,64dc7dcd7aadb8a0fe86deb6,,,,,,,ctch,resources/DY.BMP,resources/DB.BMP,Door3,-0.011111111,-0.002777778,0,0,1,0.1136,optionRight,70,11595,5,37,0,37,0,1,,,,,,,,,,,,,,,,,,,,,,,,,,,,,,,,,,,,,,,
,,,,,,,,2023-08-16_08h43.16.755,HF_wild_card,2022.2.4,Win32,59.97001499,634bd25388a86856529729a4,64d2fd46c836a06233681665,64dc7dcd7aadb8a0fe86deb6,,,,,,,sngl,resources/Empty.png,resources/DG.BMP,Door1,0.011111111,-0.002777778,0,0,1,0.097,optionRight,30,11625,5,38,0,38,0,1,,,,,,,,,,,,,,,,,,,,,,,,,,,,,,,,,,,,,,,
,,,,,,,,2023-08-16_08h43.16.755,HF_wild_card,2022.2.4,Win32,59.97001499,634bd25388a86856529729a4,64d2fd46c836a06233681665,64dc7dcd7aadb8a0fe86deb6,,,,,,,decisionTrl,resources/DG.BMP,resources/DY.BMP,Door1,-0.014814815,-0.009259259,0,0,1,0.0946,optionLeft,30,11655,5,39,0,39,0,1,,,,,,,,,,,,,,,,,,,,,,,,,,,,,,,,,,,,,,,
,,,,,,,,2023-08-16_08h43.16.755,HF_wild_card,2022.2.4,Win32,59.97001499,634bd25388a86856529729a4,64d2fd46c836a06233681665,64dc7dcd7aadb8a0fe86deb6,,,,,,,sngl,resources/Empty.png,resources/DP.BMP,WildCard_Ex,0.013888889,-0.009259259,0,0,1,0.0952,optionRight,5,11660,5,40,0,40,0,1,,,,,,,,,,,,,,,,,,,,,,,,,,,,,,,,,,,,,,,
,,,,,,,,2023-08-16_08h43.16.755,HF_wild_card,2022.2.4,Win32,59.97001499,634bd25388a86856529729a4,64d2fd46c836a06233681665,64dc7dcd7aadb8a0fe86deb6,,,,,,,ctch,resources/DY.BMP,resources/DB.BMP,Door3,0.00462963,-0.012037037,0,0,1,0.0952,optionRight,70,11730,5,41,0,41,0,1,,,,,,,,,,,,,,,,,,,,,,,,,,,,,,,,,,,,,,,
,,,,,,,,2023-08-16_08h43.16.755,HF_wild_card,2022.2.4,Win32,59.97001499,634bd25388a86856529729a4,64d2fd46c836a06233681665,64dc7dcd7aadb8a0fe86deb6,,,,,,,decisionTrl,resources/DP.BMP,resources/DBN.BMP,Door4,-0.012962963,-0.005555556,0,0,1,0.0956,optionRight,80,11810,5,42,0,42,0,1,,,,,,,,,,,,,,,,,,,,,,,,,,,,,,,,,,,,,,,
,,,,,,,,2023-08-16_08h43.16.755,HF_wild_card,2022.2.4,Win32,59.97001499,634bd25388a86856529729a4,64d2fd46c836a06233681665,64dc7dcd7aadb8a0fe86deb6,,,,,,,decisionTrl,resources/DY.BMP,resources/DG.BMP,Door2,-0.015740741,0.014814815,0,0,1,0.0762,optionLeft,20,11830,5,43,0,43,0,1,,,,,,,,,,,,,,,,,,,,,,,,,,,,,,,,,,,,,,,
,,,,,,,,2023-08-16_08h43.16.755,HF_wild_card,2022.2.4,Win32,59.97001499,634bd25388a86856529729a4,64d2fd46c836a06233681665,64dc7dcd7aadb8a0fe86deb6,,,,,,,,,,,,,,,,,,,,,,,,,,4,0,4,0,1,,,,,,,,,,,,,,,,,,,,,,,,,,,,,,,,,,
,,,,,,,,2023-08-16_08h43.16.755,HF_wild_card,2022.2.4,Win32,59.97001499,634bd25388a86856529729a4,64d2fd46c836a06233681665,64dc7dcd7aadb8a0fe86deb6,,,,,,,decisionTrl,resources/DP.BMP,resources/DBN.BMP,Door4,0.061111111,-0.280555556,0,0,1,0.0717,optionRight,80,11910,6,0,0,0,0,1,,,,,,,,,,,,,,,,,,,,,,,,,,,,,,,,,,,,,,,
,,,,,,,,2023-08-16_08h43.16.755,HF_wild_card,2022.2.4,Win32,59.97001499,634bd25388a86856529729a4,64d2fd46c836a06233681665,64dc7dcd7aadb8a0fe86deb6,,,,,,,sngl,resources/Empty.png,resources/DY.BMP,Door2,-0.021296296,0.001851852,0,0,1,0.0782,optionRight,40,11950,6,1,0,1,0,1,,,,,,,,,,,,,,,,,,,,,,,,,,,,,,,,,,,,,,,
,,,,,,,,2023-08-16_08h43.16.755,HF_wild_card,2022.2.4,Win32,59.97001499,634bd25388a86856529729a4,64d2fd46c836a06233681665,64dc7dcd7aadb8a0fe86deb6,,,,,,,decisionTrl,resources/DP.BMP,resources/DG.BMP,WildCard_Ex,-0.010185185,-0.013888889,0,0,1,0.0957,optionLeft,5,11955,6,2,0,2,0,1,,,,,,,,,,,,,,,,,,,,,,,,,,,,,,,,,,,,,,,
,,,,,,,,2023-08-16_08h43.16.755,HF_wild_card,2022.2.4,Win32,59.97001499,634bd25388a86856529729a4,64d2fd46c836a06233681665,64dc7dcd7aadb8a0fe86deb6,,,,,,,decisionTrl,resources/DB.BMP,resources/DBN.BMP,Door4,0.005555556,0.00462963,0,0,1,0.0785,optionRight,60,12015,6,3,0,3,0,1,,,,,,,,,,,,,,,,,,,,,,,,,,,,,,,,,,,,,,,
,,,,,,,,2023-08-16_08h43.16.755,HF_wild_card,2022.2.4,Win32,59.97001499,634bd25388a86856529729a4,64d2fd46c836a06233681665,64dc7dcd7aadb8a0fe86deb6,,,,,,,sngl,resources/Empty.png,resources/DBN.BMP,Door4,-0.017592593,0.005555556,0,0,1,0.1099,optionRight,80,12095,6,4,0,4,0,1,,,,,,,,,,,,,,,,,,,,,,,,,,,,,,,,,,,,,,,
,,,,,,,,2023-08-16_08h43.16.755,HF_wild_card,2022.2.4,Win32,59.97001499,634bd25388a86856529729a4,64d2fd46c836a06233681665,64dc7dcd7aadb8a0fe86deb6,,,,,,,sngl,resources/DB.BMP,resources/Empty.png,Door3,-0.003703704,-0.005555556,0,0,1,0.1452,optionLeft,70,12165,6,5,0,5,0,1,,,,,,,,,,,,,,,,,,,,,,,,,,,,,,,,,,,,,,,
,,,,,,,,2023-08-16_08h43.16.755,HF_wild_card,2022.2.4,Win32,59.97001499,634bd25388a86856529729a4,64d2fd46c836a06233681665,64dc7dcd7aadb8a0fe86deb6,,,,,,,decisionTrl,resources/DY.BMP,resources/DG.BMP,Door1,0.009259259,-0.014814815,0,0,1,0.1052,optionRight,30,12195,6,6,0,6,0,1,,,,,,,,,,,,,,,,,,,,,,,,,,,,,,,,,,,,,,,
,,,,,,,,2023-08-16_08h43.16.755,HF_wild_card,2022.2.4,Win32,59.97001499,634bd25388a86856529729a4,64d2fd46c836a06233681665,64dc7dcd7aadb8a0fe86deb6,,,,,,,decisionTrl,resources/DY.BMP,resources/DG.BMP,Door1,-0.012962963,-0.00462963,0,0,1,0.0875,optionRight,30,12225,6,7,0,7,0,1,,,,,,,,,,,,,,,,,,,,,,,,,,,,,,,,,,,,,,,
,,,,,,,,2023-08-16_08h43.16.755,HF_wild_card,2022.2.4,Win32,59.97001499,634bd25388a86856529729a4,64d2fd46c836a06233681665,64dc7dcd7aadb8a0fe86deb6,,,,,,,decisionTrl,resources/DG.BMP,resources/DY.BMP,Door1,-0.014814815,-0.003703704,0,0,1,0.0966,optionLeft,30,12255,6,8,0,8,0,1,,,,,,,,,,,,,,,,,,,,,,,,,,,,,,,,,,,,,,,
,,,,,,,,2023-08-16_08h43.16.755,HF_wild_card,2022.2.4,Win32,59.97001499,634bd25388a86856529729a4,64d2fd46c836a06233681665,64dc7dcd7aadb8a0fe86deb6,,,,,,,decisionTrl,resources/DBN.BMP,resources/DB.BMP,Door4,0.02037037,-0.009259259,0,0,1,0.1303,optionLeft,80,12335,6,9,0,9,0,1,,,,,,,,,,,,,,,,,,,,,,,,,,,,,,,,,,,,,,,
,,,,,,,,2023-08-16_08h43.16.755,HF_wild_card,2022.2.4,Win32,59.97001499,634bd25388a86856529729a4,64d2fd46c836a06233681665,64dc7dcd7aadb8a0fe86deb6,,,,,,,ctch,resources/DB.BMP,resources/DY.BMP,Door3,0.012037037,-0.014814815,0,0,1,0.0488,optionLeft,70,12405,6,10,0,10,0,1,,,,,,,,,,,,,,,,,,,,,,,,,,,,,,,,,,,,,,,
,,,,,,,,2023-08-16_08h43.16.755,HF_wild_card,2022.2.4,Win32,59.97001499,634bd25388a86856529729a4,64d2fd46c836a06233681665,64dc7dcd7aadb8a0fe86deb6,,,,,,,sngl,resources/Empty.png,resources/DB.BMP,Door3,0.012037037,0.001851852,0,0,1,0.0617,optionRight,70,12475,6,11,0,11,0,1,,,,,,,,,,,,,,,,,,,,,,,,,,,,,,,,,,,,,,,
,,,,,,,,2023-08-16_08h43.16.755,HF_wild_card,2022.2.4,Win32,59.97001499,634bd25388a86856529729a4,64d2fd46c836a06233681665,64dc7dcd7aadb8a0fe86deb6,,,,,,,decisionTrl,resources/DP.BMP,resources/DB.BMP,Door3,0.001851852,-0.016666667,0,0,1,0.1235,optionRight,70,12545,6,12,0,12,0,1,,,,,,,,,,,,,,,,,,,,,,,,,,,,,,,,,,,,,,,
,,,,,,,,2023-08-16_08h43.16.755,HF_wild_card,2022.2.4,Win32,59.97001499,634bd25388a86856529729a4,64d2fd46c836a06233681665,64dc7dcd7aadb8a0fe86deb6,,,,,,,ctch,resources/DBN.BMP,resources/DG.BMP,Door4,-0.015740741,-0.012037037,0,0,1,0.0781,optionLeft,60,12605,6,13,0,13,0,1,,,,,,,,,,,,,,,,,,,,,,,,,,,,,,,,,,,,,,,
,,,,,,,,2023-08-16_08h43.16.755,HF_wild_card,2022.2.4,Win32,59.97001499,634bd25388a86856529729a4,64d2fd46c836a06233681665,64dc7dcd7aadb8a0fe86deb6,,,,,,,decisionTrl,resources/DBN.BMP,resources/DB.BMP,Door4,0.014814815,-0.011111111,0,0,1,0.1078,optionLeft,80,12685,6,14,0,14,0,1,,,,,,,,,,,,,,,,,,,,,,,,,,,,,,,,,,,,,,,
,,,,,,,,2023-08-16_08h43.16.755,HF_wild_card,2022.2.4,Win32,59.97001499,634bd25388a86856529729a4,64d2fd46c836a06233681665,64dc7dcd7aadb8a0fe86deb6,,,,,,,ctch,resources/DG.BMP,resources/DBN.BMP,Door4,0.008333333,-0.007407407,0,0,1,0.104,optionRight,80,12765,6,15,0,15,0,1,,,,,,,,,,,,,,,,,,,,,,,,,,,,,,,,,,,,,,,
,,,,,,,,2023-08-16_08h43.16.755,HF_wild_card,2022.2.4,Win32,59.97001499,634bd25388a86856529729a4,64d2fd46c836a06233681665,64dc7dcd7aadb8a0fe86deb6,,,,,,,sngl,resources/Empty.png,resources/DP.BMP,WildCard_Ex,-0.009259259,-0.010185185,0,0,1,0.0946,optionRight,5,12770,6,16,0,16,0,1,,,,,,,,,,,,,,,,,,,,,,,,,,,,,,,,,,,,,,,
,,,,,,,,2023-08-16_08h43.16.755,HF_wild_card,2022.2.4,Win32,59.97001499,634bd25388a86856529729a4,64d2fd46c836a06233681665,64dc7dcd7aadb8a0fe86deb6,,,,,,,decisionTrl,resources/DB.BMP,resources/DBN.BMP,Door4,0.015740741,-0.000925926,0,0,1,0.1119,optionRight,60,12830,6,17,0,17,0,1,,,,,,,,,,,,,,,,,,,,,,,,,,,,,,,,,,,,,,,
,,,,,,,,2023-08-16_08h43.16.755,HF_wild_card,2022.2.4,Win32,59.97001499,634bd25388a86856529729a4,64d2fd46c836a06233681665,64dc7dcd7aadb8a0fe86deb6,,,,,,,sngl,resources/Empty.png,resources/DP.BMP,WildCard_Ex,0.012962963,-0.00462963,0,0,1,0.0776,optionRight,95,12925,6,18,0,18,0,1,,,,,,,,,,,,,,,,,,,,,,,,,,,,,,,,,,,,,,,
,,,,,,,,2023-08-16_08h43.16.755,HF_wild_card,2022.2.4,Win32,59.97001499,634bd25388a86856529729a4,64d2fd46c836a06233681665,64dc7dcd7aadb8a0fe86deb6,,,,,,,decisionTrl,resources/DG.BMP,resources/DY.BMP,Door1,0.017592593,-0.000925926,0,0,1,0.0784,optionLeft,30,12955,6,19,0,19,0,1,,,,,,,,,,,,,,,,,,,,,,,,,,,,,,,,,,,,,,,
,,,,,,,,2023-08-16_08h43.16.755,HF_wild_card,2022.2.4,Win32,59.97001499,634bd25388a86856529729a4,64d2fd46c836a06233681665,64dc7dcd7aadb8a0fe86deb6,,,,,,,decisionTrl,resources/DB.BMP,resources/DP.BMP,Door3,-0.014814815,-0.009259259,0,0,1,0.0804,optionLeft,70,13025,6,20,0,20,0,1,,,,,,,,,,,,,,,,,,,,,,,,,,,,,,,,,,,,,,,
,,,,,,,,2023-08-16_08h43.16.755,HF_wild_card,2022.2.4,Win32,59.97001499,634bd25388a86856529729a4,64d2fd46c836a06233681665,64dc7dcd7aadb8a0fe86deb6,,,,,,,ctch,resources/DY.BMP,resources/DB.BMP,Door3,0.009259259,-0.000925926,0,0,1,0.0869,optionRight,70,13095,6,21,0,21,0,1,,,,,,,,,,,,,,,,,,,,,,,,,,,,,,,,,,,,,,,
,,,,,,,,2023-08-16_08h43.16.755,HF_wild_card,2022.2.4,Win32,59.97001499,634bd25388a86856529729a4,64d2fd46c836a06233681665,64dc7dcd7aadb8a0fe86deb6,,,,,,,ctch,resources/DG.BMP,resources/DBN.BMP,Door4,-0.010185185,0.009259259,0,0,1,0.0981,optionRight,60,13155,6,22,0,22,0,1,,,,,,,,,,,,,,,,,,,,,,,,,,,,,,,,,,,,,,,
,,,,,,,,2023-08-16_08h43.16.755,HF_wild_card,2022.2.4,Win32,59.97001499,634bd25388a86856529729a4,64d2fd46c836a06233681665,64dc7dcd7aadb8a0fe86deb6,,,,,,,sngl,resources/DP.BMP,resources/Empty.png,WildCard_Ex,-0.015740741,-0.009259259,0,0,1,0.0951,optionLeft,5,13160,6,23,0,23,0,1,,,,,,,,,,,,,,,,,,,,,,,,,,,,,,,,,,,,,,,
,,,,,,,,2023-08-16_08h43.16.755,HF_wild_card,2022.2.4,Win32,59.97001499,634bd25388a86856529729a4,64d2fd46c836a06233681665,64dc7dcd7aadb8a0fe86deb6,,,,,,,decisionTrl,resources/DG.BMP,resources/DY.BMP,Door2,0.016666667,-0.00462963,0,0,1,0.0703,optionRight,40,13200,6,24,0,24,0,1,,,,,,,,,,,,,,,,,,,,,,,,,,,,,,,,,,,,,,,
,,,,,,,,2023-08-16_08h43.16.755,HF_wild_card,2022.2.4,Win32,59.97001499,634bd25388a86856529729a4,64d2fd46c836a06233681665,64dc7dcd7aadb8a0fe86deb6,,,,,,,sngl,resources/DG.BMP,resources/Empty.png,Door1,0.019444444,-0.002777778,0,0,1,0.0767,optionLeft,30,13230,6,25,0,25,0,1,,,,,,,,,,,,,,,,,,,,,,,,,,,,,,,,,,,,,,,
,,,,,,,,2023-08-16_08h43.16.755,HF_wild_card,2022.2.4,Win32,59.97001499,634bd25388a86856529729a4,64d2fd46c836a06233681665,64dc7dcd7aadb8a0fe86deb6,,,,,,,sngl,resources/DY.BMP,resources/Empty.png,Door2,0.013888889,-0.011111111,0,0,1,0.0857,optionLeft,20,13250,6,26,0,26,0,1,,,,,,,,,,,,,,,,,,,,,,,,,,,,,,,,,,,,,,,
,,,,,,,,2023-08-16_08h43.16.755,HF_wild_card,2022.2.4,Win32,59.97001499,634bd25388a86856529729a4,64d2fd46c836a06233681665,64dc7dcd7aadb8a0fe86deb6,,,,,,,decisionTrl,resources/DBN.BMP,resources/DB.BMP,Door4,0.010185185,-0.010185185,0,0,1,0.1253,optionLeft,60,13310,6,27,0,27,0,1,,,,,,,,,,,,,,,,,,,,,,,,,,,,,,,,,,,,,,,
,,,,,,,,2023-08-16_08h43.16.755,HF_wild_card,2022.2.4,Win32,59.97001499,634bd25388a86856529729a4,64d2fd46c836a06233681665,64dc7dcd7aadb8a0fe86deb6,,,,,,,decisionTrl,resources/DB.BMP,resources/DBN.BMP,Door3,-0.010185185,-0.005555556,0,0,1,0.0891,optionLeft,70,13380,6,28,0,28,0,1,,,,,,,,,,,,,,,,,,,,,,,,,,,,,,,,,,,,,,,
,,,,,,,,2023-08-16_08h43.16.755,HF_wild_card,2022.2.4,Win32,59.97001499,634bd25388a86856529729a4,64d2fd46c836a06233681665,64dc7dcd7aadb8a0fe86deb6,,,,,,,decisionTrl,resources/DBN.BMP,resources/DP.BMP,Door4,0.016666667,-0.003703704,0,0,1,0.0943,optionLeft,80,13460,6,29,0,29,0,1,,,,,,,,,,,,,,,,,,,,,,,,,,,,,,,,,,,,,,,
,,,,,,,,2023-08-16_08h43.16.755,HF_wild_card,2022.2.4,Win32,59.97001499,634bd25388a86856529729a4,64d2fd46c836a06233681665,64dc7dcd7aadb8a0fe86deb6,,,,,,,decisionTrl,resources/DBN.BMP,resources/DB.BMP,Door4,0.00462963,-0.012962963,0,0,1,0.1127,optionLeft,80,13540,6,30,0,30,0,1,,,,,,,,,,,,,,,,,,,,,,,,,,,,,,,,,,,,,,,
,,,,,,,,2023-08-16_08h43.16.755,HF_wild_card,2022.2.4,Win32,59.97001499,634bd25388a86856529729a4,64d2fd46c836a06233681665,64dc7dcd7aadb8a0fe86deb6,,,,,,,decisionTrl,resources/DY.BMP,resources/DG.BMP,Door2,-0.008333333,-0.012962963,0,0,1,0.0934,optionLeft,20,13560,6,31,0,31,0,1,,,,,,,,,,,,,,,,,,,,,,,,,,,,,,,,,,,,,,,
,,,,,,,,2023-08-16_08h43.16.755,HF_wild_card,2022.2.4,Win32,59.97001499,634bd25388a86856529729a4,64d2fd46c836a06233681665,64dc7dcd7aadb8a0fe86deb6,,,,,,,ctch,resources/DBN.BMP,resources/DG.BMP,Door4,-0.003703704,-0.011111111,0,0,1,0.0832,optionLeft,80,13640,6,32,0,32,0,1,,,,,,,,,,,,,,,,,,,,,,,,,,,,,,,,,,,,,,,
,,,,,,,,2023-08-16_08h43.16.755,HF_wild_card,2022.2.4,Win32,59.97001499,634bd25388a86856529729a4,64d2fd46c836a06233681665,64dc7dcd7aadb8a0fe86deb6,,,,,,,decisionTrl,resources/DG.BMP,resources/DY.BMP,Door1,0.016666667,-0.002777778,0,0,1,0.1096,optionLeft,30,13670,6,33,0,33,0,1,,,,,,,,,,,,,,,,,,,,,,,,,,,,,,,,,,,,,,,
,,,,,,,,2023-08-16_08h43.16.755,HF_wild_card,2022.2.4,Win32,59.97001499,634bd25388a86856529729a4,64d2fd46c836a06233681665,64dc7dcd7aadb8a0fe86deb6,,,,,,,sngl,resources/DP.BMP,resources/Empty.png,WildCard_Ex,0.008333333,-0.000925926,0,0,1,0.0814,optionLeft,95,13765,6,34,0,34,0,1,,,,,,,,,,,,,,,,,,,,,,,,,,,,,,,,,,,,,,,
,,,,,,,,2023-08-16_08h43.16.755,HF_wild_card,2022.2.4,Win32,59.97001499,634bd25388a86856529729a4,64d2fd46c836a06233681665,64dc7dcd7aadb8a0fe86deb6,,,,,,,decisionTrl,resources/DB.BMP,resources/DBN.BMP,Door4,-0.00462963,-0.012037037,0,0,1,0.0788,optionRight,80,13845,6,35,0,35,0,1,,,,,,,,,,,,,,,,,,,,,,,,,,,,,,,,,,,,,,,
,,,,,,,,2023-08-16_08h43.16.755,HF_wild_card,2022.2.4,Win32,59.97001499,634bd25388a86856529729a4,64d2fd46c836a06233681665,64dc7dcd7aadb8a0fe86deb6,,,,,,,sngl,resources/Empty.png,resources/DG.BMP,Door1,-0.00462963,0.001851852,0,0,1,0.1145,optionRight,30,13875,6,36,0,36,0,1,,,,,,,,,,,,,,,,,,,,,,,,,,,,,,,,,,,,,,,
,,,,,,,,2023-08-16_08h43.16.755,HF_wild_card,2022.2.4,Win32,59.97001499,634bd25388a86856529729a4,64d2fd46c836a06233681665,64dc7dcd7aadb8a0fe86deb6,,,,,,,sngl,resources/DBN.BMP,resources/Empty.png,Door4,-0.021296296,-0.005555556,0,0,1,0.1619,optionLeft,60,13935,6,37,0,37,0,1,,,,,,,,,,,,,,,,,,,,,,,,,,,,,,,,,,,,,,,
,,,,,,,,2023-08-16_08h43.16.755,HF_wild_card,2022.2.4,Win32,59.97001499,634bd25388a86856529729a4,64d2fd46c836a06233681665,64dc7dcd7aadb8a0fe86deb6,,,,,,,decisionTrl,resources/DP.BMP,resources/DY.BMP,WildCard_Ex,0.012962963,-0.006481481,0,0,1,0.1284,optionLeft,5,13940,6,38,0,38,0,1,,,,,,,,,,,,,,,,,,,,,,,,,,,,,,,,,,,,,,,
,,,,,,,,2023-08-16_08h43.16.755,HF_wild_card,2022.2.4,Win32,59.97001499,634bd25388a86856529729a4,64d2fd46c836a06233681665,64dc7dcd7aadb8a0fe86deb6,,,,,,,decisionTrl,resources/DG.BMP,resources/DP.BMP,WildCard_Ex,0.010185185,-0.011111111,0,0,1,0.0857,optionRight,5,13945,6,39,0,39,0,1,,,,,,,,,,,,,,,,,,,,,,,,,,,,,,,,,,,,,,,
,,,,,,,,2023-08-16_08h43.16.755,HF_wild_card,2022.2.4,Win32,59.97001499,634bd25388a86856529729a4,64d2fd46c836a06233681665,64dc7dcd7aadb8a0fe86deb6,,,,,,,decisionTrl,resources/DY.BMP,resources/DP.BMP,Door2,-0.023148148,0.00462963,0,0,1,0.1273,optionLeft,40,13985,6,40,0,40,0,1,,,,,,,,,,,,,,,,,,,,,,,,,,,,,,,,,,,,,,,
,,,,,,,,2023-08-16_08h43.16.755,HF_wild_card,2022.2.4,Win32,59.97001499,634bd25388a86856529729a4,64d2fd46c836a06233681665,64dc7dcd7aadb8a0fe86deb6,,,,,,,decisionTrl,resources/DY.BMP,resources/DG.BMP,Door2,-0.006481481,0.002777778,0,0,1,0.1175,optionLeft,40,14025,6,41,0,41,0,1,,,,,,,,,,,,,,,,,,,,,,,,,,,,,,,,,,,,,,,
,,,,,,,,2023-08-16_08h43.16.755,HF_wild_card,2022.2.4,Win32,59.97001499,634bd25388a86856529729a4,64d2fd46c836a06233681665,64dc7dcd7aadb8a0fe86deb6,,,,,,,ctch,resources/DY.BMP,resources/DB.BMP,Door3,0.010185185,-0.000925926,0,0,1,0.1109,optionRight,70,14095,6,42,0,42,0,1,,,,,,,,,,,,,,,,,,,,,,,,,,,,,,,,,,,,,,,
,,,,,,,,2023-08-16_08h43.16.755,HF_wild_card,2022.2.4,Win32,59.97001499,634bd25388a86856529729a4,64d2fd46c836a06233681665,64dc7dcd7aadb8a0fe86deb6,,,,,,,ctch,resources/DB.BMP,resources/DY.BMP,Door3,0.013888889,0.00462963,0,0,1,0.0914,optionLeft,70,14165,6,43,0,43,0,1,,,,,,,,,,,,,,,,,,,,,,,,,,,,,,,,,,,,,,,
,,,,,,,,2023-08-16_08h43.16.755,HF_wild_card,2022.2.4,Win32,59.97001499,634bd25388a86856529729a4,64d2fd46c836a06233681665,64dc7dcd7aadb8a0fe86deb6,,,,,,,,,,,,,,,,,,,,,,,,,,5,0,5,0,1,,,,,,,,,,,,,,,,,,,,,,,,,,,,,,,,,,
,,,,,,,,2023-08-16_08h43.16.755,HF_wild_card,2022.2.4,Win32,59.97001499,634bd25388a86856529729a4,64d2fd46c836a06233681665,64dc7dcd7aadb8a0fe86deb6,,,,,,,decisionTrl,resources/DB.BMP,resources/DBN.BMP,Door4,0.247222222,0.009259259,1,0,1,2.047,optionRight,80,14245,7,0,0,0,0,1,,,,,,,,,,,,,,,,,,,,,,,,,,,,,,,,,,,,,,,
,,,,,,,,2023-08-16_08h43.16.755,HF_wild_card,2022.2.4,Win32,59.97001499,634bd25388a86856529729a4,64d2fd46c836a06233681665,64dc7dcd7aadb8a0fe86deb6,,,,,,,decisionTrl,resources/DBN.BMP,resources/DB.BMP,Door4,0.022222222,0.006481481,0,0,1,0.0881,optionLeft,60,14305,7,1,0,1,0,1,,,,,,,,,,,,,,,,,,,,,,,,,,,,,,,,,,,,,,,
,,,,,,,,2023-08-16_08h43.16.755,HF_wild_card,2022.2.4,Win32,59.97001499,634bd25388a86856529729a4,64d2fd46c836a06233681665,64dc7dcd7aadb8a0fe86deb6,,,,,,,decisionTrl,resources/DBN.BMP,resources/DB.BMP,Door4,0.009259259,-0.012962963,0,0,1,0.0964,optionLeft,80,14385,7,2,0,2,0,1,,,,,,,,,,,,,,,,,,,,,,,,,,,,,,,,,,,,,,,
,,,,,,,,2023-08-16_08h43.16.755,HF_wild_card,2022.2.4,Win32,59.97001499,634bd25388a86856529729a4,64d2fd46c836a06233681665,64dc7dcd7aadb8a0fe86deb6,,,,,,,decisionTrl,resources/DB.BMP,resources/DBN.BMP,Door3,0.012962963,-0.002777778,0,0,1,0.0786,optionLeft,70,14455,7,3,0,3,0,1,,,,,,,,,,,,,,,,,,,,,,,,,,,,,,,,,,,,,,,
,,,,,,,,2023-08-16_08h43.16.755,HF_wild_card,2022.2.4,Win32,59.97001499,634bd25388a86856529729a4,64d2fd46c836a06233681665,64dc7dcd7aadb8a0fe86deb6,,,,,,,ctch,resources/DY.BMP,resources/DB.BMP,Door3,-0.008333333,0.007407407,0,0,1,0.1189,optionRight,70,14525,7,4,0,4,0,1,,,,,,,,,,,,,,,,,,,,,,,,,,,,,,,,,,,,,,,
,,,,,,,,2023-08-16_08h43.16.755,HF_wild_card,2022.2.4,Win32,59.97001499,634bd25388a86856529729a4,64d2fd46c836a06233681665,64dc7dcd7aadb8a0fe86deb6,,,,,,,ctch,resources/DG.BMP,resources/DBN.BMP,Door4,-0.000925926,0.009259259,0,0,1,0.0952,optionRight,80,14605,7,5,0,5,0,1,,,,,,,,,,,,,,,,,,,,,,,,,,,,,,,,,,,,,,,
,,,,,,,,2023-08-16_08h43.16.755,HF_wild_card,2022.2.4,Win32,59.97001499,634bd25388a86856529729a4,64d2fd46c836a06233681665,64dc7dcd7aadb8a0fe86deb6,,,,,,,decisionTrl,resources/DG.BMP,resources/DY.BMP,Door2,-0.005555556,-0.005555556,0,0,1,0.1007,optionRight,40,14645,7,6,0,6,0,1,,,,,,,,,,,,,,,,,,,,,,,,,,,,,,,,,,,,,,,
,,,,,,,,2023-08-16_08h43.16.755,HF_wild_card,2022.2.4,Win32,59.97001499,634bd25388a86856529729a4,64d2fd46c836a06233681665,64dc7dcd7aadb8a0fe86deb6,,,,,,,decisionTrl,resources/DY.BMP,resources/DG.BMP,Door1,-0.016666667,0.00462963,0,0,1,0.0816,optionRight,30,14675,7,7,0,7,0,1,,,,,,,,,,,,,,,,,,,,,,,,,,,,,,,,,,,,,,,
,,,,,,,,2023-08-16_08h43.16.755,HF_wild_card,2022.2.4,Win32,59.97001499,634bd25388a86856529729a4,64d2fd46c836a06233681665,64dc7dcd7aadb8a0fe86deb6,,,,,,,decisionTrl,resources/DBN.BMP,resources/DB.BMP,Door4,-0.010185185,-0.001851852,0,0,1,0.096,optionLeft,80,14755,7,8,0,8,0,1,,,,,,,,,,,,,,,,,,,,,,,,,,,,,,,,,,,,,,,
,,,,,,,,2023-08-16_08h43.16.755,HF_wild_card,2022.2.4,Win32,59.97001499,634bd25388a86856529729a4,64d2fd46c836a06233681665,64dc7dcd7aadb8a0fe86deb6,,,,,,,ctch,resources/DBN.BMP,resources/DG.BMP,Door4,0.023148148,-0.009259259,0,0,1,0.1285,optionLeft,60,14815,7,9,0,9,0,1,,,,,,,,,,,,,,,,,,,,,,,,,,,,,,,,,,,,,,,
,,,,,,,,2023-08-16_08h43.16.755,HF_wild_card,2022.2.4,Win32,59.97001499,634bd25388a86856529729a4,64d2fd46c836a06233681665,64dc7dcd7aadb8a0fe86deb6,,,,,,,decisionTrl,resources/DG.BMP,resources/DY.BMP,Door2,0.007407407,-0.000925926,0,0,1,0.0691,optionRight,20,14835,7,10,0,10,0,1,,,,,,,,,,,,,,,,,,,,,,,,,,,,,,,,,,,,,,,
,,,,,,,,2023-08-16_08h43.16.755,HF_wild_card,2022.2.4,Win32,59.97001499,634bd25388a86856529729a4,64d2fd46c836a06233681665,64dc7dcd7aadb8a0fe86deb6,,,,,,,ctch,resources/DB.BMP,resources/DY.BMP,Door3,-0.011111111,0.00462963,0,0,1,0.0816,optionLeft,70,14905,7,11,0,11,0,1,,,,,,,,,,,,,,,,,,,,,,,,,,,,,,,,,,,,,,,
,,,,,,,,2023-08-16_08h43.16.755,HF_wild_card,2022.2.4,Win32,59.97001499,634bd25388a86856529729a4,64d2fd46c836a06233681665,64dc7dcd7aadb8a0fe86deb6,,,,,,,decisionTrl,resources/DY.BMP,resources/DG.BMP,Door1,0.012037037,-0.002777778,0,0,1,0.1354,optionRight,30,14935,7,12,0,12,0,1,,,,,,,,,,,,,,,,,,,,,,,,,,,,,,,,,,,,,,,
,,,,,,,,2023-08-16_08h43.16.755,HF_wild_card,2022.2.4,Win32,59.97001499,634bd25388a86856529729a4,64d2fd46c836a06233681665,64dc7dcd7aadb8a0fe86deb6,,,,,,,decisionTrl,resources/DBN.BMP,resources/DB.BMP,Door4,-0.019444444,0.003703704,0,0,1,0.0846,optionLeft,60,14995,7,13,0,13,0,1,,,,,,,,,,,,,,,,,,,,,,,,,,,,,,,,,,,,,,,
,,,,,,,,2023-08-16_08h43.16.755,HF_wild_card,2022.2.4,Win32,59.97001499,634bd25388a86856529729a4,64d2fd46c836a06233681665,64dc7dcd7aadb8a0fe86deb6,,,,,,,ctch,resources/DBN.BMP,resources/DG.BMP,Door4,-0.017592593,0.001851852,0,0,1,0.1083,optionLeft,80,15075,7,14,0,14,0,1,,,,,,,,,,,,,,,,,,,,,,,,,,,,,,,,,,,,,,,
,,,,,,,,2023-08-16_08h43.16.755,HF_wild_card,2022.2.4,Win32,59.97001499,634bd25388a86856529729a4,64d2fd46c836a06233681665,64dc7dcd7aadb8a0fe86deb6,,,,,,,decisionTrl,resources/DG.BMP,resources/DY.BMP,Door1,0.009259259,-0.005555556,0,0,1,0.0788,optionLeft,30,15105,7,15,0,15,0,1,,,,,,,,,,,,,,,,,,,,,,,,,,,,,,,,,,,,,,,
,,,,,,,,2023-08-16_08h43.16.755,HF_wild_card,2022.2.4,Win32,59.97001499,634bd25388a86856529729a4,64d2fd46c836a06233681665,64dc7dcd7aadb8a0fe86deb6,,,,,,,decisionTrl,resources/DY.BMP,resources/DG.BMP,Door1,0.002777778,-0.010185185,0,0,1,0.0793,optionRight,30,15135,7,16,0,16,0,1,,,,,,,,,,,,,,,,,,,,,,,,,,,,,,,,,,,,,,,
,,,,,,,,2023-08-16_08h43.16.755,HF_wild_card,2022.2.4,Win32,59.97001499,634bd25388a86856529729a4,64d2fd46c836a06233681665,64dc7dcd7aadb8a0fe86deb6,,,,,,,decisionTrl,resources/DY.BMP,resources/DG.BMP,Door1,-0.003703704,-0.002777778,0,0,1,0.0977,optionRight,30,15165,7,17,0,17,0,1,,,,,,,,,,,,,,,,,,,,,,,,,,,,,,,,,,,,,,,
,,,,,,,,2023-08-16_08h43.16.755,HF_wild_card,2022.2.4,Win32,59.97001499,634bd25388a86856529729a4,64d2fd46c836a06233681665,64dc7dcd7aadb8a0fe86deb6,,,,,,,ctch,resources/DB.BMP,resources/DY.BMP,Door3,-0.010185185,0.010185185,0,0,1,0.095,optionLeft,70,15235,7,18,0,18,0,1,,,,,,,,,,,,,,,,,,,,,,,,,,,,,,,,,,,,,,,
,,,,,,,,2023-08-16_08h43.16.755,HF_wild_card,2022.2.4,Win32,59.97001499,634bd25388a86856529729a4,64d2fd46c836a06233681665,64dc7dcd7aadb8a0fe86deb6,,,,,,,decisionTrl,resources/DBN.BMP,resources/DB.BMP,Door4,-0.009259259,-0.000925926,0,0,1,0.0907,optionLeft,80,15315,7,19,0,19,0,1,,,,,,,,,,,,,,,,,,,,,,,,,,,,,,,,,,,,,,,
,,,,,,,,2023-08-16_08h43.16.755,HF_wild_card,2022.2.4,Win32,59.97001499,634bd25388a86856529729a4,64d2fd46c836a06233681665,64dc7dcd7aadb8a0fe86deb6,,,,,,,decisionTrl,resources/DY.BMP,resources/DG.BMP,Door2,-0.007407407,0,0,0,1,0.0953,optionLeft,20,15335,7,20,0,20,0,1,,,,,,,,,,,,,,,,,,,,,,,,,,,,,,,,,,,,,,,
,,,,,,,,2023-08-16_08h43.16.755,HF_wild_card,2022.2.4,Win32,59.97001499,634bd25388a86856529729a4,64d2fd46c836a06233681665,64dc7dcd7aadb8a0fe86deb6,,,,,,,ctch,resources/DB.BMP,resources/DY.BMP,Door3,-0.003703704,0.012962963,0,0,1,0.1286,optionLeft,70,15405,7,21,0,21,0,1,,,,,,,,,,,,,,,,,,,,,,,,,,,,,,,,,,,,,,,
,,,,,,,,2023-08-16_08h43.16.755,HF_wild_card,2022.2.4,Win32,59.97001499,634bd25388a86856529729a4,64d2fd46c836a06233681665,64dc7dcd7aadb8a0fe86deb6,,,,,,,decisionTrl,resources/DY.BMP,resources/DG.BMP,Door2,0.000925926,0.006481481,0,0,1,0.0789,optionLeft,40,15445,7,22,0,22,0,1,,,,,,,,,,,,,,,,,,,,,,,,,,,,,,,,,,,,,,,
,,,,,,,,2023-08-16_08h43.16.755,HF_wild_card,2022.2.4,Win32,59.97001499,634bd25388a86856529729a4,64d2fd46c836a06233681665,64dc7dcd7aadb8a0fe86deb6,,,,,,,decisionTrl,resources/DB.BMP,resources/DBN.BMP,Door4,-0.010185185,0.003703704,0,0,1,0.0958,optionRight,60,15505,7,23,0,23,0,1,,,,,,,,,,,,,,,,,,,,,,,,,,,,,,,,,,,,,,,
,,,,,,,,2023-08-16_08h43.16.755,HF_wild_card,2022.2.4,Win32,59.97001499,634bd25388a86856529729a4,64d2fd46c836a06233681665,64dc7dcd7aadb8a0fe86deb6,,,,,,,ctch,resources/DBN.BMP,resources/DG.BMP,Door4,0.012037037,0.017592593,0,0,1,0.0955,optionLeft,60,15565,7,24,0,24,0,1,,,,,,,,,,,,,,,,,,,,,,,,,,,,,,,,,,,,,,,
,,,,,,,,2023-08-16_08h43.16.755,HF_wild_card,2022.2.4,Win32,59.97001499,634bd25388a86856529729a4,64d2fd46c836a06233681665,64dc7dcd7aadb8a0fe86deb6,,,,,,,decisionTrl,resources/DB.BMP,resources/DBN.BMP,Door4,0,0.000925926,0,0,1,0.0966,optionRight,80,15645,7,25,0,25,0,1,,,,,,,,,,,,,,,,,,,,,,,,,,,,,,,,,,,,,,,
,,,,,,,,2023-08-16_08h43.16.755,HF_wild_card,2022.2.4,Win32,59.97001499,634bd25388a86856529729a4,64d2fd46c836a06233681665,64dc7dcd7aadb8a0fe86deb6,,,,,,,decisionTrl,resources/DG.BMP,resources/DY.BMP,Door1,-0.012962963,-0.001851852,0,0,1,0.1073,optionLeft,30,15675,7,26,0,26,0,1,,,,,,,,,,,,,,,,,,,,,,,,,,,,,,,,,,,,,,,
,,,,,,,,2023-08-16_08h43.16.755,HF_wild_card,2022.2.4,Win32,59.97001499,634bd25388a86856529729a4,64d2fd46c836a06233681665,64dc7dcd7aadb8a0fe86deb6,,,,,,,ctch,resources/DY.BMP,resources/DB.BMP,Door3,0.010185185,-0.005555556,0,0,1,0.1044,optionRight,70,15745,7,27,0,27,0,1,,,,,,,,,,,,,,,,,,,,,,,,,,,,,,,,,,,,,,,
,,,,,,,,2023-08-16_08h43.16.755,HF_wild_card,2022.2.4,Win32,59.97001499,634bd25388a86856529729a4,64d2fd46c836a06233681665,64dc7dcd7aadb8a0fe86deb6,,,,,,,ctch,resources/DG.BMP,resources/DBN.BMP,Door4,-0.001851852,0.000925926,0,0,1,0.1162,optionRight,80,15825,7,28,0,28,0,1,,,,,,,,,,,,,,,,,,,,,,,,,,,,,,,,,,,,,,,
,,,,,,,,2023-08-16_08h43.16.755,HF_wild_card,2022.2.4,Win32,59.97001499,634bd25388a86856529729a4,64d2fd46c836a06233681665,64dc7dcd7aadb8a0fe86deb6,,,,,,,decisionTrl,resources/DG.BMP,resources/DY.BMP,Door1,-0.017592593,-0.002777778,0,0,1,0.1093,optionLeft,30,15855,7,29,0,29,0,1,,,,,,,,,,,,,,,,,,,,,,,,,,,,,,,,,,,,,,,
,,,,,,,,2023-08-16_08h43.16.755,HF_wild_card,2022.2.4,Win32,59.97001499,634bd25388a86856529729a4,64d2fd46c836a06233681665,64dc7dcd7aadb8a0fe86deb6,,,,,,,decisionTrl,resources/DB.BMP,resources/DBN.BMP,Door4,0.018518519,-0.002777778,0,0,1,0.0879,optionRight,80,15935,7,30,0,30,0,1,,,,,,,,,,,,,,,,,,,,,,,,,,,,,,,,,,,,,,,
,,,,,,,,2023-08-16_08h43.16.755,HF_wild_card,2022.2.4,Win32,59.97001499,634bd25388a86856529729a4,64d2fd46c836a06233681665,64dc7dcd7aadb8a0fe86deb6,,,,,,,ctch,resources/DY.BMP,resources/DB.BMP,Door3,-0.018518519,0.00462963,0,0,1,0.1858,optionRight,70,16005,7,31,0,31,0,1,,,,,,,,,,,,,,,,,,,,,,,,,,,,,,,,,,,,,,,
,,,,,,,,2023-08-16_08h43.16.755,HF_wild_card,2022.2.4,Win32,59.97001499,634bd25388a86856529729a4,64d2fd46c836a06233681665,64dc7dcd7aadb8a0fe86deb6,,,,,,,ctch,resources/DG.BMP,resources/DBN.BMP,Door4,-0.000925926,0,0,0,1,0.1326,optionRight,80,16085,7,32,0,32,0,1,,,,,,,,,,,,,,,,,,,,,,,,,,,,,,,,,,,,,,,
,,,,,,,,2023-08-16_08h43.16.755,HF_wild_card,2022.2.4,Win32,59.97001499,634bd25388a86856529729a4,64d2fd46c836a06233681665,64dc7dcd7aadb8a0fe86deb6,,,,,,,decisionTrl,resources/DBN.BMP,resources/DB.BMP,Door4,-0.018518519,-0.006481481,0,0,1,0.1115,optionLeft,60,16145,7,33,0,33,0,1,,,,,,,,,,,,,,,,,,,,,,,,,,,,,,,,,,,,,,,
,,,,,,,,2023-08-16_08h43.16.755,HF_wild_card,2022.2.4,Win32,59.97001499,634bd25388a86856529729a4,64d2fd46c836a06233681665,64dc7dcd7aadb8a0fe86deb6,,,,,,,decisionTrl,resources/DG.BMP,resources/DY.BMP,Door2,0.006481481,-0.002777778,0,0,1,0.1369,optionRight,20,16165,7,34,0,34,0,1,,,,,,,,,,,,,,,,,,,,,,,,,,,,,,,,,,,,,,,
,,,,,,,,2023-08-16_08h43.16.755,HF_wild_card,2022.2.4,Win32,59.97001499,634bd25388a86856529729a4,64d2fd46c836a06233681665,64dc7dcd7aadb8a0fe86deb6,,,,,,,decisionTrl,resources/DB.BMP,resources/DBN.BMP,Door4,-0.007407407,-0.002777778,0,0,1,0.0688,optionRight,60,16225,7,35,0,35,0,1,,,,,,,,,,,,,,,,,,,,,,,,,,,,,,,,,,,,,,,
,,,,,,,,2023-08-16_08h43.16.755,HF_wild_card,2022.2.4,Win32,59.97001499,634bd25388a86856529729a4,64d2fd46c836a06233681665,64dc7dcd7aadb8a0fe86deb6,,,,,,,,,,,,,,,,,,,,,,,,,,6,0,6,0,1,,,,,,,,,,,,,,,,,,,,,,,,,,,,,,,,,,
,,,,,,,,2023-08-16_08h43.16.755,HF_wild_card,2022.2.4,Win32,59.97001499,634bd25388a86856529729a4,64d2fd46c836a06233681665,64dc7dcd7aadb8a0fe86deb6,,,,,,,,,,,,,,,,,,,,,,,,,,,,,,,4,,,,,,,,,,,,,,,,,,,,,,,,,,,,,,,,,
,,,,,,,,2023-08-16_08h43.16.755,HF_wild_card,2022.2.4,Win32,59.97001499,634bd25388a86856529729a4,64d2fd46c836a06233681665,64dc7dcd7aadb8a0fe86deb6,,,,,,,,,,,,,,,,,,,,,,,,,,,,,,,,,,,,,,,,,,,,,,,,,,,,,,,,,,,,,,,,
,,,,,,,,2023-08-16_08h43.16.755,HF_wild_card,2022.2.4,Win32,59.97001499,634bd25388a86856529729a4,64d2fd46c836a06233681665,64dc7dcd7aadb8a0fe86deb6,,,,,,,,,,,,,,,,,,,,,,,,,,,,,,,,70,Door3,resources/DB.BMP,0,0,0,0,1,,,,,,,,,,,,,,,,,,,,,,,,,
,,,,,,,,2023-08-16_08h43.16.755,HF_wild_card,2022.2.4,Win32,59.97001499,634bd25388a86856529729a4,64d2fd46c836a06233681665,64dc7dcd7aadb8a0fe86deb6,,,,,,,,,,,,,,,,,,,,,,,,,,,,,,,,40,Door2,resources/DY.BMP,1,0,1,0,1,,,,,,,,,,,,,,,,,,,,,,,,,
,,,,,,,,2023-08-16_08h43.16.755,HF_wild_card,2022.2.4,Win32,59.97001499,634bd25388a86856529729a4,64d2fd46c836a06233681665,64dc7dcd7aadb8a0fe86deb6,,,,,,,,,,,,,,,,,,,,,,,,,,,,,,,,95,WC_extreme,resources/DP.BMP,2,0,2,0,1,,,,,,,,,,,,,,,,,,,,,,,,,
,,,,,,,,2023-08-16_08h43.16.755,HF_wild_card,2022.2.4,Win32,59.97001499,634bd25388a86856529729a4,64d2fd46c836a06233681665,64dc7dcd7aadb8a0fe86deb6,,,,,,,,,,,,,,,,,,,,,,,,,,,,,,,,30,Door1,resources/DG.BMP,3,0,3,0,1,,,,,,,,,,,,,,,,,,,,,,,,,
,,,,,,,,2023-08-16_08h43.16.755,HF_wild_card,2022.2.4,Win32,59.97001499,634bd25388a86856529729a4,64d2fd46c836a06233681665,64dc7dcd7aadb8a0fe86deb6,,,,,,,,,,,,,,,,,,,,,,,,,,,,,,,,45,WC_nonExtreme,resources/DR.BMP,4,0,4,0,1,,,,,,,,,,,,,,,,,,,,,,,,,
,,,,,,,,2023-08-16_08h43.16.755,HF_wild_card,2022.2.4,Win32,59.97001499,634bd25388a86856529729a4,64d2fd46c836a06233681665,64dc7dcd7aadb8a0fe86deb6,,,,,,,,,,,,,,,,,,,,,,,,,,,,,,,,80,Door4,resources/DBN.BMP,5,0,5,0,1,,,,,,,,,,,,,,,,,,,,,,,,,
,,,,,,,,2023-08-16_08h43.16.755,HF_wild_card,2022.2.4,Win32,59.97001499,634bd25388a86856529729a4,64d2fd46c836a06233681665,64dc7dcd7aadb8a0fe86deb6,,,,,,,,,,,,,,,,,,,,,,,,,,,,,,,,,,,,,,,,,,,,,,,,,,,,,,,,,,,,,,,,
,,,,,,,,2023-08-16_08h43.16.755,HF_wild_card,2022.2.4,Win32,59.97001499,634bd25388a86856529729a4,64d2fd46c836a06233681665,64dc7dcd7aadb8a0fe86deb6,,,,,,,,,,,,,,,,,,,,,,,,,,,,,,,,,,,,,,,,0,0,0,0,1,,,,,,,,,,,,,,,,,,,,
