Condition,Low fixed image (Door1),Low risky image (Door2),High fixed image (Door3),High risky image (Door4),Extreme Wild Card,NonExtreme Wild Card,,date,expName,psychopyVersion,OS,frameRate,PROLIFIC_PID,STUDY_ID,SESSION_ID,mouse_2.x,mouse_2.y,mouse_2.leftButton,mouse_2.midButton,mouse_2.rightButton,mouse_2.clicked_name,Trial Type,Left Option Image,Right Option Image,Chosen Door,mouse.x,mouse.y,mouse.leftButton,mouse.midButton,mouse.rightButton,mouse.time,mouse.clicked_name,Feedback,Cumulative Reward,Block,trial.thisRepN,trial.thisTrialN,trial.thisN,trial.thisIndex,trial.ran,blocks.thisRepN,blocks.thisTrialN,blocks.thisN,blocks.thisIndex,blocks.ran,Money conversion,First Outcome Reported,Shown Door (First Outcome),Displayed Image (First Outcome),outcomes.thisRepN,outcomes.thisTrialN,outcomes.thisN,outcomes.thisIndex,outcomes.ran,judgments.thisRepN,judgments.thisTrialN,judgments.thisN,judgments.thisIndex,judgments.ran,freqMouse.x,freqMouse.y,freqMouse.leftButton,freqMouse.midButton,freqMouse.rightButton,freqMouse.clicked_name,FQJ for first outcome,FQJ for second outcome,Shown Door,Displayed Image,trials.thisRepN,trials.thisTrialN,trials.thisN,trials.thisIndex,trials.ran,judgBlock.thisRepN,judgBlock.thisTrialN,judgBlock.thisN,judgBlock.thisIndex,judgBlock.ran
0,resources/DG.BMP,resources/DB.BMP,resources/DBN.BMP,resources/DR.BMP,resources/DP.BMP,resources/DY.BMP,,2023-08-06_08h21.30.776,HF_wild_card,2022.2.4,MacIntel,59.80861244,5d542c3a5af5900019bc80c4,64ce5acb97489d65b14ecc7a,64cf49c63c02593184695681,,,,,,,,,,,,,,,,,,,,,,,,,,,,,,,,,,,,,,,,,,,,,,,,,,,,,,,,,,,,,,,,
,,,,,,,,2023-08-06_08h21.30.776,HF_wild_card,2022.2.4,MacIntel,59.80861244,5d542c3a5af5900019bc80c4,64ce5acb97489d65b14ecc7a,64cf49c63c02593184695681,0.014205263,-0.418376429,1,0,0,agree,,,,,,,,,,,,,,,,,,,,,,,,,,,,,,,,,,,,,,,,,,,,,,,,,,,,,,,,,,
,,,,,,,,2023-08-06_08h21.30.776,HF_wild_card,2022.2.4,MacIntel,59.80861244,5d542c3a5af5900019bc80c4,64ce5acb97489d65b14ecc7a,64cf49c63c02593184695681,,,,,,,,,,,,,,,,,,,,,,,,,,,,,,,,,,,,,,,,,,,,,,,,,,,,,,,,,,,,,,,,
,,,,,,,,2023-08-06_08h21.30.776,HF_wild_card,2022.2.4,MacIntel,59.80861244,5d542c3a5af5900019bc80c4,64ce5acb97489d65b14ecc7a,64cf49c63c02593184695681,,,,,,,ctch,resources/DR.BMP,resources/DG.BMP,Door1,0.284557227,-0.074532748,1,0,0,3.1771,optionRight,30,30,1,0,0,0,0,1,,,,,,,,,,,,,,,,,,,,,,,,,,,,,,,,,,,,,,,
,,,,,,,,2023-08-06_08h21.30.776,HF_wild_card,2022.2.4,MacIntel,59.80861244,5d542c3a5af5900019bc80c4,64ce5acb97489d65b14ecc7a,64cf49c63c02593184695681,,,,,,,sngl,resources/DBN.BMP,resources/Empty.png,Door3,-0.401997587,0.049968295,1,0,0,2.1396,optionLeft,70,100,1,1,0,1,0,1,,,,,,,,,,,,,,,,,,,,,,,,,,,,,,,,,,,,,,,
,,,,,,,,2023-08-06_08h21.30.776,HF_wild_card,2022.2.4,MacIntel,59.80861244,5d542c3a5af5900019bc80c4,64ce5acb97489d65b14ecc7a,64cf49c63c02593184695681,,,,,,,sngl,resources/DP.BMP,resources/Empty.png,WildCard_Ex,-0.333807861,-0.007148528,1,0,0,1.3126,optionLeft,95,195,1,2,0,2,0,1,,,,,,,,,,,,,,,,,,,,,,,,,,,,,,,,,,,,,,,
,,,,,,,,2023-08-06_08h21.30.776,HF_wild_card,2022.2.4,MacIntel,59.80861244,5d542c3a5af5900019bc80c4,64ce5acb97489d65b14ecc7a,64cf49c63c02593184695681,,,,,,,sngl,resources/Empty.png,resources/DP.BMP,WildCard_Ex,0.470769309,-0.016556593,1,0,0,1.3371,optionRight,95,290,1,3,0,3,0,1,,,,,,,,,,,,,,,,,,,,,,,,,,,,,,,,,,,,,,,
,,,,,,,,2023-08-06_08h21.30.776,HF_wild_card,2022.2.4,MacIntel,59.80861244,5d542c3a5af5900019bc80c4,64ce5acb97489d65b14ecc7a,64cf49c63c02593184695681,,,,,,,decisionTrl,resources/DR.BMP,resources/DBN.BMP,Door3,0.417924398,0.004290449,1,0,0,1.5951,optionRight,70,360,1,4,0,4,0,1,,,,,,,,,,,,,,,,,,,,,,,,,,,,,,,,,,,,,,,
,,,,,,,,2023-08-06_08h21.30.776,HF_wild_card,2022.2.4,MacIntel,59.80861244,5d542c3a5af5900019bc80c4,64ce5acb97489d65b14ecc7a,64cf49c63c02593184695681,,,,,,,decisionTrl,resources/DG.BMP,resources/DB.BMP,Door2,0.364273878,0.041102269,1,0,0,1.9055,optionRight,40,400,1,5,0,5,0,1,,,,,,,,,,,,,,,,,,,,,,,,,,,,,,,,,,,,,,,
,,,,,,,,2023-08-06_08h21.30.776,HF_wild_card,2022.2.4,MacIntel,59.80861244,5d542c3a5af5900019bc80c4,64ce5acb97489d65b14ecc7a,64cf49c63c02593184695681,,,,,,,sngl,resources/Empty.png,resources/DB.BMP,Door2,0.374170087,0.022930716,1,0,0,1.3119,optionRight,20,420,1,6,0,6,0,1,,,,,,,,,,,,,,,,,,,,,,,,,,,,,,,,,,,,,,,
,,,,,,,,2023-08-06_08h21.30.776,HF_wild_card,2022.2.4,MacIntel,59.80861244,5d542c3a5af5900019bc80c4,64ce5acb97489d65b14ecc7a,64cf49c63c02593184695681,,,,,,,ctch,resources/DBN.BMP,resources/DB.BMP,Door3,-0.287563637,0.035297338,1,0,0,1.1505,optionLeft,70,490,1,7,0,7,0,1,,,,,,,,,,,,,,,,,,,,,,,,,,,,,,,,,,,,,,,
,,,,,,,,2023-08-06_08h21.30.776,HF_wild_card,2022.2.4,MacIntel,59.80861244,5d542c3a5af5900019bc80c4,64ce5acb97489d65b14ecc7a,64cf49c63c02593184695681,,,,,,,sngl,resources/DP.BMP,resources/Empty.png,WildCard_Ex,-0.347019054,0.032172668,1,0,0,1.1255,optionLeft,5,495,1,8,0,8,0,1,,,,,,,,,,,,,,,,,,,,,,,,,,,,,,,,,,,,,,,
,,,,,,,,2023-08-06_08h21.30.776,HF_wild_card,2022.2.4,MacIntel,59.80861244,5d542c3a5af5900019bc80c4,64ce5acb97489d65b14ecc7a,64cf49c63c02593184695681,,,,,,,decisionTrl,resources/DB.BMP,resources/DG.BMP,Door1,0.432004639,-0.000191413,1,0,0,1.1352,optionRight,30,525,1,9,0,9,0,1,,,,,,,,,,,,,,,,,,,,,,,,,,,,,,,,,,,,,,,
,,,,,,,,2023-08-06_08h21.30.776,HF_wild_card,2022.2.4,MacIntel,59.80861244,5d542c3a5af5900019bc80c4,64ce5acb97489d65b14ecc7a,64cf49c63c02593184695681,,,,,,,decisionTrl,resources/DR.BMP,resources/DBN.BMP,Door4,-0.473907539,0.047859183,1,0,0,1.9895,optionLeft,80,605,1,10,0,10,0,1,,,,,,,,,,,,,,,,,,,,,,,,,,,,,,,,,,,,,,,
,,,,,,,,2023-08-06_08h21.30.776,HF_wild_card,2022.2.4,MacIntel,59.80861244,5d542c3a5af5900019bc80c4,64ce5acb97489d65b14ecc7a,64cf49c63c02593184695681,,,,,,,decisionTrl,resources/DB.BMP,resources/DG.BMP,Door1,0.282418937,0.00414888,1,0,0,1.3063,optionRight,30,635,1,11,0,11,0,1,,,,,,,,,,,,,,,,,,,,,,,,,,,,,,,,,,,,,,,
,,,,,,,,2023-08-06_08h21.30.776,HF_wild_card,2022.2.4,MacIntel,59.80861244,5d542c3a5af5900019bc80c4,64ce5acb97489d65b14ecc7a,64cf49c63c02593184695681,,,,,,,decisionTrl,resources/DBN.BMP,resources/DR.BMP,Door3,-0.349274677,0.050070867,1,0,0,1.0769,optionLeft,70,705,1,12,0,12,0,1,,,,,,,,,,,,,,,,,,,,,,,,,,,,,,,,,,,,,,,
,,,,,,,,2023-08-06_08h21.30.776,HF_wild_card,2022.2.4,MacIntel,59.80861244,5d542c3a5af5900019bc80c4,64ce5acb97489d65b14ecc7a,64cf49c63c02593184695681,,,,,,,decisionTrl,resources/DBN.BMP,resources/DP.BMP,Door3,-0.358487347,0.036268889,1,0,0,1.227,optionLeft,70,775,1,13,0,13,0,1,,,,,,,,,,,,,,,,,,,,,,,,,,,,,,,,,,,,,,,
,,,,,,,,2023-08-06_08h21.30.776,HF_wild_card,2022.2.4,MacIntel,59.80861244,5d542c3a5af5900019bc80c4,64ce5acb97489d65b14ecc7a,64cf49c63c02593184695681,,,,,,,decisionTrl,resources/DG.BMP,resources/DB.BMP,Door1,-0.301468153,-0.008373969,1,0,0,2.1164,optionLeft,30,805,1,14,0,14,0,1,,,,,,,,,,,,,,,,,,,,,,,,,,,,,,,,,,,,,,,
,,,,,,,,2023-08-06_08h21.30.776,HF_wild_card,2022.2.4,MacIntel,59.80861244,5d542c3a5af5900019bc80c4,64ce5acb97489d65b14ecc7a,64cf49c63c02593184695681,,,,,,,decisionTrl,resources/DP.BMP,resources/DG.BMP,WildCard_Ex,-0.333090131,0.0064435,1,0,0,2.0577,optionLeft,95,900,1,15,0,15,0,1,,,,,,,,,,,,,,,,,,,,,,,,,,,,,,,,,,,,,,,
,,,,,,,,2023-08-06_08h21.30.776,HF_wild_card,2022.2.4,MacIntel,59.80861244,5d542c3a5af5900019bc80c4,64ce5acb97489d65b14ecc7a,64cf49c63c02593184695681,,,,,,,ctch,resources/DG.BMP,resources/DR.BMP,Door4,0.362545533,-0.040757616,1,0,0,1.3284,optionRight,80,980,1,16,0,16,0,1,,,,,,,,,,,,,,,,,,,,,,,,,,,,,,,,,,,,,,,
,,,,,,,,2023-08-06_08h21.30.776,HF_wild_card,2022.2.4,MacIntel,59.80861244,5d542c3a5af5900019bc80c4,64ce5acb97489d65b14ecc7a,64cf49c63c02593184695681,,,,,,,decisionTrl,resources/DBN.BMP,resources/DR.BMP,Door4,0.365377179,0.003128447,1,0,0,1.1692,optionRight,60,1040,1,17,0,17,0,1,,,,,,,,,,,,,,,,,,,,,,,,,,,,,,,,,,,,,,,
,,,,,,,,2023-08-06_08h21.30.776,HF_wild_card,2022.2.4,MacIntel,59.80861244,5d542c3a5af5900019bc80c4,64ce5acb97489d65b14ecc7a,64cf49c63c02593184695681,,,,,,,decisionTrl,resources/DBN.BMP,resources/DR.BMP,Door4,0.323556289,-0.025617911,1,0,0,1.1002,optionRight,60,1100,1,18,0,18,0,1,,,,,,,,,,,,,,,,,,,,,,,,,,,,,,,,,,,,,,,
,,,,,,,,2023-08-06_08h21.30.776,HF_wild_card,2022.2.4,MacIntel,59.80861244,5d542c3a5af5900019bc80c4,64ce5acb97489d65b14ecc7a,64cf49c63c02593184695681,,,,,,,decisionTrl,resources/DR.BMP,resources/DP.BMP,WildCard_Ex,0.37408715,0.012526728,1,0,0,1.6008,optionRight,95,1195,1,19,0,19,0,1,,,,,,,,,,,,,,,,,,,,,,,,,,,,,,,,,,,,,,,
,,,,,,,,2023-08-06_08h21.30.776,HF_wild_card,2022.2.4,MacIntel,59.80861244,5d542c3a5af5900019bc80c4,64ce5acb97489d65b14ecc7a,64cf49c63c02593184695681,,,,,,,sngl,resources/Empty.png,resources/DP.BMP,WildCard_Ex,0.330708799,-0.002500691,1,0,0,0.7296,optionRight,5,1200,1,20,0,20,0,1,,,,,,,,,,,,,,,,,,,,,,,,,,,,,,,,,,,,,,,
,,,,,,,,2023-08-06_08h21.30.776,HF_wild_card,2022.2.4,MacIntel,59.80861244,5d542c3a5af5900019bc80c4,64ce5acb97489d65b14ecc7a,64cf49c63c02593184695681,,,,,,,decisionTrl,resources/DP.BMP,resources/DBN.BMP,WildCard_Ex,-0.349567564,0.038021607,1,0,0,1.2068,optionLeft,5,1205,1,21,0,21,0,1,,,,,,,,,,,,,,,,,,,,,,,,,,,,,,,,,,,,,,,
,,,,,,,,2023-08-06_08h21.30.776,HF_wild_card,2022.2.4,MacIntel,59.80861244,5d542c3a5af5900019bc80c4,64ce5acb97489d65b14ecc7a,64cf49c63c02593184695681,,,,,,,decisionTrl,resources/DB.BMP,resources/DG.BMP,Door1,0.354319037,0.038319402,1,0,0,1.2742,optionRight,30,1235,1,22,0,22,0,1,,,,,,,,,,,,,,,,,,,,,,,,,,,,,,,,,,,,,,,
,,,,,,,,2023-08-06_08h21.30.776,HF_wild_card,2022.2.4,MacIntel,59.80861244,5d542c3a5af5900019bc80c4,64ce5acb97489d65b14ecc7a,64cf49c63c02593184695681,,,,,,,decisionTrl,resources/DBN.BMP,resources/DR.BMP,Door3,-0.332528731,0.064385499,1,0,0,2.5121,optionLeft,70,1305,1,23,0,23,0,1,,,,,,,,,,,,,,,,,,,,,,,,,,,,,,,,,,,,,,,
,,,,,,,,2023-08-06_08h21.30.776,HF_wild_card,2022.2.4,MacIntel,59.80861244,5d542c3a5af5900019bc80c4,64ce5acb97489d65b14ecc7a,64cf49c63c02593184695681,,,,,,,decisionTrl,resources/DP.BMP,resources/DB.BMP,WildCard_Ex,-0.268171484,0.015031298,1,0,0,1.2387,optionLeft,5,1310,1,24,0,24,0,1,,,,,,,,,,,,,,,,,,,,,,,,,,,,,,,,,,,,,,,
,,,,,,,,2023-08-06_08h21.30.776,HF_wild_card,2022.2.4,MacIntel,59.80861244,5d542c3a5af5900019bc80c4,64ce5acb97489d65b14ecc7a,64cf49c63c02593184695681,,,,,,,sngl,resources/DB.BMP,resources/Empty.png,Door2,-0.325576422,0.030092907,1,0,0,0.8389,optionLeft,40,1350,1,25,0,25,0,1,,,,,,,,,,,,,,,,,,,,,,,,,,,,,,,,,,,,,,,
,,,,,,,,2023-08-06_08h21.30.776,HF_wild_card,2022.2.4,MacIntel,59.80861244,5d542c3a5af5900019bc80c4,64ce5acb97489d65b14ecc7a,64cf49c63c02593184695681,,,,,,,decisionTrl,resources/DB.BMP,resources/DG.BMP,Door2,-0.384304497,0.042439996,1,0,0,2.3978,optionLeft,40,1390,1,26,0,26,0,1,,,,,,,,,,,,,,,,,,,,,,,,,,,,,,,,,,,,,,,
,,,,,,,,2023-08-06_08h21.30.776,HF_wild_card,2022.2.4,MacIntel,59.80861244,5d542c3a5af5900019bc80c4,64ce5acb97489d65b14ecc7a,64cf49c63c02593184695681,,,,,,,sngl,resources/Empty.png,resources/DBN.BMP,Door3,0.370054436,0.002650052,1,0,0,0.9372,optionRight,70,1460,1,27,0,27,0,1,,,,,,,,,,,,,,,,,,,,,,,,,,,,,,,,,,,,,,,
,,,,,,,,2023-08-06_08h21.30.776,HF_wild_card,2022.2.4,MacIntel,59.80861244,5d542c3a5af5900019bc80c4,64ce5acb97489d65b14ecc7a,64cf49c63c02593184695681,,,,,,,ctch,resources/DB.BMP,resources/DBN.BMP,Door3,0.332002483,0.06823267,1,0,0,1.2528,optionRight,70,1530,1,28,0,28,0,1,,,,,,,,,,,,,,,,,,,,,,,,,,,,,,,,,,,,,,,
,,,,,,,,2023-08-06_08h21.30.776,HF_wild_card,2022.2.4,MacIntel,59.80861244,5d542c3a5af5900019bc80c4,64ce5acb97489d65b14ecc7a,64cf49c63c02593184695681,,,,,,,decisionTrl,resources/DP.BMP,resources/DR.BMP,Door4,0.335566483,0.05411333,1,0,0,1.6856,optionRight,60,1590,1,29,0,29,0,1,,,,,,,,,,,,,,,,,,,,,,,,,,,,,,,,,,,,,,,
,,,,,,,,2023-08-06_08h21.30.776,HF_wild_card,2022.2.4,MacIntel,59.80861244,5d542c3a5af5900019bc80c4,64ce5acb97489d65b14ecc7a,64cf49c63c02593184695681,,,,,,,decisionTrl,resources/DR.BMP,resources/DBN.BMP,Door3,0.171163312,0.06700723,1,0,0,1.6322,optionRight,70,1660,1,30,0,30,0,1,,,,,,,,,,,,,,,,,,,,,,,,,,,,,,,,,,,,,,,
,,,,,,,,2023-08-06_08h21.30.776,HF_wild_card,2022.2.4,MacIntel,59.80861244,5d542c3a5af5900019bc80c4,64ce5acb97489d65b14ecc7a,64cf49c63c02593184695681,,,,,,,sngl,resources/DG.BMP,resources/Empty.png,Door1,-0.322661804,-0.000796787,1,0,0,2.8153,optionLeft,30,1690,1,31,0,31,0,1,,,,,,,,,,,,,,,,,,,,,,,,,,,,,,,,,,,,,,,
,,,,,,,,2023-08-06_08h21.30.776,HF_wild_card,2022.2.4,MacIntel,59.80861244,5d542c3a5af5900019bc80c4,64ce5acb97489d65b14ecc7a,64cf49c63c02593184695681,,,,,,,decisionTrl,resources/DG.BMP,resources/DB.BMP,Door2,0.339462503,0.003670417,1,0,0,1.4942,optionRight,40,1730,1,32,0,32,0,1,,,,,,,,,,,,,,,,,,,,,,,,,,,,,,,,,,,,,,,
,,,,,,,,2023-08-06_08h21.30.776,HF_wild_card,2022.2.4,MacIntel,59.80861244,5d542c3a5af5900019bc80c4,64ce5acb97489d65b14ecc7a,64cf49c63c02593184695681,,,,,,,sngl,resources/Empty.png,resources/DG.BMP,Door1,0.413252085,0.022408313,1,0,0,1.0138,optionRight,30,1760,1,33,0,33,0,1,,,,,,,,,,,,,,,,,,,,,,,,,,,,,,,,,,,,,,,
,,,,,,,,2023-08-06_08h21.30.776,HF_wild_card,2022.2.4,MacIntel,59.80861244,5d542c3a5af5900019bc80c4,64ce5acb97489d65b14ecc7a,64cf49c63c02593184695681,,,,,,,decisionTrl,resources/DG.BMP,resources/DP.BMP,Door1,-0.302864478,0.039627848,1,0,0,1.5345,optionLeft,30,1790,1,34,0,34,0,1,,,,,,,,,,,,,,,,,,,,,,,,,,,,,,,,,,,,,,,
,,,,,,,,2023-08-06_08h21.30.776,HF_wild_card,2022.2.4,MacIntel,59.80861244,5d542c3a5af5900019bc80c4,64ce5acb97489d65b14ecc7a,64cf49c63c02593184695681,,,,,,,ctch,resources/DB.BMP,resources/DBN.BMP,Door3,0.340165541,0.043836287,1,0,0,1.7405,optionRight,70,1860,1,35,0,35,0,1,,,,,,,,,,,,,,,,,,,,,,,,,,,,,,,,,,,,,,,
,,,,,,,,2023-08-06_08h21.30.776,HF_wild_card,2022.2.4,MacIntel,59.80861244,5d542c3a5af5900019bc80c4,64ce5acb97489d65b14ecc7a,64cf49c63c02593184695681,,,,,,,ctch,resources/DBN.BMP,resources/DB.BMP,Door3,-0.362149044,0.087414839,1,0,0,1.6082,optionLeft,70,1930,1,36,0,36,0,1,,,,,,,,,,,,,,,,,,,,,,,,,,,,,,,,,,,,,,,
,,,,,,,,2023-08-06_08h21.30.776,HF_wild_card,2022.2.4,MacIntel,59.80861244,5d542c3a5af5900019bc80c4,64ce5acb97489d65b14ecc7a,64cf49c63c02593184695681,,,,,,,decisionTrl,resources/DR.BMP,resources/DBN.BMP,Door3,0.378730079,0.045969771,1,0,0,1.9776,optionRight,70,2000,1,37,0,37,0,1,,,,,,,,,,,,,,,,,,,,,,,,,,,,,,,,,,,,,,,
,,,,,,,,2023-08-06_08h21.30.776,HF_wild_card,2022.2.4,MacIntel,59.80861244,5d542c3a5af5900019bc80c4,64ce5acb97489d65b14ecc7a,64cf49c63c02593184695681,,,,,,,sngl,resources/Empty.png,resources/DR.BMP,Door4,0.365069601,0.016764483,1,0,0,0.7593,optionRight,60,2060,1,38,0,38,0,1,,,,,,,,,,,,,,,,,,,,,,,,,,,,,,,,,,,,,,,
,,,,,,,,2023-08-06_08h21.30.776,HF_wild_card,2022.2.4,MacIntel,59.80861244,5d542c3a5af5900019bc80c4,64ce5acb97489d65b14ecc7a,64cf49c63c02593184695681,,,,,,,sngl,resources/DR.BMP,resources/Empty.png,Door4,-0.384402126,0.029834142,1,0,0,0.6521,optionLeft,80,2140,1,39,0,39,0,1,,,,,,,,,,,,,,,,,,,,,,,,,,,,,,,,,,,,,,,
,,,,,,,,2023-08-06_08h21.30.776,HF_wild_card,2022.2.4,MacIntel,59.80861244,5d542c3a5af5900019bc80c4,64ce5acb97489d65b14ecc7a,64cf49c63c02593184695681,,,,,,,ctch,resources/DR.BMP,resources/DG.BMP,Door4,-0.374017636,0.035424214,1,0,0,0.9696,optionLeft,60,2200,1,40,0,40,0,1,,,,,,,,,,,,,,,,,,,,,,,,,,,,,,,,,,,,,,,
,,,,,,,,2023-08-06_08h21.30.776,HF_wild_card,2022.2.4,MacIntel,59.80861244,5d542c3a5af5900019bc80c4,64ce5acb97489d65b14ecc7a,64cf49c63c02593184695681,,,,,,,decisionTrl,resources/DB.BMP,resources/DP.BMP,Door2,-0.375365181,0.002122774,1,0,0,1.3426,optionLeft,40,2240,1,41,0,41,0,1,,,,,,,,,,,,,,,,,,,,,,,,,,,,,,,,,,,,,,,
,,,,,,,,2023-08-06_08h21.30.776,HF_wild_card,2022.2.4,MacIntel,59.80861244,5d542c3a5af5900019bc80c4,64ce5acb97489d65b14ecc7a,64cf49c63c02593184695681,,,,,,,ctch,resources/DG.BMP,resources/DR.BMP,Door4,0.386897942,0.01692555,1,0,0,3.0204,optionRight,60,2300,1,42,0,42,0,1,,,,,,,,,,,,,,,,,,,,,,,,,,,,,,,,,,,,,,,
,,,,,,,,2023-08-06_08h21.30.776,HF_wild_card,2022.2.4,MacIntel,59.80861244,5d542c3a5af5900019bc80c4,64ce5acb97489d65b14ecc7a,64cf49c63c02593184695681,,,,,,,decisionTrl,resources/DG.BMP,resources/DB.BMP,Door1,-0.349079385,0.031293871,1,0,0,2.6706,optionLeft,30,2330,1,43,0,43,0,1,,,,,,,,,,,,,,,,,,,,,,,,,,,,,,,,,,,,,,,
,,,,,,,,2023-08-06_08h21.30.776,HF_wild_card,2022.2.4,MacIntel,59.80861244,5d542c3a5af5900019bc80c4,64ce5acb97489d65b14ecc7a,64cf49c63c02593184695681,,,,,,,,,,,,,,,,,,,,,,,,,,0,0,0,0,1,,,,,,,,,,,,,,,,,,,,,,,,,,,,,,,,,,
,,,,,,,,2023-08-06_08h21.30.776,HF_wild_card,2022.2.4,MacIntel,59.80861244,5d542c3a5af5900019bc80c4,64ce5acb97489d65b14ecc7a,64cf49c63c02593184695681,,,,,,,decisionTrl,resources/DR.BMP,resources/DBN.BMP,Door3,0.3281066,-0.011913561,1,0,0,2.0019,optionRight,70,2400,2,0,0,0,0,1,,,,,,,,,,,,,,,,,,,,,,,,,,,,,,,,,,,,,,,
,,,,,,,,2023-08-06_08h21.30.776,HF_wild_card,2022.2.4,MacIntel,59.80861244,5d542c3a5af5900019bc80c4,64ce5acb97489d65b14ecc7a,64cf49c63c02593184695681,,,,,,,sngl,resources/DP.BMP,resources/Empty.png,WildCard_Ex,-0.32897448,-0.039097721,1,0,0,0.8673,optionLeft,5,2405,2,1,0,1,0,1,,,,,,,,,,,,,,,,,,,,,,,,,,,,,,,,,,,,,,,
,,,,,,,,2023-08-06_08h21.30.776,HF_wild_card,2022.2.4,MacIntel,59.80861244,5d542c3a5af5900019bc80c4,64ce5acb97489d65b14ecc7a,64cf49c63c02593184695681,,,,,,,sngl,resources/DP.BMP,resources/Empty.png,WildCard_Ex,-0.375125949,-0.010073032,1,0,0,0.9076,optionLeft,95,2500,2,2,0,2,0,1,,,,,,,,,,,,,,,,,,,,,,,,,,,,,,,,,,,,,,,
,,,,,,,,2023-08-06_08h21.30.776,HF_wild_card,2022.2.4,MacIntel,59.80861244,5d542c3a5af5900019bc80c4,64ce5acb97489d65b14ecc7a,64cf49c63c02593184695681,,,,,,,sngl,resources/Empty.png,resources/DB.BMP,Door2,0.35654047,-0.028928055,1,0,0,0.6616,optionRight,40,2540,2,3,0,3,0,1,,,,,,,,,,,,,,,,,,,,,,,,,,,,,,,,,,,,,,,
,,,,,,,,2023-08-06_08h21.30.776,HF_wild_card,2022.2.4,MacIntel,59.80861244,5d542c3a5af5900019bc80c4,64ce5acb97489d65b14ecc7a,64cf49c63c02593184695681,,,,,,,decisionTrl,resources/DB.BMP,resources/DG.BMP,Door2,-0.325478827,0.016520377,1,0,0,0.9471,optionLeft,40,2580,2,4,0,4,0,1,,,,,,,,,,,,,,,,,,,,,,,,,,,,,,,,,,,,,,,
,,,,,,,,2023-08-06_08h21.30.776,HF_wild_card,2022.2.4,MacIntel,59.80861244,5d542c3a5af5900019bc80c4,64ce5acb97489d65b14ecc7a,64cf49c63c02593184695681,,,,,,,sngl,resources/DG.BMP,resources/Empty.png,Door1,-0.343767507,-0.000572213,1,0,0,0.5916,optionLeft,30,2610,2,5,0,5,0,1,,,,,,,,,,,,,,,,,,,,,,,,,,,,,,,,,,,,,,,
,,,,,,,,2023-08-06_08h21.30.776,HF_wild_card,2022.2.4,MacIntel,59.80861244,5d542c3a5af5900019bc80c4,64ce5acb97489d65b14ecc7a,64cf49c63c02593184695681,,,,,,,decisionTrl,resources/DB.BMP,resources/DP.BMP,WildCard_Ex,0.449414557,0.021881035,1,0,0,1.3056,optionRight,95,2705,2,6,0,6,0,1,,,,,,,,,,,,,,,,,,,,,,,,,,,,,,,,,,,,,,,
,,,,,,,,2023-08-06_08h21.30.776,HF_wild_card,2022.2.4,MacIntel,59.80861244,5d542c3a5af5900019bc80c4,64ce5acb97489d65b14ecc7a,64cf49c63c02593184695681,,,,,,,decisionTrl,resources/DP.BMP,resources/DR.BMP,WildCard_Ex,-0.30810794,0.012311869,1,0,0,0.7188,optionLeft,5,2710,2,7,0,7,0,1,,,,,,,,,,,,,,,,,,,,,,,,,,,,,,,,,,,,,,,
,,,,,,,,2023-08-06_08h21.30.776,HF_wild_card,2022.2.4,MacIntel,59.80861244,5d542c3a5af5900019bc80c4,64ce5acb97489d65b14ecc7a,64cf49c63c02593184695681,,,,,,,decisionTrl,resources/DB.BMP,resources/DG.BMP,Door2,-0.280069461,0.023907141,1,0,0,1.3623,optionLeft,20,2730,2,8,0,8,0,1,,,,,,,,,,,,,,,,,,,,,,,,,,,,,,,,,,,,,,,
,,,,,,,,2023-08-06_08h21.30.776,HF_wild_card,2022.2.4,MacIntel,59.80861244,5d542c3a5af5900019bc80c4,64ce5acb97489d65b14ecc7a,64cf49c63c02593184695681,,,,,,,sngl,resources/Empty.png,resources/DR.BMP,Door4,0.341630178,-0.005107832,1,0,0,0.7692,optionRight,80,2810,2,9,0,9,0,1,,,,,,,,,,,,,,,,,,,,,,,,,,,,,,,,,,,,,,,
,,,,,,,,2023-08-06_08h21.30.776,HF_wild_card,2022.2.4,MacIntel,59.80861244,5d542c3a5af5900019bc80c4,64ce5acb97489d65b14ecc7a,64cf49c63c02593184695681,,,,,,,decisionTrl,resources/DP.BMP,resources/DBN.BMP,WildCard_Ex,-0.368193207,-0.047197237,1,0,0,1.3755,optionLeft,95,2905,2,10,0,10,0,1,,,,,,,,,,,,,,,,,,,,,,,,,,,,,,,,,,,,,,,
,,,,,,,,2023-08-06_08h21.30.776,HF_wild_card,2022.2.4,MacIntel,59.80861244,5d542c3a5af5900019bc80c4,64ce5acb97489d65b14ecc7a,64cf49c63c02593184695681,,,,,,,decisionTrl,resources/DP.BMP,resources/DB.BMP,WildCard_Ex,-0.277320785,-0.036329512,1,0,0,1.108,optionLeft,95,3000,2,11,0,11,0,1,,,,,,,,,,,,,,,,,,,,,,,,,,,,,,,,,,,,,,,
,,,,,,,,2023-08-06_08h21.30.776,HF_wild_card,2022.2.4,MacIntel,59.80861244,5d542c3a5af5900019bc80c4,64ce5acb97489d65b14ecc7a,64cf49c63c02593184695681,,,,,,,decisionTrl,resources/DR.BMP,resources/DBN.BMP,Door4,-0.305793788,-0.02744385,1,0,0,1.1398,optionLeft,80,3080,2,12,0,12,0,1,,,,,,,,,,,,,,,,,,,,,,,,,,,,,,,,,,,,,,,
,,,,,,,,2023-08-06_08h21.30.776,HF_wild_card,2022.2.4,MacIntel,59.80861244,5d542c3a5af5900019bc80c4,64ce5acb97489d65b14ecc7a,64cf49c63c02593184695681,,,,,,,decisionTrl,resources/DR.BMP,resources/DBN.BMP,Door4,-0.349792206,-0.008388627,1,0,0,0.6853,optionLeft,60,3140,2,13,0,13,0,1,,,,,,,,,,,,,,,,,,,,,,,,,,,,,,,,,,,,,,,
,,,,,,,,2023-08-06_08h21.30.776,HF_wild_card,2022.2.4,MacIntel,59.80861244,5d542c3a5af5900019bc80c4,64ce5acb97489d65b14ecc7a,64cf49c63c02593184695681,,,,,,,ctch,resources/DB.BMP,resources/DBN.BMP,Door3,0.339511318,0.038709986,1,0,0,0.8936,optionRight,70,3210,2,14,0,14,0,1,,,,,,,,,,,,,,,,,,,,,,,,,,,,,,,,,,,,,,,
,,,,,,,,2023-08-06_08h21.30.776,HF_wild_card,2022.2.4,MacIntel,59.80861244,5d542c3a5af5900019bc80c4,64ce5acb97489d65b14ecc7a,64cf49c63c02593184695681,,,,,,,sngl,resources/Empty.png,resources/DP.BMP,WildCard_Ex,0.250577122,0.017584647,1,0,0,0.8083,optionRight,5,3215,2,15,0,15,0,1,,,,,,,,,,,,,,,,,,,,,,,,,,,,,,,,,,,,,,,
,,,,,,,,2023-08-06_08h21.30.776,HF_wild_card,2022.2.4,MacIntel,59.80861244,5d542c3a5af5900019bc80c4,64ce5acb97489d65b14ecc7a,64cf49c63c02593184695681,,,,,,,sngl,resources/DB.BMP,resources/Empty.png,Door2,-0.397374088,0.002166714,1,0,0,0.6885,optionLeft,20,3235,2,16,0,16,0,1,,,,,,,,,,,,,,,,,,,,,,,,,,,,,,,,,,,,,,,
,,,,,,,,2023-08-06_08h21.30.776,HF_wild_card,2022.2.4,MacIntel,59.80861244,5d542c3a5af5900019bc80c4,64ce5acb97489d65b14ecc7a,64cf49c63c02593184695681,,,,,,,decisionTrl,resources/DG.BMP,resources/DB.BMP,Door1,-0.304822237,0.046345697,1,0,0,0.8544,optionLeft,30,3265,2,17,0,17,0,1,,,,,,,,,,,,,,,,,,,,,,,,,,,,,,,,,,,,,,,
,,,,,,,,2023-08-06_08h21.30.776,HF_wild_card,2022.2.4,MacIntel,59.80861244,5d542c3a5af5900019bc80c4,64ce5acb97489d65b14ecc7a,64cf49c63c02593184695681,,,,,,,decisionTrl,resources/DBN.BMP,resources/DP.BMP,WildCard_Ex,0.438883692,-0.017703868,1,0,0,1.2203,optionRight,5,3270,2,18,0,18,0,1,,,,,,,,,,,,,,,,,,,,,,,,,,,,,,,,,,,,,,,
,,,,,,,,2023-08-06_08h21.30.776,HF_wild_card,2022.2.4,MacIntel,59.80861244,5d542c3a5af5900019bc80c4,64ce5acb97489d65b14ecc7a,64cf49c63c02593184695681,,,,,,,decisionTrl,resources/DB.BMP,resources/DG.BMP,Door2,-0.237779821,0.032416774,1,0,0,1.1246,optionLeft,20,3290,2,19,0,19,0,1,,,,,,,,,,,,,,,,,,,,,,,,,,,,,,,,,,,,,,,
,,,,,,,,2023-08-06_08h21.30.776,HF_wild_card,2022.2.4,MacIntel,59.80861244,5d542c3a5af5900019bc80c4,64ce5acb97489d65b14ecc7a,64cf49c63c02593184695681,,,,,,,ctch,resources/DR.BMP,resources/DG.BMP,Door4,-0.333666292,0.041946875,1,0,0,0.9022,optionLeft,60,3350,2,20,0,20,0,1,,,,,,,,,,,,,,,,,,,,,,,,,,,,,,,,,,,,,,,
,,,,,,,,2023-08-06_08h21.30.776,HF_wild_card,2022.2.4,MacIntel,59.80861244,5d542c3a5af5900019bc80c4,64ce5acb97489d65b14ecc7a,64cf49c63c02593184695681,,,,,,,decisionTrl,resources/DBN.BMP,resources/DR.BMP,Door3,-0.391808423,0.026416551,1,0,0,1.0776,optionLeft,70,3420,2,21,0,21,0,1,,,,,,,,,,,,,,,,,,,,,,,,,,,,,,,,,,,,,,,
,,,,,,,,2023-08-06_08h21.30.776,HF_wild_card,2022.2.4,MacIntel,59.80861244,5d542c3a5af5900019bc80c4,64ce5acb97489d65b14ecc7a,64cf49c63c02593184695681,,,,,,,decisionTrl,resources/DBN.BMP,resources/DR.BMP,Door3,-0.292772943,0.015988224,1,0,0,1.0611,optionLeft,70,3490,2,22,0,22,0,1,,,,,,,,,,,,,,,,,,,,,,,,,,,,,,,,,,,,,,,
,,,,,,,,2023-08-06_08h21.30.776,HF_wild_card,2022.2.4,MacIntel,59.80861244,5d542c3a5af5900019bc80c4,64ce5acb97489d65b14ecc7a,64cf49c63c02593184695681,,,,,,,ctch,resources/DBN.BMP,resources/DB.BMP,Door3,-0.278385055,0.015036138,1,0,0,0.7277,optionLeft,70,3560,2,23,0,23,0,1,,,,,,,,,,,,,,,,,,,,,,,,,,,,,,,,,,,,,,,
,,,,,,,,2023-08-06_08h21.30.776,HF_wild_card,2022.2.4,MacIntel,59.80861244,5d542c3a5af5900019bc80c4,64ce5acb97489d65b14ecc7a,64cf49c63c02593184695681,,,,,,,decisionTrl,resources/DBN.BMP,resources/DR.BMP,Door3,-0.299500576,0.011550303,1,0,0,1.1851,optionLeft,70,3630,2,24,0,24,0,1,,,,,,,,,,,,,,,,,,,,,,,,,,,,,,,,,,,,,,,
,,,,,,,,2023-08-06_08h21.30.776,HF_wild_card,2022.2.4,MacIntel,59.80861244,5d542c3a5af5900019bc80c4,64ce5acb97489d65b14ecc7a,64cf49c63c02593184695681,,,,,,,ctch,resources/DB.BMP,resources/DBN.BMP,Door3,0.302006347,0.066348133,1,0,0,0.9412,optionRight,70,3700,2,25,0,25,0,1,,,,,,,,,,,,,,,,,,,,,,,,,,,,,,,,,,,,,,,
,,,,,,,,2023-08-06_08h21.30.776,HF_wild_card,2022.2.4,MacIntel,59.80861244,5d542c3a5af5900019bc80c4,64ce5acb97489d65b14ecc7a,64cf49c63c02593184695681,,,,,,,decisionTrl,resources/DG.BMP,resources/DB.BMP,Door2,0.29854485,0.009138487,1,0,0,1.2349,optionRight,40,3740,2,26,0,26,0,1,,,,,,,,,,,,,,,,,,,,,,,,,,,,,,,,,,,,,,,
,,,,,,,,2023-08-06_08h21.30.776,HF_wild_card,2022.2.4,MacIntel,59.80861244,5d542c3a5af5900019bc80c4,64ce5acb97489d65b14ecc7a,64cf49c63c02593184695681,,,,,,,ctch,resources/DG.BMP,resources/DR.BMP,Door4,0.26442304,0.069091934,1,0,0,1.8615,optionRight,60,3800,2,27,0,27,0,1,,,,,,,,,,,,,,,,,,,,,,,,,,,,,,,,,,,,,,,
,,,,,,,,2023-08-06_08h21.30.776,HF_wild_card,2022.2.4,MacIntel,59.80861244,5d542c3a5af5900019bc80c4,64ce5acb97489d65b14ecc7a,64cf49c63c02593184695681,,,,,,,ctch,resources/DG.BMP,resources/DR.BMP,Door4,0.27924552,0.051960279,1,0,0,0.7579,optionRight,80,3880,2,28,0,28,0,1,,,,,,,,,,,,,,,,,,,,,,,,,,,,,,,,,,,,,,,
,,,,,,,,2023-08-06_08h21.30.776,HF_wild_card,2022.2.4,MacIntel,59.80861244,5d542c3a5af5900019bc80c4,64ce5acb97489d65b14ecc7a,64cf49c63c02593184695681,,,,,,,decisionTrl,resources/DR.BMP,resources/DBN.BMP,Door3,0.307459759,0.02184197,1,0,0,1.093,optionRight,70,3950,2,29,0,29,0,1,,,,,,,,,,,,,,,,,,,,,,,,,,,,,,,,,,,,,,,
,,,,,,,,2023-08-06_08h21.30.776,HF_wild_card,2022.2.4,MacIntel,59.80861244,5d542c3a5af5900019bc80c4,64ce5acb97489d65b14ecc7a,64cf49c63c02593184695681,,,,,,,decisionTrl,resources/DBN.BMP,resources/DR.BMP,Door3,-0.359854425,0.052326456,1,0,0,1.1203,optionLeft,70,4020,2,30,0,30,0,1,,,,,,,,,,,,,,,,,,,,,,,,,,,,,,,,,,,,,,,
,,,,,,,,2023-08-06_08h21.30.776,HF_wild_card,2022.2.4,MacIntel,59.80861244,5d542c3a5af5900019bc80c4,64ce5acb97489d65b14ecc7a,64cf49c63c02593184695681,,,,,,,sngl,resources/DR.BMP,resources/Empty.png,Door4,-0.261404752,0.046179755,1,0,0,0.6992,optionLeft,60,4080,2,31,0,31,0,1,,,,,,,,,,,,,,,,,,,,,,,,,,,,,,,,,,,,,,,
,,,,,,,,2023-08-06_08h21.30.776,HF_wild_card,2022.2.4,MacIntel,59.80861244,5d542c3a5af5900019bc80c4,64ce5acb97489d65b14ecc7a,64cf49c63c02593184695681,,,,,,,sngl,resources/Empty.png,resources/DBN.BMP,Door3,0.428894661,0.055997868,1,0,0,0.8415,optionRight,70,4150,2,32,0,32,0,1,,,,,,,,,,,,,,,,,,,,,,,,,,,,,,,,,,,,,,,
,,,,,,,,2023-08-06_08h21.30.776,HF_wild_card,2022.2.4,MacIntel,59.80861244,5d542c3a5af5900019bc80c4,64ce5acb97489d65b14ecc7a,64cf49c63c02593184695681,,,,,,,sngl,resources/Empty.png,resources/DG.BMP,Door1,0.411650753,0.033495805,1,0,0,1.7144,optionRight,30,4180,2,33,0,33,0,1,,,,,,,,,,,,,,,,,,,,,,,,,,,,,,,,,,,,,,,
,,,,,,,,2023-08-06_08h21.30.776,HF_wild_card,2022.2.4,MacIntel,59.80861244,5d542c3a5af5900019bc80c4,64ce5acb97489d65b14ecc7a,64cf49c63c02593184695681,,,,,,,ctch,resources/DBN.BMP,resources/DB.BMP,Door3,-0.463029997,0.021529516,1,0,0,1.0393,optionLeft,70,4250,2,34,0,34,0,1,,,,,,,,,,,,,,,,,,,,,,,,,,,,,,,,,,,,,,,
,,,,,,,,2023-08-06_08h21.30.776,HF_wild_card,2022.2.4,MacIntel,59.80861244,5d542c3a5af5900019bc80c4,64ce5acb97489d65b14ecc7a,64cf49c63c02593184695681,,,,,,,decisionTrl,resources/DG.BMP,resources/DP.BMP,WildCard_Ex,0.25600623,0.039315326,1,0,0,1.2005,optionRight,95,4345,2,35,0,35,0,1,,,,,,,,,,,,,,,,,,,,,,,,,,,,,,,,,,,,,,,
,,,,,,,,2023-08-06_08h21.30.776,HF_wild_card,2022.2.4,MacIntel,59.80861244,5d542c3a5af5900019bc80c4,64ce5acb97489d65b14ecc7a,64cf49c63c02593184695681,,,,,,,decisionTrl,resources/DP.BMP,resources/DG.BMP,WildCard_Ex,-0.378641135,-0.002139389,1,0,0,0.8213,optionLeft,95,4440,2,36,0,36,0,1,,,,,,,,,,,,,,,,,,,,,,,,,,,,,,,,,,,,,,,
,,,,,,,,2023-08-06_08h21.30.776,HF_wild_card,2022.2.4,MacIntel,59.80861244,5d542c3a5af5900019bc80c4,64ce5acb97489d65b14ecc7a,64cf49c63c02593184695681,,,,,,,decisionTrl,resources/DR.BMP,resources/DP.BMP,WildCard_Ex,0.294766026,0.003543472,1,0,0,0.8552,optionRight,95,4535,2,37,0,37,0,1,,,,,,,,,,,,,,,,,,,,,,,,,,,,,,,,,,,,,,,
,,,,,,,,2023-08-06_08h21.30.776,HF_wild_card,2022.2.4,MacIntel,59.80861244,5d542c3a5af5900019bc80c4,64ce5acb97489d65b14ecc7a,64cf49c63c02593184695681,,,,,,,decisionTrl,resources/DG.BMP,resources/DB.BMP,Door2,0.291309335,-0.017088711,1,0,0,1.4166,optionRight,40,4575,2,38,0,38,0,1,,,,,,,,,,,,,,,,,,,,,,,,,,,,,,,,,,,,,,,
,,,,,,,,2023-08-06_08h21.30.776,HF_wild_card,2022.2.4,MacIntel,59.80861244,5d542c3a5af5900019bc80c4,64ce5acb97489d65b14ecc7a,64cf49c63c02593184695681,,,,,,,ctch,resources/DR.BMP,resources/DG.BMP,Door4,-0.229372623,-0.006220917,1,0,0,1.2815,optionLeft,80,4655,2,39,0,39,0,1,,,,,,,,,,,,,,,,,,,,,,,,,,,,,,,,,,,,,,,
,,,,,,,,2023-08-06_08h21.30.776,HF_wild_card,2022.2.4,MacIntel,59.80861244,5d542c3a5af5900019bc80c4,64ce5acb97489d65b14ecc7a,64cf49c63c02593184695681,,,,,,,decisionTrl,resources/DG.BMP,resources/DB.BMP,Door1,-0.269577558,0.055480339,1,0,0,1.8473,optionLeft,30,4685,2,40,0,40,0,1,,,,,,,,,,,,,,,,,,,,,,,,,,,,,,,,,,,,,,,
,,,,,,,,2023-08-06_08h21.30.776,HF_wild_card,2022.2.4,MacIntel,59.80861244,5d542c3a5af5900019bc80c4,64ce5acb97489d65b14ecc7a,64cf49c63c02593184695681,,,,,,,decisionTrl,resources/DB.BMP,resources/DG.BMP,Door2,-0.270300128,0.051340247,1,0,0,1.7411,optionLeft,20,4705,2,41,0,41,0,1,,,,,,,,,,,,,,,,,,,,,,,,,,,,,,,,,,,,,,,
,,,,,,,,2023-08-06_08h21.30.776,HF_wild_card,2022.2.4,MacIntel,59.80861244,5d542c3a5af5900019bc80c4,64ce5acb97489d65b14ecc7a,64cf49c63c02593184695681,,,,,,,sngl,resources/DBN.BMP,resources/Empty.png,Door3,-0.288613318,0.047336849,1,0,0,0.764,optionLeft,70,4775,2,42,0,42,0,1,,,,,,,,,,,,,,,,,,,,,,,,,,,,,,,,,,,,,,,
,,,,,,,,2023-08-06_08h21.30.776,HF_wild_card,2022.2.4,MacIntel,59.80861244,5d542c3a5af5900019bc80c4,64ce5acb97489d65b14ecc7a,64cf49c63c02593184695681,,,,,,,sngl,resources/Empty.png,resources/DP.BMP,WildCard_Ex,0.337929484,-0.023596679,1,0,0,0.7109,optionRight,95,4870,2,43,0,43,0,1,,,,,,,,,,,,,,,,,,,,,,,,,,,,,,,,,,,,,,,
,,,,,,,,2023-08-06_08h21.30.776,HF_wild_card,2022.2.4,MacIntel,59.80861244,5d542c3a5af5900019bc80c4,64ce5acb97489d65b14ecc7a,64cf49c63c02593184695681,,,,,,,,,,,,,,,,,,,,,,,,,,1,0,1,0,1,,,,,,,,,,,,,,,,,,,,,,,,,,,,,,,,,,
,,,,,,,,2023-08-06_08h21.30.776,HF_wild_card,2022.2.4,MacIntel,59.80861244,5d542c3a5af5900019bc80c4,64ce5acb97489d65b14ecc7a,64cf49c63c02593184695681,,,,,,,decisionTrl,resources/DG.BMP,resources/DB.BMP,Door2,0.348553172,-0.031784143,1,0,0,1.7638,optionRight,20,4890,3,0,0,0,0,1,,,,,,,,,,,,,,,,,,,,,,,,,,,,,,,,,,,,,,,
,,,,,,,,2023-08-06_08h21.30.776,HF_wild_card,2022.2.4,MacIntel,59.80861244,5d542c3a5af5900019bc80c4,64ce5acb97489d65b14ecc7a,64cf49c63c02593184695681,,,,,,,sngl,resources/DR.BMP,resources/Empty.png,Door4,-0.338148154,0.02358003,1,0,0,0.7004,optionLeft,80,4970,3,1,0,1,0,1,,,,,,,,,,,,,,,,,,,,,,,,,,,,,,,,,,,,,,,
,,,,,,,,2023-08-06_08h21.30.776,HF_wild_card,2022.2.4,MacIntel,59.80861244,5d542c3a5af5900019bc80c4,64ce5acb97489d65b14ecc7a,64cf49c63c02593184695681,,,,,,,decisionTrl,resources/DB.BMP,resources/DG.BMP,Door2,-0.309699557,-0.021199521,1,0,0,1.041,optionLeft,20,4990,3,2,0,2,0,1,,,,,,,,,,,,,,,,,,,,,,,,,,,,,,,,,,,,,,,
,,,,,,,,2023-08-06_08h21.30.776,HF_wild_card,2022.2.4,MacIntel,59.80861244,5d542c3a5af5900019bc80c4,64ce5acb97489d65b14ecc7a,64cf49c63c02593184695681,,,,,,,decisionTrl,resources/DBN.BMP,resources/DP.BMP,WildCard_Ex,0.369663783,-0.133641521,1,0,0,2.1097,optionRight,5,4995,3,3,0,3,0,1,,,,,,,,,,,,,,,,,,,,,,,,,,,,,,,,,,,,,,,
,,,,,,,,2023-08-06_08h21.30.776,HF_wild_card,2022.2.4,MacIntel,59.80861244,5d542c3a5af5900019bc80c4,64ce5acb97489d65b14ecc7a,64cf49c63c02593184695681,,,,,,,decisionTrl,resources/DP.BMP,resources/DG.BMP,WildCard_Ex,-0.305964673,0.00389499,1,0,0,0.7625,optionLeft,5,5000,3,4,0,4,0,1,,,,,,,,,,,,,,,,,,,,,,,,,,,,,,,,,,,,,,,
,,,,,,,,2023-08-06_08h21.30.776,HF_wild_card,2022.2.4,MacIntel,59.80861244,5d542c3a5af5900019bc80c4,64ce5acb97489d65b14ecc7a,64cf49c63c02593184695681,,,,,,,decisionTrl,resources/DR.BMP,resources/DBN.BMP,Door3,0.355441974,-0.008652265,1,0,0,0.6557,optionRight,70,5070,3,5,0,5,0,1,,,,,,,,,,,,,,,,,,,,,,,,,,,,,,,,,,,,,,,
,,,,,,,,2023-08-06_08h21.30.776,HF_wild_card,2022.2.4,MacIntel,59.80861244,5d542c3a5af5900019bc80c4,64ce5acb97489d65b14ecc7a,64cf49c63c02593184695681,,,,,,,sngl,resources/Empty.png,resources/DP.BMP,WildCard_Ex,0.35016439,-0.014359602,1,0,0,0.6228,optionRight,5,5075,3,6,0,6,0,1,,,,,,,,,,,,,,,,,,,,,,,,,,,,,,,,,,,,,,,
,,,,,,,,2023-08-06_08h21.30.776,HF_wild_card,2022.2.4,MacIntel,59.80861244,5d542c3a5af5900019bc80c4,64ce5acb97489d65b14ecc7a,64cf49c63c02593184695681,,,,,,,decisionTrl,resources/DR.BMP,resources/DP.BMP,Door4,-0.27706686,0.009851239,1,0,0,0.8401,optionLeft,60,5135,3,7,0,7,0,1,,,,,,,,,,,,,,,,,,,,,,,,,,,,,,,,,,,,,,,
,,,,,,,,2023-08-06_08h21.30.776,HF_wild_card,2022.2.4,MacIntel,59.80861244,5d542c3a5af5900019bc80c4,64ce5acb97489d65b14ecc7a,64cf49c63c02593184695681,,,,,,,decisionTrl,resources/DB.BMP,resources/DG.BMP,Door1,0.255605897,-0.028039475,1,0,0,1.2916,optionRight,30,5165,3,8,0,8,0,1,,,,,,,,,,,,,,,,,,,,,,,,,,,,,,,,,,,,,,,
,,,,,,,,2023-08-06_08h21.30.776,HF_wild_card,2022.2.4,MacIntel,59.80861244,5d542c3a5af5900019bc80c4,64ce5acb97489d65b14ecc7a,64cf49c63c02593184695681,,,,,,,decisionTrl,resources/DR.BMP,resources/DBN.BMP,Door3,0.293042624,-0.017440229,1,0,0,0.9616,optionRight,70,5235,3,9,0,9,0,1,,,,,,,,,,,,,,,,,,,,,,,,,,,,,,,,,,,,,,,
,,,,,,,,2023-08-06_08h21.30.776,HF_wild_card,2022.2.4,MacIntel,59.80861244,5d542c3a5af5900019bc80c4,64ce5acb97489d65b14ecc7a,64cf49c63c02593184695681,,,,,,,sngl,resources/Empty.png,resources/DBN.BMP,Door3,0.325885099,-0.022791173,1,0,0,0.6125,optionRight,70,5305,3,10,0,10,0,1,,,,,,,,,,,,,,,,,,,,,,,,,,,,,,,,,,,,,,,
,,,,,,,,2023-08-06_08h21.30.776,HF_wild_card,2022.2.4,MacIntel,59.80861244,5d542c3a5af5900019bc80c4,64ce5acb97489d65b14ecc7a,64cf49c63c02593184695681,,,,,,,decisionTrl,resources/DP.BMP,resources/DR.BMP,Door4,0.297963884,-0.019988739,1,0,0,1.1452,optionRight,80,5385,3,11,0,11,0,1,,,,,,,,,,,,,,,,,,,,,,,,,,,,,,,,,,,,,,,
,,,,,,,,2023-08-06_08h21.30.776,HF_wild_card,2022.2.4,MacIntel,59.80861244,5d542c3a5af5900019bc80c4,64ce5acb97489d65b14ecc7a,64cf49c63c02593184695681,,,,,,,ctch,resources/DB.BMP,resources/DBN.BMP,Door3,0.30125937,0.029785328,1,0,0,1.2478,optionRight,70,5455,3,12,0,12,0,1,,,,,,,,,,,,,,,,,,,,,,,,,,,,,,,,,,,,,,,
,,,,,,,,2023-08-06_08h21.30.776,HF_wild_card,2022.2.4,MacIntel,59.80861244,5d542c3a5af5900019bc80c4,64ce5acb97489d65b14ecc7a,64cf49c63c02593184695681,,,,,,,decisionTrl,resources/DB.BMP,resources/DG.BMP,Door1,0.260092633,0.001068218,1,0,0,1.4087,optionRight,30,5485,3,13,0,13,0,1,,,,,,,,,,,,,,,,,,,,,,,,,,,,,,,,,,,,,,,
,,,,,,,,2023-08-06_08h21.30.776,HF_wild_card,2022.2.4,MacIntel,59.80861244,5d542c3a5af5900019bc80c4,64ce5acb97489d65b14ecc7a,64cf49c63c02593184695681,,,,,,,decisionTrl,resources/DG.BMP,resources/DB.BMP,Door1,-0.2739667,0.003182204,1,0,0,0.8353,optionLeft,30,5515,3,14,0,14,0,1,,,,,,,,,,,,,,,,,,,,,,,,,,,,,,,,,,,,,,,
,,,,,,,,2023-08-06_08h21.30.776,HF_wild_card,2022.2.4,MacIntel,59.80861244,5d542c3a5af5900019bc80c4,64ce5acb97489d65b14ecc7a,64cf49c63c02593184695681,,,,,,,sngl,resources/DP.BMP,resources/Empty.png,WildCard_Ex,-0.246597033,-0.018699826,1,0,0,0.6571,optionLeft,95,5610,3,15,0,15,0,1,,,,,,,,,,,,,,,,,,,,,,,,,,,,,,,,,,,,,,,
,,,,,,,,2023-08-06_08h21.30.776,HF_wild_card,2022.2.4,MacIntel,59.80861244,5d542c3a5af5900019bc80c4,64ce5acb97489d65b14ecc7a,64cf49c63c02593184695681,,,,,,,sngl,resources/Empty.png,resources/DP.BMP,WildCard_Ex,0.37141657,-0.017811281,1,0,0,0.5899,optionRight,95,5705,3,16,0,16,0,1,,,,,,,,,,,,,,,,,,,,,,,,,,,,,,,,,,,,,,,
,,,,,,,,2023-08-06_08h21.30.776,HF_wild_card,2022.2.4,MacIntel,59.80861244,5d542c3a5af5900019bc80c4,64ce5acb97489d65b14ecc7a,64cf49c63c02593184695681,,,,,,,sngl,resources/DP.BMP,resources/Empty.png,WildCard_Ex,-0.327763698,0.007283197,1,0,0,0.6077,optionLeft,5,5710,3,17,0,17,0,1,,,,,,,,,,,,,,,,,,,,,,,,,,,,,,,,,,,,,,,
,,,,,,,,2023-08-06_08h21.30.776,HF_wild_card,2022.2.4,MacIntel,59.80861244,5d542c3a5af5900019bc80c4,64ce5acb97489d65b14ecc7a,64cf49c63c02593184695681,,,,,,,sngl,resources/DB.BMP,resources/Empty.png,Door2,-0.255731675,-0.001651176,1,0,0,0.6738,optionLeft,40,5750,3,18,0,18,0,1,,,,,,,,,,,,,,,,,,,,,,,,,,,,,,,,,,,,,,,
,,,,,,,,2023-08-06_08h21.30.776,HF_wild_card,2022.2.4,MacIntel,59.80861244,5d542c3a5af5900019bc80c4,64ce5acb97489d65b14ecc7a,64cf49c63c02593184695681,,,,,,,decisionTrl,resources/DBN.BMP,resources/DR.BMP,Door3,-0.342346844,0.060338092,1,0,0,1.3058,optionLeft,70,5820,3,19,0,19,0,1,,,,,,,,,,,,,,,,,,,,,,,,,,,,,,,,,,,,,,,
,,,,,,,,2023-08-06_08h21.30.776,HF_wild_card,2022.2.4,MacIntel,59.80861244,5d542c3a5af5900019bc80c4,64ce5acb97489d65b14ecc7a,64cf49c63c02593184695681,,,,,,,decisionTrl,resources/DB.BMP,resources/DG.BMP,Door2,-0.302962107,0.040916692,1,0,0,1.4253,optionLeft,20,5840,3,20,0,20,0,1,,,,,,,,,,,,,,,,,,,,,,,,,,,,,,,,,,,,,,,
,,,,,,,,2023-08-06_08h21.30.776,HF_wild_card,2022.2.4,MacIntel,59.80861244,5d542c3a5af5900019bc80c4,64ce5acb97489d65b14ecc7a,64cf49c63c02593184695681,,,,,,,decisionTrl,resources/DBN.BMP,resources/DR.BMP,Door4,0.355588486,-0.02209301,1,0,0,1.0694,optionRight,80,5920,3,21,0,21,0,1,,,,,,,,,,,,,,,,,,,,,,,,,,,,,,,,,,,,,,,
,,,,,,,,2023-08-06_08h21.30.776,HF_wild_card,2022.2.4,MacIntel,59.80861244,5d542c3a5af5900019bc80c4,64ce5acb97489d65b14ecc7a,64cf49c63c02593184695681,,,,,,,ctch,resources/DB.BMP,resources/DBN.BMP,Door3,0.303080332,0.049099316,1,0,0,0.9399,optionRight,70,5990,3,22,0,22,0,1,,,,,,,,,,,,,,,,,,,,,,,,,,,,,,,,,,,,,,,
,,,,,,,,2023-08-06_08h21.30.776,HF_wild_card,2022.2.4,MacIntel,59.80861244,5d542c3a5af5900019bc80c4,64ce5acb97489d65b14ecc7a,64cf49c63c02593184695681,,,,,,,ctch,resources/DG.BMP,resources/DR.BMP,Door4,0.340771018,-0.011064115,1,0,0,0.8632,optionRight,80,6070,3,23,0,23,0,1,,,,,,,,,,,,,,,,,,,,,,,,,,,,,,,,,,,,,,,
,,,,,,,,2023-08-06_08h21.30.776,HF_wild_card,2022.2.4,MacIntel,59.80861244,5d542c3a5af5900019bc80c4,64ce5acb97489d65b14ecc7a,64cf49c63c02593184695681,,,,,,,decisionTrl,resources/DG.BMP,resources/DB.BMP,Door2,0.352820277,-0.009653098,1,0,0,1.1586,optionRight,20,6090,3,24,0,24,0,1,,,,,,,,,,,,,,,,,,,,,,,,,,,,,,,,,,,,,,,
,,,,,,,,2023-08-06_08h21.30.776,HF_wild_card,2022.2.4,MacIntel,59.80861244,5d542c3a5af5900019bc80c4,64ce5acb97489d65b14ecc7a,64cf49c63c02593184695681,,,,,,,decisionTrl,resources/DB.BMP,resources/DP.BMP,WildCard_Ex,0.299355197,0.00658016,1,0,0,1.4601,optionRight,95,6185,3,25,0,25,0,1,,,,,,,,,,,,,,,,,,,,,,,,,,,,,,,,,,,,,,,
,,,,,,,,2023-08-06_08h21.30.776,HF_wild_card,2022.2.4,MacIntel,59.80861244,5d542c3a5af5900019bc80c4,64ce5acb97489d65b14ecc7a,64cf49c63c02593184695681,,,,,,,decisionTrl,resources/DG.BMP,resources/DP.BMP,WildCard_Ex,0.359518628,-0.004531672,1,0,0,0.83,optionRight,5,6190,3,26,0,26,0,1,,,,,,,,,,,,,,,,,,,,,,,,,,,,,,,,,,,,,,,
,,,,,,,,2023-08-06_08h21.30.776,HF_wild_card,2022.2.4,MacIntel,59.80861244,5d542c3a5af5900019bc80c4,64ce5acb97489d65b14ecc7a,64cf49c63c02593184695681,,,,,,,decisionTrl,resources/DBN.BMP,resources/DR.BMP,Door4,0.298364217,-0.002744797,1,0,0,0.7543,optionRight,80,6270,3,27,0,27,0,1,,,,,,,,,,,,,,,,,,,,,,,,,,,,,,,,,,,,,,,
,,,,,,,,2023-08-06_08h21.30.776,HF_wild_card,2022.2.4,MacIntel,59.80861244,5d542c3a5af5900019bc80c4,64ce5acb97489d65b14ecc7a,64cf49c63c02593184695681,,,,,,,ctch,resources/DR.BMP,resources/DG.BMP,Door4,-0.406962786,0.038358467,1,0,0,1.0966,optionLeft,80,6350,3,28,0,28,0,1,,,,,,,,,,,,,,,,,,,,,,,,,,,,,,,,,,,,,,,
,,,,,,,,2023-08-06_08h21.30.776,HF_wild_card,2022.2.4,MacIntel,59.80861244,5d542c3a5af5900019bc80c4,64ce5acb97489d65b14ecc7a,64cf49c63c02593184695681,,,,,,,decisionTrl,resources/DP.BMP,resources/DB.BMP,WildCard_Ex,-0.264866283,0.013757043,1,0,0,1.454,optionLeft,5,6355,3,29,0,29,0,1,,,,,,,,,,,,,,,,,,,,,,,,,,,,,,,,,,,,,,,
,,,,,,,,2023-08-06_08h21.30.776,HF_wild_card,2022.2.4,MacIntel,59.80861244,5d542c3a5af5900019bc80c4,64ce5acb97489d65b14ecc7a,64cf49c63c02593184695681,,,,,,,sngl,resources/Empty.png,resources/DG.BMP,Door1,0.405367359,-0.016322201,1,0,0,0.6753,optionRight,30,6385,3,30,0,30,0,1,,,,,,,,,,,,,,,,,,,,,,,,,,,,,,,,,,,,,,,
,,,,,,,,2023-08-06_08h21.30.776,HF_wild_card,2022.2.4,MacIntel,59.80861244,5d542c3a5af5900019bc80c4,64ce5acb97489d65b14ecc7a,64cf49c63c02593184695681,,,,,,,decisionTrl,resources/DR.BMP,resources/DBN.BMP,Door3,0.278840175,-0.003945864,1,0,0,0.8132,optionRight,70,6455,3,31,0,31,0,1,,,,,,,,,,,,,,,,,,,,,,,,,,,,,,,,,,,,,,,
,,,,,,,,2023-08-06_08h21.30.776,HF_wild_card,2022.2.4,MacIntel,59.80861244,5d542c3a5af5900019bc80c4,64ce5acb97489d65b14ecc7a,64cf49c63c02593184695681,,,,,,,ctch,resources/DG.BMP,resources/DR.BMP,Door4,0.293272072,-0.021292276,1,0,0,1.1709,optionRight,60,6515,3,32,0,32,0,1,,,,,,,,,,,,,,,,,,,,,,,,,,,,,,,,,,,,,,,
,,,,,,,,2023-08-06_08h21.30.776,HF_wild_card,2022.2.4,MacIntel,59.80861244,5d542c3a5af5900019bc80c4,64ce5acb97489d65b14ecc7a,64cf49c63c02593184695681,,,,,,,sngl,resources/DG.BMP,resources/Empty.png,Door1,-0.278092169,-0.007421951,1,0,0,0.6775,optionLeft,30,6545,3,33,0,33,0,1,,,,,,,,,,,,,,,,,,,,,,,,,,,,,,,,,,,,,,,
,,,,,,,,2023-08-06_08h21.30.776,HF_wild_card,2022.2.4,MacIntel,59.80861244,5d542c3a5af5900019bc80c4,64ce5acb97489d65b14ecc7a,64cf49c63c02593184695681,,,,,,,sngl,resources/DBN.BMP,resources/Empty.png,Door3,-0.298572999,0.053649525,1,0,0,0.7342,optionLeft,70,6615,3,34,0,34,0,1,,,,,,,,,,,,,,,,,,,,,,,,,,,,,,,,,,,,,,,
,,,,,,,,2023-08-06_08h21.30.776,HF_wild_card,2022.2.4,MacIntel,59.80861244,5d542c3a5af5900019bc80c4,64ce5acb97489d65b14ecc7a,64cf49c63c02593184695681,,,,,,,decisionTrl,resources/DBN.BMP,resources/DR.BMP,Door4,0.347073841,-0.085214965,1,0,0,1.9976,optionRight,80,6695,3,35,0,35,0,1,,,,,,,,,,,,,,,,,,,,,,,,,,,,,,,,,,,,,,,
,,,,,,,,2023-08-06_08h21.30.776,HF_wild_card,2022.2.4,MacIntel,59.80861244,5d542c3a5af5900019bc80c4,64ce5acb97489d65b14ecc7a,64cf49c63c02593184695681,,,,,,,decisionTrl,resources/DR.BMP,resources/DBN.BMP,Door4,-0.316056173,0.039578965,1,0,0,0.6646,optionLeft,60,6755,3,36,0,36,0,1,,,,,,,,,,,,,,,,,,,,,,,,,,,,,,,,,,,,,,,
,,,,,,,,2023-08-06_08h21.30.776,HF_wild_card,2022.2.4,MacIntel,59.80861244,5d542c3a5af5900019bc80c4,64ce5acb97489d65b14ecc7a,64cf49c63c02593184695681,,,,,,,sngl,resources/Empty.png,resources/DR.BMP,Door4,0.355681172,-0.021067702,1,0,0,0.6232,optionRight,60,6815,3,37,0,37,0,1,,,,,,,,,,,,,,,,,,,,,,,,,,,,,,,,,,,,,,,
,,,,,,,,2023-08-06_08h21.30.776,HF_wild_card,2022.2.4,MacIntel,59.80861244,5d542c3a5af5900019bc80c4,64ce5acb97489d65b14ecc7a,64cf49c63c02593184695681,,,,,,,ctch,resources/DR.BMP,resources/DG.BMP,Door4,-0.427189762,0.029692505,1,0,0,0.8663,optionLeft,80,6895,3,38,0,38,0,1,,,,,,,,,,,,,,,,,,,,,,,,,,,,,,,,,,,,,,,
,,,,,,,,2023-08-06_08h21.30.776,HF_wild_card,2022.2.4,MacIntel,59.80861244,5d542c3a5af5900019bc80c4,64ce5acb97489d65b14ecc7a,64cf49c63c02593184695681,,,,,,,decisionTrl,resources/DG.BMP,resources/DB.BMP,Door2,0.316735936,0.01161865,1,0,0,1.2471,optionRight,40,6935,3,39,0,39,0,1,,,,,,,,,,,,,,,,,,,,,,,,,,,,,,,,,,,,,,,
,,,,,,,,2023-08-06_08h21.30.776,HF_wild_card,2022.2.4,MacIntel,59.80861244,5d542c3a5af5900019bc80c4,64ce5acb97489d65b14ecc7a,64cf49c63c02593184695681,,,,,,,decisionTrl,resources/DP.BMP,resources/DBN.BMP,Door3,0.316452661,0.090837271,1,0,0,2.3209,optionRight,70,7005,3,40,0,40,0,1,,,,,,,,,,,,,,,,,,,,,,,,,,,,,,,,,,,,,,,
,,,,,,,,2023-08-06_08h21.30.776,HF_wild_card,2022.2.4,MacIntel,59.80861244,5d542c3a5af5900019bc80c4,64ce5acb97489d65b14ecc7a,64cf49c63c02593184695681,,,,,,,ctch,resources/DBN.BMP,resources/DB.BMP,Door3,-0.33580956,0.051433001,1,0,0,1.0647,optionLeft,70,7075,3,41,0,41,0,1,,,,,,,,,,,,,,,,,,,,,,,,,,,,,,,,,,,,,,,
,,,,,,,,2023-08-06_08h21.30.776,HF_wild_card,2022.2.4,MacIntel,59.80861244,5d542c3a5af5900019bc80c4,64ce5acb97489d65b14ecc7a,64cf49c63c02593184695681,,,,,,,ctch,resources/DBN.BMP,resources/DB.BMP,Door3,-0.262307956,0.054889555,1,0,0,1.1076,optionLeft,70,7145,3,42,0,42,0,1,,,,,,,,,,,,,,,,,,,,,,,,,,,,,,,,,,,,,,,
,,,,,,,,2023-08-06_08h21.30.776,HF_wild_card,2022.2.4,MacIntel,59.80861244,5d542c3a5af5900019bc80c4,64ce5acb97489d65b14ecc7a,64cf49c63c02593184695681,,,,,,,sngl,resources/Empty.png,resources/DB.BMP,Door2,0.252451979,-0.007861349,1,0,0,0.6617,optionRight,20,7165,3,43,0,43,0,1,,,,,,,,,,,,,,,,,,,,,,,,,,,,,,,,,,,,,,,
,,,,,,,,2023-08-06_08h21.30.776,HF_wild_card,2022.2.4,MacIntel,59.80861244,5d542c3a5af5900019bc80c4,64ce5acb97489d65b14ecc7a,64cf49c63c02593184695681,,,,,,,,,,,,,,,,,,,,,,,,,,2,0,2,0,1,,,,,,,,,,,,,,,,,,,,,,,,,,,,,,,,,,
,,,,,,,,2023-08-06_08h21.30.776,HF_wild_card,2022.2.4,MacIntel,59.80861244,5d542c3a5af5900019bc80c4,64ce5acb97489d65b14ecc7a,64cf49c63c02593184695681,,,,,,,decisionTrl,resources/DY.BMP,resources/DBN.BMP,Door3,0.299408886,-0.059568802,1,0,0,1.0215,optionRight,70,7235,4,0,0,0,0,1,,,,,,,,,,,,,,,,,,,,,,,,,,,,,,,,,,,,,,,
,,,,,,,,2023-08-06_08h21.30.776,HF_wild_card,2022.2.4,MacIntel,59.80861244,5d542c3a5af5900019bc80c4,64ce5acb97489d65b14ecc7a,64cf49c63c02593184695681,,,,,,,decisionTrl,resources/DG.BMP,resources/DB.BMP,Door1,-0.317730761,-0.02290346,1,0,0,1.2228,optionLeft,30,7265,4,1,0,1,0,1,,,,,,,,,,,,,,,,,,,,,,,,,,,,,,,,,,,,,,,
,,,,,,,,2023-08-06_08h21.30.776,HF_wild_card,2022.2.4,MacIntel,59.80861244,5d542c3a5af5900019bc80c4,64ce5acb97489d65b14ecc7a,64cf49c63c02593184695681,,,,,,,decisionTrl,resources/DG.BMP,resources/DB.BMP,Door1,-0.278756141,-0.009267423,1,0,0,1.0464,optionLeft,30,7295,4,2,0,2,0,1,,,,,,,,,,,,,,,,,,,,,,,,,,,,,,,,,,,,,,,
,,,,,,,,2023-08-06_08h21.30.776,HF_wild_card,2022.2.4,MacIntel,59.80861244,5d542c3a5af5900019bc80c4,64ce5acb97489d65b14ecc7a,64cf49c63c02593184695681,,,,,,,ctch,resources/DR.BMP,resources/DG.BMP,Door4,-0.307541563,-0.002134514,1,0,0,1.1915,optionLeft,80,7375,4,3,0,3,0,1,,,,,,,,,,,,,,,,,,,,,,,,,,,,,,,,,,,,,,,
,,,,,,,,2023-08-06_08h21.30.776,HF_wild_card,2022.2.4,MacIntel,59.80861244,5d542c3a5af5900019bc80c4,64ce5acb97489d65b14ecc7a,64cf49c63c02593184695681,,,,,,,sngl,resources/DR.BMP,resources/Empty.png,Door4,-0.272296987,-8.88752E-05,1,0,0,0.6156,optionLeft,60,7435,4,4,0,4,0,1,,,,,,,,,,,,,,,,,,,,,,,,,,,,,,,,,,,,,,,
,,,,,,,,2023-08-06_08h21.30.776,HF_wild_card,2022.2.4,MacIntel,59.80861244,5d542c3a5af5900019bc80c4,64ce5acb97489d65b14ecc7a,64cf49c63c02593184695681,,,,,,,sngl,resources/Empty.png,resources/DY.BMP,WildCard_NonEx,0.358898528,0.006907271,1,0,0,0.6386,optionRight,55,7490,4,5,0,5,0,1,,,,,,,,,,,,,,,,,,,,,,,,,,,,,,,,,,,,,,,
,,,,,,,,2023-08-06_08h21.30.776,HF_wild_card,2022.2.4,MacIntel,59.80861244,5d542c3a5af5900019bc80c4,64ce5acb97489d65b14ecc7a,64cf49c63c02593184695681,,,,,,,sngl,resources/DBN.BMP,resources/Empty.png,Door3,-0.311437618,0.052101813,1,0,0,0.7292,optionLeft,70,7560,4,6,0,6,0,1,,,,,,,,,,,,,,,,,,,,,,,,,,,,,,,,,,,,,,,
,,,,,,,,2023-08-06_08h21.30.776,HF_wild_card,2022.2.4,MacIntel,59.80861244,5d542c3a5af5900019bc80c4,64ce5acb97489d65b14ecc7a,64cf49c63c02593184695681,,,,,,,decisionTrl,resources/DB.BMP,resources/DG.BMP,Door1,0.303143771,0.045564598,1,0,0,1.1771,optionRight,30,7590,4,7,0,7,0,1,,,,,,,,,,,,,,,,,,,,,,,,,,,,,,,,,,,,,,,
,,,,,,,,2023-08-06_08h21.30.776,HF_wild_card,2022.2.4,MacIntel,59.80861244,5d542c3a5af5900019bc80c4,64ce5acb97489d65b14ecc7a,64cf49c63c02593184695681,,,,,,,decisionTrl,resources/DB.BMP,resources/DG.BMP,Door2,-0.325830346,0.023096692,1,0,0,0.617,optionLeft,20,7610,4,8,0,8,0,1,,,,,,,,,,,,,,,,,,,,,,,,,,,,,,,,,,,,,,,
,,,,,,,,2023-08-06_08h21.30.776,HF_wild_card,2022.2.4,MacIntel,59.80861244,5d542c3a5af5900019bc80c4,64ce5acb97489d65b14ecc7a,64cf49c63c02593184695681,,,,,,,sngl,resources/DY.BMP,resources/Empty.png,WildCard_NonEx,-0.242427693,0.012409566,1,0,0,0.6827,optionLeft,55,7665,4,9,0,9,0,1,,,,,,,,,,,,,,,,,,,,,,,,,,,,,,,,,,,,,,,
,,,,,,,,2023-08-06_08h21.30.776,HF_wild_card,2022.2.4,MacIntel,59.80861244,5d542c3a5af5900019bc80c4,64ce5acb97489d65b14ecc7a,64cf49c63c02593184695681,,,,,,,decisionTrl,resources/DBN.BMP,resources/DR.BMP,Door4,0.391677633,0.000106417,1,0,0,1.5502,optionRight,80,7745,4,10,0,10,0,1,,,,,,,,,,,,,,,,,,,,,,,,,,,,,,,,,,,,,,,
,,,,,,,,2023-08-06_08h21.30.776,HF_wild_card,2022.2.4,MacIntel,59.80861244,5d542c3a5af5900019bc80c4,64ce5acb97489d65b14ecc7a,64cf49c63c02593184695681,,,,,,,sngl,resources/Empty.png,resources/DG.BMP,Door1,0.350842917,-0.007290131,1,0,0,0.8556,optionRight,30,7775,4,11,0,11,0,1,,,,,,,,,,,,,,,,,,,,,,,,,,,,,,,,,,,,,,,
,,,,,,,,2023-08-06_08h21.30.776,HF_wild_card,2022.2.4,MacIntel,59.80861244,5d542c3a5af5900019bc80c4,64ce5acb97489d65b14ecc7a,64cf49c63c02593184695681,,,,,,,decisionTrl,resources/DR.BMP,resources/DBN.BMP,Door4,-0.264641709,0.041878528,1,0,0,1.7062,optionLeft,60,7835,4,12,0,12,0,1,,,,,,,,,,,,,,,,,,,,,,,,,,,,,,,,,,,,,,,
,,,,,,,,2023-08-06_08h21.30.776,HF_wild_card,2022.2.4,MacIntel,59.80861244,5d542c3a5af5900019bc80c4,64ce5acb97489d65b14ecc7a,64cf49c63c02593184695681,,,,,,,ctch,resources/DG.BMP,resources/DR.BMP,Door4,0.272102759,0.016100511,1,0,0,1.2856,optionRight,80,7915,4,13,0,13,0,1,,,,,,,,,,,,,,,,,,,,,,,,,,,,,,,,,,,,,,,
,,,,,,,,2023-08-06_08h21.30.776,HF_wild_card,2022.2.4,MacIntel,59.80861244,5d542c3a5af5900019bc80c4,64ce5acb97489d65b14ecc7a,64cf49c63c02593184695681,,,,,,,sngl,resources/Empty.png,resources/DB.BMP,Door2,0.382489405,0.041683236,1,0,0,0.6279,optionRight,40,7955,4,14,0,14,0,1,,,,,,,,,,,,,,,,,,,,,,,,,,,,,,,,,,,,,,,
,,,,,,,,2023-08-06_08h21.30.776,HF_wild_card,2022.2.4,MacIntel,59.80861244,5d542c3a5af5900019bc80c4,64ce5acb97489d65b14ecc7a,64cf49c63c02593184695681,,,,,,,ctch,resources/DBN.BMP,resources/DB.BMP,Door3,-0.315528895,0.037299037,1,0,0,0.7998,optionLeft,70,8025,4,15,0,15,0,1,,,,,,,,,,,,,,,,,,,,,,,,,,,,,,,,,,,,,,,
,,,,,,,,2023-08-06_08h21.30.776,HF_wild_card,2022.2.4,MacIntel,59.80861244,5d542c3a5af5900019bc80c4,64ce5acb97489d65b14ecc7a,64cf49c63c02593184695681,,,,,,,sngl,resources/DY.BMP,resources/Empty.png,WildCard_NonEx,-0.266155196,0.044719923,1,0,0,0.7615,optionLeft,45,8070,4,16,0,16,0,1,,,,,,,,,,,,,,,,,,,,,,,,,,,,,,,,,,,,,,,
,,,,,,,,2023-08-06_08h21.30.776,HF_wild_card,2022.2.4,MacIntel,59.80861244,5d542c3a5af5900019bc80c4,64ce5acb97489d65b14ecc7a,64cf49c63c02593184695681,,,,,,,decisionTrl,resources/DR.BMP,resources/DBN.BMP,Door4,-0.293598051,0.004612686,1,0,0,1.5664,optionLeft,80,8150,4,17,0,17,0,1,,,,,,,,,,,,,,,,,,,,,,,,,,,,,,,,,,,,,,,
,,,,,,,,2023-08-06_08h21.30.776,HF_wild_card,2022.2.4,MacIntel,59.80861244,5d542c3a5af5900019bc80c4,64ce5acb97489d65b14ecc7a,64cf49c63c02593184695681,,,,,,,decisionTrl,resources/DBN.BMP,resources/DY.BMP,Door3,-0.272941392,0.093459002,1,0,0,1.129,optionLeft,70,8220,4,18,0,18,0,1,,,,,,,,,,,,,,,,,,,,,,,,,,,,,,,,,,,,,,,
,,,,,,,,2023-08-06_08h21.30.776,HF_wild_card,2022.2.4,MacIntel,59.80861244,5d542c3a5af5900019bc80c4,64ce5acb97489d65b14ecc7a,64cf49c63c02593184695681,,,,,,,decisionTrl,resources/DBN.BMP,resources/DR.BMP,Door4,0.348299282,0.070473601,1,0,0,1.4768,optionRight,80,8300,4,19,0,19,0,1,,,,,,,,,,,,,,,,,,,,,,,,,,,,,,,,,,,,,,,
,,,,,,,,2023-08-06_08h21.30.776,HF_wild_card,2022.2.4,MacIntel,59.80861244,5d542c3a5af5900019bc80c4,64ce5acb97489d65b14ecc7a,64cf49c63c02593184695681,,,,,,,sngl,resources/Empty.png,resources/DY.BMP,WildCard_NonEx,0.384080988,0.004285574,1,0,0,0.8362,optionRight,45,8345,4,20,0,20,0,1,,,,,,,,,,,,,,,,,,,,,,,,,,,,,,,,,,,,,,,
,,,,,,,,2023-08-06_08h21.30.776,HF_wild_card,2022.2.4,MacIntel,59.80861244,5d542c3a5af5900019bc80c4,64ce5acb97489d65b14ecc7a,64cf49c63c02593184695681,,,,,,,decisionTrl,resources/DB.BMP,resources/DY.BMP,WildCard_NonEx,0.330533039,-0.010326853,1,0,0,1.2223,optionRight,45,8390,4,21,0,21,0,1,,,,,,,,,,,,,,,,,,,,,,,,,,,,,,,,,,,,,,,
,,,,,,,,2023-08-06_08h21.30.776,HF_wild_card,2022.2.4,MacIntel,59.80861244,5d542c3a5af5900019bc80c4,64ce5acb97489d65b14ecc7a,64cf49c63c02593184695681,,,,,,,decisionTrl,resources/DY.BMP,resources/DB.BMP,WildCard_NonEx,-0.290624732,0.035023916,1,0,0,1.4882,optionLeft,45,8435,4,22,0,22,0,1,,,,,,,,,,,,,,,,,,,,,,,,,,,,,,,,,,,,,,,
,,,,,,,,2023-08-06_08h21.30.776,HF_wild_card,2022.2.4,MacIntel,59.80861244,5d542c3a5af5900019bc80c4,64ce5acb97489d65b14ecc7a,64cf49c63c02593184695681,,,,,,,sngl,resources/DB.BMP,resources/Empty.png,Door2,-0.280435637,0.004002403,1,0,0,1.0073,optionLeft,20,8455,4,23,0,23,0,1,,,,,,,,,,,,,,,,,,,,,,,,,,,,,,,,,,,,,,,
,,,,,,,,2023-08-06_08h21.30.776,HF_wild_card,2022.2.4,MacIntel,59.80861244,5d542c3a5af5900019bc80c4,64ce5acb97489d65b14ecc7a,64cf49c63c02593184695681,,,,,,,decisionTrl,resources/DBN.BMP,resources/DR.BMP,Door4,0.364884092,-0.003111008,1,0,0,1.3659,optionRight,80,8535,4,24,0,24,0,1,,,,,,,,,,,,,,,,,,,,,,,,,,,,,,,,,,,,,,,
,,,,,,,,2023-08-06_08h21.30.776,HF_wild_card,2022.2.4,MacIntel,59.80861244,5d542c3a5af5900019bc80c4,64ce5acb97489d65b14ecc7a,64cf49c63c02593184695681,,,,,,,decisionTrl,resources/DR.BMP,resources/DBN.BMP,Door4,-0.349274677,-0.013309886,1,0,0,1.1655,optionLeft,60,8595,4,25,0,25,0,1,,,,,,,,,,,,,,,,,,,,,,,,,,,,,,,,,,,,,,,
,,,,,,,,2023-08-06_08h21.30.776,HF_wild_card,2022.2.4,MacIntel,59.80861244,5d542c3a5af5900019bc80c4,64ce5acb97489d65b14ecc7a,64cf49c63c02593184695681,,,,,,,decisionTrl,resources/DB.BMP,resources/DG.BMP,Door2,-0.321905044,0.00220087,1,0,0,1.6911,optionLeft,40,8635,4,26,0,26,0,1,,,,,,,,,,,,,,,,,,,,,,,,,,,,,,,,,,,,,,,
,,,,,,,,2023-08-06_08h21.30.776,HF_wild_card,2022.2.4,MacIntel,59.80861244,5d542c3a5af5900019bc80c4,64ce5acb97489d65b14ecc7a,64cf49c63c02593184695681,,,,,,,sngl,resources/Empty.png,resources/DBN.BMP,Door3,0.365928899,0.008484264,1,0,0,0.5943,optionRight,70,8705,4,27,0,27,0,1,,,,,,,,,,,,,,,,,,,,,,,,,,,,,,,,,,,,,,,
,,,,,,,,2023-08-06_08h21.30.776,HF_wild_card,2022.2.4,MacIntel,59.80861244,5d542c3a5af5900019bc80c4,64ce5acb97489d65b14ecc7a,64cf49c63c02593184695681,,,,,,,ctch,resources/DB.BMP,resources/DBN.BMP,Door3,0.340058231,0.023667909,1,0,0,0.7346,optionRight,70,8775,4,28,0,28,0,1,,,,,,,,,,,,,,,,,,,,,,,,,,,,,,,,,,,,,,,
,,,,,,,,2023-08-06_08h21.30.776,HF_wild_card,2022.2.4,MacIntel,59.80861244,5d542c3a5af5900019bc80c4,64ce5acb97489d65b14ecc7a,64cf49c63c02593184695681,,,,,,,decisionTrl,resources/DBN.BMP,resources/DR.BMP,Door4,0.253052376,0.012609733,1,0,0,1.3306,optionRight,80,8855,4,29,0,29,0,1,,,,,,,,,,,,,,,,,,,,,,,,,,,,,,,,,,,,,,,
,,,,,,,,2023-08-06_08h21.30.776,HF_wild_card,2022.2.4,MacIntel,59.80861244,5d542c3a5af5900019bc80c4,64ce5acb97489d65b14ecc7a,64cf49c63c02593184695681,,,,,,,decisionTrl,resources/DG.BMP,resources/DY.BMP,WildCard_NonEx,0.269451815,-0.002837551,1,0,0,1.2676,optionRight,45,8900,4,30,0,30,0,1,,,,,,,,,,,,,,,,,,,,,,,,,,,,,,,,,,,,,,,
,,,,,,,,2023-08-06_08h21.30.776,HF_wild_card,2022.2.4,MacIntel,59.80861244,5d542c3a5af5900019bc80c4,64ce5acb97489d65b14ecc7a,64cf49c63c02593184695681,,,,,,,ctch,resources/DBN.BMP,resources/DB.BMP,Door3,-0.275831705,0.038338935,1,0,0,0.7967,optionLeft,70,8970,4,31,0,31,0,1,,,,,,,,,,,,,,,,,,,,,,,,,,,,,,,,,,,,,,,
,,,,,,,,2023-08-06_08h21.30.776,HF_wild_card,2022.2.4,MacIntel,59.80861244,5d542c3a5af5900019bc80c4,64ce5acb97489d65b14ecc7a,64cf49c63c02593184695681,,,,,,,decisionTrl,resources/DR.BMP,resources/DY.BMP,Door4,-0.321670721,0.009548603,1,0,0,1.0676,optionLeft,60,9030,4,32,0,32,0,1,,,,,,,,,,,,,,,,,,,,,,,,,,,,,,,,,,,,,,,
,,,,,,,,2023-08-06_08h21.30.776,HF_wild_card,2022.2.4,MacIntel,59.80861244,5d542c3a5af5900019bc80c4,64ce5acb97489d65b14ecc7a,64cf49c63c02593184695681,,,,,,,decisionTrl,resources/DY.BMP,resources/DR.BMP,Door4,0.231873382,0.001903075,1,0,0,0.9514,optionRight,80,9110,4,33,0,33,0,1,,,,,,,,,,,,,,,,,,,,,,,,,,,,,,,,,,,,,,,
,,,,,,,,2023-08-06_08h21.30.776,HF_wild_card,2022.2.4,MacIntel,59.80861244,5d542c3a5af5900019bc80c4,64ce5acb97489d65b14ecc7a,64cf49c63c02593184695681,,,,,,,ctch,resources/DB.BMP,resources/DBN.BMP,Door3,0.245055328,0.023443336,1,0,0,1.0118,optionRight,70,9180,4,34,0,34,0,1,,,,,,,,,,,,,,,,,,,,,,,,,,,,,,,,,,,,,,,
,,,,,,,,2023-08-06_08h21.30.776,HF_wild_card,2022.2.4,MacIntel,59.80861244,5d542c3a5af5900019bc80c4,64ce5acb97489d65b14ecc7a,64cf49c63c02593184695681,,,,,,,ctch,resources/DR.BMP,resources/DG.BMP,Door4,-0.350148599,0.027129406,1,0,0,0.9862,optionLeft,60,9240,4,35,0,35,0,1,,,,,,,,,,,,,,,,,,,,,,,,,,,,,,,,,,,,,,,
,,,,,,,,2023-08-06_08h21.30.776,HF_wild_card,2022.2.4,MacIntel,59.80861244,5d542c3a5af5900019bc80c4,64ce5acb97489d65b14ecc7a,64cf49c63c02593184695681,,,,,,,sngl,resources/DG.BMP,resources/Empty.png,Door1,-0.337327921,0.052004219,1,0,0,0.7623,optionLeft,30,9270,4,36,0,36,0,1,,,,,,,,,,,,,,,,,,,,,,,,,,,,,,,,,,,,,,,
,,,,,,,,2023-08-06_08h21.30.776,HF_wild_card,2022.2.4,MacIntel,59.80861244,5d542c3a5af5900019bc80c4,64ce5acb97489d65b14ecc7a,64cf49c63c02593184695681,,,,,,,decisionTrl,resources/DR.BMP,resources/DBN.BMP,Door3,0.384642456,0.027617619,1,0,0,0.7685,optionRight,70,9340,4,37,0,37,0,1,,,,,,,,,,,,,,,,,,,,,,,,,,,,,,,,,,,,,,,
,,,,,,,,2023-08-06_08h21.30.776,HF_wild_card,2022.2.4,MacIntel,59.80861244,5d542c3a5af5900019bc80c4,64ce5acb97489d65b14ecc7a,64cf49c63c02593184695681,,,,,,,ctch,resources/DG.BMP,resources/DR.BMP,Door4,0.365723892,0.02175893,1,0,0,1.0053,optionRight,60,9400,4,38,0,38,0,1,,,,,,,,,,,,,,,,,,,,,,,,,,,,,,,,,,,,,,,
,,,,,,,,2023-08-06_08h21.30.776,HF_wild_card,2022.2.4,MacIntel,59.80861244,5d542c3a5af5900019bc80c4,64ce5acb97489d65b14ecc7a,64cf49c63c02593184695681,,,,,,,sngl,resources/Empty.png,resources/DR.BMP,Door4,0.336054696,-0.004541455,1,0,0,0.5498,optionRight,80,9480,4,39,0,39,0,1,,,,,,,,,,,,,,,,,,,,,,,,,,,,,,,,,,,,,,,
,,,,,,,,2023-08-06_08h21.30.776,HF_wild_card,2022.2.4,MacIntel,59.80861244,5d542c3a5af5900019bc80c4,64ce5acb97489d65b14ecc7a,64cf49c63c02593184695681,,,,,,,decisionTrl,resources/DY.BMP,resources/DG.BMP,WildCard_NonEx,-0.276939916,0.007883765,1,0,0,1.1196,optionLeft,45,9525,4,40,0,40,0,1,,,,,,,,,,,,,,,,,,,,,,,,,,,,,,,,,,,,,,,
,,,,,,,,2023-08-06_08h21.30.776,HF_wild_card,2022.2.4,MacIntel,59.80861244,5d542c3a5af5900019bc80c4,64ce5acb97489d65b14ecc7a,64cf49c63c02593184695681,,,,,,,decisionTrl,resources/DB.BMP,resources/DG.BMP,Door2,-0.367563426,0.036449522,1,0,0,1.5654,optionLeft,20,9545,4,41,0,41,0,1,,,,,,,,,,,,,,,,,,,,,,,,,,,,,,,,,,,,,,,
,,,,,,,,2023-08-06_08h21.30.776,HF_wild_card,2022.2.4,MacIntel,59.80861244,5d542c3a5af5900019bc80c4,64ce5acb97489d65b14ecc7a,64cf49c63c02593184695681,,,,,,,decisionTrl,resources/DG.BMP,resources/DB.BMP,Door1,-0.193937664,0.006365404,1,0,0,1.0011,optionLeft,30,9575,4,42,0,42,0,1,,,,,,,,,,,,,,,,,,,,,,,,,,,,,,,,,,,,,,,
,,,,,,,,2023-08-06_08h21.30.776,HF_wild_card,2022.2.4,MacIntel,59.80861244,5d542c3a5af5900019bc80c4,64ce5acb97489d65b14ecc7a,64cf49c63c02593184695681,,,,,,,decisionTrl,resources/DG.BMP,resources/DB.BMP,Door2,0.278015205,-0.009980209,1,0,0,1.2839,optionRight,20,9595,4,43,0,43,0,1,,,,,,,,,,,,,,,,,,,,,,,,,,,,,,,,,,,,,,,
,,,,,,,,2023-08-06_08h21.30.776,HF_wild_card,2022.2.4,MacIntel,59.80861244,5d542c3a5af5900019bc80c4,64ce5acb97489d65b14ecc7a,64cf49c63c02593184695681,,,,,,,,,,,,,,,,,,,,,,,,,,3,0,3,0,1,,,,,,,,,,,,,,,,,,,,,,,,,,,,,,,,,,
,,,,,,,,2023-08-06_08h21.30.776,HF_wild_card,2022.2.4,MacIntel,59.80861244,5d542c3a5af5900019bc80c4,64ce5acb97489d65b14ecc7a,64cf49c63c02593184695681,,,,,,,ctch,resources/DG.BMP,resources/DR.BMP,Door4,0.302567678,-0.123935695,1,0,0,1.0197,optionRight,80,9675,5,0,0,0,0,1,,,,,,,,,,,,,,,,,,,,,,,,,,,,,,,,,,,,,,,
,,,,,,,,2023-08-06_08h21.30.776,HF_wild_card,2022.2.4,MacIntel,59.80861244,5d542c3a5af5900019bc80c4,64ce5acb97489d65b14ecc7a,64cf49c63c02593184695681,,,,,,,decisionTrl,resources/DY.BMP,resources/DR.BMP,Door4,0.300966346,-0.015355525,1,0,0,1.043,optionRight,80,9755,5,1,0,1,0,1,,,,,,,,,,,,,,,,,,,,,,,,,,,,,,,,,,,,,,,
,,,,,,,,2023-08-06_08h21.30.776,HF_wild_card,2022.2.4,MacIntel,59.80861244,5d542c3a5af5900019bc80c4,64ce5acb97489d65b14ecc7a,64cf49c63c02593184695681,,,,,,,ctch,resources/DR.BMP,resources/DG.BMP,Door4,-0.304373056,-0.001534015,1,0,0,0.6534,optionLeft,80,9835,5,2,0,2,0,1,,,,,,,,,,,,,,,,,,,,,,,,,,,,,,,,,,,,,,,
,,,,,,,,2023-08-06_08h21.30.776,HF_wild_card,2022.2.4,MacIntel,59.80861244,5d542c3a5af5900019bc80c4,64ce5acb97489d65b14ecc7a,64cf49c63c02593184695681,,,,,,,decisionTrl,resources/DBN.BMP,resources/DR.BMP,Door4,0.345204065,-0.037261963,1,0,0,0.9368,optionRight,60,9895,5,3,0,3,0,1,,,,,,,,,,,,,,,,,,,,,,,,,,,,,,,,,,,,,,,
,,,,,,,,2023-08-06_08h21.30.776,HF_wild_card,2022.2.4,MacIntel,59.80861244,5d542c3a5af5900019bc80c4,64ce5acb97489d65b14ecc7a,64cf49c63c02593184695681,,,,,,,sngl,resources/DY.BMP,resources/Empty.png,WildCard_NonEx,-0.281553665,-0.021028637,1,0,0,0.6477,optionLeft,45,9940,5,4,0,4,0,1,,,,,,,,,,,,,,,,,,,,,,,,,,,,,,,,,,,,,,,
,,,,,,,,2023-08-06_08h21.30.776,HF_wild_card,2022.2.4,MacIntel,59.80861244,5d542c3a5af5900019bc80c4,64ce5acb97489d65b14ecc7a,64cf49c63c02593184695681,,,,,,,decisionTrl,resources/DBN.BMP,resources/DR.BMP,Door4,0.297275402,-0.017762501,1,0,0,1.01,optionRight,60,10000,5,5,0,5,0,1,,,,,,,,,,,,,,,,,,,,,,,,,,,,,,,,,,,,,,,
,,,,,,,,2023-08-06_08h21.30.776,HF_wild_card,2022.2.4,MacIntel,59.80861244,5d542c3a5af5900019bc80c4,64ce5acb97489d65b14ecc7a,64cf49c63c02593184695681,,,,,,,sngl,resources/Empty.png,resources/DBN.BMP,Door3,0.285777792,0.002401037,1,0,0,0.5515,optionRight,70,10070,5,6,0,6,0,1,,,,,,,,,,,,,,,,,,,,,,,,,,,,,,,,,,,,,,,
,,,,,,,,2023-08-06_08h21.30.776,HF_wild_card,2022.2.4,MacIntel,59.80861244,5d542c3a5af5900019bc80c4,64ce5acb97489d65b14ecc7a,64cf49c63c02593184695681,,,,,,,decisionTrl,resources/DG.BMP,resources/DB.BMP,Door2,0.248824404,-0.017103403,1,0,0,1.2334,optionRight,40,10110,5,7,0,7,0,1,,,,,,,,,,,,,,,,,,,,,,,,,,,,,,,,,,,,,,,
,,,,,,,,2023-08-06_08h21.30.776,HF_wild_card,2022.2.4,MacIntel,59.80861244,5d542c3a5af5900019bc80c4,64ce5acb97489d65b14ecc7a,64cf49c63c02593184695681,,,,,,,decisionTrl,resources/DR.BMP,resources/DBN.BMP,Door3,0.309114711,0.005486607,1,0,0,1.1009,optionRight,70,10180,5,8,0,8,0,1,,,,,,,,,,,,,,,,,,,,,,,,,,,,,,,,,,,,,,,
,,,,,,,,2023-08-06_08h21.30.776,HF_wild_card,2022.2.4,MacIntel,59.80861244,5d542c3a5af5900019bc80c4,64ce5acb97489d65b14ecc7a,64cf49c63c02593184695681,,,,,,,decisionTrl,resources/DR.BMP,resources/DY.BMP,Door4,-0.315782785,0.050622552,1,0,0,1.0547,optionLeft,80,10260,5,9,0,9,0,1,,,,,,,,,,,,,,,,,,,,,,,,,,,,,,,,,,,,,,,
,,,,,,,,2023-08-06_08h21.30.776,HF_wild_card,2022.2.4,MacIntel,59.80861244,5d542c3a5af5900019bc80c4,64ce5acb97489d65b14ecc7a,64cf49c63c02593184695681,,,,,,,ctch,resources/DBN.BMP,resources/DB.BMP,Door3,-0.248462038,0.034970227,1,0,0,1.0324,optionLeft,70,10330,5,10,0,10,0,1,,,,,,,,,,,,,,,,,,,,,,,,,,,,,,,,,,,,,,,
,,,,,,,,2023-08-06_08h21.30.776,HF_wild_card,2022.2.4,MacIntel,59.80861244,5d542c3a5af5900019bc80c4,64ce5acb97489d65b14ecc7a,64cf49c63c02593184695681,,,,,,,sngl,resources/Empty.png,resources/DR.BMP,Door4,0.381493344,0.001117033,1,0,0,0.626,optionRight,60,10390,5,11,0,11,0,1,,,,,,,,,,,,,,,,,,,,,,,,,,,,,,,,,,,,,,,
,,,,,,,,2023-08-06_08h21.30.776,HF_wild_card,2022.2.4,MacIntel,59.80861244,5d542c3a5af5900019bc80c4,64ce5acb97489d65b14ecc7a,64cf49c63c02593184695681,,,,,,,sngl,resources/Empty.png,resources/DY.BMP,WildCard_NonEx,0.335673998,0.000706916,1,0,0,1.2392,optionRight,55,10445,5,12,0,12,0,1,,,,,,,,,,,,,,,,,,,,,,,,,,,,,,,,,,,,,,,
,,,,,,,,2023-08-06_08h21.30.776,HF_wild_card,2022.2.4,MacIntel,59.80861244,5d542c3a5af5900019bc80c4,64ce5acb97489d65b14ecc7a,64cf49c63c02593184695681,,,,,,,sngl,resources/DB.BMP,resources/Empty.png,Door2,-0.349728733,0.011638182,1,0,0,0.8218,optionLeft,40,10485,5,13,0,13,0,1,,,,,,,,,,,,,,,,,,,,,,,,,,,,,,,,,,,,,,,
,,,,,,,,2023-08-06_08h21.30.776,HF_wild_card,2022.2.4,MacIntel,59.80861244,5d542c3a5af5900019bc80c4,64ce5acb97489d65b14ecc7a,64cf49c63c02593184695681,,,,,,,sngl,resources/DR.BMP,resources/Empty.png,Door4,-0.258787895,-0.024836812,1,0,0,0.9402,optionLeft,80,10565,5,14,0,14,0,1,,,,,,,,,,,,,,,,,,,,,,,,,,,,,,,,,,,,,,,
,,,,,,,,2023-08-06_08h21.30.776,HF_wild_card,2022.2.4,MacIntel,59.80861244,5d542c3a5af5900019bc80c4,64ce5acb97489d65b14ecc7a,64cf49c63c02593184695681,,,,,,,decisionTrl,resources/DB.BMP,resources/DY.BMP,WildCard_NonEx,0.345492008,-0.011352127,1,0,0,1.0116,optionRight,45,10610,5,15,0,15,0,1,,,,,,,,,,,,,,,,,,,,,,,,,,,,,,,,,,,,,,,
,,,,,,,,2023-08-06_08h21.30.776,HF_wild_card,2022.2.4,MacIntel,59.80861244,5d542c3a5af5900019bc80c4,64ce5acb97489d65b14ecc7a,64cf49c63c02593184695681,,,,,,,decisionTrl,resources/DG.BMP,resources/DB.BMP,Door1,-0.249257829,0.006633917,1,0,0,1.3155,optionLeft,30,10640,5,16,0,16,0,1,,,,,,,,,,,,,,,,,,,,,,,,,,,,,,,,,,,,,,,
,,,,,,,,2023-08-06_08h21.30.776,HF_wild_card,2022.2.4,MacIntel,59.80861244,5d542c3a5af5900019bc80c4,64ce5acb97489d65b14ecc7a,64cf49c63c02593184695681,,,,,,,decisionTrl,resources/DBN.BMP,resources/DR.BMP,Door4,0.233391778,0.054210925,1,0,0,1.8093,optionRight,80,10720,5,17,0,17,0,1,,,,,,,,,,,,,,,,,,,,,,,,,,,,,,,,,,,,,,,
,,,,,,,,2023-08-06_08h21.30.776,HF_wild_card,2022.2.4,MacIntel,59.80861244,5d542c3a5af5900019bc80c4,64ce5acb97489d65b14ecc7a,64cf49c63c02593184695681,,,,,,,decisionTrl,resources/DB.BMP,resources/DG.BMP,Door1,0.329766427,-0.001011611,1,0,0,1.4124,optionRight,30,10750,5,18,0,18,0,1,,,,,,,,,,,,,,,,,,,,,,,,,,,,,,,,,,,,,,,
,,,,,,,,2023-08-06_08h21.30.776,HF_wild_card,2022.2.4,MacIntel,59.80861244,5d542c3a5af5900019bc80c4,64ce5acb97489d65b14ecc7a,64cf49c63c02593184695681,,,,,,,sngl,resources/DBN.BMP,resources/Empty.png,Door3,-0.333705288,0.014723719,1,0,0,0.6035,optionLeft,70,10820,5,19,0,19,0,1,,,,,,,,,,,,,,,,,,,,,,,,,,,,,,,,,,,,,,,
,,,,,,,,2023-08-06_08h21.30.776,HF_wild_card,2022.2.4,MacIntel,59.80861244,5d542c3a5af5900019bc80c4,64ce5acb97489d65b14ecc7a,64cf49c63c02593184695681,,,,,,,decisionTrl,resources/DG.BMP,resources/DB.BMP,Door1,-0.271823433,0.013561751,1,0,0,1.4001,optionLeft,30,10850,5,20,0,20,0,1,,,,,,,,,,,,,,,,,,,,,,,,,,,,,,,,,,,,,,,
,,,,,,,,2023-08-06_08h21.30.776,HF_wild_card,2022.2.4,MacIntel,59.80861244,5d542c3a5af5900019bc80c4,64ce5acb97489d65b14ecc7a,64cf49c63c02593184695681,,,,,,,sngl,resources/DY.BMP,resources/Empty.png,WildCard_NonEx,-0.179330077,-0.003272075,1,0,0,0.7524,optionLeft,55,10905,5,21,0,21,0,1,,,,,,,,,,,,,,,,,,,,,,,,,,,,,,,,,,,,,,,
,,,,,,,,2023-08-06_08h21.30.776,HF_wild_card,2022.2.4,MacIntel,59.80861244,5d542c3a5af5900019bc80c4,64ce5acb97489d65b14ecc7a,64cf49c63c02593184695681,,,,,,,ctch,resources/DB.BMP,resources/DBN.BMP,Door3,0.330923623,0.060416257,1,0,0,0.9101,optionRight,70,10975,5,22,0,22,0,1,,,,,,,,,,,,,,,,,,,,,,,,,,,,,,,,,,,,,,,
,,,,,,,,2023-08-06_08h21.30.776,HF_wild_card,2022.2.4,MacIntel,59.80861244,5d542c3a5af5900019bc80c4,64ce5acb97489d65b14ecc7a,64cf49c63c02593184695681,,,,,,,decisionTrl,resources/DB.BMP,resources/DG.BMP,Door2,-0.345486103,0.005735588,1,0,0,1.6596,optionLeft,40,11015,5,23,0,23,0,1,,,,,,,,,,,,,,,,,,,,,,,,,,,,,,,,,,,,,,,
,,,,,,,,2023-08-06_08h21.30.776,HF_wild_card,2022.2.4,MacIntel,59.80861244,5d542c3a5af5900019bc80c4,64ce5acb97489d65b14ecc7a,64cf49c63c02593184695681,,,,,,,sngl,resources/Empty.png,resources/DB.BMP,Door2,0.295966956,-0.01073697,1,0,0,0.6452,optionRight,20,11035,5,24,0,24,0,1,,,,,,,,,,,,,,,,,,,,,,,,,,,,,,,,,,,,,,,
,,,,,,,,2023-08-06_08h21.30.776,HF_wild_card,2022.2.4,MacIntel,59.80861244,5d542c3a5af5900019bc80c4,64ce5acb97489d65b14ecc7a,64cf49c63c02593184695681,,,,,,,sngl,resources/DG.BMP,resources/Empty.png,Door1,-0.253554217,0.007717755,1,0,0,0.6664,optionLeft,30,11065,5,25,0,25,0,1,,,,,,,,,,,,,,,,,,,,,,,,,,,,,,,,,,,,,,,
,,,,,,,,2023-08-06_08h21.30.776,HF_wild_card,2022.2.4,MacIntel,59.80861244,5d542c3a5af5900019bc80c4,64ce5acb97489d65b14ecc7a,64cf49c63c02593184695681,,,,,,,decisionTrl,resources/DY.BMP,resources/DB.BMP,WildCard_NonEx,-0.260120782,-0.001724466,1,0,0,1.1211,optionLeft,45,11110,5,26,0,26,0,1,,,,,,,,,,,,,,,,,,,,,,,,,,,,,,,,,,,,,,,
,,,,,,,,2023-08-06_08h21.30.776,HF_wild_card,2022.2.4,MacIntel,59.80861244,5d542c3a5af5900019bc80c4,64ce5acb97489d65b14ecc7a,64cf49c63c02593184695681,,,,,,,decisionTrl,resources/DBN.BMP,resources/DR.BMP,Door4,0.277717376,0.003885241,1,0,0,1.4642,optionRight,60,11170,5,27,0,27,0,1,,,,,,,,,,,,,,,,,,,,,,,,,,,,,,,,,,,,,,,
,,,,,,,,2023-08-06_08h21.30.776,HF_wild_card,2022.2.4,MacIntel,59.80861244,5d542c3a5af5900019bc80c4,64ce5acb97489d65b14ecc7a,64cf49c63c02593184695681,,,,,,,sngl,resources/Empty.png,resources/DG.BMP,Door1,0.260653965,-0.002642259,1,0,0,0.62,optionRight,30,11200,5,28,0,28,0,1,,,,,,,,,,,,,,,,,,,,,,,,,,,,,,,,,,,,,,,
,,,,,,,,2023-08-06_08h21.30.776,HF_wild_card,2022.2.4,MacIntel,59.80861244,5d542c3a5af5900019bc80c4,64ce5acb97489d65b14ecc7a,64cf49c63c02593184695681,,,,,,,decisionTrl,resources/DB.BMP,resources/DG.BMP,Door1,0.293320818,0.001507616,1,0,0,1.5907,optionRight,30,11230,5,29,0,29,0,1,,,,,,,,,,,,,,,,,,,,,,,,,,,,,,,,,,,,,,,
,,,,,,,,2023-08-06_08h21.30.776,HF_wild_card,2022.2.4,MacIntel,59.80861244,5d542c3a5af5900019bc80c4,64ce5acb97489d65b14ecc7a,64cf49c63c02593184695681,,,,,,,decisionTrl,resources/DG.BMP,resources/DB.BMP,Door2,0.206066084,0.008103464,1,0,0,0.6817,optionRight,40,11270,5,30,0,30,0,1,,,,,,,,,,,,,,,,,,,,,,,,,,,,,,,,,,,,,,,
,,,,,,,,2023-08-06_08h21.30.776,HF_wild_card,2022.2.4,MacIntel,59.80861244,5d542c3a5af5900019bc80c4,64ce5acb97489d65b14ecc7a,64cf49c63c02593184695681,,,,,,,decisionTrl,resources/DBN.BMP,resources/DY.BMP,Door3,-0.320049822,0.055758636,1,0,0,1.1152,optionLeft,70,11340,5,31,0,31,0,1,,,,,,,,,,,,,,,,,,,,,,,,,,,,,,,,,,,,,,,
,,,,,,,,2023-08-06_08h21.30.776,HF_wild_card,2022.2.4,MacIntel,59.80861244,5d542c3a5af5900019bc80c4,64ce5acb97489d65b14ecc7a,64cf49c63c02593184695681,,,,,,,decisionTrl,resources/DR.BMP,resources/DBN.BMP,Door3,0.311824357,0.009924529,1,0,0,1.88,optionRight,70,11410,5,32,0,32,0,1,,,,,,,,,,,,,,,,,,,,,,,,,,,,,,,,,,,,,,,
,,,,,,,,2023-08-06_08h21.30.776,HF_wild_card,2022.2.4,MacIntel,59.80861244,5d542c3a5af5900019bc80c4,64ce5acb97489d65b14ecc7a,64cf49c63c02593184695681,,,,,,,decisionTrl,resources/DY.BMP,resources/DG.BMP,WildCard_NonEx,-0.215092216,0.008044866,1,0,0,0.7987,optionLeft,55,11465,5,33,0,33,0,1,,,,,,,,,,,,,,,,,,,,,,,,,,,,,,,,,,,,,,,
,,,,,,,,2023-08-06_08h21.30.776,HF_wild_card,2022.2.4,MacIntel,59.80861244,5d542c3a5af5900019bc80c4,64ce5acb97489d65b14ecc7a,64cf49c63c02593184695681,,,,,,,decisionTrl,resources/DR.BMP,resources/DBN.BMP,Door4,-0.285630285,0.025596387,1,0,0,0.9584,optionLeft,60,11525,5,34,0,34,0,1,,,,,,,,,,,,,,,,,,,,,,,,,,,,,,,,,,,,,,,
,,,,,,,,2023-08-06_08h21.30.776,HF_wild_card,2022.2.4,MacIntel,59.80861244,5d542c3a5af5900019bc80c4,64ce5acb97489d65b14ecc7a,64cf49c63c02593184695681,,,,,,,ctch,resources/DG.BMP,resources/DR.BMP,Door4,0.324103065,-0.017254687,1,0,0,0.9274,optionRight,80,11605,5,35,0,35,0,1,,,,,,,,,,,,,,,,,,,,,,,,,,,,,,,,,,,,,,,
,,,,,,,,2023-08-06_08h21.30.776,HF_wild_card,2022.2.4,MacIntel,59.80861244,5d542c3a5af5900019bc80c4,64ce5acb97489d65b14ecc7a,64cf49c63c02593184695681,,,,,,,ctch,resources/DB.BMP,resources/DBN.BMP,Door3,0.285724104,0.010876547,1,0,0,0.8673,optionRight,70,11675,5,36,0,36,0,1,,,,,,,,,,,,,,,,,,,,,,,,,,,,,,,,,,,,,,,
,,,,,,,,2023-08-06_08h21.30.776,HF_wild_card,2022.2.4,MacIntel,59.80861244,5d542c3a5af5900019bc80c4,64ce5acb97489d65b14ecc7a,64cf49c63c02593184695681,,,,,,,decisionTrl,resources/DB.BMP,resources/DG.BMP,Door2,-0.363633249,0.025733081,1,0,0,2.4107,optionLeft,20,11695,5,37,0,37,0,1,,,,,,,,,,,,,,,,,,,,,,,,,,,,,,,,,,,,,,,
,,,,,,,,2023-08-06_08h21.30.776,HF_wild_card,2022.2.4,MacIntel,59.80861244,5d542c3a5af5900019bc80c4,64ce5acb97489d65b14ecc7a,64cf49c63c02593184695681,,,,,,,ctch,resources/DR.BMP,resources/DG.BMP,Door4,-0.203023389,0.042142166,1,0,0,0.8586,optionLeft,60,11755,5,38,0,38,0,1,,,,,,,,,,,,,,,,,,,,,,,,,,,,,,,,,,,,,,,
,,,,,,,,2023-08-06_08h21.30.776,HF_wild_card,2022.2.4,MacIntel,59.80861244,5d542c3a5af5900019bc80c4,64ce5acb97489d65b14ecc7a,64cf49c63c02593184695681,,,,,,,ctch,resources/DBN.BMP,resources/DB.BMP,Door3,-0.188528192,0.035761143,1,0,0,0.8042,optionLeft,70,11825,5,39,0,39,0,1,,,,,,,,,,,,,,,,,,,,,,,,,,,,,,,,,,,,,,,
,,,,,,,,2023-08-06_08h21.30.776,HF_wild_card,2022.2.4,MacIntel,59.80861244,5d542c3a5af5900019bc80c4,64ce5acb97489d65b14ecc7a,64cf49c63c02593184695681,,,,,,,decisionTrl,resources/DY.BMP,resources/DBN.BMP,Door3,0.188153262,0.019513159,1,0,0,1.1006,optionRight,70,11895,5,40,0,40,0,1,,,,,,,,,,,,,,,,,,,,,,,,,,,,,,,,,,,,,,,
,,,,,,,,2023-08-06_08h21.30.776,HF_wild_card,2022.2.4,MacIntel,59.80861244,5d542c3a5af5900019bc80c4,64ce5acb97489d65b14ecc7a,64cf49c63c02593184695681,,,,,,,decisionTrl,resources/DG.BMP,resources/DY.BMP,WildCard_NonEx,0.158532948,0.05687179,1,0,0,1.0093,optionRight,45,11940,5,41,0,41,0,1,,,,,,,,,,,,,,,,,,,,,,,,,,,,,,,,,,,,,,,
,,,,,,,,2023-08-06_08h21.30.776,HF_wild_card,2022.2.4,MacIntel,59.80861244,5d542c3a5af5900019bc80c4,64ce5acb97489d65b14ecc7a,64cf49c63c02593184695681,,,,,,,decisionTrl,resources/DR.BMP,resources/DBN.BMP,Door3,0.231863633,0.040199065,1,0,0,0.8513,optionRight,70,12010,5,42,0,42,0,1,,,,,,,,,,,,,,,,,,,,,,,,,,,,,,,,,,,,,,,
,,,,,,,,2023-08-06_08h21.30.776,HF_wild_card,2022.2.4,MacIntel,59.80861244,5d542c3a5af5900019bc80c4,64ce5acb97489d65b14ecc7a,64cf49c63c02593184695681,,,,,,,sngl,resources/Empty.png,resources/DY.BMP,WildCard_NonEx,0.300238868,0.025625634,1,0,0,0.606,optionRight,45,12055,5,43,0,43,0,1,,,,,,,,,,,,,,,,,,,,,,,,,,,,,,,,,,,,,,,
,,,,,,,,2023-08-06_08h21.30.776,HF_wild_card,2022.2.4,MacIntel,59.80861244,5d542c3a5af5900019bc80c4,64ce5acb97489d65b14ecc7a,64cf49c63c02593184695681,,,,,,,,,,,,,,,,,,,,,,,,,,4,0,4,0,1,,,,,,,,,,,,,,,,,,,,,,,,,,,,,,,,,,
,,,,,,,,2023-08-06_08h21.30.776,HF_wild_card,2022.2.4,MacIntel,59.80861244,5d542c3a5af5900019bc80c4,64ce5acb97489d65b14ecc7a,64cf49c63c02593184695681,,,,,,,decisionTrl,resources/DR.BMP,resources/DBN.BMP,Door4,-0.252353149,-0.037515887,1,0,0,1.4486,optionLeft,80,12135,6,0,0,0,0,1,,,,,,,,,,,,,,,,,,,,,,,,,,,,,,,,,,,,,,,
,,,,,,,,2023-08-06_08h21.30.776,HF_wild_card,2022.2.4,MacIntel,59.80861244,5d542c3a5af5900019bc80c4,64ce5acb97489d65b14ecc7a,64cf49c63c02593184695681,,,,,,,sngl,resources/DY.BMP,resources/Empty.png,WildCard_NonEx,-0.336844583,0.125662015,1,0,0,1.5765,optionLeft,55,12190,6,1,0,1,0,1,,,,,,,,,,,,,,,,,,,,,,,,,,,,,,,,,,,,,,,
,,,,,,,,2023-08-06_08h21.30.776,HF_wild_card,2022.2.4,MacIntel,59.80861244,5d542c3a5af5900019bc80c4,64ce5acb97489d65b14ecc7a,64cf49c63c02593184695681,,,,,,,sngl,resources/DR.BMP,resources/Empty.png,Door4,-0.226785117,0.014045089,1,0,0,0.8785,optionLeft,60,12250,6,2,0,2,0,1,,,,,,,,,,,,,,,,,,,,,,,,,,,,,,,,,,,,,,,
,,,,,,,,2023-08-06_08h21.30.776,HF_wild_card,2022.2.4,MacIntel,59.80861244,5d542c3a5af5900019bc80c4,64ce5acb97489d65b14ecc7a,64cf49c63c02593184695681,,,,,,,decisionTrl,resources/DB.BMP,resources/DY.BMP,WildCard_NonEx,0.237795509,0.006360461,1,0,0,1.0335,optionRight,45,12295,6,3,0,3,0,1,,,,,,,,,,,,,,,,,,,,,,,,,,,,,,,,,,,,,,,
,,,,,,,,2023-08-06_08h21.30.776,HF_wild_card,2022.2.4,MacIntel,59.80861244,5d542c3a5af5900019bc80c4,64ce5acb97489d65b14ecc7a,64cf49c63c02593184695681,,,,,,,sngl,resources/DG.BMP,resources/Empty.png,Door1,-0.202291105,0.014699312,1,0,0,0.7756,optionLeft,30,12325,6,4,0,4,0,1,,,,,,,,,,,,,,,,,,,,,,,,,,,,,,,,,,,,,,,
,,,,,,,,2023-08-06_08h21.30.776,HF_wild_card,2022.2.4,MacIntel,59.80861244,5d542c3a5af5900019bc80c4,64ce5acb97489d65b14ecc7a,64cf49c63c02593184695681,,,,,,,sngl,resources/Empty.png,resources/DY.BMP,WildCard_NonEx,0.279284448,-0.023655277,1,0,0,0.5948,optionRight,45,12370,6,5,0,5,0,1,,,,,,,,,,,,,,,,,,,,,,,,,,,,,,,,,,,,,,,
,,,,,,,,2023-08-06_08h21.30.776,HF_wild_card,2022.2.4,MacIntel,59.80861244,5d542c3a5af5900019bc80c4,64ce5acb97489d65b14ecc7a,64cf49c63c02593184695681,,,,,,,decisionTrl,resources/DG.BMP,resources/DB.BMP,Door2,0.256665327,0.036259071,1,0,0,1.135,optionRight,40,12410,6,6,0,6,0,1,,,,,,,,,,,,,,,,,,,,,,,,,,,,,,,,,,,,,,,
,,,,,,,,2023-08-06_08h21.30.776,HF_wild_card,2022.2.4,MacIntel,59.80861244,5d542c3a5af5900019bc80c4,64ce5acb97489d65b14ecc7a,64cf49c63c02593184695681,,,,,,,ctch,resources/DG.BMP,resources/DR.BMP,Door4,0.270301227,0.008660024,1,0,0,0.9546,optionRight,80,12490,6,7,0,7,0,1,,,,,,,,,,,,,,,,,,,,,,,,,,,,,,,,,,,,,,,
,,,,,,,,2023-08-06_08h21.30.776,HF_wild_card,2022.2.4,MacIntel,59.80861244,5d542c3a5af5900019bc80c4,64ce5acb97489d65b14ecc7a,64cf49c63c02593184695681,,,,,,,sngl,resources/Empty.png,resources/DR.BMP,Door4,0.410010287,-0.0324384,1,0,0,0.6013,optionRight,80,12570,6,8,0,8,0,1,,,,,,,,,,,,,,,,,,,,,,,,,,,,,,,,,,,,,,,
,,,,,,,,2023-08-06_08h21.30.776,HF_wild_card,2022.2.4,MacIntel,59.80861244,5d542c3a5af5900019bc80c4,64ce5acb97489d65b14ecc7a,64cf49c63c02593184695681,,,,,,,sngl,resources/DB.BMP,resources/Empty.png,Door2,-0.290024267,0.02998062,1,0,0,0.783,optionLeft,20,12590,6,9,0,9,0,1,,,,,,,,,,,,,,,,,,,,,,,,,,,,,,,,,,,,,,,
,,,,,,,,2023-08-06_08h21.30.776,HF_wild_card,2022.2.4,MacIntel,59.80861244,5d542c3a5af5900019bc80c4,64ce5acb97489d65b14ecc7a,64cf49c63c02593184695681,,,,,,,decisionTrl,resources/DY.BMP,resources/DB.BMP,WildCard_NonEx,-0.239937713,-0.015204173,1,0,0,1.39,optionLeft,45,12635,6,10,0,10,0,1,,,,,,,,,,,,,,,,,,,,,,,,,,,,,,,,,,,,,,,
,,,,,,,,2023-08-06_08h21.30.776,HF_wild_card,2022.2.4,MacIntel,59.80861244,5d542c3a5af5900019bc80c4,64ce5acb97489d65b14ecc7a,64cf49c63c02593184695681,,,,,,,sngl,resources/DY.BMP,resources/Empty.png,WildCard_NonEx,-0.271457256,-0.002232212,1,0,0,0.5755,optionLeft,45,12680,6,11,0,11,0,1,,,,,,,,,,,,,,,,,,,,,,,,,,,,,,,,,,,,,,,
,,,,,,,,2023-08-06_08h21.30.776,HF_wild_card,2022.2.4,MacIntel,59.80861244,5d542c3a5af5900019bc80c4,64ce5acb97489d65b14ecc7a,64cf49c63c02593184695681,,,,,,,sngl,resources/Empty.png,resources/DBN.BMP,Door3,0.327833075,-0.024255776,1,0,0,0.9569,optionRight,70,12750,6,12,0,12,0,1,,,,,,,,,,,,,,,,,,,,,,,,,,,,,,,,,,,,,,,
,,,,,,,,2023-08-06_08h21.30.776,HF_wild_card,2022.2.4,MacIntel,59.80861244,5d542c3a5af5900019bc80c4,64ce5acb97489d65b14ecc7a,64cf49c63c02593184695681,,,,,,,decisionTrl,resources/DBN.BMP,resources/DR.BMP,Door4,0.322589613,0.02963885,1,0,0,1.1983,optionRight,80,12830,6,13,0,13,0,1,,,,,,,,,,,,,,,,,,,,,,,,,,,,,,,,,,,,,,,
,,,,,,,,2023-08-06_08h21.30.776,HF_wild_card,2022.2.4,MacIntel,59.80861244,5d542c3a5af5900019bc80c4,64ce5acb97489d65b14ecc7a,64cf49c63c02593184695681,,,,,,,decisionTrl,resources/DBN.BMP,resources/DY.BMP,Door3,-0.290663832,0.060987475,1,0,0,0.8287,optionLeft,70,12900,6,14,0,14,0,1,,,,,,,,,,,,,,,,,,,,,,,,,,,,,,,,,,,,,,,
,,,,,,,,2023-08-06_08h21.30.776,HF_wild_card,2022.2.4,MacIntel,59.80861244,5d542c3a5af5900019bc80c4,64ce5acb97489d65b14ecc7a,64cf49c63c02593184695681,,,,,,,decisionTrl,resources/DB.BMP,resources/DG.BMP,Door2,-0.354488823,0.016037039,1,0,0,1.1713,optionLeft,20,12920,6,15,0,15,0,1,,,,,,,,,,,,,,,,,,,,,,,,,,,,,,,,,,,,,,,
,,,,,,,,2023-08-06_08h21.30.776,HF_wild_card,2022.2.4,MacIntel,59.80861244,5d542c3a5af5900019bc80c4,64ce5acb97489d65b14ecc7a,64cf49c63c02593184695681,,,,,,,sngl,resources/Empty.png,resources/DG.BMP,Door1,0.390281308,-0.041490003,1,0,0,0.6778,optionRight,30,12950,6,16,0,16,0,1,,,,,,,,,,,,,,,,,,,,,,,,,,,,,,,,,,,,,,,
,,,,,,,,2023-08-06_08h21.30.776,HF_wild_card,2022.2.4,MacIntel,59.80861244,5d542c3a5af5900019bc80c4,64ce5acb97489d65b14ecc7a,64cf49c63c02593184695681,,,,,,,ctch,resources/DB.BMP,resources/DBN.BMP,Door3,0.284361969,0.057560169,1,0,0,1.0007,optionRight,70,13020,6,17,0,17,0,1,,,,,,,,,,,,,,,,,,,,,,,,,,,,,,,,,,,,,,,
,,,,,,,,2023-08-06_08h21.30.776,HF_wild_card,2022.2.4,MacIntel,59.80861244,5d542c3a5af5900019bc80c4,64ce5acb97489d65b14ecc7a,64cf49c63c02593184695681,,,,,,,ctch,resources/DR.BMP,resources/DG.BMP,Door4,-0.281499942,0.019654762,1,0,0,1.0424,optionLeft,80,13100,6,18,0,18,0,1,,,,,,,,,,,,,,,,,,,,,,,,,,,,,,,,,,,,,,,
,,,,,,,,2023-08-06_08h21.30.776,HF_wild_card,2022.2.4,MacIntel,59.80861244,5d542c3a5af5900019bc80c4,64ce5acb97489d65b14ecc7a,64cf49c63c02593184695681,,,,,,,decisionTrl,resources/DR.BMP,resources/DY.BMP,Door4,-0.236593446,0.015319344,1,0,0,0.8586,optionLeft,80,13180,6,19,0,19,0,1,,,,,,,,,,,,,,,,,,,,,,,,,,,,,,,,,,,,,,,
,,,,,,,,2023-08-06_08h21.30.776,HF_wild_card,2022.2.4,MacIntel,59.80861244,5d542c3a5af5900019bc80c4,64ce5acb97489d65b14ecc7a,64cf49c63c02593184695681,,,,,,,decisionTrl,resources/DBN.BMP,resources/DR.BMP,Door4,0.247003442,0.026577721,1,0,0,1.3025,optionRight,80,13260,6,20,0,20,0,1,,,,,,,,,,,,,,,,,,,,,,,,,,,,,,,,,,,,,,,
,,,,,,,,2023-08-06_08h21.30.776,HF_wild_card,2022.2.4,MacIntel,59.80861244,5d542c3a5af5900019bc80c4,64ce5acb97489d65b14ecc7a,64cf49c63c02593184695681,,,,,,,decisionTrl,resources/DG.BMP,resources/DB.BMP,Door2,0.23117522,0.006277524,1,0,0,1.4763,optionRight,20,13280,6,21,0,21,0,1,,,,,,,,,,,,,,,,,,,,,,,,,,,,,,,,,,,,,,,
,,,,,,,,2023-08-06_08h21.30.776,HF_wild_card,2022.2.4,MacIntel,59.80861244,5d542c3a5af5900019bc80c4,64ce5acb97489d65b14ecc7a,64cf49c63c02593184695681,,,,,,,ctch,resources/DBN.BMP,resources/DB.BMP,Door3,-0.23504086,0.037264846,1,0,0,0.8717,optionLeft,70,13350,6,22,0,22,0,1,,,,,,,,,,,,,,,,,,,,,,,,,,,,,,,,,,,,,,,
,,,,,,,,2023-08-06_08h21.30.776,HF_wild_card,2022.2.4,MacIntel,59.80861244,5d542c3a5af5900019bc80c4,64ce5acb97489d65b14ecc7a,64cf49c63c02593184695681,,,,,,,decisionTrl,resources/DY.BMP,resources/DBN.BMP,Door3,0.297211895,0.00165406,1,0,0,0.7365,optionRight,70,13420,6,23,0,23,0,1,,,,,,,,,,,,,,,,,,,,,,,,,,,,,,,,,,,,,,,
,,,,,,,,2023-08-06_08h21.30.776,HF_wild_card,2022.2.4,MacIntel,59.80861244,5d542c3a5af5900019bc80c4,64ce5acb97489d65b14ecc7a,64cf49c63c02593184695681,,,,,,,ctch,resources/DBN.BMP,resources/DB.BMP,Door3,-0.241900415,0.040018363,1,0,0,0.6801,optionLeft,70,13490,6,24,0,24,0,1,,,,,,,,,,,,,,,,,,,,,,,,,,,,,,,,,,,,,,,
,,,,,,,,2023-08-06_08h21.30.776,HF_wild_card,2022.2.4,MacIntel,59.80861244,5d542c3a5af5900019bc80c4,64ce5acb97489d65b14ecc7a,64cf49c63c02593184695681,,,,,,,decisionTrl,resources/DB.BMP,resources/DG.BMP,Door2,-0.273610307,0.010061223,1,0,0,1.1807,optionLeft,20,13510,6,25,0,25,0,1,,,,,,,,,,,,,,,,,,,,,,,,,,,,,,,,,,,,,,,
,,,,,,,,2023-08-06_08h21.30.776,HF_wild_card,2022.2.4,MacIntel,59.80861244,5d542c3a5af5900019bc80c4,64ce5acb97489d65b14ecc7a,64cf49c63c02593184695681,,,,,,,decisionTrl,resources/DBN.BMP,resources/DR.BMP,Door3,-0.206094302,0.049587529,1,0,0,0.9632,optionLeft,70,13580,6,26,0,26,0,1,,,,,,,,,,,,,,,,,,,,,,,,,,,,,,,,,,,,,,,
,,,,,,,,2023-08-06_08h21.30.776,HF_wild_card,2022.2.4,MacIntel,59.80861244,5d542c3a5af5900019bc80c4,64ce5acb97489d65b14ecc7a,64cf49c63c02593184695681,,,,,,,decisionTrl,resources/DY.BMP,resources/DR.BMP,Door4,0.424266425,0.018605081,1,0,0,0.7297,optionRight,60,13640,6,27,0,27,0,1,,,,,,,,,,,,,,,,,,,,,,,,,,,,,,,,,,,,,,,
,,,,,,,,2023-08-06_08h21.30.776,HF_wild_card,2022.2.4,MacIntel,59.80861244,5d542c3a5af5900019bc80c4,64ce5acb97489d65b14ecc7a,64cf49c63c02593184695681,,,,,,,decisionTrl,resources/DR.BMP,resources/DBN.BMP,Door3,0.328350604,0.029106698,1,0,0,0.7465,optionRight,70,13710,6,28,0,28,0,1,,,,,,,,,,,,,,,,,,,,,,,,,,,,,,,,,,,,,,,
,,,,,,,,2023-08-06_08h21.30.776,HF_wild_card,2022.2.4,MacIntel,59.80861244,5d542c3a5af5900019bc80c4,64ce5acb97489d65b14ecc7a,64cf49c63c02593184695681,,,,,,,decisionTrl,resources/DG.BMP,resources/DB.BMP,Door1,-0.210542042,0.010315044,1,0,0,0.9553,optionLeft,30,13740,6,29,0,29,0,1,,,,,,,,,,,,,,,,,,,,,,,,,,,,,,,,,,,,,,,
,,,,,,,,2023-08-06_08h21.30.776,HF_wild_card,2022.2.4,MacIntel,59.80861244,5d542c3a5af5900019bc80c4,64ce5acb97489d65b14ecc7a,64cf49c63c02593184695681,,,,,,,decisionTrl,resources/DY.BMP,resources/DG.BMP,WildCard_NonEx,-0.198068007,-0.000279292,1,0,0,1.0328,optionLeft,55,13795,6,30,0,30,0,1,,,,,,,,,,,,,,,,,,,,,,,,,,,,,,,,,,,,,,,
,,,,,,,,2023-08-06_08h21.30.776,HF_wild_card,2022.2.4,MacIntel,59.80861244,5d542c3a5af5900019bc80c4,64ce5acb97489d65b14ecc7a,64cf49c63c02593184695681,,,,,,,decisionTrl,resources/DG.BMP,resources/DY.BMP,WildCard_NonEx,0.231990578,-0.01726447,1,0,0,1.0542,optionRight,45,13840,6,31,0,31,0,1,,,,,,,,,,,,,,,,,,,,,,,,,,,,,,,,,,,,,,,
,,,,,,,,2023-08-06_08h21.30.776,HF_wild_card,2022.2.4,MacIntel,59.80861244,5d542c3a5af5900019bc80c4,64ce5acb97489d65b14ecc7a,64cf49c63c02593184695681,,,,,,,decisionTrl,resources/DB.BMP,resources/DG.BMP,Door2,-0.238892975,0.018473262,1,0,0,1.5787,optionLeft,20,13860,6,32,0,32,0,1,,,,,,,,,,,,,,,,,,,,,,,,,,,,,,,,,,,,,,,
,,,,,,,,2023-08-06_08h21.30.776,HF_wild_card,2022.2.4,MacIntel,59.80861244,5d542c3a5af5900019bc80c4,64ce5acb97489d65b14ecc7a,64cf49c63c02593184695681,,,,,,,decisionTrl,resources/DB.BMP,resources/DG.BMP,Door2,-0.203443289,0.012194742,1,0,0,0.601,optionLeft,40,13900,6,33,0,33,0,1,,,,,,,,,,,,,,,,,,,,,,,,,,,,,,,,,,,,,,,
,,,,,,,,2023-08-06_08h21.30.776,HF_wild_card,2022.2.4,MacIntel,59.80861244,5d542c3a5af5900019bc80c4,64ce5acb97489d65b14ecc7a,64cf49c63c02593184695681,,,,,,,sngl,resources/DBN.BMP,resources/Empty.png,Door3,-0.20725143,0.017199007,1,0,0,0.8877,optionLeft,70,13970,6,34,0,34,0,1,,,,,,,,,,,,,,,,,,,,,,,,,,,,,,,,,,,,,,,
,,,,,,,,2023-08-06_08h21.30.776,HF_wild_card,2022.2.4,MacIntel,59.80861244,5d542c3a5af5900019bc80c4,64ce5acb97489d65b14ecc7a,64cf49c63c02593184695681,,,,,,,sngl,resources/Empty.png,resources/DB.BMP,Door2,0.295722953,0.001932357,1,0,0,0.7312,optionRight,40,14010,6,35,0,35,0,1,,,,,,,,,,,,,,,,,,,,,,,,,,,,,,,,,,,,,,,
,,,,,,,,2023-08-06_08h21.30.776,HF_wild_card,2022.2.4,MacIntel,59.80861244,5d542c3a5af5900019bc80c4,64ce5acb97489d65b14ecc7a,64cf49c63c02593184695681,,,,,,,ctch,resources/DB.BMP,resources/DBN.BMP,Door3,0.368653168,0.027373512,1,0,0,1.3914,optionRight,70,14080,6,36,0,36,0,1,,,,,,,,,,,,,,,,,,,,,,,,,,,,,,,,,,,,,,,
,,,,,,,,2023-08-06_08h21.30.776,HF_wild_card,2022.2.4,MacIntel,59.80861244,5d542c3a5af5900019bc80c4,64ce5acb97489d65b14ecc7a,64cf49c63c02593184695681,,,,,,,decisionTrl,resources/DR.BMP,resources/DBN.BMP,Door4,-0.356671225,-0.006626194,1,0,0,1.243,optionLeft,80,14160,6,37,0,37,0,1,,,,,,,,,,,,,,,,,,,,,,,,,,,,,,,,,,,,,,,
,,,,,,,,2023-08-06_08h21.30.776,HF_wild_card,2022.2.4,MacIntel,59.80861244,5d542c3a5af5900019bc80c4,64ce5acb97489d65b14ecc7a,64cf49c63c02593184695681,,,,,,,sngl,resources/Empty.png,resources/DY.BMP,WildCard_NonEx,0.325133248,-0.030734462,1,0,0,0.5893,optionRight,55,14215,6,38,0,38,0,1,,,,,,,,,,,,,,,,,,,,,,,,,,,,,,,,,,,,,,,
,,,,,,,,2023-08-06_08h21.30.776,HF_wild_card,2022.2.4,MacIntel,59.80861244,5d542c3a5af5900019bc80c4,64ce5acb97489d65b14ecc7a,64cf49c63c02593184695681,,,,,,,ctch,resources/DR.BMP,resources/DG.BMP,Door4,-0.212963606,-0.01662978,1,0,0,0.7783,optionLeft,60,14275,6,39,0,39,0,1,,,,,,,,,,,,,,,,,,,,,,,,,,,,,,,,,,,,,,,
,,,,,,,,2023-08-06_08h21.30.776,HF_wild_card,2022.2.4,MacIntel,59.80861244,5d542c3a5af5900019bc80c4,64ce5acb97489d65b14ecc7a,64cf49c63c02593184695681,,,,,,,decisionTrl,resources/DBN.BMP,resources/DR.BMP,Door4,0.264305982,-0.00746589,1,0,0,1.4171,optionRight,80,14355,6,40,0,40,0,1,,,,,,,,,,,,,,,,,,,,,,,,,,,,,,,,,,,,,,,
,,,,,,,,2023-08-06_08h21.30.776,HF_wild_card,2022.2.4,MacIntel,59.80861244,5d542c3a5af5900019bc80c4,64ce5acb97489d65b14ecc7a,64cf49c63c02593184695681,,,,,,,decisionTrl,resources/DG.BMP,resources/DB.BMP,Door2,0.190448019,-0.003237884,1,0,0,1.2693,optionRight,20,14375,6,41,0,41,0,1,,,,,,,,,,,,,,,,,,,,,,,,,,,,,,,,,,,,,,,
,,,,,,,,2023-08-06_08h21.30.776,HF_wild_card,2022.2.4,MacIntel,59.80861244,5d542c3a5af5900019bc80c4,64ce5acb97489d65b14ecc7a,64cf49c63c02593184695681,,,,,,,ctch,resources/DG.BMP,resources/DR.BMP,Door4,0.220087762,-0.01233837,1,0,0,0.8291,optionRight,60,14435,6,42,0,42,0,1,,,,,,,,,,,,,,,,,,,,,,,,,,,,,,,,,,,,,,,
,,,,,,,,2023-08-06_08h21.30.776,HF_wild_card,2022.2.4,MacIntel,59.80861244,5d542c3a5af5900019bc80c4,64ce5acb97489d65b14ecc7a,64cf49c63c02593184695681,,,,,,,decisionTrl,resources/DR.BMP,resources/DBN.BMP,Door4,-0.23248751,0.025235119,1,0,0,1.1223,optionLeft,60,14495,6,43,0,43,0,1,,,,,,,,,,,,,,,,,,,,,,,,,,,,,,,,,,,,,,,
,,,,,,,,2023-08-06_08h21.30.776,HF_wild_card,2022.2.4,MacIntel,59.80861244,5d542c3a5af5900019bc80c4,64ce5acb97489d65b14ecc7a,64cf49c63c02593184695681,,,,,,,,,,,,,,,,,,,,,,,,,,5,0,5,0,1,,,,,,,,,,,,,,,,,,,,,,,,,,,,,,,,,,
,,,,,,,,2023-08-06_08h21.30.776,HF_wild_card,2022.2.4,MacIntel,59.80861244,5d542c3a5af5900019bc80c4,64ce5acb97489d65b14ecc7a,64cf49c63c02593184695681,,,,,,,ctch,resources/DB.BMP,resources/DBN.BMP,Door3,0.270765135,0.055812291,1,0,0,1.0336,optionRight,70,14565,7,0,0,0,0,1,,,,,,,,,,,,,,,,,,,,,,,,,,,,,,,,,,,,,,,
,,,,,,,,2023-08-06_08h21.30.776,HF_wild_card,2022.2.4,MacIntel,59.80861244,5d542c3a5af5900019bc80c4,64ce5acb97489d65b14ecc7a,64cf49c63c02593184695681,,,,,,,decisionTrl,resources/DBN.BMP,resources/DR.BMP,Door3,-0.248408383,0.052614502,1,0,0,1.387,optionLeft,70,14635,7,1,0,1,0,1,,,,,,,,,,,,,,,,,,,,,,,,,,,,,,,,,,,,,,,
,,,,,,,,2023-08-06_08h21.30.776,HF_wild_card,2022.2.4,MacIntel,59.80861244,5d542c3a5af5900019bc80c4,64ce5acb97489d65b14ecc7a,64cf49c63c02593184695681,,,,,,,decisionTrl,resources/DG.BMP,resources/DB.BMP,Door2,0.234641591,-0.003018185,1,0,0,1.2178,optionRight,40,14675,7,2,0,2,0,1,,,,,,,,,,,,,,,,,,,,,,,,,,,,,,,,,,,,,,,
,,,,,,,,2023-08-06_08h21.30.776,HF_wild_card,2022.2.4,MacIntel,59.80861244,5d542c3a5af5900019bc80c4,64ce5acb97489d65b14ecc7a,64cf49c63c02593184695681,,,,,,,decisionTrl,resources/DR.BMP,resources/DBN.BMP,Door4,-0.265666914,0.00398287,1,0,0,1.8304,optionLeft,60,14735,7,3,0,3,0,1,,,,,,,,,,,,,,,,,,,,,,,,,,,,,,,,,,,,,,,
,,,,,,,,2023-08-06_08h21.30.776,HF_wild_card,2022.2.4,MacIntel,59.80861244,5d542c3a5af5900019bc80c4,64ce5acb97489d65b14ecc7a,64cf49c63c02593184695681,,,,,,,decisionTrl,resources/DR.BMP,resources/DBN.BMP,Door4,-0.242530162,-0.001958755,1,0,0,1.1362,optionLeft,60,14795,7,4,0,4,0,1,,,,,,,,,,,,,,,,,,,,,,,,,,,,,,,,,,,,,,,
,,,,,,,,2023-08-06_08h21.30.776,HF_wild_card,2022.2.4,MacIntel,59.80861244,5d542c3a5af5900019bc80c4,64ce5acb97489d65b14ecc7a,64cf49c63c02593184695681,,,,,,,decisionTrl,resources/DG.BMP,resources/DB.BMP,Door2,0.203078177,0.008650274,1,0,0,0.976,optionRight,20,14815,7,5,0,5,0,1,,,,,,,,,,,,,,,,,,,,,,,,,,,,,,,,,,,,,,,
,,,,,,,,2023-08-06_08h21.30.776,HF_wild_card,2022.2.4,MacIntel,59.80861244,5d542c3a5af5900019bc80c4,64ce5acb97489d65b14ecc7a,64cf49c63c02593184695681,,,,,,,decisionTrl,resources/DBN.BMP,resources/DR.BMP,Door3,-0.212157997,0.001175562,1,0,0,1.4011,optionLeft,70,14885,7,6,0,6,0,1,,,,,,,,,,,,,,,,,,,,,,,,,,,,,,,,,,,,,,,
,,,,,,,,2023-08-06_08h21.30.776,HF_wild_card,2022.2.4,MacIntel,59.80861244,5d542c3a5af5900019bc80c4,64ce5acb97489d65b14ecc7a,64cf49c63c02593184695681,,,,,,,decisionTrl,resources/DB.BMP,resources/DG.BMP,Door2,-0.188269427,-0.014100803,1,0,0,1.1921,optionLeft,20,14905,7,7,0,7,0,1,,,,,,,,,,,,,,,,,,,,,,,,,,,,,,,,,,,,,,,
,,,,,,,,2023-08-06_08h21.30.776,HF_wild_card,2022.2.4,MacIntel,59.80861244,5d542c3a5af5900019bc80c4,64ce5acb97489d65b14ecc7a,64cf49c63c02593184695681,,,,,,,decisionTrl,resources/DB.BMP,resources/DG.BMP,Door2,-0.276041655,0.002279001,1,0,0,0.6756,optionLeft,40,14945,7,8,0,8,0,1,,,,,,,,,,,,,,,,,,,,,,,,,,,,,,,,,,,,,,,
,,,,,,,,2023-08-06_08h21.30.776,HF_wild_card,2022.2.4,MacIntel,59.80861244,5d542c3a5af5900019bc80c4,64ce5acb97489d65b14ecc7a,64cf49c63c02593184695681,,,,,,,ctch,resources/DG.BMP,resources/DR.BMP,Door4,0.31790755,-0.0080518,1,0,0,1.1746,optionRight,80,15025,7,9,0,9,0,1,,,,,,,,,,,,,,,,,,,,,,,,,,,,,,,,,,,,,,,
,,,,,,,,2023-08-06_08h21.30.776,HF_wild_card,2022.2.4,MacIntel,59.80861244,5d542c3a5af5900019bc80c4,64ce5acb97489d65b14ecc7a,64cf49c63c02593184695681,,,,,,,ctch,resources/DG.BMP,resources/DR.BMP,Door4,0.314743883,-0.018899993,1,0,0,0.717,optionRight,60,15085,7,10,0,10,0,1,,,,,,,,,,,,,,,,,,,,,,,,,,,,,,,,,,,,,,,
,,,,,,,,2023-08-06_08h21.30.776,HF_wild_card,2022.2.4,MacIntel,59.80861244,5d542c3a5af5900019bc80c4,64ce5acb97489d65b14ecc7a,64cf49c63c02593184695681,,,,,,,ctch,resources/DR.BMP,resources/DG.BMP,Door4,-0.240850734,-0.014115496,1,0,0,0.8272,optionLeft,60,15145,7,11,0,11,0,1,,,,,,,,,,,,,,,,,,,,,,,,,,,,,,,,,,,,,,,
,,,,,,,,2023-08-06_08h21.30.776,HF_wild_card,2022.2.4,MacIntel,59.80861244,5d542c3a5af5900019bc80c4,64ce5acb97489d65b14ecc7a,64cf49c63c02593184695681,,,,,,,ctch,resources/DR.BMP,resources/DG.BMP,Door4,-0.23820947,-0.001621894,1,0,0,0.7108,optionLeft,60,15205,7,12,0,12,0,1,,,,,,,,,,,,,,,,,,,,,,,,,,,,,,,,,,,,,,,
,,,,,,,,2023-08-06_08h21.30.776,HF_wild_card,2022.2.4,MacIntel,59.80861244,5d542c3a5af5900019bc80c4,64ce5acb97489d65b14ecc7a,64cf49c63c02593184695681,,,,,,,decisionTrl,resources/DR.BMP,resources/DBN.BMP,Door4,-0.275162859,0.010393209,1,0,0,0.5926,optionLeft,80,15285,7,13,0,13,0,1,,,,,,,,,,,,,,,,,,,,,,,,,,,,,,,,,,,,,,,
,,,,,,,,2023-08-06_08h21.30.776,HF_wild_card,2022.2.4,MacIntel,59.80861244,5d542c3a5af5900019bc80c4,64ce5acb97489d65b14ecc7a,64cf49c63c02593184695681,,,,,,,decisionTrl,resources/DBN.BMP,resources/DR.BMP,Door4,0.26561429,-0.008686422,1,0,0,1.1013,optionRight,80,15365,7,14,0,14,0,1,,,,,,,,,,,,,,,,,,,,,,,,,,,,,,,,,,,,,,,
,,,,,,,,2023-08-06_08h21.30.776,HF_wild_card,2022.2.4,MacIntel,59.80861244,5d542c3a5af5900019bc80c4,64ce5acb97489d65b14ecc7a,64cf49c63c02593184695681,,,,,,,decisionTrl,resources/DB.BMP,resources/DG.BMP,Door1,0.301825576,-0.006230735,1,0,0,1.2445,optionRight,30,15395,7,15,0,15,0,1,,,,,,,,,,,,,,,,,,,,,,,,,,,,,,,,,,,,,,,
,,,,,,,,2023-08-06_08h21.30.776,HF_wild_card,2022.2.4,MacIntel,59.80861244,5d542c3a5af5900019bc80c4,64ce5acb97489d65b14ecc7a,64cf49c63c02593184695681,,,,,,,ctch,resources/DB.BMP,resources/DBN.BMP,Door3,0.343705236,-0.015838863,1,0,0,0.8788,optionRight,70,15465,7,16,0,16,0,1,,,,,,,,,,,,,,,,,,,,,,,,,,,,,,,,,,,,,,,
,,,,,,,,2023-08-06_08h21.30.776,HF_wild_card,2022.2.4,MacIntel,59.80861244,5d542c3a5af5900019bc80c4,64ce5acb97489d65b14ecc7a,64cf49c63c02593184695681,,,,,,,decisionTrl,resources/DG.BMP,resources/DB.BMP,Door2,0.320709949,-0.002788737,1,0,0,1.0588,optionRight,40,15505,7,17,0,17,0,1,,,,,,,,,,,,,,,,,,,,,,,,,,,,,,,,,,,,,,,
,,,,,,,,2023-08-06_08h21.30.776,HF_wild_card,2022.2.4,MacIntel,59.80861244,5d542c3a5af5900019bc80c4,64ce5acb97489d65b14ecc7a,64cf49c63c02593184695681,,,,,,,decisionTrl,resources/DBN.BMP,resources/DR.BMP,Door4,0.278962246,0.033095404,1,0,0,1.6127,optionRight,60,15565,7,18,0,18,0,1,,,,,,,,,,,,,,,,,,,,,,,,,,,,,,,,,,,,,,,
,,,,,,,,2023-08-06_08h21.30.776,HF_wild_card,2022.2.4,MacIntel,59.80861244,5d542c3a5af5900019bc80c4,64ce5acb97489d65b14ecc7a,64cf49c63c02593184695681,,,,,,,ctch,resources/DBN.BMP,resources/DB.BMP,Door3,-0.255360589,0.002596328,1,0,0,0.7129,optionLeft,70,15635,7,19,0,19,0,1,,,,,,,,,,,,,,,,,,,,,,,,,,,,,,,,,,,,,,,
,,,,,,,,2023-08-06_08h21.30.776,HF_wild_card,2022.2.4,MacIntel,59.80861244,5d542c3a5af5900019bc80c4,64ce5acb97489d65b14ecc7a,64cf49c63c02593184695681,,,,,,,ctch,resources/DBN.BMP,resources/DB.BMP,Door3,-0.279590997,0.011838349,1,0,0,0.6737,optionLeft,70,15705,7,20,0,20,0,1,,,,,,,,,,,,,,,,,,,,,,,,,,,,,,,,,,,,,,,
,,,,,,,,2023-08-06_08h21.30.776,HF_wild_card,2022.2.4,MacIntel,59.80861244,5d542c3a5af5900019bc80c4,64ce5acb97489d65b14ecc7a,64cf49c63c02593184695681,,,,,,,ctch,resources/DB.BMP,resources/DBN.BMP,Door3,0.318830286,-0.023528332,1,0,0,0.7051,optionRight,70,15775,7,21,0,21,0,1,,,,,,,,,,,,,,,,,,,,,,,,,,,,,,,,,,,,,,,
,,,,,,,,2023-08-06_08h21.30.776,HF_wild_card,2022.2.4,MacIntel,59.80861244,5d542c3a5af5900019bc80c4,64ce5acb97489d65b14ecc7a,64cf49c63c02593184695681,,,,,,,decisionTrl,resources/DG.BMP,resources/DB.BMP,Door1,-0.280918975,-0.001543764,1,0,0,1.1217,optionLeft,30,15805,7,22,0,22,0,1,,,,,,,,,,,,,,,,,,,,,,,,,,,,,,,,,,,,,,,
,,,,,,,,2023-08-06_08h21.30.776,HF_wild_card,2022.2.4,MacIntel,59.80861244,5d542c3a5af5900019bc80c4,64ce5acb97489d65b14ecc7a,64cf49c63c02593184695681,,,,,,,decisionTrl,resources/DR.BMP,resources/DBN.BMP,Door3,0.265145713,0.003289616,1,0,0,1.3904,optionRight,70,15875,7,23,0,23,0,1,,,,,,,,,,,,,,,,,,,,,,,,,,,,,,,,,,,,,,,
,,,,,,,,2023-08-06_08h21.30.776,HF_wild_card,2022.2.4,MacIntel,59.80861244,5d542c3a5af5900019bc80c4,64ce5acb97489d65b14ecc7a,64cf49c63c02593184695681,,,,,,,ctch,resources/DR.BMP,resources/DG.BMP,Door4,-0.252851179,-0.034679331,1,0,0,0.7855,optionLeft,80,15955,7,24,0,24,0,1,,,,,,,,,,,,,,,,,,,,,,,,,,,,,,,,,,,,,,,
,,,,,,,,2023-08-06_08h21.30.776,HF_wild_card,2022.2.4,MacIntel,59.80861244,5d542c3a5af5900019bc80c4,64ce5acb97489d65b14ecc7a,64cf49c63c02593184695681,,,,,,,decisionTrl,resources/DG.BMP,resources/DB.BMP,Door2,0.232303032,0.007439492,1,0,0,1.1493,optionRight,20,15975,7,25,0,25,0,1,,,,,,,,,,,,,,,,,,,,,,,,,,,,,,,,,,,,,,,
,,,,,,,,2023-08-06_08h21.30.776,HF_wild_card,2022.2.4,MacIntel,59.80861244,5d542c3a5af5900019bc80c4,64ce5acb97489d65b14ecc7a,64cf49c63c02593184695681,,,,,,,decisionTrl,resources/DBN.BMP,resources/DR.BMP,Door4,0.345252879,0.020372423,1,0,0,1.3796,optionRight,80,16055,7,26,0,26,0,1,,,,,,,,,,,,,,,,,,,,,,,,,,,,,,,,,,,,,,,
,,,,,,,,2023-08-06_08h21.30.776,HF_wild_card,2022.2.4,MacIntel,59.80861244,5d542c3a5af5900019bc80c4,64ce5acb97489d65b14ecc7a,64cf49c63c02593184695681,,,,,,,decisionTrl,resources/DG.BMP,resources/DB.BMP,Door2,0.198005668,-0.02222967,1,0,0,0.8453,optionRight,40,16095,7,27,0,27,0,1,,,,,,,,,,,,,,,,,,,,,,,,,,,,,,,,,,,,,,,
,,,,,,,,2023-08-06_08h21.30.776,HF_wild_card,2022.2.4,MacIntel,59.80861244,5d542c3a5af5900019bc80c4,64ce5acb97489d65b14ecc7a,64cf49c63c02593184695681,,,,,,,ctch,resources/DBN.BMP,resources/DB.BMP,Door3,-0.270217123,0.00360207,1,0,0,0.7756,optionLeft,70,16165,7,28,0,28,0,1,,,,,,,,,,,,,,,,,,,,,,,,,,,,,,,,,,,,,,,
,,,,,,,,2023-08-06_08h21.30.776,HF_wild_card,2022.2.4,MacIntel,59.80861244,5d542c3a5af5900019bc80c4,64ce5acb97489d65b14ecc7a,64cf49c63c02593184695681,,,,,,,decisionTrl,resources/DR.BMP,resources/DBN.BMP,Door3,0.287423201,0.039188449,1,0,0,1.0235,optionRight,70,16235,7,29,0,29,0,1,,,,,,,,,,,,,,,,,,,,,,,,,,,,,,,,,,,,,,,
,,,,,,,,2023-08-06_08h21.30.776,HF_wild_card,2022.2.4,MacIntel,59.80861244,5d542c3a5af5900019bc80c4,64ce5acb97489d65b14ecc7a,64cf49c63c02593184695681,,,,,,,decisionTrl,resources/DBN.BMP,resources/DR.BMP,Door4,0.30139119,-0.007851565,1,0,0,1.2161,optionRight,60,16295,7,30,0,30,0,1,,,,,,,,,,,,,,,,,,,,,,,,,,,,,,,,,,,,,,,
,,,,,,,,2023-08-06_08h21.30.776,HF_wild_card,2022.2.4,MacIntel,59.80861244,5d542c3a5af5900019bc80c4,64ce5acb97489d65b14ecc7a,64cf49c63c02593184695681,,,,,,,decisionTrl,resources/DB.BMP,resources/DG.BMP,Door2,-0.263167288,0.005896655,1,0,0,1.4176,optionLeft,40,16335,7,31,0,31,0,1,,,,,,,,,,,,,,,,,,,,,,,,,,,,,,,,,,,,,,,
,,,,,,,,2023-08-06_08h21.30.776,HF_wild_card,2022.2.4,MacIntel,59.80861244,5d542c3a5af5900019bc80c4,64ce5acb97489d65b14ecc7a,64cf49c63c02593184695681,,,,,,,decisionTrl,resources/DB.BMP,resources/DG.BMP,Door2,-0.259954738,-0.028493532,1,0,0,0.8942,optionLeft,20,16355,7,32,0,32,0,1,,,,,,,,,,,,,,,,,,,,,,,,,,,,,,,,,,,,,,,
,,,,,,,,2023-08-06_08h21.30.776,HF_wild_card,2022.2.4,MacIntel,59.80861244,5d542c3a5af5900019bc80c4,64ce5acb97489d65b14ecc7a,64cf49c63c02593184695681,,,,,,,ctch,resources/DG.BMP,resources/DR.BMP,Door4,0.274348565,-0.017674621,1,0,0,1.0697,optionRight,60,16415,7,33,0,33,0,1,,,,,,,,,,,,,,,,,,,,,,,,,,,,,,,,,,,,,,,
,,,,,,,,2023-08-06_08h21.30.776,HF_wild_card,2022.2.4,MacIntel,59.80861244,5d542c3a5af5900019bc80c4,64ce5acb97489d65b14ecc7a,64cf49c63c02593184695681,,,,,,,decisionTrl,resources/DR.BMP,resources/DBN.BMP,Door4,-0.403886999,-0.01603903,1,0,0,1.2025,optionLeft,60,16475,7,34,0,34,0,1,,,,,,,,,,,,,,,,,,,,,,,,,,,,,,,,,,,,,,,
,,,,,,,,2023-08-06_08h21.30.776,HF_wild_card,2022.2.4,MacIntel,59.80861244,5d542c3a5af5900019bc80c4,64ce5acb97489d65b14ecc7a,64cf49c63c02593184695681,,,,,,,decisionTrl,resources/DB.BMP,resources/DG.BMP,Door2,-0.387341219,-0.016444306,1,0,0,1.2257,optionLeft,20,16495,7,35,0,35,0,1,,,,,,,,,,,,,,,,,,,,,,,,,,,,,,,,,,,,,,,
,,,,,,,,2023-08-06_08h21.30.776,HF_wild_card,2022.2.4,MacIntel,59.80861244,5d542c3a5af5900019bc80c4,64ce5acb97489d65b14ecc7a,64cf49c63c02593184695681,,,,,,,,,,,,,,,,,,,,,,,,,,6,0,6,0,1,,,,,,,,,,,,,,,,,,,,,,,,,,,,,,,,,,
,,,,,,,,2023-08-06_08h21.30.776,HF_wild_card,2022.2.4,MacIntel,59.80861244,5d542c3a5af5900019bc80c4,64ce5acb97489d65b14ecc7a,64cf49c63c02593184695681,,,,,,,,,,,,,,,,,,,,,,,,,,,,,,,4,,,,,,,,,,,,,,,,,,,,,,,,,,,,,,,,,
,,,,,,,,2023-08-06_08h21.30.776,HF_wild_card,2022.2.4,MacIntel,59.80861244,5d542c3a5af5900019bc80c4,64ce5acb97489d65b14ecc7a,64cf49c63c02593184695681,,,,,,,,,,,,,,,,,,,,,,,,,,,,,,,,,,,,,,,,,,,,,,,,,,,,,,,,,,,,,,,,
,,,,,,,,2023-08-06_08h21.30.776,HF_wild_card,2022.2.4,MacIntel,59.80861244,5d542c3a5af5900019bc80c4,64ce5acb97489d65b14ecc7a,64cf49c63c02593184695681,,,,,,,,,,,,,,,,,,,,,,,,,,,,,,,,70,Door3,resources/DBN.BMP,0,0,0,0,1,,,,,,,,,,,,,,,,,,,,,,,,,
,,,,,,,,2023-08-06_08h21.30.776,HF_wild_card,2022.2.4,MacIntel,59.80861244,5d542c3a5af5900019bc80c4,64ce5acb97489d65b14ecc7a,64cf49c63c02593184695681,,,,,,,,,,,,,,,,,,,,,,,,,,,,,,,,80,Door4,resources/DR.BMP,1,0,1,0,1,,,,,,,,,,,,,,,,,,,,,,,,,
,,,,,,,,2023-08-06_08h21.30.776,HF_wild_card,2022.2.4,MacIntel,59.80861244,5d542c3a5af5900019bc80c4,64ce5acb97489d65b14ecc7a,64cf49c63c02593184695681,,,,,,,,,,,,,,,,,,,,,,,,,,,,,,,,30,Door1,resources/DG.BMP,2,0,2,0,1,,,,,,,,,,,,,,,,,,,,,,,,,
