Condition,Low fixed image (Door1),Low risky image (Door2),High fixed image (Door3),High risky image (Door4),Extreme Wild Card,NonExtreme Wild Card,,date,expName,psychopyVersion,OS,frameRate,PROLIFIC_PID,STUDY_ID,SESSION_ID,mouse_2.x,mouse_2.y,mouse_2.leftButton,mouse_2.midButton,mouse_2.rightButton,mouse_2.clicked_name,Trial Type,Left Option Image,Right Option Image,Chosen Door,mouse.x,mouse.y,mouse.leftButton,mouse.midButton,mouse.rightButton,mouse.time,mouse.clicked_name,Feedback,Cumulative Reward,Block,trial.thisRepN,trial.thisTrialN,trial.thisN,trial.thisIndex,trial.ran,blocks.thisRepN,blocks.thisTrialN,blocks.thisN,blocks.thisIndex,blocks.ran,Money conversion,First Outcome Reported,Shown Door (First Outcome),Displayed Image (First Outcome),outcomes.thisRepN,outcomes.thisTrialN,outcomes.thisN,outcomes.thisIndex,outcomes.ran,judgments.thisRepN,judgments.thisTrialN,judgments.thisN,judgments.thisIndex,judgments.ran,freqMouse.x,freqMouse.y,freqMouse.leftButton,freqMouse.midButton,freqMouse.rightButton,freqMouse.clicked_name,FQJ for first outcome,FQJ for second outcome,Shown Door,Displayed Image,trials.thisRepN,trials.thisTrialN,trials.thisN,trials.thisIndex,trials.ran,judgBlock.thisRepN,judgBlock.thisTrialN,judgBlock.thisN,judgBlock.thisIndex,judgBlock.ran
0,resources/DR.BMP,resources/DY.BMP,resources/DBN.BMP,resources/DG.BMP,resources/DP.BMP,resources/DB.BMP,,2023-08-06_08h07.30.720,HF_wild_card,2022.2.4,Linux x86_64,15.01140867,5d7824b816dea6000130d65f,64ce5acb97489d65b14ecc7a,64cf4693ff1573428ea185e1,,,,,,,,,,,,,,,,,,,,,,,,,,,,,,,,,,,,,,,,,,,,,,,,,,,,,,,,,,,,,,,,
,,,,,,,,2023-08-06_08h07.30.720,HF_wild_card,2022.2.4,Linux x86_64,15.01140867,5d7824b816dea6000130d65f,64ce5acb97489d65b14ecc7a,64cf4693ff1573428ea185e1,0.005633149,-0.429404026,1,0,0,agree,,,,,,,,,,,,,,,,,,,,,,,,,,,,,,,,,,,,,,,,,,,,,,,,,,,,,,,,,,
,,,,,,,,2023-08-06_08h07.30.720,HF_wild_card,2022.2.4,Linux x86_64,15.01140867,5d7824b816dea6000130d65f,64ce5acb97489d65b14ecc7a,64cf4693ff1573428ea185e1,,,,,,,,,,,,,,,,,,,,,,,,,,,,,,,,,,,,,,,,,,,,,,,,,,,,,,,,,,,,,,,,
,,,,,,,,2023-08-06_08h07.30.720,HF_wild_card,2022.2.4,Linux x86_64,15.01140867,5d7824b816dea6000130d65f,64ce5acb97489d65b14ecc7a,64cf4693ff1573428ea185e1,,,,,,,decisionTrl,resources/DR.BMP,resources/DY.BMP,Door2,0.340740628,-0.002606258,1,0,0,5.4934,optionRight,20,20,1,0,0,0,0,1,,,,,,,,,,,,,,,,,,,,,,,,,,,,,,,,,,,,,,,
,,,,,,,,2023-08-06_08h07.30.720,HF_wild_card,2022.2.4,Linux x86_64,15.01140867,5d7824b816dea6000130d65f,64ce5acb97489d65b14ecc7a,64cf4693ff1573428ea185e1,,,,,,,sngl,resources/DR.BMP,resources/Empty.png,Door1,-0.372044486,-0.024786716,1,0,0,5.6667,optionLeft,30,50,1,1,0,1,0,1,,,,,,,,,,,,,,,,,,,,,,,,,,,,,,,,,,,,,,,
,,,,,,,,2023-08-06_08h07.30.720,HF_wild_card,2022.2.4,Linux x86_64,15.01140867,5d7824b816dea6000130d65f,64ce5acb97489d65b14ecc7a,64cf4693ff1573428ea185e1,,,,,,,sngl,resources/DP.BMP,resources/Empty.png,WildCard_Ex,-0.34719227,-0.011676704,1,0,0,15.0184,optionLeft,95,145,1,2,0,2,0,1,,,,,,,,,,,,,,,,,,,,,,,,,,,,,,,,,,,,,,,
,,,,,,,,2023-08-06_08h07.30.720,HF_wild_card,2022.2.4,Linux x86_64,15.01140867,5d7824b816dea6000130d65f,64ce5acb97489d65b14ecc7a,64cf4693ff1573428ea185e1,,,,,,,decisionTrl,resources/DR.BMP,resources/DY.BMP,Door1,-0.346674771,-0.00415169,1,0,0,10.1253,optionLeft,30,175,1,3,0,3,0,1,,,,,,,,,,,,,,,,,,,,,,,,,,,,,,,,,,,,,,,
,,,,,,,,2023-08-06_08h07.30.720,HF_wild_card,2022.2.4,Linux x86_64,15.01140867,5d7824b816dea6000130d65f,64ce5acb97489d65b14ecc7a,64cf4693ff1573428ea185e1,,,,,,,ctch,resources/DY.BMP,resources/DBN.BMP,Door3,0.430786359,0.003521672,1,0,0,6.0406,optionRight,70,245,1,4,0,4,0,1,,,,,,,,,,,,,,,,,,,,,,,,,,,,,,,,,,,,,,,
,,,,,,,,2023-08-06_08h07.30.720,HF_wild_card,2022.2.4,Linux x86_64,15.01140867,5d7824b816dea6000130d65f,64ce5acb97489d65b14ecc7a,64cf4693ff1573428ea185e1,,,,,,,ctch,resources/DR.BMP,resources/DG.BMP,Door4,0.473390932,-0.024344889,1,0,0,2.6183,optionRight,60,305,1,5,0,5,0,1,,,,,,,,,,,,,,,,,,,,,,,,,,,,,,,,,,,,,,,
,,,,,,,,2023-08-06_08h07.30.720,HF_wild_card,2022.2.4,Linux x86_64,15.01140867,5d7824b816dea6000130d65f,64ce5acb97489d65b14ecc7a,64cf4693ff1573428ea185e1,,,,,,,decisionTrl,resources/DG.BMP,resources/DBN.BMP,Door3,0.377868539,0.053781495,1,0,0,7.956,optionRight,70,375,1,6,0,6,0,1,,,,,,,,,,,,,,,,,,,,,,,,,,,,,,,,,,,,,,,
,,,,,,,,2023-08-06_08h07.30.720,HF_wild_card,2022.2.4,Linux x86_64,15.01140867,5d7824b816dea6000130d65f,64ce5acb97489d65b14ecc7a,64cf4693ff1573428ea185e1,,,,,,,decisionTrl,resources/DBN.BMP,resources/DG.BMP,Door3,-0.426318755,-0.047439406,1,0,0,2.4177,optionLeft,70,445,1,7,0,7,0,1,,,,,,,,,,,,,,,,,,,,,,,,,,,,,,,,,,,,,,,
,,,,,,,,2023-08-06_08h07.30.720,HF_wild_card,2022.2.4,Linux x86_64,15.01140867,5d7824b816dea6000130d65f,64ce5acb97489d65b14ecc7a,64cf4693ff1573428ea185e1,,,,,,,decisionTrl,resources/DY.BMP,resources/DP.BMP,WildCard_Ex,0.398500231,0.049991777,1,0,0,2.7881,optionRight,95,540,1,8,0,8,0,1,,,,,,,,,,,,,,,,,,,,,,,,,,,,,,,,,,,,,,,
,,,,,,,,2023-08-06_08h07.30.720,HF_wild_card,2022.2.4,Linux x86_64,15.01140867,5d7824b816dea6000130d65f,64ce5acb97489d65b14ecc7a,64cf4693ff1573428ea185e1,,,,,,,decisionTrl,resources/DR.BMP,resources/DY.BMP,Door1,-0.306097638,0.002745,1,0,0,3.039,optionLeft,30,570,1,9,0,9,0,1,,,,,,,,,,,,,,,,,,,,,,,,,,,,,,,,,,,,,,,
,,,,,,,,2023-08-06_08h07.30.720,HF_wild_card,2022.2.4,Linux x86_64,15.01140867,5d7824b816dea6000130d65f,64ce5acb97489d65b14ecc7a,64cf4693ff1573428ea185e1,,,,,,,decisionTrl,resources/DR.BMP,resources/DP.BMP,WildCard_Ex,0.349966657,0.04498404,1,0,0,3.6235,optionRight,95,665,1,10,0,10,0,1,,,,,,,,,,,,,,,,,,,,,,,,,,,,,,,,,,,,,,,
,,,,,,,,2023-08-06_08h07.30.720,HF_wild_card,2022.2.4,Linux x86_64,15.01140867,5d7824b816dea6000130d65f,64ce5acb97489d65b14ecc7a,64cf4693ff1573428ea185e1,,,,,,,sngl,resources/Empty.png,resources/DY.BMP,Door2,0.41703333,-0.035241191,1,0,0,1.9015,optionRight,20,685,1,11,0,11,0,1,,,,,,,,,,,,,,,,,,,,,,,,,,,,,,,,,,,,,,,
,,,,,,,,2023-08-06_08h07.30.720,HF_wild_card,2022.2.4,Linux x86_64,15.01140867,5d7824b816dea6000130d65f,64ce5acb97489d65b14ecc7a,64cf4693ff1573428ea185e1,,,,,,,ctch,resources/DR.BMP,resources/DG.BMP,Door4,0.361760231,-0.003488498,1,0,0,3.2537,optionRight,60,745,1,12,0,12,0,1,,,,,,,,,,,,,,,,,,,,,,,,,,,,,,,,,,,,,,,
,,,,,,,,2023-08-06_08h07.30.720,HF_wild_card,2022.2.4,Linux x86_64,15.01140867,5d7824b816dea6000130d65f,64ce5acb97489d65b14ecc7a,64cf4693ff1573428ea185e1,,,,,,,decisionTrl,resources/DP.BMP,resources/DBN.BMP,WildCard_Ex,-0.254059912,0.002082429,1,0,0,4.7838,optionLeft,5,750,1,13,0,13,0,1,,,,,,,,,,,,,,,,,,,,,,,,,,,,,,,,,,,,,,,
,,,,,,,,2023-08-06_08h07.30.720,HF_wild_card,2022.2.4,Linux x86_64,15.01140867,5d7824b816dea6000130d65f,64ce5acb97489d65b14ecc7a,64cf4693ff1573428ea185e1,,,,,,,decisionTrl,resources/DR.BMP,resources/DY.BMP,Door1,-0.346421814,0.037814698,1,0,0,4.5993,optionLeft,30,780,1,14,0,14,0,1,,,,,,,,,,,,,,,,,,,,,,,,,,,,,,,,,,,,,,,
,,,,,,,,2023-08-06_08h07.30.720,HF_wild_card,2022.2.4,Linux x86_64,15.01140867,5d7824b816dea6000130d65f,64ce5acb97489d65b14ecc7a,64cf4693ff1573428ea185e1,,,,,,,sngl,resources/DP.BMP,resources/Empty.png,WildCard_Ex,-0.28635237,-0.020317643,1,0,0,1.8686,optionLeft,5,785,1,15,0,15,0,1,,,,,,,,,,,,,,,,,,,,,,,,,,,,,,,,,,,,,,,
,,,,,,,,2023-08-06_08h07.30.720,HF_wild_card,2022.2.4,Linux x86_64,15.01140867,5d7824b816dea6000130d65f,64ce5acb97489d65b14ecc7a,64cf4693ff1573428ea185e1,,,,,,,sngl,resources/Empty.png,resources/DP.BMP,WildCard_Ex,0.456440678,-0.02719201,1,0,0,1.6172,optionRight,5,790,1,16,0,16,0,1,,,,,,,,,,,,,,,,,,,,,,,,,,,,,,,,,,,,,,,
,,,,,,,,2023-08-06_08h07.30.720,HF_wild_card,2022.2.4,Linux x86_64,15.01140867,5d7824b816dea6000130d65f,64ce5acb97489d65b14ecc7a,64cf4693ff1573428ea185e1,,,,,,,decisionTrl,resources/DBN.BMP,resources/DG.BMP,Door3,-0.439051423,-0.015762442,1,0,0,6.6427,optionLeft,70,860,1,17,0,17,0,1,,,,,,,,,,,,,,,,,,,,,,,,,,,,,,,,,,,,,,,
,,,,,,,,2023-08-06_08h07.30.720,HF_wild_card,2022.2.4,Linux x86_64,15.01140867,5d7824b816dea6000130d65f,64ce5acb97489d65b14ecc7a,64cf4693ff1573428ea185e1,,,,,,,decisionTrl,resources/DY.BMP,resources/DR.BMP,Door1,0.42403994,-0.004336491,1,0,0,1.595,optionRight,30,890,1,18,0,18,0,1,,,,,,,,,,,,,,,,,,,,,,,,,,,,,,,,,,,,,,,
,,,,,,,,2023-08-06_08h07.30.720,HF_wild_card,2022.2.4,Linux x86_64,15.01140867,5d7824b816dea6000130d65f,64ce5acb97489d65b14ecc7a,64cf4693ff1573428ea185e1,,,,,,,decisionTrl,resources/DBN.BMP,resources/DG.BMP,Door3,-0.349298152,0.007186607,1,0,0,5.6574,optionLeft,70,960,1,19,0,19,0,1,,,,,,,,,,,,,,,,,,,,,,,,,,,,,,,,,,,,,,,
,,,,,,,,2023-08-06_08h07.30.720,HF_wild_card,2022.2.4,Linux x86_64,15.01140867,5d7824b816dea6000130d65f,64ce5acb97489d65b14ecc7a,64cf4693ff1573428ea185e1,,,,,,,ctch,resources/DG.BMP,resources/DR.BMP,Door4,-0.285922411,0.0028092,1,0,0,7.3296,optionLeft,60,1020,1,20,0,20,0,1,,,,,,,,,,,,,,,,,,,,,,,,,,,,,,,,,,,,,,,
,,,,,,,,2023-08-06_08h07.30.720,HF_wild_card,2022.2.4,Linux x86_64,15.01140867,5d7824b816dea6000130d65f,64ce5acb97489d65b14ecc7a,64cf4693ff1573428ea185e1,,,,,,,decisionTrl,resources/DY.BMP,resources/DR.BMP,Door1,0.392496971,0.010992432,1,0,0,5.0589,optionRight,30,1050,1,21,0,21,0,1,,,,,,,,,,,,,,,,,,,,,,,,,,,,,,,,,,,,,,,
,,,,,,,,2023-08-06_08h07.30.720,HF_wild_card,2022.2.4,Linux x86_64,15.01140867,5d7824b816dea6000130d65f,64ce5acb97489d65b14ecc7a,64cf4693ff1573428ea185e1,,,,,,,decisionTrl,resources/DG.BMP,resources/DBN.BMP,Door3,0.316369516,0.075863224,1,0,0,5.4347,optionRight,70,1120,1,22,0,22,0,1,,,,,,,,,,,,,,,,,,,,,,,,,,,,,,,,,,,,,,,
,,,,,,,,2023-08-06_08h07.30.720,HF_wild_card,2022.2.4,Linux x86_64,15.01140867,5d7824b816dea6000130d65f,64ce5acb97489d65b14ecc7a,64cf4693ff1573428ea185e1,,,,,,,sngl,resources/Empty.png,resources/DBN.BMP,Door3,0.422935542,-0.033184362,1,0,0,5.2559,optionRight,70,1190,1,23,0,23,0,1,,,,,,,,,,,,,,,,,,,,,,,,,,,,,,,,,,,,,,,
,,,,,,,,2023-08-06_08h07.30.720,HF_wild_card,2022.2.4,Linux x86_64,15.01140867,5d7824b816dea6000130d65f,64ce5acb97489d65b14ecc7a,64cf4693ff1573428ea185e1,,,,,,,ctch,resources/DBN.BMP,resources/DY.BMP,Door3,-0.446954967,-0.004812226,1,0,0,2.132,optionLeft,70,1260,1,24,0,24,0,1,,,,,,,,,,,,,,,,,,,,,,,,,,,,,,,,,,,,,,,
,,,,,,,,2023-08-06_08h07.30.720,HF_wild_card,2022.2.4,Linux x86_64,15.01140867,5d7824b816dea6000130d65f,64ce5acb97489d65b14ecc7a,64cf4693ff1573428ea185e1,,,,,,,decisionTrl,resources/DY.BMP,resources/DR.BMP,Door1,0.440095124,0.016470506,1,0,0,4.0918,optionRight,30,1290,1,25,0,25,0,1,,,,,,,,,,,,,,,,,,,,,,,,,,,,,,,,,,,,,,,
,,,,,,,,2023-08-06_08h07.30.720,HF_wild_card,2022.2.4,Linux x86_64,15.01140867,5d7824b816dea6000130d65f,64ce5acb97489d65b14ecc7a,64cf4693ff1573428ea185e1,,,,,,,decisionTrl,resources/DY.BMP,resources/DR.BMP,Door1,0.440644554,0.042221663,1,0,0,6.3797,optionRight,30,1320,1,26,0,26,0,1,,,,,,,,,,,,,,,,,,,,,,,,,,,,,,,,,,,,,,,
,,,,,,,,2023-08-06_08h07.30.720,HF_wild_card,2022.2.4,Linux x86_64,15.01140867,5d7824b816dea6000130d65f,64ce5acb97489d65b14ecc7a,64cf4693ff1573428ea185e1,,,,,,,decisionTrl,resources/DBN.BMP,resources/DP.BMP,Door3,-0.291922506,-0.047038608,1,0,0,4.135,optionLeft,70,1390,1,27,0,27,0,1,,,,,,,,,,,,,,,,,,,,,,,,,,,,,,,,,,,,,,,
,,,,,,,,2023-08-06_08h07.30.720,HF_wild_card,2022.2.4,Linux x86_64,15.01140867,5d7824b816dea6000130d65f,64ce5acb97489d65b14ecc7a,64cf4693ff1573428ea185e1,,,,,,,ctch,resources/DG.BMP,resources/DR.BMP,Door4,-0.2970997,-0.029470995,1,0,0,4.3314,optionLeft,60,1450,1,28,0,28,0,1,,,,,,,,,,,,,,,,,,,,,,,,,,,,,,,,,,,,,,,
,,,,,,,,2023-08-06_08h07.30.720,HF_wild_card,2022.2.4,Linux x86_64,15.01140867,5d7824b816dea6000130d65f,64ce5acb97489d65b14ecc7a,64cf4693ff1573428ea185e1,,,,,,,sngl,resources/DY.BMP,resources/Empty.png,Door2,-0.261523155,-0.027506115,1,0,0,1.5898,optionLeft,40,1490,1,29,0,29,0,1,,,,,,,,,,,,,,,,,,,,,,,,,,,,,,,,,,,,,,,
,,,,,,,,2023-08-06_08h07.30.720,HF_wild_card,2022.2.4,Linux x86_64,15.01140867,5d7824b816dea6000130d65f,64ce5acb97489d65b14ecc7a,64cf4693ff1573428ea185e1,,,,,,,decisionTrl,resources/DBN.BMP,resources/DG.BMP,Door3,-0.35810496,-0.013095827,1,0,0,5.4205,optionLeft,70,1560,1,30,0,30,0,1,,,,,,,,,,,,,,,,,,,,,,,,,,,,,,,,,,,,,,,
,,,,,,,,2023-08-06_08h07.30.720,HF_wild_card,2022.2.4,Linux x86_64,15.01140867,5d7824b816dea6000130d65f,64ce5acb97489d65b14ecc7a,64cf4693ff1573428ea185e1,,,,,,,sngl,resources/DBN.BMP,resources/Empty.png,Door3,-0.249682222,-0.021073348,1,0,0,1.7591,optionLeft,70,1630,1,31,0,31,0,1,,,,,,,,,,,,,,,,,,,,,,,,,,,,,,,,,,,,,,,
,,,,,,,,2023-08-06_08h07.30.720,HF_wild_card,2022.2.4,Linux x86_64,15.01140867,5d7824b816dea6000130d65f,64ce5acb97489d65b14ecc7a,64cf4693ff1573428ea185e1,,,,,,,decisionTrl,resources/DG.BMP,resources/DBN.BMP,Door3,0.391695037,0.044549589,1,0,0,5.3716,optionRight,70,1700,1,32,0,32,0,1,,,,,,,,,,,,,,,,,,,,,,,,,,,,,,,,,,,,,,,
,,,,,,,,2023-08-06_08h07.30.720,HF_wild_card,2022.2.4,Linux x86_64,15.01140867,5d7824b816dea6000130d65f,64ce5acb97489d65b14ecc7a,64cf4693ff1573428ea185e1,,,,,,,decisionTrl,resources/DG.BMP,resources/DP.BMP,Door4,-0.271804075,-0.055781103,1,0,0,4.7856,optionLeft,80,1780,1,33,0,33,0,1,,,,,,,,,,,,,,,,,,,,,,,,,,,,,,,,,,,,,,,
,,,,,,,,2023-08-06_08h07.30.720,HF_wild_card,2022.2.4,Linux x86_64,15.01140867,5d7824b816dea6000130d65f,64ce5acb97489d65b14ecc7a,64cf4693ff1573428ea185e1,,,,,,,sngl,resources/DG.BMP,resources/Empty.png,Door4,-0.36207055,-0.005793649,1,0,0,1.8825,optionLeft,80,1860,1,34,0,34,0,1,,,,,,,,,,,,,,,,,,,,,,,,,,,,,,,,,,,,,,,
,,,,,,,,2023-08-06_08h07.30.720,HF_wild_card,2022.2.4,Linux x86_64,15.01140867,5d7824b816dea6000130d65f,64ce5acb97489d65b14ecc7a,64cf4693ff1573428ea185e1,,,,,,,ctch,resources/DBN.BMP,resources/DY.BMP,Door3,-0.336984988,-0.060121437,1,0,0,4.5137,optionLeft,70,1930,1,35,0,35,0,1,,,,,,,,,,,,,,,,,,,,,,,,,,,,,,,,,,,,,,,
,,,,,,,,2023-08-06_08h07.30.720,HF_wild_card,2022.2.4,Linux x86_64,15.01140867,5d7824b816dea6000130d65f,64ce5acb97489d65b14ecc7a,64cf4693ff1573428ea185e1,,,,,,,sngl,resources/Empty.png,resources/DR.BMP,Door1,0.334323007,-0.0298146,1,0,0,2.9279,optionRight,30,1960,1,36,0,36,0,1,,,,,,,,,,,,,,,,,,,,,,,,,,,,,,,,,,,,,,,
,,,,,,,,2023-08-06_08h07.30.720,HF_wild_card,2022.2.4,Linux x86_64,15.01140867,5d7824b816dea6000130d65f,64ce5acb97489d65b14ecc7a,64cf4693ff1573428ea185e1,,,,,,,decisionTrl,resources/DG.BMP,resources/DBN.BMP,Door4,-0.335909017,0.006146975,1,0,0,4.5061,optionLeft,60,2020,1,37,0,37,0,1,,,,,,,,,,,,,,,,,,,,,,,,,,,,,,,,,,,,,,,
,,,,,,,,2023-08-06_08h07.30.720,HF_wild_card,2022.2.4,Linux x86_64,15.01140867,5d7824b816dea6000130d65f,64ce5acb97489d65b14ecc7a,64cf4693ff1573428ea185e1,,,,,,,ctch,resources/DY.BMP,resources/DBN.BMP,Door3,0.274212646,0.005454113,1,0,0,2.8985,optionRight,70,2090,1,38,0,38,0,1,,,,,,,,,,,,,,,,,,,,,,,,,,,,,,,,,,,,,,,
,,,,,,,,2023-08-06_08h07.30.720,HF_wild_card,2022.2.4,Linux x86_64,15.01140867,5d7824b816dea6000130d65f,64ce5acb97489d65b14ecc7a,64cf4693ff1573428ea185e1,,,,,,,decisionTrl,resources/DP.BMP,resources/DY.BMP,Door2,0.42081005,-0.091833722,1,0,0,6.2846,optionRight,20,2110,1,39,0,39,0,1,,,,,,,,,,,,,,,,,,,,,,,,,,,,,,,,,,,,,,,
,,,,,,,,2023-08-06_08h07.30.720,HF_wild_card,2022.2.4,Linux x86_64,15.01140867,5d7824b816dea6000130d65f,64ce5acb97489d65b14ecc7a,64cf4693ff1573428ea185e1,,,,,,,decisionTrl,resources/DP.BMP,resources/DG.BMP,Door4,0.524104931,0.058954112,1,0,0,6.5379,optionRight,80,2190,1,40,0,40,0,1,,,,,,,,,,,,,,,,,,,,,,,,,,,,,,,,,,,,,,,
,,,,,,,,2023-08-06_08h07.30.720,HF_wild_card,2022.2.4,Linux x86_64,15.01140867,5d7824b816dea6000130d65f,64ce5acb97489d65b14ecc7a,64cf4693ff1573428ea185e1,,,,,,,decisionTrl,resources/DP.BMP,resources/DR.BMP,Door1,0.52137033,0.023784101,1,0,0,4.6137,optionRight,30,2220,1,41,0,41,0,1,,,,,,,,,,,,,,,,,,,,,,,,,,,,,,,,,,,,,,,
,,,,,,,,2023-08-06_08h07.30.720,HF_wild_card,2022.2.4,Linux x86_64,15.01140867,5d7824b816dea6000130d65f,64ce5acb97489d65b14ecc7a,64cf4693ff1573428ea185e1,,,,,,,sngl,resources/Empty.png,resources/DG.BMP,Door4,0.435100753,-0.077693063,1,0,0,1.744,optionRight,60,2280,1,42,0,42,0,1,,,,,,,,,,,,,,,,,,,,,,,,,,,,,,,,,,,,,,,
,,,,,,,,2023-08-06_08h07.30.720,HF_wild_card,2022.2.4,Linux x86_64,15.01140867,5d7824b816dea6000130d65f,64ce5acb97489d65b14ecc7a,64cf4693ff1573428ea185e1,,,,,,,sngl,resources/Empty.png,resources/DP.BMP,WildCard_Ex,0.351975844,0.063040189,1,0,0,2.6134,optionRight,95,2375,1,43,0,43,0,1,,,,,,,,,,,,,,,,,,,,,,,,,,,,,,,,,,,,,,,
,,,,,,,,2023-08-06_08h07.30.720,HF_wild_card,2022.2.4,Linux x86_64,15.01140867,5d7824b816dea6000130d65f,64ce5acb97489d65b14ecc7a,64cf4693ff1573428ea185e1,,,,,,,,,,,,,,,,,,,,,,,,,,0,0,0,0,1,,,,,,,,,,,,,,,,,,,,,,,,,,,,,,,,,,
,,,,,,,,2023-08-06_08h07.30.720,HF_wild_card,2022.2.4,Linux x86_64,15.01140867,5d7824b816dea6000130d65f,64ce5acb97489d65b14ecc7a,64cf4693ff1573428ea185e1,,,,,,,sngl,resources/DY.BMP,resources/Empty.png,Door2,-0.367032821,-0.022673374,1,0,0,35.7546,optionLeft,20,2395,2,0,0,0,0,1,,,,,,,,,,,,,,,,,,,,,,,,,,,,,,,,,,,,,,,
,,,,,,,,2023-08-06_08h07.30.720,HF_wild_card,2022.2.4,Linux x86_64,15.01140867,5d7824b816dea6000130d65f,64ce5acb97489d65b14ecc7a,64cf4693ff1573428ea185e1,,,,,,,decisionTrl,resources/DBN.BMP,resources/DG.BMP,Door3,-0.263833053,0.024860919,1,0,0,5.0144,optionLeft,70,2465,2,1,0,1,0,1,,,,,,,,,,,,,,,,,,,,,,,,,,,,,,,,,,,,,,,
,,,,,,,,2023-08-06_08h07.30.720,HF_wild_card,2022.2.4,Linux x86_64,15.01140867,5d7824b816dea6000130d65f,64ce5acb97489d65b14ecc7a,64cf4693ff1573428ea185e1,,,,,,,sngl,resources/Empty.png,resources/DR.BMP,Door1,0.345799199,-0.076518645,1,0,0,1.6667,optionRight,30,2495,2,2,0,2,0,1,,,,,,,,,,,,,,,,,,,,,,,,,,,,,,,,,,,,,,,
,,,,,,,,2023-08-06_08h07.30.720,HF_wild_card,2022.2.4,Linux x86_64,15.01140867,5d7824b816dea6000130d65f,64ce5acb97489d65b14ecc7a,64cf4693ff1573428ea185e1,,,,,,,decisionTrl,resources/DG.BMP,resources/DBN.BMP,Door3,0.508590246,0.105396412,1,0,0,3.9248,optionRight,70,2565,2,3,0,3,0,1,,,,,,,,,,,,,,,,,,,,,,,,,,,,,,,,,,,,,,,
,,,,,,,,2023-08-06_08h07.30.720,HF_wild_card,2022.2.4,Linux x86_64,15.01140867,5d7824b816dea6000130d65f,64ce5acb97489d65b14ecc7a,64cf4693ff1573428ea185e1,,,,,,,ctch,resources/DY.BMP,resources/DBN.BMP,Door3,0.399367269,0.03516258,1,0,0,2.7025,optionRight,70,2635,2,4,0,4,0,1,,,,,,,,,,,,,,,,,,,,,,,,,,,,,,,,,,,,,,,
,,,,,,,,2023-08-06_08h07.30.720,HF_wild_card,2022.2.4,Linux x86_64,15.01140867,5d7824b816dea6000130d65f,64ce5acb97489d65b14ecc7a,64cf4693ff1573428ea185e1,,,,,,,ctch,resources/DBN.BMP,resources/DY.BMP,Door3,-0.392001738,-0.001322089,1,0,0,2.5133,optionLeft,70,2705,2,5,0,5,0,1,,,,,,,,,,,,,,,,,,,,,,,,,,,,,,,,,,,,,,,
,,,,,,,,2023-08-06_08h07.30.720,HF_wild_card,2022.2.4,Linux x86_64,15.01140867,5d7824b816dea6000130d65f,64ce5acb97489d65b14ecc7a,64cf4693ff1573428ea185e1,,,,,,,decisionTrl,resources/DP.BMP,resources/DY.BMP,WildCard_Ex,-0.230705035,-0.020652658,1,0,0,2.7139,optionLeft,5,2710,2,6,0,6,0,1,,,,,,,,,,,,,,,,,,,,,,,,,,,,,,,,,,,,,,,
,,,,,,,,2023-08-06_08h07.30.720,HF_wild_card,2022.2.4,Linux x86_64,15.01140867,5d7824b816dea6000130d65f,64ce5acb97489d65b14ecc7a,64cf4693ff1573428ea185e1,,,,,,,decisionTrl,resources/DP.BMP,resources/DR.BMP,Door1,0.390298462,-0.033227596,1,0,0,1.4153,optionRight,30,2740,2,7,0,7,0,1,,,,,,,,,,,,,,,,,,,,,,,,,,,,,,,,,,,,,,,
,,,,,,,,2023-08-06_08h07.30.720,HF_wild_card,2022.2.4,Linux x86_64,15.01140867,5d7824b816dea6000130d65f,64ce5acb97489d65b14ecc7a,64cf4693ff1573428ea185e1,,,,,,,decisionTrl,resources/DY.BMP,resources/DP.BMP,Door2,-0.232321676,-0.013616209,1,0,0,3.2889,optionLeft,40,2780,2,8,0,8,0,1,,,,,,,,,,,,,,,,,,,,,,,,,,,,,,,,,,,,,,,
,,,,,,,,2023-08-06_08h07.30.720,HF_wild_card,2022.2.4,Linux x86_64,15.01140867,5d7824b816dea6000130d65f,64ce5acb97489d65b14ecc7a,64cf4693ff1573428ea185e1,,,,,,,sngl,resources/Empty.png,resources/DBN.BMP,Door3,0.529308178,0.042718647,1,0,0,1.2475,optionRight,70,2850,2,9,0,9,0,1,,,,,,,,,,,,,,,,,,,,,,,,,,,,,,,,,,,,,,,
,,,,,,,,2023-08-06_08h07.30.720,HF_wild_card,2022.2.4,Linux x86_64,15.01140867,5d7824b816dea6000130d65f,64ce5acb97489d65b14ecc7a,64cf4693ff1573428ea185e1,,,,,,,decisionTrl,resources/DY.BMP,resources/DR.BMP,Door2,-0.357970344,-0.030418509,1,0,0,5.6072,optionLeft,40,2890,2,10,0,10,0,1,,,,,,,,,,,,,,,,,,,,,,,,,,,,,,,,,,,,,,,
,,,,,,,,2023-08-06_08h07.30.720,HF_wild_card,2022.2.4,Linux x86_64,15.01140867,5d7824b816dea6000130d65f,64ce5acb97489d65b14ecc7a,64cf4693ff1573428ea185e1,,,,,,,decisionTrl,resources/DBN.BMP,resources/DG.BMP,Door3,-0.329034254,-0.03377143,1,0,0,8.9164,optionLeft,70,2960,2,11,0,11,0,1,,,,,,,,,,,,,,,,,,,,,,,,,,,,,,,,,,,,,,,
,,,,,,,,2023-08-06_08h07.30.720,HF_wild_card,2022.2.4,Linux x86_64,15.01140867,5d7824b816dea6000130d65f,64ce5acb97489d65b14ecc7a,64cf4693ff1573428ea185e1,,,,,,,decisionTrl,resources/DR.BMP,resources/DY.BMP,Door2,0.455195561,0.014147441,1,0,0,4.0477,optionRight,20,2980,2,12,0,12,0,1,,,,,,,,,,,,,,,,,,,,,,,,,,,,,,,,,,,,,,,
,,,,,,,,2023-08-06_08h07.30.720,HF_wild_card,2022.2.4,Linux x86_64,15.01140867,5d7824b816dea6000130d65f,64ce5acb97489d65b14ecc7a,64cf4693ff1573428ea185e1,,,,,,,decisionTrl,resources/DY.BMP,resources/DR.BMP,Door1,0.392543651,0.074022335,1,0,0,3.1513,optionRight,30,3010,2,13,0,13,0,1,,,,,,,,,,,,,,,,,,,,,,,,,,,,,,,,,,,,,,,
,,,,,,,,2023-08-06_08h07.30.720,HF_wild_card,2022.2.4,Linux x86_64,15.01140867,5d7824b816dea6000130d65f,64ce5acb97489d65b14ecc7a,64cf4693ff1573428ea185e1,,,,,,,ctch,resources/DG.BMP,resources/DR.BMP,Door4,-0.416160442,-0.062340122,1,0,0,3.8571,optionLeft,60,3070,2,14,0,14,0,1,,,,,,,,,,,,,,,,,,,,,,,,,,,,,,,,,,,,,,,
,,,,,,,,2023-08-06_08h07.30.720,HF_wild_card,2022.2.4,Linux x86_64,15.01140867,5d7824b816dea6000130d65f,64ce5acb97489d65b14ecc7a,64cf4693ff1573428ea185e1,,,,,,,decisionTrl,resources/DBN.BMP,resources/DP.BMP,Door3,-0.438655684,-0.015083313,1,0,0,3.9207,optionLeft,70,3140,2,15,0,15,0,1,,,,,,,,,,,,,,,,,,,,,,,,,,,,,,,,,,,,,,,
,,,,,,,,2023-08-06_08h07.30.720,HF_wild_card,2022.2.4,Linux x86_64,15.01140867,5d7824b816dea6000130d65f,64ce5acb97489d65b14ecc7a,64cf4693ff1573428ea185e1,,,,,,,decisionTrl,resources/DY.BMP,resources/DR.BMP,Door1,0.483481852,0.03712113,1,0,0,4.9153,optionRight,30,3170,2,16,0,16,0,1,,,,,,,,,,,,,,,,,,,,,,,,,,,,,,,,,,,,,,,
,,,,,,,,2023-08-06_08h07.30.720,HF_wild_card,2022.2.4,Linux x86_64,15.01140867,5d7824b816dea6000130d65f,64ce5acb97489d65b14ecc7a,64cf4693ff1573428ea185e1,,,,,,,decisionTrl,resources/DR.BMP,resources/DP.BMP,Door1,-0.412223759,-0.036889874,1,0,0,4.0034,optionLeft,30,3200,2,17,0,17,0,1,,,,,,,,,,,,,,,,,,,,,,,,,,,,,,,,,,,,,,,
,,,,,,,,2023-08-06_08h07.30.720,HF_wild_card,2022.2.4,Linux x86_64,15.01140867,5d7824b816dea6000130d65f,64ce5acb97489d65b14ecc7a,64cf4693ff1573428ea185e1,,,,,,,decisionTrl,resources/DP.BMP,resources/DG.BMP,Door4,0.490214934,0.03462239,1,0,0,4.45,optionRight,80,3280,2,18,0,18,0,1,,,,,,,,,,,,,,,,,,,,,,,,,,,,,,,,,,,,,,,
,,,,,,,,2023-08-06_08h07.30.720,HF_wild_card,2022.2.4,Linux x86_64,15.01140867,5d7824b816dea6000130d65f,64ce5acb97489d65b14ecc7a,64cf4693ff1573428ea185e1,,,,,,,decisionTrl,resources/DBN.BMP,resources/DG.BMP,Door4,0.467451986,0.054010377,1,0,0,3.5977,optionRight,60,3340,2,19,0,19,0,1,,,,,,,,,,,,,,,,,,,,,,,,,,,,,,,,,,,,,,,
,,,,,,,,2023-08-06_08h07.30.720,HF_wild_card,2022.2.4,Linux x86_64,15.01140867,5d7824b816dea6000130d65f,64ce5acb97489d65b14ecc7a,64cf4693ff1573428ea185e1,,,,,,,decisionTrl,resources/DG.BMP,resources/DBN.BMP,Door4,-0.282270474,-0.050161348,1,0,0,5.8622,optionLeft,80,3420,2,20,0,20,0,1,,,,,,,,,,,,,,,,,,,,,,,,,,,,,,,,,,,,,,,
,,,,,,,,2023-08-06_08h07.30.720,HF_wild_card,2022.2.4,Linux x86_64,15.01140867,5d7824b816dea6000130d65f,64ce5acb97489d65b14ecc7a,64cf4693ff1573428ea185e1,,,,,,,decisionTrl,resources/DBN.BMP,resources/DG.BMP,Door4,0.50475803,0.105131955,1,0,0,4.5366,optionRight,60,3480,2,21,0,21,0,1,,,,,,,,,,,,,,,,,,,,,,,,,,,,,,,,,,,,,,,
,,,,,,,,2023-08-06_08h07.30.720,HF_wild_card,2022.2.4,Linux x86_64,15.01140867,5d7824b816dea6000130d65f,64ce5acb97489d65b14ecc7a,64cf4693ff1573428ea185e1,,,,,,,ctch,resources/DY.BMP,resources/DBN.BMP,Door3,0.322619177,0.01703333,1,0,0,8.8641,optionRight,70,3550,2,22,0,22,0,1,,,,,,,,,,,,,,,,,,,,,,,,,,,,,,,,,,,,,,,
,,,,,,,,2023-08-06_08h07.30.720,HF_wild_card,2022.2.4,Linux x86_64,15.01140867,5d7824b816dea6000130d65f,64ce5acb97489d65b14ecc7a,64cf4693ff1573428ea185e1,,,,,,,decisionTrl,resources/DY.BMP,resources/DR.BMP,Door1,0.363375402,-0.001816531,1,0,0,4.4788,optionRight,30,3580,2,23,0,23,0,1,,,,,,,,,,,,,,,,,,,,,,,,,,,,,,,,,,,,,,,
,,,,,,,,2023-08-06_08h07.30.720,HF_wild_card,2022.2.4,Linux x86_64,15.01140867,5d7824b816dea6000130d65f,64ce5acb97489d65b14ecc7a,64cf4693ff1573428ea185e1,,,,,,,sngl,resources/DP.BMP,resources/Empty.png,WildCard_Ex,-0.279907396,-0.063163079,1,0,0,1.3138,optionLeft,5,3585,2,24,0,24,0,1,,,,,,,,,,,,,,,,,,,,,,,,,,,,,,,,,,,,,,,
,,,,,,,,2023-08-06_08h07.30.720,HF_wild_card,2022.2.4,Linux x86_64,15.01140867,5d7824b816dea6000130d65f,64ce5acb97489d65b14ecc7a,64cf4693ff1573428ea185e1,,,,,,,decisionTrl,resources/DR.BMP,resources/DY.BMP,Door1,-0.278706303,-0.01503991,1,0,0,3.5391,optionLeft,30,3615,2,25,0,25,0,1,,,,,,,,,,,,,,,,,,,,,,,,,,,,,,,,,,,,,,,
,,,,,,,,2023-08-06_08h07.30.720,HF_wild_card,2022.2.4,Linux x86_64,15.01140867,5d7824b816dea6000130d65f,64ce5acb97489d65b14ecc7a,64cf4693ff1573428ea185e1,,,,,,,ctch,resources/DBN.BMP,resources/DY.BMP,Door3,-0.236069912,-0.004999175,1,0,0,4.1162,optionLeft,70,3685,2,26,0,26,0,1,,,,,,,,,,,,,,,,,,,,,,,,,,,,,,,,,,,,,,,
,,,,,,,,2023-08-06_08h07.30.720,HF_wild_card,2022.2.4,Linux x86_64,15.01140867,5d7824b816dea6000130d65f,64ce5acb97489d65b14ecc7a,64cf4693ff1573428ea185e1,,,,,,,decisionTrl,resources/DR.BMP,resources/DY.BMP,Door1,-0.347108516,-0.009709054,1,0,0,7.5784,optionLeft,30,3715,2,27,0,27,0,1,,,,,,,,,,,,,,,,,,,,,,,,,,,,,,,,,,,,,,,
,,,,,,,,2023-08-06_08h07.30.720,HF_wild_card,2022.2.4,Linux x86_64,15.01140867,5d7824b816dea6000130d65f,64ce5acb97489d65b14ecc7a,64cf4693ff1573428ea185e1,,,,,,,ctch,resources/DR.BMP,resources/DG.BMP,Door4,0.372837434,0.044984577,1,0,0,4.2207,optionRight,60,3775,2,28,0,28,0,1,,,,,,,,,,,,,,,,,,,,,,,,,,,,,,,,,,,,,,,
,,,,,,,,2023-08-06_08h07.30.720,HF_wild_card,2022.2.4,Linux x86_64,15.01140867,5d7824b816dea6000130d65f,64ce5acb97489d65b14ecc7a,64cf4693ff1573428ea185e1,,,,,,,decisionTrl,resources/DP.BMP,resources/DBN.BMP,WildCard_Ex,-0.258881067,-0.034193646,1,0,0,7.7947,optionLeft,95,3870,2,29,0,29,0,1,,,,,,,,,,,,,,,,,,,,,,,,,,,,,,,,,,,,,,,
,,,,,,,,2023-08-06_08h07.30.720,HF_wild_card,2022.2.4,Linux x86_64,15.01140867,5d7824b816dea6000130d65f,64ce5acb97489d65b14ecc7a,64cf4693ff1573428ea185e1,,,,,,,sngl,resources/Empty.png,resources/DG.BMP,Door4,0.347621776,0.003524667,1,0,0,1.4235,optionRight,80,3950,2,30,0,30,0,1,,,,,,,,,,,,,,,,,,,,,,,,,,,,,,,,,,,,,,,
,,,,,,,,2023-08-06_08h07.30.720,HF_wild_card,2022.2.4,Linux x86_64,15.01140867,5d7824b816dea6000130d65f,64ce5acb97489d65b14ecc7a,64cf4693ff1573428ea185e1,,,,,,,sngl,resources/Empty.png,resources/DP.BMP,WildCard_Ex,0.399617965,-0.068159654,1,0,0,1.3268,optionRight,95,4045,2,31,0,31,0,1,,,,,,,,,,,,,,,,,,,,,,,,,,,,,,,,,,,,,,,
,,,,,,,,2023-08-06_08h07.30.720,HF_wild_card,2022.2.4,Linux x86_64,15.01140867,5d7824b816dea6000130d65f,64ce5acb97489d65b14ecc7a,64cf4693ff1573428ea185e1,,,,,,,ctch,resources/DR.BMP,resources/DG.BMP,Door4,0.294689941,-0.004730394,1,0,0,5.5397,optionRight,60,4105,2,32,0,32,0,1,,,,,,,,,,,,,,,,,,,,,,,,,,,,,,,,,,,,,,,
,,,,,,,,2023-08-06_08h07.30.720,HF_wild_card,2022.2.4,Linux x86_64,15.01140867,5d7824b816dea6000130d65f,64ce5acb97489d65b14ecc7a,64cf4693ff1573428ea185e1,,,,,,,sngl,resources/DG.BMP,resources/Empty.png,Door4,-0.323169906,-0.026577589,1,0,0,1.3725,optionLeft,60,4165,2,33,0,33,0,1,,,,,,,,,,,,,,,,,,,,,,,,,,,,,,,,,,,,,,,
,,,,,,,,2023-08-06_08h07.30.720,HF_wild_card,2022.2.4,Linux x86_64,15.01140867,5d7824b816dea6000130d65f,64ce5acb97489d65b14ecc7a,64cf4693ff1573428ea185e1,,,,,,,decisionTrl,resources/DG.BMP,resources/DBN.BMP,Door4,-0.205495368,0.015636755,1,0,0,4.7412,optionLeft,80,4245,2,34,0,34,0,1,,,,,,,,,,,,,,,,,,,,,,,,,,,,,,,,,,,,,,,
,,,,,,,,2023-08-06_08h07.30.720,HF_wild_card,2022.2.4,Linux x86_64,15.01140867,5d7824b816dea6000130d65f,64ce5acb97489d65b14ecc7a,64cf4693ff1573428ea185e1,,,,,,,decisionTrl,resources/DG.BMP,resources/DBN.BMP,Door3,0.459931098,0.032049815,1,0,0,5.2371,optionRight,70,4315,2,35,0,35,0,1,,,,,,,,,,,,,,,,,,,,,,,,,,,,,,,,,,,,,,,
,,,,,,,,2023-08-06_08h07.30.720,HF_wild_card,2022.2.4,Linux x86_64,15.01140867,5d7824b816dea6000130d65f,64ce5acb97489d65b14ecc7a,64cf4693ff1573428ea185e1,,,,,,,decisionTrl,resources/DG.BMP,resources/DP.BMP,Door4,-0.281860408,-0.036537227,1,0,0,3.3826,optionLeft,80,4395,2,36,0,36,0,1,,,,,,,,,,,,,,,,,,,,,,,,,,,,,,,,,,,,,,,
,,,,,,,,2023-08-06_08h07.30.720,HF_wild_card,2022.2.4,Linux x86_64,15.01140867,5d7824b816dea6000130d65f,64ce5acb97489d65b14ecc7a,64cf4693ff1573428ea185e1,,,,,,,sngl,resources/Empty.png,resources/DY.BMP,Door2,0.447190461,0.027938532,1,0,0,1.1933,optionRight,40,4435,2,37,0,37,0,1,,,,,,,,,,,,,,,,,,,,,,,,,,,,,,,,,,,,,,,
,,,,,,,,2023-08-06_08h07.30.720,HF_wild_card,2022.2.4,Linux x86_64,15.01140867,5d7824b816dea6000130d65f,64ce5acb97489d65b14ecc7a,64cf4693ff1573428ea185e1,,,,,,,ctch,resources/DG.BMP,resources/DR.BMP,Door4,-0.304677384,-0.008502819,1,0,0,4.3803,optionLeft,60,4495,2,38,0,38,0,1,,,,,,,,,,,,,,,,,,,,,,,,,,,,,,,,,,,,,,,
,,,,,,,,2023-08-06_08h07.30.720,HF_wild_card,2022.2.4,Linux x86_64,15.01140867,5d7824b816dea6000130d65f,64ce5acb97489d65b14ecc7a,64cf4693ff1573428ea185e1,,,,,,,sngl,resources/DBN.BMP,resources/Empty.png,Door3,-0.328338454,-0.022825283,1,0,0,2.7614,optionLeft,70,4565,2,39,0,39,0,1,,,,,,,,,,,,,,,,,,,,,,,,,,,,,,,,,,,,,,,
,,,,,,,,2023-08-06_08h07.30.720,HF_wild_card,2022.2.4,Linux x86_64,15.01140867,5d7824b816dea6000130d65f,64ce5acb97489d65b14ecc7a,64cf4693ff1573428ea185e1,,,,,,,sngl,resources/Empty.png,resources/DP.BMP,WildCard_Ex,0.380082307,0.001128529,1,0,0,1.3309,optionRight,5,4570,2,40,0,40,0,1,,,,,,,,,,,,,,,,,,,,,,,,,,,,,,,,,,,,,,,
,,,,,,,,2023-08-06_08h07.30.720,HF_wild_card,2022.2.4,Linux x86_64,15.01140867,5d7824b816dea6000130d65f,64ce5acb97489d65b14ecc7a,64cf4693ff1573428ea185e1,,,,,,,sngl,resources/DP.BMP,resources/Empty.png,WildCard_Ex,-0.423671864,-0.021018982,1,0,0,1.0252,optionLeft,95,4665,2,41,0,41,0,1,,,,,,,,,,,,,,,,,,,,,,,,,,,,,,,,,,,,,,,
,,,,,,,,2023-08-06_08h07.30.720,HF_wild_card,2022.2.4,Linux x86_64,15.01140867,5d7824b816dea6000130d65f,64ce5acb97489d65b14ecc7a,64cf4693ff1573428ea185e1,,,,,,,decisionTrl,resources/DR.BMP,resources/DY.BMP,Door1,-0.20419741,-0.015236127,1,0,0,5.9073,optionLeft,30,4695,2,42,0,42,0,1,,,,,,,,,,,,,,,,,,,,,,,,,,,,,,,,,,,,,,,
,,,,,,,,2023-08-06_08h07.30.720,HF_wild_card,2022.2.4,Linux x86_64,15.01140867,5d7824b816dea6000130d65f,64ce5acb97489d65b14ecc7a,64cf4693ff1573428ea185e1,,,,,,,sngl,resources/DR.BMP,resources/Empty.png,Door1,-0.35614155,-0.033206233,1,0,0,1.095,optionLeft,30,4725,2,43,0,43,0,1,,,,,,,,,,,,,,,,,,,,,,,,,,,,,,,,,,,,,,,
,,,,,,,,2023-08-06_08h07.30.720,HF_wild_card,2022.2.4,Linux x86_64,15.01140867,5d7824b816dea6000130d65f,64ce5acb97489d65b14ecc7a,64cf4693ff1573428ea185e1,,,,,,,,,,,,,,,,,,,,,,,,,,1,0,1,0,1,,,,,,,,,,,,,,,,,,,,,,,,,,,,,,,,,,
,,,,,,,,2023-08-06_08h07.30.720,HF_wild_card,2022.2.4,Linux x86_64,15.01140867,5d7824b816dea6000130d65f,64ce5acb97489d65b14ecc7a,64cf4693ff1573428ea185e1,,,,,,,decisionTrl,resources/DBN.BMP,resources/DG.BMP,Door4,0.505121189,-0.058838908,1,0,0,8.5095,optionRight,60,4785,3,0,0,0,0,1,,,,,,,,,,,,,,,,,,,,,,,,,,,,,,,,,,,,,,,
,,,,,,,,2023-08-06_08h07.30.720,HF_wild_card,2022.2.4,Linux x86_64,15.01140867,5d7824b816dea6000130d65f,64ce5acb97489d65b14ecc7a,64cf4693ff1573428ea185e1,,,,,,,decisionTrl,resources/DY.BMP,resources/DR.BMP,Door1,0.273811962,0.014210284,1,0,0,5.1925,optionRight,30,4815,3,1,0,1,0,1,,,,,,,,,,,,,,,,,,,,,,,,,,,,,,,,,,,,,,,
,,,,,,,,2023-08-06_08h07.30.720,HF_wild_card,2022.2.4,Linux x86_64,15.01140867,5d7824b816dea6000130d65f,64ce5acb97489d65b14ecc7a,64cf4693ff1573428ea185e1,,,,,,,decisionTrl,resources/DY.BMP,resources/DR.BMP,Door1,0.355282932,0.090602197,1,0,0,7.1437,optionRight,30,4845,3,2,0,2,0,1,,,,,,,,,,,,,,,,,,,,,,,,,,,,,,,,,,,,,,,
,,,,,,,,2023-08-06_08h07.30.720,HF_wild_card,2022.2.4,Linux x86_64,15.01140867,5d7824b816dea6000130d65f,64ce5acb97489d65b14ecc7a,64cf4693ff1573428ea185e1,,,,,,,sngl,resources/DY.BMP,resources/Empty.png,Door2,-0.285527378,-0.011382774,1,0,0,1.2418,optionLeft,40,4885,3,3,0,3,0,1,,,,,,,,,,,,,,,,,,,,,,,,,,,,,,,,,,,,,,,
,,,,,,,,2023-08-06_08h07.30.720,HF_wild_card,2022.2.4,Linux x86_64,15.01140867,5d7824b816dea6000130d65f,64ce5acb97489d65b14ecc7a,64cf4693ff1573428ea185e1,,,,,,,decisionTrl,resources/DG.BMP,resources/DP.BMP,Door4,-0.244050542,0.005710065,1,0,0,7.5195,optionLeft,60,4945,3,4,0,4,0,1,,,,,,,,,,,,,,,,,,,,,,,,,,,,,,,,,,,,,,,
,,,,,,,,2023-08-06_08h07.30.720,HF_wild_card,2022.2.4,Linux x86_64,15.01140867,5d7824b816dea6000130d65f,64ce5acb97489d65b14ecc7a,64cf4693ff1573428ea185e1,,,,,,,sngl,resources/DR.BMP,resources/Empty.png,Door1,-0.285325283,-0.032375081,1,0,0,1.1869,optionLeft,30,4975,3,5,0,5,0,1,,,,,,,,,,,,,,,,,,,,,,,,,,,,,,,,,,,,,,,
,,,,,,,,2023-08-06_08h07.30.720,HF_wild_card,2022.2.4,Linux x86_64,15.01140867,5d7824b816dea6000130d65f,64ce5acb97489d65b14ecc7a,64cf4693ff1573428ea185e1,,,,,,,decisionTrl,resources/DR.BMP,resources/DY.BMP,Door1,-0.196716535,0.003589545,1,0,0,4.8944,optionLeft,30,5005,3,6,0,6,0,1,,,,,,,,,,,,,,,,,,,,,,,,,,,,,,,,,,,,,,,
,,,,,,,,2023-08-06_08h07.30.720,HF_wild_card,2022.2.4,Linux x86_64,15.01140867,5d7824b816dea6000130d65f,64ce5acb97489d65b14ecc7a,64cf4693ff1573428ea185e1,,,,,,,ctch,resources/DY.BMP,resources/DBN.BMP,Door3,0.55563784,0.020842432,1,0,0,5.1818,optionRight,70,5075,3,7,0,7,0,1,,,,,,,,,,,,,,,,,,,,,,,,,,,,,,,,,,,,,,,
,,,,,,,,2023-08-06_08h07.30.720,HF_wild_card,2022.2.4,Linux x86_64,15.01140867,5d7824b816dea6000130d65f,64ce5acb97489d65b14ecc7a,64cf4693ff1573428ea185e1,,,,,,,decisionTrl,resources/DR.BMP,resources/DP.BMP,Door1,-0.226313556,-0.011512135,1,0,0,12.8237,optionLeft,30,5105,3,8,0,8,0,1,,,,,,,,,,,,,,,,,,,,,,,,,,,,,,,,,,,,,,,
,,,,,,,,2023-08-06_08h07.30.720,HF_wild_card,2022.2.4,Linux x86_64,15.01140867,5d7824b816dea6000130d65f,64ce5acb97489d65b14ecc7a,64cf4693ff1573428ea185e1,,,,,,,ctch,resources/DG.BMP,resources/DR.BMP,Door4,-0.268182034,0.015315699,1,0,0,6.7434,optionLeft,60,5165,3,9,0,9,0,1,,,,,,,,,,,,,,,,,,,,,,,,,,,,,,,,,,,,,,,
,,,,,,,,2023-08-06_08h07.30.720,HF_wild_card,2022.2.4,Linux x86_64,15.01140867,5d7824b816dea6000130d65f,64ce5acb97489d65b14ecc7a,64cf4693ff1573428ea185e1,,,,,,,decisionTrl,resources/DBN.BMP,resources/DG.BMP,Door3,-0.142535061,0.03252069,1,0,0,4.9013,optionLeft,70,5235,3,10,0,10,0,1,,,,,,,,,,,,,,,,,,,,,,,,,,,,,,,,,,,,,,,
,,,,,,,,2023-08-06_08h07.30.720,HF_wild_card,2022.2.4,Linux x86_64,15.01140867,5d7824b816dea6000130d65f,64ce5acb97489d65b14ecc7a,64cf4693ff1573428ea185e1,,,,,,,sngl,resources/DP.BMP,resources/Empty.png,WildCard_Ex,-0.349995535,-0.029245278,1,0,0,5.8532,optionLeft,95,5330,3,11,0,11,0,1,,,,,,,,,,,,,,,,,,,,,,,,,,,,,,,,,,,,,,,
,,,,,,,,2023-08-06_08h07.30.720,HF_wild_card,2022.2.4,Linux x86_64,15.01140867,5d7824b816dea6000130d65f,64ce5acb97489d65b14ecc7a,64cf4693ff1573428ea185e1,,,,,,,sngl,resources/Empty.png,resources/DP.BMP,WildCard_Ex,0.304394192,-0.014573443,1,0,0,1.1076,optionRight,95,5425,3,12,0,12,0,1,,,,,,,,,,,,,,,,,,,,,,,,,,,,,,,,,,,,,,,
,,,,,,,,2023-08-06_08h07.30.720,HF_wild_card,2022.2.4,Linux x86_64,15.01140867,5d7824b816dea6000130d65f,64ce5acb97489d65b14ecc7a,64cf4693ff1573428ea185e1,,,,,,,decisionTrl,resources/DR.BMP,resources/DY.BMP,Door1,-0.203926312,-0.015937353,1,0,0,5.5257,optionLeft,30,5455,3,13,0,13,0,1,,,,,,,,,,,,,,,,,,,,,,,,,,,,,,,,,,,,,,,
,,,,,,,,2023-08-06_08h07.30.720,HF_wild_card,2022.2.4,Linux x86_64,15.01140867,5d7824b816dea6000130d65f,64ce5acb97489d65b14ecc7a,64cf4693ff1573428ea185e1,,,,,,,sngl,resources/DG.BMP,resources/Empty.png,Door4,-0.364530606,-0.025701226,1,0,0,2.8253,optionLeft,80,5535,3,14,0,14,0,1,,,,,,,,,,,,,,,,,,,,,,,,,,,,,,,,,,,,,,,
,,,,,,,,2023-08-06_08h07.30.720,HF_wild_card,2022.2.4,Linux x86_64,15.01140867,5d7824b816dea6000130d65f,64ce5acb97489d65b14ecc7a,64cf4693ff1573428ea185e1,,,,,,,ctch,resources/DY.BMP,resources/DBN.BMP,Door3,0.499440398,0.069887995,1,0,0,5.2879,optionRight,70,5605,3,15,0,15,0,1,,,,,,,,,,,,,,,,,,,,,,,,,,,,,,,,,,,,,,,
,,,,,,,,2023-08-06_08h07.30.720,HF_wild_card,2022.2.4,Linux x86_64,15.01140867,5d7824b816dea6000130d65f,64ce5acb97489d65b14ecc7a,64cf4693ff1573428ea185e1,,,,,,,decisionTrl,resources/DG.BMP,resources/DBN.BMP,Door3,0.403084423,0.039543039,1,0,0,4.0214,optionRight,70,5675,3,16,0,16,0,1,,,,,,,,,,,,,,,,,,,,,,,,,,,,,,,,,,,,,,,
,,,,,,,,2023-08-06_08h07.30.720,HF_wild_card,2022.2.4,Linux x86_64,15.01140867,5d7824b816dea6000130d65f,64ce5acb97489d65b14ecc7a,64cf4693ff1573428ea185e1,,,,,,,decisionTrl,resources/DG.BMP,resources/DBN.BMP,Door4,-0.213317023,0.060789235,1,0,0,6.1704,optionLeft,80,5755,3,17,0,17,0,1,,,,,,,,,,,,,,,,,,,,,,,,,,,,,,,,,,,,,,,
,,,,,,,,2023-08-06_08h07.30.720,HF_wild_card,2022.2.4,Linux x86_64,15.01140867,5d7824b816dea6000130d65f,64ce5acb97489d65b14ecc7a,64cf4693ff1573428ea185e1,,,,,,,ctch,resources/DR.BMP,resources/DG.BMP,Door4,0.409609985,0.064795459,1,0,0,2.5906,optionRight,80,5835,3,18,0,18,0,1,,,,,,,,,,,,,,,,,,,,,,,,,,,,,,,,,,,,,,,
,,,,,,,,2023-08-06_08h07.30.720,HF_wild_card,2022.2.4,Linux x86_64,15.01140867,5d7824b816dea6000130d65f,64ce5acb97489d65b14ecc7a,64cf4693ff1573428ea185e1,,,,,,,sngl,resources/Empty.png,resources/DG.BMP,Door4,0.357930049,-0.005115933,1,0,0,1.0537,optionRight,60,5895,3,19,0,19,0,1,,,,,,,,,,,,,,,,,,,,,,,,,,,,,,,,,,,,,,,
,,,,,,,,2023-08-06_08h07.30.720,HF_wild_card,2022.2.4,Linux x86_64,15.01140867,5d7824b816dea6000130d65f,64ce5acb97489d65b14ecc7a,64cf4693ff1573428ea185e1,,,,,,,decisionTrl,resources/DR.BMP,resources/DY.BMP,Door1,-0.308566906,0.022970355,1,0,0,7.9743,optionLeft,30,5925,3,20,0,20,0,1,,,,,,,,,,,,,,,,,,,,,,,,,,,,,,,,,,,,,,,
,,,,,,,,2023-08-06_08h07.30.720,HF_wild_card,2022.2.4,Linux x86_64,15.01140867,5d7824b816dea6000130d65f,64ce5acb97489d65b14ecc7a,64cf4693ff1573428ea185e1,,,,,,,decisionTrl,resources/DBN.BMP,resources/DP.BMP,Door3,-0.383866826,-0.048243713,1,0,0,6.8266,optionLeft,70,5995,3,21,0,21,0,1,,,,,,,,,,,,,,,,,,,,,,,,,,,,,,,,,,,,,,,
,,,,,,,,2023-08-06_08h07.30.720,HF_wild_card,2022.2.4,Linux x86_64,15.01140867,5d7824b816dea6000130d65f,64ce5acb97489d65b14ecc7a,64cf4693ff1573428ea185e1,,,,,,,decisionTrl,resources/DR.BMP,resources/DY.BMP,Door1,-0.202710244,-0.000291386,1,0,0,4.0919,optionLeft,30,6025,3,22,0,22,0,1,,,,,,,,,,,,,,,,,,,,,,,,,,,,,,,,,,,,,,,
,,,,,,,,2023-08-06_08h07.30.720,HF_wild_card,2022.2.4,Linux x86_64,15.01140867,5d7824b816dea6000130d65f,64ce5acb97489d65b14ecc7a,64cf4693ff1573428ea185e1,,,,,,,decisionTrl,resources/DP.BMP,resources/DY.BMP,WildCard_Ex,-0.170595127,0.004813413,1,0,0,8.8257,optionLeft,95,6120,3,23,0,23,0,1,,,,,,,,,,,,,,,,,,,,,,,,,,,,,,,,,,,,,,,
,,,,,,,,2023-08-06_08h07.30.720,HF_wild_card,2022.2.4,Linux x86_64,15.01140867,5d7824b816dea6000130d65f,64ce5acb97489d65b14ecc7a,64cf4693ff1573428ea185e1,,,,,,,sngl,resources/Empty.png,resources/DY.BMP,Door2,0.38611032,0.026687424,1,0,0,1.2326,optionRight,20,6140,3,24,0,24,0,1,,,,,,,,,,,,,,,,,,,,,,,,,,,,,,,,,,,,,,,
,,,,,,,,2023-08-06_08h07.30.720,HF_wild_card,2022.2.4,Linux x86_64,15.01140867,5d7824b816dea6000130d65f,64ce5acb97489d65b14ecc7a,64cf4693ff1573428ea185e1,,,,,,,decisionTrl,resources/DP.BMP,resources/DR.BMP,WildCard_Ex,-0.21198284,0.058819213,1,0,0,7.4905,optionLeft,5,6145,3,25,0,25,0,1,,,,,,,,,,,,,,,,,,,,,,,,,,,,,,,,,,,,,,,
,,,,,,,,2023-08-06_08h07.30.720,HF_wild_card,2022.2.4,Linux x86_64,15.01140867,5d7824b816dea6000130d65f,64ce5acb97489d65b14ecc7a,64cf4693ff1573428ea185e1,,,,,,,decisionTrl,resources/DY.BMP,resources/DR.BMP,Door1,0.405463212,-0.004739436,1,0,0,5.4932,optionRight,30,6175,3,26,0,26,0,1,,,,,,,,,,,,,,,,,,,,,,,,,,,,,,,,,,,,,,,
,,,,,,,,2023-08-06_08h07.30.720,HF_wild_card,2022.2.4,Linux x86_64,15.01140867,5d7824b816dea6000130d65f,64ce5acb97489d65b14ecc7a,64cf4693ff1573428ea185e1,,,,,,,ctch,resources/DG.BMP,resources/DR.BMP,Door4,-0.337174197,-0.01449342,1,0,0,4.3859,optionLeft,60,6235,3,27,0,27,0,1,,,,,,,,,,,,,,,,,,,,,,,,,,,,,,,,,,,,,,,
,,,,,,,,2023-08-06_08h07.30.720,HF_wild_card,2022.2.4,Linux x86_64,15.01140867,5d7824b816dea6000130d65f,64ce5acb97489d65b14ecc7a,64cf4693ff1573428ea185e1,,,,,,,decisionTrl,resources/DY.BMP,resources/DP.BMP,WildCard_Ex,0.422931247,0.04393562,1,0,0,4.6903,optionRight,95,6330,3,28,0,28,0,1,,,,,,,,,,,,,,,,,,,,,,,,,,,,,,,,,,,,,,,
,,,,,,,,2023-08-06_08h07.30.720,HF_wild_card,2022.2.4,Linux x86_64,15.01140867,5d7824b816dea6000130d65f,64ce5acb97489d65b14ecc7a,64cf4693ff1573428ea185e1,,,,,,,sngl,resources/DP.BMP,resources/Empty.png,WildCard_Ex,-0.347273593,-0.069170917,1,0,0,1.6342,optionLeft,5,6335,3,29,0,29,0,1,,,,,,,,,,,,,,,,,,,,,,,,,,,,,,,,,,,,,,,
,,,,,,,,2023-08-06_08h07.30.720,HF_wild_card,2022.2.4,Linux x86_64,15.01140867,5d7824b816dea6000130d65f,64ce5acb97489d65b14ecc7a,64cf4693ff1573428ea185e1,,,,,,,sngl,resources/Empty.png,resources/DBN.BMP,Door3,0.468920107,-0.003825265,1,0,0,3.1822,optionRight,70,6405,3,30,0,30,0,1,,,,,,,,,,,,,,,,,,,,,,,,,,,,,,,,,,,,,,,
,,,,,,,,2023-08-06_08h07.30.720,HF_wild_card,2022.2.4,Linux x86_64,15.01140867,5d7824b816dea6000130d65f,64ce5acb97489d65b14ecc7a,64cf4693ff1573428ea185e1,,,,,,,sngl,resources/Empty.png,resources/DP.BMP,WildCard_Ex,0.375454712,0.016503059,1,0,0,1.2339,optionRight,5,6410,3,31,0,31,0,1,,,,,,,,,,,,,,,,,,,,,,,,,,,,,,,,,,,,,,,
,,,,,,,,2023-08-06_08h07.30.720,HF_wild_card,2022.2.4,Linux x86_64,15.01140867,5d7824b816dea6000130d65f,64ce5acb97489d65b14ecc7a,64cf4693ff1573428ea185e1,,,,,,,decisionTrl,resources/DG.BMP,resources/DBN.BMP,Door4,-0.374080856,-0.05014688,1,0,0,11.2408,optionLeft,80,6490,3,32,0,32,0,1,,,,,,,,,,,,,,,,,,,,,,,,,,,,,,,,,,,,,,,
,,,,,,,,2023-08-06_08h07.30.720,HF_wild_card,2022.2.4,Linux x86_64,15.01140867,5d7824b816dea6000130d65f,64ce5acb97489d65b14ecc7a,64cf4693ff1573428ea185e1,,,,,,,decisionTrl,resources/DBN.BMP,resources/DG.BMP,Door4,0.457148234,0.017769425,1,0,0,8.7738,optionRight,60,6550,3,33,0,33,0,1,,,,,,,,,,,,,,,,,,,,,,,,,,,,,,,,,,,,,,,
,,,,,,,,2023-08-06_08h07.30.720,HF_wild_card,2022.2.4,Linux x86_64,15.01140867,5d7824b816dea6000130d65f,64ce5acb97489d65b14ecc7a,64cf4693ff1573428ea185e1,,,,,,,decisionTrl,resources/DBN.BMP,resources/DG.BMP,Door3,-0.291471524,0.042042457,1,0,0,5.3356,optionLeft,70,6620,3,34,0,34,0,1,,,,,,,,,,,,,,,,,,,,,,,,,,,,,,,,,,,,,,,
,,,,,,,,2023-08-06_08h07.30.720,HF_wild_card,2022.2.4,Linux x86_64,15.01140867,5d7824b816dea6000130d65f,64ce5acb97489d65b14ecc7a,64cf4693ff1573428ea185e1,,,,,,,ctch,resources/DR.BMP,resources/DG.BMP,Door4,0.444071226,0.019559337,1,0,0,6.5546,optionRight,60,6680,3,35,0,35,0,1,,,,,,,,,,,,,,,,,,,,,,,,,,,,,,,,,,,,,,,
,,,,,,,,2023-08-06_08h07.30.720,HF_wild_card,2022.2.4,Linux x86_64,15.01140867,5d7824b816dea6000130d65f,64ce5acb97489d65b14ecc7a,64cf4693ff1573428ea185e1,,,,,,,decisionTrl,resources/DY.BMP,resources/DR.BMP,Door2,-0.364743325,-0.021215086,1,0,0,4.5656,optionLeft,40,6720,3,36,0,36,0,1,,,,,,,,,,,,,,,,,,,,,,,,,,,,,,,,,,,,,,,
,,,,,,,,2023-08-06_08h07.30.720,HF_wild_card,2022.2.4,Linux x86_64,15.01140867,5d7824b816dea6000130d65f,64ce5acb97489d65b14ecc7a,64cf4693ff1573428ea185e1,,,,,,,ctch,resources/DBN.BMP,resources/DY.BMP,Door3,-0.225885236,-0.029392836,1,0,0,5.3111,optionLeft,70,6790,3,37,0,37,0,1,,,,,,,,,,,,,,,,,,,,,,,,,,,,,,,,,,,,,,,
,,,,,,,,2023-08-06_08h07.30.720,HF_wild_card,2022.2.4,Linux x86_64,15.01140867,5d7824b816dea6000130d65f,64ce5acb97489d65b14ecc7a,64cf4693ff1573428ea185e1,,,,,,,sngl,resources/Empty.png,resources/DR.BMP,Door1,0.329924972,-0.017298098,1,0,0,2.7421,optionRight,30,6820,3,38,0,38,0,1,,,,,,,,,,,,,,,,,,,,,,,,,,,,,,,,,,,,,,,
,,,,,,,,2023-08-06_08h07.30.720,HF_wild_card,2022.2.4,Linux x86_64,15.01140867,5d7824b816dea6000130d65f,64ce5acb97489d65b14ecc7a,64cf4693ff1573428ea185e1,,,,,,,ctch,resources/DBN.BMP,resources/DY.BMP,Door3,-0.345171497,-0.021690256,1,0,0,3.847,optionLeft,70,6890,3,39,0,39,0,1,,,,,,,,,,,,,,,,,,,,,,,,,,,,,,,,,,,,,,,
,,,,,,,,2023-08-06_08h07.30.720,HF_wild_card,2022.2.4,Linux x86_64,15.01140867,5d7824b816dea6000130d65f,64ce5acb97489d65b14ecc7a,64cf4693ff1573428ea185e1,,,,,,,decisionTrl,resources/DP.BMP,resources/DBN.BMP,Door3,0.257666581,0.055432948,1,0,0,5.3847,optionRight,70,6960,3,40,0,40,0,1,,,,,,,,,,,,,,,,,,,,,,,,,,,,,,,,,,,,,,,
,,,,,,,,2023-08-06_08h07.30.720,HF_wild_card,2022.2.4,Linux x86_64,15.01140867,5d7824b816dea6000130d65f,64ce5acb97489d65b14ecc7a,64cf4693ff1573428ea185e1,,,,,,,sngl,resources/DBN.BMP,resources/Empty.png,Door3,-0.436054767,-0.012060829,1,0,0,0.9657,optionLeft,70,7030,3,41,0,41,0,1,,,,,,,,,,,,,,,,,,,,,,,,,,,,,,,,,,,,,,,
,,,,,,,,2023-08-06_08h07.30.720,HF_wild_card,2022.2.4,Linux x86_64,15.01140867,5d7824b816dea6000130d65f,64ce5acb97489d65b14ecc7a,64cf4693ff1573428ea185e1,,,,,,,decisionTrl,resources/DP.BMP,resources/DG.BMP,Door4,0.364512465,0.059884333,1,0,0,12.1126,optionRight,80,7110,3,42,0,42,0,1,,,,,,,,,,,,,,,,,,,,,,,,,,,,,,,,,,,,,,,
,,,,,,,,2023-08-06_08h07.30.720,HF_wild_card,2022.2.4,Linux x86_64,15.01140867,5d7824b816dea6000130d65f,64ce5acb97489d65b14ecc7a,64cf4693ff1573428ea185e1,,,,,,,decisionTrl,resources/DG.BMP,resources/DBN.BMP,Door3,0.351729216,0.028741483,1,0,0,9.8673,optionRight,70,7180,3,43,0,43,0,1,,,,,,,,,,,,,,,,,,,,,,,,,,,,,,,,,,,,,,,
,,,,,,,,2023-08-06_08h07.30.720,HF_wild_card,2022.2.4,Linux x86_64,15.01140867,5d7824b816dea6000130d65f,64ce5acb97489d65b14ecc7a,64cf4693ff1573428ea185e1,,,,,,,,,,,,,,,,,,,,,,,,,,2,0,2,0,1,,,,,,,,,,,,,,,,,,,,,,,,,,,,,,,,,,
,,,,,,,,2023-08-06_08h07.30.720,HF_wild_card,2022.2.4,Linux x86_64,15.01140867,5d7824b816dea6000130d65f,64ce5acb97489d65b14ecc7a,64cf4693ff1573428ea185e1,,,,,,,sngl,resources/DBN.BMP,resources/Empty.png,Door3,-0.350800521,-0.139361177,1,0,0,1.1378,optionLeft,70,7250,4,0,0,0,0,1,,,,,,,,,,,,,,,,,,,,,,,,,,,,,,,,,,,,,,,
,,,,,,,,2023-08-06_08h07.30.720,HF_wild_card,2022.2.4,Linux x86_64,15.01140867,5d7824b816dea6000130d65f,64ce5acb97489d65b14ecc7a,64cf4693ff1573428ea185e1,,,,,,,sngl,resources/DR.BMP,resources/Empty.png,Door1,-0.216702892,-0.036545082,1,0,0,1.5232,optionLeft,30,7280,4,1,0,1,0,1,,,,,,,,,,,,,,,,,,,,,,,,,,,,,,,,,,,,,,,
,,,,,,,,2023-08-06_08h07.30.720,HF_wild_card,2022.2.4,Linux x86_64,15.01140867,5d7824b816dea6000130d65f,64ce5acb97489d65b14ecc7a,64cf4693ff1573428ea185e1,,,,,,,decisionTrl,resources/DR.BMP,resources/DY.BMP,Door2,0.393039845,-0.007130037,1,0,0,6.8735,optionRight,20,7300,4,2,0,2,0,1,,,,,,,,,,,,,,,,,,,,,,,,,,,,,,,,,,,,,,,
,,,,,,,,2023-08-06_08h07.30.720,HF_wild_card,2022.2.4,Linux x86_64,15.01140867,5d7824b816dea6000130d65f,64ce5acb97489d65b14ecc7a,64cf4693ff1573428ea185e1,,,,,,,decisionTrl,resources/DG.BMP,resources/DBN.BMP,Door3,0.339354451,-0.007767063,1,0,0,12.0519,optionRight,70,7370,4,3,0,3,0,1,,,,,,,,,,,,,,,,,,,,,,,,,,,,,,,,,,,,,,,
,,,,,,,,2023-08-06_08h07.30.720,HF_wild_card,2022.2.4,Linux x86_64,15.01140867,5d7824b816dea6000130d65f,64ce5acb97489d65b14ecc7a,64cf4693ff1573428ea185e1,,,,,,,sngl,resources/Empty.png,resources/DR.BMP,Door1,0.324114651,0.071241139,1,0,0,2.2168,optionRight,30,7400,4,4,0,4,0,1,,,,,,,,,,,,,,,,,,,,,,,,,,,,,,,,,,,,,,,
,,,,,,,,2023-08-06_08h07.30.720,HF_wild_card,2022.2.4,Linux x86_64,15.01140867,5d7824b816dea6000130d65f,64ce5acb97489d65b14ecc7a,64cf4693ff1573428ea185e1,,,,,,,decisionTrl,resources/DB.BMP,resources/DBN.BMP,WildCard_NonEx,-0.422455738,0.037780988,1,0,0,8.5656,optionLeft,45,7445,4,5,0,5,0,1,,,,,,,,,,,,,,,,,,,,,,,,,,,,,,,,,,,,,,,
,,,,,,,,2023-08-06_08h07.30.720,HF_wild_card,2022.2.4,Linux x86_64,15.01140867,5d7824b816dea6000130d65f,64ce5acb97489d65b14ecc7a,64cf4693ff1573428ea185e1,,,,,,,sngl,resources/Empty.png,resources/DG.BMP,Door4,0.324462325,-0.014390451,1,0,0,1.9224,optionRight,80,7525,4,6,0,6,0,1,,,,,,,,,,,,,,,,,,,,,,,,,,,,,,,,,,,,,,,
,,,,,,,,2023-08-06_08h07.30.720,HF_wild_card,2022.2.4,Linux x86_64,15.01140867,5d7824b816dea6000130d65f,64ce5acb97489d65b14ecc7a,64cf4693ff1573428ea185e1,,,,,,,decisionTrl,resources/DY.BMP,resources/DR.BMP,Door1,0.509284917,-0.050737395,1,0,0,5.0905,optionRight,30,7555,4,7,0,7,0,1,,,,,,,,,,,,,,,,,,,,,,,,,,,,,,,,,,,,,,,
,,,,,,,,2023-08-06_08h07.30.720,HF_wild_card,2022.2.4,Linux x86_64,15.01140867,5d7824b816dea6000130d65f,64ce5acb97489d65b14ecc7a,64cf4693ff1573428ea185e1,,,,,,,sngl,resources/Empty.png,resources/DBN.BMP,Door3,0.384275083,0.010558686,1,0,0,1.2689,optionRight,70,7625,4,8,0,8,0,1,,,,,,,,,,,,,,,,,,,,,,,,,,,,,,,,,,,,,,,
,,,,,,,,2023-08-06_08h07.30.720,HF_wild_card,2022.2.4,Linux x86_64,15.01140867,5d7824b816dea6000130d65f,64ce5acb97489d65b14ecc7a,64cf4693ff1573428ea185e1,,,,,,,decisionTrl,resources/DB.BMP,resources/DY.BMP,WildCard_NonEx,-0.40531311,-0.001993363,1,0,0,4.2809,optionLeft,55,7680,4,9,0,9,0,1,,,,,,,,,,,,,,,,,,,,,,,,,,,,,,,,,,,,,,,
,,,,,,,,2023-08-06_08h07.30.720,HF_wild_card,2022.2.4,Linux x86_64,15.01140867,5d7824b816dea6000130d65f,64ce5acb97489d65b14ecc7a,64cf4693ff1573428ea185e1,,,,,,,decisionTrl,resources/DR.BMP,resources/DY.BMP,Door2,0.524110808,0.038250422,1,0,0,6.6683,optionRight,40,7720,4,10,0,10,0,1,,,,,,,,,,,,,,,,,,,,,,,,,,,,,,,,,,,,,,,
,,,,,,,,2023-08-06_08h07.30.720,HF_wild_card,2022.2.4,Linux x86_64,15.01140867,5d7824b816dea6000130d65f,64ce5acb97489d65b14ecc7a,64cf4693ff1573428ea185e1,,,,,,,ctch,resources/DG.BMP,resources/DR.BMP,Door4,-0.183629015,-0.004461613,1,0,0,15.0326,optionLeft,80,7800,4,11,0,11,0,1,,,,,,,,,,,,,,,,,,,,,,,,,,,,,,,,,,,,,,,
,,,,,,,,2023-08-06_08h07.30.720,HF_wild_card,2022.2.4,Linux x86_64,15.01140867,5d7824b816dea6000130d65f,64ce5acb97489d65b14ecc7a,64cf4693ff1573428ea185e1,,,,,,,ctch,resources/DG.BMP,resources/DR.BMP,Door4,-0.271586778,-0.018226171,1,0,0,4.8165,optionLeft,80,7880,4,12,0,12,0,1,,,,,,,,,,,,,,,,,,,,,,,,,,,,,,,,,,,,,,,
,,,,,,,,2023-08-06_08h07.30.720,HF_wild_card,2022.2.4,Linux x86_64,15.01140867,5d7824b816dea6000130d65f,64ce5acb97489d65b14ecc7a,64cf4693ff1573428ea185e1,,,,,,,decisionTrl,resources/DBN.BMP,resources/DG.BMP,Door4,0.434762912,0.030592205,1,0,0,6.9574,optionRight,60,7940,4,13,0,13,0,1,,,,,,,,,,,,,,,,,,,,,,,,,,,,,,,,,,,,,,,
,,,,,,,,2023-08-06_08h07.30.720,HF_wild_card,2022.2.4,Linux x86_64,15.01140867,5d7824b816dea6000130d65f,64ce5acb97489d65b14ecc7a,64cf4693ff1573428ea185e1,,,,,,,sngl,resources/Empty.png,resources/DB.BMP,WildCard_NonEx,0.438246437,0.022459073,1,0,0,1.7289,optionRight,45,7985,4,14,0,14,0,1,,,,,,,,,,,,,,,,,,,,,,,,,,,,,,,,,,,,,,,
,,,,,,,,2023-08-06_08h07.30.720,HF_wild_card,2022.2.4,Linux x86_64,15.01140867,5d7824b816dea6000130d65f,64ce5acb97489d65b14ecc7a,64cf4693ff1573428ea185e1,,,,,,,ctch,resources/DY.BMP,resources/DBN.BMP,Door3,0.427756529,0.028602572,1,0,0,6.0104,optionRight,70,8055,4,15,0,15,0,1,,,,,,,,,,,,,,,,,,,,,,,,,,,,,,,,,,,,,,,
,,,,,,,,2023-08-06_08h07.30.720,HF_wild_card,2022.2.4,Linux x86_64,15.01140867,5d7824b816dea6000130d65f,64ce5acb97489d65b14ecc7a,64cf4693ff1573428ea185e1,,,,,,,sngl,resources/Empty.png,resources/DY.BMP,Door2,0.356623671,0.009605747,1,0,0,1.107,optionRight,40,8095,4,16,0,16,0,1,,,,,,,,,,,,,,,,,,,,,,,,,,,,,,,,,,,,,,,
,,,,,,,,2023-08-06_08h07.30.720,HF_wild_card,2022.2.4,Linux x86_64,15.01140867,5d7824b816dea6000130d65f,64ce5acb97489d65b14ecc7a,64cf4693ff1573428ea185e1,,,,,,,ctch,resources/DR.BMP,resources/DG.BMP,Door4,0.272266642,0.033688468,1,0,0,5.8074,optionRight,80,8175,4,17,0,17,0,1,,,,,,,,,,,,,,,,,,,,,,,,,,,,,,,,,,,,,,,
,,,,,,,,2023-08-06_08h07.30.720,HF_wild_card,2022.2.4,Linux x86_64,15.01140867,5d7824b816dea6000130d65f,64ce5acb97489d65b14ecc7a,64cf4693ff1573428ea185e1,,,,,,,decisionTrl,resources/DR.BMP,resources/DY.BMP,Door2,0.309265137,0.037510257,1,0,0,6.0549,optionRight,40,8215,4,18,0,18,0,1,,,,,,,,,,,,,,,,,,,,,,,,,,,,,,,,,,,,,,,
,,,,,,,,2023-08-06_08h07.30.720,HF_wild_card,2022.2.4,Linux x86_64,15.01140867,5d7824b816dea6000130d65f,64ce5acb97489d65b14ecc7a,64cf4693ff1573428ea185e1,,,,,,,decisionTrl,resources/DG.BMP,resources/DBN.BMP,Door4,-0.474794232,-0.026493327,1,0,0,9.4171,optionLeft,60,8275,4,19,0,19,0,1,,,,,,,,,,,,,,,,,,,,,,,,,,,,,,,,,,,,,,,
,,,,,,,,2023-08-06_08h07.30.720,HF_wild_card,2022.2.4,Linux x86_64,15.01140867,5d7824b816dea6000130d65f,64ce5acb97489d65b14ecc7a,64cf4693ff1573428ea185e1,,,,,,,decisionTrl,resources/DBN.BMP,resources/DG.BMP,Door4,0.483252292,0.022859135,1,0,0,5.6857,optionRight,60,8335,4,20,0,20,0,1,,,,,,,,,,,,,,,,,,,,,,,,,,,,,,,,,,,,,,,
,,,,,,,,2023-08-06_08h07.30.720,HF_wild_card,2022.2.4,Linux x86_64,15.01140867,5d7824b816dea6000130d65f,64ce5acb97489d65b14ecc7a,64cf4693ff1573428ea185e1,,,,,,,decisionTrl,resources/DY.BMP,resources/DR.BMP,Door2,-0.29079296,-0.006949361,1,0,0,5.6591,optionLeft,20,8355,4,21,0,21,0,1,,,,,,,,,,,,,,,,,,,,,,,,,,,,,,,,,,,,,,,
,,,,,,,,2023-08-06_08h07.30.720,HF_wild_card,2022.2.4,Linux x86_64,15.01140867,5d7824b816dea6000130d65f,64ce5acb97489d65b14ecc7a,64cf4693ff1573428ea185e1,,,,,,,sngl,resources/Empty.png,resources/DB.BMP,WildCard_NonEx,0.31649769,0.001073823,1,0,0,1.2133,optionRight,55,8410,4,22,0,22,0,1,,,,,,,,,,,,,,,,,,,,,,,,,,,,,,,,,,,,,,,
,,,,,,,,2023-08-06_08h07.30.720,HF_wild_card,2022.2.4,Linux x86_64,15.01140867,5d7824b816dea6000130d65f,64ce5acb97489d65b14ecc7a,64cf4693ff1573428ea185e1,,,,,,,decisionTrl,resources/DY.BMP,resources/DR.BMP,Door1,0.327629937,0.013411854,1,0,0,5.373,optionRight,30,8440,4,23,0,23,0,1,,,,,,,,,,,,,,,,,,,,,,,,,,,,,,,,,,,,,,,
,,,,,,,,2023-08-06_08h07.30.720,HF_wild_card,2022.2.4,Linux x86_64,15.01140867,5d7824b816dea6000130d65f,64ce5acb97489d65b14ecc7a,64cf4693ff1573428ea185e1,,,,,,,sngl,resources/DB.BMP,resources/Empty.png,WildCard_NonEx,-0.281545399,-0.017005073,1,0,0,1.0707,optionLeft,45,8485,4,24,0,24,0,1,,,,,,,,,,,,,,,,,,,,,,,,,,,,,,,,,,,,,,,
,,,,,,,,2023-08-06_08h07.30.720,HF_wild_card,2022.2.4,Linux x86_64,15.01140867,5d7824b816dea6000130d65f,64ce5acb97489d65b14ecc7a,64cf4693ff1573428ea185e1,,,,,,,sngl,resources/DB.BMP,resources/Empty.png,WildCard_NonEx,-0.307339817,-0.009080505,1,0,0,0.9662,optionLeft,55,8540,4,25,0,25,0,1,,,,,,,,,,,,,,,,,,,,,,,,,,,,,,,,,,,,,,,
,,,,,,,,2023-08-06_08h07.30.720,HF_wild_card,2022.2.4,Linux x86_64,15.01140867,5d7824b816dea6000130d65f,64ce5acb97489d65b14ecc7a,64cf4693ff1573428ea185e1,,,,,,,sngl,resources/DY.BMP,resources/Empty.png,Door2,-0.232006384,-0.019181711,1,0,0,1.4209,optionLeft,20,8560,4,26,0,26,0,1,,,,,,,,,,,,,,,,,,,,,,,,,,,,,,,,,,,,,,,
,,,,,,,,2023-08-06_08h07.30.720,HF_wild_card,2022.2.4,Linux x86_64,15.01140867,5d7824b816dea6000130d65f,64ce5acb97489d65b14ecc7a,64cf4693ff1573428ea185e1,,,,,,,decisionTrl,resources/DG.BMP,resources/DBN.BMP,Door3,0.231150422,-0.027070166,1,0,0,13.4551,optionRight,70,8630,4,27,0,27,0,1,,,,,,,,,,,,,,,,,,,,,,,,,,,,,,,,,,,,,,,
,,,,,,,,2023-08-06_08h07.30.720,HF_wild_card,2022.2.4,Linux x86_64,15.01140867,5d7824b816dea6000130d65f,64ce5acb97489d65b14ecc7a,64cf4693ff1573428ea185e1,,,,,,,ctch,resources/DBN.BMP,resources/DY.BMP,Door3,-0.381097412,-0.033541361,1,0,0,2.1314,optionLeft,70,8700,4,28,0,28,0,1,,,,,,,,,,,,,,,,,,,,,,,,,,,,,,,,,,,,,,,
,,,,,,,,2023-08-06_08h07.30.720,HF_wild_card,2022.2.4,Linux x86_64,15.01140867,5d7824b816dea6000130d65f,64ce5acb97489d65b14ecc7a,64cf4693ff1573428ea185e1,,,,,,,ctch,resources/DR.BMP,resources/DG.BMP,Door1,-0.196811648,-0.024643001,1,0,0,5.252,optionLeft,30,8730,4,29,0,29,0,1,,,,,,,,,,,,,,,,,,,,,,,,,,,,,,,,,,,,,,,
,,,,,,,,2023-08-06_08h07.30.720,HF_wild_card,2022.2.4,Linux x86_64,15.01140867,5d7824b816dea6000130d65f,64ce5acb97489d65b14ecc7a,64cf4693ff1573428ea185e1,,,,,,,ctch,resources/DY.BMP,resources/DBN.BMP,Door3,0.345568056,0.038443813,1,0,0,5.4978,optionRight,70,8800,4,30,0,30,0,1,,,,,,,,,,,,,,,,,,,,,,,,,,,,,,,,,,,,,,,
,,,,,,,,2023-08-06_08h07.30.720,HF_wild_card,2022.2.4,Linux x86_64,15.01140867,5d7824b816dea6000130d65f,64ce5acb97489d65b14ecc7a,64cf4693ff1573428ea185e1,,,,,,,sngl,resources/DG.BMP,resources/Empty.png,Door4,-0.373779919,-0.040258733,1,0,0,2.4132,optionLeft,60,8860,4,31,0,31,0,1,,,,,,,,,,,,,,,,,,,,,,,,,,,,,,,,,,,,,,,
,,,,,,,,2023-08-06_08h07.30.720,HF_wild_card,2022.2.4,Linux x86_64,15.01140867,5d7824b816dea6000130d65f,64ce5acb97489d65b14ecc7a,64cf4693ff1573428ea185e1,,,,,,,decisionTrl,resources/DR.BMP,resources/DB.BMP,WildCard_NonEx,0.350467823,-0.048382512,1,0,0,4.5186,optionRight,55,8915,4,32,0,32,0,1,,,,,,,,,,,,,,,,,,,,,,,,,,,,,,,,,,,,,,,
,,,,,,,,2023-08-06_08h07.30.720,HF_wild_card,2022.2.4,Linux x86_64,15.01140867,5d7824b816dea6000130d65f,64ce5acb97489d65b14ecc7a,64cf4693ff1573428ea185e1,,,,,,,decisionTrl,resources/DY.BMP,resources/DB.BMP,WildCard_NonEx,0.442678494,-0.012255577,1,0,0,4.3649,optionRight,55,8970,4,33,0,33,0,1,,,,,,,,,,,,,,,,,,,,,,,,,,,,,,,,,,,,,,,
,,,,,,,,2023-08-06_08h07.30.720,HF_wild_card,2022.2.4,Linux x86_64,15.01140867,5d7824b816dea6000130d65f,64ce5acb97489d65b14ecc7a,64cf4693ff1573428ea185e1,,,,,,,decisionTrl,resources/DB.BMP,resources/DR.BMP,WildCard_NonEx,-0.449370971,0.006227564,1,0,0,2.855,optionLeft,45,9015,4,34,0,34,0,1,,,,,,,,,,,,,,,,,,,,,,,,,,,,,,,,,,,,,,,
,,,,,,,,2023-08-06_08h07.30.720,HF_wild_card,2022.2.4,Linux x86_64,15.01140867,5d7824b816dea6000130d65f,64ce5acb97489d65b14ecc7a,64cf4693ff1573428ea185e1,,,,,,,decisionTrl,resources/DY.BMP,resources/DR.BMP,Door1,0.353040229,-0.060721164,1,0,0,3.6414,optionRight,30,9045,4,35,0,35,0,1,,,,,,,,,,,,,,,,,,,,,,,,,,,,,,,,,,,,,,,
,,,,,,,,2023-08-06_08h07.30.720,HF_wild_card,2022.2.4,Linux x86_64,15.01140867,5d7824b816dea6000130d65f,64ce5acb97489d65b14ecc7a,64cf4693ff1573428ea185e1,,,,,,,decisionTrl,resources/DBN.BMP,resources/DG.BMP,Door3,-0.259894081,-0.007722756,1,0,0,7.393,optionLeft,70,9115,4,36,0,36,0,1,,,,,,,,,,,,,,,,,,,,,,,,,,,,,,,,,,,,,,,
,,,,,,,,2023-08-06_08h07.30.720,HF_wild_card,2022.2.4,Linux x86_64,15.01140867,5d7824b816dea6000130d65f,64ce5acb97489d65b14ecc7a,64cf4693ff1573428ea185e1,,,,,,,decisionTrl,resources/DBN.BMP,resources/DG.BMP,Door3,-0.257379659,-0.004396622,1,0,0,8.0009,optionLeft,70,9185,4,37,0,37,0,1,,,,,,,,,,,,,,,,,,,,,,,,,,,,,,,,,,,,,,,
,,,,,,,,2023-08-06_08h07.30.720,HF_wild_card,2022.2.4,Linux x86_64,15.01140867,5d7824b816dea6000130d65f,64ce5acb97489d65b14ecc7a,64cf4693ff1573428ea185e1,,,,,,,ctch,resources/DBN.BMP,resources/DY.BMP,Door3,-0.360664763,0.057291215,1,0,0,9.5105,optionLeft,70,9255,4,38,0,38,0,1,,,,,,,,,,,,,,,,,,,,,,,,,,,,,,,,,,,,,,,
,,,,,,,,2023-08-06_08h07.30.720,HF_wild_card,2022.2.4,Linux x86_64,15.01140867,5d7824b816dea6000130d65f,64ce5acb97489d65b14ecc7a,64cf4693ff1573428ea185e1,,,,,,,decisionTrl,resources/DG.BMP,resources/DBN.BMP,Door3,0.409318373,-0.006031573,1,0,0,3.5208,optionRight,70,9325,4,39,0,39,0,1,,,,,,,,,,,,,,,,,,,,,,,,,,,,,,,,,,,,,,,
,,,,,,,,2023-08-06_08h07.30.720,HF_wild_card,2022.2.4,Linux x86_64,15.01140867,5d7824b816dea6000130d65f,64ce5acb97489d65b14ecc7a,64cf4693ff1573428ea185e1,,,,,,,decisionTrl,resources/DR.BMP,resources/DY.BMP,Door2,0.433075968,0.005390082,1,0,0,5.798,optionRight,40,9365,4,40,0,40,0,1,,,,,,,,,,,,,,,,,,,,,,,,,,,,,,,,,,,,,,,
,,,,,,,,2023-08-06_08h07.30.720,HF_wild_card,2022.2.4,Linux x86_64,15.01140867,5d7824b816dea6000130d65f,64ce5acb97489d65b14ecc7a,64cf4693ff1573428ea185e1,,,,,,,decisionTrl,resources/DB.BMP,resources/DG.BMP,Door4,0.389693197,0.04657864,1,0,0,7.2923,optionRight,60,9425,4,41,0,41,0,1,,,,,,,,,,,,,,,,,,,,,,,,,,,,,,,,,,,,,,,
,,,,,,,,2023-08-06_08h07.30.720,HF_wild_card,2022.2.4,Linux x86_64,15.01140867,5d7824b816dea6000130d65f,64ce5acb97489d65b14ecc7a,64cf4693ff1573428ea185e1,,,,,,,decisionTrl,resources/DBN.BMP,resources/DB.BMP,Door3,-0.191266604,0.007277821,1,0,0,5.8777,optionLeft,70,9495,4,42,0,42,0,1,,,,,,,,,,,,,,,,,,,,,,,,,,,,,,,,,,,,,,,
,,,,,,,,2023-08-06_08h07.30.720,HF_wild_card,2022.2.4,Linux x86_64,15.01140867,5d7824b816dea6000130d65f,64ce5acb97489d65b14ecc7a,64cf4693ff1573428ea185e1,,,,,,,decisionTrl,resources/DG.BMP,resources/DB.BMP,Door4,-0.381515333,0.04256459,1,0,0,3.7783,optionLeft,80,9575,4,43,0,43,0,1,,,,,,,,,,,,,,,,,,,,,,,,,,,,,,,,,,,,,,,
,,,,,,,,2023-08-06_08h07.30.720,HF_wild_card,2022.2.4,Linux x86_64,15.01140867,5d7824b816dea6000130d65f,64ce5acb97489d65b14ecc7a,64cf4693ff1573428ea185e1,,,,,,,,,,,,,,,,,,,,,,,,,,3,0,3,0,1,,,,,,,,,,,,,,,,,,,,,,,,,,,,,,,,,,
,,,,,,,,2023-08-06_08h07.30.720,HF_wild_card,2022.2.4,Linux x86_64,15.01140867,5d7824b816dea6000130d65f,64ce5acb97489d65b14ecc7a,64cf4693ff1573428ea185e1,,,,,,,decisionTrl,resources/DBN.BMP,resources/DG.BMP,Door3,-0.372364694,-0.035075887,1,0,0,11.0973,optionLeft,70,9645,5,0,0,0,0,1,,,,,,,,,,,,,,,,,,,,,,,,,,,,,,,,,,,,,,,
,,,,,,,,2023-08-06_08h07.30.720,HF_wild_card,2022.2.4,Linux x86_64,15.01140867,5d7824b816dea6000130d65f,64ce5acb97489d65b14ecc7a,64cf4693ff1573428ea185e1,,,,,,,sngl,resources/Empty.png,resources/DY.BMP,Door2,0.492107137,-0.015375095,1,0,0,1.3762,optionRight,20,9665,5,1,0,1,0,1,,,,,,,,,,,,,,,,,,,,,,,,,,,,,,,,,,,,,,,
,,,,,,,,2023-08-06_08h07.30.720,HF_wild_card,2022.2.4,Linux x86_64,15.01140867,5d7824b816dea6000130d65f,64ce5acb97489d65b14ecc7a,64cf4693ff1573428ea185e1,,,,,,,ctch,resources/DBN.BMP,resources/DY.BMP,Door3,-0.457401247,0.017764565,1,0,0,1.2571,optionLeft,70,9735,5,2,0,2,0,1,,,,,,,,,,,,,,,,,,,,,,,,,,,,,,,,,,,,,,,
,,,,,,,,2023-08-06_08h07.30.720,HF_wild_card,2022.2.4,Linux x86_64,15.01140867,5d7824b816dea6000130d65f,64ce5acb97489d65b14ecc7a,64cf4693ff1573428ea185e1,,,,,,,decisionTrl,resources/DG.BMP,resources/DBN.BMP,Door3,0.423414781,0.048975005,1,0,0,7.8202,optionRight,70,9805,5,3,0,3,0,1,,,,,,,,,,,,,,,,,,,,,,,,,,,,,,,,,,,,,,,
,,,,,,,,2023-08-06_08h07.30.720,HF_wild_card,2022.2.4,Linux x86_64,15.01140867,5d7824b816dea6000130d65f,64ce5acb97489d65b14ecc7a,64cf4693ff1573428ea185e1,,,,,,,decisionTrl,resources/DBN.BMP,resources/DG.BMP,Door3,-0.210251702,-0.009775628,1,0,0,5.4072,optionLeft,70,9875,5,4,0,4,0,1,,,,,,,,,,,,,,,,,,,,,,,,,,,,,,,,,,,,,,,
,,,,,,,,2023-08-06_08h07.30.720,HF_wild_card,2022.2.4,Linux x86_64,15.01140867,5d7824b816dea6000130d65f,64ce5acb97489d65b14ecc7a,64cf4693ff1573428ea185e1,,,,,,,sngl,resources/DBN.BMP,resources/Empty.png,Door3,-0.09211957,-0.019646595,1,0,0,1.2106,optionLeft,70,9945,5,5,0,5,0,1,,,,,,,,,,,,,,,,,,,,,,,,,,,,,,,,,,,,,,,
,,,,,,,,2023-08-06_08h07.30.720,HF_wild_card,2022.2.4,Linux x86_64,15.01140867,5d7824b816dea6000130d65f,64ce5acb97489d65b14ecc7a,64cf4693ff1573428ea185e1,,,,,,,sngl,resources/Empty.png,resources/DB.BMP,WildCard_NonEx,0.447018094,-0.00322243,1,0,0,1.3722,optionRight,55,10000,5,6,0,6,0,1,,,,,,,,,,,,,,,,,,,,,,,,,,,,,,,,,,,,,,,
,,,,,,,,2023-08-06_08h07.30.720,HF_wild_card,2022.2.4,Linux x86_64,15.01140867,5d7824b816dea6000130d65f,64ce5acb97489d65b14ecc7a,64cf4693ff1573428ea185e1,,,,,,,ctch,resources/DBN.BMP,resources/DY.BMP,Door3,-0.389607352,-0.023297289,1,0,0,2.8079,optionLeft,70,10070,5,7,0,7,0,1,,,,,,,,,,,,,,,,,,,,,,,,,,,,,,,,,,,,,,,
,,,,,,,,2023-08-06_08h07.30.720,HF_wild_card,2022.2.4,Linux x86_64,15.01140867,5d7824b816dea6000130d65f,64ce5acb97489d65b14ecc7a,64cf4693ff1573428ea185e1,,,,,,,sngl,resources/DY.BMP,resources/Empty.png,Door2,-0.342282274,-0.007249112,1,0,0,1.4247,optionLeft,40,10110,5,8,0,8,0,1,,,,,,,,,,,,,,,,,,,,,,,,,,,,,,,,,,,,,,,
,,,,,,,,2023-08-06_08h07.30.720,HF_wild_card,2022.2.4,Linux x86_64,15.01140867,5d7824b816dea6000130d65f,64ce5acb97489d65b14ecc7a,64cf4693ff1573428ea185e1,,,,,,,decisionTrl,resources/DY.BMP,resources/DR.BMP,Door2,-0.349618191,-0.028094369,1,0,0,3.2216,optionLeft,40,10150,5,9,0,9,0,1,,,,,,,,,,,,,,,,,,,,,,,,,,,,,,,,,,,,,,,
,,,,,,,,2023-08-06_08h07.30.720,HF_wild_card,2022.2.4,Linux x86_64,15.01140867,5d7824b816dea6000130d65f,64ce5acb97489d65b14ecc7a,64cf4693ff1573428ea185e1,,,,,,,decisionTrl,resources/DG.BMP,resources/DBN.BMP,Door3,0.509358724,-0.010755864,1,0,0,6.6522,optionRight,70,10220,5,10,0,10,0,1,,,,,,,,,,,,,,,,,,,,,,,,,,,,,,,,,,,,,,,
,,,,,,,,2023-08-06_08h07.30.720,HF_wild_card,2022.2.4,Linux x86_64,15.01140867,5d7824b816dea6000130d65f,64ce5acb97489d65b14ecc7a,64cf4693ff1573428ea185e1,,,,,,,ctch,resources/DY.BMP,resources/DBN.BMP,Door3,0.331825426,0.076751652,1,0,0,4.5013,optionRight,70,10290,5,11,0,11,0,1,,,,,,,,,,,,,,,,,,,,,,,,,,,,,,,,,,,,,,,
,,,,,,,,2023-08-06_08h07.30.720,HF_wild_card,2022.2.4,Linux x86_64,15.01140867,5d7824b816dea6000130d65f,64ce5acb97489d65b14ecc7a,64cf4693ff1573428ea185e1,,,,,,,decisionTrl,resources/DR.BMP,resources/DB.BMP,WildCard_NonEx,0.353090752,-0.015622005,1,0,0,3.0181,optionRight,55,10345,5,12,0,12,0,1,,,,,,,,,,,,,,,,,,,,,,,,,,,,,,,,,,,,,,,
,,,,,,,,2023-08-06_08h07.30.720,HF_wild_card,2022.2.4,Linux x86_64,15.01140867,5d7824b816dea6000130d65f,64ce5acb97489d65b14ecc7a,64cf4693ff1573428ea185e1,,,,,,,sngl,resources/DG.BMP,resources/Empty.png,Door4,-0.287706446,-0.025045381,1,0,0,2.2724,optionLeft,80,10425,5,13,0,13,0,1,,,,,,,,,,,,,,,,,,,,,,,,,,,,,,,,,,,,,,,
,,,,,,,,2023-08-06_08h07.30.720,HF_wild_card,2022.2.4,Linux x86_64,15.01140867,5d7824b816dea6000130d65f,64ce5acb97489d65b14ecc7a,64cf4693ff1573428ea185e1,,,,,,,decisionTrl,resources/DG.BMP,resources/DBN.BMP,Door4,-0.290289702,0.053077246,1,0,0,6.1163,optionLeft,80,10505,5,14,0,14,0,1,,,,,,,,,,,,,,,,,,,,,,,,,,,,,,,,,,,,,,,
,,,,,,,,2023-08-06_08h07.30.720,HF_wild_card,2022.2.4,Linux x86_64,15.01140867,5d7824b816dea6000130d65f,64ce5acb97489d65b14ecc7a,64cf4693ff1573428ea185e1,,,,,,,sngl,resources/Empty.png,resources/DG.BMP,Door4,0.387508929,0.006124143,1,0,0,0.9961,optionRight,60,10565,5,15,0,15,0,1,,,,,,,,,,,,,,,,,,,,,,,,,,,,,,,,,,,,,,,
,,,,,,,,2023-08-06_08h07.30.720,HF_wild_card,2022.2.4,Linux x86_64,15.01140867,5d7824b816dea6000130d65f,64ce5acb97489d65b14ecc7a,64cf4693ff1573428ea185e1,,,,,,,decisionTrl,resources/DB.BMP,resources/DG.BMP,Door4,0.511548982,0.010684713,1,0,0,2.8516,optionRight,80,10645,5,16,0,16,0,1,,,,,,,,,,,,,,,,,,,,,,,,,,,,,,,,,,,,,,,
,,,,,,,,2023-08-06_08h07.30.720,HF_wild_card,2022.2.4,Linux x86_64,15.01140867,5d7824b816dea6000130d65f,64ce5acb97489d65b14ecc7a,64cf4693ff1573428ea185e1,,,,,,,decisionTrl,resources/DY.BMP,resources/DR.BMP,Door1,0.313805361,0.034386331,1,0,0,5.7793,optionRight,30,10675,5,17,0,17,0,1,,,,,,,,,,,,,,,,,,,,,,,,,,,,,,,,,,,,,,,
,,,,,,,,2023-08-06_08h07.30.720,HF_wild_card,2022.2.4,Linux x86_64,15.01140867,5d7824b816dea6000130d65f,64ce5acb97489d65b14ecc7a,64cf4693ff1573428ea185e1,,,,,,,decisionTrl,resources/DY.BMP,resources/DB.BMP,WildCard_NonEx,0.449117703,-0.002541493,1,0,0,4.3384,optionRight,55,10730,5,18,0,18,0,1,,,,,,,,,,,,,,,,,,,,,,,,,,,,,,,,,,,,,,,
,,,,,,,,2023-08-06_08h07.30.720,HF_wild_card,2022.2.4,Linux x86_64,15.01140867,5d7824b816dea6000130d65f,64ce5acb97489d65b14ecc7a,64cf4693ff1573428ea185e1,,,,,,,sngl,resources/Empty.png,resources/DB.BMP,WildCard_NonEx,0.475733891,-0.019080268,1,0,0,1.054,optionRight,45,10775,5,19,0,19,0,1,,,,,,,,,,,,,,,,,,,,,,,,,,,,,,,,,,,,,,,
,,,,,,,,2023-08-06_08h07.30.720,HF_wild_card,2022.2.4,Linux x86_64,15.01140867,5d7824b816dea6000130d65f,64ce5acb97489d65b14ecc7a,64cf4693ff1573428ea185e1,,,,,,,decisionTrl,resources/DR.BMP,resources/DY.BMP,Door2,0.400411761,0.082311644,1,0,0,4.6915,optionRight,20,10795,5,20,0,20,0,1,,,,,,,,,,,,,,,,,,,,,,,,,,,,,,,,,,,,,,,
,,,,,,,,2023-08-06_08h07.30.720,HF_wild_card,2022.2.4,Linux x86_64,15.01140867,5d7824b816dea6000130d65f,64ce5acb97489d65b14ecc7a,64cf4693ff1573428ea185e1,,,,,,,decisionTrl,resources/DB.BMP,resources/DR.BMP,WildCard_NonEx,-0.487288355,-0.108181198,1,0,0,3.7381,optionLeft,55,10850,5,21,0,21,0,1,,,,,,,,,,,,,,,,,,,,,,,,,,,,,,,,,,,,,,,
,,,,,,,,2023-08-06_08h07.30.720,HF_wild_card,2022.2.4,Linux x86_64,15.01140867,5d7824b816dea6000130d65f,64ce5acb97489d65b14ecc7a,64cf4693ff1573428ea185e1,,,,,,,ctch,resources/DY.BMP,resources/DBN.BMP,Door3,0.427078925,-0.012071963,1,0,0,4.2818,optionRight,70,10920,5,22,0,22,0,1,,,,,,,,,,,,,,,,,,,,,,,,,,,,,,,,,,,,,,,
,,,,,,,,2023-08-06_08h07.30.720,HF_wild_card,2022.2.4,Linux x86_64,15.01140867,5d7824b816dea6000130d65f,64ce5acb97489d65b14ecc7a,64cf4693ff1573428ea185e1,,,,,,,sngl,resources/DB.BMP,resources/Empty.png,WildCard_NonEx,-0.368980125,-0.036838503,1,0,0,1.0255,optionLeft,55,10975,5,23,0,23,0,1,,,,,,,,,,,,,,,,,,,,,,,,,,,,,,,,,,,,,,,
,,,,,,,,2023-08-06_08h07.30.720,HF_wild_card,2022.2.4,Linux x86_64,15.01140867,5d7824b816dea6000130d65f,64ce5acb97489d65b14ecc7a,64cf4693ff1573428ea185e1,,,,,,,ctch,resources/DR.BMP,resources/DG.BMP,Door4,0.359030151,0.018228771,1,0,0,10.4903,optionRight,80,11055,5,24,0,24,0,1,,,,,,,,,,,,,,,,,,,,,,,,,,,,,,,,,,,,,,,
,,,,,,,,2023-08-06_08h07.30.720,HF_wild_card,2022.2.4,Linux x86_64,15.01140867,5d7824b816dea6000130d65f,64ce5acb97489d65b14ecc7a,64cf4693ff1573428ea185e1,,,,,,,ctch,resources/DG.BMP,resources/DR.BMP,Door4,-0.401226128,-0.033085406,1,0,0,3.6737,optionLeft,60,11115,5,25,0,25,0,1,,,,,,,,,,,,,,,,,,,,,,,,,,,,,,,,,,,,,,,
,,,,,,,,2023-08-06_08h07.30.720,HF_wild_card,2022.2.4,Linux x86_64,15.01140867,5d7824b816dea6000130d65f,64ce5acb97489d65b14ecc7a,64cf4693ff1573428ea185e1,,,,,,,decisionTrl,resources/DBN.BMP,resources/DG.BMP,Door3,-0.278164786,-0.002459491,1,0,0,3.8929,optionLeft,70,11185,5,26,0,26,0,1,,,,,,,,,,,,,,,,,,,,,,,,,,,,,,,,,,,,,,,
,,,,,,,,2023-08-06_08h07.30.720,HF_wild_card,2022.2.4,Linux x86_64,15.01140867,5d7824b816dea6000130d65f,64ce5acb97489d65b14ecc7a,64cf4693ff1573428ea185e1,,,,,,,decisionTrl,resources/DG.BMP,resources/DBN.BMP,Door3,0.431957104,-0.022844159,1,0,0,1.4784,optionRight,70,11255,5,27,0,27,0,1,,,,,,,,,,,,,,,,,,,,,,,,,,,,,,,,,,,,,,,
,,,,,,,,2023-08-06_08h07.30.720,HF_wild_card,2022.2.4,Linux x86_64,15.01140867,5d7824b816dea6000130d65f,64ce5acb97489d65b14ecc7a,64cf4693ff1573428ea185e1,,,,,,,sngl,resources/DB.BMP,resources/Empty.png,WildCard_NonEx,-0.244596072,-0.036736778,1,0,0,1.0057,optionLeft,45,11300,5,28,0,28,0,1,,,,,,,,,,,,,,,,,,,,,,,,,,,,,,,,,,,,,,,
,,,,,,,,2023-08-06_08h07.30.720,HF_wild_card,2022.2.4,Linux x86_64,15.01140867,5d7824b816dea6000130d65f,64ce5acb97489d65b14ecc7a,64cf4693ff1573428ea185e1,,,,,,,sngl,resources/Empty.png,resources/DR.BMP,Door1,0.428181175,0.025271154,1,0,0,1.305,optionRight,30,11330,5,29,0,29,0,1,,,,,,,,,,,,,,,,,,,,,,,,,,,,,,,,,,,,,,,
,,,,,,,,2023-08-06_08h07.30.720,HF_wild_card,2022.2.4,Linux x86_64,15.01140867,5d7824b816dea6000130d65f,64ce5acb97489d65b14ecc7a,64cf4693ff1573428ea185e1,,,,,,,decisionTrl,resources/DR.BMP,resources/DY.BMP,Door1,-0.400246175,-0.009470339,1,0,0,3.3011,optionLeft,30,11360,5,30,0,30,0,1,,,,,,,,,,,,,,,,,,,,,,,,,,,,,,,,,,,,,,,
,,,,,,,,2023-08-06_08h07.30.720,HF_wild_card,2022.2.4,Linux x86_64,15.01140867,5d7824b816dea6000130d65f,64ce5acb97489d65b14ecc7a,64cf4693ff1573428ea185e1,,,,,,,ctch,resources/DR.BMP,resources/DG.BMP,Door4,0.405805235,0.06124683,1,0,0,4.7638,optionRight,60,11420,5,31,0,31,0,1,,,,,,,,,,,,,,,,,,,,,,,,,,,,,,,,,,,,,,,
,,,,,,,,2023-08-06_08h07.30.720,HF_wild_card,2022.2.4,Linux x86_64,15.01140867,5d7824b816dea6000130d65f,64ce5acb97489d65b14ecc7a,64cf4693ff1573428ea185e1,,,,,,,sngl,resources/Empty.png,resources/DBN.BMP,Door3,0.27812613,0.056839328,1,0,0,1.6752,optionRight,70,11490,5,32,0,32,0,1,,,,,,,,,,,,,,,,,,,,,,,,,,,,,,,,,,,,,,,
,,,,,,,,2023-08-06_08h07.30.720,HF_wild_card,2022.2.4,Linux x86_64,15.01140867,5d7824b816dea6000130d65f,64ce5acb97489d65b14ecc7a,64cf4693ff1573428ea185e1,,,,,,,decisionTrl,resources/DY.BMP,resources/DR.BMP,Door1,0.276858521,0.111004413,1,0,0,5.0959,optionRight,30,11520,5,33,0,33,0,1,,,,,,,,,,,,,,,,,,,,,,,,,,,,,,,,,,,,,,,
,,,,,,,,2023-08-06_08h07.30.720,HF_wild_card,2022.2.4,Linux x86_64,15.01140867,5d7824b816dea6000130d65f,64ce5acb97489d65b14ecc7a,64cf4693ff1573428ea185e1,,,,,,,decisionTrl,resources/DR.BMP,resources/DY.BMP,Door2,0.485794519,0.006551502,1,0,0,5.8332,optionRight,20,11540,5,34,0,34,0,1,,,,,,,,,,,,,,,,,,,,,,,,,,,,,,,,,,,,,,,
,,,,,,,,2023-08-06_08h07.30.720,HF_wild_card,2022.2.4,Linux x86_64,15.01140867,5d7824b816dea6000130d65f,64ce5acb97489d65b14ecc7a,64cf4693ff1573428ea185e1,,,,,,,sngl,resources/DR.BMP,resources/Empty.png,Door1,-0.279395662,-0.052655312,1,0,0,0.9033,optionLeft,30,11570,5,35,0,35,0,1,,,,,,,,,,,,,,,,,,,,,,,,,,,,,,,,,,,,,,,
,,,,,,,,2023-08-06_08h07.30.720,HF_wild_card,2022.2.4,Linux x86_64,15.01140867,5d7824b816dea6000130d65f,64ce5acb97489d65b14ecc7a,64cf4693ff1573428ea185e1,,,,,,,decisionTrl,resources/DB.BMP,resources/DBN.BMP,Door3,0.286723384,0.005170356,1,0,0,3.8963,optionRight,70,11640,5,36,0,36,0,1,,,,,,,,,,,,,,,,,,,,,,,,,,,,,,,,,,,,,,,
,,,,,,,,2023-08-06_08h07.30.720,HF_wild_card,2022.2.4,Linux x86_64,15.01140867,5d7824b816dea6000130d65f,64ce5acb97489d65b14ecc7a,64cf4693ff1573428ea185e1,,,,,,,decisionTrl,resources/DBN.BMP,resources/DB.BMP,Door3,-0.307353945,-0.030881189,1,0,0,1.3726,optionLeft,70,11710,5,37,0,37,0,1,,,,,,,,,,,,,,,,,,,,,,,,,,,,,,,,,,,,,,,
,,,,,,,,2023-08-06_08h07.30.720,HF_wild_card,2022.2.4,Linux x86_64,15.01140867,5d7824b816dea6000130d65f,64ce5acb97489d65b14ecc7a,64cf4693ff1573428ea185e1,,,,,,,decisionTrl,resources/DBN.BMP,resources/DG.BMP,Door3,-0.301924698,-0.004043692,1,0,0,4.0019,optionLeft,70,11780,5,38,0,38,0,1,,,,,,,,,,,,,,,,,,,,,,,,,,,,,,,,,,,,,,,
,,,,,,,,2023-08-06_08h07.30.720,HF_wild_card,2022.2.4,Linux x86_64,15.01140867,5d7824b816dea6000130d65f,64ce5acb97489d65b14ecc7a,64cf4693ff1573428ea185e1,,,,,,,decisionTrl,resources/DG.BMP,resources/DB.BMP,Door4,-0.313182576,-0.01074603,1,0,0,5.4195,optionLeft,60,11840,5,39,0,39,0,1,,,,,,,,,,,,,,,,,,,,,,,,,,,,,,,,,,,,,,,
,,,,,,,,2023-08-06_08h07.30.720,HF_wild_card,2022.2.4,Linux x86_64,15.01140867,5d7824b816dea6000130d65f,64ce5acb97489d65b14ecc7a,64cf4693ff1573428ea185e1,,,,,,,decisionTrl,resources/DB.BMP,resources/DY.BMP,WildCard_NonEx,-0.316531203,-0.004423014,1,0,0,5.0894,optionLeft,45,11885,5,40,0,40,0,1,,,,,,,,,,,,,,,,,,,,,,,,,,,,,,,,,,,,,,,
,,,,,,,,2023-08-06_08h07.30.720,HF_wild_card,2022.2.4,Linux x86_64,15.01140867,5d7824b816dea6000130d65f,64ce5acb97489d65b14ecc7a,64cf4693ff1573428ea185e1,,,,,,,decisionTrl,resources/DY.BMP,resources/DR.BMP,Door1,0.236178137,0.052057054,1,0,0,4.7078,optionRight,30,11915,5,41,0,41,0,1,,,,,,,,,,,,,,,,,,,,,,,,,,,,,,,,,,,,,,,
,,,,,,,,2023-08-06_08h07.30.720,HF_wild_card,2022.2.4,Linux x86_64,15.01140867,5d7824b816dea6000130d65f,64ce5acb97489d65b14ecc7a,64cf4693ff1573428ea185e1,,,,,,,ctch,resources/DG.BMP,resources/DR.BMP,Door4,-0.244827553,-0.042584229,1,0,0,2.2664,optionLeft,80,11995,5,42,0,42,0,1,,,,,,,,,,,,,,,,,,,,,,,,,,,,,,,,,,,,,,,
,,,,,,,,2023-08-06_08h07.30.720,HF_wild_card,2022.2.4,Linux x86_64,15.01140867,5d7824b816dea6000130d65f,64ce5acb97489d65b14ecc7a,64cf4693ff1573428ea185e1,,,,,,,decisionTrl,resources/DR.BMP,resources/DY.BMP,Door2,0.376006741,0.025043685,1,0,0,6.5459,optionRight,40,12035,5,43,0,43,0,1,,,,,,,,,,,,,,,,,,,,,,,,,,,,,,,,,,,,,,,
,,,,,,,,2023-08-06_08h07.30.720,HF_wild_card,2022.2.4,Linux x86_64,15.01140867,5d7824b816dea6000130d65f,64ce5acb97489d65b14ecc7a,64cf4693ff1573428ea185e1,,,,,,,,,,,,,,,,,,,,,,,,,,4,0,4,0,1,,,,,,,,,,,,,,,,,,,,,,,,,,,,,,,,,,
,,,,,,,,2023-08-06_08h07.30.720,HF_wild_card,2022.2.4,Linux x86_64,15.01140867,5d7824b816dea6000130d65f,64ce5acb97489d65b14ecc7a,64cf4693ff1573428ea185e1,,,,,,,ctch,resources/DG.BMP,resources/DR.BMP,Door4,-0.389237863,-0.122273028,1,0,0,4.8441,optionLeft,80,12115,6,0,0,0,0,1,,,,,,,,,,,,,,,,,,,,,,,,,,,,,,,,,,,,,,,
,,,,,,,,2023-08-06_08h07.30.720,HF_wild_card,2022.2.4,Linux x86_64,15.01140867,5d7824b816dea6000130d65f,64ce5acb97489d65b14ecc7a,64cf4693ff1573428ea185e1,,,,,,,decisionTrl,resources/DR.BMP,resources/DY.BMP,Door2,0.289402036,-0.038481536,1,0,0,4.7258,optionRight,40,12155,6,1,0,1,0,1,,,,,,,,,,,,,,,,,,,,,,,,,,,,,,,,,,,,,,,
,,,,,,,,2023-08-06_08h07.30.720,HF_wild_card,2022.2.4,Linux x86_64,15.01140867,5d7824b816dea6000130d65f,64ce5acb97489d65b14ecc7a,64cf4693ff1573428ea185e1,,,,,,,decisionTrl,resources/DG.BMP,resources/DBN.BMP,Door4,-0.204581197,0.000928639,1,0,0,6.8293,optionLeft,60,12215,6,2,0,2,0,1,,,,,,,,,,,,,,,,,,,,,,,,,,,,,,,,,,,,,,,
,,,,,,,,2023-08-06_08h07.30.720,HF_wild_card,2022.2.4,Linux x86_64,15.01140867,5d7824b816dea6000130d65f,64ce5acb97489d65b14ecc7a,64cf4693ff1573428ea185e1,,,,,,,sngl,resources/Empty.png,resources/DR.BMP,Door1,0.304706828,-0.002166296,1,0,0,1.3068,optionRight,30,12245,6,3,0,3,0,1,,,,,,,,,,,,,,,,,,,,,,,,,,,,,,,,,,,,,,,
,,,,,,,,2023-08-06_08h07.30.720,HF_wild_card,2022.2.4,Linux x86_64,15.01140867,5d7824b816dea6000130d65f,64ce5acb97489d65b14ecc7a,64cf4693ff1573428ea185e1,,,,,,,decisionTrl,resources/DY.BMP,resources/DR.BMP,Door2,-0.372907398,-0.011154062,1,0,0,3.3452,optionLeft,20,12265,6,4,0,4,0,1,,,,,,,,,,,,,,,,,,,,,,,,,,,,,,,,,,,,,,,
,,,,,,,,2023-08-06_08h07.30.720,HF_wild_card,2022.2.4,Linux x86_64,15.01140867,5d7824b816dea6000130d65f,64ce5acb97489d65b14ecc7a,64cf4693ff1573428ea185e1,,,,,,,decisionTrl,resources/DY.BMP,resources/DR.BMP,Door1,0.341799475,0.029333298,1,0,0,1.458,optionRight,30,12295,6,5,0,5,0,1,,,,,,,,,,,,,,,,,,,,,,,,,,,,,,,,,,,,,,,
,,,,,,,,2023-08-06_08h07.30.720,HF_wild_card,2022.2.4,Linux x86_64,15.01140867,5d7824b816dea6000130d65f,64ce5acb97489d65b14ecc7a,64cf4693ff1573428ea185e1,,,,,,,decisionTrl,resources/DY.BMP,resources/DR.BMP,Door2,-0.334459149,-0.020434288,1,0,0,1.4028,optionLeft,20,12315,6,6,0,6,0,1,,,,,,,,,,,,,,,,,,,,,,,,,,,,,,,,,,,,,,,
,,,,,,,,2023-08-06_08h07.30.720,HF_wild_card,2022.2.4,Linux x86_64,15.01140867,5d7824b816dea6000130d65f,64ce5acb97489d65b14ecc7a,64cf4693ff1573428ea185e1,,,,,,,ctch,resources/DBN.BMP,resources/DY.BMP,Door3,-0.317919922,-0.049041183,1,0,0,3.516,optionLeft,70,12385,6,7,0,7,0,1,,,,,,,,,,,,,,,,,,,,,,,,,,,,,,,,,,,,,,,
,,,,,,,,2023-08-06_08h07.30.720,HF_wild_card,2022.2.4,Linux x86_64,15.01140867,5d7824b816dea6000130d65f,64ce5acb97489d65b14ecc7a,64cf4693ff1573428ea185e1,,,,,,,decisionTrl,resources/DR.BMP,resources/DY.BMP,Door1,-0.312132602,-0.027048464,1,0,0,4.1562,optionLeft,30,12415,6,8,0,8,0,1,,,,,,,,,,,,,,,,,,,,,,,,,,,,,,,,,,,,,,,
,,,,,,,,2023-08-06_08h07.30.720,HF_wild_card,2022.2.4,Linux x86_64,15.01140867,5d7824b816dea6000130d65f,64ce5acb97489d65b14ecc7a,64cf4693ff1573428ea185e1,,,,,,,decisionTrl,resources/DR.BMP,resources/DB.BMP,WildCard_NonEx,0.415262293,-0.007209495,1,0,0,3.8903,optionRight,55,12470,6,9,0,9,0,1,,,,,,,,,,,,,,,,,,,,,,,,,,,,,,,,,,,,,,,
,,,,,,,,2023-08-06_08h07.30.720,HF_wild_card,2022.2.4,Linux x86_64,15.01140867,5d7824b816dea6000130d65f,64ce5acb97489d65b14ecc7a,64cf4693ff1573428ea185e1,,,,,,,sngl,resources/Empty.png,resources/DBN.BMP,Door3,0.44440545,0.033841903,1,0,0,0.9968,optionRight,70,12540,6,10,0,10,0,1,,,,,,,,,,,,,,,,,,,,,,,,,,,,,,,,,,,,,,,
,,,,,,,,2023-08-06_08h07.30.720,HF_wild_card,2022.2.4,Linux x86_64,15.01140867,5d7824b816dea6000130d65f,64ce5acb97489d65b14ecc7a,64cf4693ff1573428ea185e1,,,,,,,decisionTrl,resources/DB.BMP,resources/DR.BMP,WildCard_NonEx,-0.310162467,-0.024722234,1,0,0,3.2127,optionLeft,45,12585,6,11,0,11,0,1,,,,,,,,,,,,,,,,,,,,,,,,,,,,,,,,,,,,,,,
,,,,,,,,2023-08-06_08h07.30.720,HF_wild_card,2022.2.4,Linux x86_64,15.01140867,5d7824b816dea6000130d65f,64ce5acb97489d65b14ecc7a,64cf4693ff1573428ea185e1,,,,,,,decisionTrl,resources/DB.BMP,resources/DG.BMP,Door4,0.415797368,0.008817546,1,0,0,2.4828,optionRight,60,12645,6,12,0,12,0,1,,,,,,,,,,,,,,,,,,,,,,,,,,,,,,,,,,,,,,,
,,,,,,,,2023-08-06_08h07.30.720,HF_wild_card,2022.2.4,Linux x86_64,15.01140867,5d7824b816dea6000130d65f,64ce5acb97489d65b14ecc7a,64cf4693ff1573428ea185e1,,,,,,,decisionTrl,resources/DY.BMP,resources/DR.BMP,Door1,0.339217575,0.061081667,1,0,0,3.2696,optionRight,30,12675,6,13,0,13,0,1,,,,,,,,,,,,,,,,,,,,,,,,,,,,,,,,,,,,,,,
,,,,,,,,2023-08-06_08h07.30.720,HF_wild_card,2022.2.4,Linux x86_64,15.01140867,5d7824b816dea6000130d65f,64ce5acb97489d65b14ecc7a,64cf4693ff1573428ea185e1,,,,,,,decisionTrl,resources/DB.BMP,resources/DY.BMP,WildCard_NonEx,-0.338991518,-0.008840773,1,0,0,2.7427,optionLeft,55,12730,6,14,0,14,0,1,,,,,,,,,,,,,,,,,,,,,,,,,,,,,,,,,,,,,,,
,,,,,,,,2023-08-06_08h07.30.720,HF_wild_card,2022.2.4,Linux x86_64,15.01140867,5d7824b816dea6000130d65f,64ce5acb97489d65b14ecc7a,64cf4693ff1573428ea185e1,,,,,,,sngl,resources/DB.BMP,resources/Empty.png,WildCard_NonEx,-0.340944135,-0.024349863,1,0,0,1.2064,optionLeft,55,12785,6,15,0,15,0,1,,,,,,,,,,,,,,,,,,,,,,,,,,,,,,,,,,,,,,,
,,,,,,,,2023-08-06_08h07.30.720,HF_wild_card,2022.2.4,Linux x86_64,15.01140867,5d7824b816dea6000130d65f,64ce5acb97489d65b14ecc7a,64cf4693ff1573428ea185e1,,,,,,,decisionTrl,resources/DR.BMP,resources/DY.BMP,Door1,-0.342471822,-0.017972141,1,0,0,3.1548,optionLeft,30,12815,6,16,0,16,0,1,,,,,,,,,,,,,,,,,,,,,,,,,,,,,,,,,,,,,,,
,,,,,,,,2023-08-06_08h07.30.720,HF_wild_card,2022.2.4,Linux x86_64,15.01140867,5d7824b816dea6000130d65f,64ce5acb97489d65b14ecc7a,64cf4693ff1573428ea185e1,,,,,,,decisionTrl,resources/DBN.BMP,resources/DG.BMP,Door4,0.393361296,-0.00307329,1,0,0,5.1548,optionRight,80,12895,6,17,0,17,0,1,,,,,,,,,,,,,,,,,,,,,,,,,,,,,,,,,,,,,,,
,,,,,,,,2023-08-06_08h07.30.720,HF_wild_card,2022.2.4,Linux x86_64,15.01140867,5d7824b816dea6000130d65f,64ce5acb97489d65b14ecc7a,64cf4693ff1573428ea185e1,,,,,,,decisionTrl,resources/DB.BMP,resources/DBN.BMP,Door3,0.287602969,0.018566047,1,0,0,2.5184,optionRight,70,12965,6,18,0,18,0,1,,,,,,,,,,,,,,,,,,,,,,,,,,,,,,,,,,,,,,,
,,,,,,,,2023-08-06_08h07.30.720,HF_wild_card,2022.2.4,Linux x86_64,15.01140867,5d7824b816dea6000130d65f,64ce5acb97489d65b14ecc7a,64cf4693ff1573428ea185e1,,,,,,,decisionTrl,resources/DBN.BMP,resources/DB.BMP,Door3,-0.391363356,-0.034763477,1,0,0,1.4879,optionLeft,70,13035,6,19,0,19,0,1,,,,,,,,,,,,,,,,,,,,,,,,,,,,,,,,,,,,,,,
,,,,,,,,2023-08-06_08h07.30.720,HF_wild_card,2022.2.4,Linux x86_64,15.01140867,5d7824b816dea6000130d65f,64ce5acb97489d65b14ecc7a,64cf4693ff1573428ea185e1,,,,,,,sngl,resources/DG.BMP,resources/Empty.png,Door4,-0.298120061,-0.012852026,1,0,0,2.3967,optionLeft,60,13095,6,20,0,20,0,1,,,,,,,,,,,,,,,,,,,,,,,,,,,,,,,,,,,,,,,
,,,,,,,,2023-08-06_08h07.30.720,HF_wild_card,2022.2.4,Linux x86_64,15.01140867,5d7824b816dea6000130d65f,64ce5acb97489d65b14ecc7a,64cf4693ff1573428ea185e1,,,,,,,ctch,resources/DR.BMP,resources/DG.BMP,Door4,0.465926333,-0.01267412,1,0,0,3.297,optionRight,80,13175,6,21,0,21,0,1,,,,,,,,,,,,,,,,,,,,,,,,,,,,,,,,,,,,,,,
,,,,,,,,2023-08-06_08h07.30.720,HF_wild_card,2022.2.4,Linux x86_64,15.01140867,5d7824b816dea6000130d65f,64ce5acb97489d65b14ecc7a,64cf4693ff1573428ea185e1,,,,,,,sngl,resources/Empty.png,resources/DB.BMP,WildCard_NonEx,0.378871776,-0.023845531,1,0,0,1.2382,optionRight,55,13230,6,22,0,22,0,1,,,,,,,,,,,,,,,,,,,,,,,,,,,,,,,,,,,,,,,
,,,,,,,,2023-08-06_08h07.30.720,HF_wild_card,2022.2.4,Linux x86_64,15.01140867,5d7824b816dea6000130d65f,64ce5acb97489d65b14ecc7a,64cf4693ff1573428ea185e1,,,,,,,decisionTrl,resources/DBN.BMP,resources/DG.BMP,Door3,-0.24579643,-0.004977813,1,0,0,6.991,optionLeft,70,13300,6,23,0,23,0,1,,,,,,,,,,,,,,,,,,,,,,,,,,,,,,,,,,,,,,,
,,,,,,,,2023-08-06_08h07.30.720,HF_wild_card,2022.2.4,Linux x86_64,15.01140867,5d7824b816dea6000130d65f,64ce5acb97489d65b14ecc7a,64cf4693ff1573428ea185e1,,,,,,,ctch,resources/DG.BMP,resources/DR.BMP,Door4,-0.288405355,-0.013368225,1,0,0,1.5876,optionLeft,80,13380,6,24,0,24,0,1,,,,,,,,,,,,,,,,,,,,,,,,,,,,,,,,,,,,,,,
,,,,,,,,2023-08-06_08h07.30.720,HF_wild_card,2022.2.4,Linux x86_64,15.01140867,5d7824b816dea6000130d65f,64ce5acb97489d65b14ecc7a,64cf4693ff1573428ea185e1,,,,,,,sngl,resources/Empty.png,resources/DY.BMP,Door2,0.423403705,0.043378731,1,0,0,1.1312,optionRight,40,13420,6,25,0,25,0,1,,,,,,,,,,,,,,,,,,,,,,,,,,,,,,,,,,,,,,,
,,,,,,,,2023-08-06_08h07.30.720,HF_wild_card,2022.2.4,Linux x86_64,15.01140867,5d7824b816dea6000130d65f,64ce5acb97489d65b14ecc7a,64cf4693ff1573428ea185e1,,,,,,,ctch,resources/DBN.BMP,resources/DY.BMP,Door3,-0.390127168,0.028524696,1,0,0,4.2939,optionLeft,70,13490,6,26,0,26,0,1,,,,,,,,,,,,,,,,,,,,,,,,,,,,,,,,,,,,,,,
,,,,,,,,2023-08-06_08h07.30.720,HF_wild_card,2022.2.4,Linux x86_64,15.01140867,5d7824b816dea6000130d65f,64ce5acb97489d65b14ecc7a,64cf4693ff1573428ea185e1,,,,,,,decisionTrl,resources/DY.BMP,resources/DB.BMP,WildCard_NonEx,0.418766502,0.065594793,1,0,0,7.0914,optionRight,45,13535,6,27,0,27,0,1,,,,,,,,,,,,,,,,,,,,,,,,,,,,,,,,,,,,,,,
,,,,,,,,2023-08-06_08h07.30.720,HF_wild_card,2022.2.4,Linux x86_64,15.01140867,5d7824b816dea6000130d65f,64ce5acb97489d65b14ecc7a,64cf4693ff1573428ea185e1,,,,,,,decisionTrl,resources/DG.BMP,resources/DBN.BMP,Door3,0.534897981,0.100173159,1,0,0,5.4877,optionRight,70,13605,6,28,0,28,0,1,,,,,,,,,,,,,,,,,,,,,,,,,,,,,,,,,,,,,,,
,,,,,,,,2023-08-06_08h07.30.720,HF_wild_card,2022.2.4,Linux x86_64,15.01140867,5d7824b816dea6000130d65f,64ce5acb97489d65b14ecc7a,64cf4693ff1573428ea185e1,,,,,,,sngl,resources/Empty.png,resources/DB.BMP,WildCard_NonEx,0.353996559,0.012185217,1,0,0,3.2065,optionRight,45,13650,6,29,0,29,0,1,,,,,,,,,,,,,,,,,,,,,,,,,,,,,,,,,,,,,,,
,,,,,,,,2023-08-06_08h07.30.720,HF_wild_card,2022.2.4,Linux x86_64,15.01140867,5d7824b816dea6000130d65f,64ce5acb97489d65b14ecc7a,64cf4693ff1573428ea185e1,,,,,,,sngl,resources/DBN.BMP,resources/Empty.png,Door3,-0.292441757,0.019431842,1,0,0,7.5547,optionLeft,70,13720,6,30,0,30,0,1,,,,,,,,,,,,,,,,,,,,,,,,,,,,,,,,,,,,,,,
,,,,,,,,2023-08-06_08h07.30.720,HF_wild_card,2022.2.4,Linux x86_64,15.01140867,5d7824b816dea6000130d65f,64ce5acb97489d65b14ecc7a,64cf4693ff1573428ea185e1,,,,,,,decisionTrl,resources/DBN.BMP,resources/DG.BMP,Door4,0.339051988,0.05511582,1,0,0,5.0038,optionRight,60,13780,6,31,0,31,0,1,,,,,,,,,,,,,,,,,,,,,,,,,,,,,,,,,,,,,,,
,,,,,,,,2023-08-06_08h07.30.720,HF_wild_card,2022.2.4,Linux x86_64,15.01140867,5d7824b816dea6000130d65f,64ce5acb97489d65b14ecc7a,64cf4693ff1573428ea185e1,,,,,,,decisionTrl,resources/DG.BMP,resources/DBN.BMP,Door3,0.288473285,0.041511507,1,0,0,4.7768,optionRight,70,13850,6,32,0,32,0,1,,,,,,,,,,,,,,,,,,,,,,,,,,,,,,,,,,,,,,,
,,,,,,,,2023-08-06_08h07.30.720,HF_wild_card,2022.2.4,Linux x86_64,15.01140867,5d7824b816dea6000130d65f,64ce5acb97489d65b14ecc7a,64cf4693ff1573428ea185e1,,,,,,,decisionTrl,resources/DBN.BMP,resources/DG.BMP,Door3,-0.446698394,-0.011405097,1,0,0,1.1437,optionLeft,70,13920,6,33,0,33,0,1,,,,,,,,,,,,,,,,,,,,,,,,,,,,,,,,,,,,,,,
,,,,,,,,2023-08-06_08h07.30.720,HF_wild_card,2022.2.4,Linux x86_64,15.01140867,5d7824b816dea6000130d65f,64ce5acb97489d65b14ecc7a,64cf4693ff1573428ea185e1,,,,,,,decisionTrl,resources/DR.BMP,resources/DY.BMP,Door2,0.322619742,0.002952067,1,0,0,4.156,optionRight,20,13940,6,34,0,34,0,1,,,,,,,,,,,,,,,,,,,,,,,,,,,,,,,,,,,,,,,
,,,,,,,,2023-08-06_08h07.30.720,HF_wild_card,2022.2.4,Linux x86_64,15.01140867,5d7824b816dea6000130d65f,64ce5acb97489d65b14ecc7a,64cf4693ff1573428ea185e1,,,,,,,sngl,resources/Empty.png,resources/DG.BMP,Door4,0.421174565,-0.003574061,1,0,0,1.0912,optionRight,80,14020,6,35,0,35,0,1,,,,,,,,,,,,,,,,,,,,,,,,,,,,,,,,,,,,,,,
,,,,,,,,2023-08-06_08h07.30.720,HF_wild_card,2022.2.4,Linux x86_64,15.01140867,5d7824b816dea6000130d65f,64ce5acb97489d65b14ecc7a,64cf4693ff1573428ea185e1,,,,,,,decisionTrl,resources/DG.BMP,resources/DBN.BMP,Door4,-0.29106677,-0.018904283,1,0,0,1.7812,optionLeft,60,14080,6,36,0,36,0,1,,,,,,,,,,,,,,,,,,,,,,,,,,,,,,,,,,,,,,,
,,,,,,,,2023-08-06_08h07.30.720,HF_wild_card,2022.2.4,Linux x86_64,15.01140867,5d7824b816dea6000130d65f,64ce5acb97489d65b14ecc7a,64cf4693ff1573428ea185e1,,,,,,,sngl,resources/DY.BMP,resources/Empty.png,Door2,-0.358220588,-0.024872109,1,0,0,1.1724,optionLeft,20,14100,6,37,0,37,0,1,,,,,,,,,,,,,,,,,,,,,,,,,,,,,,,,,,,,,,,
,,,,,,,,2023-08-06_08h07.30.720,HF_wild_card,2022.2.4,Linux x86_64,15.01140867,5d7824b816dea6000130d65f,64ce5acb97489d65b14ecc7a,64cf4693ff1573428ea185e1,,,,,,,ctch,resources/DY.BMP,resources/DBN.BMP,Door3,0.380462307,0.068754097,1,0,0,4.6086,optionRight,70,14170,6,38,0,38,0,1,,,,,,,,,,,,,,,,,,,,,,,,,,,,,,,,,,,,,,,
,,,,,,,,2023-08-06_08h07.30.720,HF_wild_card,2022.2.4,Linux x86_64,15.01140867,5d7824b816dea6000130d65f,64ce5acb97489d65b14ecc7a,64cf4693ff1573428ea185e1,,,,,,,sngl,resources/DR.BMP,resources/Empty.png,Door1,-0.329843366,-0.011384696,1,0,0,1.2582,optionLeft,30,14200,6,39,0,39,0,1,,,,,,,,,,,,,,,,,,,,,,,,,,,,,,,,,,,,,,,
,,,,,,,,2023-08-06_08h07.30.720,HF_wild_card,2022.2.4,Linux x86_64,15.01140867,5d7824b816dea6000130d65f,64ce5acb97489d65b14ecc7a,64cf4693ff1573428ea185e1,,,,,,,ctch,resources/DR.BMP,resources/DG.BMP,Door4,0.419816307,0.037428566,1,0,0,2.269,optionRight,80,14280,6,40,0,40,0,1,,,,,,,,,,,,,,,,,,,,,,,,,,,,,,,,,,,,,,,
,,,,,,,,2023-08-06_08h07.30.720,HF_wild_card,2022.2.4,Linux x86_64,15.01140867,5d7824b816dea6000130d65f,64ce5acb97489d65b14ecc7a,64cf4693ff1573428ea185e1,,,,,,,decisionTrl,resources/DG.BMP,resources/DB.BMP,Door4,-0.338098597,-0.025829683,1,0,0,1.8557,optionLeft,60,14340,6,41,0,41,0,1,,,,,,,,,,,,,,,,,,,,,,,,,,,,,,,,,,,,,,,
,,,,,,,,2023-08-06_08h07.30.720,HF_wild_card,2022.2.4,Linux x86_64,15.01140867,5d7824b816dea6000130d65f,64ce5acb97489d65b14ecc7a,64cf4693ff1573428ea185e1,,,,,,,sngl,resources/DB.BMP,resources/Empty.png,WildCard_NonEx,-0.320171724,0.005657224,1,0,0,2.7959,optionLeft,45,14385,6,42,0,42,0,1,,,,,,,,,,,,,,,,,,,,,,,,,,,,,,,,,,,,,,,
,,,,,,,,2023-08-06_08h07.30.720,HF_wild_card,2022.2.4,Linux x86_64,15.01140867,5d7824b816dea6000130d65f,64ce5acb97489d65b14ecc7a,64cf4693ff1573428ea185e1,,,,,,,ctch,resources/DY.BMP,resources/DBN.BMP,Door3,0.488880299,0.036384583,1,0,0,5.6123,optionRight,70,14455,6,43,0,43,0,1,,,,,,,,,,,,,,,,,,,,,,,,,,,,,,,,,,,,,,,
,,,,,,,,2023-08-06_08h07.30.720,HF_wild_card,2022.2.4,Linux x86_64,15.01140867,5d7824b816dea6000130d65f,64ce5acb97489d65b14ecc7a,64cf4693ff1573428ea185e1,,,,,,,,,,,,,,,,,,,,,,,,,,5,0,5,0,1,,,,,,,,,,,,,,,,,,,,,,,,,,,,,,,,,,
,,,,,,,,2023-08-06_08h07.30.720,HF_wild_card,2022.2.4,Linux x86_64,15.01140867,5d7824b816dea6000130d65f,64ce5acb97489d65b14ecc7a,64cf4693ff1573428ea185e1,,,,,,,ctch,resources/DR.BMP,resources/DG.BMP,Door4,0.462677115,0.029470514,1,0,0,5.6852,optionRight,80,14535,7,0,0,0,0,1,,,,,,,,,,,,,,,,,,,,,,,,,,,,,,,,,,,,,,,
,,,,,,,,2023-08-06_08h07.30.720,HF_wild_card,2022.2.4,Linux x86_64,15.01140867,5d7824b816dea6000130d65f,64ce5acb97489d65b14ecc7a,64cf4693ff1573428ea185e1,,,,,,,decisionTrl,resources/DBN.BMP,resources/DG.BMP,Door3,-0.296965875,-0.013516292,1,0,0,6.76,optionLeft,70,14605,7,1,0,1,0,1,,,,,,,,,,,,,,,,,,,,,,,,,,,,,,,,,,,,,,,
,,,,,,,,2023-08-06_08h07.30.720,HF_wild_card,2022.2.4,Linux x86_64,15.01140867,5d7824b816dea6000130d65f,64ce5acb97489d65b14ecc7a,64cf4693ff1573428ea185e1,,,,,,,decisionTrl,resources/DY.BMP,resources/DR.BMP,Door1,0.406452998,0.011431828,1,0,0,5.363,optionRight,30,14635,7,2,0,2,0,1,,,,,,,,,,,,,,,,,,,,,,,,,,,,,,,,,,,,,,,
,,,,,,,,2023-08-06_08h07.30.720,HF_wild_card,2022.2.4,Linux x86_64,15.01140867,5d7824b816dea6000130d65f,64ce5acb97489d65b14ecc7a,64cf4693ff1573428ea185e1,,,,,,,ctch,resources/DY.BMP,resources/DBN.BMP,Door3,0.391523686,0.051815768,1,0,0,1.8593,optionRight,70,14705,7,3,0,3,0,1,,,,,,,,,,,,,,,,,,,,,,,,,,,,,,,,,,,,,,,
,,,,,,,,2023-08-06_08h07.30.720,HF_wild_card,2022.2.4,Linux x86_64,15.01140867,5d7824b816dea6000130d65f,64ce5acb97489d65b14ecc7a,64cf4693ff1573428ea185e1,,,,,,,ctch,resources/DBN.BMP,resources/DY.BMP,Door3,-0.271415371,-0.039274767,1,0,0,1.5548,optionLeft,70,14775,7,4,0,4,0,1,,,,,,,,,,,,,,,,,,,,,,,,,,,,,,,,,,,,,,,
,,,,,,,,2023-08-06_08h07.30.720,HF_wild_card,2022.2.4,Linux x86_64,15.01140867,5d7824b816dea6000130d65f,64ce5acb97489d65b14ecc7a,64cf4693ff1573428ea185e1,,,,,,,decisionTrl,resources/DY.BMP,resources/DR.BMP,Door1,0.359990438,0.048539395,1,0,0,4.7255,optionRight,30,14805,7,5,0,5,0,1,,,,,,,,,,,,,,,,,,,,,,,,,,,,,,,,,,,,,,,
,,,,,,,,2023-08-06_08h07.30.720,HF_wild_card,2022.2.4,Linux x86_64,15.01140867,5d7824b816dea6000130d65f,64ce5acb97489d65b14ecc7a,64cf4693ff1573428ea185e1,,,,,,,decisionTrl,resources/DY.BMP,resources/DR.BMP,Door1,0.337396805,-0.004804315,1,0,0,1.4147,optionRight,30,14835,7,6,0,6,0,1,,,,,,,,,,,,,,,,,,,,,,,,,,,,,,,,,,,,,,,
,,,,,,,,2023-08-06_08h07.30.720,HF_wild_card,2022.2.4,Linux x86_64,15.01140867,5d7824b816dea6000130d65f,64ce5acb97489d65b14ecc7a,64cf4693ff1573428ea185e1,,,,,,,ctch,resources/DY.BMP,resources/DBN.BMP,Door3,0.3865448,-0.015105636,1,0,0,1.7854,optionRight,70,14905,7,7,0,7,0,1,,,,,,,,,,,,,,,,,,,,,,,,,,,,,,,,,,,,,,,
,,,,,,,,2023-08-06_08h07.30.720,HF_wild_card,2022.2.4,Linux x86_64,15.01140867,5d7824b816dea6000130d65f,64ce5acb97489d65b14ecc7a,64cf4693ff1573428ea185e1,,,,,,,decisionTrl,resources/DBN.BMP,resources/DG.BMP,Door3,-0.437099881,0.054074747,1,0,0,5.2041,optionLeft,70,14975,7,8,0,8,0,1,,,,,,,,,,,,,,,,,,,,,,,,,,,,,,,,,,,,,,,
,,,,,,,,2023-08-06_08h07.30.720,HF_wild_card,2022.2.4,Linux x86_64,15.01140867,5d7824b816dea6000130d65f,64ce5acb97489d65b14ecc7a,64cf4693ff1573428ea185e1,,,,,,,ctch,resources/DG.BMP,resources/DR.BMP,Door4,-0.316189067,-0.013984906,1,0,0,3.1047,optionLeft,60,15035,7,9,0,9,0,1,,,,,,,,,,,,,,,,,,,,,,,,,,,,,,,,,,,,,,,
,,,,,,,,2023-08-06_08h07.30.720,HF_wild_card,2022.2.4,Linux x86_64,15.01140867,5d7824b816dea6000130d65f,64ce5acb97489d65b14ecc7a,64cf4693ff1573428ea185e1,,,,,,,ctch,resources/DBN.BMP,resources/DY.BMP,Door3,-0.360375072,-0.053393498,1,0,0,4.5014,optionLeft,70,15105,7,10,0,10,0,1,,,,,,,,,,,,,,,,,,,,,,,,,,,,,,,,,,,,,,,
,,,,,,,,2023-08-06_08h07.30.720,HF_wild_card,2022.2.4,Linux x86_64,15.01140867,5d7824b816dea6000130d65f,64ce5acb97489d65b14ecc7a,64cf4693ff1573428ea185e1,,,,,,,ctch,resources/DBN.BMP,resources/DY.BMP,Door3,-0.257576215,-0.001861855,1,0,0,3.9276,optionLeft,70,15175,7,11,0,11,0,1,,,,,,,,,,,,,,,,,,,,,,,,,,,,,,,,,,,,,,,
,,,,,,,,2023-08-06_08h07.30.720,HF_wild_card,2022.2.4,Linux x86_64,15.01140867,5d7824b816dea6000130d65f,64ce5acb97489d65b14ecc7a,64cf4693ff1573428ea185e1,,,,,,,decisionTrl,resources/DG.BMP,resources/DBN.BMP,Door4,-0.24871148,-0.013489335,1,0,0,4.2327,optionLeft,60,15235,7,12,0,12,0,1,,,,,,,,,,,,,,,,,,,,,,,,,,,,,,,,,,,,,,,
,,,,,,,,2023-08-06_08h07.30.720,HF_wild_card,2022.2.4,Linux x86_64,15.01140867,5d7824b816dea6000130d65f,64ce5acb97489d65b14ecc7a,64cf4693ff1573428ea185e1,,,,,,,decisionTrl,resources/DG.BMP,resources/DBN.BMP,Door4,-0.26890547,0.019489712,1,0,0,5.3766,optionLeft,60,15295,7,13,0,13,0,1,,,,,,,,,,,,,,,,,,,,,,,,,,,,,,,,,,,,,,,
,,,,,,,,2023-08-06_08h07.30.720,HF_wild_card,2022.2.4,Linux x86_64,15.01140867,5d7824b816dea6000130d65f,64ce5acb97489d65b14ecc7a,64cf4693ff1573428ea185e1,,,,,,,ctch,resources/DR.BMP,resources/DG.BMP,Door4,0.395780775,0.031507619,1,0,0,3.2139,optionRight,80,15375,7,14,0,14,0,1,,,,,,,,,,,,,,,,,,,,,,,,,,,,,,,,,,,,,,,
,,,,,,,,2023-08-06_08h07.30.720,HF_wild_card,2022.2.4,Linux x86_64,15.01140867,5d7824b816dea6000130d65f,64ce5acb97489d65b14ecc7a,64cf4693ff1573428ea185e1,,,,,,,decisionTrl,resources/DR.BMP,resources/DY.BMP,Door1,-0.285704154,-0.036843081,1,0,0,5.2045,optionLeft,30,15405,7,15,0,15,0,1,,,,,,,,,,,,,,,,,,,,,,,,,,,,,,,,,,,,,,,
,,,,,,,,2023-08-06_08h07.30.720,HF_wild_card,2022.2.4,Linux x86_64,15.01140867,5d7824b816dea6000130d65f,64ce5acb97489d65b14ecc7a,64cf4693ff1573428ea185e1,,,,,,,decisionTrl,resources/DR.BMP,resources/DY.BMP,Door1,-0.206254126,-0.038744891,1,0,0,4.5378,optionLeft,30,15435,7,16,0,16,0,1,,,,,,,,,,,,,,,,,,,,,,,,,,,,,,,,,,,,,,,
,,,,,,,,2023-08-06_08h07.30.720,HF_wild_card,2022.2.4,Linux x86_64,15.01140867,5d7824b816dea6000130d65f,64ce5acb97489d65b14ecc7a,64cf4693ff1573428ea185e1,,,,,,,decisionTrl,resources/DY.BMP,resources/DR.BMP,Door1,0.4670565,-0.001731081,1,0,0,2.1662,optionRight,30,15465,7,17,0,17,0,1,,,,,,,,,,,,,,,,,,,,,,,,,,,,,,,,,,,,,,,
,,,,,,,,2023-08-06_08h07.30.720,HF_wild_card,2022.2.4,Linux x86_64,15.01140867,5d7824b816dea6000130d65f,64ce5acb97489d65b14ecc7a,64cf4693ff1573428ea185e1,,,,,,,decisionTrl,resources/DG.BMP,resources/DBN.BMP,Door3,0.38319883,0.030426167,1,0,0,6.5696,optionRight,70,15535,7,18,0,18,0,1,,,,,,,,,,,,,,,,,,,,,,,,,,,,,,,,,,,,,,,
,,,,,,,,2023-08-06_08h07.30.720,HF_wild_card,2022.2.4,Linux x86_64,15.01140867,5d7824b816dea6000130d65f,64ce5acb97489d65b14ecc7a,64cf4693ff1573428ea185e1,,,,,,,decisionTrl,resources/DY.BMP,resources/DR.BMP,Door1,0.348963194,-0.009937823,1,0,0,2.6771,optionRight,30,15565,7,19,0,19,0,1,,,,,,,,,,,,,,,,,,,,,,,,,,,,,,,,,,,,,,,
,,,,,,,,2023-08-06_08h07.30.720,HF_wild_card,2022.2.4,Linux x86_64,15.01140867,5d7824b816dea6000130d65f,64ce5acb97489d65b14ecc7a,64cf4693ff1573428ea185e1,,,,,,,decisionTrl,resources/DR.BMP,resources/DY.BMP,Door1,-0.327812421,-0.056734608,1,0,0,1.2962,optionLeft,30,15595,7,20,0,20,0,1,,,,,,,,,,,,,,,,,,,,,,,,,,,,,,,,,,,,,,,
,,,,,,,,2023-08-06_08h07.30.720,HF_wild_card,2022.2.4,Linux x86_64,15.01140867,5d7824b816dea6000130d65f,64ce5acb97489d65b14ecc7a,64cf4693ff1573428ea185e1,,,,,,,decisionTrl,resources/DY.BMP,resources/DR.BMP,Door1,0.434040324,-0.028441026,1,0,0,2.1577,optionRight,30,15625,7,21,0,21,0,1,,,,,,,,,,,,,,,,,,,,,,,,,,,,,,,,,,,,,,,
,,,,,,,,2023-08-06_08h07.30.720,HF_wild_card,2022.2.4,Linux x86_64,15.01140867,5d7824b816dea6000130d65f,64ce5acb97489d65b14ecc7a,64cf4693ff1573428ea185e1,,,,,,,ctch,resources/DG.BMP,resources/DR.BMP,Door4,-0.302764836,-0.019232686,1,0,0,3.5717,optionLeft,80,15705,7,22,0,22,0,1,,,,,,,,,,,,,,,,,,,,,,,,,,,,,,,,,,,,,,,
,,,,,,,,2023-08-06_08h07.30.720,HF_wild_card,2022.2.4,Linux x86_64,15.01140867,5d7824b816dea6000130d65f,64ce5acb97489d65b14ecc7a,64cf4693ff1573428ea185e1,,,,,,,decisionTrl,resources/DBN.BMP,resources/DG.BMP,Door3,-0.409540699,-0.039119862,1,0,0,5.3321,optionLeft,70,15775,7,23,0,23,0,1,,,,,,,,,,,,,,,,,,,,,,,,,,,,,,,,,,,,,,,
,,,,,,,,2023-08-06_08h07.30.720,HF_wild_card,2022.2.4,Linux x86_64,15.01140867,5d7824b816dea6000130d65f,64ce5acb97489d65b14ecc7a,64cf4693ff1573428ea185e1,,,,,,,decisionTrl,resources/DG.BMP,resources/DBN.BMP,Door3,0.379306482,-0.003778246,1,0,0,1.3012,optionRight,70,15845,7,24,0,24,0,1,,,,,,,,,,,,,,,,,,,,,,,,,,,,,,,,,,,,,,,
,,,,,,,,2023-08-06_08h07.30.720,HF_wild_card,2022.2.4,Linux x86_64,15.01140867,5d7824b816dea6000130d65f,64ce5acb97489d65b14ecc7a,64cf4693ff1573428ea185e1,,,,,,,decisionTrl,resources/DR.BMP,resources/DY.BMP,Door1,-0.314630975,-0.010164784,1,0,0,4.501,optionLeft,30,15875,7,25,0,25,0,1,,,,,,,,,,,,,,,,,,,,,,,,,,,,,,,,,,,,,,,
,,,,,,,,2023-08-06_08h07.30.720,HF_wild_card,2022.2.4,Linux x86_64,15.01140867,5d7824b816dea6000130d65f,64ce5acb97489d65b14ecc7a,64cf4693ff1573428ea185e1,,,,,,,decisionTrl,resources/DR.BMP,resources/DY.BMP,Door1,-0.299321719,-0.019007874,1,0,0,1.3547,optionLeft,30,15905,7,26,0,26,0,1,,,,,,,,,,,,,,,,,,,,,,,,,,,,,,,,,,,,,,,
,,,,,,,,2023-08-06_08h07.30.720,HF_wild_card,2022.2.4,Linux x86_64,15.01140867,5d7824b816dea6000130d65f,64ce5acb97489d65b14ecc7a,64cf4693ff1573428ea185e1,,,,,,,decisionTrl,resources/DR.BMP,resources/DY.BMP,Door1,-0.383040365,-0.004471842,1,0,0,1.1238,optionLeft,30,15935,7,27,0,27,0,1,,,,,,,,,,,,,,,,,,,,,,,,,,,,,,,,,,,,,,,
,,,,,,,,2023-08-06_08h07.30.720,HF_wild_card,2022.2.4,Linux x86_64,15.01140867,5d7824b816dea6000130d65f,64ce5acb97489d65b14ecc7a,64cf4693ff1573428ea185e1,,,,,,,decisionTrl,resources/DBN.BMP,resources/DG.BMP,Door3,-0.39947165,-0.028588189,1,0,0,5.4283,optionLeft,70,16005,7,28,0,28,0,1,,,,,,,,,,,,,,,,,,,,,,,,,,,,,,,,,,,,,,,
,,,,,,,,2023-08-06_08h07.30.720,HF_wild_card,2022.2.4,Linux x86_64,15.01140867,5d7824b816dea6000130d65f,64ce5acb97489d65b14ecc7a,64cf4693ff1573428ea185e1,,,,,,,ctch,resources/DY.BMP,resources/DBN.BMP,Door3,0.330333342,-0.022933564,1,0,0,1.6783,optionRight,70,16075,7,29,0,29,0,1,,,,,,,,,,,,,,,,,,,,,,,,,,,,,,,,,,,,,,,
,,,,,,,,2023-08-06_08h07.30.720,HF_wild_card,2022.2.4,Linux x86_64,15.01140867,5d7824b816dea6000130d65f,64ce5acb97489d65b14ecc7a,64cf4693ff1573428ea185e1,,,,,,,decisionTrl,resources/DG.BMP,resources/DBN.BMP,Door3,0.320220834,-0.014940163,1,0,0,5.3272,optionRight,70,16145,7,30,0,30,0,1,,,,,,,,,,,,,,,,,,,,,,,,,,,,,,,,,,,,,,,
,,,,,,,,2023-08-06_08h07.30.720,HF_wild_card,2022.2.4,Linux x86_64,15.01140867,5d7824b816dea6000130d65f,64ce5acb97489d65b14ecc7a,64cf4693ff1573428ea185e1,,,,,,,ctch,resources/DG.BMP,resources/DR.BMP,Door4,-0.384789474,-0.019539049,1,0,0,3.9952,optionLeft,80,16225,7,31,0,31,0,1,,,,,,,,,,,,,,,,,,,,,,,,,,,,,,,,,,,,,,,
,,,,,,,,2023-08-06_08h07.30.720,HF_wild_card,2022.2.4,Linux x86_64,15.01140867,5d7824b816dea6000130d65f,64ce5acb97489d65b14ecc7a,64cf4693ff1573428ea185e1,,,,,,,ctch,resources/DR.BMP,resources/DG.BMP,Door4,0.461665966,0.007721625,1,0,0,2.8554,optionRight,60,16285,7,32,0,32,0,1,,,,,,,,,,,,,,,,,,,,,,,,,,,,,,,,,,,,,,,
,,,,,,,,2023-08-06_08h07.30.720,HF_wild_card,2022.2.4,Linux x86_64,15.01140867,5d7824b816dea6000130d65f,64ce5acb97489d65b14ecc7a,64cf4693ff1573428ea185e1,,,,,,,decisionTrl,resources/DBN.BMP,resources/DG.BMP,Door3,-0.301307,-0.027238408,1,0,0,5.089,optionLeft,70,16355,7,33,0,33,0,1,,,,,,,,,,,,,,,,,,,,,,,,,,,,,,,,,,,,,,,
,,,,,,,,2023-08-06_08h07.30.720,HF_wild_card,2022.2.4,Linux x86_64,15.01140867,5d7824b816dea6000130d65f,64ce5acb97489d65b14ecc7a,64cf4693ff1573428ea185e1,,,,,,,decisionTrl,resources/DBN.BMP,resources/DG.BMP,Door3,-0.26170773,0.001551141,1,0,0,1.6066,optionLeft,70,16425,7,34,0,34,0,1,,,,,,,,,,,,,,,,,,,,,,,,,,,,,,,,,,,,,,,
,,,,,,,,2023-08-06_08h07.30.720,HF_wild_card,2022.2.4,Linux x86_64,15.01140867,5d7824b816dea6000130d65f,64ce5acb97489d65b14ecc7a,64cf4693ff1573428ea185e1,,,,,,,decisionTrl,resources/DG.BMP,resources/DBN.BMP,Door3,0.317424407,0.00654732,1,0,0,1.2632,optionRight,70,16495,7,35,0,35,0,1,,,,,,,,,,,,,,,,,,,,,,,,,,,,,,,,,,,,,,,
