Condition,Low fixed image (Door1),Low risky image (Door2),High fixed image (Door3),High risky image (Door4),NonExtreme Wild Card 1,NonExtreme Wild Card 2,,date,expName,psychopyVersion,OS,frameRate,PROLIFIC_PID,STUDY_ID,SESSION_ID,mouse_2.x,mouse_2.y,mouse_2.leftButton,mouse_2.midButton,mouse_2.rightButton,mouse_2.clicked_name,Trial Type,Left Option Image,Right Option Image,Chosen Door,mouse.x,mouse.y,mouse.leftButton,mouse.midButton,mouse.rightButton,mouse.time,mouse.clicked_name,Feedback,Cumulative Reward,Block,trial.thisRepN,trial.thisTrialN,trial.thisN,trial.thisIndex,trial.ran,blocks.thisRepN,blocks.thisTrialN,blocks.thisN,blocks.thisIndex,blocks.ran,Money conversion,First Outcome Reported,Shown Door (First Outcome),Displayed Image (First Outcome),outcomes.thisRepN,outcomes.thisTrialN,outcomes.thisN,outcomes.thisIndex,outcomes.ran,judgments.thisRepN,judgments.thisTrialN,judgments.thisN,judgments.thisIndex,judgments.ran,freqMouse.x,freqMouse.y,freqMouse.leftButton,freqMouse.midButton,freqMouse.rightButton,freqMouse.clicked_name,FQJ for first outcome,FQJ for second outcome,Shown Door,Displayed Image,trials.thisRepN,trials.thisTrialN,trials.thisN,trials.thisIndex,trials.ran,judgBlock.thisRepN,judgBlock.thisTrialN,judgBlock.thisN,judgBlock.thisIndex,judgBlock.ran
2,resources/DY.BMP,resources/DP.BMP,resources/DB.BMP,resources/DBN.BMP,resources/DR.BMP,resources/DG.BMP,,2023-08-16_08h49.36.979,HF_wild_card,2022.2.4,Win32,60.09615385,599c578d8acf1e0001599633,64d2fd46c836a06233681665,64dc7f7830f891f885739ac1,,,,,,,,,,,,,,,,,,,,,,,,,,,,,,,,,,,,,,,,,,,,,,,,,,,,,,,,,,,,,,,,
,,,,,,,,2023-08-16_08h49.36.979,HF_wild_card,2022.2.4,Win32,60.09615385,599c578d8acf1e0001599633,64d2fd46c836a06233681665,64dc7f7830f891f885739ac1,0,-0.420138889,1,0,0,agree,,,,,,,,,,,,,,,,,,,,,,,,,,,,,,,,,,,,,,,,,,,,,,,,,,,,,,,,,,
,,,,,,,,2023-08-16_08h49.36.979,HF_wild_card,2022.2.4,Win32,60.09615385,599c578d8acf1e0001599633,64d2fd46c836a06233681665,64dc7f7830f891f885739ac1,,,,,,,,,,,,,,,,,,,,,,,,,,,,,,,,,,,,,,,,,,,,,,,,,,,,,,,,,,,,,,,,
,,,,,,,,2023-08-16_08h49.36.979,HF_wild_card,2022.2.4,Win32,60.09615385,599c578d8acf1e0001599633,64d2fd46c836a06233681665,64dc7f7830f891f885739ac1,,,,,,,sngl,resources/Empty.png,resources/DG.BMP,WildCard_NonEx,0.375,-0.120833333,1,0,0,2.4997,optionRight,45,45,1,0,0,0,0,1,,,,,,,,,,,,,,,,,,,,,,,,,,,,,,,,,,,,,,,
,,,,,,,,2023-08-16_08h49.36.979,HF_wild_card,2022.2.4,Win32,60.09615385,599c578d8acf1e0001599633,64d2fd46c836a06233681665,64dc7f7830f891f885739ac1,,,,,,,ctch,resources/DY.BMP,resources/DBN.BMP,Door1,-0.354166667,-0.023611111,1,0,0,2.9815,optionLeft,30,75,1,1,0,1,0,1,,,,,,,,,,,,,,,,,,,,,,,,,,,,,,,,,,,,,,,
,,,,,,,,2023-08-16_08h49.36.979,HF_wild_card,2022.2.4,Win32,60.09615385,599c578d8acf1e0001599633,64d2fd46c836a06233681665,64dc7f7830f891f885739ac1,,,,,,,sngl,resources/Empty.png,resources/DY.BMP,Door1,0.304166667,-0.05625,1,0,0,1.4993,optionRight,30,105,1,2,0,2,0,1,,,,,,,,,,,,,,,,,,,,,,,,,,,,,,,,,,,,,,,
,,,,,,,,2023-08-16_08h49.36.979,HF_wild_card,2022.2.4,Win32,60.09615385,599c578d8acf1e0001599633,64d2fd46c836a06233681665,64dc7f7830f891f885739ac1,,,,,,,decisionTrl,resources/DB.BMP,resources/DG.BMP,WildCard_NonEx,0.310416667,-0.059027778,1,0,0,1.9833,optionRight,45,150,1,3,0,3,0,1,,,,,,,,,,,,,,,,,,,,,,,,,,,,,,,,,,,,,,,
,,,,,,,,2023-08-16_08h49.36.979,HF_wild_card,2022.2.4,Win32,60.09615385,599c578d8acf1e0001599633,64d2fd46c836a06233681665,64dc7f7830f891f885739ac1,,,,,,,decisionTrl,resources/DB.BMP,resources/DBN.BMP,Door4,0.410416667,-0.047222222,1,0,0,1.9679,optionRight,80,230,1,4,0,4,0,1,,,,,,,,,,,,,,,,,,,,,,,,,,,,,,,,,,,,,,,
,,,,,,,,2023-08-16_08h49.36.979,HF_wild_card,2022.2.4,Win32,60.09615385,599c578d8acf1e0001599633,64d2fd46c836a06233681665,64dc7f7830f891f885739ac1,,,,,,,decisionTrl,resources/DBN.BMP,resources/DB.BMP,Door4,-0.418055556,0.025694444,1,0,0,1.2636,optionLeft,80,310,1,5,0,5,0,1,,,,,,,,,,,,,,,,,,,,,,,,,,,,,,,,,,,,,,,
,,,,,,,,2023-08-16_08h49.36.979,HF_wild_card,2022.2.4,Win32,60.09615385,599c578d8acf1e0001599633,64d2fd46c836a06233681665,64dc7f7830f891f885739ac1,,,,,,,decisionTrl,resources/DP.BMP,resources/DY.BMP,Door1,0.330555556,-0.042361111,1,0,0,1.2996,optionRight,30,340,1,6,0,6,0,1,,,,,,,,,,,,,,,,,,,,,,,,,,,,,,,,,,,,,,,
,,,,,,,,2023-08-16_08h49.36.979,HF_wild_card,2022.2.4,Win32,60.09615385,599c578d8acf1e0001599633,64d2fd46c836a06233681665,64dc7f7830f891f885739ac1,,,,,,,ctch,resources/DBN.BMP,resources/DY.BMP,Door4,-0.288194444,0.011805556,1,0,0,1.2359,optionLeft,60,400,1,7,0,7,0,1,,,,,,,,,,,,,,,,,,,,,,,,,,,,,,,,,,,,,,,
,,,,,,,,2023-08-16_08h49.36.979,HF_wild_card,2022.2.4,Win32,60.09615385,599c578d8acf1e0001599633,64d2fd46c836a06233681665,64dc7f7830f891f885739ac1,,,,,,,decisionTrl,resources/DBN.BMP,resources/DG.BMP,Door4,-0.363194444,0.030555556,1,0,0,1.0021,optionLeft,60,460,1,8,0,8,0,1,,,,,,,,,,,,,,,,,,,,,,,,,,,,,,,,,,,,,,,
,,,,,,,,2023-08-16_08h49.36.979,HF_wild_card,2022.2.4,Win32,60.09615385,599c578d8acf1e0001599633,64d2fd46c836a06233681665,64dc7f7830f891f885739ac1,,,,,,,ctch,resources/DB.BMP,resources/DP.BMP,Door2,0.325694444,-0.057638889,1,0,0,1.3308,optionRight,20,480,1,9,0,9,0,1,,,,,,,,,,,,,,,,,,,,,,,,,,,,,,,,,,,,,,,
,,,,,,,,2023-08-16_08h49.36.979,HF_wild_card,2022.2.4,Win32,60.09615385,599c578d8acf1e0001599633,64d2fd46c836a06233681665,64dc7f7830f891f885739ac1,,,,,,,sngl,resources/Empty.png,resources/DG.BMP,WildCard_NonEx,0.377083333,-0.034722222,1,0,0,1.1158,optionRight,55,535,1,10,0,10,0,1,,,,,,,,,,,,,,,,,,,,,,,,,,,,,,,,,,,,,,,
,,,,,,,,2023-08-16_08h49.36.979,HF_wild_card,2022.2.4,Win32,60.09615385,599c578d8acf1e0001599633,64d2fd46c836a06233681665,64dc7f7830f891f885739ac1,,,,,,,decisionTrl,resources/DBN.BMP,resources/DB.BMP,Door4,-0.336805556,0.029166667,1,0,0,2.4464,optionLeft,60,595,1,11,0,11,0,1,,,,,,,,,,,,,,,,,,,,,,,,,,,,,,,,,,,,,,,
,,,,,,,,2023-08-16_08h49.36.979,HF_wild_card,2022.2.4,Win32,60.09615385,599c578d8acf1e0001599633,64d2fd46c836a06233681665,64dc7f7830f891f885739ac1,,,,,,,ctch,resources/DBN.BMP,resources/DY.BMP,Door1,0.30625,-0.043055556,1,0,0,2.0831,optionRight,30,625,1,12,0,12,0,1,,,,,,,,,,,,,,,,,,,,,,,,,,,,,,,,,,,,,,,
,,,,,,,,2023-08-16_08h49.36.979,HF_wild_card,2022.2.4,Win32,60.09615385,599c578d8acf1e0001599633,64d2fd46c836a06233681665,64dc7f7830f891f885739ac1,,,,,,,decisionTrl,resources/DP.BMP,resources/DG.BMP,WildCard_NonEx,0.358333333,-0.009027778,1,0,0,1.4311,optionRight,55,680,1,13,0,13,0,1,,,,,,,,,,,,,,,,,,,,,,,,,,,,,,,,,,,,,,,
,,,,,,,,2023-08-16_08h49.36.979,HF_wild_card,2022.2.4,Win32,60.09615385,599c578d8acf1e0001599633,64d2fd46c836a06233681665,64dc7f7830f891f885739ac1,,,,,,,sngl,resources/DG.BMP,resources/Empty.png,WildCard_NonEx,-0.316666667,0.027083333,1,0,0,0.9684,optionLeft,55,735,1,14,0,14,0,1,,,,,,,,,,,,,,,,,,,,,,,,,,,,,,,,,,,,,,,
,,,,,,,,2023-08-16_08h49.36.979,HF_wild_card,2022.2.4,Win32,60.09615385,599c578d8acf1e0001599633,64d2fd46c836a06233681665,64dc7f7830f891f885739ac1,,,,,,,sngl,resources/DG.BMP,resources/Empty.png,WildCard_NonEx,-0.30625,0.036805556,1,0,0,0.8639,optionLeft,45,780,1,15,0,15,0,1,,,,,,,,,,,,,,,,,,,,,,,,,,,,,,,,,,,,,,,
,,,,,,,,2023-08-16_08h49.36.979,HF_wild_card,2022.2.4,Win32,60.09615385,599c578d8acf1e0001599633,64d2fd46c836a06233681665,64dc7f7830f891f885739ac1,,,,,,,sngl,resources/DB.BMP,resources/Empty.png,Door3,-0.334027778,0.039583333,1,0,0,1.1658,optionLeft,70,850,1,16,0,16,0,1,,,,,,,,,,,,,,,,,,,,,,,,,,,,,,,,,,,,,,,
,,,,,,,,2023-08-16_08h49.36.979,HF_wild_card,2022.2.4,Win32,60.09615385,599c578d8acf1e0001599633,64d2fd46c836a06233681665,64dc7f7830f891f885739ac1,,,,,,,ctch,resources/DP.BMP,resources/DB.BMP,Door3,0.290972222,0.015972222,1,0,0,1.4665,optionRight,70,920,1,17,0,17,0,1,,,,,,,,,,,,,,,,,,,,,,,,,,,,,,,,,,,,,,,
,,,,,,,,2023-08-16_08h49.36.979,HF_wild_card,2022.2.4,Win32,60.09615385,599c578d8acf1e0001599633,64d2fd46c836a06233681665,64dc7f7830f891f885739ac1,,,,,,,decisionTrl,resources/DY.BMP,resources/DP.BMP,Door2,0.359722222,0.002777778,1,0,0,1.6171,optionRight,20,940,1,18,0,18,0,1,,,,,,,,,,,,,,,,,,,,,,,,,,,,,,,,,,,,,,,
,,,,,,,,2023-08-16_08h49.36.979,HF_wild_card,2022.2.4,Win32,60.09615385,599c578d8acf1e0001599633,64d2fd46c836a06233681665,64dc7f7830f891f885739ac1,,,,,,,ctch,resources/DP.BMP,resources/DB.BMP,Door3,0.350694444,-0.011805556,1,0,0,1.083,optionRight,70,1010,1,19,0,19,0,1,,,,,,,,,,,,,,,,,,,,,,,,,,,,,,,,,,,,,,,
,,,,,,,,2023-08-16_08h49.36.979,HF_wild_card,2022.2.4,Win32,60.09615385,599c578d8acf1e0001599633,64d2fd46c836a06233681665,64dc7f7830f891f885739ac1,,,,,,,sngl,resources/DP.BMP,resources/Empty.png,Door2,-0.285416667,0.007638889,1,0,0,1.1347,optionLeft,40,1050,1,20,0,20,0,1,,,,,,,,,,,,,,,,,,,,,,,,,,,,,,,,,,,,,,,
,,,,,,,,2023-08-16_08h49.36.979,HF_wild_card,2022.2.4,Win32,60.09615385,599c578d8acf1e0001599633,64d2fd46c836a06233681665,64dc7f7830f891f885739ac1,,,,,,,decisionTrl,resources/DB.BMP,resources/DBN.BMP,Door3,-0.388888889,0.032638889,1,0,0,1.8198,optionLeft,70,1120,1,21,0,21,0,1,,,,,,,,,,,,,,,,,,,,,,,,,,,,,,,,,,,,,,,
,,,,,,,,2023-08-16_08h49.36.979,HF_wild_card,2022.2.4,Win32,60.09615385,599c578d8acf1e0001599633,64d2fd46c836a06233681665,64dc7f7830f891f885739ac1,,,,,,,sngl,resources/DBN.BMP,resources/Empty.png,Door4,-0.385416667,0.050694444,1,0,0,0.9677,optionLeft,80,1200,1,22,0,22,0,1,,,,,,,,,,,,,,,,,,,,,,,,,,,,,,,,,,,,,,,
,,,,,,,,2023-08-16_08h49.36.979,HF_wild_card,2022.2.4,Win32,60.09615385,599c578d8acf1e0001599633,64d2fd46c836a06233681665,64dc7f7830f891f885739ac1,,,,,,,decisionTrl,resources/DB.BMP,resources/DBN.BMP,Door4,0.305555556,0.066666667,1,0,0,1.3685,optionRight,60,1260,1,23,0,23,0,1,,,,,,,,,,,,,,,,,,,,,,,,,,,,,,,,,,,,,,,
,,,,,,,,2023-08-16_08h49.36.979,HF_wild_card,2022.2.4,Win32,60.09615385,599c578d8acf1e0001599633,64d2fd46c836a06233681665,64dc7f7830f891f885739ac1,,,,,,,decisionTrl,resources/DY.BMP,resources/DP.BMP,Door1,-0.338888889,0.003472222,1,0,0,2.0167,optionLeft,30,1290,1,24,0,24,0,1,,,,,,,,,,,,,,,,,,,,,,,,,,,,,,,,,,,,,,,
,,,,,,,,2023-08-16_08h49.36.979,HF_wild_card,2022.2.4,Win32,60.09615385,599c578d8acf1e0001599633,64d2fd46c836a06233681665,64dc7f7830f891f885739ac1,,,,,,,decisionTrl,resources/DG.BMP,resources/DY.BMP,WildCard_NonEx,-0.361805556,0.033333333,1,0,0,1.4023,optionLeft,45,1335,1,25,0,25,0,1,,,,,,,,,,,,,,,,,,,,,,,,,,,,,,,,,,,,,,,
,,,,,,,,2023-08-16_08h49.36.979,HF_wild_card,2022.2.4,Win32,60.09615385,599c578d8acf1e0001599633,64d2fd46c836a06233681665,64dc7f7830f891f885739ac1,,,,,,,sngl,resources/DY.BMP,resources/Empty.png,Door1,-0.360416667,0.047916667,1,0,0,1.1657,optionLeft,30,1365,1,26,0,26,0,1,,,,,,,,,,,,,,,,,,,,,,,,,,,,,,,,,,,,,,,
,,,,,,,,2023-08-16_08h49.36.979,HF_wild_card,2022.2.4,Win32,60.09615385,599c578d8acf1e0001599633,64d2fd46c836a06233681665,64dc7f7830f891f885739ac1,,,,,,,ctch,resources/DY.BMP,resources/DBN.BMP,Door4,0.404861111,0.045833333,1,0,0,1.2668,optionRight,60,1425,1,27,0,27,0,1,,,,,,,,,,,,,,,,,,,,,,,,,,,,,,,,,,,,,,,
,,,,,,,,2023-08-16_08h49.36.979,HF_wild_card,2022.2.4,Win32,60.09615385,599c578d8acf1e0001599633,64d2fd46c836a06233681665,64dc7f7830f891f885739ac1,,,,,,,decisionTrl,resources/DBN.BMP,resources/DB.BMP,Door3,0.390972222,0.022222222,1,0,0,1.1673,optionRight,70,1495,1,28,0,28,0,1,,,,,,,,,,,,,,,,,,,,,,,,,,,,,,,,,,,,,,,
,,,,,,,,2023-08-16_08h49.36.979,HF_wild_card,2022.2.4,Win32,60.09615385,599c578d8acf1e0001599633,64d2fd46c836a06233681665,64dc7f7830f891f885739ac1,,,,,,,decisionTrl,resources/DP.BMP,resources/DY.BMP,Door1,0.354166667,0.027777778,1,0,0,1.2526,optionRight,30,1525,1,29,0,29,0,1,,,,,,,,,,,,,,,,,,,,,,,,,,,,,,,,,,,,,,,
,,,,,,,,2023-08-16_08h49.36.979,HF_wild_card,2022.2.4,Win32,60.09615385,599c578d8acf1e0001599633,64d2fd46c836a06233681665,64dc7f7830f891f885739ac1,,,,,,,decisionTrl,resources/DY.BMP,resources/DP.BMP,Door1,-0.336805556,0.03125,1,0,0,1.1499,optionLeft,30,1555,1,30,0,30,0,1,,,,,,,,,,,,,,,,,,,,,,,,,,,,,,,,,,,,,,,
,,,,,,,,2023-08-16_08h49.36.979,HF_wild_card,2022.2.4,Win32,60.09615385,599c578d8acf1e0001599633,64d2fd46c836a06233681665,64dc7f7830f891f885739ac1,,,,,,,ctch,resources/DB.BMP,resources/DP.BMP,Door3,-0.389583333,0.036111111,1,0,0,1.1189,optionLeft,70,1625,1,31,0,31,0,1,,,,,,,,,,,,,,,,,,,,,,,,,,,,,,,,,,,,,,,
,,,,,,,,2023-08-16_08h49.36.979,HF_wild_card,2022.2.4,Win32,60.09615385,599c578d8acf1e0001599633,64d2fd46c836a06233681665,64dc7f7830f891f885739ac1,,,,,,,sngl,resources/Empty.png,resources/DBN.BMP,Door4,0.298611111,0.061805556,1,0,0,0.9493,optionRight,60,1685,1,32,0,32,0,1,,,,,,,,,,,,,,,,,,,,,,,,,,,,,,,,,,,,,,,
,,,,,,,,2023-08-16_08h49.36.979,HF_wild_card,2022.2.4,Win32,60.09615385,599c578d8acf1e0001599633,64d2fd46c836a06233681665,64dc7f7830f891f885739ac1,,,,,,,decisionTrl,resources/DG.BMP,resources/DB.BMP,Door3,0.3375,0.041666667,1,0,0,1.5696,optionRight,70,1755,1,33,0,33,0,1,,,,,,,,,,,,,,,,,,,,,,,,,,,,,,,,,,,,,,,
,,,,,,,,2023-08-16_08h49.36.979,HF_wild_card,2022.2.4,Win32,60.09615385,599c578d8acf1e0001599633,64d2fd46c836a06233681665,64dc7f7830f891f885739ac1,,,,,,,decisionTrl,resources/DG.BMP,resources/DP.BMP,WildCard_NonEx,-0.316666667,0.039583333,1,0,0,1.3146,optionLeft,45,1800,1,34,0,34,0,1,,,,,,,,,,,,,,,,,,,,,,,,,,,,,,,,,,,,,,,
,,,,,,,,2023-08-16_08h49.36.979,HF_wild_card,2022.2.4,Win32,60.09615385,599c578d8acf1e0001599633,64d2fd46c836a06233681665,64dc7f7830f891f885739ac1,,,,,,,decisionTrl,resources/DP.BMP,resources/DY.BMP,Door1,0.370138889,0.014583333,1,0,0,1.4639,optionRight,30,1830,1,35,0,35,0,1,,,,,,,,,,,,,,,,,,,,,,,,,,,,,,,,,,,,,,,
,,,,,,,,2023-08-16_08h49.36.979,HF_wild_card,2022.2.4,Win32,60.09615385,599c578d8acf1e0001599633,64d2fd46c836a06233681665,64dc7f7830f891f885739ac1,,,,,,,decisionTrl,resources/DB.BMP,resources/DBN.BMP,Door3,-0.386805556,0.028472222,1,0,0,1.1155,optionLeft,70,1900,1,36,0,36,0,1,,,,,,,,,,,,,,,,,,,,,,,,,,,,,,,,,,,,,,,
,,,,,,,,2023-08-16_08h49.36.979,HF_wild_card,2022.2.4,Win32,60.09615385,599c578d8acf1e0001599633,64d2fd46c836a06233681665,64dc7f7830f891f885739ac1,,,,,,,decisionTrl,resources/DG.BMP,resources/DBN.BMP,Door4,0.270138889,0.045138889,1,0,0,1.5498,optionRight,80,1980,1,37,0,37,0,1,,,,,,,,,,,,,,,,,,,,,,,,,,,,,,,,,,,,,,,
,,,,,,,,2023-08-16_08h49.36.979,HF_wild_card,2022.2.4,Win32,60.09615385,599c578d8acf1e0001599633,64d2fd46c836a06233681665,64dc7f7830f891f885739ac1,,,,,,,decisionTrl,resources/DP.BMP,resources/DY.BMP,Door1,0.356944444,0.029861111,1,0,0,1.1334,optionRight,30,2010,1,38,0,38,0,1,,,,,,,,,,,,,,,,,,,,,,,,,,,,,,,,,,,,,,,
,,,,,,,,2023-08-16_08h49.36.979,HF_wild_card,2022.2.4,Win32,60.09615385,599c578d8acf1e0001599633,64d2fd46c836a06233681665,64dc7f7830f891f885739ac1,,,,,,,sngl,resources/Empty.png,resources/DB.BMP,Door3,0.368055556,0.022222222,1,0,0,0.9686,optionRight,70,2080,1,39,0,39,0,1,,,,,,,,,,,,,,,,,,,,,,,,,,,,,,,,,,,,,,,
,,,,,,,,2023-08-16_08h49.36.979,HF_wild_card,2022.2.4,Win32,60.09615385,599c578d8acf1e0001599633,64d2fd46c836a06233681665,64dc7f7830f891f885739ac1,,,,,,,decisionTrl,resources/DY.BMP,resources/DG.BMP,WildCard_NonEx,0.333333333,0.093055556,1,0,0,2.4514,optionRight,55,2135,1,40,0,40,0,1,,,,,,,,,,,,,,,,,,,,,,,,,,,,,,,,,,,,,,,
,,,,,,,,2023-08-16_08h49.36.979,HF_wild_card,2022.2.4,Win32,60.09615385,599c578d8acf1e0001599633,64d2fd46c836a06233681665,64dc7f7830f891f885739ac1,,,,,,,sngl,resources/Empty.png,resources/DP.BMP,Door2,0.355555556,0.041666667,1,0,0,1.0832,optionRight,20,2155,1,41,0,41,0,1,,,,,,,,,,,,,,,,,,,,,,,,,,,,,,,,,,,,,,,
,,,,,,,,2023-08-16_08h49.36.979,HF_wild_card,2022.2.4,Win32,60.09615385,599c578d8acf1e0001599633,64d2fd46c836a06233681665,64dc7f7830f891f885739ac1,,,,,,,decisionTrl,resources/DBN.BMP,resources/DB.BMP,Door3,0.465277778,0.05625,1,0,0,1.4521,optionRight,70,2225,1,42,0,42,0,1,,,,,,,,,,,,,,,,,,,,,,,,,,,,,,,,,,,,,,,
,,,,,,,,2023-08-16_08h49.36.979,HF_wild_card,2022.2.4,Win32,60.09615385,599c578d8acf1e0001599633,64d2fd46c836a06233681665,64dc7f7830f891f885739ac1,,,,,,,decisionTrl,resources/DY.BMP,resources/DP.BMP,Door1,-0.29375,0.034722222,1,0,0,1.218,optionLeft,30,2255,1,43,0,43,0,1,,,,,,,,,,,,,,,,,,,,,,,,,,,,,,,,,,,,,,,
,,,,,,,,2023-08-16_08h49.36.979,HF_wild_card,2022.2.4,Win32,60.09615385,599c578d8acf1e0001599633,64d2fd46c836a06233681665,64dc7f7830f891f885739ac1,,,,,,,,,,,,,,,,,,,,,,,,,,0,0,0,0,1,,,,,,,,,,,,,,,,,,,,,,,,,,,,,,,,,,
,,,,,,,,2023-08-16_08h49.36.979,HF_wild_card,2022.2.4,Win32,60.09615385,599c578d8acf1e0001599633,64d2fd46c836a06233681665,64dc7f7830f891f885739ac1,,,,,,,decisionTrl,resources/DP.BMP,resources/DY.BMP,Door1,0.317361111,-0.000694444,1,0,0,1.9441,optionRight,30,2285,2,0,0,0,0,1,,,,,,,,,,,,,,,,,,,,,,,,,,,,,,,,,,,,,,,
,,,,,,,,2023-08-16_08h49.36.979,HF_wild_card,2022.2.4,Win32,60.09615385,599c578d8acf1e0001599633,64d2fd46c836a06233681665,64dc7f7830f891f885739ac1,,,,,,,decisionTrl,resources/DBN.BMP,resources/DB.BMP,Door3,0.341666667,-0.016666667,1,0,0,1.8171,optionRight,70,2355,2,1,0,1,0,1,,,,,,,,,,,,,,,,,,,,,,,,,,,,,,,,,,,,,,,
,,,,,,,,2023-08-16_08h49.36.979,HF_wild_card,2022.2.4,Win32,60.09615385,599c578d8acf1e0001599633,64d2fd46c836a06233681665,64dc7f7830f891f885739ac1,,,,,,,decisionTrl,resources/DG.BMP,resources/DP.BMP,WildCard_NonEx,-0.33125,0.038888889,1,0,0,2.52,optionLeft,55,2410,2,2,0,2,0,1,,,,,,,,,,,,,,,,,,,,,,,,,,,,,,,,,,,,,,,
,,,,,,,,2023-08-16_08h49.36.979,HF_wild_card,2022.2.4,Win32,60.09615385,599c578d8acf1e0001599633,64d2fd46c836a06233681665,64dc7f7830f891f885739ac1,,,,,,,decisionTrl,resources/DY.BMP,resources/DG.BMP,WildCard_NonEx,0.393055556,0.020833333,1,0,0,1.8668,optionRight,45,2455,2,3,0,3,0,1,,,,,,,,,,,,,,,,,,,,,,,,,,,,,,,,,,,,,,,
,,,,,,,,2023-08-16_08h49.36.979,HF_wild_card,2022.2.4,Win32,60.09615385,599c578d8acf1e0001599633,64d2fd46c836a06233681665,64dc7f7830f891f885739ac1,,,,,,,decisionTrl,resources/DG.BMP,resources/DY.BMP,WildCard_NonEx,-0.290277778,0.061111111,1,0,0,1.4161,optionLeft,55,2510,2,4,0,4,0,1,,,,,,,,,,,,,,,,,,,,,,,,,,,,,,,,,,,,,,,
,,,,,,,,2023-08-16_08h49.36.979,HF_wild_card,2022.2.4,Win32,60.09615385,599c578d8acf1e0001599633,64d2fd46c836a06233681665,64dc7f7830f891f885739ac1,,,,,,,decisionTrl,resources/DP.BMP,resources/DY.BMP,Door1,0.321527778,0.042361111,1,0,0,1.0973,optionRight,30,2540,2,5,0,5,0,1,,,,,,,,,,,,,,,,,,,,,,,,,,,,,,,,,,,,,,,
,,,,,,,,2023-08-16_08h49.36.979,HF_wild_card,2022.2.4,Win32,60.09615385,599c578d8acf1e0001599633,64d2fd46c836a06233681665,64dc7f7830f891f885739ac1,,,,,,,sngl,resources/Empty.png,resources/DB.BMP,Door3,0.332638889,0.038194444,1,0,0,0.8694,optionRight,70,2610,2,6,0,6,0,1,,,,,,,,,,,,,,,,,,,,,,,,,,,,,,,,,,,,,,,
,,,,,,,,2023-08-16_08h49.36.979,HF_wild_card,2022.2.4,Win32,60.09615385,599c578d8acf1e0001599633,64d2fd46c836a06233681665,64dc7f7830f891f885739ac1,,,,,,,ctch,resources/DB.BMP,resources/DP.BMP,Door3,-0.238194444,0.038194444,1,0,0,1.2352,optionLeft,70,2680,2,7,0,7,0,1,,,,,,,,,,,,,,,,,,,,,,,,,,,,,,,,,,,,,,,
,,,,,,,,2023-08-16_08h49.36.979,HF_wild_card,2022.2.4,Win32,60.09615385,599c578d8acf1e0001599633,64d2fd46c836a06233681665,64dc7f7830f891f885739ac1,,,,,,,sngl,resources/Empty.png,resources/DG.BMP,WildCard_NonEx,0.294444444,0.052777778,1,0,0,0.8974,optionRight,45,2725,2,8,0,8,0,1,,,,,,,,,,,,,,,,,,,,,,,,,,,,,,,,,,,,,,,
,,,,,,,,2023-08-16_08h49.36.979,HF_wild_card,2022.2.4,Win32,60.09615385,599c578d8acf1e0001599633,64d2fd46c836a06233681665,64dc7f7830f891f885739ac1,,,,,,,decisionTrl,resources/DP.BMP,resources/DY.BMP,Door1,0.366666667,0.06875,1,0,0,1.1853,optionRight,30,2755,2,9,0,9,0,1,,,,,,,,,,,,,,,,,,,,,,,,,,,,,,,,,,,,,,,
,,,,,,,,2023-08-16_08h49.36.979,HF_wild_card,2022.2.4,Win32,60.09615385,599c578d8acf1e0001599633,64d2fd46c836a06233681665,64dc7f7830f891f885739ac1,,,,,,,ctch,resources/DBN.BMP,resources/DY.BMP,Door4,-0.29375,0.065277778,1,0,0,1.9362,optionLeft,60,2815,2,10,0,10,0,1,,,,,,,,,,,,,,,,,,,,,,,,,,,,,,,,,,,,,,,
,,,,,,,,2023-08-16_08h49.36.979,HF_wild_card,2022.2.4,Win32,60.09615385,599c578d8acf1e0001599633,64d2fd46c836a06233681665,64dc7f7830f891f885739ac1,,,,,,,sngl,resources/DP.BMP,resources/Empty.png,Door2,-0.316666667,0.038194444,1,0,0,1.0351,optionLeft,20,2835,2,11,0,11,0,1,,,,,,,,,,,,,,,,,,,,,,,,,,,,,,,,,,,,,,,
,,,,,,,,2023-08-16_08h49.36.979,HF_wild_card,2022.2.4,Win32,60.09615385,599c578d8acf1e0001599633,64d2fd46c836a06233681665,64dc7f7830f891f885739ac1,,,,,,,decisionTrl,resources/DB.BMP,resources/DBN.BMP,Door3,-0.4125,0.073611111,1,0,0,1.1498,optionLeft,70,2905,2,12,0,12,0,1,,,,,,,,,,,,,,,,,,,,,,,,,,,,,,,,,,,,,,,
,,,,,,,,2023-08-16_08h49.36.979,HF_wild_card,2022.2.4,Win32,60.09615385,599c578d8acf1e0001599633,64d2fd46c836a06233681665,64dc7f7830f891f885739ac1,,,,,,,sngl,resources/DG.BMP,resources/Empty.png,WildCard_NonEx,-0.348611111,0.060416667,1,0,0,0.8993,optionLeft,55,2960,2,13,0,13,0,1,,,,,,,,,,,,,,,,,,,,,,,,,,,,,,,,,,,,,,,
,,,,,,,,2023-08-16_08h49.36.979,HF_wild_card,2022.2.4,Win32,60.09615385,599c578d8acf1e0001599633,64d2fd46c836a06233681665,64dc7f7830f891f885739ac1,,,,,,,ctch,resources/DB.BMP,resources/DP.BMP,Door3,-0.3875,0.059027778,1,0,0,1.2658,optionLeft,70,3030,2,14,0,14,0,1,,,,,,,,,,,,,,,,,,,,,,,,,,,,,,,,,,,,,,,
,,,,,,,,2023-08-16_08h49.36.979,HF_wild_card,2022.2.4,Win32,60.09615385,599c578d8acf1e0001599633,64d2fd46c836a06233681665,64dc7f7830f891f885739ac1,,,,,,,decisionTrl,resources/DBN.BMP,resources/DB.BMP,Door4,-0.3,0.054861111,1,0,0,1.1474,optionLeft,80,3110,2,15,0,15,0,1,,,,,,,,,,,,,,,,,,,,,,,,,,,,,,,,,,,,,,,
,,,,,,,,2023-08-16_08h49.36.979,HF_wild_card,2022.2.4,Win32,60.09615385,599c578d8acf1e0001599633,64d2fd46c836a06233681665,64dc7f7830f891f885739ac1,,,,,,,decisionTrl,resources/DB.BMP,resources/DBN.BMP,Door4,0.3125,0.026388889,1,0,0,1.5683,optionRight,80,3190,2,16,0,16,0,1,,,,,,,,,,,,,,,,,,,,,,,,,,,,,,,,,,,,,,,
,,,,,,,,2023-08-16_08h49.36.979,HF_wild_card,2022.2.4,Win32,60.09615385,599c578d8acf1e0001599633,64d2fd46c836a06233681665,64dc7f7830f891f885739ac1,,,,,,,decisionTrl,resources/DG.BMP,resources/DB.BMP,Door3,0.325,0.036805556,1,0,0,1.1182,optionRight,70,3260,2,17,0,17,0,1,,,,,,,,,,,,,,,,,,,,,,,,,,,,,,,,,,,,,,,
,,,,,,,,2023-08-16_08h49.36.979,HF_wild_card,2022.2.4,Win32,60.09615385,599c578d8acf1e0001599633,64d2fd46c836a06233681665,64dc7f7830f891f885739ac1,,,,,,,ctch,resources/DP.BMP,resources/DB.BMP,Door3,0.36875,0.036111111,1,0,0,1.0331,optionRight,70,3330,2,18,0,18,0,1,,,,,,,,,,,,,,,,,,,,,,,,,,,,,,,,,,,,,,,
,,,,,,,,2023-08-16_08h49.36.979,HF_wild_card,2022.2.4,Win32,60.09615385,599c578d8acf1e0001599633,64d2fd46c836a06233681665,64dc7f7830f891f885739ac1,,,,,,,sngl,resources/DBN.BMP,resources/Empty.png,Door4,-0.336111111,0.060416667,1,0,0,0.7516,optionLeft,60,3390,2,19,0,19,0,1,,,,,,,,,,,,,,,,,,,,,,,,,,,,,,,,,,,,,,,
,,,,,,,,2023-08-16_08h49.36.979,HF_wild_card,2022.2.4,Win32,60.09615385,599c578d8acf1e0001599633,64d2fd46c836a06233681665,64dc7f7830f891f885739ac1,,,,,,,decisionTrl,resources/DP.BMP,resources/DY.BMP,Door1,0.280555556,0.050694444,1,0,0,1.6858,optionRight,30,3420,2,20,0,20,0,1,,,,,,,,,,,,,,,,,,,,,,,,,,,,,,,,,,,,,,,
,,,,,,,,2023-08-16_08h49.36.979,HF_wild_card,2022.2.4,Win32,60.09615385,599c578d8acf1e0001599633,64d2fd46c836a06233681665,64dc7f7830f891f885739ac1,,,,,,,decisionTrl,resources/DB.BMP,resources/DBN.BMP,Door4,0.345833333,0.092361111,1,0,0,1.052,optionRight,80,3500,2,21,0,21,0,1,,,,,,,,,,,,,,,,,,,,,,,,,,,,,,,,,,,,,,,
,,,,,,,,2023-08-16_08h49.36.979,HF_wild_card,2022.2.4,Win32,60.09615385,599c578d8acf1e0001599633,64d2fd46c836a06233681665,64dc7f7830f891f885739ac1,,,,,,,sngl,resources/Empty.png,resources/DP.BMP,Door2,0.311111111,0.034027778,1,0,0,1.5351,optionRight,40,3540,2,22,0,22,0,1,,,,,,,,,,,,,,,,,,,,,,,,,,,,,,,,,,,,,,,
,,,,,,,,2023-08-16_08h49.36.979,HF_wild_card,2022.2.4,Win32,60.09615385,599c578d8acf1e0001599633,64d2fd46c836a06233681665,64dc7f7830f891f885739ac1,,,,,,,sngl,resources/Empty.png,resources/DY.BMP,Door1,0.315972222,0.047916667,1,0,0,1.1835,optionRight,30,3570,2,23,0,23,0,1,,,,,,,,,,,,,,,,,,,,,,,,,,,,,,,,,,,,,,,
,,,,,,,,2023-08-16_08h49.36.979,HF_wild_card,2022.2.4,Win32,60.09615385,599c578d8acf1e0001599633,64d2fd46c836a06233681665,64dc7f7830f891f885739ac1,,,,,,,decisionTrl,resources/DBN.BMP,resources/DB.BMP,Door4,-0.347916667,0.068055556,1,0,0,1.4999,optionLeft,60,3630,2,24,0,24,0,1,,,,,,,,,,,,,,,,,,,,,,,,,,,,,,,,,,,,,,,
,,,,,,,,2023-08-16_08h49.36.979,HF_wild_card,2022.2.4,Win32,60.09615385,599c578d8acf1e0001599633,64d2fd46c836a06233681665,64dc7f7830f891f885739ac1,,,,,,,sngl,resources/DB.BMP,resources/Empty.png,Door3,-0.341666667,0.036111111,1,0,0,0.8309,optionLeft,70,3700,2,25,0,25,0,1,,,,,,,,,,,,,,,,,,,,,,,,,,,,,,,,,,,,,,,
,,,,,,,,2023-08-16_08h49.36.979,HF_wild_card,2022.2.4,Win32,60.09615385,599c578d8acf1e0001599633,64d2fd46c836a06233681665,64dc7f7830f891f885739ac1,,,,,,,sngl,resources/Empty.png,resources/DBN.BMP,Door4,0.297222222,0.045833333,1,0,0,0.8522,optionRight,80,3780,2,26,0,26,0,1,,,,,,,,,,,,,,,,,,,,,,,,,,,,,,,,,,,,,,,
,,,,,,,,2023-08-16_08h49.36.979,HF_wild_card,2022.2.4,Win32,60.09615385,599c578d8acf1e0001599633,64d2fd46c836a06233681665,64dc7f7830f891f885739ac1,,,,,,,decisionTrl,resources/DY.BMP,resources/DP.BMP,Door1,-0.392361111,0.052083333,1,0,0,1.6831,optionLeft,30,3810,2,27,0,27,0,1,,,,,,,,,,,,,,,,,,,,,,,,,,,,,,,,,,,,,,,
,,,,,,,,2023-08-16_08h49.36.979,HF_wild_card,2022.2.4,Win32,60.09615385,599c578d8acf1e0001599633,64d2fd46c836a06233681665,64dc7f7830f891f885739ac1,,,,,,,sngl,resources/DY.BMP,resources/Empty.png,Door1,-0.277777778,0.030555556,1,0,0,0.7015,optionLeft,30,3840,2,28,0,28,0,1,,,,,,,,,,,,,,,,,,,,,,,,,,,,,,,,,,,,,,,
,,,,,,,,2023-08-16_08h49.36.979,HF_wild_card,2022.2.4,Win32,60.09615385,599c578d8acf1e0001599633,64d2fd46c836a06233681665,64dc7f7830f891f885739ac1,,,,,,,decisionTrl,resources/DBN.BMP,resources/DG.BMP,Door4,-0.304166667,0.061805556,1,0,0,1.1828,optionLeft,60,3900,2,29,0,29,0,1,,,,,,,,,,,,,,,,,,,,,,,,,,,,,,,,,,,,,,,
,,,,,,,,2023-08-16_08h49.36.979,HF_wild_card,2022.2.4,Win32,60.09615385,599c578d8acf1e0001599633,64d2fd46c836a06233681665,64dc7f7830f891f885739ac1,,,,,,,decisionTrl,resources/DP.BMP,resources/DG.BMP,WildCard_NonEx,0.345833333,0.015972222,1,0,0,1.7312,optionRight,45,3945,2,30,0,30,0,1,,,,,,,,,,,,,,,,,,,,,,,,,,,,,,,,,,,,,,,
,,,,,,,,2023-08-16_08h49.36.979,HF_wild_card,2022.2.4,Win32,60.09615385,599c578d8acf1e0001599633,64d2fd46c836a06233681665,64dc7f7830f891f885739ac1,,,,,,,sngl,resources/DG.BMP,resources/Empty.png,WildCard_NonEx,-0.286111111,0.036805556,1,0,0,0.8512,optionLeft,45,3990,2,31,0,31,0,1,,,,,,,,,,,,,,,,,,,,,,,,,,,,,,,,,,,,,,,
,,,,,,,,2023-08-16_08h49.36.979,HF_wild_card,2022.2.4,Win32,60.09615385,599c578d8acf1e0001599633,64d2fd46c836a06233681665,64dc7f7830f891f885739ac1,,,,,,,decisionTrl,resources/DY.BMP,resources/DP.BMP,Door1,-0.404861111,0.072222222,1,0,0,1.3998,optionLeft,30,4020,2,32,0,32,0,1,,,,,,,,,,,,,,,,,,,,,,,,,,,,,,,,,,,,,,,
,,,,,,,,2023-08-16_08h49.36.979,HF_wild_card,2022.2.4,Win32,60.09615385,599c578d8acf1e0001599633,64d2fd46c836a06233681665,64dc7f7830f891f885739ac1,,,,,,,ctch,resources/DY.BMP,resources/DBN.BMP,Door4,0.311111111,0.034027778,1,0,0,1.2479,optionRight,60,4080,2,33,0,33,0,1,,,,,,,,,,,,,,,,,,,,,,,,,,,,,,,,,,,,,,,
,,,,,,,,2023-08-16_08h49.36.979,HF_wild_card,2022.2.4,Win32,60.09615385,599c578d8acf1e0001599633,64d2fd46c836a06233681665,64dc7f7830f891f885739ac1,,,,,,,decisionTrl,resources/DB.BMP,resources/DBN.BMP,Door4,0.275694444,0.064583333,1,0,0,1.6173,optionRight,80,4160,2,34,0,34,0,1,,,,,,,,,,,,,,,,,,,,,,,,,,,,,,,,,,,,,,,
,,,,,,,,2023-08-16_08h49.36.979,HF_wild_card,2022.2.4,Win32,60.09615385,599c578d8acf1e0001599633,64d2fd46c836a06233681665,64dc7f7830f891f885739ac1,,,,,,,ctch,resources/DY.BMP,resources/DBN.BMP,Door4,0.303472222,0.06875,1,0,0,1.7524,optionRight,60,4220,2,35,0,35,0,1,,,,,,,,,,,,,,,,,,,,,,,,,,,,,,,,,,,,,,,
,,,,,,,,2023-08-16_08h49.36.979,HF_wild_card,2022.2.4,Win32,60.09615385,599c578d8acf1e0001599633,64d2fd46c836a06233681665,64dc7f7830f891f885739ac1,,,,,,,decisionTrl,resources/DB.BMP,resources/DG.BMP,Door3,-0.358333333,0.039583333,1,0,0,1.1502,optionLeft,70,4290,2,36,0,36,0,1,,,,,,,,,,,,,,,,,,,,,,,,,,,,,,,,,,,,,,,
,,,,,,,,2023-08-16_08h49.36.979,HF_wild_card,2022.2.4,Win32,60.09615385,599c578d8acf1e0001599633,64d2fd46c836a06233681665,64dc7f7830f891f885739ac1,,,,,,,decisionTrl,resources/DY.BMP,resources/DP.BMP,Door1,-0.324305556,0.052777778,1,0,0,1.2323,optionLeft,30,4320,2,37,0,37,0,1,,,,,,,,,,,,,,,,,,,,,,,,,,,,,,,,,,,,,,,
,,,,,,,,2023-08-16_08h49.36.979,HF_wild_card,2022.2.4,Win32,60.09615385,599c578d8acf1e0001599633,64d2fd46c836a06233681665,64dc7f7830f891f885739ac1,,,,,,,sngl,resources/Empty.png,resources/DG.BMP,WildCard_NonEx,0.283333333,0.036111111,1,0,0,1.135,optionRight,55,4375,2,38,0,38,0,1,,,,,,,,,,,,,,,,,,,,,,,,,,,,,,,,,,,,,,,
,,,,,,,,2023-08-16_08h49.36.979,HF_wild_card,2022.2.4,Win32,60.09615385,599c578d8acf1e0001599633,64d2fd46c836a06233681665,64dc7f7830f891f885739ac1,,,,,,,decisionTrl,resources/DG.BMP,resources/DBN.BMP,Door4,0.243055556,0.070138889,1,0,0,1.1997,optionRight,60,4435,2,39,0,39,0,1,,,,,,,,,,,,,,,,,,,,,,,,,,,,,,,,,,,,,,,
,,,,,,,,2023-08-16_08h49.36.979,HF_wild_card,2022.2.4,Win32,60.09615385,599c578d8acf1e0001599633,64d2fd46c836a06233681665,64dc7f7830f891f885739ac1,,,,,,,decisionTrl,resources/DBN.BMP,resources/DB.BMP,Door4,-0.271527778,0.043055556,1,0,0,1.0501,optionLeft,60,4495,2,40,0,40,0,1,,,,,,,,,,,,,,,,,,,,,,,,,,,,,,,,,,,,,,,
,,,,,,,,2023-08-16_08h49.36.979,HF_wild_card,2022.2.4,Win32,60.09615385,599c578d8acf1e0001599633,64d2fd46c836a06233681665,64dc7f7830f891f885739ac1,,,,,,,ctch,resources/DBN.BMP,resources/DY.BMP,Door4,-0.327083333,0.059722222,1,0,0,1.2829,optionLeft,80,4575,2,41,0,41,0,1,,,,,,,,,,,,,,,,,,,,,,,,,,,,,,,,,,,,,,,
,,,,,,,,2023-08-16_08h49.36.979,HF_wild_card,2022.2.4,Win32,60.09615385,599c578d8acf1e0001599633,64d2fd46c836a06233681665,64dc7f7830f891f885739ac1,,,,,,,decisionTrl,resources/DY.BMP,resources/DP.BMP,Door1,-0.329861111,0.070833333,1,0,0,1.3158,optionLeft,30,4605,2,42,0,42,0,1,,,,,,,,,,,,,,,,,,,,,,,,,,,,,,,,,,,,,,,
,,,,,,,,2023-08-16_08h49.36.979,HF_wild_card,2022.2.4,Win32,60.09615385,599c578d8acf1e0001599633,64d2fd46c836a06233681665,64dc7f7830f891f885739ac1,,,,,,,ctch,resources/DP.BMP,resources/DB.BMP,Door3,0.297916667,0.045138889,1,0,0,1.1357,optionRight,70,4675,2,43,0,43,0,1,,,,,,,,,,,,,,,,,,,,,,,,,,,,,,,,,,,,,,,
,,,,,,,,2023-08-16_08h49.36.979,HF_wild_card,2022.2.4,Win32,60.09615385,599c578d8acf1e0001599633,64d2fd46c836a06233681665,64dc7f7830f891f885739ac1,,,,,,,,,,,,,,,,,,,,,,,,,,1,0,1,0,1,,,,,,,,,,,,,,,,,,,,,,,,,,,,,,,,,,
,,,,,,,,2023-08-16_08h49.36.979,HF_wild_card,2022.2.4,Win32,60.09615385,599c578d8acf1e0001599633,64d2fd46c836a06233681665,64dc7f7830f891f885739ac1,,,,,,,decisionTrl,resources/DP.BMP,resources/DY.BMP,Door1,0.330555556,0.0125,1,0,0,2.0598,optionRight,30,4705,3,0,0,0,0,1,,,,,,,,,,,,,,,,,,,,,,,,,,,,,,,,,,,,,,,
,,,,,,,,2023-08-16_08h49.36.979,HF_wild_card,2022.2.4,Win32,60.09615385,599c578d8acf1e0001599633,64d2fd46c836a06233681665,64dc7f7830f891f885739ac1,,,,,,,decisionTrl,resources/DBN.BMP,resources/DB.BMP,Door4,-0.289583333,-0.002083333,1,0,0,1.2665,optionLeft,80,4785,3,1,0,1,0,1,,,,,,,,,,,,,,,,,,,,,,,,,,,,,,,,,,,,,,,
,,,,,,,,2023-08-16_08h49.36.979,HF_wild_card,2022.2.4,Win32,60.09615385,599c578d8acf1e0001599633,64d2fd46c836a06233681665,64dc7f7830f891f885739ac1,,,,,,,decisionTrl,resources/DG.BMP,resources/DB.BMP,Door3,0.368055556,-0.043055556,1,0,0,0.8993,optionRight,70,4855,3,2,0,2,0,1,,,,,,,,,,,,,,,,,,,,,,,,,,,,,,,,,,,,,,,
,,,,,,,,2023-08-16_08h49.36.979,HF_wild_card,2022.2.4,Win32,60.09615385,599c578d8acf1e0001599633,64d2fd46c836a06233681665,64dc7f7830f891f885739ac1,,,,,,,ctch,resources/DY.BMP,resources/DBN.BMP,Door4,0.373611111,-0.011111111,1,0,0,0.9328,optionRight,80,4935,3,3,0,3,0,1,,,,,,,,,,,,,,,,,,,,,,,,,,,,,,,,,,,,,,,
,,,,,,,,2023-08-16_08h49.36.979,HF_wild_card,2022.2.4,Win32,60.09615385,599c578d8acf1e0001599633,64d2fd46c836a06233681665,64dc7f7830f891f885739ac1,,,,,,,decisionTrl,resources/DBN.BMP,resources/DG.BMP,Door4,-0.299305556,0.049305556,1,0,0,1.085,optionLeft,60,4995,3,4,0,4,0,1,,,,,,,,,,,,,,,,,,,,,,,,,,,,,,,,,,,,,,,
,,,,,,,,2023-08-16_08h49.36.979,HF_wild_card,2022.2.4,Win32,60.09615385,599c578d8acf1e0001599633,64d2fd46c836a06233681665,64dc7f7830f891f885739ac1,,,,,,,sngl,resources/DY.BMP,resources/Empty.png,Door1,-0.249305556,0.040972222,1,0,0,0.8661,optionLeft,30,5025,3,5,0,5,0,1,,,,,,,,,,,,,,,,,,,,,,,,,,,,,,,,,,,,,,,
,,,,,,,,2023-08-16_08h49.36.979,HF_wild_card,2022.2.4,Win32,60.09615385,599c578d8acf1e0001599633,64d2fd46c836a06233681665,64dc7f7830f891f885739ac1,,,,,,,ctch,resources/DB.BMP,resources/DP.BMP,Door3,-0.302083333,0.044444444,1,0,0,1.0681,optionLeft,70,5095,3,6,0,6,0,1,,,,,,,,,,,,,,,,,,,,,,,,,,,,,,,,,,,,,,,
,,,,,,,,2023-08-16_08h49.36.979,HF_wild_card,2022.2.4,Win32,60.09615385,599c578d8acf1e0001599633,64d2fd46c836a06233681665,64dc7f7830f891f885739ac1,,,,,,,ctch,resources/DP.BMP,resources/DB.BMP,Door3,0.322916667,-0.026388889,1,0,0,0.9691,optionRight,70,5165,3,7,0,7,0,1,,,,,,,,,,,,,,,,,,,,,,,,,,,,,,,,,,,,,,,
,,,,,,,,2023-08-16_08h49.36.979,HF_wild_card,2022.2.4,Win32,60.09615385,599c578d8acf1e0001599633,64d2fd46c836a06233681665,64dc7f7830f891f885739ac1,,,,,,,sngl,resources/DG.BMP,resources/Empty.png,WildCard_NonEx,-0.228472222,0.033333333,1,0,0,0.8992,optionLeft,55,5220,3,8,0,8,0,1,,,,,,,,,,,,,,,,,,,,,,,,,,,,,,,,,,,,,,,
,,,,,,,,2023-08-16_08h49.36.979,HF_wild_card,2022.2.4,Win32,60.09615385,599c578d8acf1e0001599633,64d2fd46c836a06233681665,64dc7f7830f891f885739ac1,,,,,,,sngl,resources/DB.BMP,resources/Empty.png,Door3,-0.253472222,0.042361111,1,0,0,0.8153,optionLeft,70,5290,3,9,0,9,0,1,,,,,,,,,,,,,,,,,,,,,,,,,,,,,,,,,,,,,,,
,,,,,,,,2023-08-16_08h49.36.979,HF_wild_card,2022.2.4,Win32,60.09615385,599c578d8acf1e0001599633,64d2fd46c836a06233681665,64dc7f7830f891f885739ac1,,,,,,,decisionTrl,resources/DB.BMP,resources/DBN.BMP,Door4,0.28125,0.018055556,1,0,0,0.834,optionRight,80,5370,3,10,0,10,0,1,,,,,,,,,,,,,,,,,,,,,,,,,,,,,,,,,,,,,,,
,,,,,,,,2023-08-16_08h49.36.979,HF_wild_card,2022.2.4,Win32,60.09615385,599c578d8acf1e0001599633,64d2fd46c836a06233681665,64dc7f7830f891f885739ac1,,,,,,,decisionTrl,resources/DB.BMP,resources/DBN.BMP,Door4,0.251388889,0.004861111,1,0,0,0.852,optionRight,60,5430,3,11,0,11,0,1,,,,,,,,,,,,,,,,,,,,,,,,,,,,,,,,,,,,,,,
,,,,,,,,2023-08-16_08h49.36.979,HF_wild_card,2022.2.4,Win32,60.09615385,599c578d8acf1e0001599633,64d2fd46c836a06233681665,64dc7f7830f891f885739ac1,,,,,,,sngl,resources/DBN.BMP,resources/Empty.png,Door4,-0.230555556,0.036111111,1,0,0,0.8016,optionLeft,80,5510,3,12,0,12,0,1,,,,,,,,,,,,,,,,,,,,,,,,,,,,,,,,,,,,,,,
,,,,,,,,2023-08-16_08h49.36.979,HF_wild_card,2022.2.4,Win32,60.09615385,599c578d8acf1e0001599633,64d2fd46c836a06233681665,64dc7f7830f891f885739ac1,,,,,,,decisionTrl,resources/DY.BMP,resources/DG.BMP,WildCard_NonEx,0.302083333,0.004861111,1,0,0,2.1535,optionRight,55,5565,3,13,0,13,0,1,,,,,,,,,,,,,,,,,,,,,,,,,,,,,,,,,,,,,,,
,,,,,,,,2023-08-16_08h49.36.979,HF_wild_card,2022.2.4,Win32,60.09615385,599c578d8acf1e0001599633,64d2fd46c836a06233681665,64dc7f7830f891f885739ac1,,,,,,,sngl,resources/DG.BMP,resources/Empty.png,WildCard_NonEx,-0.219444444,0.030555556,1,0,0,0.6991,optionLeft,45,5610,3,14,0,14,0,1,,,,,,,,,,,,,,,,,,,,,,,,,,,,,,,,,,,,,,,
,,,,,,,,2023-08-16_08h49.36.979,HF_wild_card,2022.2.4,Win32,60.09615385,599c578d8acf1e0001599633,64d2fd46c836a06233681665,64dc7f7830f891f885739ac1,,,,,,,sngl,resources/Empty.png,resources/DG.BMP,WildCard_NonEx,0.258333333,0.002777778,1,0,0,0.8522,optionRight,55,5665,3,15,0,15,0,1,,,,,,,,,,,,,,,,,,,,,,,,,,,,,,,,,,,,,,,
,,,,,,,,2023-08-16_08h49.36.979,HF_wild_card,2022.2.4,Win32,60.09615385,599c578d8acf1e0001599633,64d2fd46c836a06233681665,64dc7f7830f891f885739ac1,,,,,,,sngl,resources/Empty.png,resources/DB.BMP,Door3,0.238888889,0.003472222,1,0,0,0.95,optionRight,70,5735,3,16,0,16,0,1,,,,,,,,,,,,,,,,,,,,,,,,,,,,,,,,,,,,,,,
,,,,,,,,2023-08-16_08h49.36.979,HF_wild_card,2022.2.4,Win32,60.09615385,599c578d8acf1e0001599633,64d2fd46c836a06233681665,64dc7f7830f891f885739ac1,,,,,,,decisionTrl,resources/DP.BMP,resources/DY.BMP,Door1,0.301388889,0.029166667,1,0,0,1.3167,optionRight,30,5765,3,17,0,17,0,1,,,,,,,,,,,,,,,,,,,,,,,,,,,,,,,,,,,,,,,
,,,,,,,,2023-08-16_08h49.36.979,HF_wild_card,2022.2.4,Win32,60.09615385,599c578d8acf1e0001599633,64d2fd46c836a06233681665,64dc7f7830f891f885739ac1,,,,,,,decisionTrl,resources/DB.BMP,resources/DBN.BMP,Door4,0.29375,0.042361111,1,0,0,1.1477,optionRight,80,5845,3,18,0,18,0,1,,,,,,,,,,,,,,,,,,,,,,,,,,,,,,,,,,,,,,,
,,,,,,,,2023-08-16_08h49.36.979,HF_wild_card,2022.2.4,Win32,60.09615385,599c578d8acf1e0001599633,64d2fd46c836a06233681665,64dc7f7830f891f885739ac1,,,,,,,sngl,resources/Empty.png,resources/DP.BMP,Door2,0.263194444,0.020833333,1,0,0,1.1502,optionRight,20,5865,3,19,0,19,0,1,,,,,,,,,,,,,,,,,,,,,,,,,,,,,,,,,,,,,,,
,,,,,,,,2023-08-16_08h49.36.979,HF_wild_card,2022.2.4,Win32,60.09615385,599c578d8acf1e0001599633,64d2fd46c836a06233681665,64dc7f7830f891f885739ac1,,,,,,,decisionTrl,resources/DG.BMP,resources/DBN.BMP,Door4,0.268055556,0.050694444,1,0,0,1.1854,optionRight,60,5925,3,20,0,20,0,1,,,,,,,,,,,,,,,,,,,,,,,,,,,,,,,,,,,,,,,
,,,,,,,,2023-08-16_08h49.36.979,HF_wild_card,2022.2.4,Win32,60.09615385,599c578d8acf1e0001599633,64d2fd46c836a06233681665,64dc7f7830f891f885739ac1,,,,,,,sngl,resources/DP.BMP,resources/Empty.png,Door2,-0.215277778,0.024305556,1,0,0,0.9474,optionLeft,40,5965,3,21,0,21,0,1,,,,,,,,,,,,,,,,,,,,,,,,,,,,,,,,,,,,,,,
,,,,,,,,2023-08-16_08h49.36.979,HF_wild_card,2022.2.4,Win32,60.09615385,599c578d8acf1e0001599633,64d2fd46c836a06233681665,64dc7f7830f891f885739ac1,,,,,,,sngl,resources/Empty.png,resources/DG.BMP,WildCard_NonEx,0.225,0.023611111,1,0,0,1.2144,optionRight,45,6010,3,22,0,22,0,1,,,,,,,,,,,,,,,,,,,,,,,,,,,,,,,,,,,,,,,
,,,,,,,,2023-08-16_08h49.36.979,HF_wild_card,2022.2.4,Win32,60.09615385,599c578d8acf1e0001599633,64d2fd46c836a06233681665,64dc7f7830f891f885739ac1,,,,,,,decisionTrl,resources/DBN.BMP,resources/DB.BMP,Door4,-0.246527778,0.036805556,1,0,0,1.8032,optionLeft,80,6090,3,23,0,23,0,1,,,,,,,,,,,,,,,,,,,,,,,,,,,,,,,,,,,,,,,
,,,,,,,,2023-08-16_08h49.36.979,HF_wild_card,2022.2.4,Win32,60.09615385,599c578d8acf1e0001599633,64d2fd46c836a06233681665,64dc7f7830f891f885739ac1,,,,,,,decisionTrl,resources/DB.BMP,resources/DBN.BMP,Door4,0.260416667,0.03125,1,0,0,0.9492,optionRight,80,6170,3,24,0,24,0,1,,,,,,,,,,,,,,,,,,,,,,,,,,,,,,,,,,,,,,,
,,,,,,,,2023-08-16_08h49.36.979,HF_wild_card,2022.2.4,Win32,60.09615385,599c578d8acf1e0001599633,64d2fd46c836a06233681665,64dc7f7830f891f885739ac1,,,,,,,decisionTrl,resources/DY.BMP,resources/DP.BMP,Door1,-0.277777778,0.020833333,1,0,0,3.1826,optionLeft,30,6200,3,25,0,25,0,1,,,,,,,,,,,,,,,,,,,,,,,,,,,,,,,,,,,,,,,
,,,,,,,,2023-08-16_08h49.36.979,HF_wild_card,2022.2.4,Win32,60.09615385,599c578d8acf1e0001599633,64d2fd46c836a06233681665,64dc7f7830f891f885739ac1,,,,,,,decisionTrl,resources/DY.BMP,resources/DP.BMP,Door2,0.284027778,0.013888889,1,0,0,1.3665,optionRight,40,6240,3,26,0,26,0,1,,,,,,,,,,,,,,,,,,,,,,,,,,,,,,,,,,,,,,,
,,,,,,,,2023-08-16_08h49.36.979,HF_wild_card,2022.2.4,Win32,60.09615385,599c578d8acf1e0001599633,64d2fd46c836a06233681665,64dc7f7830f891f885739ac1,,,,,,,ctch,resources/DP.BMP,resources/DB.BMP,Door3,0.333333333,0.006944444,1,0,0,1.3662,optionRight,70,6310,3,27,0,27,0,1,,,,,,,,,,,,,,,,,,,,,,,,,,,,,,,,,,,,,,,
,,,,,,,,2023-08-16_08h49.36.979,HF_wild_card,2022.2.4,Win32,60.09615385,599c578d8acf1e0001599633,64d2fd46c836a06233681665,64dc7f7830f891f885739ac1,,,,,,,decisionTrl,resources/DG.BMP,resources/DY.BMP,WildCard_NonEx,-0.328472222,0.049305556,1,0,0,1.8315,optionLeft,55,6365,3,28,0,28,0,1,,,,,,,,,,,,,,,,,,,,,,,,,,,,,,,,,,,,,,,
,,,,,,,,2023-08-16_08h49.36.979,HF_wild_card,2022.2.4,Win32,60.09615385,599c578d8acf1e0001599633,64d2fd46c836a06233681665,64dc7f7830f891f885739ac1,,,,,,,ctch,resources/DBN.BMP,resources/DY.BMP,Door4,-0.280555556,0.038194444,1,0,0,1.1333,optionLeft,60,6425,3,29,0,29,0,1,,,,,,,,,,,,,,,,,,,,,,,,,,,,,,,,,,,,,,,
,,,,,,,,2023-08-16_08h49.36.979,HF_wild_card,2022.2.4,Win32,60.09615385,599c578d8acf1e0001599633,64d2fd46c836a06233681665,64dc7f7830f891f885739ac1,,,,,,,decisionTrl,resources/DBN.BMP,resources/DB.BMP,Door4,-0.351388889,0.065277778,1,0,0,1.3661,optionLeft,60,6485,3,30,0,30,0,1,,,,,,,,,,,,,,,,,,,,,,,,,,,,,,,,,,,,,,,
,,,,,,,,2023-08-16_08h49.36.979,HF_wild_card,2022.2.4,Win32,60.09615385,599c578d8acf1e0001599633,64d2fd46c836a06233681665,64dc7f7830f891f885739ac1,,,,,,,sngl,resources/Empty.png,resources/DY.BMP,Door1,0.241666667,0.019444444,1,0,0,1.2185,optionRight,30,6515,3,31,0,31,0,1,,,,,,,,,,,,,,,,,,,,,,,,,,,,,,,,,,,,,,,
,,,,,,,,2023-08-16_08h49.36.979,HF_wild_card,2022.2.4,Win32,60.09615385,599c578d8acf1e0001599633,64d2fd46c836a06233681665,64dc7f7830f891f885739ac1,,,,,,,decisionTrl,resources/DB.BMP,resources/DG.BMP,Door3,-0.29375,0.045833333,1,0,0,2.0511,optionLeft,70,6585,3,32,0,32,0,1,,,,,,,,,,,,,,,,,,,,,,,,,,,,,,,,,,,,,,,
,,,,,,,,2023-08-16_08h49.36.979,HF_wild_card,2022.2.4,Win32,60.09615385,599c578d8acf1e0001599633,64d2fd46c836a06233681665,64dc7f7830f891f885739ac1,,,,,,,decisionTrl,resources/DP.BMP,resources/DY.BMP,Door2,-0.395138889,0.050694444,1,0,0,1.9985,optionLeft,20,6605,3,33,0,33,0,1,,,,,,,,,,,,,,,,,,,,,,,,,,,,,,,,,,,,,,,
,,,,,,,,2023-08-16_08h49.36.979,HF_wild_card,2022.2.4,Win32,60.09615385,599c578d8acf1e0001599633,64d2fd46c836a06233681665,64dc7f7830f891f885739ac1,,,,,,,decisionTrl,resources/DY.BMP,resources/DP.BMP,Door1,-0.270138889,0.030555556,1,0,0,1.566,optionLeft,30,6635,3,34,0,34,0,1,,,,,,,,,,,,,,,,,,,,,,,,,,,,,,,,,,,,,,,
,,,,,,,,2023-08-16_08h49.36.979,HF_wild_card,2022.2.4,Win32,60.09615385,599c578d8acf1e0001599633,64d2fd46c836a06233681665,64dc7f7830f891f885739ac1,,,,,,,ctch,resources/DY.BMP,resources/DBN.BMP,Door4,0.334027778,0.056944444,1,0,0,1.8847,optionRight,60,6695,3,35,0,35,0,1,,,,,,,,,,,,,,,,,,,,,,,,,,,,,,,,,,,,,,,
,,,,,,,,2023-08-16_08h49.36.979,HF_wild_card,2022.2.4,Win32,60.09615385,599c578d8acf1e0001599633,64d2fd46c836a06233681665,64dc7f7830f891f885739ac1,,,,,,,decisionTrl,resources/DG.BMP,resources/DP.BMP,WildCard_NonEx,-0.294444444,0.034027778,1,0,0,2.9875,optionLeft,45,6740,3,36,0,36,0,1,,,,,,,,,,,,,,,,,,,,,,,,,,,,,,,,,,,,,,,
,,,,,,,,2023-08-16_08h49.36.979,HF_wild_card,2022.2.4,Win32,60.09615385,599c578d8acf1e0001599633,64d2fd46c836a06233681665,64dc7f7830f891f885739ac1,,,,,,,ctch,resources/DBN.BMP,resources/DY.BMP,Door4,-0.346527778,0.071527778,1,0,0,1.2694,optionLeft,60,6800,3,37,0,37,0,1,,,,,,,,,,,,,,,,,,,,,,,,,,,,,,,,,,,,,,,
,,,,,,,,2023-08-16_08h49.36.979,HF_wild_card,2022.2.4,Win32,60.09615385,599c578d8acf1e0001599633,64d2fd46c836a06233681665,64dc7f7830f891f885739ac1,,,,,,,decisionTrl,resources/DY.BMP,resources/DP.BMP,Door1,-0.257638889,0.043055556,1,0,0,1.6676,optionLeft,30,6830,3,38,0,38,0,1,,,,,,,,,,,,,,,,,,,,,,,,,,,,,,,,,,,,,,,
,,,,,,,,2023-08-16_08h49.36.979,HF_wild_card,2022.2.4,Win32,60.09615385,599c578d8acf1e0001599633,64d2fd46c836a06233681665,64dc7f7830f891f885739ac1,,,,,,,ctch,resources/DB.BMP,resources/DP.BMP,Door3,-0.302083333,0.04375,1,0,0,1.7167,optionLeft,70,6900,3,39,0,39,0,1,,,,,,,,,,,,,,,,,,,,,,,,,,,,,,,,,,,,,,,
,,,,,,,,2023-08-16_08h49.36.979,HF_wild_card,2022.2.4,Win32,60.09615385,599c578d8acf1e0001599633,64d2fd46c836a06233681665,64dc7f7830f891f885739ac1,,,,,,,sngl,resources/Empty.png,resources/DBN.BMP,Door4,0.299305556,0.013888889,1,0,0,0.8351,optionRight,60,6960,3,40,0,40,0,1,,,,,,,,,,,,,,,,,,,,,,,,,,,,,,,,,,,,,,,
,,,,,,,,2023-08-16_08h49.36.979,HF_wild_card,2022.2.4,Win32,60.09615385,599c578d8acf1e0001599633,64d2fd46c836a06233681665,64dc7f7830f891f885739ac1,,,,,,,decisionTrl,resources/DBN.BMP,resources/DB.BMP,Door4,-0.298611111,0.063888889,1,0,0,1.097,optionLeft,60,7020,3,41,0,41,0,1,,,,,,,,,,,,,,,,,,,,,,,,,,,,,,,,,,,,,,,
,,,,,,,,2023-08-16_08h49.36.979,HF_wild_card,2022.2.4,Win32,60.09615385,599c578d8acf1e0001599633,64d2fd46c836a06233681665,64dc7f7830f891f885739ac1,,,,,,,decisionTrl,resources/DP.BMP,resources/DY.BMP,Door1,0.336111111,0.015972222,1,0,0,1.9837,optionRight,30,7050,3,42,0,42,0,1,,,,,,,,,,,,,,,,,,,,,,,,,,,,,,,,,,,,,,,
,,,,,,,,2023-08-16_08h49.36.979,HF_wild_card,2022.2.4,Win32,60.09615385,599c578d8acf1e0001599633,64d2fd46c836a06233681665,64dc7f7830f891f885739ac1,,,,,,,decisionTrl,resources/DP.BMP,resources/DG.BMP,WildCard_NonEx,0.313194444,0.018055556,1,0,0,1.4171,optionRight,45,7095,3,43,0,43,0,1,,,,,,,,,,,,,,,,,,,,,,,,,,,,,,,,,,,,,,,
,,,,,,,,2023-08-16_08h49.36.979,HF_wild_card,2022.2.4,Win32,60.09615385,599c578d8acf1e0001599633,64d2fd46c836a06233681665,64dc7f7830f891f885739ac1,,,,,,,,,,,,,,,,,,,,,,,,,,2,0,2,0,1,,,,,,,,,,,,,,,,,,,,,,,,,,,,,,,,,,
,,,,,,,,2023-08-16_08h49.36.979,HF_wild_card,2022.2.4,Win32,60.09615385,599c578d8acf1e0001599633,64d2fd46c836a06233681665,64dc7f7830f891f885739ac1,,,,,,,sngl,resources/DY.BMP,resources/Empty.png,Door1,-0.28125,0.057638889,1,0,0,1.0111,optionLeft,30,7125,4,0,0,0,0,1,,,,,,,,,,,,,,,,,,,,,,,,,,,,,,,,,,,,,,,
,,,,,,,,2023-08-16_08h49.36.979,HF_wild_card,2022.2.4,Win32,60.09615385,599c578d8acf1e0001599633,64d2fd46c836a06233681665,64dc7f7830f891f885739ac1,,,,,,,sngl,resources/DP.BMP,resources/Empty.png,Door2,-0.2375,0.036805556,1,0,0,0.7834,optionLeft,20,7145,4,1,0,1,0,1,,,,,,,,,,,,,,,,,,,,,,,,,,,,,,,,,,,,,,,
,,,,,,,,2023-08-16_08h49.36.979,HF_wild_card,2022.2.4,Win32,60.09615385,599c578d8acf1e0001599633,64d2fd46c836a06233681665,64dc7f7830f891f885739ac1,,,,,,,ctch,resources/DP.BMP,resources/DB.BMP,Door3,0.323611111,-0.013888889,1,0,0,1.4023,optionRight,70,7215,4,2,0,2,0,1,,,,,,,,,,,,,,,,,,,,,,,,,,,,,,,,,,,,,,,
,,,,,,,,2023-08-16_08h49.36.979,HF_wild_card,2022.2.4,Win32,60.09615385,599c578d8acf1e0001599633,64d2fd46c836a06233681665,64dc7f7830f891f885739ac1,,,,,,,decisionTrl,resources/DP.BMP,resources/DY.BMP,Door1,0.304861111,-0.017361111,1,0,0,1.2665,optionRight,30,7245,4,3,0,3,0,1,,,,,,,,,,,,,,,,,,,,,,,,,,,,,,,,,,,,,,,
,,,,,,,,2023-08-16_08h49.36.979,HF_wild_card,2022.2.4,Win32,60.09615385,599c578d8acf1e0001599633,64d2fd46c836a06233681665,64dc7f7830f891f885739ac1,,,,,,,sngl,resources/Empty.png,resources/DR.BMP,WildCard_Ex,0.275,0.002777778,1,0,0,2.4007,optionRight,55,7300,4,4,0,4,0,1,,,,,,,,,,,,,,,,,,,,,,,,,,,,,,,,,,,,,,,
,,,,,,,,2023-08-16_08h49.36.979,HF_wild_card,2022.2.4,Win32,60.09615385,599c578d8acf1e0001599633,64d2fd46c836a06233681665,64dc7f7830f891f885739ac1,,,,,,,sngl,resources/Empty.png,resources/DP.BMP,Door2,0.279166667,0.004861111,1,0,0,1.3856,optionRight,40,7340,4,5,0,5,0,1,,,,,,,,,,,,,,,,,,,,,,,,,,,,,,,,,,,,,,,
,,,,,,,,2023-08-16_08h49.36.979,HF_wild_card,2022.2.4,Win32,60.09615385,599c578d8acf1e0001599633,64d2fd46c836a06233681665,64dc7f7830f891f885739ac1,,,,,,,decisionTrl,resources/DBN.BMP,resources/DB.BMP,Door3,0.246527778,-0.008333333,1,0,0,2.2818,optionRight,70,7410,4,6,0,6,0,1,,,,,,,,,,,,,,,,,,,,,,,,,,,,,,,,,,,,,,,
,,,,,,,,2023-08-16_08h49.36.979,HF_wild_card,2022.2.4,Win32,60.09615385,599c578d8acf1e0001599633,64d2fd46c836a06233681665,64dc7f7830f891f885739ac1,,,,,,,ctch,resources/DBN.BMP,resources/DY.BMP,Door4,-0.252083333,0.045138889,1,0,0,1.2307,optionLeft,60,7470,4,7,0,7,0,1,,,,,,,,,,,,,,,,,,,,,,,,,,,,,,,,,,,,,,,
,,,,,,,,2023-08-16_08h49.36.979,HF_wild_card,2022.2.4,Win32,60.09615385,599c578d8acf1e0001599633,64d2fd46c836a06233681665,64dc7f7830f891f885739ac1,,,,,,,ctch,resources/DB.BMP,resources/DP.BMP,Door3,-0.291666667,0.053472222,1,0,0,1.9838,optionLeft,70,7540,4,8,0,8,0,1,,,,,,,,,,,,,,,,,,,,,,,,,,,,,,,,,,,,,,,
,,,,,,,,2023-08-16_08h49.36.979,HF_wild_card,2022.2.4,Win32,60.09615385,599c578d8acf1e0001599633,64d2fd46c836a06233681665,64dc7f7830f891f885739ac1,,,,,,,sngl,resources/Empty.png,resources/DBN.BMP,Door4,0.28125,0.015972222,1,0,0,0.9497,optionRight,80,7620,4,9,0,9,0,1,,,,,,,,,,,,,,,,,,,,,,,,,,,,,,,,,,,,,,,
,,,,,,,,2023-08-16_08h49.36.979,HF_wild_card,2022.2.4,Win32,60.09615385,599c578d8acf1e0001599633,64d2fd46c836a06233681665,64dc7f7830f891f885739ac1,,,,,,,decisionTrl,resources/DY.BMP,resources/DP.BMP,Door2,0.294444444,0.014583333,1,0,0,1.7032,optionRight,40,7660,4,10,0,10,0,1,,,,,,,,,,,,,,,,,,,,,,,,,,,,,,,,,,,,,,,
,,,,,,,,2023-08-16_08h49.36.979,HF_wild_card,2022.2.4,Win32,60.09615385,599c578d8acf1e0001599633,64d2fd46c836a06233681665,64dc7f7830f891f885739ac1,,,,,,,sngl,resources/Empty.png,resources/DY.BMP,Door1,0.313194444,0.011805556,1,0,0,1.1187,optionRight,30,7690,4,11,0,11,0,1,,,,,,,,,,,,,,,,,,,,,,,,,,,,,,,,,,,,,,,
,,,,,,,,2023-08-16_08h49.36.979,HF_wild_card,2022.2.4,Win32,60.09615385,599c578d8acf1e0001599633,64d2fd46c836a06233681665,64dc7f7830f891f885739ac1,,,,,,,decisionTrl,resources/DP.BMP,resources/DY.BMP,Door2,-0.393055556,0.065972222,1,0,0,2.2171,optionLeft,40,7730,4,12,0,12,0,1,,,,,,,,,,,,,,,,,,,,,,,,,,,,,,,,,,,,,,,
,,,,,,,,2023-08-16_08h49.36.979,HF_wild_card,2022.2.4,Win32,60.09615385,599c578d8acf1e0001599633,64d2fd46c836a06233681665,64dc7f7830f891f885739ac1,,,,,,,decisionTrl,resources/DY.BMP,resources/DR.BMP,WildCard_Ex,0.260416667,-0.009722222,1,0,0,1.8699,optionRight,45,7775,4,13,0,13,0,1,,,,,,,,,,,,,,,,,,,,,,,,,,,,,,,,,,,,,,,
,,,,,,,,2023-08-16_08h49.36.979,HF_wild_card,2022.2.4,Win32,60.09615385,599c578d8acf1e0001599633,64d2fd46c836a06233681665,64dc7f7830f891f885739ac1,,,,,,,decisionTrl,resources/DP.BMP,resources/DY.BMP,Door2,-0.373611111,0.052083333,1,0,0,2.1313,optionLeft,20,7795,4,14,0,14,0,1,,,,,,,,,,,,,,,,,,,,,,,,,,,,,,,,,,,,,,,
,,,,,,,,2023-08-16_08h49.36.979,HF_wild_card,2022.2.4,Win32,60.09615385,599c578d8acf1e0001599633,64d2fd46c836a06233681665,64dc7f7830f891f885739ac1,,,,,,,ctch,resources/DY.BMP,resources/DBN.BMP,Door4,0.3,0.066666667,1,0,0,2.1868,optionRight,80,7875,4,15,0,15,0,1,,,,,,,,,,,,,,,,,,,,,,,,,,,,,,,,,,,,,,,
,,,,,,,,2023-08-16_08h49.36.979,HF_wild_card,2022.2.4,Win32,60.09615385,599c578d8acf1e0001599633,64d2fd46c836a06233681665,64dc7f7830f891f885739ac1,,,,,,,sngl,resources/DR.BMP,resources/Empty.png,WildCard_Ex,-0.316666667,0.045138889,1,0,0,0.8517,optionLeft,55,7930,4,16,0,16,0,1,,,,,,,,,,,,,,,,,,,,,,,,,,,,,,,,,,,,,,,
,,,,,,,,2023-08-16_08h49.36.979,HF_wild_card,2022.2.4,Win32,60.09615385,599c578d8acf1e0001599633,64d2fd46c836a06233681665,64dc7f7830f891f885739ac1,,,,,,,ctch,resources/DBN.BMP,resources/DY.BMP,Door4,-0.229166667,0.054861111,1,0,0,2.032,optionLeft,60,7990,4,17,0,17,0,1,,,,,,,,,,,,,,,,,,,,,,,,,,,,,,,,,,,,,,,
,,,,,,,,2023-08-16_08h49.36.979,HF_wild_card,2022.2.4,Win32,60.09615385,599c578d8acf1e0001599633,64d2fd46c836a06233681665,64dc7f7830f891f885739ac1,,,,,,,decisionTrl,resources/DB.BMP,resources/DR.BMP,Door3,-0.265972222,0.050694444,1,0,0,1.2681,optionLeft,70,8060,4,18,0,18,0,1,,,,,,,,,,,,,,,,,,,,,,,,,,,,,,,,,,,,,,,
,,,,,,,,2023-08-16_08h49.36.979,HF_wild_card,2022.2.4,Win32,60.09615385,599c578d8acf1e0001599633,64d2fd46c836a06233681665,64dc7f7830f891f885739ac1,,,,,,,sngl,resources/DBN.BMP,resources/Empty.png,Door4,-0.265277778,0.0625,1,0,0,0.9663,optionLeft,60,8120,4,19,0,19,0,1,,,,,,,,,,,,,,,,,,,,,,,,,,,,,,,,,,,,,,,
,,,,,,,,2023-08-16_08h49.36.979,HF_wild_card,2022.2.4,Win32,60.09615385,599c578d8acf1e0001599633,64d2fd46c836a06233681665,64dc7f7830f891f885739ac1,,,,,,,decisionTrl,resources/DBN.BMP,resources/DB.BMP,Door4,-0.233333333,0.040972222,1,0,0,1.0312,optionLeft,80,8200,4,20,0,20,0,1,,,,,,,,,,,,,,,,,,,,,,,,,,,,,,,,,,,,,,,
,,,,,,,,2023-08-16_08h49.36.979,HF_wild_card,2022.2.4,Win32,60.09615385,599c578d8acf1e0001599633,64d2fd46c836a06233681665,64dc7f7830f891f885739ac1,,,,,,,decisionTrl,resources/DBN.BMP,resources/DB.BMP,Door4,-0.260416667,0.043055556,1,0,0,0.9489,optionLeft,60,8260,4,21,0,21,0,1,,,,,,,,,,,,,,,,,,,,,,,,,,,,,,,,,,,,,,,
,,,,,,,,2023-08-16_08h49.36.979,HF_wild_card,2022.2.4,Win32,60.09615385,599c578d8acf1e0001599633,64d2fd46c836a06233681665,64dc7f7830f891f885739ac1,,,,,,,decisionTrl,resources/DP.BMP,resources/DR.BMP,WildCard_Ex,0.242361111,0.025694444,1,0,0,2.535,optionRight,55,8315,4,22,0,22,0,1,,,,,,,,,,,,,,,,,,,,,,,,,,,,,,,,,,,,,,,
,,,,,,,,2023-08-16_08h49.36.979,HF_wild_card,2022.2.4,Win32,60.09615385,599c578d8acf1e0001599633,64d2fd46c836a06233681665,64dc7f7830f891f885739ac1,,,,,,,decisionTrl,resources/DBN.BMP,resources/DR.BMP,Door4,-0.400694444,0.079166667,1,0,0,2.3697,optionLeft,60,8375,4,23,0,23,0,1,,,,,,,,,,,,,,,,,,,,,,,,,,,,,,,,,,,,,,,
,,,,,,,,2023-08-16_08h49.36.979,HF_wild_card,2022.2.4,Win32,60.09615385,599c578d8acf1e0001599633,64d2fd46c836a06233681665,64dc7f7830f891f885739ac1,,,,,,,decisionTrl,resources/DB.BMP,resources/DBN.BMP,Door4,0.265972222,0.034722222,1,0,0,1.6356,optionRight,80,8455,4,24,0,24,0,1,,,,,,,,,,,,,,,,,,,,,,,,,,,,,,,,,,,,,,,
,,,,,,,,2023-08-16_08h49.36.979,HF_wild_card,2022.2.4,Win32,60.09615385,599c578d8acf1e0001599633,64d2fd46c836a06233681665,64dc7f7830f891f885739ac1,,,,,,,sngl,resources/DR.BMP,resources/Empty.png,WildCard_Ex,-0.215972222,0.04375,1,0,0,0.8355,optionLeft,45,8500,4,25,0,25,0,1,,,,,,,,,,,,,,,,,,,,,,,,,,,,,,,,,,,,,,,
,,,,,,,,2023-08-16_08h49.36.979,HF_wild_card,2022.2.4,Win32,60.09615385,599c578d8acf1e0001599633,64d2fd46c836a06233681665,64dc7f7830f891f885739ac1,,,,,,,decisionTrl,resources/DB.BMP,resources/DBN.BMP,Door4,0.252083333,0.051388889,1,0,0,1.5357,optionRight,60,8560,4,26,0,26,0,1,,,,,,,,,,,,,,,,,,,,,,,,,,,,,,,,,,,,,,,
,,,,,,,,2023-08-16_08h49.36.979,HF_wild_card,2022.2.4,Win32,60.09615385,599c578d8acf1e0001599633,64d2fd46c836a06233681665,64dc7f7830f891f885739ac1,,,,,,,decisionTrl,resources/DB.BMP,resources/DBN.BMP,Door4,0.270138889,0.075,1,0,0,0.9476,optionRight,60,8620,4,27,0,27,0,1,,,,,,,,,,,,,,,,,,,,,,,,,,,,,,,,,,,,,,,
,,,,,,,,2023-08-16_08h49.36.979,HF_wild_card,2022.2.4,Win32,60.09615385,599c578d8acf1e0001599633,64d2fd46c836a06233681665,64dc7f7830f891f885739ac1,,,,,,,decisionTrl,resources/DB.BMP,resources/DBN.BMP,Door4,0.309027778,0.061111111,1,0,0,1.0491,optionRight,80,8700,4,28,0,28,0,1,,,,,,,,,,,,,,,,,,,,,,,,,,,,,,,,,,,,,,,
,,,,,,,,2023-08-16_08h49.36.979,HF_wild_card,2022.2.4,Win32,60.09615385,599c578d8acf1e0001599633,64d2fd46c836a06233681665,64dc7f7830f891f885739ac1,,,,,,,decisionTrl,resources/DBN.BMP,resources/DB.BMP,Door4,-0.184722222,0.034027778,1,0,0,1.0017,optionLeft,60,8760,4,29,0,29,0,1,,,,,,,,,,,,,,,,,,,,,,,,,,,,,,,,,,,,,,,
,,,,,,,,2023-08-16_08h49.36.979,HF_wild_card,2022.2.4,Win32,60.09615385,599c578d8acf1e0001599633,64d2fd46c836a06233681665,64dc7f7830f891f885739ac1,,,,,,,decisionTrl,resources/DR.BMP,resources/DP.BMP,WildCard_Ex,-0.356944444,0.0625,1,0,0,2.6509,optionLeft,55,8815,4,30,0,30,0,1,,,,,,,,,,,,,,,,,,,,,,,,,,,,,,,,,,,,,,,
,,,,,,,,2023-08-16_08h49.36.979,HF_wild_card,2022.2.4,Win32,60.09615385,599c578d8acf1e0001599633,64d2fd46c836a06233681665,64dc7f7830f891f885739ac1,,,,,,,decisionTrl,resources/DY.BMP,resources/DP.BMP,Door1,-0.279166667,0.068055556,1,0,0,2.0165,optionLeft,30,8845,4,31,0,31,0,1,,,,,,,,,,,,,,,,,,,,,,,,,,,,,,,,,,,,,,,
,,,,,,,,2023-08-16_08h49.36.979,HF_wild_card,2022.2.4,Win32,60.09615385,599c578d8acf1e0001599633,64d2fd46c836a06233681665,64dc7f7830f891f885739ac1,,,,,,,ctch,resources/DP.BMP,resources/DB.BMP,Door3,0.321527778,0.047916667,1,0,0,1.5692,optionRight,70,8915,4,32,0,32,0,1,,,,,,,,,,,,,,,,,,,,,,,,,,,,,,,,,,,,,,,
,,,,,,,,2023-08-16_08h49.36.979,HF_wild_card,2022.2.4,Win32,60.09615385,599c578d8acf1e0001599633,64d2fd46c836a06233681665,64dc7f7830f891f885739ac1,,,,,,,decisionTrl,resources/DP.BMP,resources/DY.BMP,Door1,0.232638889,0,1,0,0,2.2174,optionRight,30,8945,4,33,0,33,0,1,,,,,,,,,,,,,,,,,,,,,,,,,,,,,,,,,,,,,,,
,,,,,,,,2023-08-16_08h49.36.979,HF_wild_card,2022.2.4,Win32,60.09615385,599c578d8acf1e0001599633,64d2fd46c836a06233681665,64dc7f7830f891f885739ac1,,,,,,,ctch,resources/DY.BMP,resources/DBN.BMP,Door4,0.315277778,0.038194444,1,0,0,1.2833,optionRight,60,9005,4,34,0,34,0,1,,,,,,,,,,,,,,,,,,,,,,,,,,,,,,,,,,,,,,,
,,,,,,,,2023-08-16_08h49.36.979,HF_wild_card,2022.2.4,Win32,60.09615385,599c578d8acf1e0001599633,64d2fd46c836a06233681665,64dc7f7830f891f885739ac1,,,,,,,decisionTrl,resources/DR.BMP,resources/DB.BMP,Door3,0.325,0.003472222,1,0,0,1.6499,optionRight,70,9075,4,35,0,35,0,1,,,,,,,,,,,,,,,,,,,,,,,,,,,,,,,,,,,,,,,
,,,,,,,,2023-08-16_08h49.36.979,HF_wild_card,2022.2.4,Win32,60.09615385,599c578d8acf1e0001599633,64d2fd46c836a06233681665,64dc7f7830f891f885739ac1,,,,,,,decisionTrl,resources/DR.BMP,resources/DBN.BMP,Door4,0.360416667,0.054166667,1,0,0,1.0163,optionRight,80,9155,4,36,0,36,0,1,,,,,,,,,,,,,,,,,,,,,,,,,,,,,,,,,,,,,,,
,,,,,,,,2023-08-16_08h49.36.979,HF_wild_card,2022.2.4,Win32,60.09615385,599c578d8acf1e0001599633,64d2fd46c836a06233681665,64dc7f7830f891f885739ac1,,,,,,,sngl,resources/Empty.png,resources/DB.BMP,Door3,0.334722222,0.009722222,1,0,0,0.9022,optionRight,70,9225,4,37,0,37,0,1,,,,,,,,,,,,,,,,,,,,,,,,,,,,,,,,,,,,,,,
,,,,,,,,2023-08-16_08h49.36.979,HF_wild_card,2022.2.4,Win32,60.09615385,599c578d8acf1e0001599633,64d2fd46c836a06233681665,64dc7f7830f891f885739ac1,,,,,,,sngl,resources/Empty.png,resources/DR.BMP,WildCard_Ex,0.279166667,0.011111111,1,0,0,1.1808,optionRight,45,9270,4,38,0,38,0,1,,,,,,,,,,,,,,,,,,,,,,,,,,,,,,,,,,,,,,,
,,,,,,,,2023-08-16_08h49.36.979,HF_wild_card,2022.2.4,Win32,60.09615385,599c578d8acf1e0001599633,64d2fd46c836a06233681665,64dc7f7830f891f885739ac1,,,,,,,decisionTrl,resources/DY.BMP,resources/DP.BMP,Door1,-0.297916667,0.077083333,1,0,0,2.4484,optionLeft,30,9300,4,39,0,39,0,1,,,,,,,,,,,,,,,,,,,,,,,,,,,,,,,,,,,,,,,
,,,,,,,,2023-08-16_08h49.36.979,HF_wild_card,2022.2.4,Win32,60.09615385,599c578d8acf1e0001599633,64d2fd46c836a06233681665,64dc7f7830f891f885739ac1,,,,,,,decisionTrl,resources/DY.BMP,resources/DP.BMP,Door1,-0.276388889,0.059027778,1,0,0,1.2192,optionLeft,30,9330,4,40,0,40,0,1,,,,,,,,,,,,,,,,,,,,,,,,,,,,,,,,,,,,,,,
,,,,,,,,2023-08-16_08h49.36.979,HF_wild_card,2022.2.4,Win32,60.09615385,599c578d8acf1e0001599633,64d2fd46c836a06233681665,64dc7f7830f891f885739ac1,,,,,,,ctch,resources/DB.BMP,resources/DP.BMP,Door3,-0.279166667,0.056944444,1,0,0,1.3839,optionLeft,70,9400,4,41,0,41,0,1,,,,,,,,,,,,,,,,,,,,,,,,,,,,,,,,,,,,,,,
,,,,,,,,2023-08-16_08h49.36.979,HF_wild_card,2022.2.4,Win32,60.09615385,599c578d8acf1e0001599633,64d2fd46c836a06233681665,64dc7f7830f891f885739ac1,,,,,,,sngl,resources/DB.BMP,resources/Empty.png,Door3,-0.2875,0.060416667,1,0,0,0.8853,optionLeft,70,9470,4,42,0,42,0,1,,,,,,,,,,,,,,,,,,,,,,,,,,,,,,,,,,,,,,,
,,,,,,,,2023-08-16_08h49.36.979,HF_wild_card,2022.2.4,Win32,60.09615385,599c578d8acf1e0001599633,64d2fd46c836a06233681665,64dc7f7830f891f885739ac1,,,,,,,decisionTrl,resources/DR.BMP,resources/DY.BMP,WildCard_Ex,-0.3,0.070138889,1,0,0,2.4348,optionLeft,45,9515,4,43,0,43,0,1,,,,,,,,,,,,,,,,,,,,,,,,,,,,,,,,,,,,,,,
,,,,,,,,2023-08-16_08h49.36.979,HF_wild_card,2022.2.4,Win32,60.09615385,599c578d8acf1e0001599633,64d2fd46c836a06233681665,64dc7f7830f891f885739ac1,,,,,,,,,,,,,,,,,,,,,,,,,,3,0,3,0,1,,,,,,,,,,,,,,,,,,,,,,,,,,,,,,,,,,
,,,,,,,,2023-08-16_08h49.36.979,HF_wild_card,2022.2.4,Win32,60.09615385,599c578d8acf1e0001599633,64d2fd46c836a06233681665,64dc7f7830f891f885739ac1,,,,,,,ctch,resources/DBN.BMP,resources/DY.BMP,Door4,-0.346527778,0.022916667,1,0,0,1.062,optionLeft,60,9575,5,0,0,0,0,1,,,,,,,,,,,,,,,,,,,,,,,,,,,,,,,,,,,,,,,
,,,,,,,,2023-08-16_08h49.36.979,HF_wild_card,2022.2.4,Win32,60.09615385,599c578d8acf1e0001599633,64d2fd46c836a06233681665,64dc7f7830f891f885739ac1,,,,,,,decisionTrl,resources/DB.BMP,resources/DBN.BMP,Door4,0.309027778,0.006944444,1,0,0,2.217,optionRight,80,9655,5,1,0,1,0,1,,,,,,,,,,,,,,,,,,,,,,,,,,,,,,,,,,,,,,,
,,,,,,,,2023-08-16_08h49.36.979,HF_wild_card,2022.2.4,Win32,60.09615385,599c578d8acf1e0001599633,64d2fd46c836a06233681665,64dc7f7830f891f885739ac1,,,,,,,ctch,resources/DB.BMP,resources/DP.BMP,Door3,-0.26875,0.038194444,1,0,0,1.0015,optionLeft,70,9725,5,2,0,2,0,1,,,,,,,,,,,,,,,,,,,,,,,,,,,,,,,,,,,,,,,
,,,,,,,,2023-08-16_08h49.36.979,HF_wild_card,2022.2.4,Win32,60.09615385,599c578d8acf1e0001599633,64d2fd46c836a06233681665,64dc7f7830f891f885739ac1,,,,,,,ctch,resources/DP.BMP,resources/DB.BMP,Door3,0.284722222,0.023611111,1,0,0,1.3852,optionRight,70,9795,5,3,0,3,0,1,,,,,,,,,,,,,,,,,,,,,,,,,,,,,,,,,,,,,,,
,,,,,,,,2023-08-16_08h49.36.979,HF_wild_card,2022.2.4,Win32,60.09615385,599c578d8acf1e0001599633,64d2fd46c836a06233681665,64dc7f7830f891f885739ac1,,,,,,,sngl,resources/Empty.png,resources/DY.BMP,Door1,0.261111111,0.013194444,1,0,0,1.0353,optionRight,30,9825,5,4,0,4,0,1,,,,,,,,,,,,,,,,,,,,,,,,,,,,,,,,,,,,,,,
,,,,,,,,2023-08-16_08h49.36.979,HF_wild_card,2022.2.4,Win32,60.09615385,599c578d8acf1e0001599633,64d2fd46c836a06233681665,64dc7f7830f891f885739ac1,,,,,,,decisionTrl,resources/DY.BMP,resources/DP.BMP,Door2,0.361111111,0.011111111,1,0,0,2.2198,optionRight,40,9865,5,5,0,5,0,1,,,,,,,,,,,,,,,,,,,,,,,,,,,,,,,,,,,,,,,
,,,,,,,,2023-08-16_08h49.36.979,HF_wild_card,2022.2.4,Win32,60.09615385,599c578d8acf1e0001599633,64d2fd46c836a06233681665,64dc7f7830f891f885739ac1,,,,,,,decisionTrl,resources/DP.BMP,resources/DY.BMP,Door1,0.375,0.020138889,1,0,0,1.8165,optionRight,30,9895,5,6,0,6,0,1,,,,,,,,,,,,,,,,,,,,,,,,,,,,,,,,,,,,,,,
,,,,,,,,2023-08-16_08h49.36.979,HF_wild_card,2022.2.4,Win32,60.09615385,599c578d8acf1e0001599633,64d2fd46c836a06233681665,64dc7f7830f891f885739ac1,,,,,,,sngl,resources/DR.BMP,resources/Empty.png,WildCard_Ex,-0.325694444,0.044444444,1,0,0,0.8353,optionLeft,45,9940,5,7,0,7,0,1,,,,,,,,,,,,,,,,,,,,,,,,,,,,,,,,,,,,,,,
,,,,,,,,2023-08-16_08h49.36.979,HF_wild_card,2022.2.4,Win32,60.09615385,599c578d8acf1e0001599633,64d2fd46c836a06233681665,64dc7f7830f891f885739ac1,,,,,,,sngl,resources/DB.BMP,resources/Empty.png,Door3,-0.241666667,0.035416667,1,0,0,0.9018,optionLeft,70,10010,5,8,0,8,0,1,,,,,,,,,,,,,,,,,,,,,,,,,,,,,,,,,,,,,,,
,,,,,,,,2023-08-16_08h49.36.979,HF_wild_card,2022.2.4,Win32,60.09615385,599c578d8acf1e0001599633,64d2fd46c836a06233681665,64dc7f7830f891f885739ac1,,,,,,,sngl,resources/Empty.png,resources/DP.BMP,Door2,0.270833333,-0.009027778,1,0,0,1.7675,optionRight,20,10030,5,9,0,9,0,1,,,,,,,,,,,,,,,,,,,,,,,,,,,,,,,,,,,,,,,
,,,,,,,,2023-08-16_08h49.36.979,HF_wild_card,2022.2.4,Win32,60.09615385,599c578d8acf1e0001599633,64d2fd46c836a06233681665,64dc7f7830f891f885739ac1,,,,,,,sngl,resources/Empty.png,resources/DR.BMP,WildCard_Ex,0.282638889,0.002777778,1,0,0,0.9351,optionRight,45,10075,5,10,0,10,0,1,,,,,,,,,,,,,,,,,,,,,,,,,,,,,,,,,,,,,,,
,,,,,,,,2023-08-16_08h49.36.979,HF_wild_card,2022.2.4,Win32,60.09615385,599c578d8acf1e0001599633,64d2fd46c836a06233681665,64dc7f7830f891f885739ac1,,,,,,,sngl,resources/DR.BMP,resources/Empty.png,WildCard_Ex,-0.257638889,0.029166667,1,0,0,0.852,optionLeft,55,10130,5,11,0,11,0,1,,,,,,,,,,,,,,,,,,,,,,,,,,,,,,,,,,,,,,,
,,,,,,,,2023-08-16_08h49.36.979,HF_wild_card,2022.2.4,Win32,60.09615385,599c578d8acf1e0001599633,64d2fd46c836a06233681665,64dc7f7830f891f885739ac1,,,,,,,decisionTrl,resources/DB.BMP,resources/DBN.BMP,Door4,0.274305556,0.034722222,1,0,0,1.4682,optionRight,60,10190,5,12,0,12,0,1,,,,,,,,,,,,,,,,,,,,,,,,,,,,,,,,,,,,,,,
,,,,,,,,2023-08-16_08h49.36.979,HF_wild_card,2022.2.4,Win32,60.09615385,599c578d8acf1e0001599633,64d2fd46c836a06233681665,64dc7f7830f891f885739ac1,,,,,,,ctch,resources/DB.BMP,resources/DP.BMP,Door3,-0.242361111,0.049305556,1,0,0,1.6003,optionLeft,70,10260,5,13,0,13,0,1,,,,,,,,,,,,,,,,,,,,,,,,,,,,,,,,,,,,,,,
,,,,,,,,2023-08-16_08h49.36.979,HF_wild_card,2022.2.4,Win32,60.09615385,599c578d8acf1e0001599633,64d2fd46c836a06233681665,64dc7f7830f891f885739ac1,,,,,,,sngl,resources/DBN.BMP,resources/Empty.png,Door4,-0.216666667,0.046527778,1,0,0,0.9663,optionLeft,80,10340,5,14,0,14,0,1,,,,,,,,,,,,,,,,,,,,,,,,,,,,,,,,,,,,,,,
,,,,,,,,2023-08-16_08h49.36.979,HF_wild_card,2022.2.4,Win32,60.09615385,599c578d8acf1e0001599633,64d2fd46c836a06233681665,64dc7f7830f891f885739ac1,,,,,,,decisionTrl,resources/DR.BMP,resources/DBN.BMP,Door4,0.228472222,0.01875,1,0,0,1.2662,optionRight,60,10400,5,15,0,15,0,1,,,,,,,,,,,,,,,,,,,,,,,,,,,,,,,,,,,,,,,
,,,,,,,,2023-08-16_08h49.36.979,HF_wild_card,2022.2.4,Win32,60.09615385,599c578d8acf1e0001599633,64d2fd46c836a06233681665,64dc7f7830f891f885739ac1,,,,,,,sngl,resources/DP.BMP,resources/Empty.png,Door2,-0.184722222,0.040277778,1,0,0,2.8326,optionLeft,40,10440,5,16,0,16,0,1,,,,,,,,,,,,,,,,,,,,,,,,,,,,,,,,,,,,,,,
,,,,,,,,2023-08-16_08h49.36.979,HF_wild_card,2022.2.4,Win32,60.09615385,599c578d8acf1e0001599633,64d2fd46c836a06233681665,64dc7f7830f891f885739ac1,,,,,,,decisionTrl,resources/DBN.BMP,resources/DB.BMP,Door4,-0.345833333,0.061805556,1,0,0,1.5341,optionLeft,60,10500,5,17,0,17,0,1,,,,,,,,,,,,,,,,,,,,,,,,,,,,,,,,,,,,,,,
,,,,,,,,2023-08-16_08h49.36.979,HF_wild_card,2022.2.4,Win32,60.09615385,599c578d8acf1e0001599633,64d2fd46c836a06233681665,64dc7f7830f891f885739ac1,,,,,,,ctch,resources/DY.BMP,resources/DBN.BMP,Door4,0.225,0.018055556,1,0,0,1.6334,optionRight,80,10580,5,18,0,18,0,1,,,,,,,,,,,,,,,,,,,,,,,,,,,,,,,,,,,,,,,
,,,,,,,,2023-08-16_08h49.36.979,HF_wild_card,2022.2.4,Win32,60.09615385,599c578d8acf1e0001599633,64d2fd46c836a06233681665,64dc7f7830f891f885739ac1,,,,,,,sngl,resources/Empty.png,resources/DR.BMP,WildCard_Ex,0.231944444,0.0125,1,0,0,0.8996,optionRight,55,10635,5,19,0,19,0,1,,,,,,,,,,,,,,,,,,,,,,,,,,,,,,,,,,,,,,,
,,,,,,,,2023-08-16_08h49.36.979,HF_wild_card,2022.2.4,Win32,60.09615385,599c578d8acf1e0001599633,64d2fd46c836a06233681665,64dc7f7830f891f885739ac1,,,,,,,decisionTrl,resources/DY.BMP,resources/DP.BMP,Door1,-0.284027778,0.06875,1,0,0,1.6497,optionLeft,30,10665,5,20,0,20,0,1,,,,,,,,,,,,,,,,,,,,,,,,,,,,,,,,,,,,,,,
,,,,,,,,2023-08-16_08h49.36.979,HF_wild_card,2022.2.4,Win32,60.09615385,599c578d8acf1e0001599633,64d2fd46c836a06233681665,64dc7f7830f891f885739ac1,,,,,,,sngl,resources/Empty.png,resources/DBN.BMP,Door4,0.278472222,0,1,0,0,0.8349,optionRight,60,10725,5,21,0,21,0,1,,,,,,,,,,,,,,,,,,,,,,,,,,,,,,,,,,,,,,,
,,,,,,,,2023-08-16_08h49.36.979,HF_wild_card,2022.2.4,Win32,60.09615385,599c578d8acf1e0001599633,64d2fd46c836a06233681665,64dc7f7830f891f885739ac1,,,,,,,decisionTrl,resources/DY.BMP,resources/DP.BMP,Door1,-0.240972222,0.06875,1,0,0,5.3009,optionLeft,30,10755,5,22,0,22,0,1,,,,,,,,,,,,,,,,,,,,,,,,,,,,,,,,,,,,,,,
,,,,,,,,2023-08-16_08h49.36.979,HF_wild_card,2022.2.4,Win32,60.09615385,599c578d8acf1e0001599633,64d2fd46c836a06233681665,64dc7f7830f891f885739ac1,,,,,,,decisionTrl,resources/DP.BMP,resources/DR.BMP,WildCard_Ex,0.277777778,0.009027778,1,0,0,1.4307,optionRight,55,10810,5,23,0,23,0,1,,,,,,,,,,,,,,,,,,,,,,,,,,,,,,,,,,,,,,,
,,,,,,,,2023-08-16_08h49.36.979,HF_wild_card,2022.2.4,Win32,60.09615385,599c578d8acf1e0001599633,64d2fd46c836a06233681665,64dc7f7830f891f885739ac1,,,,,,,decisionTrl,resources/DBN.BMP,resources/DB.BMP,Door4,-0.279166667,0.074305556,1,0,0,1.2356,optionLeft,60,10870,5,24,0,24,0,1,,,,,,,,,,,,,,,,,,,,,,,,,,,,,,,,,,,,,,,
,,,,,,,,2023-08-16_08h49.36.979,HF_wild_card,2022.2.4,Win32,60.09615385,599c578d8acf1e0001599633,64d2fd46c836a06233681665,64dc7f7830f891f885739ac1,,,,,,,decisionTrl,resources/DB.BMP,resources/DR.BMP,Door3,-0.256944444,0.064583333,1,0,0,1.0663,optionLeft,70,10940,5,25,0,25,0,1,,,,,,,,,,,,,,,,,,,,,,,,,,,,,,,,,,,,,,,
,,,,,,,,2023-08-16_08h49.36.979,HF_wild_card,2022.2.4,Win32,60.09615385,599c578d8acf1e0001599633,64d2fd46c836a06233681665,64dc7f7830f891f885739ac1,,,,,,,sngl,resources/Empty.png,resources/DB.BMP,Door3,0.214583333,0.000694444,1,0,0,0.9019,optionRight,70,11010,5,26,0,26,0,1,,,,,,,,,,,,,,,,,,,,,,,,,,,,,,,,,,,,,,,
,,,,,,,,2023-08-16_08h49.36.979,HF_wild_card,2022.2.4,Win32,60.09615385,599c578d8acf1e0001599633,64d2fd46c836a06233681665,64dc7f7830f891f885739ac1,,,,,,,ctch,resources/DP.BMP,resources/DB.BMP,Door3,0.258333333,0.011111111,1,0,0,1.3832,optionRight,70,11080,5,27,0,27,0,1,,,,,,,,,,,,,,,,,,,,,,,,,,,,,,,,,,,,,,,
,,,,,,,,2023-08-16_08h49.36.979,HF_wild_card,2022.2.4,Win32,60.09615385,599c578d8acf1e0001599633,64d2fd46c836a06233681665,64dc7f7830f891f885739ac1,,,,,,,decisionTrl,resources/DY.BMP,resources/DP.BMP,Door1,-0.245138889,0.035416667,1,0,0,2.3501,optionLeft,30,11110,5,28,0,28,0,1,,,,,,,,,,,,,,,,,,,,,,,,,,,,,,,,,,,,,,,
,,,,,,,,2023-08-16_08h49.36.979,HF_wild_card,2022.2.4,Win32,60.09615385,599c578d8acf1e0001599633,64d2fd46c836a06233681665,64dc7f7830f891f885739ac1,,,,,,,decisionTrl,resources/DY.BMP,resources/DR.BMP,WildCard_Ex,0.24375,0,1,0,0,1.3853,optionRight,45,11155,5,29,0,29,0,1,,,,,,,,,,,,,,,,,,,,,,,,,,,,,,,,,,,,,,,
,,,,,,,,2023-08-16_08h49.36.979,HF_wild_card,2022.2.4,Win32,60.09615385,599c578d8acf1e0001599633,64d2fd46c836a06233681665,64dc7f7830f891f885739ac1,,,,,,,decisionTrl,resources/DP.BMP,resources/DY.BMP,Door1,0.254861111,0.042361111,1,0,0,2.5184,optionRight,30,11185,5,30,0,30,0,1,,,,,,,,,,,,,,,,,,,,,,,,,,,,,,,,,,,,,,,
,,,,,,,,2023-08-16_08h49.36.979,HF_wild_card,2022.2.4,Win32,60.09615385,599c578d8acf1e0001599633,64d2fd46c836a06233681665,64dc7f7830f891f885739ac1,,,,,,,decisionTrl,resources/DR.BMP,resources/DB.BMP,Door3,0.353472222,0.030555556,1,0,0,1.2999,optionRight,70,11255,5,31,0,31,0,1,,,,,,,,,,,,,,,,,,,,,,,,,,,,,,,,,,,,,,,
,,,,,,,,2023-08-16_08h49.36.979,HF_wild_card,2022.2.4,Win32,60.09615385,599c578d8acf1e0001599633,64d2fd46c836a06233681665,64dc7f7830f891f885739ac1,,,,,,,decisionTrl,resources/DBN.BMP,resources/DB.BMP,Door4,-0.254861111,0.003472222,1,0,0,1.079,optionLeft,80,11335,5,32,0,32,0,1,,,,,,,,,,,,,,,,,,,,,,,,,,,,,,,,,,,,,,,
,,,,,,,,2023-08-16_08h49.36.979,HF_wild_card,2022.2.4,Win32,60.09615385,599c578d8acf1e0001599633,64d2fd46c836a06233681665,64dc7f7830f891f885739ac1,,,,,,,decisionTrl,resources/DBN.BMP,resources/DR.BMP,Door4,-0.30625,0.025694444,1,0,0,0.966,optionLeft,80,11415,5,33,0,33,0,1,,,,,,,,,,,,,,,,,,,,,,,,,,,,,,,,,,,,,,,
,,,,,,,,2023-08-16_08h49.36.979,HF_wild_card,2022.2.4,Win32,60.09615385,599c578d8acf1e0001599633,64d2fd46c836a06233681665,64dc7f7830f891f885739ac1,,,,,,,decisionTrl,resources/DB.BMP,resources/DBN.BMP,Door4,0.349305556,-0.002777778,1,0,0,1.0353,optionRight,60,11475,5,34,0,34,0,1,,,,,,,,,,,,,,,,,,,,,,,,,,,,,,,,,,,,,,,
,,,,,,,,2023-08-16_08h49.36.979,HF_wild_card,2022.2.4,Win32,60.09615385,599c578d8acf1e0001599633,64d2fd46c836a06233681665,64dc7f7830f891f885739ac1,,,,,,,decisionTrl,resources/DR.BMP,resources/DP.BMP,WildCard_Ex,-0.275,0.0375,1,0,0,1.45,optionLeft,55,11530,5,35,0,35,0,1,,,,,,,,,,,,,,,,,,,,,,,,,,,,,,,,,,,,,,,
,,,,,,,,2023-08-16_08h49.36.979,HF_wild_card,2022.2.4,Win32,60.09615385,599c578d8acf1e0001599633,64d2fd46c836a06233681665,64dc7f7830f891f885739ac1,,,,,,,decisionTrl,resources/DBN.BMP,resources/DB.BMP,Door4,-0.283333333,0.045138889,1,0,0,1.1996,optionLeft,80,11610,5,36,0,36,0,1,,,,,,,,,,,,,,,,,,,,,,,,,,,,,,,,,,,,,,,
,,,,,,,,2023-08-16_08h49.36.979,HF_wild_card,2022.2.4,Win32,60.09615385,599c578d8acf1e0001599633,64d2fd46c836a06233681665,64dc7f7830f891f885739ac1,,,,,,,decisionTrl,resources/DB.BMP,resources/DBN.BMP,Door4,0.267361111,0.008333333,1,0,0,1.0189,optionRight,80,11690,5,37,0,37,0,1,,,,,,,,,,,,,,,,,,,,,,,,,,,,,,,,,,,,,,,
,,,,,,,,2023-08-16_08h49.36.979,HF_wild_card,2022.2.4,Win32,60.09615385,599c578d8acf1e0001599633,64d2fd46c836a06233681665,64dc7f7830f891f885739ac1,,,,,,,decisionTrl,resources/DP.BMP,resources/DY.BMP,Door1,0.279861111,0.008333333,1,0,0,1.6171,optionRight,30,11720,5,38,0,38,0,1,,,,,,,,,,,,,,,,,,,,,,,,,,,,,,,,,,,,,,,
,,,,,,,,2023-08-16_08h49.36.979,HF_wild_card,2022.2.4,Win32,60.09615385,599c578d8acf1e0001599633,64d2fd46c836a06233681665,64dc7f7830f891f885739ac1,,,,,,,sngl,resources/DY.BMP,resources/Empty.png,Door1,-0.216666667,0.033333333,1,0,0,0.9183,optionLeft,30,11750,5,39,0,39,0,1,,,,,,,,,,,,,,,,,,,,,,,,,,,,,,,,,,,,,,,
,,,,,,,,2023-08-16_08h49.36.979,HF_wild_card,2022.2.4,Win32,60.09615385,599c578d8acf1e0001599633,64d2fd46c836a06233681665,64dc7f7830f891f885739ac1,,,,,,,decisionTrl,resources/DR.BMP,resources/DY.BMP,WildCard_Ex,-0.3375,0.05,1,0,0,2.1511,optionLeft,45,11795,5,40,0,40,0,1,,,,,,,,,,,,,,,,,,,,,,,,,,,,,,,,,,,,,,,
,,,,,,,,2023-08-16_08h49.36.979,HF_wild_card,2022.2.4,Win32,60.09615385,599c578d8acf1e0001599633,64d2fd46c836a06233681665,64dc7f7830f891f885739ac1,,,,,,,ctch,resources/DBN.BMP,resources/DY.BMP,Door4,-0.345138889,0.06875,1,0,0,0.9502,optionLeft,80,11875,5,41,0,41,0,1,,,,,,,,,,,,,,,,,,,,,,,,,,,,,,,,,,,,,,,
,,,,,,,,2023-08-16_08h49.36.979,HF_wild_card,2022.2.4,Win32,60.09615385,599c578d8acf1e0001599633,64d2fd46c836a06233681665,64dc7f7830f891f885739ac1,,,,,,,ctch,resources/DY.BMP,resources/DBN.BMP,Door4,0.239583333,0.005555556,1,0,0,0.8682,optionRight,60,11935,5,42,0,42,0,1,,,,,,,,,,,,,,,,,,,,,,,,,,,,,,,,,,,,,,,
,,,,,,,,2023-08-16_08h49.36.979,HF_wild_card,2022.2.4,Win32,60.09615385,599c578d8acf1e0001599633,64d2fd46c836a06233681665,64dc7f7830f891f885739ac1,,,,,,,decisionTrl,resources/DP.BMP,resources/DY.BMP,Door1,0.290972222,0.011805556,1,0,0,1.269,optionRight,30,11965,5,43,0,43,0,1,,,,,,,,,,,,,,,,,,,,,,,,,,,,,,,,,,,,,,,
,,,,,,,,2023-08-16_08h49.36.979,HF_wild_card,2022.2.4,Win32,60.09615385,599c578d8acf1e0001599633,64d2fd46c836a06233681665,64dc7f7830f891f885739ac1,,,,,,,,,,,,,,,,,,,,,,,,,,4,0,4,0,1,,,,,,,,,,,,,,,,,,,,,,,,,,,,,,,,,,
,,,,,,,,2023-08-16_08h49.36.979,HF_wild_card,2022.2.4,Win32,60.09615385,599c578d8acf1e0001599633,64d2fd46c836a06233681665,64dc7f7830f891f885739ac1,,,,,,,sngl,resources/DY.BMP,resources/Empty.png,Door1,-0.263888889,-0.015277778,1,0,0,1.1659,optionLeft,30,11995,6,0,0,0,0,1,,,,,,,,,,,,,,,,,,,,,,,,,,,,,,,,,,,,,,,
,,,,,,,,2023-08-16_08h49.36.979,HF_wild_card,2022.2.4,Win32,60.09615385,599c578d8acf1e0001599633,64d2fd46c836a06233681665,64dc7f7830f891f885739ac1,,,,,,,sngl,resources/Empty.png,resources/DR.BMP,WildCard_Ex,0.251388889,0.007638889,1,0,0,0.9825,optionRight,45,12040,6,1,0,1,0,1,,,,,,,,,,,,,,,,,,,,,,,,,,,,,,,,,,,,,,,
,,,,,,,,2023-08-16_08h49.36.979,HF_wild_card,2022.2.4,Win32,60.09615385,599c578d8acf1e0001599633,64d2fd46c836a06233681665,64dc7f7830f891f885739ac1,,,,,,,sngl,resources/Empty.png,resources/DB.BMP,Door3,0.252083333,-0.003472222,1,0,0,0.8525,optionRight,70,12110,6,2,0,2,0,1,,,,,,,,,,,,,,,,,,,,,,,,,,,,,,,,,,,,,,,
,,,,,,,,2023-08-16_08h49.36.979,HF_wild_card,2022.2.4,Win32,60.09615385,599c578d8acf1e0001599633,64d2fd46c836a06233681665,64dc7f7830f891f885739ac1,,,,,,,sngl,resources/DR.BMP,resources/Empty.png,WildCard_Ex,-0.184722222,0.041666667,1,0,0,0.8352,optionLeft,55,12165,6,3,0,3,0,1,,,,,,,,,,,,,,,,,,,,,,,,,,,,,,,,,,,,,,,
,,,,,,,,2023-08-16_08h49.36.979,HF_wild_card,2022.2.4,Win32,60.09615385,599c578d8acf1e0001599633,64d2fd46c836a06233681665,64dc7f7830f891f885739ac1,,,,,,,decisionTrl,resources/DB.BMP,resources/DBN.BMP,Door4,0.235416667,0.004166667,1,0,0,1.0514,optionRight,60,12225,6,4,0,4,0,1,,,,,,,,,,,,,,,,,,,,,,,,,,,,,,,,,,,,,,,
,,,,,,,,2023-08-16_08h49.36.979,HF_wild_card,2022.2.4,Win32,60.09615385,599c578d8acf1e0001599633,64d2fd46c836a06233681665,64dc7f7830f891f885739ac1,,,,,,,ctch,resources/DBN.BMP,resources/DY.BMP,Door4,-0.250694444,0.050694444,1,0,0,0.9118,optionLeft,60,12285,6,5,0,5,0,1,,,,,,,,,,,,,,,,,,,,,,,,,,,,,,,,,,,,,,,
,,,,,,,,2023-08-16_08h49.36.979,HF_wild_card,2022.2.4,Win32,60.09615385,599c578d8acf1e0001599633,64d2fd46c836a06233681665,64dc7f7830f891f885739ac1,,,,,,,sngl,resources/Empty.png,resources/DY.BMP,Door1,0.229166667,-0.009027778,1,0,0,0.8497,optionRight,30,12315,6,6,0,6,0,1,,,,,,,,,,,,,,,,,,,,,,,,,,,,,,,,,,,,,,,
,,,,,,,,2023-08-16_08h49.36.979,HF_wild_card,2022.2.4,Win32,60.09615385,599c578d8acf1e0001599633,64d2fd46c836a06233681665,64dc7f7830f891f885739ac1,,,,,,,sngl,resources/DB.BMP,resources/Empty.png,Door3,-0.214583333,0.0375,1,0,0,0.8018,optionLeft,70,12385,6,7,0,7,0,1,,,,,,,,,,,,,,,,,,,,,,,,,,,,,,,,,,,,,,,
,,,,,,,,2023-08-16_08h49.36.979,HF_wild_card,2022.2.4,Win32,60.09615385,599c578d8acf1e0001599633,64d2fd46c836a06233681665,64dc7f7830f891f885739ac1,,,,,,,decisionTrl,resources/DY.BMP,resources/DP.BMP,Door1,-0.245138889,0.039583333,1,0,0,2.0816,optionLeft,30,12415,6,8,0,8,0,1,,,,,,,,,,,,,,,,,,,,,,,,,,,,,,,,,,,,,,,
,,,,,,,,2023-08-16_08h49.36.979,HF_wild_card,2022.2.4,Win32,60.09615385,599c578d8acf1e0001599633,64d2fd46c836a06233681665,64dc7f7830f891f885739ac1,,,,,,,decisionTrl,resources/DR.BMP,resources/DP.BMP,WildCard_Ex,-0.278472222,0.046527778,1,0,0,1.3975,optionLeft,45,12460,6,9,0,9,0,1,,,,,,,,,,,,,,,,,,,,,,,,,,,,,,,,,,,,,,,
,,,,,,,,2023-08-16_08h49.36.979,HF_wild_card,2022.2.4,Win32,60.09615385,599c578d8acf1e0001599633,64d2fd46c836a06233681665,64dc7f7830f891f885739ac1,,,,,,,sngl,resources/DR.BMP,resources/Empty.png,WildCard_Ex,-0.24375,0.042361111,1,0,0,0.883,optionLeft,45,12505,6,10,0,10,0,1,,,,,,,,,,,,,,,,,,,,,,,,,,,,,,,,,,,,,,,
,,,,,,,,2023-08-16_08h49.36.979,HF_wild_card,2022.2.4,Win32,60.09615385,599c578d8acf1e0001599633,64d2fd46c836a06233681665,64dc7f7830f891f885739ac1,,,,,,,ctch,resources/DP.BMP,resources/DB.BMP,Door3,0.241666667,-0.000694444,1,0,0,1.6503,optionRight,70,12575,6,11,0,11,0,1,,,,,,,,,,,,,,,,,,,,,,,,,,,,,,,,,,,,,,,
,,,,,,,,2023-08-16_08h49.36.979,HF_wild_card,2022.2.4,Win32,60.09615385,599c578d8acf1e0001599633,64d2fd46c836a06233681665,64dc7f7830f891f885739ac1,,,,,,,decisionTrl,resources/DP.BMP,resources/DY.BMP,Door1,0.270138889,0.017361111,1,0,0,1.1523,optionRight,30,12605,6,12,0,12,0,1,,,,,,,,,,,,,,,,,,,,,,,,,,,,,,,,,,,,,,,
,,,,,,,,2023-08-16_08h49.36.979,HF_wild_card,2022.2.4,Win32,60.09615385,599c578d8acf1e0001599633,64d2fd46c836a06233681665,64dc7f7830f891f885739ac1,,,,,,,decisionTrl,resources/DBN.BMP,resources/DB.BMP,Door4,-0.289583333,0.058333333,1,0,0,1.3812,optionLeft,80,12685,6,13,0,13,0,1,,,,,,,,,,,,,,,,,,,,,,,,,,,,,,,,,,,,,,,
,,,,,,,,2023-08-16_08h49.36.979,HF_wild_card,2022.2.4,Win32,60.09615385,599c578d8acf1e0001599633,64d2fd46c836a06233681665,64dc7f7830f891f885739ac1,,,,,,,decisionTrl,resources/DB.BMP,resources/DBN.BMP,Door4,0.272916667,-0.018055556,1,0,0,0.8684,optionRight,60,12745,6,14,0,14,0,1,,,,,,,,,,,,,,,,,,,,,,,,,,,,,,,,,,,,,,,
,,,,,,,,2023-08-16_08h49.36.979,HF_wild_card,2022.2.4,Win32,60.09615385,599c578d8acf1e0001599633,64d2fd46c836a06233681665,64dc7f7830f891f885739ac1,,,,,,,sngl,resources/DBN.BMP,resources/Empty.png,Door4,-0.177083333,0.039583333,1,0,0,0.7822,optionLeft,60,12805,6,15,0,15,0,1,,,,,,,,,,,,,,,,,,,,,,,,,,,,,,,,,,,,,,,
,,,,,,,,2023-08-16_08h49.36.979,HF_wild_card,2022.2.4,Win32,60.09615385,599c578d8acf1e0001599633,64d2fd46c836a06233681665,64dc7f7830f891f885739ac1,,,,,,,decisionTrl,resources/DBN.BMP,resources/DB.BMP,Door4,-0.324305556,0.098611111,1,0,0,4.1979,optionLeft,80,12885,6,16,0,16,0,1,,,,,,,,,,,,,,,,,,,,,,,,,,,,,,,,,,,,,,,
,,,,,,,,2023-08-16_08h49.36.979,HF_wild_card,2022.2.4,Win32,60.09615385,599c578d8acf1e0001599633,64d2fd46c836a06233681665,64dc7f7830f891f885739ac1,,,,,,,ctch,resources/DB.BMP,resources/DP.BMP,Door3,-0.218055556,0.033333333,1,0,0,1.0495,optionLeft,70,12955,6,17,0,17,0,1,,,,,,,,,,,,,,,,,,,,,,,,,,,,,,,,,,,,,,,
,,,,,,,,2023-08-16_08h49.36.979,HF_wild_card,2022.2.4,Win32,60.09615385,599c578d8acf1e0001599633,64d2fd46c836a06233681665,64dc7f7830f891f885739ac1,,,,,,,decisionTrl,resources/DR.BMP,resources/DB.BMP,Door3,0.315277778,-0.038194444,1,0,0,1.3354,optionRight,70,13025,6,18,0,18,0,1,,,,,,,,,,,,,,,,,,,,,,,,,,,,,,,,,,,,,,,
,,,,,,,,2023-08-16_08h49.36.979,HF_wild_card,2022.2.4,Win32,60.09615385,599c578d8acf1e0001599633,64d2fd46c836a06233681665,64dc7f7830f891f885739ac1,,,,,,,decisionTrl,resources/DP.BMP,resources/DY.BMP,Door1,0.261111111,-0.014583333,1,0,0,1.3012,optionRight,30,13055,6,19,0,19,0,1,,,,,,,,,,,,,,,,,,,,,,,,,,,,,,,,,,,,,,,
,,,,,,,,2023-08-16_08h49.36.979,HF_wild_card,2022.2.4,Win32,60.09615385,599c578d8acf1e0001599633,64d2fd46c836a06233681665,64dc7f7830f891f885739ac1,,,,,,,decisionTrl,resources/DR.BMP,resources/DBN.BMP,Door4,0.271527778,-0.015277778,1,0,0,1.0139,optionRight,80,13135,6,20,0,20,0,1,,,,,,,,,,,,,,,,,,,,,,,,,,,,,,,,,,,,,,,
,,,,,,,,2023-08-16_08h49.36.979,HF_wild_card,2022.2.4,Win32,60.09615385,599c578d8acf1e0001599633,64d2fd46c836a06233681665,64dc7f7830f891f885739ac1,,,,,,,decisionTrl,resources/DB.BMP,resources/DBN.BMP,Door4,0.260416667,-0.016666667,1,0,0,0.9354,optionRight,60,13195,6,21,0,21,0,1,,,,,,,,,,,,,,,,,,,,,,,,,,,,,,,,,,,,,,,
,,,,,,,,2023-08-16_08h49.36.979,HF_wild_card,2022.2.4,Win32,60.09615385,599c578d8acf1e0001599633,64d2fd46c836a06233681665,64dc7f7830f891f885739ac1,,,,,,,decisionTrl,resources/DBN.BMP,resources/DR.BMP,Door4,-0.255555556,0.042361111,1,0,0,0.9638,optionLeft,60,13255,6,22,0,22,0,1,,,,,,,,,,,,,,,,,,,,,,,,,,,,,,,,,,,,,,,
,,,,,,,,2023-08-16_08h49.36.979,HF_wild_card,2022.2.4,Win32,60.09615385,599c578d8acf1e0001599633,64d2fd46c836a06233681665,64dc7f7830f891f885739ac1,,,,,,,decisionTrl,resources/DB.BMP,resources/DBN.BMP,Door4,0.276388889,-0.027083333,1,0,0,0.8188,optionRight,80,13335,6,23,0,23,0,1,,,,,,,,,,,,,,,,,,,,,,,,,,,,,,,,,,,,,,,
,,,,,,,,2023-08-16_08h49.36.979,HF_wild_card,2022.2.4,Win32,60.09615385,599c578d8acf1e0001599633,64d2fd46c836a06233681665,64dc7f7830f891f885739ac1,,,,,,,ctch,resources/DY.BMP,resources/DBN.BMP,Door4,0.270833333,-0.011805556,1,0,0,1.0164,optionRight,60,13395,6,24,0,24,0,1,,,,,,,,,,,,,,,,,,,,,,,,,,,,,,,,,,,,,,,
,,,,,,,,2023-08-16_08h49.36.979,HF_wild_card,2022.2.4,Win32,60.09615385,599c578d8acf1e0001599633,64d2fd46c836a06233681665,64dc7f7830f891f885739ac1,,,,,,,sngl,resources/DP.BMP,resources/Empty.png,Door2,-0.214583333,-0.002777778,1,0,0,0.9182,optionLeft,20,13415,6,25,0,25,0,1,,,,,,,,,,,,,,,,,,,,,,,,,,,,,,,,,,,,,,,
,,,,,,,,2023-08-16_08h49.36.979,HF_wild_card,2022.2.4,Win32,60.09615385,599c578d8acf1e0001599633,64d2fd46c836a06233681665,64dc7f7830f891f885739ac1,,,,,,,decisionTrl,resources/DB.BMP,resources/DR.BMP,Door3,-0.440277778,0.015972222,1,0,0,1.9153,optionLeft,70,13485,6,26,0,26,0,1,,,,,,,,,,,,,,,,,,,,,,,,,,,,,,,,,,,,,,,
,,,,,,,,2023-08-16_08h49.36.979,HF_wild_card,2022.2.4,Win32,60.09615385,599c578d8acf1e0001599633,64d2fd46c836a06233681665,64dc7f7830f891f885739ac1,,,,,,,decisionTrl,resources/DBN.BMP,resources/DB.BMP,Door4,-0.309722222,0.048611111,1,0,0,1.2324,optionLeft,60,13545,6,27,0,27,0,1,,,,,,,,,,,,,,,,,,,,,,,,,,,,,,,,,,,,,,,
,,,,,,,,2023-08-16_08h49.36.979,HF_wild_card,2022.2.4,Win32,60.09615385,599c578d8acf1e0001599633,64d2fd46c836a06233681665,64dc7f7830f891f885739ac1,,,,,,,decisionTrl,resources/DY.BMP,resources/DP.BMP,Door1,-0.349305556,0.029861111,1,0,0,1.4997,optionLeft,30,13575,6,28,0,28,0,1,,,,,,,,,,,,,,,,,,,,,,,,,,,,,,,,,,,,,,,
,,,,,,,,2023-08-16_08h49.36.979,HF_wild_card,2022.2.4,Win32,60.09615385,599c578d8acf1e0001599633,64d2fd46c836a06233681665,64dc7f7830f891f885739ac1,,,,,,,decisionTrl,resources/DBN.BMP,resources/DB.BMP,Door4,-0.308333333,0.056944444,1,0,0,1.0978,optionLeft,60,13635,6,29,0,29,0,1,,,,,,,,,,,,,,,,,,,,,,,,,,,,,,,,,,,,,,,
,,,,,,,,2023-08-16_08h49.36.979,HF_wild_card,2022.2.4,Win32,60.09615385,599c578d8acf1e0001599633,64d2fd46c836a06233681665,64dc7f7830f891f885739ac1,,,,,,,decisionTrl,resources/DY.BMP,resources/DP.BMP,Door1,-0.258333333,0.038888889,1,0,0,1.5002,optionLeft,30,13665,6,30,0,30,0,1,,,,,,,,,,,,,,,,,,,,,,,,,,,,,,,,,,,,,,,
,,,,,,,,2023-08-16_08h49.36.979,HF_wild_card,2022.2.4,Win32,60.09615385,599c578d8acf1e0001599633,64d2fd46c836a06233681665,64dc7f7830f891f885739ac1,,,,,,,decisionTrl,resources/DR.BMP,resources/DY.BMP,WildCard_Ex,-0.261805556,0.045833333,1,0,0,1.2526,optionLeft,45,13710,6,31,0,31,0,1,,,,,,,,,,,,,,,,,,,,,,,,,,,,,,,,,,,,,,,
,,,,,,,,2023-08-16_08h49.36.979,HF_wild_card,2022.2.4,Win32,60.09615385,599c578d8acf1e0001599633,64d2fd46c836a06233681665,64dc7f7830f891f885739ac1,,,,,,,ctch,resources/DB.BMP,resources/DP.BMP,Door3,-0.344444444,0.067361111,1,0,0,1.8337,optionLeft,70,13780,6,32,0,32,0,1,,,,,,,,,,,,,,,,,,,,,,,,,,,,,,,,,,,,,,,
,,,,,,,,2023-08-16_08h49.36.979,HF_wild_card,2022.2.4,Win32,60.09615385,599c578d8acf1e0001599633,64d2fd46c836a06233681665,64dc7f7830f891f885739ac1,,,,,,,decisionTrl,resources/DY.BMP,resources/DR.BMP,WildCard_Ex,0.297222222,-0.039583333,1,0,0,1.6525,optionRight,45,13825,6,33,0,33,0,1,,,,,,,,,,,,,,,,,,,,,,,,,,,,,,,,,,,,,,,
,,,,,,,,2023-08-16_08h49.36.979,HF_wild_card,2022.2.4,Win32,60.09615385,599c578d8acf1e0001599633,64d2fd46c836a06233681665,64dc7f7830f891f885739ac1,,,,,,,decisionTrl,resources/DP.BMP,resources/DR.BMP,WildCard_Ex,0.247916667,-0.024305556,1,0,0,1.4338,optionRight,45,13870,6,34,0,34,0,1,,,,,,,,,,,,,,,,,,,,,,,,,,,,,,,,,,,,,,,
,,,,,,,,2023-08-16_08h49.36.979,HF_wild_card,2022.2.4,Win32,60.09615385,599c578d8acf1e0001599633,64d2fd46c836a06233681665,64dc7f7830f891f885739ac1,,,,,,,decisionTrl,resources/DP.BMP,resources/DY.BMP,Door1,0.326388889,0.00625,1,0,0,1.884,optionRight,30,13900,6,35,0,35,0,1,,,,,,,,,,,,,,,,,,,,,,,,,,,,,,,,,,,,,,,
,,,,,,,,2023-08-16_08h49.36.979,HF_wild_card,2022.2.4,Win32,60.09615385,599c578d8acf1e0001599633,64d2fd46c836a06233681665,64dc7f7830f891f885739ac1,,,,,,,decisionTrl,resources/DP.BMP,resources/DY.BMP,Door1,0.322222222,-0.002083333,1,0,0,1.3475,optionRight,30,13930,6,36,0,36,0,1,,,,,,,,,,,,,,,,,,,,,,,,,,,,,,,,,,,,,,,
,,,,,,,,2023-08-16_08h49.36.979,HF_wild_card,2022.2.4,Win32,60.09615385,599c578d8acf1e0001599633,64d2fd46c836a06233681665,64dc7f7830f891f885739ac1,,,,,,,ctch,resources/DBN.BMP,resources/DY.BMP,Door4,-0.329861111,0.081944444,1,0,0,1.1478,optionLeft,80,14010,6,37,0,37,0,1,,,,,,,,,,,,,,,,,,,,,,,,,,,,,,,,,,,,,,,
,,,,,,,,2023-08-16_08h49.36.979,HF_wild_card,2022.2.4,Win32,60.09615385,599c578d8acf1e0001599633,64d2fd46c836a06233681665,64dc7f7830f891f885739ac1,,,,,,,ctch,resources/DY.BMP,resources/DBN.BMP,Door4,0.254861111,-0.029861111,1,0,0,0.8469,optionRight,80,14090,6,38,0,38,0,1,,,,,,,,,,,,,,,,,,,,,,,,,,,,,,,,,,,,,,,
,,,,,,,,2023-08-16_08h49.36.979,HF_wild_card,2022.2.4,Win32,60.09615385,599c578d8acf1e0001599633,64d2fd46c836a06233681665,64dc7f7830f891f885739ac1,,,,,,,sngl,resources/Empty.png,resources/DP.BMP,Door2,0.268055556,-0.031944444,1,0,0,0.8973,optionRight,40,14130,6,39,0,39,0,1,,,,,,,,,,,,,,,,,,,,,,,,,,,,,,,,,,,,,,,
,,,,,,,,2023-08-16_08h49.36.979,HF_wild_card,2022.2.4,Win32,60.09615385,599c578d8acf1e0001599633,64d2fd46c836a06233681665,64dc7f7830f891f885739ac1,,,,,,,decisionTrl,resources/DY.BMP,resources/DP.BMP,Door1,-0.311805556,0.034722222,1,0,0,1.6836,optionLeft,30,14160,6,40,0,40,0,1,,,,,,,,,,,,,,,,,,,,,,,,,,,,,,,,,,,,,,,
,,,,,,,,2023-08-16_08h49.36.979,HF_wild_card,2022.2.4,Win32,60.09615385,599c578d8acf1e0001599633,64d2fd46c836a06233681665,64dc7f7830f891f885739ac1,,,,,,,ctch,resources/DP.BMP,resources/DB.BMP,Door3,0.350694444,-0.041666667,1,0,0,1.2495,optionRight,70,14230,6,41,0,41,0,1,,,,,,,,,,,,,,,,,,,,,,,,,,,,,,,,,,,,,,,
,,,,,,,,2023-08-16_08h49.36.979,HF_wild_card,2022.2.4,Win32,60.09615385,599c578d8acf1e0001599633,64d2fd46c836a06233681665,64dc7f7830f891f885739ac1,,,,,,,sngl,resources/Empty.png,resources/DR.BMP,WildCard_Ex,0.254861111,-0.034722222,1,0,0,0.8012,optionRight,55,14285,6,42,0,42,0,1,,,,,,,,,,,,,,,,,,,,,,,,,,,,,,,,,,,,,,,
,,,,,,,,2023-08-16_08h49.36.979,HF_wild_card,2022.2.4,Win32,60.09615385,599c578d8acf1e0001599633,64d2fd46c836a06233681665,64dc7f7830f891f885739ac1,,,,,,,sngl,resources/Empty.png,resources/DBN.BMP,Door4,0.2875,-0.026388889,1,0,0,0.8693,optionRight,80,14365,6,43,0,43,0,1,,,,,,,,,,,,,,,,,,,,,,,,,,,,,,,,,,,,,,,
,,,,,,,,2023-08-16_08h49.36.979,HF_wild_card,2022.2.4,Win32,60.09615385,599c578d8acf1e0001599633,64d2fd46c836a06233681665,64dc7f7830f891f885739ac1,,,,,,,,,,,,,,,,,,,,,,,,,,5,0,5,0,1,,,,,,,,,,,,,,,,,,,,,,,,,,,,,,,,,,
,,,,,,,,2023-08-16_08h49.36.979,HF_wild_card,2022.2.4,Win32,60.09615385,599c578d8acf1e0001599633,64d2fd46c836a06233681665,64dc7f7830f891f885739ac1,,,,,,,decisionTrl,resources/DB.BMP,resources/DBN.BMP,Door4,0.358333333,-0.097222222,1,0,0,1.5276,optionRight,80,14445,7,0,0,0,0,1,,,,,,,,,,,,,,,,,,,,,,,,,,,,,,,,,,,,,,,
,,,,,,,,2023-08-16_08h49.36.979,HF_wild_card,2022.2.4,Win32,60.09615385,599c578d8acf1e0001599633,64d2fd46c836a06233681665,64dc7f7830f891f885739ac1,,,,,,,decisionTrl,resources/DY.BMP,resources/DP.BMP,Door1,-0.338888889,-0.00625,1,0,0,1.2479,optionLeft,30,14475,7,1,0,1,0,1,,,,,,,,,,,,,,,,,,,,,,,,,,,,,,,,,,,,,,,
,,,,,,,,2023-08-16_08h49.36.979,HF_wild_card,2022.2.4,Win32,60.09615385,599c578d8acf1e0001599633,64d2fd46c836a06233681665,64dc7f7830f891f885739ac1,,,,,,,ctch,resources/DY.BMP,resources/DBN.BMP,Door4,0.322916667,-0.056944444,1,0,0,0.9172,optionRight,80,14555,7,2,0,2,0,1,,,,,,,,,,,,,,,,,,,,,,,,,,,,,,,,,,,,,,,
,,,,,,,,2023-08-16_08h49.36.979,HF_wild_card,2022.2.4,Win32,60.09615385,599c578d8acf1e0001599633,64d2fd46c836a06233681665,64dc7f7830f891f885739ac1,,,,,,,decisionTrl,resources/DB.BMP,resources/DBN.BMP,Door4,0.331944444,-0.06875,1,0,0,0.9028,optionRight,60,14615,7,3,0,3,0,1,,,,,,,,,,,,,,,,,,,,,,,,,,,,,,,,,,,,,,,
,,,,,,,,2023-08-16_08h49.36.979,HF_wild_card,2022.2.4,Win32,60.09615385,599c578d8acf1e0001599633,64d2fd46c836a06233681665,64dc7f7830f891f885739ac1,,,,,,,decisionTrl,resources/DP.BMP,resources/DY.BMP,Door1,0.386111111,-0.068055556,1,0,0,1.4675,optionRight,30,14645,7,4,0,4,0,1,,,,,,,,,,,,,,,,,,,,,,,,,,,,,,,,,,,,,,,
,,,,,,,,2023-08-16_08h49.36.979,HF_wild_card,2022.2.4,Win32,60.09615385,599c578d8acf1e0001599633,64d2fd46c836a06233681665,64dc7f7830f891f885739ac1,,,,,,,ctch,resources/DP.BMP,resources/DB.BMP,Door3,0.379166667,-0.067361111,1,0,0,1.0696,optionRight,70,14715,7,5,0,5,0,1,,,,,,,,,,,,,,,,,,,,,,,,,,,,,,,,,,,,,,,
,,,,,,,,2023-08-16_08h49.36.979,HF_wild_card,2022.2.4,Win32,60.09615385,599c578d8acf1e0001599633,64d2fd46c836a06233681665,64dc7f7830f891f885739ac1,,,,,,,decisionTrl,resources/DB.BMP,resources/DBN.BMP,Door4,0.370138889,-0.048611111,1,0,0,1.0858,optionRight,60,14775,7,6,0,6,0,1,,,,,,,,,,,,,,,,,,,,,,,,,,,,,,,,,,,,,,,
,,,,,,,,2023-08-16_08h49.36.979,HF_wild_card,2022.2.4,Win32,60.09615385,599c578d8acf1e0001599633,64d2fd46c836a06233681665,64dc7f7830f891f885739ac1,,,,,,,ctch,resources/DBN.BMP,resources/DY.BMP,Door4,-0.255555556,0.032638889,1,0,0,0.9835,optionLeft,60,14835,7,7,0,7,0,1,,,,,,,,,,,,,,,,,,,,,,,,,,,,,,,,,,,,,,,
,,,,,,,,2023-08-16_08h49.36.979,HF_wild_card,2022.2.4,Win32,60.09615385,599c578d8acf1e0001599633,64d2fd46c836a06233681665,64dc7f7830f891f885739ac1,,,,,,,decisionTrl,resources/DBN.BMP,resources/DB.BMP,Door4,-0.325,0.043055556,1,0,0,0.9841,optionLeft,80,14915,7,8,0,8,0,1,,,,,,,,,,,,,,,,,,,,,,,,,,,,,,,,,,,,,,,
,,,,,,,,2023-08-16_08h49.36.979,HF_wild_card,2022.2.4,Win32,60.09615385,599c578d8acf1e0001599633,64d2fd46c836a06233681665,64dc7f7830f891f885739ac1,,,,,,,decisionTrl,resources/DY.BMP,resources/DP.BMP,Door1,-0.333333333,0.053472222,1,0,0,1.1999,optionLeft,30,14945,7,9,0,9,0,1,,,,,,,,,,,,,,,,,,,,,,,,,,,,,,,,,,,,,,,
,,,,,,,,2023-08-16_08h49.36.979,HF_wild_card,2022.2.4,Win32,60.09615385,599c578d8acf1e0001599633,64d2fd46c836a06233681665,64dc7f7830f891f885739ac1,,,,,,,ctch,resources/DBN.BMP,resources/DY.BMP,Door4,-0.245138889,0.032638889,1,0,0,1.2169,optionLeft,60,15005,7,10,0,10,0,1,,,,,,,,,,,,,,,,,,,,,,,,,,,,,,,,,,,,,,,
,,,,,,,,2023-08-16_08h49.36.979,HF_wild_card,2022.2.4,Win32,60.09615385,599c578d8acf1e0001599633,64d2fd46c836a06233681665,64dc7f7830f891f885739ac1,,,,,,,decisionTrl,resources/DP.BMP,resources/DY.BMP,Door1,0.311111111,-0.065277778,1,0,0,1.2837,optionRight,30,15035,7,11,0,11,0,1,,,,,,,,,,,,,,,,,,,,,,,,,,,,,,,,,,,,,,,
,,,,,,,,2023-08-16_08h49.36.979,HF_wild_card,2022.2.4,Win32,60.09615385,599c578d8acf1e0001599633,64d2fd46c836a06233681665,64dc7f7830f891f885739ac1,,,,,,,ctch,resources/DY.BMP,resources/DBN.BMP,Door4,0.231944444,-0.032638889,1,0,0,1.1504,optionRight,80,15115,7,12,0,12,0,1,,,,,,,,,,,,,,,,,,,,,,,,,,,,,,,,,,,,,,,
,,,,,,,,2023-08-16_08h49.36.979,HF_wild_card,2022.2.4,Win32,60.09615385,599c578d8acf1e0001599633,64d2fd46c836a06233681665,64dc7f7830f891f885739ac1,,,,,,,decisionTrl,resources/DB.BMP,resources/DBN.BMP,Door4,0.277777778,-0.043055556,1,0,0,0.8835,optionRight,80,15195,7,13,0,13,0,1,,,,,,,,,,,,,,,,,,,,,,,,,,,,,,,,,,,,,,,
,,,,,,,,2023-08-16_08h49.36.979,HF_wild_card,2022.2.4,Win32,60.09615385,599c578d8acf1e0001599633,64d2fd46c836a06233681665,64dc7f7830f891f885739ac1,,,,,,,decisionTrl,resources/DP.BMP,resources/DY.BMP,Door1,0.372916667,-0.059027778,1,0,0,1.3,optionRight,30,15225,7,14,0,14,0,1,,,,,,,,,,,,,,,,,,,,,,,,,,,,,,,,,,,,,,,
,,,,,,,,2023-08-16_08h49.36.979,HF_wild_card,2022.2.4,Win32,60.09615385,599c578d8acf1e0001599633,64d2fd46c836a06233681665,64dc7f7830f891f885739ac1,,,,,,,decisionTrl,resources/DBN.BMP,resources/DB.BMP,Door4,-0.191666667,0.0375,1,0,0,1.2314,optionLeft,60,15285,7,15,0,15,0,1,,,,,,,,,,,,,,,,,,,,,,,,,,,,,,,,,,,,,,,
,,,,,,,,2023-08-16_08h49.36.979,HF_wild_card,2022.2.4,Win32,60.09615385,599c578d8acf1e0001599633,64d2fd46c836a06233681665,64dc7f7830f891f885739ac1,,,,,,,decisionTrl,resources/DY.BMP,resources/DP.BMP,Door1,-0.23125,0.027777778,1,0,0,1.3507,optionLeft,30,15315,7,16,0,16,0,1,,,,,,,,,,,,,,,,,,,,,,,,,,,,,,,,,,,,,,,
,,,,,,,,2023-08-16_08h49.36.979,HF_wild_card,2022.2.4,Win32,60.09615385,599c578d8acf1e0001599633,64d2fd46c836a06233681665,64dc7f7830f891f885739ac1,,,,,,,ctch,resources/DP.BMP,resources/DB.BMP,Door3,0.258333333,-0.036805556,1,0,0,1.0355,optionRight,70,15385,7,17,0,17,0,1,,,,,,,,,,,,,,,,,,,,,,,,,,,,,,,,,,,,,,,
,,,,,,,,2023-08-16_08h49.36.979,HF_wild_card,2022.2.4,Win32,60.09615385,599c578d8acf1e0001599633,64d2fd46c836a06233681665,64dc7f7830f891f885739ac1,,,,,,,decisionTrl,resources/DBN.BMP,resources/DB.BMP,Door4,-0.283333333,0.021527778,1,0,0,1.2986,optionLeft,80,15465,7,18,0,18,0,1,,,,,,,,,,,,,,,,,,,,,,,,,,,,,,,,,,,,,,,
,,,,,,,,2023-08-16_08h49.36.979,HF_wild_card,2022.2.4,Win32,60.09615385,599c578d8acf1e0001599633,64d2fd46c836a06233681665,64dc7f7830f891f885739ac1,,,,,,,decisionTrl,resources/DP.BMP,resources/DY.BMP,Door1,0.178472222,-0.036805556,1,0,0,1.8674,optionRight,30,15495,7,19,0,19,0,1,,,,,,,,,,,,,,,,,,,,,,,,,,,,,,,,,,,,,,,
,,,,,,,,2023-08-16_08h49.36.979,HF_wild_card,2022.2.4,Win32,60.09615385,599c578d8acf1e0001599633,64d2fd46c836a06233681665,64dc7f7830f891f885739ac1,,,,,,,ctch,resources/DB.BMP,resources/DP.BMP,Door3,-0.258333333,0.025694444,1,0,0,1.1506,optionLeft,70,15565,7,20,0,20,0,1,,,,,,,,,,,,,,,,,,,,,,,,,,,,,,,,,,,,,,,
,,,,,,,,2023-08-16_08h49.36.979,HF_wild_card,2022.2.4,Win32,60.09615385,599c578d8acf1e0001599633,64d2fd46c836a06233681665,64dc7f7830f891f885739ac1,,,,,,,decisionTrl,resources/DBN.BMP,resources/DB.BMP,Door4,-0.278472222,0.005555556,1,0,0,0.9352,optionLeft,80,15645,7,21,0,21,0,1,,,,,,,,,,,,,,,,,,,,,,,,,,,,,,,,,,,,,,,
,,,,,,,,2023-08-16_08h49.36.979,HF_wild_card,2022.2.4,Win32,60.09615385,599c578d8acf1e0001599633,64d2fd46c836a06233681665,64dc7f7830f891f885739ac1,,,,,,,decisionTrl,resources/DBN.BMP,resources/DB.BMP,Door4,-0.238888889,0.005555556,1,0,0,0.9689,optionLeft,60,15705,7,22,0,22,0,1,,,,,,,,,,,,,,,,,,,,,,,,,,,,,,,,,,,,,,,
,,,,,,,,2023-08-16_08h49.36.979,HF_wild_card,2022.2.4,Win32,60.09615385,599c578d8acf1e0001599633,64d2fd46c836a06233681665,64dc7f7830f891f885739ac1,,,,,,,decisionTrl,resources/DBN.BMP,resources/DB.BMP,Door4,-0.250694444,0.028472222,1,0,0,0.7696,optionLeft,80,15785,7,23,0,23,0,1,,,,,,,,,,,,,,,,,,,,,,,,,,,,,,,,,,,,,,,
,,,,,,,,2023-08-16_08h49.36.979,HF_wild_card,2022.2.4,Win32,60.09615385,599c578d8acf1e0001599633,64d2fd46c836a06233681665,64dc7f7830f891f885739ac1,,,,,,,decisionTrl,resources/DB.BMP,resources/DBN.BMP,Door4,0.320833333,-0.058333333,1,0,0,0.9691,optionRight,60,15845,7,24,0,24,0,1,,,,,,,,,,,,,,,,,,,,,,,,,,,,,,,,,,,,,,,
,,,,,,,,2023-08-16_08h49.36.979,HF_wild_card,2022.2.4,Win32,60.09615385,599c578d8acf1e0001599633,64d2fd46c836a06233681665,64dc7f7830f891f885739ac1,,,,,,,decisionTrl,resources/DY.BMP,resources/DP.BMP,Door1,-0.232638889,0.008333333,1,0,0,1.4467,optionLeft,30,15875,7,25,0,25,0,1,,,,,,,,,,,,,,,,,,,,,,,,,,,,,,,,,,,,,,,
,,,,,,,,2023-08-16_08h49.36.979,HF_wild_card,2022.2.4,Win32,60.09615385,599c578d8acf1e0001599633,64d2fd46c836a06233681665,64dc7f7830f891f885739ac1,,,,,,,decisionTrl,resources/DB.BMP,resources/DBN.BMP,Door4,0.259027778,-0.0625,1,0,0,0.7627,optionRight,80,15955,7,26,0,26,0,1,,,,,,,,,,,,,,,,,,,,,,,,,,,,,,,,,,,,,,,
,,,,,,,,2023-08-16_08h49.36.979,HF_wild_card,2022.2.4,Win32,60.09615385,599c578d8acf1e0001599633,64d2fd46c836a06233681665,64dc7f7830f891f885739ac1,,,,,,,ctch,resources/DBN.BMP,resources/DY.BMP,Door4,-0.2,0.011111111,1,0,0,0.8358,optionLeft,80,16035,7,27,0,27,0,1,,,,,,,,,,,,,,,,,,,,,,,,,,,,,,,,,,,,,,,
,,,,,,,,2023-08-16_08h49.36.979,HF_wild_card,2022.2.4,Win32,60.09615385,599c578d8acf1e0001599633,64d2fd46c836a06233681665,64dc7f7830f891f885739ac1,,,,,,,ctch,resources/DB.BMP,resources/DP.BMP,Door3,-0.242361111,0.013194444,1,0,0,1.003,optionLeft,70,16105,7,28,0,28,0,1,,,,,,,,,,,,,,,,,,,,,,,,,,,,,,,,,,,,,,,
,,,,,,,,2023-08-16_08h49.36.979,HF_wild_card,2022.2.4,Win32,60.09615385,599c578d8acf1e0001599633,64d2fd46c836a06233681665,64dc7f7830f891f885739ac1,,,,,,,decisionTrl,resources/DY.BMP,resources/DP.BMP,Door1,-0.231944444,0.028472222,1,0,0,1.2002,optionLeft,30,16135,7,29,0,29,0,1,,,,,,,,,,,,,,,,,,,,,,,,,,,,,,,,,,,,,,,
,,,,,,,,2023-08-16_08h49.36.979,HF_wild_card,2022.2.4,Win32,60.09615385,599c578d8acf1e0001599633,64d2fd46c836a06233681665,64dc7f7830f891f885739ac1,,,,,,,ctch,resources/DP.BMP,resources/DB.BMP,Door3,0.277777778,-0.076388889,1,0,0,1.3336,optionRight,70,16205,7,30,0,30,0,1,,,,,,,,,,,,,,,,,,,,,,,,,,,,,,,,,,,,,,,
,,,,,,,,2023-08-16_08h49.36.979,HF_wild_card,2022.2.4,Win32,60.09615385,599c578d8acf1e0001599633,64d2fd46c836a06233681665,64dc7f7830f891f885739ac1,,,,,,,ctch,resources/DB.BMP,resources/DP.BMP,Door3,-0.161111111,-0.004166667,1,0,0,0.8333,optionLeft,70,16275,7,31,0,31,0,1,,,,,,,,,,,,,,,,,,,,,,,,,,,,,,,,,,,,,,,
,,,,,,,,2023-08-16_08h49.36.979,HF_wild_card,2022.2.4,Win32,60.09615385,599c578d8acf1e0001599633,64d2fd46c836a06233681665,64dc7f7830f891f885739ac1,,,,,,,decisionTrl,resources/DP.BMP,resources/DY.BMP,Door1,0.173611111,-0.05,1,0,0,1.7175,optionRight,30,16305,7,32,0,32,0,1,,,,,,,,,,,,,,,,,,,,,,,,,,,,,,,,,,,,,,,
,,,,,,,,2023-08-16_08h49.36.979,HF_wild_card,2022.2.4,Win32,60.09615385,599c578d8acf1e0001599633,64d2fd46c836a06233681665,64dc7f7830f891f885739ac1,,,,,,,ctch,resources/DY.BMP,resources/DBN.BMP,Door4,0.268055556,-0.063194444,1,0,0,0.782,optionRight,80,16385,7,33,0,33,0,1,,,,,,,,,,,,,,,,,,,,,,,,,,,,,,,,,,,,,,,
,,,,,,,,2023-08-16_08h49.36.979,HF_wild_card,2022.2.4,Win32,60.09615385,599c578d8acf1e0001599633,64d2fd46c836a06233681665,64dc7f7830f891f885739ac1,,,,,,,decisionTrl,resources/DP.BMP,resources/DY.BMP,Door1,0.307638889,-0.069444444,1,0,0,1.5507,optionRight,30,16415,7,34,0,34,0,1,,,,,,,,,,,,,,,,,,,,,,,,,,,,,,,,,,,,,,,
,,,,,,,,2023-08-16_08h49.36.979,HF_wild_card,2022.2.4,Win32,60.09615385,599c578d8acf1e0001599633,64d2fd46c836a06233681665,64dc7f7830f891f885739ac1,,,,,,,decisionTrl,resources/DY.BMP,resources/DP.BMP,Door1,-0.25625,-0.000694444,1,0,0,1.0306,optionLeft,30,16445,7,35,0,35,0,1,,,,,,,,,,,,,,,,,,,,,,,,,,,,,,,,,,,,,,,
,,,,,,,,2023-08-16_08h49.36.979,HF_wild_card,2022.2.4,Win32,60.09615385,599c578d8acf1e0001599633,64d2fd46c836a06233681665,64dc7f7830f891f885739ac1,,,,,,,,,,,,,,,,,,,,,,,,,,6,0,6,0,1,,,,,,,,,,,,,,,,,,,,,,,,,,,,,,,,,,
,,,,,,,,2023-08-16_08h49.36.979,HF_wild_card,2022.2.4,Win32,60.09615385,599c578d8acf1e0001599633,64d2fd46c836a06233681665,64dc7f7830f891f885739ac1,,,,,,,,,,,,,,,,,,,,,,,,,,,,,,,4,,,,,,,,,,,,,,,,,,,,,,,,,,,,,,,,,
,,,,,,,,2023-08-16_08h49.36.979,HF_wild_card,2022.2.4,Win32,60.09615385,599c578d8acf1e0001599633,64d2fd46c836a06233681665,64dc7f7830f891f885739ac1,,,,,,,,,,,,,,,,,,,,,,,,,,,,,,,,,,,,,,,,,,,,,,,,,,,,,,,,,,,,,,,,
,,,,,,,,2023-08-16_08h49.36.979,HF_wild_card,2022.2.4,Win32,60.09615385,599c578d8acf1e0001599633,64d2fd46c836a06233681665,64dc7f7830f891f885739ac1,,,,,,,,,,,,,,,,,,,,,,,,,,,,,,,,70,Door3,resources/DB.BMP,0,0,0,0,1,,,,,,,,,,,,,,,,,,,,,,,,,
,,,,,,,,2023-08-16_08h49.36.979,HF_wild_card,2022.2.4,Win32,60.09615385,599c578d8acf1e0001599633,64d2fd46c836a06233681665,64dc7f7830f891f885739ac1,,,,,,,,,,,,,,,,,,,,,,,,,,,,,,,,30,Door1,resources/DY.BMP,1,0,1,0,1,,,,,,,,,,,,,,,,,,,,,,,,,
,,,,,,,,2023-08-16_08h49.36.979,HF_wild_card,2022.2.4,Win32,60.09615385,599c578d8acf1e0001599633,64d2fd46c836a06233681665,64dc7f7830f891f885739ac1,,,,,,,,,,,,,,,,,,,,,,,,,,,,,,,,80,Door4,resources/DBN.BMP,2,0,2,0,1,,,,,,,,,,,,,,,,,,,,,,,,,
,,,,,,,,2023-08-16_08h49.36.979,HF_wild_card,2022.2.4,Win32,60.09615385,599c578d8acf1e0001599633,64d2fd46c836a06233681665,64dc7f7830f891f885739ac1,,,,,,,,,,,,,,,,,,,,,,,,,,,,,,,,20,Door2,resources/DP.BMP,3,0,3,0,1,,,,,,,,,,,,,,,,,,,,,,,,,
,,,,,,,,2023-08-16_08h49.36.979,HF_wild_card,2022.2.4,Win32,60.09615385,599c578d8acf1e0001599633,64d2fd46c836a06233681665,64dc7f7830f891f885739ac1,,,,,,,,,,,,,,,,,,,,,,,,,,,,,,,,45,WC_extreme,resources/DR.BMP,4,0,4,0,1,,,,,,,,,,,,,,,,,,,,,,,,,
,,,,,,,,2023-08-16_08h49.36.979,HF_wild_card,2022.2.4,Win32,60.09615385,599c578d8acf1e0001599633,64d2fd46c836a06233681665,64dc7f7830f891f885739ac1,,,,,,,,,,,,,,,,,,,,,,,,,,,,,,,,55,WC_nonExtreme,resources/DG.BMP,5,0,5,0,1,,,,,,,,,,,,,,,,,,,,,,,,,
,,,,,,,,2023-08-16_08h49.36.979,HF_wild_card,2022.2.4,Win32,60.09615385,599c578d8acf1e0001599633,64d2fd46c836a06233681665,64dc7f7830f891f885739ac1,,,,,,,,,,,,,,,,,,,,,,,,,,,,,,,,,,,,,,,,,,,,,,,,,,,,,,,,,,,,,,,,
,,,,,,,,2023-08-16_08h49.36.979,HF_wild_card,2022.2.4,Win32,60.09615385,599c578d8acf1e0001599633,64d2fd46c836a06233681665,64dc7f7830f891f885739ac1,,,,,,,,,,,,,,,,,,,,,,,,,,,,,,,,,,,,,,,,0,0,0,0,1,,,,,,,,,,,,,,,,,,,,
,,,,,,,,2023-08-16_08h49.36.979,HF_wild_card,2022.2.4,Win32,60.09615385,599c578d8acf1e0001599633,64d2fd46c836a06233681665,64dc7f7830f891f885739ac1,,,,,,,,,,,,,,,,,,,,,,,,,,,,,,,,,,,,,,,,1,0,1,0,1,,,,,,,,,,,,,,,,,,,,
