Condition,Low fixed image (Door1),Low risky image (Door2),High fixed image (Door3),High risky image (Door4),NonExtreme Wild Card 1,NonExtreme Wild Card 2,,date,expName,psychopyVersion,OS,frameRate,PROLIFIC_PID,STUDY_ID,SESSION_ID,mouse_2.x,mouse_2.y,mouse_2.leftButton,mouse_2.midButton,mouse_2.rightButton,mouse_2.clicked_name,Trial Type,Left Option Image,Right Option Image,Chosen Door,mouse.x,mouse.y,mouse.leftButton,mouse.midButton,mouse.rightButton,mouse.time,mouse.clicked_name,Feedback,Cumulative Reward,Block,trial.thisRepN,trial.thisTrialN,trial.thisN,trial.thisIndex,trial.ran,blocks.thisRepN,blocks.thisTrialN,blocks.thisN,blocks.thisIndex,blocks.ran,Money conversion,First Outcome Reported,Shown Door (First Outcome),Displayed Image (First Outcome),outcomes.thisRepN,outcomes.thisTrialN,outcomes.thisN,outcomes.thisIndex,outcomes.ran,judgments.thisRepN,judgments.thisTrialN,judgments.thisN,judgments.thisIndex,judgments.ran,freqMouse.x,freqMouse.y,freqMouse.leftButton,freqMouse.midButton,freqMouse.rightButton,freqMouse.clicked_name,trials.thisRepN,trials.thisTrialN,trials.thisN,trials.thisIndex,trials.ran,FQJ for first outcome,FQJ for second outcome,Shown Door,Displayed Image,judgBlock.thisRepN,judgBlock.thisTrialN,judgBlock.thisN,judgBlock.thisIndex,judgBlock.ran
2,resources/DR.BMP,resources/DP.BMP,resources/DG.BMP,resources/DB.BMP,resources/DY.BMP,resources/DBN.BMP,,2023-08-16_08h47.15.795,HF_wild_card,2022.2.4,Win32,60.03121623,5c73a9d92dfbdb0001b95375,64d2fd46c836a06233681665,64dc7ee762f341461303348d,,,,,,,,,,,,,,,,,,,,,,,,,,,,,,,,,,,,,,,,,,,,,,,,,,,,,,,,,,,,,,,,
,,,,,,,,2023-08-16_08h47.15.795,HF_wild_card,2022.2.4,Win32,60.03121623,5c73a9d92dfbdb0001b95375,64d2fd46c836a06233681665,64dc7ee762f341461303348d,0.012963019,-0.419444444,1,0,0,agree,,,,,,,,,,,,,,,,,,,,,,,,,,,,,,,,,,,,,,,,,,,,,,,,,,,,,,,,,,
,,,,,,,,2023-08-16_08h47.15.795,HF_wild_card,2022.2.4,Win32,60.03121623,5c73a9d92dfbdb0001b95375,64d2fd46c836a06233681665,64dc7ee762f341461303348d,,,,,,,,,,,,,,,,,,,,,,,,,,,,,,,,,,,,,,,,,,,,,,,,,,,,,,,,,,,,,,,,
,,,,,,,,2023-08-16_08h47.15.795,HF_wild_card,2022.2.4,Win32,60.03121623,5c73a9d92dfbdb0001b95375,64d2fd46c836a06233681665,64dc7ee762f341461303348d,,,,,,,ctch,resources/DP.BMP,resources/DG.BMP,Door3,0.388888889,-0.144444444,1,0,0,3.9168,optionRight,70,70,1,0,0,0,0,1,,,,,,,,,,,,,,,,,,,,,,,,,,,,,,,,,,,,,,,
,,,,,,,,2023-08-16_08h47.15.795,HF_wild_card,2022.2.4,Win32,60.03121623,5c73a9d92dfbdb0001b95375,64d2fd46c836a06233681665,64dc7ee762f341461303348d,,,,,,,decisionTrl,resources/DR.BMP,resources/DP.BMP,Door1,-0.324074074,-0.044444444,1,0,0,2.7603,optionLeft,30,100,1,1,0,1,0,1,,,,,,,,,,,,,,,,,,,,,,,,,,,,,,,,,,,,,,,
,,,,,,,,2023-08-16_08h47.15.795,HF_wild_card,2022.2.4,Win32,60.03121623,5c73a9d92dfbdb0001b95375,64d2fd46c836a06233681665,64dc7ee762f341461303348d,,,,,,,sngl,resources/DB.BMP,resources/Empty.png,Door4,-0.264814815,-0.012037037,1,0,0,2.2932,optionLeft,80,180,1,2,0,2,0,1,,,,,,,,,,,,,,,,,,,,,,,,,,,,,,,,,,,,,,,
,,,,,,,,2023-08-16_08h47.15.795,HF_wild_card,2022.2.4,Win32,60.03121623,5c73a9d92dfbdb0001b95375,64d2fd46c836a06233681665,64dc7ee762f341461303348d,,,,,,,decisionTrl,resources/DG.BMP,resources/DB.BMP,Door4,0.3,-0.023148148,1,0,0,2.6604,optionRight,80,260,1,3,0,3,0,1,,,,,,,,,,,,,,,,,,,,,,,,,,,,,,,,,,,,,,,
,,,,,,,,2023-08-16_08h47.15.795,HF_wild_card,2022.2.4,Win32,60.03121623,5c73a9d92dfbdb0001b95375,64d2fd46c836a06233681665,64dc7ee762f341461303348d,,,,,,,ctch,resources/DR.BMP,resources/DB.BMP,Door4,0.436111111,-0.037037037,1,0,0,1.595,optionRight,80,340,1,4,0,4,0,1,,,,,,,,,,,,,,,,,,,,,,,,,,,,,,,,,,,,,,,
,,,,,,,,2023-08-16_08h47.15.795,HF_wild_card,2022.2.4,Win32,60.03121623,5c73a9d92dfbdb0001b95375,64d2fd46c836a06233681665,64dc7ee762f341461303348d,,,,,,,sngl,resources/Empty.png,resources/DG.BMP,Door3,0.483333333,-0.006481481,1,0,0,1.4613,optionRight,70,410,1,5,0,5,0,1,,,,,,,,,,,,,,,,,,,,,,,,,,,,,,,,,,,,,,,
,,,,,,,,2023-08-16_08h47.15.795,HF_wild_card,2022.2.4,Win32,60.03121623,5c73a9d92dfbdb0001b95375,64d2fd46c836a06233681665,64dc7ee762f341461303348d,,,,,,,decisionTrl,resources/DP.BMP,resources/DR.BMP,Door1,0.50462963,-0.031481481,1,0,0,1.7777,optionRight,30,440,1,6,0,6,0,1,,,,,,,,,,,,,,,,,,,,,,,,,,,,,,,,,,,,,,,
,,,,,,,,2023-08-16_08h47.15.795,HF_wild_card,2022.2.4,Win32,60.03121623,5c73a9d92dfbdb0001b95375,64d2fd46c836a06233681665,64dc7ee762f341461303348d,,,,,,,decisionTrl,resources/DG.BMP,resources/DB.BMP,Door4,0.430555556,-0.017592593,1,0,0,1.5942,optionRight,80,520,1,7,0,7,0,1,,,,,,,,,,,,,,,,,,,,,,,,,,,,,,,,,,,,,,,
,,,,,,,,2023-08-16_08h47.15.795,HF_wild_card,2022.2.4,Win32,60.03121623,5c73a9d92dfbdb0001b95375,64d2fd46c836a06233681665,64dc7ee762f341461303348d,,,,,,,decisionTrl,resources/DR.BMP,resources/DP.BMP,Door2,0.338888889,-0.006481481,1,0,0,2.8772,optionRight,20,540,1,8,0,8,0,1,,,,,,,,,,,,,,,,,,,,,,,,,,,,,,,,,,,,,,,
,,,,,,,,2023-08-16_08h47.15.795,HF_wild_card,2022.2.4,Win32,60.03121623,5c73a9d92dfbdb0001b95375,64d2fd46c836a06233681665,64dc7ee762f341461303348d,,,,,,,ctch,resources/DP.BMP,resources/DG.BMP,Door3,0.524074074,-0.017592593,1,0,0,1.2276,optionRight,70,610,1,9,0,9,0,1,,,,,,,,,,,,,,,,,,,,,,,,,,,,,,,,,,,,,,,
,,,,,,,,2023-08-16_08h47.15.795,HF_wild_card,2022.2.4,Win32,60.03121623,5c73a9d92dfbdb0001b95375,64d2fd46c836a06233681665,64dc7ee762f341461303348d,,,,,,,decisionTrl,resources/DB.BMP,resources/DG.BMP,Door4,-0.512962935,-0.009259259,1,0,0,1.9108,optionLeft,80,690,1,10,0,10,0,1,,,,,,,,,,,,,,,,,,,,,,,,,,,,,,,,,,,,,,,
,,,,,,,,2023-08-16_08h47.15.795,HF_wild_card,2022.2.4,Win32,60.03121623,5c73a9d92dfbdb0001b95375,64d2fd46c836a06233681665,64dc7ee762f341461303348d,,,,,,,decisionTrl,resources/DBN.BMP,resources/DB.BMP,WildCard_NonEx,-0.273148148,-0.002777778,1,0,0,2.2942,optionLeft,45,735,1,11,0,11,0,1,,,,,,,,,,,,,,,,,,,,,,,,,,,,,,,,,,,,,,,
,,,,,,,,2023-08-16_08h47.15.795,HF_wild_card,2022.2.4,Win32,60.03121623,5c73a9d92dfbdb0001b95375,64d2fd46c836a06233681665,64dc7ee762f341461303348d,,,,,,,decisionTrl,resources/DG.BMP,resources/DB.BMP,Door4,0.460185185,-0.014814815,1,0,0,1.2108,optionRight,60,795,1,12,0,12,0,1,,,,,,,,,,,,,,,,,,,,,,,,,,,,,,,,,,,,,,,
,,,,,,,,2023-08-16_08h47.15.795,HF_wild_card,2022.2.4,Win32,60.03121623,5c73a9d92dfbdb0001b95375,64d2fd46c836a06233681665,64dc7ee762f341461303348d,,,,,,,decisionTrl,resources/DB.BMP,resources/DG.BMP,Door4,-0.492592593,-0.000925926,1,0,0,1.6272,optionLeft,60,855,1,13,0,13,0,1,,,,,,,,,,,,,,,,,,,,,,,,,,,,,,,,,,,,,,,
,,,,,,,,2023-08-16_08h47.15.795,HF_wild_card,2022.2.4,Win32,60.03121623,5c73a9d92dfbdb0001b95375,64d2fd46c836a06233681665,64dc7ee762f341461303348d,,,,,,,sngl,resources/Empty.png,resources/DP.BMP,Door2,0.521296296,-0.022222222,1,0,0,1.1103,optionRight,20,875,1,14,0,14,0,1,,,,,,,,,,,,,,,,,,,,,,,,,,,,,,,,,,,,,,,
,,,,,,,,2023-08-16_08h47.15.795,HF_wild_card,2022.2.4,Win32,60.03121623,5c73a9d92dfbdb0001b95375,64d2fd46c836a06233681665,64dc7ee762f341461303348d,,,,,,,sngl,resources/DR.BMP,resources/Empty.png,Door1,-0.459259259,0.05,1,0,0,0.9946,optionLeft,30,905,1,15,0,15,0,1,,,,,,,,,,,,,,,,,,,,,,,,,,,,,,,,,,,,,,,
,,,,,,,,2023-08-16_08h47.15.795,HF_wild_card,2022.2.4,Win32,60.03121623,5c73a9d92dfbdb0001b95375,64d2fd46c836a06233681665,64dc7ee762f341461303348d,,,,,,,decisionTrl,resources/DP.BMP,resources/DR.BMP,Door2,-0.382407407,-0.023148148,1,0,0,1.877,optionLeft,20,925,1,16,0,16,0,1,,,,,,,,,,,,,,,,,,,,,,,,,,,,,,,,,,,,,,,
,,,,,,,,2023-08-16_08h47.15.795,HF_wild_card,2022.2.4,Win32,60.03121623,5c73a9d92dfbdb0001b95375,64d2fd46c836a06233681665,64dc7ee762f341461303348d,,,,,,,decisionTrl,resources/DB.BMP,resources/DG.BMP,Door3,0.393518519,-0.014814815,1,0,0,1.0613,optionRight,70,995,1,17,0,17,0,1,,,,,,,,,,,,,,,,,,,,,,,,,,,,,,,,,,,,,,,
,,,,,,,,2023-08-16_08h47.15.795,HF_wild_card,2022.2.4,Win32,60.03121623,5c73a9d92dfbdb0001b95375,64d2fd46c836a06233681665,64dc7ee762f341461303348d,,,,,,,sngl,resources/DBN.BMP,resources/Empty.png,WildCard_NonEx,-0.337962963,0.027777778,1,0,0,0.8775,optionLeft,45,1040,1,18,0,18,0,1,,,,,,,,,,,,,,,,,,,,,,,,,,,,,,,,,,,,,,,
,,,,,,,,2023-08-16_08h47.15.795,HF_wild_card,2022.2.4,Win32,60.03121623,5c73a9d92dfbdb0001b95375,64d2fd46c836a06233681665,64dc7ee762f341461303348d,,,,,,,ctch,resources/DG.BMP,resources/DP.BMP,Door3,-0.346296296,0.019444444,1,0,0,1.9772,optionLeft,70,1110,1,19,0,19,0,1,,,,,,,,,,,,,,,,,,,,,,,,,,,,,,,,,,,,,,,
,,,,,,,,2023-08-16_08h47.15.795,HF_wild_card,2022.2.4,Win32,60.03121623,5c73a9d92dfbdb0001b95375,64d2fd46c836a06233681665,64dc7ee762f341461303348d,,,,,,,decisionTrl,resources/DBN.BMP,resources/DG.BMP,Door3,0.397222222,-0.067592593,1,0,0,1.0772,optionRight,70,1180,1,20,0,20,0,1,,,,,,,,,,,,,,,,,,,,,,,,,,,,,,,,,,,,,,,
,,,,,,,,2023-08-16_08h47.15.795,HF_wild_card,2022.2.4,Win32,60.03121623,5c73a9d92dfbdb0001b95375,64d2fd46c836a06233681665,64dc7ee762f341461303348d,,,,,,,decisionTrl,resources/DG.BMP,resources/DBN.BMP,Door3,-0.27037037,0.02037037,1,0,0,1.127,optionLeft,70,1250,1,21,0,21,0,1,,,,,,,,,,,,,,,,,,,,,,,,,,,,,,,,,,,,,,,
,,,,,,,,2023-08-16_08h47.15.795,HF_wild_card,2022.2.4,Win32,60.03121623,5c73a9d92dfbdb0001b95375,64d2fd46c836a06233681665,64dc7ee762f341461303348d,,,,,,,sngl,resources/Empty.png,resources/DBN.BMP,WildCard_NonEx,0.426851852,0.00462963,1,0,0,1.0784,optionRight,55,1305,1,22,0,22,0,1,,,,,,,,,,,,,,,,,,,,,,,,,,,,,,,,,,,,,,,
,,,,,,,,2023-08-16_08h47.15.795,HF_wild_card,2022.2.4,Win32,60.03121623,5c73a9d92dfbdb0001b95375,64d2fd46c836a06233681665,64dc7ee762f341461303348d,,,,,,,decisionTrl,resources/DG.BMP,resources/DB.BMP,Door3,-0.321296296,0.025,1,0,0,1.7262,optionLeft,70,1375,1,23,0,23,0,1,,,,,,,,,,,,,,,,,,,,,,,,,,,,,,,,,,,,,,,
,,,,,,,,2023-08-16_08h47.15.795,HF_wild_card,2022.2.4,Win32,60.03121623,5c73a9d92dfbdb0001b95375,64d2fd46c836a06233681665,64dc7ee762f341461303348d,,,,,,,sngl,resources/DBN.BMP,resources/Empty.png,WildCard_NonEx,-0.360185185,0.017592593,1,0,0,1.0114,optionLeft,55,1430,1,24,0,24,0,1,,,,,,,,,,,,,,,,,,,,,,,,,,,,,,,,,,,,,,,
,,,,,,,,2023-08-16_08h47.15.795,HF_wild_card,2022.2.4,Win32,60.03121623,5c73a9d92dfbdb0001b95375,64d2fd46c836a06233681665,64dc7ee762f341461303348d,,,,,,,decisionTrl,resources/DBN.BMP,resources/DR.BMP,Door1,0.533333333,-0.025925926,1,0,0,1.6607,optionRight,30,1460,1,25,0,25,0,1,,,,,,,,,,,,,,,,,,,,,,,,,,,,,,,,,,,,,,,
,,,,,,,,2023-08-16_08h47.15.795,HF_wild_card,2022.2.4,Win32,60.03121623,5c73a9d92dfbdb0001b95375,64d2fd46c836a06233681665,64dc7ee762f341461303348d,,,,,,,sngl,resources/DP.BMP,resources/Empty.png,Door2,-0.381481481,0,1,0,0,0.8943,optionLeft,40,1500,1,26,0,26,0,1,,,,,,,,,,,,,,,,,,,,,,,,,,,,,,,,,,,,,,,
,,,,,,,,2023-08-16_08h47.15.795,HF_wild_card,2022.2.4,Win32,60.03121623,5c73a9d92dfbdb0001b95375,64d2fd46c836a06233681665,64dc7ee762f341461303348d,,,,,,,ctch,resources/DR.BMP,resources/DB.BMP,Door4,-0.020370314,0.013888889,1,0,0,0.5451,optionRight,80,1580,1,27,0,27,0,1,,,,,,,,,,,,,,,,,,,,,,,,,,,,,,,,,,,,,,,
,,,,,,,,2023-08-16_08h47.15.795,HF_wild_card,2022.2.4,Win32,60.03121623,5c73a9d92dfbdb0001b95375,64d2fd46c836a06233681665,64dc7ee762f341461303348d,,,,,,,decisionTrl,resources/DR.BMP,resources/DBN.BMP,Door1,-0.485185157,0.026851824,1,0,0,2.2396,optionLeft,30,1610,1,28,0,28,0,1,,,,,,,,,,,,,,,,,,,,,,,,,,,,,,,,,,,,,,,
,,,,,,,,2023-08-16_08h47.15.795,HF_wild_card,2022.2.4,Win32,60.03121623,5c73a9d92dfbdb0001b95375,64d2fd46c836a06233681665,64dc7ee762f341461303348d,,,,,,,decisionTrl,resources/DBN.BMP,resources/DP.BMP,Door2,0.386111111,-0.006481481,1,0,0,1.8602,optionRight,20,1630,1,29,0,29,0,1,,,,,,,,,,,,,,,,,,,,,,,,,,,,,,,,,,,,,,,
,,,,,,,,2023-08-16_08h47.15.795,HF_wild_card,2022.2.4,Win32,60.03121623,5c73a9d92dfbdb0001b95375,64d2fd46c836a06233681665,64dc7ee762f341461303348d,,,,,,,decisionTrl,resources/DB.BMP,resources/DBN.BMP,Door4,-0.35462963,0.025,1,0,0,1.944,optionLeft,80,1710,1,30,0,30,0,1,,,,,,,,,,,,,,,,,,,,,,,,,,,,,,,,,,,,,,,
,,,,,,,,2023-08-16_08h47.15.795,HF_wild_card,2022.2.4,Win32,60.03121623,5c73a9d92dfbdb0001b95375,64d2fd46c836a06233681665,64dc7ee762f341461303348d,,,,,,,decisionTrl,resources/DR.BMP,resources/DP.BMP,Door1,-0.359259259,-0.002777778,1,0,0,2.6596,optionLeft,30,1740,1,31,0,31,0,1,,,,,,,,,,,,,,,,,,,,,,,,,,,,,,,,,,,,,,,
,,,,,,,,2023-08-16_08h47.15.795,HF_wild_card,2022.2.4,Win32,60.03121623,5c73a9d92dfbdb0001b95375,64d2fd46c836a06233681665,64dc7ee762f341461303348d,,,,,,,sngl,resources/Empty.png,resources/DBN.BMP,WildCard_NonEx,0.390740741,0.016666667,1,0,0,0.8424,optionRight,45,1785,1,32,0,32,0,1,,,,,,,,,,,,,,,,,,,,,,,,,,,,,,,,,,,,,,,
,,,,,,,,2023-08-16_08h47.15.795,HF_wild_card,2022.2.4,Win32,60.03121623,5c73a9d92dfbdb0001b95375,64d2fd46c836a06233681665,64dc7ee762f341461303348d,,,,,,,sngl,resources/Empty.png,resources/DB.BMP,Door4,0.372222222,-0.027777778,1,0,0,0.8445,optionRight,60,1845,1,33,0,33,0,1,,,,,,,,,,,,,,,,,,,,,,,,,,,,,,,,,,,,,,,
,,,,,,,,2023-08-16_08h47.15.795,HF_wild_card,2022.2.4,Win32,60.03121623,5c73a9d92dfbdb0001b95375,64d2fd46c836a06233681665,64dc7ee762f341461303348d,,,,,,,decisionTrl,resources/DB.BMP,resources/DG.BMP,Door3,0.412962963,-0.009259259,1,0,0,1.7608,optionRight,70,1915,1,34,0,34,0,1,,,,,,,,,,,,,,,,,,,,,,,,,,,,,,,,,,,,,,,
,,,,,,,,2023-08-16_08h47.15.795,HF_wild_card,2022.2.4,Win32,60.03121623,5c73a9d92dfbdb0001b95375,64d2fd46c836a06233681665,64dc7ee762f341461303348d,,,,,,,ctch,resources/DG.BMP,resources/DP.BMP,Door2,0.463888889,-0.025,1,0,0,1.4277,optionRight,40,1955,1,35,0,35,0,1,,,,,,,,,,,,,,,,,,,,,,,,,,,,,,,,,,,,,,,
,,,,,,,,2023-08-16_08h47.15.795,HF_wild_card,2022.2.4,Win32,60.03121623,5c73a9d92dfbdb0001b95375,64d2fd46c836a06233681665,64dc7ee762f341461303348d,,,,,,,decisionTrl,resources/DP.BMP,resources/DR.BMP,Door1,0.360185185,-0.04537037,1,0,0,2.1438,optionRight,30,1985,1,36,0,36,0,1,,,,,,,,,,,,,,,,,,,,,,,,,,,,,,,,,,,,,,,
,,,,,,,,2023-08-16_08h47.15.795,HF_wild_card,2022.2.4,Win32,60.03121623,5c73a9d92dfbdb0001b95375,64d2fd46c836a06233681665,64dc7ee762f341461303348d,,,,,,,decisionTrl,resources/DR.BMP,resources/DP.BMP,Door2,0.412962963,-0.009259259,1,0,0,2.7603,optionRight,20,2005,1,37,0,37,0,1,,,,,,,,,,,,,,,,,,,,,,,,,,,,,,,,,,,,,,,
,,,,,,,,2023-08-16_08h47.15.795,HF_wild_card,2022.2.4,Win32,60.03121623,5c73a9d92dfbdb0001b95375,64d2fd46c836a06233681665,64dc7ee762f341461303348d,,,,,,,ctch,resources/DB.BMP,resources/DR.BMP,Door4,-0.42037037,-0.036111111,1,0,0,1.2774,optionLeft,60,2065,1,38,0,38,0,1,,,,,,,,,,,,,,,,,,,,,,,,,,,,,,,,,,,,,,,
,,,,,,,,2023-08-16_08h47.15.795,HF_wild_card,2022.2.4,Win32,60.03121623,5c73a9d92dfbdb0001b95375,64d2fd46c836a06233681665,64dc7ee762f341461303348d,,,,,,,sngl,resources/Empty.png,resources/DR.BMP,Door1,0.338888889,-0.012037037,1,0,0,0.9276,optionRight,30,2095,1,39,0,39,0,1,,,,,,,,,,,,,,,,,,,,,,,,,,,,,,,,,,,,,,,
,,,,,,,,2023-08-16_08h47.15.795,HF_wild_card,2022.2.4,Win32,60.03121623,5c73a9d92dfbdb0001b95375,64d2fd46c836a06233681665,64dc7ee762f341461303348d,,,,,,,ctch,resources/DB.BMP,resources/DR.BMP,Door4,-0.306481481,0.010185185,1,0,0,1.0946,optionLeft,80,2175,1,40,0,40,0,1,,,,,,,,,,,,,,,,,,,,,,,,,,,,,,,,,,,,,,,
,,,,,,,,2023-08-16_08h47.15.795,HF_wild_card,2022.2.4,Win32,60.03121623,5c73a9d92dfbdb0001b95375,64d2fd46c836a06233681665,64dc7ee762f341461303348d,,,,,,,sngl,resources/DG.BMP,resources/Empty.png,Door3,-0.325925926,0.018518519,1,0,0,0.8278,optionLeft,70,2245,1,41,0,41,0,1,,,,,,,,,,,,,,,,,,,,,,,,,,,,,,,,,,,,,,,
,,,,,,,,2023-08-16_08h47.15.795,HF_wild_card,2022.2.4,Win32,60.03121623,5c73a9d92dfbdb0001b95375,64d2fd46c836a06233681665,64dc7ee762f341461303348d,,,,,,,decisionTrl,resources/DP.BMP,resources/DBN.BMP,WildCard_NonEx,0.321296296,-0.016666667,1,0,0,2.5611,optionRight,55,2300,1,42,0,42,0,1,,,,,,,,,,,,,,,,,,,,,,,,,,,,,,,,,,,,,,,
,,,,,,,,2023-08-16_08h47.15.795,HF_wild_card,2022.2.4,Win32,60.03121623,5c73a9d92dfbdb0001b95375,64d2fd46c836a06233681665,64dc7ee762f341461303348d,,,,,,,decisionTrl,resources/DP.BMP,resources/DR.BMP,Door2,-0.351851852,-0.033333333,1,0,0,1.5614,optionLeft,40,2340,1,43,0,43,0,1,,,,,,,,,,,,,,,,,,,,,,,,,,,,,,,,,,,,,,,
,,,,,,,,2023-08-16_08h47.15.795,HF_wild_card,2022.2.4,Win32,60.03121623,5c73a9d92dfbdb0001b95375,64d2fd46c836a06233681665,64dc7ee762f341461303348d,,,,,,,,,,,,,,,,,,,,,,,,,,0,0,0,0,1,,,,,,,,,,,,,,,,,,,,,,,,,,,,,,,,,,
,,,,,,,,2023-08-16_08h47.15.795,HF_wild_card,2022.2.4,Win32,60.03121623,5c73a9d92dfbdb0001b95375,64d2fd46c836a06233681665,64dc7ee762f341461303348d,,,,,,,sngl,resources/Empty.png,resources/DG.BMP,Door3,0.391666667,-0.07962963,1,0,0,1.3361,optionRight,70,2410,2,0,0,0,0,1,,,,,,,,,,,,,,,,,,,,,,,,,,,,,,,,,,,,,,,
,,,,,,,,2023-08-16_08h47.15.795,HF_wild_card,2022.2.4,Win32,60.03121623,5c73a9d92dfbdb0001b95375,64d2fd46c836a06233681665,64dc7ee762f341461303348d,,,,,,,decisionTrl,resources/DBN.BMP,resources/DB.BMP,Door4,0.419444444,-0.038888889,1,0,0,0.9612,optionRight,80,2490,2,1,0,1,0,1,,,,,,,,,,,,,,,,,,,,,,,,,,,,,,,,,,,,,,,
,,,,,,,,2023-08-16_08h47.15.795,HF_wild_card,2022.2.4,Win32,60.03121623,5c73a9d92dfbdb0001b95375,64d2fd46c836a06233681665,64dc7ee762f341461303348d,,,,,,,decisionTrl,resources/DBN.BMP,resources/DR.BMP,Door1,0.302777778,-0.047222222,1,0,0,1.3948,optionRight,30,2520,2,2,0,2,0,1,,,,,,,,,,,,,,,,,,,,,,,,,,,,,,,,,,,,,,,
,,,,,,,,2023-08-16_08h47.15.795,HF_wild_card,2022.2.4,Win32,60.03121623,5c73a9d92dfbdb0001b95375,64d2fd46c836a06233681665,64dc7ee762f341461303348d,,,,,,,decisionTrl,resources/DBN.BMP,resources/DG.BMP,Door3,0.012963019,0.000925926,1,0,0,0.1613,optionRight,70,2590,2,3,0,3,0,1,,,,,,,,,,,,,,,,,,,,,,,,,,,,,,,,,,,,,,,
,,,,,,,,2023-08-16_08h47.15.795,HF_wild_card,2022.2.4,Win32,60.03121623,5c73a9d92dfbdb0001b95375,64d2fd46c836a06233681665,64dc7ee762f341461303348d,,,,,,,sngl,resources/Empty.png,resources/DBN.BMP,WildCard_NonEx,0.375,-0.005555556,1,0,0,0.8117,optionRight,55,2645,2,4,0,4,0,1,,,,,,,,,,,,,,,,,,,,,,,,,,,,,,,,,,,,,,,
,,,,,,,,2023-08-16_08h47.15.795,HF_wild_card,2022.2.4,Win32,60.03121623,5c73a9d92dfbdb0001b95375,64d2fd46c836a06233681665,64dc7ee762f341461303348d,,,,,,,sngl,resources/DG.BMP,resources/Empty.png,Door3,-0.392592593,0.017592593,1,0,0,0.8274,optionLeft,70,2715,2,5,0,5,0,1,,,,,,,,,,,,,,,,,,,,,,,,,,,,,,,,,,,,,,,
,,,,,,,,2023-08-16_08h47.15.795,HF_wild_card,2022.2.4,Win32,60.03121623,5c73a9d92dfbdb0001b95375,64d2fd46c836a06233681665,64dc7ee762f341461303348d,,,,,,,decisionTrl,resources/DG.BMP,resources/DB.BMP,Door4,0.525,0.001851852,1,0,0,1.4116,optionRight,60,2775,2,6,0,6,0,1,,,,,,,,,,,,,,,,,,,,,,,,,,,,,,,,,,,,,,,
,,,,,,,,2023-08-16_08h47.15.795,HF_wild_card,2022.2.4,Win32,60.03121623,5c73a9d92dfbdb0001b95375,64d2fd46c836a06233681665,64dc7ee762f341461303348d,,,,,,,decisionTrl,resources/DB.BMP,resources/DG.BMP,Door3,0.480555556,0.015740741,1,0,0,1.1901,optionRight,70,2845,2,7,0,7,0,1,,,,,,,,,,,,,,,,,,,,,,,,,,,,,,,,,,,,,,,
,,,,,,,,2023-08-16_08h47.15.795,HF_wild_card,2022.2.4,Win32,60.03121623,5c73a9d92dfbdb0001b95375,64d2fd46c836a06233681665,64dc7ee762f341461303348d,,,,,,,decisionTrl,resources/DR.BMP,resources/DP.BMP,Door1,-0.348148148,0.009259259,1,0,0,1.8773,optionLeft,30,2875,2,8,0,8,0,1,,,,,,,,,,,,,,,,,,,,,,,,,,,,,,,,,,,,,,,
,,,,,,,,2023-08-16_08h47.15.795,HF_wild_card,2022.2.4,Win32,60.03121623,5c73a9d92dfbdb0001b95375,64d2fd46c836a06233681665,64dc7ee762f341461303348d,,,,,,,decisionTrl,resources/DR.BMP,resources/DBN.BMP,WildCard_NonEx,0.367592593,0.057407379,1,0,0,1.0781,optionRight,55,2930,2,9,0,9,0,1,,,,,,,,,,,,,,,,,,,,,,,,,,,,,,,,,,,,,,,
,,,,,,,,2023-08-16_08h47.15.795,HF_wild_card,2022.2.4,Win32,60.03121623,5c73a9d92dfbdb0001b95375,64d2fd46c836a06233681665,64dc7ee762f341461303348d,,,,,,,decisionTrl,resources/DP.BMP,resources/DR.BMP,Door2,-0.331481481,-0.00462963,1,0,0,1.3282,optionLeft,20,2950,2,10,0,10,0,1,,,,,,,,,,,,,,,,,,,,,,,,,,,,,,,,,,,,,,,
,,,,,,,,2023-08-16_08h47.15.795,HF_wild_card,2022.2.4,Win32,60.03121623,5c73a9d92dfbdb0001b95375,64d2fd46c836a06233681665,64dc7ee762f341461303348d,,,,,,,decisionTrl,resources/DP.BMP,resources/DR.BMP,Door1,0.482407407,-0.05,1,0,0,1.4448,optionRight,30,2980,2,11,0,11,0,1,,,,,,,,,,,,,,,,,,,,,,,,,,,,,,,,,,,,,,,
,,,,,,,,2023-08-16_08h47.15.795,HF_wild_card,2022.2.4,Win32,60.03121623,5c73a9d92dfbdb0001b95375,64d2fd46c836a06233681665,64dc7ee762f341461303348d,,,,,,,ctch,resources/DR.BMP,resources/DB.BMP,Door4,0.382407407,0.024074074,1,0,0,0.9439,optionRight,60,3040,2,12,0,12,0,1,,,,,,,,,,,,,,,,,,,,,,,,,,,,,,,,,,,,,,,
,,,,,,,,2023-08-16_08h47.15.795,HF_wild_card,2022.2.4,Win32,60.03121623,5c73a9d92dfbdb0001b95375,64d2fd46c836a06233681665,64dc7ee762f341461303348d,,,,,,,decisionTrl,resources/DB.BMP,resources/DBN.BMP,Door4,-0.293518519,-0.002777778,1,0,0,1.9609,optionLeft,80,3120,2,13,0,13,0,1,,,,,,,,,,,,,,,,,,,,,,,,,,,,,,,,,,,,,,,
,,,,,,,,2023-08-16_08h47.15.795,HF_wild_card,2022.2.4,Win32,60.03121623,5c73a9d92dfbdb0001b95375,64d2fd46c836a06233681665,64dc7ee762f341461303348d,,,,,,,sngl,resources/Empty.png,resources/DP.BMP,Door2,0.431481481,-0.063888889,1,0,0,0.8614,optionRight,40,3160,2,14,0,14,0,1,,,,,,,,,,,,,,,,,,,,,,,,,,,,,,,,,,,,,,,
,,,,,,,,2023-08-16_08h47.15.795,HF_wild_card,2022.2.4,Win32,60.03121623,5c73a9d92dfbdb0001b95375,64d2fd46c836a06233681665,64dc7ee762f341461303348d,,,,,,,ctch,resources/DB.BMP,resources/DR.BMP,Door4,-0.250925926,0.002777778,1,0,0,1.0117,optionLeft,60,3220,2,15,0,15,0,1,,,,,,,,,,,,,,,,,,,,,,,,,,,,,,,,,,,,,,,
,,,,,,,,2023-08-16_08h47.15.795,HF_wild_card,2022.2.4,Win32,60.03121623,5c73a9d92dfbdb0001b95375,64d2fd46c836a06233681665,64dc7ee762f341461303348d,,,,,,,ctch,resources/DG.BMP,resources/DP.BMP,Door3,-0.348148148,0.012037037,1,0,0,1.4277,optionLeft,70,3290,2,16,0,16,0,1,,,,,,,,,,,,,,,,,,,,,,,,,,,,,,,,,,,,,,,
,,,,,,,,2023-08-16_08h47.15.795,HF_wild_card,2022.2.4,Win32,60.03121623,5c73a9d92dfbdb0001b95375,64d2fd46c836a06233681665,64dc7ee762f341461303348d,,,,,,,ctch,resources/DG.BMP,resources/DP.BMP,Door3,-0.290740741,0.019444444,1,0,0,0.9615,optionLeft,70,3360,2,17,0,17,0,1,,,,,,,,,,,,,,,,,,,,,,,,,,,,,,,,,,,,,,,
,,,,,,,,2023-08-16_08h47.15.795,HF_wild_card,2022.2.4,Win32,60.03121623,5c73a9d92dfbdb0001b95375,64d2fd46c836a06233681665,64dc7ee762f341461303348d,,,,,,,sngl,resources/Empty.png,resources/DBN.BMP,WildCard_NonEx,0.465740741,0.030555556,1,0,0,0.8958,optionRight,45,3405,2,18,0,18,0,1,,,,,,,,,,,,,,,,,,,,,,,,,,,,,,,,,,,,,,,
,,,,,,,,2023-08-16_08h47.15.795,HF_wild_card,2022.2.4,Win32,60.03121623,5c73a9d92dfbdb0001b95375,64d2fd46c836a06233681665,64dc7ee762f341461303348d,,,,,,,sngl,resources/DB.BMP,resources/Empty.png,Door4,-0.387962963,0.058333333,1,0,0,0.7782,optionLeft,60,3465,2,19,0,19,0,1,,,,,,,,,,,,,,,,,,,,,,,,,,,,,,,,,,,,,,,
,,,,,,,,2023-08-16_08h47.15.795,HF_wild_card,2022.2.4,Win32,60.03121623,5c73a9d92dfbdb0001b95375,64d2fd46c836a06233681665,64dc7ee762f341461303348d,,,,,,,decisionTrl,resources/DP.BMP,resources/DR.BMP,Door2,-0.368518519,-0.033333333,1,0,0,1.4117,optionLeft,20,3485,2,20,0,20,0,1,,,,,,,,,,,,,,,,,,,,,,,,,,,,,,,,,,,,,,,
,,,,,,,,2023-08-16_08h47.15.795,HF_wild_card,2022.2.4,Win32,60.03121623,5c73a9d92dfbdb0001b95375,64d2fd46c836a06233681665,64dc7ee762f341461303348d,,,,,,,ctch,resources/DP.BMP,resources/DG.BMP,Door3,0.444444444,-0.007407407,1,0,0,1.2084,optionRight,70,3555,2,21,0,21,0,1,,,,,,,,,,,,,,,,,,,,,,,,,,,,,,,,,,,,,,,
,,,,,,,,2023-08-16_08h47.15.795,HF_wild_card,2022.2.4,Win32,60.03121623,5c73a9d92dfbdb0001b95375,64d2fd46c836a06233681665,64dc7ee762f341461303348d,,,,,,,decisionTrl,resources/DR.BMP,resources/DP.BMP,Door1,-0.407407407,-0.036111111,1,0,0,1.2473,optionLeft,30,3585,2,22,0,22,0,1,,,,,,,,,,,,,,,,,,,,,,,,,,,,,,,,,,,,,,,
,,,,,,,,2023-08-16_08h47.15.795,HF_wild_card,2022.2.4,Win32,60.03121623,5c73a9d92dfbdb0001b95375,64d2fd46c836a06233681665,64dc7ee762f341461303348d,,,,,,,decisionTrl,resources/DP.BMP,resources/DBN.BMP,WildCard_NonEx,0.362962963,0.010185185,1,0,0,0.974,optionRight,45,3630,2,23,0,23,0,1,,,,,,,,,,,,,,,,,,,,,,,,,,,,,,,,,,,,,,,
,,,,,,,,2023-08-16_08h47.15.795,HF_wild_card,2022.2.4,Win32,60.03121623,5c73a9d92dfbdb0001b95375,64d2fd46c836a06233681665,64dc7ee762f341461303348d,,,,,,,decisionTrl,resources/DG.BMP,resources/DB.BMP,Door3,-0.373148148,0.008333333,1,0,0,1.7455,optionLeft,70,3700,2,24,0,24,0,1,,,,,,,,,,,,,,,,,,,,,,,,,,,,,,,,,,,,,,,
,,,,,,,,2023-08-16_08h47.15.795,HF_wild_card,2022.2.4,Win32,60.03121623,5c73a9d92dfbdb0001b95375,64d2fd46c836a06233681665,64dc7ee762f341461303348d,,,,,,,sngl,resources/DBN.BMP,resources/Empty.png,WildCard_NonEx,-0.317592593,0.053703704,1,0,0,0.8947,optionLeft,55,3755,2,25,0,25,0,1,,,,,,,,,,,,,,,,,,,,,,,,,,,,,,,,,,,,,,,
,,,,,,,,2023-08-16_08h47.15.795,HF_wild_card,2022.2.4,Win32,60.03121623,5c73a9d92dfbdb0001b95375,64d2fd46c836a06233681665,64dc7ee762f341461303348d,,,,,,,ctch,resources/DB.BMP,resources/DR.BMP,Door4,-0.323148148,0.010185185,1,0,0,2.16,optionLeft,60,3815,2,26,0,26,0,1,,,,,,,,,,,,,,,,,,,,,,,,,,,,,,,,,,,,,,,
,,,,,,,,2023-08-16_08h47.15.795,HF_wild_card,2022.2.4,Win32,60.03121623,5c73a9d92dfbdb0001b95375,64d2fd46c836a06233681665,64dc7ee762f341461303348d,,,,,,,decisionTrl,resources/DB.BMP,resources/DG.BMP,Door3,0.366666667,-0.012037037,1,0,0,1.0116,optionRight,70,3885,2,27,0,27,0,1,,,,,,,,,,,,,,,,,,,,,,,,,,,,,,,,,,,,,,,
,,,,,,,,2023-08-16_08h47.15.795,HF_wild_card,2022.2.4,Win32,60.03121623,5c73a9d92dfbdb0001b95375,64d2fd46c836a06233681665,64dc7ee762f341461303348d,,,,,,,decisionTrl,resources/DG.BMP,resources/DB.BMP,Door3,-0.325925926,0.011111111,1,0,0,0.9441,optionLeft,70,3955,2,28,0,28,0,1,,,,,,,,,,,,,,,,,,,,,,,,,,,,,,,,,,,,,,,
,,,,,,,,2023-08-16_08h47.15.795,HF_wild_card,2022.2.4,Win32,60.03121623,5c73a9d92dfbdb0001b95375,64d2fd46c836a06233681665,64dc7ee762f341461303348d,,,,,,,decisionTrl,resources/DB.BMP,resources/DG.BMP,Door3,0.461111111,0.02037037,1,0,0,0.8612,optionRight,70,4025,2,29,0,29,0,1,,,,,,,,,,,,,,,,,,,,,,,,,,,,,,,,,,,,,,,
,,,,,,,,2023-08-16_08h47.15.795,HF_wild_card,2022.2.4,Win32,60.03121623,5c73a9d92dfbdb0001b95375,64d2fd46c836a06233681665,64dc7ee762f341461303348d,,,,,,,decisionTrl,resources/DB.BMP,resources/DG.BMP,Door3,0.413888889,-0.016666667,1,0,0,0.9127,optionRight,70,4095,2,30,0,30,0,1,,,,,,,,,,,,,,,,,,,,,,,,,,,,,,,,,,,,,,,
,,,,,,,,2023-08-16_08h47.15.795,HF_wild_card,2022.2.4,Win32,60.03121623,5c73a9d92dfbdb0001b95375,64d2fd46c836a06233681665,64dc7ee762f341461303348d,,,,,,,sngl,resources/DBN.BMP,resources/Empty.png,WildCard_NonEx,-0.343518519,0.075925926,1,0,0,0.8282,optionLeft,45,4140,2,31,0,31,0,1,,,,,,,,,,,,,,,,,,,,,,,,,,,,,,,,,,,,,,,
,,,,,,,,2023-08-16_08h47.15.795,HF_wild_card,2022.2.4,Win32,60.03121623,5c73a9d92dfbdb0001b95375,64d2fd46c836a06233681665,64dc7ee762f341461303348d,,,,,,,sngl,resources/DP.BMP,resources/Empty.png,Door2,-0.259259259,0.047222222,1,0,0,0.8282,optionLeft,20,4160,2,32,0,32,0,1,,,,,,,,,,,,,,,,,,,,,,,,,,,,,,,,,,,,,,,
,,,,,,,,2023-08-16_08h47.15.795,HF_wild_card,2022.2.4,Win32,60.03121623,5c73a9d92dfbdb0001b95375,64d2fd46c836a06233681665,64dc7ee762f341461303348d,,,,,,,decisionTrl,resources/DP.BMP,resources/DR.BMP,Door1,0.415740741,0.017592593,1,0,0,0.9776,optionRight,30,4190,2,33,0,33,0,1,,,,,,,,,,,,,,,,,,,,,,,,,,,,,,,,,,,,,,,
,,,,,,,,2023-08-16_08h47.15.795,HF_wild_card,2022.2.4,Win32,60.03121623,5c73a9d92dfbdb0001b95375,64d2fd46c836a06233681665,64dc7ee762f341461303348d,,,,,,,ctch,resources/DP.BMP,resources/DG.BMP,Door3,0.400925926,-0.003703704,1,0,0,1.2117,optionRight,70,4260,2,34,0,34,0,1,,,,,,,,,,,,,,,,,,,,,,,,,,,,,,,,,,,,,,,
,,,,,,,,2023-08-16_08h47.15.795,HF_wild_card,2022.2.4,Win32,60.03121623,5c73a9d92dfbdb0001b95375,64d2fd46c836a06233681665,64dc7ee762f341461303348d,,,,,,,decisionTrl,resources/DG.BMP,resources/DB.BMP,Door3,-0.334259259,0.016666667,1,0,0,1.0281,optionLeft,70,4330,2,35,0,35,0,1,,,,,,,,,,,,,,,,,,,,,,,,,,,,,,,,,,,,,,,
,,,,,,,,2023-08-16_08h47.15.795,HF_wild_card,2022.2.4,Win32,60.03121623,5c73a9d92dfbdb0001b95375,64d2fd46c836a06233681665,64dc7ee762f341461303348d,,,,,,,ctch,resources/DR.BMP,resources/DB.BMP,Door4,0.407407407,-0.027777778,1,0,0,1.5948,optionRight,60,4390,2,36,0,36,0,1,,,,,,,,,,,,,,,,,,,,,,,,,,,,,,,,,,,,,,,
,,,,,,,,2023-08-16_08h47.15.795,HF_wild_card,2022.2.4,Win32,60.03121623,5c73a9d92dfbdb0001b95375,64d2fd46c836a06233681665,64dc7ee762f341461303348d,,,,,,,decisionTrl,resources/DBN.BMP,resources/DP.BMP,WildCard_NonEx,-0.398148148,0.036111111,1,0,0,2.2077,optionLeft,55,4445,2,37,0,37,0,1,,,,,,,,,,,,,,,,,,,,,,,,,,,,,,,,,,,,,,,
,,,,,,,,2023-08-16_08h47.15.795,HF_wild_card,2022.2.4,Win32,60.03121623,5c73a9d92dfbdb0001b95375,64d2fd46c836a06233681665,64dc7ee762f341461303348d,,,,,,,sngl,resources/Empty.png,resources/DB.BMP,Door4,0.476851852,0.016666667,1,0,0,0.8081,optionRight,80,4525,2,38,0,38,0,1,,,,,,,,,,,,,,,,,,,,,,,,,,,,,,,,,,,,,,,
,,,,,,,,2023-08-16_08h47.15.795,HF_wild_card,2022.2.4,Win32,60.03121623,5c73a9d92dfbdb0001b95375,64d2fd46c836a06233681665,64dc7ee762f341461303348d,,,,,,,sngl,resources/DR.BMP,resources/Empty.png,Door1,-0.328703704,0.027777778,1,0,0,0.8784,optionLeft,30,4555,2,39,0,39,0,1,,,,,,,,,,,,,,,,,,,,,,,,,,,,,,,,,,,,,,,
,,,,,,,,2023-08-16_08h47.15.795,HF_wild_card,2022.2.4,Win32,60.03121623,5c73a9d92dfbdb0001b95375,64d2fd46c836a06233681665,64dc7ee762f341461303348d,,,,,,,decisionTrl,resources/DR.BMP,resources/DP.BMP,Door2,0.4,0,1,0,0,1.2769,optionRight,20,4575,2,40,0,40,0,1,,,,,,,,,,,,,,,,,,,,,,,,,,,,,,,,,,,,,,,
,,,,,,,,2023-08-16_08h47.15.795,HF_wild_card,2022.2.4,Win32,60.03121623,5c73a9d92dfbdb0001b95375,64d2fd46c836a06233681665,64dc7ee762f341461303348d,,,,,,,decisionTrl,resources/DR.BMP,resources/DP.BMP,Door2,0.365740741,-0.005555556,1,0,0,2.1621,optionRight,40,4615,2,41,0,41,0,1,,,,,,,,,,,,,,,,,,,,,,,,,,,,,,,,,,,,,,,
,,,,,,,,2023-08-16_08h47.15.795,HF_wild_card,2022.2.4,Win32,60.03121623,5c73a9d92dfbdb0001b95375,64d2fd46c836a06233681665,64dc7ee762f341461303348d,,,,,,,decisionTrl,resources/DG.BMP,resources/DBN.BMP,Door3,-0.310185185,0.012962963,1,0,0,1.1593,optionLeft,70,4685,2,42,0,42,0,1,,,,,,,,,,,,,,,,,,,,,,,,,,,,,,,,,,,,,,,
,,,,,,,,2023-08-16_08h47.15.795,HF_wild_card,2022.2.4,Win32,60.03121623,5c73a9d92dfbdb0001b95375,64d2fd46c836a06233681665,64dc7ee762f341461303348d,,,,,,,sngl,resources/Empty.png,resources/DR.BMP,Door1,0.405555556,0,1,0,0,0.8615,optionRight,30,4715,2,43,0,43,0,1,,,,,,,,,,,,,,,,,,,,,,,,,,,,,,,,,,,,,,,
,,,,,,,,2023-08-16_08h47.15.795,HF_wild_card,2022.2.4,Win32,60.03121623,5c73a9d92dfbdb0001b95375,64d2fd46c836a06233681665,64dc7ee762f341461303348d,,,,,,,,,,,,,,,,,,,,,,,,,,1,0,1,0,1,,,,,,,,,,,,,,,,,,,,,,,,,,,,,,,,,,
,,,,,,,,2023-08-16_08h47.15.795,HF_wild_card,2022.2.4,Win32,60.03121623,5c73a9d92dfbdb0001b95375,64d2fd46c836a06233681665,64dc7ee762f341461303348d,,,,,,,decisionTrl,resources/DBN.BMP,resources/DG.BMP,Door3,0.32962963,-0.006481481,1,0,0,1.0086,optionRight,70,4785,3,0,0,0,0,1,,,,,,,,,,,,,,,,,,,,,,,,,,,,,,,,,,,,,,,
,,,,,,,,2023-08-16_08h47.15.795,HF_wild_card,2022.2.4,Win32,60.03121623,5c73a9d92dfbdb0001b95375,64d2fd46c836a06233681665,64dc7ee762f341461303348d,,,,,,,sngl,resources/Empty.png,resources/DP.BMP,Door2,0.401851852,-0.014814815,1,0,0,0.8284,optionRight,20,4805,3,1,0,1,0,1,,,,,,,,,,,,,,,,,,,,,,,,,,,,,,,,,,,,,,,
,,,,,,,,2023-08-16_08h47.15.795,HF_wild_card,2022.2.4,Win32,60.03121623,5c73a9d92dfbdb0001b95375,64d2fd46c836a06233681665,64dc7ee762f341461303348d,,,,,,,ctch,resources/DP.BMP,resources/DG.BMP,Door3,0.306481481,0.023148148,1,0,0,1.0112,optionRight,70,4875,3,2,0,2,0,1,,,,,,,,,,,,,,,,,,,,,,,,,,,,,,,,,,,,,,,
,,,,,,,,2023-08-16_08h47.15.795,HF_wild_card,2022.2.4,Win32,60.03121623,5c73a9d92dfbdb0001b95375,64d2fd46c836a06233681665,64dc7ee762f341461303348d,,,,,,,sngl,resources/DB.BMP,resources/Empty.png,Door4,-0.32962963,0.027777778,1,0,0,0.8283,optionLeft,80,4955,3,3,0,3,0,1,,,,,,,,,,,,,,,,,,,,,,,,,,,,,,,,,,,,,,,
,,,,,,,,2023-08-16_08h47.15.795,HF_wild_card,2022.2.4,Win32,60.03121623,5c73a9d92dfbdb0001b95375,64d2fd46c836a06233681665,64dc7ee762f341461303348d,,,,,,,decisionTrl,resources/DG.BMP,resources/DB.BMP,Door4,0.399074074,0.024074074,1,0,0,0.8121,optionRight,80,5035,3,4,0,4,0,1,,,,,,,,,,,,,,,,,,,,,,,,,,,,,,,,,,,,,,,
,,,,,,,,2023-08-16_08h47.15.795,HF_wild_card,2022.2.4,Win32,60.03121623,5c73a9d92dfbdb0001b95375,64d2fd46c836a06233681665,64dc7ee762f341461303348d,,,,,,,decisionTrl,resources/DR.BMP,resources/DP.BMP,Door1,-0.325925926,0.015740741,1,0,0,1.4281,optionLeft,30,5065,3,5,0,5,0,1,,,,,,,,,,,,,,,,,,,,,,,,,,,,,,,,,,,,,,,
,,,,,,,,2023-08-16_08h47.15.795,HF_wild_card,2022.2.4,Win32,60.03121623,5c73a9d92dfbdb0001b95375,64d2fd46c836a06233681665,64dc7ee762f341461303348d,,,,,,,decisionTrl,resources/DBN.BMP,resources/DR.BMP,WildCard_NonEx,-0.296296296,0.038888889,1,0,0,2.8446,optionLeft,55,5120,3,6,0,6,0,1,,,,,,,,,,,,,,,,,,,,,,,,,,,,,,,,,,,,,,,
,,,,,,,,2023-08-16_08h47.15.795,HF_wild_card,2022.2.4,Win32,60.03121623,5c73a9d92dfbdb0001b95375,64d2fd46c836a06233681665,64dc7ee762f341461303348d,,,,,,,decisionTrl,resources/DR.BMP,resources/DP.BMP,Door1,-0.235185185,0.02037037,1,0,0,1.1946,optionLeft,30,5150,3,7,0,7,0,1,,,,,,,,,,,,,,,,,,,,,,,,,,,,,,,,,,,,,,,
,,,,,,,,2023-08-16_08h47.15.795,HF_wild_card,2022.2.4,Win32,60.03121623,5c73a9d92dfbdb0001b95375,64d2fd46c836a06233681665,64dc7ee762f341461303348d,,,,,,,sngl,resources/DG.BMP,resources/Empty.png,Door3,-0.27962963,0.042592593,1,0,0,0.8941,optionLeft,70,5220,3,8,0,8,0,1,,,,,,,,,,,,,,,,,,,,,,,,,,,,,,,,,,,,,,,
,,,,,,,,2023-08-16_08h47.15.795,HF_wild_card,2022.2.4,Win32,60.03121623,5c73a9d92dfbdb0001b95375,64d2fd46c836a06233681665,64dc7ee762f341461303348d,,,,,,,ctch,resources/DB.BMP,resources/DR.BMP,Door4,-0.343518519,0.002777778,1,0,0,0.7933,optionLeft,80,5300,3,9,0,9,0,1,,,,,,,,,,,,,,,,,,,,,,,,,,,,,,,,,,,,,,,
,,,,,,,,2023-08-16_08h47.15.795,HF_wild_card,2022.2.4,Win32,60.03121623,5c73a9d92dfbdb0001b95375,64d2fd46c836a06233681665,64dc7ee762f341461303348d,,,,,,,sngl,resources/DBN.BMP,resources/Empty.png,WildCard_NonEx,-0.367592593,0.017592593,1,0,0,0.8445,optionLeft,45,5345,3,10,0,10,0,1,,,,,,,,,,,,,,,,,,,,,,,,,,,,,,,,,,,,,,,
,,,,,,,,2023-08-16_08h47.15.795,HF_wild_card,2022.2.4,Win32,60.03121623,5c73a9d92dfbdb0001b95375,64d2fd46c836a06233681665,64dc7ee762f341461303348d,,,,,,,ctch,resources/DG.BMP,resources/DP.BMP,Door3,-0.343518519,0.000925926,1,0,0,1.1789,optionLeft,70,5415,3,11,0,11,0,1,,,,,,,,,,,,,,,,,,,,,,,,,,,,,,,,,,,,,,,
,,,,,,,,2023-08-16_08h47.15.795,HF_wild_card,2022.2.4,Win32,60.03121623,5c73a9d92dfbdb0001b95375,64d2fd46c836a06233681665,64dc7ee762f341461303348d,,,,,,,decisionTrl,resources/DR.BMP,resources/DBN.BMP,Door1,-0.27037037,0.008333333,1,0,0,1.5442,optionLeft,30,5445,3,12,0,12,0,1,,,,,,,,,,,,,,,,,,,,,,,,,,,,,,,,,,,,,,,
,,,,,,,,2023-08-16_08h47.15.795,HF_wild_card,2022.2.4,Win32,60.03121623,5c73a9d92dfbdb0001b95375,64d2fd46c836a06233681665,64dc7ee762f341461303348d,,,,,,,decisionTrl,resources/DB.BMP,resources/DG.BMP,Door4,-0.376851852,-0.006481481,1,0,0,2.8063,optionLeft,60,5505,3,13,0,13,0,1,,,,,,,,,,,,,,,,,,,,,,,,,,,,,,,,,,,,,,,
,,,,,,,,2023-08-16_08h47.15.795,HF_wild_card,2022.2.4,Win32,60.03121623,5c73a9d92dfbdb0001b95375,64d2fd46c836a06233681665,64dc7ee762f341461303348d,,,,,,,decisionTrl,resources/DB.BMP,resources/DG.BMP,Door3,0.427777778,-0.013888889,1,0,0,0.7446,optionRight,70,5575,3,14,0,14,0,1,,,,,,,,,,,,,,,,,,,,,,,,,,,,,,,,,,,,,,,
,,,,,,,,2023-08-16_08h47.15.795,HF_wild_card,2022.2.4,Win32,60.03121623,5c73a9d92dfbdb0001b95375,64d2fd46c836a06233681665,64dc7ee762f341461303348d,,,,,,,decisionTrl,resources/DB.BMP,resources/DG.BMP,Door3,0.494444444,0.039814815,1,0,0,0.8118,optionRight,70,5645,3,15,0,15,0,1,,,,,,,,,,,,,,,,,,,,,,,,,,,,,,,,,,,,,,,
,,,,,,,,2023-08-16_08h47.15.795,HF_wild_card,2022.2.4,Win32,60.03121623,5c73a9d92dfbdb0001b95375,64d2fd46c836a06233681665,64dc7ee762f341461303348d,,,,,,,sngl,resources/DBN.BMP,resources/Empty.png,WildCard_NonEx,-0.40462963,0.030555556,1,0,0,0.8961,optionLeft,55,5700,3,16,0,16,0,1,,,,,,,,,,,,,,,,,,,,,,,,,,,,,,,,,,,,,,,
,,,,,,,,2023-08-16_08h47.15.795,HF_wild_card,2022.2.4,Win32,60.03121623,5c73a9d92dfbdb0001b95375,64d2fd46c836a06233681665,64dc7ee762f341461303348d,,,,,,,decisionTrl,resources/DG.BMP,resources/DB.BMP,Door3,-0.27037037,-0.008333333,1,0,0,3.0743,optionLeft,70,5770,3,17,0,17,0,1,,,,,,,,,,,,,,,,,,,,,,,,,,,,,,,,,,,,,,,
,,,,,,,,2023-08-16_08h47.15.795,HF_wild_card,2022.2.4,Win32,60.03121623,5c73a9d92dfbdb0001b95375,64d2fd46c836a06233681665,64dc7ee762f341461303348d,,,,,,,ctch,resources/DB.BMP,resources/DR.BMP,Door4,-0.364814815,0.044444444,1,0,0,1.1914,optionLeft,60,5830,3,18,0,18,0,1,,,,,,,,,,,,,,,,,,,,,,,,,,,,,,,,,,,,,,,
,,,,,,,,2023-08-16_08h47.15.795,HF_wild_card,2022.2.4,Win32,60.03121623,5c73a9d92dfbdb0001b95375,64d2fd46c836a06233681665,64dc7ee762f341461303348d,,,,,,,sngl,resources/Empty.png,resources/DR.BMP,Door1,0.477777778,-0.019444444,1,0,0,0.8278,optionRight,30,5860,3,19,0,19,0,1,,,,,,,,,,,,,,,,,,,,,,,,,,,,,,,,,,,,,,,
,,,,,,,,2023-08-16_08h47.15.795,HF_wild_card,2022.2.4,Win32,60.03121623,5c73a9d92dfbdb0001b95375,64d2fd46c836a06233681665,64dc7ee762f341461303348d,,,,,,,sngl,resources/Empty.png,resources/DBN.BMP,WildCard_NonEx,0.412962963,0.026851824,1,0,0,0.8267,optionRight,45,5905,3,20,0,20,0,1,,,,,,,,,,,,,,,,,,,,,,,,,,,,,,,,,,,,,,,
,,,,,,,,2023-08-16_08h47.15.795,HF_wild_card,2022.2.4,Win32,60.03121623,5c73a9d92dfbdb0001b95375,64d2fd46c836a06233681665,64dc7ee762f341461303348d,,,,,,,decisionTrl,resources/DP.BMP,resources/DR.BMP,Door1,0.316666667,0.011111111,1,0,0,1.9603,optionRight,30,5935,3,21,0,21,0,1,,,,,,,,,,,,,,,,,,,,,,,,,,,,,,,,,,,,,,,
,,,,,,,,2023-08-16_08h47.15.795,HF_wild_card,2022.2.4,Win32,60.03121623,5c73a9d92dfbdb0001b95375,64d2fd46c836a06233681665,64dc7ee762f341461303348d,,,,,,,sngl,resources/Empty.png,resources/DG.BMP,Door3,0.451851852,0.010185185,1,0,0,0.8272,optionRight,70,6005,3,22,0,22,0,1,,,,,,,,,,,,,,,,,,,,,,,,,,,,,,,,,,,,,,,
,,,,,,,,2023-08-16_08h47.15.795,HF_wild_card,2022.2.4,Win32,60.03121623,5c73a9d92dfbdb0001b95375,64d2fd46c836a06233681665,64dc7ee762f341461303348d,,,,,,,sngl,resources/Empty.png,resources/DBN.BMP,WildCard_NonEx,0.407407407,0.047222222,1,0,0,0.8283,optionRight,55,6060,3,23,0,23,0,1,,,,,,,,,,,,,,,,,,,,,,,,,,,,,,,,,,,,,,,
,,,,,,,,2023-08-16_08h47.15.795,HF_wild_card,2022.2.4,Win32,60.03121623,5c73a9d92dfbdb0001b95375,64d2fd46c836a06233681665,64dc7ee762f341461303348d,,,,,,,ctch,resources/DR.BMP,resources/DB.BMP,Door4,0.32962963,0.044444444,1,0,0,1.0429,optionRight,60,6120,3,24,0,24,0,1,,,,,,,,,,,,,,,,,,,,,,,,,,,,,,,,,,,,,,,
,,,,,,,,2023-08-16_08h47.15.795,HF_wild_card,2022.2.4,Win32,60.03121623,5c73a9d92dfbdb0001b95375,64d2fd46c836a06233681665,64dc7ee762f341461303348d,,,,,,,decisionTrl,resources/DR.BMP,resources/DP.BMP,Door2,0.407407407,-0.003703704,1,0,0,2.1423,optionRight,20,6140,3,25,0,25,0,1,,,,,,,,,,,,,,,,,,,,,,,,,,,,,,,,,,,,,,,
,,,,,,,,2023-08-16_08h47.15.795,HF_wild_card,2022.2.4,Win32,60.03121623,5c73a9d92dfbdb0001b95375,64d2fd46c836a06233681665,64dc7ee762f341461303348d,,,,,,,decisionTrl,resources/DP.BMP,resources/DBN.BMP,WildCard_NonEx,0.376851852,-0.008333333,1,0,0,1.3273,optionRight,55,6195,3,26,0,26,0,1,,,,,,,,,,,,,,,,,,,,,,,,,,,,,,,,,,,,,,,
,,,,,,,,2023-08-16_08h47.15.795,HF_wild_card,2022.2.4,Win32,60.03121623,5c73a9d92dfbdb0001b95375,64d2fd46c836a06233681665,64dc7ee762f341461303348d,,,,,,,decisionTrl,resources/DP.BMP,resources/DR.BMP,Door1,0.376851852,0.006481481,1,0,0,0.9624,optionRight,30,6225,3,27,0,27,0,1,,,,,,,,,,,,,,,,,,,,,,,,,,,,,,,,,,,,,,,
,,,,,,,,2023-08-16_08h47.15.795,HF_wild_card,2022.2.4,Win32,60.03121623,5c73a9d92dfbdb0001b95375,64d2fd46c836a06233681665,64dc7ee762f341461303348d,,,,,,,ctch,resources/DG.BMP,resources/DP.BMP,Door3,-0.375925926,-0.058333333,1,0,0,1.293,optionLeft,70,6295,3,28,0,28,0,1,,,,,,,,,,,,,,,,,,,,,,,,,,,,,,,,,,,,,,,
,,,,,,,,2023-08-16_08h47.15.795,HF_wild_card,2022.2.4,Win32,60.03121623,5c73a9d92dfbdb0001b95375,64d2fd46c836a06233681665,64dc7ee762f341461303348d,,,,,,,ctch,resources/DR.BMP,resources/DB.BMP,Door4,0.555555556,-0.012037037,1,0,0,0.8617,optionRight,60,6355,3,29,0,29,0,1,,,,,,,,,,,,,,,,,,,,,,,,,,,,,,,,,,,,,,,
,,,,,,,,2023-08-16_08h47.15.795,HF_wild_card,2022.2.4,Win32,60.03121623,5c73a9d92dfbdb0001b95375,64d2fd46c836a06233681665,64dc7ee762f341461303348d,,,,,,,decisionTrl,resources/DB.BMP,resources/DBN.BMP,Door4,-0.324074074,0.015740741,1,0,0,1.6271,optionLeft,60,6415,3,30,0,30,0,1,,,,,,,,,,,,,,,,,,,,,,,,,,,,,,,,,,,,,,,
,,,,,,,,2023-08-16_08h47.15.795,HF_wild_card,2022.2.4,Win32,60.03121623,5c73a9d92dfbdb0001b95375,64d2fd46c836a06233681665,64dc7ee762f341461303348d,,,,,,,sngl,resources/Empty.png,resources/DB.BMP,Door4,0.463888889,0.007407407,1,0,0,0.7948,optionRight,60,6475,3,31,0,31,0,1,,,,,,,,,,,,,,,,,,,,,,,,,,,,,,,,,,,,,,,
,,,,,,,,2023-08-16_08h47.15.795,HF_wild_card,2022.2.4,Win32,60.03121623,5c73a9d92dfbdb0001b95375,64d2fd46c836a06233681665,64dc7ee762f341461303348d,,,,,,,sngl,resources/DR.BMP,resources/Empty.png,Door1,-0.364814815,0.016666667,1,0,0,0.7951,optionLeft,30,6505,3,32,0,32,0,1,,,,,,,,,,,,,,,,,,,,,,,,,,,,,,,,,,,,,,,
,,,,,,,,2023-08-16_08h47.15.795,HF_wild_card,2022.2.4,Win32,60.03121623,5c73a9d92dfbdb0001b95375,64d2fd46c836a06233681665,64dc7ee762f341461303348d,,,,,,,decisionTrl,resources/DB.BMP,resources/DG.BMP,Door3,0.45462963,-0.016666667,1,0,0,0.9439,optionRight,70,6575,3,33,0,33,0,1,,,,,,,,,,,,,,,,,,,,,,,,,,,,,,,,,,,,,,,
,,,,,,,,2023-08-16_08h47.15.795,HF_wild_card,2022.2.4,Win32,60.03121623,5c73a9d92dfbdb0001b95375,64d2fd46c836a06233681665,64dc7ee762f341461303348d,,,,,,,decisionTrl,resources/DBN.BMP,resources/DB.BMP,Door4,0.347222222,0.018518519,1,0,0,0.9606,optionRight,60,6635,3,34,0,34,0,1,,,,,,,,,,,,,,,,,,,,,,,,,,,,,,,,,,,,,,,
,,,,,,,,2023-08-16_08h47.15.795,HF_wild_card,2022.2.4,Win32,60.03121623,5c73a9d92dfbdb0001b95375,64d2fd46c836a06233681665,64dc7ee762f341461303348d,,,,,,,sngl,resources/DP.BMP,resources/Empty.png,Door2,-0.375925926,0.012037037,1,0,0,0.8777,optionLeft,40,6675,3,35,0,35,0,1,,,,,,,,,,,,,,,,,,,,,,,,,,,,,,,,,,,,,,,
,,,,,,,,2023-08-16_08h47.15.795,HF_wild_card,2022.2.4,Win32,60.03121623,5c73a9d92dfbdb0001b95375,64d2fd46c836a06233681665,64dc7ee762f341461303348d,,,,,,,decisionTrl,resources/DG.BMP,resources/DB.BMP,Door3,-0.260185185,0.022222222,1,0,0,0.9318,optionLeft,70,6745,3,36,0,36,0,1,,,,,,,,,,,,,,,,,,,,,,,,,,,,,,,,,,,,,,,
,,,,,,,,2023-08-16_08h47.15.795,HF_wild_card,2022.2.4,Win32,60.03121623,5c73a9d92dfbdb0001b95375,64d2fd46c836a06233681665,64dc7ee762f341461303348d,,,,,,,decisionTrl,resources/DP.BMP,resources/DR.BMP,Door1,0.349074074,-0.025,1,0,0,3.1564,optionRight,30,6775,3,37,0,37,0,1,,,,,,,,,,,,,,,,,,,,,,,,,,,,,,,,,,,,,,,
,,,,,,,,2023-08-16_08h47.15.795,HF_wild_card,2022.2.4,Win32,60.03121623,5c73a9d92dfbdb0001b95375,64d2fd46c836a06233681665,64dc7ee762f341461303348d,,,,,,,decisionTrl,resources/DR.BMP,resources/DP.BMP,Door1,-0.435185157,0.008333333,1,0,0,2.2614,optionLeft,30,6805,3,38,0,38,0,1,,,,,,,,,,,,,,,,,,,,,,,,,,,,,,,,,,,,,,,
,,,,,,,,2023-08-16_08h47.15.795,HF_wild_card,2022.2.4,Win32,60.03121623,5c73a9d92dfbdb0001b95375,64d2fd46c836a06233681665,64dc7ee762f341461303348d,,,,,,,decisionTrl,resources/DG.BMP,resources/DBN.BMP,Door3,-0.276851852,-0.047222222,1,0,0,1.2779,optionLeft,70,6875,3,39,0,39,0,1,,,,,,,,,,,,,,,,,,,,,,,,,,,,,,,,,,,,,,,
,,,,,,,,2023-08-16_08h47.15.795,HF_wild_card,2022.2.4,Win32,60.03121623,5c73a9d92dfbdb0001b95375,64d2fd46c836a06233681665,64dc7ee762f341461303348d,,,,,,,decisionTrl,resources/DBN.BMP,resources/DP.BMP,WildCard_NonEx,-0.412037037,0.051851824,1,0,0,1.6939,optionLeft,45,6920,3,40,0,40,0,1,,,,,,,,,,,,,,,,,,,,,,,,,,,,,,,,,,,,,,,
,,,,,,,,2023-08-16_08h47.15.795,HF_wild_card,2022.2.4,Win32,60.03121623,5c73a9d92dfbdb0001b95375,64d2fd46c836a06233681665,64dc7ee762f341461303348d,,,,,,,decisionTrl,resources/DG.BMP,resources/DB.BMP,Door3,-0.24537037,0.012962963,1,0,0,1.1112,optionLeft,70,6990,3,41,0,41,0,1,,,,,,,,,,,,,,,,,,,,,,,,,,,,,,,,,,,,,,,
,,,,,,,,2023-08-16_08h47.15.795,HF_wild_card,2022.2.4,Win32,60.03121623,5c73a9d92dfbdb0001b95375,64d2fd46c836a06233681665,64dc7ee762f341461303348d,,,,,,,ctch,resources/DP.BMP,resources/DG.BMP,Door2,-0.309259259,0.002777778,1,0,0,1.0112,optionLeft,40,7030,3,42,0,42,0,1,,,,,,,,,,,,,,,,,,,,,,,,,,,,,,,,,,,,,,,
,,,,,,,,2023-08-16_08h47.15.795,HF_wild_card,2022.2.4,Win32,60.03121623,5c73a9d92dfbdb0001b95375,64d2fd46c836a06233681665,64dc7ee762f341461303348d,,,,,,,decisionTrl,resources/DP.BMP,resources/DR.BMP,Door2,-0.290740741,0.005555556,1,0,0,2.6275,optionLeft,40,7070,3,43,0,43,0,1,,,,,,,,,,,,,,,,,,,,,,,,,,,,,,,,,,,,,,,
,,,,,,,,2023-08-16_08h47.15.795,HF_wild_card,2022.2.4,Win32,60.03121623,5c73a9d92dfbdb0001b95375,64d2fd46c836a06233681665,64dc7ee762f341461303348d,,,,,,,,,,,,,,,,,,,,,,,,,,2,0,2,0,1,,,,,,,,,,,,,,,,,,,,,,,,,,,,,,,,,,
,,,,,,,,2023-08-16_08h47.15.795,HF_wild_card,2022.2.4,Win32,60.03121623,5c73a9d92dfbdb0001b95375,64d2fd46c836a06233681665,64dc7ee762f341461303348d,,,,,,,decisionTrl,resources/DG.BMP,resources/DB.BMP,Door3,-0.312962963,-0.027777778,1,0,0,1.0106,optionLeft,70,7140,4,0,0,0,0,1,,,,,,,,,,,,,,,,,,,,,,,,,,,,,,,,,,,,,,,
,,,,,,,,2023-08-16_08h47.15.795,HF_wild_card,2022.2.4,Win32,60.03121623,5c73a9d92dfbdb0001b95375,64d2fd46c836a06233681665,64dc7ee762f341461303348d,,,,,,,ctch,resources/DR.BMP,resources/DB.BMP,Door4,0.412962963,-0.041666667,1,0,0,0.8433,optionRight,80,7220,4,1,0,1,0,1,,,,,,,,,,,,,,,,,,,,,,,,,,,,,,,,,,,,,,,
,,,,,,,,2023-08-16_08h47.15.795,HF_wild_card,2022.2.4,Win32,60.03121623,5c73a9d92dfbdb0001b95375,64d2fd46c836a06233681665,64dc7ee762f341461303348d,,,,,,,decisionTrl,resources/DG.BMP,resources/DB.BMP,Door4,0.40462963,-0.027777778,1,0,0,0.9279,optionRight,60,7280,4,2,0,2,0,1,,,,,,,,,,,,,,,,,,,,,,,,,,,,,,,,,,,,,,,
,,,,,,,,2023-08-16_08h47.15.795,HF_wild_card,2022.2.4,Win32,60.03121623,5c73a9d92dfbdb0001b95375,64d2fd46c836a06233681665,64dc7ee762f341461303348d,,,,,,,sngl,resources/Empty.png,resources/DY.BMP,WildCard_Ex,0.424074074,0.005555556,1,0,0,0.9286,optionRight,45,7325,4,3,0,3,0,1,,,,,,,,,,,,,,,,,,,,,,,,,,,,,,,,,,,,,,,
,,,,,,,,2023-08-16_08h47.15.795,HF_wild_card,2022.2.4,Win32,60.03121623,5c73a9d92dfbdb0001b95375,64d2fd46c836a06233681665,64dc7ee762f341461303348d,,,,,,,ctch,resources/DP.BMP,resources/DG.BMP,Door3,0.37962963,-0.002777778,1,0,0,1.8612,optionRight,70,7395,4,4,0,4,0,1,,,,,,,,,,,,,,,,,,,,,,,,,,,,,,,,,,,,,,,
,,,,,,,,2023-08-16_08h47.15.795,HF_wild_card,2022.2.4,Win32,60.03121623,5c73a9d92dfbdb0001b95375,64d2fd46c836a06233681665,64dc7ee762f341461303348d,,,,,,,sngl,resources/Empty.png,resources/DY.BMP,WildCard_Ex,0.436111111,0.010185185,1,0,0,0.8784,optionRight,55,7450,4,5,0,5,0,1,,,,,,,,,,,,,,,,,,,,,,,,,,,,,,,,,,,,,,,
,,,,,,,,2023-08-16_08h47.15.795,HF_wild_card,2022.2.4,Win32,60.03121623,5c73a9d92dfbdb0001b95375,64d2fd46c836a06233681665,64dc7ee762f341461303348d,,,,,,,decisionTrl,resources/DR.BMP,resources/DP.BMP,Door1,-0.359259259,-0.003703704,1,0,0,1.4614,optionLeft,30,7480,4,6,0,6,0,1,,,,,,,,,,,,,,,,,,,,,,,,,,,,,,,,,,,,,,,
,,,,,,,,2023-08-16_08h47.15.795,HF_wild_card,2022.2.4,Win32,60.03121623,5c73a9d92dfbdb0001b95375,64d2fd46c836a06233681665,64dc7ee762f341461303348d,,,,,,,ctch,resources/DP.BMP,resources/DG.BMP,Door3,0.277777778,0.016666667,1,0,0,1.3949,optionRight,70,7550,4,7,0,7,0,1,,,,,,,,,,,,,,,,,,,,,,,,,,,,,,,,,,,,,,,
,,,,,,,,2023-08-16_08h47.15.795,HF_wild_card,2022.2.4,Win32,60.03121623,5c73a9d92dfbdb0001b95375,64d2fd46c836a06233681665,64dc7ee762f341461303348d,,,,,,,decisionTrl,resources/DG.BMP,resources/DB.BMP,Door3,-0.307407407,0.028703704,1,0,0,0.9325,optionLeft,70,7620,4,8,0,8,0,1,,,,,,,,,,,,,,,,,,,,,,,,,,,,,,,,,,,,,,,
,,,,,,,,2023-08-16_08h47.15.795,HF_wild_card,2022.2.4,Win32,60.03121623,5c73a9d92dfbdb0001b95375,64d2fd46c836a06233681665,64dc7ee762f341461303348d,,,,,,,decisionTrl,resources/DP.BMP,resources/DR.BMP,Door2,-0.429629601,-0.025,1,0,0,1.6751,optionLeft,20,7640,4,9,0,9,0,1,,,,,,,,,,,,,,,,,,,,,,,,,,,,,,,,,,,,,,,
,,,,,,,,2023-08-16_08h47.15.795,HF_wild_card,2022.2.4,Win32,60.03121623,5c73a9d92dfbdb0001b95375,64d2fd46c836a06233681665,64dc7ee762f341461303348d,,,,,,,ctch,resources/DG.BMP,resources/DP.BMP,Door3,-0.30462963,0.008333333,1,0,0,1.2105,optionLeft,70,7710,4,10,0,10,0,1,,,,,,,,,,,,,,,,,,,,,,,,,,,,,,,,,,,,,,,
,,,,,,,,2023-08-16_08h47.15.795,HF_wild_card,2022.2.4,Win32,60.03121623,5c73a9d92dfbdb0001b95375,64d2fd46c836a06233681665,64dc7ee762f341461303348d,,,,,,,sngl,resources/Empty.png,resources/DR.BMP,Door1,0.441666667,-0.048148148,1,0,0,0.8941,optionRight,30,7740,4,11,0,11,0,1,,,,,,,,,,,,,,,,,,,,,,,,,,,,,,,,,,,,,,,
,,,,,,,,2023-08-16_08h47.15.795,HF_wild_card,2022.2.4,Win32,60.03121623,5c73a9d92dfbdb0001b95375,64d2fd46c836a06233681665,64dc7ee762f341461303348d,,,,,,,decisionTrl,resources/DP.BMP,resources/DY.BMP,WildCard_Ex,0.381481481,-0.025925926,1,0,0,1.3784,optionRight,55,7795,4,12,0,12,0,1,,,,,,,,,,,,,,,,,,,,,,,,,,,,,,,,,,,,,,,
,,,,,,,,2023-08-16_08h47.15.795,HF_wild_card,2022.2.4,Win32,60.03121623,5c73a9d92dfbdb0001b95375,64d2fd46c836a06233681665,64dc7ee762f341461303348d,,,,,,,sngl,resources/Empty.png,resources/DP.BMP,Door2,0.343518519,-0.056481481,1,0,0,1.178,optionRight,40,7835,4,13,0,13,0,1,,,,,,,,,,,,,,,,,,,,,,,,,,,,,,,,,,,,,,,
,,,,,,,,2023-08-16_08h47.15.795,HF_wild_card,2022.2.4,Win32,60.03121623,5c73a9d92dfbdb0001b95375,64d2fd46c836a06233681665,64dc7ee762f341461303348d,,,,,,,ctch,resources/DR.BMP,resources/DB.BMP,Door4,0.351851852,-0.025,1,0,0,1.6097,optionRight,80,7915,4,14,0,14,0,1,,,,,,,,,,,,,,,,,,,,,,,,,,,,,,,,,,,,,,,
,,,,,,,,2023-08-16_08h47.15.795,HF_wild_card,2022.2.4,Win32,60.03121623,5c73a9d92dfbdb0001b95375,64d2fd46c836a06233681665,64dc7ee762f341461303348d,,,,,,,decisionTrl,resources/DY.BMP,resources/DP.BMP,WildCard_Ex,-0.284259259,0.033333333,1,0,0,1.4943,optionLeft,45,7960,4,15,0,15,0,1,,,,,,,,,,,,,,,,,,,,,,,,,,,,,,,,,,,,,,,
,,,,,,,,2023-08-16_08h47.15.795,HF_wild_card,2022.2.4,Win32,60.03121623,5c73a9d92dfbdb0001b95375,64d2fd46c836a06233681665,64dc7ee762f341461303348d,,,,,,,decisionTrl,resources/DB.BMP,resources/DG.BMP,Door3,0.388888889,0,1,0,0,1.461,optionRight,70,8030,4,16,0,16,0,1,,,,,,,,,,,,,,,,,,,,,,,,,,,,,,,,,,,,,,,
,,,,,,,,2023-08-16_08h47.15.795,HF_wild_card,2022.2.4,Win32,60.03121623,5c73a9d92dfbdb0001b95375,64d2fd46c836a06233681665,64dc7ee762f341461303348d,,,,,,,sngl,resources/DR.BMP,resources/Empty.png,Door1,-0.32037037,0.010185185,1,0,0,0.8942,optionLeft,30,8060,4,17,0,17,0,1,,,,,,,,,,,,,,,,,,,,,,,,,,,,,,,,,,,,,,,
,,,,,,,,2023-08-16_08h47.15.795,HF_wild_card,2022.2.4,Win32,60.03121623,5c73a9d92dfbdb0001b95375,64d2fd46c836a06233681665,64dc7ee762f341461303348d,,,,,,,ctch,resources/DB.BMP,resources/DR.BMP,Door4,-0.307407407,0.019444444,1,0,0,0.844,optionLeft,80,8140,4,18,0,18,0,1,,,,,,,,,,,,,,,,,,,,,,,,,,,,,,,,,,,,,,,
,,,,,,,,2023-08-16_08h47.15.795,HF_wild_card,2022.2.4,Win32,60.03121623,5c73a9d92dfbdb0001b95375,64d2fd46c836a06233681665,64dc7ee762f341461303348d,,,,,,,decisionTrl,resources/DR.BMP,resources/DP.BMP,Door1,-0.340740741,-0.002777778,1,0,0,2.7929,optionLeft,30,8170,4,19,0,19,0,1,,,,,,,,,,,,,,,,,,,,,,,,,,,,,,,,,,,,,,,
,,,,,,,,2023-08-16_08h47.15.795,HF_wild_card,2022.2.4,Win32,60.03121623,5c73a9d92dfbdb0001b95375,64d2fd46c836a06233681665,64dc7ee762f341461303348d,,,,,,,decisionTrl,resources/DG.BMP,resources/DB.BMP,Door4,0.341666667,0.016666667,1,0,0,1.2776,optionRight,60,8230,4,20,0,20,0,1,,,,,,,,,,,,,,,,,,,,,,,,,,,,,,,,,,,,,,,
,,,,,,,,2023-08-16_08h47.15.795,HF_wild_card,2022.2.4,Win32,60.03121623,5c73a9d92dfbdb0001b95375,64d2fd46c836a06233681665,64dc7ee762f341461303348d,,,,,,,decisionTrl,resources/DY.BMP,resources/DG.BMP,Door3,0.419444444,-0.003703704,1,0,0,0.8115,optionRight,70,8300,4,21,0,21,0,1,,,,,,,,,,,,,,,,,,,,,,,,,,,,,,,,,,,,,,,
,,,,,,,,2023-08-16_08h47.15.795,HF_wild_card,2022.2.4,Win32,60.03121623,5c73a9d92dfbdb0001b95375,64d2fd46c836a06233681665,64dc7ee762f341461303348d,,,,,,,decisionTrl,resources/DB.BMP,resources/DG.BMP,Door3,0.447222222,-0.003703704,1,0,0,1.0617,optionRight,70,8370,4,22,0,22,0,1,,,,,,,,,,,,,,,,,,,,,,,,,,,,,,,,,,,,,,,
,,,,,,,,2023-08-16_08h47.15.795,HF_wild_card,2022.2.4,Win32,60.03121623,5c73a9d92dfbdb0001b95375,64d2fd46c836a06233681665,64dc7ee762f341461303348d,,,,,,,decisionTrl,resources/DP.BMP,resources/DR.BMP,Door2,-0.281481481,-0.001851852,1,0,0,3.0606,optionLeft,20,8390,4,23,0,23,0,1,,,,,,,,,,,,,,,,,,,,,,,,,,,,,,,,,,,,,,,
,,,,,,,,2023-08-16_08h47.15.795,HF_wild_card,2022.2.4,Win32,60.03121623,5c73a9d92dfbdb0001b95375,64d2fd46c836a06233681665,64dc7ee762f341461303348d,,,,,,,decisionTrl,resources/DB.BMP,resources/DY.BMP,Door4,-0.239814815,-0.002777778,1,0,0,1.361,optionLeft,80,8470,4,24,0,24,0,1,,,,,,,,,,,,,,,,,,,,,,,,,,,,,,,,,,,,,,,
,,,,,,,,2023-08-16_08h47.15.795,HF_wild_card,2022.2.4,Win32,60.03121623,5c73a9d92dfbdb0001b95375,64d2fd46c836a06233681665,64dc7ee762f341461303348d,,,,,,,decisionTrl,resources/DB.BMP,resources/DG.BMP,Door4,-0.296296296,0.015740741,1,0,0,0.8269,optionLeft,60,8530,4,25,0,25,0,1,,,,,,,,,,,,,,,,,,,,,,,,,,,,,,,,,,,,,,,
,,,,,,,,2023-08-16_08h47.15.795,HF_wild_card,2022.2.4,Win32,60.03121623,5c73a9d92dfbdb0001b95375,64d2fd46c836a06233681665,64dc7ee762f341461303348d,,,,,,,decisionTrl,resources/DR.BMP,resources/DP.BMP,Door1,-0.285185185,0.002777778,1,0,0,1.6623,optionLeft,30,8560,4,26,0,26,0,1,,,,,,,,,,,,,,,,,,,,,,,,,,,,,,,,,,,,,,,
,,,,,,,,2023-08-16_08h47.15.795,HF_wild_card,2022.2.4,Win32,60.03121623,5c73a9d92dfbdb0001b95375,64d2fd46c836a06233681665,64dc7ee762f341461303348d,,,,,,,decisionTrl,resources/DP.BMP,resources/DR.BMP,Door1,0.374074074,-0.025925926,1,0,0,1.29,optionRight,30,8590,4,27,0,27,0,1,,,,,,,,,,,,,,,,,,,,,,,,,,,,,,,,,,,,,,,
,,,,,,,,2023-08-16_08h47.15.795,HF_wild_card,2022.2.4,Win32,60.03121623,5c73a9d92dfbdb0001b95375,64d2fd46c836a06233681665,64dc7ee762f341461303348d,,,,,,,decisionTrl,resources/DY.BMP,resources/DB.BMP,Door4,0.527777778,-0.025,1,0,0,1.3775,optionRight,60,8650,4,28,0,28,0,1,,,,,,,,,,,,,,,,,,,,,,,,,,,,,,,,,,,,,,,
,,,,,,,,2023-08-16_08h47.15.795,HF_wild_card,2022.2.4,Win32,60.03121623,5c73a9d92dfbdb0001b95375,64d2fd46c836a06233681665,64dc7ee762f341461303348d,,,,,,,sngl,resources/DY.BMP,resources/Empty.png,WildCard_Ex,-0.317592593,0.005555556,1,0,0,0.8455,optionLeft,45,8695,4,29,0,29,0,1,,,,,,,,,,,,,,,,,,,,,,,,,,,,,,,,,,,,,,,
,,,,,,,,2023-08-16_08h47.15.795,HF_wild_card,2022.2.4,Win32,60.03121623,5c73a9d92dfbdb0001b95375,64d2fd46c836a06233681665,64dc7ee762f341461303348d,,,,,,,sngl,resources/DY.BMP,resources/Empty.png,WildCard_Ex,-0.303703704,0.047222222,1,0,0,0.7778,optionLeft,55,8750,4,30,0,30,0,1,,,,,,,,,,,,,,,,,,,,,,,,,,,,,,,,,,,,,,,
,,,,,,,,2023-08-16_08h47.15.795,HF_wild_card,2022.2.4,Win32,60.03121623,5c73a9d92dfbdb0001b95375,64d2fd46c836a06233681665,64dc7ee762f341461303348d,,,,,,,sngl,resources/DB.BMP,resources/Empty.png,Door4,-0.374074074,0.031481481,1,0,0,0.8279,optionLeft,60,8810,4,31,0,31,0,1,,,,,,,,,,,,,,,,,,,,,,,,,,,,,,,,,,,,,,,
,,,,,,,,2023-08-16_08h47.15.795,HF_wild_card,2022.2.4,Win32,60.03121623,5c73a9d92dfbdb0001b95375,64d2fd46c836a06233681665,64dc7ee762f341461303348d,,,,,,,sngl,resources/DP.BMP,resources/Empty.png,Door2,-0.29537037,0.022222222,1,0,0,0.8116,optionLeft,20,8830,4,32,0,32,0,1,,,,,,,,,,,,,,,,,,,,,,,,,,,,,,,,,,,,,,,
,,,,,,,,2023-08-16_08h47.15.795,HF_wild_card,2022.2.4,Win32,60.03121623,5c73a9d92dfbdb0001b95375,64d2fd46c836a06233681665,64dc7ee762f341461303348d,,,,,,,sngl,resources/DG.BMP,resources/Empty.png,Door3,-0.273148148,0.007407407,1,0,0,0.8286,optionLeft,70,8900,4,33,0,33,0,1,,,,,,,,,,,,,,,,,,,,,,,,,,,,,,,,,,,,,,,
,,,,,,,,2023-08-16_08h47.15.795,HF_wild_card,2022.2.4,Win32,60.03121623,5c73a9d92dfbdb0001b95375,64d2fd46c836a06233681665,64dc7ee762f341461303348d,,,,,,,sngl,resources/Empty.png,resources/DG.BMP,Door3,0.447222222,-0.05,1,0,0,0.7943,optionRight,70,8970,4,34,0,34,0,1,,,,,,,,,,,,,,,,,,,,,,,,,,,,,,,,,,,,,,,
,,,,,,,,2023-08-16_08h47.15.795,HF_wild_card,2022.2.4,Win32,60.03121623,5c73a9d92dfbdb0001b95375,64d2fd46c836a06233681665,64dc7ee762f341461303348d,,,,,,,ctch,resources/DB.BMP,resources/DR.BMP,Door4,-0.412962963,0.001851852,1,0,0,1.5277,optionLeft,60,9030,4,35,0,35,0,1,,,,,,,,,,,,,,,,,,,,,,,,,,,,,,,,,,,,,,,
,,,,,,,,2023-08-16_08h47.15.795,HF_wild_card,2022.2.4,Win32,60.03121623,5c73a9d92dfbdb0001b95375,64d2fd46c836a06233681665,64dc7ee762f341461303348d,,,,,,,ctch,resources/DG.BMP,resources/DP.BMP,Door3,-0.301851852,0.011111111,1,0,0,0.844,optionLeft,70,9100,4,36,0,36,0,1,,,,,,,,,,,,,,,,,,,,,,,,,,,,,,,,,,,,,,,
,,,,,,,,2023-08-16_08h47.15.795,HF_wild_card,2022.2.4,Win32,60.03121623,5c73a9d92dfbdb0001b95375,64d2fd46c836a06233681665,64dc7ee762f341461303348d,,,,,,,sngl,resources/Empty.png,resources/DB.BMP,Door4,0.45462963,0.00462963,1,0,0,0.9944,optionRight,80,9180,4,37,0,37,0,1,,,,,,,,,,,,,,,,,,,,,,,,,,,,,,,,,,,,,,,
,,,,,,,,2023-08-16_08h47.15.795,HF_wild_card,2022.2.4,Win32,60.03121623,5c73a9d92dfbdb0001b95375,64d2fd46c836a06233681665,64dc7ee762f341461303348d,,,,,,,decisionTrl,resources/DY.BMP,resources/DR.BMP,WildCard_Ex,-0.290740741,0.025,1,0,0,1.6111,optionLeft,45,9225,4,38,0,38,0,1,,,,,,,,,,,,,,,,,,,,,,,,,,,,,,,,,,,,,,,
,,,,,,,,2023-08-16_08h47.15.795,HF_wild_card,2022.2.4,Win32,60.03121623,5c73a9d92dfbdb0001b95375,64d2fd46c836a06233681665,64dc7ee762f341461303348d,,,,,,,decisionTrl,resources/DP.BMP,resources/DR.BMP,Door1,0.421296296,-0.00462963,1,0,0,2.727,optionRight,30,9255,4,39,0,39,0,1,,,,,,,,,,,,,,,,,,,,,,,,,,,,,,,,,,,,,,,
,,,,,,,,2023-08-16_08h47.15.795,HF_wild_card,2022.2.4,Win32,60.03121623,5c73a9d92dfbdb0001b95375,64d2fd46c836a06233681665,64dc7ee762f341461303348d,,,,,,,decisionTrl,resources/DB.BMP,resources/DG.BMP,Door4,-0.368518519,0.002777778,1,0,0,1.144,optionLeft,80,9335,4,40,0,40,0,1,,,,,,,,,,,,,,,,,,,,,,,,,,,,,,,,,,,,,,,
,,,,,,,,2023-08-16_08h47.15.795,HF_wild_card,2022.2.4,Win32,60.03121623,5c73a9d92dfbdb0001b95375,64d2fd46c836a06233681665,64dc7ee762f341461303348d,,,,,,,decisionTrl,resources/DR.BMP,resources/DP.BMP,Door1,-0.281481481,-0.002777778,1,0,0,1.3268,optionLeft,30,9365,4,41,0,41,0,1,,,,,,,,,,,,,,,,,,,,,,,,,,,,,,,,,,,,,,,
,,,,,,,,2023-08-16_08h47.15.795,HF_wild_card,2022.2.4,Win32,60.03121623,5c73a9d92dfbdb0001b95375,64d2fd46c836a06233681665,64dc7ee762f341461303348d,,,,,,,decisionTrl,resources/DG.BMP,resources/DY.BMP,Door3,-0.274074074,0.037962935,1,0,0,1.2277,optionLeft,70,9435,4,42,0,42,0,1,,,,,,,,,,,,,,,,,,,,,,,,,,,,,,,,,,,,,,,
,,,,,,,,2023-08-16_08h47.15.795,HF_wild_card,2022.2.4,Win32,60.03121623,5c73a9d92dfbdb0001b95375,64d2fd46c836a06233681665,64dc7ee762f341461303348d,,,,,,,decisionTrl,resources/DR.BMP,resources/DY.BMP,WildCard_Ex,0.511111111,-0.072222222,1,0,0,1.512,optionRight,55,9490,4,43,0,43,0,1,,,,,,,,,,,,,,,,,,,,,,,,,,,,,,,,,,,,,,,
,,,,,,,,2023-08-16_08h47.15.795,HF_wild_card,2022.2.4,Win32,60.03121623,5c73a9d92dfbdb0001b95375,64d2fd46c836a06233681665,64dc7ee762f341461303348d,,,,,,,,,,,,,,,,,,,,,,,,,,3,0,3,0,1,,,,,,,,,,,,,,,,,,,,,,,,,,,,,,,,,,
,,,,,,,,2023-08-16_08h47.15.795,HF_wild_card,2022.2.4,Win32,60.03121623,5c73a9d92dfbdb0001b95375,64d2fd46c836a06233681665,64dc7ee762f341461303348d,,,,,,,decisionTrl,resources/DR.BMP,resources/DP.BMP,Door2,0.325,-0.037037037,1,0,0,1.6914,optionRight,20,9510,5,0,0,0,0,1,,,,,,,,,,,,,,,,,,,,,,,,,,,,,,,,,,,,,,,
,,,,,,,,2023-08-16_08h47.15.795,HF_wild_card,2022.2.4,Win32,60.03121623,5c73a9d92dfbdb0001b95375,64d2fd46c836a06233681665,64dc7ee762f341461303348d,,,,,,,decisionTrl,resources/DG.BMP,resources/DB.BMP,Door3,-0.332407407,0.025925926,1,0,0,1.0949,optionLeft,70,9580,5,1,0,1,0,1,,,,,,,,,,,,,,,,,,,,,,,,,,,,,,,,,,,,,,,
,,,,,,,,2023-08-16_08h47.15.795,HF_wild_card,2022.2.4,Win32,60.03121623,5c73a9d92dfbdb0001b95375,64d2fd46c836a06233681665,64dc7ee762f341461303348d,,,,,,,ctch,resources/DG.BMP,resources/DP.BMP,Door3,-0.309259259,0.02037037,1,0,0,1.3944,optionLeft,70,9650,5,2,0,2,0,1,,,,,,,,,,,,,,,,,,,,,,,,,,,,,,,,,,,,,,,
,,,,,,,,2023-08-16_08h47.15.795,HF_wild_card,2022.2.4,Win32,60.03121623,5c73a9d92dfbdb0001b95375,64d2fd46c836a06233681665,64dc7ee762f341461303348d,,,,,,,sngl,resources/Empty.png,resources/DY.BMP,WildCard_Ex,0.424074074,-0.019444444,1,0,0,0.8768,optionRight,45,9695,5,3,0,3,0,1,,,,,,,,,,,,,,,,,,,,,,,,,,,,,,,,,,,,,,,
,,,,,,,,2023-08-16_08h47.15.795,HF_wild_card,2022.2.4,Win32,60.03121623,5c73a9d92dfbdb0001b95375,64d2fd46c836a06233681665,64dc7ee762f341461303348d,,,,,,,decisionTrl,resources/DP.BMP,resources/DR.BMP,Door1,0.412962963,-0.019444444,1,0,0,1.3786,optionRight,30,9725,5,4,0,4,0,1,,,,,,,,,,,,,,,,,,,,,,,,,,,,,,,,,,,,,,,
,,,,,,,,2023-08-16_08h47.15.795,HF_wild_card,2022.2.4,Win32,60.03121623,5c73a9d92dfbdb0001b95375,64d2fd46c836a06233681665,64dc7ee762f341461303348d,,,,,,,decisionTrl,resources/DR.BMP,resources/DP.BMP,Door1,-0.337037037,0.022222222,1,0,0,1.5927,optionLeft,30,9755,5,5,0,5,0,1,,,,,,,,,,,,,,,,,,,,,,,,,,,,,,,,,,,,,,,
,,,,,,,,2023-08-16_08h47.15.795,HF_wild_card,2022.2.4,Win32,60.03121623,5c73a9d92dfbdb0001b95375,64d2fd46c836a06233681665,64dc7ee762f341461303348d,,,,,,,decisionTrl,resources/DP.BMP,resources/DR.BMP,Door1,0.494444444,0.026851824,1,0,0,1.2938,optionRight,30,9785,5,6,0,6,0,1,,,,,,,,,,,,,,,,,,,,,,,,,,,,,,,,,,,,,,,
,,,,,,,,2023-08-16_08h47.15.795,HF_wild_card,2022.2.4,Win32,60.03121623,5c73a9d92dfbdb0001b95375,64d2fd46c836a06233681665,64dc7ee762f341461303348d,,,,,,,decisionTrl,resources/DR.BMP,resources/DY.BMP,WildCard_Ex,0.469444444,0.029629601,1,0,0,1.2601,optionRight,55,9840,5,7,0,7,0,1,,,,,,,,,,,,,,,,,,,,,,,,,,,,,,,,,,,,,,,
,,,,,,,,2023-08-16_08h47.15.795,HF_wild_card,2022.2.4,Win32,60.03121623,5c73a9d92dfbdb0001b95375,64d2fd46c836a06233681665,64dc7ee762f341461303348d,,,,,,,ctch,resources/DR.BMP,resources/DB.BMP,Door4,0.468518519,-0.019444444,1,0,0,0.8765,optionRight,80,9920,5,8,0,8,0,1,,,,,,,,,,,,,,,,,,,,,,,,,,,,,,,,,,,,,,,
,,,,,,,,2023-08-16_08h47.15.795,HF_wild_card,2022.2.4,Win32,60.03121623,5c73a9d92dfbdb0001b95375,64d2fd46c836a06233681665,64dc7ee762f341461303348d,,,,,,,decisionTrl,resources/DG.BMP,resources/DB.BMP,Door4,0.40462963,-0.025,1,0,0,0.7759,optionRight,60,9980,5,9,0,9,0,1,,,,,,,,,,,,,,,,,,,,,,,,,,,,,,,,,,,,,,,
,,,,,,,,2023-08-16_08h47.15.795,HF_wild_card,2022.2.4,Win32,60.03121623,5c73a9d92dfbdb0001b95375,64d2fd46c836a06233681665,64dc7ee762f341461303348d,,,,,,,decisionTrl,resources/DG.BMP,resources/DY.BMP,Door3,-0.41851849,-0.003703704,1,0,0,0.8111,optionLeft,70,10050,5,10,0,10,0,1,,,,,,,,,,,,,,,,,,,,,,,,,,,,,,,,,,,,,,,
,,,,,,,,2023-08-16_08h47.15.795,HF_wild_card,2022.2.4,Win32,60.03121623,5c73a9d92dfbdb0001b95375,64d2fd46c836a06233681665,64dc7ee762f341461303348d,,,,,,,ctch,resources/DG.BMP,resources/DP.BMP,Door3,-0.32037037,0.022222222,1,0,0,1.1948,optionLeft,70,10120,5,11,0,11,0,1,,,,,,,,,,,,,,,,,,,,,,,,,,,,,,,,,,,,,,,
,,,,,,,,2023-08-16_08h47.15.795,HF_wild_card,2022.2.4,Win32,60.03121623,5c73a9d92dfbdb0001b95375,64d2fd46c836a06233681665,64dc7ee762f341461303348d,,,,,,,sngl,resources/Empty.png,resources/DG.BMP,Door3,0.418518519,0.022222222,1,0,0,0.7618,optionRight,70,10190,5,12,0,12,0,1,,,,,,,,,,,,,,,,,,,,,,,,,,,,,,,,,,,,,,,
,,,,,,,,2023-08-16_08h47.15.795,HF_wild_card,2022.2.4,Win32,60.03121623,5c73a9d92dfbdb0001b95375,64d2fd46c836a06233681665,64dc7ee762f341461303348d,,,,,,,ctch,resources/DP.BMP,resources/DG.BMP,Door3,0.469444444,0.015740741,1,0,0,0.7946,optionRight,70,10260,5,13,0,13,0,1,,,,,,,,,,,,,,,,,,,,,,,,,,,,,,,,,,,,,,,
,,,,,,,,2023-08-16_08h47.15.795,HF_wild_card,2022.2.4,Win32,60.03121623,5c73a9d92dfbdb0001b95375,64d2fd46c836a06233681665,64dc7ee762f341461303348d,,,,,,,sngl,resources/DR.BMP,resources/Empty.png,Door1,-0.350925926,-0.005555556,1,0,0,0.8772,optionLeft,30,10290,5,14,0,14,0,1,,,,,,,,,,,,,,,,,,,,,,,,,,,,,,,,,,,,,,,
,,,,,,,,2023-08-16_08h47.15.795,HF_wild_card,2022.2.4,Win32,60.03121623,5c73a9d92dfbdb0001b95375,64d2fd46c836a06233681665,64dc7ee762f341461303348d,,,,,,,sngl,resources/Empty.png,resources/DR.BMP,Door1,0.427777778,-0.034259259,1,0,0,0.8445,optionRight,30,10320,5,15,0,15,0,1,,,,,,,,,,,,,,,,,,,,,,,,,,,,,,,,,,,,,,,
,,,,,,,,2023-08-16_08h47.15.795,HF_wild_card,2022.2.4,Win32,60.03121623,5c73a9d92dfbdb0001b95375,64d2fd46c836a06233681665,64dc7ee762f341461303348d,,,,,,,decisionTrl,resources/DB.BMP,resources/DY.BMP,Door4,-0.328703704,-0.006481481,1,0,0,1.3437,optionLeft,80,10400,5,16,0,16,0,1,,,,,,,,,,,,,,,,,,,,,,,,,,,,,,,,,,,,,,,
,,,,,,,,2023-08-16_08h47.15.795,HF_wild_card,2022.2.4,Win32,60.03121623,5c73a9d92dfbdb0001b95375,64d2fd46c836a06233681665,64dc7ee762f341461303348d,,,,,,,sngl,resources/Empty.png,resources/DY.BMP,WildCard_Ex,0.469444444,-0.011111111,1,0,0,0.7956,optionRight,55,10455,5,17,0,17,0,1,,,,,,,,,,,,,,,,,,,,,,,,,,,,,,,,,,,,,,,
,,,,,,,,2023-08-16_08h47.15.795,HF_wild_card,2022.2.4,Win32,60.03121623,5c73a9d92dfbdb0001b95375,64d2fd46c836a06233681665,64dc7ee762f341461303348d,,,,,,,decisionTrl,resources/DP.BMP,resources/DR.BMP,Door1,0.375,0.002777778,1,0,0,1.1094,optionRight,30,10485,5,18,0,18,0,1,,,,,,,,,,,,,,,,,,,,,,,,,,,,,,,,,,,,,,,
,,,,,,,,2023-08-16_08h47.15.795,HF_wild_card,2022.2.4,Win32,60.03121623,5c73a9d92dfbdb0001b95375,64d2fd46c836a06233681665,64dc7ee762f341461303348d,,,,,,,sngl,resources/Empty.png,resources/DP.BMP,Door2,0.368518519,-0.025,1,0,0,0.8269,optionRight,20,10505,5,19,0,19,0,1,,,,,,,,,,,,,,,,,,,,,,,,,,,,,,,,,,,,,,,
,,,,,,,,2023-08-16_08h47.15.795,HF_wild_card,2022.2.4,Win32,60.03121623,5c73a9d92dfbdb0001b95375,64d2fd46c836a06233681665,64dc7ee762f341461303348d,,,,,,,ctch,resources/DP.BMP,resources/DG.BMP,Door3,0.425,0.05,1,0,0,1.0116,optionRight,70,10575,5,20,0,20,0,1,,,,,,,,,,,,,,,,,,,,,,,,,,,,,,,,,,,,,,,
,,,,,,,,2023-08-16_08h47.15.795,HF_wild_card,2022.2.4,Win32,60.03121623,5c73a9d92dfbdb0001b95375,64d2fd46c836a06233681665,64dc7ee762f341461303348d,,,,,,,decisionTrl,resources/DB.BMP,resources/DG.BMP,Door4,-0.287037037,0.024074074,1,0,0,1.3299,optionLeft,80,10655,5,21,0,21,0,1,,,,,,,,,,,,,,,,,,,,,,,,,,,,,,,,,,,,,,,
,,,,,,,,2023-08-16_08h47.15.795,HF_wild_card,2022.2.4,Win32,60.03121623,5c73a9d92dfbdb0001b95375,64d2fd46c836a06233681665,64dc7ee762f341461303348d,,,,,,,decisionTrl,resources/DR.BMP,resources/DP.BMP,Door1,-0.292592593,0.016666667,1,0,0,1.2613,optionLeft,30,10685,5,22,0,22,0,1,,,,,,,,,,,,,,,,,,,,,,,,,,,,,,,,,,,,,,,
,,,,,,,,2023-08-16_08h47.15.795,HF_wild_card,2022.2.4,Win32,60.03121623,5c73a9d92dfbdb0001b95375,64d2fd46c836a06233681665,64dc7ee762f341461303348d,,,,,,,decisionTrl,resources/DY.BMP,resources/DB.BMP,Door4,0.594444444,-0.044444444,1,0,0,0.9285,optionRight,60,10745,5,23,0,23,0,1,,,,,,,,,,,,,,,,,,,,,,,,,,,,,,,,,,,,,,,
,,,,,,,,2023-08-16_08h47.15.795,HF_wild_card,2022.2.4,Win32,60.03121623,5c73a9d92dfbdb0001b95375,64d2fd46c836a06233681665,64dc7ee762f341461303348d,,,,,,,ctch,resources/DR.BMP,resources/DB.BMP,Door4,0.383333333,-0.026851852,1,0,0,0.8438,optionRight,80,10825,5,24,0,24,0,1,,,,,,,,,,,,,,,,,,,,,,,,,,,,,,,,,,,,,,,
,,,,,,,,2023-08-16_08h47.15.795,HF_wild_card,2022.2.4,Win32,60.03121623,5c73a9d92dfbdb0001b95375,64d2fd46c836a06233681665,64dc7ee762f341461303348d,,,,,,,sngl,resources/DP.BMP,resources/Empty.png,Door2,-0.317592593,0.005555556,1,0,0,0.8778,optionLeft,40,10865,5,25,0,25,0,1,,,,,,,,,,,,,,,,,,,,,,,,,,,,,,,,,,,,,,,
,,,,,,,,2023-08-16_08h47.15.795,HF_wild_card,2022.2.4,Win32,60.03121623,5c73a9d92dfbdb0001b95375,64d2fd46c836a06233681665,64dc7ee762f341461303348d,,,,,,,decisionTrl,resources/DP.BMP,resources/DR.BMP,Door1,0.337037037,0.00462963,1,0,0,1.7779,optionRight,30,10895,5,26,0,26,0,1,,,,,,,,,,,,,,,,,,,,,,,,,,,,,,,,,,,,,,,
,,,,,,,,2023-08-16_08h47.15.795,HF_wild_card,2022.2.4,Win32,60.03121623,5c73a9d92dfbdb0001b95375,64d2fd46c836a06233681665,64dc7ee762f341461303348d,,,,,,,decisionTrl,resources/DY.BMP,resources/DP.BMP,WildCard_Ex,-0.298148148,0.007407407,1,0,0,1.2781,optionLeft,45,10940,5,27,0,27,0,1,,,,,,,,,,,,,,,,,,,,,,,,,,,,,,,,,,,,,,,
,,,,,,,,2023-08-16_08h47.15.795,HF_wild_card,2022.2.4,Win32,60.03121623,5c73a9d92dfbdb0001b95375,64d2fd46c836a06233681665,64dc7ee762f341461303348d,,,,,,,decisionTrl,resources/DB.BMP,resources/DG.BMP,Door4,-0.337037037,0.000925926,1,0,0,1.3278,optionLeft,80,11020,5,28,0,28,0,1,,,,,,,,,,,,,,,,,,,,,,,,,,,,,,,,,,,,,,,
,,,,,,,,2023-08-16_08h47.15.795,HF_wild_card,2022.2.4,Win32,60.03121623,5c73a9d92dfbdb0001b95375,64d2fd46c836a06233681665,64dc7ee762f341461303348d,,,,,,,decisionTrl,resources/DG.BMP,resources/DB.BMP,Door3,-0.207407407,0.092592593,1,0,0,1.9443,optionLeft,70,11090,5,29,0,29,0,1,,,,,,,,,,,,,,,,,,,,,,,,,,,,,,,,,,,,,,,
,,,,,,,,2023-08-16_08h47.15.795,HF_wild_card,2022.2.4,Win32,60.03121623,5c73a9d92dfbdb0001b95375,64d2fd46c836a06233681665,64dc7ee762f341461303348d,,,,,,,sngl,resources/Empty.png,resources/DB.BMP,Door4,0.006481481,-0.002777778,1,0,0,0.1623,optionRight,60,11150,5,30,0,30,0,1,,,,,,,,,,,,,,,,,,,,,,,,,,,,,,,,,,,,,,,
,,,,,,,,2023-08-16_08h47.15.795,HF_wild_card,2022.2.4,Win32,60.03121623,5c73a9d92dfbdb0001b95375,64d2fd46c836a06233681665,64dc7ee762f341461303348d,,,,,,,decisionTrl,resources/DB.BMP,resources/DG.BMP,Door3,0.280555556,0.018518519,1,0,0,1.9115,optionRight,70,11220,5,31,0,31,0,1,,,,,,,,,,,,,,,,,,,,,,,,,,,,,,,,,,,,,,,
,,,,,,,,2023-08-16_08h47.15.795,HF_wild_card,2022.2.4,Win32,60.03121623,5c73a9d92dfbdb0001b95375,64d2fd46c836a06233681665,64dc7ee762f341461303348d,,,,,,,decisionTrl,resources/DY.BMP,resources/DG.BMP,Door3,0.408333333,0.002777778,1,0,0,0.7775,optionRight,70,11290,5,32,0,32,0,1,,,,,,,,,,,,,,,,,,,,,,,,,,,,,,,,,,,,,,,
,,,,,,,,2023-08-16_08h47.15.795,HF_wild_card,2022.2.4,Win32,60.03121623,5c73a9d92dfbdb0001b95375,64d2fd46c836a06233681665,64dc7ee762f341461303348d,,,,,,,decisionTrl,resources/DG.BMP,resources/DB.BMP,Door3,-0.357407407,0.027777778,1,0,0,1.0286,optionLeft,70,11360,5,33,0,33,0,1,,,,,,,,,,,,,,,,,,,,,,,,,,,,,,,,,,,,,,,
,,,,,,,,2023-08-16_08h47.15.795,HF_wild_card,2022.2.4,Win32,60.03121623,5c73a9d92dfbdb0001b95375,64d2fd46c836a06233681665,64dc7ee762f341461303348d,,,,,,,sngl,resources/DB.BMP,resources/Empty.png,Door4,-0.323148148,0.018518519,1,0,0,0.8275,optionLeft,80,11440,5,34,0,34,0,1,,,,,,,,,,,,,,,,,,,,,,,,,,,,,,,,,,,,,,,
,,,,,,,,2023-08-16_08h47.15.795,HF_wild_card,2022.2.4,Win32,60.03121623,5c73a9d92dfbdb0001b95375,64d2fd46c836a06233681665,64dc7ee762f341461303348d,,,,,,,decisionTrl,resources/DB.BMP,resources/DG.BMP,Door4,-0.351851852,-0.081481481,1,0,0,0.862,optionLeft,80,11520,5,35,0,35,0,1,,,,,,,,,,,,,,,,,,,,,,,,,,,,,,,,,,,,,,,
,,,,,,,,2023-08-16_08h47.15.795,HF_wild_card,2022.2.4,Win32,60.03121623,5c73a9d92dfbdb0001b95375,64d2fd46c836a06233681665,64dc7ee762f341461303348d,,,,,,,sngl,resources/DY.BMP,resources/Empty.png,WildCard_Ex,-0.335185185,0.033333333,1,0,0,0.8276,optionLeft,55,11575,5,36,0,36,0,1,,,,,,,,,,,,,,,,,,,,,,,,,,,,,,,,,,,,,,,
,,,,,,,,2023-08-16_08h47.15.795,HF_wild_card,2022.2.4,Win32,60.03121623,5c73a9d92dfbdb0001b95375,64d2fd46c836a06233681665,64dc7ee762f341461303348d,,,,,,,ctch,resources/DB.BMP,resources/DR.BMP,Door4,-0.298148148,0.000925926,1,0,0,0.8614,optionLeft,60,11635,5,37,0,37,0,1,,,,,,,,,,,,,,,,,,,,,,,,,,,,,,,,,,,,,,,
,,,,,,,,2023-08-16_08h47.15.795,HF_wild_card,2022.2.4,Win32,60.03121623,5c73a9d92dfbdb0001b95375,64d2fd46c836a06233681665,64dc7ee762f341461303348d,,,,,,,decisionTrl,resources/DR.BMP,resources/DP.BMP,Door1,-0.267592593,0.041666667,1,0,0,1.3281,optionLeft,30,11665,5,38,0,38,0,1,,,,,,,,,,,,,,,,,,,,,,,,,,,,,,,,,,,,,,,
,,,,,,,,2023-08-16_08h47.15.795,HF_wild_card,2022.2.4,Win32,60.03121623,5c73a9d92dfbdb0001b95375,64d2fd46c836a06233681665,64dc7ee762f341461303348d,,,,,,,decisionTrl,resources/DP.BMP,resources/DY.BMP,WildCard_Ex,0.446296296,-0.011111111,1,0,0,1.0288,optionRight,45,11710,5,39,0,39,0,1,,,,,,,,,,,,,,,,,,,,,,,,,,,,,,,,,,,,,,,
,,,,,,,,2023-08-16_08h47.15.795,HF_wild_card,2022.2.4,Win32,60.03121623,5c73a9d92dfbdb0001b95375,64d2fd46c836a06233681665,64dc7ee762f341461303348d,,,,,,,sngl,resources/DG.BMP,resources/Empty.png,Door3,-0.278703704,0.012037037,1,0,0,0.778,optionLeft,70,11780,5,40,0,40,0,1,,,,,,,,,,,,,,,,,,,,,,,,,,,,,,,,,,,,,,,
,,,,,,,,2023-08-16_08h47.15.795,HF_wild_card,2022.2.4,Win32,60.03121623,5c73a9d92dfbdb0001b95375,64d2fd46c836a06233681665,64dc7ee762f341461303348d,,,,,,,decisionTrl,resources/DY.BMP,resources/DR.BMP,WildCard_Ex,-0.346296296,-0.010185185,1,0,0,1.3947,optionLeft,45,11825,5,41,0,41,0,1,,,,,,,,,,,,,,,,,,,,,,,,,,,,,,,,,,,,,,,
,,,,,,,,2023-08-16_08h47.15.795,HF_wild_card,2022.2.4,Win32,60.03121623,5c73a9d92dfbdb0001b95375,64d2fd46c836a06233681665,64dc7ee762f341461303348d,,,,,,,ctch,resources/DB.BMP,resources/DR.BMP,Door4,-0.328703704,0.009259259,1,0,0,0.8605,optionLeft,60,11885,5,42,0,42,0,1,,,,,,,,,,,,,,,,,,,,,,,,,,,,,,,,,,,,,,,
,,,,,,,,2023-08-16_08h47.15.795,HF_wild_card,2022.2.4,Win32,60.03121623,5c73a9d92dfbdb0001b95375,64d2fd46c836a06233681665,64dc7ee762f341461303348d,,,,,,,sngl,resources/DY.BMP,resources/Empty.png,WildCard_Ex,-0.323148148,0.031481481,1,0,0,0.7773,optionLeft,45,11930,5,43,0,43,0,1,,,,,,,,,,,,,,,,,,,,,,,,,,,,,,,,,,,,,,,
,,,,,,,,2023-08-16_08h47.15.795,HF_wild_card,2022.2.4,Win32,60.03121623,5c73a9d92dfbdb0001b95375,64d2fd46c836a06233681665,64dc7ee762f341461303348d,,,,,,,,,,,,,,,,,,,,,,,,,,4,0,4,0,1,,,,,,,,,,,,,,,,,,,,,,,,,,,,,,,,,,
,,,,,,,,2023-08-16_08h47.15.795,HF_wild_card,2022.2.4,Win32,60.03121623,5c73a9d92dfbdb0001b95375,64d2fd46c836a06233681665,64dc7ee762f341461303348d,,,,,,,ctch,resources/DR.BMP,resources/DB.BMP,Door4,0.425,-0.008333333,1,0,0,1.0771,optionRight,60,11990,6,0,0,0,0,1,,,,,,,,,,,,,,,,,,,,,,,,,,,,,,,,,,,,,,,
,,,,,,,,2023-08-16_08h47.15.795,HF_wild_card,2022.2.4,Win32,60.03121623,5c73a9d92dfbdb0001b95375,64d2fd46c836a06233681665,64dc7ee762f341461303348d,,,,,,,decisionTrl,resources/DB.BMP,resources/DG.BMP,Door3,0.322222222,-0.009259259,1,0,0,0.8285,optionRight,70,12060,6,1,0,1,0,1,,,,,,,,,,,,,,,,,,,,,,,,,,,,,,,,,,,,,,,
,,,,,,,,2023-08-16_08h47.15.795,HF_wild_card,2022.2.4,Win32,60.03121623,5c73a9d92dfbdb0001b95375,64d2fd46c836a06233681665,64dc7ee762f341461303348d,,,,,,,decisionTrl,resources/DY.BMP,resources/DG.BMP,Door3,0.433333333,-0.059259259,1,0,0,0.7782,optionRight,70,12130,6,2,0,2,0,1,,,,,,,,,,,,,,,,,,,,,,,,,,,,,,,,,,,,,,,
,,,,,,,,2023-08-16_08h47.15.795,HF_wild_card,2022.2.4,Win32,60.03121623,5c73a9d92dfbdb0001b95375,64d2fd46c836a06233681665,64dc7ee762f341461303348d,,,,,,,sngl,resources/DG.BMP,resources/Empty.png,Door3,-0.29537037,-0.047222222,1,0,0,1.311,optionLeft,70,12200,6,3,0,3,0,1,,,,,,,,,,,,,,,,,,,,,,,,,,,,,,,,,,,,,,,
,,,,,,,,2023-08-16_08h47.15.795,HF_wild_card,2022.2.4,Win32,60.03121623,5c73a9d92dfbdb0001b95375,64d2fd46c836a06233681665,64dc7ee762f341461303348d,,,,,,,sngl,resources/DB.BMP,resources/Empty.png,Door4,-0.360185185,0.00462963,1,0,0,0.6947,optionLeft,60,12260,6,4,0,4,0,1,,,,,,,,,,,,,,,,,,,,,,,,,,,,,,,,,,,,,,,
,,,,,,,,2023-08-16_08h47.15.795,HF_wild_card,2022.2.4,Win32,60.03121623,5c73a9d92dfbdb0001b95375,64d2fd46c836a06233681665,64dc7ee762f341461303348d,,,,,,,decisionTrl,resources/DG.BMP,resources/DY.BMP,Door3,-0.337962963,0.015740741,1,0,0,0.7929,optionLeft,70,12330,6,5,0,5,0,1,,,,,,,,,,,,,,,,,,,,,,,,,,,,,,,,,,,,,,,
,,,,,,,,2023-08-16_08h47.15.795,HF_wild_card,2022.2.4,Win32,60.03121623,5c73a9d92dfbdb0001b95375,64d2fd46c836a06233681665,64dc7ee762f341461303348d,,,,,,,decisionTrl,resources/DB.BMP,resources/DG.BMP,Door3,0.400925926,0.019444444,1,0,0,1.1103,optionRight,70,12400,6,6,0,6,0,1,,,,,,,,,,,,,,,,,,,,,,,,,,,,,,,,,,,,,,,
,,,,,,,,2023-08-16_08h47.15.795,HF_wild_card,2022.2.4,Win32,60.03121623,5c73a9d92dfbdb0001b95375,64d2fd46c836a06233681665,64dc7ee762f341461303348d,,,,,,,decisionTrl,resources/DP.BMP,resources/DY.BMP,WildCard_Ex,0.40462963,0.033333333,1,0,0,1.0287,optionRight,45,12445,6,7,0,7,0,1,,,,,,,,,,,,,,,,,,,,,,,,,,,,,,,,,,,,,,,
,,,,,,,,2023-08-16_08h47.15.795,HF_wild_card,2022.2.4,Win32,60.03121623,5c73a9d92dfbdb0001b95375,64d2fd46c836a06233681665,64dc7ee762f341461303348d,,,,,,,decisionTrl,resources/DG.BMP,resources/DB.BMP,Door3,-0.385185185,0.023148148,1,0,0,1.3444,optionLeft,70,12515,6,8,0,8,0,1,,,,,,,,,,,,,,,,,,,,,,,,,,,,,,,,,,,,,,,
,,,,,,,,2023-08-16_08h47.15.795,HF_wild_card,2022.2.4,Win32,60.03121623,5c73a9d92dfbdb0001b95375,64d2fd46c836a06233681665,64dc7ee762f341461303348d,,,,,,,sngl,resources/Empty.png,resources/DY.BMP,WildCard_Ex,0.382407407,-0.023148148,1,0,0,0.8611,optionRight,45,12560,6,9,0,9,0,1,,,,,,,,,,,,,,,,,,,,,,,,,,,,,,,,,,,,,,,
,,,,,,,,2023-08-16_08h47.15.795,HF_wild_card,2022.2.4,Win32,60.03121623,5c73a9d92dfbdb0001b95375,64d2fd46c836a06233681665,64dc7ee762f341461303348d,,,,,,,decisionTrl,resources/DR.BMP,resources/DP.BMP,Door1,-0.487962935,0.037962935,1,0,0,1.9272,optionLeft,30,12590,6,10,0,10,0,1,,,,,,,,,,,,,,,,,,,,,,,,,,,,,,,,,,,,,,,
,,,,,,,,2023-08-16_08h47.15.795,HF_wild_card,2022.2.4,Win32,60.03121623,5c73a9d92dfbdb0001b95375,64d2fd46c836a06233681665,64dc7ee762f341461303348d,,,,,,,sngl,resources/Empty.png,resources/DB.BMP,Door4,0.443518519,-0.013888889,1,0,0,0.8258,optionRight,80,12670,6,11,0,11,0,1,,,,,,,,,,,,,,,,,,,,,,,,,,,,,,,,,,,,,,,
,,,,,,,,2023-08-16_08h47.15.795,HF_wild_card,2022.2.4,Win32,60.03121623,5c73a9d92dfbdb0001b95375,64d2fd46c836a06233681665,64dc7ee762f341461303348d,,,,,,,ctch,resources/DP.BMP,resources/DG.BMP,Door3,0.416666667,0.022222222,1,0,0,1.1441,optionRight,70,12740,6,12,0,12,0,1,,,,,,,,,,,,,,,,,,,,,,,,,,,,,,,,,,,,,,,
,,,,,,,,2023-08-16_08h47.15.795,HF_wild_card,2022.2.4,Win32,60.03121623,5c73a9d92dfbdb0001b95375,64d2fd46c836a06233681665,64dc7ee762f341461303348d,,,,,,,decisionTrl,resources/DR.BMP,resources/DP.BMP,Door2,0.336111111,-0.001851852,1,0,0,1.5112,optionRight,40,12780,6,13,0,13,0,1,,,,,,,,,,,,,,,,,,,,,,,,,,,,,,,,,,,,,,,
,,,,,,,,2023-08-16_08h47.15.795,HF_wild_card,2022.2.4,Win32,60.03121623,5c73a9d92dfbdb0001b95375,64d2fd46c836a06233681665,64dc7ee762f341461303348d,,,,,,,decisionTrl,resources/DY.BMP,resources/DB.BMP,Door4,0.363888889,0.025,1,0,0,0.9248,optionRight,60,12840,6,14,0,14,0,1,,,,,,,,,,,,,,,,,,,,,,,,,,,,,,,,,,,,,,,
,,,,,,,,2023-08-16_08h47.15.795,HF_wild_card,2022.2.4,Win32,60.03121623,5c73a9d92dfbdb0001b95375,64d2fd46c836a06233681665,64dc7ee762f341461303348d,,,,,,,decisionTrl,resources/DP.BMP,resources/DR.BMP,Door1,0.361111111,-0.001851852,1,0,0,1.728,optionRight,30,12870,6,15,0,15,0,1,,,,,,,,,,,,,,,,,,,,,,,,,,,,,,,,,,,,,,,
,,,,,,,,2023-08-16_08h47.15.795,HF_wild_card,2022.2.4,Win32,60.03121623,5c73a9d92dfbdb0001b95375,64d2fd46c836a06233681665,64dc7ee762f341461303348d,,,,,,,decisionTrl,resources/DB.BMP,resources/DY.BMP,Door4,-0.253703704,-0.008333333,1,0,0,1.1111,optionLeft,80,12950,6,16,0,16,0,1,,,,,,,,,,,,,,,,,,,,,,,,,,,,,,,,,,,,,,,
,,,,,,,,2023-08-16_08h47.15.795,HF_wild_card,2022.2.4,Win32,60.03121623,5c73a9d92dfbdb0001b95375,64d2fd46c836a06233681665,64dc7ee762f341461303348d,,,,,,,decisionTrl,resources/DP.BMP,resources/DR.BMP,Door2,-0.298148148,-0.008333333,1,0,0,2.2267,optionLeft,20,12970,6,17,0,17,0,1,,,,,,,,,,,,,,,,,,,,,,,,,,,,,,,,,,,,,,,
,,,,,,,,2023-08-16_08h47.15.795,HF_wild_card,2022.2.4,Win32,60.03121623,5c73a9d92dfbdb0001b95375,64d2fd46c836a06233681665,64dc7ee762f341461303348d,,,,,,,decisionTrl,resources/DP.BMP,resources/DR.BMP,Door1,0.4,-0.030555556,1,0,0,1.0779,optionRight,30,13000,6,18,0,18,0,1,,,,,,,,,,,,,,,,,,,,,,,,,,,,,,,,,,,,,,,
,,,,,,,,2023-08-16_08h47.15.795,HF_wild_card,2022.2.4,Win32,60.03121623,5c73a9d92dfbdb0001b95375,64d2fd46c836a06233681665,64dc7ee762f341461303348d,,,,,,,decisionTrl,resources/DR.BMP,resources/DY.BMP,WildCard_Ex,0.362962963,-0.031481481,1,0,0,1.5941,optionRight,55,13055,6,19,0,19,0,1,,,,,,,,,,,,,,,,,,,,,,,,,,,,,,,,,,,,,,,
,,,,,,,,2023-08-16_08h47.15.795,HF_wild_card,2022.2.4,Win32,60.03121623,5c73a9d92dfbdb0001b95375,64d2fd46c836a06233681665,64dc7ee762f341461303348d,,,,,,,ctch,resources/DG.BMP,resources/DP.BMP,Door3,-0.303703704,0.00462963,1,0,0,1.4278,optionLeft,70,13125,6,20,0,20,0,1,,,,,,,,,,,,,,,,,,,,,,,,,,,,,,,,,,,,,,,
,,,,,,,,2023-08-16_08h47.15.795,HF_wild_card,2022.2.4,Win32,60.03121623,5c73a9d92dfbdb0001b95375,64d2fd46c836a06233681665,64dc7ee762f341461303348d,,,,,,,sngl,resources/Empty.png,resources/DG.BMP,Door3,0.427777778,0.002777778,1,0,0,0.928,optionRight,70,13195,6,21,0,21,0,1,,,,,,,,,,,,,,,,,,,,,,,,,,,,,,,,,,,,,,,
,,,,,,,,2023-08-16_08h47.15.795,HF_wild_card,2022.2.4,Win32,60.03121623,5c73a9d92dfbdb0001b95375,64d2fd46c836a06233681665,64dc7ee762f341461303348d,,,,,,,decisionTrl,resources/DG.BMP,resources/DB.BMP,Door3,-0.22962963,0.016666667,1,0,0,1.4435,optionLeft,70,13265,6,22,0,22,0,1,,,,,,,,,,,,,,,,,,,,,,,,,,,,,,,,,,,,,,,
,,,,,,,,2023-08-16_08h47.15.795,HF_wild_card,2022.2.4,Win32,60.03121623,5c73a9d92dfbdb0001b95375,64d2fd46c836a06233681665,64dc7ee762f341461303348d,,,,,,,sngl,resources/Empty.png,resources/DY.BMP,WildCard_Ex,0.385185185,-0.003703704,1,0,0,0.9435,optionRight,55,13320,6,23,0,23,0,1,,,,,,,,,,,,,,,,,,,,,,,,,,,,,,,,,,,,,,,
,,,,,,,,2023-08-16_08h47.15.795,HF_wild_card,2022.2.4,Win32,60.03121623,5c73a9d92dfbdb0001b95375,64d2fd46c836a06233681665,64dc7ee762f341461303348d,,,,,,,decisionTrl,resources/DY.BMP,resources/DP.BMP,WildCard_Ex,-0.282407407,-0.005555556,1,0,0,1.1947,optionLeft,55,13375,6,24,0,24,0,1,,,,,,,,,,,,,,,,,,,,,,,,,,,,,,,,,,,,,,,
,,,,,,,,2023-08-16_08h47.15.795,HF_wild_card,2022.2.4,Win32,60.03121623,5c73a9d92dfbdb0001b95375,64d2fd46c836a06233681665,64dc7ee762f341461303348d,,,,,,,ctch,resources/DB.BMP,resources/DR.BMP,Door4,-0.290740741,-0.038888889,1,0,0,0.9448,optionLeft,60,13435,6,25,0,25,0,1,,,,,,,,,,,,,,,,,,,,,,,,,,,,,,,,,,,,,,,
,,,,,,,,2023-08-16_08h47.15.795,HF_wild_card,2022.2.4,Win32,60.03121623,5c73a9d92dfbdb0001b95375,64d2fd46c836a06233681665,64dc7ee762f341461303348d,,,,,,,sngl,resources/DR.BMP,resources/Empty.png,Door1,-0.301851852,-0.012037037,1,0,0,0.8613,optionLeft,30,13465,6,26,0,26,0,1,,,,,,,,,,,,,,,,,,,,,,,,,,,,,,,,,,,,,,,
,,,,,,,,2023-08-16_08h47.15.795,HF_wild_card,2022.2.4,Win32,60.03121623,5c73a9d92dfbdb0001b95375,64d2fd46c836a06233681665,64dc7ee762f341461303348d,,,,,,,ctch,resources/DP.BMP,resources/DG.BMP,Door3,0.519444444,-0.044444444,1,0,0,0.9455,optionRight,70,13535,6,27,0,27,0,1,,,,,,,,,,,,,,,,,,,,,,,,,,,,,,,,,,,,,,,
,,,,,,,,2023-08-16_08h47.15.795,HF_wild_card,2022.2.4,Win32,60.03121623,5c73a9d92dfbdb0001b95375,64d2fd46c836a06233681665,64dc7ee762f341461303348d,,,,,,,sngl,resources/DP.BMP,resources/Empty.png,Door2,-0.300925926,0,1,0,0,0.9617,optionLeft,20,13555,6,28,0,28,0,1,,,,,,,,,,,,,,,,,,,,,,,,,,,,,,,,,,,,,,,
,,,,,,,,2023-08-16_08h47.15.795,HF_wild_card,2022.2.4,Win32,60.03121623,5c73a9d92dfbdb0001b95375,64d2fd46c836a06233681665,64dc7ee762f341461303348d,,,,,,,ctch,resources/DG.BMP,resources/DP.BMP,Door3,-0.309259259,-0.005555556,1,0,0,1.1447,optionLeft,70,13625,6,29,0,29,0,1,,,,,,,,,,,,,,,,,,,,,,,,,,,,,,,,,,,,,,,
,,,,,,,,2023-08-16_08h47.15.795,HF_wild_card,2022.2.4,Win32,60.03121623,5c73a9d92dfbdb0001b95375,64d2fd46c836a06233681665,64dc7ee762f341461303348d,,,,,,,sngl,resources/Empty.png,resources/DP.BMP,Door2,0.335185185,-0.006481481,1,0,0,1.0109,optionRight,40,13665,6,30,0,30,0,1,,,,,,,,,,,,,,,,,,,,,,,,,,,,,,,,,,,,,,,
,,,,,,,,2023-08-16_08h47.15.795,HF_wild_card,2022.2.4,Win32,60.03121623,5c73a9d92dfbdb0001b95375,64d2fd46c836a06233681665,64dc7ee762f341461303348d,,,,,,,decisionTrl,resources/DY.BMP,resources/DR.BMP,WildCard_Ex,-0.293518519,0.001851852,1,0,0,1.3615,optionLeft,45,13710,6,31,0,31,0,1,,,,,,,,,,,,,,,,,,,,,,,,,,,,,,,,,,,,,,,
,,,,,,,,2023-08-16_08h47.15.795,HF_wild_card,2022.2.4,Win32,60.03121623,5c73a9d92dfbdb0001b95375,64d2fd46c836a06233681665,64dc7ee762f341461303348d,,,,,,,sngl,resources/Empty.png,resources/DR.BMP,Door1,0.377777778,-0.037037037,1,0,0,0.9116,optionRight,30,13740,6,32,0,32,0,1,,,,,,,,,,,,,,,,,,,,,,,,,,,,,,,,,,,,,,,
,,,,,,,,2023-08-16_08h47.15.795,HF_wild_card,2022.2.4,Win32,60.03121623,5c73a9d92dfbdb0001b95375,64d2fd46c836a06233681665,64dc7ee762f341461303348d,,,,,,,ctch,resources/DB.BMP,resources/DR.BMP,Door4,-0.371296296,0.015740741,1,0,0,1.4781,optionLeft,60,13800,6,33,0,33,0,1,,,,,,,,,,,,,,,,,,,,,,,,,,,,,,,,,,,,,,,
,,,,,,,,2023-08-16_08h47.15.795,HF_wild_card,2022.2.4,Win32,60.03121623,5c73a9d92dfbdb0001b95375,64d2fd46c836a06233681665,64dc7ee762f341461303348d,,,,,,,decisionTrl,resources/DG.BMP,resources/DB.BMP,Door4,0.452777778,-0.052777778,1,0,0,1.4088,optionRight,60,13860,6,34,0,34,0,1,,,,,,,,,,,,,,,,,,,,,,,,,,,,,,,,,,,,,,,
,,,,,,,,2023-08-16_08h47.15.795,HF_wild_card,2022.2.4,Win32,60.03121623,5c73a9d92dfbdb0001b95375,64d2fd46c836a06233681665,64dc7ee762f341461303348d,,,,,,,ctch,resources/DR.BMP,resources/DB.BMP,Door4,0.388888889,0.010185185,1,0,0,0.928,optionRight,60,13920,6,35,0,35,0,1,,,,,,,,,,,,,,,,,,,,,,,,,,,,,,,,,,,,,,,
,,,,,,,,2023-08-16_08h47.15.795,HF_wild_card,2022.2.4,Win32,60.03121623,5c73a9d92dfbdb0001b95375,64d2fd46c836a06233681665,64dc7ee762f341461303348d,,,,,,,decisionTrl,resources/DP.BMP,resources/DR.BMP,Door1,0.357407407,0.001851852,1,0,0,2.1106,optionRight,30,13950,6,36,0,36,0,1,,,,,,,,,,,,,,,,,,,,,,,,,,,,,,,,,,,,,,,
,,,,,,,,2023-08-16_08h47.15.795,HF_wild_card,2022.2.4,Win32,60.03121623,5c73a9d92dfbdb0001b95375,64d2fd46c836a06233681665,64dc7ee762f341461303348d,,,,,,,decisionTrl,resources/DR.BMP,resources/DP.BMP,Door1,-0.29537037,-0.025925926,1,0,0,1.9774,optionLeft,30,13980,6,37,0,37,0,1,,,,,,,,,,,,,,,,,,,,,,,,,,,,,,,,,,,,,,,
,,,,,,,,2023-08-16_08h47.15.795,HF_wild_card,2022.2.4,Win32,60.03121623,5c73a9d92dfbdb0001b95375,64d2fd46c836a06233681665,64dc7ee762f341461303348d,,,,,,,decisionTrl,resources/DB.BMP,resources/DG.BMP,Door3,0.35,-0.025925926,1,0,0,0.9939,optionRight,70,14050,6,38,0,38,0,1,,,,,,,,,,,,,,,,,,,,,,,,,,,,,,,,,,,,,,,
,,,,,,,,2023-08-16_08h47.15.795,HF_wild_card,2022.2.4,Win32,60.03121623,5c73a9d92dfbdb0001b95375,64d2fd46c836a06233681665,64dc7ee762f341461303348d,,,,,,,decisionTrl,resources/DR.BMP,resources/DP.BMP,Door1,-0.276851852,0.002777778,1,0,0,1.8939,optionLeft,30,14080,6,39,0,39,0,1,,,,,,,,,,,,,,,,,,,,,,,,,,,,,,,,,,,,,,,
,,,,,,,,2023-08-16_08h47.15.795,HF_wild_card,2022.2.4,Win32,60.03121623,5c73a9d92dfbdb0001b95375,64d2fd46c836a06233681665,64dc7ee762f341461303348d,,,,,,,sngl,resources/DY.BMP,resources/Empty.png,WildCard_Ex,-0.278703704,-0.025925926,1,0,0,0.8097,optionLeft,45,14125,6,40,0,40,0,1,,,,,,,,,,,,,,,,,,,,,,,,,,,,,,,,,,,,,,,
,,,,,,,,2023-08-16_08h47.15.795,HF_wild_card,2022.2.4,Win32,60.03121623,5c73a9d92dfbdb0001b95375,64d2fd46c836a06233681665,64dc7ee762f341461303348d,,,,,,,decisionTrl,resources/DB.BMP,resources/DG.BMP,Door4,-0.225925926,0.041666667,1,0,0,2.843,optionLeft,60,14185,6,41,0,41,0,1,,,,,,,,,,,,,,,,,,,,,,,,,,,,,,,,,,,,,,,
,,,,,,,,2023-08-16_08h47.15.795,HF_wild_card,2022.2.4,Win32,60.03121623,5c73a9d92dfbdb0001b95375,64d2fd46c836a06233681665,64dc7ee762f341461303348d,,,,,,,sngl,resources/DY.BMP,resources/Empty.png,WildCard_Ex,-0.328703704,0.005555556,1,0,0,0.9107,optionLeft,55,14240,6,42,0,42,0,1,,,,,,,,,,,,,,,,,,,,,,,,,,,,,,,,,,,,,,,
,,,,,,,,2023-08-16_08h47.15.795,HF_wild_card,2022.2.4,Win32,60.03121623,5c73a9d92dfbdb0001b95375,64d2fd46c836a06233681665,64dc7ee762f341461303348d,,,,,,,decisionTrl,resources/DG.BMP,resources/DB.BMP,Door3,-0.328703704,-0.006481481,1,0,0,1.0113,optionLeft,70,14310,6,43,0,43,0,1,,,,,,,,,,,,,,,,,,,,,,,,,,,,,,,,,,,,,,,
,,,,,,,,2023-08-16_08h47.15.795,HF_wild_card,2022.2.4,Win32,60.03121623,5c73a9d92dfbdb0001b95375,64d2fd46c836a06233681665,64dc7ee762f341461303348d,,,,,,,,,,,,,,,,,,,,,,,,,,5,0,5,0,1,,,,,,,,,,,,,,,,,,,,,,,,,,,,,,,,,,
,,,,,,,,2023-08-16_08h47.15.795,HF_wild_card,2022.2.4,Win32,60.03121623,5c73a9d92dfbdb0001b95375,64d2fd46c836a06233681665,64dc7ee762f341461303348d,,,,,,,decisionTrl,resources/DG.BMP,resources/DB.BMP,Door3,-0.32962963,-0.007407407,1,0,0,1.9567,optionLeft,70,14380,7,0,0,0,0,1,,,,,,,,,,,,,,,,,,,,,,,,,,,,,,,,,,,,,,,
,,,,,,,,2023-08-16_08h47.15.795,HF_wild_card,2022.2.4,Win32,60.03121623,5c73a9d92dfbdb0001b95375,64d2fd46c836a06233681665,64dc7ee762f341461303348d,,,,,,,decisionTrl,resources/DR.BMP,resources/DP.BMP,Door1,-0.337962963,0.036111111,1,0,0,2.8778,optionLeft,30,14410,7,1,0,1,0,1,,,,,,,,,,,,,,,,,,,,,,,,,,,,,,,,,,,,,,,
,,,,,,,,2023-08-16_08h47.15.795,HF_wild_card,2022.2.4,Win32,60.03121623,5c73a9d92dfbdb0001b95375,64d2fd46c836a06233681665,64dc7ee762f341461303348d,,,,,,,decisionTrl,resources/DP.BMP,resources/DR.BMP,Door1,0.57962963,-0.022222222,1,0,0,1.3283,optionRight,30,14440,7,2,0,2,0,1,,,,,,,,,,,,,,,,,,,,,,,,,,,,,,,,,,,,,,,
,,,,,,,,2023-08-16_08h47.15.795,HF_wild_card,2022.2.4,Win32,60.03121623,5c73a9d92dfbdb0001b95375,64d2fd46c836a06233681665,64dc7ee762f341461303348d,,,,,,,ctch,resources/DP.BMP,resources/DG.BMP,Door3,0.340740741,0.002777778,1,0,0,1.4622,optionRight,70,14510,7,3,0,3,0,1,,,,,,,,,,,,,,,,,,,,,,,,,,,,,,,,,,,,,,,
,,,,,,,,2023-08-16_08h47.15.795,HF_wild_card,2022.2.4,Win32,60.03121623,5c73a9d92dfbdb0001b95375,64d2fd46c836a06233681665,64dc7ee762f341461303348d,,,,,,,decisionTrl,resources/DP.BMP,resources/DR.BMP,Door1,0.410185185,-0.025,1,0,0,1.1773,optionRight,30,14540,7,4,0,4,0,1,,,,,,,,,,,,,,,,,,,,,,,,,,,,,,,,,,,,,,,
,,,,,,,,2023-08-16_08h47.15.795,HF_wild_card,2022.2.4,Win32,60.03121623,5c73a9d92dfbdb0001b95375,64d2fd46c836a06233681665,64dc7ee762f341461303348d,,,,,,,decisionTrl,resources/DG.BMP,resources/DB.BMP,Door3,-0.32037037,0.039814815,1,0,0,1.2115,optionLeft,70,14610,7,5,0,5,0,1,,,,,,,,,,,,,,,,,,,,,,,,,,,,,,,,,,,,,,,
,,,,,,,,2023-08-16_08h47.15.795,HF_wild_card,2022.2.4,Win32,60.03121623,5c73a9d92dfbdb0001b95375,64d2fd46c836a06233681665,64dc7ee762f341461303348d,,,,,,,ctch,resources/DP.BMP,resources/DG.BMP,Door3,0.460185185,-0.036111111,1,0,0,0.979,optionRight,70,14680,7,6,0,6,0,1,,,,,,,,,,,,,,,,,,,,,,,,,,,,,,,,,,,,,,,
,,,,,,,,2023-08-16_08h47.15.795,HF_wild_card,2022.2.4,Win32,60.03121623,5c73a9d92dfbdb0001b95375,64d2fd46c836a06233681665,64dc7ee762f341461303348d,,,,,,,decisionTrl,resources/DB.BMP,resources/DG.BMP,Door3,0.368518519,-0.027777778,1,0,0,1.0626,optionRight,70,14750,7,7,0,7,0,1,,,,,,,,,,,,,,,,,,,,,,,,,,,,,,,,,,,,,,,
,,,,,,,,2023-08-16_08h47.15.795,HF_wild_card,2022.2.4,Win32,60.03121623,5c73a9d92dfbdb0001b95375,64d2fd46c836a06233681665,64dc7ee762f341461303348d,,,,,,,ctch,resources/DB.BMP,resources/DR.BMP,Door4,-0.431481481,0.019444444,1,0,0,0.8613,optionLeft,60,14810,7,8,0,8,0,1,,,,,,,,,,,,,,,,,,,,,,,,,,,,,,,,,,,,,,,
,,,,,,,,2023-08-16_08h47.15.795,HF_wild_card,2022.2.4,Win32,60.03121623,5c73a9d92dfbdb0001b95375,64d2fd46c836a06233681665,64dc7ee762f341461303348d,,,,,,,ctch,resources/DR.BMP,resources/DB.BMP,Door4,0.433333333,-0.025,1,0,0,0.8449,optionRight,80,14890,7,9,0,9,0,1,,,,,,,,,,,,,,,,,,,,,,,,,,,,,,,,,,,,,,,
,,,,,,,,2023-08-16_08h47.15.795,HF_wild_card,2022.2.4,Win32,60.03121623,5c73a9d92dfbdb0001b95375,64d2fd46c836a06233681665,64dc7ee762f341461303348d,,,,,,,ctch,resources/DB.BMP,resources/DR.BMP,Door4,-0.318518519,-0.005555556,1,0,0,0.8444,optionLeft,60,14950,7,10,0,10,0,1,,,,,,,,,,,,,,,,,,,,,,,,,,,,,,,,,,,,,,,
,,,,,,,,2023-08-16_08h47.15.795,HF_wild_card,2022.2.4,Win32,60.03121623,5c73a9d92dfbdb0001b95375,64d2fd46c836a06233681665,64dc7ee762f341461303348d,,,,,,,decisionTrl,resources/DG.BMP,resources/DB.BMP,Door3,-0.4,-0.019444444,1,0,0,0.8778,optionLeft,70,15020,7,11,0,11,0,1,,,,,,,,,,,,,,,,,,,,,,,,,,,,,,,,,,,,,,,
,,,,,,,,2023-08-16_08h47.15.795,HF_wild_card,2022.2.4,Win32,60.03121623,5c73a9d92dfbdb0001b95375,64d2fd46c836a06233681665,64dc7ee762f341461303348d,,,,,,,decisionTrl,resources/DB.BMP,resources/DG.BMP,Door3,0.451851852,0.031481481,1,0,0,0.8115,optionRight,70,15090,7,12,0,12,0,1,,,,,,,,,,,,,,,,,,,,,,,,,,,,,,,,,,,,,,,
,,,,,,,,2023-08-16_08h47.15.795,HF_wild_card,2022.2.4,Win32,60.03121623,5c73a9d92dfbdb0001b95375,64d2fd46c836a06233681665,64dc7ee762f341461303348d,,,,,,,decisionTrl,resources/DG.BMP,resources/DB.BMP,Door3,-0.37962963,0.010185185,1,0,0,0.7781,optionLeft,70,15160,7,13,0,13,0,1,,,,,,,,,,,,,,,,,,,,,,,,,,,,,,,,,,,,,,,
,,,,,,,,2023-08-16_08h47.15.795,HF_wild_card,2022.2.4,Win32,60.03121623,5c73a9d92dfbdb0001b95375,64d2fd46c836a06233681665,64dc7ee762f341461303348d,,,,,,,decisionTrl,resources/DR.BMP,resources/DP.BMP,Door1,-0.287962963,-0.02037037,1,0,0,1.2785,optionLeft,30,15190,7,14,0,14,0,1,,,,,,,,,,,,,,,,,,,,,,,,,,,,,,,,,,,,,,,
,,,,,,,,2023-08-16_08h47.15.795,HF_wild_card,2022.2.4,Win32,60.03121623,5c73a9d92dfbdb0001b95375,64d2fd46c836a06233681665,64dc7ee762f341461303348d,,,,,,,ctch,resources/DG.BMP,resources/DP.BMP,Door3,-0.348148148,0.002777778,1,0,0,1.9278,optionLeft,70,15260,7,15,0,15,0,1,,,,,,,,,,,,,,,,,,,,,,,,,,,,,,,,,,,,,,,
,,,,,,,,2023-08-16_08h47.15.795,HF_wild_card,2022.2.4,Win32,60.03121623,5c73a9d92dfbdb0001b95375,64d2fd46c836a06233681665,64dc7ee762f341461303348d,,,,,,,ctch,resources/DR.BMP,resources/DB.BMP,Door4,0.476851852,-0.022222222,1,0,0,0.8112,optionRight,80,15340,7,16,0,16,0,1,,,,,,,,,,,,,,,,,,,,,,,,,,,,,,,,,,,,,,,
,,,,,,,,2023-08-16_08h47.15.795,HF_wild_card,2022.2.4,Win32,60.03121623,5c73a9d92dfbdb0001b95375,64d2fd46c836a06233681665,64dc7ee762f341461303348d,,,,,,,decisionTrl,resources/DP.BMP,resources/DR.BMP,Door1,0.365740741,0.016666667,1,0,0,1.7947,optionRight,30,15370,7,17,0,17,0,1,,,,,,,,,,,,,,,,,,,,,,,,,,,,,,,,,,,,,,,
,,,,,,,,2023-08-16_08h47.15.795,HF_wild_card,2022.2.4,Win32,60.03121623,5c73a9d92dfbdb0001b95375,64d2fd46c836a06233681665,64dc7ee762f341461303348d,,,,,,,decisionTrl,resources/DP.BMP,resources/DR.BMP,Door1,0.502777778,0.038888889,1,0,0,1.4129,optionRight,30,15400,7,18,0,18,0,1,,,,,,,,,,,,,,,,,,,,,,,,,,,,,,,,,,,,,,,
,,,,,,,,2023-08-16_08h47.15.795,HF_wild_card,2022.2.4,Win32,60.03121623,5c73a9d92dfbdb0001b95375,64d2fd46c836a06233681665,64dc7ee762f341461303348d,,,,,,,decisionTrl,resources/DB.BMP,resources/DG.BMP,Door3,0.396296296,0.056481481,1,0,0,0.9782,optionRight,70,15470,7,19,0,19,0,1,,,,,,,,,,,,,,,,,,,,,,,,,,,,,,,,,,,,,,,
,,,,,,,,2023-08-16_08h47.15.795,HF_wild_card,2022.2.4,Win32,60.03121623,5c73a9d92dfbdb0001b95375,64d2fd46c836a06233681665,64dc7ee762f341461303348d,,,,,,,ctch,resources/DB.BMP,resources/DR.BMP,Door4,-0.397222222,-0.019444444,1,0,0,0.829,optionLeft,60,15530,7,20,0,20,0,1,,,,,,,,,,,,,,,,,,,,,,,,,,,,,,,,,,,,,,,
,,,,,,,,2023-08-16_08h47.15.795,HF_wild_card,2022.2.4,Win32,60.03121623,5c73a9d92dfbdb0001b95375,64d2fd46c836a06233681665,64dc7ee762f341461303348d,,,,,,,decisionTrl,resources/DR.BMP,resources/DP.BMP,Door1,-0.262962963,0,1,0,0,1.1779,optionLeft,30,15560,7,21,0,21,0,1,,,,,,,,,,,,,,,,,,,,,,,,,,,,,,,,,,,,,,,
,,,,,,,,2023-08-16_08h47.15.795,HF_wild_card,2022.2.4,Win32,60.03121623,5c73a9d92dfbdb0001b95375,64d2fd46c836a06233681665,64dc7ee762f341461303348d,,,,,,,ctch,resources/DP.BMP,resources/DG.BMP,Door3,0.483333333,0.011111111,1,0,0,0.8443,optionRight,70,15630,7,22,0,22,0,1,,,,,,,,,,,,,,,,,,,,,,,,,,,,,,,,,,,,,,,
,,,,,,,,2023-08-16_08h47.15.795,HF_wild_card,2022.2.4,Win32,60.03121623,5c73a9d92dfbdb0001b95375,64d2fd46c836a06233681665,64dc7ee762f341461303348d,,,,,,,ctch,resources/DG.BMP,resources/DP.BMP,Door3,-0.342592593,-0.006481481,1,0,0,0.9291,optionLeft,70,15700,7,23,0,23,0,1,,,,,,,,,,,,,,,,,,,,,,,,,,,,,,,,,,,,,,,
,,,,,,,,2023-08-16_08h47.15.795,HF_wild_card,2022.2.4,Win32,60.03121623,5c73a9d92dfbdb0001b95375,64d2fd46c836a06233681665,64dc7ee762f341461303348d,,,,,,,ctch,resources/DG.BMP,resources/DP.BMP,Door3,-0.335185185,-0.037037037,1,0,0,0.8114,optionLeft,70,15770,7,24,0,24,0,1,,,,,,,,,,,,,,,,,,,,,,,,,,,,,,,,,,,,,,,
,,,,,,,,2023-08-16_08h47.15.795,HF_wild_card,2022.2.4,Win32,60.03121623,5c73a9d92dfbdb0001b95375,64d2fd46c836a06233681665,64dc7ee762f341461303348d,,,,,,,decisionTrl,resources/DR.BMP,resources/DP.BMP,Door1,-0.338888889,-0.041666667,1,0,0,1.8425,optionLeft,30,15800,7,25,0,25,0,1,,,,,,,,,,,,,,,,,,,,,,,,,,,,,,,,,,,,,,,
,,,,,,,,2023-08-16_08h47.15.795,HF_wild_card,2022.2.4,Win32,60.03121623,5c73a9d92dfbdb0001b95375,64d2fd46c836a06233681665,64dc7ee762f341461303348d,,,,,,,decisionTrl,resources/DB.BMP,resources/DG.BMP,Door3,0.374074074,-0.008333333,1,0,0,0.9283,optionRight,70,15870,7,26,0,26,0,1,,,,,,,,,,,,,,,,,,,,,,,,,,,,,,,,,,,,,,,
,,,,,,,,2023-08-16_08h47.15.795,HF_wild_card,2022.2.4,Win32,60.03121623,5c73a9d92dfbdb0001b95375,64d2fd46c836a06233681665,64dc7ee762f341461303348d,,,,,,,ctch,resources/DR.BMP,resources/DB.BMP,Door4,0.349074074,-0.006481481,1,0,0,0.7953,optionRight,60,15930,7,27,0,27,0,1,,,,,,,,,,,,,,,,,,,,,,,,,,,,,,,,,,,,,,,
,,,,,,,,2023-08-16_08h47.15.795,HF_wild_card,2022.2.4,Win32,60.03121623,5c73a9d92dfbdb0001b95375,64d2fd46c836a06233681665,64dc7ee762f341461303348d,,,,,,,decisionTrl,resources/DG.BMP,resources/DB.BMP,Door3,-0.257407407,0.04351849,1,0,0,1.6291,optionLeft,70,16000,7,28,0,28,0,1,,,,,,,,,,,,,,,,,,,,,,,,,,,,,,,,,,,,,,,
,,,,,,,,2023-08-16_08h47.15.795,HF_wild_card,2022.2.4,Win32,60.03121623,5c73a9d92dfbdb0001b95375,64d2fd46c836a06233681665,64dc7ee762f341461303348d,,,,,,,decisionTrl,resources/DB.BMP,resources/DG.BMP,Door3,0.537962963,0.007407407,1,0,0,1.2954,optionRight,70,16070,7,29,0,29,0,1,,,,,,,,,,,,,,,,,,,,,,,,,,,,,,,,,,,,,,,
,,,,,,,,2023-08-16_08h47.15.795,HF_wild_card,2022.2.4,Win32,60.03121623,5c73a9d92dfbdb0001b95375,64d2fd46c836a06233681665,64dc7ee762f341461303348d,,,,,,,decisionTrl,resources/DB.BMP,resources/DG.BMP,Door3,0.432407407,-0.011111111,1,0,0,0.7462,optionRight,70,16140,7,30,0,30,0,1,,,,,,,,,,,,,,,,,,,,,,,,,,,,,,,,,,,,,,,
,,,,,,,,2023-08-16_08h47.15.795,HF_wild_card,2022.2.4,Win32,60.03121623,5c73a9d92dfbdb0001b95375,64d2fd46c836a06233681665,64dc7ee762f341461303348d,,,,,,,decisionTrl,resources/DG.BMP,resources/DB.BMP,Door3,-0.365740741,-0.048148148,1,0,0,0.8786,optionLeft,70,16210,7,31,0,31,0,1,,,,,,,,,,,,,,,,,,,,,,,,,,,,,,,,,,,,,,,
,,,,,,,,2023-08-16_08h47.15.795,HF_wild_card,2022.2.4,Win32,60.03121623,5c73a9d92dfbdb0001b95375,64d2fd46c836a06233681665,64dc7ee762f341461303348d,,,,,,,decisionTrl,resources/DP.BMP,resources/DR.BMP,Door1,0.387962963,-0.022222222,1,0,0,1.1621,optionRight,30,16240,7,32,0,32,0,1,,,,,,,,,,,,,,,,,,,,,,,,,,,,,,,,,,,,,,,
,,,,,,,,2023-08-16_08h47.15.795,HF_wild_card,2022.2.4,Win32,60.03121623,5c73a9d92dfbdb0001b95375,64d2fd46c836a06233681665,64dc7ee762f341461303348d,,,,,,,decisionTrl,resources/DR.BMP,resources/DP.BMP,Door1,-0.387962963,-0.02037037,1,0,0,0.9622,optionLeft,30,16270,7,33,0,33,0,1,,,,,,,,,,,,,,,,,,,,,,,,,,,,,,,,,,,,,,,
,,,,,,,,2023-08-16_08h47.15.795,HF_wild_card,2022.2.4,Win32,60.03121623,5c73a9d92dfbdb0001b95375,64d2fd46c836a06233681665,64dc7ee762f341461303348d,,,,,,,decisionTrl,resources/DP.BMP,resources/DR.BMP,Door1,0.305555556,0.02037037,1,0,0,1.3449,optionRight,30,16300,7,34,0,34,0,1,,,,,,,,,,,,,,,,,,,,,,,,,,,,,,,,,,,,,,,
,,,,,,,,2023-08-16_08h47.15.795,HF_wild_card,2022.2.4,Win32,60.03121623,5c73a9d92dfbdb0001b95375,64d2fd46c836a06233681665,64dc7ee762f341461303348d,,,,,,,decisionTrl,resources/DR.BMP,resources/DP.BMP,Door1,-0.406481481,-0.027777778,1,0,0,1.2293,optionLeft,30,16330,7,35,0,35,0,1,,,,,,,,,,,,,,,,,,,,,,,,,,,,,,,,,,,,,,,
,,,,,,,,2023-08-16_08h47.15.795,HF_wild_card,2022.2.4,Win32,60.03121623,5c73a9d92dfbdb0001b95375,64d2fd46c836a06233681665,64dc7ee762f341461303348d,,,,,,,,,,,,,,,,,,,,,,,,,,6,0,6,0,1,,,,,,,,,,,,,,,,,,,,,,,,,,,,,,,,,,
,,,,,,,,2023-08-16_08h47.15.795,HF_wild_card,2022.2.4,Win32,60.03121623,5c73a9d92dfbdb0001b95375,64d2fd46c836a06233681665,64dc7ee762f341461303348d,,,,,,,,,,,,,,,,,,,,,,,,,,,,,,,4,,,,,,,,,,,,,,,,,,,,,,,,,,,,,,,,,
,,,,,,,,2023-08-16_08h47.15.795,HF_wild_card,2022.2.4,Win32,60.03121623,5c73a9d92dfbdb0001b95375,64d2fd46c836a06233681665,64dc7ee762f341461303348d,,,,,,,,,,,,,,,,,,,,,,,,,,,,,,,,,,,,,,,,,,,,,,,,,,,,,,,,,,,,,,,,
,,,,,,,,2023-08-16_08h47.15.795,HF_wild_card,2022.2.4,Win32,60.03121623,5c73a9d92dfbdb0001b95375,64d2fd46c836a06233681665,64dc7ee762f341461303348d,,,,,,,,,,,,,,,,,,,,,,,,,,,,,,,,70,Door3,resources/DG.BMP,0,0,0,0,1,,,,,,,,,,,,,,,,,,,,,,,,,
,,,,,,,,2023-08-16_08h47.15.795,HF_wild_card,2022.2.4,Win32,60.03121623,5c73a9d92dfbdb0001b95375,64d2fd46c836a06233681665,64dc7ee762f341461303348d,,,,,,,,,,,,,,,,,,,,,,,,,,,,,,,,55,WC_nonExtreme,resources/DBN.BMP,1,0,1,0,1,,,,,,,,,,,,,,,,,,,,,,,,,
,,,,,,,,2023-08-16_08h47.15.795,HF_wild_card,2022.2.4,Win32,60.03121623,5c73a9d92dfbdb0001b95375,64d2fd46c836a06233681665,64dc7ee762f341461303348d,,,,,,,,,,,,,,,,,,,,,,,,,,,,,,,,20,Door1,resources/DR.BMP,2,0,2,0,1,,,,,,,,,,,,,,,,,,,,,,,,,
,,,,,,,,2023-08-16_08h47.15.795,HF_wild_card,2022.2.4,Win32,60.03121623,5c73a9d92dfbdb0001b95375,64d2fd46c836a06233681665,64dc7ee762f341461303348d,,,,,,,,,,,,,,,,,,,,,,,,,,,,,,,,45,WC_extreme,resources/DY.BMP,3,0,3,0,1,,,,,,,,,,,,,,,,,,,,,,,,,
,,,,,,,,2023-08-16_08h47.15.795,HF_wild_card,2022.2.4,Win32,60.03121623,5c73a9d92dfbdb0001b95375,64d2fd46c836a06233681665,64dc7ee762f341461303348d,,,,,,,,,,,,,,,,,,,,,,,,,,,,,,,,20,Door2,resources/DP.BMP,4,0,4,0,1,,,,,,,,,,,,,,,,,,,,,,,,,
,,,,,,,,2023-08-16_08h47.15.795,HF_wild_card,2022.2.4,Win32,60.03121623,5c73a9d92dfbdb0001b95375,64d2fd46c836a06233681665,64dc7ee762f341461303348d,,,,,,,,,,,,,,,,,,,,,,,,,,,,,,,,60,Door4,resources/DB.BMP,5,0,5,0,1,,,,,,,,,,,,,,,,,,,,,,,,,
,,,,,,,,2023-08-16_08h47.15.795,HF_wild_card,2022.2.4,Win32,60.03121623,5c73a9d92dfbdb0001b95375,64d2fd46c836a06233681665,64dc7ee762f341461303348d,,,,,,,,,,,,,,,,,,,,,,,,,,,,,,,,,,,,,,,,,,,,,,,,,,,,,,,,,,,,,,,,
,,,,,,,,2023-08-16_08h47.15.795,HF_wild_card,2022.2.4,Win32,60.03121623,5c73a9d92dfbdb0001b95375,64d2fd46c836a06233681665,64dc7ee762f341461303348d,,,,,,,,,,,,,,,,,,,,,,,,,,,,,,,,,,,,,,,,0,0,0,0,1,,,,,,,,,,,,,,,,,,,,
