Condition,Low fixed image (Door1),Low risky image (Door2),High fixed image (Door3),High risky image (Door4),NonExtreme Wild Card 1,NonExtreme Wild Card 2,,date,expName,psychopyVersion,OS,frameRate,PROLIFIC_PID,STUDY_ID,SESSION_ID,mouse_2.x,mouse_2.y,mouse_2.leftButton,mouse_2.midButton,mouse_2.rightButton,mouse_2.clicked_name,Trial Type,Left Option Image,Right Option Image,Chosen Door,mouse.x,mouse.y,mouse.leftButton,mouse.midButton,mouse.rightButton,mouse.time,mouse.clicked_name,Feedback,Cumulative Reward,Block,trial.thisRepN,trial.thisTrialN,trial.thisN,trial.thisIndex,trial.ran,blocks.thisRepN,blocks.thisTrialN,blocks.thisN,blocks.thisIndex,blocks.ran,Money conversion,First Outcome Reported,Shown Door (First Outcome),Displayed Image (First Outcome),outcomes.thisRepN,outcomes.thisTrialN,outcomes.thisN,outcomes.thisIndex,outcomes.ran,judgments.thisRepN,judgments.thisTrialN,judgments.thisN,judgments.thisIndex,judgments.ran,freqMouse.x,freqMouse.y,freqMouse.leftButton,freqMouse.midButton,freqMouse.rightButton,freqMouse.clicked_name,FQJ for first outcome,FQJ for second outcome,Shown Door,Displayed Image,trials.thisRepN,trials.thisTrialN,trials.thisN,trials.thisIndex,trials.ran,judgBlock.thisRepN,judgBlock.thisTrialN,judgBlock.thisN,judgBlock.thisIndex,judgBlock.ran
2,resources/DG.BMP,resources/DP.BMP,resources/DB.BMP,resources/DY.BMP,resources/DR.BMP,resources/DBN.BMP,,2023-08-16_08h41.49.672,HF_wild_card,2022.2.4,Win32,60.09976561,62da689228c4a8004c8d789d,64d2fd46c836a06233681665,64dc7c8eaf21463242e2ed34,,,,,,,,,,,,,,,,,,,,,,,,,,,,,,,,,,,,,,,,,,,,,,,,,,,,,,,,,,,,,,,,
,,,,,,,,2023-08-16_08h41.49.672,HF_wild_card,2022.2.4,Win32,60.09976561,62da689228c4a8004c8d789d,64d2fd46c836a06233681665,64dc7c8eaf21463242e2ed34,0.004629686,-0.422222222,1,0,0,agree,,,,,,,,,,,,,,,,,,,,,,,,,,,,,,,,,,,,,,,,,,,,,,,,,,,,,,,,,,
,,,,,,,,2023-08-16_08h41.49.672,HF_wild_card,2022.2.4,Win32,60.09976561,62da689228c4a8004c8d789d,64d2fd46c836a06233681665,64dc7c8eaf21463242e2ed34,,,,,,,,,,,,,,,,,,,,,,,,,,,,,,,,,,,,,,,,,,,,,,,,,,,,,,,,,,,,,,,,
,,,,,,,,2023-08-16_08h41.49.672,HF_wild_card,2022.2.4,Win32,60.09976561,62da689228c4a8004c8d789d,64d2fd46c836a06233681665,64dc7c8eaf21463242e2ed34,,,,,,,ctch,resources/DP.BMP,resources/DB.BMP,Door2,-0.313888889,-0.09629631,1,0,0,1.4118,optionLeft,20,20,1,0,0,0,0,1,,,,,,,,,,,,,,,,,,,,,,,,,,,,,,,,,,,,,,,
,,,,,,,,2023-08-16_08h41.49.672,HF_wild_card,2022.2.4,Win32,60.09976561,62da689228c4a8004c8d789d,64d2fd46c836a06233681665,64dc7c8eaf21463242e2ed34,,,,,,,sngl,resources/DBN.BMP,resources/Empty.png,WildCard_NonEx,-0.311111111,-0.033333333,1,0,0,1.6777,optionLeft,45,65,1,1,0,1,0,1,,,,,,,,,,,,,,,,,,,,,,,,,,,,,,,,,,,,,,,
,,,,,,,,2023-08-16_08h41.49.672,HF_wild_card,2022.2.4,Win32,60.09976561,62da689228c4a8004c8d789d,64d2fd46c836a06233681665,64dc7c8eaf21463242e2ed34,,,,,,,decisionTrl,resources/DG.BMP,resources/DP.BMP,Door2,0.262037065,0.002777778,1,0,0,0.9252,optionRight,20,85,1,2,0,2,0,1,,,,,,,,,,,,,,,,,,,,,,,,,,,,,,,,,,,,,,,
,,,,,,,,2023-08-16_08h41.49.672,HF_wild_card,2022.2.4,Win32,60.09976561,62da689228c4a8004c8d789d,64d2fd46c836a06233681665,64dc7c8eaf21463242e2ed34,,,,,,,decisionTrl,resources/DBN.BMP,resources/DG.BMP,WildCard_NonEx,-0.315740712,0.019444444,1,0,0,0.9166,optionLeft,55,140,1,3,0,3,0,1,,,,,,,,,,,,,,,,,,,,,,,,,,,,,,,,,,,,,,,
,,,,,,,,2023-08-16_08h41.49.672,HF_wild_card,2022.2.4,Win32,60.09976561,62da689228c4a8004c8d789d,64d2fd46c836a06233681665,64dc7c8eaf21463242e2ed34,,,,,,,sngl,resources/DY.BMP,resources/Empty.png,Door4,-0.383333333,0.014814801,1,0,0,0.798,optionLeft,80,220,1,4,0,4,0,1,,,,,,,,,,,,,,,,,,,,,,,,,,,,,,,,,,,,,,,
,,,,,,,,2023-08-16_08h41.49.672,HF_wild_card,2022.2.4,Win32,60.09976561,62da689228c4a8004c8d789d,64d2fd46c836a06233681665,64dc7c8eaf21463242e2ed34,,,,,,,ctch,resources/DY.BMP,resources/DG.BMP,Door4,-0.325925912,0.026851824,1,0,0,1.2469,optionLeft,60,280,1,5,0,5,0,1,,,,,,,,,,,,,,,,,,,,,,,,,,,,,,,,,,,,,,,
,,,,,,,,2023-08-16_08h41.49.672,HF_wild_card,2022.2.4,Win32,60.09976561,62da689228c4a8004c8d789d,64d2fd46c836a06233681665,64dc7c8eaf21463242e2ed34,,,,,,,decisionTrl,resources/DB.BMP,resources/DBN.BMP,WildCard_NonEx,0.310185242,0.001851824,1,0,0,1.143,optionRight,55,335,1,6,0,6,0,1,,,,,,,,,,,,,,,,,,,,,,,,,,,,,,,,,,,,,,,
,,,,,,,,2023-08-16_08h41.49.672,HF_wild_card,2022.2.4,Win32,60.09976561,62da689228c4a8004c8d789d,64d2fd46c836a06233681665,64dc7c8eaf21463242e2ed34,,,,,,,ctch,resources/DG.BMP,resources/DY.BMP,Door4,0.221296353,-0.011111111,1,0,0,1.0633,optionRight,60,395,1,7,0,7,0,1,,,,,,,,,,,,,,,,,,,,,,,,,,,,,,,,,,,,,,,
,,,,,,,,2023-08-16_08h41.49.672,HF_wild_card,2022.2.4,Win32,60.09976561,62da689228c4a8004c8d789d,64d2fd46c836a06233681665,64dc7c8eaf21463242e2ed34,,,,,,,sngl,resources/DG.BMP,resources/Empty.png,Door1,-0.313888889,0.007407379,1,0,0,0.8798,optionLeft,30,425,1,8,0,8,0,1,,,,,,,,,,,,,,,,,,,,,,,,,,,,,,,,,,,,,,,
,,,,,,,,2023-08-16_08h41.49.672,HF_wild_card,2022.2.4,Win32,60.09976561,62da689228c4a8004c8d789d,64d2fd46c836a06233681665,64dc7c8eaf21463242e2ed34,,,,,,,decisionTrl,resources/DY.BMP,resources/DB.BMP,Door4,-0.24351849,-0.030555556,1,0,0,1.0134,optionLeft,60,485,1,9,0,9,0,1,,,,,,,,,,,,,,,,,,,,,,,,,,,,,,,,,,,,,,,
,,,,,,,,2023-08-16_08h41.49.672,HF_wild_card,2022.2.4,Win32,60.09976561,62da689228c4a8004c8d789d,64d2fd46c836a06233681665,64dc7c8eaf21463242e2ed34,,,,,,,sngl,resources/Empty.png,resources/DB.BMP,Door3,0.252777778,0.020370356,1,0,0,0.742,optionRight,70,555,1,10,0,10,0,1,,,,,,,,,,,,,,,,,,,,,,,,,,,,,,,,,,,,,,,
,,,,,,,,2023-08-16_08h41.49.672,HF_wild_card,2022.2.4,Win32,60.09976561,62da689228c4a8004c8d789d,64d2fd46c836a06233681665,64dc7c8eaf21463242e2ed34,,,,,,,decisionTrl,resources/DY.BMP,resources/DB.BMP,Door3,0.321296353,-0.005555556,1,0,0,1.181,optionRight,70,625,1,11,0,11,0,1,,,,,,,,,,,,,,,,,,,,,,,,,,,,,,,,,,,,,,,
,,,,,,,,2023-08-16_08h41.49.672,HF_wild_card,2022.2.4,Win32,60.09976561,62da689228c4a8004c8d789d,64d2fd46c836a06233681665,64dc7c8eaf21463242e2ed34,,,,,,,sngl,resources/Empty.png,resources/DY.BMP,Door4,0.221296353,-0.017592621,1,0,0,1.1077,optionRight,60,685,1,12,0,12,0,1,,,,,,,,,,,,,,,,,,,,,,,,,,,,,,,,,,,,,,,
,,,,,,,,2023-08-16_08h41.49.672,HF_wild_card,2022.2.4,Win32,60.09976561,62da689228c4a8004c8d789d,64d2fd46c836a06233681665,64dc7c8eaf21463242e2ed34,,,,,,,decisionTrl,resources/DP.BMP,resources/DG.BMP,Door2,-0.227777778,0.061111111,1,0,0,0.7294,optionLeft,40,725,1,13,0,13,0,1,,,,,,,,,,,,,,,,,,,,,,,,,,,,,,,,,,,,,,,
,,,,,,,,2023-08-16_08h41.49.672,HF_wild_card,2022.2.4,Win32,60.09976561,62da689228c4a8004c8d789d,64d2fd46c836a06233681665,64dc7c8eaf21463242e2ed34,,,,,,,sngl,resources/Empty.png,resources/DP.BMP,Door2,0.309259288,0.02870369,1,0,0,0.7974,optionRight,20,745,1,14,0,14,0,1,,,,,,,,,,,,,,,,,,,,,,,,,,,,,,,,,,,,,,,
,,,,,,,,2023-08-16_08h41.49.672,HF_wild_card,2022.2.4,Win32,60.09976561,62da689228c4a8004c8d789d,64d2fd46c836a06233681665,64dc7c8eaf21463242e2ed34,,,,,,,decisionTrl,resources/DBN.BMP,resources/DB.BMP,WildCard_NonEx,-0.358333333,0.02870369,1,0,0,0.8308,optionLeft,55,800,1,15,0,15,0,1,,,,,,,,,,,,,,,,,,,,,,,,,,,,,,,,,,,,,,,
,,,,,,,,2023-08-16_08h41.49.672,HF_wild_card,2022.2.4,Win32,60.09976561,62da689228c4a8004c8d789d,64d2fd46c836a06233681665,64dc7c8eaf21463242e2ed34,,,,,,,decisionTrl,resources/DG.BMP,resources/DP.BMP,Door1,-0.308333333,0.005555556,1,0,0,1.0979,optionLeft,30,830,1,16,0,16,0,1,,,,,,,,,,,,,,,,,,,,,,,,,,,,,,,,,,,,,,,
,,,,,,,,2023-08-16_08h41.49.672,HF_wild_card,2022.2.4,Win32,60.09976561,62da689228c4a8004c8d789d,64d2fd46c836a06233681665,64dc7c8eaf21463242e2ed34,,,,,,,ctch,resources/DG.BMP,resources/DY.BMP,Door4,0.234259288,-0.015740755,1,0,0,0.8809,optionRight,60,890,1,17,0,17,0,1,,,,,,,,,,,,,,,,,,,,,,,,,,,,,,,,,,,,,,,
,,,,,,,,2023-08-16_08h41.49.672,HF_wild_card,2022.2.4,Win32,60.09976561,62da689228c4a8004c8d789d,64d2fd46c836a06233681665,64dc7c8eaf21463242e2ed34,,,,,,,decisionTrl,resources/DG.BMP,resources/DBN.BMP,WildCard_NonEx,0.317592621,-0.015740755,1,0,0,1.4434,optionRight,45,935,1,18,0,18,0,1,,,,,,,,,,,,,,,,,,,,,,,,,,,,,,,,,,,,,,,
,,,,,,,,2023-08-16_08h41.49.672,HF_wild_card,2022.2.4,Win32,60.09976561,62da689228c4a8004c8d789d,64d2fd46c836a06233681665,64dc7c8eaf21463242e2ed34,,,,,,,sngl,resources/DP.BMP,resources/Empty.png,Door2,-0.262037023,0.050925912,1,0,0,0.7321,optionLeft,40,975,1,19,0,19,0,1,,,,,,,,,,,,,,,,,,,,,,,,,,,,,,,,,,,,,,,
,,,,,,,,2023-08-16_08h41.49.672,HF_wild_card,2022.2.4,Win32,60.09976561,62da689228c4a8004c8d789d,64d2fd46c836a06233681665,64dc7c8eaf21463242e2ed34,,,,,,,decisionTrl,resources/DB.BMP,resources/DY.BMP,Door4,0.311111111,0.037962935,1,0,0,0.898,optionRight,80,1055,1,20,0,20,0,1,,,,,,,,,,,,,,,,,,,,,,,,,,,,,,,,,,,,,,,
,,,,,,,,2023-08-16_08h41.49.672,HF_wild_card,2022.2.4,Win32,60.09976561,62da689228c4a8004c8d789d,64d2fd46c836a06233681665,64dc7c8eaf21463242e2ed34,,,,,,,sngl,resources/DB.BMP,resources/Empty.png,Door3,-0.354629601,0.001851824,1,0,0,1.0131,optionLeft,70,1125,1,21,0,21,0,1,,,,,,,,,,,,,,,,,,,,,,,,,,,,,,,,,,,,,,,
,,,,,,,,2023-08-16_08h41.49.672,HF_wild_card,2022.2.4,Win32,60.09976561,62da689228c4a8004c8d789d,64d2fd46c836a06233681665,64dc7c8eaf21463242e2ed34,,,,,,,sngl,resources/Empty.png,resources/DG.BMP,Door1,0.293518575,0,1,0,0,1.2974,optionRight,30,1155,1,22,0,22,0,1,,,,,,,,,,,,,,,,,,,,,,,,,,,,,,,,,,,,,,,
,,,,,,,,2023-08-16_08h41.49.672,HF_wild_card,2022.2.4,Win32,60.09976561,62da689228c4a8004c8d789d,64d2fd46c836a06233681665,64dc7c8eaf21463242e2ed34,,,,,,,decisionTrl,resources/DB.BMP,resources/DY.BMP,Door3,-0.373148134,-0.05,1,0,0,0.8643,optionLeft,70,1225,1,23,0,23,0,1,,,,,,,,,,,,,,,,,,,,,,,,,,,,,,,,,,,,,,,
,,,,,,,,2023-08-16_08h41.49.672,HF_wild_card,2022.2.4,Win32,60.09976561,62da689228c4a8004c8d789d,64d2fd46c836a06233681665,64dc7c8eaf21463242e2ed34,,,,,,,decisionTrl,resources/DP.BMP,resources/DG.BMP,Door1,0.264814843,-0.024074088,1,0,0,0.9309,optionRight,30,1255,1,24,0,24,0,1,,,,,,,,,,,,,,,,,,,,,,,,,,,,,,,,,,,,,,,
,,,,,,,,2023-08-16_08h41.49.672,HF_wild_card,2022.2.4,Win32,60.09976561,62da689228c4a8004c8d789d,64d2fd46c836a06233681665,64dc7c8eaf21463242e2ed34,,,,,,,decisionTrl,resources/DB.BMP,resources/DY.BMP,Door3,-0.221296268,-0.025,1,0,0,0.7654,optionLeft,70,1325,1,25,0,25,0,1,,,,,,,,,,,,,,,,,,,,,,,,,,,,,,,,,,,,,,,
,,,,,,,,2023-08-16_08h41.49.672,HF_wild_card,2022.2.4,Win32,60.09976561,62da689228c4a8004c8d789d,64d2fd46c836a06233681665,64dc7c8eaf21463242e2ed34,,,,,,,ctch,resources/DB.BMP,resources/DP.BMP,Door2,0.387963019,0.058333333,1,0,0,0.8194,optionRight,20,1345,1,26,0,26,0,1,,,,,,,,,,,,,,,,,,,,,,,,,,,,,,,,,,,,,,,
,,,,,,,,2023-08-16_08h41.49.672,HF_wild_card,2022.2.4,Win32,60.09976561,62da689228c4a8004c8d789d,64d2fd46c836a06233681665,64dc7c8eaf21463242e2ed34,,,,,,,decisionTrl,resources/DP.BMP,resources/DG.BMP,Door2,-0.373148134,-0.020370399,1,0,0,0.9146,optionLeft,40,1385,1,27,0,27,0,1,,,,,,,,,,,,,,,,,,,,,,,,,,,,,,,,,,,,,,,
,,,,,,,,2023-08-16_08h41.49.672,HF_wild_card,2022.2.4,Win32,60.09976561,62da689228c4a8004c8d789d,64d2fd46c836a06233681665,64dc7c8eaf21463242e2ed34,,,,,,,ctch,resources/DP.BMP,resources/DB.BMP,Door3,0.427777778,0.021296268,1,0,0,0.7038,optionRight,70,1455,1,28,0,28,0,1,,,,,,,,,,,,,,,,,,,,,,,,,,,,,,,,,,,,,,,
,,,,,,,,2023-08-16_08h41.49.672,HF_wild_card,2022.2.4,Win32,60.09976561,62da689228c4a8004c8d789d,64d2fd46c836a06233681665,64dc7c8eaf21463242e2ed34,,,,,,,sngl,resources/DBN.BMP,resources/Empty.png,WildCard_NonEx,-0.341666667,-0.008333333,1,0,0,0.5977,optionLeft,55,1510,1,29,0,29,0,1,,,,,,,,,,,,,,,,,,,,,,,,,,,,,,,,,,,,,,,
,,,,,,,,2023-08-16_08h41.49.672,HF_wild_card,2022.2.4,Win32,60.09976561,62da689228c4a8004c8d789d,64d2fd46c836a06233681665,64dc7c8eaf21463242e2ed34,,,,,,,ctch,resources/DY.BMP,resources/DG.BMP,Door1,0.210185242,0.010185157,1,0,0,0.8294,optionRight,30,1540,1,30,0,30,0,1,,,,,,,,,,,,,,,,,,,,,,,,,,,,,,,,,,,,,,,
,,,,,,,,2023-08-16_08h41.49.672,HF_wild_card,2022.2.4,Win32,60.09976561,62da689228c4a8004c8d789d,64d2fd46c836a06233681665,64dc7c8eaf21463242e2ed34,,,,,,,decisionTrl,resources/DY.BMP,resources/DB.BMP,Door3,0.25648151,0.017592578,1,0,0,0.8633,optionRight,70,1610,1,31,0,31,0,1,,,,,,,,,,,,,,,,,,,,,,,,,,,,,,,,,,,,,,,
,,,,,,,,2023-08-16_08h41.49.672,HF_wild_card,2022.2.4,Win32,60.09976561,62da689228c4a8004c8d789d,64d2fd46c836a06233681665,64dc7c8eaf21463242e2ed34,,,,,,,decisionTrl,resources/DBN.BMP,resources/DP.BMP,WildCard_NonEx,-0.225925912,0.004629601,1,0,0,0.9798,optionLeft,45,1655,1,32,0,32,0,1,,,,,,,,,,,,,,,,,,,,,,,,,,,,,,,,,,,,,,,
,,,,,,,,2023-08-16_08h41.49.672,HF_wild_card,2022.2.4,Win32,60.09976561,62da689228c4a8004c8d789d,64d2fd46c836a06233681665,64dc7c8eaf21463242e2ed34,,,,,,,ctch,resources/DB.BMP,resources/DP.BMP,Door2,0.237037065,0.011111111,1,0,0,0.7969,optionRight,40,1695,1,33,0,33,0,1,,,,,,,,,,,,,,,,,,,,,,,,,,,,,,,,,,,,,,,
,,,,,,,,2023-08-16_08h41.49.672,HF_wild_card,2022.2.4,Win32,60.09976561,62da689228c4a8004c8d789d,64d2fd46c836a06233681665,64dc7c8eaf21463242e2ed34,,,,,,,sngl,resources/Empty.png,resources/DBN.BMP,WildCard_NonEx,0.237037065,0.020370356,1,0,0,0.9143,optionRight,45,1740,1,34,0,34,0,1,,,,,,,,,,,,,,,,,,,,,,,,,,,,,,,,,,,,,,,
,,,,,,,,2023-08-16_08h41.49.672,HF_wild_card,2022.2.4,Win32,60.09976561,62da689228c4a8004c8d789d,64d2fd46c836a06233681665,64dc7c8eaf21463242e2ed34,,,,,,,decisionTrl,resources/DY.BMP,resources/DB.BMP,Door4,-0.230555556,0.017592578,1,0,0,0.6816,optionLeft,80,1820,1,35,0,35,0,1,,,,,,,,,,,,,,,,,,,,,,,,,,,,,,,,,,,,,,,
,,,,,,,,2023-08-16_08h41.49.672,HF_wild_card,2022.2.4,Win32,60.09976561,62da689228c4a8004c8d789d,64d2fd46c836a06233681665,64dc7c8eaf21463242e2ed34,,,,,,,decisionTrl,resources/DG.BMP,resources/DP.BMP,Door2,0.189814843,-0.004629644,1,0,0,0.864,optionRight,20,1840,1,36,0,36,0,1,,,,,,,,,,,,,,,,,,,,,,,,,,,,,,,,,,,,,,,
,,,,,,,,2023-08-16_08h41.49.672,HF_wild_card,2022.2.4,Win32,60.09976561,62da689228c4a8004c8d789d,64d2fd46c836a06233681665,64dc7c8eaf21463242e2ed34,,,,,,,decisionTrl,resources/DG.BMP,resources/DP.BMP,Door1,-0.298148134,0.000925912,1,0,0,0.7144,optionLeft,30,1870,1,37,0,37,0,1,,,,,,,,,,,,,,,,,,,,,,,,,,,,,,,,,,,,,,,
,,,,,,,,2023-08-16_08h41.49.672,HF_wild_card,2022.2.4,Win32,60.09976561,62da689228c4a8004c8d789d,64d2fd46c836a06233681665,64dc7c8eaf21463242e2ed34,,,,,,,decisionTrl,resources/DP.BMP,resources/DBN.BMP,WildCard_NonEx,0.237963019,0.027777778,1,0,0,0.7766,optionRight,55,1925,1,38,0,38,0,1,,,,,,,,,,,,,,,,,,,,,,,,,,,,,,,,,,,,,,,
,,,,,,,,2023-08-16_08h41.49.672,HF_wild_card,2022.2.4,Win32,60.09976561,62da689228c4a8004c8d789d,64d2fd46c836a06233681665,64dc7c8eaf21463242e2ed34,,,,,,,decisionTrl,resources/DBN.BMP,resources/DY.BMP,WildCard_NonEx,-0.182407379,-0.004629644,1,0,0,0.7793,optionLeft,55,1980,1,39,0,39,0,1,,,,,,,,,,,,,,,,,,,,,,,,,,,,,,,,,,,,,,,
,,,,,,,,2023-08-16_08h41.49.672,HF_wild_card,2022.2.4,Win32,60.09976561,62da689228c4a8004c8d789d,64d2fd46c836a06233681665,64dc7c8eaf21463242e2ed34,,,,,,,decisionTrl,resources/DB.BMP,resources/DY.BMP,Door4,0.191666667,0.025,1,0,0,0.679,optionRight,80,2060,1,40,0,40,0,1,,,,,,,,,,,,,,,,,,,,,,,,,,,,,,,,,,,,,,,
,,,,,,,,2023-08-16_08h41.49.672,HF_wild_card,2022.2.4,Win32,60.09976561,62da689228c4a8004c8d789d,64d2fd46c836a06233681665,64dc7c8eaf21463242e2ed34,,,,,,,sngl,resources/Empty.png,resources/DBN.BMP,WildCard_NonEx,0.186111111,0.012037023,1,0,0,0.9828,optionRight,55,2115,1,41,0,41,0,1,,,,,,,,,,,,,,,,,,,,,,,,,,,,,,,,,,,,,,,
,,,,,,,,2023-08-16_08h41.49.672,HF_wild_card,2022.2.4,Win32,60.09976561,62da689228c4a8004c8d789d,64d2fd46c836a06233681665,64dc7c8eaf21463242e2ed34,,,,,,,decisionTrl,resources/DY.BMP,resources/DBN.BMP,Door4,-0.24351849,-0.00648151,1,0,0,0.6484,optionLeft,60,2175,1,42,0,42,0,1,,,,,,,,,,,,,,,,,,,,,,,,,,,,,,,,,,,,,,,
,,,,,,,,2023-08-16_08h41.49.672,HF_wild_card,2022.2.4,Win32,60.09976561,62da689228c4a8004c8d789d,64d2fd46c836a06233681665,64dc7c8eaf21463242e2ed34,,,,,,,decisionTrl,resources/DP.BMP,resources/DG.BMP,Door1,0.191666667,0.021296268,1,0,0,0.8431,optionRight,30,2205,1,43,0,43,0,1,,,,,,,,,,,,,,,,,,,,,,,,,,,,,,,,,,,,,,,
,,,,,,,,2023-08-16_08h41.49.672,HF_wild_card,2022.2.4,Win32,60.09976561,62da689228c4a8004c8d789d,64d2fd46c836a06233681665,64dc7c8eaf21463242e2ed34,,,,,,,,,,,,,,,,,,,,,,,,,,0,0,0,0,1,,,,,,,,,,,,,,,,,,,,,,,,,,,,,,,,,,
,,,,,,,,2023-08-16_08h41.49.672,HF_wild_card,2022.2.4,Win32,60.09976561,62da689228c4a8004c8d789d,64d2fd46c836a06233681665,64dc7c8eaf21463242e2ed34,,,,,,,ctch,resources/DB.BMP,resources/DP.BMP,Door2,0.428703732,-0.08148151,1,0,0,0.9399,optionRight,20,2225,2,0,0,0,0,1,,,,,,,,,,,,,,,,,,,,,,,,,,,,,,,,,,,,,,,
,,,,,,,,2023-08-16_08h41.49.672,HF_wild_card,2022.2.4,Win32,60.09976561,62da689228c4a8004c8d789d,64d2fd46c836a06233681665,64dc7c8eaf21463242e2ed34,,,,,,,ctch,resources/DY.BMP,resources/DG.BMP,Door4,-0.175,-0.040740755,1,0,0,0.756,optionLeft,60,2285,2,1,0,1,0,1,,,,,,,,,,,,,,,,,,,,,,,,,,,,,,,,,,,,,,,
,,,,,,,,2023-08-16_08h41.49.672,HF_wild_card,2022.2.4,Win32,60.09976561,62da689228c4a8004c8d789d,64d2fd46c836a06233681665,64dc7c8eaf21463242e2ed34,,,,,,,decisionTrl,resources/DP.BMP,resources/DG.BMP,Door1,0.249074131,0.044444444,1,0,0,0.5984,optionRight,30,2315,2,2,0,2,0,1,,,,,,,,,,,,,,,,,,,,,,,,,,,,,,,,,,,,,,,
,,,,,,,,2023-08-16_08h41.49.672,HF_wild_card,2022.2.4,Win32,60.09976561,62da689228c4a8004c8d789d,64d2fd46c836a06233681665,64dc7c8eaf21463242e2ed34,,,,,,,decisionTrl,resources/DB.BMP,resources/DY.BMP,Door4,0.205555556,-0.029629644,1,0,0,1.1408,optionRight,80,2395,2,3,0,3,0,1,,,,,,,,,,,,,,,,,,,,,,,,,,,,,,,,,,,,,,,
,,,,,,,,2023-08-16_08h41.49.672,HF_wild_card,2022.2.4,Win32,60.09976561,62da689228c4a8004c8d789d,64d2fd46c836a06233681665,64dc7c8eaf21463242e2ed34,,,,,,,sngl,resources/Empty.png,resources/DP.BMP,Door2,0.207407464,-0.012037065,1,0,0,0.8318,optionRight,40,2435,2,4,0,4,0,1,,,,,,,,,,,,,,,,,,,,,,,,,,,,,,,,,,,,,,,
,,,,,,,,2023-08-16_08h41.49.672,HF_wild_card,2022.2.4,Win32,60.09976561,62da689228c4a8004c8d789d,64d2fd46c836a06233681665,64dc7c8eaf21463242e2ed34,,,,,,,sngl,resources/DY.BMP,resources/Empty.png,Door4,-0.200925912,0.011111111,1,0,0,0.7731,optionLeft,60,2495,2,5,0,5,0,1,,,,,,,,,,,,,,,,,,,,,,,,,,,,,,,,,,,,,,,
,,,,,,,,2023-08-16_08h41.49.672,HF_wild_card,2022.2.4,Win32,60.09976561,62da689228c4a8004c8d789d,64d2fd46c836a06233681665,64dc7c8eaf21463242e2ed34,,,,,,,decisionTrl,resources/DG.BMP,resources/DP.BMP,Door2,0.203703732,0.022222222,1,0,0,0.8151,optionRight,40,2535,2,6,0,6,0,1,,,,,,,,,,,,,,,,,,,,,,,,,,,,,,,,,,,,,,,
,,,,,,,,2023-08-16_08h41.49.672,HF_wild_card,2022.2.4,Win32,60.09976561,62da689228c4a8004c8d789d,64d2fd46c836a06233681665,64dc7c8eaf21463242e2ed34,,,,,,,decisionTrl,resources/DB.BMP,resources/DY.BMP,Door4,0.295370399,0.014814801,1,0,0,1.066,optionRight,60,2595,2,7,0,7,0,1,,,,,,,,,,,,,,,,,,,,,,,,,,,,,,,,,,,,,,,
,,,,,,,,2023-08-16_08h41.49.672,HF_wild_card,2022.2.4,Win32,60.09976561,62da689228c4a8004c8d789d,64d2fd46c836a06233681665,64dc7c8eaf21463242e2ed34,,,,,,,sngl,resources/Empty.png,resources/DBN.BMP,WildCard_NonEx,0.215740797,0.023148134,1,0,0,0.7225,optionRight,55,2650,2,8,0,8,0,1,,,,,,,,,,,,,,,,,,,,,,,,,,,,,,,,,,,,,,,
,,,,,,,,2023-08-16_08h41.49.672,HF_wild_card,2022.2.4,Win32,60.09976561,62da689228c4a8004c8d789d,64d2fd46c836a06233681665,64dc7c8eaf21463242e2ed34,,,,,,,ctch,resources/DP.BMP,resources/DB.BMP,Door3,0.191666667,0.041666667,1,0,0,0.8976,optionRight,70,2720,2,9,0,9,0,1,,,,,,,,,,,,,,,,,,,,,,,,,,,,,,,,,,,,,,,
,,,,,,,,2023-08-16_08h41.49.672,HF_wild_card,2022.2.4,Win32,60.09976561,62da689228c4a8004c8d789d,64d2fd46c836a06233681665,64dc7c8eaf21463242e2ed34,,,,,,,sngl,resources/Empty.png,resources/DB.BMP,Door3,0.238888889,0.024074046,1,0,0,0.7416,optionRight,70,2790,2,10,0,10,0,1,,,,,,,,,,,,,,,,,,,,,,,,,,,,,,,,,,,,,,,
,,,,,,,,2023-08-16_08h41.49.672,HF_wild_card,2022.2.4,Win32,60.09976561,62da689228c4a8004c8d789d,64d2fd46c836a06233681665,64dc7c8eaf21463242e2ed34,,,,,,,decisionTrl,resources/DP.BMP,resources/DG.BMP,Door1,0.274074131,0.027777778,1,0,0,1.3103,optionRight,30,2820,2,11,0,11,0,1,,,,,,,,,,,,,,,,,,,,,,,,,,,,,,,,,,,,,,,
,,,,,,,,2023-08-16_08h41.49.672,HF_wild_card,2022.2.4,Win32,60.09976561,62da689228c4a8004c8d789d,64d2fd46c836a06233681665,64dc7c8eaf21463242e2ed34,,,,,,,sngl,resources/Empty.png,resources/DBN.BMP,WildCard_NonEx,0.162037065,0,1,0,0,0.8972,optionRight,45,2865,2,12,0,12,0,1,,,,,,,,,,,,,,,,,,,,,,,,,,,,,,,,,,,,,,,
,,,,,,,,2023-08-16_08h41.49.672,HF_wild_card,2022.2.4,Win32,60.09976561,62da689228c4a8004c8d789d,64d2fd46c836a06233681665,64dc7c8eaf21463242e2ed34,,,,,,,ctch,resources/DB.BMP,resources/DP.BMP,Door3,-0.233333333,0.025925912,1,0,0,1.5484,optionLeft,70,2935,2,13,0,13,0,1,,,,,,,,,,,,,,,,,,,,,,,,,,,,,,,,,,,,,,,
,,,,,,,,2023-08-16_08h41.49.672,HF_wild_card,2022.2.4,Win32,60.09976561,62da689228c4a8004c8d789d,64d2fd46c836a06233681665,64dc7c8eaf21463242e2ed34,,,,,,,decisionTrl,resources/DBN.BMP,resources/DG.BMP,WildCard_NonEx,-0.248148134,-0.001851866,1,0,0,0.93,optionLeft,45,2980,2,14,0,14,0,1,,,,,,,,,,,,,,,,,,,,,,,,,,,,,,,,,,,,,,,
,,,,,,,,2023-08-16_08h41.49.672,HF_wild_card,2022.2.4,Win32,60.09976561,62da689228c4a8004c8d789d,64d2fd46c836a06233681665,64dc7c8eaf21463242e2ed34,,,,,,,sngl,resources/Empty.png,resources/DY.BMP,Door4,0.225,-0.00648151,1,0,0,0.8296,optionRight,80,3060,2,15,0,15,0,1,,,,,,,,,,,,,,,,,,,,,,,,,,,,,,,,,,,,,,,
,,,,,,,,2023-08-16_08h41.49.672,HF_wild_card,2022.2.4,Win32,60.09976561,62da689228c4a8004c8d789d,64d2fd46c836a06233681665,64dc7c8eaf21463242e2ed34,,,,,,,decisionTrl,resources/DY.BMP,resources/DB.BMP,Door3,0.133333333,-0.012962977,1,0,0,0.9804,optionRight,70,3130,2,16,0,16,0,1,,,,,,,,,,,,,,,,,,,,,,,,,,,,,,,,,,,,,,,
,,,,,,,,2023-08-16_08h41.49.672,HF_wild_card,2022.2.4,Win32,60.09976561,62da689228c4a8004c8d789d,64d2fd46c836a06233681665,64dc7c8eaf21463242e2ed34,,,,,,,decisionTrl,resources/DY.BMP,resources/DB.BMP,Door3,0.159259288,0.020370356,1,0,0,1.3641,optionRight,70,3200,2,17,0,17,0,1,,,,,,,,,,,,,,,,,,,,,,,,,,,,,,,,,,,,,,,
,,,,,,,,2023-08-16_08h41.49.672,HF_wild_card,2022.2.4,Win32,60.09976561,62da689228c4a8004c8d789d,64d2fd46c836a06233681665,64dc7c8eaf21463242e2ed34,,,,,,,decisionTrl,resources/DB.BMP,resources/DBN.BMP,WildCard_NonEx,0.18148151,0.021296268,1,0,0,0.7679,optionRight,45,3245,2,18,0,18,0,1,,,,,,,,,,,,,,,,,,,,,,,,,,,,,,,,,,,,,,,
,,,,,,,,2023-08-16_08h41.49.672,HF_wild_card,2022.2.4,Win32,60.09976561,62da689228c4a8004c8d789d,64d2fd46c836a06233681665,64dc7c8eaf21463242e2ed34,,,,,,,decisionTrl,resources/DBN.BMP,resources/DY.BMP,WildCard_NonEx,-0.22870369,-0.025925954,1,0,0,0.932,optionLeft,45,3290,2,19,0,19,0,1,,,,,,,,,,,,,,,,,,,,,,,,,,,,,,,,,,,,,,,
,,,,,,,,2023-08-16_08h41.49.672,HF_wild_card,2022.2.4,Win32,60.09976561,62da689228c4a8004c8d789d,64d2fd46c836a06233681665,64dc7c8eaf21463242e2ed34,,,,,,,decisionTrl,resources/DG.BMP,resources/DP.BMP,Door2,0.234259288,0.012962935,1,0,0,0.7492,optionRight,40,3330,2,20,0,20,0,1,,,,,,,,,,,,,,,,,,,,,,,,,,,,,,,,,,,,,,,
,,,,,,,,2023-08-16_08h41.49.672,HF_wild_card,2022.2.4,Win32,60.09976561,62da689228c4a8004c8d789d,64d2fd46c836a06233681665,64dc7c8eaf21463242e2ed34,,,,,,,decisionTrl,resources/DB.BMP,resources/DY.BMP,Door4,0.272222222,0.037962935,1,0,0,0.6785,optionRight,80,3410,2,21,0,21,0,1,,,,,,,,,,,,,,,,,,,,,,,,,,,,,,,,,,,,,,,
,,,,,,,,2023-08-16_08h41.49.672,HF_wild_card,2022.2.4,Win32,60.09976561,62da689228c4a8004c8d789d,64d2fd46c836a06233681665,64dc7c8eaf21463242e2ed34,,,,,,,decisionTrl,resources/DBN.BMP,resources/DB.BMP,Door3,0.198148176,0.019444444,1,0,0,0.7151,optionRight,70,3480,2,22,0,22,0,1,,,,,,,,,,,,,,,,,,,,,,,,,,,,,,,,,,,,,,,
,,,,,,,,2023-08-16_08h41.49.672,HF_wild_card,2022.2.4,Win32,60.09976561,62da689228c4a8004c8d789d,64d2fd46c836a06233681665,64dc7c8eaf21463242e2ed34,,,,,,,ctch,resources/DG.BMP,resources/DY.BMP,Door4,0.212037065,0.027777778,1,0,0,0.7652,optionRight,60,3540,2,23,0,23,0,1,,,,,,,,,,,,,,,,,,,,,,,,,,,,,,,,,,,,,,,
,,,,,,,,2023-08-16_08h41.49.672,HF_wild_card,2022.2.4,Win32,60.09976561,62da689228c4a8004c8d789d,64d2fd46c836a06233681665,64dc7c8eaf21463242e2ed34,,,,,,,decisionTrl,resources/DP.BMP,resources/DG.BMP,Door1,0.289814843,0.029629601,1,0,0,0.6765,optionRight,30,3570,2,24,0,24,0,1,,,,,,,,,,,,,,,,,,,,,,,,,,,,,,,,,,,,,,,
,,,,,,,,2023-08-16_08h41.49.672,HF_wild_card,2022.2.4,Win32,60.09976561,62da689228c4a8004c8d789d,64d2fd46c836a06233681665,64dc7c8eaf21463242e2ed34,,,,,,,sngl,resources/DG.BMP,resources/Empty.png,Door1,-0.206481467,-0.016666667,1,0,0,0.8631,optionLeft,30,3600,2,25,0,25,0,1,,,,,,,,,,,,,,,,,,,,,,,,,,,,,,,,,,,,,,,
,,,,,,,,2023-08-16_08h41.49.672,HF_wild_card,2022.2.4,Win32,60.09976561,62da689228c4a8004c8d789d,64d2fd46c836a06233681665,64dc7c8eaf21463242e2ed34,,,,,,,ctch,resources/DY.BMP,resources/DG.BMP,Door1,0.198148176,0.021296268,1,0,0,0.6463,optionRight,30,3630,2,26,0,26,0,1,,,,,,,,,,,,,,,,,,,,,,,,,,,,,,,,,,,,,,,
,,,,,,,,2023-08-16_08h41.49.672,HF_wild_card,2022.2.4,Win32,60.09976561,62da689228c4a8004c8d789d,64d2fd46c836a06233681665,64dc7c8eaf21463242e2ed34,,,,,,,sngl,resources/DBN.BMP,resources/Empty.png,WildCard_NonEx,-0.187037023,-0.041666667,1,0,0,0.7465,optionLeft,45,3675,2,27,0,27,0,1,,,,,,,,,,,,,,,,,,,,,,,,,,,,,,,,,,,,,,,
,,,,,,,,2023-08-16_08h41.49.672,HF_wild_card,2022.2.4,Win32,60.09976561,62da689228c4a8004c8d789d,64d2fd46c836a06233681665,64dc7c8eaf21463242e2ed34,,,,,,,sngl,resources/DP.BMP,resources/Empty.png,Door2,-0.232407379,-0.040740755,1,0,0,0.8644,optionLeft,20,3695,2,28,0,28,0,1,,,,,,,,,,,,,,,,,,,,,,,,,,,,,,,,,,,,,,,
,,,,,,,,2023-08-16_08h41.49.672,HF_wild_card,2022.2.4,Win32,60.09976561,62da689228c4a8004c8d789d,64d2fd46c836a06233681665,64dc7c8eaf21463242e2ed34,,,,,,,decisionTrl,resources/DBN.BMP,resources/DP.BMP,Door2,0.197222222,0.012037023,1,0,0,0.7151,optionRight,40,3735,2,29,0,29,0,1,,,,,,,,,,,,,,,,,,,,,,,,,,,,,,,,,,,,,,,
,,,,,,,,2023-08-16_08h41.49.672,HF_wild_card,2022.2.4,Win32,60.09976561,62da689228c4a8004c8d789d,64d2fd46c836a06233681665,64dc7c8eaf21463242e2ed34,,,,,,,decisionTrl,resources/DG.BMP,resources/DBN.BMP,WildCard_NonEx,0.210185242,0,1,0,0,0.7825,optionRight,45,3780,2,30,0,30,0,1,,,,,,,,,,,,,,,,,,,,,,,,,,,,,,,,,,,,,,,
,,,,,,,,2023-08-16_08h41.49.672,HF_wild_card,2022.2.4,Win32,60.09976561,62da689228c4a8004c8d789d,64d2fd46c836a06233681665,64dc7c8eaf21463242e2ed34,,,,,,,decisionTrl,resources/DB.BMP,resources/DY.BMP,Door4,0.189814843,0.008333333,1,0,0,0.8648,optionRight,80,3860,2,31,0,31,0,1,,,,,,,,,,,,,,,,,,,,,,,,,,,,,,,,,,,,,,,
,,,,,,,,2023-08-16_08h41.49.672,HF_wild_card,2022.2.4,Win32,60.09976561,62da689228c4a8004c8d789d,64d2fd46c836a06233681665,64dc7c8eaf21463242e2ed34,,,,,,,decisionTrl,resources/DY.BMP,resources/DBN.BMP,WildCard_NonEx,0.284259288,0.011111111,1,0,0,0.6736,optionRight,55,3915,2,32,0,32,0,1,,,,,,,,,,,,,,,,,,,,,,,,,,,,,,,,,,,,,,,
,,,,,,,,2023-08-16_08h41.49.672,HF_wild_card,2022.2.4,Win32,60.09976561,62da689228c4a8004c8d789d,64d2fd46c836a06233681665,64dc7c8eaf21463242e2ed34,,,,,,,sngl,resources/DBN.BMP,resources/Empty.png,WildCard_NonEx,-0.198148134,0.004629601,1,0,0,0.6416,optionLeft,55,3970,2,33,0,33,0,1,,,,,,,,,,,,,,,,,,,,,,,,,,,,,,,,,,,,,,,
,,,,,,,,2023-08-16_08h41.49.672,HF_wild_card,2022.2.4,Win32,60.09976561,62da689228c4a8004c8d789d,64d2fd46c836a06233681665,64dc7c8eaf21463242e2ed34,,,,,,,sngl,resources/DB.BMP,resources/Empty.png,Door3,-0.200925912,0.012962935,1,0,0,0.8155,optionLeft,70,4040,2,34,0,34,0,1,,,,,,,,,,,,,,,,,,,,,,,,,,,,,,,,,,,,,,,
,,,,,,,,2023-08-16_08h41.49.672,HF_wild_card,2022.2.4,Win32,60.09976561,62da689228c4a8004c8d789d,64d2fd46c836a06233681665,64dc7c8eaf21463242e2ed34,,,,,,,decisionTrl,resources/DP.BMP,resources/DG.BMP,Door2,-0.2,-0.014814843,1,0,0,0.7951,optionLeft,40,4080,2,35,0,35,0,1,,,,,,,,,,,,,,,,,,,,,,,,,,,,,,,,,,,,,,,
,,,,,,,,2023-08-16_08h41.49.672,HF_wild_card,2022.2.4,Win32,60.09976561,62da689228c4a8004c8d789d,64d2fd46c836a06233681665,64dc7c8eaf21463242e2ed34,,,,,,,decisionTrl,resources/DG.BMP,resources/DP.BMP,Door2,0.298148176,-0.000925954,1,0,0,0.7478,optionRight,40,4120,2,36,0,36,0,1,,,,,,,,,,,,,,,,,,,,,,,,,,,,,,,,,,,,,,,
,,,,,,,,2023-08-16_08h41.49.672,HF_wild_card,2022.2.4,Win32,60.09976561,62da689228c4a8004c8d789d,64d2fd46c836a06233681665,64dc7c8eaf21463242e2ed34,,,,,,,ctch,resources/DG.BMP,resources/DY.BMP,Door1,-0.284259245,-0.007407422,1,0,0,0.6631,optionLeft,30,4150,2,37,0,37,0,1,,,,,,,,,,,,,,,,,,,,,,,,,,,,,,,,,,,,,,,
,,,,,,,,2023-08-16_08h41.49.672,HF_wild_card,2022.2.4,Win32,60.09976561,62da689228c4a8004c8d789d,64d2fd46c836a06233681665,64dc7c8eaf21463242e2ed34,,,,,,,decisionTrl,resources/DY.BMP,resources/DB.BMP,Door3,0.253703732,0.031481467,1,0,0,0.6807,optionRight,70,4220,2,38,0,38,0,1,,,,,,,,,,,,,,,,,,,,,,,,,,,,,,,,,,,,,,,
,,,,,,,,2023-08-16_08h41.49.672,HF_wild_card,2022.2.4,Win32,60.09976561,62da689228c4a8004c8d789d,64d2fd46c836a06233681665,64dc7c8eaf21463242e2ed34,,,,,,,decisionTrl,resources/DP.BMP,resources/DBN.BMP,Door2,-0.276851824,0.005555556,1,0,0,0.6964,optionLeft,40,4260,2,39,0,39,0,1,,,,,,,,,,,,,,,,,,,,,,,,,,,,,,,,,,,,,,,
,,,,,,,,2023-08-16_08h41.49.672,HF_wild_card,2022.2.4,Win32,60.09976561,62da689228c4a8004c8d789d,64d2fd46c836a06233681665,64dc7c8eaf21463242e2ed34,,,,,,,decisionTrl,resources/DG.BMP,resources/DP.BMP,Door1,-0.232407379,-0.033333333,1,0,0,0.9307,optionLeft,30,4290,2,40,0,40,0,1,,,,,,,,,,,,,,,,,,,,,,,,,,,,,,,,,,,,,,,
,,,,,,,,2023-08-16_08h41.49.672,HF_wild_card,2022.2.4,Win32,60.09976561,62da689228c4a8004c8d789d,64d2fd46c836a06233681665,64dc7c8eaf21463242e2ed34,,,,,,,ctch,resources/DP.BMP,resources/DB.BMP,Door3,0.263888889,-0.001851866,1,0,0,0.8302,optionRight,70,4360,2,41,0,41,0,1,,,,,,,,,,,,,,,,,,,,,,,,,,,,,,,,,,,,,,,
,,,,,,,,2023-08-16_08h41.49.672,HF_wild_card,2022.2.4,Win32,60.09976561,62da689228c4a8004c8d789d,64d2fd46c836a06233681665,64dc7c8eaf21463242e2ed34,,,,,,,decisionTrl,resources/DY.BMP,resources/DB.BMP,Door3,0.172222222,0.008333333,1,0,0,0.5979,optionRight,70,4430,2,42,0,42,0,1,,,,,,,,,,,,,,,,,,,,,,,,,,,,,,,,,,,,,,,
,,,,,,,,2023-08-16_08h41.49.672,HF_wild_card,2022.2.4,Win32,60.09976561,62da689228c4a8004c8d789d,64d2fd46c836a06233681665,64dc7c8eaf21463242e2ed34,,,,,,,sngl,resources/Empty.png,resources/DG.BMP,Door1,0.185185242,0.000925912,1,0,0,0.7485,optionRight,30,4460,2,43,0,43,0,1,,,,,,,,,,,,,,,,,,,,,,,,,,,,,,,,,,,,,,,
,,,,,,,,2023-08-16_08h41.49.672,HF_wild_card,2022.2.4,Win32,60.09976561,62da689228c4a8004c8d789d,64d2fd46c836a06233681665,64dc7c8eaf21463242e2ed34,,,,,,,,,,,,,,,,,,,,,,,,,,1,0,1,0,1,,,,,,,,,,,,,,,,,,,,,,,,,,,,,,,,,,
,,,,,,,,2023-08-16_08h41.49.672,HF_wild_card,2022.2.4,Win32,60.09976561,62da689228c4a8004c8d789d,64d2fd46c836a06233681665,64dc7c8eaf21463242e2ed34,,,,,,,decisionTrl,resources/DBN.BMP,resources/DB.BMP,Door3,0.38148151,0.038888889,1,0,0,0.7602,optionRight,70,4530,3,0,0,0,0,1,,,,,,,,,,,,,,,,,,,,,,,,,,,,,,,,,,,,,,,
,,,,,,,,2023-08-16_08h41.49.672,HF_wild_card,2022.2.4,Win32,60.09976561,62da689228c4a8004c8d789d,64d2fd46c836a06233681665,64dc7c8eaf21463242e2ed34,,,,,,,decisionTrl,resources/DBN.BMP,resources/DP.BMP,Door2,0.175,-0.002777778,1,0,0,1.015,optionRight,40,4570,3,1,0,1,0,1,,,,,,,,,,,,,,,,,,,,,,,,,,,,,,,,,,,,,,,
,,,,,,,,2023-08-16_08h41.49.672,HF_wild_card,2022.2.4,Win32,60.09976561,62da689228c4a8004c8d789d,64d2fd46c836a06233681665,64dc7c8eaf21463242e2ed34,,,,,,,decisionTrl,resources/DG.BMP,resources/DP.BMP,Door1,-0.25370369,0.001851824,1,0,0,1.5314,optionLeft,30,4600,3,2,0,2,0,1,,,,,,,,,,,,,,,,,,,,,,,,,,,,,,,,,,,,,,,
,,,,,,,,2023-08-16_08h41.49.672,HF_wild_card,2022.2.4,Win32,60.09976561,62da689228c4a8004c8d789d,64d2fd46c836a06233681665,64dc7c8eaf21463242e2ed34,,,,,,,decisionTrl,resources/DG.BMP,resources/DP.BMP,Door2,0.33148151,0.038888889,1,0,0,1.2139,optionRight,20,4620,3,3,0,3,0,1,,,,,,,,,,,,,,,,,,,,,,,,,,,,,,,,,,,,,,,
,,,,,,,,2023-08-16_08h41.49.672,HF_wild_card,2022.2.4,Win32,60.09976561,62da689228c4a8004c8d789d,64d2fd46c836a06233681665,64dc7c8eaf21463242e2ed34,,,,,,,decisionTrl,resources/DG.BMP,resources/DP.BMP,Door1,-0.280555556,-0.007407422,1,0,0,0.8296,optionLeft,30,4650,3,4,0,4,0,1,,,,,,,,,,,,,,,,,,,,,,,,,,,,,,,,,,,,,,,
,,,,,,,,2023-08-16_08h41.49.672,HF_wild_card,2022.2.4,Win32,60.09976561,62da689228c4a8004c8d789d,64d2fd46c836a06233681665,64dc7c8eaf21463242e2ed34,,,,,,,sngl,resources/Empty.png,resources/DG.BMP,Door1,0.246296353,0.027777778,1,0,0,0.731,optionRight,30,4680,3,5,0,5,0,1,,,,,,,,,,,,,,,,,,,,,,,,,,,,,,,,,,,,,,,
,,,,,,,,2023-08-16_08h41.49.672,HF_wild_card,2022.2.4,Win32,60.09976561,62da689228c4a8004c8d789d,64d2fd46c836a06233681665,64dc7c8eaf21463242e2ed34,,,,,,,sngl,resources/DP.BMP,resources/Empty.png,Door2,-0.309259245,0.012037023,1,0,0,0.6957,optionLeft,40,4720,3,6,0,6,0,1,,,,,,,,,,,,,,,,,,,,,,,,,,,,,,,,,,,,,,,
,,,,,,,,2023-08-16_08h41.49.672,HF_wild_card,2022.2.4,Win32,60.09976561,62da689228c4a8004c8d789d,64d2fd46c836a06233681665,64dc7c8eaf21463242e2ed34,,,,,,,decisionTrl,resources/DP.BMP,resources/DG.BMP,Door1,0.203703732,0.021296268,1,0,0,0.7153,optionRight,30,4750,3,7,0,7,0,1,,,,,,,,,,,,,,,,,,,,,,,,,,,,,,,,,,,,,,,
,,,,,,,,2023-08-16_08h41.49.672,HF_wild_card,2022.2.4,Win32,60.09976561,62da689228c4a8004c8d789d,64d2fd46c836a06233681665,64dc7c8eaf21463242e2ed34,,,,,,,decisionTrl,resources/DY.BMP,resources/DBN.BMP,WildCard_NonEx,0.184259288,0.019444444,1,0,0,0.7099,optionRight,55,4805,3,8,0,8,0,1,,,,,,,,,,,,,,,,,,,,,,,,,,,,,,,,,,,,,,,
,,,,,,,,2023-08-16_08h41.49.672,HF_wild_card,2022.2.4,Win32,60.09976561,62da689228c4a8004c8d789d,64d2fd46c836a06233681665,64dc7c8eaf21463242e2ed34,,,,,,,sngl,resources/Empty.png,resources/DBN.BMP,WildCard_NonEx,0.259259288,0.035185157,1,0,0,0.6971,optionRight,45,4850,3,9,0,9,0,1,,,,,,,,,,,,,,,,,,,,,,,,,,,,,,,,,,,,,,,
,,,,,,,,2023-08-16_08h41.49.672,HF_wild_card,2022.2.4,Win32,60.09976561,62da689228c4a8004c8d789d,64d2fd46c836a06233681665,64dc7c8eaf21463242e2ed34,,,,,,,decisionTrl,resources/DBN.BMP,resources/DY.BMP,WildCard_NonEx,-0.235185157,0.00370369,1,0,0,0.8633,optionLeft,55,4905,3,10,0,10,0,1,,,,,,,,,,,,,,,,,,,,,,,,,,,,,,,,,,,,,,,
,,,,,,,,2023-08-16_08h41.49.672,HF_wild_card,2022.2.4,Win32,60.09976561,62da689228c4a8004c8d789d,64d2fd46c836a06233681665,64dc7c8eaf21463242e2ed34,,,,,,,decisionTrl,resources/DB.BMP,resources/DY.BMP,Door4,0.214814843,0.023148134,1,0,0,0.7986,optionRight,80,4985,3,11,0,11,0,1,,,,,,,,,,,,,,,,,,,,,,,,,,,,,,,,,,,,,,,
,,,,,,,,2023-08-16_08h41.49.672,HF_wild_card,2022.2.4,Win32,60.09976561,62da689228c4a8004c8d789d,64d2fd46c836a06233681665,64dc7c8eaf21463242e2ed34,,,,,,,decisionTrl,resources/DY.BMP,resources/DB.BMP,Door3,0.237037065,0.023148134,1,0,0,0.6469,optionRight,70,5055,3,12,0,12,0,1,,,,,,,,,,,,,,,,,,,,,,,,,,,,,,,,,,,,,,,
,,,,,,,,2023-08-16_08h41.49.672,HF_wild_card,2022.2.4,Win32,60.09976561,62da689228c4a8004c8d789d,64d2fd46c836a06233681665,64dc7c8eaf21463242e2ed34,,,,,,,ctch,resources/DP.BMP,resources/DB.BMP,Door3,0.251851908,0.022222222,1,0,0,0.7819,optionRight,70,5125,3,13,0,13,0,1,,,,,,,,,,,,,,,,,,,,,,,,,,,,,,,,,,,,,,,
,,,,,,,,2023-08-16_08h41.49.672,HF_wild_card,2022.2.4,Win32,60.09976561,62da689228c4a8004c8d789d,64d2fd46c836a06233681665,64dc7c8eaf21463242e2ed34,,,,,,,ctch,resources/DY.BMP,resources/DG.BMP,Door1,0.265740797,0.012962935,1,0,0,0.7632,optionRight,30,5155,3,14,0,14,0,1,,,,,,,,,,,,,,,,,,,,,,,,,,,,,,,,,,,,,,,
,,,,,,,,2023-08-16_08h41.49.672,HF_wild_card,2022.2.4,Win32,60.09976561,62da689228c4a8004c8d789d,64d2fd46c836a06233681665,64dc7c8eaf21463242e2ed34,,,,,,,decisionTrl,resources/DP.BMP,resources/DG.BMP,Door1,0.184259288,0.031481467,1,0,0,0.6978,optionRight,30,5185,3,15,0,15,0,1,,,,,,,,,,,,,,,,,,,,,,,,,,,,,,,,,,,,,,,
,,,,,,,,2023-08-16_08h41.49.672,HF_wild_card,2022.2.4,Win32,60.09976561,62da689228c4a8004c8d789d,64d2fd46c836a06233681665,64dc7c8eaf21463242e2ed34,,,,,,,sngl,resources/DBN.BMP,resources/Empty.png,WildCard_NonEx,-0.239814801,-0.00648151,1,0,0,0.7978,optionLeft,45,5230,3,16,0,16,0,1,,,,,,,,,,,,,,,,,,,,,,,,,,,,,,,,,,,,,,,
,,,,,,,,2023-08-16_08h41.49.672,HF_wild_card,2022.2.4,Win32,60.09976561,62da689228c4a8004c8d789d,64d2fd46c836a06233681665,64dc7c8eaf21463242e2ed34,,,,,,,decisionTrl,resources/DB.BMP,resources/DBN.BMP,WildCard_NonEx,0.219444444,0.023148134,1,0,0,0.6478,optionRight,45,5275,3,17,0,17,0,1,,,,,,,,,,,,,,,,,,,,,,,,,,,,,,,,,,,,,,,
,,,,,,,,2023-08-16_08h41.49.672,HF_wild_card,2022.2.4,Win32,60.09976561,62da689228c4a8004c8d789d,64d2fd46c836a06233681665,64dc7c8eaf21463242e2ed34,,,,,,,decisionTrl,resources/DP.BMP,resources/DG.BMP,Door1,0.236111111,0.045370356,1,0,0,0.6982,optionRight,30,5305,3,18,0,18,0,1,,,,,,,,,,,,,,,,,,,,,,,,,,,,,,,,,,,,,,,
,,,,,,,,2023-08-16_08h41.49.672,HF_wild_card,2022.2.4,Win32,60.09976561,62da689228c4a8004c8d789d,64d2fd46c836a06233681665,64dc7c8eaf21463242e2ed34,,,,,,,decisionTrl,resources/DY.BMP,resources/DB.BMP,Door3,0.242592621,0.042592578,1,0,0,0.7317,optionRight,70,5375,3,19,0,19,0,1,,,,,,,,,,,,,,,,,,,,,,,,,,,,,,,,,,,,,,,
,,,,,,,,2023-08-16_08h41.49.672,HF_wild_card,2022.2.4,Win32,60.09976561,62da689228c4a8004c8d789d,64d2fd46c836a06233681665,64dc7c8eaf21463242e2ed34,,,,,,,decisionTrl,resources/DB.BMP,resources/DY.BMP,Door4,0.222222222,0.046296268,1,0,0,0.864,optionRight,80,5455,3,20,0,20,0,1,,,,,,,,,,,,,,,,,,,,,,,,,,,,,,,,,,,,,,,
,,,,,,,,2023-08-16_08h41.49.672,HF_wild_card,2022.2.4,Win32,60.09976561,62da689228c4a8004c8d789d,64d2fd46c836a06233681665,64dc7c8eaf21463242e2ed34,,,,,,,sngl,resources/DBN.BMP,resources/Empty.png,WildCard_NonEx,-0.226851824,-0.004629644,1,0,0,0.9157,optionLeft,55,5510,3,21,0,21,0,1,,,,,,,,,,,,,,,,,,,,,,,,,,,,,,,,,,,,,,,
,,,,,,,,2023-08-16_08h41.49.672,HF_wild_card,2022.2.4,Win32,60.09976561,62da689228c4a8004c8d789d,64d2fd46c836a06233681665,64dc7c8eaf21463242e2ed34,,,,,,,ctch,resources/DG.BMP,resources/DY.BMP,Door4,0.188888889,0.027777778,1,0,0,0.7462,optionRight,80,5590,3,22,0,22,0,1,,,,,,,,,,,,,,,,,,,,,,,,,,,,,,,,,,,,,,,
,,,,,,,,2023-08-16_08h41.49.672,HF_wild_card,2022.2.4,Win32,60.09976561,62da689228c4a8004c8d789d,64d2fd46c836a06233681665,64dc7c8eaf21463242e2ed34,,,,,,,sngl,resources/DB.BMP,resources/Empty.png,Door3,-0.146296268,-0.035185199,1,0,0,0.9302,optionLeft,70,5660,3,23,0,23,0,1,,,,,,,,,,,,,,,,,,,,,,,,,,,,,,,,,,,,,,,
,,,,,,,,2023-08-16_08h41.49.672,HF_wild_card,2022.2.4,Win32,60.09976561,62da689228c4a8004c8d789d,64d2fd46c836a06233681665,64dc7c8eaf21463242e2ed34,,,,,,,ctch,resources/DB.BMP,resources/DP.BMP,Door2,0.225,0.048148134,1,0,0,0.763,optionRight,40,5700,3,24,0,24,0,1,,,,,,,,,,,,,,,,,,,,,,,,,,,,,,,,,,,,,,,
,,,,,,,,2023-08-16_08h41.49.672,HF_wild_card,2022.2.4,Win32,60.09976561,62da689228c4a8004c8d789d,64d2fd46c836a06233681665,64dc7c8eaf21463242e2ed34,,,,,,,decisionTrl,resources/DP.BMP,resources/DBN.BMP,WildCard_NonEx,0.223148176,0.036111111,1,0,0,0.8814,optionRight,55,5755,3,25,0,25,0,1,,,,,,,,,,,,,,,,,,,,,,,,,,,,,,,,,,,,,,,
,,,,,,,,2023-08-16_08h41.49.672,HF_wild_card,2022.2.4,Win32,60.09976561,62da689228c4a8004c8d789d,64d2fd46c836a06233681665,64dc7c8eaf21463242e2ed34,,,,,,,decisionTrl,resources/DB.BMP,resources/DY.BMP,Door4,0.260185242,0.084259245,1,0,0,0.7969,optionRight,60,5815,3,26,0,26,0,1,,,,,,,,,,,,,,,,,,,,,,,,,,,,,,,,,,,,,,,
,,,,,,,,2023-08-16_08h41.49.672,HF_wild_card,2022.2.4,Win32,60.09976561,62da689228c4a8004c8d789d,64d2fd46c836a06233681665,64dc7c8eaf21463242e2ed34,,,,,,,decisionTrl,resources/DY.BMP,resources/DB.BMP,Door3,0.25,0.034259245,1,0,0,0.6318,optionRight,70,5885,3,27,0,27,0,1,,,,,,,,,,,,,,,,,,,,,,,,,,,,,,,,,,,,,,,
,,,,,,,,2023-08-16_08h41.49.672,HF_wild_card,2022.2.4,Win32,60.09976561,62da689228c4a8004c8d789d,64d2fd46c836a06233681665,64dc7c8eaf21463242e2ed34,,,,,,,decisionTrl,resources/DY.BMP,resources/DB.BMP,Door3,0.269444444,0.055555556,1,0,0,0.7483,optionRight,70,5955,3,28,0,28,0,1,,,,,,,,,,,,,,,,,,,,,,,,,,,,,,,,,,,,,,,
,,,,,,,,2023-08-16_08h41.49.672,HF_wild_card,2022.2.4,Win32,60.09976561,62da689228c4a8004c8d789d,64d2fd46c836a06233681665,64dc7c8eaf21463242e2ed34,,,,,,,sngl,resources/DY.BMP,resources/Empty.png,Door4,-0.261111111,-0.001851866,1,0,0,0.6983,optionLeft,80,6035,3,29,0,29,0,1,,,,,,,,,,,,,,,,,,,,,,,,,,,,,,,,,,,,,,,
,,,,,,,,2023-08-16_08h41.49.672,HF_wild_card,2022.2.4,Win32,60.09976561,62da689228c4a8004c8d789d,64d2fd46c836a06233681665,64dc7c8eaf21463242e2ed34,,,,,,,sngl,resources/DG.BMP,resources/Empty.png,Door1,-0.157407379,0.016666667,1,0,0,0.6808,optionLeft,30,6065,3,30,0,30,0,1,,,,,,,,,,,,,,,,,,,,,,,,,,,,,,,,,,,,,,,
,,,,,,,,2023-08-16_08h41.49.672,HF_wild_card,2022.2.4,Win32,60.09976561,62da689228c4a8004c8d789d,64d2fd46c836a06233681665,64dc7c8eaf21463242e2ed34,,,,,,,ctch,resources/DB.BMP,resources/DP.BMP,Door2,0.299074131,0.020370356,1,0,0,0.7813,optionRight,40,6105,3,31,0,31,0,1,,,,,,,,,,,,,,,,,,,,,,,,,,,,,,,,,,,,,,,
,,,,,,,,2023-08-16_08h41.49.672,HF_wild_card,2022.2.4,Win32,60.09976561,62da689228c4a8004c8d789d,64d2fd46c836a06233681665,64dc7c8eaf21463242e2ed34,,,,,,,decisionTrl,resources/DG.BMP,resources/DBN.BMP,WildCard_NonEx,0.188888889,0,1,0,0,0.9639,optionRight,45,6150,3,32,0,32,0,1,,,,,,,,,,,,,,,,,,,,,,,,,,,,,,,,,,,,,,,
,,,,,,,,2023-08-16_08h41.49.672,HF_wild_card,2022.2.4,Win32,60.09976561,62da689228c4a8004c8d789d,64d2fd46c836a06233681665,64dc7c8eaf21463242e2ed34,,,,,,,decisionTrl,resources/DB.BMP,resources/DY.BMP,Door4,0.187037065,0.007407379,1,0,0,0.765,optionRight,80,6230,3,33,0,33,0,1,,,,,,,,,,,,,,,,,,,,,,,,,,,,,,,,,,,,,,,
,,,,,,,,2023-08-16_08h41.49.672,HF_wild_card,2022.2.4,Win32,60.09976561,62da689228c4a8004c8d789d,64d2fd46c836a06233681665,64dc7c8eaf21463242e2ed34,,,,,,,decisionTrl,resources/DP.BMP,resources/DG.BMP,Door1,0.201851908,0.037962935,1,0,0,0.697,optionRight,30,6260,3,34,0,34,0,1,,,,,,,,,,,,,,,,,,,,,,,,,,,,,,,,,,,,,,,
,,,,,,,,2023-08-16_08h41.49.672,HF_wild_card,2022.2.4,Win32,60.09976561,62da689228c4a8004c8d789d,64d2fd46c836a06233681665,64dc7c8eaf21463242e2ed34,,,,,,,sngl,resources/Empty.png,resources/DP.BMP,Door2,0.249074131,0.050925912,1,0,0,0.6315,optionRight,20,6280,3,35,0,35,0,1,,,,,,,,,,,,,,,,,,,,,,,,,,,,,,,,,,,,,,,
,,,,,,,,2023-08-16_08h41.49.672,HF_wild_card,2022.2.4,Win32,60.09976561,62da689228c4a8004c8d789d,64d2fd46c836a06233681665,64dc7c8eaf21463242e2ed34,,,,,,,sngl,resources/Empty.png,resources/DBN.BMP,WildCard_NonEx,0.179629686,0.012962935,1,0,0,0.7822,optionRight,55,6335,3,36,0,36,0,1,,,,,,,,,,,,,,,,,,,,,,,,,,,,,,,,,,,,,,,
,,,,,,,,2023-08-16_08h41.49.672,HF_wild_card,2022.2.4,Win32,60.09976561,62da689228c4a8004c8d789d,64d2fd46c836a06233681665,64dc7c8eaf21463242e2ed34,,,,,,,ctch,resources/DY.BMP,resources/DG.BMP,Door1,0.204629686,0.030555556,1,0,0,0.6661,optionRight,30,6365,3,37,0,37,0,1,,,,,,,,,,,,,,,,,,,,,,,,,,,,,,,,,,,,,,,
,,,,,,,,2023-08-16_08h41.49.672,HF_wild_card,2022.2.4,Win32,60.09976561,62da689228c4a8004c8d789d,64d2fd46c836a06233681665,64dc7c8eaf21463242e2ed34,,,,,,,ctch,resources/DG.BMP,resources/DY.BMP,Door1,-0.20370369,0.00370369,1,0,0,0.6971,optionLeft,30,6395,3,38,0,38,0,1,,,,,,,,,,,,,,,,,,,,,,,,,,,,,,,,,,,,,,,
,,,,,,,,2023-08-16_08h41.49.672,HF_wild_card,2022.2.4,Win32,60.09976561,62da689228c4a8004c8d789d,64d2fd46c836a06233681665,64dc7c8eaf21463242e2ed34,,,,,,,sngl,resources/Empty.png,resources/DB.BMP,Door3,0.161111111,0.017592578,1,0,0,0.6476,optionRight,70,6465,3,39,0,39,0,1,,,,,,,,,,,,,,,,,,,,,,,,,,,,,,,,,,,,,,,
,,,,,,,,2023-08-16_08h41.49.672,HF_wild_card,2022.2.4,Win32,60.09976561,62da689228c4a8004c8d789d,64d2fd46c836a06233681665,64dc7c8eaf21463242e2ed34,,,,,,,sngl,resources/Empty.png,resources/DY.BMP,Door4,0.162037065,0.015740712,1,0,0,0.6989,optionRight,60,6525,3,40,0,40,0,1,,,,,,,,,,,,,,,,,,,,,,,,,,,,,,,,,,,,,,,
,,,,,,,,2023-08-16_08h41.49.672,HF_wild_card,2022.2.4,Win32,60.09976561,62da689228c4a8004c8d789d,64d2fd46c836a06233681665,64dc7c8eaf21463242e2ed34,,,,,,,decisionTrl,resources/DBN.BMP,resources/DG.BMP,Door1,0.177777778,0.005555556,1,0,0,0.9478,optionRight,30,6555,3,41,0,41,0,1,,,,,,,,,,,,,,,,,,,,,,,,,,,,,,,,,,,,,,,
,,,,,,,,2023-08-16_08h41.49.672,HF_wild_card,2022.2.4,Win32,60.09976561,62da689228c4a8004c8d789d,64d2fd46c836a06233681665,64dc7c8eaf21463242e2ed34,,,,,,,ctch,resources/DP.BMP,resources/DB.BMP,Door2,-0.169444444,0.012037023,1,0,0,0.6462,optionLeft,40,6595,3,42,0,42,0,1,,,,,,,,,,,,,,,,,,,,,,,,,,,,,,,,,,,,,,,
,,,,,,,,2023-08-16_08h41.49.672,HF_wild_card,2022.2.4,Win32,60.09976561,62da689228c4a8004c8d789d,64d2fd46c836a06233681665,64dc7c8eaf21463242e2ed34,,,,,,,decisionTrl,resources/DG.BMP,resources/DP.BMP,Door2,0.195370399,0.035185157,1,0,0,0.7782,optionRight,40,6635,3,43,0,43,0,1,,,,,,,,,,,,,,,,,,,,,,,,,,,,,,,,,,,,,,,
,,,,,,,,2023-08-16_08h41.49.672,HF_wild_card,2022.2.4,Win32,60.09976561,62da689228c4a8004c8d789d,64d2fd46c836a06233681665,64dc7c8eaf21463242e2ed34,,,,,,,,,,,,,,,,,,,,,,,,,,2,0,2,0,1,,,,,,,,,,,,,,,,,,,,,,,,,,,,,,,,,,
,,,,,,,,2023-08-16_08h41.49.672,HF_wild_card,2022.2.4,Win32,60.09976561,62da689228c4a8004c8d789d,64d2fd46c836a06233681665,64dc7c8eaf21463242e2ed34,,,,,,,decisionTrl,resources/DB.BMP,resources/DY.BMP,Door4,0.212963019,-0.069444444,1,0,0,0.8112,optionRight,80,6715,4,0,0,0,0,1,,,,,,,,,,,,,,,,,,,,,,,,,,,,,,,,,,,,,,,
,,,,,,,,2023-08-16_08h41.49.672,HF_wild_card,2022.2.4,Win32,60.09976561,62da689228c4a8004c8d789d,64d2fd46c836a06233681665,64dc7c8eaf21463242e2ed34,,,,,,,decisionTrl,resources/DG.BMP,resources/DP.BMP,Door2,0.155555556,0.033333333,1,0,0,0.6147,optionRight,40,6755,4,1,0,1,0,1,,,,,,,,,,,,,,,,,,,,,,,,,,,,,,,,,,,,,,,
,,,,,,,,2023-08-16_08h41.49.672,HF_wild_card,2022.2.4,Win32,60.09976561,62da689228c4a8004c8d789d,64d2fd46c836a06233681665,64dc7c8eaf21463242e2ed34,,,,,,,decisionTrl,resources/DB.BMP,resources/DY.BMP,Door3,-0.216666667,0,1,0,0,0.6793,optionLeft,70,6825,4,2,0,2,0,1,,,,,,,,,,,,,,,,,,,,,,,,,,,,,,,,,,,,,,,
,,,,,,,,2023-08-16_08h41.49.672,HF_wild_card,2022.2.4,Win32,60.09976561,62da689228c4a8004c8d789d,64d2fd46c836a06233681665,64dc7c8eaf21463242e2ed34,,,,,,,sngl,resources/DP.BMP,resources/Empty.png,Door2,-0.217592578,0.011111111,1,0,0,0.6323,optionLeft,20,6845,4,3,0,3,0,1,,,,,,,,,,,,,,,,,,,,,,,,,,,,,,,,,,,,,,,
,,,,,,,,2023-08-16_08h41.49.672,HF_wild_card,2022.2.4,Win32,60.09976561,62da689228c4a8004c8d789d,64d2fd46c836a06233681665,64dc7c8eaf21463242e2ed34,,,,,,,sngl,resources/Empty.png,resources/DP.BMP,Door2,0.242592621,0.025,1,0,0,0.5624,optionRight,40,6885,4,4,0,4,0,1,,,,,,,,,,,,,,,,,,,,,,,,,,,,,,,,,,,,,,,
,,,,,,,,2023-08-16_08h41.49.672,HF_wild_card,2022.2.4,Win32,60.09976561,62da689228c4a8004c8d789d,64d2fd46c836a06233681665,64dc7c8eaf21463242e2ed34,,,,,,,decisionTrl,resources/DP.BMP,resources/DG.BMP,Door1,0.287037065,-0.000925954,1,0,0,1.3472,optionRight,30,6915,4,5,0,5,0,1,,,,,,,,,,,,,,,,,,,,,,,,,,,,,,,,,,,,,,,
,,,,,,,,2023-08-16_08h41.49.672,HF_wild_card,2022.2.4,Win32,60.09976561,62da689228c4a8004c8d789d,64d2fd46c836a06233681665,64dc7c8eaf21463242e2ed34,,,,,,,sngl,resources/Empty.png,resources/DR.BMP,WildCard_Ex,0.160185242,0.019444444,1,0,0,0.8141,optionRight,55,6970,4,6,0,6,0,1,,,,,,,,,,,,,,,,,,,,,,,,,,,,,,,,,,,,,,,
,,,,,,,,2023-08-16_08h41.49.672,HF_wild_card,2022.2.4,Win32,60.09976561,62da689228c4a8004c8d789d,64d2fd46c836a06233681665,64dc7c8eaf21463242e2ed34,,,,,,,sngl,resources/Empty.png,resources/DB.BMP,Door3,0.212037065,0.008333333,1,0,0,0.8151,optionRight,70,7040,4,7,0,7,0,1,,,,,,,,,,,,,,,,,,,,,,,,,,,,,,,,,,,,,,,
,,,,,,,,2023-08-16_08h41.49.672,HF_wild_card,2022.2.4,Win32,60.09976561,62da689228c4a8004c8d789d,64d2fd46c836a06233681665,64dc7c8eaf21463242e2ed34,,,,,,,sngl,resources/Empty.png,resources/DR.BMP,WildCard_Ex,0.158333333,0.000925912,1,0,0,0.7981,optionRight,45,7085,4,8,0,8,0,1,,,,,,,,,,,,,,,,,,,,,,,,,,,,,,,,,,,,,,,
,,,,,,,,2023-08-16_08h41.49.672,HF_wild_card,2022.2.4,Win32,60.09976561,62da689228c4a8004c8d789d,64d2fd46c836a06233681665,64dc7c8eaf21463242e2ed34,,,,,,,sngl,resources/DR.BMP,resources/Empty.png,WildCard_Ex,-0.195370356,0.010185157,1,0,0,0.6969,optionLeft,45,7130,4,9,0,9,0,1,,,,,,,,,,,,,,,,,,,,,,,,,,,,,,,,,,,,,,,
,,,,,,,,2023-08-16_08h41.49.672,HF_wild_card,2022.2.4,Win32,60.09976561,62da689228c4a8004c8d789d,64d2fd46c836a06233681665,64dc7c8eaf21463242e2ed34,,,,,,,ctch,resources/DP.BMP,resources/DB.BMP,Door2,-0.175,0.005555556,1,0,0,0.9298,optionLeft,40,7170,4,10,0,10,0,1,,,,,,,,,,,,,,,,,,,,,,,,,,,,,,,,,,,,,,,
,,,,,,,,2023-08-16_08h41.49.672,HF_wild_card,2022.2.4,Win32,60.09976561,62da689228c4a8004c8d789d,64d2fd46c836a06233681665,64dc7c8eaf21463242e2ed34,,,,,,,decisionTrl,resources/DP.BMP,resources/DG.BMP,Door1,0.159259288,0.021296268,1,0,0,0.7138,optionRight,30,7200,4,11,0,11,0,1,,,,,,,,,,,,,,,,,,,,,,,,,,,,,,,,,,,,,,,
,,,,,,,,2023-08-16_08h41.49.672,HF_wild_card,2022.2.4,Win32,60.09976561,62da689228c4a8004c8d789d,64d2fd46c836a06233681665,64dc7c8eaf21463242e2ed34,,,,,,,decisionTrl,resources/DG.BMP,resources/DP.BMP,Door1,-0.41851849,0.075925912,1,0,0,0.531,optionLeft,30,7230,4,12,0,12,0,1,,,,,,,,,,,,,,,,,,,,,,,,,,,,,,,,,,,,,,,
,,,,,,,,2023-08-16_08h41.49.672,HF_wild_card,2022.2.4,Win32,60.09976561,62da689228c4a8004c8d789d,64d2fd46c836a06233681665,64dc7c8eaf21463242e2ed34,,,,,,,ctch,resources/DB.BMP,resources/DP.BMP,Door2,0.225925954,-0.025,1,0,0,0.4985,optionRight,40,7270,4,13,0,13,0,1,,,,,,,,,,,,,,,,,,,,,,,,,,,,,,,,,,,,,,,
,,,,,,,,2023-08-16_08h41.49.672,HF_wild_card,2022.2.4,Win32,60.09976561,62da689228c4a8004c8d789d,64d2fd46c836a06233681665,64dc7c8eaf21463242e2ed34,,,,,,,decisionTrl,resources/DB.BMP,resources/DR.BMP,Door3,-0.398148134,0.163888889,1,0,0,0.3629,optionLeft,70,7340,4,14,0,14,0,1,,,,,,,,,,,,,,,,,,,,,,,,,,,,,,,,,,,,,,,
,,,,,,,,2023-08-16_08h41.49.672,HF_wild_card,2022.2.4,Win32,60.09976561,62da689228c4a8004c8d789d,64d2fd46c836a06233681665,64dc7c8eaf21463242e2ed34,,,,,,,decisionTrl,resources/DY.BMP,resources/DB.BMP,Door4,-0.420370356,0.176851845,1,0,0,0.4299,optionLeft,80,7420,4,15,0,15,0,1,,,,,,,,,,,,,,,,,,,,,,,,,,,,,,,,,,,,,,,
,,,,,,,,2023-08-16_08h41.49.672,HF_wild_card,2022.2.4,Win32,60.09976561,62da689228c4a8004c8d789d,64d2fd46c836a06233681665,64dc7c8eaf21463242e2ed34,,,,,,,decisionTrl,resources/DG.BMP,resources/DP.BMP,Door1,-0.451851824,0.180555556,1,0,0,0.3645,optionLeft,30,7450,4,16,0,16,0,1,,,,,,,,,,,,,,,,,,,,,,,,,,,,,,,,,,,,,,,
,,,,,,,,2023-08-16_08h41.49.672,HF_wild_card,2022.2.4,Win32,60.09976561,62da689228c4a8004c8d789d,64d2fd46c836a06233681665,64dc7c8eaf21463242e2ed34,,,,,,,decisionTrl,resources/DP.BMP,resources/DG.BMP,Door1,0.286111111,-0.047222222,1,0,0,0.4484,optionRight,30,7480,4,17,0,17,0,1,,,,,,,,,,,,,,,,,,,,,,,,,,,,,,,,,,,,,,,
,,,,,,,,2023-08-16_08h41.49.672,HF_wild_card,2022.2.4,Win32,60.09976561,62da689228c4a8004c8d789d,64d2fd46c836a06233681665,64dc7c8eaf21463242e2ed34,,,,,,,sngl,resources/Empty.png,resources/DG.BMP,Door1,0.270370399,-0.047222222,1,0,0,0.5818,optionRight,30,7510,4,18,0,18,0,1,,,,,,,,,,,,,,,,,,,,,,,,,,,,,,,,,,,,,,,
,,,,,,,,2023-08-16_08h41.49.672,HF_wild_card,2022.2.4,Win32,60.09976561,62da689228c4a8004c8d789d,64d2fd46c836a06233681665,64dc7c8eaf21463242e2ed34,,,,,,,decisionTrl,resources/DY.BMP,resources/DB.BMP,Door4,-0.387037023,0.179629623,1,0,0,0.4146,optionLeft,80,7590,4,19,0,19,0,1,,,,,,,,,,,,,,,,,,,,,,,,,,,,,,,,,,,,,,,
,,,,,,,,2023-08-16_08h41.49.672,HF_wild_card,2022.2.4,Win32,60.09976561,62da689228c4a8004c8d789d,64d2fd46c836a06233681665,64dc7c8eaf21463242e2ed34,,,,,,,decisionTrl,resources/DY.BMP,resources/DB.BMP,Door4,-0.473148134,0.194444444,1,0,0,0.3472,optionLeft,60,7650,4,20,0,20,0,1,,,,,,,,,,,,,,,,,,,,,,,,,,,,,,,,,,,,,,,
,,,,,,,,2023-08-16_08h41.49.672,HF_wild_card,2022.2.4,Win32,60.09976561,62da689228c4a8004c8d789d,64d2fd46c836a06233681665,64dc7c8eaf21463242e2ed34,,,,,,,ctch,resources/DG.BMP,resources/DY.BMP,Door1,-0.484259245,0.195370356,1,0,0,0.381,optionLeft,30,7680,4,21,0,21,0,1,,,,,,,,,,,,,,,,,,,,,,,,,,,,,,,,,,,,,,,
,,,,,,,,2023-08-16_08h41.49.672,HF_wild_card,2022.2.4,Win32,60.09976561,62da689228c4a8004c8d789d,64d2fd46c836a06233681665,64dc7c8eaf21463242e2ed34,,,,,,,sngl,resources/DR.BMP,resources/Empty.png,WildCard_Ex,-0.427777778,0.183333333,1,0,0,0.3648,optionLeft,55,7735,4,22,0,22,0,1,,,,,,,,,,,,,,,,,,,,,,,,,,,,,,,,,,,,,,,
,,,,,,,,2023-08-16_08h41.49.672,HF_wild_card,2022.2.4,Win32,60.09976561,62da689228c4a8004c8d789d,64d2fd46c836a06233681665,64dc7c8eaf21463242e2ed34,,,,,,,decisionTrl,resources/DB.BMP,resources/DY.BMP,Door3,-0.449074046,0.176851845,1,0,0,0.4314,optionLeft,70,7805,4,23,0,23,0,1,,,,,,,,,,,,,,,,,,,,,,,,,,,,,,,,,,,,,,,
,,,,,,,,2023-08-16_08h41.49.672,HF_wild_card,2022.2.4,Win32,60.09976561,62da689228c4a8004c8d789d,64d2fd46c836a06233681665,64dc7c8eaf21463242e2ed34,,,,,,,sngl,resources/DG.BMP,resources/Empty.png,Door1,-0.50370369,0.184259245,1,0,0,0.3972,optionLeft,30,7835,4,24,0,24,0,1,,,,,,,,,,,,,,,,,,,,,,,,,,,,,,,,,,,,,,,
,,,,,,,,2023-08-16_08h41.49.672,HF_wild_card,2022.2.4,Win32,60.09976561,62da689228c4a8004c8d789d,64d2fd46c836a06233681665,64dc7c8eaf21463242e2ed34,,,,,,,ctch,resources/DB.BMP,resources/DP.BMP,Door3,-0.51851849,0.185185178,1,0,0,0.4652,optionLeft,70,7905,4,25,0,25,0,1,,,,,,,,,,,,,,,,,,,,,,,,,,,,,,,,,,,,,,,
,,,,,,,,2023-08-16_08h41.49.672,HF_wild_card,2022.2.4,Win32,60.09976561,62da689228c4a8004c8d789d,64d2fd46c836a06233681665,64dc7c8eaf21463242e2ed34,,,,,,,ctch,resources/DY.BMP,resources/DG.BMP,Door4,-0.510185157,0.185185178,1,0,0,0.3987,optionLeft,60,7965,4,26,0,26,0,1,,,,,,,,,,,,,,,,,,,,,,,,,,,,,,,,,,,,,,,
,,,,,,,,2023-08-16_08h41.49.672,HF_wild_card,2022.2.4,Win32,60.09976561,62da689228c4a8004c8d789d,64d2fd46c836a06233681665,64dc7c8eaf21463242e2ed34,,,,,,,ctch,resources/DY.BMP,resources/DG.BMP,Door4,-0.510185157,0.189814801,1,0,0,0.393,optionLeft,60,8025,4,27,0,27,0,1,,,,,,,,,,,,,,,,,,,,,,,,,,,,,,,,,,,,,,,
,,,,,,,,2023-08-16_08h41.49.672,HF_wild_card,2022.2.4,Win32,60.09976561,62da689228c4a8004c8d789d,64d2fd46c836a06233681665,64dc7c8eaf21463242e2ed34,,,,,,,ctch,resources/DP.BMP,resources/DB.BMP,Door2,-0.480555556,0.187962956,1,0,0,0.3593,optionLeft,20,8045,4,28,0,28,0,1,,,,,,,,,,,,,,,,,,,,,,,,,,,,,,,,,,,,,,,
,,,,,,,,2023-08-16_08h41.49.672,HF_wild_card,2022.2.4,Win32,60.09976561,62da689228c4a8004c8d789d,64d2fd46c836a06233681665,64dc7c8eaf21463242e2ed34,,,,,,,decisionTrl,resources/DB.BMP,resources/DY.BMP,Door4,0.184259288,-0.099074088,1,0,0,0.5947,optionRight,60,8105,4,29,0,29,0,1,,,,,,,,,,,,,,,,,,,,,,,,,,,,,,,,,,,,,,,
,,,,,,,,2023-08-16_08h41.49.672,HF_wild_card,2022.2.4,Win32,60.09976561,62da689228c4a8004c8d789d,64d2fd46c836a06233681665,64dc7c8eaf21463242e2ed34,,,,,,,decisionTrl,resources/DG.BMP,resources/DP.BMP,Door2,0.235185242,-0.115740755,1,0,0,0.5803,optionRight,40,8145,4,30,0,30,0,1,,,,,,,,,,,,,,,,,,,,,,,,,,,,,,,,,,,,,,,
,,,,,,,,2023-08-16_08h41.49.672,HF_wild_card,2022.2.4,Win32,60.09976561,62da689228c4a8004c8d789d,64d2fd46c836a06233681665,64dc7c8eaf21463242e2ed34,,,,,,,sngl,resources/DY.BMP,resources/Empty.png,Door4,-0.456481467,0.196296289,1,0,0,0.3312,optionLeft,60,8205,4,31,0,31,0,1,,,,,,,,,,,,,,,,,,,,,,,,,,,,,,,,,,,,,,,
,,,,,,,,2023-08-16_08h41.49.672,HF_wild_card,2022.2.4,Win32,60.09976561,62da689228c4a8004c8d789d,64d2fd46c836a06233681665,64dc7c8eaf21463242e2ed34,,,,,,,decisionTrl,resources/DP.BMP,resources/DG.BMP,Door2,-0.508333333,0.2,1,0,0,0.3653,optionLeft,20,8225,4,32,0,32,0,1,,,,,,,,,,,,,,,,,,,,,,,,,,,,,,,,,,,,,,,
,,,,,,,,2023-08-16_08h41.49.672,HF_wild_card,2022.2.4,Win32,60.09976561,62da689228c4a8004c8d789d,64d2fd46c836a06233681665,64dc7c8eaf21463242e2ed34,,,,,,,decisionTrl,resources/DP.BMP,resources/DR.BMP,Door2,-0.476851824,0.198148134,1,0,0,0.3308,optionLeft,40,8265,4,33,0,33,0,1,,,,,,,,,,,,,,,,,,,,,,,,,,,,,,,,,,,,,,,
,,,,,,,,2023-08-16_08h41.49.672,HF_wild_card,2022.2.4,Win32,60.09976561,62da689228c4a8004c8d789d,64d2fd46c836a06233681665,64dc7c8eaf21463242e2ed34,,,,,,,decisionTrl,resources/DR.BMP,resources/DB.BMP,WildCard_Ex,-0.466666667,0.2,1,0,0,0.3814,optionLeft,45,8310,4,34,0,34,0,1,,,,,,,,,,,,,,,,,,,,,,,,,,,,,,,,,,,,,,,
,,,,,,,,2023-08-16_08h41.49.672,HF_wild_card,2022.2.4,Win32,60.09976561,62da689228c4a8004c8d789d,64d2fd46c836a06233681665,64dc7c8eaf21463242e2ed34,,,,,,,decisionTrl,resources/DR.BMP,resources/DG.BMP,WildCard_Ex,-0.486111111,0.200925912,1,0,0,0.3484,optionLeft,55,8365,4,35,0,35,0,1,,,,,,,,,,,,,,,,,,,,,,,,,,,,,,,,,,,,,,,
,,,,,,,,2023-08-16_08h41.49.672,HF_wild_card,2022.2.4,Win32,60.09976561,62da689228c4a8004c8d789d,64d2fd46c836a06233681665,64dc7c8eaf21463242e2ed34,,,,,,,decisionTrl,resources/DY.BMP,resources/DR.BMP,Door4,-0.289814801,0.156481467,1,0,0,0.614,optionLeft,80,8445,4,36,0,36,0,1,,,,,,,,,,,,,,,,,,,,,,,,,,,,,,,,,,,,,,,
,,,,,,,,2023-08-16_08h41.49.672,HF_wild_card,2022.2.4,Win32,60.09976561,62da689228c4a8004c8d789d,64d2fd46c836a06233681665,64dc7c8eaf21463242e2ed34,,,,,,,decisionTrl,resources/DG.BMP,resources/DR.BMP,Door1,-0.487962935,0.197222222,1,0,0,0.4116,optionLeft,30,8475,4,37,0,37,0,1,,,,,,,,,,,,,,,,,,,,,,,,,,,,,,,,,,,,,,,
,,,,,,,,2023-08-16_08h41.49.672,HF_wild_card,2022.2.4,Win32,60.09976561,62da689228c4a8004c8d789d,64d2fd46c836a06233681665,64dc7c8eaf21463242e2ed34,,,,,,,decisionTrl,resources/DR.BMP,resources/DY.BMP,Door4,0.303703732,-0.015740755,1,0,0,0.5295,optionRight,60,8535,4,38,0,38,0,1,,,,,,,,,,,,,,,,,,,,,,,,,,,,,,,,,,,,,,,
,,,,,,,,2023-08-16_08h41.49.672,HF_wild_card,2022.2.4,Win32,60.09976561,62da689228c4a8004c8d789d,64d2fd46c836a06233681665,64dc7c8eaf21463242e2ed34,,,,,,,sngl,resources/Empty.png,resources/DY.BMP,Door4,0.282407464,-0.028703732,1,0,0,0.5481,optionRight,80,8615,4,39,0,39,0,1,,,,,,,,,,,,,,,,,,,,,,,,,,,,,,,,,,,,,,,
,,,,,,,,2023-08-16_08h41.49.672,HF_wild_card,2022.2.4,Win32,60.09976561,62da689228c4a8004c8d789d,64d2fd46c836a06233681665,64dc7c8eaf21463242e2ed34,,,,,,,sngl,resources/DB.BMP,resources/Empty.png,Door3,-0.269444444,0.2,1,0,0,0.5321,optionLeft,70,8685,4,40,0,40,0,1,,,,,,,,,,,,,,,,,,,,,,,,,,,,,,,,,,,,,,,
,,,,,,,,2023-08-16_08h41.49.672,HF_wild_card,2022.2.4,Win32,60.09976561,62da689228c4a8004c8d789d,64d2fd46c836a06233681665,64dc7c8eaf21463242e2ed34,,,,,,,decisionTrl,resources/DR.BMP,resources/DP.BMP,WildCard_Ex,-0.477777778,0.214814801,1,0,0,0.365,optionLeft,45,8730,4,41,0,41,0,1,,,,,,,,,,,,,,,,,,,,,,,,,,,,,,,,,,,,,,,
,,,,,,,,2023-08-16_08h41.49.672,HF_wild_card,2022.2.4,Win32,60.09976561,62da689228c4a8004c8d789d,64d2fd46c836a06233681665,64dc7c8eaf21463242e2ed34,,,,,,,ctch,resources/DG.BMP,resources/DY.BMP,Door4,0.322222222,-0.025,1,0,0,1.865,optionRight,80,8810,4,42,0,42,0,1,,,,,,,,,,,,,,,,,,,,,,,,,,,,,,,,,,,,,,,
,,,,,,,,2023-08-16_08h41.49.672,HF_wild_card,2022.2.4,Win32,60.09976561,62da689228c4a8004c8d789d,64d2fd46c836a06233681665,64dc7c8eaf21463242e2ed34,,,,,,,decisionTrl,resources/DY.BMP,resources/DB.BMP,Door4,-0.349074046,0.204629623,1,0,0,0.7294,optionLeft,80,8890,4,43,0,43,0,1,,,,,,,,,,,,,,,,,,,,,,,,,,,,,,,,,,,,,,,
,,,,,,,,2023-08-16_08h41.49.672,HF_wild_card,2022.2.4,Win32,60.09976561,62da689228c4a8004c8d789d,64d2fd46c836a06233681665,64dc7c8eaf21463242e2ed34,,,,,,,,,,,,,,,,,,,,,,,,,,3,0,3,0,1,,,,,,,,,,,,,,,,,,,,,,,,,,,,,,,,,,
,,,,,,,,2023-08-16_08h41.49.672,HF_wild_card,2022.2.4,Win32,60.09976561,62da689228c4a8004c8d789d,64d2fd46c836a06233681665,64dc7c8eaf21463242e2ed34,,,,,,,decisionTrl,resources/DB.BMP,resources/DY.BMP,Door4,0.161111111,-0.134259288,1,0,0,0.8241,optionRight,60,8950,5,0,0,0,0,1,,,,,,,,,,,,,,,,,,,,,,,,,,,,,,,,,,,,,,,
,,,,,,,,2023-08-16_08h41.49.672,HF_wild_card,2022.2.4,Win32,60.09976561,62da689228c4a8004c8d789d,64d2fd46c836a06233681665,64dc7c8eaf21463242e2ed34,,,,,,,ctch,resources/DP.BMP,resources/DB.BMP,Door2,-0.449074046,0.162037023,1,0,0,0.3133,optionLeft,40,8990,5,1,0,1,0,1,,,,,,,,,,,,,,,,,,,,,,,,,,,,,,,,,,,,,,,
,,,,,,,,2023-08-16_08h41.49.672,HF_wild_card,2022.2.4,Win32,60.09976561,62da689228c4a8004c8d789d,64d2fd46c836a06233681665,64dc7c8eaf21463242e2ed34,,,,,,,decisionTrl,resources/DG.BMP,resources/DP.BMP,Door1,-0.508333333,0.206481467,1,0,0,0.3981,optionLeft,30,9020,5,2,0,2,0,1,,,,,,,,,,,,,,,,,,,,,,,,,,,,,,,,,,,,,,,
,,,,,,,,2023-08-16_08h41.49.672,HF_wild_card,2022.2.4,Win32,60.09976561,62da689228c4a8004c8d789d,64d2fd46c836a06233681665,64dc7c8eaf21463242e2ed34,,,,,,,decisionTrl,resources/DP.BMP,resources/DG.BMP,Door1,0.254629686,-0.00648151,1,0,0,0.5472,optionRight,30,9050,5,3,0,3,0,1,,,,,,,,,,,,,,,,,,,,,,,,,,,,,,,,,,,,,,,
,,,,,,,,2023-08-16_08h41.49.672,HF_wild_card,2022.2.4,Win32,60.09976561,62da689228c4a8004c8d789d,64d2fd46c836a06233681665,64dc7c8eaf21463242e2ed34,,,,,,,decisionTrl,resources/DR.BMP,resources/DB.BMP,WildCard_Ex,-0.467592578,0.221296289,1,0,0,0.315,optionLeft,45,9095,5,4,0,4,0,1,,,,,,,,,,,,,,,,,,,,,,,,,,,,,,,,,,,,,,,
,,,,,,,,2023-08-16_08h41.49.672,HF_wild_card,2022.2.4,Win32,60.09976561,62da689228c4a8004c8d789d,64d2fd46c836a06233681665,64dc7c8eaf21463242e2ed34,,,,,,,decisionTrl,resources/DR.BMP,resources/DP.BMP,WildCard_Ex,-0.522222222,0.221296289,1,0,0,0.3814,optionLeft,45,9140,5,5,0,5,0,1,,,,,,,,,,,,,,,,,,,,,,,,,,,,,,,,,,,,,,,
,,,,,,,,2023-08-16_08h41.49.672,HF_wild_card,2022.2.4,Win32,60.09976561,62da689228c4a8004c8d789d,64d2fd46c836a06233681665,64dc7c8eaf21463242e2ed34,,,,,,,decisionTrl,resources/DY.BMP,resources/DR.BMP,Door4,-0.506481467,0.211111111,1,0,0,0.4463,optionLeft,60,9200,5,6,0,6,0,1,,,,,,,,,,,,,,,,,,,,,,,,,,,,,,,,,,,,,,,
,,,,,,,,2023-08-16_08h41.49.672,HF_wild_card,2022.2.4,Win32,60.09976561,62da689228c4a8004c8d789d,64d2fd46c836a06233681665,64dc7c8eaf21463242e2ed34,,,,,,,decisionTrl,resources/DG.BMP,resources/DR.BMP,Door1,-0.520370356,0.212037023,1,0,0,0.3509,optionLeft,30,9230,5,7,0,7,0,1,,,,,,,,,,,,,,,,,,,,,,,,,,,,,,,,,,,,,,,
,,,,,,,,2023-08-16_08h41.49.672,HF_wild_card,2022.2.4,Win32,60.09976561,62da689228c4a8004c8d789d,64d2fd46c836a06233681665,64dc7c8eaf21463242e2ed34,,,,,,,ctch,resources/DB.BMP,resources/DP.BMP,Door3,-0.5574074,0.2074074,1,0,0,0.3311,optionLeft,70,9300,5,8,0,8,0,1,,,,,,,,,,,,,,,,,,,,,,,,,,,,,,,,,,,,,,,
,,,,,,,,2023-08-16_08h41.49.672,HF_wild_card,2022.2.4,Win32,60.09976561,62da689228c4a8004c8d789d,64d2fd46c836a06233681665,64dc7c8eaf21463242e2ed34,,,,,,,ctch,resources/DG.BMP,resources/DY.BMP,Door1,-0.568518511,0.208333333,1,0,0,0.4816,optionLeft,30,9330,5,9,0,9,0,1,,,,,,,,,,,,,,,,,,,,,,,,,,,,,,,,,,,,,,,
,,,,,,,,2023-08-16_08h41.49.672,HF_wild_card,2022.2.4,Win32,60.09976561,62da689228c4a8004c8d789d,64d2fd46c836a06233681665,64dc7c8eaf21463242e2ed34,,,,,,,decisionTrl,resources/DR.BMP,resources/DY.BMP,WildCard_Ex,-0.565740734,0.211111111,1,0,0,0.5479,optionLeft,45,9375,5,10,0,10,0,1,,,,,,,,,,,,,,,,,,,,,,,,,,,,,,,,,,,,,,,
,,,,,,,,2023-08-16_08h41.49.672,HF_wild_card,2022.2.4,Win32,60.09976561,62da689228c4a8004c8d789d,64d2fd46c836a06233681665,64dc7c8eaf21463242e2ed34,,,,,,,sngl,resources/DR.BMP,resources/Empty.png,WildCard_Ex,-0.215740712,0.190740734,1,0,0,0.5483,optionLeft,45,9420,5,11,0,11,0,1,,,,,,,,,,,,,,,,,,,,,,,,,,,,,,,,,,,,,,,
,,,,,,,,2023-08-16_08h41.49.672,HF_wild_card,2022.2.4,Win32,60.09976561,62da689228c4a8004c8d789d,64d2fd46c836a06233681665,64dc7c8eaf21463242e2ed34,,,,,,,decisionTrl,resources/DY.BMP,resources/DB.BMP,Door3,0.211111111,-0.015740755,1,0,0,0.6139,optionRight,70,9490,5,12,0,12,0,1,,,,,,,,,,,,,,,,,,,,,,,,,,,,,,,,,,,,,,,
,,,,,,,,2023-08-16_08h41.49.672,HF_wild_card,2022.2.4,Win32,60.09976561,62da689228c4a8004c8d789d,64d2fd46c836a06233681665,64dc7c8eaf21463242e2ed34,,,,,,,decisionTrl,resources/DB.BMP,resources/DY.BMP,Door3,-0.175925869,0.168518511,1,0,0,0.4645,optionLeft,70,9560,5,13,0,13,0,1,,,,,,,,,,,,,,,,,,,,,,,,,,,,,,,,,,,,,,,
,,,,,,,,2023-08-16_08h41.49.672,HF_wild_card,2022.2.4,Win32,60.09976561,62da689228c4a8004c8d789d,64d2fd46c836a06233681665,64dc7c8eaf21463242e2ed34,,,,,,,decisionTrl,resources/DG.BMP,resources/DP.BMP,Door1,-0.373148134,0.193518511,1,0,0,0.5134,optionLeft,30,9590,5,14,0,14,0,1,,,,,,,,,,,,,,,,,,,,,,,,,,,,,,,,,,,,,,,
,,,,,,,,2023-08-16_08h41.49.672,HF_wild_card,2022.2.4,Win32,60.09976561,62da689228c4a8004c8d789d,64d2fd46c836a06233681665,64dc7c8eaf21463242e2ed34,,,,,,,ctch,resources/DY.BMP,resources/DG.BMP,Door4,-0.314814801,0.17870369,1,0,0,0.3649,optionLeft,80,9670,5,15,0,15,0,1,,,,,,,,,,,,,,,,,,,,,,,,,,,,,,,,,,,,,,,
,,,,,,,,2023-08-16_08h41.49.672,HF_wild_card,2022.2.4,Win32,60.09976561,62da689228c4a8004c8d789d,64d2fd46c836a06233681665,64dc7c8eaf21463242e2ed34,,,,,,,sngl,resources/DY.BMP,resources/Empty.png,Door4,-0.433333333,0.191666667,1,0,0,0.3818,optionLeft,80,9750,5,16,0,16,0,1,,,,,,,,,,,,,,,,,,,,,,,,,,,,,,,,,,,,,,,
,,,,,,,,2023-08-16_08h41.49.672,HF_wild_card,2022.2.4,Win32,60.09976561,62da689228c4a8004c8d789d,64d2fd46c836a06233681665,64dc7c8eaf21463242e2ed34,,,,,,,ctch,resources/DG.BMP,resources/DY.BMP,Door4,0.211111111,-0.027777778,1,0,0,0.7934,optionRight,60,9810,5,17,0,17,0,1,,,,,,,,,,,,,,,,,,,,,,,,,,,,,,,,,,,,,,,
,,,,,,,,2023-08-16_08h41.49.672,HF_wild_card,2022.2.4,Win32,60.09976561,62da689228c4a8004c8d789d,64d2fd46c836a06233681665,64dc7c8eaf21463242e2ed34,,,,,,,decisionTrl,resources/DG.BMP,resources/DP.BMP,Door1,-0.395370356,0.195370356,1,0,0,0.4436,optionLeft,30,9840,5,18,0,18,0,1,,,,,,,,,,,,,,,,,,,,,,,,,,,,,,,,,,,,,,,
,,,,,,,,2023-08-16_08h41.49.672,HF_wild_card,2022.2.4,Win32,60.09976561,62da689228c4a8004c8d789d,64d2fd46c836a06233681665,64dc7c8eaf21463242e2ed34,,,,,,,ctch,resources/DP.BMP,resources/DB.BMP,Door2,-0.285185157,0.181481467,1,0,0,0.4096,optionLeft,20,9860,5,19,0,19,0,1,,,,,,,,,,,,,,,,,,,,,,,,,,,,,,,,,,,,,,,
,,,,,,,,2023-08-16_08h41.49.672,HF_wild_card,2022.2.4,Win32,60.09976561,62da689228c4a8004c8d789d,64d2fd46c836a06233681665,64dc7c8eaf21463242e2ed34,,,,,,,sngl,resources/Empty.png,resources/DP.BMP,Door2,0.172222222,0.033333333,1,0,0,0.5652,optionRight,20,9880,5,20,0,20,0,1,,,,,,,,,,,,,,,,,,,,,,,,,,,,,,,,,,,,,,,
,,,,,,,,2023-08-16_08h41.49.672,HF_wild_card,2022.2.4,Win32,60.09976561,62da689228c4a8004c8d789d,64d2fd46c836a06233681665,64dc7c8eaf21463242e2ed34,,,,,,,sngl,resources/DG.BMP,resources/Empty.png,Door1,-0.329629601,0.194444444,1,0,0,0.3814,optionLeft,30,9910,5,21,0,21,0,1,,,,,,,,,,,,,,,,,,,,,,,,,,,,,,,,,,,,,,,
,,,,,,,,2023-08-16_08h41.49.672,HF_wild_card,2022.2.4,Win32,60.09976561,62da689228c4a8004c8d789d,64d2fd46c836a06233681665,64dc7c8eaf21463242e2ed34,,,,,,,decisionTrl,resources/DP.BMP,resources/DG.BMP,Door2,-0.373148134,0.194444444,1,0,0,0.4809,optionLeft,20,9930,5,22,0,22,0,1,,,,,,,,,,,,,,,,,,,,,,,,,,,,,,,,,,,,,,,
,,,,,,,,2023-08-16_08h41.49.672,HF_wild_card,2022.2.4,Win32,60.09976561,62da689228c4a8004c8d789d,64d2fd46c836a06233681665,64dc7c8eaf21463242e2ed34,,,,,,,sngl,resources/DB.BMP,resources/Empty.png,Door3,-0.461111111,0.199074067,1,0,0,0.4438,optionLeft,70,10000,5,23,0,23,0,1,,,,,,,,,,,,,,,,,,,,,,,,,,,,,,,,,,,,,,,
,,,,,,,,2023-08-16_08h41.49.672,HF_wild_card,2022.2.4,Win32,60.09976561,62da689228c4a8004c8d789d,64d2fd46c836a06233681665,64dc7c8eaf21463242e2ed34,,,,,,,sngl,resources/Empty.png,resources/DG.BMP,Door1,0.187963019,-0.000925954,1,0,0,0.661,optionRight,30,10030,5,24,0,24,0,1,,,,,,,,,,,,,,,,,,,,,,,,,,,,,,,,,,,,,,,
,,,,,,,,2023-08-16_08h41.49.672,HF_wild_card,2022.2.4,Win32,60.09976561,62da689228c4a8004c8d789d,64d2fd46c836a06233681665,64dc7c8eaf21463242e2ed34,,,,,,,sngl,resources/DR.BMP,resources/Empty.png,WildCard_Ex,-0.439814801,0.20370369,1,0,0,0.3598,optionLeft,55,10085,5,25,0,25,0,1,,,,,,,,,,,,,,,,,,,,,,,,,,,,,,,,,,,,,,,
,,,,,,,,2023-08-16_08h41.49.672,HF_wild_card,2022.2.4,Win32,60.09976561,62da689228c4a8004c8d789d,64d2fd46c836a06233681665,64dc7c8eaf21463242e2ed34,,,,,,,sngl,resources/Empty.png,resources/DY.BMP,Door4,0.192592621,-0.032407422,1,0,0,0.7309,optionRight,60,10145,5,26,0,26,0,1,,,,,,,,,,,,,,,,,,,,,,,,,,,,,,,,,,,,,,,
,,,,,,,,2023-08-16_08h41.49.672,HF_wild_card,2022.2.4,Win32,60.09976561,62da689228c4a8004c8d789d,64d2fd46c836a06233681665,64dc7c8eaf21463242e2ed34,,,,,,,decisionTrl,resources/DP.BMP,resources/DR.BMP,Door2,-0.412037023,0.183333333,1,0,0,0.4804,optionLeft,20,10165,5,27,0,27,0,1,,,,,,,,,,,,,,,,,,,,,,,,,,,,,,,,,,,,,,,
,,,,,,,,2023-08-16_08h41.49.672,HF_wild_card,2022.2.4,Win32,60.09976561,62da689228c4a8004c8d789d,64d2fd46c836a06233681665,64dc7c8eaf21463242e2ed34,,,,,,,decisionTrl,resources/DP.BMP,resources/DG.BMP,Door1,0.263888889,-0.055555556,1,0,0,0.5302,optionRight,30,10195,5,28,0,28,0,1,,,,,,,,,,,,,,,,,,,,,,,,,,,,,,,,,,,,,,,
,,,,,,,,2023-08-16_08h41.49.672,HF_wild_card,2022.2.4,Win32,60.09976561,62da689228c4a8004c8d789d,64d2fd46c836a06233681665,64dc7c8eaf21463242e2ed34,,,,,,,decisionTrl,resources/DY.BMP,resources/DB.BMP,Door4,-0.360185157,0.184259245,1,0,0,0.3284,optionLeft,60,10255,5,29,0,29,0,1,,,,,,,,,,,,,,,,,,,,,,,,,,,,,,,,,,,,,,,
,,,,,,,,2023-08-16_08h41.49.672,HF_wild_card,2022.2.4,Win32,60.09976561,62da689228c4a8004c8d789d,64d2fd46c836a06233681665,64dc7c8eaf21463242e2ed34,,,,,,,decisionTrl,resources/DY.BMP,resources/DB.BMP,Door4,-0.442592578,0.190740734,1,0,0,0.3805,optionLeft,80,10335,5,30,0,30,0,1,,,,,,,,,,,,,,,,,,,,,,,,,,,,,,,,,,,,,,,
,,,,,,,,2023-08-16_08h41.49.672,HF_wild_card,2022.2.4,Win32,60.09976561,62da689228c4a8004c8d789d,64d2fd46c836a06233681665,64dc7c8eaf21463242e2ed34,,,,,,,decisionTrl,resources/DY.BMP,resources/DB.BMP,Door4,-0.456481467,0.187962956,1,0,0,0.3987,optionLeft,60,10395,5,31,0,31,0,1,,,,,,,,,,,,,,,,,,,,,,,,,,,,,,,,,,,,,,,
,,,,,,,,2023-08-16_08h41.49.672,HF_wild_card,2022.2.4,Win32,60.09976561,62da689228c4a8004c8d789d,64d2fd46c836a06233681665,64dc7c8eaf21463242e2ed34,,,,,,,decisionTrl,resources/DB.BMP,resources/DY.BMP,Door4,0.220370399,-0.018518533,1,0,0,0.8138,optionRight,80,10475,5,32,0,32,0,1,,,,,,,,,,,,,,,,,,,,,,,,,,,,,,,,,,,,,,,
,,,,,,,,2023-08-16_08h41.49.672,HF_wild_card,2022.2.4,Win32,60.09976561,62da689228c4a8004c8d789d,64d2fd46c836a06233681665,64dc7c8eaf21463242e2ed34,,,,,,,decisionTrl,resources/DB.BMP,resources/DY.BMP,Door4,0.203703732,-0.023148176,1,0,0,0.6319,optionRight,60,10535,5,33,0,33,0,1,,,,,,,,,,,,,,,,,,,,,,,,,,,,,,,,,,,,,,,
,,,,,,,,2023-08-16_08h41.49.672,HF_wild_card,2022.2.4,Win32,60.09976561,62da689228c4a8004c8d789d,64d2fd46c836a06233681665,64dc7c8eaf21463242e2ed34,,,,,,,ctch,resources/DY.BMP,resources/DG.BMP,Door4,-0.410185157,0.199074067,1,0,0,0.3978,optionLeft,60,10595,5,34,0,34,0,1,,,,,,,,,,,,,,,,,,,,,,,,,,,,,,,,,,,,,,,
,,,,,,,,2023-08-16_08h41.49.672,HF_wild_card,2022.2.4,Win32,60.09976561,62da689228c4a8004c8d789d,64d2fd46c836a06233681665,64dc7c8eaf21463242e2ed34,,,,,,,decisionTrl,resources/DP.BMP,resources/DG.BMP,Door2,-0.367592578,0.187037023,1,0,0,0.5148,optionLeft,40,10635,5,35,0,35,0,1,,,,,,,,,,,,,,,,,,,,,,,,,,,,,,,,,,,,,,,
,,,,,,,,2023-08-16_08h41.49.672,HF_wild_card,2022.2.4,Win32,60.09976561,62da689228c4a8004c8d789d,64d2fd46c836a06233681665,64dc7c8eaf21463242e2ed34,,,,,,,decisionTrl,resources/DB.BMP,resources/DR.BMP,Door3,-0.39351849,0.190740734,1,0,0,0.4136,optionLeft,70,10705,5,36,0,36,0,1,,,,,,,,,,,,,,,,,,,,,,,,,,,,,,,,,,,,,,,
,,,,,,,,2023-08-16_08h41.49.672,HF_wild_card,2022.2.4,Win32,60.09976561,62da689228c4a8004c8d789d,64d2fd46c836a06233681665,64dc7c8eaf21463242e2ed34,,,,,,,ctch,resources/DB.BMP,resources/DP.BMP,Door3,-0.376851824,0.189814801,1,0,0,0.4482,optionLeft,70,10775,5,37,0,37,0,1,,,,,,,,,,,,,,,,,,,,,,,,,,,,,,,,,,,,,,,
,,,,,,,,2023-08-16_08h41.49.672,HF_wild_card,2022.2.4,Win32,60.09976561,62da689228c4a8004c8d789d,64d2fd46c836a06233681665,64dc7c8eaf21463242e2ed34,,,,,,,sngl,resources/DP.BMP,resources/Empty.png,Door2,-0.495370356,0.190740734,1,0,0,0.4487,optionLeft,40,10815,5,38,0,38,0,1,,,,,,,,,,,,,,,,,,,,,,,,,,,,,,,,,,,,,,,
,,,,,,,,2023-08-16_08h41.49.672,HF_wild_card,2022.2.4,Win32,60.09976561,62da689228c4a8004c8d789d,64d2fd46c836a06233681665,64dc7c8eaf21463242e2ed34,,,,,,,decisionTrl,resources/DG.BMP,resources/DP.BMP,Door2,0.200925954,-0.022222222,1,0,0,0.7481,optionRight,20,10835,5,39,0,39,0,1,,,,,,,,,,,,,,,,,,,,,,,,,,,,,,,,,,,,,,,
,,,,,,,,2023-08-16_08h41.49.672,HF_wild_card,2022.2.4,Win32,60.09976561,62da689228c4a8004c8d789d,64d2fd46c836a06233681665,64dc7c8eaf21463242e2ed34,,,,,,,sngl,resources/Empty.png,resources/DR.BMP,WildCard_Ex,0.207407464,-0.028703732,1,0,0,0.6619,optionRight,45,10880,5,40,0,40,0,1,,,,,,,,,,,,,,,,,,,,,,,,,,,,,,,,,,,,,,,
,,,,,,,,2023-08-16_08h41.49.672,HF_wild_card,2022.2.4,Win32,60.09976561,62da689228c4a8004c8d789d,64d2fd46c836a06233681665,64dc7c8eaf21463242e2ed34,,,,,,,sngl,resources/Empty.png,resources/DR.BMP,WildCard_Ex,0.227777778,-0.05,1,0,0,0.5614,optionRight,55,10935,5,41,0,41,0,1,,,,,,,,,,,,,,,,,,,,,,,,,,,,,,,,,,,,,,,
,,,,,,,,2023-08-16_08h41.49.672,HF_wild_card,2022.2.4,Win32,60.09976561,62da689228c4a8004c8d789d,64d2fd46c836a06233681665,64dc7c8eaf21463242e2ed34,,,,,,,decisionTrl,resources/DR.BMP,resources/DG.BMP,WildCard_Ex,-0.320370356,0.183333333,1,0,0,0.4138,optionLeft,45,10980,5,42,0,42,0,1,,,,,,,,,,,,,,,,,,,,,,,,,,,,,,,,,,,,,,,
,,,,,,,,2023-08-16_08h41.49.672,HF_wild_card,2022.2.4,Win32,60.09976561,62da689228c4a8004c8d789d,64d2fd46c836a06233681665,64dc7c8eaf21463242e2ed34,,,,,,,sngl,resources/Empty.png,resources/DB.BMP,Door3,0.216666667,-0.05648151,1,0,0,0.6457,optionRight,70,11050,5,43,0,43,0,1,,,,,,,,,,,,,,,,,,,,,,,,,,,,,,,,,,,,,,,
,,,,,,,,2023-08-16_08h41.49.672,HF_wild_card,2022.2.4,Win32,60.09976561,62da689228c4a8004c8d789d,64d2fd46c836a06233681665,64dc7c8eaf21463242e2ed34,,,,,,,,,,,,,,,,,,,,,,,,,,4,0,4,0,1,,,,,,,,,,,,,,,,,,,,,,,,,,,,,,,,,,
,,,,,,,,2023-08-16_08h41.49.672,HF_wild_card,2022.2.4,Win32,60.09976561,62da689228c4a8004c8d789d,64d2fd46c836a06233681665,64dc7c8eaf21463242e2ed34,,,,,,,decisionTrl,resources/DY.BMP,resources/DB.BMP,Door4,-0.240740712,0.159259245,1,0,0,1.2227,optionLeft,60,11110,6,0,0,0,0,1,,,,,,,,,,,,,,,,,,,,,,,,,,,,,,,,,,,,,,,
,,,,,,,,2023-08-16_08h41.49.672,HF_wild_card,2022.2.4,Win32,60.09976561,62da689228c4a8004c8d789d,64d2fd46c836a06233681665,64dc7c8eaf21463242e2ed34,,,,,,,decisionTrl,resources/DB.BMP,resources/DY.BMP,Door4,0.262037065,-0.077777778,1,0,0,0.5309,optionRight,60,11170,6,1,0,1,0,1,,,,,,,,,,,,,,,,,,,,,,,,,,,,,,,,,,,,,,,
,,,,,,,,2023-08-16_08h41.49.672,HF_wild_card,2022.2.4,Win32,60.09976561,62da689228c4a8004c8d789d,64d2fd46c836a06233681665,64dc7c8eaf21463242e2ed34,,,,,,,decisionTrl,resources/DY.BMP,resources/DB.BMP,Door4,-0.387037023,0.166666667,1,0,0,0.3818,optionLeft,80,11250,6,2,0,2,0,1,,,,,,,,,,,,,,,,,,,,,,,,,,,,,,,,,,,,,,,
,,,,,,,,2023-08-16_08h41.49.672,HF_wild_card,2022.2.4,Win32,60.09976561,62da689228c4a8004c8d789d,64d2fd46c836a06233681665,64dc7c8eaf21463242e2ed34,,,,,,,decisionTrl,resources/DG.BMP,resources/DP.BMP,Door1,-0.326851824,0.167592578,1,0,0,0.6467,optionLeft,30,11280,6,3,0,3,0,1,,,,,,,,,,,,,,,,,,,,,,,,,,,,,,,,,,,,,,,
,,,,,,,,2023-08-16_08h41.49.672,HF_wild_card,2022.2.4,Win32,60.09976561,62da689228c4a8004c8d789d,64d2fd46c836a06233681665,64dc7c8eaf21463242e2ed34,,,,,,,ctch,resources/DB.BMP,resources/DP.BMP,Door2,0.241666667,-0.051851866,1,0,0,0.6299,optionRight,40,11320,6,4,0,4,0,1,,,,,,,,,,,,,,,,,,,,,,,,,,,,,,,,,,,,,,,
,,,,,,,,2023-08-16_08h41.49.672,HF_wild_card,2022.2.4,Win32,60.09976561,62da689228c4a8004c8d789d,64d2fd46c836a06233681665,64dc7c8eaf21463242e2ed34,,,,,,,decisionTrl,resources/DY.BMP,resources/DB.BMP,Door4,-0.437037023,0.179629623,1,0,0,0.3979,optionLeft,60,11380,6,5,0,5,0,1,,,,,,,,,,,,,,,,,,,,,,,,,,,,,,,,,,,,,,,
,,,,,,,,2023-08-16_08h41.49.672,HF_wild_card,2022.2.4,Win32,60.09976561,62da689228c4a8004c8d789d,64d2fd46c836a06233681665,64dc7c8eaf21463242e2ed34,,,,,,,decisionTrl,resources/DB.BMP,resources/DY.BMP,Door4,0.237963019,-0.045370399,1,0,0,0.6643,optionRight,60,11440,6,6,0,6,0,1,,,,,,,,,,,,,,,,,,,,,,,,,,,,,,,,,,,,,,,
,,,,,,,,2023-08-16_08h41.49.672,HF_wild_card,2022.2.4,Win32,60.09976561,62da689228c4a8004c8d789d,64d2fd46c836a06233681665,64dc7c8eaf21463242e2ed34,,,,,,,sngl,resources/Empty.png,resources/DG.BMP,Door1,0.263888889,-0.061111111,1,0,0,0.6771,optionRight,30,11470,6,7,0,7,0,1,,,,,,,,,,,,,,,,,,,,,,,,,,,,,,,,,,,,,,,
,,,,,,,,2023-08-16_08h41.49.672,HF_wild_card,2022.2.4,Win32,60.09976561,62da689228c4a8004c8d789d,64d2fd46c836a06233681665,64dc7c8eaf21463242e2ed34,,,,,,,sngl,resources/DB.BMP,resources/Empty.png,Door3,-0.373148134,0.181481467,1,0,0,0.4487,optionLeft,70,11540,6,8,0,8,0,1,,,,,,,,,,,,,,,,,,,,,,,,,,,,,,,,,,,,,,,
,,,,,,,,2023-08-16_08h41.49.672,HF_wild_card,2022.2.4,Win32,60.09976561,62da689228c4a8004c8d789d,64d2fd46c836a06233681665,64dc7c8eaf21463242e2ed34,,,,,,,decisionTrl,resources/DB.BMP,resources/DR.BMP,Door3,-0.462962935,0.179629623,1,0,0,0.428,optionLeft,70,11610,6,9,0,9,0,1,,,,,,,,,,,,,,,,,,,,,,,,,,,,,,,,,,,,,,,
,,,,,,,,2023-08-16_08h41.49.672,HF_wild_card,2022.2.4,Win32,60.09976561,62da689228c4a8004c8d789d,64d2fd46c836a06233681665,64dc7c8eaf21463242e2ed34,,,,,,,ctch,resources/DG.BMP,resources/DY.BMP,Door4,0.287963019,-0.108333333,1,0,0,0.8981,optionRight,60,11670,6,10,0,10,0,1,,,,,,,,,,,,,,,,,,,,,,,,,,,,,,,,,,,,,,,
,,,,,,,,2023-08-16_08h41.49.672,HF_wild_card,2022.2.4,Win32,60.09976561,62da689228c4a8004c8d789d,64d2fd46c836a06233681665,64dc7c8eaf21463242e2ed34,,,,,,,ctch,resources/DY.BMP,resources/DG.BMP,Door4,-0.426851824,0.175925912,1,0,0,0.5146,optionLeft,80,11750,6,11,0,11,0,1,,,,,,,,,,,,,,,,,,,,,,,,,,,,,,,,,,,,,,,
,,,,,,,,2023-08-16_08h41.49.672,HF_wild_card,2022.2.4,Win32,60.09976561,62da689228c4a8004c8d789d,64d2fd46c836a06233681665,64dc7c8eaf21463242e2ed34,,,,,,,decisionTrl,resources/DP.BMP,resources/DG.BMP,Door2,-0.400925912,0.162037023,1,0,0,1.881,optionLeft,40,11790,6,12,0,12,0,1,,,,,,,,,,,,,,,,,,,,,,,,,,,,,,,,,,,,,,,
,,,,,,,,2023-08-16_08h41.49.672,HF_wild_card,2022.2.4,Win32,60.09976561,62da689228c4a8004c8d789d,64d2fd46c836a06233681665,64dc7c8eaf21463242e2ed34,,,,,,,decisionTrl,resources/DR.BMP,resources/DY.BMP,Door4,0.194444444,-0.012037065,1,0,0,0.6147,optionRight,80,11870,6,13,0,13,0,1,,,,,,,,,,,,,,,,,,,,,,,,,,,,,,,,,,,,,,,
,,,,,,,,2023-08-16_08h41.49.672,HF_wild_card,2022.2.4,Win32,60.09976561,62da689228c4a8004c8d789d,64d2fd46c836a06233681665,64dc7c8eaf21463242e2ed34,,,,,,,decisionTrl,resources/DP.BMP,resources/DG.BMP,Door1,0.213888889,-0.026851866,1,0,0,1.0976,optionRight,30,11900,6,14,0,14,0,1,,,,,,,,,,,,,,,,,,,,,,,,,,,,,,,,,,,,,,,
,,,,,,,,2023-08-16_08h41.49.672,HF_wild_card,2022.2.4,Win32,60.09976561,62da689228c4a8004c8d789d,64d2fd46c836a06233681665,64dc7c8eaf21463242e2ed34,,,,,,,sngl,resources/Empty.png,resources/DP.BMP,Door2,0.226851908,-0.059259288,1,0,0,0.7147,optionRight,40,11940,6,15,0,15,0,1,,,,,,,,,,,,,,,,,,,,,,,,,,,,,,,,,,,,,,,
,,,,,,,,2023-08-16_08h41.49.672,HF_wild_card,2022.2.4,Win32,60.09976561,62da689228c4a8004c8d789d,64d2fd46c836a06233681665,64dc7c8eaf21463242e2ed34,,,,,,,decisionTrl,resources/DP.BMP,resources/DG.BMP,Door1,0.196296353,-0.033333333,1,0,0,0.8486,optionRight,30,11970,6,16,0,16,0,1,,,,,,,,,,,,,,,,,,,,,,,,,,,,,,,,,,,,,,,
,,,,,,,,2023-08-16_08h41.49.672,HF_wild_card,2022.2.4,Win32,60.09976561,62da689228c4a8004c8d789d,64d2fd46c836a06233681665,64dc7c8eaf21463242e2ed34,,,,,,,decisionTrl,resources/DG.BMP,resources/DP.BMP,Door1,-0.394444444,0.179629623,1,0,0,0.6803,optionLeft,30,12000,6,17,0,17,0,1,,,,,,,,,,,,,,,,,,,,,,,,,,,,,,,,,,,,,,,
,,,,,,,,2023-08-16_08h41.49.672,HF_wild_card,2022.2.4,Win32,60.09976561,62da689228c4a8004c8d789d,64d2fd46c836a06233681665,64dc7c8eaf21463242e2ed34,,,,,,,decisionTrl,resources/DB.BMP,resources/DY.BMP,Door4,0.222222222,-0.060185199,1,0,0,0.6989,optionRight,60,12060,6,18,0,18,0,1,,,,,,,,,,,,,,,,,,,,,,,,,,,,,,,,,,,,,,,
,,,,,,,,2023-08-16_08h41.49.672,HF_wild_card,2022.2.4,Win32,60.09976561,62da689228c4a8004c8d789d,64d2fd46c836a06233681665,64dc7c8eaf21463242e2ed34,,,,,,,decisionTrl,resources/DY.BMP,resources/DR.BMP,Door4,-0.412037023,0.181481467,1,0,0,0.4316,optionLeft,60,12120,6,19,0,19,0,1,,,,,,,,,,,,,,,,,,,,,,,,,,,,,,,,,,,,,,,
,,,,,,,,2023-08-16_08h41.49.672,HF_wild_card,2022.2.4,Win32,60.09976561,62da689228c4a8004c8d789d,64d2fd46c836a06233681665,64dc7c8eaf21463242e2ed34,,,,,,,ctch,resources/DB.BMP,resources/DP.BMP,Door3,-0.317592578,0.180555556,1,0,0,0.6144,optionLeft,70,12190,6,20,0,20,0,1,,,,,,,,,,,,,,,,,,,,,,,,,,,,,,,,,,,,,,,
,,,,,,,,2023-08-16_08h41.49.672,HF_wild_card,2022.2.4,Win32,60.09976561,62da689228c4a8004c8d789d,64d2fd46c836a06233681665,64dc7c8eaf21463242e2ed34,,,,,,,sngl,resources/DY.BMP,resources/Empty.png,Door4,-0.500925912,0.185185178,1,0,0,0.4269,optionLeft,60,12250,6,21,0,21,0,1,,,,,,,,,,,,,,,,,,,,,,,,,,,,,,,,,,,,,,,
,,,,,,,,2023-08-16_08h41.49.672,HF_wild_card,2022.2.4,Win32,60.09976561,62da689228c4a8004c8d789d,64d2fd46c836a06233681665,64dc7c8eaf21463242e2ed34,,,,,,,sngl,resources/DR.BMP,resources/Empty.png,WildCard_Ex,-0.535185178,0.17870369,1,0,0,0.5486,optionLeft,45,12295,6,22,0,22,0,1,,,,,,,,,,,,,,,,,,,,,,,,,,,,,,,,,,,,,,,
,,,,,,,,2023-08-16_08h41.49.672,HF_wild_card,2022.2.4,Win32,60.09976561,62da689228c4a8004c8d789d,64d2fd46c836a06233681665,64dc7c8eaf21463242e2ed34,,,,,,,sngl,resources/Empty.png,resources/DY.BMP,Door4,0.216666667,-0.044444444,1,0,0,0.7629,optionRight,80,12375,6,23,0,23,0,1,,,,,,,,,,,,,,,,,,,,,,,,,,,,,,,,,,,,,,,
,,,,,,,,2023-08-16_08h41.49.672,HF_wild_card,2022.2.4,Win32,60.09976561,62da689228c4a8004c8d789d,64d2fd46c836a06233681665,64dc7c8eaf21463242e2ed34,,,,,,,decisionTrl,resources/DR.BMP,resources/DG.BMP,WildCard_Ex,-0.522222222,0.164814801,1,0,0,0.3485,optionLeft,45,12420,6,24,0,24,0,1,,,,,,,,,,,,,,,,,,,,,,,,,,,,,,,,,,,,,,,
,,,,,,,,2023-08-16_08h41.49.672,HF_wild_card,2022.2.4,Win32,60.09976561,62da689228c4a8004c8d789d,64d2fd46c836a06233681665,64dc7c8eaf21463242e2ed34,,,,,,,decisionTrl,resources/DG.BMP,resources/DR.BMP,Door1,-0.441666667,0.177777778,1,0,0,0.7977,optionLeft,30,12450,6,25,0,25,0,1,,,,,,,,,,,,,,,,,,,,,,,,,,,,,,,,,,,,,,,
,,,,,,,,2023-08-16_08h41.49.672,HF_wild_card,2022.2.4,Win32,60.09976561,62da689228c4a8004c8d789d,64d2fd46c836a06233681665,64dc7c8eaf21463242e2ed34,,,,,,,sngl,resources/DG.BMP,resources/Empty.png,Door1,-0.442592578,0.173148134,1,0,0,0.3936,optionLeft,30,12480,6,26,0,26,0,1,,,,,,,,,,,,,,,,,,,,,,,,,,,,,,,,,,,,,,,
,,,,,,,,2023-08-16_08h41.49.672,HF_wild_card,2022.2.4,Win32,60.09976561,62da689228c4a8004c8d789d,64d2fd46c836a06233681665,64dc7c8eaf21463242e2ed34,,,,,,,decisionTrl,resources/DB.BMP,resources/DY.BMP,Door4,0.229629686,-0.049074088,1,0,0,0.7927,optionRight,60,12540,6,27,0,27,0,1,,,,,,,,,,,,,,,,,,,,,,,,,,,,,,,,,,,,,,,
,,,,,,,,2023-08-16_08h41.49.672,HF_wild_card,2022.2.4,Win32,60.09976561,62da689228c4a8004c8d789d,64d2fd46c836a06233681665,64dc7c8eaf21463242e2ed34,,,,,,,decisionTrl,resources/DG.BMP,resources/DP.BMP,Door1,-0.262037023,0.1574074,1,0,0,1.0478,optionLeft,30,12570,6,28,0,28,0,1,,,,,,,,,,,,,,,,,,,,,,,,,,,,,,,,,,,,,,,
,,,,,,,,2023-08-16_08h41.49.672,HF_wild_card,2022.2.4,Win32,60.09976561,62da689228c4a8004c8d789d,64d2fd46c836a06233681665,64dc7c8eaf21463242e2ed34,,,,,,,ctch,resources/DP.BMP,resources/DB.BMP,Door3,0.257407464,-0.04629631,1,0,0,0.7618,optionRight,70,12640,6,29,0,29,0,1,,,,,,,,,,,,,,,,,,,,,,,,,,,,,,,,,,,,,,,
,,,,,,,,2023-08-16_08h41.49.672,HF_wild_card,2022.2.4,Win32,60.09976561,62da689228c4a8004c8d789d,64d2fd46c836a06233681665,64dc7c8eaf21463242e2ed34,,,,,,,sngl,resources/Empty.png,resources/DR.BMP,WildCard_Ex,0.210185242,-0.029629644,1,0,0,0.6612,optionRight,55,12695,6,30,0,30,0,1,,,,,,,,,,,,,,,,,,,,,,,,,,,,,,,,,,,,,,,
,,,,,,,,2023-08-16_08h41.49.672,HF_wild_card,2022.2.4,Win32,60.09976561,62da689228c4a8004c8d789d,64d2fd46c836a06233681665,64dc7c8eaf21463242e2ed34,,,,,,,decisionTrl,resources/DP.BMP,resources/DG.BMP,Door1,0.288888889,-0.083333333,1,0,0,0.9648,optionRight,30,12725,6,31,0,31,0,1,,,,,,,,,,,,,,,,,,,,,,,,,,,,,,,,,,,,,,,
,,,,,,,,2023-08-16_08h41.49.672,HF_wild_card,2022.2.4,Win32,60.09976561,62da689228c4a8004c8d789d,64d2fd46c836a06233681665,64dc7c8eaf21463242e2ed34,,,,,,,ctch,resources/DY.BMP,resources/DG.BMP,Door4,-0.366666667,0.166666667,1,0,0,0.4146,optionLeft,80,12805,6,32,0,32,0,1,,,,,,,,,,,,,,,,,,,,,,,,,,,,,,,,,,,,,,,
,,,,,,,,2023-08-16_08h41.49.672,HF_wild_card,2022.2.4,Win32,60.09976561,62da689228c4a8004c8d789d,64d2fd46c836a06233681665,64dc7c8eaf21463242e2ed34,,,,,,,decisionTrl,resources/DR.BMP,resources/DB.BMP,Door3,0.223148176,-0.026851866,1,0,0,0.7427,optionRight,70,12875,6,33,0,33,0,1,,,,,,,,,,,,,,,,,,,,,,,,,,,,,,,,,,,,,,,
,,,,,,,,2023-08-16_08h41.49.672,HF_wild_card,2022.2.4,Win32,60.09976561,62da689228c4a8004c8d789d,64d2fd46c836a06233681665,64dc7c8eaf21463242e2ed34,,,,,,,decisionTrl,resources/DP.BMP,resources/DR.BMP,Door2,-0.444444444,0.160185178,1,0,0,1.0307,optionLeft,20,12895,6,34,0,34,0,1,,,,,,,,,,,,,,,,,,,,,,,,,,,,,,,,,,,,,,,
,,,,,,,,2023-08-16_08h41.49.672,HF_wild_card,2022.2.4,Win32,60.09976561,62da689228c4a8004c8d789d,64d2fd46c836a06233681665,64dc7c8eaf21463242e2ed34,,,,,,,ctch,resources/DG.BMP,resources/DY.BMP,Door4,0.230555556,-0.025,1,0,0,0.6316,optionRight,60,12955,6,35,0,35,0,1,,,,,,,,,,,,,,,,,,,,,,,,,,,,,,,,,,,,,,,
,,,,,,,,2023-08-16_08h41.49.672,HF_wild_card,2022.2.4,Win32,60.09976561,62da689228c4a8004c8d789d,64d2fd46c836a06233681665,64dc7c8eaf21463242e2ed34,,,,,,,sngl,resources/Empty.png,resources/DR.BMP,WildCard_Ex,0.246296353,-0.034259288,1,0,0,0.6137,optionRight,45,13000,6,36,0,36,0,1,,,,,,,,,,,,,,,,,,,,,,,,,,,,,,,,,,,,,,,
,,,,,,,,2023-08-16_08h41.49.672,HF_wild_card,2022.2.4,Win32,60.09976561,62da689228c4a8004c8d789d,64d2fd46c836a06233681665,64dc7c8eaf21463242e2ed34,,,,,,,sngl,resources/Empty.png,resources/DB.BMP,Door3,0.325,-0.095370399,1,0,0,0.531,optionRight,70,13070,6,37,0,37,0,1,,,,,,,,,,,,,,,,,,,,,,,,,,,,,,,,,,,,,,,
,,,,,,,,2023-08-16_08h41.49.672,HF_wild_card,2022.2.4,Win32,60.09976561,62da689228c4a8004c8d789d,64d2fd46c836a06233681665,64dc7c8eaf21463242e2ed34,,,,,,,decisionTrl,resources/DY.BMP,resources/DB.BMP,Door3,0.272222222,-0.040740755,1,0,0,0.4982,optionRight,70,13140,6,38,0,38,0,1,,,,,,,,,,,,,,,,,,,,,,,,,,,,,,,,,,,,,,,
,,,,,,,,2023-08-16_08h41.49.672,HF_wild_card,2022.2.4,Win32,60.09976561,62da689228c4a8004c8d789d,64d2fd46c836a06233681665,64dc7c8eaf21463242e2ed34,,,,,,,decisionTrl,resources/DG.BMP,resources/DP.BMP,Door1,-0.360185157,0.165740734,1,0,0,0.6639,optionLeft,30,13170,6,39,0,39,0,1,,,,,,,,,,,,,,,,,,,,,,,,,,,,,,,,,,,,,,,
,,,,,,,,2023-08-16_08h41.49.672,HF_wild_card,2022.2.4,Win32,60.09976561,62da689228c4a8004c8d789d,64d2fd46c836a06233681665,64dc7c8eaf21463242e2ed34,,,,,,,sngl,resources/DR.BMP,resources/Empty.png,WildCard_Ex,-0.404629601,0.168518511,1,0,0,0.4652,optionLeft,55,13225,6,40,0,40,0,1,,,,,,,,,,,,,,,,,,,,,,,,,,,,,,,,,,,,,,,
,,,,,,,,2023-08-16_08h41.49.672,HF_wild_card,2022.2.4,Win32,60.09976561,62da689228c4a8004c8d789d,64d2fd46c836a06233681665,64dc7c8eaf21463242e2ed34,,,,,,,decisionTrl,resources/DR.BMP,resources/DP.BMP,WildCard_Ex,-0.330555556,0.171296289,1,0,0,0.63,optionLeft,45,13270,6,41,0,41,0,1,,,,,,,,,,,,,,,,,,,,,,,,,,,,,,,,,,,,,,,
,,,,,,,,2023-08-16_08h41.49.672,HF_wild_card,2022.2.4,Win32,60.09976561,62da689228c4a8004c8d789d,64d2fd46c836a06233681665,64dc7c8eaf21463242e2ed34,,,,,,,sngl,resources/DP.BMP,resources/Empty.png,Door2,-0.504629601,0.167592578,1,0,0,0.4296,optionLeft,20,13290,6,42,0,42,0,1,,,,,,,,,,,,,,,,,,,,,,,,,,,,,,,,,,,,,,,
,,,,,,,,2023-08-16_08h41.49.672,HF_wild_card,2022.2.4,Win32,60.09976561,62da689228c4a8004c8d789d,64d2fd46c836a06233681665,64dc7c8eaf21463242e2ed34,,,,,,,ctch,resources/DP.BMP,resources/DB.BMP,Door3,0.186111111,0.001851824,1,0,0,0.6463,optionRight,70,13360,6,43,0,43,0,1,,,,,,,,,,,,,,,,,,,,,,,,,,,,,,,,,,,,,,,
,,,,,,,,2023-08-16_08h41.49.672,HF_wild_card,2022.2.4,Win32,60.09976561,62da689228c4a8004c8d789d,64d2fd46c836a06233681665,64dc7c8eaf21463242e2ed34,,,,,,,,,,,,,,,,,,,,,,,,,,5,0,5,0,1,,,,,,,,,,,,,,,,,,,,,,,,,,,,,,,,,,
,,,,,,,,2023-08-16_08h41.49.672,HF_wild_card,2022.2.4,Win32,60.09976561,62da689228c4a8004c8d789d,64d2fd46c836a06233681665,64dc7c8eaf21463242e2ed34,,,,,,,decisionTrl,resources/DG.BMP,resources/DP.BMP,Door1,-0.396296268,0.155555556,1,0,0,0.7342,optionLeft,30,13390,7,0,0,0,0,1,,,,,,,,,,,,,,,,,,,,,,,,,,,,,,,,,,,,,,,
,,,,,,,,2023-08-16_08h41.49.672,HF_wild_card,2022.2.4,Win32,60.09976561,62da689228c4a8004c8d789d,64d2fd46c836a06233681665,64dc7c8eaf21463242e2ed34,,,,,,,decisionTrl,resources/DB.BMP,resources/DY.BMP,Door3,-0.451851824,0.122222222,1,0,0,0.6031,optionLeft,70,13460,7,1,0,1,0,1,,,,,,,,,,,,,,,,,,,,,,,,,,,,,,,,,,,,,,,
,,,,,,,,2023-08-16_08h41.49.672,HF_wild_card,2022.2.4,Win32,60.09976561,62da689228c4a8004c8d789d,64d2fd46c836a06233681665,64dc7c8eaf21463242e2ed34,,,,,,,ctch,resources/DP.BMP,resources/DB.BMP,Door3,0.225925954,-0.058333333,1,0,0,1.0152,optionRight,70,13530,7,2,0,2,0,1,,,,,,,,,,,,,,,,,,,,,,,,,,,,,,,,,,,,,,,
,,,,,,,,2023-08-16_08h41.49.672,HF_wild_card,2022.2.4,Win32,60.09976561,62da689228c4a8004c8d789d,64d2fd46c836a06233681665,64dc7c8eaf21463242e2ed34,,,,,,,ctch,resources/DG.BMP,resources/DY.BMP,Door4,0.254629686,-0.05,1,0,0,0.5478,optionRight,60,13590,7,3,0,3,0,1,,,,,,,,,,,,,,,,,,,,,,,,,,,,,,,,,,,,,,,
,,,,,,,,2023-08-16_08h41.49.672,HF_wild_card,2022.2.4,Win32,60.09976561,62da689228c4a8004c8d789d,64d2fd46c836a06233681665,64dc7c8eaf21463242e2ed34,,,,,,,decisionTrl,resources/DG.BMP,resources/DP.BMP,Door2,0.223148176,-0.054629644,1,0,0,1.0306,optionRight,40,13630,7,4,0,4,0,1,,,,,,,,,,,,,,,,,,,,,,,,,,,,,,,,,,,,,,,
,,,,,,,,2023-08-16_08h41.49.672,HF_wild_card,2022.2.4,Win32,60.09976561,62da689228c4a8004c8d789d,64d2fd46c836a06233681665,64dc7c8eaf21463242e2ed34,,,,,,,decisionTrl,resources/DY.BMP,resources/DB.BMP,Door4,-0.379629601,0.12870369,1,0,0,0.6987,optionLeft,80,13710,7,5,0,5,0,1,,,,,,,,,,,,,,,,,,,,,,,,,,,,,,,,,,,,,,,
,,,,,,,,2023-08-16_08h41.49.672,HF_wild_card,2022.2.4,Win32,60.09976561,62da689228c4a8004c8d789d,64d2fd46c836a06233681665,64dc7c8eaf21463242e2ed34,,,,,,,decisionTrl,resources/DP.BMP,resources/DG.BMP,Door2,-0.350925912,0.12870369,1,0,0,0.7316,optionLeft,40,13750,7,6,0,6,0,1,,,,,,,,,,,,,,,,,,,,,,,,,,,,,,,,,,,,,,,
,,,,,,,,2023-08-16_08h41.49.672,HF_wild_card,2022.2.4,Win32,60.09976561,62da689228c4a8004c8d789d,64d2fd46c836a06233681665,64dc7c8eaf21463242e2ed34,,,,,,,decisionTrl,resources/DP.BMP,resources/DG.BMP,Door1,0.222222222,-0.049074088,1,0,0,0.6797,optionRight,30,13780,7,7,0,7,0,1,,,,,,,,,,,,,,,,,,,,,,,,,,,,,,,,,,,,,,,
,,,,,,,,2023-08-16_08h41.49.672,HF_wild_card,2022.2.4,Win32,60.09976561,62da689228c4a8004c8d789d,64d2fd46c836a06233681665,64dc7c8eaf21463242e2ed34,,,,,,,decisionTrl,resources/DP.BMP,resources/DG.BMP,Door2,-0.436111111,0.123148134,1,0,0,0.4657,optionLeft,40,13820,7,8,0,8,0,1,,,,,,,,,,,,,,,,,,,,,,,,,,,,,,,,,,,,,,,
,,,,,,,,2023-08-16_08h41.49.672,HF_wild_card,2022.2.4,Win32,60.09976561,62da689228c4a8004c8d789d,64d2fd46c836a06233681665,64dc7c8eaf21463242e2ed34,,,,,,,decisionTrl,resources/DG.BMP,resources/DP.BMP,Door1,-0.387037023,0.137037023,1,0,0,0.515,optionLeft,30,13850,7,9,0,9,0,1,,,,,,,,,,,,,,,,,,,,,,,,,,,,,,,,,,,,,,,
,,,,,,,,2023-08-16_08h41.49.672,HF_wild_card,2022.2.4,Win32,60.09976561,62da689228c4a8004c8d789d,64d2fd46c836a06233681665,64dc7c8eaf21463242e2ed34,,,,,,,decisionTrl,resources/DP.BMP,resources/DG.BMP,Door1,0.162963019,-0.037962977,1,0,0,0.748,optionRight,30,13880,7,10,0,10,0,1,,,,,,,,,,,,,,,,,,,,,,,,,,,,,,,,,,,,,,,
,,,,,,,,2023-08-16_08h41.49.672,HF_wild_card,2022.2.4,Win32,60.09976561,62da689228c4a8004c8d789d,64d2fd46c836a06233681665,64dc7c8eaf21463242e2ed34,,,,,,,decisionTrl,resources/DY.BMP,resources/DB.BMP,Door4,-0.432407379,0.119444444,1,0,0,0.598,optionLeft,60,13940,7,11,0,11,0,1,,,,,,,,,,,,,,,,,,,,,,,,,,,,,,,,,,,,,,,
,,,,,,,,2023-08-16_08h41.49.672,HF_wild_card,2022.2.4,Win32,60.09976561,62da689228c4a8004c8d789d,64d2fd46c836a06233681665,64dc7c8eaf21463242e2ed34,,,,,,,ctch,resources/DY.BMP,resources/DG.BMP,Door4,-0.436111111,0.117592578,1,0,0,0.4495,optionLeft,60,14000,7,12,0,12,0,1,,,,,,,,,,,,,,,,,,,,,,,,,,,,,,,,,,,,,,,
,,,,,,,,2023-08-16_08h41.49.672,HF_wild_card,2022.2.4,Win32,60.09976561,62da689228c4a8004c8d789d,64d2fd46c836a06233681665,64dc7c8eaf21463242e2ed34,,,,,,,decisionTrl,resources/DG.BMP,resources/DP.BMP,Door1,-0.420370356,0.121296268,1,0,0,0.6979,optionLeft,30,14030,7,13,0,13,0,1,,,,,,,,,,,,,,,,,,,,,,,,,,,,,,,,,,,,,,,
,,,,,,,,2023-08-16_08h41.49.672,HF_wild_card,2022.2.4,Win32,60.09976561,62da689228c4a8004c8d789d,64d2fd46c836a06233681665,64dc7c8eaf21463242e2ed34,,,,,,,decisionTrl,resources/DY.BMP,resources/DB.BMP,Door3,0.237037065,-0.066666667,1,0,0,0.8993,optionRight,70,14100,7,14,0,14,0,1,,,,,,,,,,,,,,,,,,,,,,,,,,,,,,,,,,,,,,,
,,,,,,,,2023-08-16_08h41.49.672,HF_wild_card,2022.2.4,Win32,60.09976561,62da689228c4a8004c8d789d,64d2fd46c836a06233681665,64dc7c8eaf21463242e2ed34,,,,,,,decisionTrl,resources/DB.BMP,resources/DY.BMP,Door4,0.226851908,-0.08148151,1,0,0,0.7637,optionRight,60,14160,7,15,0,15,0,1,,,,,,,,,,,,,,,,,,,,,,,,,,,,,,,,,,,,,,,
,,,,,,,,2023-08-16_08h41.49.672,HF_wild_card,2022.2.4,Win32,60.09976561,62da689228c4a8004c8d789d,64d2fd46c836a06233681665,64dc7c8eaf21463242e2ed34,,,,,,,ctch,resources/DP.BMP,resources/DB.BMP,Door3,0.212037065,-0.05648151,1,0,0,0.7152,optionRight,70,14230,7,16,0,16,0,1,,,,,,,,,,,,,,,,,,,,,,,,,,,,,,,,,,,,,,,
,,,,,,,,2023-08-16_08h41.49.672,HF_wild_card,2022.2.4,Win32,60.09976561,62da689228c4a8004c8d789d,64d2fd46c836a06233681665,64dc7c8eaf21463242e2ed34,,,,,,,decisionTrl,resources/DG.BMP,resources/DP.BMP,Door1,-0.376851824,0.115740712,1,0,0,0.7649,optionLeft,30,14260,7,17,0,17,0,1,,,,,,,,,,,,,,,,,,,,,,,,,,,,,,,,,,,,,,,
,,,,,,,,2023-08-16_08h41.49.672,HF_wild_card,2022.2.4,Win32,60.09976561,62da689228c4a8004c8d789d,64d2fd46c836a06233681665,64dc7c8eaf21463242e2ed34,,,,,,,decisionTrl,resources/DP.BMP,resources/DG.BMP,Door2,-0.370370356,0.124074046,1,0,0,0.4988,optionLeft,40,14300,7,18,0,18,0,1,,,,,,,,,,,,,,,,,,,,,,,,,,,,,,,,,,,,,,,
,,,,,,,,2023-08-16_08h41.49.672,HF_wild_card,2022.2.4,Win32,60.09976561,62da689228c4a8004c8d789d,64d2fd46c836a06233681665,64dc7c8eaf21463242e2ed34,,,,,,,decisionTrl,resources/DB.BMP,resources/DY.BMP,Door4,0.218518575,-0.062037065,1,0,0,0.6322,optionRight,80,14380,7,19,0,19,0,1,,,,,,,,,,,,,,,,,,,,,,,,,,,,,,,,,,,,,,,
,,,,,,,,2023-08-16_08h41.49.672,HF_wild_card,2022.2.4,Win32,60.09976561,62da689228c4a8004c8d789d,64d2fd46c836a06233681665,64dc7c8eaf21463242e2ed34,,,,,,,decisionTrl,resources/DY.BMP,resources/DB.BMP,Door4,-0.362037023,0.116666667,1,0,0,0.5484,optionLeft,60,14440,7,20,0,20,0,1,,,,,,,,,,,,,,,,,,,,,,,,,,,,,,,,,,,,,,,
,,,,,,,,2023-08-16_08h41.49.672,HF_wild_card,2022.2.4,Win32,60.09976561,62da689228c4a8004c8d789d,64d2fd46c836a06233681665,64dc7c8eaf21463242e2ed34,,,,,,,decisionTrl,resources/DB.BMP,resources/DY.BMP,Door4,0.234259288,-0.09629631,1,0,0,0.6656,optionRight,60,14500,7,21,0,21,0,1,,,,,,,,,,,,,,,,,,,,,,,,,,,,,,,,,,,,,,,
,,,,,,,,2023-08-16_08h41.49.672,HF_wild_card,2022.2.4,Win32,60.09976561,62da689228c4a8004c8d789d,64d2fd46c836a06233681665,64dc7c8eaf21463242e2ed34,,,,,,,decisionTrl,resources/DP.BMP,resources/DG.BMP,Door2,-0.406481467,0.124074046,1,0,0,0.4656,optionLeft,40,14540,7,22,0,22,0,1,,,,,,,,,,,,,,,,,,,,,,,,,,,,,,,,,,,,,,,
,,,,,,,,2023-08-16_08h41.49.672,HF_wild_card,2022.2.4,Win32,60.09976561,62da689228c4a8004c8d789d,64d2fd46c836a06233681665,64dc7c8eaf21463242e2ed34,,,,,,,decisionTrl,resources/DY.BMP,resources/DB.BMP,Door4,-0.382407379,0.124074046,1,0,0,0.4662,optionLeft,80,14620,7,23,0,23,0,1,,,,,,,,,,,,,,,,,,,,,,,,,,,,,,,,,,,,,,,
,,,,,,,,2023-08-16_08h41.49.672,HF_wild_card,2022.2.4,Win32,60.09976561,62da689228c4a8004c8d789d,64d2fd46c836a06233681665,64dc7c8eaf21463242e2ed34,,,,,,,decisionTrl,resources/DY.BMP,resources/DB.BMP,Door4,-0.409259245,0.119444444,1,0,0,0.43,optionLeft,60,14680,7,24,0,24,0,1,,,,,,,,,,,,,,,,,,,,,,,,,,,,,,,,,,,,,,,
,,,,,,,,2023-08-16_08h41.49.672,HF_wild_card,2022.2.4,Win32,60.09976561,62da689228c4a8004c8d789d,64d2fd46c836a06233681665,64dc7c8eaf21463242e2ed34,,,,,,,decisionTrl,resources/DG.BMP,resources/DP.BMP,Door1,-0.396296268,0.117592578,1,0,0,0.6369,optionLeft,30,14710,7,25,0,25,0,1,,,,,,,,,,,,,,,,,,,,,,,,,,,,,,,,,,,,,,,
,,,,,,,,2023-08-16_08h41.49.672,HF_wild_card,2022.2.4,Win32,60.09976561,62da689228c4a8004c8d789d,64d2fd46c836a06233681665,64dc7c8eaf21463242e2ed34,,,,,,,ctch,resources/DY.BMP,resources/DG.BMP,Door4,-0.406481467,0.119444444,1,0,0,0.4487,optionLeft,60,14770,7,26,0,26,0,1,,,,,,,,,,,,,,,,,,,,,,,,,,,,,,,,,,,,,,,
,,,,,,,,2023-08-16_08h41.49.672,HF_wild_card,2022.2.4,Win32,60.09976561,62da689228c4a8004c8d789d,64d2fd46c836a06233681665,64dc7c8eaf21463242e2ed34,,,,,,,ctch,resources/DY.BMP,resources/DG.BMP,Door4,-0.408333333,0.117592578,1,0,0,0.4322,optionLeft,60,14830,7,27,0,27,0,1,,,,,,,,,,,,,,,,,,,,,,,,,,,,,,,,,,,,,,,
,,,,,,,,2023-08-16_08h41.49.672,HF_wild_card,2022.2.4,Win32,60.09976561,62da689228c4a8004c8d789d,64d2fd46c836a06233681665,64dc7c8eaf21463242e2ed34,,,,,,,ctch,resources/DB.BMP,resources/DP.BMP,Door3,-0.407407379,0.116666667,1,0,0,0.5471,optionLeft,70,14900,7,28,0,28,0,1,,,,,,,,,,,,,,,,,,,,,,,,,,,,,,,,,,,,,,,
,,,,,,,,2023-08-16_08h41.49.672,HF_wild_card,2022.2.4,Win32,60.09976561,62da689228c4a8004c8d789d,64d2fd46c836a06233681665,64dc7c8eaf21463242e2ed34,,,,,,,ctch,resources/DB.BMP,resources/DP.BMP,Door3,-0.402777778,0.11851849,1,0,0,0.4493,optionLeft,70,14970,7,29,0,29,0,1,,,,,,,,,,,,,,,,,,,,,,,,,,,,,,,,,,,,,,,
,,,,,,,,2023-08-16_08h41.49.672,HF_wild_card,2022.2.4,Win32,60.09976561,62da689228c4a8004c8d789d,64d2fd46c836a06233681665,64dc7c8eaf21463242e2ed34,,,,,,,decisionTrl,resources/DB.BMP,resources/DY.BMP,Door4,0.215740797,-0.065740755,1,0,0,0.6998,optionRight,80,15050,7,30,0,30,0,1,,,,,,,,,,,,,,,,,,,,,,,,,,,,,,,,,,,,,,,
,,,,,,,,2023-08-16_08h41.49.672,HF_wild_card,2022.2.4,Win32,60.09976561,62da689228c4a8004c8d789d,64d2fd46c836a06233681665,64dc7c8eaf21463242e2ed34,,,,,,,ctch,resources/DP.BMP,resources/DB.BMP,Door3,0.195370399,-0.070370399,1,0,0,0.7654,optionRight,70,15120,7,31,0,31,0,1,,,,,,,,,,,,,,,,,,,,,,,,,,,,,,,,,,,,,,,
,,,,,,,,2023-08-16_08h41.49.672,HF_wild_card,2022.2.4,Win32,60.09976561,62da689228c4a8004c8d789d,64d2fd46c836a06233681665,64dc7c8eaf21463242e2ed34,,,,,,,ctch,resources/DB.BMP,resources/DP.BMP,Door3,-0.395370356,0.115740712,1,0,0,0.4625,optionLeft,70,15190,7,32,0,32,0,1,,,,,,,,,,,,,,,,,,,,,,,,,,,,,,,,,,,,,,,
,,,,,,,,2023-08-16_08h41.49.672,HF_wild_card,2022.2.4,Win32,60.09976561,62da689228c4a8004c8d789d,64d2fd46c836a06233681665,64dc7c8eaf21463242e2ed34,,,,,,,ctch,resources/DG.BMP,resources/DY.BMP,Door4,0.216666667,-0.068518533,1,0,0,0.7653,optionRight,80,15270,7,33,0,33,0,1,,,,,,,,,,,,,,,,,,,,,,,,,,,,,,,,,,,,,,,
,,,,,,,,2023-08-16_08h41.49.672,HF_wild_card,2022.2.4,Win32,60.09976561,62da689228c4a8004c8d789d,64d2fd46c836a06233681665,64dc7c8eaf21463242e2ed34,,,,,,,ctch,resources/DG.BMP,resources/DY.BMP,Door4,0.202777778,-0.043518533,1,0,0,0.5996,optionRight,80,15350,7,34,0,34,0,1,,,,,,,,,,,,,,,,,,,,,,,,,,,,,,,,,,,,,,,
,,,,,,,,2023-08-16_08h41.49.672,HF_wild_card,2022.2.4,Win32,60.09976561,62da689228c4a8004c8d789d,64d2fd46c836a06233681665,64dc7c8eaf21463242e2ed34,,,,,,,decisionTrl,resources/DB.BMP,resources/DY.BMP,Door4,0.190740797,-0.065740755,1,0,0,0.6489,optionRight,60,15410,7,35,0,35,0,1,,,,,,,,,,,,,,,,,,,,,,,,,,,,,,,,,,,,,,,
,,,,,,,,2023-08-16_08h41.49.672,HF_wild_card,2022.2.4,Win32,60.09976561,62da689228c4a8004c8d789d,64d2fd46c836a06233681665,64dc7c8eaf21463242e2ed34,,,,,,,,,,,,,,,,,,,,,,,,,,6,0,6,0,1,,,,,,,,,,,,,,,,,,,,,,,,,,,,,,,,,,
,,,,,,,,2023-08-16_08h41.49.672,HF_wild_card,2022.2.4,Win32,60.09976561,62da689228c4a8004c8d789d,64d2fd46c836a06233681665,64dc7c8eaf21463242e2ed34,,,,,,,,,,,,,,,,,,,,,,,,,,,,,,,3,,,,,,,,,,,,,,,,,,,,,,,,,,,,,,,,,
,,,,,,,,2023-08-16_08h41.49.672,HF_wild_card,2022.2.4,Win32,60.09976561,62da689228c4a8004c8d789d,64d2fd46c836a06233681665,64dc7c8eaf21463242e2ed34,,,,,,,,,,,,,,,,,,,,,,,,,,,,,,,,,,,,,,,,,,,,,,,,,,,,,,,,,,,,,,,,
,,,,,,,,2023-08-16_08h41.49.672,HF_wild_card,2022.2.4,Win32,60.09976561,62da689228c4a8004c8d789d,64d2fd46c836a06233681665,64dc7c8eaf21463242e2ed34,,,,,,,,,,,,,,,,,,,,,,,,,,,,,,,,30,Door1,resources/DG.BMP,0,0,0,0,1,,,,,,,,,,,,,,,,,,,,,,,,,
,,,,,,,,2023-08-16_08h41.49.672,HF_wild_card,2022.2.4,Win32,60.09976561,62da689228c4a8004c8d789d,64d2fd46c836a06233681665,64dc7c8eaf21463242e2ed34,,,,,,,,,,,,,,,,,,,,,,,,,,,,,,,,45,Door2,resources/DP.BMP,1,0,1,0,1,,,,,,,,,,,,,,,,,,,,,,,,,
,,,,,,,,2023-08-16_08h41.49.672,HF_wild_card,2022.2.4,Win32,60.09976561,62da689228c4a8004c8d789d,64d2fd46c836a06233681665,64dc7c8eaf21463242e2ed34,,,,,,,,,,,,,,,,,,,,,,,,,,,,,,,,55,WC_extreme,resources/DR.BMP,2,0,2,0,1,,,,,,,,,,,,,,,,,,,,,,,,,
,,,,,,,,2023-08-16_08h41.49.672,HF_wild_card,2022.2.4,Win32,60.09976561,62da689228c4a8004c8d789d,64d2fd46c836a06233681665,64dc7c8eaf21463242e2ed34,,,,,,,,,,,,,,,,,,,,,,,,,,,,,,,,80,Door4,resources/DY.BMP,3,0,3,0,1,,,,,,,,,,,,,,,,,,,,,,,,,
,,,,,,,,2023-08-16_08h41.49.672,HF_wild_card,2022.2.4,Win32,60.09976561,62da689228c4a8004c8d789d,64d2fd46c836a06233681665,64dc7c8eaf21463242e2ed34,,,,,,,,,,,,,,,,,,,,,,,,,,,,,,,,50,WC_nonExtreme,resources/DBN.BMP,4,0,4,0,1,,,,,,,,,,,,,,,,,,,,,,,,,
,,,,,,,,2023-08-16_08h41.49.672,HF_wild_card,2022.2.4,Win32,60.09976561,62da689228c4a8004c8d789d,64d2fd46c836a06233681665,64dc7c8eaf21463242e2ed34,,,,,,,,,,,,,,,,,,,,,,,,,,,,,,,,70,Door3,resources/DB.BMP,5,0,5,0,1,,,,,,,,,,,,,,,,,,,,,,,,,
,,,,,,,,2023-08-16_08h41.49.672,HF_wild_card,2022.2.4,Win32,60.09976561,62da689228c4a8004c8d789d,64d2fd46c836a06233681665,64dc7c8eaf21463242e2ed34,,,,,,,,,,,,,,,,,,,,,,,,,,,,,,,,,,,,,,,,,,,,,,,,,,,,,,,,,,,,,,,,
,,,,,,,,2023-08-16_08h41.49.672,HF_wild_card,2022.2.4,Win32,60.09976561,62da689228c4a8004c8d789d,64d2fd46c836a06233681665,64dc7c8eaf21463242e2ed34,,,,,,,,,,,,,,,,,,,,,,,,,,,,,,,,,,,,,,,,0,0,0,0,1,,,,,,,,,,,,,,,,,,,,
