Condition,Low fixed image (Door1),Low risky image (Door2),High fixed image (Door3),High risky image (Door4),Extreme Wild Card,NonExtreme Wild Card,,date,expName,psychopyVersion,OS,frameRate,PROLIFIC_PID,STUDY_ID,SESSION_ID,mouse_2.x,mouse_2.y,mouse_2.leftButton,mouse_2.midButton,mouse_2.rightButton,mouse_2.clicked_name,Trial Type,Left Option Image,Right Option Image,Chosen Door,mouse.x,mouse.y,mouse.leftButton,mouse.midButton,mouse.rightButton,mouse.time,mouse.clicked_name,Feedback,Cumulative Reward,Block,trial.thisRepN,trial.thisTrialN,trial.thisN,trial.thisIndex,trial.ran,blocks.thisRepN,blocks.thisTrialN,blocks.thisN,blocks.thisIndex,blocks.ran,Money conversion,First Outcome Reported,Shown Door (First Outcome),Displayed Image (First Outcome),outcomes.thisRepN,outcomes.thisTrialN,outcomes.thisN,outcomes.thisIndex,outcomes.ran,judgments.thisRepN,judgments.thisTrialN,judgments.thisN,judgments.thisIndex,judgments.ran,freqMouse.x,freqMouse.y,freqMouse.leftButton,freqMouse.midButton,freqMouse.rightButton,freqMouse.clicked_name,trials.thisRepN,trials.thisTrialN,trials.thisN,trials.thisIndex,trials.ran,FQJ for first outcome,FQJ for second outcome,Shown Door,Displayed Image,judgBlock.thisRepN,judgBlock.thisTrialN,judgBlock.thisN,judgBlock.thisIndex,judgBlock.ran
0,resources/DB.BMP,resources/DBN.BMP,resources/DG.BMP,resources/DY.BMP,resources/DR.BMP,resources/DP.BMP,,2023-08-16_08h45.14.910,HF_wild_card,2022.2.4,Win32,59.87665409,647849063b9fd9be24803727,64d2fd46c836a06233681665,64dc7e5ae8c79331eb2da897,,,,,,,,,,,,,,,,,,,,,,,,,,,,,,,,,,,,,,,,,,,,,,,,,,,,,,,,,,,,,,,,
,,,,,,,,2023-08-16_08h45.14.910,HF_wild_card,2022.2.4,Win32,59.87665409,647849063b9fd9be24803727,64d2fd46c836a06233681665,64dc7e5ae8c79331eb2da897,-0.003703647,-0.416666667,1,0,0,agree,,,,,,,,,,,,,,,,,,,,,,,,,,,,,,,,,,,,,,,,,,,,,,,,,,,,,,,,,,
,,,,,,,,2023-08-16_08h45.14.910,HF_wild_card,2022.2.4,Win32,59.87665409,647849063b9fd9be24803727,64d2fd46c836a06233681665,64dc7e5ae8c79331eb2da897,,,,,,,,,,,,,,,,,,,,,,,,,,,,,,,,,,,,,,,,,,,,,,,,,,,,,,,,,,,,,,,,
,,,,,,,,2023-08-16_08h45.14.910,HF_wild_card,2022.2.4,Win32,59.87665409,647849063b9fd9be24803727,64d2fd46c836a06233681665,64dc7e5ae8c79331eb2da897,,,,,,,decisionTrl,resources/DB.BMP,resources/DBN.BMP,Door2,0.359259288,-0.190740755,1,0,0,5.3114,optionRight,40,40,1,0,0,0,0,1,,,,,,,,,,,,,,,,,,,,,,,,,,,,,,,,,,,,,,,
,,,,,,,,2023-08-16_08h45.14.910,HF_wild_card,2022.2.4,Win32,59.87665409,647849063b9fd9be24803727,64d2fd46c836a06233681665,64dc7e5ae8c79331eb2da897,,,,,,,decisionTrl,resources/DG.BMP,resources/DY.BMP,Door4,0.367592621,-0.065740755,1,0,0,2.9587,optionRight,80,120,1,1,0,1,0,1,,,,,,,,,,,,,,,,,,,,,,,,,,,,,,,,,,,,,,,
,,,,,,,,2023-08-16_08h45.14.910,HF_wild_card,2022.2.4,Win32,59.87665409,647849063b9fd9be24803727,64d2fd46c836a06233681665,64dc7e5ae8c79331eb2da897,,,,,,,sngl,resources/Empty.png,resources/DR.BMP,WildCard_Ex,0.350925954,-0.029629644,1,0,0,1.9745,optionRight,95,215,1,2,0,2,0,1,,,,,,,,,,,,,,,,,,,,,,,,,,,,,,,,,,,,,,,
,,,,,,,,2023-08-16_08h45.14.910,HF_wild_card,2022.2.4,Win32,59.87665409,647849063b9fd9be24803727,64d2fd46c836a06233681665,64dc7e5ae8c79331eb2da897,,,,,,,decisionTrl,resources/DG.BMP,resources/DR.BMP,WildCard_Ex,0.194444444,-0.017592621,1,0,0,4.9294,optionRight,5,220,1,3,0,3,0,1,,,,,,,,,,,,,,,,,,,,,,,,,,,,,,,,,,,,,,,
,,,,,,,,2023-08-16_08h45.14.910,HF_wild_card,2022.2.4,Win32,59.87665409,647849063b9fd9be24803727,64d2fd46c836a06233681665,64dc7e5ae8c79331eb2da897,,,,,,,decisionTrl,resources/DB.BMP,resources/DBN.BMP,Door1,-0.301851824,-0.025925954,1,0,0,3.0765,optionLeft,30,250,1,4,0,4,0,1,,,,,,,,,,,,,,,,,,,,,,,,,,,,,,,,,,,,,,,
,,,,,,,,2023-08-16_08h45.14.910,HF_wild_card,2022.2.4,Win32,59.87665409,647849063b9fd9be24803727,64d2fd46c836a06233681665,64dc7e5ae8c79331eb2da897,,,,,,,decisionTrl,resources/DY.BMP,resources/DG.BMP,Door4,-0.284259245,-0.015740755,1,0,0,2.9623,optionLeft,80,330,1,5,0,5,0,1,,,,,,,,,,,,,,,,,,,,,,,,,,,,,,,,,,,,,,,
,,,,,,,,2023-08-16_08h45.14.910,HF_wild_card,2022.2.4,Win32,59.87665409,647849063b9fd9be24803727,64d2fd46c836a06233681665,64dc7e5ae8c79331eb2da897,,,,,,,decisionTrl,resources/DY.BMP,resources/DG.BMP,Door3,0.268518575,0.00370369,1,0,0,2.7258,optionRight,70,400,1,6,0,6,0,1,,,,,,,,,,,,,,,,,,,,,,,,,,,,,,,,,,,,,,,
,,,,,,,,2023-08-16_08h45.14.910,HF_wild_card,2022.2.4,Win32,59.87665409,647849063b9fd9be24803727,64d2fd46c836a06233681665,64dc7e5ae8c79331eb2da897,,,,,,,decisionTrl,resources/DY.BMP,resources/DG.BMP,Door4,-0.279629601,-0.012962977,1,0,0,1.898,optionLeft,60,460,1,7,0,7,0,1,,,,,,,,,,,,,,,,,,,,,,,,,,,,,,,,,,,,,,,
,,,,,,,,2023-08-16_08h45.14.910,HF_wild_card,2022.2.4,Win32,59.87665409,647849063b9fd9be24803727,64d2fd46c836a06233681665,64dc7e5ae8c79331eb2da897,,,,,,,decisionTrl,resources/DR.BMP,resources/DBN.BMP,WildCard_Ex,-0.25,0.002777778,1,0,0,2.3149,optionLeft,5,465,1,8,0,8,0,1,,,,,,,,,,,,,,,,,,,,,,,,,,,,,,,,,,,,,,,
,,,,,,,,2023-08-16_08h45.14.910,HF_wild_card,2022.2.4,Win32,59.87665409,647849063b9fd9be24803727,64d2fd46c836a06233681665,64dc7e5ae8c79331eb2da897,,,,,,,sngl,resources/DBN.BMP,resources/Empty.png,Door2,-0.315740712,0.006481467,1,0,0,1.2128,optionLeft,40,505,1,9,0,9,0,1,,,,,,,,,,,,,,,,,,,,,,,,,,,,,,,,,,,,,,,
,,,,,,,,2023-08-16_08h45.14.910,HF_wild_card,2022.2.4,Win32,59.87665409,647849063b9fd9be24803727,64d2fd46c836a06233681665,64dc7e5ae8c79331eb2da897,,,,,,,decisionTrl,resources/DBN.BMP,resources/DB.BMP,Door2,-0.208333333,0,1,0,0,2.8784,optionLeft,40,545,1,10,0,10,0,1,,,,,,,,,,,,,,,,,,,,,,,,,,,,,,,,,,,,,,,
,,,,,,,,2023-08-16_08h45.14.910,HF_wild_card,2022.2.4,Win32,59.87665409,647849063b9fd9be24803727,64d2fd46c836a06233681665,64dc7e5ae8c79331eb2da897,,,,,,,ctch,resources/DB.BMP,resources/DY.BMP,Door4,0.20648151,-0.009259288,1,0,0,1.4937,optionRight,80,625,1,11,0,11,0,1,,,,,,,,,,,,,,,,,,,,,,,,,,,,,,,,,,,,,,,
,,,,,,,,2023-08-16_08h45.14.910,HF_wild_card,2022.2.4,Win32,59.87665409,647849063b9fd9be24803727,64d2fd46c836a06233681665,64dc7e5ae8c79331eb2da897,,,,,,,decisionTrl,resources/DBN.BMP,resources/DB.BMP,Door1,0.235185242,-0.004629644,1,0,0,3.0772,optionRight,30,655,1,12,0,12,0,1,,,,,,,,,,,,,,,,,,,,,,,,,,,,,,,,,,,,,,,
,,,,,,,,2023-08-16_08h45.14.910,HF_wild_card,2022.2.4,Win32,59.87665409,647849063b9fd9be24803727,64d2fd46c836a06233681665,64dc7e5ae8c79331eb2da897,,,,,,,decisionTrl,resources/DR.BMP,resources/DB.BMP,WildCard_Ex,-0.212962935,-0.009259288,1,0,0,1.8375,optionLeft,5,660,1,13,0,13,0,1,,,,,,,,,,,,,,,,,,,,,,,,,,,,,,,,,,,,,,,
,,,,,,,,2023-08-16_08h45.14.910,HF_wild_card,2022.2.4,Win32,59.87665409,647849063b9fd9be24803727,64d2fd46c836a06233681665,64dc7e5ae8c79331eb2da897,,,,,,,ctch,resources/DY.BMP,resources/DB.BMP,Door4,-0.245370356,-0.008333333,1,0,0,1.5421,optionLeft,80,740,1,14,0,14,0,1,,,,,,,,,,,,,,,,,,,,,,,,,,,,,,,,,,,,,,,
,,,,,,,,2023-08-16_08h45.14.910,HF_wild_card,2022.2.4,Win32,59.87665409,647849063b9fd9be24803727,64d2fd46c836a06233681665,64dc7e5ae8c79331eb2da897,,,,,,,ctch,resources/DY.BMP,resources/DB.BMP,Door4,-0.273148134,0.001851824,1,0,0,1.3206,optionLeft,60,800,1,15,0,15,0,1,,,,,,,,,,,,,,,,,,,,,,,,,,,,,,,,,,,,,,,
,,,,,,,,2023-08-16_08h45.14.910,HF_wild_card,2022.2.4,Win32,59.87665409,647849063b9fd9be24803727,64d2fd46c836a06233681665,64dc7e5ae8c79331eb2da897,,,,,,,sngl,resources/Empty.png,resources/DB.BMP,Door1,0.213888889,0.004629601,1,0,0,1.049,optionRight,30,830,1,16,0,16,0,1,,,,,,,,,,,,,,,,,,,,,,,,,,,,,,,,,,,,,,,
,,,,,,,,2023-08-16_08h45.14.910,HF_wild_card,2022.2.4,Win32,59.87665409,647849063b9fd9be24803727,64d2fd46c836a06233681665,64dc7e5ae8c79331eb2da897,,,,,,,sngl,resources/DR.BMP,resources/Empty.png,WildCard_Ex,-0.279629601,-0.000925954,1,0,0,1.1157,optionLeft,95,925,1,17,0,17,0,1,,,,,,,,,,,,,,,,,,,,,,,,,,,,,,,,,,,,,,,
,,,,,,,,2023-08-16_08h45.14.910,HF_wild_card,2022.2.4,Win32,59.87665409,647849063b9fd9be24803727,64d2fd46c836a06233681665,64dc7e5ae8c79331eb2da897,,,,,,,decisionTrl,resources/DY.BMP,resources/DR.BMP,WildCard_Ex,0.238888889,-0.008333333,1,0,0,1.0528,optionRight,5,930,1,18,0,18,0,1,,,,,,,,,,,,,,,,,,,,,,,,,,,,,,,,,,,,,,,
,,,,,,,,2023-08-16_08h45.14.910,HF_wild_card,2022.2.4,Win32,59.87665409,647849063b9fd9be24803727,64d2fd46c836a06233681665,64dc7e5ae8c79331eb2da897,,,,,,,sngl,resources/DY.BMP,resources/Empty.png,Door4,-0.25370369,-0.004629644,1,0,0,1.0645,optionLeft,80,1010,1,19,0,19,0,1,,,,,,,,,,,,,,,,,,,,,,,,,,,,,,,,,,,,,,,
,,,,,,,,2023-08-16_08h45.14.910,HF_wild_card,2022.2.4,Win32,59.87665409,647849063b9fd9be24803727,64d2fd46c836a06233681665,64dc7e5ae8c79331eb2da897,,,,,,,sngl,resources/Empty.png,resources/DBN.BMP,Door2,0.278703732,-0.001851866,1,0,0,1.1933,optionRight,20,1030,1,20,0,20,0,1,,,,,,,,,,,,,,,,,,,,,,,,,,,,,,,,,,,,,,,
,,,,,,,,2023-08-16_08h45.14.910,HF_wild_card,2022.2.4,Win32,59.87665409,647849063b9fd9be24803727,64d2fd46c836a06233681665,64dc7e5ae8c79331eb2da897,,,,,,,sngl,resources/Empty.png,resources/DG.BMP,Door3,0.296296353,0.000925912,1,0,0,1.6937,optionRight,70,1100,1,21,0,21,0,1,,,,,,,,,,,,,,,,,,,,,,,,,,,,,,,,,,,,,,,
,,,,,,,,2023-08-16_08h45.14.910,HF_wild_card,2022.2.4,Win32,59.87665409,647849063b9fd9be24803727,64d2fd46c836a06233681665,64dc7e5ae8c79331eb2da897,,,,,,,ctch,resources/DBN.BMP,resources/DG.BMP,Door2,-0.286111111,0,1,0,0,2.0686,optionLeft,20,1120,1,22,0,22,0,1,,,,,,,,,,,,,,,,,,,,,,,,,,,,,,,,,,,,,,,
,,,,,,,,2023-08-16_08h45.14.910,HF_wild_card,2022.2.4,Win32,59.87665409,647849063b9fd9be24803727,64d2fd46c836a06233681665,64dc7e5ae8c79331eb2da897,,,,,,,sngl,resources/DR.BMP,resources/Empty.png,WildCard_Ex,-0.289814801,-0.002777778,1,0,0,1.1471,optionLeft,5,1125,1,23,0,23,0,1,,,,,,,,,,,,,,,,,,,,,,,,,,,,,,,,,,,,,,,
,,,,,,,,2023-08-16_08h45.14.910,HF_wild_card,2022.2.4,Win32,59.87665409,647849063b9fd9be24803727,64d2fd46c836a06233681665,64dc7e5ae8c79331eb2da897,,,,,,,decisionTrl,resources/DG.BMP,resources/DY.BMP,Door4,0.217592621,0,1,0,0,1.1682,optionRight,60,1185,1,24,0,24,0,1,,,,,,,,,,,,,,,,,,,,,,,,,,,,,,,,,,,,,,,
,,,,,,,,2023-08-16_08h45.14.910,HF_wild_card,2022.2.4,Win32,59.87665409,647849063b9fd9be24803727,64d2fd46c836a06233681665,64dc7e5ae8c79331eb2da897,,,,,,,decisionTrl,resources/DB.BMP,resources/DBN.BMP,Door2,0.244444444,0.001851824,1,0,0,1.8606,optionRight,20,1205,1,25,0,25,0,1,,,,,,,,,,,,,,,,,,,,,,,,,,,,,,,,,,,,,,,
,,,,,,,,2023-08-16_08h45.14.910,HF_wild_card,2022.2.4,Win32,59.87665409,647849063b9fd9be24803727,64d2fd46c836a06233681665,64dc7e5ae8c79331eb2da897,,,,,,,decisionTrl,resources/DG.BMP,resources/DY.BMP,Door3,-0.190740712,-0.000925954,1,0,0,1.8418,optionLeft,70,1275,1,26,0,26,0,1,,,,,,,,,,,,,,,,,,,,,,,,,,,,,,,,,,,,,,,
,,,,,,,,2023-08-16_08h45.14.910,HF_wild_card,2022.2.4,Win32,59.87665409,647849063b9fd9be24803727,64d2fd46c836a06233681665,64dc7e5ae8c79331eb2da897,,,,,,,decisionTrl,resources/DB.BMP,resources/DBN.BMP,Door1,-0.208333333,0.012037023,1,0,0,2.7782,optionLeft,30,1305,1,27,0,27,0,1,,,,,,,,,,,,,,,,,,,,,,,,,,,,,,,,,,,,,,,
,,,,,,,,2023-08-16_08h45.14.910,HF_wild_card,2022.2.4,Win32,59.87665409,647849063b9fd9be24803727,64d2fd46c836a06233681665,64dc7e5ae8c79331eb2da897,,,,,,,sngl,resources/DG.BMP,resources/Empty.png,Door3,-0.191666667,0.000925912,1,0,0,1.1282,optionLeft,70,1375,1,28,0,28,0,1,,,,,,,,,,,,,,,,,,,,,,,,,,,,,,,,,,,,,,,
,,,,,,,,2023-08-16_08h45.14.910,HF_wild_card,2022.2.4,Win32,59.87665409,647849063b9fd9be24803727,64d2fd46c836a06233681665,64dc7e5ae8c79331eb2da897,,,,,,,decisionTrl,resources/DBN.BMP,resources/DB.BMP,Door1,0.235185242,0.000925912,1,0,0,1.659,optionRight,30,1405,1,29,0,29,0,1,,,,,,,,,,,,,,,,,,,,,,,,,,,,,,,,,,,,,,,
,,,,,,,,2023-08-16_08h45.14.910,HF_wild_card,2022.2.4,Win32,59.87665409,647849063b9fd9be24803727,64d2fd46c836a06233681665,64dc7e5ae8c79331eb2da897,,,,,,,ctch,resources/DBN.BMP,resources/DG.BMP,Door2,-0.205555556,-0.004629644,1,0,0,1.4627,optionLeft,20,1425,1,30,0,30,0,1,,,,,,,,,,,,,,,,,,,,,,,,,,,,,,,,,,,,,,,
,,,,,,,,2023-08-16_08h45.14.910,HF_wild_card,2022.2.4,Win32,59.87665409,647849063b9fd9be24803727,64d2fd46c836a06233681665,64dc7e5ae8c79331eb2da897,,,,,,,sngl,resources/DB.BMP,resources/Empty.png,Door1,-0.234259245,-0.00648151,1,0,0,0.9434,optionLeft,30,1455,1,31,0,31,0,1,,,,,,,,,,,,,,,,,,,,,,,,,,,,,,,,,,,,,,,
,,,,,,,,2023-08-16_08h45.14.910,HF_wild_card,2022.2.4,Win32,59.87665409,647849063b9fd9be24803727,64d2fd46c836a06233681665,64dc7e5ae8c79331eb2da897,,,,,,,ctch,resources/DB.BMP,resources/DY.BMP,Door4,0.212037065,-0.005555556,1,0,0,1.0762,optionRight,80,1535,1,32,0,32,0,1,,,,,,,,,,,,,,,,,,,,,,,,,,,,,,,,,,,,,,,
,,,,,,,,2023-08-16_08h45.14.910,HF_wild_card,2022.2.4,Win32,59.87665409,647849063b9fd9be24803727,64d2fd46c836a06233681665,64dc7e5ae8c79331eb2da897,,,,,,,sngl,resources/Empty.png,resources/DR.BMP,WildCard_Ex,0.199074131,-0.002777778,1,0,0,1.1933,optionRight,5,1540,1,33,0,33,0,1,,,,,,,,,,,,,,,,,,,,,,,,,,,,,,,,,,,,,,,
,,,,,,,,2023-08-16_08h45.14.910,HF_wild_card,2022.2.4,Win32,59.87665409,647849063b9fd9be24803727,64d2fd46c836a06233681665,64dc7e5ae8c79331eb2da897,,,,,,,ctch,resources/DG.BMP,resources/DBN.BMP,Door3,-0.187962935,0.00370369,1,0,0,3.1614,optionLeft,70,1610,1,34,0,34,0,1,,,,,,,,,,,,,,,,,,,,,,,,,,,,,,,,,,,,,,,
,,,,,,,,2023-08-16_08h45.14.910,HF_wild_card,2022.2.4,Win32,59.87665409,647849063b9fd9be24803727,64d2fd46c836a06233681665,64dc7e5ae8c79331eb2da897,,,,,,,decisionTrl,resources/DG.BMP,resources/DY.BMP,Door4,0.277777778,-0.014814843,1,0,0,1.8931,optionRight,60,1670,1,35,0,35,0,1,,,,,,,,,,,,,,,,,,,,,,,,,,,,,,,,,,,,,,,
,,,,,,,,2023-08-16_08h45.14.910,HF_wild_card,2022.2.4,Win32,59.87665409,647849063b9fd9be24803727,64d2fd46c836a06233681665,64dc7e5ae8c79331eb2da897,,,,,,,sngl,resources/Empty.png,resources/DY.BMP,Door4,0.274074131,-0.002777778,1,0,0,0.8956,optionRight,60,1730,1,36,0,36,0,1,,,,,,,,,,,,,,,,,,,,,,,,,,,,,,,,,,,,,,,
,,,,,,,,2023-08-16_08h45.14.910,HF_wild_card,2022.2.4,Win32,59.87665409,647849063b9fd9be24803727,64d2fd46c836a06233681665,64dc7e5ae8c79331eb2da897,,,,,,,decisionTrl,resources/DY.BMP,resources/DG.BMP,Door4,-0.237962935,-0.019444444,1,0,0,1.3115,optionLeft,80,1810,1,37,0,37,0,1,,,,,,,,,,,,,,,,,,,,,,,,,,,,,,,,,,,,,,,
,,,,,,,,2023-08-16_08h45.14.910,HF_wild_card,2022.2.4,Win32,59.87665409,647849063b9fd9be24803727,64d2fd46c836a06233681665,64dc7e5ae8c79331eb2da897,,,,,,,decisionTrl,resources/DBN.BMP,resources/DR.BMP,WildCard_Ex,0.258333333,-0.001851866,1,0,0,2.1924,optionRight,95,1905,1,38,0,38,0,1,,,,,,,,,,,,,,,,,,,,,,,,,,,,,,,,,,,,,,,
,,,,,,,,2023-08-16_08h45.14.910,HF_wild_card,2022.2.4,Win32,59.87665409,647849063b9fd9be24803727,64d2fd46c836a06233681665,64dc7e5ae8c79331eb2da897,,,,,,,ctch,resources/DG.BMP,resources/DBN.BMP,Door3,-0.262037023,-0.00648151,1,0,0,3.5602,optionLeft,70,1975,1,39,0,39,0,1,,,,,,,,,,,,,,,,,,,,,,,,,,,,,,,,,,,,,,,
,,,,,,,,2023-08-16_08h45.14.910,HF_wild_card,2022.2.4,Win32,59.87665409,647849063b9fd9be24803727,64d2fd46c836a06233681665,64dc7e5ae8c79331eb2da897,,,,,,,decisionTrl,resources/DR.BMP,resources/DG.BMP,WildCard_Ex,-0.186111111,-0.007407422,1,0,0,2.4429,optionLeft,95,2070,1,40,0,40,0,1,,,,,,,,,,,,,,,,,,,,,,,,,,,,,,,,,,,,,,,
,,,,,,,,2023-08-16_08h45.14.910,HF_wild_card,2022.2.4,Win32,59.87665409,647849063b9fd9be24803727,64d2fd46c836a06233681665,64dc7e5ae8c79331eb2da897,,,,,,,decisionTrl,resources/DB.BMP,resources/DR.BMP,WildCard_Ex,0.28148151,-0.007407422,1,0,0,2.1745,optionRight,5,2075,1,41,0,41,0,1,,,,,,,,,,,,,,,,,,,,,,,,,,,,,,,,,,,,,,,
,,,,,,,,2023-08-16_08h45.14.910,HF_wild_card,2022.2.4,Win32,59.87665409,647849063b9fd9be24803727,64d2fd46c836a06233681665,64dc7e5ae8c79331eb2da897,,,,,,,decisionTrl,resources/DBN.BMP,resources/DB.BMP,Door1,0.217592621,-0.004629644,1,0,0,1.4768,optionRight,30,2105,1,42,0,42,0,1,,,,,,,,,,,,,,,,,,,,,,,,,,,,,,,,,,,,,,,
,,,,,,,,2023-08-16_08h45.14.910,HF_wild_card,2022.2.4,Win32,59.87665409,647849063b9fd9be24803727,64d2fd46c836a06233681665,64dc7e5ae8c79331eb2da897,,,,,,,decisionTrl,resources/DR.BMP,resources/DY.BMP,Door4,0.369444444,0.002777778,1,0,0,1.1766,optionRight,60,2165,1,43,0,43,0,1,,,,,,,,,,,,,,,,,,,,,,,,,,,,,,,,,,,,,,,
,,,,,,,,2023-08-16_08h45.14.910,HF_wild_card,2022.2.4,Win32,59.87665409,647849063b9fd9be24803727,64d2fd46c836a06233681665,64dc7e5ae8c79331eb2da897,,,,,,,,,,,,,,,,,,,,,,,,,,0,0,0,0,1,,,,,,,,,,,,,,,,,,,,,,,,,,,,,,,,,,
,,,,,,,,2023-08-16_08h45.14.910,HF_wild_card,2022.2.4,Win32,59.87665409,647849063b9fd9be24803727,64d2fd46c836a06233681665,64dc7e5ae8c79331eb2da897,,,,,,,decisionTrl,resources/DBN.BMP,resources/DB.BMP,Door1,0.261111111,-0.08148151,1,0,0,1.506,optionRight,30,2195,2,0,0,0,0,1,,,,,,,,,,,,,,,,,,,,,,,,,,,,,,,,,,,,,,,
,,,,,,,,2023-08-16_08h45.14.910,HF_wild_card,2022.2.4,Win32,59.87665409,647849063b9fd9be24803727,64d2fd46c836a06233681665,64dc7e5ae8c79331eb2da897,,,,,,,decisionTrl,resources/DB.BMP,resources/DBN.BMP,Door2,0.333333333,-0.040740755,1,0,0,1.1099,optionRight,20,2215,2,1,0,1,0,1,,,,,,,,,,,,,,,,,,,,,,,,,,,,,,,,,,,,,,,
,,,,,,,,2023-08-16_08h45.14.910,HF_wild_card,2022.2.4,Win32,59.87665409,647849063b9fd9be24803727,64d2fd46c836a06233681665,64dc7e5ae8c79331eb2da897,,,,,,,decisionTrl,resources/DBN.BMP,resources/DR.BMP,Door2,-0.338888889,-0.019444444,1,0,0,2.8806,optionLeft,20,2235,2,2,0,2,0,1,,,,,,,,,,,,,,,,,,,,,,,,,,,,,,,,,,,,,,,
,,,,,,,,2023-08-16_08h45.14.910,HF_wild_card,2022.2.4,Win32,59.87665409,647849063b9fd9be24803727,64d2fd46c836a06233681665,64dc7e5ae8c79331eb2da897,,,,,,,sngl,resources/DBN.BMP,resources/Empty.png,Door2,-0.209259245,-0.007407422,1,0,0,0.9596,optionLeft,20,2255,2,3,0,3,0,1,,,,,,,,,,,,,,,,,,,,,,,,,,,,,,,,,,,,,,,
,,,,,,,,2023-08-16_08h45.14.910,HF_wild_card,2022.2.4,Win32,59.87665409,647849063b9fd9be24803727,64d2fd46c836a06233681665,64dc7e5ae8c79331eb2da897,,,,,,,sngl,resources/Empty.png,resources/DY.BMP,Door4,0.250925954,-0.020370399,1,0,0,0.96,optionRight,80,2335,2,4,0,4,0,1,,,,,,,,,,,,,,,,,,,,,,,,,,,,,,,,,,,,,,,
,,,,,,,,2023-08-16_08h45.14.910,HF_wild_card,2022.2.4,Win32,59.87665409,647849063b9fd9be24803727,64d2fd46c836a06233681665,64dc7e5ae8c79331eb2da897,,,,,,,ctch,resources/DG.BMP,resources/DBN.BMP,Door3,-0.199074046,-0.00648151,1,0,0,1.6461,optionLeft,70,2405,2,5,0,5,0,1,,,,,,,,,,,,,,,,,,,,,,,,,,,,,,,,,,,,,,,
,,,,,,,,2023-08-16_08h45.14.910,HF_wild_card,2022.2.4,Win32,59.87665409,647849063b9fd9be24803727,64d2fd46c836a06233681665,64dc7e5ae8c79331eb2da897,,,,,,,decisionTrl,resources/DR.BMP,resources/DBN.BMP,Door2,0.205555556,0,1,0,0,3.3123,optionRight,40,2445,2,6,0,6,0,1,,,,,,,,,,,,,,,,,,,,,,,,,,,,,,,,,,,,,,,
,,,,,,,,2023-08-16_08h45.14.910,HF_wild_card,2022.2.4,Win32,59.87665409,647849063b9fd9be24803727,64d2fd46c836a06233681665,64dc7e5ae8c79331eb2da897,,,,,,,sngl,resources/DB.BMP,resources/Empty.png,Door1,-0.217592578,-0.018518533,1,0,0,1.0805,optionLeft,30,2475,2,7,0,7,0,1,,,,,,,,,,,,,,,,,,,,,,,,,,,,,,,,,,,,,,,
,,,,,,,,2023-08-16_08h45.14.910,HF_wild_card,2022.2.4,Win32,59.87665409,647849063b9fd9be24803727,64d2fd46c836a06233681665,64dc7e5ae8c79331eb2da897,,,,,,,decisionTrl,resources/DBN.BMP,resources/DB.BMP,Door1,0.163888889,-0.002777778,1,0,0,1.248,optionRight,30,2505,2,8,0,8,0,1,,,,,,,,,,,,,,,,,,,,,,,,,,,,,,,,,,,,,,,
,,,,,,,,2023-08-16_08h45.14.910,HF_wild_card,2022.2.4,Win32,59.87665409,647849063b9fd9be24803727,64d2fd46c836a06233681665,64dc7e5ae8c79331eb2da897,,,,,,,decisionTrl,resources/DY.BMP,resources/DG.BMP,Door4,-0.190740712,-0.023148176,1,0,0,0.7043,optionLeft,80,2585,2,9,0,9,0,1,,,,,,,,,,,,,,,,,,,,,,,,,,,,,,,,,,,,,,,
,,,,,,,,2023-08-16_08h45.14.910,HF_wild_card,2022.2.4,Win32,59.87665409,647849063b9fd9be24803727,64d2fd46c836a06233681665,64dc7e5ae8c79331eb2da897,,,,,,,decisionTrl,resources/DB.BMP,resources/DR.BMP,WildCard_Ex,0.512037065,-0.120370399,1,0,0,1.4801,optionRight,5,2590,2,10,0,10,0,1,,,,,,,,,,,,,,,,,,,,,,,,,,,,,,,,,,,,,,,
,,,,,,,,2023-08-16_08h45.14.910,HF_wild_card,2022.2.4,Win32,59.87665409,647849063b9fd9be24803727,64d2fd46c836a06233681665,64dc7e5ae8c79331eb2da897,,,,,,,sngl,resources/DR.BMP,resources/Empty.png,WildCard_Ex,-0.264814801,0.006481467,1,0,0,0.7962,optionLeft,95,2685,2,11,0,11,0,1,,,,,,,,,,,,,,,,,,,,,,,,,,,,,,,,,,,,,,,
,,,,,,,,2023-08-16_08h45.14.910,HF_wild_card,2022.2.4,Win32,59.87665409,647849063b9fd9be24803727,64d2fd46c836a06233681665,64dc7e5ae8c79331eb2da897,,,,,,,ctch,resources/DBN.BMP,resources/DG.BMP,Door3,0.215740797,0.004629601,1,0,0,1.3769,optionRight,70,2755,2,12,0,12,0,1,,,,,,,,,,,,,,,,,,,,,,,,,,,,,,,,,,,,,,,
,,,,,,,,2023-08-16_08h45.14.910,HF_wild_card,2022.2.4,Win32,59.87665409,647849063b9fd9be24803727,64d2fd46c836a06233681665,64dc7e5ae8c79331eb2da897,,,,,,,ctch,resources/DY.BMP,resources/DB.BMP,Door4,-0.285185157,0.001851824,1,0,0,0.8772,optionLeft,80,2835,2,13,0,13,0,1,,,,,,,,,,,,,,,,,,,,,,,,,,,,,,,,,,,,,,,
,,,,,,,,2023-08-16_08h45.14.910,HF_wild_card,2022.2.4,Win32,59.87665409,647849063b9fd9be24803727,64d2fd46c836a06233681665,64dc7e5ae8c79331eb2da897,,,,,,,ctch,resources/DB.BMP,resources/DY.BMP,Door4,0.274074131,0.00370369,1,0,0,0.9627,optionRight,60,2895,2,14,0,14,0,1,,,,,,,,,,,,,,,,,,,,,,,,,,,,,,,,,,,,,,,
,,,,,,,,2023-08-16_08h45.14.910,HF_wild_card,2022.2.4,Win32,59.87665409,647849063b9fd9be24803727,64d2fd46c836a06233681665,64dc7e5ae8c79331eb2da897,,,,,,,sngl,resources/Empty.png,resources/DG.BMP,Door3,0.312963019,0.00370369,1,0,0,0.9952,optionRight,70,2965,2,15,0,15,0,1,,,,,,,,,,,,,,,,,,,,,,,,,,,,,,,,,,,,,,,
,,,,,,,,2023-08-16_08h45.14.910,HF_wild_card,2022.2.4,Win32,59.87665409,647849063b9fd9be24803727,64d2fd46c836a06233681665,64dc7e5ae8c79331eb2da897,,,,,,,decisionTrl,resources/DY.BMP,resources/DR.BMP,Door4,-0.270370356,0.00370369,1,0,0,0.8795,optionLeft,80,3045,2,16,0,16,0,1,,,,,,,,,,,,,,,,,,,,,,,,,,,,,,,,,,,,,,,
,,,,,,,,2023-08-16_08h45.14.910,HF_wild_card,2022.2.4,Win32,59.87665409,647849063b9fd9be24803727,64d2fd46c836a06233681665,64dc7e5ae8c79331eb2da897,,,,,,,decisionTrl,resources/DY.BMP,resources/DG.BMP,Door4,-0.252777778,0.00370369,1,0,0,0.7649,optionLeft,60,3105,2,17,0,17,0,1,,,,,,,,,,,,,,,,,,,,,,,,,,,,,,,,,,,,,,,
,,,,,,,,2023-08-16_08h45.14.910,HF_wild_card,2022.2.4,Win32,59.87665409,647849063b9fd9be24803727,64d2fd46c836a06233681665,64dc7e5ae8c79331eb2da897,,,,,,,decisionTrl,resources/DR.BMP,resources/DG.BMP,Door3,0.218518575,0.009259245,1,0,0,1.4456,optionRight,70,3175,2,18,0,18,0,1,,,,,,,,,,,,,,,,,,,,,,,,,,,,,,,,,,,,,,,
,,,,,,,,2023-08-16_08h45.14.910,HF_wild_card,2022.2.4,Win32,59.87665409,647849063b9fd9be24803727,64d2fd46c836a06233681665,64dc7e5ae8c79331eb2da897,,,,,,,sngl,resources/DG.BMP,resources/Empty.png,Door3,-0.229629601,0.007407379,1,0,0,0.8594,optionLeft,70,3245,2,19,0,19,0,1,,,,,,,,,,,,,,,,,,,,,,,,,,,,,,,,,,,,,,,
,,,,,,,,2023-08-16_08h45.14.910,HF_wild_card,2022.2.4,Win32,59.87665409,647849063b9fd9be24803727,64d2fd46c836a06233681665,64dc7e5ae8c79331eb2da897,,,,,,,ctch,resources/DB.BMP,resources/DY.BMP,Door4,0.230555556,0.000925912,1,0,0,1.0107,optionRight,60,3305,2,20,0,20,0,1,,,,,,,,,,,,,,,,,,,,,,,,,,,,,,,,,,,,,,,
,,,,,,,,2023-08-16_08h45.14.910,HF_wild_card,2022.2.4,Win32,59.87665409,647849063b9fd9be24803727,64d2fd46c836a06233681665,64dc7e5ae8c79331eb2da897,,,,,,,decisionTrl,resources/DG.BMP,resources/DR.BMP,Door3,-0.215740712,-0.000925954,1,0,0,1.0123,optionLeft,70,3375,2,21,0,21,0,1,,,,,,,,,,,,,,,,,,,,,,,,,,,,,,,,,,,,,,,
,,,,,,,,2023-08-16_08h45.14.910,HF_wild_card,2022.2.4,Win32,59.87665409,647849063b9fd9be24803727,64d2fd46c836a06233681665,64dc7e5ae8c79331eb2da897,,,,,,,decisionTrl,resources/DB.BMP,resources/DBN.BMP,Door1,-0.219444444,-0.000925954,1,0,0,1.7782,optionLeft,30,3405,2,22,0,22,0,1,,,,,,,,,,,,,,,,,,,,,,,,,,,,,,,,,,,,,,,
,,,,,,,,2023-08-16_08h45.14.910,HF_wild_card,2022.2.4,Win32,59.87665409,647849063b9fd9be24803727,64d2fd46c836a06233681665,64dc7e5ae8c79331eb2da897,,,,,,,sngl,resources/Empty.png,resources/DR.BMP,WildCard_Ex,0.243518575,0.005555556,1,0,0,0.914,optionRight,5,3410,2,23,0,23,0,1,,,,,,,,,,,,,,,,,,,,,,,,,,,,,,,,,,,,,,,
,,,,,,,,2023-08-16_08h45.14.910,HF_wild_card,2022.2.4,Win32,59.87665409,647849063b9fd9be24803727,64d2fd46c836a06233681665,64dc7e5ae8c79331eb2da897,,,,,,,sngl,resources/DY.BMP,resources/Empty.png,Door4,-0.269444444,0.005555556,1,0,0,0.7975,optionLeft,60,3470,2,24,0,24,0,1,,,,,,,,,,,,,,,,,,,,,,,,,,,,,,,,,,,,,,,
,,,,,,,,2023-08-16_08h45.14.910,HF_wild_card,2022.2.4,Win32,59.87665409,647849063b9fd9be24803727,64d2fd46c836a06233681665,64dc7e5ae8c79331eb2da897,,,,,,,decisionTrl,resources/DBN.BMP,resources/DB.BMP,Door1,0.363888889,0.010185157,1,0,0,2.33,optionRight,30,3500,2,25,0,25,0,1,,,,,,,,,,,,,,,,,,,,,,,,,,,,,,,,,,,,,,,
,,,,,,,,2023-08-16_08h45.14.910,HF_wild_card,2022.2.4,Win32,59.87665409,647849063b9fd9be24803727,64d2fd46c836a06233681665,64dc7e5ae8c79331eb2da897,,,,,,,decisionTrl,resources/DG.BMP,resources/DY.BMP,Door4,0.270370399,0.001851824,1,0,0,1.0447,optionRight,80,3580,2,26,0,26,0,1,,,,,,,,,,,,,,,,,,,,,,,,,,,,,,,,,,,,,,,
,,,,,,,,2023-08-16_08h45.14.910,HF_wild_card,2022.2.4,Win32,59.87665409,647849063b9fd9be24803727,64d2fd46c836a06233681665,64dc7e5ae8c79331eb2da897,,,,,,,decisionTrl,resources/DG.BMP,resources/DY.BMP,Door4,0.405555556,0.002777778,1,0,0,0.9114,optionRight,80,3660,2,27,0,27,0,1,,,,,,,,,,,,,,,,,,,,,,,,,,,,,,,,,,,,,,,
,,,,,,,,2023-08-16_08h45.14.910,HF_wild_card,2022.2.4,Win32,59.87665409,647849063b9fd9be24803727,64d2fd46c836a06233681665,64dc7e5ae8c79331eb2da897,,,,,,,decisionTrl,resources/DY.BMP,resources/DG.BMP,Door4,-0.205555556,-0.003703732,1,0,0,0.7956,optionLeft,80,3740,2,28,0,28,0,1,,,,,,,,,,,,,,,,,,,,,,,,,,,,,,,,,,,,,,,
,,,,,,,,2023-08-16_08h45.14.910,HF_wild_card,2022.2.4,Win32,59.87665409,647849063b9fd9be24803727,64d2fd46c836a06233681665,64dc7e5ae8c79331eb2da897,,,,,,,ctch,resources/DBN.BMP,resources/DG.BMP,Door3,0.362963019,0.000925912,1,0,0,0.9646,optionRight,70,3810,2,29,0,29,0,1,,,,,,,,,,,,,,,,,,,,,,,,,,,,,,,,,,,,,,,
,,,,,,,,2023-08-16_08h45.14.910,HF_wild_card,2022.2.4,Win32,59.87665409,647849063b9fd9be24803727,64d2fd46c836a06233681665,64dc7e5ae8c79331eb2da897,,,,,,,ctch,resources/DG.BMP,resources/DBN.BMP,Door3,-0.267592578,-0.010185199,1,0,0,1.3836,optionLeft,70,3880,2,30,0,30,0,1,,,,,,,,,,,,,,,,,,,,,,,,,,,,,,,,,,,,,,,
,,,,,,,,2023-08-16_08h45.14.910,HF_wild_card,2022.2.4,Win32,59.87665409,647849063b9fd9be24803727,64d2fd46c836a06233681665,64dc7e5ae8c79331eb2da897,,,,,,,decisionTrl,resources/DG.BMP,resources/DY.BMP,Door4,0.232407464,-0.010185199,1,0,0,1.7777,optionRight,80,3960,2,31,0,31,0,1,,,,,,,,,,,,,,,,,,,,,,,,,,,,,,,,,,,,,,,
,,,,,,,,2023-08-16_08h45.14.910,HF_wild_card,2022.2.4,Win32,59.87665409,647849063b9fd9be24803727,64d2fd46c836a06233681665,64dc7e5ae8c79331eb2da897,,,,,,,decisionTrl,resources/DR.BMP,resources/DY.BMP,Door4,0.283333333,-0.012962977,1,0,0,0.8799,optionRight,60,4020,2,32,0,32,0,1,,,,,,,,,,,,,,,,,,,,,,,,,,,,,,,,,,,,,,,
,,,,,,,,2023-08-16_08h45.14.910,HF_wild_card,2022.2.4,Win32,59.87665409,647849063b9fd9be24803727,64d2fd46c836a06233681665,64dc7e5ae8c79331eb2da897,,,,,,,sngl,resources/Empty.png,resources/DBN.BMP,Door2,0.252777778,-0.008333333,1,0,0,1.0957,optionRight,40,4060,2,33,0,33,0,1,,,,,,,,,,,,,,,,,,,,,,,,,,,,,,,,,,,,,,,
,,,,,,,,2023-08-16_08h45.14.910,HF_wild_card,2022.2.4,Win32,59.87665409,647849063b9fd9be24803727,64d2fd46c836a06233681665,64dc7e5ae8c79331eb2da897,,,,,,,decisionTrl,resources/DY.BMP,resources/DG.BMP,Door4,-0.222222222,-0.012962977,1,0,0,0.9921,optionLeft,80,4140,2,34,0,34,0,1,,,,,,,,,,,,,,,,,,,,,,,,,,,,,,,,,,,,,,,
,,,,,,,,2023-08-16_08h45.14.910,HF_wild_card,2022.2.4,Win32,59.87665409,647849063b9fd9be24803727,64d2fd46c836a06233681665,64dc7e5ae8c79331eb2da897,,,,,,,sngl,resources/Empty.png,resources/DB.BMP,Door1,0.269444444,-0.009259288,1,0,0,0.8041,optionRight,30,4170,2,35,0,35,0,1,,,,,,,,,,,,,,,,,,,,,,,,,,,,,,,,,,,,,,,
,,,,,,,,2023-08-16_08h45.14.910,HF_wild_card,2022.2.4,Win32,59.87665409,647849063b9fd9be24803727,64d2fd46c836a06233681665,64dc7e5ae8c79331eb2da897,,,,,,,sngl,resources/DR.BMP,resources/Empty.png,WildCard_Ex,-0.20370369,-0.000925954,1,0,0,0.7782,optionLeft,5,4175,2,36,0,36,0,1,,,,,,,,,,,,,,,,,,,,,,,,,,,,,,,,,,,,,,,
,,,,,,,,2023-08-16_08h45.14.910,HF_wild_card,2022.2.4,Win32,59.87665409,647849063b9fd9be24803727,64d2fd46c836a06233681665,64dc7e5ae8c79331eb2da897,,,,,,,decisionTrl,resources/DR.BMP,resources/DB.BMP,Door1,0.192592621,-0.001851866,1,0,0,1.5772,optionRight,30,4205,2,37,0,37,0,1,,,,,,,,,,,,,,,,,,,,,,,,,,,,,,,,,,,,,,,
,,,,,,,,2023-08-16_08h45.14.910,HF_wild_card,2022.2.4,Win32,59.87665409,647849063b9fd9be24803727,64d2fd46c836a06233681665,64dc7e5ae8c79331eb2da897,,,,,,,decisionTrl,resources/DB.BMP,resources/DBN.BMP,Door2,0.275925954,-0.017592621,1,0,0,2.4576,optionRight,40,4245,2,38,0,38,0,1,,,,,,,,,,,,,,,,,,,,,,,,,,,,,,,,,,,,,,,
,,,,,,,,2023-08-16_08h45.14.910,HF_wild_card,2022.2.4,Win32,59.87665409,647849063b9fd9be24803727,64d2fd46c836a06233681665,64dc7e5ae8c79331eb2da897,,,,,,,decisionTrl,resources/DG.BMP,resources/DY.BMP,Door4,0.254629686,-0.005555556,1,0,0,1.3711,optionRight,80,4325,2,39,0,39,0,1,,,,,,,,,,,,,,,,,,,,,,,,,,,,,,,,,,,,,,,
,,,,,,,,2023-08-16_08h45.14.910,HF_wild_card,2022.2.4,Win32,59.87665409,647849063b9fd9be24803727,64d2fd46c836a06233681665,64dc7e5ae8c79331eb2da897,,,,,,,ctch,resources/DY.BMP,resources/DB.BMP,Door4,-0.282407379,-0.008333333,1,0,0,0.9139,optionLeft,80,4405,2,40,0,40,0,1,,,,,,,,,,,,,,,,,,,,,,,,,,,,,,,,,,,,,,,
,,,,,,,,2023-08-16_08h45.14.910,HF_wild_card,2022.2.4,Win32,59.87665409,647849063b9fd9be24803727,64d2fd46c836a06233681665,64dc7e5ae8c79331eb2da897,,,,,,,decisionTrl,resources/DBN.BMP,resources/DB.BMP,Door1,0.260185242,-0.004629644,1,0,0,1.0282,optionRight,30,4435,2,41,0,41,0,1,,,,,,,,,,,,,,,,,,,,,,,,,,,,,,,,,,,,,,,
,,,,,,,,2023-08-16_08h45.14.910,HF_wild_card,2022.2.4,Win32,59.87665409,647849063b9fd9be24803727,64d2fd46c836a06233681665,64dc7e5ae8c79331eb2da897,,,,,,,sngl,resources/Empty.png,resources/DR.BMP,WildCard_Ex,0.292592621,0,1,0,0,1.0946,optionRight,95,4530,2,42,0,42,0,1,,,,,,,,,,,,,,,,,,,,,,,,,,,,,,,,,,,,,,,
,,,,,,,,2023-08-16_08h45.14.910,HF_wild_card,2022.2.4,Win32,59.87665409,647849063b9fd9be24803727,64d2fd46c836a06233681665,64dc7e5ae8c79331eb2da897,,,,,,,decisionTrl,resources/DB.BMP,resources/DBN.BMP,Door1,-0.237037023,-0.003703732,1,0,0,2.9269,optionLeft,30,4560,2,43,0,43,0,1,,,,,,,,,,,,,,,,,,,,,,,,,,,,,,,,,,,,,,,
,,,,,,,,2023-08-16_08h45.14.910,HF_wild_card,2022.2.4,Win32,59.87665409,647849063b9fd9be24803727,64d2fd46c836a06233681665,64dc7e5ae8c79331eb2da897,,,,,,,,,,,,,,,,,,,,,,,,,,1,0,1,0,1,,,,,,,,,,,,,,,,,,,,,,,,,,,,,,,,,,
,,,,,,,,2023-08-16_08h45.14.910,HF_wild_card,2022.2.4,Win32,59.87665409,647849063b9fd9be24803727,64d2fd46c836a06233681665,64dc7e5ae8c79331eb2da897,,,,,,,sngl,resources/DB.BMP,resources/Empty.png,Door1,-0.223148134,-0.047222222,1,0,0,0.8853,optionLeft,30,4590,3,0,0,0,0,1,,,,,,,,,,,,,,,,,,,,,,,,,,,,,,,,,,,,,,,
,,,,,,,,2023-08-16_08h45.14.910,HF_wild_card,2022.2.4,Win32,59.87665409,647849063b9fd9be24803727,64d2fd46c836a06233681665,64dc7e5ae8c79331eb2da897,,,,,,,decisionTrl,resources/DBN.BMP,resources/DB.BMP,Door1,0.340740797,0.008333333,1,0,0,0.6602,optionRight,30,4620,3,1,0,1,0,1,,,,,,,,,,,,,,,,,,,,,,,,,,,,,,,,,,,,,,,
,,,,,,,,2023-08-16_08h45.14.910,HF_wild_card,2022.2.4,Win32,59.87665409,647849063b9fd9be24803727,64d2fd46c836a06233681665,64dc7e5ae8c79331eb2da897,,,,,,,decisionTrl,resources/DY.BMP,resources/DG.BMP,Door4,-0.226851824,-0.005555556,1,0,0,0.6926,optionLeft,80,4700,3,2,0,2,0,1,,,,,,,,,,,,,,,,,,,,,,,,,,,,,,,,,,,,,,,
,,,,,,,,2023-08-16_08h45.14.910,HF_wild_card,2022.2.4,Win32,59.87665409,647849063b9fd9be24803727,64d2fd46c836a06233681665,64dc7e5ae8c79331eb2da897,,,,,,,sngl,resources/DBN.BMP,resources/Empty.png,Door2,-0.222222222,0.00370369,1,0,0,0.7266,optionLeft,40,4740,3,3,0,3,0,1,,,,,,,,,,,,,,,,,,,,,,,,,,,,,,,,,,,,,,,
,,,,,,,,2023-08-16_08h45.14.910,HF_wild_card,2022.2.4,Win32,59.87665409,647849063b9fd9be24803727,64d2fd46c836a06233681665,64dc7e5ae8c79331eb2da897,,,,,,,sngl,resources/Empty.png,resources/DBN.BMP,Door2,0.248148176,0.005555556,1,0,0,0.6937,optionRight,20,4760,3,4,0,4,0,1,,,,,,,,,,,,,,,,,,,,,,,,,,,,,,,,,,,,,,,
,,,,,,,,2023-08-16_08h45.14.910,HF_wild_card,2022.2.4,Win32,59.87665409,647849063b9fd9be24803727,64d2fd46c836a06233681665,64dc7e5ae8c79331eb2da897,,,,,,,decisionTrl,resources/DR.BMP,resources/DB.BMP,Door1,0.270370399,0.008333333,1,0,0,0.8758,optionRight,30,4790,3,5,0,5,0,1,,,,,,,,,,,,,,,,,,,,,,,,,,,,,,,,,,,,,,,
,,,,,,,,2023-08-16_08h45.14.910,HF_wild_card,2022.2.4,Win32,59.87665409,647849063b9fd9be24803727,64d2fd46c836a06233681665,64dc7e5ae8c79331eb2da897,,,,,,,decisionTrl,resources/DR.BMP,resources/DG.BMP,Door3,0.288888889,0.009259245,1,0,0,1.0088,optionRight,70,4860,3,6,0,6,0,1,,,,,,,,,,,,,,,,,,,,,,,,,,,,,,,,,,,,,,,
,,,,,,,,2023-08-16_08h45.14.910,HF_wild_card,2022.2.4,Win32,59.87665409,647849063b9fd9be24803727,64d2fd46c836a06233681665,64dc7e5ae8c79331eb2da897,,,,,,,sngl,resources/Empty.png,resources/DR.BMP,WildCard_Ex,0.279629686,0.015740712,1,0,0,0.6426,optionRight,5,4865,3,7,0,7,0,1,,,,,,,,,,,,,,,,,,,,,,,,,,,,,,,,,,,,,,,
,,,,,,,,2023-08-16_08h45.14.910,HF_wild_card,2022.2.4,Win32,59.87665409,647849063b9fd9be24803727,64d2fd46c836a06233681665,64dc7e5ae8c79331eb2da897,,,,,,,decisionTrl,resources/DG.BMP,resources/DY.BMP,Door4,0.367592621,0.01851849,1,0,0,0.8097,optionRight,80,4945,3,8,0,8,0,1,,,,,,,,,,,,,,,,,,,,,,,,,,,,,,,,,,,,,,,
,,,,,,,,2023-08-16_08h45.14.910,HF_wild_card,2022.2.4,Win32,59.87665409,647849063b9fd9be24803727,64d2fd46c836a06233681665,64dc7e5ae8c79331eb2da897,,,,,,,decisionTrl,resources/DR.BMP,resources/DY.BMP,Door4,0.336111111,0.014814801,1,0,0,0.6808,optionRight,60,5005,3,9,0,9,0,1,,,,,,,,,,,,,,,,,,,,,,,,,,,,,,,,,,,,,,,
,,,,,,,,2023-08-16_08h45.14.910,HF_wild_card,2022.2.4,Win32,59.87665409,647849063b9fd9be24803727,64d2fd46c836a06233681665,64dc7e5ae8c79331eb2da897,,,,,,,ctch,resources/DG.BMP,resources/DBN.BMP,Door3,-0.279629601,-0.008333333,1,0,0,1.1967,optionLeft,70,5075,3,10,0,10,0,1,,,,,,,,,,,,,,,,,,,,,,,,,,,,,,,,,,,,,,,
,,,,,,,,2023-08-16_08h45.14.910,HF_wild_card,2022.2.4,Win32,59.87665409,647849063b9fd9be24803727,64d2fd46c836a06233681665,64dc7e5ae8c79331eb2da897,,,,,,,ctch,resources/DBN.BMP,resources/DG.BMP,Door3,0.416666667,-0.009259288,1,0,0,0.9258,optionRight,70,5145,3,11,0,11,0,1,,,,,,,,,,,,,,,,,,,,,,,,,,,,,,,,,,,,,,,
,,,,,,,,2023-08-16_08h45.14.910,HF_wild_card,2022.2.4,Win32,59.87665409,647849063b9fd9be24803727,64d2fd46c836a06233681665,64dc7e5ae8c79331eb2da897,,,,,,,decisionTrl,resources/DY.BMP,resources/DG.BMP,Door4,-0.181481467,-0.00648151,1,0,0,1.0803,optionLeft,60,5205,3,12,0,12,0,1,,,,,,,,,,,,,,,,,,,,,,,,,,,,,,,,,,,,,,,
,,,,,,,,2023-08-16_08h45.14.910,HF_wild_card,2022.2.4,Win32,59.87665409,647849063b9fd9be24803727,64d2fd46c836a06233681665,64dc7e5ae8c79331eb2da897,,,,,,,sngl,resources/Empty.png,resources/DY.BMP,Door4,0.352777778,0.007407379,1,0,0,0.7121,optionRight,60,5265,3,13,0,13,0,1,,,,,,,,,,,,,,,,,,,,,,,,,,,,,,,,,,,,,,,
,,,,,,,,2023-08-16_08h45.14.910,HF_wild_card,2022.2.4,Win32,59.87665409,647849063b9fd9be24803727,64d2fd46c836a06233681665,64dc7e5ae8c79331eb2da897,,,,,,,ctch,resources/DG.BMP,resources/DBN.BMP,Door3,-0.212037023,-0.002777778,1,0,0,0.7964,optionLeft,70,5335,3,14,0,14,0,1,,,,,,,,,,,,,,,,,,,,,,,,,,,,,,,,,,,,,,,
,,,,,,,,2023-08-16_08h45.14.910,HF_wild_card,2022.2.4,Win32,59.87665409,647849063b9fd9be24803727,64d2fd46c836a06233681665,64dc7e5ae8c79331eb2da897,,,,,,,sngl,resources/DR.BMP,resources/Empty.png,WildCard_Ex,-0.192592578,0.00370369,1,0,0,0.7428,optionLeft,95,5430,3,15,0,15,0,1,,,,,,,,,,,,,,,,,,,,,,,,,,,,,,,,,,,,,,,
,,,,,,,,2023-08-16_08h45.14.910,HF_wild_card,2022.2.4,Win32,59.87665409,647849063b9fd9be24803727,64d2fd46c836a06233681665,64dc7e5ae8c79331eb2da897,,,,,,,decisionTrl,resources/DB.BMP,resources/DBN.BMP,Door2,0.267592621,0.002777778,1,0,0,1.8262,optionRight,20,5450,3,16,0,16,0,1,,,,,,,,,,,,,,,,,,,,,,,,,,,,,,,,,,,,,,,
,,,,,,,,2023-08-16_08h45.14.910,HF_wild_card,2022.2.4,Win32,59.87665409,647849063b9fd9be24803727,64d2fd46c836a06233681665,64dc7e5ae8c79331eb2da897,,,,,,,sngl,resources/Empty.png,resources/DG.BMP,Door3,0.208333333,0.00370369,1,0,0,0.7468,optionRight,70,5520,3,17,0,17,0,1,,,,,,,,,,,,,,,,,,,,,,,,,,,,,,,,,,,,,,,
,,,,,,,,2023-08-16_08h45.14.910,HF_wild_card,2022.2.4,Win32,59.87665409,647849063b9fd9be24803727,64d2fd46c836a06233681665,64dc7e5ae8c79331eb2da897,,,,,,,decisionTrl,resources/DY.BMP,resources/DG.BMP,Door4,-0.24351849,0.001851824,1,0,0,1.0792,optionLeft,60,5580,3,18,0,18,0,1,,,,,,,,,,,,,,,,,,,,,,,,,,,,,,,,,,,,,,,
,,,,,,,,2023-08-16_08h45.14.910,HF_wild_card,2022.2.4,Win32,59.87665409,647849063b9fd9be24803727,64d2fd46c836a06233681665,64dc7e5ae8c79331eb2da897,,,,,,,decisionTrl,resources/DBN.BMP,resources/DB.BMP,Door1,0.235185242,0.016666667,1,0,0,1.1457,optionRight,30,5610,3,19,0,19,0,1,,,,,,,,,,,,,,,,,,,,,,,,,,,,,,,,,,,,,,,
,,,,,,,,2023-08-16_08h45.14.910,HF_wild_card,2022.2.4,Win32,59.87665409,647849063b9fd9be24803727,64d2fd46c836a06233681665,64dc7e5ae8c79331eb2da897,,,,,,,ctch,resources/DY.BMP,resources/DB.BMP,Door4,-0.286111111,-0.000925954,1,0,0,0.8109,optionLeft,80,5690,3,20,0,20,0,1,,,,,,,,,,,,,,,,,,,,,,,,,,,,,,,,,,,,,,,
,,,,,,,,2023-08-16_08h45.14.910,HF_wild_card,2022.2.4,Win32,59.87665409,647849063b9fd9be24803727,64d2fd46c836a06233681665,64dc7e5ae8c79331eb2da897,,,,,,,sngl,resources/DY.BMP,resources/Empty.png,Door4,-0.258333333,0.001851824,1,0,0,0.6489,optionLeft,80,5770,3,21,0,21,0,1,,,,,,,,,,,,,,,,,,,,,,,,,,,,,,,,,,,,,,,
,,,,,,,,2023-08-16_08h45.14.910,HF_wild_card,2022.2.4,Win32,59.87665409,647849063b9fd9be24803727,64d2fd46c836a06233681665,64dc7e5ae8c79331eb2da897,,,,,,,decisionTrl,resources/DB.BMP,resources/DBN.BMP,Door1,-0.258333333,0.006481467,1,0,0,0.9427,optionLeft,30,5800,3,22,0,22,0,1,,,,,,,,,,,,,,,,,,,,,,,,,,,,,,,,,,,,,,,
,,,,,,,,2023-08-16_08h45.14.910,HF_wild_card,2022.2.4,Win32,59.87665409,647849063b9fd9be24803727,64d2fd46c836a06233681665,64dc7e5ae8c79331eb2da897,,,,,,,decisionTrl,resources/DY.BMP,resources/DG.BMP,Door4,-0.439814801,-0.034259288,1,0,0,4.3642,optionLeft,60,5860,3,23,0,23,0,1,,,,,,,,,,,,,,,,,,,,,,,,,,,,,,,,,,,,,,,
,,,,,,,,2023-08-16_08h45.14.910,HF_wild_card,2022.2.4,Win32,59.87665409,647849063b9fd9be24803727,64d2fd46c836a06233681665,64dc7e5ae8c79331eb2da897,,,,,,,decisionTrl,resources/DB.BMP,resources/DR.BMP,WildCard_Ex,0.247222222,0.036111111,1,0,0,5.6962,optionRight,5,5865,3,24,0,24,0,1,,,,,,,,,,,,,,,,,,,,,,,,,,,,,,,,,,,,,,,
,,,,,,,,2023-08-16_08h45.14.910,HF_wild_card,2022.2.4,Win32,59.87665409,647849063b9fd9be24803727,64d2fd46c836a06233681665,64dc7e5ae8c79331eb2da897,,,,,,,decisionTrl,resources/DB.BMP,resources/DBN.BMP,Door1,-0.220370356,0.105555556,1,0,0,2.3795,optionLeft,30,5895,3,25,0,25,0,1,,,,,,,,,,,,,,,,,,,,,,,,,,,,,,,,,,,,,,,
,,,,,,,,2023-08-16_08h45.14.910,HF_wild_card,2022.2.4,Win32,59.87665409,647849063b9fd9be24803727,64d2fd46c836a06233681665,64dc7e5ae8c79331eb2da897,,,,,,,sngl,resources/Empty.png,resources/DR.BMP,WildCard_Ex,0.389814843,-0.004629644,1,0,0,5.7178,optionRight,95,5990,3,26,0,26,0,1,,,,,,,,,,,,,,,,,,,,,,,,,,,,,,,,,,,,,,,
,,,,,,,,2023-08-16_08h45.14.910,HF_wild_card,2022.2.4,Win32,59.87665409,647849063b9fd9be24803727,64d2fd46c836a06233681665,64dc7e5ae8c79331eb2da897,,,,,,,decisionTrl,resources/DR.BMP,resources/DBN.BMP,WildCard_Ex,-0.437962935,-0.026851866,1,0,0,2.3914,optionLeft,95,6085,3,27,0,27,0,1,,,,,,,,,,,,,,,,,,,,,,,,,,,,,,,,,,,,,,,
,,,,,,,,2023-08-16_08h45.14.910,HF_wild_card,2022.2.4,Win32,59.87665409,647849063b9fd9be24803727,64d2fd46c836a06233681665,64dc7e5ae8c79331eb2da897,,,,,,,decisionTrl,resources/DB.BMP,resources/DBN.BMP,Door1,-0.35370369,-0.087037065,1,0,0,5.4198,optionLeft,30,6115,3,28,0,28,0,1,,,,,,,,,,,,,,,,,,,,,,,,,,,,,,,,,,,,,,,
,,,,,,,,2023-08-16_08h45.14.910,HF_wild_card,2022.2.4,Win32,59.87665409,647849063b9fd9be24803727,64d2fd46c836a06233681665,64dc7e5ae8c79331eb2da897,,,,,,,decisionTrl,resources/DG.BMP,resources/DY.BMP,Door4,0.403703732,-0.022222222,1,0,0,0.989,optionRight,60,6175,3,29,0,29,0,1,,,,,,,,,,,,,,,,,,,,,,,,,,,,,,,,,,,,,,,
,,,,,,,,2023-08-16_08h45.14.910,HF_wild_card,2022.2.4,Win32,59.87665409,647849063b9fd9be24803727,64d2fd46c836a06233681665,64dc7e5ae8c79331eb2da897,,,,,,,decisionTrl,resources/DG.BMP,resources/DY.BMP,Door3,-0.311111111,0.00370369,1,0,0,1.6125,optionLeft,70,6245,3,30,0,30,0,1,,,,,,,,,,,,,,,,,,,,,,,,,,,,,,,,,,,,,,,
,,,,,,,,2023-08-16_08h45.14.910,HF_wild_card,2022.2.4,Win32,59.87665409,647849063b9fd9be24803727,64d2fd46c836a06233681665,64dc7e5ae8c79331eb2da897,,,,,,,decisionTrl,resources/DBN.BMP,resources/DB.BMP,Door1,0.303703732,-0.001851866,1,0,0,1.2967,optionRight,30,6275,3,31,0,31,0,1,,,,,,,,,,,,,,,,,,,,,,,,,,,,,,,,,,,,,,,
,,,,,,,,2023-08-16_08h45.14.910,HF_wild_card,2022.2.4,Win32,59.87665409,647849063b9fd9be24803727,64d2fd46c836a06233681665,64dc7e5ae8c79331eb2da897,,,,,,,decisionTrl,resources/DG.BMP,resources/DY.BMP,Door3,-0.309259245,-0.003703732,1,0,0,1.8452,optionLeft,70,6345,3,32,0,32,0,1,,,,,,,,,,,,,,,,,,,,,,,,,,,,,,,,,,,,,,,
,,,,,,,,2023-08-16_08h45.14.910,HF_wild_card,2022.2.4,Win32,59.87665409,647849063b9fd9be24803727,64d2fd46c836a06233681665,64dc7e5ae8c79331eb2da897,,,,,,,ctch,resources/DB.BMP,resources/DY.BMP,Door4,0.236111111,0.001851824,1,0,0,1.4581,optionRight,80,6425,3,33,0,33,0,1,,,,,,,,,,,,,,,,,,,,,,,,,,,,,,,,,,,,,,,
,,,,,,,,2023-08-16_08h45.14.910,HF_wild_card,2022.2.4,Win32,59.87665409,647849063b9fd9be24803727,64d2fd46c836a06233681665,64dc7e5ae8c79331eb2da897,,,,,,,decisionTrl,resources/DBN.BMP,resources/DB.BMP,Door2,-0.281481467,-0.02129631,1,0,0,2.5113,optionLeft,40,6465,3,34,0,34,0,1,,,,,,,,,,,,,,,,,,,,,,,,,,,,,,,,,,,,,,,
,,,,,,,,2023-08-16_08h45.14.910,HF_wild_card,2022.2.4,Win32,59.87665409,647849063b9fd9be24803727,64d2fd46c836a06233681665,64dc7e5ae8c79331eb2da897,,,,,,,ctch,resources/DBN.BMP,resources/DG.BMP,Door3,0.322222222,0.004629601,1,0,0,1.3166,optionRight,70,6535,3,35,0,35,0,1,,,,,,,,,,,,,,,,,,,,,,,,,,,,,,,,,,,,,,,
,,,,,,,,2023-08-16_08h45.14.910,HF_wild_card,2022.2.4,Win32,59.87665409,647849063b9fd9be24803727,64d2fd46c836a06233681665,64dc7e5ae8c79331eb2da897,,,,,,,decisionTrl,resources/DBN.BMP,resources/DR.BMP,WildCard_Ex,0.324074131,0.006481467,1,0,0,2.5866,optionRight,5,6540,3,36,0,36,0,1,,,,,,,,,,,,,,,,,,,,,,,,,,,,,,,,,,,,,,,
,,,,,,,,2023-08-16_08h45.14.910,HF_wild_card,2022.2.4,Win32,59.87665409,647849063b9fd9be24803727,64d2fd46c836a06233681665,64dc7e5ae8c79331eb2da897,,,,,,,ctch,resources/DY.BMP,resources/DB.BMP,Door4,-0.275925912,-0.000925954,1,0,0,1.0239,optionLeft,80,6620,3,37,0,37,0,1,,,,,,,,,,,,,,,,,,,,,,,,,,,,,,,,,,,,,,,
,,,,,,,,2023-08-16_08h45.14.910,HF_wild_card,2022.2.4,Win32,59.87665409,647849063b9fd9be24803727,64d2fd46c836a06233681665,64dc7e5ae8c79331eb2da897,,,,,,,sngl,resources/DG.BMP,resources/Empty.png,Door3,-0.25,-0.000925954,1,0,0,0.861,optionLeft,70,6690,3,38,0,38,0,1,,,,,,,,,,,,,,,,,,,,,,,,,,,,,,,,,,,,,,,
,,,,,,,,2023-08-16_08h45.14.910,HF_wild_card,2022.2.4,Win32,59.87665409,647849063b9fd9be24803727,64d2fd46c836a06233681665,64dc7e5ae8c79331eb2da897,,,,,,,sngl,resources/Empty.png,resources/DB.BMP,Door1,0.253703732,0.002777778,1,0,0,0.7846,optionRight,30,6720,3,39,0,39,0,1,,,,,,,,,,,,,,,,,,,,,,,,,,,,,,,,,,,,,,,
,,,,,,,,2023-08-16_08h45.14.910,HF_wild_card,2022.2.4,Win32,59.87665409,647849063b9fd9be24803727,64d2fd46c836a06233681665,64dc7e5ae8c79331eb2da897,,,,,,,decisionTrl,resources/DG.BMP,resources/DR.BMP,Door3,-0.226851824,-0.004629644,1,0,0,0.8146,optionLeft,70,6790,3,40,0,40,0,1,,,,,,,,,,,,,,,,,,,,,,,,,,,,,,,,,,,,,,,
,,,,,,,,2023-08-16_08h45.14.910,HF_wild_card,2022.2.4,Win32,59.87665409,647849063b9fd9be24803727,64d2fd46c836a06233681665,64dc7e5ae8c79331eb2da897,,,,,,,sngl,resources/DR.BMP,resources/Empty.png,WildCard_Ex,-0.234259245,0.011111111,1,0,0,0.8269,optionLeft,5,6795,3,41,0,41,0,1,,,,,,,,,,,,,,,,,,,,,,,,,,,,,,,,,,,,,,,
,,,,,,,,2023-08-16_08h45.14.910,HF_wild_card,2022.2.4,Win32,59.87665409,647849063b9fd9be24803727,64d2fd46c836a06233681665,64dc7e5ae8c79331eb2da897,,,,,,,ctch,resources/DB.BMP,resources/DY.BMP,Door4,0.427777778,0.000925912,1,0,0,0.7811,optionRight,80,6875,3,42,0,42,0,1,,,,,,,,,,,,,,,,,,,,,,,,,,,,,,,,,,,,,,,
,,,,,,,,2023-08-16_08h45.14.910,HF_wild_card,2022.2.4,Win32,59.87665409,647849063b9fd9be24803727,64d2fd46c836a06233681665,64dc7e5ae8c79331eb2da897,,,,,,,decisionTrl,resources/DY.BMP,resources/DR.BMP,Door4,-0.249074046,-0.00648151,1,0,0,0.729,optionLeft,80,6955,3,43,0,43,0,1,,,,,,,,,,,,,,,,,,,,,,,,,,,,,,,,,,,,,,,
,,,,,,,,2023-08-16_08h45.14.910,HF_wild_card,2022.2.4,Win32,59.87665409,647849063b9fd9be24803727,64d2fd46c836a06233681665,64dc7e5ae8c79331eb2da897,,,,,,,,,,,,,,,,,,,,,,,,,,2,0,2,0,1,,,,,,,,,,,,,,,,,,,,,,,,,,,,,,,,,,
,,,,,,,,2023-08-16_08h45.14.910,HF_wild_card,2022.2.4,Win32,59.87665409,647849063b9fd9be24803727,64d2fd46c836a06233681665,64dc7e5ae8c79331eb2da897,,,,,,,decisionTrl,resources/DBN.BMP,resources/DB.BMP,Door1,0.237963019,-0.038888889,1,0,0,2.0048,optionRight,30,6985,4,0,0,0,0,1,,,,,,,,,,,,,,,,,,,,,,,,,,,,,,,,,,,,,,,
,,,,,,,,2023-08-16_08h45.14.910,HF_wild_card,2022.2.4,Win32,59.87665409,647849063b9fd9be24803727,64d2fd46c836a06233681665,64dc7e5ae8c79331eb2da897,,,,,,,sngl,resources/DB.BMP,resources/Empty.png,Door1,-0.410185157,0.192592578,1,0,0,1.317,optionLeft,30,7015,4,1,0,1,0,1,,,,,,,,,,,,,,,,,,,,,,,,,,,,,,,,,,,,,,,
,,,,,,,,2023-08-16_08h45.14.910,HF_wild_card,2022.2.4,Win32,59.87665409,647849063b9fd9be24803727,64d2fd46c836a06233681665,64dc7e5ae8c79331eb2da897,,,,,,,decisionTrl,resources/DP.BMP,resources/DY.BMP,Door4,0.740740797,0.01851849,1,0,0,1.4209,optionRight,60,7075,4,2,0,2,0,1,,,,,,,,,,,,,,,,,,,,,,,,,,,,,,,,,,,,,,,
,,,,,,,,2023-08-16_08h45.14.910,HF_wild_card,2022.2.4,Win32,59.87665409,647849063b9fd9be24803727,64d2fd46c836a06233681665,64dc7e5ae8c79331eb2da897,,,,,,,decisionTrl,resources/DY.BMP,resources/DG.BMP,Door4,-0.643518511,0.004629601,1,0,0,1.7593,optionLeft,80,7155,4,3,0,3,0,1,,,,,,,,,,,,,,,,,,,,,,,,,,,,,,,,,,,,,,,
,,,,,,,,2023-08-16_08h45.14.910,HF_wild_card,2022.2.4,Win32,59.87665409,647849063b9fd9be24803727,64d2fd46c836a06233681665,64dc7e5ae8c79331eb2da897,,,,,,,decisionTrl,resources/DG.BMP,resources/DY.BMP,Door4,0.241666667,0.023148134,1,0,0,3.3192,optionRight,80,7235,4,4,0,4,0,1,,,,,,,,,,,,,,,,,,,,,,,,,,,,,,,,,,,,,,,
,,,,,,,,2023-08-16_08h45.14.910,HF_wild_card,2022.2.4,Win32,59.87665409,647849063b9fd9be24803727,64d2fd46c836a06233681665,64dc7e5ae8c79331eb2da897,,,,,,,decisionTrl,resources/DY.BMP,resources/DG.BMP,Door3,0.611111111,-0.011111111,1,0,0,3.0039,optionRight,70,7305,4,5,0,5,0,1,,,,,,,,,,,,,,,,,,,,,,,,,,,,,,,,,,,,,,,
,,,,,,,,2023-08-16_08h45.14.910,HF_wild_card,2022.2.4,Win32,59.87665409,647849063b9fd9be24803727,64d2fd46c836a06233681665,64dc7e5ae8c79331eb2da897,,,,,,,sngl,resources/Empty.png,resources/DBN.BMP,Door2,0.128703732,0.039814801,1,0,0,1.191,optionRight,40,7345,4,6,0,6,0,1,,,,,,,,,,,,,,,,,,,,,,,,,,,,,,,,,,,,,,,
,,,,,,,,2023-08-16_08h45.14.910,HF_wild_card,2022.2.4,Win32,59.87665409,647849063b9fd9be24803727,64d2fd46c836a06233681665,64dc7e5ae8c79331eb2da897,,,,,,,decisionTrl,resources/DY.BMP,resources/DG.BMP,Door4,-0.623148134,0.061111111,1,0,0,3.2869,optionLeft,80,7425,4,7,0,7,0,1,,,,,,,,,,,,,,,,,,,,,,,,,,,,,,,,,,,,,,,
,,,,,,,,2023-08-16_08h45.14.910,HF_wild_card,2022.2.4,Win32,59.87665409,647849063b9fd9be24803727,64d2fd46c836a06233681665,64dc7e5ae8c79331eb2da897,,,,,,,decisionTrl,resources/DBN.BMP,resources/DP.BMP,Door2,-0.5574074,-0.036111111,1,0,0,3.2766,optionLeft,40,7465,4,8,0,8,0,1,,,,,,,,,,,,,,,,,,,,,,,,,,,,,,,,,,,,,,,
,,,,,,,,2023-08-16_08h45.14.910,HF_wild_card,2022.2.4,Win32,59.87665409,647849063b9fd9be24803727,64d2fd46c836a06233681665,64dc7e5ae8c79331eb2da897,,,,,,,ctch,resources/DBN.BMP,resources/DG.BMP,Door3,0.352777778,0.061111111,1,0,0,2.3,optionRight,70,7535,4,9,0,9,0,1,,,,,,,,,,,,,,,,,,,,,,,,,,,,,,,,,,,,,,,
,,,,,,,,2023-08-16_08h45.14.910,HF_wild_card,2022.2.4,Win32,59.87665409,647849063b9fd9be24803727,64d2fd46c836a06233681665,64dc7e5ae8c79331eb2da897,,,,,,,decisionTrl,resources/DBN.BMP,resources/DB.BMP,Door2,-0.290740712,-0.05648151,1,0,0,1.7835,optionLeft,20,7555,4,10,0,10,0,1,,,,,,,,,,,,,,,,,,,,,,,,,,,,,,,,,,,,,,,
,,,,,,,,2023-08-16_08h45.14.910,HF_wild_card,2022.2.4,Win32,59.87665409,647849063b9fd9be24803727,64d2fd46c836a06233681665,64dc7e5ae8c79331eb2da897,,,,,,,sngl,resources/Empty.png,resources/DP.BMP,WildCard_NonEx,0.322222222,0.073148134,1,0,0,3.0959,optionRight,55,7610,4,11,0,11,0,1,,,,,,,,,,,,,,,,,,,,,,,,,,,,,,,,,,,,,,,
,,,,,,,,2023-08-16_08h45.14.910,HF_wild_card,2022.2.4,Win32,59.87665409,647849063b9fd9be24803727,64d2fd46c836a06233681665,64dc7e5ae8c79331eb2da897,,,,,,,sngl,resources/Empty.png,resources/DY.BMP,Door4,0.557407464,0.175,1,0,0,1.6211,optionRight,80,7690,4,12,0,12,0,1,,,,,,,,,,,,,,,,,,,,,,,,,,,,,,,,,,,,,,,
,,,,,,,,2023-08-16_08h45.14.910,HF_wild_card,2022.2.4,Win32,59.87665409,647849063b9fd9be24803727,64d2fd46c836a06233681665,64dc7e5ae8c79331eb2da897,,,,,,,sngl,resources/DG.BMP,resources/Empty.png,Door3,-0.830555556,-0.013888889,1,0,0,0.8708,optionLeft,70,7760,4,13,0,13,0,1,,,,,,,,,,,,,,,,,,,,,,,,,,,,,,,,,,,,,,,
,,,,,,,,2023-08-16_08h45.14.910,HF_wild_card,2022.2.4,Win32,59.87665409,647849063b9fd9be24803727,64d2fd46c836a06233681665,64dc7e5ae8c79331eb2da897,,,,,,,ctch,resources/DB.BMP,resources/DY.BMP,Door4,0.213888889,0.115740712,1,0,0,1.7753,optionRight,80,7840,4,14,0,14,0,1,,,,,,,,,,,,,,,,,,,,,,,,,,,,,,,,,,,,,,,
,,,,,,,,2023-08-16_08h45.14.910,HF_wild_card,2022.2.4,Win32,59.87665409,647849063b9fd9be24803727,64d2fd46c836a06233681665,64dc7e5ae8c79331eb2da897,,,,,,,decisionTrl,resources/DG.BMP,resources/DY.BMP,Door4,0.6,0.052777778,1,0,0,10.7872,optionRight,80,7920,4,15,0,15,0,1,,,,,,,,,,,,,,,,,,,,,,,,,,,,,,,,,,,,,,,
,,,,,,,,2023-08-16_08h45.14.910,HF_wild_card,2022.2.4,Win32,59.87665409,647849063b9fd9be24803727,64d2fd46c836a06233681665,64dc7e5ae8c79331eb2da897,,,,,,,ctch,resources/DG.BMP,resources/DBN.BMP,Door3,-0.255555556,0.112037023,1,0,0,5.5411,optionLeft,70,7990,4,16,0,16,0,1,,,,,,,,,,,,,,,,,,,,,,,,,,,,,,,,,,,,,,,
,,,,,,,,2023-08-16_08h45.14.910,HF_wild_card,2022.2.4,Win32,59.87665409,647849063b9fd9be24803727,64d2fd46c836a06233681665,64dc7e5ae8c79331eb2da897,,,,,,,ctch,resources/DG.BMP,resources/DBN.BMP,Door2,0.508333333,0.05370369,1,0,0,3.7899,optionRight,20,8010,4,17,0,17,0,1,,,,,,,,,,,,,,,,,,,,,,,,,,,,,,,,,,,,,,,
,,,,,,,,2023-08-16_08h45.14.910,HF_wild_card,2022.2.4,Win32,59.87665409,647849063b9fd9be24803727,64d2fd46c836a06233681665,64dc7e5ae8c79331eb2da897,,,,,,,decisionTrl,resources/DG.BMP,resources/DY.BMP,Door4,0.209259288,0.065740712,1,0,0,1.4073,optionRight,80,8090,4,18,0,18,0,1,,,,,,,,,,,,,,,,,,,,,,,,,,,,,,,,,,,,,,,
,,,,,,,,2023-08-16_08h45.14.910,HF_wild_card,2022.2.4,Win32,59.87665409,647849063b9fd9be24803727,64d2fd46c836a06233681665,64dc7e5ae8c79331eb2da897,,,,,,,decisionTrl,resources/DY.BMP,resources/DG.BMP,Door4,-0.482407379,0.024074046,1,0,0,6.3789,optionLeft,80,8170,4,19,0,19,0,1,,,,,,,,,,,,,,,,,,,,,,,,,,,,,,,,,,,,,,,
,,,,,,,,2023-08-16_08h45.14.910,HF_wild_card,2022.2.4,Win32,59.87665409,647849063b9fd9be24803727,64d2fd46c836a06233681665,64dc7e5ae8c79331eb2da897,,,,,,,decisionTrl,resources/DG.BMP,resources/DY.BMP,Door4,0.399074131,0.02870369,1,0,0,2.6948,optionRight,60,8230,4,20,0,20,0,1,,,,,,,,,,,,,,,,,,,,,,,,,,,,,,,,,,,,,,,
,,,,,,,,2023-08-16_08h45.14.910,HF_wild_card,2022.2.4,Win32,59.87665409,647849063b9fd9be24803727,64d2fd46c836a06233681665,64dc7e5ae8c79331eb2da897,,,,,,,decisionTrl,resources/DP.BMP,resources/DG.BMP,WildCard_NonEx,-0.319444444,0.042592578,1,0,0,1.762,optionLeft,45,8275,4,21,0,21,0,1,,,,,,,,,,,,,,,,,,,,,,,,,,,,,,,,,,,,,,,
,,,,,,,,2023-08-16_08h45.14.910,HF_wild_card,2022.2.4,Win32,59.87665409,647849063b9fd9be24803727,64d2fd46c836a06233681665,64dc7e5ae8c79331eb2da897,,,,,,,sngl,resources/Empty.png,resources/DG.BMP,Door3,0.107407464,0.02870369,1,0,0,0.8372,optionRight,70,8345,4,22,0,22,0,1,,,,,,,,,,,,,,,,,,,,,,,,,,,,,,,,,,,,,,,
,,,,,,,,2023-08-16_08h45.14.910,HF_wild_card,2022.2.4,Win32,59.87665409,647849063b9fd9be24803727,64d2fd46c836a06233681665,64dc7e5ae8c79331eb2da897,,,,,,,decisionTrl,resources/DB.BMP,resources/DBN.BMP,Door2,0.303703732,0.016666667,1,0,0,3.1236,optionRight,40,8385,4,23,0,23,0,1,,,,,,,,,,,,,,,,,,,,,,,,,,,,,,,,,,,,,,,
,,,,,,,,2023-08-16_08h45.14.910,HF_wild_card,2022.2.4,Win32,59.87665409,647849063b9fd9be24803727,64d2fd46c836a06233681665,64dc7e5ae8c79331eb2da897,,,,,,,sngl,resources/DY.BMP,resources/Empty.png,Door4,-0.505555556,-0.104629644,1,0,0,0.7547,optionLeft,60,8445,4,24,0,24,0,1,,,,,,,,,,,,,,,,,,,,,,,,,,,,,,,,,,,,,,,
,,,,,,,,2023-08-16_08h45.14.910,HF_wild_card,2022.2.4,Win32,59.87665409,647849063b9fd9be24803727,64d2fd46c836a06233681665,64dc7e5ae8c79331eb2da897,,,,,,,decisionTrl,resources/DBN.BMP,resources/DB.BMP,Door1,0.282407464,0.125925912,1,0,0,1.1926,optionRight,30,8475,4,25,0,25,0,1,,,,,,,,,,,,,,,,,,,,,,,,,,,,,,,,,,,,,,,
,,,,,,,,2023-08-16_08h45.14.910,HF_wild_card,2022.2.4,Win32,59.87665409,647849063b9fd9be24803727,64d2fd46c836a06233681665,64dc7e5ae8c79331eb2da897,,,,,,,ctch,resources/DY.BMP,resources/DB.BMP,Door4,-0.35370369,0.030555556,1,0,0,2.3917,optionLeft,60,8535,4,26,0,26,0,1,,,,,,,,,,,,,,,,,,,,,,,,,,,,,,,,,,,,,,,
,,,,,,,,2023-08-16_08h45.14.910,HF_wild_card,2022.2.4,Win32,59.87665409,647849063b9fd9be24803727,64d2fd46c836a06233681665,64dc7e5ae8c79331eb2da897,,,,,,,sngl,resources/DP.BMP,resources/Empty.png,WildCard_NonEx,-0.206481467,0.014814801,1,0,0,2.4418,optionLeft,55,8590,4,27,0,27,0,1,,,,,,,,,,,,,,,,,,,,,,,,,,,,,,,,,,,,,,,
,,,,,,,,2023-08-16_08h45.14.910,HF_wild_card,2022.2.4,Win32,59.87665409,647849063b9fd9be24803727,64d2fd46c836a06233681665,64dc7e5ae8c79331eb2da897,,,,,,,decisionTrl,resources/DBN.BMP,resources/DB.BMP,Door2,-0.382407379,0.000925912,1,0,0,2.7446,optionLeft,20,8610,4,28,0,28,0,1,,,,,,,,,,,,,,,,,,,,,,,,,,,,,,,,,,,,,,,
,,,,,,,,2023-08-16_08h45.14.910,HF_wild_card,2022.2.4,Win32,59.87665409,647849063b9fd9be24803727,64d2fd46c836a06233681665,64dc7e5ae8c79331eb2da897,,,,,,,decisionTrl,resources/DP.BMP,resources/DBN.BMP,Door2,0.312963019,0.015740712,1,0,0,1.2942,optionRight,20,8630,4,29,0,29,0,1,,,,,,,,,,,,,,,,,,,,,,,,,,,,,,,,,,,,,,,
,,,,,,,,2023-08-16_08h45.14.910,HF_wild_card,2022.2.4,Win32,59.87665409,647849063b9fd9be24803727,64d2fd46c836a06233681665,64dc7e5ae8c79331eb2da897,,,,,,,decisionTrl,resources/DB.BMP,resources/DBN.BMP,Door1,-0.169444444,0.01851849,1,0,0,5.485,optionLeft,30,8660,4,30,0,30,0,1,,,,,,,,,,,,,,,,,,,,,,,,,,,,,,,,,,,,,,,
,,,,,,,,2023-08-16_08h45.14.910,HF_wild_card,2022.2.4,Win32,59.87665409,647849063b9fd9be24803727,64d2fd46c836a06233681665,64dc7e5ae8c79331eb2da897,,,,,,,decisionTrl,resources/DB.BMP,resources/DBN.BMP,Door2,0.207407464,0.007407379,1,0,0,1.255,optionRight,20,8680,4,31,0,31,0,1,,,,,,,,,,,,,,,,,,,,,,,,,,,,,,,,,,,,,,,
,,,,,,,,2023-08-16_08h45.14.910,HF_wild_card,2022.2.4,Win32,59.87665409,647849063b9fd9be24803727,64d2fd46c836a06233681665,64dc7e5ae8c79331eb2da897,,,,,,,sngl,resources/Empty.png,resources/DB.BMP,Door1,0.128703732,0.036111111,1,0,0,0.8818,optionRight,30,8710,4,32,0,32,0,1,,,,,,,,,,,,,,,,,,,,,,,,,,,,,,,,,,,,,,,
,,,,,,,,2023-08-16_08h45.14.910,HF_wild_card,2022.2.4,Win32,59.87665409,647849063b9fd9be24803727,64d2fd46c836a06233681665,64dc7e5ae8c79331eb2da897,,,,,,,sngl,resources/DP.BMP,resources/Empty.png,WildCard_NonEx,-0.262037023,0.02870369,1,0,0,1.0206,optionLeft,45,8755,4,33,0,33,0,1,,,,,,,,,,,,,,,,,,,,,,,,,,,,,,,,,,,,,,,
,,,,,,,,2023-08-16_08h45.14.910,HF_wild_card,2022.2.4,Win32,59.87665409,647849063b9fd9be24803727,64d2fd46c836a06233681665,64dc7e5ae8c79331eb2da897,,,,,,,decisionTrl,resources/DP.BMP,resources/DB.BMP,WildCard_NonEx,-0.197222222,0.006481467,1,0,0,14.6011,optionLeft,55,8810,4,34,0,34,0,1,,,,,,,,,,,,,,,,,,,,,,,,,,,,,,,,,,,,,,,
,,,,,,,,2023-08-16_08h45.14.910,HF_wild_card,2022.2.4,Win32,59.87665409,647849063b9fd9be24803727,64d2fd46c836a06233681665,64dc7e5ae8c79331eb2da897,,,,,,,decisionTrl,resources/DB.BMP,resources/DP.BMP,WildCard_NonEx,0.528703732,-0.019444444,1,0,0,1.3612,optionRight,55,8865,4,35,0,35,0,1,,,,,,,,,,,,,,,,,,,,,,,,,,,,,,,,,,,,,,,
,,,,,,,,2023-08-16_08h45.14.910,HF_wild_card,2022.2.4,Win32,59.87665409,647849063b9fd9be24803727,64d2fd46c836a06233681665,64dc7e5ae8c79331eb2da897,,,,,,,ctch,resources/DBN.BMP,resources/DG.BMP,Door2,0.000925954,-0.005555556,1,0,0,0.5423,optionLeft,20,8885,4,36,0,36,0,1,,,,,,,,,,,,,,,,,,,,,,,,,,,,,,,,,,,,,,,
,,,,,,,,2023-08-16_08h45.14.910,HF_wild_card,2022.2.4,Win32,59.87665409,647849063b9fd9be24803727,64d2fd46c836a06233681665,64dc7e5ae8c79331eb2da897,,,,,,,decisionTrl,resources/DY.BMP,resources/DP.BMP,WildCard_NonEx,0.363888889,0.070370356,1,0,0,16.8364,optionRight,55,8940,4,37,0,37,0,1,,,,,,,,,,,,,,,,,,,,,,,,,,,,,,,,,,,,,,,
,,,,,,,,2023-08-16_08h45.14.910,HF_wild_card,2022.2.4,Win32,59.87665409,647849063b9fd9be24803727,64d2fd46c836a06233681665,64dc7e5ae8c79331eb2da897,,,,,,,decisionTrl,resources/DB.BMP,resources/DBN.BMP,Door2,0.393518575,0.071296268,1,0,0,8.1706,optionRight,20,8960,4,38,0,38,0,1,,,,,,,,,,,,,,,,,,,,,,,,,,,,,,,,,,,,,,,
,,,,,,,,2023-08-16_08h45.14.910,HF_wild_card,2022.2.4,Win32,59.87665409,647849063b9fd9be24803727,64d2fd46c836a06233681665,64dc7e5ae8c79331eb2da897,,,,,,,sngl,resources/Empty.png,resources/DP.BMP,WildCard_NonEx,0.280555556,0.037037023,1,0,0,2.7436,optionRight,45,9005,4,39,0,39,0,1,,,,,,,,,,,,,,,,,,,,,,,,,,,,,,,,,,,,,,,
,,,,,,,,2023-08-16_08h45.14.910,HF_wild_card,2022.2.4,Win32,59.87665409,647849063b9fd9be24803727,64d2fd46c836a06233681665,64dc7e5ae8c79331eb2da897,,,,,,,ctch,resources/DY.BMP,resources/DB.BMP,Door4,-0.167592536,0.026851824,1,0,0,4.8881,optionLeft,80,9085,4,40,0,40,0,1,,,,,,,,,,,,,,,,,,,,,,,,,,,,,,,,,,,,,,,
,,,,,,,,2023-08-16_08h45.14.910,HF_wild_card,2022.2.4,Win32,59.87665409,647849063b9fd9be24803727,64d2fd46c836a06233681665,64dc7e5ae8c79331eb2da897,,,,,,,ctch,resources/DB.BMP,resources/DY.BMP,Door4,0.244444444,0.244444444,1,0,0,1.3535,optionRight,80,9165,4,41,0,41,0,1,,,,,,,,,,,,,,,,,,,,,,,,,,,,,,,,,,,,,,,
,,,,,,,,2023-08-16_08h45.14.910,HF_wild_card,2022.2.4,Win32,59.87665409,647849063b9fd9be24803727,64d2fd46c836a06233681665,64dc7e5ae8c79331eb2da897,,,,,,,decisionTrl,resources/DG.BMP,resources/DP.BMP,Door3,-0.223148134,-0.038888889,1,0,0,1.3417,optionLeft,70,9235,4,42,0,42,0,1,,,,,,,,,,,,,,,,,,,,,,,,,,,,,,,,,,,,,,,
,,,,,,,,2023-08-16_08h45.14.910,HF_wild_card,2022.2.4,Win32,59.87665409,647849063b9fd9be24803727,64d2fd46c836a06233681665,64dc7e5ae8c79331eb2da897,,,,,,,sngl,resources/DBN.BMP,resources/Empty.png,Door2,-0.263888889,-0.023148176,1,0,0,0.9724,optionLeft,20,9255,4,43,0,43,0,1,,,,,,,,,,,,,,,,,,,,,,,,,,,,,,,,,,,,,,,
,,,,,,,,2023-08-16_08h45.14.910,HF_wild_card,2022.2.4,Win32,59.87665409,647849063b9fd9be24803727,64d2fd46c836a06233681665,64dc7e5ae8c79331eb2da897,,,,,,,,,,,,,,,,,,,,,,,,,,3,0,3,0,1,,,,,,,,,,,,,,,,,,,,,,,,,,,,,,,,,,
,,,,,,,,2023-08-16_08h45.14.910,HF_wild_card,2022.2.4,Win32,59.87665409,647849063b9fd9be24803727,64d2fd46c836a06233681665,64dc7e5ae8c79331eb2da897,,,,,,,decisionTrl,resources/DY.BMP,resources/DP.BMP,WildCard_NonEx,0.285185242,-0.122222222,1,0,0,1.3559,optionRight,45,9300,5,0,0,0,0,1,,,,,,,,,,,,,,,,,,,,,,,,,,,,,,,,,,,,,,,
,,,,,,,,2023-08-16_08h45.14.910,HF_wild_card,2022.2.4,Win32,59.87665409,647849063b9fd9be24803727,64d2fd46c836a06233681665,64dc7e5ae8c79331eb2da897,,,,,,,sngl,resources/DY.BMP,resources/Empty.png,Door4,-0.311111111,-0.025925954,1,0,0,0.7309,optionLeft,80,9380,5,1,0,1,0,1,,,,,,,,,,,,,,,,,,,,,,,,,,,,,,,,,,,,,,,
,,,,,,,,2023-08-16_08h45.14.910,HF_wild_card,2022.2.4,Win32,59.87665409,647849063b9fd9be24803727,64d2fd46c836a06233681665,64dc7e5ae8c79331eb2da897,,,,,,,sngl,resources/DP.BMP,resources/Empty.png,WildCard_NonEx,-0.234259245,-0.017592621,1,0,0,1.0131,optionLeft,55,9435,5,2,0,2,0,1,,,,,,,,,,,,,,,,,,,,,,,,,,,,,,,,,,,,,,,
,,,,,,,,2023-08-16_08h45.14.910,HF_wild_card,2022.2.4,Win32,59.87665409,647849063b9fd9be24803727,64d2fd46c836a06233681665,64dc7e5ae8c79331eb2da897,,,,,,,decisionTrl,resources/DP.BMP,resources/DB.BMP,Door1,0.249074131,-0.023148176,1,0,0,1.8645,optionRight,30,9465,5,3,0,3,0,1,,,,,,,,,,,,,,,,,,,,,,,,,,,,,,,,,,,,,,,
,,,,,,,,2023-08-16_08h45.14.910,HF_wild_card,2022.2.4,Win32,59.87665409,647849063b9fd9be24803727,64d2fd46c836a06233681665,64dc7e5ae8c79331eb2da897,,,,,,,ctch,resources/DG.BMP,resources/DBN.BMP,Door3,-0.259259245,-0.012037065,1,0,0,0.9127,optionLeft,70,9535,5,4,0,4,0,1,,,,,,,,,,,,,,,,,,,,,,,,,,,,,,,,,,,,,,,
,,,,,,,,2023-08-16_08h45.14.910,HF_wild_card,2022.2.4,Win32,59.87665409,647849063b9fd9be24803727,64d2fd46c836a06233681665,64dc7e5ae8c79331eb2da897,,,,,,,sngl,resources/Empty.png,resources/DBN.BMP,Door2,0.236111111,-0.012962977,1,0,0,0.6138,optionRight,20,9555,5,5,0,5,0,1,,,,,,,,,,,,,,,,,,,,,,,,,,,,,,,,,,,,,,,
,,,,,,,,2023-08-16_08h45.14.910,HF_wild_card,2022.2.4,Win32,59.87665409,647849063b9fd9be24803727,64d2fd46c836a06233681665,64dc7e5ae8c79331eb2da897,,,,,,,decisionTrl,resources/DP.BMP,resources/DG.BMP,WildCard_NonEx,-0.273148134,-0.001851866,1,0,0,2.093,optionLeft,55,9610,5,6,0,6,0,1,,,,,,,,,,,,,,,,,,,,,,,,,,,,,,,,,,,,,,,
,,,,,,,,2023-08-16_08h45.14.910,HF_wild_card,2022.2.4,Win32,59.87665409,647849063b9fd9be24803727,64d2fd46c836a06233681665,64dc7e5ae8c79331eb2da897,,,,,,,decisionTrl,resources/DB.BMP,resources/DBN.BMP,Door1,-0.220370356,-0.000925954,1,0,0,0.9454,optionLeft,30,9640,5,7,0,7,0,1,,,,,,,,,,,,,,,,,,,,,,,,,,,,,,,,,,,,,,,
,,,,,,,,2023-08-16_08h45.14.910,HF_wild_card,2022.2.4,Win32,59.87665409,647849063b9fd9be24803727,64d2fd46c836a06233681665,64dc7e5ae8c79331eb2da897,,,,,,,ctch,resources/DBN.BMP,resources/DG.BMP,Door3,0.222222222,-0.005555556,1,0,0,0.713,optionRight,70,9710,5,8,0,8,0,1,,,,,,,,,,,,,,,,,,,,,,,,,,,,,,,,,,,,,,,
,,,,,,,,2023-08-16_08h45.14.910,HF_wild_card,2022.2.4,Win32,59.87665409,647849063b9fd9be24803727,64d2fd46c836a06233681665,64dc7e5ae8c79331eb2da897,,,,,,,decisionTrl,resources/DG.BMP,resources/DY.BMP,Door4,0.296296353,-0.000925954,1,0,0,0.9288,optionRight,80,9790,5,9,0,9,0,1,,,,,,,,,,,,,,,,,,,,,,,,,,,,,,,,,,,,,,,
,,,,,,,,2023-08-16_08h45.14.910,HF_wild_card,2022.2.4,Win32,59.87665409,647849063b9fd9be24803727,64d2fd46c836a06233681665,64dc7e5ae8c79331eb2da897,,,,,,,sngl,resources/Empty.png,resources/DY.BMP,Door4,0.096296353,0.008333333,1,0,0,0.5156,optionRight,60,9850,5,10,0,10,0,1,,,,,,,,,,,,,,,,,,,,,,,,,,,,,,,,,,,,,,,
,,,,,,,,2023-08-16_08h45.14.910,HF_wild_card,2022.2.4,Win32,59.87665409,647849063b9fd9be24803727,64d2fd46c836a06233681665,64dc7e5ae8c79331eb2da897,,,,,,,sngl,resources/DG.BMP,resources/Empty.png,Door3,-0.320370356,-0.058333333,1,0,0,0.6276,optionLeft,70,9920,5,11,0,11,0,1,,,,,,,,,,,,,,,,,,,,,,,,,,,,,,,,,,,,,,,
,,,,,,,,2023-08-16_08h45.14.910,HF_wild_card,2022.2.4,Win32,59.87665409,647849063b9fd9be24803727,64d2fd46c836a06233681665,64dc7e5ae8c79331eb2da897,,,,,,,ctch,resources/DB.BMP,resources/DY.BMP,Door4,0.287963019,0.036111111,1,0,0,0.7605,optionRight,80,10000,5,12,0,12,0,1,,,,,,,,,,,,,,,,,,,,,,,,,,,,,,,,,,,,,,,
,,,,,,,,2023-08-16_08h45.14.910,HF_wild_card,2022.2.4,Win32,59.87665409,647849063b9fd9be24803727,64d2fd46c836a06233681665,64dc7e5ae8c79331eb2da897,,,,,,,decisionTrl,resources/DBN.BMP,resources/DP.BMP,Door2,-0.331481467,-0.003703732,1,0,0,1.4498,optionLeft,20,10020,5,13,0,13,0,1,,,,,,,,,,,,,,,,,,,,,,,,,,,,,,,,,,,,,,,
,,,,,,,,2023-08-16_08h45.14.910,HF_wild_card,2022.2.4,Win32,59.87665409,647849063b9fd9be24803727,64d2fd46c836a06233681665,64dc7e5ae8c79331eb2da897,,,,,,,sngl,resources/Empty.png,resources/DG.BMP,Door3,0.407407464,-0.057407422,1,0,0,0.793,optionRight,70,10090,5,14,0,14,0,1,,,,,,,,,,,,,,,,,,,,,,,,,,,,,,,,,,,,,,,
,,,,,,,,2023-08-16_08h45.14.910,HF_wild_card,2022.2.4,Win32,59.87665409,647849063b9fd9be24803727,64d2fd46c836a06233681665,64dc7e5ae8c79331eb2da897,,,,,,,ctch,resources/DG.BMP,resources/DBN.BMP,Door3,-0.336111111,-0.010185199,1,0,0,0.6957,optionLeft,70,10160,5,15,0,15,0,1,,,,,,,,,,,,,,,,,,,,,,,,,,,,,,,,,,,,,,,
,,,,,,,,2023-08-16_08h45.14.910,HF_wild_card,2022.2.4,Win32,59.87665409,647849063b9fd9be24803727,64d2fd46c836a06233681665,64dc7e5ae8c79331eb2da897,,,,,,,decisionTrl,resources/DY.BMP,resources/DG.BMP,Door3,0.402777778,-0.003703732,1,0,0,0.6474,optionRight,70,10230,5,16,0,16,0,1,,,,,,,,,,,,,,,,,,,,,,,,,,,,,,,,,,,,,,,
,,,,,,,,2023-08-16_08h45.14.910,HF_wild_card,2022.2.4,Win32,59.87665409,647849063b9fd9be24803727,64d2fd46c836a06233681665,64dc7e5ae8c79331eb2da897,,,,,,,decisionTrl,resources/DG.BMP,resources/DP.BMP,Door3,-0.262037023,-0.00648151,1,0,0,0.6613,optionLeft,70,10300,5,17,0,17,0,1,,,,,,,,,,,,,,,,,,,,,,,,,,,,,,,,,,,,,,,
,,,,,,,,2023-08-16_08h45.14.910,HF_wild_card,2022.2.4,Win32,59.87665409,647849063b9fd9be24803727,64d2fd46c836a06233681665,64dc7e5ae8c79331eb2da897,,,,,,,decisionTrl,resources/DB.BMP,resources/DBN.BMP,Door2,0.189814843,0,1,0,0,0.8603,optionRight,20,10320,5,18,0,18,0,1,,,,,,,,,,,,,,,,,,,,,,,,,,,,,,,,,,,,,,,
,,,,,,,,2023-08-16_08h45.14.910,HF_wild_card,2022.2.4,Win32,59.87665409,647849063b9fd9be24803727,64d2fd46c836a06233681665,64dc7e5ae8c79331eb2da897,,,,,,,decisionTrl,resources/DG.BMP,resources/DY.BMP,Door4,0.374074131,-0.011111111,1,0,0,1.0251,optionRight,60,10380,5,19,0,19,0,1,,,,,,,,,,,,,,,,,,,,,,,,,,,,,,,,,,,,,,,
,,,,,,,,2023-08-16_08h45.14.910,HF_wild_card,2022.2.4,Win32,59.87665409,647849063b9fd9be24803727,64d2fd46c836a06233681665,64dc7e5ae8c79331eb2da897,,,,,,,ctch,resources/DB.BMP,resources/DY.BMP,Door4,0.309259288,-0.000925954,1,0,0,1.2409,optionRight,80,10460,5,20,0,20,0,1,,,,,,,,,,,,,,,,,,,,,,,,,,,,,,,,,,,,,,,
,,,,,,,,2023-08-16_08h45.14.910,HF_wild_card,2022.2.4,Win32,59.87665409,647849063b9fd9be24803727,64d2fd46c836a06233681665,64dc7e5ae8c79331eb2da897,,,,,,,decisionTrl,resources/DY.BMP,resources/DG.BMP,Door4,-0.255555556,0,1,0,0,0.8566,optionLeft,60,10520,5,21,0,21,0,1,,,,,,,,,,,,,,,,,,,,,,,,,,,,,,,,,,,,,,,
,,,,,,,,2023-08-16_08h45.14.910,HF_wild_card,2022.2.4,Win32,59.87665409,647849063b9fd9be24803727,64d2fd46c836a06233681665,64dc7e5ae8c79331eb2da897,,,,,,,decisionTrl,resources/DP.BMP,resources/DY.BMP,Door4,0.239814843,0.011111111,1,0,0,1.2936,optionRight,60,10580,5,22,0,22,0,1,,,,,,,,,,,,,,,,,,,,,,,,,,,,,,,,,,,,,,,
,,,,,,,,2023-08-16_08h45.14.910,HF_wild_card,2022.2.4,Win32,59.87665409,647849063b9fd9be24803727,64d2fd46c836a06233681665,64dc7e5ae8c79331eb2da897,,,,,,,decisionTrl,resources/DBN.BMP,resources/DB.BMP,Door2,-0.322222222,0.031481467,1,0,0,1.1591,optionLeft,20,10600,5,23,0,23,0,1,,,,,,,,,,,,,,,,,,,,,,,,,,,,,,,,,,,,,,,
,,,,,,,,2023-08-16_08h45.14.910,HF_wild_card,2022.2.4,Win32,59.87665409,647849063b9fd9be24803727,64d2fd46c836a06233681665,64dc7e5ae8c79331eb2da897,,,,,,,ctch,resources/DY.BMP,resources/DB.BMP,Door4,-0.358333333,-0.005555556,1,0,0,1.2471,optionLeft,60,10660,5,24,0,24,0,1,,,,,,,,,,,,,,,,,,,,,,,,,,,,,,,,,,,,,,,
,,,,,,,,2023-08-16_08h45.14.910,HF_wild_card,2022.2.4,Win32,59.87665409,647849063b9fd9be24803727,64d2fd46c836a06233681665,64dc7e5ae8c79331eb2da897,,,,,,,sngl,resources/Empty.png,resources/DP.BMP,WildCard_NonEx,0.257407464,0.001851824,1,0,0,0.6602,optionRight,45,10705,5,25,0,25,0,1,,,,,,,,,,,,,,,,,,,,,,,,,,,,,,,,,,,,,,,
,,,,,,,,2023-08-16_08h45.14.910,HF_wild_card,2022.2.4,Win32,59.87665409,647849063b9fd9be24803727,64d2fd46c836a06233681665,64dc7e5ae8c79331eb2da897,,,,,,,decisionTrl,resources/DBN.BMP,resources/DB.BMP,Door1,0.229629686,0.007407379,1,0,0,1.3816,optionRight,30,10735,5,26,0,26,0,1,,,,,,,,,,,,,,,,,,,,,,,,,,,,,,,,,,,,,,,
,,,,,,,,2023-08-16_08h45.14.910,HF_wild_card,2022.2.4,Win32,59.87665409,647849063b9fd9be24803727,64d2fd46c836a06233681665,64dc7e5ae8c79331eb2da897,,,,,,,decisionTrl,resources/DB.BMP,resources/DBN.BMP,Door2,0.440740797,-0.143518533,1,0,0,52.751,optionRight,40,10775,5,27,0,27,0,1,,,,,,,,,,,,,,,,,,,,,,,,,,,,,,,,,,,,,,,
,,,,,,,,2023-08-16_08h45.14.910,HF_wild_card,2022.2.4,Win32,59.87665409,647849063b9fd9be24803727,64d2fd46c836a06233681665,64dc7e5ae8c79331eb2da897,,,,,,,decisionTrl,resources/DP.BMP,resources/DBN.BMP,WildCard_NonEx,-0.400925912,-0.114814843,1,0,0,0.9101,optionLeft,45,10820,5,28,0,28,0,1,,,,,,,,,,,,,,,,,,,,,,,,,,,,,,,,,,,,,,,
,,,,,,,,2023-08-16_08h45.14.910,HF_wild_card,2022.2.4,Win32,59.87665409,647849063b9fd9be24803727,64d2fd46c836a06233681665,64dc7e5ae8c79331eb2da897,,,,,,,decisionTrl,resources/DB.BMP,resources/DBN.BMP,Door2,0.668518575,-0.135185199,1,0,0,0.8122,optionRight,40,10860,5,29,0,29,0,1,,,,,,,,,,,,,,,,,,,,,,,,,,,,,,,,,,,,,,,
,,,,,,,,2023-08-16_08h45.14.910,HF_wild_card,2022.2.4,Win32,59.87665409,647849063b9fd9be24803727,64d2fd46c836a06233681665,64dc7e5ae8c79331eb2da897,,,,,,,decisionTrl,resources/DY.BMP,resources/DG.BMP,Door3,0.558333333,-0.260185242,1,0,0,0.6054,optionRight,70,10930,5,30,0,30,0,1,,,,,,,,,,,,,,,,,,,,,,,,,,,,,,,,,,,,,,,
,,,,,,,,2023-08-16_08h45.14.910,HF_wild_card,2022.2.4,Win32,59.87665409,647849063b9fd9be24803727,64d2fd46c836a06233681665,64dc7e5ae8c79331eb2da897,,,,,,,sngl,resources/Empty.png,resources/DB.BMP,Door1,0.216666667,-0.076851866,1,0,0,0.5786,optionRight,30,10960,5,31,0,31,0,1,,,,,,,,,,,,,,,,,,,,,,,,,,,,,,,,,,,,,,,
,,,,,,,,2023-08-16_08h45.14.910,HF_wild_card,2022.2.4,Win32,59.87665409,647849063b9fd9be24803727,64d2fd46c836a06233681665,64dc7e5ae8c79331eb2da897,,,,,,,ctch,resources/DY.BMP,resources/DB.BMP,Door4,-0.596296289,0.05,1,0,0,1.1969,optionLeft,60,11020,5,32,0,32,0,1,,,,,,,,,,,,,,,,,,,,,,,,,,,,,,,,,,,,,,,
,,,,,,,,2023-08-16_08h45.14.910,HF_wild_card,2022.2.4,Win32,59.87665409,647849063b9fd9be24803727,64d2fd46c836a06233681665,64dc7e5ae8c79331eb2da897,,,,,,,decisionTrl,resources/DG.BMP,resources/DY.BMP,Door4,0.868518575,0.189814801,1,0,0,0.6836,optionRight,60,11080,5,33,0,33,0,1,,,,,,,,,,,,,,,,,,,,,,,,,,,,,,,,,,,,,,,
,,,,,,,,2023-08-16_08h45.14.910,HF_wild_card,2022.2.4,Win32,59.87665409,647849063b9fd9be24803727,64d2fd46c836a06233681665,64dc7e5ae8c79331eb2da897,,,,,,,decisionTrl,resources/DY.BMP,resources/DG.BMP,Door3,0.43148151,-0.05,1,0,0,2.3157,optionRight,70,11150,5,34,0,34,0,1,,,,,,,,,,,,,,,,,,,,,,,,,,,,,,,,,,,,,,,
,,,,,,,,2023-08-16_08h45.14.910,HF_wild_card,2022.2.4,Win32,59.87665409,647849063b9fd9be24803727,64d2fd46c836a06233681665,64dc7e5ae8c79331eb2da897,,,,,,,sngl,resources/DB.BMP,resources/Empty.png,Door1,-0.517592578,-0.050925954,1,0,0,3.4183,optionLeft,30,11180,5,35,0,35,0,1,,,,,,,,,,,,,,,,,,,,,,,,,,,,,,,,,,,,,,,
,,,,,,,,2023-08-16_08h45.14.910,HF_wild_card,2022.2.4,Win32,59.87665409,647849063b9fd9be24803727,64d2fd46c836a06233681665,64dc7e5ae8c79331eb2da897,,,,,,,sngl,resources/DBN.BMP,resources/Empty.png,Door2,-0.250925912,-0.00648151,1,0,0,1.1942,optionLeft,40,11220,5,36,0,36,0,1,,,,,,,,,,,,,,,,,,,,,,,,,,,,,,,,,,,,,,,
,,,,,,,,2023-08-16_08h45.14.910,HF_wild_card,2022.2.4,Win32,59.87665409,647849063b9fd9be24803727,64d2fd46c836a06233681665,64dc7e5ae8c79331eb2da897,,,,,,,ctch,resources/DBN.BMP,resources/DG.BMP,Door3,0.151851908,-0.154629644,1,0,0,0.9496,optionRight,70,11290,5,37,0,37,0,1,,,,,,,,,,,,,,,,,,,,,,,,,,,,,,,,,,,,,,,
,,,,,,,,2023-08-16_08h45.14.910,HF_wild_card,2022.2.4,Win32,59.87665409,647849063b9fd9be24803727,64d2fd46c836a06233681665,64dc7e5ae8c79331eb2da897,,,,,,,decisionTrl,resources/DG.BMP,resources/DY.BMP,Door4,0.519444444,0.060185157,1,0,0,0.7244,optionRight,60,11350,5,38,0,38,0,1,,,,,,,,,,,,,,,,,,,,,,,,,,,,,,,,,,,,,,,
,,,,,,,,2023-08-16_08h45.14.910,HF_wild_card,2022.2.4,Win32,59.87665409,647849063b9fd9be24803727,64d2fd46c836a06233681665,64dc7e5ae8c79331eb2da897,,,,,,,decisionTrl,resources/DB.BMP,resources/DP.BMP,Door1,-0.398148134,-0.03148151,1,0,0,1.49,optionLeft,30,11380,5,39,0,39,0,1,,,,,,,,,,,,,,,,,,,,,,,,,,,,,,,,,,,,,,,
,,,,,,,,2023-08-16_08h45.14.910,HF_wild_card,2022.2.4,Win32,59.87665409,647849063b9fd9be24803727,64d2fd46c836a06233681665,64dc7e5ae8c79331eb2da897,,,,,,,sngl,resources/Empty.png,resources/DP.BMP,WildCard_NonEx,0.511111111,-0.124074088,1,0,0,2.1812,optionRight,55,11435,5,40,0,40,0,1,,,,,,,,,,,,,,,,,,,,,,,,,,,,,,,,,,,,,,,
,,,,,,,,2023-08-16_08h45.14.910,HF_wild_card,2022.2.4,Win32,59.87665409,647849063b9fd9be24803727,64d2fd46c836a06233681665,64dc7e5ae8c79331eb2da897,,,,,,,sngl,resources/DP.BMP,resources/Empty.png,WildCard_NonEx,-0.283333333,-0.115740755,1,0,0,1.0234,optionLeft,45,11480,5,41,0,41,0,1,,,,,,,,,,,,,,,,,,,,,,,,,,,,,,,,,,,,,,,
,,,,,,,,2023-08-16_08h45.14.910,HF_wild_card,2022.2.4,Win32,59.87665409,647849063b9fd9be24803727,64d2fd46c836a06233681665,64dc7e5ae8c79331eb2da897,,,,,,,decisionTrl,resources/DBN.BMP,resources/DB.BMP,Door1,0.193518575,-0.026851866,1,0,0,0.7418,optionRight,30,11510,5,42,0,42,0,1,,,,,,,,,,,,,,,,,,,,,,,,,,,,,,,,,,,,,,,
,,,,,,,,2023-08-16_08h45.14.910,HF_wild_card,2022.2.4,Win32,59.87665409,647849063b9fd9be24803727,64d2fd46c836a06233681665,64dc7e5ae8c79331eb2da897,,,,,,,decisionTrl,resources/DBN.BMP,resources/DB.BMP,Door2,-0.065740712,0.020370356,1,0,0,0.7791,optionLeft,40,11550,5,43,0,43,0,1,,,,,,,,,,,,,,,,,,,,,,,,,,,,,,,,,,,,,,,
,,,,,,,,2023-08-16_08h45.14.910,HF_wild_card,2022.2.4,Win32,59.87665409,647849063b9fd9be24803727,64d2fd46c836a06233681665,64dc7e5ae8c79331eb2da897,,,,,,,,,,,,,,,,,,,,,,,,,,4,0,4,0,1,,,,,,,,,,,,,,,,,,,,,,,,,,,,,,,,,,
,,,,,,,,2023-08-16_08h45.14.910,HF_wild_card,2022.2.4,Win32,59.87665409,647849063b9fd9be24803727,64d2fd46c836a06233681665,64dc7e5ae8c79331eb2da897,,,,,,,sngl,resources/DP.BMP,resources/Empty.png,WildCard_NonEx,-0.059259203,-0.312963019,1,0,0,0.8552,optionLeft,45,11595,6,0,0,0,0,1,,,,,,,,,,,,,,,,,,,,,,,,,,,,,,,,,,,,,,,
,,,,,,,,2023-08-16_08h45.14.910,HF_wild_card,2022.2.4,Win32,59.87665409,647849063b9fd9be24803727,64d2fd46c836a06233681665,64dc7e5ae8c79331eb2da897,,,,,,,decisionTrl,resources/DY.BMP,resources/DG.BMP,Door3,0.257407464,-0.017592621,1,0,0,0.751,optionRight,70,11665,6,1,0,1,0,1,,,,,,,,,,,,,,,,,,,,,,,,,,,,,,,,,,,,,,,
,,,,,,,,2023-08-16_08h45.14.910,HF_wild_card,2022.2.4,Win32,59.87665409,647849063b9fd9be24803727,64d2fd46c836a06233681665,64dc7e5ae8c79331eb2da897,,,,,,,sngl,resources/DY.BMP,resources/Empty.png,Door4,-0.297222222,-0.001851866,1,0,0,0.5287,optionLeft,60,11725,6,2,0,2,0,1,,,,,,,,,,,,,,,,,,,,,,,,,,,,,,,,,,,,,,,
,,,,,,,,2023-08-16_08h45.14.910,HF_wild_card,2022.2.4,Win32,59.87665409,647849063b9fd9be24803727,64d2fd46c836a06233681665,64dc7e5ae8c79331eb2da897,,,,,,,ctch,resources/DB.BMP,resources/DY.BMP,Door4,0.282407464,-0.002777778,1,0,0,1.412,optionRight,80,11805,6,3,0,3,0,1,,,,,,,,,,,,,,,,,,,,,,,,,,,,,,,,,,,,,,,
,,,,,,,,2023-08-16_08h45.14.910,HF_wild_card,2022.2.4,Win32,59.87665409,647849063b9fd9be24803727,64d2fd46c836a06233681665,64dc7e5ae8c79331eb2da897,,,,,,,decisionTrl,resources/DP.BMP,resources/DBN.BMP,WildCard_NonEx,-0.238888889,-0.001851866,1,0,0,0.6043,optionLeft,55,11860,6,4,0,4,0,1,,,,,,,,,,,,,,,,,,,,,,,,,,,,,,,,,,,,,,,
,,,,,,,,2023-08-16_08h45.14.910,HF_wild_card,2022.2.4,Win32,59.87665409,647849063b9fd9be24803727,64d2fd46c836a06233681665,64dc7e5ae8c79331eb2da897,,,,,,,sngl,resources/Empty.png,resources/DY.BMP,Door4,0.333333333,-0.008333333,1,0,0,0.5292,optionRight,80,11940,6,5,0,5,0,1,,,,,,,,,,,,,,,,,,,,,,,,,,,,,,,,,,,,,,,
,,,,,,,,2023-08-16_08h45.14.910,HF_wild_card,2022.2.4,Win32,59.87665409,647849063b9fd9be24803727,64d2fd46c836a06233681665,64dc7e5ae8c79331eb2da897,,,,,,,decisionTrl,resources/DY.BMP,resources/DG.BMP,Door3,0.275925954,-0.004629644,1,0,0,0.7462,optionRight,70,12010,6,6,0,6,0,1,,,,,,,,,,,,,,,,,,,,,,,,,,,,,,,,,,,,,,,
,,,,,,,,2023-08-16_08h45.14.910,HF_wild_card,2022.2.4,Win32,59.87665409,647849063b9fd9be24803727,64d2fd46c836a06233681665,64dc7e5ae8c79331eb2da897,,,,,,,sngl,resources/Empty.png,resources/DB.BMP,Door1,0.294444444,0.004629601,1,0,0,0.5941,optionRight,30,12040,6,7,0,7,0,1,,,,,,,,,,,,,,,,,,,,,,,,,,,,,,,,,,,,,,,
,,,,,,,,2023-08-16_08h45.14.910,HF_wild_card,2022.2.4,Win32,59.87665409,647849063b9fd9be24803727,64d2fd46c836a06233681665,64dc7e5ae8c79331eb2da897,,,,,,,decisionTrl,resources/DG.BMP,resources/DY.BMP,Door3,-0.275,0.000925912,1,0,0,0.7792,optionLeft,70,12110,6,8,0,8,0,1,,,,,,,,,,,,,,,,,,,,,,,,,,,,,,,,,,,,,,,
,,,,,,,,2023-08-16_08h45.14.910,HF_wild_card,2022.2.4,Win32,59.87665409,647849063b9fd9be24803727,64d2fd46c836a06233681665,64dc7e5ae8c79331eb2da897,,,,,,,sngl,resources/DP.BMP,resources/Empty.png,WildCard_NonEx,-0.234259245,0.011111111,1,0,0,0.7211,optionLeft,55,12165,6,9,0,9,0,1,,,,,,,,,,,,,,,,,,,,,,,,,,,,,,,,,,,,,,,
,,,,,,,,2023-08-16_08h45.14.910,HF_wild_card,2022.2.4,Win32,59.87665409,647849063b9fd9be24803727,64d2fd46c836a06233681665,64dc7e5ae8c79331eb2da897,,,,,,,decisionTrl,resources/DY.BMP,resources/DP.BMP,Door4,-0.305555556,0.021296268,1,0,0,1.0452,optionLeft,60,12225,6,10,0,10,0,1,,,,,,,,,,,,,,,,,,,,,,,,,,,,,,,,,,,,,,,
,,,,,,,,2023-08-16_08h45.14.910,HF_wild_card,2022.2.4,Win32,59.87665409,647849063b9fd9be24803727,64d2fd46c836a06233681665,64dc7e5ae8c79331eb2da897,,,,,,,ctch,resources/DY.BMP,resources/DB.BMP,Door4,-0.275925912,0.030555556,1,0,0,0.8116,optionLeft,80,12305,6,11,0,11,0,1,,,,,,,,,,,,,,,,,,,,,,,,,,,,,,,,,,,,,,,
,,,,,,,,2023-08-16_08h45.14.910,HF_wild_card,2022.2.4,Win32,59.87665409,647849063b9fd9be24803727,64d2fd46c836a06233681665,64dc7e5ae8c79331eb2da897,,,,,,,decisionTrl,resources/DB.BMP,resources/DP.BMP,WildCard_NonEx,0.242592621,0.012962935,1,0,0,0.8124,optionRight,55,12360,6,12,0,12,0,1,,,,,,,,,,,,,,,,,,,,,,,,,,,,,,,,,,,,,,,
,,,,,,,,2023-08-16_08h45.14.910,HF_wild_card,2022.2.4,Win32,59.87665409,647849063b9fd9be24803727,64d2fd46c836a06233681665,64dc7e5ae8c79331eb2da897,,,,,,,decisionTrl,resources/DY.BMP,resources/DG.BMP,Door4,-0.241666667,0.005555556,1,0,0,0.7961,optionLeft,80,12440,6,13,0,13,0,1,,,,,,,,,,,,,,,,,,,,,,,,,,,,,,,,,,,,,,,
,,,,,,,,2023-08-16_08h45.14.910,HF_wild_card,2022.2.4,Win32,59.87665409,647849063b9fd9be24803727,64d2fd46c836a06233681665,64dc7e5ae8c79331eb2da897,,,,,,,decisionTrl,resources/DP.BMP,resources/DG.BMP,Door3,0.166666667,0.00370369,1,0,0,0.8839,optionRight,70,12510,6,14,0,14,0,1,,,,,,,,,,,,,,,,,,,,,,,,,,,,,,,,,,,,,,,
,,,,,,,,2023-08-16_08h45.14.910,HF_wild_card,2022.2.4,Win32,59.87665409,647849063b9fd9be24803727,64d2fd46c836a06233681665,64dc7e5ae8c79331eb2da897,,,,,,,decisionTrl,resources/DG.BMP,resources/DY.BMP,Door4,0.215740797,0.010185157,1,0,0,0.9304,optionRight,60,12570,6,15,0,15,0,1,,,,,,,,,,,,,,,,,,,,,,,,,,,,,,,,,,,,,,,
,,,,,,,,2023-08-16_08h45.14.910,HF_wild_card,2022.2.4,Win32,59.87665409,647849063b9fd9be24803727,64d2fd46c836a06233681665,64dc7e5ae8c79331eb2da897,,,,,,,decisionTrl,resources/DBN.BMP,resources/DB.BMP,Door1,0.499074131,0.005555556,1,0,0,1.5096,optionRight,30,12600,6,16,0,16,0,1,,,,,,,,,,,,,,,,,,,,,,,,,,,,,,,,,,,,,,,
,,,,,,,,2023-08-16_08h45.14.910,HF_wild_card,2022.2.4,Win32,59.87665409,647849063b9fd9be24803727,64d2fd46c836a06233681665,64dc7e5ae8c79331eb2da897,,,,,,,sngl,resources/Empty.png,resources/DP.BMP,WildCard_NonEx,0.214814843,0.008333333,1,0,0,0.8489,optionRight,45,12645,6,17,0,17,0,1,,,,,,,,,,,,,,,,,,,,,,,,,,,,,,,,,,,,,,,
,,,,,,,,2023-08-16_08h45.14.910,HF_wild_card,2022.2.4,Win32,59.87665409,647849063b9fd9be24803727,64d2fd46c836a06233681665,64dc7e5ae8c79331eb2da897,,,,,,,sngl,resources/Empty.png,resources/DBN.BMP,Door2,0.238888889,-0.010185199,1,0,0,0.6439,optionRight,40,12685,6,18,0,18,0,1,,,,,,,,,,,,,,,,,,,,,,,,,,,,,,,,,,,,,,,
,,,,,,,,2023-08-16_08h45.14.910,HF_wild_card,2022.2.4,Win32,59.87665409,647849063b9fd9be24803727,64d2fd46c836a06233681665,64dc7e5ae8c79331eb2da897,,,,,,,decisionTrl,resources/DP.BMP,resources/DB.BMP,WildCard_NonEx,-0.476851824,-0.012962977,1,0,0,0.8458,optionLeft,45,12730,6,19,0,19,0,1,,,,,,,,,,,,,,,,,,,,,,,,,,,,,,,,,,,,,,,
,,,,,,,,2023-08-16_08h45.14.910,HF_wild_card,2022.2.4,Win32,59.87665409,647849063b9fd9be24803727,64d2fd46c836a06233681665,64dc7e5ae8c79331eb2da897,,,,,,,sngl,resources/DG.BMP,resources/Empty.png,Door3,-0.300925912,-0.002777778,1,0,0,0.7041,optionLeft,70,12800,6,20,0,20,0,1,,,,,,,,,,,,,,,,,,,,,,,,,,,,,,,,,,,,,,,
,,,,,,,,2023-08-16_08h45.14.910,HF_wild_card,2022.2.4,Win32,59.87665409,647849063b9fd9be24803727,64d2fd46c836a06233681665,64dc7e5ae8c79331eb2da897,,,,,,,decisionTrl,resources/DP.BMP,resources/DY.BMP,Door4,0.272222222,-0.015740755,1,0,0,0.7284,optionRight,60,12860,6,21,0,21,0,1,,,,,,,,,,,,,,,,,,,,,,,,,,,,,,,,,,,,,,,
,,,,,,,,2023-08-16_08h45.14.910,HF_wild_card,2022.2.4,Win32,59.87665409,647849063b9fd9be24803727,64d2fd46c836a06233681665,64dc7e5ae8c79331eb2da897,,,,,,,decisionTrl,resources/DBN.BMP,resources/DB.BMP,Door2,-0.257407379,-0.007407422,1,0,0,0.8292,optionLeft,40,12900,6,22,0,22,0,1,,,,,,,,,,,,,,,,,,,,,,,,,,,,,,,,,,,,,,,
,,,,,,,,2023-08-16_08h45.14.910,HF_wild_card,2022.2.4,Win32,59.87665409,647849063b9fd9be24803727,64d2fd46c836a06233681665,64dc7e5ae8c79331eb2da897,,,,,,,ctch,resources/DB.BMP,resources/DY.BMP,Door4,0.346296353,-0.037962977,1,0,0,2.5289,optionRight,80,12980,6,23,0,23,0,1,,,,,,,,,,,,,,,,,,,,,,,,,,,,,,,,,,,,,,,
,,,,,,,,2023-08-16_08h45.14.910,HF_wild_card,2022.2.4,Win32,59.87665409,647849063b9fd9be24803727,64d2fd46c836a06233681665,64dc7e5ae8c79331eb2da897,,,,,,,decisionTrl,resources/DBN.BMP,resources/DP.BMP,WildCard_NonEx,0.228703732,-0.030555556,1,0,0,1.1293,optionRight,45,13025,6,24,0,24,0,1,,,,,,,,,,,,,,,,,,,,,,,,,,,,,,,,,,,,,,,
,,,,,,,,2023-08-16_08h45.14.910,HF_wild_card,2022.2.4,Win32,59.87665409,647849063b9fd9be24803727,64d2fd46c836a06233681665,64dc7e5ae8c79331eb2da897,,,,,,,decisionTrl,resources/DB.BMP,resources/DBN.BMP,Door1,-0.285185157,0.004629601,1,0,0,1.2082,optionLeft,30,13055,6,25,0,25,0,1,,,,,,,,,,,,,,,,,,,,,,,,,,,,,,,,,,,,,,,
,,,,,,,,2023-08-16_08h45.14.910,HF_wild_card,2022.2.4,Win32,59.87665409,647849063b9fd9be24803727,64d2fd46c836a06233681665,64dc7e5ae8c79331eb2da897,,,,,,,decisionTrl,resources/DB.BMP,resources/DBN.BMP,Door2,0.194444444,-0.002777778,1,0,0,0.8639,optionRight,20,13075,6,26,0,26,0,1,,,,,,,,,,,,,,,,,,,,,,,,,,,,,,,,,,,,,,,
,,,,,,,,2023-08-16_08h45.14.910,HF_wild_card,2022.2.4,Win32,59.87665409,647849063b9fd9be24803727,64d2fd46c836a06233681665,64dc7e5ae8c79331eb2da897,,,,,,,decisionTrl,resources/DBN.BMP,resources/DB.BMP,Door2,-0.359259245,-0.004629644,1,0,0,1.1826,optionLeft,20,13095,6,27,0,27,0,1,,,,,,,,,,,,,,,,,,,,,,,,,,,,,,,,,,,,,,,
,,,,,,,,2023-08-16_08h45.14.910,HF_wild_card,2022.2.4,Win32,59.87665409,647849063b9fd9be24803727,64d2fd46c836a06233681665,64dc7e5ae8c79331eb2da897,,,,,,,decisionTrl,resources/DB.BMP,resources/DBN.BMP,Door1,-0.27870369,0,1,0,0,0.8752,optionLeft,30,13125,6,28,0,28,0,1,,,,,,,,,,,,,,,,,,,,,,,,,,,,,,,,,,,,,,,
,,,,,,,,2023-08-16_08h45.14.910,HF_wild_card,2022.2.4,Win32,59.87665409,647849063b9fd9be24803727,64d2fd46c836a06233681665,64dc7e5ae8c79331eb2da897,,,,,,,ctch,resources/DBN.BMP,resources/DG.BMP,Door3,0.362963019,-0.000925954,1,0,0,0.7114,optionRight,70,13195,6,29,0,29,0,1,,,,,,,,,,,,,,,,,,,,,,,,,,,,,,,,,,,,,,,
,,,,,,,,2023-08-16_08h45.14.910,HF_wild_card,2022.2.4,Win32,59.87665409,647849063b9fd9be24803727,64d2fd46c836a06233681665,64dc7e5ae8c79331eb2da897,,,,,,,decisionTrl,resources/DY.BMP,resources/DG.BMP,Door4,-0.407407379,0.016666667,1,0,0,1.2311,optionLeft,60,13255,6,30,0,30,0,1,,,,,,,,,,,,,,,,,,,,,,,,,,,,,,,,,,,,,,,
,,,,,,,,2023-08-16_08h45.14.910,HF_wild_card,2022.2.4,Win32,59.87665409,647849063b9fd9be24803727,64d2fd46c836a06233681665,64dc7e5ae8c79331eb2da897,,,,,,,decisionTrl,resources/DBN.BMP,resources/DB.BMP,Door1,0.295370399,0.010185157,1,0,0,0.7281,optionRight,30,13285,6,31,0,31,0,1,,,,,,,,,,,,,,,,,,,,,,,,,,,,,,,,,,,,,,,
,,,,,,,,2023-08-16_08h45.14.910,HF_wild_card,2022.2.4,Win32,59.87665409,647849063b9fd9be24803727,64d2fd46c836a06233681665,64dc7e5ae8c79331eb2da897,,,,,,,decisionTrl,resources/DG.BMP,resources/DY.BMP,Door4,0.278703732,-0.010185199,1,0,0,1.0154,optionRight,80,13365,6,32,0,32,0,1,,,,,,,,,,,,,,,,,,,,,,,,,,,,,,,,,,,,,,,
,,,,,,,,2023-08-16_08h45.14.910,HF_wild_card,2022.2.4,Win32,59.87665409,647849063b9fd9be24803727,64d2fd46c836a06233681665,64dc7e5ae8c79331eb2da897,,,,,,,ctch,resources/DG.BMP,resources/DBN.BMP,Door3,-0.394444444,-0.014814843,1,0,0,0.7124,optionLeft,70,13435,6,33,0,33,0,1,,,,,,,,,,,,,,,,,,,,,,,,,,,,,,,,,,,,,,,
,,,,,,,,2023-08-16_08h45.14.910,HF_wild_card,2022.2.4,Win32,59.87665409,647849063b9fd9be24803727,64d2fd46c836a06233681665,64dc7e5ae8c79331eb2da897,,,,,,,sngl,resources/Empty.png,resources/DP.BMP,WildCard_NonEx,0.212037065,-0.028703732,1,0,0,0.6647,optionRight,55,13490,6,34,0,34,0,1,,,,,,,,,,,,,,,,,,,,,,,,,,,,,,,,,,,,,,,
,,,,,,,,2023-08-16_08h45.14.910,HF_wild_card,2022.2.4,Win32,59.87665409,647849063b9fd9be24803727,64d2fd46c836a06233681665,64dc7e5ae8c79331eb2da897,,,,,,,ctch,resources/DG.BMP,resources/DBN.BMP,Door3,-0.312962935,-0.012962977,1,0,0,0.6606,optionLeft,70,13560,6,35,0,35,0,1,,,,,,,,,,,,,,,,,,,,,,,,,,,,,,,,,,,,,,,
,,,,,,,,2023-08-16_08h45.14.910,HF_wild_card,2022.2.4,Win32,59.87665409,647849063b9fd9be24803727,64d2fd46c836a06233681665,64dc7e5ae8c79331eb2da897,,,,,,,sngl,resources/DB.BMP,resources/Empty.png,Door1,-0.261111111,-0.004629644,1,0,0,0.6287,optionLeft,30,13590,6,36,0,36,0,1,,,,,,,,,,,,,,,,,,,,,,,,,,,,,,,,,,,,,,,
,,,,,,,,2023-08-16_08h45.14.910,HF_wild_card,2022.2.4,Win32,59.87665409,647849063b9fd9be24803727,64d2fd46c836a06233681665,64dc7e5ae8c79331eb2da897,,,,,,,decisionTrl,resources/DB.BMP,resources/DBN.BMP,Door1,-0.335185157,0.039814801,1,0,0,0.9006,optionLeft,30,13620,6,37,0,37,0,1,,,,,,,,,,,,,,,,,,,,,,,,,,,,,,,,,,,,,,,
,,,,,,,,2023-08-16_08h45.14.910,HF_wild_card,2022.2.4,Win32,59.87665409,647849063b9fd9be24803727,64d2fd46c836a06233681665,64dc7e5ae8c79331eb2da897,,,,,,,sngl,resources/DBN.BMP,resources/Empty.png,Door2,-0.251851824,0.016666667,1,0,0,0.5835,optionLeft,20,13640,6,38,0,38,0,1,,,,,,,,,,,,,,,,,,,,,,,,,,,,,,,,,,,,,,,
,,,,,,,,2023-08-16_08h45.14.910,HF_wild_card,2022.2.4,Win32,59.87665409,647849063b9fd9be24803727,64d2fd46c836a06233681665,64dc7e5ae8c79331eb2da897,,,,,,,ctch,resources/DY.BMP,resources/DB.BMP,Door4,-0.252777778,-0.008333333,1,0,0,0.6046,optionLeft,60,13700,6,39,0,39,0,1,,,,,,,,,,,,,,,,,,,,,,,,,,,,,,,,,,,,,,,
,,,,,,,,2023-08-16_08h45.14.910,HF_wild_card,2022.2.4,Win32,59.87665409,647849063b9fd9be24803727,64d2fd46c836a06233681665,64dc7e5ae8c79331eb2da897,,,,,,,ctch,resources/DBN.BMP,resources/DG.BMP,Door3,0.234259288,-0.025925954,1,0,0,0.9269,optionRight,70,13770,6,40,0,40,0,1,,,,,,,,,,,,,,,,,,,,,,,,,,,,,,,,,,,,,,,
,,,,,,,,2023-08-16_08h45.14.910,HF_wild_card,2022.2.4,Win32,59.87665409,647849063b9fd9be24803727,64d2fd46c836a06233681665,64dc7e5ae8c79331eb2da897,,,,,,,decisionTrl,resources/DG.BMP,resources/DY.BMP,Door4,0.313888889,-0.049074088,1,0,0,1.3947,optionRight,80,13850,6,41,0,41,0,1,,,,,,,,,,,,,,,,,,,,,,,,,,,,,,,,,,,,,,,
,,,,,,,,2023-08-16_08h45.14.910,HF_wild_card,2022.2.4,Win32,59.87665409,647849063b9fd9be24803727,64d2fd46c836a06233681665,64dc7e5ae8c79331eb2da897,,,,,,,sngl,resources/Empty.png,resources/DG.BMP,Door3,0.20648151,-0.009259288,1,0,0,0.7734,optionRight,70,13920,6,42,0,42,0,1,,,,,,,,,,,,,,,,,,,,,,,,,,,,,,,,,,,,,,,
,,,,,,,,2023-08-16_08h45.14.910,HF_wild_card,2022.2.4,Win32,59.87665409,647849063b9fd9be24803727,64d2fd46c836a06233681665,64dc7e5ae8c79331eb2da897,,,,,,,decisionTrl,resources/DG.BMP,resources/DP.BMP,Door3,-0.284259245,0.013888889,1,0,0,0.8613,optionLeft,70,13990,6,43,0,43,0,1,,,,,,,,,,,,,,,,,,,,,,,,,,,,,,,,,,,,,,,
,,,,,,,,2023-08-16_08h45.14.910,HF_wild_card,2022.2.4,Win32,59.87665409,647849063b9fd9be24803727,64d2fd46c836a06233681665,64dc7e5ae8c79331eb2da897,,,,,,,,,,,,,,,,,,,,,,,,,,5,0,5,0,1,,,,,,,,,,,,,,,,,,,,,,,,,,,,,,,,,,
,,,,,,,,2023-08-16_08h45.14.910,HF_wild_card,2022.2.4,Win32,59.87665409,647849063b9fd9be24803727,64d2fd46c836a06233681665,64dc7e5ae8c79331eb2da897,,,,,,,decisionTrl,resources/DG.BMP,resources/DY.BMP,Door4,0.319444444,-0.087037065,1,0,0,1.4208,optionRight,80,14070,7,0,0,0,0,1,,,,,,,,,,,,,,,,,,,,,,,,,,,,,,,,,,,,,,,
,,,,,,,,2023-08-16_08h45.14.910,HF_wild_card,2022.2.4,Win32,59.87665409,647849063b9fd9be24803727,64d2fd46c836a06233681665,64dc7e5ae8c79331eb2da897,,,,,,,decisionTrl,resources/DY.BMP,resources/DG.BMP,Door4,-0.313888889,-0.026851866,1,0,0,1.1635,optionLeft,60,14130,7,1,0,1,0,1,,,,,,,,,,,,,,,,,,,,,,,,,,,,,,,,,,,,,,,
,,,,,,,,2023-08-16_08h45.14.910,HF_wild_card,2022.2.4,Win32,59.87665409,647849063b9fd9be24803727,64d2fd46c836a06233681665,64dc7e5ae8c79331eb2da897,,,,,,,ctch,resources/DBN.BMP,resources/DG.BMP,Door3,0.301851908,-0.030555556,1,0,0,0.8481,optionRight,70,14200,7,2,0,2,0,1,,,,,,,,,,,,,,,,,,,,,,,,,,,,,,,,,,,,,,,
,,,,,,,,2023-08-16_08h45.14.910,HF_wild_card,2022.2.4,Win32,59.87665409,647849063b9fd9be24803727,64d2fd46c836a06233681665,64dc7e5ae8c79331eb2da897,,,,,,,ctch,resources/DY.BMP,resources/DB.BMP,Door4,-0.385185157,0,1,0,0,0.8485,optionLeft,80,14280,7,3,0,3,0,1,,,,,,,,,,,,,,,,,,,,,,,,,,,,,,,,,,,,,,,
,,,,,,,,2023-08-16_08h45.14.910,HF_wild_card,2022.2.4,Win32,59.87665409,647849063b9fd9be24803727,64d2fd46c836a06233681665,64dc7e5ae8c79331eb2da897,,,,,,,decisionTrl,resources/DB.BMP,resources/DBN.BMP,Door1,-0.269444444,0.015740712,1,0,0,1.8158,optionLeft,30,14310,7,4,0,4,0,1,,,,,,,,,,,,,,,,,,,,,,,,,,,,,,,,,,,,,,,
,,,,,,,,2023-08-16_08h45.14.910,HF_wild_card,2022.2.4,Win32,59.87665409,647849063b9fd9be24803727,64d2fd46c836a06233681665,64dc7e5ae8c79331eb2da897,,,,,,,decisionTrl,resources/DG.BMP,resources/DY.BMP,Door4,0.238888889,-0.013888889,1,0,0,1.3969,optionRight,60,14370,7,5,0,5,0,1,,,,,,,,,,,,,,,,,,,,,,,,,,,,,,,,,,,,,,,
,,,,,,,,2023-08-16_08h45.14.910,HF_wild_card,2022.2.4,Win32,59.87665409,647849063b9fd9be24803727,64d2fd46c836a06233681665,64dc7e5ae8c79331eb2da897,,,,,,,decisionTrl,resources/DG.BMP,resources/DY.BMP,Door4,0.192592621,0.000925912,1,0,0,1.6596,optionRight,80,14450,7,6,0,6,0,1,,,,,,,,,,,,,,,,,,,,,,,,,,,,,,,,,,,,,,,
,,,,,,,,2023-08-16_08h45.14.910,HF_wild_card,2022.2.4,Win32,59.87665409,647849063b9fd9be24803727,64d2fd46c836a06233681665,64dc7e5ae8c79331eb2da897,,,,,,,ctch,resources/DBN.BMP,resources/DG.BMP,Door3,0.271296353,-0.001851866,1,0,0,1.0039,optionRight,70,14520,7,7,0,7,0,1,,,,,,,,,,,,,,,,,,,,,,,,,,,,,,,,,,,,,,,
,,,,,,,,2023-08-16_08h45.14.910,HF_wild_card,2022.2.4,Win32,59.87665409,647849063b9fd9be24803727,64d2fd46c836a06233681665,64dc7e5ae8c79331eb2da897,,,,,,,ctch,resources/DBN.BMP,resources/DG.BMP,Door3,0.294444444,0.001851824,1,0,0,0.7991,optionRight,70,14590,7,8,0,8,0,1,,,,,,,,,,,,,,,,,,,,,,,,,,,,,,,,,,,,,,,
,,,,,,,,2023-08-16_08h45.14.910,HF_wild_card,2022.2.4,Win32,59.87665409,647849063b9fd9be24803727,64d2fd46c836a06233681665,64dc7e5ae8c79331eb2da897,,,,,,,decisionTrl,resources/DBN.BMP,resources/DB.BMP,Door1,0.300925954,0.035185157,1,0,0,3.1374,optionRight,30,14620,7,9,0,9,0,1,,,,,,,,,,,,,,,,,,,,,,,,,,,,,,,,,,,,,,,
,,,,,,,,2023-08-16_08h45.14.910,HF_wild_card,2022.2.4,Win32,59.87665409,647849063b9fd9be24803727,64d2fd46c836a06233681665,64dc7e5ae8c79331eb2da897,,,,,,,ctch,resources/DG.BMP,resources/DBN.BMP,Door3,-0.271296268,0.023148134,1,0,0,0.7992,optionLeft,70,14690,7,10,0,10,0,1,,,,,,,,,,,,,,,,,,,,,,,,,,,,,,,,,,,,,,,
,,,,,,,,2023-08-16_08h45.14.910,HF_wild_card,2022.2.4,Win32,59.87665409,647849063b9fd9be24803727,64d2fd46c836a06233681665,64dc7e5ae8c79331eb2da897,,,,,,,decisionTrl,resources/DB.BMP,resources/DBN.BMP,Door1,-0.236111111,0.010185157,1,0,0,0.8803,optionLeft,30,14720,7,11,0,11,0,1,,,,,,,,,,,,,,,,,,,,,,,,,,,,,,,,,,,,,,,
,,,,,,,,2023-08-16_08h45.14.910,HF_wild_card,2022.2.4,Win32,59.87665409,647849063b9fd9be24803727,64d2fd46c836a06233681665,64dc7e5ae8c79331eb2da897,,,,,,,decisionTrl,resources/DBN.BMP,resources/DB.BMP,Door1,0.130555556,0.00370369,1,0,0,1.0318,optionRight,30,14750,7,12,0,12,0,1,,,,,,,,,,,,,,,,,,,,,,,,,,,,,,,,,,,,,,,
,,,,,,,,2023-08-16_08h45.14.910,HF_wild_card,2022.2.4,Win32,59.87665409,647849063b9fd9be24803727,64d2fd46c836a06233681665,64dc7e5ae8c79331eb2da897,,,,,,,decisionTrl,resources/DG.BMP,resources/DY.BMP,Door4,0.221296353,0.008333333,1,0,0,1.48,optionRight,80,14830,7,13,0,13,0,1,,,,,,,,,,,,,,,,,,,,,,,,,,,,,,,,,,,,,,,
,,,,,,,,2023-08-16_08h45.14.910,HF_wild_card,2022.2.4,Win32,59.87665409,647849063b9fd9be24803727,64d2fd46c836a06233681665,64dc7e5ae8c79331eb2da897,,,,,,,decisionTrl,resources/DY.BMP,resources/DG.BMP,Door4,-0.200925912,0.009259245,1,0,0,0.8325,optionLeft,60,14890,7,14,0,14,0,1,,,,,,,,,,,,,,,,,,,,,,,,,,,,,,,,,,,,,,,
,,,,,,,,2023-08-16_08h45.14.910,HF_wild_card,2022.2.4,Win32,59.87665409,647849063b9fd9be24803727,64d2fd46c836a06233681665,64dc7e5ae8c79331eb2da897,,,,,,,decisionTrl,resources/DY.BMP,resources/DG.BMP,Door4,-0.19351849,0.008333333,1,0,0,1.0823,optionLeft,80,14970,7,15,0,15,0,1,,,,,,,,,,,,,,,,,,,,,,,,,,,,,,,,,,,,,,,
,,,,,,,,2023-08-16_08h45.14.910,HF_wild_card,2022.2.4,Win32,59.87665409,647849063b9fd9be24803727,64d2fd46c836a06233681665,64dc7e5ae8c79331eb2da897,,,,,,,decisionTrl,resources/DB.BMP,resources/DBN.BMP,Door1,-0.217592578,0.009259245,1,0,0,1.3956,optionLeft,30,15000,7,16,0,16,0,1,,,,,,,,,,,,,,,,,,,,,,,,,,,,,,,,,,,,,,,
,,,,,,,,2023-08-16_08h45.14.910,HF_wild_card,2022.2.4,Win32,59.87665409,647849063b9fd9be24803727,64d2fd46c836a06233681665,64dc7e5ae8c79331eb2da897,,,,,,,ctch,resources/DB.BMP,resources/DY.BMP,Door4,0.217592621,0.001851824,1,0,0,0.8818,optionRight,60,15060,7,17,0,17,0,1,,,,,,,,,,,,,,,,,,,,,,,,,,,,,,,,,,,,,,,
,,,,,,,,2023-08-16_08h45.14.910,HF_wild_card,2022.2.4,Win32,59.87665409,647849063b9fd9be24803727,64d2fd46c836a06233681665,64dc7e5ae8c79331eb2da897,,,,,,,decisionTrl,resources/DG.BMP,resources/DY.BMP,Door4,0.235185242,0.001851824,1,0,0,1.0479,optionRight,60,15120,7,18,0,18,0,1,,,,,,,,,,,,,,,,,,,,,,,,,,,,,,,,,,,,,,,
,,,,,,,,2023-08-16_08h45.14.910,HF_wild_card,2022.2.4,Win32,59.87665409,647849063b9fd9be24803727,64d2fd46c836a06233681665,64dc7e5ae8c79331eb2da897,,,,,,,decisionTrl,resources/DY.BMP,resources/DG.BMP,Door4,-0.2,0.002777778,1,0,0,0.7966,optionLeft,60,15180,7,19,0,19,0,1,,,,,,,,,,,,,,,,,,,,,,,,,,,,,,,,,,,,,,,
,,,,,,,,2023-08-16_08h45.14.910,HF_wild_card,2022.2.4,Win32,59.87665409,647849063b9fd9be24803727,64d2fd46c836a06233681665,64dc7e5ae8c79331eb2da897,,,,,,,decisionTrl,resources/DB.BMP,resources/DBN.BMP,Door1,-0.291666667,0.020370356,1,0,0,0.9971,optionLeft,30,15210,7,20,0,20,0,1,,,,,,,,,,,,,,,,,,,,,,,,,,,,,,,,,,,,,,,
,,,,,,,,2023-08-16_08h45.14.910,HF_wild_card,2022.2.4,Win32,59.87665409,647849063b9fd9be24803727,64d2fd46c836a06233681665,64dc7e5ae8c79331eb2da897,,,,,,,decisionTrl,resources/DBN.BMP,resources/DB.BMP,Door1,0.190740797,-0.004629644,1,0,0,1.0479,optionRight,30,15240,7,21,0,21,0,1,,,,,,,,,,,,,,,,,,,,,,,,,,,,,,,,,,,,,,,
,,,,,,,,2023-08-16_08h45.14.910,HF_wild_card,2022.2.4,Win32,59.87665409,647849063b9fd9be24803727,64d2fd46c836a06233681665,64dc7e5ae8c79331eb2da897,,,,,,,ctch,resources/DY.BMP,resources/DB.BMP,Door4,-0.214814801,0.008333333,1,0,0,0.9309,optionLeft,80,15320,7,22,0,22,0,1,,,,,,,,,,,,,,,,,,,,,,,,,,,,,,,,,,,,,,,
,,,,,,,,2023-08-16_08h45.14.910,HF_wild_card,2022.2.4,Win32,59.87665409,647849063b9fd9be24803727,64d2fd46c836a06233681665,64dc7e5ae8c79331eb2da897,,,,,,,decisionTrl,resources/DBN.BMP,resources/DB.BMP,Door1,0.351851908,-0.016666667,1,0,0,1.3424,optionRight,30,15350,7,23,0,23,0,1,,,,,,,,,,,,,,,,,,,,,,,,,,,,,,,,,,,,,,,
,,,,,,,,2023-08-16_08h45.14.910,HF_wild_card,2022.2.4,Win32,59.87665409,647849063b9fd9be24803727,64d2fd46c836a06233681665,64dc7e5ae8c79331eb2da897,,,,,,,decisionTrl,resources/DY.BMP,resources/DG.BMP,Door4,-0.292592578,0.01851849,1,0,0,0.8493,optionLeft,80,15430,7,24,0,24,0,1,,,,,,,,,,,,,,,,,,,,,,,,,,,,,,,,,,,,,,,
,,,,,,,,2023-08-16_08h45.14.910,HF_wild_card,2022.2.4,Win32,59.87665409,647849063b9fd9be24803727,64d2fd46c836a06233681665,64dc7e5ae8c79331eb2da897,,,,,,,ctch,resources/DG.BMP,resources/DBN.BMP,Door3,-0.273148134,0.016666667,1,0,0,0.7317,optionLeft,70,15500,7,25,0,25,0,1,,,,,,,,,,,,,,,,,,,,,,,,,,,,,,,,,,,,,,,
,,,,,,,,2023-08-16_08h45.14.910,HF_wild_card,2022.2.4,Win32,59.87665409,647849063b9fd9be24803727,64d2fd46c836a06233681665,64dc7e5ae8c79331eb2da897,,,,,,,ctch,resources/DY.BMP,resources/DB.BMP,Door4,-0.288888889,0.012037023,1,0,0,0.7705,optionLeft,80,15580,7,26,0,26,0,1,,,,,,,,,,,,,,,,,,,,,,,,,,,,,,,,,,,,,,,
,,,,,,,,2023-08-16_08h45.14.910,HF_wild_card,2022.2.4,Win32,59.87665409,647849063b9fd9be24803727,64d2fd46c836a06233681665,64dc7e5ae8c79331eb2da897,,,,,,,ctch,resources/DB.BMP,resources/DY.BMP,Door4,0.326851908,-0.022222222,1,0,0,1.0176,optionRight,80,15660,7,27,0,27,0,1,,,,,,,,,,,,,,,,,,,,,,,,,,,,,,,,,,,,,,,
,,,,,,,,2023-08-16_08h45.14.910,HF_wild_card,2022.2.4,Win32,59.87665409,647849063b9fd9be24803727,64d2fd46c836a06233681665,64dc7e5ae8c79331eb2da897,,,,,,,decisionTrl,resources/DB.BMP,resources/DBN.BMP,Door1,-0.277777778,0.019444444,1,0,0,1.5115,optionLeft,30,15690,7,28,0,28,0,1,,,,,,,,,,,,,,,,,,,,,,,,,,,,,,,,,,,,,,,
,,,,,,,,2023-08-16_08h45.14.910,HF_wild_card,2022.2.4,Win32,59.87665409,647849063b9fd9be24803727,64d2fd46c836a06233681665,64dc7e5ae8c79331eb2da897,,,,,,,ctch,resources/DB.BMP,resources/DY.BMP,Door4,0.380555556,-0.003703732,1,0,0,0.797,optionRight,60,15750,7,29,0,29,0,1,,,,,,,,,,,,,,,,,,,,,,,,,,,,,,,,,,,,,,,
,,,,,,,,2023-08-16_08h45.14.910,HF_wild_card,2022.2.4,Win32,59.87665409,647849063b9fd9be24803727,64d2fd46c836a06233681665,64dc7e5ae8c79331eb2da897,,,,,,,ctch,resources/DG.BMP,resources/DBN.BMP,Door3,-0.299074046,0.006481467,1,0,0,0.7633,optionLeft,70,15820,7,30,0,30,0,1,,,,,,,,,,,,,,,,,,,,,,,,,,,,,,,,,,,,,,,
,,,,,,,,2023-08-16_08h45.14.910,HF_wild_card,2022.2.4,Win32,59.87665409,647849063b9fd9be24803727,64d2fd46c836a06233681665,64dc7e5ae8c79331eb2da897,,,,,,,decisionTrl,resources/DB.BMP,resources/DBN.BMP,Door1,-0.156481425,0,1,0,0,1.6144,optionLeft,30,15850,7,31,0,31,0,1,,,,,,,,,,,,,,,,,,,,,,,,,,,,,,,,,,,,,,,
,,,,,,,,2023-08-16_08h45.14.910,HF_wild_card,2022.2.4,Win32,59.87665409,647849063b9fd9be24803727,64d2fd46c836a06233681665,64dc7e5ae8c79331eb2da897,,,,,,,decisionTrl,resources/DBN.BMP,resources/DB.BMP,Door1,0.212963019,-0.026851866,1,0,0,1.3066,optionRight,30,15880,7,32,0,32,0,1,,,,,,,,,,,,,,,,,,,,,,,,,,,,,,,,,,,,,,,
,,,,,,,,2023-08-16_08h45.14.910,HF_wild_card,2022.2.4,Win32,59.87665409,647849063b9fd9be24803727,64d2fd46c836a06233681665,64dc7e5ae8c79331eb2da897,,,,,,,decisionTrl,resources/DY.BMP,resources/DG.BMP,Door4,-0.254629601,-0.012037065,1,0,0,1.2793,optionLeft,80,15960,7,33,0,33,0,1,,,,,,,,,,,,,,,,,,,,,,,,,,,,,,,,,,,,,,,
,,,,,,,,2023-08-16_08h45.14.910,HF_wild_card,2022.2.4,Win32,59.87665409,647849063b9fd9be24803727,64d2fd46c836a06233681665,64dc7e5ae8c79331eb2da897,,,,,,,decisionTrl,resources/DG.BMP,resources/DY.BMP,Door4,0.218518575,-0.027777778,1,0,0,1.4241,optionRight,60,16020,7,34,0,34,0,1,,,,,,,,,,,,,,,,,,,,,,,,,,,,,,,,,,,,,,,
,,,,,,,,2023-08-16_08h45.14.910,HF_wild_card,2022.2.4,Win32,59.87665409,647849063b9fd9be24803727,64d2fd46c836a06233681665,64dc7e5ae8c79331eb2da897,,,,,,,decisionTrl,resources/DBN.BMP,resources/DB.BMP,Door1,0.374074131,-0.00648151,1,0,0,1.3659,optionRight,30,16050,7,35,0,35,0,1,,,,,,,,,,,,,,,,,,,,,,,,,,,,,,,,,,,,,,,
,,,,,,,,2023-08-16_08h45.14.910,HF_wild_card,2022.2.4,Win32,59.87665409,647849063b9fd9be24803727,64d2fd46c836a06233681665,64dc7e5ae8c79331eb2da897,,,,,,,,,,,,,,,,,,,,,,,,,,6,0,6,0,1,,,,,,,,,,,,,,,,,,,,,,,,,,,,,,,,,,
,,,,,,,,2023-08-16_08h45.14.910,HF_wild_card,2022.2.4,Win32,59.87665409,647849063b9fd9be24803727,64d2fd46c836a06233681665,64dc7e5ae8c79331eb2da897,,,,,,,,,,,,,,,,,,,,,,,,,,,,,,,4,,,,,,,,,,,,,,,,,,,,,,,,,,,,,,,,,
,,,,,,,,2023-08-16_08h45.14.910,HF_wild_card,2022.2.4,Win32,59.87665409,647849063b9fd9be24803727,64d2fd46c836a06233681665,64dc7e5ae8c79331eb2da897,,,,,,,,,,,,,,,,,,,,,,,,,,,,,,,,,,,,,,,,,,,,,,,,,,,,,,,,,,,,,,,,
,,,,,,,,2023-08-16_08h45.14.910,HF_wild_card,2022.2.4,Win32,59.87665409,647849063b9fd9be24803727,64d2fd46c836a06233681665,64dc7e5ae8c79331eb2da897,,,,,,,,,,,,,,,,,,,,,,,,,,,,,,,,30,Door1,resources/DB.BMP,0,0,0,0,1,,,,,,,,,,,,,,,,,,,,,,,,,
,,,,,,,,2023-08-16_08h45.14.910,HF_wild_card,2022.2.4,Win32,59.87665409,647849063b9fd9be24803727,64d2fd46c836a06233681665,64dc7e5ae8c79331eb2da897,,,,,,,,,,,,,,,,,,,,,,,,,,,,,,,,20,Door2,resources/DBN.BMP,1,0,1,0,1,,,,,,,,,,,,,,,,,,,,,,,,,
,,,,,,,,2023-08-16_08h45.14.910,HF_wild_card,2022.2.4,Win32,59.87665409,647849063b9fd9be24803727,64d2fd46c836a06233681665,64dc7e5ae8c79331eb2da897,,,,,,,,,,,,,,,,,,,,,,,,,,,,,,,,55,WC_nonExtreme,resources/DP.BMP,2,0,2,0,1,,,,,,,,,,,,,,,,,,,,,,,,,
,,,,,,,,2023-08-16_08h45.14.910,HF_wild_card,2022.2.4,Win32,59.87665409,647849063b9fd9be24803727,64d2fd46c836a06233681665,64dc7e5ae8c79331eb2da897,,,,,,,,,,,,,,,,,,,,,,,,,,,,,,,,30,WC_extreme,resources/DR.BMP,3,0,3,0,1,,,,,,,,,,,,,,,,,,,,,,,,,
,,,,,,,,2023-08-16_08h45.14.910,HF_wild_card,2022.2.4,Win32,59.87665409,647849063b9fd9be24803727,64d2fd46c836a06233681665,64dc7e5ae8c79331eb2da897,,,,,,,,,,,,,,,,,,,,,,,,,,,,,,,,80,Door4,resources/DY.BMP,4,0,4,0,1,,,,,,,,,,,,,,,,,,,,,,,,,
,,,,,,,,2023-08-16_08h45.14.910,HF_wild_card,2022.2.4,Win32,59.87665409,647849063b9fd9be24803727,64d2fd46c836a06233681665,64dc7e5ae8c79331eb2da897,,,,,,,,,,,,,,,,,,,,,,,,,,,,,,,,70,Door3,resources/DG.BMP,5,0,5,0,1,,,,,,,,,,,,,,,,,,,,,,,,,
,,,,,,,,2023-08-16_08h45.14.910,HF_wild_card,2022.2.4,Win32,59.87665409,647849063b9fd9be24803727,64d2fd46c836a06233681665,64dc7e5ae8c79331eb2da897,,,,,,,,,,,,,,,,,,,,,,,,,,,,,,,,,,,,,,,,,,,,,,,,,,,,,,,,,,,,,,,,
,,,,,,,,2023-08-16_08h45.14.910,HF_wild_card,2022.2.4,Win32,59.87665409,647849063b9fd9be24803727,64d2fd46c836a06233681665,64dc7e5ae8c79331eb2da897,,,,,,,,,,,,,,,,,,,,,,,,,,,,,,,,,,,,,,,,0,0,0,0,1,,,,,,,,,,,,,,,,,,,,
