Condition,Low fixed image (Door1),Low risky image (Door2),High fixed image (Door3),High risky image (Door4),Extreme Wild Card,NonExtreme Wild Card,,date,expName,psychopyVersion,OS,frameRate,PROLIFIC_PID,STUDY_ID,SESSION_ID,mouse_2.x,mouse_2.y,mouse_2.leftButton,mouse_2.midButton,mouse_2.rightButton,mouse_2.clicked_name,Trial Type,Left Option Image,Right Option Image,Chosen Door,mouse.x,mouse.y,mouse.leftButton,mouse.midButton,mouse.rightButton,mouse.time,mouse.clicked_name,Feedback,Cumulative Reward,Block,trial.thisRepN,trial.thisTrialN,trial.thisN,trial.thisIndex,trial.ran,blocks.thisRepN,blocks.thisTrialN,blocks.thisN,blocks.thisIndex,blocks.ran,Money conversion,First Outcome Reported,Shown Door (First Outcome),Displayed Image (First Outcome),outcomes.thisRepN,outcomes.thisTrialN,outcomes.thisN,outcomes.thisIndex,outcomes.ran,judgments.thisRepN,judgments.thisTrialN,judgments.thisN,judgments.thisIndex,judgments.ran,freqMouse.x,freqMouse.y,freqMouse.leftButton,freqMouse.midButton,freqMouse.rightButton,freqMouse.clicked_name,FQJ for first outcome,FQJ for second outcome,Shown Door,Displayed Image,trials.thisRepN,trials.thisTrialN,trials.thisN,trials.thisIndex,trials.ran,judgBlock.thisRepN,judgBlock.thisTrialN,judgBlock.thisN,judgBlock.thisIndex,judgBlock.ran
1,resources/DG.BMP,resources/DP.BMP,resources/DBN.BMP,resources/DR.BMP,resources/DB.BMP,resources/DY.BMP,,2023-08-16_08h13.13.853,HF_wild_card,2022.2.4,Linux x86_64,60.0132029,5db41a3f9ca75a000b71110c,64d2fd46c836a06233681665,64dc76ace7af757f82f02f92,,,,,,,,,,,,,,,,,,,,,,,,,,,,,,,,,,,,,,,,,,,,,,,,,,,,,,,,,,,,,,,,
,,,,,,,,2023-08-16_08h13.13.853,HF_wild_card,2022.2.4,Linux x86_64,60.0132029,5db41a3f9ca75a000b71110c,64d2fd46c836a06233681665,64dc76ace7af757f82f02f92,-0.00259901,-0.419352708,1,0,0,agree,,,,,,,,,,,,,,,,,,,,,,,,,,,,,,,,,,,,,,,,,,,,,,,,,,,,,,,,,,
,,,,,,,,2023-08-16_08h13.13.853,HF_wild_card,2022.2.4,Linux x86_64,60.0132029,5db41a3f9ca75a000b71110c,64d2fd46c836a06233681665,64dc76ace7af757f82f02f92,,,,,,,,,,,,,,,,,,,,,,,,,,,,,,,,,,,,,,,,,,,,,,,,,,,,,,,,,,,,,,,,
,,,,,,,,2023-08-16_08h13.13.853,HF_wild_card,2022.2.4,Linux x86_64,60.0132029,5db41a3f9ca75a000b71110c,64d2fd46c836a06233681665,64dc76ace7af757f82f02f92,,,,,,,sngl,resources/DR.BMP,resources/Empty.png,Door4,-0.409189683,-0.087938344,1,0,0,3.7019,optionLeft,80,80,1,0,0,0,0,1,,,,,,,,,,,,,,,,,,,,,,,,,,,,,,,,,,,,,,,
,,,,,,,,2023-08-16_08h13.13.853,HF_wild_card,2022.2.4,Linux x86_64,60.0132029,5db41a3f9ca75a000b71110c,64d2fd46c836a06233681665,64dc76ace7af757f82f02f92,,,,,,,decisionTrl,resources/DP.BMP,resources/DG.BMP,Door2,-0.374674232,-0.015973303,1,0,0,6.715,optionLeft,40,120,1,1,0,1,0,1,,,,,,,,,,,,,,,,,,,,,,,,,,,,,,,,,,,,,,,
,,,,,,,,2023-08-16_08h13.13.853,HF_wild_card,2022.2.4,Linux x86_64,60.0132029,5db41a3f9ca75a000b71110c,64d2fd46c836a06233681665,64dc76ace7af757f82f02f92,,,,,,,ctch,resources/DBN.BMP,resources/DP.BMP,Door3,-0.407480628,0.0125802,1,0,0,2.2179,optionLeft,70,190,1,2,0,2,0,1,,,,,,,,,,,,,,,,,,,,,,,,,,,,,,,,,,,,,,,
,,,,,,,,2023-08-16_08h13.13.853,HF_wild_card,2022.2.4,Linux x86_64,60.0132029,5db41a3f9ca75a000b71110c,64d2fd46c836a06233681665,64dc76ace7af757f82f02f92,,,,,,,decisionTrl,resources/DBN.BMP,resources/DR.BMP,Door4,0.455291607,-0.017332183,1,0,0,1.7559,optionRight,60,250,1,3,0,3,0,1,,,,,,,,,,,,,,,,,,,,,,,,,,,,,,,,,,,,,,,
,,,,,,,,2023-08-16_08h13.13.853,HF_wild_card,2022.2.4,Linux x86_64,60.0132029,5db41a3f9ca75a000b71110c,64d2fd46c836a06233681665,64dc76ace7af757f82f02f92,,,,,,,sngl,resources/DG.BMP,resources/Empty.png,Door1,-0.455001866,-0.120760035,1,0,0,1.4445,optionLeft,30,280,1,4,0,4,0,1,,,,,,,,,,,,,,,,,,,,,,,,,,,,,,,,,,,,,,,
,,,,,,,,2023-08-16_08h13.13.853,HF_wild_card,2022.2.4,Linux x86_64,60.0132029,5db41a3f9ca75a000b71110c,64d2fd46c836a06233681665,64dc76ace7af757f82f02f92,,,,,,,decisionTrl,resources/DG.BMP,resources/DP.BMP,Door2,0.349936026,-0.06343174,1,0,0,1.2333,optionRight,20,300,1,5,0,5,0,1,,,,,,,,,,,,,,,,,,,,,,,,,,,,,,,,,,,,,,,
,,,,,,,,2023-08-16_08h13.13.853,HF_wild_card,2022.2.4,Linux x86_64,60.0132029,5db41a3f9ca75a000b71110c,64d2fd46c836a06233681665,64dc76ace7af757f82f02f92,,,,,,,sngl,resources/Empty.png,resources/DY.BMP,WildCard_NonEx,0.218402085,-0.086959556,1,0,0,1.217,optionRight,55,355,1,6,0,6,0,1,,,,,,,,,,,,,,,,,,,,,,,,,,,,,,,,,,,,,,,
,,,,,,,,2023-08-16_08h13.13.853,HF_wild_card,2022.2.4,Linux x86_64,60.0132029,5db41a3f9ca75a000b71110c,64d2fd46c836a06233681665,64dc76ace7af757f82f02f92,,,,,,,decisionTrl,resources/DY.BMP,resources/DR.BMP,WildCard_NonEx,-0.472540149,0.06110103,1,0,0,1.5795,optionLeft,55,410,1,7,0,7,0,1,,,,,,,,,,,,,,,,,,,,,,,,,,,,,,,,,,,,,,,
,,,,,,,,2023-08-16_08h13.13.853,HF_wild_card,2022.2.4,Linux x86_64,60.0132029,5db41a3f9ca75a000b71110c,64d2fd46c836a06233681665,64dc76ace7af757f82f02f92,,,,,,,decisionTrl,resources/DY.BMP,resources/DP.BMP,Door2,0.370760317,-0.023159698,1,0,0,2.935,optionRight,20,430,1,8,0,8,0,1,,,,,,,,,,,,,,,,,,,,,,,,,,,,,,,,,,,,,,,
,,,,,,,,2023-08-16_08h13.13.853,HF_wild_card,2022.2.4,Linux x86_64,60.0132029,5db41a3f9ca75a000b71110c,64d2fd46c836a06233681665,64dc76ace7af757f82f02f92,,,,,,,sngl,resources/Empty.png,resources/DY.BMP,WildCard_NonEx,0.339090559,-0.006681901,1,0,0,1.2457,optionRight,45,475,1,9,0,9,0,1,,,,,,,,,,,,,,,,,,,,,,,,,,,,,,,,,,,,,,,
,,,,,,,,2023-08-16_08h13.13.853,HF_wild_card,2022.2.4,Linux x86_64,60.0132029,5db41a3f9ca75a000b71110c,64d2fd46c836a06233681665,64dc76ace7af757f82f02f92,,,,,,,decisionTrl,resources/DP.BMP,resources/DY.BMP,Door2,-0.330990862,-0.033107298,1,0,0,1.0625,optionLeft,40,515,1,10,0,10,0,1,,,,,,,,,,,,,,,,,,,,,,,,,,,,,,,,,,,,,,,
,,,,,,,,2023-08-16_08h13.13.853,HF_wild_card,2022.2.4,Linux x86_64,60.0132029,5db41a3f9ca75a000b71110c,64d2fd46c836a06233681665,64dc76ace7af757f82f02f92,,,,,,,decisionTrl,resources/DY.BMP,resources/DG.BMP,Door1,0.313112471,-0.031476974,1,0,0,1.0205,optionRight,30,545,1,11,0,11,0,1,,,,,,,,,,,,,,,,,,,,,,,,,,,,,,,,,,,,,,,
,,,,,,,,2023-08-16_08h13.13.853,HF_wild_card,2022.2.4,Linux x86_64,60.0132029,5db41a3f9ca75a000b71110c,64d2fd46c836a06233681665,64dc76ace7af757f82f02f92,,,,,,,decisionTrl,resources/DBN.BMP,resources/DR.BMP,Door3,-0.376366898,0.045671816,1,0,0,1.0296,optionLeft,70,615,1,12,0,12,0,1,,,,,,,,,,,,,,,,,,,,,,,,,,,,,,,,,,,,,,,
,,,,,,,,2023-08-16_08h13.13.853,HF_wild_card,2022.2.4,Linux x86_64,60.0132029,5db41a3f9ca75a000b71110c,64d2fd46c836a06233681665,64dc76ace7af757f82f02f92,,,,,,,decisionTrl,resources/DG.BMP,resources/DP.BMP,Door1,-0.383666144,0.003513972,1,0,0,1.147,optionLeft,30,645,1,13,0,13,0,1,,,,,,,,,,,,,,,,,,,,,,,,,,,,,,,,,,,,,,,
,,,,,,,,2023-08-16_08h13.13.853,HF_wild_card,2022.2.4,Linux x86_64,60.0132029,5db41a3f9ca75a000b71110c,64d2fd46c836a06233681665,64dc76ace7af757f82f02f92,,,,,,,sngl,resources/Empty.png,resources/DP.BMP,Door2,0.468750989,-0.068372373,1,0,0,1.013,optionRight,20,665,1,14,0,14,0,1,,,,,,,,,,,,,,,,,,,,,,,,,,,,,,,,,,,,,,,
,,,,,,,,2023-08-16_08h13.13.853,HF_wild_card,2022.2.4,Linux x86_64,60.0132029,5db41a3f9ca75a000b71110c,64d2fd46c836a06233681665,64dc76ace7af757f82f02f92,,,,,,,decisionTrl,resources/DBN.BMP,resources/DY.BMP,WildCard_NonEx,0.298563498,-0.03005547,1,0,0,1.5118,optionRight,55,720,1,15,0,15,0,1,,,,,,,,,,,,,,,,,,,,,,,,,,,,,,,,,,,,,,,
,,,,,,,,2023-08-16_08h13.13.853,HF_wild_card,2022.2.4,Linux x86_64,60.0132029,5db41a3f9ca75a000b71110c,64d2fd46c836a06233681665,64dc76ace7af757f82f02f92,,,,,,,sngl,resources/DY.BMP,resources/Empty.png,WildCard_NonEx,-0.513162931,-0.052043668,1,0,0,1.1301,optionLeft,55,775,1,16,0,16,0,1,,,,,,,,,,,,,,,,,,,,,,,,,,,,,,,,,,,,,,,
,,,,,,,,2023-08-16_08h13.13.853,HF_wild_card,2022.2.4,Linux x86_64,60.0132029,5db41a3f9ca75a000b71110c,64d2fd46c836a06233681665,64dc76ace7af757f82f02f92,,,,,,,decisionTrl,resources/DG.BMP,resources/DP.BMP,Door1,-0.311187956,0.004876596,1,0,0,1.3293,optionLeft,30,805,1,17,0,17,0,1,,,,,,,,,,,,,,,,,,,,,,,,,,,,,,,,,,,,,,,
,,,,,,,,2023-08-16_08h13.13.853,HF_wild_card,2022.2.4,Linux x86_64,60.0132029,5db41a3f9ca75a000b71110c,64d2fd46c836a06233681665,64dc76ace7af757f82f02f92,,,,,,,decisionTrl,resources/DBN.BMP,resources/DR.BMP,Door3,-0.338857333,-0.062054952,1,0,0,1.6771,optionLeft,70,875,1,18,0,18,0,1,,,,,,,,,,,,,,,,,,,,,,,,,,,,,,,,,,,,,,,
,,,,,,,,2023-08-16_08h13.13.853,HF_wild_card,2022.2.4,Linux x86_64,60.0132029,5db41a3f9ca75a000b71110c,64d2fd46c836a06233681665,64dc76ace7af757f82f02f92,,,,,,,sngl,resources/DP.BMP,resources/Empty.png,Door2,-0.358049357,-0.037117358,1,0,0,1.2696,optionLeft,40,915,1,19,0,19,0,1,,,,,,,,,,,,,,,,,,,,,,,,,,,,,,,,,,,,,,,
,,,,,,,,2023-08-16_08h13.13.853,HF_wild_card,2022.2.4,Linux x86_64,60.0132029,5db41a3f9ca75a000b71110c,64d2fd46c836a06233681665,64dc76ace7af757f82f02f92,,,,,,,decisionTrl,resources/DG.BMP,resources/DY.BMP,WildCard_NonEx,0.345955178,-0.007329941,1,0,0,1.5679,optionRight,55,970,1,20,0,20,0,1,,,,,,,,,,,,,,,,,,,,,,,,,,,,,,,,,,,,,,,
,,,,,,,,2023-08-16_08h13.13.853,HF_wild_card,2022.2.4,Linux x86_64,60.0132029,5db41a3f9ca75a000b71110c,64d2fd46c836a06233681665,64dc76ace7af757f82f02f92,,,,,,,sngl,resources/Empty.png,resources/DR.BMP,Door4,0.248993061,-0.029875649,1,0,0,1.5033,optionRight,60,1030,1,21,0,21,0,1,,,,,,,,,,,,,,,,,,,,,,,,,,,,,,,,,,,,,,,
,,,,,,,,2023-08-16_08h13.13.853,HF_wild_card,2022.2.4,Linux x86_64,60.0132029,5db41a3f9ca75a000b71110c,64d2fd46c836a06233681665,64dc76ace7af757f82f02f92,,,,,,,ctch,resources/DP.BMP,resources/DBN.BMP,Door3,0.350687098,0.063282896,1,0,0,1.328,optionRight,70,1100,1,22,0,22,0,1,,,,,,,,,,,,,,,,,,,,,,,,,,,,,,,,,,,,,,,
,,,,,,,,2023-08-16_08h13.13.853,HF_wild_card,2022.2.4,Linux x86_64,60.0132029,5db41a3f9ca75a000b71110c,64d2fd46c836a06233681665,64dc76ace7af757f82f02f92,,,,,,,sngl,resources/Empty.png,resources/DBN.BMP,Door3,0.251631913,-0.028216962,1,0,0,1.2613,optionRight,70,1170,1,23,0,23,0,1,,,,,,,,,,,,,,,,,,,,,,,,,,,,,,,,,,,,,,,
,,,,,,,,2023-08-16_08h13.13.853,HF_wild_card,2022.2.4,Linux x86_64,60.0132029,5db41a3f9ca75a000b71110c,64d2fd46c836a06233681665,64dc76ace7af757f82f02f92,,,,,,,decisionTrl,resources/DR.BMP,resources/DBN.BMP,Door3,0.309178388,-0.082127995,1,0,0,1.5951,optionRight,70,1240,1,24,0,24,0,1,,,,,,,,,,,,,,,,,,,,,,,,,,,,,,,,,,,,,,,
,,,,,,,,2023-08-16_08h13.13.853,HF_wild_card,2022.2.4,Linux x86_64,60.0132029,5db41a3f9ca75a000b71110c,64d2fd46c836a06233681665,64dc76ace7af757f82f02f92,,,,,,,ctch,resources/DG.BMP,resources/DR.BMP,Door1,-0.323647146,0.012095522,1,0,0,1.1614,optionLeft,30,1270,1,25,0,25,0,1,,,,,,,,,,,,,,,,,,,,,,,,,,,,,,,,,,,,,,,
,,,,,,,,2023-08-16_08h13.13.853,HF_wild_card,2022.2.4,Linux x86_64,60.0132029,5db41a3f9ca75a000b71110c,64d2fd46c836a06233681665,64dc76ace7af757f82f02f92,,,,,,,ctch,resources/DG.BMP,resources/DR.BMP,Door4,0.3473231,-0.079725725,1,0,0,1.1951,optionRight,80,1350,1,26,0,26,0,1,,,,,,,,,,,,,,,,,,,,,,,,,,,,,,,,,,,,,,,
,,,,,,,,2023-08-16_08h13.13.853,HF_wild_card,2022.2.4,Linux x86_64,60.0132029,5db41a3f9ca75a000b71110c,64d2fd46c836a06233681665,64dc76ace7af757f82f02f92,,,,,,,sngl,resources/DY.BMP,resources/Empty.png,WildCard_NonEx,-0.373023598,0.00503812,1,0,0,1.0259,optionLeft,45,1395,1,27,0,27,0,1,,,,,,,,,,,,,,,,,,,,,,,,,,,,,,,,,,,,,,,
,,,,,,,,2023-08-16_08h13.13.853,HF_wild_card,2022.2.4,Linux x86_64,60.0132029,5db41a3f9ca75a000b71110c,64d2fd46c836a06233681665,64dc76ace7af757f82f02f92,,,,,,,decisionTrl,resources/DR.BMP,resources/DBN.BMP,Door3,0.363764304,-0.043628339,1,0,0,1.0448,optionRight,70,1465,1,28,0,28,0,1,,,,,,,,,,,,,,,,,,,,,,,,,,,,,,,,,,,,,,,
,,,,,,,,2023-08-16_08h13.13.853,HF_wild_card,2022.2.4,Linux x86_64,60.0132029,5db41a3f9ca75a000b71110c,64d2fd46c836a06233681665,64dc76ace7af757f82f02f92,,,,,,,decisionTrl,resources/DG.BMP,resources/DP.BMP,Door2,0.276543653,-0.051993547,1,0,0,1.2129,optionRight,40,1505,1,29,0,29,0,1,,,,,,,,,,,,,,,,,,,,,,,,,,,,,,,,,,,,,,,
,,,,,,,,2023-08-16_08h13.13.853,HF_wild_card,2022.2.4,Linux x86_64,60.0132029,5db41a3f9ca75a000b71110c,64d2fd46c836a06233681665,64dc76ace7af757f82f02f92,,,,,,,decisionTrl,resources/DR.BMP,resources/DBN.BMP,Door3,0.216872745,-0.030639754,1,0,0,1.2117,optionRight,70,1575,1,30,0,30,0,1,,,,,,,,,,,,,,,,,,,,,,,,,,,,,,,,,,,,,,,
,,,,,,,,2023-08-16_08h13.13.853,HF_wild_card,2022.2.4,Linux x86_64,60.0132029,5db41a3f9ca75a000b71110c,64d2fd46c836a06233681665,64dc76ace7af757f82f02f92,,,,,,,decisionTrl,resources/DP.BMP,resources/DG.BMP,Door1,0.525667402,0.015190054,1,0,0,1.4292,optionRight,30,1605,1,31,0,31,0,1,,,,,,,,,,,,,,,,,,,,,,,,,,,,,,,,,,,,,,,
,,,,,,,,2023-08-16_08h13.13.853,HF_wild_card,2022.2.4,Linux x86_64,60.0132029,5db41a3f9ca75a000b71110c,64d2fd46c836a06233681665,64dc76ace7af757f82f02f92,,,,,,,sngl,resources/DBN.BMP,resources/Empty.png,Door3,-0.410509851,-0.029946963,1,0,0,1.2519,optionLeft,70,1675,1,32,0,32,0,1,,,,,,,,,,,,,,,,,,,,,,,,,,,,,,,,,,,,,,,
,,,,,,,,2023-08-16_08h13.13.853,HF_wild_card,2022.2.4,Linux x86_64,60.0132029,5db41a3f9ca75a000b71110c,64d2fd46c836a06233681665,64dc76ace7af757f82f02f92,,,,,,,sngl,resources/Empty.png,resources/DG.BMP,Door1,0.486292945,0.005597185,1,0,0,1.2453,optionRight,30,1705,1,33,0,33,0,1,,,,,,,,,,,,,,,,,,,,,,,,,,,,,,,,,,,,,,,
,,,,,,,,2023-08-16_08h13.13.853,HF_wild_card,2022.2.4,Linux x86_64,60.0132029,5db41a3f9ca75a000b71110c,64d2fd46c836a06233681665,64dc76ace7af757f82f02f92,,,,,,,decisionTrl,resources/DY.BMP,resources/DBN.BMP,Door3,0.288088198,0.00660529,1,0,0,1.0945,optionRight,70,1775,1,34,0,34,0,1,,,,,,,,,,,,,,,,,,,,,,,,,,,,,,,,,,,,,,,
,,,,,,,,2023-08-16_08h13.13.853,HF_wild_card,2022.2.4,Linux x86_64,60.0132029,5db41a3f9ca75a000b71110c,64d2fd46c836a06233681665,64dc76ace7af757f82f02f92,,,,,,,ctch,resources/DP.BMP,resources/DBN.BMP,Door2,-0.37318159,-0.070702058,1,0,0,1.179,optionLeft,20,1795,1,35,0,35,0,1,,,,,,,,,,,,,,,,,,,,,,,,,,,,,,,,,,,,,,,
,,,,,,,,2023-08-16_08h13.13.853,HF_wild_card,2022.2.4,Linux x86_64,60.0132029,5db41a3f9ca75a000b71110c,64d2fd46c836a06233681665,64dc76ace7af757f82f02f92,,,,,,,decisionTrl,resources/DR.BMP,resources/DBN.BMP,Door3,0.333413583,0.009257952,1,0,0,0.9964,optionRight,70,1865,1,36,0,36,0,1,,,,,,,,,,,,,,,,,,,,,,,,,,,,,,,,,,,,,,,
,,,,,,,,2023-08-16_08h13.13.853,HF_wild_card,2022.2.4,Linux x86_64,60.0132029,5db41a3f9ca75a000b71110c,64d2fd46c836a06233681665,64dc76ace7af757f82f02f92,,,,,,,decisionTrl,resources/DP.BMP,resources/DG.BMP,Door1,0.365263904,-0.004845301,1,0,0,1.5506,optionRight,30,1895,1,37,0,37,0,1,,,,,,,,,,,,,,,,,,,,,,,,,,,,,,,,,,,,,,,
,,,,,,,,2023-08-16_08h13.13.853,HF_wild_card,2022.2.4,Linux x86_64,60.0132029,5db41a3f9ca75a000b71110c,64d2fd46c836a06233681665,64dc76ace7af757f82f02f92,,,,,,,ctch,resources/DR.BMP,resources/DG.BMP,Door4,-0.381110898,-0.043640878,1,0,0,1.1619,optionLeft,80,1975,1,38,0,38,0,1,,,,,,,,,,,,,,,,,,,,,,,,,,,,,,,,,,,,,,,
,,,,,,,,2023-08-16_08h13.13.853,HF_wild_card,2022.2.4,Linux x86_64,60.0132029,5db41a3f9ca75a000b71110c,64d2fd46c836a06233681665,64dc76ace7af757f82f02f92,,,,,,,decisionTrl,resources/DBN.BMP,resources/DR.BMP,Door4,0.300937087,-0.052251145,1,0,0,1.0795,optionRight,60,2035,1,39,0,39,0,1,,,,,,,,,,,,,,,,,,,,,,,,,,,,,,,,,,,,,,,
,,,,,,,,2023-08-16_08h13.13.853,HF_wild_card,2022.2.4,Linux x86_64,60.0132029,5db41a3f9ca75a000b71110c,64d2fd46c836a06233681665,64dc76ace7af757f82f02f92,,,,,,,ctch,resources/DR.BMP,resources/DG.BMP,Door4,-0.402707347,-0.058805183,1,0,0,1.8123,optionLeft,80,2115,1,40,0,40,0,1,,,,,,,,,,,,,,,,,,,,,,,,,,,,,,,,,,,,,,,
,,,,,,,,2023-08-16_08h13.13.853,HF_wild_card,2022.2.4,Linux x86_64,60.0132029,5db41a3f9ca75a000b71110c,64d2fd46c836a06233681665,64dc76ace7af757f82f02f92,,,,,,,decisionTrl,resources/DR.BMP,resources/DY.BMP,Door4,-0.321291818,-0.04939542,1,0,0,1.912,optionLeft,60,2175,1,41,0,41,0,1,,,,,,,,,,,,,,,,,,,,,,,,,,,,,,,,,,,,,,,
,,,,,,,,2023-08-16_08h13.13.853,HF_wild_card,2022.2.4,Linux x86_64,60.0132029,5db41a3f9ca75a000b71110c,64d2fd46c836a06233681665,64dc76ace7af757f82f02f92,,,,,,,ctch,resources/DBN.BMP,resources/DP.BMP,Door3,-0.380138433,-0.062640685,1,0,0,1.6939,optionLeft,70,2245,1,42,0,42,0,1,,,,,,,,,,,,,,,,,,,,,,,,,,,,,,,,,,,,,,,
,,,,,,,,2023-08-16_08h13.13.853,HF_wild_card,2022.2.4,Linux x86_64,60.0132029,5db41a3f9ca75a000b71110c,64d2fd46c836a06233681665,64dc76ace7af757f82f02f92,,,,,,,decisionTrl,resources/DP.BMP,resources/DG.BMP,Door2,-0.412918939,-0.097569713,1,0,0,2.1616,optionLeft,40,2285,1,43,0,43,0,1,,,,,,,,,,,,,,,,,,,,,,,,,,,,,,,,,,,,,,,
,,,,,,,,2023-08-16_08h13.13.853,HF_wild_card,2022.2.4,Linux x86_64,60.0132029,5db41a3f9ca75a000b71110c,64d2fd46c836a06233681665,64dc76ace7af757f82f02f92,,,,,,,,,,,,,,,,,,,,,,,,,,0,0,0,0,1,,,,,,,,,,,,,,,,,,,,,,,,,,,,,,,,,,
,,,,,,,,2023-08-16_08h13.13.853,HF_wild_card,2022.2.4,Linux x86_64,60.0132029,5db41a3f9ca75a000b71110c,64d2fd46c836a06233681665,64dc76ace7af757f82f02f92,,,,,,,ctch,resources/DR.BMP,resources/DG.BMP,Door1,0.382379037,-0.030434185,1,0,0,3.3838,optionRight,30,2315,2,0,0,0,0,1,,,,,,,,,,,,,,,,,,,,,,,,,,,,,,,,,,,,,,,
,,,,,,,,2023-08-16_08h13.13.853,HF_wild_card,2022.2.4,Linux x86_64,60.0132029,5db41a3f9ca75a000b71110c,64d2fd46c836a06233681665,64dc76ace7af757f82f02f92,,,,,,,sngl,resources/DY.BMP,resources/Empty.png,WildCard_NonEx,-0.29496094,-0.001587656,1,0,0,1.1681,optionLeft,45,2360,2,1,0,1,0,1,,,,,,,,,,,,,,,,,,,,,,,,,,,,,,,,,,,,,,,
,,,,,,,,2023-08-16_08h13.13.853,HF_wild_card,2022.2.4,Linux x86_64,60.0132029,5db41a3f9ca75a000b71110c,64d2fd46c836a06233681665,64dc76ace7af757f82f02f92,,,,,,,ctch,resources/DBN.BMP,resources/DP.BMP,Door2,0.347695669,-0.038974444,1,0,0,2.4187,optionRight,20,2380,2,2,0,2,0,1,,,,,,,,,,,,,,,,,,,,,,,,,,,,,,,,,,,,,,,
,,,,,,,,2023-08-16_08h13.13.853,HF_wild_card,2022.2.4,Linux x86_64,60.0132029,5db41a3f9ca75a000b71110c,64d2fd46c836a06233681665,64dc76ace7af757f82f02f92,,,,,,,ctch,resources/DBN.BMP,resources/DP.BMP,Door3,-0.340509662,0.009574148,1,0,0,1.1865,optionLeft,70,2450,2,3,0,3,0,1,,,,,,,,,,,,,,,,,,,,,,,,,,,,,,,,,,,,,,,
,,,,,,,,2023-08-16_08h13.13.853,HF_wild_card,2022.2.4,Linux x86_64,60.0132029,5db41a3f9ca75a000b71110c,64d2fd46c836a06233681665,64dc76ace7af757f82f02f92,,,,,,,ctch,resources/DP.BMP,resources/DBN.BMP,Door3,0.35625811,-0.013743153,1,0,0,1.187,optionRight,70,2520,2,4,0,4,0,1,,,,,,,,,,,,,,,,,,,,,,,,,,,,,,,,,,,,,,,
,,,,,,,,2023-08-16_08h13.13.853,HF_wild_card,2022.2.4,Linux x86_64,60.0132029,5db41a3f9ca75a000b71110c,64d2fd46c836a06233681665,64dc76ace7af757f82f02f92,,,,,,,decisionTrl,resources/DBN.BMP,resources/DR.BMP,Door3,-0.240609134,0.010428747,1,0,0,1.36,optionLeft,70,2590,2,5,0,5,0,1,,,,,,,,,,,,,,,,,,,,,,,,,,,,,,,,,,,,,,,
,,,,,,,,2023-08-16_08h13.13.853,HF_wild_card,2022.2.4,Linux x86_64,60.0132029,5db41a3f9ca75a000b71110c,64d2fd46c836a06233681665,64dc76ace7af757f82f02f92,,,,,,,sngl,resources/DG.BMP,resources/Empty.png,Door1,-0.339806168,-0.038221642,1,0,0,6.7326,optionLeft,30,2620,2,6,0,6,0,1,,,,,,,,,,,,,,,,,,,,,,,,,,,,,,,,,,,,,,,
,,,,,,,,2023-08-16_08h13.13.853,HF_wild_card,2022.2.4,Linux x86_64,60.0132029,5db41a3f9ca75a000b71110c,64d2fd46c836a06233681665,64dc76ace7af757f82f02f92,,,,,,,sngl,resources/DR.BMP,resources/Empty.png,Door4,-0.206645542,-0.010934688,1,0,0,1.1796,optionLeft,60,2680,2,7,0,7,0,1,,,,,,,,,,,,,,,,,,,,,,,,,,,,,,,,,,,,,,,
,,,,,,,,2023-08-16_08h13.13.853,HF_wild_card,2022.2.4,Linux x86_64,60.0132029,5db41a3f9ca75a000b71110c,64d2fd46c836a06233681665,64dc76ace7af757f82f02f92,,,,,,,decisionTrl,resources/DR.BMP,resources/DBN.BMP,Door3,0.335533283,0.043244821,1,0,0,1.0304,optionRight,70,2750,2,8,0,8,0,1,,,,,,,,,,,,,,,,,,,,,,,,,,,,,,,,,,,,,,,
,,,,,,,,2023-08-16_08h13.13.853,HF_wild_card,2022.2.4,Linux x86_64,60.0132029,5db41a3f9ca75a000b71110c,64d2fd46c836a06233681665,64dc76ace7af757f82f02f92,,,,,,,ctch,resources/DP.BMP,resources/DBN.BMP,Door3,0.2357372,0.00246712,1,0,0,1.4702,optionRight,70,2820,2,9,0,9,0,1,,,,,,,,,,,,,,,,,,,,,,,,,,,,,,,,,,,,,,,
,,,,,,,,2023-08-16_08h13.13.853,HF_wild_card,2022.2.4,Linux x86_64,60.0132029,5db41a3f9ca75a000b71110c,64d2fd46c836a06233681665,64dc76ace7af757f82f02f92,,,,,,,decisionTrl,resources/DR.BMP,resources/DBN.BMP,Door3,0.180969945,-0.002493364,1,0,0,1.1371,optionRight,70,2890,2,10,0,10,0,1,,,,,,,,,,,,,,,,,,,,,,,,,,,,,,,,,,,,,,,
,,,,,,,,2023-08-16_08h13.13.853,HF_wild_card,2022.2.4,Linux x86_64,60.0132029,5db41a3f9ca75a000b71110c,64d2fd46c836a06233681665,64dc76ace7af757f82f02f92,,,,,,,decisionTrl,resources/DBN.BMP,resources/DR.BMP,Door3,-0.209703022,0.010330377,1,0,0,1.2794,optionLeft,70,2960,2,11,0,11,0,1,,,,,,,,,,,,,,,,,,,,,,,,,,,,,,,,,,,,,,,
,,,,,,,,2023-08-16_08h13.13.853,HF_wild_card,2022.2.4,Linux x86_64,60.0132029,5db41a3f9ca75a000b71110c,64d2fd46c836a06233681665,64dc76ace7af757f82f02f92,,,,,,,decisionTrl,resources/DY.BMP,resources/DR.BMP,WildCard_NonEx,-0.351415034,0.007601809,1,0,0,8.7641,optionLeft,45,3005,2,12,0,12,0,1,,,,,,,,,,,,,,,,,,,,,,,,,,,,,,,,,,,,,,,
,,,,,,,,2023-08-16_08h13.13.853,HF_wild_card,2022.2.4,Linux x86_64,60.0132029,5db41a3f9ca75a000b71110c,64d2fd46c836a06233681665,64dc76ace7af757f82f02f92,,,,,,,sngl,resources/Empty.png,resources/DR.BMP,Door4,0.254055447,-0.07873468,1,0,0,1.1465,optionRight,80,3085,2,13,0,13,0,1,,,,,,,,,,,,,,,,,,,,,,,,,,,,,,,,,,,,,,,
,,,,,,,,2023-08-16_08h13.13.853,HF_wild_card,2022.2.4,Linux x86_64,60.0132029,5db41a3f9ca75a000b71110c,64d2fd46c836a06233681665,64dc76ace7af757f82f02f92,,,,,,,decisionTrl,resources/DR.BMP,resources/DY.BMP,WildCard_NonEx,0.177129322,-0.045450458,1,0,0,2.3184,optionRight,55,3140,2,14,0,14,0,1,,,,,,,,,,,,,,,,,,,,,,,,,,,,,,,,,,,,,,,
,,,,,,,,2023-08-16_08h13.13.853,HF_wild_card,2022.2.4,Linux x86_64,60.0132029,5db41a3f9ca75a000b71110c,64d2fd46c836a06233681665,64dc76ace7af757f82f02f92,,,,,,,ctch,resources/DG.BMP,resources/DR.BMP,Door4,0.251486672,-0.012150976,1,0,0,1.162,optionRight,80,3220,2,15,0,15,0,1,,,,,,,,,,,,,,,,,,,,,,,,,,,,,,,,,,,,,,,
,,,,,,,,2023-08-16_08h13.13.853,HF_wild_card,2022.2.4,Linux x86_64,60.0132029,5db41a3f9ca75a000b71110c,64d2fd46c836a06233681665,64dc76ace7af757f82f02f92,,,,,,,sngl,resources/Empty.png,resources/DY.BMP,WildCard_NonEx,0.360007109,-0.014551057,1,0,0,1.2953,optionRight,45,3265,2,16,0,16,0,1,,,,,,,,,,,,,,,,,,,,,,,,,,,,,,,,,,,,,,,
,,,,,,,,2023-08-16_08h13.13.853,HF_wild_card,2022.2.4,Linux x86_64,60.0132029,5db41a3f9ca75a000b71110c,64d2fd46c836a06233681665,64dc76ace7af757f82f02f92,,,,,,,sngl,resources/DP.BMP,resources/Empty.png,Door2,-0.352025633,-0.007171313,1,0,0,0.962,optionLeft,20,3285,2,17,0,17,0,1,,,,,,,,,,,,,,,,,,,,,,,,,,,,,,,,,,,,,,,
,,,,,,,,2023-08-16_08h13.13.853,HF_wild_card,2022.2.4,Linux x86_64,60.0132029,5db41a3f9ca75a000b71110c,64d2fd46c836a06233681665,64dc76ace7af757f82f02f92,,,,,,,ctch,resources/DR.BMP,resources/DG.BMP,Door4,-0.346408597,-0.010476925,1,0,0,2.0441,optionLeft,80,3365,2,18,0,18,0,1,,,,,,,,,,,,,,,,,,,,,,,,,,,,,,,,,,,,,,,
,,,,,,,,2023-08-16_08h13.13.853,HF_wild_card,2022.2.4,Linux x86_64,60.0132029,5db41a3f9ca75a000b71110c,64d2fd46c836a06233681665,64dc76ace7af757f82f02f92,,,,,,,decisionTrl,resources/DP.BMP,resources/DG.BMP,Door1,0.272239897,-0.054567231,1,0,0,2.2282,optionRight,30,3395,2,19,0,19,0,1,,,,,,,,,,,,,,,,,,,,,,,,,,,,,,,,,,,,,,,
,,,,,,,,2023-08-16_08h13.13.853,HF_wild_card,2022.2.4,Linux x86_64,60.0132029,5db41a3f9ca75a000b71110c,64d2fd46c836a06233681665,64dc76ace7af757f82f02f92,,,,,,,decisionTrl,resources/DY.BMP,resources/DBN.BMP,Door3,0.296663779,-0.054333793,1,0,0,1.2797,optionRight,70,3465,2,20,0,20,0,1,,,,,,,,,,,,,,,,,,,,,,,,,,,,,,,,,,,,,,,
,,,,,,,,2023-08-16_08h13.13.853,HF_wild_card,2022.2.4,Linux x86_64,60.0132029,5db41a3f9ca75a000b71110c,64d2fd46c836a06233681665,64dc76ace7af757f82f02f92,,,,,,,ctch,resources/DG.BMP,resources/DR.BMP,Door4,0.172453845,-0.085266184,1,0,0,2.0616,optionRight,60,3525,2,21,0,21,0,1,,,,,,,,,,,,,,,,,,,,,,,,,,,,,,,,,,,,,,,
,,,,,,,,2023-08-16_08h13.13.853,HF_wild_card,2022.2.4,Linux x86_64,60.0132029,5db41a3f9ca75a000b71110c,64d2fd46c836a06233681665,64dc76ace7af757f82f02f92,,,,,,,decisionTrl,resources/DP.BMP,resources/DG.BMP,Door1,0.205612536,-0.101310094,1,0,0,3.3306,optionRight,30,3555,2,22,0,22,0,1,,,,,,,,,,,,,,,,,,,,,,,,,,,,,,,,,,,,,,,
,,,,,,,,2023-08-16_08h13.13.853,HF_wild_card,2022.2.4,Linux x86_64,60.0132029,5db41a3f9ca75a000b71110c,64d2fd46c836a06233681665,64dc76ace7af757f82f02f92,,,,,,,decisionTrl,resources/DBN.BMP,resources/DR.BMP,Door3,-0.294210434,0.010803894,1,0,0,1.254,optionLeft,70,3625,2,23,0,23,0,1,,,,,,,,,,,,,,,,,,,,,,,,,,,,,,,,,,,,,,,
,,,,,,,,2023-08-16_08h13.13.853,HF_wild_card,2022.2.4,Linux x86_64,60.0132029,5db41a3f9ca75a000b71110c,64d2fd46c836a06233681665,64dc76ace7af757f82f02f92,,,,,,,sngl,resources/Empty.png,resources/DP.BMP,Door2,0.329863796,-0.007681741,1,0,0,1.1183,optionRight,40,3665,2,24,0,24,0,1,,,,,,,,,,,,,,,,,,,,,,,,,,,,,,,,,,,,,,,
,,,,,,,,2023-08-16_08h13.13.853,HF_wild_card,2022.2.4,Linux x86_64,60.0132029,5db41a3f9ca75a000b71110c,64d2fd46c836a06233681665,64dc76ace7af757f82f02f92,,,,,,,decisionTrl,resources/DR.BMP,resources/DBN.BMP,Door3,0.248861595,0.006297924,1,0,0,1.6156,optionRight,70,3735,2,25,0,25,0,1,,,,,,,,,,,,,,,,,,,,,,,,,,,,,,,,,,,,,,,
,,,,,,,,2023-08-16_08h13.13.853,HF_wild_card,2022.2.4,Linux x86_64,60.0132029,5db41a3f9ca75a000b71110c,64d2fd46c836a06233681665,64dc76ace7af757f82f02f92,,,,,,,decisionTrl,resources/DG.BMP,resources/DP.BMP,Door1,-0.259646734,-0.000519541,1,0,0,1.3781,optionLeft,30,3765,2,26,0,26,0,1,,,,,,,,,,,,,,,,,,,,,,,,,,,,,,,,,,,,,,,
,,,,,,,,2023-08-16_08h13.13.853,HF_wild_card,2022.2.4,Linux x86_64,60.0132029,5db41a3f9ca75a000b71110c,64d2fd46c836a06233681665,64dc76ace7af757f82f02f92,,,,,,,sngl,resources/Empty.png,resources/DG.BMP,Door1,0.333447492,-0.067506649,1,0,0,1.029,optionRight,30,3795,2,27,0,27,0,1,,,,,,,,,,,,,,,,,,,,,,,,,,,,,,,,,,,,,,,
,,,,,,,,2023-08-16_08h13.13.853,HF_wild_card,2022.2.4,Linux x86_64,60.0132029,5db41a3f9ca75a000b71110c,64d2fd46c836a06233681665,64dc76ace7af757f82f02f92,,,,,,,decisionTrl,resources/DP.BMP,resources/DG.BMP,Door1,0.298304099,-0.104294954,1,0,0,1.8451,optionRight,30,3825,2,28,0,28,0,1,,,,,,,,,,,,,,,,,,,,,,,,,,,,,,,,,,,,,,,
,,,,,,,,2023-08-16_08h13.13.853,HF_wild_card,2022.2.4,Linux x86_64,60.0132029,5db41a3f9ca75a000b71110c,64d2fd46c836a06233681665,64dc76ace7af757f82f02f92,,,,,,,decisionTrl,resources/DP.BMP,resources/DY.BMP,WildCard_NonEx,0.165596291,-0.060115072,1,0,0,1.4105,optionRight,45,3870,2,29,0,29,0,1,,,,,,,,,,,,,,,,,,,,,,,,,,,,,,,,,,,,,,,
,,,,,,,,2023-08-16_08h13.13.853,HF_wild_card,2022.2.4,Linux x86_64,60.0132029,5db41a3f9ca75a000b71110c,64d2fd46c836a06233681665,64dc76ace7af757f82f02f92,,,,,,,sngl,resources/Empty.png,resources/DBN.BMP,Door3,0.246685593,-0.067645391,1,0,0,1.0629,optionRight,70,3940,2,30,0,30,0,1,,,,,,,,,,,,,,,,,,,,,,,,,,,,,,,,,,,,,,,
,,,,,,,,2023-08-16_08h13.13.853,HF_wild_card,2022.2.4,Linux x86_64,60.0132029,5db41a3f9ca75a000b71110c,64d2fd46c836a06233681665,64dc76ace7af757f82f02f92,,,,,,,decisionTrl,resources/DP.BMP,resources/DG.BMP,Door2,-0.34682288,-0.060648212,1,0,0,2.3102,optionLeft,20,3960,2,31,0,31,0,1,,,,,,,,,,,,,,,,,,,,,,,,,,,,,,,,,,,,,,,
,,,,,,,,2023-08-16_08h13.13.853,HF_wild_card,2022.2.4,Linux x86_64,60.0132029,5db41a3f9ca75a000b71110c,64d2fd46c836a06233681665,64dc76ace7af757f82f02f92,,,,,,,decisionTrl,resources/DY.BMP,resources/DG.BMP,WildCard_NonEx,-0.21291761,0.01419191,1,0,0,1.2526,optionLeft,45,4005,2,32,0,32,0,1,,,,,,,,,,,,,,,,,,,,,,,,,,,,,,,,,,,,,,,
,,,,,,,,2023-08-16_08h13.13.853,HF_wild_card,2022.2.4,Linux x86_64,60.0132029,5db41a3f9ca75a000b71110c,64d2fd46c836a06233681665,64dc76ace7af757f82f02f92,,,,,,,decisionTrl,resources/DG.BMP,resources/DP.BMP,Door2,0.248670013,-0.035690837,1,0,0,1.1041,optionRight,40,4045,2,33,0,33,0,1,,,,,,,,,,,,,,,,,,,,,,,,,,,,,,,,,,,,,,,
,,,,,,,,2023-08-16_08h13.13.853,HF_wild_card,2022.2.4,Linux x86_64,60.0132029,5db41a3f9ca75a000b71110c,64d2fd46c836a06233681665,64dc76ace7af757f82f02f92,,,,,,,decisionTrl,resources/DBN.BMP,resources/DR.BMP,Door3,-0.336845045,-0.012537038,1,0,0,1.3948,optionLeft,70,4115,2,34,0,34,0,1,,,,,,,,,,,,,,,,,,,,,,,,,,,,,,,,,,,,,,,
,,,,,,,,2023-08-16_08h13.13.853,HF_wild_card,2022.2.4,Linux x86_64,60.0132029,5db41a3f9ca75a000b71110c,64d2fd46c836a06233681665,64dc76ace7af757f82f02f92,,,,,,,decisionTrl,resources/DBN.BMP,resources/DY.BMP,Door3,-0.346082829,0.003837762,1,0,0,1.5286,optionLeft,70,4185,2,35,0,35,0,1,,,,,,,,,,,,,,,,,,,,,,,,,,,,,,,,,,,,,,,
,,,,,,,,2023-08-16_08h13.13.853,HF_wild_card,2022.2.4,Linux x86_64,60.0132029,5db41a3f9ca75a000b71110c,64d2fd46c836a06233681665,64dc76ace7af757f82f02f92,,,,,,,sngl,resources/DBN.BMP,resources/Empty.png,Door3,-0.347915473,0.034563736,1,0,0,1.1957,optionLeft,70,4255,2,36,0,36,0,1,,,,,,,,,,,,,,,,,,,,,,,,,,,,,,,,,,,,,,,
,,,,,,,,2023-08-16_08h13.13.853,HF_wild_card,2022.2.4,Linux x86_64,60.0132029,5db41a3f9ca75a000b71110c,64d2fd46c836a06233681665,64dc76ace7af757f82f02f92,,,,,,,decisionTrl,resources/DG.BMP,resources/DP.BMP,Door1,-0.365930451,-0.057251648,1,0,0,2.0286,optionLeft,30,4285,2,37,0,37,0,1,,,,,,,,,,,,,,,,,,,,,,,,,,,,,,,,,,,,,,,
,,,,,,,,2023-08-16_08h13.13.853,HF_wild_card,2022.2.4,Linux x86_64,60.0132029,5db41a3f9ca75a000b71110c,64d2fd46c836a06233681665,64dc76ace7af757f82f02f92,,,,,,,decisionTrl,resources/DG.BMP,resources/DP.BMP,Door2,0.246194345,-0.069557473,1,0,0,1.0831,optionRight,40,4325,2,38,0,38,0,1,,,,,,,,,,,,,,,,,,,,,,,,,,,,,,,,,,,,,,,
,,,,,,,,2023-08-16_08h13.13.853,HF_wild_card,2022.2.4,Linux x86_64,60.0132029,5db41a3f9ca75a000b71110c,64d2fd46c836a06233681665,64dc76ace7af757f82f02f92,,,,,,,sngl,resources/DY.BMP,resources/Empty.png,WildCard_NonEx,-0.272595794,-0.011370164,1,0,0,1.0959,optionLeft,55,4380,2,39,0,39,0,1,,,,,,,,,,,,,,,,,,,,,,,,,,,,,,,,,,,,,,,
,,,,,,,,2023-08-16_08h13.13.853,HF_wild_card,2022.2.4,Linux x86_64,60.0132029,5db41a3f9ca75a000b71110c,64d2fd46c836a06233681665,64dc76ace7af757f82f02f92,,,,,,,decisionTrl,resources/DY.BMP,resources/DP.BMP,WildCard_NonEx,-0.481462938,0.000464439,1,0,0,1.3527,optionLeft,45,4425,2,40,0,40,0,1,,,,,,,,,,,,,,,,,,,,,,,,,,,,,,,,,,,,,,,
,,,,,,,,2023-08-16_08h13.13.853,HF_wild_card,2022.2.4,Linux x86_64,60.0132029,5db41a3f9ca75a000b71110c,64d2fd46c836a06233681665,64dc76ace7af757f82f02f92,,,,,,,decisionTrl,resources/DR.BMP,resources/DBN.BMP,Door3,0.293538411,-0.008642868,1,0,0,1.2355,optionRight,70,4495,2,41,0,41,0,1,,,,,,,,,,,,,,,,,,,,,,,,,,,,,,,,,,,,,,,
,,,,,,,,2023-08-16_08h13.13.853,HF_wild_card,2022.2.4,Linux x86_64,60.0132029,5db41a3f9ca75a000b71110c,64d2fd46c836a06233681665,64dc76ace7af757f82f02f92,,,,,,,sngl,resources/Empty.png,resources/DY.BMP,WildCard_NonEx,0.195667408,-0.0089224,1,0,0,1.3033,optionRight,55,4550,2,42,0,42,0,1,,,,,,,,,,,,,,,,,,,,,,,,,,,,,,,,,,,,,,,
,,,,,,,,2023-08-16_08h13.13.853,HF_wild_card,2022.2.4,Linux x86_64,60.0132029,5db41a3f9ca75a000b71110c,64d2fd46c836a06233681665,64dc76ace7af757f82f02f92,,,,,,,decisionTrl,resources/DG.BMP,resources/DY.BMP,WildCard_NonEx,0.239698834,-0.040433707,1,0,0,1.7949,optionRight,45,4595,2,43,0,43,0,1,,,,,,,,,,,,,,,,,,,,,,,,,,,,,,,,,,,,,,,
,,,,,,,,2023-08-16_08h13.13.853,HF_wild_card,2022.2.4,Linux x86_64,60.0132029,5db41a3f9ca75a000b71110c,64d2fd46c836a06233681665,64dc76ace7af757f82f02f92,,,,,,,,,,,,,,,,,,,,,,,,,,1,0,1,0,1,,,,,,,,,,,,,,,,,,,,,,,,,,,,,,,,,,
,,,,,,,,2023-08-16_08h13.13.853,HF_wild_card,2022.2.4,Linux x86_64,60.0132029,5db41a3f9ca75a000b71110c,64d2fd46c836a06233681665,64dc76ace7af757f82f02f92,,,,,,,decisionTrl,resources/DR.BMP,resources/DBN.BMP,Door4,-0.306320402,-0.131571664,1,0,0,1.4504,optionLeft,60,4655,3,0,0,0,0,1,,,,,,,,,,,,,,,,,,,,,,,,,,,,,,,,,,,,,,,
,,,,,,,,2023-08-16_08h13.13.853,HF_wild_card,2022.2.4,Linux x86_64,60.0132029,5db41a3f9ca75a000b71110c,64d2fd46c836a06233681665,64dc76ace7af757f82f02f92,,,,,,,sngl,resources/DR.BMP,resources/Empty.png,Door4,-0.252320466,0.010499672,1,0,0,1.1134,optionLeft,80,4735,3,1,0,1,0,1,,,,,,,,,,,,,,,,,,,,,,,,,,,,,,,,,,,,,,,
,,,,,,,,2023-08-16_08h13.13.853,HF_wild_card,2022.2.4,Linux x86_64,60.0132029,5db41a3f9ca75a000b71110c,64d2fd46c836a06233681665,64dc76ace7af757f82f02f92,,,,,,,ctch,resources/DG.BMP,resources/DR.BMP,Door4,0.422656448,-0.053604091,1,0,0,1.3292,optionRight,60,4795,3,2,0,2,0,1,,,,,,,,,,,,,,,,,,,,,,,,,,,,,,,,,,,,,,,
,,,,,,,,2023-08-16_08h13.13.853,HF_wild_card,2022.2.4,Linux x86_64,60.0132029,5db41a3f9ca75a000b71110c,64d2fd46c836a06233681665,64dc76ace7af757f82f02f92,,,,,,,decisionTrl,resources/DP.BMP,resources/DG.BMP,Door2,-0.260441886,-0.041970536,1,0,0,1.8778,optionLeft,40,4835,3,3,0,3,0,1,,,,,,,,,,,,,,,,,,,,,,,,,,,,,,,,,,,,,,,
,,,,,,,,2023-08-16_08h13.13.853,HF_wild_card,2022.2.4,Linux x86_64,60.0132029,5db41a3f9ca75a000b71110c,64d2fd46c836a06233681665,64dc76ace7af757f82f02f92,,,,,,,ctch,resources/DR.BMP,resources/DG.BMP,Door4,-0.242591081,0.020229481,1,0,0,1.3112,optionLeft,60,4895,3,4,0,4,0,1,,,,,,,,,,,,,,,,,,,,,,,,,,,,,,,,,,,,,,,
,,,,,,,,2023-08-16_08h13.13.853,HF_wild_card,2022.2.4,Linux x86_64,60.0132029,5db41a3f9ca75a000b71110c,64d2fd46c836a06233681665,64dc76ace7af757f82f02f92,,,,,,,sngl,resources/Empty.png,resources/DBN.BMP,Door3,0.146134906,-0.024653364,1,0,0,1.3799,optionRight,70,4965,3,5,0,5,0,1,,,,,,,,,,,,,,,,,,,,,,,,,,,,,,,,,,,,,,,
,,,,,,,,2023-08-16_08h13.13.853,HF_wild_card,2022.2.4,Linux x86_64,60.0132029,5db41a3f9ca75a000b71110c,64d2fd46c836a06233681665,64dc76ace7af757f82f02f92,,,,,,,decisionTrl,resources/DBN.BMP,resources/DR.BMP,Door3,-0.244945455,0.034762241,1,0,0,1.0129,optionLeft,70,5035,3,6,0,6,0,1,,,,,,,,,,,,,,,,,,,,,,,,,,,,,,,,,,,,,,,
,,,,,,,,2023-08-16_08h13.13.853,HF_wild_card,2022.2.4,Linux x86_64,60.0132029,5db41a3f9ca75a000b71110c,64d2fd46c836a06233681665,64dc76ace7af757f82f02f92,,,,,,,decisionTrl,resources/DR.BMP,resources/DY.BMP,Door4,-0.204159701,0.023665181,1,0,0,1.0294,optionLeft,60,5095,3,7,0,7,0,1,,,,,,,,,,,,,,,,,,,,,,,,,,,,,,,,,,,,,,,
,,,,,,,,2023-08-16_08h13.13.853,HF_wild_card,2022.2.4,Linux x86_64,60.0132029,5db41a3f9ca75a000b71110c,64d2fd46c836a06233681665,64dc76ace7af757f82f02f92,,,,,,,decisionTrl,resources/DY.BMP,resources/DP.BMP,WildCard_NonEx,-0.290198997,0.097855356,1,0,0,6.2246,optionLeft,45,5140,3,8,0,8,0,1,,,,,,,,,,,,,,,,,,,,,,,,,,,,,,,,,,,,,,,
,,,,,,,,2023-08-16_08h13.13.853,HF_wild_card,2022.2.4,Linux x86_64,60.0132029,5db41a3f9ca75a000b71110c,64d2fd46c836a06233681665,64dc76ace7af757f82f02f92,,,,,,,ctch,resources/DP.BMP,resources/DBN.BMP,Door3,0.219097349,-0.051020304,1,0,0,1.3446,optionRight,70,5210,3,9,0,9,0,1,,,,,,,,,,,,,,,,,,,,,,,,,,,,,,,,,,,,,,,
,,,,,,,,2023-08-16_08h13.13.853,HF_wild_card,2022.2.4,Linux x86_64,60.0132029,5db41a3f9ca75a000b71110c,64d2fd46c836a06233681665,64dc76ace7af757f82f02f92,,,,,,,decisionTrl,resources/DR.BMP,resources/DBN.BMP,Door3,0.127578382,-0.018662453,1,0,0,1.1859,optionRight,70,5280,3,10,0,10,0,1,,,,,,,,,,,,,,,,,,,,,,,,,,,,,,,,,,,,,,,
,,,,,,,,2023-08-16_08h13.13.853,HF_wild_card,2022.2.4,Linux x86_64,60.0132029,5db41a3f9ca75a000b71110c,64d2fd46c836a06233681665,64dc76ace7af757f82f02f92,,,,,,,ctch,resources/DBN.BMP,resources/DP.BMP,Door3,-0.291922181,-0.015634501,1,0,0,1.2669,optionLeft,70,5350,3,11,0,11,0,1,,,,,,,,,,,,,,,,,,,,,,,,,,,,,,,,,,,,,,,
,,,,,,,,2023-08-16_08h13.13.853,HF_wild_card,2022.2.4,Linux x86_64,60.0132029,5db41a3f9ca75a000b71110c,64d2fd46c836a06233681665,64dc76ace7af757f82f02f92,,,,,,,decisionTrl,resources/DP.BMP,resources/DY.BMP,WildCard_NonEx,0.238126967,-0.084044174,1,0,0,1.3952,optionRight,45,5395,3,12,0,12,0,1,,,,,,,,,,,,,,,,,,,,,,,,,,,,,,,,,,,,,,,
,,,,,,,,2023-08-16_08h13.13.853,HF_wild_card,2022.2.4,Linux x86_64,60.0132029,5db41a3f9ca75a000b71110c,64d2fd46c836a06233681665,64dc76ace7af757f82f02f92,,,,,,,decisionTrl,resources/DG.BMP,resources/DP.BMP,Door1,-0.213642615,-0.01533752,1,0,0,2.2123,optionLeft,30,5425,3,13,0,13,0,1,,,,,,,,,,,,,,,,,,,,,,,,,,,,,,,,,,,,,,,
,,,,,,,,2023-08-16_08h13.13.853,HF_wild_card,2022.2.4,Linux x86_64,60.0132029,5db41a3f9ca75a000b71110c,64d2fd46c836a06233681665,64dc76ace7af757f82f02f92,,,,,,,decisionTrl,resources/DBN.BMP,resources/DR.BMP,Door3,-0.163201721,0.034185162,1,0,0,1.1784,optionLeft,70,5495,3,14,0,14,0,1,,,,,,,,,,,,,,,,,,,,,,,,,,,,,,,,,,,,,,,
,,,,,,,,2023-08-16_08h13.13.853,HF_wild_card,2022.2.4,Linux x86_64,60.0132029,5db41a3f9ca75a000b71110c,64d2fd46c836a06233681665,64dc76ace7af757f82f02f92,,,,,,,decisionTrl,resources/DR.BMP,resources/DBN.BMP,Door3,0.228102649,-0.012568898,1,0,0,1.1629,optionRight,70,5565,3,15,0,15,0,1,,,,,,,,,,,,,,,,,,,,,,,,,,,,,,,,,,,,,,,
,,,,,,,,2023-08-16_08h13.13.853,HF_wild_card,2022.2.4,Linux x86_64,60.0132029,5db41a3f9ca75a000b71110c,64d2fd46c836a06233681665,64dc76ace7af757f82f02f92,,,,,,,decisionTrl,resources/DG.BMP,resources/DP.BMP,Door2,0.239855378,-0.058176005,1,0,0,1.6957,optionRight,20,5585,3,16,0,16,0,1,,,,,,,,,,,,,,,,,,,,,,,,,,,,,,,,,,,,,,,
,,,,,,,,2023-08-16_08h13.13.853,HF_wild_card,2022.2.4,Linux x86_64,60.0132029,5db41a3f9ca75a000b71110c,64d2fd46c836a06233681665,64dc76ace7af757f82f02f92,,,,,,,sngl,resources/DG.BMP,resources/Empty.png,Door1,-0.198092143,-0.014498463,1,0,0,1.0617,optionLeft,30,5615,3,17,0,17,0,1,,,,,,,,,,,,,,,,,,,,,,,,,,,,,,,,,,,,,,,
,,,,,,,,2023-08-16_08h13.13.853,HF_wild_card,2022.2.4,Linux x86_64,60.0132029,5db41a3f9ca75a000b71110c,64d2fd46c836a06233681665,64dc76ace7af757f82f02f92,,,,,,,decisionTrl,resources/DP.BMP,resources/DG.BMP,Door1,0.350794898,-0.00854358,1,0,0,1.3467,optionRight,30,5645,3,18,0,18,0,1,,,,,,,,,,,,,,,,,,,,,,,,,,,,,,,,,,,,,,,
,,,,,,,,2023-08-16_08h13.13.853,HF_wild_card,2022.2.4,Linux x86_64,60.0132029,5db41a3f9ca75a000b71110c,64d2fd46c836a06233681665,64dc76ace7af757f82f02f92,,,,,,,sngl,resources/Empty.png,resources/DR.BMP,Door4,0.201735461,-0.066089559,1,0,0,1.0619,optionRight,60,5705,3,19,0,19,0,1,,,,,,,,,,,,,,,,,,,,,,,,,,,,,,,,,,,,,,,
,,,,,,,,2023-08-16_08h13.13.853,HF_wild_card,2022.2.4,Linux x86_64,60.0132029,5db41a3f9ca75a000b71110c,64d2fd46c836a06233681665,64dc76ace7af757f82f02f92,,,,,,,sngl,resources/Empty.png,resources/DY.BMP,WildCard_NonEx,0.24367057,-0.037534149,1,0,0,0.9934,optionRight,55,5760,3,20,0,20,0,1,,,,,,,,,,,,,,,,,,,,,,,,,,,,,,,,,,,,,,,
,,,,,,,,2023-08-16_08h13.13.853,HF_wild_card,2022.2.4,Linux x86_64,60.0132029,5db41a3f9ca75a000b71110c,64d2fd46c836a06233681665,64dc76ace7af757f82f02f92,,,,,,,decisionTrl,resources/DR.BMP,resources/DBN.BMP,Door3,0.311330018,0.020015116,1,0,0,1.3959,optionRight,70,5830,3,21,0,21,0,1,,,,,,,,,,,,,,,,,,,,,,,,,,,,,,,,,,,,,,,
,,,,,,,,2023-08-16_08h13.13.853,HF_wild_card,2022.2.4,Linux x86_64,60.0132029,5db41a3f9ca75a000b71110c,64d2fd46c836a06233681665,64dc76ace7af757f82f02f92,,,,,,,sngl,resources/DY.BMP,resources/Empty.png,WildCard_NonEx,-0.221206736,0.004927494,1,0,0,1.1118,optionLeft,45,5875,3,22,0,22,0,1,,,,,,,,,,,,,,,,,,,,,,,,,,,,,,,,,,,,,,,
,,,,,,,,2023-08-16_08h13.13.853,HF_wild_card,2022.2.4,Linux x86_64,60.0132029,5db41a3f9ca75a000b71110c,64d2fd46c836a06233681665,64dc76ace7af757f82f02f92,,,,,,,sngl,resources/Empty.png,resources/DY.BMP,WildCard_NonEx,0.305227209,-0.012922216,1,0,0,1.2028,optionRight,45,5920,3,23,0,23,0,1,,,,,,,,,,,,,,,,,,,,,,,,,,,,,,,,,,,,,,,
,,,,,,,,2023-08-16_08h13.13.853,HF_wild_card,2022.2.4,Linux x86_64,60.0132029,5db41a3f9ca75a000b71110c,64d2fd46c836a06233681665,64dc76ace7af757f82f02f92,,,,,,,decisionTrl,resources/DBN.BMP,resources/DR.BMP,Door3,-0.250852867,0.004920006,1,0,0,1.0787,optionLeft,70,5990,3,24,0,24,0,1,,,,,,,,,,,,,,,,,,,,,,,,,,,,,,,,,,,,,,,
,,,,,,,,2023-08-16_08h13.13.853,HF_wild_card,2022.2.4,Linux x86_64,60.0132029,5db41a3f9ca75a000b71110c,64d2fd46c836a06233681665,64dc76ace7af757f82f02f92,,,,,,,ctch,resources/DG.BMP,resources/DR.BMP,Door4,0.29341839,-0.019881143,1,0,0,2.0308,optionRight,60,6050,3,25,0,25,0,1,,,,,,,,,,,,,,,,,,,,,,,,,,,,,,,,,,,,,,,
,,,,,,,,2023-08-16_08h13.13.853,HF_wild_card,2022.2.4,Linux x86_64,60.0132029,5db41a3f9ca75a000b71110c,64d2fd46c836a06233681665,64dc76ace7af757f82f02f92,,,,,,,decisionTrl,resources/DY.BMP,resources/DBN.BMP,Door3,0.130107103,-0.010504652,1,0,0,1.4038,optionRight,70,6120,3,26,0,26,0,1,,,,,,,,,,,,,,,,,,,,,,,,,,,,,,,,,,,,,,,
,,,,,,,,2023-08-16_08h13.13.853,HF_wild_card,2022.2.4,Linux x86_64,60.0132029,5db41a3f9ca75a000b71110c,64d2fd46c836a06233681665,64dc76ace7af757f82f02f92,,,,,,,sngl,resources/Empty.png,resources/DP.BMP,Door2,0.234592791,-0.031841137,1,0,0,1.102,optionRight,20,6140,3,27,0,27,0,1,,,,,,,,,,,,,,,,,,,,,,,,,,,,,,,,,,,,,,,
,,,,,,,,2023-08-16_08h13.13.853,HF_wild_card,2022.2.4,Linux x86_64,60.0132029,5db41a3f9ca75a000b71110c,64d2fd46c836a06233681665,64dc76ace7af757f82f02f92,,,,,,,decisionTrl,resources/DG.BMP,resources/DP.BMP,Door2,0.321799102,-0.101959794,1,0,0,1.6946,optionRight,40,6180,3,28,0,28,0,1,,,,,,,,,,,,,,,,,,,,,,,,,,,,,,,,,,,,,,,
,,,,,,,,2023-08-16_08h13.13.853,HF_wild_card,2022.2.4,Linux x86_64,60.0132029,5db41a3f9ca75a000b71110c,64d2fd46c836a06233681665,64dc76ace7af757f82f02f92,,,,,,,sngl,resources/DP.BMP,resources/Empty.png,Door2,-0.526992409,-0.023689553,1,0,0,1.1527,optionLeft,40,6220,3,29,0,29,0,1,,,,,,,,,,,,,,,,,,,,,,,,,,,,,,,,,,,,,,,
,,,,,,,,2023-08-16_08h13.13.853,HF_wild_card,2022.2.4,Linux x86_64,60.0132029,5db41a3f9ca75a000b71110c,64d2fd46c836a06233681665,64dc76ace7af757f82f02f92,,,,,,,sngl,resources/Empty.png,resources/DG.BMP,Door1,0.180536835,-0.046578831,1,0,0,1.0865,optionRight,30,6250,3,30,0,30,0,1,,,,,,,,,,,,,,,,,,,,,,,,,,,,,,,,,,,,,,,
,,,,,,,,2023-08-16_08h13.13.853,HF_wild_card,2022.2.4,Linux x86_64,60.0132029,5db41a3f9ca75a000b71110c,64d2fd46c836a06233681665,64dc76ace7af757f82f02f92,,,,,,,ctch,resources/DP.BMP,resources/DBN.BMP,Door3,0.171738942,-0.010632833,1,0,0,1.1116,optionRight,70,6320,3,31,0,31,0,1,,,,,,,,,,,,,,,,,,,,,,,,,,,,,,,,,,,,,,,
,,,,,,,,2023-08-16_08h13.13.853,HF_wild_card,2022.2.4,Linux x86_64,60.0132029,5db41a3f9ca75a000b71110c,64d2fd46c836a06233681665,64dc76ace7af757f82f02f92,,,,,,,ctch,resources/DBN.BMP,resources/DP.BMP,Door3,-0.310731852,-0.004080278,1,0,0,1.0285,optionLeft,70,6390,3,32,0,32,0,1,,,,,,,,,,,,,,,,,,,,,,,,,,,,,,,,,,,,,,,
,,,,,,,,2023-08-16_08h13.13.853,HF_wild_card,2022.2.4,Linux x86_64,60.0132029,5db41a3f9ca75a000b71110c,64d2fd46c836a06233681665,64dc76ace7af757f82f02f92,,,,,,,decisionTrl,resources/DG.BMP,resources/DP.BMP,Door2,0.329044625,-0.076142594,1,0,0,1.7787,optionRight,40,6430,3,33,0,33,0,1,,,,,,,,,,,,,,,,,,,,,,,,,,,,,,,,,,,,,,,
,,,,,,,,2023-08-16_08h13.13.853,HF_wild_card,2022.2.4,Linux x86_64,60.0132029,5db41a3f9ca75a000b71110c,64d2fd46c836a06233681665,64dc76ace7af757f82f02f92,,,,,,,decisionTrl,resources/DY.BMP,resources/DG.BMP,WildCard_NonEx,-0.124460927,-0.011735881,1,0,0,2.6448,optionLeft,45,6475,3,34,0,34,0,1,,,,,,,,,,,,,,,,,,,,,,,,,,,,,,,,,,,,,,,
,,,,,,,,2023-08-16_08h13.13.853,HF_wild_card,2022.2.4,Linux x86_64,60.0132029,5db41a3f9ca75a000b71110c,64d2fd46c836a06233681665,64dc76ace7af757f82f02f92,,,,,,,decisionTrl,resources/DP.BMP,resources/DG.BMP,Door2,-0.186890849,0.004704899,1,0,0,1.5291,optionLeft,20,6495,3,35,0,35,0,1,,,,,,,,,,,,,,,,,,,,,,,,,,,,,,,,,,,,,,,
,,,,,,,,2023-08-16_08h13.13.853,HF_wild_card,2022.2.4,Linux x86_64,60.0132029,5db41a3f9ca75a000b71110c,64d2fd46c836a06233681665,64dc76ace7af757f82f02f92,,,,,,,decisionTrl,resources/DBN.BMP,resources/DY.BMP,Door3,-0.263779322,0.040585023,1,0,0,1.3036,optionLeft,70,6565,3,36,0,36,0,1,,,,,,,,,,,,,,,,,,,,,,,,,,,,,,,,,,,,,,,
,,,,,,,,2023-08-16_08h13.13.853,HF_wild_card,2022.2.4,Linux x86_64,60.0132029,5db41a3f9ca75a000b71110c,64d2fd46c836a06233681665,64dc76ace7af757f82f02f92,,,,,,,sngl,resources/DY.BMP,resources/Empty.png,WildCard_NonEx,-0.216876489,0.012984205,1,0,0,0.9277,optionLeft,55,6620,3,37,0,37,0,1,,,,,,,,,,,,,,,,,,,,,,,,,,,,,,,,,,,,,,,
,,,,,,,,2023-08-16_08h13.13.853,HF_wild_card,2022.2.4,Linux x86_64,60.0132029,5db41a3f9ca75a000b71110c,64d2fd46c836a06233681665,64dc76ace7af757f82f02f92,,,,,,,decisionTrl,resources/DG.BMP,resources/DY.BMP,WildCard_NonEx,0.126692807,-0.089219058,1,0,0,2.0958,optionRight,45,6665,3,38,0,38,0,1,,,,,,,,,,,,,,,,,,,,,,,,,,,,,,,,,,,,,,,
,,,,,,,,2023-08-16_08h13.13.853,HF_wild_card,2022.2.4,Linux x86_64,60.0132029,5db41a3f9ca75a000b71110c,64d2fd46c836a06233681665,64dc76ace7af757f82f02f92,,,,,,,decisionTrl,resources/DP.BMP,resources/DG.BMP,Door2,-0.24416867,-0.116205498,1,0,0,1.8189,optionLeft,40,6705,3,39,0,39,0,1,,,,,,,,,,,,,,,,,,,,,,,,,,,,,,,,,,,,,,,
,,,,,,,,2023-08-16_08h13.13.853,HF_wild_card,2022.2.4,Linux x86_64,60.0132029,5db41a3f9ca75a000b71110c,64d2fd46c836a06233681665,64dc76ace7af757f82f02f92,,,,,,,decisionTrl,resources/DBN.BMP,resources/DR.BMP,Door3,-0.141140479,0.021831018,1,0,0,1.0705,optionLeft,70,6775,3,40,0,40,0,1,,,,,,,,,,,,,,,,,,,,,,,,,,,,,,,,,,,,,,,
,,,,,,,,2023-08-16_08h13.13.853,HF_wild_card,2022.2.4,Linux x86_64,60.0132029,5db41a3f9ca75a000b71110c,64d2fd46c836a06233681665,64dc76ace7af757f82f02f92,,,,,,,ctch,resources/DR.BMP,resources/DG.BMP,Door4,-0.126723184,-0.014928641,1,0,0,1.0443,optionLeft,80,6855,3,41,0,41,0,1,,,,,,,,,,,,,,,,,,,,,,,,,,,,,,,,,,,,,,,
,,,,,,,,2023-08-16_08h13.13.853,HF_wild_card,2022.2.4,Linux x86_64,60.0132029,5db41a3f9ca75a000b71110c,64d2fd46c836a06233681665,64dc76ace7af757f82f02f92,,,,,,,decisionTrl,resources/DY.BMP,resources/DR.BMP,Door4,0.195666631,-0.115269343,1,0,0,1.0297,optionRight,60,6915,3,42,0,42,0,1,,,,,,,,,,,,,,,,,,,,,,,,,,,,,,,,,,,,,,,
,,,,,,,,2023-08-16_08h13.13.853,HF_wild_card,2022.2.4,Linux x86_64,60.0132029,5db41a3f9ca75a000b71110c,64d2fd46c836a06233681665,64dc76ace7af757f82f02f92,,,,,,,sngl,resources/DBN.BMP,resources/Empty.png,Door3,-0.306420114,0.018879396,1,0,0,1.2961,optionLeft,70,6985,3,43,0,43,0,1,,,,,,,,,,,,,,,,,,,,,,,,,,,,,,,,,,,,,,,
,,,,,,,,2023-08-16_08h13.13.853,HF_wild_card,2022.2.4,Linux x86_64,60.0132029,5db41a3f9ca75a000b71110c,64d2fd46c836a06233681665,64dc76ace7af757f82f02f92,,,,,,,,,,,,,,,,,,,,,,,,,,2,0,2,0,1,,,,,,,,,,,,,,,,,,,,,,,,,,,,,,,,,,
,,,,,,,,2023-08-16_08h13.13.853,HF_wild_card,2022.2.4,Linux x86_64,60.0132029,5db41a3f9ca75a000b71110c,64d2fd46c836a06233681665,64dc76ace7af757f82f02f92,,,,,,,decisionTrl,resources/DBN.BMP,resources/DR.BMP,Door3,-0.302065991,-0.184281808,1,0,0,1.1992,optionLeft,70,7055,4,0,0,0,0,1,,,,,,,,,,,,,,,,,,,,,,,,,,,,,,,,,,,,,,,
,,,,,,,,2023-08-16_08h13.13.853,HF_wild_card,2022.2.4,Linux x86_64,60.0132029,5db41a3f9ca75a000b71110c,64d2fd46c836a06233681665,64dc76ace7af757f82f02f92,,,,,,,ctch,resources/DG.BMP,resources/DR.BMP,Door4,0.236475203,0.006824281,1,0,0,1.6177,optionRight,60,7115,4,1,0,1,0,1,,,,,,,,,,,,,,,,,,,,,,,,,,,,,,,,,,,,,,,
,,,,,,,,2023-08-16_08h13.13.853,HF_wild_card,2022.2.4,Linux x86_64,60.0132029,5db41a3f9ca75a000b71110c,64d2fd46c836a06233681665,64dc76ace7af757f82f02f92,,,,,,,sngl,resources/Empty.png,resources/DBN.BMP,Door3,0.171042478,-0.05965254,1,0,0,0.8958,optionRight,70,7185,4,2,0,2,0,1,,,,,,,,,,,,,,,,,,,,,,,,,,,,,,,,,,,,,,,
,,,,,,,,2023-08-16_08h13.13.853,HF_wild_card,2022.2.4,Linux x86_64,60.0132029,5db41a3f9ca75a000b71110c,64d2fd46c836a06233681665,64dc76ace7af757f82f02f92,,,,,,,sngl,resources/Empty.png,resources/DB.BMP,WildCard_Ex,0.248173608,-0.051080033,1,0,0,1.0961,optionRight,95,7280,4,3,0,3,0,1,,,,,,,,,,,,,,,,,,,,,,,,,,,,,,,,,,,,,,,
,,,,,,,,2023-08-16_08h13.13.853,HF_wild_card,2022.2.4,Linux x86_64,60.0132029,5db41a3f9ca75a000b71110c,64d2fd46c836a06233681665,64dc76ace7af757f82f02f92,,,,,,,ctch,resources/DR.BMP,resources/DG.BMP,Door4,-0.108430368,-0.005858068,1,0,0,1.2296,optionLeft,80,7360,4,4,0,4,0,1,,,,,,,,,,,,,,,,,,,,,,,,,,,,,,,,,,,,,,,
,,,,,,,,2023-08-16_08h13.13.853,HF_wild_card,2022.2.4,Linux x86_64,60.0132029,5db41a3f9ca75a000b71110c,64d2fd46c836a06233681665,64dc76ace7af757f82f02f92,,,,,,,decisionTrl,resources/DG.BMP,resources/DP.BMP,Door2,0.254896305,-0.078621582,1,0,0,2.4622,optionRight,40,7400,4,5,0,5,0,1,,,,,,,,,,,,,,,,,,,,,,,,,,,,,,,,,,,,,,,
,,,,,,,,2023-08-16_08h13.13.853,HF_wild_card,2022.2.4,Linux x86_64,60.0132029,5db41a3f9ca75a000b71110c,64d2fd46c836a06233681665,64dc76ace7af757f82f02f92,,,,,,,sngl,resources/DP.BMP,resources/Empty.png,Door2,-0.263014687,-0.074452259,1,0,0,1.0535,optionLeft,20,7420,4,6,0,6,0,1,,,,,,,,,,,,,,,,,,,,,,,,,,,,,,,,,,,,,,,
,,,,,,,,2023-08-16_08h13.13.853,HF_wild_card,2022.2.4,Linux x86_64,60.0132029,5db41a3f9ca75a000b71110c,64d2fd46c836a06233681665,64dc76ace7af757f82f02f92,,,,,,,decisionTrl,resources/DR.BMP,resources/DB.BMP,WildCard_Ex,0.334495403,-0.115688112,1,0,0,0.8785,optionRight,95,7515,4,7,0,7,0,1,,,,,,,,,,,,,,,,,,,,,,,,,,,,,,,,,,,,,,,
,,,,,,,,2023-08-16_08h13.13.853,HF_wild_card,2022.2.4,Linux x86_64,60.0132029,5db41a3f9ca75a000b71110c,64d2fd46c836a06233681665,64dc76ace7af757f82f02f92,,,,,,,decisionTrl,resources/DB.BMP,resources/DR.BMP,WildCard_Ex,-0.323745162,-0.044523734,1,0,0,1.0605,optionLeft,95,7610,4,8,0,8,0,1,,,,,,,,,,,,,,,,,,,,,,,,,,,,,,,,,,,,,,,
,,,,,,,,2023-08-16_08h13.13.853,HF_wild_card,2022.2.4,Linux x86_64,60.0132029,5db41a3f9ca75a000b71110c,64d2fd46c836a06233681665,64dc76ace7af757f82f02f92,,,,,,,ctch,resources/DR.BMP,resources/DG.BMP,Door4,-0.246080116,-0.060467155,1,0,0,1.1116,optionLeft,80,7690,4,9,0,9,0,1,,,,,,,,,,,,,,,,,,,,,,,,,,,,,,,,,,,,,,,
,,,,,,,,2023-08-16_08h13.13.853,HF_wild_card,2022.2.4,Linux x86_64,60.0132029,5db41a3f9ca75a000b71110c,64d2fd46c836a06233681665,64dc76ace7af757f82f02f92,,,,,,,sngl,resources/DB.BMP,resources/Empty.png,WildCard_Ex,-0.317799992,-0.081158744,1,0,0,1.1457,optionLeft,5,7695,4,10,0,10,0,1,,,,,,,,,,,,,,,,,,,,,,,,,,,,,,,,,,,,,,,
,,,,,,,,2023-08-16_08h13.13.853,HF_wild_card,2022.2.4,Linux x86_64,60.0132029,5db41a3f9ca75a000b71110c,64d2fd46c836a06233681665,64dc76ace7af757f82f02f92,,,,,,,sngl,resources/Empty.png,resources/DR.BMP,Door4,0.255629363,-0.023651406,1,0,0,0.8608,optionRight,80,7775,4,11,0,11,0,1,,,,,,,,,,,,,,,,,,,,,,,,,,,,,,,,,,,,,,,
,,,,,,,,2023-08-16_08h13.13.853,HF_wild_card,2022.2.4,Linux x86_64,60.0132029,5db41a3f9ca75a000b71110c,64d2fd46c836a06233681665,64dc76ace7af757f82f02f92,,,,,,,decisionTrl,resources/DG.BMP,resources/DP.BMP,Door2,0.201886989,-0.094514564,1,0,0,1.2132,optionRight,20,7795,4,12,0,12,0,1,,,,,,,,,,,,,,,,,,,,,,,,,,,,,,,,,,,,,,,
,,,,,,,,2023-08-16_08h13.13.853,HF_wild_card,2022.2.4,Linux x86_64,60.0132029,5db41a3f9ca75a000b71110c,64d2fd46c836a06233681665,64dc76ace7af757f82f02f92,,,,,,,sngl,resources/DG.BMP,resources/Empty.png,Door1,-0.347494655,-0.02731461,1,0,0,1.0116,optionLeft,30,7825,4,13,0,13,0,1,,,,,,,,,,,,,,,,,,,,,,,,,,,,,,,,,,,,,,,
,,,,,,,,2023-08-16_08h13.13.853,HF_wild_card,2022.2.4,Linux x86_64,60.0132029,5db41a3f9ca75a000b71110c,64d2fd46c836a06233681665,64dc76ace7af757f82f02f92,,,,,,,decisionTrl,resources/DG.BMP,resources/DP.BMP,Door1,-0.20173313,-0.031777841,1,0,0,5.6432,optionLeft,30,7855,4,14,0,14,0,1,,,,,,,,,,,,,,,,,,,,,,,,,,,,,,,,,,,,,,,
,,,,,,,,2023-08-16_08h13.13.853,HF_wild_card,2022.2.4,Linux x86_64,60.0132029,5db41a3f9ca75a000b71110c,64d2fd46c836a06233681665,64dc76ace7af757f82f02f92,,,,,,,sngl,resources/DB.BMP,resources/Empty.png,WildCard_Ex,-0.132747933,0.036221857,1,0,0,3.9944,optionLeft,95,7950,4,15,0,15,0,1,,,,,,,,,,,,,,,,,,,,,,,,,,,,,,,,,,,,,,,
,,,,,,,,2023-08-16_08h13.13.853,HF_wild_card,2022.2.4,Linux x86_64,60.0132029,5db41a3f9ca75a000b71110c,64d2fd46c836a06233681665,64dc76ace7af757f82f02f92,,,,,,,sngl,resources/Empty.png,resources/DP.BMP,Door2,0.499751762,0.039325149,1,0,0,0.9128,optionRight,40,7990,4,16,0,16,0,1,,,,,,,,,,,,,,,,,,,,,,,,,,,,,,,,,,,,,,,
,,,,,,,,2023-08-16_08h13.13.853,HF_wild_card,2022.2.4,Linux x86_64,60.0132029,5db41a3f9ca75a000b71110c,64d2fd46c836a06233681665,64dc76ace7af757f82f02f92,,,,,,,sngl,resources/DBN.BMP,resources/Empty.png,Door3,-0.281882957,-0.06457078,1,0,0,1.1128,optionLeft,70,8060,4,17,0,17,0,1,,,,,,,,,,,,,,,,,,,,,,,,,,,,,,,,,,,,,,,
,,,,,,,,2023-08-16_08h13.13.853,HF_wild_card,2022.2.4,Linux x86_64,60.0132029,5db41a3f9ca75a000b71110c,64d2fd46c836a06233681665,64dc76ace7af757f82f02f92,,,,,,,decisionTrl,resources/DR.BMP,resources/DBN.BMP,Door3,0.152759128,-0.036291052,1,0,0,1.1801,optionRight,70,8130,4,18,0,18,0,1,,,,,,,,,,,,,,,,,,,,,,,,,,,,,,,,,,,,,,,
,,,,,,,,2023-08-16_08h13.13.853,HF_wild_card,2022.2.4,Linux x86_64,60.0132029,5db41a3f9ca75a000b71110c,64d2fd46c836a06233681665,64dc76ace7af757f82f02f92,,,,,,,decisionTrl,resources/DP.BMP,resources/DB.BMP,WildCard_Ex,0.198613061,-0.009255551,1,0,0,0.9628,optionRight,95,8225,4,19,0,19,0,1,,,,,,,,,,,,,,,,,,,,,,,,,,,,,,,,,,,,,,,
,,,,,,,,2023-08-16_08h13.13.853,HF_wild_card,2022.2.4,Linux x86_64,60.0132029,5db41a3f9ca75a000b71110c,64d2fd46c836a06233681665,64dc76ace7af757f82f02f92,,,,,,,sngl,resources/DR.BMP,resources/Empty.png,Door4,-0.168243479,-0.028626619,1,0,0,1.3788,optionLeft,60,8285,4,20,0,20,0,1,,,,,,,,,,,,,,,,,,,,,,,,,,,,,,,,,,,,,,,
,,,,,,,,2023-08-16_08h13.13.853,HF_wild_card,2022.2.4,Linux x86_64,60.0132029,5db41a3f9ca75a000b71110c,64d2fd46c836a06233681665,64dc76ace7af757f82f02f92,,,,,,,decisionTrl,resources/DBN.BMP,resources/DR.BMP,Door3,-0.167248832,-0.002058064,1,0,0,1.0279,optionLeft,70,8355,4,21,0,21,0,1,,,,,,,,,,,,,,,,,,,,,,,,,,,,,,,,,,,,,,,
,,,,,,,,2023-08-16_08h13.13.853,HF_wild_card,2022.2.4,Linux x86_64,60.0132029,5db41a3f9ca75a000b71110c,64d2fd46c836a06233681665,64dc76ace7af757f82f02f92,,,,,,,decisionTrl,resources/DG.BMP,resources/DP.BMP,Door1,-0.271837376,-0.080433704,1,0,0,1.012,optionLeft,30,8385,4,22,0,22,0,1,,,,,,,,,,,,,,,,,,,,,,,,,,,,,,,,,,,,,,,
,,,,,,,,2023-08-16_08h13.13.853,HF_wild_card,2022.2.4,Linux x86_64,60.0132029,5db41a3f9ca75a000b71110c,64d2fd46c836a06233681665,64dc76ace7af757f82f02f92,,,,,,,sngl,resources/Empty.png,resources/DB.BMP,WildCard_Ex,0.297991011,-0.115001537,1,0,0,0.8293,optionRight,5,8390,4,23,0,23,0,1,,,,,,,,,,,,,,,,,,,,,,,,,,,,,,,,,,,,,,,
,,,,,,,,2023-08-16_08h13.13.853,HF_wild_card,2022.2.4,Linux x86_64,60.0132029,5db41a3f9ca75a000b71110c,64d2fd46c836a06233681665,64dc76ace7af757f82f02f92,,,,,,,ctch,resources/DBN.BMP,resources/DP.BMP,Door3,-0.218743572,0.00285304,1,0,0,1.1938,optionLeft,70,8460,4,24,0,24,0,1,,,,,,,,,,,,,,,,,,,,,,,,,,,,,,,,,,,,,,,
,,,,,,,,2023-08-16_08h13.13.853,HF_wild_card,2022.2.4,Linux x86_64,60.0132029,5db41a3f9ca75a000b71110c,64d2fd46c836a06233681665,64dc76ace7af757f82f02f92,,,,,,,decisionTrl,resources/DBN.BMP,resources/DB.BMP,WildCard_Ex,0.090290423,0.036266186,1,0,0,0.9688,optionRight,95,8555,4,25,0,25,0,1,,,,,,,,,,,,,,,,,,,,,,,,,,,,,,,,,,,,,,,
,,,,,,,,2023-08-16_08h13.13.853,HF_wild_card,2022.2.4,Linux x86_64,60.0132029,5db41a3f9ca75a000b71110c,64d2fd46c836a06233681665,64dc76ace7af757f82f02f92,,,,,,,decisionTrl,resources/DBN.BMP,resources/DR.BMP,Door3,-0.312171689,-0.037471524,1,0,0,0.8208,optionLeft,70,8625,4,26,0,26,0,1,,,,,,,,,,,,,,,,,,,,,,,,,,,,,,,,,,,,,,,
,,,,,,,,2023-08-16_08h13.13.853,HF_wild_card,2022.2.4,Linux x86_64,60.0132029,5db41a3f9ca75a000b71110c,64d2fd46c836a06233681665,64dc76ace7af757f82f02f92,,,,,,,ctch,resources/DP.BMP,resources/DBN.BMP,Door3,0.373488815,0.010820848,1,0,0,0.8452,optionRight,70,8695,4,27,0,27,0,1,,,,,,,,,,,,,,,,,,,,,,,,,,,,,,,,,,,,,,,
,,,,,,,,2023-08-16_08h13.13.853,HF_wild_card,2022.2.4,Linux x86_64,60.0132029,5db41a3f9ca75a000b71110c,64d2fd46c836a06233681665,64dc76ace7af757f82f02f92,,,,,,,ctch,resources/DG.BMP,resources/DR.BMP,Door4,0.30030187,-0.123457661,1,0,0,1.2629,optionRight,80,8775,4,28,0,28,0,1,,,,,,,,,,,,,,,,,,,,,,,,,,,,,,,,,,,,,,,
,,,,,,,,2023-08-16_08h13.13.853,HF_wild_card,2022.2.4,Linux x86_64,60.0132029,5db41a3f9ca75a000b71110c,64d2fd46c836a06233681665,64dc76ace7af757f82f02f92,,,,,,,sngl,resources/Empty.png,resources/DG.BMP,Door1,0.288949825,-0.019668191,1,0,0,0.8952,optionRight,30,8805,4,29,0,29,0,1,,,,,,,,,,,,,,,,,,,,,,,,,,,,,,,,,,,,,,,
,,,,,,,,2023-08-16_08h13.13.853,HF_wild_card,2022.2.4,Linux x86_64,60.0132029,5db41a3f9ca75a000b71110c,64d2fd46c836a06233681665,64dc76ace7af757f82f02f92,,,,,,,decisionTrl,resources/DB.BMP,resources/DP.BMP,WildCard_Ex,-0.182054944,0.028687124,1,0,0,0.7296,optionLeft,5,8810,4,30,0,30,0,1,,,,,,,,,,,,,,,,,,,,,,,,,,,,,,,,,,,,,,,
,,,,,,,,2023-08-16_08h13.13.853,HF_wild_card,2022.2.4,Linux x86_64,60.0132029,5db41a3f9ca75a000b71110c,64d2fd46c836a06233681665,64dc76ace7af757f82f02f92,,,,,,,decisionTrl,resources/DG.BMP,resources/DB.BMP,WildCard_Ex,0.240654204,0.008982835,1,0,0,0.8473,optionRight,5,8815,4,31,0,31,0,1,,,,,,,,,,,,,,,,,,,,,,,,,,,,,,,,,,,,,,,
,,,,,,,,2023-08-16_08h13.13.853,HF_wild_card,2022.2.4,Linux x86_64,60.0132029,5db41a3f9ca75a000b71110c,64d2fd46c836a06233681665,64dc76ace7af757f82f02f92,,,,,,,decisionTrl,resources/DR.BMP,resources/DBN.BMP,Door3,0.334745619,-0.043058325,1,0,0,0.9198,optionRight,70,8885,4,32,0,32,0,1,,,,,,,,,,,,,,,,,,,,,,,,,,,,,,,,,,,,,,,
,,,,,,,,2023-08-16_08h13.13.853,HF_wild_card,2022.2.4,Linux x86_64,60.0132029,5db41a3f9ca75a000b71110c,64d2fd46c836a06233681665,64dc76ace7af757f82f02f92,,,,,,,decisionTrl,resources/DB.BMP,resources/DBN.BMP,WildCard_Ex,-0.169989127,-0.010427687,1,0,0,0.8306,optionLeft,95,8980,4,33,0,33,0,1,,,,,,,,,,,,,,,,,,,,,,,,,,,,,,,,,,,,,,,
,,,,,,,,2023-08-16_08h13.13.853,HF_wild_card,2022.2.4,Linux x86_64,60.0132029,5db41a3f9ca75a000b71110c,64d2fd46c836a06233681665,64dc76ace7af757f82f02f92,,,,,,,decisionTrl,resources/DB.BMP,resources/DG.BMP,WildCard_Ex,-0.223549525,0.009588277,1,0,0,1.1101,optionLeft,95,9075,4,34,0,34,0,1,,,,,,,,,,,,,,,,,,,,,,,,,,,,,,,,,,,,,,,
,,,,,,,,2023-08-16_08h13.13.853,HF_wild_card,2022.2.4,Linux x86_64,60.0132029,5db41a3f9ca75a000b71110c,64d2fd46c836a06233681665,64dc76ace7af757f82f02f92,,,,,,,ctch,resources/DP.BMP,resources/DBN.BMP,Door3,0.2469546,-0.075008039,1,0,0,1.6951,optionRight,70,9145,4,35,0,35,0,1,,,,,,,,,,,,,,,,,,,,,,,,,,,,,,,,,,,,,,,
,,,,,,,,2023-08-16_08h13.13.853,HF_wild_card,2022.2.4,Linux x86_64,60.0132029,5db41a3f9ca75a000b71110c,64d2fd46c836a06233681665,64dc76ace7af757f82f02f92,,,,,,,decisionTrl,resources/DP.BMP,resources/DG.BMP,Door2,-0.180816368,-0.142309966,1,0,0,1.7034,optionLeft,40,9185,4,36,0,36,0,1,,,,,,,,,,,,,,,,,,,,,,,,,,,,,,,,,,,,,,,
,,,,,,,,2023-08-16_08h13.13.853,HF_wild_card,2022.2.4,Linux x86_64,60.0132029,5db41a3f9ca75a000b71110c,64d2fd46c836a06233681665,64dc76ace7af757f82f02f92,,,,,,,decisionTrl,resources/DR.BMP,resources/DBN.BMP,Door3,0.130565078,0.026326709,1,0,0,1.6192,optionRight,70,9255,4,37,0,37,0,1,,,,,,,,,,,,,,,,,,,,,,,,,,,,,,,,,,,,,,,
,,,,,,,,2023-08-16_08h13.13.853,HF_wild_card,2022.2.4,Linux x86_64,60.0132029,5db41a3f9ca75a000b71110c,64d2fd46c836a06233681665,64dc76ace7af757f82f02f92,,,,,,,decisionTrl,resources/DP.BMP,resources/DG.BMP,Door2,-0.146811097,-0.011827504,1,0,0,1.1951,optionLeft,20,9275,4,38,0,38,0,1,,,,,,,,,,,,,,,,,,,,,,,,,,,,,,,,,,,,,,,
,,,,,,,,2023-08-16_08h13.13.853,HF_wild_card,2022.2.4,Linux x86_64,60.0132029,5db41a3f9ca75a000b71110c,64d2fd46c836a06233681665,64dc76ace7af757f82f02f92,,,,,,,decisionTrl,resources/DP.BMP,resources/DG.BMP,Door1,0.367101457,-0.175676346,1,0,0,2.6953,optionRight,30,9305,4,39,0,39,0,1,,,,,,,,,,,,,,,,,,,,,,,,,,,,,,,,,,,,,,,
,,,,,,,,2023-08-16_08h13.13.853,HF_wild_card,2022.2.4,Linux x86_64,60.0132029,5db41a3f9ca75a000b71110c,64d2fd46c836a06233681665,64dc76ace7af757f82f02f92,,,,,,,decisionTrl,resources/DP.BMP,resources/DG.BMP,Door1,0.113645412,-0.030762072,1,0,0,1.344,optionRight,30,9335,4,40,0,40,0,1,,,,,,,,,,,,,,,,,,,,,,,,,,,,,,,,,,,,,,,
,,,,,,,,2023-08-16_08h13.13.853,HF_wild_card,2022.2.4,Linux x86_64,60.0132029,5db41a3f9ca75a000b71110c,64d2fd46c836a06233681665,64dc76ace7af757f82f02f92,,,,,,,decisionTrl,resources/DR.BMP,resources/DBN.BMP,Door3,0.109586928,-0.116025289,1,0,0,1.435,optionRight,70,9405,4,41,0,41,0,1,,,,,,,,,,,,,,,,,,,,,,,,,,,,,,,,,,,,,,,
,,,,,,,,2023-08-16_08h13.13.853,HF_wild_card,2022.2.4,Linux x86_64,60.0132029,5db41a3f9ca75a000b71110c,64d2fd46c836a06233681665,64dc76ace7af757f82f02f92,,,,,,,decisionTrl,resources/DBN.BMP,resources/DR.BMP,Door3,-0.36989537,-0.010874819,1,0,0,1.2298,optionLeft,70,9475,4,42,0,42,0,1,,,,,,,,,,,,,,,,,,,,,,,,,,,,,,,,,,,,,,,
,,,,,,,,2023-08-16_08h13.13.853,HF_wild_card,2022.2.4,Linux x86_64,60.0132029,5db41a3f9ca75a000b71110c,64d2fd46c836a06233681665,64dc76ace7af757f82f02f92,,,,,,,ctch,resources/DBN.BMP,resources/DP.BMP,Door3,-0.243029277,-0.059589492,1,0,0,0.9824,optionLeft,70,9545,4,43,0,43,0,1,,,,,,,,,,,,,,,,,,,,,,,,,,,,,,,,,,,,,,,
,,,,,,,,2023-08-16_08h13.13.853,HF_wild_card,2022.2.4,Linux x86_64,60.0132029,5db41a3f9ca75a000b71110c,64d2fd46c836a06233681665,64dc76ace7af757f82f02f92,,,,,,,,,,,,,,,,,,,,,,,,,,3,0,3,0,1,,,,,,,,,,,,,,,,,,,,,,,,,,,,,,,,,,
,,,,,,,,2023-08-16_08h13.13.853,HF_wild_card,2022.2.4,Linux x86_64,60.0132029,5db41a3f9ca75a000b71110c,64d2fd46c836a06233681665,64dc76ace7af757f82f02f92,,,,,,,decisionTrl,resources/DP.BMP,resources/DG.BMP,Door2,-0.232232412,-0.139690823,1,0,0,1.4187,optionLeft,20,9565,5,0,0,0,0,1,,,,,,,,,,,,,,,,,,,,,,,,,,,,,,,,,,,,,,,
,,,,,,,,2023-08-16_08h13.13.853,HF_wild_card,2022.2.4,Linux x86_64,60.0132029,5db41a3f9ca75a000b71110c,64d2fd46c836a06233681665,64dc76ace7af757f82f02f92,,,,,,,ctch,resources/DG.BMP,resources/DR.BMP,Door4,0.201398143,-0.076915141,1,0,0,1.4126,optionRight,60,9625,5,1,0,1,0,1,,,,,,,,,,,,,,,,,,,,,,,,,,,,,,,,,,,,,,,
,,,,,,,,2023-08-16_08h13.13.853,HF_wild_card,2022.2.4,Linux x86_64,60.0132029,5db41a3f9ca75a000b71110c,64d2fd46c836a06233681665,64dc76ace7af757f82f02f92,,,,,,,ctch,resources/DBN.BMP,resources/DP.BMP,Door3,-0.306405279,-0.016904301,1,0,0,1.3286,optionLeft,70,9695,5,2,0,2,0,1,,,,,,,,,,,,,,,,,,,,,,,,,,,,,,,,,,,,,,,
,,,,,,,,2023-08-16_08h13.13.853,HF_wild_card,2022.2.4,Linux x86_64,60.0132029,5db41a3f9ca75a000b71110c,64d2fd46c836a06233681665,64dc76ace7af757f82f02f92,,,,,,,decisionTrl,resources/DR.BMP,resources/DBN.BMP,Door3,0.317370803,-0.004325584,1,0,0,0.8758,optionRight,70,9765,5,3,0,3,0,1,,,,,,,,,,,,,,,,,,,,,,,,,,,,,,,,,,,,,,,
,,,,,,,,2023-08-16_08h13.13.853,HF_wild_card,2022.2.4,Linux x86_64,60.0132029,5db41a3f9ca75a000b71110c,64d2fd46c836a06233681665,64dc76ace7af757f82f02f92,,,,,,,decisionTrl,resources/DR.BMP,resources/DB.BMP,WildCard_Ex,0.249441783,-0.110432943,1,0,0,0.8452,optionRight,95,9860,5,4,0,4,0,1,,,,,,,,,,,,,,,,,,,,,,,,,,,,,,,,,,,,,,,
,,,,,,,,2023-08-16_08h13.13.853,HF_wild_card,2022.2.4,Linux x86_64,60.0132029,5db41a3f9ca75a000b71110c,64d2fd46c836a06233681665,64dc76ace7af757f82f02f92,,,,,,,sngl,resources/Empty.png,resources/DR.BMP,Door4,0.24436216,-0.125157321,1,0,0,0.829,optionRight,60,9920,5,5,0,5,0,1,,,,,,,,,,,,,,,,,,,,,,,,,,,,,,,,,,,,,,,
,,,,,,,,2023-08-16_08h13.13.853,HF_wild_card,2022.2.4,Linux x86_64,60.0132029,5db41a3f9ca75a000b71110c,64d2fd46c836a06233681665,64dc76ace7af757f82f02f92,,,,,,,sngl,resources/DBN.BMP,resources/Empty.png,Door3,-0.264508353,-0.04069074,1,0,0,0.7945,optionLeft,70,9990,5,6,0,6,0,1,,,,,,,,,,,,,,,,,,,,,,,,,,,,,,,,,,,,,,,
,,,,,,,,2023-08-16_08h13.13.853,HF_wild_card,2022.2.4,Linux x86_64,60.0132029,5db41a3f9ca75a000b71110c,64d2fd46c836a06233681665,64dc76ace7af757f82f02f92,,,,,,,sngl,resources/DB.BMP,resources/Empty.png,WildCard_Ex,-0.29973461,0.007782548,1,0,0,0.8638,optionLeft,95,10085,5,7,0,7,0,1,,,,,,,,,,,,,,,,,,,,,,,,,,,,,,,,,,,,,,,
,,,,,,,,2023-08-16_08h13.13.853,HF_wild_card,2022.2.4,Linux x86_64,60.0132029,5db41a3f9ca75a000b71110c,64d2fd46c836a06233681665,64dc76ace7af757f82f02f92,,,,,,,decisionTrl,resources/DR.BMP,resources/DBN.BMP,Door3,0.198026233,-0.112044723,1,0,0,0.9296,optionRight,70,10155,5,8,0,8,0,1,,,,,,,,,,,,,,,,,,,,,,,,,,,,,,,,,,,,,,,
,,,,,,,,2023-08-16_08h13.13.853,HF_wild_card,2022.2.4,Linux x86_64,60.0132029,5db41a3f9ca75a000b71110c,64d2fd46c836a06233681665,64dc76ace7af757f82f02f92,,,,,,,decisionTrl,resources/DB.BMP,resources/DG.BMP,WildCard_Ex,-0.180425644,0.028545803,1,0,0,0.8296,optionLeft,95,10250,5,9,0,9,0,1,,,,,,,,,,,,,,,,,,,,,,,,,,,,,,,,,,,,,,,
,,,,,,,,2023-08-16_08h13.13.853,HF_wild_card,2022.2.4,Linux x86_64,60.0132029,5db41a3f9ca75a000b71110c,64d2fd46c836a06233681665,64dc76ace7af757f82f02f92,,,,,,,decisionTrl,resources/DB.BMP,resources/DBN.BMP,WildCard_Ex,-0.197159732,0.012647382,1,0,0,0.8267,optionLeft,5,10255,5,10,0,10,0,1,,,,,,,,,,,,,,,,,,,,,,,,,,,,,,,,,,,,,,,
,,,,,,,,2023-08-16_08h13.13.853,HF_wild_card,2022.2.4,Linux x86_64,60.0132029,5db41a3f9ca75a000b71110c,64d2fd46c836a06233681665,64dc76ace7af757f82f02f92,,,,,,,sngl,resources/Empty.png,resources/DG.BMP,Door1,0.236501552,-0.049452393,1,0,0,0.862,optionRight,30,10285,5,11,0,11,0,1,,,,,,,,,,,,,,,,,,,,,,,,,,,,,,,,,,,,,,,
,,,,,,,,2023-08-16_08h13.13.853,HF_wild_card,2022.2.4,Linux x86_64,60.0132029,5db41a3f9ca75a000b71110c,64d2fd46c836a06233681665,64dc76ace7af757f82f02f92,,,,,,,decisionTrl,resources/DB.BMP,resources/DP.BMP,WildCard_Ex,-0.187610556,0.018576481,1,0,0,0.894,optionLeft,95,10380,5,12,0,12,0,1,,,,,,,,,,,,,,,,,,,,,,,,,,,,,,,,,,,,,,,
,,,,,,,,2023-08-16_08h13.13.853,HF_wild_card,2022.2.4,Linux x86_64,60.0132029,5db41a3f9ca75a000b71110c,64d2fd46c836a06233681665,64dc76ace7af757f82f02f92,,,,,,,sngl,resources/Empty.png,resources/DB.BMP,WildCard_Ex,0.218041455,-0.087282216,1,0,0,0.7874,optionRight,95,10475,5,13,0,13,0,1,,,,,,,,,,,,,,,,,,,,,,,,,,,,,,,,,,,,,,,
,,,,,,,,2023-08-16_08h13.13.853,HF_wild_card,2022.2.4,Linux x86_64,60.0132029,5db41a3f9ca75a000b71110c,64d2fd46c836a06233681665,64dc76ace7af757f82f02f92,,,,,,,sngl,resources/DP.BMP,resources/Empty.png,Door2,-0.238221557,0.044586288,1,0,0,1.0954,optionLeft,40,10515,5,14,0,14,0,1,,,,,,,,,,,,,,,,,,,,,,,,,,,,,,,,,,,,,,,
,,,,,,,,2023-08-16_08h13.13.853,HF_wild_card,2022.2.4,Linux x86_64,60.0132029,5db41a3f9ca75a000b71110c,64d2fd46c836a06233681665,64dc76ace7af757f82f02f92,,,,,,,sngl,resources/DG.BMP,resources/Empty.png,Door1,-0.205770281,0.018185368,1,0,0,0.6696,optionLeft,30,10545,5,15,0,15,0,1,,,,,,,,,,,,,,,,,,,,,,,,,,,,,,,,,,,,,,,
,,,,,,,,2023-08-16_08h13.13.853,HF_wild_card,2022.2.4,Linux x86_64,60.0132029,5db41a3f9ca75a000b71110c,64d2fd46c836a06233681665,64dc76ace7af757f82f02f92,,,,,,,decisionTrl,resources/DBN.BMP,resources/DR.BMP,Door3,-0.209541109,-0.008554494,1,0,0,0.7782,optionLeft,70,10615,5,16,0,16,0,1,,,,,,,,,,,,,,,,,,,,,,,,,,,,,,,,,,,,,,,
,,,,,,,,2023-08-16_08h13.13.853,HF_wild_card,2022.2.4,Linux x86_64,60.0132029,5db41a3f9ca75a000b71110c,64d2fd46c836a06233681665,64dc76ace7af757f82f02f92,,,,,,,decisionTrl,resources/DR.BMP,resources/DBN.BMP,Door3,0.336013088,-0.039852743,1,0,0,0.9147,optionRight,70,10685,5,17,0,17,0,1,,,,,,,,,,,,,,,,,,,,,,,,,,,,,,,,,,,,,,,
,,,,,,,,2023-08-16_08h13.13.853,HF_wild_card,2022.2.4,Linux x86_64,60.0132029,5db41a3f9ca75a000b71110c,64d2fd46c836a06233681665,64dc76ace7af757f82f02f92,,,,,,,decisionTrl,resources/DP.BMP,resources/DB.BMP,WildCard_Ex,0.292859254,-0.133554247,1,0,0,0.9448,optionRight,95,10780,5,18,0,18,0,1,,,,,,,,,,,,,,,,,,,,,,,,,,,,,,,,,,,,,,,
,,,,,,,,2023-08-16_08h13.13.853,HF_wild_card,2022.2.4,Linux x86_64,60.0132029,5db41a3f9ca75a000b71110c,64d2fd46c836a06233681665,64dc76ace7af757f82f02f92,,,,,,,ctch,resources/DR.BMP,resources/DG.BMP,Door1,0.328627834,-0.092824795,1,0,0,0.962,optionRight,30,10810,5,19,0,19,0,1,,,,,,,,,,,,,,,,,,,,,,,,,,,,,,,,,,,,,,,
,,,,,,,,2023-08-16_08h13.13.853,HF_wild_card,2022.2.4,Linux x86_64,60.0132029,5db41a3f9ca75a000b71110c,64d2fd46c836a06233681665,64dc76ace7af757f82f02f92,,,,,,,decisionTrl,resources/DG.BMP,resources/DP.BMP,Door2,-0.074873818,-0.042502792,1,0,0,1.246,optionRight,20,10830,5,20,0,20,0,1,,,,,,,,,,,,,,,,,,,,,,,,,,,,,,,,,,,,,,,
,,,,,,,,2023-08-16_08h13.13.853,HF_wild_card,2022.2.4,Linux x86_64,60.0132029,5db41a3f9ca75a000b71110c,64d2fd46c836a06233681665,64dc76ace7af757f82f02f92,,,,,,,ctch,resources/DP.BMP,resources/DBN.BMP,Door3,0.197095871,-0.074092406,1,0,0,0.9296,optionRight,70,10900,5,21,0,21,0,1,,,,,,,,,,,,,,,,,,,,,,,,,,,,,,,,,,,,,,,
,,,,,,,,2023-08-16_08h13.13.853,HF_wild_card,2022.2.4,Linux x86_64,60.0132029,5db41a3f9ca75a000b71110c,64d2fd46c836a06233681665,64dc76ace7af757f82f02f92,,,,,,,decisionTrl,resources/DBN.BMP,resources/DR.BMP,Door3,-0.359557258,-0.139349973,1,0,0,0.7972,optionLeft,70,10970,5,22,0,22,0,1,,,,,,,,,,,,,,,,,,,,,,,,,,,,,,,,,,,,,,,
,,,,,,,,2023-08-16_08h13.13.853,HF_wild_card,2022.2.4,Linux x86_64,60.0132029,5db41a3f9ca75a000b71110c,64d2fd46c836a06233681665,64dc76ace7af757f82f02f92,,,,,,,sngl,resources/Empty.png,resources/DBN.BMP,Door3,0.214861269,-0.018082689,1,0,0,1.0947,optionRight,70,11040,5,23,0,23,0,1,,,,,,,,,,,,,,,,,,,,,,,,,,,,,,,,,,,,,,,
,,,,,,,,2023-08-16_08h13.13.853,HF_wild_card,2022.2.4,Linux x86_64,60.0132029,5db41a3f9ca75a000b71110c,64d2fd46c836a06233681665,64dc76ace7af757f82f02f92,,,,,,,decisionTrl,resources/DG.BMP,resources/DP.BMP,Door2,0.474927408,-0.134164245,1,0,0,2.2302,optionRight,20,11060,5,24,0,24,0,1,,,,,,,,,,,,,,,,,,,,,,,,,,,,,,,,,,,,,,,
,,,,,,,,2023-08-16_08h13.13.853,HF_wild_card,2022.2.4,Linux x86_64,60.0132029,5db41a3f9ca75a000b71110c,64d2fd46c836a06233681665,64dc76ace7af757f82f02f92,,,,,,,sngl,resources/DR.BMP,resources/Empty.png,Door4,-0.157855352,-0.095158824,1,0,0,0.813,optionLeft,80,11140,5,25,0,25,0,1,,,,,,,,,,,,,,,,,,,,,,,,,,,,,,,,,,,,,,,
,,,,,,,,2023-08-16_08h13.13.853,HF_wild_card,2022.2.4,Linux x86_64,60.0132029,5db41a3f9ca75a000b71110c,64d2fd46c836a06233681665,64dc76ace7af757f82f02f92,,,,,,,sngl,resources/Empty.png,resources/DP.BMP,Door2,0.173028593,-0.106004079,1,0,0,0.9633,optionRight,20,11160,5,26,0,26,0,1,,,,,,,,,,,,,,,,,,,,,,,,,,,,,,,,,,,,,,,
,,,,,,,,2023-08-16_08h13.13.853,HF_wild_card,2022.2.4,Linux x86_64,60.0132029,5db41a3f9ca75a000b71110c,64d2fd46c836a06233681665,64dc76ace7af757f82f02f92,,,,,,,decisionTrl,resources/DG.BMP,resources/DB.BMP,WildCard_Ex,0.235109682,-0.095200645,1,0,0,1.2133,optionRight,95,11255,5,27,0,27,0,1,,,,,,,,,,,,,,,,,,,,,,,,,,,,,,,,,,,,,,,
,,,,,,,,2023-08-16_08h13.13.853,HF_wild_card,2022.2.4,Linux x86_64,60.0132029,5db41a3f9ca75a000b71110c,64d2fd46c836a06233681665,64dc76ace7af757f82f02f92,,,,,,,ctch,resources/DP.BMP,resources/DBN.BMP,Door3,0.237881837,-0.055703163,1,0,0,1.4937,optionRight,70,11325,5,28,0,28,0,1,,,,,,,,,,,,,,,,,,,,,,,,,,,,,,,,,,,,,,,
,,,,,,,,2023-08-16_08h13.13.853,HF_wild_card,2022.2.4,Linux x86_64,60.0132029,5db41a3f9ca75a000b71110c,64d2fd46c836a06233681665,64dc76ace7af757f82f02f92,,,,,,,ctch,resources/DG.BMP,resources/DR.BMP,Door4,0.2323631,-0.034309069,1,0,0,1.2632,optionRight,80,11405,5,29,0,29,0,1,,,,,,,,,,,,,,,,,,,,,,,,,,,,,,,,,,,,,,,
,,,,,,,,2023-08-16_08h13.13.853,HF_wild_card,2022.2.4,Linux x86_64,60.0132029,5db41a3f9ca75a000b71110c,64d2fd46c836a06233681665,64dc76ace7af757f82f02f92,,,,,,,decisionTrl,resources/DB.BMP,resources/DR.BMP,WildCard_Ex,-0.100987399,-0.031557719,1,0,0,1.2954,optionLeft,5,11410,5,30,0,30,0,1,,,,,,,,,,,,,,,,,,,,,,,,,,,,,,,,,,,,,,,
,,,,,,,,2023-08-16_08h13.13.853,HF_wild_card,2022.2.4,Linux x86_64,60.0132029,5db41a3f9ca75a000b71110c,64d2fd46c836a06233681665,64dc76ace7af757f82f02f92,,,,,,,decisionTrl,resources/DBN.BMP,resources/DR.BMP,Door3,-0.161437211,-0.051664458,1,0,0,1.3789,optionLeft,70,11480,5,31,0,31,0,1,,,,,,,,,,,,,,,,,,,,,,,,,,,,,,,,,,,,,,,
,,,,,,,,2023-08-16_08h13.13.853,HF_wild_card,2022.2.4,Linux x86_64,60.0132029,5db41a3f9ca75a000b71110c,64d2fd46c836a06233681665,64dc76ace7af757f82f02f92,,,,,,,decisionTrl,resources/DG.BMP,resources/DP.BMP,Door2,0.201492098,-0.031294752,1,0,0,2.1355,optionRight,20,11500,5,32,0,32,0,1,,,,,,,,,,,,,,,,,,,,,,,,,,,,,,,,,,,,,,,
,,,,,,,,2023-08-16_08h13.13.853,HF_wild_card,2022.2.4,Linux x86_64,60.0132029,5db41a3f9ca75a000b71110c,64d2fd46c836a06233681665,64dc76ace7af757f82f02f92,,,,,,,decisionTrl,resources/DR.BMP,resources/DBN.BMP,Door3,0.233662146,-0.085228637,1,0,0,0.9124,optionRight,70,11570,5,33,0,33,0,1,,,,,,,,,,,,,,,,,,,,,,,,,,,,,,,,,,,,,,,
,,,,,,,,2023-08-16_08h13.13.853,HF_wild_card,2022.2.4,Linux x86_64,60.0132029,5db41a3f9ca75a000b71110c,64d2fd46c836a06233681665,64dc76ace7af757f82f02f92,,,,,,,sngl,resources/DB.BMP,resources/Empty.png,WildCard_Ex,-0.234273204,0.02243533,1,0,0,0.6786,optionLeft,5,11575,5,34,0,34,0,1,,,,,,,,,,,,,,,,,,,,,,,,,,,,,,,,,,,,,,,
,,,,,,,,2023-08-16_08h13.13.853,HF_wild_card,2022.2.4,Linux x86_64,60.0132029,5db41a3f9ca75a000b71110c,64d2fd46c836a06233681665,64dc76ace7af757f82f02f92,,,,,,,decisionTrl,resources/DP.BMP,resources/DG.BMP,Door1,0.181097878,-0.040583822,1,0,0,1.8282,optionRight,30,11605,5,35,0,35,0,1,,,,,,,,,,,,,,,,,,,,,,,,,,,,,,,,,,,,,,,
,,,,,,,,2023-08-16_08h13.13.853,HF_wild_card,2022.2.4,Linux x86_64,60.0132029,5db41a3f9ca75a000b71110c,64d2fd46c836a06233681665,64dc76ace7af757f82f02f92,,,,,,,decisionTrl,resources/DG.BMP,resources/DP.BMP,Door1,-0.16466275,-0.023033672,1,0,0,1.194,optionLeft,30,11635,5,36,0,36,0,1,,,,,,,,,,,,,,,,,,,,,,,,,,,,,,,,,,,,,,,
,,,,,,,,2023-08-16_08h13.13.853,HF_wild_card,2022.2.4,Linux x86_64,60.0132029,5db41a3f9ca75a000b71110c,64d2fd46c836a06233681665,64dc76ace7af757f82f02f92,,,,,,,sngl,resources/Empty.png,resources/DB.BMP,WildCard_Ex,0.17327125,-0.073370086,1,0,0,0.8626,optionRight,5,11640,5,37,0,37,0,1,,,,,,,,,,,,,,,,,,,,,,,,,,,,,,,,,,,,,,,
,,,,,,,,2023-08-16_08h13.13.853,HF_wild_card,2022.2.4,Linux x86_64,60.0132029,5db41a3f9ca75a000b71110c,64d2fd46c836a06233681665,64dc76ace7af757f82f02f92,,,,,,,ctch,resources/DR.BMP,resources/DG.BMP,Door4,-0.12665678,-0.016938174,1,0,0,1.1127,optionLeft,80,11720,5,38,0,38,0,1,,,,,,,,,,,,,,,,,,,,,,,,,,,,,,,,,,,,,,,
,,,,,,,,2023-08-16_08h13.13.853,HF_wild_card,2022.2.4,Linux x86_64,60.0132029,5db41a3f9ca75a000b71110c,64d2fd46c836a06233681665,64dc76ace7af757f82f02f92,,,,,,,decisionTrl,resources/DP.BMP,resources/DG.BMP,Door2,-0.165855125,-0.054136665,1,0,0,1.7531,optionLeft,20,11740,5,39,0,39,0,1,,,,,,,,,,,,,,,,,,,,,,,,,,,,,,,,,,,,,,,
,,,,,,,,2023-08-16_08h13.13.853,HF_wild_card,2022.2.4,Linux x86_64,60.0132029,5db41a3f9ca75a000b71110c,64d2fd46c836a06233681665,64dc76ace7af757f82f02f92,,,,,,,ctch,resources/DBN.BMP,resources/DP.BMP,Door3,-0.219280525,-0.040492976,1,0,0,0.9797,optionLeft,70,11810,5,40,0,40,0,1,,,,,,,,,,,,,,,,,,,,,,,,,,,,,,,,,,,,,,,
,,,,,,,,2023-08-16_08h13.13.853,HF_wild_card,2022.2.4,Linux x86_64,60.0132029,5db41a3f9ca75a000b71110c,64d2fd46c836a06233681665,64dc76ace7af757f82f02f92,,,,,,,decisionTrl,resources/DBN.BMP,resources/DR.BMP,Door3,-0.173298659,-0.004514235,1,0,0,0.9613,optionLeft,70,11880,5,41,0,41,0,1,,,,,,,,,,,,,,,,,,,,,,,,,,,,,,,,,,,,,,,
,,,,,,,,2023-08-16_08h13.13.853,HF_wild_card,2022.2.4,Linux x86_64,60.0132029,5db41a3f9ca75a000b71110c,64d2fd46c836a06233681665,64dc76ace7af757f82f02f92,,,,,,,decisionTrl,resources/DBN.BMP,resources/DB.BMP,WildCard_Ex,0.227652656,-0.078554577,1,0,0,1.245,optionRight,95,11975,5,42,0,42,0,1,,,,,,,,,,,,,,,,,,,,,,,,,,,,,,,,,,,,,,,
,,,,,,,,2023-08-16_08h13.13.853,HF_wild_card,2022.2.4,Linux x86_64,60.0132029,5db41a3f9ca75a000b71110c,64d2fd46c836a06233681665,64dc76ace7af757f82f02f92,,,,,,,decisionTrl,resources/DP.BMP,resources/DG.BMP,Door1,0.231468695,-0.073154838,1,0,0,1.6791,optionRight,30,12005,5,43,0,43,0,1,,,,,,,,,,,,,,,,,,,,,,,,,,,,,,,,,,,,,,,
,,,,,,,,2023-08-16_08h13.13.853,HF_wild_card,2022.2.4,Linux x86_64,60.0132029,5db41a3f9ca75a000b71110c,64d2fd46c836a06233681665,64dc76ace7af757f82f02f92,,,,,,,,,,,,,,,,,,,,,,,,,,4,0,4,0,1,,,,,,,,,,,,,,,,,,,,,,,,,,,,,,,,,,
,,,,,,,,2023-08-16_08h13.13.853,HF_wild_card,2022.2.4,Linux x86_64,60.0132029,5db41a3f9ca75a000b71110c,64d2fd46c836a06233681665,64dc76ace7af757f82f02f92,,,,,,,decisionTrl,resources/DBN.BMP,resources/DR.BMP,Door3,-0.335804904,-0.13661978,1,0,0,1.1,optionLeft,70,12075,6,0,0,0,0,1,,,,,,,,,,,,,,,,,,,,,,,,,,,,,,,,,,,,,,,
,,,,,,,,2023-08-16_08h13.13.853,HF_wild_card,2022.2.4,Linux x86_64,60.0132029,5db41a3f9ca75a000b71110c,64d2fd46c836a06233681665,64dc76ace7af757f82f02f92,,,,,,,decisionTrl,resources/DB.BMP,resources/DR.BMP,WildCard_Ex,-0.193975449,-0.037309717,1,0,0,1.3849,optionLeft,5,12080,6,1,0,1,0,1,,,,,,,,,,,,,,,,,,,,,,,,,,,,,,,,,,,,,,,
,,,,,,,,2023-08-16_08h13.13.853,HF_wild_card,2022.2.4,Linux x86_64,60.0132029,5db41a3f9ca75a000b71110c,64d2fd46c836a06233681665,64dc76ace7af757f82f02f92,,,,,,,decisionTrl,resources/DR.BMP,resources/DBN.BMP,Door3,0.181666198,-0.061102125,1,0,0,1.1632,optionRight,70,12150,6,2,0,2,0,1,,,,,,,,,,,,,,,,,,,,,,,,,,,,,,,,,,,,,,,
,,,,,,,,2023-08-16_08h13.13.853,HF_wild_card,2022.2.4,Linux x86_64,60.0132029,5db41a3f9ca75a000b71110c,64d2fd46c836a06233681665,64dc76ace7af757f82f02f92,,,,,,,decisionTrl,resources/DBN.BMP,resources/DR.BMP,Door3,-0.232870102,0.0155557,1,0,0,0.7798,optionLeft,70,12220,6,3,0,3,0,1,,,,,,,,,,,,,,,,,,,,,,,,,,,,,,,,,,,,,,,
,,,,,,,,2023-08-16_08h13.13.853,HF_wild_card,2022.2.4,Linux x86_64,60.0132029,5db41a3f9ca75a000b71110c,64d2fd46c836a06233681665,64dc76ace7af757f82f02f92,,,,,,,decisionTrl,resources/DR.BMP,resources/DBN.BMP,Door4,-0.243572447,0.026586745,1,0,0,1.0462,optionLeft,60,12280,6,4,0,4,0,1,,,,,,,,,,,,,,,,,,,,,,,,,,,,,,,,,,,,,,,
,,,,,,,,2023-08-16_08h13.13.853,HF_wild_card,2022.2.4,Linux x86_64,60.0132029,5db41a3f9ca75a000b71110c,64d2fd46c836a06233681665,64dc76ace7af757f82f02f92,,,,,,,ctch,resources/DR.BMP,resources/DG.BMP,Door4,-0.162200857,-0.024410848,1,0,0,0.8456,optionLeft,80,12360,6,5,0,5,0,1,,,,,,,,,,,,,,,,,,,,,,,,,,,,,,,,,,,,,,,
,,,,,,,,2023-08-16_08h13.13.853,HF_wild_card,2022.2.4,Linux x86_64,60.0132029,5db41a3f9ca75a000b71110c,64d2fd46c836a06233681665,64dc76ace7af757f82f02f92,,,,,,,sngl,resources/DR.BMP,resources/Empty.png,Door4,-0.19332038,-0.001791671,1,0,0,0.7627,optionLeft,60,12420,6,6,0,6,0,1,,,,,,,,,,,,,,,,,,,,,,,,,,,,,,,,,,,,,,,
,,,,,,,,2023-08-16_08h13.13.853,HF_wild_card,2022.2.4,Linux x86_64,60.0132029,5db41a3f9ca75a000b71110c,64d2fd46c836a06233681665,64dc76ace7af757f82f02f92,,,,,,,ctch,resources/DP.BMP,resources/DBN.BMP,Door3,0.258741167,-0.048366017,1,0,0,1.0034,optionRight,70,12490,6,7,0,7,0,1,,,,,,,,,,,,,,,,,,,,,,,,,,,,,,,,,,,,,,,
,,,,,,,,2023-08-16_08h13.13.853,HF_wild_card,2022.2.4,Linux x86_64,60.0132029,5db41a3f9ca75a000b71110c,64d2fd46c836a06233681665,64dc76ace7af757f82f02f92,,,,,,,decisionTrl,resources/DP.BMP,resources/DG.BMP,Door1,0.309692807,-0.111027682,1,0,0,1.8697,optionRight,30,12520,6,8,0,8,0,1,,,,,,,,,,,,,,,,,,,,,,,,,,,,,,,,,,,,,,,
,,,,,,,,2023-08-16_08h13.13.853,HF_wild_card,2022.2.4,Linux x86_64,60.0132029,5db41a3f9ca75a000b71110c,64d2fd46c836a06233681665,64dc76ace7af757f82f02f92,,,,,,,ctch,resources/DBN.BMP,resources/DP.BMP,Door3,-0.137365341,0.020670008,1,0,0,2.618,optionLeft,70,12590,6,9,0,9,0,1,,,,,,,,,,,,,,,,,,,,,,,,,,,,,,,,,,,,,,,
,,,,,,,,2023-08-16_08h13.13.853,HF_wild_card,2022.2.4,Linux x86_64,60.0132029,5db41a3f9ca75a000b71110c,64d2fd46c836a06233681665,64dc76ace7af757f82f02f92,,,,,,,decisionTrl,resources/DG.BMP,resources/DP.BMP,Door2,0.197552504,-0.028362592,1,0,0,11.6557,optionRight,40,12630,6,10,0,10,0,1,,,,,,,,,,,,,,,,,,,,,,,,,,,,,,,,,,,,,,,
,,,,,,,,2023-08-16_08h13.13.853,HF_wild_card,2022.2.4,Linux x86_64,60.0132029,5db41a3f9ca75a000b71110c,64d2fd46c836a06233681665,64dc76ace7af757f82f02f92,,,,,,,sngl,resources/Empty.png,resources/DB.BMP,WildCard_Ex,0.207920216,-0.024628039,1,0,0,0.8458,optionRight,95,12725,6,11,0,11,0,1,,,,,,,,,,,,,,,,,,,,,,,,,,,,,,,,,,,,,,,
,,,,,,,,2023-08-16_08h13.13.853,HF_wild_card,2022.2.4,Linux x86_64,60.0132029,5db41a3f9ca75a000b71110c,64d2fd46c836a06233681665,64dc76ace7af757f82f02f92,,,,,,,ctch,resources/DG.BMP,resources/DR.BMP,Door4,0.173367748,-0.061239702,1,0,0,1.2941,optionRight,80,12805,6,12,0,12,0,1,,,,,,,,,,,,,,,,,,,,,,,,,,,,,,,,,,,,,,,
,,,,,,,,2023-08-16_08h13.13.853,HF_wild_card,2022.2.4,Linux x86_64,60.0132029,5db41a3f9ca75a000b71110c,64d2fd46c836a06233681665,64dc76ace7af757f82f02f92,,,,,,,decisionTrl,resources/DG.BMP,resources/DP.BMP,Door1,-0.206689199,-0.012691922,1,0,0,1.8506,optionLeft,30,12835,6,13,0,13,0,1,,,,,,,,,,,,,,,,,,,,,,,,,,,,,,,,,,,,,,,
,,,,,,,,2023-08-16_08h13.13.853,HF_wild_card,2022.2.4,Linux x86_64,60.0132029,5db41a3f9ca75a000b71110c,64d2fd46c836a06233681665,64dc76ace7af757f82f02f92,,,,,,,decisionTrl,resources/DG.BMP,resources/DP.BMP,Door1,-0.16691879,0.003817276,1,0,0,0.9786,optionLeft,30,12865,6,14,0,14,0,1,,,,,,,,,,,,,,,,,,,,,,,,,,,,,,,,,,,,,,,
,,,,,,,,2023-08-16_08h13.13.853,HF_wild_card,2022.2.4,Linux x86_64,60.0132029,5db41a3f9ca75a000b71110c,64d2fd46c836a06233681665,64dc76ace7af757f82f02f92,,,,,,,decisionTrl,resources/DBN.BMP,resources/DR.BMP,Door3,-0.244851289,0.006987713,1,0,0,0.93,optionLeft,70,12935,6,15,0,15,0,1,,,,,,,,,,,,,,,,,,,,,,,,,,,,,,,,,,,,,,,
,,,,,,,,2023-08-16_08h13.13.853,HF_wild_card,2022.2.4,Linux x86_64,60.0132029,5db41a3f9ca75a000b71110c,64d2fd46c836a06233681665,64dc76ace7af757f82f02f92,,,,,,,sngl,resources/DBN.BMP,resources/Empty.png,Door3,-0.165104689,-0.032886929,1,0,0,1.0378,optionLeft,70,13005,6,16,0,16,0,1,,,,,,,,,,,,,,,,,,,,,,,,,,,,,,,,,,,,,,,
,,,,,,,,2023-08-16_08h13.13.853,HF_wild_card,2022.2.4,Linux x86_64,60.0132029,5db41a3f9ca75a000b71110c,64d2fd46c836a06233681665,64dc76ace7af757f82f02f92,,,,,,,decisionTrl,resources/DBN.BMP,resources/DB.BMP,Door3,-0.144857689,-0.026787334,1,0,0,0.9847,optionLeft,70,13075,6,17,0,17,0,1,,,,,,,,,,,,,,,,,,,,,,,,,,,,,,,,,,,,,,,
,,,,,,,,2023-08-16_08h13.13.853,HF_wild_card,2022.2.4,Linux x86_64,60.0132029,5db41a3f9ca75a000b71110c,64d2fd46c836a06233681665,64dc76ace7af757f82f02f92,,,,,,,decisionTrl,resources/DB.BMP,resources/DBN.BMP,WildCard_Ex,-0.142934093,-0.029241738,1,0,0,0.9794,optionLeft,95,13170,6,18,0,18,0,1,,,,,,,,,,,,,,,,,,,,,,,,,,,,,,,,,,,,,,,
,,,,,,,,2023-08-16_08h13.13.853,HF_wild_card,2022.2.4,Linux x86_64,60.0132029,5db41a3f9ca75a000b71110c,64d2fd46c836a06233681665,64dc76ace7af757f82f02f92,,,,,,,decisionTrl,resources/DG.BMP,resources/DP.BMP,Door1,-0.179994442,-0.034383703,1,0,0,1.4634,optionLeft,30,13200,6,19,0,19,0,1,,,,,,,,,,,,,,,,,,,,,,,,,,,,,,,,,,,,,,,
,,,,,,,,2023-08-16_08h13.13.853,HF_wild_card,2022.2.4,Linux x86_64,60.0132029,5db41a3f9ca75a000b71110c,64d2fd46c836a06233681665,64dc76ace7af757f82f02f92,,,,,,,sngl,resources/DG.BMP,resources/Empty.png,Door1,-0.132114976,-0.018361233,1,0,0,0.8128,optionLeft,30,13230,6,20,0,20,0,1,,,,,,,,,,,,,,,,,,,,,,,,,,,,,,,,,,,,,,,
,,,,,,,,2023-08-16_08h13.13.853,HF_wild_card,2022.2.4,Linux x86_64,60.0132029,5db41a3f9ca75a000b71110c,64d2fd46c836a06233681665,64dc76ace7af757f82f02f92,,,,,,,decisionTrl,resources/DP.BMP,resources/DB.BMP,WildCard_Ex,0.156321137,-0.04029931,1,0,0,1.0792,optionRight,5,13235,6,21,0,21,0,1,,,,,,,,,,,,,,,,,,,,,,,,,,,,,,,,,,,,,,,
,,,,,,,,2023-08-16_08h13.13.853,HF_wild_card,2022.2.4,Linux x86_64,60.0132029,5db41a3f9ca75a000b71110c,64d2fd46c836a06233681665,64dc76ace7af757f82f02f92,,,,,,,decisionTrl,resources/DP.BMP,resources/DG.BMP,Door1,0.120543303,-0.052457068,1,0,0,1.8958,optionRight,30,13265,6,22,0,22,0,1,,,,,,,,,,,,,,,,,,,,,,,,,,,,,,,,,,,,,,,
,,,,,,,,2023-08-16_08h13.13.853,HF_wild_card,2022.2.4,Linux x86_64,60.0132029,5db41a3f9ca75a000b71110c,64d2fd46c836a06233681665,64dc76ace7af757f82f02f92,,,,,,,sngl,resources/Empty.png,resources/DBN.BMP,Door3,0.356052257,-0.085302106,1,0,0,0.9118,optionRight,70,13335,6,23,0,23,0,1,,,,,,,,,,,,,,,,,,,,,,,,,,,,,,,,,,,,,,,
,,,,,,,,2023-08-16_08h13.13.853,HF_wild_card,2022.2.4,Linux x86_64,60.0132029,5db41a3f9ca75a000b71110c,64d2fd46c836a06233681665,64dc76ace7af757f82f02f92,,,,,,,decisionTrl,resources/DR.BMP,resources/DBN.BMP,Door3,0.261711333,-0.087982531,1,0,0,0.8784,optionRight,70,13405,6,24,0,24,0,1,,,,,,,,,,,,,,,,,,,,,,,,,,,,,,,,,,,,,,,
,,,,,,,,2023-08-16_08h13.13.853,HF_wild_card,2022.2.4,Linux x86_64,60.0132029,5db41a3f9ca75a000b71110c,64d2fd46c836a06233681665,64dc76ace7af757f82f02f92,,,,,,,ctch,resources/DBN.BMP,resources/DP.BMP,Door3,-0.215684114,-0.018365471,1,0,0,0.9002,optionLeft,70,13475,6,25,0,25,0,1,,,,,,,,,,,,,,,,,,,,,,,,,,,,,,,,,,,,,,,
,,,,,,,,2023-08-16_08h13.13.853,HF_wild_card,2022.2.4,Linux x86_64,60.0132029,5db41a3f9ca75a000b71110c,64d2fd46c836a06233681665,64dc76ace7af757f82f02f92,,,,,,,decisionTrl,resources/DB.BMP,resources/DG.BMP,WildCard_Ex,-0.216334308,-0.016642641,1,0,0,1.5291,optionLeft,95,13570,6,26,0,26,0,1,,,,,,,,,,,,,,,,,,,,,,,,,,,,,,,,,,,,,,,
,,,,,,,,2023-08-16_08h13.13.853,HF_wild_card,2022.2.4,Linux x86_64,60.0132029,5db41a3f9ca75a000b71110c,64d2fd46c836a06233681665,64dc76ace7af757f82f02f92,,,,,,,ctch,resources/DP.BMP,resources/DBN.BMP,Door3,0.282829355,-0.02732178,1,0,0,0.9131,optionRight,70,13640,6,27,0,27,0,1,,,,,,,,,,,,,,,,,,,,,,,,,,,,,,,,,,,,,,,
,,,,,,,,2023-08-16_08h13.13.853,HF_wild_card,2022.2.4,Linux x86_64,60.0132029,5db41a3f9ca75a000b71110c,64d2fd46c836a06233681665,64dc76ace7af757f82f02f92,,,,,,,decisionTrl,resources/DP.BMP,resources/DG.BMP,Door2,-0.269158187,-0.059416948,1,0,0,1.4965,optionLeft,20,13660,6,28,0,28,0,1,,,,,,,,,,,,,,,,,,,,,,,,,,,,,,,,,,,,,,,
,,,,,,,,2023-08-16_08h13.13.853,HF_wild_card,2022.2.4,Linux x86_64,60.0132029,5db41a3f9ca75a000b71110c,64d2fd46c836a06233681665,64dc76ace7af757f82f02f92,,,,,,,sngl,resources/Empty.png,resources/DB.BMP,WildCard_Ex,0.259385427,-0.028207002,1,0,0,0.7783,optionRight,5,13665,6,29,0,29,0,1,,,,,,,,,,,,,,,,,,,,,,,,,,,,,,,,,,,,,,,
,,,,,,,,2023-08-16_08h13.13.853,HF_wild_card,2022.2.4,Linux x86_64,60.0132029,5db41a3f9ca75a000b71110c,64d2fd46c836a06233681665,64dc76ace7af757f82f02f92,,,,,,,sngl,resources/DB.BMP,resources/Empty.png,WildCard_Ex,-0.12615112,0.012788101,1,0,0,1.4617,optionLeft,95,13760,6,30,0,30,0,1,,,,,,,,,,,,,,,,,,,,,,,,,,,,,,,,,,,,,,,
,,,,,,,,2023-08-16_08h13.13.853,HF_wild_card,2022.2.4,Linux x86_64,60.0132029,5db41a3f9ca75a000b71110c,64d2fd46c836a06233681665,64dc76ace7af757f82f02f92,,,,,,,ctch,resources/DG.BMP,resources/DR.BMP,Door4,0.112983209,-0.035461037,1,0,0,1.3632,optionRight,80,13840,6,31,0,31,0,1,,,,,,,,,,,,,,,,,,,,,,,,,,,,,,,,,,,,,,,
,,,,,,,,2023-08-16_08h13.13.853,HF_wild_card,2022.2.4,Linux x86_64,60.0132029,5db41a3f9ca75a000b71110c,64d2fd46c836a06233681665,64dc76ace7af757f82f02f92,,,,,,,decisionTrl,resources/DR.BMP,resources/DBN.BMP,Door3,0.121385504,-0.053756537,1,0,0,1.013,optionRight,70,13910,6,32,0,32,0,1,,,,,,,,,,,,,,,,,,,,,,,,,,,,,,,,,,,,,,,
,,,,,,,,2023-08-16_08h13.13.853,HF_wild_card,2022.2.4,Linux x86_64,60.0132029,5db41a3f9ca75a000b71110c,64d2fd46c836a06233681665,64dc76ace7af757f82f02f92,,,,,,,sngl,resources/DP.BMP,resources/Empty.png,Door2,-0.269646962,-0.066717819,1,0,0,0.9586,optionLeft,20,13930,6,33,0,33,0,1,,,,,,,,,,,,,,,,,,,,,,,,,,,,,,,,,,,,,,,
,,,,,,,,2023-08-16_08h13.13.853,HF_wild_card,2022.2.4,Linux x86_64,60.0132029,5db41a3f9ca75a000b71110c,64d2fd46c836a06233681665,64dc76ace7af757f82f02f92,,,,,,,decisionTrl,resources/DG.BMP,resources/DB.BMP,WildCard_Ex,0.158470436,-0.055137175,1,0,0,0.7614,optionRight,5,13935,6,34,0,34,0,1,,,,,,,,,,,,,,,,,,,,,,,,,,,,,,,,,,,,,,,
,,,,,,,,2023-08-16_08h13.13.853,HF_wild_card,2022.2.4,Linux x86_64,60.0132029,5db41a3f9ca75a000b71110c,64d2fd46c836a06233681665,64dc76ace7af757f82f02f92,,,,,,,ctch,resources/DR.BMP,resources/DG.BMP,Door4,-0.111466655,0.011854984,1,0,0,0.9692,optionLeft,80,14015,6,35,0,35,0,1,,,,,,,,,,,,,,,,,,,,,,,,,,,,,,,,,,,,,,,
,,,,,,,,2023-08-16_08h13.13.853,HF_wild_card,2022.2.4,Linux x86_64,60.0132029,5db41a3f9ca75a000b71110c,64d2fd46c836a06233681665,64dc76ace7af757f82f02f92,,,,,,,sngl,resources/DB.BMP,resources/Empty.png,WildCard_Ex,-0.194658138,-0.000827189,1,0,0,0.7469,optionLeft,5,14020,6,36,0,36,0,1,,,,,,,,,,,,,,,,,,,,,,,,,,,,,,,,,,,,,,,
,,,,,,,,2023-08-16_08h13.13.853,HF_wild_card,2022.2.4,Linux x86_64,60.0132029,5db41a3f9ca75a000b71110c,64d2fd46c836a06233681665,64dc76ace7af757f82f02f92,,,,,,,decisionTrl,resources/DR.BMP,resources/DB.BMP,WildCard_Ex,0.214693352,-0.107421451,1,0,0,1.129,optionRight,95,14115,6,37,0,37,0,1,,,,,,,,,,,,,,,,,,,,,,,,,,,,,,,,,,,,,,,
,,,,,,,,2023-08-16_08h13.13.853,HF_wild_card,2022.2.4,Linux x86_64,60.0132029,5db41a3f9ca75a000b71110c,64d2fd46c836a06233681665,64dc76ace7af757f82f02f92,,,,,,,sngl,resources/Empty.png,resources/DG.BMP,Door1,0.264339871,-0.04572833,1,0,0,0.8982,optionRight,30,14145,6,38,0,38,0,1,,,,,,,,,,,,,,,,,,,,,,,,,,,,,,,,,,,,,,,
,,,,,,,,2023-08-16_08h13.13.853,HF_wild_card,2022.2.4,Linux x86_64,60.0132029,5db41a3f9ca75a000b71110c,64d2fd46c836a06233681665,64dc76ace7af757f82f02f92,,,,,,,decisionTrl,resources/DB.BMP,resources/DP.BMP,WildCard_Ex,-0.242418996,0.050515952,1,0,0,0.7951,optionLeft,5,14150,6,39,0,39,0,1,,,,,,,,,,,,,,,,,,,,,,,,,,,,,,,,,,,,,,,
,,,,,,,,2023-08-16_08h13.13.853,HF_wild_card,2022.2.4,Linux x86_64,60.0132029,5db41a3f9ca75a000b71110c,64d2fd46c836a06233681665,64dc76ace7af757f82f02f92,,,,,,,sngl,resources/Empty.png,resources/DP.BMP,Door2,0.327464775,-0.084016199,1,0,0,0.7801,optionRight,40,14190,6,40,0,40,0,1,,,,,,,,,,,,,,,,,,,,,,,,,,,,,,,,,,,,,,,
,,,,,,,,2023-08-16_08h13.13.853,HF_wild_card,2022.2.4,Linux x86_64,60.0132029,5db41a3f9ca75a000b71110c,64d2fd46c836a06233681665,64dc76ace7af757f82f02f92,,,,,,,sngl,resources/Empty.png,resources/DR.BMP,Door4,0.293835322,-0.064381246,1,0,0,0.7956,optionRight,80,14270,6,41,0,41,0,1,,,,,,,,,,,,,,,,,,,,,,,,,,,,,,,,,,,,,,,
,,,,,,,,2023-08-16_08h13.13.853,HF_wild_card,2022.2.4,Linux x86_64,60.0132029,5db41a3f9ca75a000b71110c,64d2fd46c836a06233681665,64dc76ace7af757f82f02f92,,,,,,,decisionTrl,resources/DP.BMP,resources/DG.BMP,Door1,0.276358357,-0.130112471,1,0,0,1.9627,optionRight,30,14300,6,42,0,42,0,1,,,,,,,,,,,,,,,,,,,,,,,,,,,,,,,,,,,,,,,
,,,,,,,,2023-08-16_08h13.13.853,HF_wild_card,2022.2.4,Linux x86_64,60.0132029,5db41a3f9ca75a000b71110c,64d2fd46c836a06233681665,64dc76ace7af757f82f02f92,,,,,,,decisionTrl,resources/DBN.BMP,resources/DR.BMP,Door3,-0.22681427,-0.034152243,1,0,0,0.9454,optionLeft,70,14370,6,43,0,43,0,1,,,,,,,,,,,,,,,,,,,,,,,,,,,,,,,,,,,,,,,
,,,,,,,,2023-08-16_08h13.13.853,HF_wild_card,2022.2.4,Linux x86_64,60.0132029,5db41a3f9ca75a000b71110c,64d2fd46c836a06233681665,64dc76ace7af757f82f02f92,,,,,,,,,,,,,,,,,,,,,,,,,,5,0,5,0,1,,,,,,,,,,,,,,,,,,,,,,,,,,,,,,,,,,
,,,,,,,,2023-08-16_08h13.13.853,HF_wild_card,2022.2.4,Linux x86_64,60.0132029,5db41a3f9ca75a000b71110c,64d2fd46c836a06233681665,64dc76ace7af757f82f02f92,,,,,,,ctch,resources/DR.BMP,resources/DG.BMP,Door4,-0.214814292,-0.186186261,1,0,0,1.1836,optionLeft,80,14450,7,0,0,0,0,1,,,,,,,,,,,,,,,,,,,,,,,,,,,,,,,,,,,,,,,
,,,,,,,,2023-08-16_08h13.13.853,HF_wild_card,2022.2.4,Linux x86_64,60.0132029,5db41a3f9ca75a000b71110c,64d2fd46c836a06233681665,64dc76ace7af757f82f02f92,,,,,,,decisionTrl,resources/DG.BMP,resources/DP.BMP,Door2,0.268244214,-0.046034813,1,0,0,2.0512,optionRight,20,14470,7,1,0,1,0,1,,,,,,,,,,,,,,,,,,,,,,,,,,,,,,,,,,,,,,,
,,,,,,,,2023-08-16_08h13.13.853,HF_wild_card,2022.2.4,Linux x86_64,60.0132029,5db41a3f9ca75a000b71110c,64d2fd46c836a06233681665,64dc76ace7af757f82f02f92,,,,,,,decisionTrl,resources/DBN.BMP,resources/DR.BMP,Door3,-0.289436128,0.015321696,1,0,0,0.8814,optionLeft,70,14540,7,2,0,2,0,1,,,,,,,,,,,,,,,,,,,,,,,,,,,,,,,,,,,,,,,
,,,,,,,,2023-08-16_08h13.13.853,HF_wild_card,2022.2.4,Linux x86_64,60.0132029,5db41a3f9ca75a000b71110c,64d2fd46c836a06233681665,64dc76ace7af757f82f02f92,,,,,,,ctch,resources/DG.BMP,resources/DR.BMP,Door4,0.3320345,-0.046487561,1,0,0,1.5802,optionRight,80,14620,7,3,0,3,0,1,,,,,,,,,,,,,,,,,,,,,,,,,,,,,,,,,,,,,,,
,,,,,,,,2023-08-16_08h13.13.853,HF_wild_card,2022.2.4,Linux x86_64,60.0132029,5db41a3f9ca75a000b71110c,64d2fd46c836a06233681665,64dc76ace7af757f82f02f92,,,,,,,ctch,resources/DP.BMP,resources/DBN.BMP,Door3,0.291734695,-0.017983719,1,0,0,0.8988,optionRight,70,14690,7,4,0,4,0,1,,,,,,,,,,,,,,,,,,,,,,,,,,,,,,,,,,,,,,,
,,,,,,,,2023-08-16_08h13.13.853,HF_wild_card,2022.2.4,Linux x86_64,60.0132029,5db41a3f9ca75a000b71110c,64d2fd46c836a06233681665,64dc76ace7af757f82f02f92,,,,,,,decisionTrl,resources/DBN.BMP,resources/DR.BMP,Door3,-0.16602721,-0.039511751,1,0,0,0.9888,optionLeft,70,14760,7,5,0,5,0,1,,,,,,,,,,,,,,,,,,,,,,,,,,,,,,,,,,,,,,,
,,,,,,,,2023-08-16_08h13.13.853,HF_wild_card,2022.2.4,Linux x86_64,60.0132029,5db41a3f9ca75a000b71110c,64d2fd46c836a06233681665,64dc76ace7af757f82f02f92,,,,,,,decisionTrl,resources/DG.BMP,resources/DP.BMP,Door1,-0.13349639,-0.006149257,1,0,0,11.241,optionLeft,30,14790,7,6,0,6,0,1,,,,,,,,,,,,,,,,,,,,,,,,,,,,,,,,,,,,,,,
,,,,,,,,2023-08-16_08h13.13.853,HF_wild_card,2022.2.4,Linux x86_64,60.0132029,5db41a3f9ca75a000b71110c,64d2fd46c836a06233681665,64dc76ace7af757f82f02f92,,,,,,,decisionTrl,resources/DP.BMP,resources/DG.BMP,Door2,-0.17843522,-0.042010625,1,0,0,1.2133,optionLeft,40,14830,7,7,0,7,0,1,,,,,,,,,,,,,,,,,,,,,,,,,,,,,,,,,,,,,,,
,,,,,,,,2023-08-16_08h13.13.853,HF_wild_card,2022.2.4,Linux x86_64,60.0132029,5db41a3f9ca75a000b71110c,64d2fd46c836a06233681665,64dc76ace7af757f82f02f92,,,,,,,ctch,resources/DR.BMP,resources/DG.BMP,Door4,-0.141804377,-0.019409745,1,0,0,1.0295,optionLeft,60,14890,7,8,0,8,0,1,,,,,,,,,,,,,,,,,,,,,,,,,,,,,,,,,,,,,,,
,,,,,,,,2023-08-16_08h13.13.853,HF_wild_card,2022.2.4,Linux x86_64,60.0132029,5db41a3f9ca75a000b71110c,64d2fd46c836a06233681665,64dc76ace7af757f82f02f92,,,,,,,ctch,resources/DP.BMP,resources/DBN.BMP,Door3,0.305458634,0.003359583,1,0,0,0.8047,optionRight,70,14960,7,9,0,9,0,1,,,,,,,,,,,,,,,,,,,,,,,,,,,,,,,,,,,,,,,
,,,,,,,,2023-08-16_08h13.13.853,HF_wild_card,2022.2.4,Linux x86_64,60.0132029,5db41a3f9ca75a000b71110c,64d2fd46c836a06233681665,64dc76ace7af757f82f02f92,,,,,,,decisionTrl,resources/DR.BMP,resources/DBN.BMP,Door3,0.171682499,-0.014528133,1,0,0,0.8648,optionRight,70,15030,7,10,0,10,0,1,,,,,,,,,,,,,,,,,,,,,,,,,,,,,,,,,,,,,,,
,,,,,,,,2023-08-16_08h13.13.853,HF_wild_card,2022.2.4,Linux x86_64,60.0132029,5db41a3f9ca75a000b71110c,64d2fd46c836a06233681665,64dc76ace7af757f82f02f92,,,,,,,decisionTrl,resources/DG.BMP,resources/DP.BMP,Door1,-0.2334339,-0.007487544,1,0,0,1.6136,optionLeft,30,15060,7,11,0,11,0,1,,,,,,,,,,,,,,,,,,,,,,,,,,,,,,,,,,,,,,,
,,,,,,,,2023-08-16_08h13.13.853,HF_wild_card,2022.2.4,Linux x86_64,60.0132029,5db41a3f9ca75a000b71110c,64d2fd46c836a06233681665,64dc76ace7af757f82f02f92,,,,,,,decisionTrl,resources/DG.BMP,resources/DP.BMP,Door1,-0.135803576,0.000284372,1,0,0,0.9294,optionLeft,30,15090,7,12,0,12,0,1,,,,,,,,,,,,,,,,,,,,,,,,,,,,,,,,,,,,,,,
,,,,,,,,2023-08-16_08h13.13.853,HF_wild_card,2022.2.4,Linux x86_64,60.0132029,5db41a3f9ca75a000b71110c,64d2fd46c836a06233681665,64dc76ace7af757f82f02f92,,,,,,,decisionTrl,resources/DR.BMP,resources/DBN.BMP,Door3,0.123188867,-0.034511142,1,0,0,10.0522,optionRight,70,15160,7,13,0,13,0,1,,,,,,,,,,,,,,,,,,,,,,,,,,,,,,,,,,,,,,,
,,,,,,,,2023-08-16_08h13.13.853,HF_wild_card,2022.2.4,Linux x86_64,60.0132029,5db41a3f9ca75a000b71110c,64d2fd46c836a06233681665,64dc76ace7af757f82f02f92,,,,,,,ctch,resources/DG.BMP,resources/DR.BMP,Door4,0.188942167,-0.031734431,1,0,0,1.3136,optionRight,80,15240,7,14,0,14,0,1,,,,,,,,,,,,,,,,,,,,,,,,,,,,,,,,,,,,,,,
,,,,,,,,2023-08-16_08h13.13.853,HF_wild_card,2022.2.4,Linux x86_64,60.0132029,5db41a3f9ca75a000b71110c,64d2fd46c836a06233681665,64dc76ace7af757f82f02f92,,,,,,,decisionTrl,resources/DP.BMP,resources/DG.BMP,Door1,0.147786388,-0.070315502,1,0,0,1.4696,optionRight,30,15270,7,15,0,15,0,1,,,,,,,,,,,,,,,,,,,,,,,,,,,,,,,,,,,,,,,
,,,,,,,,2023-08-16_08h13.13.853,HF_wild_card,2022.2.4,Linux x86_64,60.0132029,5db41a3f9ca75a000b71110c,64d2fd46c836a06233681665,64dc76ace7af757f82f02f92,,,,,,,ctch,resources/DP.BMP,resources/DBN.BMP,Door3,0.133891282,-0.043433083,1,0,0,0.8806,optionRight,70,15340,7,16,0,16,0,1,,,,,,,,,,,,,,,,,,,,,,,,,,,,,,,,,,,,,,,
,,,,,,,,2023-08-16_08h13.13.853,HF_wild_card,2022.2.4,Linux x86_64,60.0132029,5db41a3f9ca75a000b71110c,64d2fd46c836a06233681665,64dc76ace7af757f82f02f92,,,,,,,decisionTrl,resources/DR.BMP,resources/DBN.BMP,Door3,0.277264206,-0.108501929,1,0,0,0.8642,optionRight,70,15410,7,17,0,17,0,1,,,,,,,,,,,,,,,,,,,,,,,,,,,,,,,,,,,,,,,
,,,,,,,,2023-08-16_08h13.13.853,HF_wild_card,2022.2.4,Linux x86_64,60.0132029,5db41a3f9ca75a000b71110c,64d2fd46c836a06233681665,64dc76ace7af757f82f02f92,,,,,,,decisionTrl,resources/DP.BMP,resources/DG.BMP,Door1,0.165421309,-0.087461118,1,0,0,1.2307,optionRight,30,15440,7,18,0,18,0,1,,,,,,,,,,,,,,,,,,,,,,,,,,,,,,,,,,,,,,,
,,,,,,,,2023-08-16_08h13.13.853,HF_wild_card,2022.2.4,Linux x86_64,60.0132029,5db41a3f9ca75a000b71110c,64d2fd46c836a06233681665,64dc76ace7af757f82f02f92,,,,,,,decisionTrl,resources/DBN.BMP,resources/DR.BMP,Door3,-0.210939619,0.020145169,1,0,0,0.9973,optionLeft,70,15510,7,19,0,19,0,1,,,,,,,,,,,,,,,,,,,,,,,,,,,,,,,,,,,,,,,
,,,,,,,,2023-08-16_08h13.13.853,HF_wild_card,2022.2.4,Linux x86_64,60.0132029,5db41a3f9ca75a000b71110c,64d2fd46c836a06233681665,64dc76ace7af757f82f02f92,,,,,,,ctch,resources/DBN.BMP,resources/DP.BMP,Door3,-0.112868415,-0.007292076,1,0,0,0.9976,optionLeft,70,15580,7,20,0,20,0,1,,,,,,,,,,,,,,,,,,,,,,,,,,,,,,,,,,,,,,,
,,,,,,,,2023-08-16_08h13.13.853,HF_wild_card,2022.2.4,Linux x86_64,60.0132029,5db41a3f9ca75a000b71110c,64d2fd46c836a06233681665,64dc76ace7af757f82f02f92,,,,,,,decisionTrl,resources/DG.BMP,resources/DP.BMP,Door1,-0.158891254,-0.015363234,1,0,0,10.1471,optionLeft,30,15610,7,21,0,21,0,1,,,,,,,,,,,,,,,,,,,,,,,,,,,,,,,,,,,,,,,
,,,,,,,,2023-08-16_08h13.13.853,HF_wild_card,2022.2.4,Linux x86_64,60.0132029,5db41a3f9ca75a000b71110c,64d2fd46c836a06233681665,64dc76ace7af757f82f02f92,,,,,,,decisionTrl,resources/DBN.BMP,resources/DR.BMP,Door3,-0.238494802,-0.057822122,1,0,0,0.8894,optionLeft,70,15680,7,22,0,22,0,1,,,,,,,,,,,,,,,,,,,,,,,,,,,,,,,,,,,,,,,
,,,,,,,,2023-08-16_08h13.13.853,HF_wild_card,2022.2.4,Linux x86_64,60.0132029,5db41a3f9ca75a000b71110c,64d2fd46c836a06233681665,64dc76ace7af757f82f02f92,,,,,,,decisionTrl,resources/DBN.BMP,resources/DR.BMP,Door3,-0.138704512,-0.015201145,1,0,0,2.2307,optionLeft,70,15750,7,23,0,23,0,1,,,,,,,,,,,,,,,,,,,,,,,,,,,,,,,,,,,,,,,
,,,,,,,,2023-08-16_08h13.13.853,HF_wild_card,2022.2.4,Linux x86_64,60.0132029,5db41a3f9ca75a000b71110c,64d2fd46c836a06233681665,64dc76ace7af757f82f02f92,,,,,,,ctch,resources/DG.BMP,resources/DR.BMP,Door1,-0.192412059,-0.019403352,1,0,0,1.5973,optionLeft,30,15780,7,24,0,24,0,1,,,,,,,,,,,,,,,,,,,,,,,,,,,,,,,,,,,,,,,
,,,,,,,,2023-08-16_08h13.13.853,HF_wild_card,2022.2.4,Linux x86_64,60.0132029,5db41a3f9ca75a000b71110c,64d2fd46c836a06233681665,64dc76ace7af757f82f02f92,,,,,,,decisionTrl,resources/DP.BMP,resources/DG.BMP,Door2,-0.149577176,-0.004540337,1,0,0,1.5209,optionLeft,20,15800,7,25,0,25,0,1,,,,,,,,,,,,,,,,,,,,,,,,,,,,,,,,,,,,,,,
,,,,,,,,2023-08-16_08h13.13.853,HF_wild_card,2022.2.4,Linux x86_64,60.0132029,5db41a3f9ca75a000b71110c,64d2fd46c836a06233681665,64dc76ace7af757f82f02f92,,,,,,,decisionTrl,resources/DG.BMP,resources/DP.BMP,Door1,-0.169710018,0.024708607,1,0,0,1.2982,optionLeft,30,15830,7,26,0,26,0,1,,,,,,,,,,,,,,,,,,,,,,,,,,,,,,,,,,,,,,,
,,,,,,,,2023-08-16_08h13.13.853,HF_wild_card,2022.2.4,Linux x86_64,60.0132029,5db41a3f9ca75a000b71110c,64d2fd46c836a06233681665,64dc76ace7af757f82f02f92,,,,,,,decisionTrl,resources/DP.BMP,resources/DG.BMP,Door1,0.23010699,0.031573296,1,0,0,1.3216,optionRight,30,15860,7,27,0,27,0,1,,,,,,,,,,,,,,,,,,,,,,,,,,,,,,,,,,,,,,,
,,,,,,,,2023-08-16_08h13.13.853,HF_wild_card,2022.2.4,Linux x86_64,60.0132029,5db41a3f9ca75a000b71110c,64d2fd46c836a06233681665,64dc76ace7af757f82f02f92,,,,,,,decisionTrl,resources/DBN.BMP,resources/DR.BMP,Door3,-0.140106554,-0.023917763,1,0,0,3.3125,optionLeft,70,15930,7,28,0,28,0,1,,,,,,,,,,,,,,,,,,,,,,,,,,,,,,,,,,,,,,,
,,,,,,,,2023-08-16_08h13.13.853,HF_wild_card,2022.2.4,Linux x86_64,60.0132029,5db41a3f9ca75a000b71110c,64d2fd46c836a06233681665,64dc76ace7af757f82f02f92,,,,,,,ctch,resources/DBN.BMP,resources/DP.BMP,Door3,-0.108020359,0.009349894,1,0,0,0.964,optionLeft,70,16000,7,29,0,29,0,1,,,,,,,,,,,,,,,,,,,,,,,,,,,,,,,,,,,,,,,
,,,,,,,,2023-08-16_08h13.13.853,HF_wild_card,2022.2.4,Linux x86_64,60.0132029,5db41a3f9ca75a000b71110c,64d2fd46c836a06233681665,64dc76ace7af757f82f02f92,,,,,,,decisionTrl,resources/DR.BMP,resources/DBN.BMP,Door3,0.154802252,-0.021774363,1,0,0,0.8652,optionRight,70,16070,7,30,0,30,0,1,,,,,,,,,,,,,,,,,,,,,,,,,,,,,,,,,,,,,,,
,,,,,,,,2023-08-16_08h13.13.853,HF_wild_card,2022.2.4,Linux x86_64,60.0132029,5db41a3f9ca75a000b71110c,64d2fd46c836a06233681665,64dc76ace7af757f82f02f92,,,,,,,decisionTrl,resources/DR.BMP,resources/DBN.BMP,Door3,0.230559738,-0.04604435,1,0,0,0.8221,optionRight,70,16140,7,31,0,31,0,1,,,,,,,,,,,,,,,,,,,,,,,,,,,,,,,,,,,,,,,
,,,,,,,,2023-08-16_08h13.13.853,HF_wild_card,2022.2.4,Linux x86_64,60.0132029,5db41a3f9ca75a000b71110c,64d2fd46c836a06233681665,64dc76ace7af757f82f02f92,,,,,,,ctch,resources/DR.BMP,resources/DG.BMP,Door4,-0.135455167,-0.002496507,1,0,0,1.1455,optionLeft,60,16200,7,32,0,32,0,1,,,,,,,,,,,,,,,,,,,,,,,,,,,,,,,,,,,,,,,
,,,,,,,,2023-08-16_08h13.13.853,HF_wild_card,2022.2.4,Linux x86_64,60.0132029,5db41a3f9ca75a000b71110c,64d2fd46c836a06233681665,64dc76ace7af757f82f02f92,,,,,,,decisionTrl,resources/DR.BMP,resources/DBN.BMP,Door3,0.125385567,-0.030773834,1,0,0,1.1807,optionRight,70,16270,7,33,0,33,0,1,,,,,,,,,,,,,,,,,,,,,,,,,,,,,,,,,,,,,,,
,,,,,,,,2023-08-16_08h13.13.853,HF_wild_card,2022.2.4,Linux x86_64,60.0132029,5db41a3f9ca75a000b71110c,64d2fd46c836a06233681665,64dc76ace7af757f82f02f92,,,,,,,ctch,resources/DBN.BMP,resources/DP.BMP,Door3,-0.151578833,-0.001866482,1,0,0,0.9553,optionLeft,70,16340,7,34,0,34,0,1,,,,,,,,,,,,,,,,,,,,,,,,,,,,,,,,,,,,,,,
,,,,,,,,2023-08-16_08h13.13.853,HF_wild_card,2022.2.4,Linux x86_64,60.0132029,5db41a3f9ca75a000b71110c,64d2fd46c836a06233681665,64dc76ace7af757f82f02f92,,,,,,,decisionTrl,resources/DP.BMP,resources/DG.BMP,Door1,0.161211579,-0.025914581,1,0,0,1.1646,optionRight,30,16370,7,35,0,35,0,1,,,,,,,,,,,,,,,,,,,,,,,,,,,,,,,,,,,,,,,
,,,,,,,,2023-08-16_08h13.13.853,HF_wild_card,2022.2.4,Linux x86_64,60.0132029,5db41a3f9ca75a000b71110c,64d2fd46c836a06233681665,64dc76ace7af757f82f02f92,,,,,,,,,,,,,,,,,,,,,,,,,,6,0,6,0,1,,,,,,,,,,,,,,,,,,,,,,,,,,,,,,,,,,
