Condition,Low fixed image (Door1),Low risky image (Door2),High fixed image (Door3),High risky image (Door4),NonExtreme Wild Card 1,NonExtreme Wild Card 2,,date,expName,psychopyVersion,OS,frameRate,PROLIFIC_PID,STUDY_ID,SESSION_ID,mouse_2.x,mouse_2.y,mouse_2.leftButton,mouse_2.midButton,mouse_2.rightButton,mouse_2.clicked_name,Trial Type,Left Option Image,Right Option Image,Chosen Door,mouse.x,mouse.y,mouse.leftButton,mouse.midButton,mouse.rightButton,mouse.time,mouse.clicked_name,Feedback,Cumulative Reward,Block,trial.thisRepN,trial.thisTrialN,trial.thisN,trial.thisIndex,trial.ran
2,resources/DB.BMP,resources/DY.BMP,resources/DP.BMP,resources/DR.BMP,resources/DG.BMP,resources/DBN.BMP,,2023-08-16_08h44.42,HF_wild_card,2022.2.4,MacIntel,62.5,5894b2033e061b0001dff3d3,64d2fd46c836a06233681665,64dc7e51efbc35fa1e2eb119,,,,,,,,,,,,,,,,,,,,,,,,,
,,,,,,,,2023-08-16_08h44.42,HF_wild_card,2022.2.4,MacIntel,62.5,5894b2033e061b0001dff3d3,64d2fd46c836a06233681665,64dc7e51efbc35fa1e2eb119,-0.02,-0.425,1,0,0,agree,,,,,,,,,,,,,,,,,,,
,,,,,,,,2023-08-16_08h44.42,HF_wild_card,2022.2.4,MacIntel,62.5,5894b2033e061b0001dff3d3,64d2fd46c836a06233681665,64dc7e51efbc35fa1e2eb119,,,,,,,,,,,,,,,,,,,,,,,,,
,,,,,,,,2023-08-16_08h44.42,HF_wild_card,2022.2.4,MacIntel,62.5,5894b2033e061b0001dff3d3,64d2fd46c836a06233681665,64dc7e51efbc35fa1e2eb119,,,,,,,sngl,resources/Empty.png,resources/DBN.BMP,WildCard_NonEx,0.39625,0.01,1,0,0,2.44,optionRight,55,55,1,0,0,0,0,1
,,,,,,,,2023-08-16_08h44.42,HF_wild_card,2022.2.4,MacIntel,62.5,5894b2033e061b0001dff3d3,64d2fd46c836a06233681665,64dc7e51efbc35fa1e2eb119,,,,,,,decisionTrl,resources/DB.BMP,resources/DY.BMP,Door2,0.42,-0.01375,1,0,0,2.248,optionRight,20,75,1,1,0,1,0,1
,,,,,,,,2023-08-16_08h44.42,HF_wild_card,2022.2.4,MacIntel,62.5,5894b2033e061b0001dff3d3,64d2fd46c836a06233681665,64dc7e51efbc35fa1e2eb119,,,,,,,decisionTrl,resources/DBN.BMP,resources/DP.BMP,WildCard_NonEx,-0.35375,0.02375,1,0,0,2.465,optionLeft,55,130,1,2,0,2,0,1
,,,,,,,,2023-08-16_08h44.42,HF_wild_card,2022.2.4,MacIntel,62.5,5894b2033e061b0001dff3d3,64d2fd46c836a06233681665,64dc7e51efbc35fa1e2eb119,,,,,,,sngl,resources/DBN.BMP,resources/Empty.png,WildCard_NonEx,-0.48875,0.0075,1,0,0,1.164,optionLeft,55,185,1,3,0,3,0,1
,,,,,,,,2023-08-16_08h44.42,HF_wild_card,2022.2.4,MacIntel,62.5,5894b2033e061b0001dff3d3,64d2fd46c836a06233681665,64dc7e51efbc35fa1e2eb119,,,,,,,decisionTrl,resources/DR.BMP,resources/DP.BMP,Door4,-0.395,0.07375,1,0,0,1.714,optionLeft,80,265,1,4,0,4,0,1
,,,,,,,,2023-08-16_08h44.42,HF_wild_card,2022.2.4,MacIntel,62.5,5894b2033e061b0001dff3d3,64d2fd46c836a06233681665,64dc7e51efbc35fa1e2eb119,,,,,,,decisionTrl,resources/DY.BMP,resources/DBN.BMP,WildCard_NonEx,0.345,0.03,1,0,0,1.295,optionRight,55,320,1,5,0,5,0,1
,,,,,,,,2023-08-16_08h44.42,HF_wild_card,2022.2.4,MacIntel,62.5,5894b2033e061b0001dff3d3,64d2fd46c836a06233681665,64dc7e51efbc35fa1e2eb119,,,,,,,sngl,resources/Empty.png,resources/DR.BMP,Door4,0.38375,0.03375,1,0,0,1.373,optionRight,60,380,1,6,0,6,0,1
,,,,,,,,2023-08-16_08h44.42,HF_wild_card,2022.2.4,MacIntel,62.5,5894b2033e061b0001dff3d3,64d2fd46c836a06233681665,64dc7e51efbc35fa1e2eb119,,,,,,,ctch,resources/DP.BMP,resources/DY.BMP,Door3,-0.43625,-0.04,1,0,0,1.583,optionLeft,70,450,1,7,0,7,0,1
,,,,,,,,2023-08-16_08h44.42,HF_wild_card,2022.2.4,MacIntel,62.5,5894b2033e061b0001dff3d3,64d2fd46c836a06233681665,64dc7e51efbc35fa1e2eb119,,,,,,,sngl,resources/DBN.BMP,resources/Empty.png,WildCard_NonEx,-0.475,-0.03125,1,0,0,1.196,optionLeft,45,495,1,8,0,8,0,1
,,,,,,,,2023-08-16_08h44.42,HF_wild_card,2022.2.4,MacIntel,62.5,5894b2033e061b0001dff3d3,64d2fd46c836a06233681665,64dc7e51efbc35fa1e2eb119,,,,,,,sngl,resources/DY.BMP,resources/Empty.png,Door2,-0.37,0,1,0,0,0.979,optionLeft,40,535,1,9,0,9,0,1
,,,,,,,,2023-08-16_08h44.42,HF_wild_card,2022.2.4,MacIntel,62.5,5894b2033e061b0001dff3d3,64d2fd46c836a06233681665,64dc7e51efbc35fa1e2eb119,,,,,,,ctch,resources/DB.BMP,resources/DR.BMP,Door1,-0.38875,-0.01625,1,0,0,3.063,optionLeft,30,565,1,10,0,10,0,1
,,,,,,,,2023-08-16_08h44.42,HF_wild_card,2022.2.4,MacIntel,62.5,5894b2033e061b0001dff3d3,64d2fd46c836a06233681665,64dc7e51efbc35fa1e2eb119,,,,,,,sngl,resources/DR.BMP,resources/Empty.png,Door4,-0.385,-0.04125,1,0,0,1.079,optionLeft,80,645,1,11,0,11,0,1
,,,,,,,,2023-08-16_08h44.42,HF_wild_card,2022.2.4,MacIntel,62.5,5894b2033e061b0001dff3d3,64d2fd46c836a06233681665,64dc7e51efbc35fa1e2eb119,,,,,,,ctch,resources/DP.BMP,resources/DY.BMP,Door2,0.31875,-0.03625,1,0,0,1.079,optionRight,20,665,1,12,0,12,0,1
,,,,,,,,2023-08-16_08h44.42,HF_wild_card,2022.2.4,MacIntel,62.5,5894b2033e061b0001dff3d3,64d2fd46c836a06233681665,64dc7e51efbc35fa1e2eb119,,,,,,,decisionTrl,resources/DP.BMP,resources/DR.BMP,Door3,-0.36625,-0.00625,1,0,0,0.595,optionLeft,70,735,1,13,0,13,0,1
,,,,,,,,2023-08-16_08h44.42,HF_wild_card,2022.2.4,MacIntel,62.5,5894b2033e061b0001dff3d3,64d2fd46c836a06233681665,64dc7e51efbc35fa1e2eb119,,,,,,,decisionTrl,resources/DB.BMP,resources/DY.BMP,Door1,-0.40875,0.00375,1,0,0,1.246,optionLeft,30,765,1,14,0,14,0,1
,,,,,,,,2023-08-16_08h44.42,HF_wild_card,2022.2.4,MacIntel,62.5,5894b2033e061b0001dff3d3,64d2fd46c836a06233681665,64dc7e51efbc35fa1e2eb119,,,,,,,sngl,resources/Empty.png,resources/DP.BMP,Door3,0.32375,-0.0125,1,0,0,0.986,optionRight,70,835,1,15,0,15,0,1
,,,,,,,,2023-08-16_08h44.42,HF_wild_card,2022.2.4,MacIntel,62.5,5894b2033e061b0001dff3d3,64d2fd46c836a06233681665,64dc7e51efbc35fa1e2eb119,,,,,,,decisionTrl,resources/DP.BMP,resources/DR.BMP,Door3,-0.3375,-0.05,1,0,0,1.251,optionLeft,70,905,1,16,0,16,0,1
,,,,,,,,2023-08-16_08h44.42,HF_wild_card,2022.2.4,MacIntel,62.5,5894b2033e061b0001dff3d3,64d2fd46c836a06233681665,64dc7e51efbc35fa1e2eb119,,,,,,,ctch,resources/DY.BMP,resources/DP.BMP,Door3,0.385,-0.0325,1,0,0,1.713,optionRight,70,975,1,17,0,17,0,1
,,,,,,,,2023-08-16_08h44.42,HF_wild_card,2022.2.4,MacIntel,62.5,5894b2033e061b0001dff3d3,64d2fd46c836a06233681665,64dc7e51efbc35fa1e2eb119,,,,,,,decisionTrl,resources/DY.BMP,resources/DB.BMP,Door2,-0.3775,0.03875,1,0,0,1.514,optionLeft,40,1015,1,18,0,18,0,1
,,,,,,,,2023-08-16_08h44.42,HF_wild_card,2022.2.4,MacIntel,62.5,5894b2033e061b0001dff3d3,64d2fd46c836a06233681665,64dc7e51efbc35fa1e2eb119,,,,,,,sngl,resources/DP.BMP,resources/Empty.png,Door3,-0.32875,-0.0275,1,0,0,0.998,optionLeft,70,1085,1,19,0,19,0,1
,,,,,,,,2023-08-16_08h44.42,HF_wild_card,2022.2.4,MacIntel,62.5,5894b2033e061b0001dff3d3,64d2fd46c836a06233681665,64dc7e51efbc35fa1e2eb119,,,,,,,ctch,resources/DR.BMP,resources/DB.BMP,Door4,-0.3575,-0.03,1,0,0,1.562,optionLeft,60,1145,1,20,0,20,0,1
,,,,,,,,2023-08-16_08h44.42,HF_wild_card,2022.2.4,MacIntel,62.5,5894b2033e061b0001dff3d3,64d2fd46c836a06233681665,64dc7e51efbc35fa1e2eb119,,,,,,,decisionTrl,resources/DBN.BMP,resources/DY.BMP,WildCard_NonEx,-0.33625,-0.0125,1,0,0,1.294,optionLeft,45,1190,1,21,0,21,0,1
,,,,,,,,2023-08-16_08h44.42,HF_wild_card,2022.2.4,MacIntel,62.5,5894b2033e061b0001dff3d3,64d2fd46c836a06233681665,64dc7e51efbc35fa1e2eb119,,,,,,,decisionTrl,resources/DP.BMP,resources/DBN.BMP,Door3,-0.4075,-0.0375,1,0,0,1.816,optionLeft,70,1260,1,22,0,22,0,1
,,,,,,,,2023-08-16_08h44.42,HF_wild_card,2022.2.4,MacIntel,62.5,5894b2033e061b0001dff3d3,64d2fd46c836a06233681665,64dc7e51efbc35fa1e2eb119,,,,,,,decisionTrl,resources/DR.BMP,resources/DP.BMP,Door3,0.4075,-0.0075,1,0,0,0.945,optionRight,70,1330,1,23,0,23,0,1
,,,,,,,,2023-08-16_08h44.42,HF_wild_card,2022.2.4,MacIntel,62.5,5894b2033e061b0001dff3d3,64d2fd46c836a06233681665,64dc7e51efbc35fa1e2eb119,,,,,,,decisionTrl,resources/DR.BMP,resources/DP.BMP,Door3,0.30625,0.00875,1,0,0,0.847,optionRight,70,1400,1,24,0,24,0,1
,,,,,,,,2023-08-16_08h44.42,HF_wild_card,2022.2.4,MacIntel,62.5,5894b2033e061b0001dff3d3,64d2fd46c836a06233681665,64dc7e51efbc35fa1e2eb119,,,,,,,decisionTrl,resources/DB.BMP,resources/DY.BMP,Door2,0.40625,-0.0675,1,0,0,1.863,optionRight,40,1440,1,25,0,25,0,1
,,,,,,,,2023-08-16_08h44.42,HF_wild_card,2022.2.4,MacIntel,62.5,5894b2033e061b0001dff3d3,64d2fd46c836a06233681665,64dc7e51efbc35fa1e2eb119,,,,,,,decisionTrl,resources/DBN.BMP,resources/DR.BMP,WildCard_NonEx,-0.3425,0.0425,1,0,0,1.93,optionLeft,55,1495,1,26,0,26,0,1
,,,,,,,,2023-08-16_08h44.42,HF_wild_card,2022.2.4,MacIntel,62.5,5894b2033e061b0001dff3d3,64d2fd46c836a06233681665,64dc7e51efbc35fa1e2eb119,,,,,,,sngl,resources/Empty.png,resources/DB.BMP,Door1,0.37125,-0.00125,1,0,0,1.249,optionRight,30,1525,1,27,0,27,0,1
,,,,,,,,2023-08-16_08h44.42,HF_wild_card,2022.2.4,MacIntel,62.5,5894b2033e061b0001dff3d3,64d2fd46c836a06233681665,64dc7e51efbc35fa1e2eb119,,,,,,,ctch,resources/DR.BMP,resources/DB.BMP,Door4,-0.41,0.00875,1,0,0,2.813,optionLeft,80,1605,1,28,0,28,0,1
,,,,,,,,2023-08-16_08h44.42,HF_wild_card,2022.2.4,MacIntel,62.5,5894b2033e061b0001dff3d3,64d2fd46c836a06233681665,64dc7e51efbc35fa1e2eb119,,,,,,,decisionTrl,resources/DB.BMP,resources/DBN.BMP,WildCard_NonEx,0.47,-0.00375,1,0,0,1.077,optionRight,45,1650,1,29,0,29,0,1
,,,,,,,,2023-08-16_08h44.42,HF_wild_card,2022.2.4,MacIntel,62.5,5894b2033e061b0001dff3d3,64d2fd46c836a06233681665,64dc7e51efbc35fa1e2eb119,,,,,,,decisionTrl,resources/DY.BMP,resources/DB.BMP,Door2,-0.40625,-0.02125,1,0,0,1.408,optionLeft,20,1670,1,30,0,30,0,1
,,,,,,,,2023-08-16_08h44.42,HF_wild_card,2022.2.4,MacIntel,62.5,5894b2033e061b0001dff3d3,64d2fd46c836a06233681665,64dc7e51efbc35fa1e2eb119,,,,,,,sngl,resources/Empty.png,resources/DY.BMP,Door2,0.3,-0.015,1,0,0,0.944,optionRight,20,1690,1,31,0,31,0,1
,,,,,,,,2023-08-16_08h44.42,HF_wild_card,2022.2.4,MacIntel,62.5,5894b2033e061b0001dff3d3,64d2fd46c836a06233681665,64dc7e51efbc35fa1e2eb119,,,,,,,decisionTrl,resources/DB.BMP,resources/DY.BMP,Door1,-0.2875,0.03125,1,0,0,2.381,optionLeft,30,1720,1,32,0,32,0,1
,,,,,,,,2023-08-16_08h44.42,HF_wild_card,2022.2.4,MacIntel,62.5,5894b2033e061b0001dff3d3,64d2fd46c836a06233681665,64dc7e51efbc35fa1e2eb119,,,,,,,ctch,resources/DY.BMP,resources/DP.BMP,Door3,0.34375,-0.065,1,0,0,1.846,optionRight,70,1790,1,33,0,33,0,1
,,,,,,,,2023-08-16_08h44.42,HF_wild_card,2022.2.4,MacIntel,62.5,5894b2033e061b0001dff3d3,64d2fd46c836a06233681665,64dc7e51efbc35fa1e2eb119,,,,,,,decisionTrl,resources/DP.BMP,resources/DR.BMP,Door3,-0.42375,-0.05875,1,0,0,1.277,optionLeft,70,1860,1,34,0,34,0,1
,,,,,,,,2023-08-16_08h44.42,HF_wild_card,2022.2.4,MacIntel,62.5,5894b2033e061b0001dff3d3,64d2fd46c836a06233681665,64dc7e51efbc35fa1e2eb119,,,,,,,decisionTrl,resources/DY.BMP,resources/DB.BMP,Door1,0.27375,-0.00375,1,0,0,4.364,optionRight,30,1890,1,35,0,35,0,1
,,,,,,,,2023-08-16_08h44.42,HF_wild_card,2022.2.4,MacIntel,62.5,5894b2033e061b0001dff3d3,64d2fd46c836a06233681665,64dc7e51efbc35fa1e2eb119,,,,,,,sngl,resources/DB.BMP,resources/Empty.png,Door1,-0.36875,0.01,1,0,0,1.175,optionLeft,30,1920,1,36,0,36,0,1
,,,,,,,,2023-08-16_08h44.42,HF_wild_card,2022.2.4,MacIntel,62.5,5894b2033e061b0001dff3d3,64d2fd46c836a06233681665,64dc7e51efbc35fa1e2eb119,,,,,,,sngl,resources/Empty.png,resources/DBN.BMP,WildCard_NonEx,0.30625,-0.01875,1,0,0,1.283,optionRight,45,1965,1,37,0,37,0,1
,,,,,,,,2023-08-16_08h44.42,HF_wild_card,2022.2.4,MacIntel,62.5,5894b2033e061b0001dff3d3,64d2fd46c836a06233681665,64dc7e51efbc35fa1e2eb119,,,,,,,decisionTrl,resources/DP.BMP,resources/DR.BMP,Door3,-0.4325,-0.05875,1,0,0,1.119,optionLeft,70,2035,1,38,0,38,0,1
,,,,,,,,2023-08-16_08h44.42,HF_wild_card,2022.2.4,MacIntel,62.5,5894b2033e061b0001dff3d3,64d2fd46c836a06233681665,64dc7e51efbc35fa1e2eb119,,,,,,,ctch,resources/DB.BMP,resources/DR.BMP,Door4,0.3575,-0.10875,1,0,0,1.555,optionRight,60,2095,1,39,0,39,0,1
,,,,,,,,2023-08-16_08h44.42,HF_wild_card,2022.2.4,MacIntel,62.5,5894b2033e061b0001dff3d3,64d2fd46c836a06233681665,64dc7e51efbc35fa1e2eb119,,,,,,,decisionTrl,resources/DR.BMP,resources/DP.BMP,Door3,0.48625,-0.10625,1,0,0,1.287,optionRight,70,2165,1,40,0,40,0,1
,,,,,,,,2023-08-16_08h44.42,HF_wild_card,2022.2.4,MacIntel,62.5,5894b2033e061b0001dff3d3,64d2fd46c836a06233681665,64dc7e51efbc35fa1e2eb119,,,,,,,decisionTrl,resources/DY.BMP,resources/DB.BMP,Door2,-0.4175,0.015,1,0,0,2.043,optionLeft,40,2205,1,41,0,41,0,1
,,,,,,,,2023-08-16_08h44.42,HF_wild_card,2022.2.4,MacIntel,62.5,5894b2033e061b0001dff3d3,64d2fd46c836a06233681665,64dc7e51efbc35fa1e2eb119,,,,,,,decisionTrl,resources/DBN.BMP,resources/DB.BMP,WildCard_NonEx,-0.2875,0.03125,1,0,0,1.254,optionLeft,55,2260,1,42,0,42,0,1
,,,,,,,,2023-08-16_08h44.42,HF_wild_card,2022.2.4,MacIntel,62.5,5894b2033e061b0001dff3d3,64d2fd46c836a06233681665,64dc7e51efbc35fa1e2eb119,,,,,,,decisionTrl,resources/DR.BMP,resources/DBN.BMP,WildCard_NonEx,0.35375,-0.0225,1,0,0,1.486,optionRight,55,2315,1,43,0,43,0,1
