Condition,Low fixed image (Door1),Low risky image (Door2),High fixed image (Door3),High risky image (Door4),NonExtreme Wild Card 1,NonExtreme Wild Card 2,,date,expName,psychopyVersion,OS,frameRate,PROLIFIC_PID,STUDY_ID,SESSION_ID,mouse_2.x,mouse_2.y,mouse_2.leftButton,mouse_2.midButton,mouse_2.rightButton,mouse_2.clicked_name,Trial Type,Left Option Image,Right Option Image,Chosen Door,mouse.x,mouse.y,mouse.leftButton,mouse.midButton,mouse.rightButton,mouse.time,mouse.clicked_name,Feedback,Cumulative Reward,Block,trial.thisRepN,trial.thisTrialN,trial.thisN,trial.thisIndex,trial.ran,blocks.thisRepN,blocks.thisTrialN,blocks.thisN,blocks.thisIndex,blocks.ran,Money conversion,First Outcome Reported,Shown Door (First Outcome),Displayed Image (First Outcome),outcomes.thisRepN,outcomes.thisTrialN,outcomes.thisN,outcomes.thisIndex,outcomes.ran,judgments.thisRepN,judgments.thisTrialN,judgments.thisN,judgments.thisIndex,judgments.ran,freqMouse.x,freqMouse.y,freqMouse.leftButton,freqMouse.midButton,freqMouse.rightButton,freqMouse.clicked_name,trials.thisRepN,trials.thisTrialN,trials.thisN,trials.thisIndex,trials.ran,FQJ for first outcome,FQJ for second outcome,Shown Door,Displayed Image,judgBlock.thisRepN,judgBlock.thisTrialN,judgBlock.thisN,judgBlock.thisIndex,judgBlock.ran
2,resources/DP.BMP,resources/DB.BMP,resources/DR.BMP,resources/DY.BMP,resources/DG.BMP,resources/DBN.BMP,,2023-08-16_08h53.16.229,HF_wild_card,2022.2.4,Win32,59.95203837,5ed934569883864994ac0b97,64d2fd46c836a06233681665,64dc7f853d6dee47b7f02f73,,,,,,,,,,,,,,,,,,,,,,,,,,,,,,,,,,,,,,,,,,,,,,,,,,,,,,,,,,,,,,,,
,,,,,,,,2023-08-16_08h53.16.229,HF_wild_card,2022.2.4,Win32,59.95203837,5ed934569883864994ac0b97,64d2fd46c836a06233681665,64dc7f853d6dee47b7f02f73,-0.002777778,-0.422222222,1,0,0,agree,,,,,,,,,,,,,,,,,,,,,,,,,,,,,,,,,,,,,,,,,,,,,,,,,,,,,,,,,,
,,,,,,,,2023-08-16_08h53.16.229,HF_wild_card,2022.2.4,Win32,59.95203837,5ed934569883864994ac0b97,64d2fd46c836a06233681665,64dc7f853d6dee47b7f02f73,,,,,,,,,,,,,,,,,,,,,,,,,,,,,,,,,,,,,,,,,,,,,,,,,,,,,,,,,,,,,,,,
,,,,,,,,2023-08-16_08h53.16.229,HF_wild_card,2022.2.4,Win32,59.95203837,5ed934569883864994ac0b97,64d2fd46c836a06233681665,64dc7f853d6dee47b7f02f73,,,,,,,decisionTrl,resources/DR.BMP,resources/DBN.BMP,Door3,-0.325925926,-0.085185185,1,0,0,2.811,optionLeft,70,70,1,0,0,0,0,1,,,,,,,,,,,,,,,,,,,,,,,,,,,,,,,,,,,,,,,
,,,,,,,,2023-08-16_08h53.16.229,HF_wild_card,2022.2.4,Win32,59.95203837,5ed934569883864994ac0b97,64d2fd46c836a06233681665,64dc7f853d6dee47b7f02f73,,,,,,,decisionTrl,resources/DB.BMP,resources/DP.BMP,Door1,0.24537037,0.001851852,1,0,0,0.998,optionRight,30,100,1,1,0,1,0,1,,,,,,,,,,,,,,,,,,,,,,,,,,,,,,,,,,,,,,,
,,,,,,,,2023-08-16_08h53.16.229,HF_wild_card,2022.2.4,Win32,59.95203837,5ed934569883864994ac0b97,64d2fd46c836a06233681665,64dc7f853d6dee47b7f02f73,,,,,,,decisionTrl,resources/DY.BMP,resources/DR.BMP,Door4,-0.209259259,-0.035185185,1,0,0,0.699,optionLeft,80,180,1,2,0,2,0,1,,,,,,,,,,,,,,,,,,,,,,,,,,,,,,,,,,,,,,,
,,,,,,,,2023-08-16_08h53.16.229,HF_wild_card,2022.2.4,Win32,59.95203837,5ed934569883864994ac0b97,64d2fd46c836a06233681665,64dc7f853d6dee47b7f02f73,,,,,,,sngl,resources/Empty.png,resources/DP.BMP,Door1,0.393518519,0.014814815,1,0,0,0.565,optionRight,30,210,1,3,0,3,0,1,,,,,,,,,,,,,,,,,,,,,,,,,,,,,,,,,,,,,,,
,,,,,,,,2023-08-16_08h53.16.229,HF_wild_card,2022.2.4,Win32,59.95203837,5ed934569883864994ac0b97,64d2fd46c836a06233681665,64dc7f853d6dee47b7f02f73,,,,,,,sngl,resources/DBN.BMP,resources/Empty.png,WildCard_NonEx,-0.172222222,-0.006481481,1,0,0,0.598,optionLeft,55,265,1,4,0,4,0,1,,,,,,,,,,,,,,,,,,,,,,,,,,,,,,,,,,,,,,,
,,,,,,,,2023-08-16_08h53.16.229,HF_wild_card,2022.2.4,Win32,59.95203837,5ed934569883864994ac0b97,64d2fd46c836a06233681665,64dc7f853d6dee47b7f02f73,,,,,,,decisionTrl,resources/DY.BMP,resources/DR.BMP,Door4,-0.290740741,-0.010185185,1,0,0,0.832,optionLeft,60,325,1,5,0,5,0,1,,,,,,,,,,,,,,,,,,,,,,,,,,,,,,,,,,,,,,,
,,,,,,,,2023-08-16_08h53.16.229,HF_wild_card,2022.2.4,Win32,59.95203837,5ed934569883864994ac0b97,64d2fd46c836a06233681665,64dc7f853d6dee47b7f02f73,,,,,,,decisionTrl,resources/DR.BMP,resources/DY.BMP,Door4,0.3,0,1,0,0,0.781,optionRight,60,385,1,6,0,6,0,1,,,,,,,,,,,,,,,,,,,,,,,,,,,,,,,,,,,,,,,
,,,,,,,,2023-08-16_08h53.16.229,HF_wild_card,2022.2.4,Win32,59.95203837,5ed934569883864994ac0b97,64d2fd46c836a06233681665,64dc7f853d6dee47b7f02f73,,,,,,,decisionTrl,resources/DR.BMP,resources/DY.BMP,Door3,-0.257407407,-0.012962963,1,0,0,0.583,optionLeft,70,455,1,7,0,7,0,1,,,,,,,,,,,,,,,,,,,,,,,,,,,,,,,,,,,,,,,
,,,,,,,,2023-08-16_08h53.16.229,HF_wild_card,2022.2.4,Win32,59.95203837,5ed934569883864994ac0b97,64d2fd46c836a06233681665,64dc7f853d6dee47b7f02f73,,,,,,,decisionTrl,resources/DB.BMP,resources/DP.BMP,Door1,0.386111111,-0.015740741,1,0,0,0.616,optionRight,30,485,1,8,0,8,0,1,,,,,,,,,,,,,,,,,,,,,,,,,,,,,,,,,,,,,,,
,,,,,,,,2023-08-16_08h53.16.229,HF_wild_card,2022.2.4,Win32,59.95203837,5ed934569883864994ac0b97,64d2fd46c836a06233681665,64dc7f853d6dee47b7f02f73,,,,,,,decisionTrl,resources/DB.BMP,resources/DP.BMP,Door2,-0.412962963,-0.02962963,1,0,0,0.634,optionLeft,20,505,1,9,0,9,0,1,,,,,,,,,,,,,,,,,,,,,,,,,,,,,,,,,,,,,,,
,,,,,,,,2023-08-16_08h53.16.229,HF_wild_card,2022.2.4,Win32,59.95203837,5ed934569883864994ac0b97,64d2fd46c836a06233681665,64dc7f853d6dee47b7f02f73,,,,,,,ctch,resources/DY.BMP,resources/DP.BMP,Door1,0.237962963,-0.010185185,1,0,0,0.597,optionRight,30,535,1,10,0,10,0,1,,,,,,,,,,,,,,,,,,,,,,,,,,,,,,,,,,,,,,,
,,,,,,,,2023-08-16_08h53.16.229,HF_wild_card,2022.2.4,Win32,59.95203837,5ed934569883864994ac0b97,64d2fd46c836a06233681665,64dc7f853d6dee47b7f02f73,,,,,,,ctch,resources/DR.BMP,resources/DB.BMP,Door2,0.278703704,-0.002777778,1,0,0,1.166,optionRight,40,575,1,11,0,11,0,1,,,,,,,,,,,,,,,,,,,,,,,,,,,,,,,,,,,,,,,
,,,,,,,,2023-08-16_08h53.16.229,HF_wild_card,2022.2.4,Win32,59.95203837,5ed934569883864994ac0b97,64d2fd46c836a06233681665,64dc7f853d6dee47b7f02f73,,,,,,,sngl,resources/Empty.png,resources/DBN.BMP,WildCard_NonEx,0.194444444,0.013888889,1,0,0,0.899,optionRight,55,630,1,12,0,12,0,1,,,,,,,,,,,,,,,,,,,,,,,,,,,,,,,,,,,,,,,
,,,,,,,,2023-08-16_08h53.16.229,HF_wild_card,2022.2.4,Win32,59.95203837,5ed934569883864994ac0b97,64d2fd46c836a06233681665,64dc7f853d6dee47b7f02f73,,,,,,,decisionTrl,resources/DBN.BMP,resources/DB.BMP,WildCard_NonEx,-0.303703704,0.002777778,1,0,0,0.665,optionLeft,45,675,1,13,0,13,0,1,,,,,,,,,,,,,,,,,,,,,,,,,,,,,,,,,,,,,,,
,,,,,,,,2023-08-16_08h53.16.229,HF_wild_card,2022.2.4,Win32,59.95203837,5ed934569883864994ac0b97,64d2fd46c836a06233681665,64dc7f853d6dee47b7f02f73,,,,,,,decisionTrl,resources/DBN.BMP,resources/DP.BMP,Door1,0.375,0,1,0,0,1.351,optionRight,30,705,1,14,0,14,0,1,,,,,,,,,,,,,,,,,,,,,,,,,,,,,,,,,,,,,,,
,,,,,,,,2023-08-16_08h53.16.229,HF_wild_card,2022.2.4,Win32,59.95203837,5ed934569883864994ac0b97,64d2fd46c836a06233681665,64dc7f853d6dee47b7f02f73,,,,,,,sngl,resources/Empty.png,resources/DBN.BMP,WildCard_NonEx,0.366666667,0.003703704,1,0,0,0.582,optionRight,45,750,1,15,0,15,0,1,,,,,,,,,,,,,,,,,,,,,,,,,,,,,,,,,,,,,,,
,,,,,,,,2023-08-16_08h53.16.229,HF_wild_card,2022.2.4,Win32,59.95203837,5ed934569883864994ac0b97,64d2fd46c836a06233681665,64dc7f853d6dee47b7f02f73,,,,,,,decisionTrl,resources/DY.BMP,resources/DBN.BMP,Door4,-0.225,0.007407407,1,0,0,1.15,optionLeft,80,830,1,16,0,16,0,1,,,,,,,,,,,,,,,,,,,,,,,,,,,,,,,,,,,,,,,
,,,,,,,,2023-08-16_08h53.16.229,HF_wild_card,2022.2.4,Win32,59.95203837,5ed934569883864994ac0b97,64d2fd46c836a06233681665,64dc7f853d6dee47b7f02f73,,,,,,,decisionTrl,resources/DBN.BMP,resources/DR.BMP,WildCard_NonEx,-0.275925926,-0.007407407,1,0,0,0.699,optionLeft,45,875,1,17,0,17,0,1,,,,,,,,,,,,,,,,,,,,,,,,,,,,,,,,,,,,,,,
,,,,,,,,2023-08-16_08h53.16.229,HF_wild_card,2022.2.4,Win32,59.95203837,5ed934569883864994ac0b97,64d2fd46c836a06233681665,64dc7f853d6dee47b7f02f73,,,,,,,sngl,resources/Empty.png,resources/DY.BMP,Door4,0.255555556,0.011111111,1,0,0,0.481,optionRight,60,935,1,18,0,18,0,1,,,,,,,,,,,,,,,,,,,,,,,,,,,,,,,,,,,,,,,
,,,,,,,,2023-08-16_08h53.16.229,HF_wild_card,2022.2.4,Win32,59.95203837,5ed934569883864994ac0b97,64d2fd46c836a06233681665,64dc7f853d6dee47b7f02f73,,,,,,,decisionTrl,resources/DR.BMP,resources/DY.BMP,Door4,0.291666667,0.051851852,1,0,0,1.383,optionRight,60,995,1,19,0,19,0,1,,,,,,,,,,,,,,,,,,,,,,,,,,,,,,,,,,,,,,,
,,,,,,,,2023-08-16_08h53.16.229,HF_wild_card,2022.2.4,Win32,59.95203837,5ed934569883864994ac0b97,64d2fd46c836a06233681665,64dc7f853d6dee47b7f02f73,,,,,,,ctch,resources/DB.BMP,resources/DR.BMP,Door2,-0.137037037,-0.018518519,1,0,0,0.665,optionLeft,20,1015,1,20,0,20,0,1,,,,,,,,,,,,,,,,,,,,,,,,,,,,,,,,,,,,,,,
,,,,,,,,2023-08-16_08h53.16.229,HF_wild_card,2022.2.4,Win32,59.95203837,5ed934569883864994ac0b97,64d2fd46c836a06233681665,64dc7f853d6dee47b7f02f73,,,,,,,ctch,resources/DP.BMP,resources/DY.BMP,Door1,-0.175925926,-0.018518519,1,0,0,0.631,optionLeft,30,1045,1,21,0,21,0,1,,,,,,,,,,,,,,,,,,,,,,,,,,,,,,,,,,,,,,,
,,,,,,,,2023-08-16_08h53.16.229,HF_wild_card,2022.2.4,Win32,59.95203837,5ed934569883864994ac0b97,64d2fd46c836a06233681665,64dc7f853d6dee47b7f02f73,,,,,,,decisionTrl,resources/DP.BMP,resources/DB.BMP,Door2,0.351851852,0.013888889,1,0,0,0.898,optionRight,20,1065,1,22,0,22,0,1,,,,,,,,,,,,,,,,,,,,,,,,,,,,,,,,,,,,,,,
,,,,,,,,2023-08-16_08h53.16.229,HF_wild_card,2022.2.4,Win32,59.95203837,5ed934569883864994ac0b97,64d2fd46c836a06233681665,64dc7f853d6dee47b7f02f73,,,,,,,sngl,resources/Empty.png,resources/DR.BMP,Door3,0.330555556,0.026851852,1,0,0,0.549,optionRight,70,1135,1,23,0,23,0,1,,,,,,,,,,,,,,,,,,,,,,,,,,,,,,,,,,,,,,,
,,,,,,,,2023-08-16_08h53.16.229,HF_wild_card,2022.2.4,Win32,59.95203837,5ed934569883864994ac0b97,64d2fd46c836a06233681665,64dc7f853d6dee47b7f02f73,,,,,,,decisionTrl,resources/DP.BMP,resources/DB.BMP,Door1,-0.190740741,-0.013888889,1,0,0,0.578,optionLeft,30,1165,1,24,0,24,0,1,,,,,,,,,,,,,,,,,,,,,,,,,,,,,,,,,,,,,,,
,,,,,,,,2023-08-16_08h53.16.229,HF_wild_card,2022.2.4,Win32,59.95203837,5ed934569883864994ac0b97,64d2fd46c836a06233681665,64dc7f853d6dee47b7f02f73,,,,,,,ctch,resources/DY.BMP,resources/DP.BMP,Door4,-0.200925926,0.006481481,1,0,0,0.715,optionLeft,60,1225,1,25,0,25,0,1,,,,,,,,,,,,,,,,,,,,,,,,,,,,,,,,,,,,,,,
,,,,,,,,2023-08-16_08h53.16.229,HF_wild_card,2022.2.4,Win32,59.95203837,5ed934569883864994ac0b97,64d2fd46c836a06233681665,64dc7f853d6dee47b7f02f73,,,,,,,ctch,resources/DR.BMP,resources/DB.BMP,Door3,-0.183333333,0.005555556,1,0,0,1.082,optionLeft,70,1295,1,26,0,26,0,1,,,,,,,,,,,,,,,,,,,,,,,,,,,,,,,,,,,,,,,
,,,,,,,,2023-08-16_08h53.16.229,HF_wild_card,2022.2.4,Win32,59.95203837,5ed934569883864994ac0b97,64d2fd46c836a06233681665,64dc7f853d6dee47b7f02f73,,,,,,,decisionTrl,resources/DY.BMP,resources/DR.BMP,Door3,0.30462963,0.038888889,1,0,0,0.732,optionRight,70,1365,1,27,0,27,0,1,,,,,,,,,,,,,,,,,,,,,,,,,,,,,,,,,,,,,,,
,,,,,,,,2023-08-16_08h53.16.229,HF_wild_card,2022.2.4,Win32,59.95203837,5ed934569883864994ac0b97,64d2fd46c836a06233681665,64dc7f853d6dee47b7f02f73,,,,,,,decisionTrl,resources/DP.BMP,resources/DB.BMP,Door1,-0.277777778,0.002777778,1,0,0,0.683,optionLeft,30,1395,1,28,0,28,0,1,,,,,,,,,,,,,,,,,,,,,,,,,,,,,,,,,,,,,,,
,,,,,,,,2023-08-16_08h53.16.229,HF_wild_card,2022.2.4,Win32,59.95203837,5ed934569883864994ac0b97,64d2fd46c836a06233681665,64dc7f853d6dee47b7f02f73,,,,,,,decisionTrl,resources/DY.BMP,resources/DR.BMP,Door3,0.322222222,0.015740741,1,0,0,0.983,optionRight,70,1465,1,29,0,29,0,1,,,,,,,,,,,,,,,,,,,,,,,,,,,,,,,,,,,,,,,
,,,,,,,,2023-08-16_08h53.16.229,HF_wild_card,2022.2.4,Win32,59.95203837,5ed934569883864994ac0b97,64d2fd46c836a06233681665,64dc7f853d6dee47b7f02f73,,,,,,,sngl,resources/DY.BMP,resources/Empty.png,Door4,-0.225925926,0.003703704,1,0,0,0.682,optionLeft,80,1545,1,30,0,30,0,1,,,,,,,,,,,,,,,,,,,,,,,,,,,,,,,,,,,,,,,
,,,,,,,,2023-08-16_08h53.16.229,HF_wild_card,2022.2.4,Win32,59.95203837,5ed934569883864994ac0b97,64d2fd46c836a06233681665,64dc7f853d6dee47b7f02f73,,,,,,,sngl,resources/DB.BMP,resources/Empty.png,Door2,-0.372222222,0.031481481,1,0,0,0.782,optionLeft,40,1585,1,31,0,31,0,1,,,,,,,,,,,,,,,,,,,,,,,,,,,,,,,,,,,,,,,
,,,,,,,,2023-08-16_08h53.16.229,HF_wild_card,2022.2.4,Win32,59.95203837,5ed934569883864994ac0b97,64d2fd46c836a06233681665,64dc7f853d6dee47b7f02f73,,,,,,,decisionTrl,resources/DB.BMP,resources/DP.BMP,Door1,0.225925926,0.02037037,1,0,0,1.449,optionRight,30,1615,1,32,0,32,0,1,,,,,,,,,,,,,,,,,,,,,,,,,,,,,,,,,,,,,,,
,,,,,,,,2023-08-16_08h53.16.229,HF_wild_card,2022.2.4,Win32,59.95203837,5ed934569883864994ac0b97,64d2fd46c836a06233681665,64dc7f853d6dee47b7f02f73,,,,,,,sngl,resources/DR.BMP,resources/Empty.png,Door3,-0.232407407,0.008333333,1,0,0,0.498,optionLeft,70,1685,1,33,0,33,0,1,,,,,,,,,,,,,,,,,,,,,,,,,,,,,,,,,,,,,,,
,,,,,,,,2023-08-16_08h53.16.229,HF_wild_card,2022.2.4,Win32,59.95203837,5ed934569883864994ac0b97,64d2fd46c836a06233681665,64dc7f853d6dee47b7f02f73,,,,,,,sngl,resources/Empty.png,resources/DB.BMP,Door2,0.175925926,-0.00462963,1,0,0,0.615,optionRight,20,1705,1,34,0,34,0,1,,,,,,,,,,,,,,,,,,,,,,,,,,,,,,,,,,,,,,,
,,,,,,,,2023-08-16_08h53.16.229,HF_wild_card,2022.2.4,Win32,59.95203837,5ed934569883864994ac0b97,64d2fd46c836a06233681665,64dc7f853d6dee47b7f02f73,,,,,,,ctch,resources/DP.BMP,resources/DY.BMP,Door4,0.303703704,0.012962963,1,0,0,1.617,optionRight,80,1785,1,35,0,35,0,1,,,,,,,,,,,,,,,,,,,,,,,,,,,,,,,,,,,,,,,
,,,,,,,,2023-08-16_08h53.16.229,HF_wild_card,2022.2.4,Win32,59.95203837,5ed934569883864994ac0b97,64d2fd46c836a06233681665,64dc7f853d6dee47b7f02f73,,,,,,,decisionTrl,resources/DR.BMP,resources/DY.BMP,Door3,-0.146296296,0.002777778,1,0,0,1.033,optionLeft,70,1855,1,36,0,36,0,1,,,,,,,,,,,,,,,,,,,,,,,,,,,,,,,,,,,,,,,
,,,,,,,,2023-08-16_08h53.16.229,HF_wild_card,2022.2.4,Win32,59.95203837,5ed934569883864994ac0b97,64d2fd46c836a06233681665,64dc7f853d6dee47b7f02f73,,,,,,,sngl,resources/DBN.BMP,resources/Empty.png,WildCard_NonEx,-0.176851852,0.002777778,1,0,0,0.732,optionLeft,45,1900,1,37,0,37,0,1,,,,,,,,,,,,,,,,,,,,,,,,,,,,,,,,,,,,,,,
,,,,,,,,2023-08-16_08h53.16.229,HF_wild_card,2022.2.4,Win32,59.95203837,5ed934569883864994ac0b97,64d2fd46c836a06233681665,64dc7f853d6dee47b7f02f73,,,,,,,decisionTrl,resources/DP.BMP,resources/DB.BMP,Door2,0.175925926,-0.001851852,1,0,0,2.047,optionRight,40,1940,1,38,0,38,0,1,,,,,,,,,,,,,,,,,,,,,,,,,,,,,,,,,,,,,,,
,,,,,,,,2023-08-16_08h53.16.229,HF_wild_card,2022.2.4,Win32,59.95203837,5ed934569883864994ac0b97,64d2fd46c836a06233681665,64dc7f853d6dee47b7f02f73,,,,,,,decisionTrl,resources/DP.BMP,resources/DBN.BMP,Door1,-0.168518519,0.016666667,1,0,0,0.865,optionLeft,30,1970,1,39,0,39,0,1,,,,,,,,,,,,,,,,,,,,,,,,,,,,,,,,,,,,,,,
,,,,,,,,2023-08-16_08h53.16.229,HF_wild_card,2022.2.4,Win32,59.95203837,5ed934569883864994ac0b97,64d2fd46c836a06233681665,64dc7f853d6dee47b7f02f73,,,,,,,ctch,resources/DB.BMP,resources/DR.BMP,Door3,0.305555556,0.02037037,1,0,0,1.501,optionRight,70,2040,1,40,0,40,0,1,,,,,,,,,,,,,,,,,,,,,,,,,,,,,,,,,,,,,,,
,,,,,,,,2023-08-16_08h53.16.229,HF_wild_card,2022.2.4,Win32,59.95203837,5ed934569883864994ac0b97,64d2fd46c836a06233681665,64dc7f853d6dee47b7f02f73,,,,,,,decisionTrl,resources/DBN.BMP,resources/DY.BMP,WildCard_NonEx,-0.238888889,0.016666667,1,0,0,0.632,optionLeft,55,2095,1,41,0,41,0,1,,,,,,,,,,,,,,,,,,,,,,,,,,,,,,,,,,,,,,,
,,,,,,,,2023-08-16_08h53.16.229,HF_wild_card,2022.2.4,Win32,59.95203837,5ed934569883864994ac0b97,64d2fd46c836a06233681665,64dc7f853d6dee47b7f02f73,,,,,,,sngl,resources/DP.BMP,resources/Empty.png,Door1,-0.282407407,-0.000925926,1,0,0,0.582,optionLeft,30,2125,1,42,0,42,0,1,,,,,,,,,,,,,,,,,,,,,,,,,,,,,,,,,,,,,,,
,,,,,,,,2023-08-16_08h53.16.229,HF_wild_card,2022.2.4,Win32,59.95203837,5ed934569883864994ac0b97,64d2fd46c836a06233681665,64dc7f853d6dee47b7f02f73,,,,,,,decisionTrl,resources/DB.BMP,resources/DBN.BMP,WildCard_NonEx,0.27037037,0.009259259,1,0,0,0.681,optionRight,55,2180,1,43,0,43,0,1,,,,,,,,,,,,,,,,,,,,,,,,,,,,,,,,,,,,,,,
,,,,,,,,2023-08-16_08h53.16.229,HF_wild_card,2022.2.4,Win32,59.95203837,5ed934569883864994ac0b97,64d2fd46c836a06233681665,64dc7f853d6dee47b7f02f73,,,,,,,,,,,,,,,,,,,,,,,,,,0,0,0,0,1,,,,,,,,,,,,,,,,,,,,,,,,,,,,,,,,,,
,,,,,,,,2023-08-16_08h53.16.229,HF_wild_card,2022.2.4,Win32,59.95203837,5ed934569883864994ac0b97,64d2fd46c836a06233681665,64dc7f853d6dee47b7f02f73,,,,,,,decisionTrl,resources/DB.BMP,resources/DP.BMP,Door1,0.275925926,-0.112962963,1,0,0,0.664,optionRight,30,2210,2,0,0,0,0,1,,,,,,,,,,,,,,,,,,,,,,,,,,,,,,,,,,,,,,,
,,,,,,,,2023-08-16_08h53.16.229,HF_wild_card,2022.2.4,Win32,59.95203837,5ed934569883864994ac0b97,64d2fd46c836a06233681665,64dc7f853d6dee47b7f02f73,,,,,,,decisionTrl,resources/DY.BMP,resources/DR.BMP,Door3,0.311111111,-0.02962963,1,0,0,0.732,optionRight,70,2280,2,1,0,1,0,1,,,,,,,,,,,,,,,,,,,,,,,,,,,,,,,,,,,,,,,
,,,,,,,,2023-08-16_08h53.16.229,HF_wild_card,2022.2.4,Win32,59.95203837,5ed934569883864994ac0b97,64d2fd46c836a06233681665,64dc7f853d6dee47b7f02f73,,,,,,,decisionTrl,resources/DR.BMP,resources/DY.BMP,Door3,-0.322222222,-0.033333333,1,0,0,0.515,optionLeft,70,2350,2,2,0,2,0,1,,,,,,,,,,,,,,,,,,,,,,,,,,,,,,,,,,,,,,,
,,,,,,,,2023-08-16_08h53.16.229,HF_wild_card,2022.2.4,Win32,59.95203837,5ed934569883864994ac0b97,64d2fd46c836a06233681665,64dc7f853d6dee47b7f02f73,,,,,,,decisionTrl,resources/DY.BMP,resources/DR.BMP,Door3,0.266666667,0.015740741,1,0,0,0.616,optionRight,70,2420,2,3,0,3,0,1,,,,,,,,,,,,,,,,,,,,,,,,,,,,,,,,,,,,,,,
,,,,,,,,2023-08-16_08h53.16.229,HF_wild_card,2022.2.4,Win32,59.95203837,5ed934569883864994ac0b97,64d2fd46c836a06233681665,64dc7f853d6dee47b7f02f73,,,,,,,decisionTrl,resources/DR.BMP,resources/DBN.BMP,Door3,-0.226851852,0.001851852,1,0,0,0.549,optionLeft,70,2490,2,4,0,4,0,1,,,,,,,,,,,,,,,,,,,,,,,,,,,,,,,,,,,,,,,
,,,,,,,,2023-08-16_08h53.16.229,HF_wild_card,2022.2.4,Win32,59.95203837,5ed934569883864994ac0b97,64d2fd46c836a06233681665,64dc7f853d6dee47b7f02f73,,,,,,,ctch,resources/DR.BMP,resources/DB.BMP,Door3,-0.190740741,-0.012962963,1,0,0,1.751,optionLeft,70,2560,2,5,0,5,0,1,,,,,,,,,,,,,,,,,,,,,,,,,,,,,,,,,,,,,,,
,,,,,,,,2023-08-16_08h53.16.229,HF_wild_card,2022.2.4,Win32,59.95203837,5ed934569883864994ac0b97,64d2fd46c836a06233681665,64dc7f853d6dee47b7f02f73,,,,,,,ctch,resources/DB.BMP,resources/DR.BMP,Door3,0.232407407,0.002777778,1,0,0,0.513,optionRight,70,2630,2,6,0,6,0,1,,,,,,,,,,,,,,,,,,,,,,,,,,,,,,,,,,,,,,,
,,,,,,,,2023-08-16_08h53.16.229,HF_wild_card,2022.2.4,Win32,59.95203837,5ed934569883864994ac0b97,64d2fd46c836a06233681665,64dc7f853d6dee47b7f02f73,,,,,,,ctch,resources/DP.BMP,resources/DY.BMP,Door4,0.311111111,0.007407407,1,0,0,1.016,optionRight,80,2710,2,7,0,7,0,1,,,,,,,,,,,,,,,,,,,,,,,,,,,,,,,,,,,,,,,
,,,,,,,,2023-08-16_08h53.16.229,HF_wild_card,2022.2.4,Win32,59.95203837,5ed934569883864994ac0b97,64d2fd46c836a06233681665,64dc7f853d6dee47b7f02f73,,,,,,,sngl,resources/Empty.png,resources/DY.BMP,Door4,0.274074074,0.001851852,1,0,0,0.464,optionRight,80,2790,2,8,0,8,0,1,,,,,,,,,,,,,,,,,,,,,,,,,,,,,,,,,,,,,,,
,,,,,,,,2023-08-16_08h53.16.229,HF_wild_card,2022.2.4,Win32,59.95203837,5ed934569883864994ac0b97,64d2fd46c836a06233681665,64dc7f853d6dee47b7f02f73,,,,,,,decisionTrl,resources/DP.BMP,resources/DB.BMP,Door1,-0.165740741,0.016666667,1,0,0,2.384,optionLeft,30,2820,2,9,0,9,0,1,,,,,,,,,,,,,,,,,,,,,,,,,,,,,,,,,,,,,,,
,,,,,,,,2023-08-16_08h53.16.229,HF_wild_card,2022.2.4,Win32,59.95203837,5ed934569883864994ac0b97,64d2fd46c836a06233681665,64dc7f853d6dee47b7f02f73,,,,,,,decisionTrl,resources/DB.BMP,resources/DP.BMP,Door1,0.211111111,0.007407407,1,0,0,0.949,optionRight,30,2850,2,10,0,10,0,1,,,,,,,,,,,,,,,,,,,,,,,,,,,,,,,,,,,,,,,
,,,,,,,,2023-08-16_08h53.16.229,HF_wild_card,2022.2.4,Win32,59.95203837,5ed934569883864994ac0b97,64d2fd46c836a06233681665,64dc7f853d6dee47b7f02f73,,,,,,,decisionTrl,resources/DBN.BMP,resources/DP.BMP,WildCard_NonEx,-0.244444444,0.013888889,1,0,0,0.9,optionLeft,55,2905,2,11,0,11,0,1,,,,,,,,,,,,,,,,,,,,,,,,,,,,,,,,,,,,,,,
,,,,,,,,2023-08-16_08h53.16.229,HF_wild_card,2022.2.4,Win32,59.95203837,5ed934569883864994ac0b97,64d2fd46c836a06233681665,64dc7f853d6dee47b7f02f73,,,,,,,sngl,resources/Empty.png,resources/DP.BMP,Door1,0.258333333,0.011111111,1,0,0,0.749,optionRight,30,2935,2,12,0,12,0,1,,,,,,,,,,,,,,,,,,,,,,,,,,,,,,,,,,,,,,,
,,,,,,,,2023-08-16_08h53.16.229,HF_wild_card,2022.2.4,Win32,59.95203837,5ed934569883864994ac0b97,64d2fd46c836a06233681665,64dc7f853d6dee47b7f02f73,,,,,,,ctch,resources/DP.BMP,resources/DY.BMP,Door4,0.230555556,0,1,0,0,0.833,optionRight,60,2995,2,13,0,13,0,1,,,,,,,,,,,,,,,,,,,,,,,,,,,,,,,,,,,,,,,
,,,,,,,,2023-08-16_08h53.16.229,HF_wild_card,2022.2.4,Win32,59.95203837,5ed934569883864994ac0b97,64d2fd46c836a06233681665,64dc7f853d6dee47b7f02f73,,,,,,,decisionTrl,resources/DB.BMP,resources/DP.BMP,Door2,-0.211111111,0.005555556,1,0,0,1.133,optionLeft,40,3035,2,14,0,14,0,1,,,,,,,,,,,,,,,,,,,,,,,,,,,,,,,,,,,,,,,
,,,,,,,,2023-08-16_08h53.16.229,HF_wild_card,2022.2.4,Win32,59.95203837,5ed934569883864994ac0b97,64d2fd46c836a06233681665,64dc7f853d6dee47b7f02f73,,,,,,,decisionTrl,resources/DR.BMP,resources/DY.BMP,Door4,0.240740741,0.019444444,1,0,0,2.834,optionRight,80,3115,2,15,0,15,0,1,,,,,,,,,,,,,,,,,,,,,,,,,,,,,,,,,,,,,,,
,,,,,,,,2023-08-16_08h53.16.229,HF_wild_card,2022.2.4,Win32,59.95203837,5ed934569883864994ac0b97,64d2fd46c836a06233681665,64dc7f853d6dee47b7f02f73,,,,,,,sngl,resources/Empty.png,resources/DB.BMP,Door2,0.213888889,0.025,1,0,0,0.665,optionRight,40,3155,2,16,0,16,0,1,,,,,,,,,,,,,,,,,,,,,,,,,,,,,,,,,,,,,,,
,,,,,,,,2023-08-16_08h53.16.229,HF_wild_card,2022.2.4,Win32,59.95203837,5ed934569883864994ac0b97,64d2fd46c836a06233681665,64dc7f853d6dee47b7f02f73,,,,,,,sngl,resources/Empty.png,resources/DR.BMP,Door3,0.244444444,0.024074074,1,0,0,0.561,optionRight,70,3225,2,17,0,17,0,1,,,,,,,,,,,,,,,,,,,,,,,,,,,,,,,,,,,,,,,
,,,,,,,,2023-08-16_08h53.16.229,HF_wild_card,2022.2.4,Win32,59.95203837,5ed934569883864994ac0b97,64d2fd46c836a06233681665,64dc7f853d6dee47b7f02f73,,,,,,,decisionTrl,resources/DP.BMP,resources/DB.BMP,Door1,-0.225,-0.016666667,1,0,0,1.734,optionLeft,30,3255,2,18,0,18,0,1,,,,,,,,,,,,,,,,,,,,,,,,,,,,,,,,,,,,,,,
,,,,,,,,2023-08-16_08h53.16.229,HF_wild_card,2022.2.4,Win32,59.95203837,5ed934569883864994ac0b97,64d2fd46c836a06233681665,64dc7f853d6dee47b7f02f73,,,,,,,decisionTrl,resources/DP.BMP,resources/DB.BMP,Door1,-0.133333333,-0.034259259,1,0,0,0.833,optionLeft,30,3285,2,19,0,19,0,1,,,,,,,,,,,,,,,,,,,,,,,,,,,,,,,,,,,,,,,
,,,,,,,,2023-08-16_08h53.16.229,HF_wild_card,2022.2.4,Win32,59.95203837,5ed934569883864994ac0b97,64d2fd46c836a06233681665,64dc7f853d6dee47b7f02f73,,,,,,,ctch,resources/DB.BMP,resources/DR.BMP,Door3,0.289814815,0.031481481,1,0,0,0.698,optionRight,70,3355,2,20,0,20,0,1,,,,,,,,,,,,,,,,,,,,,,,,,,,,,,,,,,,,,,,
,,,,,,,,2023-08-16_08h53.16.229,HF_wild_card,2022.2.4,Win32,59.95203837,5ed934569883864994ac0b97,64d2fd46c836a06233681665,64dc7f853d6dee47b7f02f73,,,,,,,decisionTrl,resources/DY.BMP,resources/DBN.BMP,Door4,-0.201851852,0.002777778,1,0,0,0.632,optionLeft,60,3415,2,21,0,21,0,1,,,,,,,,,,,,,,,,,,,,,,,,,,,,,,,,,,,,,,,
,,,,,,,,2023-08-16_08h53.16.229,HF_wild_card,2022.2.4,Win32,59.95203837,5ed934569883864994ac0b97,64d2fd46c836a06233681665,64dc7f853d6dee47b7f02f73,,,,,,,sngl,resources/DBN.BMP,resources/Empty.png,WildCard_NonEx,-0.277777778,0.015740741,1,0,0,0.532,optionLeft,45,3460,2,22,0,22,0,1,,,,,,,,,,,,,,,,,,,,,,,,,,,,,,,,,,,,,,,
,,,,,,,,2023-08-16_08h53.16.229,HF_wild_card,2022.2.4,Win32,59.95203837,5ed934569883864994ac0b97,64d2fd46c836a06233681665,64dc7f853d6dee47b7f02f73,,,,,,,decisionTrl,resources/DY.BMP,resources/DR.BMP,Door4,-0.175925926,0.009259259,1,0,0,1.65,optionLeft,80,3540,2,23,0,23,0,1,,,,,,,,,,,,,,,,,,,,,,,,,,,,,,,,,,,,,,,
,,,,,,,,2023-08-16_08h53.16.229,HF_wild_card,2022.2.4,Win32,59.95203837,5ed934569883864994ac0b97,64d2fd46c836a06233681665,64dc7f853d6dee47b7f02f73,,,,,,,sngl,resources/DP.BMP,resources/Empty.png,Door1,-0.256481481,0.000925926,1,0,0,0.682,optionLeft,30,3570,2,24,0,24,0,1,,,,,,,,,,,,,,,,,,,,,,,,,,,,,,,,,,,,,,,
,,,,,,,,2023-08-16_08h53.16.229,HF_wild_card,2022.2.4,Win32,59.95203837,5ed934569883864994ac0b97,64d2fd46c836a06233681665,64dc7f853d6dee47b7f02f73,,,,,,,decisionTrl,resources/DBN.BMP,resources/DR.BMP,Door3,0.285185185,0.027777778,1,0,0,1.8,optionRight,70,3640,2,25,0,25,0,1,,,,,,,,,,,,,,,,,,,,,,,,,,,,,,,,,,,,,,,
,,,,,,,,2023-08-16_08h53.16.229,HF_wild_card,2022.2.4,Win32,59.95203837,5ed934569883864994ac0b97,64d2fd46c836a06233681665,64dc7f853d6dee47b7f02f73,,,,,,,decisionTrl,resources/DR.BMP,resources/DY.BMP,Door4,0.313888889,0.02962963,1,0,0,1.016,optionRight,60,3700,2,26,0,26,0,1,,,,,,,,,,,,,,,,,,,,,,,,,,,,,,,,,,,,,,,
,,,,,,,,2023-08-16_08h53.16.229,HF_wild_card,2022.2.4,Win32,59.95203837,5ed934569883864994ac0b97,64d2fd46c836a06233681665,64dc7f853d6dee47b7f02f73,,,,,,,decisionTrl,resources/DY.BMP,resources/DR.BMP,Door4,-0.149074074,0.014814815,1,0,0,1.132,optionLeft,60,3760,2,27,0,27,0,1,,,,,,,,,,,,,,,,,,,,,,,,,,,,,,,,,,,,,,,
,,,,,,,,2023-08-16_08h53.16.229,HF_wild_card,2022.2.4,Win32,59.95203837,5ed934569883864994ac0b97,64d2fd46c836a06233681665,64dc7f853d6dee47b7f02f73,,,,,,,decisionTrl,resources/DR.BMP,resources/DY.BMP,Door3,-0.164814815,0.011111111,1,0,0,0.882,optionLeft,70,3830,2,28,0,28,0,1,,,,,,,,,,,,,,,,,,,,,,,,,,,,,,,,,,,,,,,
,,,,,,,,2023-08-16_08h53.16.229,HF_wild_card,2022.2.4,Win32,59.95203837,5ed934569883864994ac0b97,64d2fd46c836a06233681665,64dc7f853d6dee47b7f02f73,,,,,,,sngl,resources/DY.BMP,resources/Empty.png,Door4,-0.280555556,0.021296296,1,0,0,0.583,optionLeft,60,3890,2,29,0,29,0,1,,,,,,,,,,,,,,,,,,,,,,,,,,,,,,,,,,,,,,,
,,,,,,,,2023-08-16_08h53.16.229,HF_wild_card,2022.2.4,Win32,59.95203837,5ed934569883864994ac0b97,64d2fd46c836a06233681665,64dc7f853d6dee47b7f02f73,,,,,,,decisionTrl,resources/DBN.BMP,resources/DB.BMP,WildCard_NonEx,-0.180555556,0.009259259,1,0,0,0.917,optionLeft,55,3945,2,30,0,30,0,1,,,,,,,,,,,,,,,,,,,,,,,,,,,,,,,,,,,,,,,
,,,,,,,,2023-08-16_08h53.16.229,HF_wild_card,2022.2.4,Win32,59.95203837,5ed934569883864994ac0b97,64d2fd46c836a06233681665,64dc7f853d6dee47b7f02f73,,,,,,,sngl,resources/DB.BMP,resources/Empty.png,Door2,-0.256481481,0.019444444,1,0,0,0.565,optionLeft,20,3965,2,31,0,31,0,1,,,,,,,,,,,,,,,,,,,,,,,,,,,,,,,,,,,,,,,
,,,,,,,,2023-08-16_08h53.16.229,HF_wild_card,2022.2.4,Win32,59.95203837,5ed934569883864994ac0b97,64d2fd46c836a06233681665,64dc7f853d6dee47b7f02f73,,,,,,,sngl,resources/DR.BMP,resources/Empty.png,Door3,-0.27037037,0.016666667,1,0,0,0.548,optionLeft,70,4035,2,32,0,32,0,1,,,,,,,,,,,,,,,,,,,,,,,,,,,,,,,,,,,,,,,
,,,,,,,,2023-08-16_08h53.16.229,HF_wild_card,2022.2.4,Win32,59.95203837,5ed934569883864994ac0b97,64d2fd46c836a06233681665,64dc7f853d6dee47b7f02f73,,,,,,,sngl,resources/Empty.png,resources/DBN.BMP,WildCard_NonEx,0.221296296,0.011111111,1,0,0,0.648,optionRight,45,4080,2,33,0,33,0,1,,,,,,,,,,,,,,,,,,,,,,,,,,,,,,,,,,,,,,,
,,,,,,,,2023-08-16_08h53.16.229,HF_wild_card,2022.2.4,Win32,59.95203837,5ed934569883864994ac0b97,64d2fd46c836a06233681665,64dc7f853d6dee47b7f02f73,,,,,,,decisionTrl,resources/DP.BMP,resources/DB.BMP,Door2,0.272222222,0.00462963,1,0,0,1.8,optionRight,20,4100,2,34,0,34,0,1,,,,,,,,,,,,,,,,,,,,,,,,,,,,,,,,,,,,,,,
,,,,,,,,2023-08-16_08h53.16.229,HF_wild_card,2022.2.4,Win32,59.95203837,5ed934569883864994ac0b97,64d2fd46c836a06233681665,64dc7f853d6dee47b7f02f73,,,,,,,ctch,resources/DY.BMP,resources/DP.BMP,Door4,-0.325,-0.00462963,1,0,0,0.981,optionLeft,60,4160,2,35,0,35,0,1,,,,,,,,,,,,,,,,,,,,,,,,,,,,,,,,,,,,,,,
,,,,,,,,2023-08-16_08h53.16.229,HF_wild_card,2022.2.4,Win32,59.95203837,5ed934569883864994ac0b97,64d2fd46c836a06233681665,64dc7f853d6dee47b7f02f73,,,,,,,ctch,resources/DR.BMP,resources/DB.BMP,Door3,-0.287962963,-0.022222222,1,0,0,0.632,optionLeft,70,4230,2,36,0,36,0,1,,,,,,,,,,,,,,,,,,,,,,,,,,,,,,,,,,,,,,,
,,,,,,,,2023-08-16_08h53.16.229,HF_wild_card,2022.2.4,Win32,59.95203837,5ed934569883864994ac0b97,64d2fd46c836a06233681665,64dc7f853d6dee47b7f02f73,,,,,,,ctch,resources/DY.BMP,resources/DP.BMP,Door4,-0.301851852,-0.014814815,1,0,0,0.732,optionLeft,60,4290,2,37,0,37,0,1,,,,,,,,,,,,,,,,,,,,,,,,,,,,,,,,,,,,,,,
,,,,,,,,2023-08-16_08h53.16.229,HF_wild_card,2022.2.4,Win32,59.95203837,5ed934569883864994ac0b97,64d2fd46c836a06233681665,64dc7f853d6dee47b7f02f73,,,,,,,sngl,resources/DBN.BMP,resources/Empty.png,WildCard_NonEx,-0.25462963,-0.009259259,1,0,0,0.816,optionLeft,55,4345,2,38,0,38,0,1,,,,,,,,,,,,,,,,,,,,,,,,,,,,,,,,,,,,,,,
,,,,,,,,2023-08-16_08h53.16.229,HF_wild_card,2022.2.4,Win32,59.95203837,5ed934569883864994ac0b97,64d2fd46c836a06233681665,64dc7f853d6dee47b7f02f73,,,,,,,decisionTrl,resources/DBN.BMP,resources/DY.BMP,Door4,0.328703704,-0.019444444,1,0,0,1.115,optionRight,60,4405,2,39,0,39,0,1,,,,,,,,,,,,,,,,,,,,,,,,,,,,,,,,,,,,,,,
,,,,,,,,2023-08-16_08h53.16.229,HF_wild_card,2022.2.4,Win32,59.95203837,5ed934569883864994ac0b97,64d2fd46c836a06233681665,64dc7f853d6dee47b7f02f73,,,,,,,decisionTrl,resources/DB.BMP,resources/DBN.BMP,WildCard_NonEx,0.156481481,0.003703704,1,0,0,1.333,optionRight,55,4460,2,40,0,40,0,1,,,,,,,,,,,,,,,,,,,,,,,,,,,,,,,,,,,,,,,
,,,,,,,,2023-08-16_08h53.16.229,HF_wild_card,2022.2.4,Win32,59.95203837,5ed934569883864994ac0b97,64d2fd46c836a06233681665,64dc7f853d6dee47b7f02f73,,,,,,,decisionTrl,resources/DP.BMP,resources/DBN.BMP,WildCard_NonEx,0.285185185,-0.000925926,1,0,0,2.067,optionRight,45,4505,2,41,0,41,0,1,,,,,,,,,,,,,,,,,,,,,,,,,,,,,,,,,,,,,,,
,,,,,,,,2023-08-16_08h53.16.229,HF_wild_card,2022.2.4,Win32,59.95203837,5ed934569883864994ac0b97,64d2fd46c836a06233681665,64dc7f853d6dee47b7f02f73,,,,,,,sngl,resources/Empty.png,resources/DBN.BMP,WildCard_NonEx,0.197222222,-0.003703704,1,0,0,0.583,optionRight,55,4560,2,42,0,42,0,1,,,,,,,,,,,,,,,,,,,,,,,,,,,,,,,,,,,,,,,
,,,,,,,,2023-08-16_08h53.16.229,HF_wild_card,2022.2.4,Win32,59.95203837,5ed934569883864994ac0b97,64d2fd46c836a06233681665,64dc7f853d6dee47b7f02f73,,,,,,,decisionTrl,resources/DB.BMP,resources/DP.BMP,Door2,-0.12962963,0.00462963,1,0,0,1.684,optionLeft,20,4580,2,43,0,43,0,1,,,,,,,,,,,,,,,,,,,,,,,,,,,,,,,,,,,,,,,
,,,,,,,,2023-08-16_08h53.16.229,HF_wild_card,2022.2.4,Win32,59.95203837,5ed934569883864994ac0b97,64d2fd46c836a06233681665,64dc7f853d6dee47b7f02f73,,,,,,,,,,,,,,,,,,,,,,,,,,1,0,1,0,1,,,,,,,,,,,,,,,,,,,,,,,,,,,,,,,,,,
,,,,,,,,2023-08-16_08h53.16.229,HF_wild_card,2022.2.4,Win32,59.95203837,5ed934569883864994ac0b97,64d2fd46c836a06233681665,64dc7f853d6dee47b7f02f73,,,,,,,decisionTrl,resources/DP.BMP,resources/DB.BMP,Door2,0.325925926,-0.099074074,1,0,0,0.996,optionRight,40,4620,3,0,0,0,0,1,,,,,,,,,,,,,,,,,,,,,,,,,,,,,,,,,,,,,,,
,,,,,,,,2023-08-16_08h53.16.229,HF_wild_card,2022.2.4,Win32,59.95203837,5ed934569883864994ac0b97,64d2fd46c836a06233681665,64dc7f853d6dee47b7f02f73,,,,,,,decisionTrl,resources/DBN.BMP,resources/DR.BMP,Door3,0.430555556,-0.003703704,1,0,0,0.464,optionRight,70,4690,3,1,0,1,0,1,,,,,,,,,,,,,,,,,,,,,,,,,,,,,,,,,,,,,,,
,,,,,,,,2023-08-16_08h53.16.229,HF_wild_card,2022.2.4,Win32,59.95203837,5ed934569883864994ac0b97,64d2fd46c836a06233681665,64dc7f853d6dee47b7f02f73,,,,,,,decisionTrl,resources/DR.BMP,resources/DY.BMP,Door4,0.201851852,-0.025,1,0,0,1.632,optionRight,60,4750,3,2,0,2,0,1,,,,,,,,,,,,,,,,,,,,,,,,,,,,,,,,,,,,,,,
,,,,,,,,2023-08-16_08h53.16.229,HF_wild_card,2022.2.4,Win32,59.95203837,5ed934569883864994ac0b97,64d2fd46c836a06233681665,64dc7f853d6dee47b7f02f73,,,,,,,sngl,resources/DR.BMP,resources/Empty.png,Door3,-0.294444444,-0.037037037,1,0,0,0.482,optionLeft,70,4820,3,3,0,3,0,1,,,,,,,,,,,,,,,,,,,,,,,,,,,,,,,,,,,,,,,
,,,,,,,,2023-08-16_08h53.16.229,HF_wild_card,2022.2.4,Win32,59.95203837,5ed934569883864994ac0b97,64d2fd46c836a06233681665,64dc7f853d6dee47b7f02f73,,,,,,,decisionTrl,resources/DB.BMP,resources/DP.BMP,Door2,-0.261111111,0,1,0,0,1.3,optionLeft,20,4840,3,4,0,4,0,1,,,,,,,,,,,,,,,,,,,,,,,,,,,,,,,,,,,,,,,
,,,,,,,,2023-08-16_08h53.16.229,HF_wild_card,2022.2.4,Win32,59.95203837,5ed934569883864994ac0b97,64d2fd46c836a06233681665,64dc7f853d6dee47b7f02f73,,,,,,,ctch,resources/DB.BMP,resources/DR.BMP,Door3,0.381481481,0,1,0,0,0.634,optionRight,70,4910,3,5,0,5,0,1,,,,,,,,,,,,,,,,,,,,,,,,,,,,,,,,,,,,,,,
,,,,,,,,2023-08-16_08h53.16.229,HF_wild_card,2022.2.4,Win32,59.95203837,5ed934569883864994ac0b97,64d2fd46c836a06233681665,64dc7f853d6dee47b7f02f73,,,,,,,sngl,resources/Empty.png,resources/DY.BMP,Door4,0.313888889,-0.002777778,1,0,0,0.615,optionRight,60,4970,3,6,0,6,0,1,,,,,,,,,,,,,,,,,,,,,,,,,,,,,,,,,,,,,,,
,,,,,,,,2023-08-16_08h53.16.229,HF_wild_card,2022.2.4,Win32,59.95203837,5ed934569883864994ac0b97,64d2fd46c836a06233681665,64dc7f853d6dee47b7f02f73,,,,,,,decisionTrl,resources/DBN.BMP,resources/DY.BMP,Door4,0.255555556,-0.006481481,1,0,0,1.198,optionRight,60,5030,3,7,0,7,0,1,,,,,,,,,,,,,,,,,,,,,,,,,,,,,,,,,,,,,,,
,,,,,,,,2023-08-16_08h53.16.229,HF_wild_card,2022.2.4,Win32,59.95203837,5ed934569883864994ac0b97,64d2fd46c836a06233681665,64dc7f853d6dee47b7f02f73,,,,,,,sngl,resources/DY.BMP,resources/Empty.png,Door4,-0.177777778,-0.002777778,1,0,0,0.549,optionLeft,80,5110,3,8,0,8,0,1,,,,,,,,,,,,,,,,,,,,,,,,,,,,,,,,,,,,,,,
,,,,,,,,2023-08-16_08h53.16.229,HF_wild_card,2022.2.4,Win32,59.95203837,5ed934569883864994ac0b97,64d2fd46c836a06233681665,64dc7f853d6dee47b7f02f73,,,,,,,sngl,resources/Empty.png,resources/DP.BMP,Door1,0.194444444,-0.001851852,1,0,0,0.682,optionRight,30,5140,3,9,0,9,0,1,,,,,,,,,,,,,,,,,,,,,,,,,,,,,,,,,,,,,,,
,,,,,,,,2023-08-16_08h53.16.229,HF_wild_card,2022.2.4,Win32,59.95203837,5ed934569883864994ac0b97,64d2fd46c836a06233681665,64dc7f853d6dee47b7f02f73,,,,,,,decisionTrl,resources/DB.BMP,resources/DP.BMP,Door1,0.282407407,-0.018518519,1,0,0,1.101,optionRight,30,5170,3,10,0,10,0,1,,,,,,,,,,,,,,,,,,,,,,,,,,,,,,,,,,,,,,,
,,,,,,,,2023-08-16_08h53.16.229,HF_wild_card,2022.2.4,Win32,59.95203837,5ed934569883864994ac0b97,64d2fd46c836a06233681665,64dc7f853d6dee47b7f02f73,,,,,,,decisionTrl,resources/DR.BMP,resources/DBN.BMP,Door3,-0.205555556,0.018518519,1,0,0,1.016,optionLeft,70,5240,3,11,0,11,0,1,,,,,,,,,,,,,,,,,,,,,,,,,,,,,,,,,,,,,,,
,,,,,,,,2023-08-16_08h53.16.229,HF_wild_card,2022.2.4,Win32,59.95203837,5ed934569883864994ac0b97,64d2fd46c836a06233681665,64dc7f853d6dee47b7f02f73,,,,,,,sngl,resources/Empty.png,resources/DR.BMP,Door3,0.187962963,0.00462963,1,0,0,0.532,optionRight,70,5310,3,12,0,12,0,1,,,,,,,,,,,,,,,,,,,,,,,,,,,,,,,,,,,,,,,
,,,,,,,,2023-08-16_08h53.16.229,HF_wild_card,2022.2.4,Win32,59.95203837,5ed934569883864994ac0b97,64d2fd46c836a06233681665,64dc7f853d6dee47b7f02f73,,,,,,,ctch,resources/DR.BMP,resources/DB.BMP,Door3,-0.217592593,-0.025,1,0,0,0.561,optionLeft,70,5380,3,13,0,13,0,1,,,,,,,,,,,,,,,,,,,,,,,,,,,,,,,,,,,,,,,
,,,,,,,,2023-08-16_08h53.16.229,HF_wild_card,2022.2.4,Win32,59.95203837,5ed934569883864994ac0b97,64d2fd46c836a06233681665,64dc7f853d6dee47b7f02f73,,,,,,,sngl,resources/Empty.png,resources/DBN.BMP,WildCard_NonEx,0.209259259,0.02962963,1,0,0,0.666,optionRight,55,5435,3,14,0,14,0,1,,,,,,,,,,,,,,,,,,,,,,,,,,,,,,,,,,,,,,,
,,,,,,,,2023-08-16_08h53.16.229,HF_wild_card,2022.2.4,Win32,59.95203837,5ed934569883864994ac0b97,64d2fd46c836a06233681665,64dc7f853d6dee47b7f02f73,,,,,,,decisionTrl,resources/DR.BMP,resources/DY.BMP,Door3,-0.148148148,-0.001851852,1,0,0,1.283,optionLeft,70,5505,3,15,0,15,0,1,,,,,,,,,,,,,,,,,,,,,,,,,,,,,,,,,,,,,,,
,,,,,,,,2023-08-16_08h53.16.229,HF_wild_card,2022.2.4,Win32,59.95203837,5ed934569883864994ac0b97,64d2fd46c836a06233681665,64dc7f853d6dee47b7f02f73,,,,,,,decisionTrl,resources/DB.BMP,resources/DBN.BMP,WildCard_NonEx,0.222222222,-0.002777778,1,0,0,0.749,optionRight,45,5550,3,16,0,16,0,1,,,,,,,,,,,,,,,,,,,,,,,,,,,,,,,,,,,,,,,
,,,,,,,,2023-08-16_08h53.16.229,HF_wild_card,2022.2.4,Win32,59.95203837,5ed934569883864994ac0b97,64d2fd46c836a06233681665,64dc7f853d6dee47b7f02f73,,,,,,,sngl,resources/DBN.BMP,resources/Empty.png,WildCard_NonEx,-0.219444444,-0.022222222,1,0,0,0.565,optionLeft,45,5595,3,17,0,17,0,1,,,,,,,,,,,,,,,,,,,,,,,,,,,,,,,,,,,,,,,
,,,,,,,,2023-08-16_08h53.16.229,HF_wild_card,2022.2.4,Win32,59.95203837,5ed934569883864994ac0b97,64d2fd46c836a06233681665,64dc7f853d6dee47b7f02f73,,,,,,,ctch,resources/DP.BMP,resources/DY.BMP,Door4,0.134259259,-0.001851852,1,0,0,1.65,optionRight,60,5655,3,18,0,18,0,1,,,,,,,,,,,,,,,,,,,,,,,,,,,,,,,,,,,,,,,
,,,,,,,,2023-08-16_08h53.16.229,HF_wild_card,2022.2.4,Win32,59.95203837,5ed934569883864994ac0b97,64d2fd46c836a06233681665,64dc7f853d6dee47b7f02f73,,,,,,,decisionTrl,resources/DY.BMP,resources/DR.BMP,Door3,0.182407407,0.00462963,1,0,0,0.95,optionRight,70,5725,3,19,0,19,0,1,,,,,,,,,,,,,,,,,,,,,,,,,,,,,,,,,,,,,,,
,,,,,,,,2023-08-16_08h53.16.229,HF_wild_card,2022.2.4,Win32,59.95203837,5ed934569883864994ac0b97,64d2fd46c836a06233681665,64dc7f853d6dee47b7f02f73,,,,,,,decisionTrl,resources/DP.BMP,resources/DB.BMP,Door1,-0.240740741,-0.014814815,1,0,0,0.566,optionLeft,30,5755,3,20,0,20,0,1,,,,,,,,,,,,,,,,,,,,,,,,,,,,,,,,,,,,,,,
,,,,,,,,2023-08-16_08h53.16.229,HF_wild_card,2022.2.4,Win32,59.95203837,5ed934569883864994ac0b97,64d2fd46c836a06233681665,64dc7f853d6dee47b7f02f73,,,,,,,decisionTrl,resources/DR.BMP,resources/DY.BMP,Door4,0.217592593,-0.012037037,1,0,0,0.916,optionRight,80,5835,3,21,0,21,0,1,,,,,,,,,,,,,,,,,,,,,,,,,,,,,,,,,,,,,,,
,,,,,,,,2023-08-16_08h53.16.229,HF_wild_card,2022.2.4,Win32,59.95203837,5ed934569883864994ac0b97,64d2fd46c836a06233681665,64dc7f853d6dee47b7f02f73,,,,,,,ctch,resources/DR.BMP,resources/DB.BMP,Door3,-0.164814815,-0.010185185,1,0,0,0.683,optionLeft,70,5905,3,22,0,22,0,1,,,,,,,,,,,,,,,,,,,,,,,,,,,,,,,,,,,,,,,
,,,,,,,,2023-08-16_08h53.16.229,HF_wild_card,2022.2.4,Win32,59.95203837,5ed934569883864994ac0b97,64d2fd46c836a06233681665,64dc7f853d6dee47b7f02f73,,,,,,,decisionTrl,resources/DY.BMP,resources/DR.BMP,Door3,0.203703704,0.02037037,1,0,0,0.666,optionRight,70,5975,3,23,0,23,0,1,,,,,,,,,,,,,,,,,,,,,,,,,,,,,,,,,,,,,,,
,,,,,,,,2023-08-16_08h53.16.229,HF_wild_card,2022.2.4,Win32,59.95203837,5ed934569883864994ac0b97,64d2fd46c836a06233681665,64dc7f853d6dee47b7f02f73,,,,,,,decisionTrl,resources/DB.BMP,resources/DP.BMP,Door1,0.169444444,0.014814815,1,0,0,1.283,optionRight,30,6005,3,24,0,24,0,1,,,,,,,,,,,,,,,,,,,,,,,,,,,,,,,,,,,,,,,
,,,,,,,,2023-08-16_08h53.16.229,HF_wild_card,2022.2.4,Win32,59.95203837,5ed934569883864994ac0b97,64d2fd46c836a06233681665,64dc7f853d6dee47b7f02f73,,,,,,,decisionTrl,resources/DR.BMP,resources/DY.BMP,Door3,-0.180555556,0.000925926,1,0,0,0.981,optionLeft,70,6075,3,25,0,25,0,1,,,,,,,,,,,,,,,,,,,,,,,,,,,,,,,,,,,,,,,
,,,,,,,,2023-08-16_08h53.16.229,HF_wild_card,2022.2.4,Win32,59.95203837,5ed934569883864994ac0b97,64d2fd46c836a06233681665,64dc7f853d6dee47b7f02f73,,,,,,,decisionTrl,resources/DY.BMP,resources/DR.BMP,Door4,-0.194444444,-0.001851852,1,0,0,0.833,optionLeft,60,6135,3,26,0,26,0,1,,,,,,,,,,,,,,,,,,,,,,,,,,,,,,,,,,,,,,,
,,,,,,,,2023-08-16_08h53.16.229,HF_wild_card,2022.2.4,Win32,59.95203837,5ed934569883864994ac0b97,64d2fd46c836a06233681665,64dc7f853d6dee47b7f02f73,,,,,,,decisionTrl,resources/DP.BMP,resources/DBN.BMP,WildCard_NonEx,0.309259259,0.006481481,1,0,0,0.911,optionRight,45,6180,3,27,0,27,0,1,,,,,,,,,,,,,,,,,,,,,,,,,,,,,,,,,,,,,,,
,,,,,,,,2023-08-16_08h53.16.229,HF_wild_card,2022.2.4,Win32,59.95203837,5ed934569883864994ac0b97,64d2fd46c836a06233681665,64dc7f853d6dee47b7f02f73,,,,,,,decisionTrl,resources/DY.BMP,resources/DBN.BMP,Door4,-0.211111111,-0.006481481,1,0,0,0.983,optionLeft,60,6240,3,28,0,28,0,1,,,,,,,,,,,,,,,,,,,,,,,,,,,,,,,,,,,,,,,
,,,,,,,,2023-08-16_08h53.16.229,HF_wild_card,2022.2.4,Win32,59.95203837,5ed934569883864994ac0b97,64d2fd46c836a06233681665,64dc7f853d6dee47b7f02f73,,,,,,,decisionTrl,resources/DP.BMP,resources/DB.BMP,Door1,-0.147222222,-0.010185185,1,0,0,1.532,optionLeft,30,6270,3,29,0,29,0,1,,,,,,,,,,,,,,,,,,,,,,,,,,,,,,,,,,,,,,,
,,,,,,,,2023-08-16_08h53.16.229,HF_wild_card,2022.2.4,Win32,59.95203837,5ed934569883864994ac0b97,64d2fd46c836a06233681665,64dc7f853d6dee47b7f02f73,,,,,,,decisionTrl,resources/DP.BMP,resources/DB.BMP,Door1,-0.178703704,-0.014814815,1,0,0,0.715,optionLeft,30,6300,3,30,0,30,0,1,,,,,,,,,,,,,,,,,,,,,,,,,,,,,,,,,,,,,,,
,,,,,,,,2023-08-16_08h53.16.229,HF_wild_card,2022.2.4,Win32,59.95203837,5ed934569883864994ac0b97,64d2fd46c836a06233681665,64dc7f853d6dee47b7f02f73,,,,,,,ctch,resources/DY.BMP,resources/DP.BMP,Door4,-0.155555556,-0.003703704,1,0,0,0.999,optionLeft,80,6380,3,31,0,31,0,1,,,,,,,,,,,,,,,,,,,,,,,,,,,,,,,,,,,,,,,
,,,,,,,,2023-08-16_08h53.16.229,HF_wild_card,2022.2.4,Win32,59.95203837,5ed934569883864994ac0b97,64d2fd46c836a06233681665,64dc7f853d6dee47b7f02f73,,,,,,,decisionTrl,resources/DBN.BMP,resources/DB.BMP,WildCard_NonEx,-0.187962963,-0.022222222,1,0,0,0.732,optionLeft,45,6425,3,32,0,32,0,1,,,,,,,,,,,,,,,,,,,,,,,,,,,,,,,,,,,,,,,
,,,,,,,,2023-08-16_08h53.16.229,HF_wild_card,2022.2.4,Win32,59.95203837,5ed934569883864994ac0b97,64d2fd46c836a06233681665,64dc7f853d6dee47b7f02f73,,,,,,,sngl,resources/Empty.png,resources/DBN.BMP,WildCard_NonEx,0.298148148,-0.013888889,1,0,0,0.448,optionRight,45,6470,3,33,0,33,0,1,,,,,,,,,,,,,,,,,,,,,,,,,,,,,,,,,,,,,,,
,,,,,,,,2023-08-16_08h53.16.229,HF_wild_card,2022.2.4,Win32,59.95203837,5ed934569883864994ac0b97,64d2fd46c836a06233681665,64dc7f853d6dee47b7f02f73,,,,,,,sngl,resources/DP.BMP,resources/Empty.png,Door1,-0.32037037,-0.012962963,1,0,0,0.516,optionLeft,30,6500,3,34,0,34,0,1,,,,,,,,,,,,,,,,,,,,,,,,,,,,,,,,,,,,,,,
,,,,,,,,2023-08-16_08h53.16.229,HF_wild_card,2022.2.4,Win32,59.95203837,5ed934569883864994ac0b97,64d2fd46c836a06233681665,64dc7f853d6dee47b7f02f73,,,,,,,sngl,resources/DB.BMP,resources/Empty.png,Door2,-0.259259259,-0.007407407,1,0,0,0.899,optionLeft,40,6540,3,35,0,35,0,1,,,,,,,,,,,,,,,,,,,,,,,,,,,,,,,,,,,,,,,
,,,,,,,,2023-08-16_08h53.16.229,HF_wild_card,2022.2.4,Win32,59.95203837,5ed934569883864994ac0b97,64d2fd46c836a06233681665,64dc7f853d6dee47b7f02f73,,,,,,,ctch,resources/DP.BMP,resources/DY.BMP,Door4,0.200925926,0.003703704,1,0,0,0.699,optionRight,80,6620,3,36,0,36,0,1,,,,,,,,,,,,,,,,,,,,,,,,,,,,,,,,,,,,,,,
,,,,,,,,2023-08-16_08h53.16.229,HF_wild_card,2022.2.4,Win32,59.95203837,5ed934569883864994ac0b97,64d2fd46c836a06233681665,64dc7f853d6dee47b7f02f73,,,,,,,decisionTrl,resources/DY.BMP,resources/DR.BMP,Door4,-0.203703704,0.011111111,1,0,0,1.05,optionLeft,80,6700,3,37,0,37,0,1,,,,,,,,,,,,,,,,,,,,,,,,,,,,,,,,,,,,,,,
,,,,,,,,2023-08-16_08h53.16.229,HF_wild_card,2022.2.4,Win32,59.95203837,5ed934569883864994ac0b97,64d2fd46c836a06233681665,64dc7f853d6dee47b7f02f73,,,,,,,sngl,resources/DBN.BMP,resources/Empty.png,WildCard_NonEx,-0.212037037,-0.013888889,1,0,0,0.616,optionLeft,55,6755,3,38,0,38,0,1,,,,,,,,,,,,,,,,,,,,,,,,,,,,,,,,,,,,,,,
,,,,,,,,2023-08-16_08h53.16.229,HF_wild_card,2022.2.4,Win32,59.95203837,5ed934569883864994ac0b97,64d2fd46c836a06233681665,64dc7f853d6dee47b7f02f73,,,,,,,ctch,resources/DY.BMP,resources/DP.BMP,Door4,-0.259259259,-0.009259259,1,0,0,0.748,optionLeft,60,6815,3,39,0,39,0,1,,,,,,,,,,,,,,,,,,,,,,,,,,,,,,,,,,,,,,,
,,,,,,,,2023-08-16_08h53.16.229,HF_wild_card,2022.2.4,Win32,59.95203837,5ed934569883864994ac0b97,64d2fd46c836a06233681665,64dc7f853d6dee47b7f02f73,,,,,,,decisionTrl,resources/DB.BMP,resources/DP.BMP,Door1,0.174074074,-0.002777778,1,0,0,1.267,optionRight,30,6845,3,40,0,40,0,1,,,,,,,,,,,,,,,,,,,,,,,,,,,,,,,,,,,,,,,
,,,,,,,,2023-08-16_08h53.16.229,HF_wild_card,2022.2.4,Win32,59.95203837,5ed934569883864994ac0b97,64d2fd46c836a06233681665,64dc7f853d6dee47b7f02f73,,,,,,,decisionTrl,resources/DBN.BMP,resources/DP.BMP,WildCard_NonEx,-0.152777778,0.002777778,1,0,0,0.73,optionLeft,55,6900,3,41,0,41,0,1,,,,,,,,,,,,,,,,,,,,,,,,,,,,,,,,,,,,,,,
,,,,,,,,2023-08-16_08h53.16.229,HF_wild_card,2022.2.4,Win32,59.95203837,5ed934569883864994ac0b97,64d2fd46c836a06233681665,64dc7f853d6dee47b7f02f73,,,,,,,sngl,resources/Empty.png,resources/DB.BMP,Door2,0.217592593,-0.021296296,1,0,0,0.883,optionRight,20,6920,3,42,0,42,0,1,,,,,,,,,,,,,,,,,,,,,,,,,,,,,,,,,,,,,,,
,,,,,,,,2023-08-16_08h53.16.229,HF_wild_card,2022.2.4,Win32,59.95203837,5ed934569883864994ac0b97,64d2fd46c836a06233681665,64dc7f853d6dee47b7f02f73,,,,,,,ctch,resources/DB.BMP,resources/DR.BMP,Door3,0.202777778,-0.007407407,1,0,0,0.782,optionRight,70,6990,3,43,0,43,0,1,,,,,,,,,,,,,,,,,,,,,,,,,,,,,,,,,,,,,,,
,,,,,,,,2023-08-16_08h53.16.229,HF_wild_card,2022.2.4,Win32,59.95203837,5ed934569883864994ac0b97,64d2fd46c836a06233681665,64dc7f853d6dee47b7f02f73,,,,,,,,,,,,,,,,,,,,,,,,,,2,0,2,0,1,,,,,,,,,,,,,,,,,,,,,,,,,,,,,,,,,,
,,,,,,,,2023-08-16_08h53.16.229,HF_wild_card,2022.2.4,Win32,59.95203837,5ed934569883864994ac0b97,64d2fd46c836a06233681665,64dc7f853d6dee47b7f02f73,,,,,,,decisionTrl,resources/DB.BMP,resources/DP.BMP,Door1,0.382407407,-0.117592593,1,0,0,1.181,optionRight,30,7020,4,0,0,0,0,1,,,,,,,,,,,,,,,,,,,,,,,,,,,,,,,,,,,,,,,
,,,,,,,,2023-08-16_08h53.16.229,HF_wild_card,2022.2.4,Win32,59.95203837,5ed934569883864994ac0b97,64d2fd46c836a06233681665,64dc7f853d6dee47b7f02f73,,,,,,,sngl,resources/DG.BMP,resources/Empty.png,WildCard_Ex,-0.187962963,-0.023148148,1,0,0,1.566,optionLeft,55,7075,4,1,0,1,0,1,,,,,,,,,,,,,,,,,,,,,,,,,,,,,,,,,,,,,,,
,,,,,,,,2023-08-16_08h53.16.229,HF_wild_card,2022.2.4,Win32,59.95203837,5ed934569883864994ac0b97,64d2fd46c836a06233681665,64dc7f853d6dee47b7f02f73,,,,,,,sngl,resources/Empty.png,resources/DG.BMP,WildCard_Ex,0.337037037,0.002777778,1,0,0,0.698,optionRight,55,7130,4,2,0,2,0,1,,,,,,,,,,,,,,,,,,,,,,,,,,,,,,,,,,,,,,,
,,,,,,,,2023-08-16_08h53.16.229,HF_wild_card,2022.2.4,Win32,59.95203837,5ed934569883864994ac0b97,64d2fd46c836a06233681665,64dc7f853d6dee47b7f02f73,,,,,,,sngl,resources/DY.BMP,resources/Empty.png,Door4,-0.323148148,-0.013888889,1,0,0,0.599,optionLeft,60,7190,4,3,0,3,0,1,,,,,,,,,,,,,,,,,,,,,,,,,,,,,,,,,,,,,,,
,,,,,,,,2023-08-16_08h53.16.229,HF_wild_card,2022.2.4,Win32,59.95203837,5ed934569883864994ac0b97,64d2fd46c836a06233681665,64dc7f853d6dee47b7f02f73,,,,,,,sngl,resources/DG.BMP,resources/Empty.png,WildCard_Ex,-0.397222222,-0.006481481,1,0,0,0.483,optionLeft,45,7235,4,4,0,4,0,1,,,,,,,,,,,,,,,,,,,,,,,,,,,,,,,,,,,,,,,
,,,,,,,,2023-08-16_08h53.16.229,HF_wild_card,2022.2.4,Win32,59.95203837,5ed934569883864994ac0b97,64d2fd46c836a06233681665,64dc7f853d6dee47b7f02f73,,,,,,,sngl,resources/Empty.png,resources/DB.BMP,Door2,0.288888889,-0.008333333,1,0,0,0.567,optionRight,40,7275,4,5,0,5,0,1,,,,,,,,,,,,,,,,,,,,,,,,,,,,,,,,,,,,,,,
,,,,,,,,2023-08-16_08h53.16.229,HF_wild_card,2022.2.4,Win32,59.95203837,5ed934569883864994ac0b97,64d2fd46c836a06233681665,64dc7f853d6dee47b7f02f73,,,,,,,sngl,resources/Empty.png,resources/DY.BMP,Door4,0.263888889,-0.00462963,1,0,0,0.465,optionRight,80,7355,4,6,0,6,0,1,,,,,,,,,,,,,,,,,,,,,,,,,,,,,,,,,,,,,,,
,,,,,,,,2023-08-16_08h53.16.229,HF_wild_card,2022.2.4,Win32,59.95203837,5ed934569883864994ac0b97,64d2fd46c836a06233681665,64dc7f853d6dee47b7f02f73,,,,,,,decisionTrl,resources/DB.BMP,resources/DG.BMP,WildCard_Ex,0.22037037,-0.012037037,1,0,0,1.049,optionRight,45,7400,4,7,0,7,0,1,,,,,,,,,,,,,,,,,,,,,,,,,,,,,,,,,,,,,,,
,,,,,,,,2023-08-16_08h53.16.229,HF_wild_card,2022.2.4,Win32,59.95203837,5ed934569883864994ac0b97,64d2fd46c836a06233681665,64dc7f853d6dee47b7f02f73,,,,,,,sngl,resources/DP.BMP,resources/Empty.png,Door1,-0.205555556,-0.012037037,1,0,0,0.517,optionLeft,30,7430,4,8,0,8,0,1,,,,,,,,,,,,,,,,,,,,,,,,,,,,,,,,,,,,,,,
,,,,,,,,2023-08-16_08h53.16.229,HF_wild_card,2022.2.4,Win32,59.95203837,5ed934569883864994ac0b97,64d2fd46c836a06233681665,64dc7f853d6dee47b7f02f73,,,,,,,ctch,resources/DB.BMP,resources/DR.BMP,Door3,0.277777778,-0.023148148,1,0,0,0.666,optionRight,70,7500,4,9,0,9,0,1,,,,,,,,,,,,,,,,,,,,,,,,,,,,,,,,,,,,,,,
,,,,,,,,2023-08-16_08h53.16.229,HF_wild_card,2022.2.4,Win32,59.95203837,5ed934569883864994ac0b97,64d2fd46c836a06233681665,64dc7f853d6dee47b7f02f73,,,,,,,ctch,resources/DY.BMP,resources/DP.BMP,Door4,-0.224074074,0.002777778,1,0,0,0.714,optionLeft,60,7560,4,10,0,10,0,1,,,,,,,,,,,,,,,,,,,,,,,,,,,,,,,,,,,,,,,
,,,,,,,,2023-08-16_08h53.16.229,HF_wild_card,2022.2.4,Win32,59.95203837,5ed934569883864994ac0b97,64d2fd46c836a06233681665,64dc7f853d6dee47b7f02f73,,,,,,,decisionTrl,resources/DR.BMP,resources/DY.BMP,Door4,0.340740741,-0.025,1,0,0,1.199,optionRight,60,7620,4,11,0,11,0,1,,,,,,,,,,,,,,,,,,,,,,,,,,,,,,,,,,,,,,,
,,,,,,,,2023-08-16_08h53.16.229,HF_wild_card,2022.2.4,Win32,59.95203837,5ed934569883864994ac0b97,64d2fd46c836a06233681665,64dc7f853d6dee47b7f02f73,,,,,,,sngl,resources/DR.BMP,resources/Empty.png,Door3,-0.256481481,-0.027777778,1,0,0,0.465,optionLeft,70,7690,4,12,0,12,0,1,,,,,,,,,,,,,,,,,,,,,,,,,,,,,,,,,,,,,,,
,,,,,,,,2023-08-16_08h53.16.229,HF_wild_card,2022.2.4,Win32,59.95203837,5ed934569883864994ac0b97,64d2fd46c836a06233681665,64dc7f853d6dee47b7f02f73,,,,,,,decisionTrl,resources/DY.BMP,resources/DR.BMP,Door3,0.287962963,-0.017592593,1,0,0,0.783,optionRight,70,7760,4,13,0,13,0,1,,,,,,,,,,,,,,,,,,,,,,,,,,,,,,,,,,,,,,,
,,,,,,,,2023-08-16_08h53.16.229,HF_wild_card,2022.2.4,Win32,59.95203837,5ed934569883864994ac0b97,64d2fd46c836a06233681665,64dc7f853d6dee47b7f02f73,,,,,,,ctch,resources/DR.BMP,resources/DB.BMP,Door3,-0.227777778,-0.012962963,1,0,0,0.7,optionLeft,70,7830,4,14,0,14,0,1,,,,,,,,,,,,,,,,,,,,,,,,,,,,,,,,,,,,,,,
,,,,,,,,2023-08-16_08h53.16.229,HF_wild_card,2022.2.4,Win32,59.95203837,5ed934569883864994ac0b97,64d2fd46c836a06233681665,64dc7f853d6dee47b7f02f73,,,,,,,ctch,resources/DB.BMP,resources/DR.BMP,Door3,0.211111111,-0.016666667,1,0,0,0.582,optionRight,70,7900,4,15,0,15,0,1,,,,,,,,,,,,,,,,,,,,,,,,,,,,,,,,,,,,,,,
,,,,,,,,2023-08-16_08h53.16.229,HF_wild_card,2022.2.4,Win32,59.95203837,5ed934569883864994ac0b97,64d2fd46c836a06233681665,64dc7f853d6dee47b7f02f73,,,,,,,sngl,resources/Empty.png,resources/DR.BMP,Door3,0.25,-0.013888889,1,0,0,0.532,optionRight,70,7970,4,16,0,16,0,1,,,,,,,,,,,,,,,,,,,,,,,,,,,,,,,,,,,,,,,
,,,,,,,,2023-08-16_08h53.16.229,HF_wild_card,2022.2.4,Win32,59.95203837,5ed934569883864994ac0b97,64d2fd46c836a06233681665,64dc7f853d6dee47b7f02f73,,,,,,,decisionTrl,resources/DY.BMP,resources/DR.BMP,Door4,-0.22962963,0.011111111,1,0,0,1.317,optionLeft,80,8050,4,17,0,17,0,1,,,,,,,,,,,,,,,,,,,,,,,,,,,,,,,,,,,,,,,
,,,,,,,,2023-08-16_08h53.16.229,HF_wild_card,2022.2.4,Win32,59.95203837,5ed934569883864994ac0b97,64d2fd46c836a06233681665,64dc7f853d6dee47b7f02f73,,,,,,,ctch,resources/DY.BMP,resources/DP.BMP,Door4,-0.101851852,-0.016666667,1,0,0,1.517,optionLeft,60,8110,4,18,0,18,0,1,,,,,,,,,,,,,,,,,,,,,,,,,,,,,,,,,,,,,,,
,,,,,,,,2023-08-16_08h53.16.229,HF_wild_card,2022.2.4,Win32,59.95203837,5ed934569883864994ac0b97,64d2fd46c836a06233681665,64dc7f853d6dee47b7f02f73,,,,,,,decisionTrl,resources/DY.BMP,resources/DR.BMP,Door4,-0.217592593,-0.001851852,1,0,0,0.883,optionLeft,80,8190,4,19,0,19,0,1,,,,,,,,,,,,,,,,,,,,,,,,,,,,,,,,,,,,,,,
,,,,,,,,2023-08-16_08h53.16.229,HF_wild_card,2022.2.4,Win32,59.95203837,5ed934569883864994ac0b97,64d2fd46c836a06233681665,64dc7f853d6dee47b7f02f73,,,,,,,ctch,resources/DP.BMP,resources/DY.BMP,Door4,0.259259259,-0.003703704,1,0,0,0.85,optionRight,80,8270,4,20,0,20,0,1,,,,,,,,,,,,,,,,,,,,,,,,,,,,,,,,,,,,,,,
,,,,,,,,2023-08-16_08h53.16.229,HF_wild_card,2022.2.4,Win32,59.95203837,5ed934569883864994ac0b97,64d2fd46c836a06233681665,64dc7f853d6dee47b7f02f73,,,,,,,sngl,resources/Empty.png,resources/DG.BMP,WildCard_Ex,0.188888889,-0.010185185,1,0,0,0.583,optionRight,45,8315,4,21,0,21,0,1,,,,,,,,,,,,,,,,,,,,,,,,,,,,,,,,,,,,,,,
,,,,,,,,2023-08-16_08h53.16.229,HF_wild_card,2022.2.4,Win32,59.95203837,5ed934569883864994ac0b97,64d2fd46c836a06233681665,64dc7f853d6dee47b7f02f73,,,,,,,decisionTrl,resources/DG.BMP,resources/DB.BMP,WildCard_Ex,-0.200925926,-0.002777778,1,0,0,0.682,optionLeft,55,8370,4,22,0,22,0,1,,,,,,,,,,,,,,,,,,,,,,,,,,,,,,,,,,,,,,,
,,,,,,,,2023-08-16_08h53.16.229,HF_wild_card,2022.2.4,Win32,59.95203837,5ed934569883864994ac0b97,64d2fd46c836a06233681665,64dc7f853d6dee47b7f02f73,,,,,,,decisionTrl,resources/DG.BMP,resources/DR.BMP,Door3,0.410185185,-0.012962963,1,0,0,1.016,optionRight,70,8440,4,23,0,23,0,1,,,,,,,,,,,,,,,,,,,,,,,,,,,,,,,,,,,,,,,
,,,,,,,,2023-08-16_08h53.16.229,HF_wild_card,2022.2.4,Win32,59.95203837,5ed934569883864994ac0b97,64d2fd46c836a06233681665,64dc7f853d6dee47b7f02f73,,,,,,,decisionTrl,resources/DB.BMP,resources/DP.BMP,Door1,0.251851852,-0.005555556,1,0,0,0.945,optionRight,30,8470,4,24,0,24,0,1,,,,,,,,,,,,,,,,,,,,,,,,,,,,,,,,,,,,,,,
,,,,,,,,2023-08-16_08h53.16.229,HF_wild_card,2022.2.4,Win32,59.95203837,5ed934569883864994ac0b97,64d2fd46c836a06233681665,64dc7f853d6dee47b7f02f73,,,,,,,decisionTrl,resources/DP.BMP,resources/DB.BMP,Door1,-0.252777778,-0.007407407,1,0,0,0.683,optionLeft,30,8500,4,25,0,25,0,1,,,,,,,,,,,,,,,,,,,,,,,,,,,,,,,,,,,,,,,
,,,,,,,,2023-08-16_08h53.16.229,HF_wild_card,2022.2.4,Win32,59.95203837,5ed934569883864994ac0b97,64d2fd46c836a06233681665,64dc7f853d6dee47b7f02f73,,,,,,,decisionTrl,resources/DG.BMP,resources/DY.BMP,Door4,0.276851852,0.007407407,1,0,0,1.298,optionRight,60,8560,4,26,0,26,0,1,,,,,,,,,,,,,,,,,,,,,,,,,,,,,,,,,,,,,,,
,,,,,,,,2023-08-16_08h53.16.229,HF_wild_card,2022.2.4,Win32,59.95203837,5ed934569883864994ac0b97,64d2fd46c836a06233681665,64dc7f853d6dee47b7f02f73,,,,,,,decisionTrl,resources/DP.BMP,resources/DB.BMP,Door1,-0.235185185,-0.003703704,1,0,0,0.665,optionLeft,30,8590,4,27,0,27,0,1,,,,,,,,,,,,,,,,,,,,,,,,,,,,,,,,,,,,,,,
,,,,,,,,2023-08-16_08h53.16.229,HF_wild_card,2022.2.4,Win32,59.95203837,5ed934569883864994ac0b97,64d2fd46c836a06233681665,64dc7f853d6dee47b7f02f73,,,,,,,sngl,resources/Empty.png,resources/DP.BMP,Door1,0.192592593,-0.012962963,1,0,0,0.716,optionRight,30,8620,4,28,0,28,0,1,,,,,,,,,,,,,,,,,,,,,,,,,,,,,,,,,,,,,,,
,,,,,,,,2023-08-16_08h53.16.229,HF_wild_card,2022.2.4,Win32,59.95203837,5ed934569883864994ac0b97,64d2fd46c836a06233681665,64dc7f853d6dee47b7f02f73,,,,,,,decisionTrl,resources/DR.BMP,resources/DY.BMP,Door4,0.230555556,-0.005555556,1,0,0,1.065,optionRight,60,8680,4,29,0,29,0,1,,,,,,,,,,,,,,,,,,,,,,,,,,,,,,,,,,,,,,,
,,,,,,,,2023-08-16_08h53.16.229,HF_wild_card,2022.2.4,Win32,59.95203837,5ed934569883864994ac0b97,64d2fd46c836a06233681665,64dc7f853d6dee47b7f02f73,,,,,,,decisionTrl,resources/DP.BMP,resources/DG.BMP,WildCard_Ex,0.197222222,-0.02037037,1,0,0,1.567,optionRight,45,8725,4,30,0,30,0,1,,,,,,,,,,,,,,,,,,,,,,,,,,,,,,,,,,,,,,,
,,,,,,,,2023-08-16_08h53.16.229,HF_wild_card,2022.2.4,Win32,59.95203837,5ed934569883864994ac0b97,64d2fd46c836a06233681665,64dc7f853d6dee47b7f02f73,,,,,,,decisionTrl,resources/DY.BMP,resources/DR.BMP,Door4,-0.214814815,-0.007407407,1,0,0,1.1,optionLeft,60,8785,4,31,0,31,0,1,,,,,,,,,,,,,,,,,,,,,,,,,,,,,,,,,,,,,,,
,,,,,,,,2023-08-16_08h53.16.229,HF_wild_card,2022.2.4,Win32,59.95203837,5ed934569883864994ac0b97,64d2fd46c836a06233681665,64dc7f853d6dee47b7f02f73,,,,,,,sngl,resources/DB.BMP,resources/Empty.png,Door2,-0.212037037,0.010185185,1,0,0,0.532,optionLeft,20,8805,4,32,0,32,0,1,,,,,,,,,,,,,,,,,,,,,,,,,,,,,,,,,,,,,,,
,,,,,,,,2023-08-16_08h53.16.229,HF_wild_card,2022.2.4,Win32,59.95203837,5ed934569883864994ac0b97,64d2fd46c836a06233681665,64dc7f853d6dee47b7f02f73,,,,,,,decisionTrl,resources/DR.BMP,resources/DY.BMP,Door4,0.437037037,-0.02037037,1,0,0,0.999,optionRight,80,8885,4,33,0,33,0,1,,,,,,,,,,,,,,,,,,,,,,,,,,,,,,,,,,,,,,,
,,,,,,,,2023-08-16_08h53.16.229,HF_wild_card,2022.2.4,Win32,59.95203837,5ed934569883864994ac0b97,64d2fd46c836a06233681665,64dc7f853d6dee47b7f02f73,,,,,,,decisionTrl,resources/DY.BMP,resources/DG.BMP,Door4,-0.275925926,-0.005555556,1,0,0,0.966,optionLeft,80,8965,4,34,0,34,0,1,,,,,,,,,,,,,,,,,,,,,,,,,,,,,,,,,,,,,,,
,,,,,,,,2023-08-16_08h53.16.229,HF_wild_card,2022.2.4,Win32,59.95203837,5ed934569883864994ac0b97,64d2fd46c836a06233681665,64dc7f853d6dee47b7f02f73,,,,,,,decisionTrl,resources/DP.BMP,resources/DB.BMP,Door1,-0.265740741,-0.010185185,1,0,0,0.683,optionLeft,30,8995,4,35,0,35,0,1,,,,,,,,,,,,,,,,,,,,,,,,,,,,,,,,,,,,,,,
,,,,,,,,2023-08-16_08h53.16.229,HF_wild_card,2022.2.4,Win32,59.95203837,5ed934569883864994ac0b97,64d2fd46c836a06233681665,64dc7f853d6dee47b7f02f73,,,,,,,decisionTrl,resources/DR.BMP,resources/DG.BMP,Door3,-0.282407407,0.006481481,1,0,0,1.4,optionLeft,70,9065,4,36,0,36,0,1,,,,,,,,,,,,,,,,,,,,,,,,,,,,,,,,,,,,,,,
,,,,,,,,2023-08-16_08h53.16.229,HF_wild_card,2022.2.4,Win32,59.95203837,5ed934569883864994ac0b97,64d2fd46c836a06233681665,64dc7f853d6dee47b7f02f73,,,,,,,ctch,resources/DP.BMP,resources/DY.BMP,Door4,0.218518519,-0.016666667,1,0,0,1.146,optionRight,80,9145,4,37,0,37,0,1,,,,,,,,,,,,,,,,,,,,,,,,,,,,,,,,,,,,,,,
,,,,,,,,2023-08-16_08h53.16.229,HF_wild_card,2022.2.4,Win32,59.95203837,5ed934569883864994ac0b97,64d2fd46c836a06233681665,64dc7f853d6dee47b7f02f73,,,,,,,decisionTrl,resources/DG.BMP,resources/DP.BMP,WildCard_Ex,-0.265740741,0,1,0,0,1.433,optionLeft,45,9190,4,38,0,38,0,1,,,,,,,,,,,,,,,,,,,,,,,,,,,,,,,,,,,,,,,
,,,,,,,,2023-08-16_08h53.16.229,HF_wild_card,2022.2.4,Win32,59.95203837,5ed934569883864994ac0b97,64d2fd46c836a06233681665,64dc7f853d6dee47b7f02f73,,,,,,,decisionTrl,resources/DB.BMP,resources/DP.BMP,Door1,0.242592593,-0.019444444,1,0,0,1.266,optionRight,30,9220,4,39,0,39,0,1,,,,,,,,,,,,,,,,,,,,,,,,,,,,,,,,,,,,,,,
,,,,,,,,2023-08-16_08h53.16.229,HF_wild_card,2022.2.4,Win32,59.95203837,5ed934569883864994ac0b97,64d2fd46c836a06233681665,64dc7f853d6dee47b7f02f73,,,,,,,decisionTrl,resources/DB.BMP,resources/DP.BMP,Door1,0.281481481,-0.022222222,1,0,0,0.598,optionRight,30,9250,4,40,0,40,0,1,,,,,,,,,,,,,,,,,,,,,,,,,,,,,,,,,,,,,,,
,,,,,,,,2023-08-16_08h53.16.229,HF_wild_card,2022.2.4,Win32,59.95203837,5ed934569883864994ac0b97,64d2fd46c836a06233681665,64dc7f853d6dee47b7f02f73,,,,,,,ctch,resources/DR.BMP,resources/DB.BMP,Door3,-0.287037037,0.010185185,1,0,0,1.182,optionLeft,70,9320,4,41,0,41,0,1,,,,,,,,,,,,,,,,,,,,,,,,,,,,,,,,,,,,,,,
,,,,,,,,2023-08-16_08h53.16.229,HF_wild_card,2022.2.4,Win32,59.95203837,5ed934569883864994ac0b97,64d2fd46c836a06233681665,64dc7f853d6dee47b7f02f73,,,,,,,decisionTrl,resources/DR.BMP,resources/DY.BMP,Door4,0.213888889,-0.007407407,1,0,0,0.982,optionRight,60,9380,4,42,0,42,0,1,,,,,,,,,,,,,,,,,,,,,,,,,,,,,,,,,,,,,,,
,,,,,,,,2023-08-16_08h53.16.229,HF_wild_card,2022.2.4,Win32,59.95203837,5ed934569883864994ac0b97,64d2fd46c836a06233681665,64dc7f853d6dee47b7f02f73,,,,,,,decisionTrl,resources/DP.BMP,resources/DB.BMP,Door1,-0.324074074,0.010185185,1,0,0,0.999,optionLeft,30,9410,4,43,0,43,0,1,,,,,,,,,,,,,,,,,,,,,,,,,,,,,,,,,,,,,,,
,,,,,,,,2023-08-16_08h53.16.229,HF_wild_card,2022.2.4,Win32,59.95203837,5ed934569883864994ac0b97,64d2fd46c836a06233681665,64dc7f853d6dee47b7f02f73,,,,,,,,,,,,,,,,,,,,,,,,,,3,0,3,0,1,,,,,,,,,,,,,,,,,,,,,,,,,,,,,,,,,,
,,,,,,,,2023-08-16_08h53.16.229,HF_wild_card,2022.2.4,Win32,59.95203837,5ed934569883864994ac0b97,64d2fd46c836a06233681665,64dc7f853d6dee47b7f02f73,,,,,,,sngl,resources/DY.BMP,resources/Empty.png,Door4,-0.211111111,-0.151851852,1,0,0,0.731,optionLeft,80,9490,5,0,0,0,0,1,,,,,,,,,,,,,,,,,,,,,,,,,,,,,,,,,,,,,,,
,,,,,,,,2023-08-16_08h53.16.229,HF_wild_card,2022.2.4,Win32,59.95203837,5ed934569883864994ac0b97,64d2fd46c836a06233681665,64dc7f853d6dee47b7f02f73,,,,,,,sngl,resources/Empty.png,resources/DB.BMP,Door2,0.3,0.012037037,1,0,0,0.432,optionRight,20,9510,5,1,0,1,0,1,,,,,,,,,,,,,,,,,,,,,,,,,,,,,,,,,,,,,,,
,,,,,,,,2023-08-16_08h53.16.229,HF_wild_card,2022.2.4,Win32,59.95203837,5ed934569883864994ac0b97,64d2fd46c836a06233681665,64dc7f853d6dee47b7f02f73,,,,,,,sngl,resources/Empty.png,resources/DG.BMP,WildCard_Ex,0.22962963,-0.009259259,1,0,0,0.465,optionRight,45,9555,5,2,0,2,0,1,,,,,,,,,,,,,,,,,,,,,,,,,,,,,,,,,,,,,,,
,,,,,,,,2023-08-16_08h53.16.229,HF_wild_card,2022.2.4,Win32,59.95203837,5ed934569883864994ac0b97,64d2fd46c836a06233681665,64dc7f853d6dee47b7f02f73,,,,,,,decisionTrl,resources/DB.BMP,resources/DP.BMP,Door1,0.326851852,-0.012962963,1,0,0,0.699,optionRight,30,9585,5,3,0,3,0,1,,,,,,,,,,,,,,,,,,,,,,,,,,,,,,,,,,,,,,,
,,,,,,,,2023-08-16_08h53.16.229,HF_wild_card,2022.2.4,Win32,59.95203837,5ed934569883864994ac0b97,64d2fd46c836a06233681665,64dc7f853d6dee47b7f02f73,,,,,,,ctch,resources/DP.BMP,resources/DY.BMP,Door4,0.182407407,-0.015740741,1,0,0,1.349,optionRight,60,9645,5,4,0,4,0,1,,,,,,,,,,,,,,,,,,,,,,,,,,,,,,,,,,,,,,,
,,,,,,,,2023-08-16_08h53.16.229,HF_wild_card,2022.2.4,Win32,59.95203837,5ed934569883864994ac0b97,64d2fd46c836a06233681665,64dc7f853d6dee47b7f02f73,,,,,,,decisionTrl,resources/DY.BMP,resources/DR.BMP,Door3,0.209259259,-0.013888889,1,0,0,0.548,optionRight,70,9715,5,5,0,5,0,1,,,,,,,,,,,,,,,,,,,,,,,,,,,,,,,,,,,,,,,
,,,,,,,,2023-08-16_08h53.16.229,HF_wild_card,2022.2.4,Win32,59.95203837,5ed934569883864994ac0b97,64d2fd46c836a06233681665,64dc7f853d6dee47b7f02f73,,,,,,,decisionTrl,resources/DG.BMP,resources/DP.BMP,WildCard_Ex,-0.280555556,-0.003703704,1,0,0,1.215,optionLeft,55,9770,5,6,0,6,0,1,,,,,,,,,,,,,,,,,,,,,,,,,,,,,,,,,,,,,,,
,,,,,,,,2023-08-16_08h53.16.229,HF_wild_card,2022.2.4,Win32,59.95203837,5ed934569883864994ac0b97,64d2fd46c836a06233681665,64dc7f853d6dee47b7f02f73,,,,,,,ctch,resources/DY.BMP,resources/DP.BMP,Door4,-0.283333333,-0.026851852,1,0,0,0.866,optionLeft,80,9850,5,7,0,7,0,1,,,,,,,,,,,,,,,,,,,,,,,,,,,,,,,,,,,,,,,
,,,,,,,,2023-08-16_08h53.16.229,HF_wild_card,2022.2.4,Win32,59.95203837,5ed934569883864994ac0b97,64d2fd46c836a06233681665,64dc7f853d6dee47b7f02f73,,,,,,,decisionTrl,resources/DR.BMP,resources/DY.BMP,Door4,0.466666667,-0.031481481,1,0,0,2.15,optionRight,80,9930,5,8,0,8,0,1,,,,,,,,,,,,,,,,,,,,,,,,,,,,,,,,,,,,,,,
,,,,,,,,2023-08-16_08h53.16.229,HF_wild_card,2022.2.4,Win32,59.95203837,5ed934569883864994ac0b97,64d2fd46c836a06233681665,64dc7f853d6dee47b7f02f73,,,,,,,ctch,resources/DB.BMP,resources/DR.BMP,Door3,0.192592593,0.010185185,1,0,0,0.749,optionRight,70,10000,5,9,0,9,0,1,,,,,,,,,,,,,,,,,,,,,,,,,,,,,,,,,,,,,,,
,,,,,,,,2023-08-16_08h53.16.229,HF_wild_card,2022.2.4,Win32,59.95203837,5ed934569883864994ac0b97,64d2fd46c836a06233681665,64dc7f853d6dee47b7f02f73,,,,,,,decisionTrl,resources/DG.BMP,resources/DR.BMP,Door3,0.287962963,-0.000925926,1,0,0,0.883,optionRight,70,10070,5,10,0,10,0,1,,,,,,,,,,,,,,,,,,,,,,,,,,,,,,,,,,,,,,,
,,,,,,,,2023-08-16_08h53.16.229,HF_wild_card,2022.2.4,Win32,59.95203837,5ed934569883864994ac0b97,64d2fd46c836a06233681665,64dc7f853d6dee47b7f02f73,,,,,,,decisionTrl,resources/DY.BMP,resources/DR.BMP,Door4,-0.235185185,-0.019444444,1,0,0,0.966,optionLeft,60,10130,5,11,0,11,0,1,,,,,,,,,,,,,,,,,,,,,,,,,,,,,,,,,,,,,,,
,,,,,,,,2023-08-16_08h53.16.229,HF_wild_card,2022.2.4,Win32,59.95203837,5ed934569883864994ac0b97,64d2fd46c836a06233681665,64dc7f853d6dee47b7f02f73,,,,,,,decisionTrl,resources/DB.BMP,resources/DP.BMP,Door1,0.205555556,-0.00462963,1,0,0,0.882,optionRight,30,10160,5,12,0,12,0,1,,,,,,,,,,,,,,,,,,,,,,,,,,,,,,,,,,,,,,,
,,,,,,,,2023-08-16_08h53.16.229,HF_wild_card,2022.2.4,Win32,59.95203837,5ed934569883864994ac0b97,64d2fd46c836a06233681665,64dc7f853d6dee47b7f02f73,,,,,,,ctch,resources/DP.BMP,resources/DY.BMP,Door4,0.339814815,0.007407407,1,0,0,0.749,optionRight,80,10240,5,13,0,13,0,1,,,,,,,,,,,,,,,,,,,,,,,,,,,,,,,,,,,,,,,
,,,,,,,,2023-08-16_08h53.16.229,HF_wild_card,2022.2.4,Win32,59.95203837,5ed934569883864994ac0b97,64d2fd46c836a06233681665,64dc7f853d6dee47b7f02f73,,,,,,,decisionTrl,resources/DP.BMP,resources/DB.BMP,Door1,-0.187962963,-0.015740741,1,0,0,1.667,optionLeft,30,10270,5,14,0,14,0,1,,,,,,,,,,,,,,,,,,,,,,,,,,,,,,,,,,,,,,,
,,,,,,,,2023-08-16_08h53.16.229,HF_wild_card,2022.2.4,Win32,59.95203837,5ed934569883864994ac0b97,64d2fd46c836a06233681665,64dc7f853d6dee47b7f02f73,,,,,,,decisionTrl,resources/DP.BMP,resources/DG.BMP,WildCard_Ex,0.337037037,0.001851852,1,0,0,1.465,optionRight,45,10315,5,15,0,15,0,1,,,,,,,,,,,,,,,,,,,,,,,,,,,,,,,,,,,,,,,
,,,,,,,,2023-08-16_08h53.16.229,HF_wild_card,2022.2.4,Win32,59.95203837,5ed934569883864994ac0b97,64d2fd46c836a06233681665,64dc7f853d6dee47b7f02f73,,,,,,,ctch,resources/DB.BMP,resources/DR.BMP,Door3,0.248148148,0.003703704,1,0,0,0.649,optionRight,70,10385,5,16,0,16,0,1,,,,,,,,,,,,,,,,,,,,,,,,,,,,,,,,,,,,,,,
,,,,,,,,2023-08-16_08h53.16.229,HF_wild_card,2022.2.4,Win32,59.95203837,5ed934569883864994ac0b97,64d2fd46c836a06233681665,64dc7f853d6dee47b7f02f73,,,,,,,sngl,resources/Empty.png,resources/DP.BMP,Door1,0.243518519,-0.012962963,1,0,0,0.532,optionRight,30,10415,5,17,0,17,0,1,,,,,,,,,,,,,,,,,,,,,,,,,,,,,,,,,,,,,,,
,,,,,,,,2023-08-16_08h53.16.229,HF_wild_card,2022.2.4,Win32,59.95203837,5ed934569883864994ac0b97,64d2fd46c836a06233681665,64dc7f853d6dee47b7f02f73,,,,,,,sngl,resources/Empty.png,resources/DY.BMP,Door4,0.199074074,-0.010185185,1,0,0,0.516,optionRight,60,10475,5,18,0,18,0,1,,,,,,,,,,,,,,,,,,,,,,,,,,,,,,,,,,,,,,,
,,,,,,,,2023-08-16_08h53.16.229,HF_wild_card,2022.2.4,Win32,59.95203837,5ed934569883864994ac0b97,64d2fd46c836a06233681665,64dc7f853d6dee47b7f02f73,,,,,,,decisionTrl,resources/DB.BMP,resources/DG.BMP,WildCard_Ex,0.225925926,-0.002777778,1,0,0,0.865,optionRight,55,10530,5,19,0,19,0,1,,,,,,,,,,,,,,,,,,,,,,,,,,,,,,,,,,,,,,,
,,,,,,,,2023-08-16_08h53.16.229,HF_wild_card,2022.2.4,Win32,59.95203837,5ed934569883864994ac0b97,64d2fd46c836a06233681665,64dc7f853d6dee47b7f02f73,,,,,,,ctch,resources/DY.BMP,resources/DP.BMP,Door4,-0.226851852,-0.025925926,1,0,0,0.916,optionLeft,80,10610,5,20,0,20,0,1,,,,,,,,,,,,,,,,,,,,,,,,,,,,,,,,,,,,,,,
,,,,,,,,2023-08-16_08h53.16.229,HF_wild_card,2022.2.4,Win32,59.95203837,5ed934569883864994ac0b97,64d2fd46c836a06233681665,64dc7f853d6dee47b7f02f73,,,,,,,sngl,resources/DB.BMP,resources/Empty.png,Door2,-0.127777778,-0.034259259,1,0,0,0.583,optionLeft,40,10650,5,21,0,21,0,1,,,,,,,,,,,,,,,,,,,,,,,,,,,,,,,,,,,,,,,
,,,,,,,,2023-08-16_08h53.16.229,HF_wild_card,2022.2.4,Win32,59.95203837,5ed934569883864994ac0b97,64d2fd46c836a06233681665,64dc7f853d6dee47b7f02f73,,,,,,,sngl,resources/Empty.png,resources/DR.BMP,Door3,0.401851852,-0.014814815,1,0,0,0.565,optionRight,70,10720,5,22,0,22,0,1,,,,,,,,,,,,,,,,,,,,,,,,,,,,,,,,,,,,,,,
,,,,,,,,2023-08-16_08h53.16.229,HF_wild_card,2022.2.4,Win32,59.95203837,5ed934569883864994ac0b97,64d2fd46c836a06233681665,64dc7f853d6dee47b7f02f73,,,,,,,decisionTrl,resources/DY.BMP,resources/DR.BMP,Door4,-0.206481481,-0.00462963,1,0,0,1.215,optionLeft,80,10800,5,23,0,23,0,1,,,,,,,,,,,,,,,,,,,,,,,,,,,,,,,,,,,,,,,
,,,,,,,,2023-08-16_08h53.16.229,HF_wild_card,2022.2.4,Win32,59.95203837,5ed934569883864994ac0b97,64d2fd46c836a06233681665,64dc7f853d6dee47b7f02f73,,,,,,,decisionTrl,resources/DY.BMP,resources/DG.BMP,Door4,-0.268518519,-0.005555556,1,0,0,0.516,optionLeft,60,10860,5,24,0,24,0,1,,,,,,,,,,,,,,,,,,,,,,,,,,,,,,,,,,,,,,,
,,,,,,,,2023-08-16_08h53.16.229,HF_wild_card,2022.2.4,Win32,59.95203837,5ed934569883864994ac0b97,64d2fd46c836a06233681665,64dc7f853d6dee47b7f02f73,,,,,,,decisionTrl,resources/DR.BMP,resources/DY.BMP,Door4,0.262962963,0.012962963,1,0,0,1.183,optionRight,60,10920,5,25,0,25,0,1,,,,,,,,,,,,,,,,,,,,,,,,,,,,,,,,,,,,,,,
,,,,,,,,2023-08-16_08h53.16.229,HF_wild_card,2022.2.4,Win32,59.95203837,5ed934569883864994ac0b97,64d2fd46c836a06233681665,64dc7f853d6dee47b7f02f73,,,,,,,decisionTrl,resources/DR.BMP,resources/DG.BMP,WildCard_Ex,0.209259259,-0.000925926,1,0,0,0.632,optionRight,45,10965,5,26,0,26,0,1,,,,,,,,,,,,,,,,,,,,,,,,,,,,,,,,,,,,,,,
,,,,,,,,2023-08-16_08h53.16.229,HF_wild_card,2022.2.4,Win32,59.95203837,5ed934569883864994ac0b97,64d2fd46c836a06233681665,64dc7f853d6dee47b7f02f73,,,,,,,decisionTrl,resources/DB.BMP,resources/DP.BMP,Door1,0.17037037,0,1,0,0,0.883,optionRight,30,10995,5,27,0,27,0,1,,,,,,,,,,,,,,,,,,,,,,,,,,,,,,,,,,,,,,,
,,,,,,,,2023-08-16_08h53.16.229,HF_wild_card,2022.2.4,Win32,59.95203837,5ed934569883864994ac0b97,64d2fd46c836a06233681665,64dc7f853d6dee47b7f02f73,,,,,,,sngl,resources/Empty.png,resources/DG.BMP,WildCard_Ex,0.236111111,-0.006481481,1,0,0,0.565,optionRight,55,11050,5,28,0,28,0,1,,,,,,,,,,,,,,,,,,,,,,,,,,,,,,,,,,,,,,,
,,,,,,,,2023-08-16_08h53.16.229,HF_wild_card,2022.2.4,Win32,59.95203837,5ed934569883864994ac0b97,64d2fd46c836a06233681665,64dc7f853d6dee47b7f02f73,,,,,,,ctch,resources/DR.BMP,resources/DB.BMP,Door3,-0.208333333,-0.002777778,1,0,0,0.866,optionLeft,70,11120,5,29,0,29,0,1,,,,,,,,,,,,,,,,,,,,,,,,,,,,,,,,,,,,,,,
,,,,,,,,2023-08-16_08h53.16.229,HF_wild_card,2022.2.4,Win32,59.95203837,5ed934569883864994ac0b97,64d2fd46c836a06233681665,64dc7f853d6dee47b7f02f73,,,,,,,ctch,resources/DR.BMP,resources/DB.BMP,Door3,-0.22037037,-0.010185185,1,0,0,0.617,optionLeft,70,11190,5,30,0,30,0,1,,,,,,,,,,,,,,,,,,,,,,,,,,,,,,,,,,,,,,,
,,,,,,,,2023-08-16_08h53.16.229,HF_wild_card,2022.2.4,Win32,59.95203837,5ed934569883864994ac0b97,64d2fd46c836a06233681665,64dc7f853d6dee47b7f02f73,,,,,,,sngl,resources/DR.BMP,resources/Empty.png,Door3,-0.141666667,-0.010185185,1,0,0,0.562,optionLeft,70,11260,5,31,0,31,0,1,,,,,,,,,,,,,,,,,,,,,,,,,,,,,,,,,,,,,,,
,,,,,,,,2023-08-16_08h53.16.229,HF_wild_card,2022.2.4,Win32,59.95203837,5ed934569883864994ac0b97,64d2fd46c836a06233681665,64dc7f853d6dee47b7f02f73,,,,,,,decisionTrl,resources/DP.BMP,resources/DB.BMP,Door1,-0.182407407,-0.012962963,1,0,0,1.283,optionLeft,30,11290,5,32,0,32,0,1,,,,,,,,,,,,,,,,,,,,,,,,,,,,,,,,,,,,,,,
,,,,,,,,2023-08-16_08h53.16.229,HF_wild_card,2022.2.4,Win32,59.95203837,5ed934569883864994ac0b97,64d2fd46c836a06233681665,64dc7f853d6dee47b7f02f73,,,,,,,sngl,resources/DG.BMP,resources/Empty.png,WildCard_Ex,-0.141666667,-0.013888889,1,0,0,0.749,optionLeft,55,11345,5,33,0,33,0,1,,,,,,,,,,,,,,,,,,,,,,,,,,,,,,,,,,,,,,,
,,,,,,,,2023-08-16_08h53.16.229,HF_wild_card,2022.2.4,Win32,59.95203837,5ed934569883864994ac0b97,64d2fd46c836a06233681665,64dc7f853d6dee47b7f02f73,,,,,,,decisionTrl,resources/DP.BMP,resources/DB.BMP,Door1,-0.287962963,-0.02962963,1,0,0,1.049,optionLeft,30,11375,5,34,0,34,0,1,,,,,,,,,,,,,,,,,,,,,,,,,,,,,,,,,,,,,,,
,,,,,,,,2023-08-16_08h53.16.229,HF_wild_card,2022.2.4,Win32,59.95203837,5ed934569883864994ac0b97,64d2fd46c836a06233681665,64dc7f853d6dee47b7f02f73,,,,,,,decisionTrl,resources/DG.BMP,resources/DY.BMP,Door4,0.248148148,-0.011111111,1,0,0,1.299,optionRight,60,11435,5,35,0,35,0,1,,,,,,,,,,,,,,,,,,,,,,,,,,,,,,,,,,,,,,,
,,,,,,,,2023-08-16_08h53.16.229,HF_wild_card,2022.2.4,Win32,59.95203837,5ed934569883864994ac0b97,64d2fd46c836a06233681665,64dc7f853d6dee47b7f02f73,,,,,,,sngl,resources/DP.BMP,resources/Empty.png,Door1,-0.162962963,-0.016666667,1,0,0,0.515,optionLeft,30,11465,5,36,0,36,0,1,,,,,,,,,,,,,,,,,,,,,,,,,,,,,,,,,,,,,,,
,,,,,,,,2023-08-16_08h53.16.229,HF_wild_card,2022.2.4,Win32,59.95203837,5ed934569883864994ac0b97,64d2fd46c836a06233681665,64dc7f853d6dee47b7f02f73,,,,,,,decisionTrl,resources/DG.BMP,resources/DB.BMP,WildCard_Ex,-0.139814815,-0.007407407,1,0,0,1.817,optionLeft,55,11520,5,37,0,37,0,1,,,,,,,,,,,,,,,,,,,,,,,,,,,,,,,,,,,,,,,
,,,,,,,,2023-08-16_08h53.16.229,HF_wild_card,2022.2.4,Win32,59.95203837,5ed934569883864994ac0b97,64d2fd46c836a06233681665,64dc7f853d6dee47b7f02f73,,,,,,,decisionTrl,resources/DR.BMP,resources/DY.BMP,Door4,0.264814815,-0.011111111,1,0,0,0.9,optionRight,80,11600,5,38,0,38,0,1,,,,,,,,,,,,,,,,,,,,,,,,,,,,,,,,,,,,,,,
,,,,,,,,2023-08-16_08h53.16.229,HF_wild_card,2022.2.4,Win32,59.95203837,5ed934569883864994ac0b97,64d2fd46c836a06233681665,64dc7f853d6dee47b7f02f73,,,,,,,decisionTrl,resources/DY.BMP,resources/DR.BMP,Door4,-0.187037037,-0.010185185,1,0,0,0.849,optionLeft,80,11680,5,39,0,39,0,1,,,,,,,,,,,,,,,,,,,,,,,,,,,,,,,,,,,,,,,
,,,,,,,,2023-08-16_08h53.16.229,HF_wild_card,2022.2.4,Win32,59.95203837,5ed934569883864994ac0b97,64d2fd46c836a06233681665,64dc7f853d6dee47b7f02f73,,,,,,,decisionTrl,resources/DB.BMP,resources/DP.BMP,Door1,0.237037037,-0.025925926,1,0,0,1.017,optionRight,30,11710,5,40,0,40,0,1,,,,,,,,,,,,,,,,,,,,,,,,,,,,,,,,,,,,,,,
,,,,,,,,2023-08-16_08h53.16.229,HF_wild_card,2022.2.4,Win32,59.95203837,5ed934569883864994ac0b97,64d2fd46c836a06233681665,64dc7f853d6dee47b7f02f73,,,,,,,decisionTrl,resources/DR.BMP,resources/DY.BMP,Door4,0.384259259,-0.050925926,1,0,0,0.931,optionRight,60,11770,5,41,0,41,0,1,,,,,,,,,,,,,,,,,,,,,,,,,,,,,,,,,,,,,,,
,,,,,,,,2023-08-16_08h53.16.229,HF_wild_card,2022.2.4,Win32,59.95203837,5ed934569883864994ac0b97,64d2fd46c836a06233681665,64dc7f853d6dee47b7f02f73,,,,,,,decisionTrl,resources/DP.BMP,resources/DB.BMP,Door1,-0.19537037,-0.013888889,1,0,0,0.949,optionLeft,30,11800,5,42,0,42,0,1,,,,,,,,,,,,,,,,,,,,,,,,,,,,,,,,,,,,,,,
,,,,,,,,2023-08-16_08h53.16.229,HF_wild_card,2022.2.4,Win32,59.95203837,5ed934569883864994ac0b97,64d2fd46c836a06233681665,64dc7f853d6dee47b7f02f73,,,,,,,sngl,resources/DG.BMP,resources/Empty.png,WildCard_Ex,-0.189814815,-0.008333333,1,0,0,0.749,optionLeft,45,11845,5,43,0,43,0,1,,,,,,,,,,,,,,,,,,,,,,,,,,,,,,,,,,,,,,,
,,,,,,,,2023-08-16_08h53.16.229,HF_wild_card,2022.2.4,Win32,59.95203837,5ed934569883864994ac0b97,64d2fd46c836a06233681665,64dc7f853d6dee47b7f02f73,,,,,,,,,,,,,,,,,,,,,,,,,,4,0,4,0,1,,,,,,,,,,,,,,,,,,,,,,,,,,,,,,,,,,
,,,,,,,,2023-08-16_08h53.16.229,HF_wild_card,2022.2.4,Win32,59.95203837,5ed934569883864994ac0b97,64d2fd46c836a06233681665,64dc7f853d6dee47b7f02f73,,,,,,,sngl,resources/Empty.png,resources/DG.BMP,WildCard_Ex,0.561111111,-0.02962963,1,0,0,0.71,optionRight,45,11890,6,0,0,0,0,1,,,,,,,,,,,,,,,,,,,,,,,,,,,,,,,,,,,,,,,
,,,,,,,,2023-08-16_08h53.16.229,HF_wild_card,2022.2.4,Win32,59.95203837,5ed934569883864994ac0b97,64d2fd46c836a06233681665,64dc7f853d6dee47b7f02f73,,,,,,,decisionTrl,resources/DP.BMP,resources/DB.BMP,Door1,-0.157407407,-0.014814815,1,0,0,1.065,optionLeft,30,11920,6,1,0,1,0,1,,,,,,,,,,,,,,,,,,,,,,,,,,,,,,,,,,,,,,,
,,,,,,,,2023-08-16_08h53.16.229,HF_wild_card,2022.2.4,Win32,59.95203837,5ed934569883864994ac0b97,64d2fd46c836a06233681665,64dc7f853d6dee47b7f02f73,,,,,,,sngl,resources/DG.BMP,resources/Empty.png,WildCard_Ex,-0.176851852,-0.012962963,1,0,0,0.483,optionLeft,55,11975,6,2,0,2,0,1,,,,,,,,,,,,,,,,,,,,,,,,,,,,,,,,,,,,,,,
,,,,,,,,2023-08-16_08h53.16.229,HF_wild_card,2022.2.4,Win32,59.95203837,5ed934569883864994ac0b97,64d2fd46c836a06233681665,64dc7f853d6dee47b7f02f73,,,,,,,decisionTrl,resources/DB.BMP,resources/DP.BMP,Door1,0.15462963,0.001851852,1,0,0,0.849,optionRight,30,12005,6,3,0,3,0,1,,,,,,,,,,,,,,,,,,,,,,,,,,,,,,,,,,,,,,,
,,,,,,,,2023-08-16_08h53.16.229,HF_wild_card,2022.2.4,Win32,59.95203837,5ed934569883864994ac0b97,64d2fd46c836a06233681665,64dc7f853d6dee47b7f02f73,,,,,,,ctch,resources/DR.BMP,resources/DB.BMP,Door3,-0.258333333,-0.053703704,1,0,0,0.698,optionLeft,70,12075,6,4,0,4,0,1,,,,,,,,,,,,,,,,,,,,,,,,,,,,,,,,,,,,,,,
,,,,,,,,2023-08-16_08h53.16.229,HF_wild_card,2022.2.4,Win32,59.95203837,5ed934569883864994ac0b97,64d2fd46c836a06233681665,64dc7f853d6dee47b7f02f73,,,,,,,sngl,resources/Empty.png,resources/DB.BMP,Door2,0.2,-0.003703704,1,0,0,0.499,optionRight,40,12115,6,5,0,5,0,1,,,,,,,,,,,,,,,,,,,,,,,,,,,,,,,,,,,,,,,
,,,,,,,,2023-08-16_08h53.16.229,HF_wild_card,2022.2.4,Win32,59.95203837,5ed934569883864994ac0b97,64d2fd46c836a06233681665,64dc7f853d6dee47b7f02f73,,,,,,,sngl,resources/DG.BMP,resources/Empty.png,WildCard_Ex,-0.336111111,-0.022222222,1,0,0,0.464,optionLeft,45,12160,6,6,0,6,0,1,,,,,,,,,,,,,,,,,,,,,,,,,,,,,,,,,,,,,,,
,,,,,,,,2023-08-16_08h53.16.229,HF_wild_card,2022.2.4,Win32,59.95203837,5ed934569883864994ac0b97,64d2fd46c836a06233681665,64dc7f853d6dee47b7f02f73,,,,,,,decisionTrl,resources/DP.BMP,resources/DB.BMP,Door1,-0.37962963,-0.008333333,1,0,0,0.815,optionLeft,30,12190,6,7,0,7,0,1,,,,,,,,,,,,,,,,,,,,,,,,,,,,,,,,,,,,,,,
,,,,,,,,2023-08-16_08h53.16.229,HF_wild_card,2022.2.4,Win32,59.95203837,5ed934569883864994ac0b97,64d2fd46c836a06233681665,64dc7f853d6dee47b7f02f73,,,,,,,sngl,resources/DR.BMP,resources/Empty.png,Door3,-0.134259259,-0.012962963,1,0,0,0.498,optionLeft,70,12260,6,8,0,8,0,1,,,,,,,,,,,,,,,,,,,,,,,,,,,,,,,,,,,,,,,
,,,,,,,,2023-08-16_08h53.16.229,HF_wild_card,2022.2.4,Win32,59.95203837,5ed934569883864994ac0b97,64d2fd46c836a06233681665,64dc7f853d6dee47b7f02f73,,,,,,,decisionTrl,resources/DB.BMP,resources/DG.BMP,WildCard_Ex,0.187037037,-0.021296296,1,0,0,0.715,optionRight,55,12315,6,9,0,9,0,1,,,,,,,,,,,,,,,,,,,,,,,,,,,,,,,,,,,,,,,
,,,,,,,,2023-08-16_08h53.16.229,HF_wild_card,2022.2.4,Win32,59.95203837,5ed934569883864994ac0b97,64d2fd46c836a06233681665,64dc7f853d6dee47b7f02f73,,,,,,,decisionTrl,resources/DG.BMP,resources/DR.BMP,Door3,0.201851852,-0.027777778,1,0,0,0.649,optionRight,70,12385,6,10,0,10,0,1,,,,,,,,,,,,,,,,,,,,,,,,,,,,,,,,,,,,,,,
,,,,,,,,2023-08-16_08h53.16.229,HF_wild_card,2022.2.4,Win32,59.95203837,5ed934569883864994ac0b97,64d2fd46c836a06233681665,64dc7f853d6dee47b7f02f73,,,,,,,decisionTrl,resources/DR.BMP,resources/DY.BMP,Door4,0.252777778,-0.023148148,1,0,0,1.066,optionRight,60,12445,6,11,0,11,0,1,,,,,,,,,,,,,,,,,,,,,,,,,,,,,,,,,,,,,,,
,,,,,,,,2023-08-16_08h53.16.229,HF_wild_card,2022.2.4,Win32,59.95203837,5ed934569883864994ac0b97,64d2fd46c836a06233681665,64dc7f853d6dee47b7f02f73,,,,,,,sngl,resources/DB.BMP,resources/Empty.png,Door2,-0.239814815,-0.02962963,1,0,0,0.498,optionLeft,20,12465,6,12,0,12,0,1,,,,,,,,,,,,,,,,,,,,,,,,,,,,,,,,,,,,,,,
,,,,,,,,2023-08-16_08h53.16.229,HF_wild_card,2022.2.4,Win32,59.95203837,5ed934569883864994ac0b97,64d2fd46c836a06233681665,64dc7f853d6dee47b7f02f73,,,,,,,sngl,resources/DY.BMP,resources/Empty.png,Door4,-0.30462963,-0.042592593,1,0,0,0.482,optionLeft,60,12525,6,13,0,13,0,1,,,,,,,,,,,,,,,,,,,,,,,,,,,,,,,,,,,,,,,
,,,,,,,,2023-08-16_08h53.16.229,HF_wild_card,2022.2.4,Win32,59.95203837,5ed934569883864994ac0b97,64d2fd46c836a06233681665,64dc7f853d6dee47b7f02f73,,,,,,,decisionTrl,resources/DR.BMP,resources/DG.BMP,Door3,-0.277777778,0.00462963,1,0,0,1.282,optionLeft,70,12595,6,14,0,14,0,1,,,,,,,,,,,,,,,,,,,,,,,,,,,,,,,,,,,,,,,
,,,,,,,,2023-08-16_08h53.16.229,HF_wild_card,2022.2.4,Win32,59.95203837,5ed934569883864994ac0b97,64d2fd46c836a06233681665,64dc7f853d6dee47b7f02f73,,,,,,,sngl,resources/Empty.png,resources/DG.BMP,WildCard_Ex,0.27037037,-0.019444444,1,0,0,1.033,optionRight,55,12650,6,15,0,15,0,1,,,,,,,,,,,,,,,,,,,,,,,,,,,,,,,,,,,,,,,
,,,,,,,,2023-08-16_08h53.16.229,HF_wild_card,2022.2.4,Win32,59.95203837,5ed934569883864994ac0b97,64d2fd46c836a06233681665,64dc7f853d6dee47b7f02f73,,,,,,,decisionTrl,resources/DG.BMP,resources/DB.BMP,WildCard_Ex,-0.200925926,0.013888889,1,0,0,0.882,optionLeft,45,12695,6,16,0,16,0,1,,,,,,,,,,,,,,,,,,,,,,,,,,,,,,,,,,,,,,,
,,,,,,,,2023-08-16_08h53.16.229,HF_wild_card,2022.2.4,Win32,59.95203837,5ed934569883864994ac0b97,64d2fd46c836a06233681665,64dc7f853d6dee47b7f02f73,,,,,,,sngl,resources/Empty.png,resources/DP.BMP,Door1,0.209259259,-0.011111111,1,0,0,0.665,optionRight,30,12725,6,17,0,17,0,1,,,,,,,,,,,,,,,,,,,,,,,,,,,,,,,,,,,,,,,
,,,,,,,,2023-08-16_08h53.16.229,HF_wild_card,2022.2.4,Win32,59.95203837,5ed934569883864994ac0b97,64d2fd46c836a06233681665,64dc7f853d6dee47b7f02f73,,,,,,,ctch,resources/DY.BMP,resources/DP.BMP,Door4,-0.262962963,-0.00462963,1,0,0,0.965,optionLeft,80,12805,6,18,0,18,0,1,,,,,,,,,,,,,,,,,,,,,,,,,,,,,,,,,,,,,,,
,,,,,,,,2023-08-16_08h53.16.229,HF_wild_card,2022.2.4,Win32,59.95203837,5ed934569883864994ac0b97,64d2fd46c836a06233681665,64dc7f853d6dee47b7f02f73,,,,,,,ctch,resources/DB.BMP,resources/DR.BMP,Door3,0.39537037,-0.012962963,1,0,0,0.648,optionRight,70,12875,6,19,0,19,0,1,,,,,,,,,,,,,,,,,,,,,,,,,,,,,,,,,,,,,,,
,,,,,,,,2023-08-16_08h53.16.229,HF_wild_card,2022.2.4,Win32,59.95203837,5ed934569883864994ac0b97,64d2fd46c836a06233681665,64dc7f853d6dee47b7f02f73,,,,,,,sngl,resources/Empty.png,resources/DY.BMP,Door4,0.197222222,-0.010185185,1,0,0,0.466,optionRight,80,12955,6,20,0,20,0,1,,,,,,,,,,,,,,,,,,,,,,,,,,,,,,,,,,,,,,,
,,,,,,,,2023-08-16_08h53.16.229,HF_wild_card,2022.2.4,Win32,59.95203837,5ed934569883864994ac0b97,64d2fd46c836a06233681665,64dc7f853d6dee47b7f02f73,,,,,,,decisionTrl,resources/DY.BMP,resources/DR.BMP,Door4,-0.255555556,0,1,0,0,0.698,optionLeft,80,13035,6,21,0,21,0,1,,,,,,,,,,,,,,,,,,,,,,,,,,,,,,,,,,,,,,,
,,,,,,,,2023-08-16_08h53.16.229,HF_wild_card,2022.2.4,Win32,59.95203837,5ed934569883864994ac0b97,64d2fd46c836a06233681665,64dc7f853d6dee47b7f02f73,,,,,,,sngl,resources/Empty.png,resources/DR.BMP,Door3,0.172222222,-0.008333333,1,0,0,0.499,optionRight,70,13105,6,22,0,22,0,1,,,,,,,,,,,,,,,,,,,,,,,,,,,,,,,,,,,,,,,
,,,,,,,,2023-08-16_08h53.16.229,HF_wild_card,2022.2.4,Win32,59.95203837,5ed934569883864994ac0b97,64d2fd46c836a06233681665,64dc7f853d6dee47b7f02f73,,,,,,,decisionTrl,resources/DB.BMP,resources/DP.BMP,Door1,0.12037037,0.006481481,1,0,0,0.916,optionRight,30,13135,6,23,0,23,0,1,,,,,,,,,,,,,,,,,,,,,,,,,,,,,,,,,,,,,,,
,,,,,,,,2023-08-16_08h53.16.229,HF_wild_card,2022.2.4,Win32,59.95203837,5ed934569883864994ac0b97,64d2fd46c836a06233681665,64dc7f853d6dee47b7f02f73,,,,,,,ctch,resources/DP.BMP,resources/DY.BMP,Door4,0.198148148,0.047222222,1,0,0,1.082,optionRight,80,13215,6,24,0,24,0,1,,,,,,,,,,,,,,,,,,,,,,,,,,,,,,,,,,,,,,,
,,,,,,,,2023-08-16_08h53.16.229,HF_wild_card,2022.2.4,Win32,59.95203837,5ed934569883864994ac0b97,64d2fd46c836a06233681665,64dc7f853d6dee47b7f02f73,,,,,,,ctch,resources/DP.BMP,resources/DY.BMP,Door4,0.213888889,-0.016666667,1,0,0,0.6,optionRight,60,13275,6,25,0,25,0,1,,,,,,,,,,,,,,,,,,,,,,,,,,,,,,,,,,,,,,,
,,,,,,,,2023-08-16_08h53.16.229,HF_wild_card,2022.2.4,Win32,59.95203837,5ed934569883864994ac0b97,64d2fd46c836a06233681665,64dc7f853d6dee47b7f02f73,,,,,,,decisionTrl,resources/DY.BMP,resources/DR.BMP,Door4,-0.171296296,-0.00462963,1,0,0,0.698,optionLeft,80,13355,6,26,0,26,0,1,,,,,,,,,,,,,,,,,,,,,,,,,,,,,,,,,,,,,,,
,,,,,,,,2023-08-16_08h53.16.229,HF_wild_card,2022.2.4,Win32,59.95203837,5ed934569883864994ac0b97,64d2fd46c836a06233681665,64dc7f853d6dee47b7f02f73,,,,,,,decisionTrl,resources/DR.BMP,resources/DY.BMP,Door4,0.211111111,-0.001851852,1,0,0,0.598,optionRight,80,13435,6,27,0,27,0,1,,,,,,,,,,,,,,,,,,,,,,,,,,,,,,,,,,,,,,,
,,,,,,,,2023-08-16_08h53.16.229,HF_wild_card,2022.2.4,Win32,59.95203837,5ed934569883864994ac0b97,64d2fd46c836a06233681665,64dc7f853d6dee47b7f02f73,,,,,,,ctch,resources/DR.BMP,resources/DB.BMP,Door3,-0.133333333,0.010185185,1,0,0,0.882,optionLeft,70,13505,6,28,0,28,0,1,,,,,,,,,,,,,,,,,,,,,,,,,,,,,,,,,,,,,,,
,,,,,,,,2023-08-16_08h53.16.229,HF_wild_card,2022.2.4,Win32,59.95203837,5ed934569883864994ac0b97,64d2fd46c836a06233681665,64dc7f853d6dee47b7f02f73,,,,,,,decisionTrl,resources/DP.BMP,resources/DG.BMP,WildCard_Ex,0.344444444,-0.025,1,0,0,0.733,optionRight,55,13560,6,29,0,29,0,1,,,,,,,,,,,,,,,,,,,,,,,,,,,,,,,,,,,,,,,
,,,,,,,,2023-08-16_08h53.16.229,HF_wild_card,2022.2.4,Win32,59.95203837,5ed934569883864994ac0b97,64d2fd46c836a06233681665,64dc7f853d6dee47b7f02f73,,,,,,,sngl,resources/DP.BMP,resources/Empty.png,Door1,-0.17962963,-0.009259259,1,0,0,0.532,optionLeft,30,13590,6,30,0,30,0,1,,,,,,,,,,,,,,,,,,,,,,,,,,,,,,,,,,,,,,,
,,,,,,,,2023-08-16_08h53.16.229,HF_wild_card,2022.2.4,Win32,59.95203837,5ed934569883864994ac0b97,64d2fd46c836a06233681665,64dc7f853d6dee47b7f02f73,,,,,,,decisionTrl,resources/DP.BMP,resources/DB.BMP,Door1,-0.233333333,0.00462963,1,0,0,0.666,optionLeft,30,13620,6,31,0,31,0,1,,,,,,,,,,,,,,,,,,,,,,,,,,,,,,,,,,,,,,,
,,,,,,,,2023-08-16_08h53.16.229,HF_wild_card,2022.2.4,Win32,59.95203837,5ed934569883864994ac0b97,64d2fd46c836a06233681665,64dc7f853d6dee47b7f02f73,,,,,,,decisionTrl,resources/DY.BMP,resources/DR.BMP,Door4,-0.298148148,0.003703704,1,0,0,0.865,optionLeft,60,13680,6,32,0,32,0,1,,,,,,,,,,,,,,,,,,,,,,,,,,,,,,,,,,,,,,,
,,,,,,,,2023-08-16_08h53.16.229,HF_wild_card,2022.2.4,Win32,59.95203837,5ed934569883864994ac0b97,64d2fd46c836a06233681665,64dc7f853d6dee47b7f02f73,,,,,,,decisionTrl,resources/DY.BMP,resources/DG.BMP,Door4,-0.206481481,-0.011111111,1,0,0,0.615,optionLeft,80,13760,6,33,0,33,0,1,,,,,,,,,,,,,,,,,,,,,,,,,,,,,,,,,,,,,,,
,,,,,,,,2023-08-16_08h53.16.229,HF_wild_card,2022.2.4,Win32,59.95203837,5ed934569883864994ac0b97,64d2fd46c836a06233681665,64dc7f853d6dee47b7f02f73,,,,,,,decisionTrl,resources/DY.BMP,resources/DR.BMP,Door4,-0.239814815,-0.015740741,1,0,0,0.715,optionLeft,80,13840,6,34,0,34,0,1,,,,,,,,,,,,,,,,,,,,,,,,,,,,,,,,,,,,,,,
,,,,,,,,2023-08-16_08h53.16.229,HF_wild_card,2022.2.4,Win32,59.95203837,5ed934569883864994ac0b97,64d2fd46c836a06233681665,64dc7f853d6dee47b7f02f73,,,,,,,decisionTrl,resources/DG.BMP,resources/DY.BMP,Door4,0.319444444,-0.012037037,1,0,0,1.346,optionRight,80,13920,6,35,0,35,0,1,,,,,,,,,,,,,,,,,,,,,,,,,,,,,,,,,,,,,,,
,,,,,,,,2023-08-16_08h53.16.229,HF_wild_card,2022.2.4,Win32,59.95203837,5ed934569883864994ac0b97,64d2fd46c836a06233681665,64dc7f853d6dee47b7f02f73,,,,,,,decisionTrl,resources/DR.BMP,resources/DY.BMP,Door4,0.241666667,-0.014814815,1,0,0,1.482,optionRight,60,13980,6,36,0,36,0,1,,,,,,,,,,,,,,,,,,,,,,,,,,,,,,,,,,,,,,,
,,,,,,,,2023-08-16_08h53.16.229,HF_wild_card,2022.2.4,Win32,59.95203837,5ed934569883864994ac0b97,64d2fd46c836a06233681665,64dc7f853d6dee47b7f02f73,,,,,,,ctch,resources/DB.BMP,resources/DR.BMP,Door3,0.207407407,-0.016666667,1,0,0,0.816,optionRight,70,14050,6,37,0,37,0,1,,,,,,,,,,,,,,,,,,,,,,,,,,,,,,,,,,,,,,,
,,,,,,,,2023-08-16_08h53.16.229,HF_wild_card,2022.2.4,Win32,59.95203837,5ed934569883864994ac0b97,64d2fd46c836a06233681665,64dc7f853d6dee47b7f02f73,,,,,,,decisionTrl,resources/DB.BMP,resources/DP.BMP,Door1,0.236111111,-0.022222222,1,0,0,1.049,optionRight,30,14080,6,38,0,38,0,1,,,,,,,,,,,,,,,,,,,,,,,,,,,,,,,,,,,,,,,
,,,,,,,,2023-08-16_08h53.16.229,HF_wild_card,2022.2.4,Win32,59.95203837,5ed934569883864994ac0b97,64d2fd46c836a06233681665,64dc7f853d6dee47b7f02f73,,,,,,,decisionTrl,resources/DG.BMP,resources/DP.BMP,WildCard_Ex,-0.177777778,-0.008333333,1,0,0,1.084,optionLeft,45,14125,6,39,0,39,0,1,,,,,,,,,,,,,,,,,,,,,,,,,,,,,,,,,,,,,,,
,,,,,,,,2023-08-16_08h53.16.229,HF_wild_card,2022.2.4,Win32,59.95203837,5ed934569883864994ac0b97,64d2fd46c836a06233681665,64dc7f853d6dee47b7f02f73,,,,,,,ctch,resources/DY.BMP,resources/DP.BMP,Door4,-0.217592593,-0.012962963,1,0,0,0.816,optionLeft,60,14185,6,40,0,40,0,1,,,,,,,,,,,,,,,,,,,,,,,,,,,,,,,,,,,,,,,
,,,,,,,,2023-08-16_08h53.16.229,HF_wild_card,2022.2.4,Win32,59.95203837,5ed934569883864994ac0b97,64d2fd46c836a06233681665,64dc7f853d6dee47b7f02f73,,,,,,,decisionTrl,resources/DR.BMP,resources/DY.BMP,Door4,0.27037037,-0.021296296,1,0,0,0.631,optionRight,60,14245,6,41,0,41,0,1,,,,,,,,,,,,,,,,,,,,,,,,,,,,,,,,,,,,,,,
,,,,,,,,2023-08-16_08h53.16.229,HF_wild_card,2022.2.4,Win32,59.95203837,5ed934569883864994ac0b97,64d2fd46c836a06233681665,64dc7f853d6dee47b7f02f73,,,,,,,decisionTrl,resources/DP.BMP,resources/DB.BMP,Door1,-0.247222222,0.002777778,1,0,0,0.849,optionLeft,30,14275,6,42,0,42,0,1,,,,,,,,,,,,,,,,,,,,,,,,,,,,,,,,,,,,,,,
,,,,,,,,2023-08-16_08h53.16.229,HF_wild_card,2022.2.4,Win32,59.95203837,5ed934569883864994ac0b97,64d2fd46c836a06233681665,64dc7f853d6dee47b7f02f73,,,,,,,decisionTrl,resources/DB.BMP,resources/DP.BMP,Door1,0.136111111,0,1,0,0,0.716,optionRight,30,14305,6,43,0,43,0,1,,,,,,,,,,,,,,,,,,,,,,,,,,,,,,,,,,,,,,,
,,,,,,,,2023-08-16_08h53.16.229,HF_wild_card,2022.2.4,Win32,59.95203837,5ed934569883864994ac0b97,64d2fd46c836a06233681665,64dc7f853d6dee47b7f02f73,,,,,,,,,,,,,,,,,,,,,,,,,,5,0,5,0,1,,,,,,,,,,,,,,,,,,,,,,,,,,,,,,,,,,
,,,,,,,,2023-08-16_08h53.16.229,HF_wild_card,2022.2.4,Win32,59.95203837,5ed934569883864994ac0b97,64d2fd46c836a06233681665,64dc7f853d6dee47b7f02f73,,,,,,,decisionTrl,resources/DP.BMP,resources/DB.BMP,Door1,-0.271296296,-0.061111111,1,0,0,0.845,optionLeft,30,14335,7,0,0,0,0,1,,,,,,,,,,,,,,,,,,,,,,,,,,,,,,,,,,,,,,,
,,,,,,,,2023-08-16_08h53.16.229,HF_wild_card,2022.2.4,Win32,59.95203837,5ed934569883864994ac0b97,64d2fd46c836a06233681665,64dc7f853d6dee47b7f02f73,,,,,,,decisionTrl,resources/DR.BMP,resources/DY.BMP,Door4,0.327777778,-0.013888889,1,0,0,0.917,optionRight,80,14415,7,1,0,1,0,1,,,,,,,,,,,,,,,,,,,,,,,,,,,,,,,,,,,,,,,
,,,,,,,,2023-08-16_08h53.16.229,HF_wild_card,2022.2.4,Win32,59.95203837,5ed934569883864994ac0b97,64d2fd46c836a06233681665,64dc7f853d6dee47b7f02f73,,,,,,,decisionTrl,resources/DR.BMP,resources/DY.BMP,Door4,0.265740741,0.005555556,1,0,0,0.467,optionRight,60,14475,7,2,0,2,0,1,,,,,,,,,,,,,,,,,,,,,,,,,,,,,,,,,,,,,,,
,,,,,,,,2023-08-16_08h53.16.229,HF_wild_card,2022.2.4,Win32,59.95203837,5ed934569883864994ac0b97,64d2fd46c836a06233681665,64dc7f853d6dee47b7f02f73,,,,,,,decisionTrl,resources/DY.BMP,resources/DR.BMP,Door4,-0.351851852,-0.028703704,1,0,0,0.849,optionLeft,80,14555,7,3,0,3,0,1,,,,,,,,,,,,,,,,,,,,,,,,,,,,,,,,,,,,,,,
,,,,,,,,2023-08-16_08h53.16.229,HF_wild_card,2022.2.4,Win32,59.95203837,5ed934569883864994ac0b97,64d2fd46c836a06233681665,64dc7f853d6dee47b7f02f73,,,,,,,decisionTrl,resources/DP.BMP,resources/DB.BMP,Door1,-0.246296296,-0.047222222,1,0,0,0.583,optionLeft,30,14585,7,4,0,4,0,1,,,,,,,,,,,,,,,,,,,,,,,,,,,,,,,,,,,,,,,
,,,,,,,,2023-08-16_08h53.16.229,HF_wild_card,2022.2.4,Win32,59.95203837,5ed934569883864994ac0b97,64d2fd46c836a06233681665,64dc7f853d6dee47b7f02f73,,,,,,,ctch,resources/DP.BMP,resources/DY.BMP,Door4,0.188888889,-0.027777778,1,0,0,0.684,optionRight,60,14645,7,5,0,5,0,1,,,,,,,,,,,,,,,,,,,,,,,,,,,,,,,,,,,,,,,
,,,,,,,,2023-08-16_08h53.16.229,HF_wild_card,2022.2.4,Win32,59.95203837,5ed934569883864994ac0b97,64d2fd46c836a06233681665,64dc7f853d6dee47b7f02f73,,,,,,,decisionTrl,resources/DR.BMP,resources/DY.BMP,Door4,0.244444444,-0.025925926,1,0,0,0.6,optionRight,80,14725,7,6,0,6,0,1,,,,,,,,,,,,,,,,,,,,,,,,,,,,,,,,,,,,,,,
,,,,,,,,2023-08-16_08h53.16.229,HF_wild_card,2022.2.4,Win32,59.95203837,5ed934569883864994ac0b97,64d2fd46c836a06233681665,64dc7f853d6dee47b7f02f73,,,,,,,decisionTrl,resources/DR.BMP,resources/DY.BMP,Door4,0.233333333,-0.021296296,1,0,0,0.534,optionRight,80,14805,7,7,0,7,0,1,,,,,,,,,,,,,,,,,,,,,,,,,,,,,,,,,,,,,,,
,,,,,,,,2023-08-16_08h53.16.229,HF_wild_card,2022.2.4,Win32,59.95203837,5ed934569883864994ac0b97,64d2fd46c836a06233681665,64dc7f853d6dee47b7f02f73,,,,,,,decisionTrl,resources/DB.BMP,resources/DP.BMP,Door1,0.201851852,-0.011111111,1,0,0,0.7,optionRight,30,14835,7,8,0,8,0,1,,,,,,,,,,,,,,,,,,,,,,,,,,,,,,,,,,,,,,,
,,,,,,,,2023-08-16_08h53.16.229,HF_wild_card,2022.2.4,Win32,59.95203837,5ed934569883864994ac0b97,64d2fd46c836a06233681665,64dc7f853d6dee47b7f02f73,,,,,,,decisionTrl,resources/DY.BMP,resources/DR.BMP,Door4,-0.193518519,-0.008333333,1,0,0,0.766,optionLeft,80,14915,7,9,0,9,0,1,,,,,,,,,,,,,,,,,,,,,,,,,,,,,,,,,,,,,,,
,,,,,,,,2023-08-16_08h53.16.229,HF_wild_card,2022.2.4,Win32,59.95203837,5ed934569883864994ac0b97,64d2fd46c836a06233681665,64dc7f853d6dee47b7f02f73,,,,,,,decisionTrl,resources/DY.BMP,resources/DR.BMP,Door4,-0.214814815,-0.050925926,1,0,0,0.649,optionLeft,80,14995,7,10,0,10,0,1,,,,,,,,,,,,,,,,,,,,,,,,,,,,,,,,,,,,,,,
,,,,,,,,2023-08-16_08h53.16.229,HF_wild_card,2022.2.4,Win32,59.95203837,5ed934569883864994ac0b97,64d2fd46c836a06233681665,64dc7f853d6dee47b7f02f73,,,,,,,ctch,resources/DR.BMP,resources/DB.BMP,Door3,-0.139814815,-0.013888889,1,0,0,0.799,optionLeft,70,15065,7,11,0,11,0,1,,,,,,,,,,,,,,,,,,,,,,,,,,,,,,,,,,,,,,,
,,,,,,,,2023-08-16_08h53.16.229,HF_wild_card,2022.2.4,Win32,59.95203837,5ed934569883864994ac0b97,64d2fd46c836a06233681665,64dc7f853d6dee47b7f02f73,,,,,,,ctch,resources/DB.BMP,resources/DR.BMP,Door3,0.27962963,-0.019444444,1,0,0,0.516,optionRight,70,15135,7,12,0,12,0,1,,,,,,,,,,,,,,,,,,,,,,,,,,,,,,,,,,,,,,,
,,,,,,,,2023-08-16_08h53.16.229,HF_wild_card,2022.2.4,Win32,59.95203837,5ed934569883864994ac0b97,64d2fd46c836a06233681665,64dc7f853d6dee47b7f02f73,,,,,,,decisionTrl,resources/DY.BMP,resources/DR.BMP,Door4,-0.184259259,-0.010185185,1,0,0,0.751,optionLeft,60,15195,7,13,0,13,0,1,,,,,,,,,,,,,,,,,,,,,,,,,,,,,,,,,,,,,,,
,,,,,,,,2023-08-16_08h53.16.229,HF_wild_card,2022.2.4,Win32,59.95203837,5ed934569883864994ac0b97,64d2fd46c836a06233681665,64dc7f853d6dee47b7f02f73,,,,,,,decisionTrl,resources/DB.BMP,resources/DP.BMP,Door1,0.206481481,-0.025925926,1,0,0,0.698,optionRight,30,15225,7,14,0,14,0,1,,,,,,,,,,,,,,,,,,,,,,,,,,,,,,,,,,,,,,,
,,,,,,,,2023-08-16_08h53.16.229,HF_wild_card,2022.2.4,Win32,59.95203837,5ed934569883864994ac0b97,64d2fd46c836a06233681665,64dc7f853d6dee47b7f02f73,,,,,,,decisionTrl,resources/DP.BMP,resources/DB.BMP,Door1,-0.332407407,-0.016666667,1,0,0,0.616,optionLeft,30,15255,7,15,0,15,0,1,,,,,,,,,,,,,,,,,,,,,,,,,,,,,,,,,,,,,,,
,,,,,,,,2023-08-16_08h53.16.229,HF_wild_card,2022.2.4,Win32,59.95203837,5ed934569883864994ac0b97,64d2fd46c836a06233681665,64dc7f853d6dee47b7f02f73,,,,,,,decisionTrl,resources/DB.BMP,resources/DP.BMP,Door1,0.233333333,-0.016666667,1,0,0,0.582,optionRight,30,15285,7,16,0,16,0,1,,,,,,,,,,,,,,,,,,,,,,,,,,,,,,,,,,,,,,,
,,,,,,,,2023-08-16_08h53.16.229,HF_wild_card,2022.2.4,Win32,59.95203837,5ed934569883864994ac0b97,64d2fd46c836a06233681665,64dc7f853d6dee47b7f02f73,,,,,,,ctch,resources/DB.BMP,resources/DR.BMP,Door3,0.126851852,-0.002777778,1,0,0,0.899,optionRight,70,15355,7,17,0,17,0,1,,,,,,,,,,,,,,,,,,,,,,,,,,,,,,,,,,,,,,,
,,,,,,,,2023-08-16_08h53.16.229,HF_wild_card,2022.2.4,Win32,59.95203837,5ed934569883864994ac0b97,64d2fd46c836a06233681665,64dc7f853d6dee47b7f02f73,,,,,,,ctch,resources/DB.BMP,resources/DR.BMP,Door3,0.176851852,-0.003703704,1,0,0,0.684,optionRight,70,15425,7,18,0,18,0,1,,,,,,,,,,,,,,,,,,,,,,,,,,,,,,,,,,,,,,,
,,,,,,,,2023-08-16_08h53.16.229,HF_wild_card,2022.2.4,Win32,59.95203837,5ed934569883864994ac0b97,64d2fd46c836a06233681665,64dc7f853d6dee47b7f02f73,,,,,,,decisionTrl,resources/DY.BMP,resources/DR.BMP,Door4,-0.25,-0.000925926,1,0,0,0.85,optionLeft,80,15505,7,19,0,19,0,1,,,,,,,,,,,,,,,,,,,,,,,,,,,,,,,,,,,,,,,
,,,,,,,,2023-08-16_08h53.16.229,HF_wild_card,2022.2.4,Win32,59.95203837,5ed934569883864994ac0b97,64d2fd46c836a06233681665,64dc7f853d6dee47b7f02f73,,,,,,,decisionTrl,resources/DB.BMP,resources/DP.BMP,Door1,0.188888889,-0.007407407,1,0,0,0.583,optionRight,30,15535,7,20,0,20,0,1,,,,,,,,,,,,,,,,,,,,,,,,,,,,,,,,,,,,,,,
,,,,,,,,2023-08-16_08h53.16.229,HF_wild_card,2022.2.4,Win32,59.95203837,5ed934569883864994ac0b97,64d2fd46c836a06233681665,64dc7f853d6dee47b7f02f73,,,,,,,decisionTrl,resources/DP.BMP,resources/DB.BMP,Door1,-0.22962963,-0.00462963,1,0,0,0.682,optionLeft,30,15565,7,21,0,21,0,1,,,,,,,,,,,,,,,,,,,,,,,,,,,,,,,,,,,,,,,
,,,,,,,,2023-08-16_08h53.16.229,HF_wild_card,2022.2.4,Win32,59.95203837,5ed934569883864994ac0b97,64d2fd46c836a06233681665,64dc7f853d6dee47b7f02f73,,,,,,,decisionTrl,resources/DP.BMP,resources/DB.BMP,Door1,-0.164814815,-0.008333333,1,0,0,0.583,optionLeft,30,15595,7,22,0,22,0,1,,,,,,,,,,,,,,,,,,,,,,,,,,,,,,,,,,,,,,,
,,,,,,,,2023-08-16_08h53.16.229,HF_wild_card,2022.2.4,Win32,59.95203837,5ed934569883864994ac0b97,64d2fd46c836a06233681665,64dc7f853d6dee47b7f02f73,,,,,,,ctch,resources/DY.BMP,resources/DP.BMP,Door4,-0.287962963,-0.018518519,1,0,0,0.816,optionLeft,80,15675,7,23,0,23,0,1,,,,,,,,,,,,,,,,,,,,,,,,,,,,,,,,,,,,,,,
,,,,,,,,2023-08-16_08h53.16.229,HF_wild_card,2022.2.4,Win32,59.95203837,5ed934569883864994ac0b97,64d2fd46c836a06233681665,64dc7f853d6dee47b7f02f73,,,,,,,decisionTrl,resources/DP.BMP,resources/DB.BMP,Door1,-0.265740741,-0.026851852,1,0,0,0.617,optionLeft,30,15705,7,24,0,24,0,1,,,,,,,,,,,,,,,,,,,,,,,,,,,,,,,,,,,,,,,
,,,,,,,,2023-08-16_08h53.16.229,HF_wild_card,2022.2.4,Win32,59.95203837,5ed934569883864994ac0b97,64d2fd46c836a06233681665,64dc7f853d6dee47b7f02f73,,,,,,,ctch,resources/DY.BMP,resources/DP.BMP,Door4,-0.382407407,-0.026851852,1,0,0,0.733,optionLeft,60,15765,7,25,0,25,0,1,,,,,,,,,,,,,,,,,,,,,,,,,,,,,,,,,,,,,,,
,,,,,,,,2023-08-16_08h53.16.229,HF_wild_card,2022.2.4,Win32,59.95203837,5ed934569883864994ac0b97,64d2fd46c836a06233681665,64dc7f853d6dee47b7f02f73,,,,,,,ctch,resources/DP.BMP,resources/DY.BMP,Door4,0.190740741,-0.008333333,1,0,0,0.566,optionRight,60,15825,7,26,0,26,0,1,,,,,,,,,,,,,,,,,,,,,,,,,,,,,,,,,,,,,,,
,,,,,,,,2023-08-16_08h53.16.229,HF_wild_card,2022.2.4,Win32,59.95203837,5ed934569883864994ac0b97,64d2fd46c836a06233681665,64dc7f853d6dee47b7f02f73,,,,,,,ctch,resources/DR.BMP,resources/DB.BMP,Door3,-0.197222222,-0.017592593,1,0,0,0.733,optionLeft,70,15895,7,27,0,27,0,1,,,,,,,,,,,,,,,,,,,,,,,,,,,,,,,,,,,,,,,
,,,,,,,,2023-08-16_08h53.16.229,HF_wild_card,2022.2.4,Win32,59.95203837,5ed934569883864994ac0b97,64d2fd46c836a06233681665,64dc7f853d6dee47b7f02f73,,,,,,,decisionTrl,resources/DB.BMP,resources/DP.BMP,Door1,0.194444444,-0.012037037,1,0,0,0.817,optionRight,30,15925,7,28,0,28,0,1,,,,,,,,,,,,,,,,,,,,,,,,,,,,,,,,,,,,,,,
,,,,,,,,2023-08-16_08h53.16.229,HF_wild_card,2022.2.4,Win32,59.95203837,5ed934569883864994ac0b97,64d2fd46c836a06233681665,64dc7f853d6dee47b7f02f73,,,,,,,ctch,resources/DP.BMP,resources/DY.BMP,Door4,0.152777778,0,1,0,0,0.646,optionRight,60,15985,7,29,0,29,0,1,,,,,,,,,,,,,,,,,,,,,,,,,,,,,,,,,,,,,,,
,,,,,,,,2023-08-16_08h53.16.229,HF_wild_card,2022.2.4,Win32,59.95203837,5ed934569883864994ac0b97,64d2fd46c836a06233681665,64dc7f853d6dee47b7f02f73,,,,,,,decisionTrl,resources/DR.BMP,resources/DY.BMP,Door4,0.442592593,0.00462963,1,0,0,1.016,optionRight,60,16045,7,30,0,30,0,1,,,,,,,,,,,,,,,,,,,,,,,,,,,,,,,,,,,,,,,
,,,,,,,,2023-08-16_08h53.16.229,HF_wild_card,2022.2.4,Win32,59.95203837,5ed934569883864994ac0b97,64d2fd46c836a06233681665,64dc7f853d6dee47b7f02f73,,,,,,,ctch,resources/DY.BMP,resources/DP.BMP,Door4,-0.223148148,-0.012037037,1,0,0,0.917,optionLeft,60,16105,7,31,0,31,0,1,,,,,,,,,,,,,,,,,,,,,,,,,,,,,,,,,,,,,,,
,,,,,,,,2023-08-16_08h53.16.229,HF_wild_card,2022.2.4,Win32,59.95203837,5ed934569883864994ac0b97,64d2fd46c836a06233681665,64dc7f853d6dee47b7f02f73,,,,,,,decisionTrl,resources/DY.BMP,resources/DR.BMP,Door4,-0.20462963,-0.012962963,1,0,0,0.816,optionLeft,80,16185,7,32,0,32,0,1,,,,,,,,,,,,,,,,,,,,,,,,,,,,,,,,,,,,,,,
,,,,,,,,2023-08-16_08h53.16.229,HF_wild_card,2022.2.4,Win32,59.95203837,5ed934569883864994ac0b97,64d2fd46c836a06233681665,64dc7f853d6dee47b7f02f73,,,,,,,decisionTrl,resources/DB.BMP,resources/DP.BMP,Door1,0.15462963,0.019444444,1,0,0,0.665,optionRight,30,16215,7,33,0,33,0,1,,,,,,,,,,,,,,,,,,,,,,,,,,,,,,,,,,,,,,,
,,,,,,,,2023-08-16_08h53.16.229,HF_wild_card,2022.2.4,Win32,59.95203837,5ed934569883864994ac0b97,64d2fd46c836a06233681665,64dc7f853d6dee47b7f02f73,,,,,,,decisionTrl,resources/DR.BMP,resources/DY.BMP,Door4,0.272222222,-0.005555556,1,0,0,0.934,optionRight,80,16295,7,34,0,34,0,1,,,,,,,,,,,,,,,,,,,,,,,,,,,,,,,,,,,,,,,
,,,,,,,,2023-08-16_08h53.16.229,HF_wild_card,2022.2.4,Win32,59.95203837,5ed934569883864994ac0b97,64d2fd46c836a06233681665,64dc7f853d6dee47b7f02f73,,,,,,,ctch,resources/DR.BMP,resources/DB.BMP,Door3,-0.192592593,-0.033333333,1,0,0,0.582,optionLeft,70,16365,7,35,0,35,0,1,,,,,,,,,,,,,,,,,,,,,,,,,,,,,,,,,,,,,,,
,,,,,,,,2023-08-16_08h53.16.229,HF_wild_card,2022.2.4,Win32,59.95203837,5ed934569883864994ac0b97,64d2fd46c836a06233681665,64dc7f853d6dee47b7f02f73,,,,,,,,,,,,,,,,,,,,,,,,,,6,0,6,0,1,,,,,,,,,,,,,,,,,,,,,,,,,,,,,,,,,,
,,,,,,,,2023-08-16_08h53.16.229,HF_wild_card,2022.2.4,Win32,59.95203837,5ed934569883864994ac0b97,64d2fd46c836a06233681665,64dc7f853d6dee47b7f02f73,,,,,,,,,,,,,,,,,,,,,,,,,,,,,,,4,,,,,,,,,,,,,,,,,,,,,,,,,,,,,,,,,
,,,,,,,,2023-08-16_08h53.16.229,HF_wild_card,2022.2.4,Win32,59.95203837,5ed934569883864994ac0b97,64d2fd46c836a06233681665,64dc7f853d6dee47b7f02f73,,,,,,,,,,,,,,,,,,,,,,,,,,,,,,,,,,,,,,,,,,,,,,,,,,,,,,,,,,,,,,,,
,,,,,,,,2023-08-16_08h53.16.229,HF_wild_card,2022.2.4,Win32,59.95203837,5ed934569883864994ac0b97,64d2fd46c836a06233681665,64dc7f853d6dee47b7f02f73,,,,,,,,,,,,,,,,,,,,,,,,,,,,,,,,45,WC_extreme,resources/DG.BMP,0,0,0,0,1,,,,,,,,,,,,,,,,,,,,,,,,,
,,,,,,,,2023-08-16_08h53.16.229,HF_wild_card,2022.2.4,Win32,59.95203837,5ed934569883864994ac0b97,64d2fd46c836a06233681665,64dc7f853d6dee47b7f02f73,,,,,,,,,,,,,,,,,,,,,,,,,,,,,,,,60,Door3,resources/DR.BMP,1,0,1,0,1,,,,,,,,,,,,,,,,,,,,,,,,,
,,,,,,,,2023-08-16_08h53.16.229,HF_wild_card,2022.2.4,Win32,59.95203837,5ed934569883864994ac0b97,64d2fd46c836a06233681665,64dc7f853d6dee47b7f02f73,,,,,,,,,,,,,,,,,,,,,,,,,,,,,,,,45,WC_nonExtreme,resources/DBN.BMP,2,0,2,0,1,,,,,,,,,,,,,,,,,,,,,,,,,
,,,,,,,,2023-08-16_08h53.16.229,HF_wild_card,2022.2.4,Win32,59.95203837,5ed934569883864994ac0b97,64d2fd46c836a06233681665,64dc7f853d6dee47b7f02f73,,,,,,,,,,,,,,,,,,,,,,,,,,,,,,,,30,Door1,resources/DP.BMP,3,0,3,0,1,,,,,,,,,,,,,,,,,,,,,,,,,
,,,,,,,,2023-08-16_08h53.16.229,HF_wild_card,2022.2.4,Win32,59.95203837,5ed934569883864994ac0b97,64d2fd46c836a06233681665,64dc7f853d6dee47b7f02f73,,,,,,,,,,,,,,,,,,,,,,,,,,,,,,,,80,Door4,resources/DY.BMP,4,0,4,0,1,,,,,,,,,,,,,,,,,,,,,,,,,
,,,,,,,,2023-08-16_08h53.16.229,HF_wild_card,2022.2.4,Win32,59.95203837,5ed934569883864994ac0b97,64d2fd46c836a06233681665,64dc7f853d6dee47b7f02f73,,,,,,,,,,,,,,,,,,,,,,,,,,,,,,,,20,Door2,resources/DB.BMP,5,0,5,0,1,,,,,,,,,,,,,,,,,,,,,,,,,
,,,,,,,,2023-08-16_08h53.16.229,HF_wild_card,2022.2.4,Win32,59.95203837,5ed934569883864994ac0b97,64d2fd46c836a06233681665,64dc7f853d6dee47b7f02f73,,,,,,,,,,,,,,,,,,,,,,,,,,,,,,,,,,,,,,,,,,,,,,,,,,,,,,,,,,,,,,,,
,,,,,,,,2023-08-16_08h53.16.229,HF_wild_card,2022.2.4,Win32,59.95203837,5ed934569883864994ac0b97,64d2fd46c836a06233681665,64dc7f853d6dee47b7f02f73,,,,,,,,,,,,,,,,,,,,,,,,,,,,,,,,,,,,,,,,0,0,0,0,1,,,,,,,,,,,,,,,,,,,,
,,,,,,,,2023-08-16_08h53.16.229,HF_wild_card,2022.2.4,Win32,59.95203837,5ed934569883864994ac0b97,64d2fd46c836a06233681665,64dc7f853d6dee47b7f02f73,,,,,,,,,,,,,,,,,,,,,,,,,,,,,,,,,,,,,,,,1,0,1,0,1,,,,,,,,,,,,,,,,,,,,
