Condition,Low fixed image (Door1),Low risky image (Door2),High fixed image (Door3),High risky image (Door4),NonExtreme Wild Card 1,NonExtreme Wild Card 2,,date,expName,psychopyVersion,OS,frameRate,PROLIFIC_PID,STUDY_ID,SESSION_ID,mouse_2.x,mouse_2.y,mouse_2.leftButton,mouse_2.midButton,mouse_2.rightButton,mouse_2.clicked_name,Trial Type,Left Option Image,Right Option Image,Chosen Door,mouse.x,mouse.y,mouse.leftButton,mouse.midButton,mouse.rightButton,mouse.time,mouse.clicked_name,Feedback,Cumulative Reward,Block,trial.thisRepN,trial.thisTrialN,trial.thisN,trial.thisIndex,trial.ran,blocks.thisRepN,blocks.thisTrialN,blocks.thisN,blocks.thisIndex,blocks.ran,Money conversion,First Outcome Reported,Shown Door (First Outcome),Displayed Image (First Outcome),outcomes.thisRepN,outcomes.thisTrialN,outcomes.thisN,outcomes.thisIndex,outcomes.ran,judgments.thisRepN,judgments.thisTrialN,judgments.thisN,judgments.thisIndex,judgments.ran,freqMouse.x,freqMouse.y,freqMouse.leftButton,freqMouse.midButton,freqMouse.rightButton,freqMouse.clicked_name,FQJ for first outcome,FQJ for second outcome,Shown Door,Displayed Image,trials.thisRepN,trials.thisTrialN,trials.thisN,trials.thisIndex,trials.ran,judgBlock.thisRepN,judgBlock.thisTrialN,judgBlock.thisN,judgBlock.thisIndex,judgBlock.ran
2,resources/DG.BMP,resources/DB.BMP,resources/DR.BMP,resources/DBN.BMP,resources/DY.BMP,resources/DP.BMP,644fe22915ee001d29a6b7be,2023-08-16_08h25.29.749,HF_wild_card,2022.2.4,Win32,60.10337781,644fe22915ee001d29a6b7be,64d2fd46c836a06233681665,64dc79ca7304b9d78df02f98,,,,,,,,,,,,,,,,,,,,,,,,,,,,,,,,,,,,,,,,,,,,,,,,,,,,,,,,,,,,,,,,
,,,,,,,644fe22915ee001d29a6b7be,2023-08-16_08h25.29.749,HF_wild_card,2022.2.4,Win32,60.10337781,644fe22915ee001d29a6b7be,64d2fd46c836a06233681665,64dc79ca7304b9d78df02f98,-0.006481481,-0.419444444,1,0,0,agree,,,,,,,,,,,,,,,,,,,,,,,,,,,,,,,,,,,,,,,,,,,,,,,,,,,,,,,,,,
,,,,,,,644fe22915ee001d29a6b7be,2023-08-16_08h25.29.749,HF_wild_card,2022.2.4,Win32,60.10337781,644fe22915ee001d29a6b7be,64d2fd46c836a06233681665,64dc79ca7304b9d78df02f98,,,,,,,,,,,,,,,,,,,,,,,,,,,,,,,,,,,,,,,,,,,,,,,,,,,,,,,,,,,,,,,,
,,,,,,,644fe22915ee001d29a6b7be,2023-08-16_08h25.29.749,HF_wild_card,2022.2.4,Win32,60.10337781,644fe22915ee001d29a6b7be,64d2fd46c836a06233681665,64dc79ca7304b9d78df02f98,,,,,,,decisionTrl,resources/DG.BMP,resources/DB.BMP,Door2,0.362962963,-0.108333333,1,0,0,4.3811,optionRight,20,20,1,0,0,0,0,1,,,,,,,,,,,,,,,,,,,,,,,,,,,,,,,,,,,,,,,
,,,,,,,644fe22915ee001d29a6b7be,2023-08-16_08h25.29.749,HF_wild_card,2022.2.4,Win32,60.10337781,644fe22915ee001d29a6b7be,64d2fd46c836a06233681665,64dc79ca7304b9d78df02f98,,,,,,,decisionTrl,resources/DR.BMP,resources/DP.BMP,Door3,-0.410185185,-0.12962963,1,0,0,2.315,optionLeft,70,90,1,1,0,1,0,1,,,,,,,,,,,,,,,,,,,,,,,,,,,,,,,,,,,,,,,
,,,,,,,644fe22915ee001d29a6b7be,2023-08-16_08h25.29.749,HF_wild_card,2022.2.4,Win32,60.10337781,644fe22915ee001d29a6b7be,64d2fd46c836a06233681665,64dc79ca7304b9d78df02f98,,,,,,,ctch,resources/DR.BMP,resources/DB.BMP,Door2,0.323148148,-0.031481481,1,0,0,1.9673,optionRight,40,130,1,2,0,2,0,1,,,,,,,,,,,,,,,,,,,,,,,,,,,,,,,,,,,,,,,
,,,,,,,644fe22915ee001d29a6b7be,2023-08-16_08h25.29.749,HF_wild_card,2022.2.4,Win32,60.10337781,644fe22915ee001d29a6b7be,64d2fd46c836a06233681665,64dc79ca7304b9d78df02f98,,,,,,,sngl,resources/Empty.png,resources/DP.BMP,WildCard_NonEx,0.25462963,-0.025925926,1,0,0,1.7644,optionRight,55,185,1,3,0,3,0,1,,,,,,,,,,,,,,,,,,,,,,,,,,,,,,,,,,,,,,,
,,,,,,,644fe22915ee001d29a6b7be,2023-08-16_08h25.29.749,HF_wild_card,2022.2.4,Win32,60.10337781,644fe22915ee001d29a6b7be,64d2fd46c836a06233681665,64dc79ca7304b9d78df02f98,,,,,,,decisionTrl,resources/DP.BMP,resources/DB.BMP,Door2,0.350925926,-0.118518519,1,0,0,2.08,optionRight,40,225,1,4,0,4,0,1,,,,,,,,,,,,,,,,,,,,,,,,,,,,,,,,,,,,,,,
,,,,,,,644fe22915ee001d29a6b7be,2023-08-16_08h25.29.749,HF_wild_card,2022.2.4,Win32,60.10337781,644fe22915ee001d29a6b7be,64d2fd46c836a06233681665,64dc79ca7304b9d78df02f98,,,,,,,decisionTrl,resources/DP.BMP,resources/DR.BMP,Door3,0.277777778,-0.075925926,1,0,0,2.0453,optionRight,70,295,1,5,0,5,0,1,,,,,,,,,,,,,,,,,,,,,,,,,,,,,,,,,,,,,,,
,,,,,,,644fe22915ee001d29a6b7be,2023-08-16_08h25.29.749,HF_wild_card,2022.2.4,Win32,60.10337781,644fe22915ee001d29a6b7be,64d2fd46c836a06233681665,64dc79ca7304b9d78df02f98,,,,,,,decisionTrl,resources/DP.BMP,resources/DBN.BMP,WildCard_NonEx,-0.469444444,-0.093518519,1,0,0,3.48,optionLeft,55,350,1,6,0,6,0,1,,,,,,,,,,,,,,,,,,,,,,,,,,,,,,,,,,,,,,,
,,,,,,,644fe22915ee001d29a6b7be,2023-08-16_08h25.29.749,HF_wild_card,2022.2.4,Win32,60.10337781,644fe22915ee001d29a6b7be,64d2fd46c836a06233681665,64dc79ca7304b9d78df02f98,,,,,,,decisionTrl,resources/DR.BMP,resources/DBN.BMP,Door4,0.45,-0.043518519,1,0,0,1.8129,optionRight,60,410,1,7,0,7,0,1,,,,,,,,,,,,,,,,,,,,,,,,,,,,,,,,,,,,,,,
,,,,,,,644fe22915ee001d29a6b7be,2023-08-16_08h25.29.749,HF_wild_card,2022.2.4,Win32,60.10337781,644fe22915ee001d29a6b7be,64d2fd46c836a06233681665,64dc79ca7304b9d78df02f98,,,,,,,decisionTrl,resources/DG.BMP,resources/DB.BMP,Door2,0.312037037,-0.052777778,1,0,0,2.2809,optionRight,40,450,1,8,0,8,0,1,,,,,,,,,,,,,,,,,,,,,,,,,,,,,,,,,,,,,,,
,,,,,,,644fe22915ee001d29a6b7be,2023-08-16_08h25.29.749,HF_wild_card,2022.2.4,Win32,60.10337781,644fe22915ee001d29a6b7be,64d2fd46c836a06233681665,64dc79ca7304b9d78df02f98,,,,,,,sngl,resources/Empty.png,resources/DB.BMP,Door2,0.248148148,-0.015740741,1,0,0,1.5814,optionRight,20,470,1,9,0,9,0,1,,,,,,,,,,,,,,,,,,,,,,,,,,,,,,,,,,,,,,,
,,,,,,,644fe22915ee001d29a6b7be,2023-08-16_08h25.29.749,HF_wild_card,2022.2.4,Win32,60.10337781,644fe22915ee001d29a6b7be,64d2fd46c836a06233681665,64dc79ca7304b9d78df02f98,,,,,,,sngl,resources/Empty.png,resources/DG.BMP,Door1,0.398148148,-0.062962963,1,0,0,1.2637,optionRight,30,500,1,10,0,10,0,1,,,,,,,,,,,,,,,,,,,,,,,,,,,,,,,,,,,,,,,
,,,,,,,644fe22915ee001d29a6b7be,2023-08-16_08h25.29.749,HF_wild_card,2022.2.4,Win32,60.10337781,644fe22915ee001d29a6b7be,64d2fd46c836a06233681665,64dc79ca7304b9d78df02f98,,,,,,,ctch,resources/DG.BMP,resources/DBN.BMP,Door1,-0.424074074,-0.057407407,1,0,0,1.5643,optionLeft,30,530,1,11,0,11,0,1,,,,,,,,,,,,,,,,,,,,,,,,,,,,,,,,,,,,,,,
,,,,,,,644fe22915ee001d29a6b7be,2023-08-16_08h25.29.749,HF_wild_card,2022.2.4,Win32,60.10337781,644fe22915ee001d29a6b7be,64d2fd46c836a06233681665,64dc79ca7304b9d78df02f98,,,,,,,sngl,resources/DP.BMP,resources/Empty.png,WildCard_NonEx,-0.488888889,-0.106481481,1,0,0,1.1124,optionLeft,45,575,1,12,0,12,0,1,,,,,,,,,,,,,,,,,,,,,,,,,,,,,,,,,,,,,,,
,,,,,,,644fe22915ee001d29a6b7be,2023-08-16_08h25.29.749,HF_wild_card,2022.2.4,Win32,60.10337781,644fe22915ee001d29a6b7be,64d2fd46c836a06233681665,64dc79ca7304b9d78df02f98,,,,,,,decisionTrl,resources/DB.BMP,resources/DG.BMP,Door1,0.446296296,-0.037962963,1,0,0,1.7133,optionRight,30,605,1,13,0,13,0,1,,,,,,,,,,,,,,,,,,,,,,,,,,,,,,,,,,,,,,,
,,,,,,,644fe22915ee001d29a6b7be,2023-08-16_08h25.29.749,HF_wild_card,2022.2.4,Win32,60.10337781,644fe22915ee001d29a6b7be,64d2fd46c836a06233681665,64dc79ca7304b9d78df02f98,,,,,,,sngl,resources/DG.BMP,resources/Empty.png,Door1,-0.340740741,-0.062962963,1,0,0,1.6641,optionLeft,30,635,1,14,0,14,0,1,,,,,,,,,,,,,,,,,,,,,,,,,,,,,,,,,,,,,,,
,,,,,,,644fe22915ee001d29a6b7be,2023-08-16_08h25.29.749,HF_wild_card,2022.2.4,Win32,60.10337781,644fe22915ee001d29a6b7be,64d2fd46c836a06233681665,64dc79ca7304b9d78df02f98,,,,,,,decisionTrl,resources/DG.BMP,resources/DB.BMP,Door2,0.337037037,-0.016666667,1,0,0,1.7301,optionRight,20,655,1,15,0,15,0,1,,,,,,,,,,,,,,,,,,,,,,,,,,,,,,,,,,,,,,,
,,,,,,,644fe22915ee001d29a6b7be,2023-08-16_08h25.29.749,HF_wild_card,2022.2.4,Win32,60.10337781,644fe22915ee001d29a6b7be,64d2fd46c836a06233681665,64dc79ca7304b9d78df02f98,,,,,,,decisionTrl,resources/DBN.BMP,resources/DP.BMP,Door4,-0.383333333,-0.068518519,1,0,0,1.2632,optionLeft,60,715,1,16,0,16,0,1,,,,,,,,,,,,,,,,,,,,,,,,,,,,,,,,,,,,,,,
,,,,,,,644fe22915ee001d29a6b7be,2023-08-16_08h25.29.749,HF_wild_card,2022.2.4,Win32,60.10337781,644fe22915ee001d29a6b7be,64d2fd46c836a06233681665,64dc79ca7304b9d78df02f98,,,,,,,decisionTrl,resources/DBN.BMP,resources/DR.BMP,Door4,-0.349074074,-0.051851852,1,0,0,1.1134,optionLeft,80,795,1,17,0,17,0,1,,,,,,,,,,,,,,,,,,,,,,,,,,,,,,,,,,,,,,,
,,,,,,,644fe22915ee001d29a6b7be,2023-08-16_08h25.29.749,HF_wild_card,2022.2.4,Win32,60.10337781,644fe22915ee001d29a6b7be,64d2fd46c836a06233681665,64dc79ca7304b9d78df02f98,,,,,,,ctch,resources/DB.BMP,resources/DR.BMP,Door3,0.312962963,-0.016666667,1,0,0,1.5306,optionRight,70,865,1,18,0,18,0,1,,,,,,,,,,,,,,,,,,,,,,,,,,,,,,,,,,,,,,,
,,,,,,,644fe22915ee001d29a6b7be,2023-08-16_08h25.29.749,HF_wild_card,2022.2.4,Win32,60.10337781,644fe22915ee001d29a6b7be,64d2fd46c836a06233681665,64dc79ca7304b9d78df02f98,,,,,,,decisionTrl,resources/DR.BMP,resources/DBN.BMP,Door4,0.37962963,0.016666667,1,0,0,2.0373,optionRight,80,945,1,19,0,19,0,1,,,,,,,,,,,,,,,,,,,,,,,,,,,,,,,,,,,,,,,
,,,,,,,644fe22915ee001d29a6b7be,2023-08-16_08h25.29.749,HF_wild_card,2022.2.4,Win32,60.10337781,644fe22915ee001d29a6b7be,64d2fd46c836a06233681665,64dc79ca7304b9d78df02f98,,,,,,,decisionTrl,resources/DB.BMP,resources/DG.BMP,Door1,0.440740741,-0.002777778,1,0,0,1.3628,optionRight,30,975,1,20,0,20,0,1,,,,,,,,,,,,,,,,,,,,,,,,,,,,,,,,,,,,,,,
,,,,,,,644fe22915ee001d29a6b7be,2023-08-16_08h25.29.749,HF_wild_card,2022.2.4,Win32,60.10337781,644fe22915ee001d29a6b7be,64d2fd46c836a06233681665,64dc79ca7304b9d78df02f98,,,,,,,ctch,resources/DG.BMP,resources/DBN.BMP,Door4,0.338888889,-0.012962963,1,0,0,1.2975,optionRight,80,1055,1,21,0,21,0,1,,,,,,,,,,,,,,,,,,,,,,,,,,,,,,,,,,,,,,,
,,,,,,,644fe22915ee001d29a6b7be,2023-08-16_08h25.29.749,HF_wild_card,2022.2.4,Win32,60.10337781,644fe22915ee001d29a6b7be,64d2fd46c836a06233681665,64dc79ca7304b9d78df02f98,,,,,,,sngl,resources/Empty.png,resources/DR.BMP,Door3,0.332407407,-0.053703704,1,0,0,1.6761,optionRight,70,1125,1,22,0,22,0,1,,,,,,,,,,,,,,,,,,,,,,,,,,,,,,,,,,,,,,,
,,,,,,,644fe22915ee001d29a6b7be,2023-08-16_08h25.29.749,HF_wild_card,2022.2.4,Win32,60.10337781,644fe22915ee001d29a6b7be,64d2fd46c836a06233681665,64dc79ca7304b9d78df02f98,,,,,,,decisionTrl,resources/DB.BMP,resources/DP.BMP,Door2,-0.363888889,-0.085185185,1,0,0,2.5141,optionLeft,20,1145,1,23,0,23,0,1,,,,,,,,,,,,,,,,,,,,,,,,,,,,,,,,,,,,,,,
,,,,,,,644fe22915ee001d29a6b7be,2023-08-16_08h25.29.749,HF_wild_card,2022.2.4,Win32,60.10337781,644fe22915ee001d29a6b7be,64d2fd46c836a06233681665,64dc79ca7304b9d78df02f98,,,,,,,sngl,resources/DP.BMP,resources/Empty.png,WildCard_NonEx,-0.293518519,-0.059259259,1,0,0,1.0272,optionLeft,55,1200,1,24,0,24,0,1,,,,,,,,,,,,,,,,,,,,,,,,,,,,,,,,,,,,,,,
,,,,,,,644fe22915ee001d29a6b7be,2023-08-16_08h25.29.749,HF_wild_card,2022.2.4,Win32,60.10337781,644fe22915ee001d29a6b7be,64d2fd46c836a06233681665,64dc79ca7304b9d78df02f98,,,,,,,decisionTrl,resources/DP.BMP,resources/DG.BMP,WildCard_NonEx,-0.347222222,-0.074074074,1,0,0,1.2445,optionLeft,55,1255,1,25,0,25,0,1,,,,,,,,,,,,,,,,,,,,,,,,,,,,,,,,,,,,,,,
,,,,,,,644fe22915ee001d29a6b7be,2023-08-16_08h25.29.749,HF_wild_card,2022.2.4,Win32,60.10337781,644fe22915ee001d29a6b7be,64d2fd46c836a06233681665,64dc79ca7304b9d78df02f98,,,,,,,sngl,resources/DB.BMP,resources/Empty.png,Door2,-0.310185185,-0.051851852,1,0,0,1.0436,optionLeft,40,1295,1,26,0,26,0,1,,,,,,,,,,,,,,,,,,,,,,,,,,,,,,,,,,,,,,,
,,,,,,,644fe22915ee001d29a6b7be,2023-08-16_08h25.29.749,HF_wild_card,2022.2.4,Win32,60.10337781,644fe22915ee001d29a6b7be,64d2fd46c836a06233681665,64dc79ca7304b9d78df02f98,,,,,,,decisionTrl,resources/DBN.BMP,resources/DR.BMP,Door4,-0.335185185,-0.051851852,1,0,0,1.1616,optionLeft,80,1375,1,27,0,27,0,1,,,,,,,,,,,,,,,,,,,,,,,,,,,,,,,,,,,,,,,
,,,,,,,644fe22915ee001d29a6b7be,2023-08-16_08h25.29.749,HF_wild_card,2022.2.4,Win32,60.10337781,644fe22915ee001d29a6b7be,64d2fd46c836a06233681665,64dc79ca7304b9d78df02f98,,,,,,,sngl,resources/DBN.BMP,resources/Empty.png,Door4,-0.334259259,-0.061111111,1,0,0,0.815,optionLeft,80,1455,1,28,0,28,0,1,,,,,,,,,,,,,,,,,,,,,,,,,,,,,,,,,,,,,,,
,,,,,,,644fe22915ee001d29a6b7be,2023-08-16_08h25.29.749,HF_wild_card,2022.2.4,Win32,60.10337781,644fe22915ee001d29a6b7be,64d2fd46c836a06233681665,64dc79ca7304b9d78df02f98,,,,,,,decisionTrl,resources/DBN.BMP,resources/DR.BMP,Door4,-0.457407407,-0.092592593,1,0,0,1.1442,optionLeft,80,1535,1,29,0,29,0,1,,,,,,,,,,,,,,,,,,,,,,,,,,,,,,,,,,,,,,,
,,,,,,,644fe22915ee001d29a6b7be,2023-08-16_08h25.29.749,HF_wild_card,2022.2.4,Win32,60.10337781,644fe22915ee001d29a6b7be,64d2fd46c836a06233681665,64dc79ca7304b9d78df02f98,,,,,,,sngl,resources/Empty.png,resources/DBN.BMP,Door4,0.353703704,-0.003703704,1,0,0,0.7606,optionRight,60,1595,1,30,0,30,0,1,,,,,,,,,,,,,,,,,,,,,,,,,,,,,,,,,,,,,,,
,,,,,,,644fe22915ee001d29a6b7be,2023-08-16_08h25.29.749,HF_wild_card,2022.2.4,Win32,60.10337781,644fe22915ee001d29a6b7be,64d2fd46c836a06233681665,64dc79ca7304b9d78df02f98,,,,,,,ctch,resources/DR.BMP,resources/DB.BMP,Door3,-0.405555556,-0.069444444,1,0,0,1.5098,optionLeft,70,1665,1,31,0,31,0,1,,,,,,,,,,,,,,,,,,,,,,,,,,,,,,,,,,,,,,,
,,,,,,,644fe22915ee001d29a6b7be,2023-08-16_08h25.29.749,HF_wild_card,2022.2.4,Win32,60.10337781,644fe22915ee001d29a6b7be,64d2fd46c836a06233681665,64dc79ca7304b9d78df02f98,,,,,,,decisionTrl,resources/DR.BMP,resources/DBN.BMP,Door4,0.365740741,0.002777778,1,0,0,1.2324,optionRight,60,1725,1,32,0,32,0,1,,,,,,,,,,,,,,,,,,,,,,,,,,,,,,,,,,,,,,,
,,,,,,,644fe22915ee001d29a6b7be,2023-08-16_08h25.29.749,HF_wild_card,2022.2.4,Win32,60.10337781,644fe22915ee001d29a6b7be,64d2fd46c836a06233681665,64dc79ca7304b9d78df02f98,,,,,,,ctch,resources/DBN.BMP,resources/DG.BMP,Door4,-0.388888889,-0.103703704,1,0,0,1.042,optionLeft,80,1805,1,33,0,33,0,1,,,,,,,,,,,,,,,,,,,,,,,,,,,,,,,,,,,,,,,
,,,,,,,644fe22915ee001d29a6b7be,2023-08-16_08h25.29.749,HF_wild_card,2022.2.4,Win32,60.10337781,644fe22915ee001d29a6b7be,64d2fd46c836a06233681665,64dc79ca7304b9d78df02f98,,,,,,,decisionTrl,resources/DBN.BMP,resources/DR.BMP,Door4,-0.349074074,-0.073148148,1,0,0,0.8991,optionLeft,60,1865,1,34,0,34,0,1,,,,,,,,,,,,,,,,,,,,,,,,,,,,,,,,,,,,,,,
,,,,,,,644fe22915ee001d29a6b7be,2023-08-16_08h25.29.749,HF_wild_card,2022.2.4,Win32,60.10337781,644fe22915ee001d29a6b7be,64d2fd46c836a06233681665,64dc79ca7304b9d78df02f98,,,,,,,ctch,resources/DB.BMP,resources/DR.BMP,Door3,0.398148148,0.00462963,1,0,0,1.3156,optionRight,70,1935,1,35,0,35,0,1,,,,,,,,,,,,,,,,,,,,,,,,,,,,,,,,,,,,,,,
,,,,,,,644fe22915ee001d29a6b7be,2023-08-16_08h25.29.749,HF_wild_card,2022.2.4,Win32,60.10337781,644fe22915ee001d29a6b7be,64d2fd46c836a06233681665,64dc79ca7304b9d78df02f98,,,,,,,ctch,resources/DBN.BMP,resources/DG.BMP,Door4,-0.359259259,-0.058333333,1,0,0,1.9791,optionLeft,60,1995,1,36,0,36,0,1,,,,,,,,,,,,,,,,,,,,,,,,,,,,,,,,,,,,,,,
,,,,,,,644fe22915ee001d29a6b7be,2023-08-16_08h25.29.749,HF_wild_card,2022.2.4,Win32,60.10337781,644fe22915ee001d29a6b7be,64d2fd46c836a06233681665,64dc79ca7304b9d78df02f98,,,,,,,decisionTrl,resources/DG.BMP,resources/DB.BMP,Door1,-0.423148148,-0.063888889,1,0,0,1.2978,optionLeft,30,2025,1,37,0,37,0,1,,,,,,,,,,,,,,,,,,,,,,,,,,,,,,,,,,,,,,,
,,,,,,,644fe22915ee001d29a6b7be,2023-08-16_08h25.29.749,HF_wild_card,2022.2.4,Win32,60.10337781,644fe22915ee001d29a6b7be,64d2fd46c836a06233681665,64dc79ca7304b9d78df02f98,,,,,,,decisionTrl,resources/DG.BMP,resources/DP.BMP,WildCard_NonEx,0.366666667,-0.02037037,1,0,0,1.5538,optionRight,55,2080,1,38,0,38,0,1,,,,,,,,,,,,,,,,,,,,,,,,,,,,,,,,,,,,,,,
,,,,,,,644fe22915ee001d29a6b7be,2023-08-16_08h25.29.749,HF_wild_card,2022.2.4,Win32,60.10337781,644fe22915ee001d29a6b7be,64d2fd46c836a06233681665,64dc79ca7304b9d78df02f98,,,,,,,decisionTrl,resources/DB.BMP,resources/DG.BMP,Door1,0.347222222,-0.047222222,1,0,0,1.5164,optionRight,30,2110,1,39,0,39,0,1,,,,,,,,,,,,,,,,,,,,,,,,,,,,,,,,,,,,,,,
,,,,,,,644fe22915ee001d29a6b7be,2023-08-16_08h25.29.749,HF_wild_card,2022.2.4,Win32,60.10337781,644fe22915ee001d29a6b7be,64d2fd46c836a06233681665,64dc79ca7304b9d78df02f98,,,,,,,decisionTrl,resources/DR.BMP,resources/DBN.BMP,Door4,0.35462963,-0.031481481,1,0,0,1.2108,optionRight,60,2170,1,40,0,40,0,1,,,,,,,,,,,,,,,,,,,,,,,,,,,,,,,,,,,,,,,
,,,,,,,644fe22915ee001d29a6b7be,2023-08-16_08h25.29.749,HF_wild_card,2022.2.4,Win32,60.10337781,644fe22915ee001d29a6b7be,64d2fd46c836a06233681665,64dc79ca7304b9d78df02f98,,,,,,,sngl,resources/Empty.png,resources/DP.BMP,WildCard_NonEx,0.3,-0.014814815,1,0,0,0.9546,optionRight,45,2215,1,41,0,41,0,1,,,,,,,,,,,,,,,,,,,,,,,,,,,,,,,,,,,,,,,
,,,,,,,644fe22915ee001d29a6b7be,2023-08-16_08h25.29.749,HF_wild_card,2022.2.4,Win32,60.10337781,644fe22915ee001d29a6b7be,64d2fd46c836a06233681665,64dc79ca7304b9d78df02f98,,,,,,,sngl,resources/DR.BMP,resources/Empty.png,Door3,-0.327777778,-0.071296296,1,0,0,0.7787,optionLeft,70,2285,1,42,0,42,0,1,,,,,,,,,,,,,,,,,,,,,,,,,,,,,,,,,,,,,,,
,,,,,,,644fe22915ee001d29a6b7be,2023-08-16_08h25.29.749,HF_wild_card,2022.2.4,Win32,60.10337781,644fe22915ee001d29a6b7be,64d2fd46c836a06233681665,64dc79ca7304b9d78df02f98,,,,,,,decisionTrl,resources/DB.BMP,resources/DG.BMP,Door2,-0.299074074,-0.060185185,1,0,0,0.9978,optionLeft,40,2325,1,43,0,43,0,1,,,,,,,,,,,,,,,,,,,,,,,,,,,,,,,,,,,,,,,
,,,,,,,644fe22915ee001d29a6b7be,2023-08-16_08h25.29.749,HF_wild_card,2022.2.4,Win32,60.10337781,644fe22915ee001d29a6b7be,64d2fd46c836a06233681665,64dc79ca7304b9d78df02f98,,,,,,,,,,,,,,,,,,,,,,,,,,0,0,0,0,1,,,,,,,,,,,,,,,,,,,,,,,,,,,,,,,,,,
,,,,,,,644fe22915ee001d29a6b7be,2023-08-16_08h25.29.749,HF_wild_card,2022.2.4,Win32,60.10337781,644fe22915ee001d29a6b7be,64d2fd46c836a06233681665,64dc79ca7304b9d78df02f98,,,,,,,decisionTrl,resources/DR.BMP,resources/DBN.BMP,Door4,0.349074074,-0.123148148,1,0,0,1.7827,optionRight,60,2385,2,0,0,0,0,1,,,,,,,,,,,,,,,,,,,,,,,,,,,,,,,,,,,,,,,
,,,,,,,644fe22915ee001d29a6b7be,2023-08-16_08h25.29.749,HF_wild_card,2022.2.4,Win32,60.10337781,644fe22915ee001d29a6b7be,64d2fd46c836a06233681665,64dc79ca7304b9d78df02f98,,,,,,,decisionTrl,resources/DP.BMP,resources/DBN.BMP,Door4,0.315740741,-0.018518519,1,0,0,0.7117,optionRight,80,2465,2,1,0,1,0,1,,,,,,,,,,,,,,,,,,,,,,,,,,,,,,,,,,,,,,,
,,,,,,,644fe22915ee001d29a6b7be,2023-08-16_08h25.29.749,HF_wild_card,2022.2.4,Win32,60.10337781,644fe22915ee001d29a6b7be,64d2fd46c836a06233681665,64dc79ca7304b9d78df02f98,,,,,,,ctch,resources/DG.BMP,resources/DBN.BMP,Door4,0.388888889,-0.077777778,1,0,0,1.011,optionRight,60,2525,2,2,0,2,0,1,,,,,,,,,,,,,,,,,,,,,,,,,,,,,,,,,,,,,,,
,,,,,,,644fe22915ee001d29a6b7be,2023-08-16_08h25.29.749,HF_wild_card,2022.2.4,Win32,60.10337781,644fe22915ee001d29a6b7be,64d2fd46c836a06233681665,64dc79ca7304b9d78df02f98,,,,,,,sngl,resources/DBN.BMP,resources/Empty.png,Door4,-0.338888889,-0.036111111,1,0,0,0.7113,optionLeft,60,2585,2,3,0,3,0,1,,,,,,,,,,,,,,,,,,,,,,,,,,,,,,,,,,,,,,,
,,,,,,,644fe22915ee001d29a6b7be,2023-08-16_08h25.29.749,HF_wild_card,2022.2.4,Win32,60.10337781,644fe22915ee001d29a6b7be,64d2fd46c836a06233681665,64dc79ca7304b9d78df02f98,,,,,,,sngl,resources/Empty.png,resources/DB.BMP,Door2,0.262037037,-0.031481481,1,0,0,1.0779,optionRight,40,2625,2,4,0,4,0,1,,,,,,,,,,,,,,,,,,,,,,,,,,,,,,,,,,,,,,,
,,,,,,,644fe22915ee001d29a6b7be,2023-08-16_08h25.29.749,HF_wild_card,2022.2.4,Win32,60.10337781,644fe22915ee001d29a6b7be,64d2fd46c836a06233681665,64dc79ca7304b9d78df02f98,,,,,,,ctch,resources/DBN.BMP,resources/DG.BMP,Door4,-0.357407407,-0.025,1,0,0,0.6806,optionLeft,80,2705,2,5,0,5,0,1,,,,,,,,,,,,,,,,,,,,,,,,,,,,,,,,,,,,,,,
,,,,,,,644fe22915ee001d29a6b7be,2023-08-16_08h25.29.749,HF_wild_card,2022.2.4,Win32,60.10337781,644fe22915ee001d29a6b7be,64d2fd46c836a06233681665,64dc79ca7304b9d78df02f98,,,,,,,decisionTrl,resources/DB.BMP,resources/DG.BMP,Door1,0.434259259,-0.024074074,1,0,0,1.3146,optionRight,30,2735,2,6,0,6,0,1,,,,,,,,,,,,,,,,,,,,,,,,,,,,,,,,,,,,,,,
,,,,,,,644fe22915ee001d29a6b7be,2023-08-16_08h25.29.749,HF_wild_card,2022.2.4,Win32,60.10337781,644fe22915ee001d29a6b7be,64d2fd46c836a06233681665,64dc79ca7304b9d78df02f98,,,,,,,ctch,resources/DG.BMP,resources/DBN.BMP,Door4,0.388888889,-0.04537037,1,0,0,1.1648,optionRight,60,2795,2,7,0,7,0,1,,,,,,,,,,,,,,,,,,,,,,,,,,,,,,,,,,,,,,,
,,,,,,,644fe22915ee001d29a6b7be,2023-08-16_08h25.29.749,HF_wild_card,2022.2.4,Win32,60.10337781,644fe22915ee001d29a6b7be,64d2fd46c836a06233681665,64dc79ca7304b9d78df02f98,,,,,,,sngl,resources/Empty.png,resources/DBN.BMP,Door4,0.3,-0.039814815,1,0,0,1.348,optionRight,80,2875,2,8,0,8,0,1,,,,,,,,,,,,,,,,,,,,,,,,,,,,,,,,,,,,,,,
,,,,,,,644fe22915ee001d29a6b7be,2023-08-16_08h25.29.749,HF_wild_card,2022.2.4,Win32,60.10337781,644fe22915ee001d29a6b7be,64d2fd46c836a06233681665,64dc79ca7304b9d78df02f98,,,,,,,decisionTrl,resources/DG.BMP,resources/DB.BMP,Door1,-0.375925926,-0.086111111,1,0,0,2.0687,optionLeft,30,2905,2,9,0,9,0,1,,,,,,,,,,,,,,,,,,,,,,,,,,,,,,,,,,,,,,,
,,,,,,,644fe22915ee001d29a6b7be,2023-08-16_08h25.29.749,HF_wild_card,2022.2.4,Win32,60.10337781,644fe22915ee001d29a6b7be,64d2fd46c836a06233681665,64dc79ca7304b9d78df02f98,,,,,,,decisionTrl,resources/DP.BMP,resources/DB.BMP,Door2,0.332407407,-0.043518519,1,0,0,1.111,optionRight,20,2925,2,10,0,10,0,1,,,,,,,,,,,,,,,,,,,,,,,,,,,,,,,,,,,,,,,
,,,,,,,644fe22915ee001d29a6b7be,2023-08-16_08h25.29.749,HF_wild_card,2022.2.4,Win32,60.10337781,644fe22915ee001d29a6b7be,64d2fd46c836a06233681665,64dc79ca7304b9d78df02f98,,,,,,,sngl,resources/DP.BMP,resources/Empty.png,WildCard_NonEx,-0.348148148,-0.077777778,1,0,0,0.7664,optionLeft,55,2980,2,11,0,11,0,1,,,,,,,,,,,,,,,,,,,,,,,,,,,,,,,,,,,,,,,
,,,,,,,644fe22915ee001d29a6b7be,2023-08-16_08h25.29.749,HF_wild_card,2022.2.4,Win32,60.10337781,644fe22915ee001d29a6b7be,64d2fd46c836a06233681665,64dc79ca7304b9d78df02f98,,,,,,,decisionTrl,resources/DB.BMP,resources/DP.BMP,WildCard_NonEx,0.40462963,-0.019444444,1,0,0,0.8969,optionRight,55,3035,2,12,0,12,0,1,,,,,,,,,,,,,,,,,,,,,,,,,,,,,,,,,,,,,,,
,,,,,,,644fe22915ee001d29a6b7be,2023-08-16_08h25.29.749,HF_wild_card,2022.2.4,Win32,60.10337781,644fe22915ee001d29a6b7be,64d2fd46c836a06233681665,64dc79ca7304b9d78df02f98,,,,,,,sngl,resources/Empty.png,resources/DP.BMP,WildCard_NonEx,0.29537037,-0.038888889,1,0,0,0.7603,optionRight,45,3080,2,13,0,13,0,1,,,,,,,,,,,,,,,,,,,,,,,,,,,,,,,,,,,,,,,
,,,,,,,644fe22915ee001d29a6b7be,2023-08-16_08h25.29.749,HF_wild_card,2022.2.4,Win32,60.10337781,644fe22915ee001d29a6b7be,64d2fd46c836a06233681665,64dc79ca7304b9d78df02f98,,,,,,,decisionTrl,resources/DR.BMP,resources/DBN.BMP,Door4,0.361111111,-0.00462963,1,0,0,1.2428,optionRight,80,3160,2,14,0,14,0,1,,,,,,,,,,,,,,,,,,,,,,,,,,,,,,,,,,,,,,,
,,,,,,,644fe22915ee001d29a6b7be,2023-08-16_08h25.29.749,HF_wild_card,2022.2.4,Win32,60.10337781,644fe22915ee001d29a6b7be,64d2fd46c836a06233681665,64dc79ca7304b9d78df02f98,,,,,,,decisionTrl,resources/DG.BMP,resources/DB.BMP,Door1,-0.428703704,-0.062962963,1,0,0,1.4031,optionLeft,30,3190,2,15,0,15,0,1,,,,,,,,,,,,,,,,,,,,,,,,,,,,,,,,,,,,,,,
,,,,,,,644fe22915ee001d29a6b7be,2023-08-16_08h25.29.749,HF_wild_card,2022.2.4,Win32,60.10337781,644fe22915ee001d29a6b7be,64d2fd46c836a06233681665,64dc79ca7304b9d78df02f98,,,,,,,decisionTrl,resources/DP.BMP,resources/DG.BMP,WildCard_NonEx,-0.389814815,-0.081481481,1,0,0,1.7306,optionLeft,45,3235,2,16,0,16,0,1,,,,,,,,,,,,,,,,,,,,,,,,,,,,,,,,,,,,,,,
,,,,,,,644fe22915ee001d29a6b7be,2023-08-16_08h25.29.749,HF_wild_card,2022.2.4,Win32,60.10337781,644fe22915ee001d29a6b7be,64d2fd46c836a06233681665,64dc79ca7304b9d78df02f98,,,,,,,ctch,resources/DR.BMP,resources/DB.BMP,Door3,-0.377777778,-0.068518519,1,0,0,1.1802,optionLeft,70,3305,2,17,0,17,0,1,,,,,,,,,,,,,,,,,,,,,,,,,,,,,,,,,,,,,,,
,,,,,,,644fe22915ee001d29a6b7be,2023-08-16_08h25.29.749,HF_wild_card,2022.2.4,Win32,60.10337781,644fe22915ee001d29a6b7be,64d2fd46c836a06233681665,64dc79ca7304b9d78df02f98,,,,,,,sngl,resources/DG.BMP,resources/Empty.png,Door1,-0.515740741,-0.103703704,1,0,0,0.9813,optionLeft,30,3335,2,18,0,18,0,1,,,,,,,,,,,,,,,,,,,,,,,,,,,,,,,,,,,,,,,
,,,,,,,644fe22915ee001d29a6b7be,2023-08-16_08h25.29.749,HF_wild_card,2022.2.4,Win32,60.10337781,644fe22915ee001d29a6b7be,64d2fd46c836a06233681665,64dc79ca7304b9d78df02f98,,,,,,,decisionTrl,resources/DR.BMP,resources/DBN.BMP,Door4,0.387037037,0.006481481,1,0,0,0.9474,optionRight,60,3395,2,19,0,19,0,1,,,,,,,,,,,,,,,,,,,,,,,,,,,,,,,,,,,,,,,
,,,,,,,644fe22915ee001d29a6b7be,2023-08-16_08h25.29.749,HF_wild_card,2022.2.4,Win32,60.10337781,644fe22915ee001d29a6b7be,64d2fd46c836a06233681665,64dc79ca7304b9d78df02f98,,,,,,,decisionTrl,resources/DB.BMP,resources/DG.BMP,Door1,0.303703704,-0.046296296,1,0,0,1.4148,optionRight,30,3425,2,20,0,20,0,1,,,,,,,,,,,,,,,,,,,,,,,,,,,,,,,,,,,,,,,
,,,,,,,644fe22915ee001d29a6b7be,2023-08-16_08h25.29.749,HF_wild_card,2022.2.4,Win32,60.10337781,644fe22915ee001d29a6b7be,64d2fd46c836a06233681665,64dc79ca7304b9d78df02f98,,,,,,,ctch,resources/DB.BMP,resources/DR.BMP,Door3,0.324074074,-0.059259259,1,0,0,1.7154,optionRight,70,3495,2,21,0,21,0,1,,,,,,,,,,,,,,,,,,,,,,,,,,,,,,,,,,,,,,,
,,,,,,,644fe22915ee001d29a6b7be,2023-08-16_08h25.29.749,HF_wild_card,2022.2.4,Win32,60.10337781,644fe22915ee001d29a6b7be,64d2fd46c836a06233681665,64dc79ca7304b9d78df02f98,,,,,,,decisionTrl,resources/DBN.BMP,resources/DR.BMP,Door4,-0.375,-0.081481481,1,0,0,1.3813,optionLeft,80,3575,2,22,0,22,0,1,,,,,,,,,,,,,,,,,,,,,,,,,,,,,,,,,,,,,,,
,,,,,,,644fe22915ee001d29a6b7be,2023-08-16_08h25.29.749,HF_wild_card,2022.2.4,Win32,60.10337781,644fe22915ee001d29a6b7be,64d2fd46c836a06233681665,64dc79ca7304b9d78df02f98,,,,,,,decisionTrl,resources/DBN.BMP,resources/DR.BMP,Door4,-0.346296296,-0.064814815,1,0,0,0.7665,optionLeft,80,3655,2,23,0,23,0,1,,,,,,,,,,,,,,,,,,,,,,,,,,,,,,,,,,,,,,,
,,,,,,,644fe22915ee001d29a6b7be,2023-08-16_08h25.29.749,HF_wild_card,2022.2.4,Win32,60.10337781,644fe22915ee001d29a6b7be,64d2fd46c836a06233681665,64dc79ca7304b9d78df02f98,,,,,,,sngl,resources/Empty.png,resources/DR.BMP,Door3,0.260185185,-0.034259259,1,0,0,0.9314,optionRight,70,3725,2,24,0,24,0,1,,,,,,,,,,,,,,,,,,,,,,,,,,,,,,,,,,,,,,,
,,,,,,,644fe22915ee001d29a6b7be,2023-08-16_08h25.29.749,HF_wild_card,2022.2.4,Win32,60.10337781,644fe22915ee001d29a6b7be,64d2fd46c836a06233681665,64dc79ca7304b9d78df02f98,,,,,,,decisionTrl,resources/DB.BMP,resources/DG.BMP,Door1,0.303703704,-0.025,1,0,0,3.8786,optionRight,30,3755,2,25,0,25,0,1,,,,,,,,,,,,,,,,,,,,,,,,,,,,,,,,,,,,,,,
,,,,,,,644fe22915ee001d29a6b7be,2023-08-16_08h25.29.749,HF_wild_card,2022.2.4,Win32,60.10337781,644fe22915ee001d29a6b7be,64d2fd46c836a06233681665,64dc79ca7304b9d78df02f98,,,,,,,ctch,resources/DBN.BMP,resources/DG.BMP,Door4,-0.362037037,-0.085185185,1,0,0,0.9811,optionLeft,80,3835,2,26,0,26,0,1,,,,,,,,,,,,,,,,,,,,,,,,,,,,,,,,,,,,,,,
,,,,,,,644fe22915ee001d29a6b7be,2023-08-16_08h25.29.749,HF_wild_card,2022.2.4,Win32,60.10337781,644fe22915ee001d29a6b7be,64d2fd46c836a06233681665,64dc79ca7304b9d78df02f98,,,,,,,decisionTrl,resources/DBN.BMP,resources/DP.BMP,Door4,-0.431481481,-0.086111111,1,0,0,0.7467,optionLeft,80,3915,2,27,0,27,0,1,,,,,,,,,,,,,,,,,,,,,,,,,,,,,,,,,,,,,,,
,,,,,,,644fe22915ee001d29a6b7be,2023-08-16_08h25.29.749,HF_wild_card,2022.2.4,Win32,60.10337781,644fe22915ee001d29a6b7be,64d2fd46c836a06233681665,64dc79ca7304b9d78df02f98,,,,,,,decisionTrl,resources/DR.BMP,resources/DP.BMP,Door3,-0.394444444,-0.107407407,1,0,0,2.5141,optionLeft,70,3985,2,28,0,28,0,1,,,,,,,,,,,,,,,,,,,,,,,,,,,,,,,,,,,,,,,
,,,,,,,644fe22915ee001d29a6b7be,2023-08-16_08h25.29.749,HF_wild_card,2022.2.4,Win32,60.10337781,644fe22915ee001d29a6b7be,64d2fd46c836a06233681665,64dc79ca7304b9d78df02f98,,,,,,,sngl,resources/DP.BMP,resources/Empty.png,WildCard_NonEx,-0.344444444,-0.080555556,1,0,0,1.0121,optionLeft,45,4030,2,29,0,29,0,1,,,,,,,,,,,,,,,,,,,,,,,,,,,,,,,,,,,,,,,
,,,,,,,644fe22915ee001d29a6b7be,2023-08-16_08h25.29.749,HF_wild_card,2022.2.4,Win32,60.10337781,644fe22915ee001d29a6b7be,64d2fd46c836a06233681665,64dc79ca7304b9d78df02f98,,,,,,,decisionTrl,resources/DG.BMP,resources/DB.BMP,Door2,0.264814815,-0.013888889,1,0,0,1.4985,optionRight,20,4050,2,30,0,30,0,1,,,,,,,,,,,,,,,,,,,,,,,,,,,,,,,,,,,,,,,
,,,,,,,644fe22915ee001d29a6b7be,2023-08-16_08h25.29.749,HF_wild_card,2022.2.4,Win32,60.10337781,644fe22915ee001d29a6b7be,64d2fd46c836a06233681665,64dc79ca7304b9d78df02f98,,,,,,,ctch,resources/DB.BMP,resources/DR.BMP,Door3,0.367592593,-0.036111111,1,0,0,1.2959,optionRight,70,4120,2,31,0,31,0,1,,,,,,,,,,,,,,,,,,,,,,,,,,,,,,,,,,,,,,,
,,,,,,,644fe22915ee001d29a6b7be,2023-08-16_08h25.29.749,HF_wild_card,2022.2.4,Win32,60.10337781,644fe22915ee001d29a6b7be,64d2fd46c836a06233681665,64dc79ca7304b9d78df02f98,,,,,,,sngl,resources/DR.BMP,resources/Empty.png,Door3,-0.386111111,-0.077777778,1,0,0,0.8942,optionLeft,70,4190,2,32,0,32,0,1,,,,,,,,,,,,,,,,,,,,,,,,,,,,,,,,,,,,,,,
,,,,,,,644fe22915ee001d29a6b7be,2023-08-16_08h25.29.749,HF_wild_card,2022.2.4,Win32,60.10337781,644fe22915ee001d29a6b7be,64d2fd46c836a06233681665,64dc79ca7304b9d78df02f98,,,,,,,decisionTrl,resources/DBN.BMP,resources/DR.BMP,Door4,-0.393518519,-0.076851852,1,0,0,0.9947,optionLeft,60,4250,2,33,0,33,0,1,,,,,,,,,,,,,,,,,,,,,,,,,,,,,,,,,,,,,,,
,,,,,,,644fe22915ee001d29a6b7be,2023-08-16_08h25.29.749,HF_wild_card,2022.2.4,Win32,60.10337781,644fe22915ee001d29a6b7be,64d2fd46c836a06233681665,64dc79ca7304b9d78df02f98,,,,,,,decisionTrl,resources/DR.BMP,resources/DBN.BMP,Door4,0.430555556,0.037037037,1,0,0,1.5472,optionRight,60,4310,2,34,0,34,0,1,,,,,,,,,,,,,,,,,,,,,,,,,,,,,,,,,,,,,,,
,,,,,,,644fe22915ee001d29a6b7be,2023-08-16_08h25.29.749,HF_wild_card,2022.2.4,Win32,60.10337781,644fe22915ee001d29a6b7be,64d2fd46c836a06233681665,64dc79ca7304b9d78df02f98,,,,,,,ctch,resources/DR.BMP,resources/DB.BMP,Door3,-0.400925926,-0.126851852,1,0,0,0.896,optionLeft,70,4380,2,35,0,35,0,1,,,,,,,,,,,,,,,,,,,,,,,,,,,,,,,,,,,,,,,
,,,,,,,644fe22915ee001d29a6b7be,2023-08-16_08h25.29.749,HF_wild_card,2022.2.4,Win32,60.10337781,644fe22915ee001d29a6b7be,64d2fd46c836a06233681665,64dc79ca7304b9d78df02f98,,,,,,,decisionTrl,resources/DG.BMP,resources/DP.BMP,Door1,-0.318518519,-0.083333333,1,0,0,2.012,optionLeft,30,4410,2,36,0,36,0,1,,,,,,,,,,,,,,,,,,,,,,,,,,,,,,,,,,,,,,,
,,,,,,,644fe22915ee001d29a6b7be,2023-08-16_08h25.29.749,HF_wild_card,2022.2.4,Win32,60.10337781,644fe22915ee001d29a6b7be,64d2fd46c836a06233681665,64dc79ca7304b9d78df02f98,,,,,,,sngl,resources/Empty.png,resources/DG.BMP,Door1,0.47037037,-0.00462963,1,0,0,0.848,optionRight,30,4440,2,37,0,37,0,1,,,,,,,,,,,,,,,,,,,,,,,,,,,,,,,,,,,,,,,
,,,,,,,644fe22915ee001d29a6b7be,2023-08-16_08h25.29.749,HF_wild_card,2022.2.4,Win32,60.10337781,644fe22915ee001d29a6b7be,64d2fd46c836a06233681665,64dc79ca7304b9d78df02f98,,,,,,,sngl,resources/Empty.png,resources/DP.BMP,WildCard_NonEx,0.305555556,-0.018518519,1,0,0,0.8467,optionRight,55,4495,2,38,0,38,0,1,,,,,,,,,,,,,,,,,,,,,,,,,,,,,,,,,,,,,,,
,,,,,,,644fe22915ee001d29a6b7be,2023-08-16_08h25.29.749,HF_wild_card,2022.2.4,Win32,60.10337781,644fe22915ee001d29a6b7be,64d2fd46c836a06233681665,64dc79ca7304b9d78df02f98,,,,,,,decisionTrl,resources/DP.BMP,resources/DR.BMP,Door3,0.350925926,-0.039814815,1,0,0,2.2967,optionRight,70,4565,2,39,0,39,0,1,,,,,,,,,,,,,,,,,,,,,,,,,,,,,,,,,,,,,,,
,,,,,,,644fe22915ee001d29a6b7be,2023-08-16_08h25.29.749,HF_wild_card,2022.2.4,Win32,60.10337781,644fe22915ee001d29a6b7be,64d2fd46c836a06233681665,64dc79ca7304b9d78df02f98,,,,,,,decisionTrl,resources/DG.BMP,resources/DB.BMP,Door1,-0.32962963,-0.107407407,1,0,0,1.1467,optionLeft,30,4595,2,40,0,40,0,1,,,,,,,,,,,,,,,,,,,,,,,,,,,,,,,,,,,,,,,
,,,,,,,644fe22915ee001d29a6b7be,2023-08-16_08h25.29.749,HF_wild_card,2022.2.4,Win32,60.10337781,644fe22915ee001d29a6b7be,64d2fd46c836a06233681665,64dc79ca7304b9d78df02f98,,,,,,,sngl,resources/DB.BMP,resources/Empty.png,Door2,-0.262962963,-0.091666667,1,0,0,0.9146,optionLeft,20,4615,2,41,0,41,0,1,,,,,,,,,,,,,,,,,,,,,,,,,,,,,,,,,,,,,,,
,,,,,,,644fe22915ee001d29a6b7be,2023-08-16_08h25.29.749,HF_wild_card,2022.2.4,Win32,60.10337781,644fe22915ee001d29a6b7be,64d2fd46c836a06233681665,64dc79ca7304b9d78df02f98,,,,,,,decisionTrl,resources/DBN.BMP,resources/DR.BMP,Door4,-0.340740741,-0.078703704,1,0,0,1.0473,optionLeft,80,4695,2,42,0,42,0,1,,,,,,,,,,,,,,,,,,,,,,,,,,,,,,,,,,,,,,,
,,,,,,,644fe22915ee001d29a6b7be,2023-08-16_08h25.29.749,HF_wild_card,2022.2.4,Win32,60.10337781,644fe22915ee001d29a6b7be,64d2fd46c836a06233681665,64dc79ca7304b9d78df02f98,,,,,,,decisionTrl,resources/DB.BMP,resources/DG.BMP,Door1,0.376851852,-0.014814815,1,0,0,1.1798,optionRight,30,4725,2,43,0,43,0,1,,,,,,,,,,,,,,,,,,,,,,,,,,,,,,,,,,,,,,,
,,,,,,,644fe22915ee001d29a6b7be,2023-08-16_08h25.29.749,HF_wild_card,2022.2.4,Win32,60.10337781,644fe22915ee001d29a6b7be,64d2fd46c836a06233681665,64dc79ca7304b9d78df02f98,,,,,,,,,,,,,,,,,,,,,,,,,,1,0,1,0,1,,,,,,,,,,,,,,,,,,,,,,,,,,,,,,,,,,
,,,,,,,644fe22915ee001d29a6b7be,2023-08-16_08h25.29.749,HF_wild_card,2022.2.4,Win32,60.10337781,644fe22915ee001d29a6b7be,64d2fd46c836a06233681665,64dc79ca7304b9d78df02f98,,,,,,,ctch,resources/DG.BMP,resources/DBN.BMP,Door4,0.512962963,-0.137962963,1,0,0,1.0622,optionRight,80,4805,3,0,0,0,0,1,,,,,,,,,,,,,,,,,,,,,,,,,,,,,,,,,,,,,,,
,,,,,,,644fe22915ee001d29a6b7be,2023-08-16_08h25.29.749,HF_wild_card,2022.2.4,Win32,60.10337781,644fe22915ee001d29a6b7be,64d2fd46c836a06233681665,64dc79ca7304b9d78df02f98,,,,,,,sngl,resources/DB.BMP,resources/Empty.png,Door2,-0.193518519,-0.085185185,1,0,0,1.0453,optionLeft,40,4845,3,1,0,1,0,1,,,,,,,,,,,,,,,,,,,,,,,,,,,,,,,,,,,,,,,
,,,,,,,644fe22915ee001d29a6b7be,2023-08-16_08h25.29.749,HF_wild_card,2022.2.4,Win32,60.10337781,644fe22915ee001d29a6b7be,64d2fd46c836a06233681665,64dc79ca7304b9d78df02f98,,,,,,,ctch,resources/DBN.BMP,resources/DG.BMP,Door4,-0.3,-0.037037037,1,0,0,1.0299,optionLeft,80,4925,3,2,0,2,0,1,,,,,,,,,,,,,,,,,,,,,,,,,,,,,,,,,,,,,,,
,,,,,,,644fe22915ee001d29a6b7be,2023-08-16_08h25.29.749,HF_wild_card,2022.2.4,Win32,60.10337781,644fe22915ee001d29a6b7be,64d2fd46c836a06233681665,64dc79ca7304b9d78df02f98,,,,,,,decisionTrl,resources/DB.BMP,resources/DG.BMP,Door2,-0.375925926,-0.060185185,1,0,0,2.6644,optionLeft,20,4945,3,3,0,3,0,1,,,,,,,,,,,,,,,,,,,,,,,,,,,,,,,,,,,,,,,
,,,,,,,644fe22915ee001d29a6b7be,2023-08-16_08h25.29.749,HF_wild_card,2022.2.4,Win32,60.10337781,644fe22915ee001d29a6b7be,64d2fd46c836a06233681665,64dc79ca7304b9d78df02f98,,,,,,,decisionTrl,resources/DB.BMP,resources/DG.BMP,Door1,0.326851852,-0.059259259,1,0,0,0.9632,optionRight,30,4975,3,4,0,4,0,1,,,,,,,,,,,,,,,,,,,,,,,,,,,,,,,,,,,,,,,
,,,,,,,644fe22915ee001d29a6b7be,2023-08-16_08h25.29.749,HF_wild_card,2022.2.4,Win32,60.10337781,644fe22915ee001d29a6b7be,64d2fd46c836a06233681665,64dc79ca7304b9d78df02f98,,,,,,,decisionTrl,resources/DR.BMP,resources/DBN.BMP,Door4,0.30462963,-0.046296296,1,0,0,1.2138,optionRight,60,5035,3,5,0,5,0,1,,,,,,,,,,,,,,,,,,,,,,,,,,,,,,,,,,,,,,,
,,,,,,,644fe22915ee001d29a6b7be,2023-08-16_08h25.29.749,HF_wild_card,2022.2.4,Win32,60.10337781,644fe22915ee001d29a6b7be,64d2fd46c836a06233681665,64dc79ca7304b9d78df02f98,,,,,,,decisionTrl,resources/DBN.BMP,resources/DR.BMP,Door3,0.32037037,-0.058333333,1,0,0,1.464,optionRight,70,5105,3,6,0,6,0,1,,,,,,,,,,,,,,,,,,,,,,,,,,,,,,,,,,,,,,,
,,,,,,,644fe22915ee001d29a6b7be,2023-08-16_08h25.29.749,HF_wild_card,2022.2.4,Win32,60.10337781,644fe22915ee001d29a6b7be,64d2fd46c836a06233681665,64dc79ca7304b9d78df02f98,,,,,,,ctch,resources/DG.BMP,resources/DBN.BMP,Door4,0.384259259,-0.056481481,1,0,0,1.5047,optionRight,60,5165,3,7,0,7,0,1,,,,,,,,,,,,,,,,,,,,,,,,,,,,,,,,,,,,,,,
,,,,,,,644fe22915ee001d29a6b7be,2023-08-16_08h25.29.749,HF_wild_card,2022.2.4,Win32,60.10337781,644fe22915ee001d29a6b7be,64d2fd46c836a06233681665,64dc79ca7304b9d78df02f98,,,,,,,decisionTrl,resources/DP.BMP,resources/DR.BMP,Door3,0.311111111,-0.099074074,1,0,0,1.9265,optionRight,70,5235,3,8,0,8,0,1,,,,,,,,,,,,,,,,,,,,,,,,,,,,,,,,,,,,,,,
,,,,,,,644fe22915ee001d29a6b7be,2023-08-16_08h25.29.749,HF_wild_card,2022.2.4,Win32,60.10337781,644fe22915ee001d29a6b7be,64d2fd46c836a06233681665,64dc79ca7304b9d78df02f98,,,,,,,decisionTrl,resources/DB.BMP,resources/DG.BMP,Door1,0.330555556,-0.025925926,1,0,0,1.3961,optionRight,30,5265,3,9,0,9,0,1,,,,,,,,,,,,,,,,,,,,,,,,,,,,,,,,,,,,,,,
,,,,,,,644fe22915ee001d29a6b7be,2023-08-16_08h25.29.749,HF_wild_card,2022.2.4,Win32,60.10337781,644fe22915ee001d29a6b7be,64d2fd46c836a06233681665,64dc79ca7304b9d78df02f98,,,,,,,decisionTrl,resources/DP.BMP,resources/DBN.BMP,Door4,0.469444444,-0.019444444,1,0,0,1.0968,optionRight,80,5345,3,10,0,10,0,1,,,,,,,,,,,,,,,,,,,,,,,,,,,,,,,,,,,,,,,
,,,,,,,644fe22915ee001d29a6b7be,2023-08-16_08h25.29.749,HF_wild_card,2022.2.4,Win32,60.10337781,644fe22915ee001d29a6b7be,64d2fd46c836a06233681665,64dc79ca7304b9d78df02f98,,,,,,,sngl,resources/Empty.png,resources/DP.BMP,WildCard_NonEx,0.412962963,-0.038888889,1,0,0,0.9191,optionRight,45,5390,3,11,0,11,0,1,,,,,,,,,,,,,,,,,,,,,,,,,,,,,,,,,,,,,,,
,,,,,,,644fe22915ee001d29a6b7be,2023-08-16_08h25.29.749,HF_wild_card,2022.2.4,Win32,60.10337781,644fe22915ee001d29a6b7be,64d2fd46c836a06233681665,64dc79ca7304b9d78df02f98,,,,,,,sngl,resources/DR.BMP,resources/Empty.png,Door3,-0.483333333,-0.043518519,1,0,0,0.8947,optionLeft,70,5460,3,12,0,12,0,1,,,,,,,,,,,,,,,,,,,,,,,,,,,,,,,,,,,,,,,
,,,,,,,644fe22915ee001d29a6b7be,2023-08-16_08h25.29.749,HF_wild_card,2022.2.4,Win32,60.10337781,644fe22915ee001d29a6b7be,64d2fd46c836a06233681665,64dc79ca7304b9d78df02f98,,,,,,,decisionTrl,resources/DG.BMP,resources/DB.BMP,Door1,-0.432407407,-0.061111111,1,0,0,1.213,optionLeft,30,5490,3,13,0,13,0,1,,,,,,,,,,,,,,,,,,,,,,,,,,,,,,,,,,,,,,,
,,,,,,,644fe22915ee001d29a6b7be,2023-08-16_08h25.29.749,HF_wild_card,2022.2.4,Win32,60.10337781,644fe22915ee001d29a6b7be,64d2fd46c836a06233681665,64dc79ca7304b9d78df02f98,,,,,,,sngl,resources/Empty.png,resources/DR.BMP,Door3,0.455555556,-0.048148148,1,0,0,0.7434,optionRight,70,5560,3,14,0,14,0,1,,,,,,,,,,,,,,,,,,,,,,,,,,,,,,,,,,,,,,,
,,,,,,,644fe22915ee001d29a6b7be,2023-08-16_08h25.29.749,HF_wild_card,2022.2.4,Win32,60.10337781,644fe22915ee001d29a6b7be,64d2fd46c836a06233681665,64dc79ca7304b9d78df02f98,,,,,,,sngl,resources/DG.BMP,resources/Empty.png,Door1,-0.375925926,-0.024074074,1,0,0,1.2307,optionLeft,30,5590,3,15,0,15,0,1,,,,,,,,,,,,,,,,,,,,,,,,,,,,,,,,,,,,,,,
,,,,,,,644fe22915ee001d29a6b7be,2023-08-16_08h25.29.749,HF_wild_card,2022.2.4,Win32,60.10337781,644fe22915ee001d29a6b7be,64d2fd46c836a06233681665,64dc79ca7304b9d78df02f98,,,,,,,ctch,resources/DBN.BMP,resources/DG.BMP,Door4,-0.312037037,-0.026851852,1,0,0,1.2457,optionLeft,60,5650,3,16,0,16,0,1,,,,,,,,,,,,,,,,,,,,,,,,,,,,,,,,,,,,,,,
,,,,,,,644fe22915ee001d29a6b7be,2023-08-16_08h25.29.749,HF_wild_card,2022.2.4,Win32,60.10337781,644fe22915ee001d29a6b7be,64d2fd46c836a06233681665,64dc79ca7304b9d78df02f98,,,,,,,ctch,resources/DR.BMP,resources/DB.BMP,Door3,-0.508333333,-0.060185185,1,0,0,1.2207,optionLeft,70,5720,3,17,0,17,0,1,,,,,,,,,,,,,,,,,,,,,,,,,,,,,,,,,,,,,,,
,,,,,,,644fe22915ee001d29a6b7be,2023-08-16_08h25.29.749,HF_wild_card,2022.2.4,Win32,60.10337781,644fe22915ee001d29a6b7be,64d2fd46c836a06233681665,64dc79ca7304b9d78df02f98,,,,,,,decisionTrl,resources/DP.BMP,resources/DB.BMP,WildCard_NonEx,-0.447222222,-0.036111111,1,0,0,1.3136,optionLeft,45,5765,3,18,0,18,0,1,,,,,,,,,,,,,,,,,,,,,,,,,,,,,,,,,,,,,,,
,,,,,,,644fe22915ee001d29a6b7be,2023-08-16_08h25.29.749,HF_wild_card,2022.2.4,Win32,60.10337781,644fe22915ee001d29a6b7be,64d2fd46c836a06233681665,64dc79ca7304b9d78df02f98,,,,,,,decisionTrl,resources/DBN.BMP,resources/DR.BMP,Door3,0.315740741,-0.043518519,1,0,0,1.9101,optionRight,70,5835,3,19,0,19,0,1,,,,,,,,,,,,,,,,,,,,,,,,,,,,,,,,,,,,,,,
,,,,,,,644fe22915ee001d29a6b7be,2023-08-16_08h25.29.749,HF_wild_card,2022.2.4,Win32,60.10337781,644fe22915ee001d29a6b7be,64d2fd46c836a06233681665,64dc79ca7304b9d78df02f98,,,,,,,decisionTrl,resources/DBN.BMP,resources/DR.BMP,Door3,0.307407407,-0.052777778,1,0,0,1.1289,optionRight,70,5905,3,20,0,20,0,1,,,,,,,,,,,,,,,,,,,,,,,,,,,,,,,,,,,,,,,
,,,,,,,644fe22915ee001d29a6b7be,2023-08-16_08h25.29.749,HF_wild_card,2022.2.4,Win32,60.10337781,644fe22915ee001d29a6b7be,64d2fd46c836a06233681665,64dc79ca7304b9d78df02f98,,,,,,,sngl,resources/Empty.png,resources/DBN.BMP,Door4,0.364814815,-0.019444444,1,0,0,0.8767,optionRight,60,5965,3,21,0,21,0,1,,,,,,,,,,,,,,,,,,,,,,,,,,,,,,,,,,,,,,,
,,,,,,,644fe22915ee001d29a6b7be,2023-08-16_08h25.29.749,HF_wild_card,2022.2.4,Win32,60.10337781,644fe22915ee001d29a6b7be,64d2fd46c836a06233681665,64dc79ca7304b9d78df02f98,,,,,,,decisionTrl,resources/DR.BMP,resources/DP.BMP,Door3,-0.446296296,-0.107407407,1,0,0,2.0623,optionLeft,70,6035,3,22,0,22,0,1,,,,,,,,,,,,,,,,,,,,,,,,,,,,,,,,,,,,,,,
,,,,,,,644fe22915ee001d29a6b7be,2023-08-16_08h25.29.749,HF_wild_card,2022.2.4,Win32,60.10337781,644fe22915ee001d29a6b7be,64d2fd46c836a06233681665,64dc79ca7304b9d78df02f98,,,,,,,decisionTrl,resources/DBN.BMP,resources/DP.BMP,Door4,-0.332407407,-0.041666667,1,0,0,1.7483,optionLeft,80,6115,3,23,0,23,0,1,,,,,,,,,,,,,,,,,,,,,,,,,,,,,,,,,,,,,,,
,,,,,,,644fe22915ee001d29a6b7be,2023-08-16_08h25.29.749,HF_wild_card,2022.2.4,Win32,60.10337781,644fe22915ee001d29a6b7be,64d2fd46c836a06233681665,64dc79ca7304b9d78df02f98,,,,,,,sngl,resources/DBN.BMP,resources/Empty.png,Door4,-0.382407407,-0.04537037,1,0,0,0.8284,optionLeft,80,6195,3,24,0,24,0,1,,,,,,,,,,,,,,,,,,,,,,,,,,,,,,,,,,,,,,,
,,,,,,,644fe22915ee001d29a6b7be,2023-08-16_08h25.29.749,HF_wild_card,2022.2.4,Win32,60.10337781,644fe22915ee001d29a6b7be,64d2fd46c836a06233681665,64dc79ca7304b9d78df02f98,,,,,,,decisionTrl,resources/DBN.BMP,resources/DR.BMP,Door4,-0.285185185,-0.038888889,1,0,0,1.1111,optionLeft,80,6275,3,25,0,25,0,1,,,,,,,,,,,,,,,,,,,,,,,,,,,,,,,,,,,,,,,
,,,,,,,644fe22915ee001d29a6b7be,2023-08-16_08h25.29.749,HF_wild_card,2022.2.4,Win32,60.10337781,644fe22915ee001d29a6b7be,64d2fd46c836a06233681665,64dc79ca7304b9d78df02f98,,,,,,,sngl,resources/DP.BMP,resources/Empty.png,WildCard_NonEx,-0.364814815,-0.047222222,1,0,0,0.7609,optionLeft,45,6320,3,26,0,26,0,1,,,,,,,,,,,,,,,,,,,,,,,,,,,,,,,,,,,,,,,
,,,,,,,644fe22915ee001d29a6b7be,2023-08-16_08h25.29.749,HF_wild_card,2022.2.4,Win32,60.10337781,644fe22915ee001d29a6b7be,64d2fd46c836a06233681665,64dc79ca7304b9d78df02f98,,,,,,,decisionTrl,resources/DG.BMP,resources/DB.BMP,Door1,-0.374074074,-0.05462963,1,0,0,0.9106,optionLeft,30,6350,3,27,0,27,0,1,,,,,,,,,,,,,,,,,,,,,,,,,,,,,,,,,,,,,,,
,,,,,,,644fe22915ee001d29a6b7be,2023-08-16_08h25.29.749,HF_wild_card,2022.2.4,Win32,60.10337781,644fe22915ee001d29a6b7be,64d2fd46c836a06233681665,64dc79ca7304b9d78df02f98,,,,,,,ctch,resources/DR.BMP,resources/DB.BMP,Door3,-0.39537037,-0.04537037,1,0,0,1.0106,optionLeft,70,6420,3,28,0,28,0,1,,,,,,,,,,,,,,,,,,,,,,,,,,,,,,,,,,,,,,,
,,,,,,,644fe22915ee001d29a6b7be,2023-08-16_08h25.29.749,HF_wild_card,2022.2.4,Win32,60.10337781,644fe22915ee001d29a6b7be,64d2fd46c836a06233681665,64dc79ca7304b9d78df02f98,,,,,,,decisionTrl,resources/DR.BMP,resources/DBN.BMP,Door3,-0.332407407,-0.075,1,0,0,2.8608,optionLeft,70,6490,3,29,0,29,0,1,,,,,,,,,,,,,,,,,,,,,,,,,,,,,,,,,,,,,,,
,,,,,,,644fe22915ee001d29a6b7be,2023-08-16_08h25.29.749,HF_wild_card,2022.2.4,Win32,60.10337781,644fe22915ee001d29a6b7be,64d2fd46c836a06233681665,64dc79ca7304b9d78df02f98,,,,,,,sngl,resources/Empty.png,resources/DG.BMP,Door1,0.336111111,-0.038888889,1,0,0,1.0608,optionRight,30,6520,3,30,0,30,0,1,,,,,,,,,,,,,,,,,,,,,,,,,,,,,,,,,,,,,,,
,,,,,,,644fe22915ee001d29a6b7be,2023-08-16_08h25.29.749,HF_wild_card,2022.2.4,Win32,60.10337781,644fe22915ee001d29a6b7be,64d2fd46c836a06233681665,64dc79ca7304b9d78df02f98,,,,,,,decisionTrl,resources/DG.BMP,resources/DB.BMP,Door1,-0.451851852,-0.077777778,1,0,0,1.1781,optionLeft,30,6550,3,31,0,31,0,1,,,,,,,,,,,,,,,,,,,,,,,,,,,,,,,,,,,,,,,
,,,,,,,644fe22915ee001d29a6b7be,2023-08-16_08h25.29.749,HF_wild_card,2022.2.4,Win32,60.10337781,644fe22915ee001d29a6b7be,64d2fd46c836a06233681665,64dc79ca7304b9d78df02f98,,,,,,,decisionTrl,resources/DG.BMP,resources/DP.BMP,WildCard_NonEx,0.303703704,-0.084259259,1,0,0,1.4108,optionRight,45,6595,3,32,0,32,0,1,,,,,,,,,,,,,,,,,,,,,,,,,,,,,,,,,,,,,,,
,,,,,,,644fe22915ee001d29a6b7be,2023-08-16_08h25.29.749,HF_wild_card,2022.2.4,Win32,60.10337781,644fe22915ee001d29a6b7be,64d2fd46c836a06233681665,64dc79ca7304b9d78df02f98,,,,,,,sngl,resources/DP.BMP,resources/Empty.png,WildCard_NonEx,-0.327777778,-0.066666667,1,0,0,0.7604,optionLeft,55,6650,3,33,0,33,0,1,,,,,,,,,,,,,,,,,,,,,,,,,,,,,,,,,,,,,,,
,,,,,,,644fe22915ee001d29a6b7be,2023-08-16_08h25.29.749,HF_wild_card,2022.2.4,Win32,60.10337781,644fe22915ee001d29a6b7be,64d2fd46c836a06233681665,64dc79ca7304b9d78df02f98,,,,,,,decisionTrl,resources/DP.BMP,resources/DG.BMP,WildCard_NonEx,-0.412037037,-0.085185185,1,0,0,1.2772,optionLeft,45,6695,3,34,0,34,0,1,,,,,,,,,,,,,,,,,,,,,,,,,,,,,,,,,,,,,,,
,,,,,,,644fe22915ee001d29a6b7be,2023-08-16_08h25.29.749,HF_wild_card,2022.2.4,Win32,60.10337781,644fe22915ee001d29a6b7be,64d2fd46c836a06233681665,64dc79ca7304b9d78df02f98,,,,,,,decisionTrl,resources/DG.BMP,resources/DB.BMP,Door1,-0.308333333,-0.055555556,1,0,0,1.3422,optionLeft,30,6725,3,35,0,35,0,1,,,,,,,,,,,,,,,,,,,,,,,,,,,,,,,,,,,,,,,
,,,,,,,644fe22915ee001d29a6b7be,2023-08-16_08h25.29.749,HF_wild_card,2022.2.4,Win32,60.10337781,644fe22915ee001d29a6b7be,64d2fd46c836a06233681665,64dc79ca7304b9d78df02f98,,,,,,,decisionTrl,resources/DB.BMP,resources/DP.BMP,WildCard_NonEx,0.289814815,-0.090740741,1,0,0,1.3785,optionRight,55,6780,3,36,0,36,0,1,,,,,,,,,,,,,,,,,,,,,,,,,,,,,,,,,,,,,,,
,,,,,,,644fe22915ee001d29a6b7be,2023-08-16_08h25.29.749,HF_wild_card,2022.2.4,Win32,60.10337781,644fe22915ee001d29a6b7be,64d2fd46c836a06233681665,64dc79ca7304b9d78df02f98,,,,,,,sngl,resources/Empty.png,resources/DB.BMP,Door2,0.274074074,-0.039814815,1,0,0,3.8775,optionRight,20,6800,3,37,0,37,0,1,,,,,,,,,,,,,,,,,,,,,,,,,,,,,,,,,,,,,,,
,,,,,,,644fe22915ee001d29a6b7be,2023-08-16_08h25.29.749,HF_wild_card,2022.2.4,Win32,60.10337781,644fe22915ee001d29a6b7be,64d2fd46c836a06233681665,64dc79ca7304b9d78df02f98,,,,,,,decisionTrl,resources/DR.BMP,resources/DBN.BMP,Door3,-0.425925926,-0.096296296,1,0,0,1.4945,optionLeft,70,6870,3,38,0,38,0,1,,,,,,,,,,,,,,,,,,,,,,,,,,,,,,,,,,,,,,,
,,,,,,,644fe22915ee001d29a6b7be,2023-08-16_08h25.29.749,HF_wild_card,2022.2.4,Win32,60.10337781,644fe22915ee001d29a6b7be,64d2fd46c836a06233681665,64dc79ca7304b9d78df02f98,,,,,,,decisionTrl,resources/DR.BMP,resources/DBN.BMP,Door3,-0.340740741,-0.04537037,1,0,0,0.8609,optionLeft,70,6940,3,39,0,39,0,1,,,,,,,,,,,,,,,,,,,,,,,,,,,,,,,,,,,,,,,
,,,,,,,644fe22915ee001d29a6b7be,2023-08-16_08h25.29.749,HF_wild_card,2022.2.4,Win32,60.10337781,644fe22915ee001d29a6b7be,64d2fd46c836a06233681665,64dc79ca7304b9d78df02f98,,,,,,,ctch,resources/DB.BMP,resources/DR.BMP,Door3,0.384259259,-0.098148148,1,0,0,0.9941,optionRight,70,7010,3,40,0,40,0,1,,,,,,,,,,,,,,,,,,,,,,,,,,,,,,,,,,,,,,,
,,,,,,,644fe22915ee001d29a6b7be,2023-08-16_08h25.29.749,HF_wild_card,2022.2.4,Win32,60.10337781,644fe22915ee001d29a6b7be,64d2fd46c836a06233681665,64dc79ca7304b9d78df02f98,,,,,,,ctch,resources/DB.BMP,resources/DR.BMP,Door3,0.362962963,-0.061111111,1,0,0,1.3951,optionRight,70,7080,3,41,0,41,0,1,,,,,,,,,,,,,,,,,,,,,,,,,,,,,,,,,,,,,,,
,,,,,,,644fe22915ee001d29a6b7be,2023-08-16_08h25.29.749,HF_wild_card,2022.2.4,Win32,60.10337781,644fe22915ee001d29a6b7be,64d2fd46c836a06233681665,64dc79ca7304b9d78df02f98,,,,,,,decisionTrl,resources/DB.BMP,resources/DG.BMP,Door1,0.363888889,-0.089814815,1,0,0,2.2455,optionRight,30,7110,3,42,0,42,0,1,,,,,,,,,,,,,,,,,,,,,,,,,,,,,,,,,,,,,,,
,,,,,,,644fe22915ee001d29a6b7be,2023-08-16_08h25.29.749,HF_wild_card,2022.2.4,Win32,60.10337781,644fe22915ee001d29a6b7be,64d2fd46c836a06233681665,64dc79ca7304b9d78df02f98,,,,,,,sngl,resources/Empty.png,resources/DP.BMP,WildCard_NonEx,0.32037037,-0.009259259,1,0,0,0.8099,optionRight,55,7165,3,43,0,43,0,1,,,,,,,,,,,,,,,,,,,,,,,,,,,,,,,,,,,,,,,
,,,,,,,644fe22915ee001d29a6b7be,2023-08-16_08h25.29.749,HF_wild_card,2022.2.4,Win32,60.10337781,644fe22915ee001d29a6b7be,64d2fd46c836a06233681665,64dc79ca7304b9d78df02f98,,,,,,,,,,,,,,,,,,,,,,,,,,2,0,2,0,1,,,,,,,,,,,,,,,,,,,,,,,,,,,,,,,,,,
,,,,,,,644fe22915ee001d29a6b7be,2023-08-16_08h25.29.749,HF_wild_card,2022.2.4,Win32,60.10337781,644fe22915ee001d29a6b7be,64d2fd46c836a06233681665,64dc79ca7304b9d78df02f98,,,,,,,ctch,resources/DB.BMP,resources/DR.BMP,Door3,0.364814815,-0.184259259,1,0,0,1.4185,optionRight,70,7235,4,0,0,0,0,1,,,,,,,,,,,,,,,,,,,,,,,,,,,,,,,,,,,,,,,
,,,,,,,644fe22915ee001d29a6b7be,2023-08-16_08h25.29.749,HF_wild_card,2022.2.4,Win32,60.10337781,644fe22915ee001d29a6b7be,64d2fd46c836a06233681665,64dc79ca7304b9d78df02f98,,,,,,,ctch,resources/DB.BMP,resources/DR.BMP,Door3,0.316666667,-0.052777778,1,0,0,0.8798,optionRight,70,7305,4,1,0,1,0,1,,,,,,,,,,,,,,,,,,,,,,,,,,,,,,,,,,,,,,,
,,,,,,,644fe22915ee001d29a6b7be,2023-08-16_08h25.29.749,HF_wild_card,2022.2.4,Win32,60.10337781,644fe22915ee001d29a6b7be,64d2fd46c836a06233681665,64dc79ca7304b9d78df02f98,,,,,,,sngl,resources/Empty.png,resources/DR.BMP,Door3,0.282407407,-0.052777778,1,0,0,1.0114,optionRight,70,7375,4,2,0,2,0,1,,,,,,,,,,,,,,,,,,,,,,,,,,,,,,,,,,,,,,,
,,,,,,,644fe22915ee001d29a6b7be,2023-08-16_08h25.29.749,HF_wild_card,2022.2.4,Win32,60.10337781,644fe22915ee001d29a6b7be,64d2fd46c836a06233681665,64dc79ca7304b9d78df02f98,,,,,,,decisionTrl,resources/DB.BMP,resources/DG.BMP,Door1,0.344444444,-0.080555556,1,0,0,1.477,optionRight,30,7405,4,3,0,3,0,1,,,,,,,,,,,,,,,,,,,,,,,,,,,,,,,,,,,,,,,
,,,,,,,644fe22915ee001d29a6b7be,2023-08-16_08h25.29.749,HF_wild_card,2022.2.4,Win32,60.10337781,644fe22915ee001d29a6b7be,64d2fd46c836a06233681665,64dc79ca7304b9d78df02f98,,,,,,,decisionTrl,resources/DG.BMP,resources/DB.BMP,Door1,-0.368518519,-0.025925926,1,0,0,0.842,optionLeft,30,7435,4,4,0,4,0,1,,,,,,,,,,,,,,,,,,,,,,,,,,,,,,,,,,,,,,,
,,,,,,,644fe22915ee001d29a6b7be,2023-08-16_08h25.29.749,HF_wild_card,2022.2.4,Win32,60.10337781,644fe22915ee001d29a6b7be,64d2fd46c836a06233681665,64dc79ca7304b9d78df02f98,,,,,,,decisionTrl,resources/DG.BMP,resources/DB.BMP,Door1,-0.396296296,-0.066666667,1,0,0,1.4294,optionLeft,30,7465,4,5,0,5,0,1,,,,,,,,,,,,,,,,,,,,,,,,,,,,,,,,,,,,,,,
,,,,,,,644fe22915ee001d29a6b7be,2023-08-16_08h25.29.749,HF_wild_card,2022.2.4,Win32,60.10337781,644fe22915ee001d29a6b7be,64d2fd46c836a06233681665,64dc79ca7304b9d78df02f98,,,,,,,decisionTrl,resources/DB.BMP,resources/DY.BMP,WildCard_Ex,0.418518519,-0.014814815,1,0,0,1.2148,optionRight,45,7510,4,6,0,6,0,1,,,,,,,,,,,,,,,,,,,,,,,,,,,,,,,,,,,,,,,
,,,,,,,644fe22915ee001d29a6b7be,2023-08-16_08h25.29.749,HF_wild_card,2022.2.4,Win32,60.10337781,644fe22915ee001d29a6b7be,64d2fd46c836a06233681665,64dc79ca7304b9d78df02f98,,,,,,,decisionTrl,resources/DB.BMP,resources/DG.BMP,Door1,0.314814815,-0.025925926,1,0,0,1.1811,optionRight,30,7540,4,7,0,7,0,1,,,,,,,,,,,,,,,,,,,,,,,,,,,,,,,,,,,,,,,
,,,,,,,644fe22915ee001d29a6b7be,2023-08-16_08h25.29.749,HF_wild_card,2022.2.4,Win32,60.10337781,644fe22915ee001d29a6b7be,64d2fd46c836a06233681665,64dc79ca7304b9d78df02f98,,,,,,,sngl,resources/Empty.png,resources/DBN.BMP,Door4,0.468518519,-0.033333333,1,0,0,0.9053,optionRight,80,7620,4,8,0,8,0,1,,,,,,,,,,,,,,,,,,,,,,,,,,,,,,,,,,,,,,,
,,,,,,,644fe22915ee001d29a6b7be,2023-08-16_08h25.29.749,HF_wild_card,2022.2.4,Win32,60.10337781,644fe22915ee001d29a6b7be,64d2fd46c836a06233681665,64dc79ca7304b9d78df02f98,,,,,,,sngl,resources/Empty.png,resources/DG.BMP,Door1,0.269444444,-0.050925926,1,0,0,0.8974,optionRight,30,7650,4,9,0,9,0,1,,,,,,,,,,,,,,,,,,,,,,,,,,,,,,,,,,,,,,,
,,,,,,,644fe22915ee001d29a6b7be,2023-08-16_08h25.29.749,HF_wild_card,2022.2.4,Win32,60.10337781,644fe22915ee001d29a6b7be,64d2fd46c836a06233681665,64dc79ca7304b9d78df02f98,,,,,,,sngl,resources/Empty.png,resources/DY.BMP,WildCard_Ex,0.301851852,-0.026851852,1,0,0,0.7958,optionRight,45,7695,4,10,0,10,0,1,,,,,,,,,,,,,,,,,,,,,,,,,,,,,,,,,,,,,,,
,,,,,,,644fe22915ee001d29a6b7be,2023-08-16_08h25.29.749,HF_wild_card,2022.2.4,Win32,60.10337781,644fe22915ee001d29a6b7be,64d2fd46c836a06233681665,64dc79ca7304b9d78df02f98,,,,,,,decisionTrl,resources/DR.BMP,resources/DY.BMP,Door3,-0.50462963,-0.059259259,1,0,0,1.8977,optionLeft,70,7765,4,11,0,11,0,1,,,,,,,,,,,,,,,,,,,,,,,,,,,,,,,,,,,,,,,
,,,,,,,644fe22915ee001d29a6b7be,2023-08-16_08h25.29.749,HF_wild_card,2022.2.4,Win32,60.10337781,644fe22915ee001d29a6b7be,64d2fd46c836a06233681665,64dc79ca7304b9d78df02f98,,,,,,,sngl,resources/DG.BMP,resources/Empty.png,Door1,-0.35,-0.049074074,1,0,0,0.8595,optionLeft,30,7795,4,12,0,12,0,1,,,,,,,,,,,,,,,,,,,,,,,,,,,,,,,,,,,,,,,
,,,,,,,644fe22915ee001d29a6b7be,2023-08-16_08h25.29.749,HF_wild_card,2022.2.4,Win32,60.10337781,644fe22915ee001d29a6b7be,64d2fd46c836a06233681665,64dc79ca7304b9d78df02f98,,,,,,,sngl,resources/Empty.png,resources/DY.BMP,WildCard_Ex,0.317592593,-0.030555556,1,0,0,1.3019,optionRight,55,7850,4,13,0,13,0,1,,,,,,,,,,,,,,,,,,,,,,,,,,,,,,,,,,,,,,,
,,,,,,,644fe22915ee001d29a6b7be,2023-08-16_08h25.29.749,HF_wild_card,2022.2.4,Win32,60.10337781,644fe22915ee001d29a6b7be,64d2fd46c836a06233681665,64dc79ca7304b9d78df02f98,,,,,,,ctch,resources/DR.BMP,resources/DB.BMP,Door3,-0.452777778,-0.088888889,1,0,0,1.034,optionLeft,70,7920,4,14,0,14,0,1,,,,,,,,,,,,,,,,,,,,,,,,,,,,,,,,,,,,,,,
,,,,,,,644fe22915ee001d29a6b7be,2023-08-16_08h25.29.749,HF_wild_card,2022.2.4,Win32,60.10337781,644fe22915ee001d29a6b7be,64d2fd46c836a06233681665,64dc79ca7304b9d78df02f98,,,,,,,decisionTrl,resources/DY.BMP,resources/DR.BMP,Door3,0.467592593,-0.078703704,1,0,0,1.3781,optionRight,70,7990,4,15,0,15,0,1,,,,,,,,,,,,,,,,,,,,,,,,,,,,,,,,,,,,,,,
,,,,,,,644fe22915ee001d29a6b7be,2023-08-16_08h25.29.749,HF_wild_card,2022.2.4,Win32,60.10337781,644fe22915ee001d29a6b7be,64d2fd46c836a06233681665,64dc79ca7304b9d78df02f98,,,,,,,ctch,resources/DBN.BMP,resources/DG.BMP,Door4,-0.35,-0.053703704,1,0,0,0.7973,optionLeft,80,8070,4,16,0,16,0,1,,,,,,,,,,,,,,,,,,,,,,,,,,,,,,,,,,,,,,,
,,,,,,,644fe22915ee001d29a6b7be,2023-08-16_08h25.29.749,HF_wild_card,2022.2.4,Win32,60.10337781,644fe22915ee001d29a6b7be,64d2fd46c836a06233681665,64dc79ca7304b9d78df02f98,,,,,,,decisionTrl,resources/DR.BMP,resources/DBN.BMP,Door4,0.34537037,-0.038888889,1,0,0,1.0491,optionRight,80,8150,4,17,0,17,0,1,,,,,,,,,,,,,,,,,,,,,,,,,,,,,,,,,,,,,,,
,,,,,,,644fe22915ee001d29a6b7be,2023-08-16_08h25.29.749,HF_wild_card,2022.2.4,Win32,60.10337781,644fe22915ee001d29a6b7be,64d2fd46c836a06233681665,64dc79ca7304b9d78df02f98,,,,,,,decisionTrl,resources/DG.BMP,resources/DY.BMP,WildCard_Ex,0.360185185,-0.134259259,1,0,0,1.7151,optionRight,45,8195,4,18,0,18,0,1,,,,,,,,,,,,,,,,,,,,,,,,,,,,,,,,,,,,,,,
,,,,,,,644fe22915ee001d29a6b7be,2023-08-16_08h25.29.749,HF_wild_card,2022.2.4,Win32,60.10337781,644fe22915ee001d29a6b7be,64d2fd46c836a06233681665,64dc79ca7304b9d78df02f98,,,,,,,sngl,resources/Empty.png,resources/DB.BMP,Door2,0.273148148,-0.037962963,1,0,0,0.93,optionRight,40,8235,4,19,0,19,0,1,,,,,,,,,,,,,,,,,,,,,,,,,,,,,,,,,,,,,,,
,,,,,,,644fe22915ee001d29a6b7be,2023-08-16_08h25.29.749,HF_wild_card,2022.2.4,Win32,60.10337781,644fe22915ee001d29a6b7be,64d2fd46c836a06233681665,64dc79ca7304b9d78df02f98,,,,,,,decisionTrl,resources/DG.BMP,resources/DB.BMP,Door2,0.358333333,-0.105555556,1,0,0,1.3474,optionRight,20,8255,4,20,0,20,0,1,,,,,,,,,,,,,,,,,,,,,,,,,,,,,,,,,,,,,,,
,,,,,,,644fe22915ee001d29a6b7be,2023-08-16_08h25.29.749,HF_wild_card,2022.2.4,Win32,60.10337781,644fe22915ee001d29a6b7be,64d2fd46c836a06233681665,64dc79ca7304b9d78df02f98,,,,,,,sngl,resources/DY.BMP,resources/Empty.png,WildCard_Ex,-0.374074074,-0.066666667,1,0,0,0.679,optionLeft,55,8310,4,21,0,21,0,1,,,,,,,,,,,,,,,,,,,,,,,,,,,,,,,,,,,,,,,
,,,,,,,644fe22915ee001d29a6b7be,2023-08-16_08h25.29.749,HF_wild_card,2022.2.4,Win32,60.10337781,644fe22915ee001d29a6b7be,64d2fd46c836a06233681665,64dc79ca7304b9d78df02f98,,,,,,,ctch,resources/DBN.BMP,resources/DG.BMP,Door4,-0.349074074,-0.07037037,1,0,0,1.1638,optionLeft,80,8390,4,22,0,22,0,1,,,,,,,,,,,,,,,,,,,,,,,,,,,,,,,,,,,,,,,
,,,,,,,644fe22915ee001d29a6b7be,2023-08-16_08h25.29.749,HF_wild_card,2022.2.4,Win32,60.10337781,644fe22915ee001d29a6b7be,64d2fd46c836a06233681665,64dc79ca7304b9d78df02f98,,,,,,,sngl,resources/DY.BMP,resources/Empty.png,WildCard_Ex,-0.34537037,-0.065740741,1,0,0,0.733,optionLeft,45,8435,4,23,0,23,0,1,,,,,,,,,,,,,,,,,,,,,,,,,,,,,,,,,,,,,,,
,,,,,,,644fe22915ee001d29a6b7be,2023-08-16_08h25.29.749,HF_wild_card,2022.2.4,Win32,60.10337781,644fe22915ee001d29a6b7be,64d2fd46c836a06233681665,64dc79ca7304b9d78df02f98,,,,,,,decisionTrl,resources/DR.BMP,resources/DBN.BMP,Door3,-0.392592593,-0.072222222,1,0,0,1.8141,optionLeft,70,8505,4,24,0,24,0,1,,,,,,,,,,,,,,,,,,,,,,,,,,,,,,,,,,,,,,,
,,,,,,,644fe22915ee001d29a6b7be,2023-08-16_08h25.29.749,HF_wild_card,2022.2.4,Win32,60.10337781,644fe22915ee001d29a6b7be,64d2fd46c836a06233681665,64dc79ca7304b9d78df02f98,,,,,,,decisionTrl,resources/DY.BMP,resources/DG.BMP,WildCard_Ex,-0.375,-0.087962963,1,0,0,1.3477,optionLeft,55,8560,4,25,0,25,0,1,,,,,,,,,,,,,,,,,,,,,,,,,,,,,,,,,,,,,,,
,,,,,,,644fe22915ee001d29a6b7be,2023-08-16_08h25.29.749,HF_wild_card,2022.2.4,Win32,60.10337781,644fe22915ee001d29a6b7be,64d2fd46c836a06233681665,64dc79ca7304b9d78df02f98,,,,,,,decisionTrl,resources/DB.BMP,resources/DG.BMP,Door1,0.371296296,-0.028703704,1,0,0,1.0817,optionRight,30,8590,4,26,0,26,0,1,,,,,,,,,,,,,,,,,,,,,,,,,,,,,,,,,,,,,,,
,,,,,,,644fe22915ee001d29a6b7be,2023-08-16_08h25.29.749,HF_wild_card,2022.2.4,Win32,60.10337781,644fe22915ee001d29a6b7be,64d2fd46c836a06233681665,64dc79ca7304b9d78df02f98,,,,,,,sngl,resources/DBN.BMP,resources/Empty.png,Door4,-0.359259259,-0.067592593,1,0,0,0.6481,optionLeft,60,8650,4,27,0,27,0,1,,,,,,,,,,,,,,,,,,,,,,,,,,,,,,,,,,,,,,,
,,,,,,,644fe22915ee001d29a6b7be,2023-08-16_08h25.29.749,HF_wild_card,2022.2.4,Win32,60.10337781,644fe22915ee001d29a6b7be,64d2fd46c836a06233681665,64dc79ca7304b9d78df02f98,,,,,,,decisionTrl,resources/DR.BMP,resources/DBN.BMP,Door3,-0.4,-0.076851852,1,0,0,1.1285,optionLeft,70,8720,4,28,0,28,0,1,,,,,,,,,,,,,,,,,,,,,,,,,,,,,,,,,,,,,,,
,,,,,,,644fe22915ee001d29a6b7be,2023-08-16_08h25.29.749,HF_wild_card,2022.2.4,Win32,60.10337781,644fe22915ee001d29a6b7be,64d2fd46c836a06233681665,64dc79ca7304b9d78df02f98,,,,,,,ctch,resources/DR.BMP,resources/DB.BMP,Door3,-0.382407407,-0.058333333,1,0,0,0.9664,optionLeft,70,8790,4,29,0,29,0,1,,,,,,,,,,,,,,,,,,,,,,,,,,,,,,,,,,,,,,,
,,,,,,,644fe22915ee001d29a6b7be,2023-08-16_08h25.29.749,HF_wild_card,2022.2.4,Win32,60.10337781,644fe22915ee001d29a6b7be,64d2fd46c836a06233681665,64dc79ca7304b9d78df02f98,,,,,,,decisionTrl,resources/DBN.BMP,resources/DR.BMP,Door3,0.321296296,-0.071296296,1,0,0,1.6993,optionRight,70,8860,4,30,0,30,0,1,,,,,,,,,,,,,,,,,,,,,,,,,,,,,,,,,,,,,,,
,,,,,,,644fe22915ee001d29a6b7be,2023-08-16_08h25.29.749,HF_wild_card,2022.2.4,Win32,60.10337781,644fe22915ee001d29a6b7be,64d2fd46c836a06233681665,64dc79ca7304b9d78df02f98,,,,,,,sngl,resources/DR.BMP,resources/Empty.png,Door3,-0.461111111,-0.148148148,1,0,0,0.7464,optionLeft,70,8930,4,31,0,31,0,1,,,,,,,,,,,,,,,,,,,,,,,,,,,,,,,,,,,,,,,
,,,,,,,644fe22915ee001d29a6b7be,2023-08-16_08h25.29.749,HF_wild_card,2022.2.4,Win32,60.10337781,644fe22915ee001d29a6b7be,64d2fd46c836a06233681665,64dc79ca7304b9d78df02f98,,,,,,,decisionTrl,resources/DY.BMP,resources/DBN.BMP,Door4,0.405555556,-0.018518519,1,0,0,1.0304,optionRight,80,9010,4,32,0,32,0,1,,,,,,,,,,,,,,,,,,,,,,,,,,,,,,,,,,,,,,,
,,,,,,,644fe22915ee001d29a6b7be,2023-08-16_08h25.29.749,HF_wild_card,2022.2.4,Win32,60.10337781,644fe22915ee001d29a6b7be,64d2fd46c836a06233681665,64dc79ca7304b9d78df02f98,,,,,,,decisionTrl,resources/DG.BMP,resources/DB.BMP,Door1,-0.346296296,-0.082407407,1,0,0,1.0321,optionLeft,30,9040,4,33,0,33,0,1,,,,,,,,,,,,,,,,,,,,,,,,,,,,,,,,,,,,,,,
,,,,,,,644fe22915ee001d29a6b7be,2023-08-16_08h25.29.749,HF_wild_card,2022.2.4,Win32,60.10337781,644fe22915ee001d29a6b7be,64d2fd46c836a06233681665,64dc79ca7304b9d78df02f98,,,,,,,decisionTrl,resources/DB.BMP,resources/DG.BMP,Door1,0.364814815,-0.076851852,1,0,0,1.0488,optionRight,30,9070,4,34,0,34,0,1,,,,,,,,,,,,,,,,,,,,,,,,,,,,,,,,,,,,,,,
,,,,,,,644fe22915ee001d29a6b7be,2023-08-16_08h25.29.749,HF_wild_card,2022.2.4,Win32,60.10337781,644fe22915ee001d29a6b7be,64d2fd46c836a06233681665,64dc79ca7304b9d78df02f98,,,,,,,decisionTrl,resources/DBN.BMP,resources/DR.BMP,Door4,-0.321296296,-0.097222222,1,0,0,2.2811,optionLeft,80,9150,4,35,0,35,0,1,,,,,,,,,,,,,,,,,,,,,,,,,,,,,,,,,,,,,,,
,,,,,,,644fe22915ee001d29a6b7be,2023-08-16_08h25.29.749,HF_wild_card,2022.2.4,Win32,60.10337781,644fe22915ee001d29a6b7be,64d2fd46c836a06233681665,64dc79ca7304b9d78df02f98,,,,,,,decisionTrl,resources/DBN.BMP,resources/DR.BMP,Door4,-0.30462963,-0.071296296,1,0,0,0.7812,optionLeft,60,9210,4,36,0,36,0,1,,,,,,,,,,,,,,,,,,,,,,,,,,,,,,,,,,,,,,,
,,,,,,,644fe22915ee001d29a6b7be,2023-08-16_08h25.29.749,HF_wild_card,2022.2.4,Win32,60.10337781,644fe22915ee001d29a6b7be,64d2fd46c836a06233681665,64dc79ca7304b9d78df02f98,,,,,,,sngl,resources/DB.BMP,resources/Empty.png,Door2,-0.338888889,-0.103703704,1,0,0,0.9464,optionLeft,20,9230,4,37,0,37,0,1,,,,,,,,,,,,,,,,,,,,,,,,,,,,,,,,,,,,,,,
,,,,,,,644fe22915ee001d29a6b7be,2023-08-16_08h25.29.749,HF_wild_card,2022.2.4,Win32,60.10337781,644fe22915ee001d29a6b7be,64d2fd46c836a06233681665,64dc79ca7304b9d78df02f98,,,,,,,decisionTrl,resources/DBN.BMP,resources/DR.BMP,Door3,0.30462963,-0.013888889,1,0,0,1.4634,optionRight,70,9300,4,38,0,38,0,1,,,,,,,,,,,,,,,,,,,,,,,,,,,,,,,,,,,,,,,
,,,,,,,644fe22915ee001d29a6b7be,2023-08-16_08h25.29.749,HF_wild_card,2022.2.4,Win32,60.10337781,644fe22915ee001d29a6b7be,64d2fd46c836a06233681665,64dc79ca7304b9d78df02f98,,,,,,,ctch,resources/DG.BMP,resources/DBN.BMP,Door4,0.319444444,-0.015740741,1,0,0,1.1651,optionRight,60,9360,4,39,0,39,0,1,,,,,,,,,,,,,,,,,,,,,,,,,,,,,,,,,,,,,,,
,,,,,,,644fe22915ee001d29a6b7be,2023-08-16_08h25.29.749,HF_wild_card,2022.2.4,Win32,60.10337781,644fe22915ee001d29a6b7be,64d2fd46c836a06233681665,64dc79ca7304b9d78df02f98,,,,,,,ctch,resources/DG.BMP,resources/DBN.BMP,Door4,0.271296296,-0.048148148,1,0,0,1.2479,optionRight,60,9420,4,40,0,40,0,1,,,,,,,,,,,,,,,,,,,,,,,,,,,,,,,,,,,,,,,
,,,,,,,644fe22915ee001d29a6b7be,2023-08-16_08h25.29.749,HF_wild_card,2022.2.4,Win32,60.10337781,644fe22915ee001d29a6b7be,64d2fd46c836a06233681665,64dc79ca7304b9d78df02f98,,,,,,,decisionTrl,resources/DR.BMP,resources/DBN.BMP,Door3,-0.337962963,-0.108333333,1,0,0,1.2969,optionLeft,70,9490,4,41,0,41,0,1,,,,,,,,,,,,,,,,,,,,,,,,,,,,,,,,,,,,,,,
,,,,,,,644fe22915ee001d29a6b7be,2023-08-16_08h25.29.749,HF_wild_card,2022.2.4,Win32,60.10337781,644fe22915ee001d29a6b7be,64d2fd46c836a06233681665,64dc79ca7304b9d78df02f98,,,,,,,decisionTrl,resources/DY.BMP,resources/DB.BMP,WildCard_Ex,-0.351851852,-0.087037037,1,0,0,1.5804,optionLeft,55,9545,4,42,0,42,0,1,,,,,,,,,,,,,,,,,,,,,,,,,,,,,,,,,,,,,,,
,,,,,,,644fe22915ee001d29a6b7be,2023-08-16_08h25.29.749,HF_wild_card,2022.2.4,Win32,60.10337781,644fe22915ee001d29a6b7be,64d2fd46c836a06233681665,64dc79ca7304b9d78df02f98,,,,,,,decisionTrl,resources/DBN.BMP,resources/DY.BMP,Door4,-0.464814815,-0.087962963,1,0,0,1.0446,optionLeft,60,9605,4,43,0,43,0,1,,,,,,,,,,,,,,,,,,,,,,,,,,,,,,,,,,,,,,,
,,,,,,,644fe22915ee001d29a6b7be,2023-08-16_08h25.29.749,HF_wild_card,2022.2.4,Win32,60.10337781,644fe22915ee001d29a6b7be,64d2fd46c836a06233681665,64dc79ca7304b9d78df02f98,,,,,,,,,,,,,,,,,,,,,,,,,,3,0,3,0,1,,,,,,,,,,,,,,,,,,,,,,,,,,,,,,,,,,
,,,,,,,644fe22915ee001d29a6b7be,2023-08-16_08h25.29.749,HF_wild_card,2022.2.4,Win32,60.10337781,644fe22915ee001d29a6b7be,64d2fd46c836a06233681665,64dc79ca7304b9d78df02f98,,,,,,,ctch,resources/DB.BMP,resources/DR.BMP,Door3,0.32962963,-0.135185185,1,0,0,2.3523,optionRight,70,9675,5,0,0,0,0,1,,,,,,,,,,,,,,,,,,,,,,,,,,,,,,,,,,,,,,,
,,,,,,,644fe22915ee001d29a6b7be,2023-08-16_08h25.29.749,HF_wild_card,2022.2.4,Win32,60.10337781,644fe22915ee001d29a6b7be,64d2fd46c836a06233681665,64dc79ca7304b9d78df02f98,,,,,,,decisionTrl,resources/DG.BMP,resources/DB.BMP,Door1,-0.32037037,-0.062962963,1,0,0,1.0361,optionLeft,30,9705,5,1,0,1,0,1,,,,,,,,,,,,,,,,,,,,,,,,,,,,,,,,,,,,,,,
,,,,,,,644fe22915ee001d29a6b7be,2023-08-16_08h25.29.749,HF_wild_card,2022.2.4,Win32,60.10337781,644fe22915ee001d29a6b7be,64d2fd46c836a06233681665,64dc79ca7304b9d78df02f98,,,,,,,ctch,resources/DBN.BMP,resources/DG.BMP,Door4,-0.353703704,-0.073148148,1,0,0,1.2635,optionLeft,80,9785,5,2,0,2,0,1,,,,,,,,,,,,,,,,,,,,,,,,,,,,,,,,,,,,,,,
,,,,,,,644fe22915ee001d29a6b7be,2023-08-16_08h25.29.749,HF_wild_card,2022.2.4,Win32,60.10337781,644fe22915ee001d29a6b7be,64d2fd46c836a06233681665,64dc79ca7304b9d78df02f98,,,,,,,decisionTrl,resources/DBN.BMP,resources/DR.BMP,Door3,0.338888889,0.021296296,1,0,0,1.2969,optionRight,70,9855,5,3,0,3,0,1,,,,,,,,,,,,,,,,,,,,,,,,,,,,,,,,,,,,,,,
,,,,,,,644fe22915ee001d29a6b7be,2023-08-16_08h25.29.749,HF_wild_card,2022.2.4,Win32,60.10337781,644fe22915ee001d29a6b7be,64d2fd46c836a06233681665,64dc79ca7304b9d78df02f98,,,,,,,sngl,resources/DR.BMP,resources/Empty.png,Door3,-0.293518519,-0.041666667,1,0,0,0.8963,optionLeft,70,9925,5,4,0,4,0,1,,,,,,,,,,,,,,,,,,,,,,,,,,,,,,,,,,,,,,,
,,,,,,,644fe22915ee001d29a6b7be,2023-08-16_08h25.29.749,HF_wild_card,2022.2.4,Win32,60.10337781,644fe22915ee001d29a6b7be,64d2fd46c836a06233681665,64dc79ca7304b9d78df02f98,,,,,,,decisionTrl,resources/DR.BMP,resources/DY.BMP,Door3,-0.324074074,-0.061111111,1,0,0,1.4805,optionLeft,70,9995,5,5,0,5,0,1,,,,,,,,,,,,,,,,,,,,,,,,,,,,,,,,,,,,,,,
,,,,,,,644fe22915ee001d29a6b7be,2023-08-16_08h25.29.749,HF_wild_card,2022.2.4,Win32,60.10337781,644fe22915ee001d29a6b7be,64d2fd46c836a06233681665,64dc79ca7304b9d78df02f98,,,,,,,decisionTrl,resources/DBN.BMP,resources/DR.BMP,Door4,-0.377777778,-0.071296296,1,0,0,1.0927,optionLeft,80,10075,5,6,0,6,0,1,,,,,,,,,,,,,,,,,,,,,,,,,,,,,,,,,,,,,,,
,,,,,,,644fe22915ee001d29a6b7be,2023-08-16_08h25.29.749,HF_wild_card,2022.2.4,Win32,60.10337781,644fe22915ee001d29a6b7be,64d2fd46c836a06233681665,64dc79ca7304b9d78df02f98,,,,,,,decisionTrl,resources/DBN.BMP,resources/DY.BMP,Door4,-0.432407407,-0.073148148,1,0,0,0.9301,optionLeft,80,10155,5,7,0,7,0,1,,,,,,,,,,,,,,,,,,,,,,,,,,,,,,,,,,,,,,,
,,,,,,,644fe22915ee001d29a6b7be,2023-08-16_08h25.29.749,HF_wild_card,2022.2.4,Win32,60.10337781,644fe22915ee001d29a6b7be,64d2fd46c836a06233681665,64dc79ca7304b9d78df02f98,,,,,,,sngl,resources/DBN.BMP,resources/Empty.png,Door4,-0.316666667,-0.034259259,1,0,0,0.6918,optionLeft,80,10235,5,8,0,8,0,1,,,,,,,,,,,,,,,,,,,,,,,,,,,,,,,,,,,,,,,
,,,,,,,644fe22915ee001d29a6b7be,2023-08-16_08h25.29.749,HF_wild_card,2022.2.4,Win32,60.10337781,644fe22915ee001d29a6b7be,64d2fd46c836a06233681665,64dc79ca7304b9d78df02f98,,,,,,,sngl,resources/Empty.png,resources/DBN.BMP,Door4,0.399074074,0.003703704,1,0,0,0.7301,optionRight,60,10295,5,9,0,9,0,1,,,,,,,,,,,,,,,,,,,,,,,,,,,,,,,,,,,,,,,
,,,,,,,644fe22915ee001d29a6b7be,2023-08-16_08h25.29.749,HF_wild_card,2022.2.4,Win32,60.10337781,644fe22915ee001d29a6b7be,64d2fd46c836a06233681665,64dc79ca7304b9d78df02f98,,,,,,,decisionTrl,resources/DY.BMP,resources/DR.BMP,Door3,0.356481481,-0.035185185,1,0,0,1.9801,optionRight,70,10365,5,10,0,10,0,1,,,,,,,,,,,,,,,,,,,,,,,,,,,,,,,,,,,,,,,
,,,,,,,644fe22915ee001d29a6b7be,2023-08-16_08h25.29.749,HF_wild_card,2022.2.4,Win32,60.10337781,644fe22915ee001d29a6b7be,64d2fd46c836a06233681665,64dc79ca7304b9d78df02f98,,,,,,,decisionTrl,resources/DY.BMP,resources/DB.BMP,WildCard_Ex,-0.313888889,-0.096296296,1,0,0,1.2317,optionLeft,55,10420,5,11,0,11,0,1,,,,,,,,,,,,,,,,,,,,,,,,,,,,,,,,,,,,,,,
,,,,,,,644fe22915ee001d29a6b7be,2023-08-16_08h25.29.749,HF_wild_card,2022.2.4,Win32,60.10337781,644fe22915ee001d29a6b7be,64d2fd46c836a06233681665,64dc79ca7304b9d78df02f98,,,,,,,decisionTrl,resources/DY.BMP,resources/DG.BMP,WildCard_Ex,-0.350925926,-0.091666667,1,0,0,1.3276,optionLeft,45,10465,5,12,0,12,0,1,,,,,,,,,,,,,,,,,,,,,,,,,,,,,,,,,,,,,,,
,,,,,,,644fe22915ee001d29a6b7be,2023-08-16_08h25.29.749,HF_wild_card,2022.2.4,Win32,60.10337781,644fe22915ee001d29a6b7be,64d2fd46c836a06233681665,64dc79ca7304b9d78df02f98,,,,,,,ctch,resources/DB.BMP,resources/DR.BMP,Door3,0.391666667,-0.038888889,1,0,0,1.0605,optionRight,70,10535,5,13,0,13,0,1,,,,,,,,,,,,,,,,,,,,,,,,,,,,,,,,,,,,,,,
,,,,,,,644fe22915ee001d29a6b7be,2023-08-16_08h25.29.749,HF_wild_card,2022.2.4,Win32,60.10337781,644fe22915ee001d29a6b7be,64d2fd46c836a06233681665,64dc79ca7304b9d78df02f98,,,,,,,sngl,resources/DY.BMP,resources/Empty.png,WildCard_Ex,-0.232407407,-0.058333333,1,0,0,0.8626,optionLeft,45,10580,5,14,0,14,0,1,,,,,,,,,,,,,,,,,,,,,,,,,,,,,,,,,,,,,,,
,,,,,,,644fe22915ee001d29a6b7be,2023-08-16_08h25.29.749,HF_wild_card,2022.2.4,Win32,60.10337781,644fe22915ee001d29a6b7be,64d2fd46c836a06233681665,64dc79ca7304b9d78df02f98,,,,,,,decisionTrl,resources/DBN.BMP,resources/DR.BMP,Door3,0.261111111,0.016666667,1,0,0,2.7615,optionRight,70,10650,5,15,0,15,0,1,,,,,,,,,,,,,,,,,,,,,,,,,,,,,,,,,,,,,,,
,,,,,,,644fe22915ee001d29a6b7be,2023-08-16_08h25.29.749,HF_wild_card,2022.2.4,Win32,60.10337781,644fe22915ee001d29a6b7be,64d2fd46c836a06233681665,64dc79ca7304b9d78df02f98,,,,,,,decisionTrl,resources/DB.BMP,resources/DG.BMP,Door1,0.381481481,-0.006481481,1,0,0,1.5941,optionRight,30,10680,5,16,0,16,0,1,,,,,,,,,,,,,,,,,,,,,,,,,,,,,,,,,,,,,,,
,,,,,,,644fe22915ee001d29a6b7be,2023-08-16_08h25.29.749,HF_wild_card,2022.2.4,Win32,60.10337781,644fe22915ee001d29a6b7be,64d2fd46c836a06233681665,64dc79ca7304b9d78df02f98,,,,,,,sngl,resources/Empty.png,resources/DR.BMP,Door3,0.30462963,-0.005555556,1,0,0,1.1283,optionRight,70,10750,5,17,0,17,0,1,,,,,,,,,,,,,,,,,,,,,,,,,,,,,,,,,,,,,,,
,,,,,,,644fe22915ee001d29a6b7be,2023-08-16_08h25.29.749,HF_wild_card,2022.2.4,Win32,60.10337781,644fe22915ee001d29a6b7be,64d2fd46c836a06233681665,64dc79ca7304b9d78df02f98,,,,,,,decisionTrl,resources/DG.BMP,resources/DB.BMP,Door1,-0.448148148,-0.119444444,1,0,0,1.5275,optionLeft,30,10780,5,18,0,18,0,1,,,,,,,,,,,,,,,,,,,,,,,,,,,,,,,,,,,,,,,
,,,,,,,644fe22915ee001d29a6b7be,2023-08-16_08h25.29.749,HF_wild_card,2022.2.4,Win32,60.10337781,644fe22915ee001d29a6b7be,64d2fd46c836a06233681665,64dc79ca7304b9d78df02f98,,,,,,,decisionTrl,resources/DR.BMP,resources/DBN.BMP,Door4,0.281481481,-0.012962963,1,0,0,0.9108,optionRight,80,10860,5,19,0,19,0,1,,,,,,,,,,,,,,,,,,,,,,,,,,,,,,,,,,,,,,,
,,,,,,,644fe22915ee001d29a6b7be,2023-08-16_08h25.29.749,HF_wild_card,2022.2.4,Win32,60.10337781,644fe22915ee001d29a6b7be,64d2fd46c836a06233681665,64dc79ca7304b9d78df02f98,,,,,,,ctch,resources/DR.BMP,resources/DB.BMP,Door3,-0.34537037,-0.068518519,1,0,0,0.961,optionLeft,70,10930,5,20,0,20,0,1,,,,,,,,,,,,,,,,,,,,,,,,,,,,,,,,,,,,,,,
,,,,,,,644fe22915ee001d29a6b7be,2023-08-16_08h25.29.749,HF_wild_card,2022.2.4,Win32,60.10337781,644fe22915ee001d29a6b7be,64d2fd46c836a06233681665,64dc79ca7304b9d78df02f98,,,,,,,decisionTrl,resources/DR.BMP,resources/DBN.BMP,Door3,-0.326851852,-0.041666667,1,0,0,1.3452,optionLeft,70,11000,5,21,0,21,0,1,,,,,,,,,,,,,,,,,,,,,,,,,,,,,,,,,,,,,,,
,,,,,,,644fe22915ee001d29a6b7be,2023-08-16_08h25.29.749,HF_wild_card,2022.2.4,Win32,60.10337781,644fe22915ee001d29a6b7be,64d2fd46c836a06233681665,64dc79ca7304b9d78df02f98,,,,,,,sngl,resources/Empty.png,resources/DY.BMP,WildCard_Ex,0.293518519,-0.00462963,1,0,0,0.7291,optionRight,55,11055,5,22,0,22,0,1,,,,,,,,,,,,,,,,,,,,,,,,,,,,,,,,,,,,,,,
,,,,,,,644fe22915ee001d29a6b7be,2023-08-16_08h25.29.749,HF_wild_card,2022.2.4,Win32,60.10337781,644fe22915ee001d29a6b7be,64d2fd46c836a06233681665,64dc79ca7304b9d78df02f98,,,,,,,decisionTrl,resources/DG.BMP,resources/DY.BMP,WildCard_Ex,0.386111111,-0.062962963,1,0,0,1.061,optionRight,45,11100,5,23,0,23,0,1,,,,,,,,,,,,,,,,,,,,,,,,,,,,,,,,,,,,,,,
,,,,,,,644fe22915ee001d29a6b7be,2023-08-16_08h25.29.749,HF_wild_card,2022.2.4,Win32,60.10337781,644fe22915ee001d29a6b7be,64d2fd46c836a06233681665,64dc79ca7304b9d78df02f98,,,,,,,sngl,resources/Empty.png,resources/DB.BMP,Door2,0.337962963,-0.039814815,1,0,0,1.2617,optionRight,20,11120,5,24,0,24,0,1,,,,,,,,,,,,,,,,,,,,,,,,,,,,,,,,,,,,,,,
,,,,,,,644fe22915ee001d29a6b7be,2023-08-16_08h25.29.749,HF_wild_card,2022.2.4,Win32,60.10337781,644fe22915ee001d29a6b7be,64d2fd46c836a06233681665,64dc79ca7304b9d78df02f98,,,,,,,ctch,resources/DR.BMP,resources/DB.BMP,Door3,-0.35462963,-0.071296296,1,0,0,0.7602,optionLeft,70,11190,5,25,0,25,0,1,,,,,,,,,,,,,,,,,,,,,,,,,,,,,,,,,,,,,,,
,,,,,,,644fe22915ee001d29a6b7be,2023-08-16_08h25.29.749,HF_wild_card,2022.2.4,Win32,60.10337781,644fe22915ee001d29a6b7be,64d2fd46c836a06233681665,64dc79ca7304b9d78df02f98,,,,,,,decisionTrl,resources/DR.BMP,resources/DBN.BMP,Door3,-0.334259259,-0.07962963,1,0,0,1.6278,optionLeft,70,11260,5,26,0,26,0,1,,,,,,,,,,,,,,,,,,,,,,,,,,,,,,,,,,,,,,,
,,,,,,,644fe22915ee001d29a6b7be,2023-08-16_08h25.29.749,HF_wild_card,2022.2.4,Win32,60.10337781,644fe22915ee001d29a6b7be,64d2fd46c836a06233681665,64dc79ca7304b9d78df02f98,,,,,,,sngl,resources/DB.BMP,resources/Empty.png,Door2,-0.236111111,-0.062037037,1,0,0,0.8114,optionLeft,40,11300,5,27,0,27,0,1,,,,,,,,,,,,,,,,,,,,,,,,,,,,,,,,,,,,,,,
,,,,,,,644fe22915ee001d29a6b7be,2023-08-16_08h25.29.749,HF_wild_card,2022.2.4,Win32,60.10337781,644fe22915ee001d29a6b7be,64d2fd46c836a06233681665,64dc79ca7304b9d78df02f98,,,,,,,decisionTrl,resources/DG.BMP,resources/DB.BMP,Door1,-0.466666667,-0.087962963,1,0,0,0.9619,optionLeft,30,11330,5,28,0,28,0,1,,,,,,,,,,,,,,,,,,,,,,,,,,,,,,,,,,,,,,,
,,,,,,,644fe22915ee001d29a6b7be,2023-08-16_08h25.29.749,HF_wild_card,2022.2.4,Win32,60.10337781,644fe22915ee001d29a6b7be,64d2fd46c836a06233681665,64dc79ca7304b9d78df02f98,,,,,,,ctch,resources/DG.BMP,resources/DBN.BMP,Door4,0.390740741,-0.010185185,1,0,0,1.3444,optionRight,60,11390,5,29,0,29,0,1,,,,,,,,,,,,,,,,,,,,,,,,,,,,,,,,,,,,,,,
,,,,,,,644fe22915ee001d29a6b7be,2023-08-16_08h25.29.749,HF_wild_card,2022.2.4,Win32,60.10337781,644fe22915ee001d29a6b7be,64d2fd46c836a06233681665,64dc79ca7304b9d78df02f98,,,,,,,decisionTrl,resources/DG.BMP,resources/DB.BMP,Door1,-0.308333333,-0.075,1,0,0,0.9955,optionLeft,30,11420,5,30,0,30,0,1,,,,,,,,,,,,,,,,,,,,,,,,,,,,,,,,,,,,,,,
,,,,,,,644fe22915ee001d29a6b7be,2023-08-16_08h25.29.749,HF_wild_card,2022.2.4,Win32,60.10337781,644fe22915ee001d29a6b7be,64d2fd46c836a06233681665,64dc79ca7304b9d78df02f98,,,,,,,decisionTrl,resources/DY.BMP,resources/DBN.BMP,Door4,0.418518519,-0.003703704,1,0,0,1.4766,optionRight,60,11480,5,31,0,31,0,1,,,,,,,,,,,,,,,,,,,,,,,,,,,,,,,,,,,,,,,
,,,,,,,644fe22915ee001d29a6b7be,2023-08-16_08h25.29.749,HF_wild_card,2022.2.4,Win32,60.10337781,644fe22915ee001d29a6b7be,64d2fd46c836a06233681665,64dc79ca7304b9d78df02f98,,,,,,,sngl,resources/Empty.png,resources/DY.BMP,WildCard_Ex,0.233333333,-0.034259259,1,0,0,0.8595,optionRight,45,11525,5,32,0,32,0,1,,,,,,,,,,,,,,,,,,,,,,,,,,,,,,,,,,,,,,,
,,,,,,,644fe22915ee001d29a6b7be,2023-08-16_08h25.29.749,HF_wild_card,2022.2.4,Win32,60.10337781,644fe22915ee001d29a6b7be,64d2fd46c836a06233681665,64dc79ca7304b9d78df02f98,,,,,,,ctch,resources/DG.BMP,resources/DBN.BMP,Door4,0.388888889,-0.039814815,1,0,0,1.7945,optionRight,60,11585,5,33,0,33,0,1,,,,,,,,,,,,,,,,,,,,,,,,,,,,,,,,,,,,,,,
,,,,,,,644fe22915ee001d29a6b7be,2023-08-16_08h25.29.749,HF_wild_card,2022.2.4,Win32,60.10337781,644fe22915ee001d29a6b7be,64d2fd46c836a06233681665,64dc79ca7304b9d78df02f98,,,,,,,decisionTrl,resources/DB.BMP,resources/DG.BMP,Door2,-0.358333333,-0.087962963,1,0,0,3.6619,optionLeft,20,11605,5,34,0,34,0,1,,,,,,,,,,,,,,,,,,,,,,,,,,,,,,,,,,,,,,,
,,,,,,,644fe22915ee001d29a6b7be,2023-08-16_08h25.29.749,HF_wild_card,2022.2.4,Win32,60.10337781,644fe22915ee001d29a6b7be,64d2fd46c836a06233681665,64dc79ca7304b9d78df02f98,,,,,,,decisionTrl,resources/DBN.BMP,resources/DR.BMP,Door3,0.322222222,-0.048148148,1,0,0,0.9615,optionRight,70,11675,5,35,0,35,0,1,,,,,,,,,,,,,,,,,,,,,,,,,,,,,,,,,,,,,,,
,,,,,,,644fe22915ee001d29a6b7be,2023-08-16_08h25.29.749,HF_wild_card,2022.2.4,Win32,60.10337781,644fe22915ee001d29a6b7be,64d2fd46c836a06233681665,64dc79ca7304b9d78df02f98,,,,,,,sngl,resources/DG.BMP,resources/Empty.png,Door1,-0.260185185,-0.061111111,1,0,0,0.8281,optionLeft,30,11705,5,36,0,36,0,1,,,,,,,,,,,,,,,,,,,,,,,,,,,,,,,,,,,,,,,
,,,,,,,644fe22915ee001d29a6b7be,2023-08-16_08h25.29.749,HF_wild_card,2022.2.4,Win32,60.10337781,644fe22915ee001d29a6b7be,64d2fd46c836a06233681665,64dc79ca7304b9d78df02f98,,,,,,,decisionTrl,resources/DR.BMP,resources/DBN.BMP,Door4,0.324074074,-0.017592593,1,0,0,1.3447,optionRight,80,11785,5,37,0,37,0,1,,,,,,,,,,,,,,,,,,,,,,,,,,,,,,,,,,,,,,,
,,,,,,,644fe22915ee001d29a6b7be,2023-08-16_08h25.29.749,HF_wild_card,2022.2.4,Win32,60.10337781,644fe22915ee001d29a6b7be,64d2fd46c836a06233681665,64dc79ca7304b9d78df02f98,,,,,,,ctch,resources/DBN.BMP,resources/DG.BMP,Door4,-0.284259259,-0.07037037,1,0,0,1.1447,optionLeft,60,11845,5,38,0,38,0,1,,,,,,,,,,,,,,,,,,,,,,,,,,,,,,,,,,,,,,,
,,,,,,,644fe22915ee001d29a6b7be,2023-08-16_08h25.29.749,HF_wild_card,2022.2.4,Win32,60.10337781,644fe22915ee001d29a6b7be,64d2fd46c836a06233681665,64dc79ca7304b9d78df02f98,,,,,,,sngl,resources/Empty.png,resources/DG.BMP,Door1,0.343518519,-0.02037037,1,0,0,0.8287,optionRight,30,11875,5,39,0,39,0,1,,,,,,,,,,,,,,,,,,,,,,,,,,,,,,,,,,,,,,,
,,,,,,,644fe22915ee001d29a6b7be,2023-08-16_08h25.29.749,HF_wild_card,2022.2.4,Win32,60.10337781,644fe22915ee001d29a6b7be,64d2fd46c836a06233681665,64dc79ca7304b9d78df02f98,,,,,,,decisionTrl,resources/DB.BMP,resources/DY.BMP,WildCard_Ex,0.276851852,-0.087037037,1,0,0,1.6116,optionRight,55,11930,5,40,0,40,0,1,,,,,,,,,,,,,,,,,,,,,,,,,,,,,,,,,,,,,,,
,,,,,,,644fe22915ee001d29a6b7be,2023-08-16_08h25.29.749,HF_wild_card,2022.2.4,Win32,60.10337781,644fe22915ee001d29a6b7be,64d2fd46c836a06233681665,64dc79ca7304b9d78df02f98,,,,,,,decisionTrl,resources/DB.BMP,resources/DG.BMP,Door1,0.284259259,-0.023148148,1,0,0,1.1784,optionRight,30,11960,5,41,0,41,0,1,,,,,,,,,,,,,,,,,,,,,,,,,,,,,,,,,,,,,,,
,,,,,,,644fe22915ee001d29a6b7be,2023-08-16_08h25.29.749,HF_wild_card,2022.2.4,Win32,60.10337781,644fe22915ee001d29a6b7be,64d2fd46c836a06233681665,64dc79ca7304b9d78df02f98,,,,,,,decisionTrl,resources/DB.BMP,resources/DG.BMP,Door1,0.362962963,-0.016666667,1,0,0,0.8117,optionRight,30,11990,5,42,0,42,0,1,,,,,,,,,,,,,,,,,,,,,,,,,,,,,,,,,,,,,,,
,,,,,,,644fe22915ee001d29a6b7be,2023-08-16_08h25.29.749,HF_wild_card,2022.2.4,Win32,60.10337781,644fe22915ee001d29a6b7be,64d2fd46c836a06233681665,64dc79ca7304b9d78df02f98,,,,,,,sngl,resources/DY.BMP,resources/Empty.png,WildCard_Ex,-0.394444444,-0.082407407,1,0,0,0.6951,optionLeft,55,12045,5,43,0,43,0,1,,,,,,,,,,,,,,,,,,,,,,,,,,,,,,,,,,,,,,,
,,,,,,,644fe22915ee001d29a6b7be,2023-08-16_08h25.29.749,HF_wild_card,2022.2.4,Win32,60.10337781,644fe22915ee001d29a6b7be,64d2fd46c836a06233681665,64dc79ca7304b9d78df02f98,,,,,,,,,,,,,,,,,,,,,,,,,,4,0,4,0,1,,,,,,,,,,,,,,,,,,,,,,,,,,,,,,,,,,
,,,,,,,644fe22915ee001d29a6b7be,2023-08-16_08h25.29.749,HF_wild_card,2022.2.4,Win32,60.10337781,644fe22915ee001d29a6b7be,64d2fd46c836a06233681665,64dc79ca7304b9d78df02f98,,,,,,,decisionTrl,resources/DBN.BMP,resources/DR.BMP,Door3,0.356481481,-0.162962963,1,0,0,2.8174,optionRight,70,12115,6,0,0,0,0,1,,,,,,,,,,,,,,,,,,,,,,,,,,,,,,,,,,,,,,,
,,,,,,,644fe22915ee001d29a6b7be,2023-08-16_08h25.29.749,HF_wild_card,2022.2.4,Win32,60.10337781,644fe22915ee001d29a6b7be,64d2fd46c836a06233681665,64dc79ca7304b9d78df02f98,,,,,,,sngl,resources/Empty.png,resources/DG.BMP,Door1,0.259259259,-0.059259259,1,0,0,1.0806,optionRight,30,12145,6,1,0,1,0,1,,,,,,,,,,,,,,,,,,,,,,,,,,,,,,,,,,,,,,,
,,,,,,,644fe22915ee001d29a6b7be,2023-08-16_08h25.29.749,HF_wild_card,2022.2.4,Win32,60.10337781,644fe22915ee001d29a6b7be,64d2fd46c836a06233681665,64dc79ca7304b9d78df02f98,,,,,,,decisionTrl,resources/DB.BMP,resources/DY.BMP,WildCard_Ex,0.276851852,-0.051851852,1,0,0,1.5948,optionRight,45,12190,6,2,0,2,0,1,,,,,,,,,,,,,,,,,,,,,,,,,,,,,,,,,,,,,,,
,,,,,,,644fe22915ee001d29a6b7be,2023-08-16_08h25.29.749,HF_wild_card,2022.2.4,Win32,60.10337781,644fe22915ee001d29a6b7be,64d2fd46c836a06233681665,64dc79ca7304b9d78df02f98,,,,,,,decisionTrl,resources/DG.BMP,resources/DY.BMP,WildCard_Ex,0.34537037,0.000925926,1,0,0,1.1438,optionRight,45,12235,6,3,0,3,0,1,,,,,,,,,,,,,,,,,,,,,,,,,,,,,,,,,,,,,,,
,,,,,,,644fe22915ee001d29a6b7be,2023-08-16_08h25.29.749,HF_wild_card,2022.2.4,Win32,60.10337781,644fe22915ee001d29a6b7be,64d2fd46c836a06233681665,64dc79ca7304b9d78df02f98,,,,,,,sngl,resources/Empty.png,resources/DBN.BMP,Door4,0.301851852,-0.009259259,1,0,0,0.778,optionRight,80,12315,6,4,0,4,0,1,,,,,,,,,,,,,,,,,,,,,,,,,,,,,,,,,,,,,,,
,,,,,,,644fe22915ee001d29a6b7be,2023-08-16_08h25.29.749,HF_wild_card,2022.2.4,Win32,60.10337781,644fe22915ee001d29a6b7be,64d2fd46c836a06233681665,64dc79ca7304b9d78df02f98,,,,,,,decisionTrl,resources/DY.BMP,resources/DB.BMP,WildCard_Ex,-0.419444444,-0.089814815,1,0,0,1.1789,optionLeft,45,12360,6,5,0,5,0,1,,,,,,,,,,,,,,,,,,,,,,,,,,,,,,,,,,,,,,,
,,,,,,,644fe22915ee001d29a6b7be,2023-08-16_08h25.29.749,HF_wild_card,2022.2.4,Win32,60.10337781,644fe22915ee001d29a6b7be,64d2fd46c836a06233681665,64dc79ca7304b9d78df02f98,,,,,,,decisionTrl,resources/DG.BMP,resources/DB.BMP,Door1,-0.341666667,-0.07962963,1,0,0,0.8249,optionLeft,30,12390,6,6,0,6,0,1,,,,,,,,,,,,,,,,,,,,,,,,,,,,,,,,,,,,,,,
,,,,,,,644fe22915ee001d29a6b7be,2023-08-16_08h25.29.749,HF_wild_card,2022.2.4,Win32,60.10337781,644fe22915ee001d29a6b7be,64d2fd46c836a06233681665,64dc79ca7304b9d78df02f98,,,,,,,sngl,resources/DY.BMP,resources/Empty.png,WildCard_Ex,-0.324074074,-0.057407407,1,0,0,0.6439,optionLeft,45,12435,6,7,0,7,0,1,,,,,,,,,,,,,,,,,,,,,,,,,,,,,,,,,,,,,,,
,,,,,,,644fe22915ee001d29a6b7be,2023-08-16_08h25.29.749,HF_wild_card,2022.2.4,Win32,60.10337781,644fe22915ee001d29a6b7be,64d2fd46c836a06233681665,64dc79ca7304b9d78df02f98,,,,,,,decisionTrl,resources/DG.BMP,resources/DB.BMP,Door1,-0.338888889,-0.063888889,1,0,0,1.0296,optionLeft,30,12465,6,8,0,8,0,1,,,,,,,,,,,,,,,,,,,,,,,,,,,,,,,,,,,,,,,
,,,,,,,644fe22915ee001d29a6b7be,2023-08-16_08h25.29.749,HF_wild_card,2022.2.4,Win32,60.10337781,644fe22915ee001d29a6b7be,64d2fd46c836a06233681665,64dc79ca7304b9d78df02f98,,,,,,,sngl,resources/DR.BMP,resources/Empty.png,Door3,-0.321296296,-0.058333333,1,0,0,0.6312,optionLeft,70,12535,6,9,0,9,0,1,,,,,,,,,,,,,,,,,,,,,,,,,,,,,,,,,,,,,,,
,,,,,,,644fe22915ee001d29a6b7be,2023-08-16_08h25.29.749,HF_wild_card,2022.2.4,Win32,60.10337781,644fe22915ee001d29a6b7be,64d2fd46c836a06233681665,64dc79ca7304b9d78df02f98,,,,,,,decisionTrl,resources/DR.BMP,resources/DBN.BMP,Door3,-0.323148148,-0.051851852,1,0,0,1.2827,optionLeft,70,12605,6,10,0,10,0,1,,,,,,,,,,,,,,,,,,,,,,,,,,,,,,,,,,,,,,,
,,,,,,,644fe22915ee001d29a6b7be,2023-08-16_08h25.29.749,HF_wild_card,2022.2.4,Win32,60.10337781,644fe22915ee001d29a6b7be,64d2fd46c836a06233681665,64dc79ca7304b9d78df02f98,,,,,,,decisionTrl,resources/DBN.BMP,resources/DY.BMP,Door4,-0.335185185,-0.068518519,1,0,0,1.0967,optionLeft,80,12685,6,11,0,11,0,1,,,,,,,,,,,,,,,,,,,,,,,,,,,,,,,,,,,,,,,
,,,,,,,644fe22915ee001d29a6b7be,2023-08-16_08h25.29.749,HF_wild_card,2022.2.4,Win32,60.10337781,644fe22915ee001d29a6b7be,64d2fd46c836a06233681665,64dc79ca7304b9d78df02f98,,,,,,,decisionTrl,resources/DR.BMP,resources/DBN.BMP,Door4,0.307407407,-0.012037037,1,0,0,1.0349,optionRight,60,12745,6,12,0,12,0,1,,,,,,,,,,,,,,,,,,,,,,,,,,,,,,,,,,,,,,,
,,,,,,,644fe22915ee001d29a6b7be,2023-08-16_08h25.29.749,HF_wild_card,2022.2.4,Win32,60.10337781,644fe22915ee001d29a6b7be,64d2fd46c836a06233681665,64dc79ca7304b9d78df02f98,,,,,,,sngl,resources/Empty.png,resources/DY.BMP,WildCard_Ex,0.316666667,0.016666667,1,0,0,0.9334,optionRight,55,12800,6,13,0,13,0,1,,,,,,,,,,,,,,,,,,,,,,,,,,,,,,,,,,,,,,,
,,,,,,,644fe22915ee001d29a6b7be,2023-08-16_08h25.29.749,HF_wild_card,2022.2.4,Win32,60.10337781,644fe22915ee001d29a6b7be,64d2fd46c836a06233681665,64dc79ca7304b9d78df02f98,,,,,,,sngl,resources/Empty.png,resources/DY.BMP,WildCard_Ex,0.272222222,-0.026851852,1,0,0,0.7966,optionRight,45,12845,6,14,0,14,0,1,,,,,,,,,,,,,,,,,,,,,,,,,,,,,,,,,,,,,,,
,,,,,,,644fe22915ee001d29a6b7be,2023-08-16_08h25.29.749,HF_wild_card,2022.2.4,Win32,60.10337781,644fe22915ee001d29a6b7be,64d2fd46c836a06233681665,64dc79ca7304b9d78df02f98,,,,,,,decisionTrl,resources/DY.BMP,resources/DBN.BMP,Door4,0.333333333,0.00462963,1,0,0,1.0844,optionRight,80,12925,6,15,0,15,0,1,,,,,,,,,,,,,,,,,,,,,,,,,,,,,,,,,,,,,,,
,,,,,,,644fe22915ee001d29a6b7be,2023-08-16_08h25.29.749,HF_wild_card,2022.2.4,Win32,60.10337781,644fe22915ee001d29a6b7be,64d2fd46c836a06233681665,64dc79ca7304b9d78df02f98,,,,,,,sngl,resources/DY.BMP,resources/Empty.png,WildCard_Ex,-0.319444444,-0.065740741,1,0,0,0.7183,optionLeft,55,12980,6,16,0,16,0,1,,,,,,,,,,,,,,,,,,,,,,,,,,,,,,,,,,,,,,,
,,,,,,,644fe22915ee001d29a6b7be,2023-08-16_08h25.29.749,HF_wild_card,2022.2.4,Win32,60.10337781,644fe22915ee001d29a6b7be,64d2fd46c836a06233681665,64dc79ca7304b9d78df02f98,,,,,,,ctch,resources/DBN.BMP,resources/DG.BMP,Door4,-0.298148148,-0.062037037,1,0,0,1.1678,optionLeft,60,13040,6,17,0,17,0,1,,,,,,,,,,,,,,,,,,,,,,,,,,,,,,,,,,,,,,,
,,,,,,,644fe22915ee001d29a6b7be,2023-08-16_08h25.29.749,HF_wild_card,2022.2.4,Win32,60.10337781,644fe22915ee001d29a6b7be,64d2fd46c836a06233681665,64dc79ca7304b9d78df02f98,,,,,,,decisionTrl,resources/DR.BMP,resources/DBN.BMP,Door3,-0.362037037,-0.097222222,1,0,0,1.7451,optionLeft,70,13110,6,18,0,18,0,1,,,,,,,,,,,,,,,,,,,,,,,,,,,,,,,,,,,,,,,
,,,,,,,644fe22915ee001d29a6b7be,2023-08-16_08h25.29.749,HF_wild_card,2022.2.4,Win32,60.10337781,644fe22915ee001d29a6b7be,64d2fd46c836a06233681665,64dc79ca7304b9d78df02f98,,,,,,,decisionTrl,resources/DY.BMP,resources/DR.BMP,Door3,0.366666667,-0.015740741,1,0,0,0.9336,optionRight,70,13180,6,19,0,19,0,1,,,,,,,,,,,,,,,,,,,,,,,,,,,,,,,,,,,,,,,
,,,,,,,644fe22915ee001d29a6b7be,2023-08-16_08h25.29.749,HF_wild_card,2022.2.4,Win32,60.10337781,644fe22915ee001d29a6b7be,64d2fd46c836a06233681665,64dc79ca7304b9d78df02f98,,,,,,,ctch,resources/DG.BMP,resources/DBN.BMP,Door4,0.301851852,-0.032407407,1,0,0,1.7155,optionRight,60,13240,6,20,0,20,0,1,,,,,,,,,,,,,,,,,,,,,,,,,,,,,,,,,,,,,,,
,,,,,,,644fe22915ee001d29a6b7be,2023-08-16_08h25.29.749,HF_wild_card,2022.2.4,Win32,60.10337781,644fe22915ee001d29a6b7be,64d2fd46c836a06233681665,64dc79ca7304b9d78df02f98,,,,,,,ctch,resources/DR.BMP,resources/DB.BMP,Door3,-0.302777778,-0.062037037,1,0,0,1.3377,optionLeft,70,13310,6,21,0,21,0,1,,,,,,,,,,,,,,,,,,,,,,,,,,,,,,,,,,,,,,,
,,,,,,,644fe22915ee001d29a6b7be,2023-08-16_08h25.29.749,HF_wild_card,2022.2.4,Win32,60.10337781,644fe22915ee001d29a6b7be,64d2fd46c836a06233681665,64dc79ca7304b9d78df02f98,,,,,,,decisionTrl,resources/DG.BMP,resources/DB.BMP,Door1,-0.375925926,-0.07962963,1,0,0,1.0774,optionLeft,30,13340,6,22,0,22,0,1,,,,,,,,,,,,,,,,,,,,,,,,,,,,,,,,,,,,,,,
,,,,,,,644fe22915ee001d29a6b7be,2023-08-16_08h25.29.749,HF_wild_card,2022.2.4,Win32,60.10337781,644fe22915ee001d29a6b7be,64d2fd46c836a06233681665,64dc79ca7304b9d78df02f98,,,,,,,ctch,resources/DBN.BMP,resources/DG.BMP,Door4,-0.315740741,-0.086111111,1,0,0,1.0967,optionLeft,80,13420,6,23,0,23,0,1,,,,,,,,,,,,,,,,,,,,,,,,,,,,,,,,,,,,,,,
,,,,,,,644fe22915ee001d29a6b7be,2023-08-16_08h25.29.749,HF_wild_card,2022.2.4,Win32,60.10337781,644fe22915ee001d29a6b7be,64d2fd46c836a06233681665,64dc79ca7304b9d78df02f98,,,,,,,ctch,resources/DG.BMP,resources/DBN.BMP,Door4,0.357407407,-0.010185185,1,0,0,1.2996,optionRight,80,13500,6,24,0,24,0,1,,,,,,,,,,,,,,,,,,,,,,,,,,,,,,,,,,,,,,,
,,,,,,,644fe22915ee001d29a6b7be,2023-08-16_08h25.29.749,HF_wild_card,2022.2.4,Win32,60.10337781,644fe22915ee001d29a6b7be,64d2fd46c836a06233681665,64dc79ca7304b9d78df02f98,,,,,,,decisionTrl,resources/DBN.BMP,resources/DR.BMP,Door4,-0.350925926,-0.085185185,1,0,0,2.4135,optionLeft,80,13580,6,25,0,25,0,1,,,,,,,,,,,,,,,,,,,,,,,,,,,,,,,,,,,,,,,
,,,,,,,644fe22915ee001d29a6b7be,2023-08-16_08h25.29.749,HF_wild_card,2022.2.4,Win32,60.10337781,644fe22915ee001d29a6b7be,64d2fd46c836a06233681665,64dc79ca7304b9d78df02f98,,,,,,,decisionTrl,resources/DB.BMP,resources/DG.BMP,Door1,0.32962963,-0.057407407,1,0,0,1.4152,optionRight,30,13610,6,26,0,26,0,1,,,,,,,,,,,,,,,,,,,,,,,,,,,,,,,,,,,,,,,
,,,,,,,644fe22915ee001d29a6b7be,2023-08-16_08h25.29.749,HF_wild_card,2022.2.4,Win32,60.10337781,644fe22915ee001d29a6b7be,64d2fd46c836a06233681665,64dc79ca7304b9d78df02f98,,,,,,,sngl,resources/Empty.png,resources/DR.BMP,Door3,0.27962963,-0.033333333,1,0,0,0.7457,optionRight,70,13680,6,27,0,27,0,1,,,,,,,,,,,,,,,,,,,,,,,,,,,,,,,,,,,,,,,
,,,,,,,644fe22915ee001d29a6b7be,2023-08-16_08h25.29.749,HF_wild_card,2022.2.4,Win32,60.10337781,644fe22915ee001d29a6b7be,64d2fd46c836a06233681665,64dc79ca7304b9d78df02f98,,,,,,,decisionTrl,resources/DBN.BMP,resources/DR.BMP,Door4,-0.27962963,-0.096296296,1,0,0,1.2352,optionLeft,80,13760,6,28,0,28,0,1,,,,,,,,,,,,,,,,,,,,,,,,,,,,,,,,,,,,,,,
,,,,,,,644fe22915ee001d29a6b7be,2023-08-16_08h25.29.749,HF_wild_card,2022.2.4,Win32,60.10337781,644fe22915ee001d29a6b7be,64d2fd46c836a06233681665,64dc79ca7304b9d78df02f98,,,,,,,sngl,resources/DG.BMP,resources/Empty.png,Door1,-0.467592593,-0.155555556,1,0,0,0.7646,optionLeft,30,13790,6,29,0,29,0,1,,,,,,,,,,,,,,,,,,,,,,,,,,,,,,,,,,,,,,,
,,,,,,,644fe22915ee001d29a6b7be,2023-08-16_08h25.29.749,HF_wild_card,2022.2.4,Win32,60.10337781,644fe22915ee001d29a6b7be,64d2fd46c836a06233681665,64dc79ca7304b9d78df02f98,,,,,,,sngl,resources/DBN.BMP,resources/Empty.png,Door4,-0.261111111,-0.080555556,1,0,0,0.6633,optionLeft,60,13850,6,30,0,30,0,1,,,,,,,,,,,,,,,,,,,,,,,,,,,,,,,,,,,,,,,
,,,,,,,644fe22915ee001d29a6b7be,2023-08-16_08h25.29.749,HF_wild_card,2022.2.4,Win32,60.10337781,644fe22915ee001d29a6b7be,64d2fd46c836a06233681665,64dc79ca7304b9d78df02f98,,,,,,,decisionTrl,resources/DR.BMP,resources/DY.BMP,Door3,-0.344444444,-0.12037037,1,0,0,1.4983,optionLeft,70,13920,6,31,0,31,0,1,,,,,,,,,,,,,,,,,,,,,,,,,,,,,,,,,,,,,,,
,,,,,,,644fe22915ee001d29a6b7be,2023-08-16_08h25.29.749,HF_wild_card,2022.2.4,Win32,60.10337781,644fe22915ee001d29a6b7be,64d2fd46c836a06233681665,64dc79ca7304b9d78df02f98,,,,,,,decisionTrl,resources/DB.BMP,resources/DG.BMP,Door1,0.328703704,-0.012962963,1,0,0,1.0647,optionRight,30,13950,6,32,0,32,0,1,,,,,,,,,,,,,,,,,,,,,,,,,,,,,,,,,,,,,,,
,,,,,,,644fe22915ee001d29a6b7be,2023-08-16_08h25.29.749,HF_wild_card,2022.2.4,Win32,60.10337781,644fe22915ee001d29a6b7be,64d2fd46c836a06233681665,64dc79ca7304b9d78df02f98,,,,,,,ctch,resources/DB.BMP,resources/DR.BMP,Door3,0.32962963,-0.052777778,1,0,0,1.2134,optionRight,70,14020,6,33,0,33,0,1,,,,,,,,,,,,,,,,,,,,,,,,,,,,,,,,,,,,,,,
,,,,,,,644fe22915ee001d29a6b7be,2023-08-16_08h25.29.749,HF_wild_card,2022.2.4,Win32,60.10337781,644fe22915ee001d29a6b7be,64d2fd46c836a06233681665,64dc79ca7304b9d78df02f98,,,,,,,decisionTrl,resources/DG.BMP,resources/DB.BMP,Door1,-0.305555556,-0.07037037,1,0,0,1.1475,optionLeft,30,14050,6,34,0,34,0,1,,,,,,,,,,,,,,,,,,,,,,,,,,,,,,,,,,,,,,,
,,,,,,,644fe22915ee001d29a6b7be,2023-08-16_08h25.29.749,HF_wild_card,2022.2.4,Win32,60.10337781,644fe22915ee001d29a6b7be,64d2fd46c836a06233681665,64dc79ca7304b9d78df02f98,,,,,,,decisionTrl,resources/DB.BMP,resources/DG.BMP,Door1,0.401851852,-0.025925926,1,0,0,1.0966,optionRight,30,14080,6,35,0,35,0,1,,,,,,,,,,,,,,,,,,,,,,,,,,,,,,,,,,,,,,,
,,,,,,,644fe22915ee001d29a6b7be,2023-08-16_08h25.29.749,HF_wild_card,2022.2.4,Win32,60.10337781,644fe22915ee001d29a6b7be,64d2fd46c836a06233681665,64dc79ca7304b9d78df02f98,,,,,,,decisionTrl,resources/DBN.BMP,resources/DR.BMP,Door4,-0.299074074,-0.074074074,1,0,0,1.18,optionLeft,80,14160,6,36,0,36,0,1,,,,,,,,,,,,,,,,,,,,,,,,,,,,,,,,,,,,,,,
,,,,,,,644fe22915ee001d29a6b7be,2023-08-16_08h25.29.749,HF_wild_card,2022.2.4,Win32,60.10337781,644fe22915ee001d29a6b7be,64d2fd46c836a06233681665,64dc79ca7304b9d78df02f98,,,,,,,sngl,resources/DB.BMP,resources/Empty.png,Door2,-0.303703704,-0.069444444,1,0,0,0.8133,optionLeft,20,14180,6,37,0,37,0,1,,,,,,,,,,,,,,,,,,,,,,,,,,,,,,,,,,,,,,,
,,,,,,,644fe22915ee001d29a6b7be,2023-08-16_08h25.29.749,HF_wild_card,2022.2.4,Win32,60.10337781,644fe22915ee001d29a6b7be,64d2fd46c836a06233681665,64dc79ca7304b9d78df02f98,,,,,,,decisionTrl,resources/DB.BMP,resources/DG.BMP,Door1,0.338888889,-0.030555556,1,0,0,0.7801,optionRight,30,14210,6,38,0,38,0,1,,,,,,,,,,,,,,,,,,,,,,,,,,,,,,,,,,,,,,,
,,,,,,,644fe22915ee001d29a6b7be,2023-08-16_08h25.29.749,HF_wild_card,2022.2.4,Win32,60.10337781,644fe22915ee001d29a6b7be,64d2fd46c836a06233681665,64dc79ca7304b9d78df02f98,,,,,,,decisionTrl,resources/DR.BMP,resources/DBN.BMP,Door4,0.30462963,-0.046296296,1,0,0,1.0131,optionRight,80,14290,6,39,0,39,0,1,,,,,,,,,,,,,,,,,,,,,,,,,,,,,,,,,,,,,,,
,,,,,,,644fe22915ee001d29a6b7be,2023-08-16_08h25.29.749,HF_wild_card,2022.2.4,Win32,60.10337781,644fe22915ee001d29a6b7be,64d2fd46c836a06233681665,64dc79ca7304b9d78df02f98,,,,,,,decisionTrl,resources/DY.BMP,resources/DG.BMP,WildCard_Ex,-0.202777778,-0.071296296,1,0,0,1.163,optionLeft,45,14335,6,40,0,40,0,1,,,,,,,,,,,,,,,,,,,,,,,,,,,,,,,,,,,,,,,
,,,,,,,644fe22915ee001d29a6b7be,2023-08-16_08h25.29.749,HF_wild_card,2022.2.4,Win32,60.10337781,644fe22915ee001d29a6b7be,64d2fd46c836a06233681665,64dc79ca7304b9d78df02f98,,,,,,,sngl,resources/Empty.png,resources/DB.BMP,Door2,0.275925926,-0.10462963,1,0,0,1.4132,optionRight,40,14375,6,41,0,41,0,1,,,,,,,,,,,,,,,,,,,,,,,,,,,,,,,,,,,,,,,
,,,,,,,644fe22915ee001d29a6b7be,2023-08-16_08h25.29.749,HF_wild_card,2022.2.4,Win32,60.10337781,644fe22915ee001d29a6b7be,64d2fd46c836a06233681665,64dc79ca7304b9d78df02f98,,,,,,,ctch,resources/DR.BMP,resources/DB.BMP,Door3,-0.351851852,-0.12037037,1,0,0,0.913,optionLeft,70,14445,6,42,0,42,0,1,,,,,,,,,,,,,,,,,,,,,,,,,,,,,,,,,,,,,,,
,,,,,,,644fe22915ee001d29a6b7be,2023-08-16_08h25.29.749,HF_wild_card,2022.2.4,Win32,60.10337781,644fe22915ee001d29a6b7be,64d2fd46c836a06233681665,64dc79ca7304b9d78df02f98,,,,,,,ctch,resources/DB.BMP,resources/DR.BMP,Door3,0.373148148,-0.040740741,1,0,0,0.8467,optionRight,70,14515,6,43,0,43,0,1,,,,,,,,,,,,,,,,,,,,,,,,,,,,,,,,,,,,,,,
,,,,,,,644fe22915ee001d29a6b7be,2023-08-16_08h25.29.749,HF_wild_card,2022.2.4,Win32,60.10337781,644fe22915ee001d29a6b7be,64d2fd46c836a06233681665,64dc79ca7304b9d78df02f98,,,,,,,,,,,,,,,,,,,,,,,,,,5,0,5,0,1,,,,,,,,,,,,,,,,,,,,,,,,,,,,,,,,,,
,,,,,,,644fe22915ee001d29a6b7be,2023-08-16_08h25.29.749,HF_wild_card,2022.2.4,Win32,60.10337781,644fe22915ee001d29a6b7be,64d2fd46c836a06233681665,64dc79ca7304b9d78df02f98,,,,,,,ctch,resources/DBN.BMP,resources/DG.BMP,Door4,-0.444444444,-0.044444444,1,0,0,1.1359,optionLeft,60,14575,7,0,0,0,0,1,,,,,,,,,,,,,,,,,,,,,,,,,,,,,,,,,,,,,,,
,,,,,,,644fe22915ee001d29a6b7be,2023-08-16_08h25.29.749,HF_wild_card,2022.2.4,Win32,60.10337781,644fe22915ee001d29a6b7be,64d2fd46c836a06233681665,64dc79ca7304b9d78df02f98,,,,,,,ctch,resources/DG.BMP,resources/DBN.BMP,Door4,0.319444444,-0.024074074,1,0,0,1.1619,optionRight,80,14655,7,1,0,1,0,1,,,,,,,,,,,,,,,,,,,,,,,,,,,,,,,,,,,,,,,
,,,,,,,644fe22915ee001d29a6b7be,2023-08-16_08h25.29.749,HF_wild_card,2022.2.4,Win32,60.10337781,644fe22915ee001d29a6b7be,64d2fd46c836a06233681665,64dc79ca7304b9d78df02f98,,,,,,,decisionTrl,resources/DBN.BMP,resources/DR.BMP,Door3,0.314814815,-0.075,1,0,0,1.2315,optionRight,70,14725,7,2,0,2,0,1,,,,,,,,,,,,,,,,,,,,,,,,,,,,,,,,,,,,,,,
,,,,,,,644fe22915ee001d29a6b7be,2023-08-16_08h25.29.749,HF_wild_card,2022.2.4,Win32,60.10337781,644fe22915ee001d29a6b7be,64d2fd46c836a06233681665,64dc79ca7304b9d78df02f98,,,,,,,ctch,resources/DB.BMP,resources/DR.BMP,Door3,0.249074074,-0.053703704,1,0,0,1.0689,optionRight,70,14795,7,3,0,3,0,1,,,,,,,,,,,,,,,,,,,,,,,,,,,,,,,,,,,,,,,
,,,,,,,644fe22915ee001d29a6b7be,2023-08-16_08h25.29.749,HF_wild_card,2022.2.4,Win32,60.10337781,644fe22915ee001d29a6b7be,64d2fd46c836a06233681665,64dc79ca7304b9d78df02f98,,,,,,,decisionTrl,resources/DG.BMP,resources/DB.BMP,Door1,-0.299074074,-0.062962963,1,0,0,1.0632,optionLeft,30,14825,7,4,0,4,0,1,,,,,,,,,,,,,,,,,,,,,,,,,,,,,,,,,,,,,,,
,,,,,,,644fe22915ee001d29a6b7be,2023-08-16_08h25.29.749,HF_wild_card,2022.2.4,Win32,60.10337781,644fe22915ee001d29a6b7be,64d2fd46c836a06233681665,64dc79ca7304b9d78df02f98,,,,,,,ctch,resources/DG.BMP,resources/DBN.BMP,Door4,0.382407407,-0.044444444,1,0,0,0.9743,optionRight,60,14885,7,5,0,5,0,1,,,,,,,,,,,,,,,,,,,,,,,,,,,,,,,,,,,,,,,
,,,,,,,644fe22915ee001d29a6b7be,2023-08-16_08h25.29.749,HF_wild_card,2022.2.4,Win32,60.10337781,644fe22915ee001d29a6b7be,64d2fd46c836a06233681665,64dc79ca7304b9d78df02f98,,,,,,,decisionTrl,resources/DB.BMP,resources/DG.BMP,Door1,0.262037037,-0.047222222,1,0,0,1.0729,optionRight,30,14915,7,6,0,6,0,1,,,,,,,,,,,,,,,,,,,,,,,,,,,,,,,,,,,,,,,
,,,,,,,644fe22915ee001d29a6b7be,2023-08-16_08h25.29.749,HF_wild_card,2022.2.4,Win32,60.10337781,644fe22915ee001d29a6b7be,64d2fd46c836a06233681665,64dc79ca7304b9d78df02f98,,,,,,,decisionTrl,resources/DBN.BMP,resources/DR.BMP,Door4,-0.378703704,-0.089814815,1,0,0,1.0815,optionLeft,80,14995,7,7,0,7,0,1,,,,,,,,,,,,,,,,,,,,,,,,,,,,,,,,,,,,,,,
,,,,,,,644fe22915ee001d29a6b7be,2023-08-16_08h25.29.749,HF_wild_card,2022.2.4,Win32,60.10337781,644fe22915ee001d29a6b7be,64d2fd46c836a06233681665,64dc79ca7304b9d78df02f98,,,,,,,decisionTrl,resources/DG.BMP,resources/DB.BMP,Door1,-0.302777778,-0.085185185,1,0,0,0.9318,optionLeft,30,15025,7,8,0,8,0,1,,,,,,,,,,,,,,,,,,,,,,,,,,,,,,,,,,,,,,,
,,,,,,,644fe22915ee001d29a6b7be,2023-08-16_08h25.29.749,HF_wild_card,2022.2.4,Win32,60.10337781,644fe22915ee001d29a6b7be,64d2fd46c836a06233681665,64dc79ca7304b9d78df02f98,,,,,,,decisionTrl,resources/DB.BMP,resources/DG.BMP,Door1,0.306481481,-0.033333333,1,0,0,1.1159,optionRight,30,15055,7,9,0,9,0,1,,,,,,,,,,,,,,,,,,,,,,,,,,,,,,,,,,,,,,,
,,,,,,,644fe22915ee001d29a6b7be,2023-08-16_08h25.29.749,HF_wild_card,2022.2.4,Win32,60.10337781,644fe22915ee001d29a6b7be,64d2fd46c836a06233681665,64dc79ca7304b9d78df02f98,,,,,,,decisionTrl,resources/DG.BMP,resources/DB.BMP,Door1,-0.35,-0.102777778,1,0,0,1.0997,optionLeft,30,15085,7,10,0,10,0,1,,,,,,,,,,,,,,,,,,,,,,,,,,,,,,,,,,,,,,,
,,,,,,,644fe22915ee001d29a6b7be,2023-08-16_08h25.29.749,HF_wild_card,2022.2.4,Win32,60.10337781,644fe22915ee001d29a6b7be,64d2fd46c836a06233681665,64dc79ca7304b9d78df02f98,,,,,,,decisionTrl,resources/DR.BMP,resources/DBN.BMP,Door4,0.353703704,-0.021296296,1,0,0,2.2317,optionRight,60,15145,7,11,0,11,0,1,,,,,,,,,,,,,,,,,,,,,,,,,,,,,,,,,,,,,,,
,,,,,,,644fe22915ee001d29a6b7be,2023-08-16_08h25.29.749,HF_wild_card,2022.2.4,Win32,60.10337781,644fe22915ee001d29a6b7be,64d2fd46c836a06233681665,64dc79ca7304b9d78df02f98,,,,,,,ctch,resources/DR.BMP,resources/DB.BMP,Door3,-0.297222222,-0.076851852,1,0,0,1.165,optionLeft,70,15215,7,12,0,12,0,1,,,,,,,,,,,,,,,,,,,,,,,,,,,,,,,,,,,,,,,
,,,,,,,644fe22915ee001d29a6b7be,2023-08-16_08h25.29.749,HF_wild_card,2022.2.4,Win32,60.10337781,644fe22915ee001d29a6b7be,64d2fd46c836a06233681665,64dc79ca7304b9d78df02f98,,,,,,,ctch,resources/DG.BMP,resources/DBN.BMP,Door4,0.30462963,-0.028703704,1,0,0,1.3151,optionRight,80,15295,7,13,0,13,0,1,,,,,,,,,,,,,,,,,,,,,,,,,,,,,,,,,,,,,,,
,,,,,,,644fe22915ee001d29a6b7be,2023-08-16_08h25.29.749,HF_wild_card,2022.2.4,Win32,60.10337781,644fe22915ee001d29a6b7be,64d2fd46c836a06233681665,64dc79ca7304b9d78df02f98,,,,,,,ctch,resources/DBN.BMP,resources/DG.BMP,Door4,-0.327777778,-0.085185185,1,0,0,0.9815,optionLeft,80,15375,7,14,0,14,0,1,,,,,,,,,,,,,,,,,,,,,,,,,,,,,,,,,,,,,,,
,,,,,,,644fe22915ee001d29a6b7be,2023-08-16_08h25.29.749,HF_wild_card,2022.2.4,Win32,60.10337781,644fe22915ee001d29a6b7be,64d2fd46c836a06233681665,64dc79ca7304b9d78df02f98,,,,,,,decisionTrl,resources/DR.BMP,resources/DBN.BMP,Door3,-0.353703704,-0.080555556,1,0,0,1.3817,optionLeft,70,15445,7,15,0,15,0,1,,,,,,,,,,,,,,,,,,,,,,,,,,,,,,,,,,,,,,,
,,,,,,,644fe22915ee001d29a6b7be,2023-08-16_08h25.29.749,HF_wild_card,2022.2.4,Win32,60.10337781,644fe22915ee001d29a6b7be,64d2fd46c836a06233681665,64dc79ca7304b9d78df02f98,,,,,,,decisionTrl,resources/DBN.BMP,resources/DR.BMP,Door4,-0.307407407,-0.05462963,1,0,0,1.2244,optionLeft,80,15525,7,16,0,16,0,1,,,,,,,,,,,,,,,,,,,,,,,,,,,,,,,,,,,,,,,
,,,,,,,644fe22915ee001d29a6b7be,2023-08-16_08h25.29.749,HF_wild_card,2022.2.4,Win32,60.10337781,644fe22915ee001d29a6b7be,64d2fd46c836a06233681665,64dc79ca7304b9d78df02f98,,,,,,,decisionTrl,resources/DBN.BMP,resources/DR.BMP,Door3,0.369444444,-0.02037037,1,0,0,1.0819,optionRight,70,15595,7,17,0,17,0,1,,,,,,,,,,,,,,,,,,,,,,,,,,,,,,,,,,,,,,,
,,,,,,,644fe22915ee001d29a6b7be,2023-08-16_08h25.29.749,HF_wild_card,2022.2.4,Win32,60.10337781,644fe22915ee001d29a6b7be,64d2fd46c836a06233681665,64dc79ca7304b9d78df02f98,,,,,,,decisionTrl,resources/DG.BMP,resources/DB.BMP,Door1,-0.338888889,-0.075,1,0,0,1.4474,optionLeft,30,15625,7,18,0,18,0,1,,,,,,,,,,,,,,,,,,,,,,,,,,,,,,,,,,,,,,,
,,,,,,,644fe22915ee001d29a6b7be,2023-08-16_08h25.29.749,HF_wild_card,2022.2.4,Win32,60.10337781,644fe22915ee001d29a6b7be,64d2fd46c836a06233681665,64dc79ca7304b9d78df02f98,,,,,,,ctch,resources/DBN.BMP,resources/DG.BMP,Door4,-0.32037037,-0.062962963,1,0,0,0.9643,optionLeft,80,15705,7,19,0,19,0,1,,,,,,,,,,,,,,,,,,,,,,,,,,,,,,,,,,,,,,,
,,,,,,,644fe22915ee001d29a6b7be,2023-08-16_08h25.29.749,HF_wild_card,2022.2.4,Win32,60.10337781,644fe22915ee001d29a6b7be,64d2fd46c836a06233681665,64dc79ca7304b9d78df02f98,,,,,,,decisionTrl,resources/DR.BMP,resources/DBN.BMP,Door4,0.287962963,-0.032407407,1,0,0,1.3975,optionRight,60,15765,7,20,0,20,0,1,,,,,,,,,,,,,,,,,,,,,,,,,,,,,,,,,,,,,,,
