Condition,Low fixed image (Door1),Low risky image (Door2),High fixed image (Door3),High risky image (Door4),NonExtreme Wild Card 1,NonExtreme Wild Card 2,,date,expName,psychopyVersion,OS,frameRate,PROLIFIC_PID,STUDY_ID,SESSION_ID,mouse_2.x,mouse_2.y,mouse_2.leftButton,mouse_2.midButton,mouse_2.rightButton,mouse_2.clicked_name,Trial Type,Left Option Image,Right Option Image,Chosen Door,mouse.x,mouse.y,mouse.leftButton,mouse.midButton,mouse.rightButton,mouse.time,mouse.clicked_name,Feedback,Cumulative Reward,Block,trial.thisRepN,trial.thisTrialN,trial.thisN,trial.thisIndex,trial.ran,blocks.thisRepN,blocks.thisTrialN,blocks.thisN,blocks.thisIndex,blocks.ran,Money conversion,First Outcome Reported,Shown Door (First Outcome),Displayed Image (First Outcome),outcomes.thisRepN,outcomes.thisTrialN,outcomes.thisN,outcomes.thisIndex,outcomes.ran,judgments.thisRepN,judgments.thisTrialN,judgments.thisN,judgments.thisIndex,judgments.ran,freqMouse.x,freqMouse.y,freqMouse.leftButton,freqMouse.midButton,freqMouse.rightButton,freqMouse.clicked_name,FQJ for first outcome,FQJ for second outcome,Shown Door,Displayed Image,trials.thisRepN,trials.thisTrialN,trials.thisN,trials.thisIndex,trials.ran,judgBlock.thisRepN,judgBlock.thisTrialN,judgBlock.thisN,judgBlock.thisIndex,judgBlock.ran
2,resources/DBN.BMP,resources/DG.BMP,resources/DR.BMP,resources/DY.BMP,resources/DB.BMP,resources/DP.BMP,,2023-08-16_08h39.10.593,HF_wild_card,2022.2.4,Win32,4.000288021,64874ebb817e22a5cb2f325f,64d2fd46c836a06233681665,64dc7cd28eba779b58e2ece4,,,,,,,,,,,,,,,,,,,,,,,,,,,,,,,,,,,,,,,,,,,,,,,,,,,,,,,,,,,,,,,,
,,,,,,,,2023-08-16_08h39.10.593,HF_wild_card,2022.2.4,Win32,4.000288021,64874ebb817e22a5cb2f325f,64d2fd46c836a06233681665,64dc7cd28eba779b58e2ece4,0.008077544,-0.409531502,1,0,0,agree,,,,,,,,,,,,,,,,,,,,,,,,,,,,,,,,,,,,,,,,,,,,,,,,,,,,,,,,,,
,,,,,,,,2023-08-16_08h39.10.593,HF_wild_card,2022.2.4,Win32,4.000288021,64874ebb817e22a5cb2f325f,64d2fd46c836a06233681665,64dc7cd28eba779b58e2ece4,,,,,,,,,,,,,,,,,,,,,,,,,,,,,,,,,,,,,,,,,,,,,,,,,,,,,,,,,,,,,,,,
,,,,,,,,2023-08-16_08h39.10.593,HF_wild_card,2022.2.4,Win32,4.000288021,64874ebb817e22a5cb2f325f,64d2fd46c836a06233681665,64dc7cd28eba779b58e2ece4,,,,,,,sngl,resources/Empty.png,resources/DP.BMP,WildCard_NonEx,0.387722132,-0.046042003,1,0,0,6.2878,optionRight,55,55,1,0,0,0,0,1,,,,,,,,,,,,,,,,,,,,,,,,,,,,,,,,,,,,,,,
,,,,,,,,2023-08-16_08h39.10.593,HF_wild_card,2022.2.4,Win32,4.000288021,64874ebb817e22a5cb2f325f,64d2fd46c836a06233681665,64dc7cd28eba779b58e2ece4,,,,,,,sngl,resources/DR.BMP,resources/Empty.png,Door3,-0.423263328,-0.004038772,1,0,0,12.3643,optionLeft,70,125,1,1,0,1,0,1,,,,,,,,,,,,,,,,,,,,,,,,,,,,,,,,,,,,,,,
,,,,,,,,2023-08-16_08h39.10.593,HF_wild_card,2022.2.4,Win32,4.000288021,64874ebb817e22a5cb2f325f,64d2fd46c836a06233681665,64dc7cd28eba779b58e2ece4,,,,,,,sngl,resources/Empty.png,resources/DG.BMP,Door2,0.408723748,0.015347334,1,0,0,10.693,optionRight,20,145,1,2,0,2,0,1,,,,,,,,,,,,,,,,,,,,,,,,,,,,,,,,,,,,,,,
,,,,,,,,2023-08-16_08h39.10.593,HF_wild_card,2022.2.4,Win32,4.000288021,64874ebb817e22a5cb2f325f,64d2fd46c836a06233681665,64dc7cd28eba779b58e2ece4,,,,,,,ctch,resources/DBN.BMP,resources/DY.BMP,Door1,-0.397415186,0.112277868,1,0,0,6.7147,optionLeft,30,175,1,3,0,3,0,1,,,,,,,,,,,,,,,,,,,,,,,,,,,,,,,,,,,,,,,
,,,,,,,,2023-08-16_08h39.10.593,HF_wild_card,2022.2.4,Win32,4.000288021,64874ebb817e22a5cb2f325f,64d2fd46c836a06233681665,64dc7cd28eba779b58e2ece4,,,,,,,decisionTrl,resources/DY.BMP,resources/DR.BMP,Door3,0.386106624,0.042810985,1,0,0,5.1121,optionRight,70,245,1,4,0,4,0,1,,,,,,,,,,,,,,,,,,,,,,,,,,,,,,,,,,,,,,,
,,,,,,,,2023-08-16_08h39.10.593,HF_wild_card,2022.2.4,Win32,4.000288021,64874ebb817e22a5cb2f325f,64d2fd46c836a06233681665,64dc7cd28eba779b58e2ece4,,,,,,,decisionTrl,resources/DY.BMP,resources/DR.BMP,Door4,-0.386106624,0.015347334,1,0,0,9.9488,optionLeft,60,305,1,5,0,5,0,1,,,,,,,,,,,,,,,,,,,,,,,,,,,,,,,,,,,,,,,
,,,,,,,,2023-08-16_08h39.10.593,HF_wild_card,2022.2.4,Win32,4.000288021,64874ebb817e22a5cb2f325f,64d2fd46c836a06233681665,64dc7cd28eba779b58e2ece4,,,,,,,decisionTrl,resources/DP.BMP,resources/DG.BMP,Door2,0.426494346,0.02180937,1,0,0,3.4173,optionRight,20,325,1,6,0,6,0,1,,,,,,,,,,,,,,,,,,,,,,,,,,,,,,,,,,,,,,,
,,,,,,,,2023-08-16_08h39.10.593,HF_wild_card,2022.2.4,Win32,4.000288021,64874ebb817e22a5cb2f325f,64d2fd46c836a06233681665,64dc7cd28eba779b58e2ece4,,,,,,,decisionTrl,resources/DR.BMP,resources/DY.BMP,Door3,-0.392568659,0.010500808,1,0,0,14.6481,optionLeft,70,395,1,7,0,7,0,1,,,,,,,,,,,,,,,,,,,,,,,,,,,,,,,,,,,,,,,
,,,,,,,,2023-08-16_08h39.10.593,HF_wild_card,2022.2.4,Win32,4.000288021,64874ebb817e22a5cb2f325f,64d2fd46c836a06233681665,64dc7cd28eba779b58e2ece4,,,,,,,decisionTrl,resources/DBN.BMP,resources/DG.BMP,Door2,0.400646204,0.033117932,1,0,0,21.82,optionRight,40,435,1,8,0,8,0,1,,,,,,,,,,,,,,,,,,,,,,,,,,,,,,,,,,,,,,,
,,,,,,,,2023-08-16_08h39.10.593,HF_wild_card,2022.2.4,Win32,4.000288021,64874ebb817e22a5cb2f325f,64d2fd46c836a06233681665,64dc7cd28eba779b58e2ece4,,,,,,,decisionTrl,resources/DG.BMP,resources/DP.BMP,WildCard_NonEx,0.400646204,0.02180937,1,0,0,12.0454,optionRight,45,480,1,9,0,9,0,1,,,,,,,,,,,,,,,,,,,,,,,,,,,,,,,,,,,,,,,
,,,,,,,,2023-08-16_08h39.10.593,HF_wild_card,2022.2.4,Win32,4.000288021,64874ebb817e22a5cb2f325f,64d2fd46c836a06233681665,64dc7cd28eba779b58e2ece4,,,,,,,decisionTrl,resources/DBN.BMP,resources/DP.BMP,WildCard_NonEx,0.408723748,0.004038772,1,0,0,7.5155,optionRight,55,535,1,10,0,10,0,1,,,,,,,,,,,,,,,,,,,,,,,,,,,,,,,,,,,,,,,
,,,,,,,,2023-08-16_08h39.10.593,HF_wild_card,2022.2.4,Win32,4.000288021,64874ebb817e22a5cb2f325f,64d2fd46c836a06233681665,64dc7cd28eba779b58e2ece4,,,,,,,decisionTrl,resources/DP.BMP,resources/DBN.BMP,WildCard_NonEx,-0.402261712,0.000807754,1,0,0,8.6299,optionLeft,55,590,1,11,0,11,0,1,,,,,,,,,,,,,,,,,,,,,,,,,,,,,,,,,,,,,,,
,,,,,,,,2023-08-16_08h39.10.593,HF_wild_card,2022.2.4,Win32,4.000288021,64874ebb817e22a5cb2f325f,64d2fd46c836a06233681665,64dc7cd28eba779b58e2ece4,,,,,,,sngl,resources/DP.BMP,resources/Empty.png,WildCard_NonEx,-0.402261712,-0.010500808,1,0,0,2.5563,optionLeft,55,645,1,12,0,12,0,1,,,,,,,,,,,,,,,,,,,,,,,,,,,,,,,,,,,,,,,
,,,,,,,,2023-08-16_08h39.10.593,HF_wild_card,2022.2.4,Win32,4.000288021,64874ebb817e22a5cb2f325f,64d2fd46c836a06233681665,64dc7cd28eba779b58e2ece4,,,,,,,decisionTrl,resources/DR.BMP,resources/DY.BMP,Door3,-0.408723748,0.012116317,1,0,0,14.039,optionLeft,70,715,1,13,0,13,0,1,,,,,,,,,,,,,,,,,,,,,,,,,,,,,,,,,,,,,,,
,,,,,,,,2023-08-16_08h39.10.593,HF_wild_card,2022.2.4,Win32,4.000288021,64874ebb817e22a5cb2f325f,64d2fd46c836a06233681665,64dc7cd28eba779b58e2ece4,,,,,,,sngl,resources/DBN.BMP,resources/Empty.png,Door1,-0.40549273,0.09450727,1,0,0,5.0685,optionLeft,30,745,1,14,0,14,0,1,,,,,,,,,,,,,,,,,,,,,,,,,,,,,,,,,,,,,,,
,,,,,,,,2023-08-16_08h39.10.593,HF_wild_card,2022.2.4,Win32,4.000288021,64874ebb817e22a5cb2f325f,64d2fd46c836a06233681665,64dc7cd28eba779b58e2ece4,,,,,,,sngl,resources/DY.BMP,resources/Empty.png,Door4,-0.392568659,0.028271405,1,0,0,13.7995,optionLeft,80,825,1,15,0,15,0,1,,,,,,,,,,,,,,,,,,,,,,,,,,,,,,,,,,,,,,,
,,,,,,,,2023-08-16_08h39.10.593,HF_wild_card,2022.2.4,Win32,4.000288021,64874ebb817e22a5cb2f325f,64d2fd46c836a06233681665,64dc7cd28eba779b58e2ece4,,,,,,,sngl,resources/DP.BMP,resources/Empty.png,WildCard_NonEx,-0.39095315,0.012116317,1,0,0,2.2913,optionLeft,45,870,1,16,0,16,0,1,,,,,,,,,,,,,,,,,,,,,,,,,,,,,,,,,,,,,,,
,,,,,,,,2023-08-16_08h39.10.593,HF_wild_card,2022.2.4,Win32,4.000288021,64874ebb817e22a5cb2f325f,64d2fd46c836a06233681665,64dc7cd28eba779b58e2ece4,,,,,,,decisionTrl,resources/DG.BMP,resources/DBN.BMP,Door2,-0.386106624,0.005654281,1,0,0,23.6051,optionLeft,40,910,1,17,0,17,0,1,,,,,,,,,,,,,,,,,,,,,,,,,,,,,,,,,,,,,,,
,,,,,,,,2023-08-16_08h39.10.593,HF_wild_card,2022.2.4,Win32,4.000288021,64874ebb817e22a5cb2f325f,64d2fd46c836a06233681665,64dc7cd28eba779b58e2ece4,,,,,,,decisionTrl,resources/DBN.BMP,resources/DG.BMP,Door1,-0.400646204,-0.046042003,1,0,0,26.4518,optionLeft,30,940,1,18,0,18,0,1,,,,,,,,,,,,,,,,,,,,,,,,,,,,,,,,,,,,,,,
,,,,,,,,2023-08-16_08h39.10.593,HF_wild_card,2022.2.4,Win32,4.000288021,64874ebb817e22a5cb2f325f,64d2fd46c836a06233681665,64dc7cd28eba779b58e2ece4,,,,,,,decisionTrl,resources/DP.BMP,resources/DR.BMP,Door3,0.379644588,-0.046042003,1,0,0,4.3893,optionRight,70,1010,1,19,0,19,0,1,,,,,,,,,,,,,,,,,,,,,,,,,,,,,,,,,,,,,,,
,,,,,,,,2023-08-16_08h39.10.593,HF_wild_card,2022.2.4,Win32,4.000288021,64874ebb817e22a5cb2f325f,64d2fd46c836a06233681665,64dc7cd28eba779b58e2ece4,,,,,,,sngl,resources/Empty.png,resources/DY.BMP,Door4,0.439418417,0.002423263,1,0,0,10.2504,optionRight,60,1070,1,20,0,20,0,1,,,,,,,,,,,,,,,,,,,,,,,,,,,,,,,,,,,,,,,
,,,,,,,,2023-08-16_08h39.10.593,HF_wild_card,2022.2.4,Win32,4.000288021,64874ebb817e22a5cb2f325f,64d2fd46c836a06233681665,64dc7cd28eba779b58e2ece4,,,,,,,ctch,resources/DG.BMP,resources/DR.BMP,Door2,-0.37641357,0.028271405,1,0,0,7.1645,optionLeft,40,1110,1,21,0,21,0,1,,,,,,,,,,,,,,,,,,,,,,,,,,,,,,,,,,,,,,,
,,,,,,,,2023-08-16_08h39.10.593,HF_wild_card,2022.2.4,Win32,4.000288021,64874ebb817e22a5cb2f325f,64d2fd46c836a06233681665,64dc7cd28eba779b58e2ece4,,,,,,,decisionTrl,resources/DY.BMP,resources/DR.BMP,Door3,0.386106624,-0.044426494,1,0,0,4.7841,optionRight,70,1180,1,22,0,22,0,1,,,,,,,,,,,,,,,,,,,,,,,,,,,,,,,,,,,,,,,
,,,,,,,,2023-08-16_08h39.10.593,HF_wild_card,2022.2.4,Win32,4.000288021,64874ebb817e22a5cb2f325f,64d2fd46c836a06233681665,64dc7cd28eba779b58e2ece4,,,,,,,decisionTrl,resources/DP.BMP,resources/DY.BMP,WildCard_NonEx,-0.421647819,-0.078352181,1,0,0,4.7945,optionLeft,55,1235,1,23,0,23,0,1,,,,,,,,,,,,,,,,,,,,,,,,,,,,,,,,,,,,,,,
,,,,,,,,2023-08-16_08h39.10.593,HF_wild_card,2022.2.4,Win32,4.000288021,64874ebb817e22a5cb2f325f,64d2fd46c836a06233681665,64dc7cd28eba779b58e2ece4,,,,,,,ctch,resources/DG.BMP,resources/DR.BMP,Door2,-0.365105008,0.033117932,1,0,0,4.0907,optionLeft,40,1275,1,24,0,24,0,1,,,,,,,,,,,,,,,,,,,,,,,,,,,,,,,,,,,,,,,
,,,,,,,,2023-08-16_08h39.10.593,HF_wild_card,2022.2.4,Win32,4.000288021,64874ebb817e22a5cb2f325f,64d2fd46c836a06233681665,64dc7cd28eba779b58e2ece4,,,,,,,decisionTrl,resources/DR.BMP,resources/DY.BMP,Door4,0.416801292,0.02180937,1,0,0,2.5479,optionRight,80,1355,1,25,0,25,0,1,,,,,,,,,,,,,,,,,,,,,,,,,,,,,,,,,,,,,,,
,,,,,,,,2023-08-16_08h39.10.593,HF_wild_card,2022.2.4,Win32,4.000288021,64874ebb817e22a5cb2f325f,64d2fd46c836a06233681665,64dc7cd28eba779b58e2ece4,,,,,,,decisionTrl,resources/DG.BMP,resources/DBN.BMP,Door2,-0.358642973,0.004038772,1,0,0,2.6929,optionLeft,40,1395,1,26,0,26,0,1,,,,,,,,,,,,,,,,,,,,,,,,,,,,,,,,,,,,,,,
,,,,,,,,2023-08-16_08h39.10.593,HF_wild_card,2022.2.4,Win32,4.000288021,64874ebb817e22a5cb2f325f,64d2fd46c836a06233681665,64dc7cd28eba779b58e2ece4,,,,,,,decisionTrl,resources/DY.BMP,resources/DP.BMP,WildCard_NonEx,0.407108239,-0.031502423,1,0,0,4.384,optionRight,45,1440,1,27,0,27,0,1,,,,,,,,,,,,,,,,,,,,,,,,,,,,,,,,,,,,,,,
,,,,,,,,2023-08-16_08h39.10.593,HF_wild_card,2022.2.4,Win32,4.000288021,64874ebb817e22a5cb2f325f,64d2fd46c836a06233681665,64dc7cd28eba779b58e2ece4,,,,,,,decisionTrl,resources/DR.BMP,resources/DP.BMP,WildCard_NonEx,0.407108239,-0.005654281,1,0,0,3.2093,optionRight,55,1495,1,28,0,28,0,1,,,,,,,,,,,,,,,,,,,,,,,,,,,,,,,,,,,,,,,
,,,,,,,,2023-08-16_08h39.10.593,HF_wild_card,2022.2.4,Win32,4.000288021,64874ebb817e22a5cb2f325f,64d2fd46c836a06233681665,64dc7cd28eba779b58e2ece4,,,,,,,ctch,resources/DBN.BMP,resources/DY.BMP,Door4,0.42003231,0.026655897,1,0,0,3.1329,optionRight,80,1575,1,29,0,29,0,1,,,,,,,,,,,,,,,,,,,,,,,,,,,,,,,,,,,,,,,
,,,,,,,,2023-08-16_08h39.10.593,HF_wild_card,2022.2.4,Win32,4.000288021,64874ebb817e22a5cb2f325f,64d2fd46c836a06233681665,64dc7cd28eba779b58e2ece4,,,,,,,decisionTrl,resources/DBN.BMP,resources/DG.BMP,Door2,0.415185784,0.028271405,1,0,0,5.167,optionRight,40,1615,1,30,0,30,0,1,,,,,,,,,,,,,,,,,,,,,,,,,,,,,,,,,,,,,,,
,,,,,,,,2023-08-16_08h39.10.593,HF_wild_card,2022.2.4,Win32,4.000288021,64874ebb817e22a5cb2f325f,64d2fd46c836a06233681665,64dc7cd28eba779b58e2ece4,,,,,,,ctch,resources/DR.BMP,resources/DG.BMP,Door3,-0.402261712,0.010500808,1,0,0,7.7086,optionLeft,70,1685,1,31,0,31,0,1,,,,,,,,,,,,,,,,,,,,,,,,,,,,,,,,,,,,,,,
,,,,,,,,2023-08-16_08h39.10.593,HF_wild_card,2022.2.4,Win32,4.000288021,64874ebb817e22a5cb2f325f,64d2fd46c836a06233681665,64dc7cd28eba779b58e2ece4,,,,,,,decisionTrl,resources/DBN.BMP,resources/DG.BMP,Door1,-0.37641357,0.078352181,1,0,0,2.8092,optionLeft,30,1715,1,32,0,32,0,1,,,,,,,,,,,,,,,,,,,,,,,,,,,,,,,,,,,,,,,
,,,,,,,,2023-08-16_08h39.10.593,HF_wild_card,2022.2.4,Win32,4.000288021,64874ebb817e22a5cb2f325f,64d2fd46c836a06233681665,64dc7cd28eba779b58e2ece4,,,,,,,sngl,resources/DG.BMP,resources/Empty.png,Door2,-0.368336026,0.026655897,1,0,0,2.3611,optionLeft,40,1755,1,33,0,33,0,1,,,,,,,,,,,,,,,,,,,,,,,,,,,,,,,,,,,,,,,
,,,,,,,,2023-08-16_08h39.10.593,HF_wild_card,2022.2.4,Win32,4.000288021,64874ebb817e22a5cb2f325f,64d2fd46c836a06233681665,64dc7cd28eba779b58e2ece4,,,,,,,ctch,resources/DY.BMP,resources/DBN.BMP,Door4,-0.378029079,0.031502423,1,0,0,3.0074,optionLeft,80,1835,1,34,0,34,0,1,,,,,,,,,,,,,,,,,,,,,,,,,,,,,,,,,,,,,,,
,,,,,,,,2023-08-16_08h39.10.593,HF_wild_card,2022.2.4,Win32,4.000288021,64874ebb817e22a5cb2f325f,64d2fd46c836a06233681665,64dc7cd28eba779b58e2ece4,,,,,,,sngl,resources/Empty.png,resources/DBN.BMP,Door1,0.400646204,0.015347334,1,0,0,3.0019,optionRight,30,1865,1,35,0,35,0,1,,,,,,,,,,,,,,,,,,,,,,,,,,,,,,,,,,,,,,,
,,,,,,,,2023-08-16_08h39.10.593,HF_wild_card,2022.2.4,Win32,4.000288021,64874ebb817e22a5cb2f325f,64d2fd46c836a06233681665,64dc7cd28eba779b58e2ece4,,,,,,,decisionTrl,resources/DY.BMP,resources/DR.BMP,Door4,-0.387722132,0.031502423,1,0,0,7.9997,optionLeft,80,1945,1,36,0,36,0,1,,,,,,,,,,,,,,,,,,,,,,,,,,,,,,,,,,,,,,,
,,,,,,,,2023-08-16_08h39.10.593,HF_wild_card,2022.2.4,Win32,4.000288021,64874ebb817e22a5cb2f325f,64d2fd46c836a06233681665,64dc7cd28eba779b58e2ece4,,,,,,,decisionTrl,resources/DG.BMP,resources/DBN.BMP,Door2,-0.387722132,0.012116317,1,0,0,7.4447,optionLeft,20,1965,1,37,0,37,0,1,,,,,,,,,,,,,,,,,,,,,,,,,,,,,,,,,,,,,,,
,,,,,,,,2023-08-16_08h39.10.593,HF_wild_card,2022.2.4,Win32,4.000288021,64874ebb817e22a5cb2f325f,64d2fd46c836a06233681665,64dc7cd28eba779b58e2ece4,,,,,,,sngl,resources/Empty.png,resources/DP.BMP,WildCard_NonEx,0.447495961,-0.020193861,1,0,0,1.9031,optionRight,45,2010,1,38,0,38,0,1,,,,,,,,,,,,,,,,,,,,,,,,,,,,,,,,,,,,,,,
,,,,,,,,2023-08-16_08h39.10.593,HF_wild_card,2022.2.4,Win32,4.000288021,64874ebb817e22a5cb2f325f,64d2fd46c836a06233681665,64dc7cd28eba779b58e2ece4,,,,,,,ctch,resources/DY.BMP,resources/DBN.BMP,Door4,-0.397415186,0.042810985,1,0,0,3.2087,optionLeft,60,2070,1,39,0,39,0,1,,,,,,,,,,,,,,,,,,,,,,,,,,,,,,,,,,,,,,,
,,,,,,,,2023-08-16_08h39.10.593,HF_wild_card,2022.2.4,Win32,4.000288021,64874ebb817e22a5cb2f325f,64d2fd46c836a06233681665,64dc7cd28eba779b58e2ece4,,,,,,,ctch,resources/DR.BMP,resources/DG.BMP,Door2,0.44911147,0.047657512,1,0,0,1.7098,optionRight,40,2110,1,40,0,40,0,1,,,,,,,,,,,,,,,,,,,,,,,,,,,,,,,,,,,,,,,
,,,,,,,,2023-08-16_08h39.10.593,HF_wild_card,2022.2.4,Win32,4.000288021,64874ebb817e22a5cb2f325f,64d2fd46c836a06233681665,64dc7cd28eba779b58e2ece4,,,,,,,decisionTrl,resources/DR.BMP,resources/DY.BMP,Door4,0.395799677,0.005654281,1,0,0,2.5731,optionRight,60,2170,1,41,0,41,0,1,,,,,,,,,,,,,,,,,,,,,,,,,,,,,,,,,,,,,,,
,,,,,,,,2023-08-16_08h39.10.593,HF_wild_card,2022.2.4,Win32,4.000288021,64874ebb817e22a5cb2f325f,64d2fd46c836a06233681665,64dc7cd28eba779b58e2ece4,,,,,,,sngl,resources/Empty.png,resources/DR.BMP,Door3,0.392568659,0.013731826,1,0,0,4.1991,optionRight,70,2240,1,42,0,42,0,1,,,,,,,,,,,,,,,,,,,,,,,,,,,,,,,,,,,,,,,
,,,,,,,,2023-08-16_08h39.10.593,HF_wild_card,2022.2.4,Win32,4.000288021,64874ebb817e22a5cb2f325f,64d2fd46c836a06233681665,64dc7cd28eba779b58e2ece4,,,,,,,decisionTrl,resources/DG.BMP,resources/DBN.BMP,Door1,0.394184168,0.112277868,1,0,0,6.8118,optionRight,30,2270,1,43,0,43,0,1,,,,,,,,,,,,,,,,,,,,,,,,,,,,,,,,,,,,,,,
,,,,,,,,2023-08-16_08h39.10.593,HF_wild_card,2022.2.4,Win32,4.000288021,64874ebb817e22a5cb2f325f,64d2fd46c836a06233681665,64dc7cd28eba779b58e2ece4,,,,,,,,,,,,,,,,,,,,,,,,,,0,0,0,0,1,,,,,,,,,,,,,,,,,,,,,,,,,,,,,,,,,,
,,,,,,,,2023-08-16_08h39.10.593,HF_wild_card,2022.2.4,Win32,4.000288021,64874ebb817e22a5cb2f325f,64d2fd46c836a06233681665,64dc7cd28eba779b58e2ece4,,,,,,,ctch,resources/DBN.BMP,resources/DY.BMP,Door4,0.441033926,0.00726979,1,0,0,4.1043,optionRight,80,2350,2,0,0,0,0,1,,,,,,,,,,,,,,,,,,,,,,,,,,,,,,,,,,,,,,,
,,,,,,,,2023-08-16_08h39.10.593,HF_wild_card,2022.2.4,Win32,4.000288021,64874ebb817e22a5cb2f325f,64d2fd46c836a06233681665,64dc7cd28eba779b58e2ece4,,,,,,,sngl,resources/Empty.png,resources/DP.BMP,WildCard_NonEx,0.399030695,0.00726979,1,0,0,6.7838,optionRight,55,2405,2,1,0,1,0,1,,,,,,,,,,,,,,,,,,,,,,,,,,,,,,,,,,,,,,,
,,,,,,,,2023-08-16_08h39.10.593,HF_wild_card,2022.2.4,Win32,4.000288021,64874ebb817e22a5cb2f325f,64d2fd46c836a06233681665,64dc7cd28eba779b58e2ece4,,,,,,,sngl,resources/DBN.BMP,resources/Empty.png,Door1,-0.408723748,0.096122779,1,0,0,10.0724,optionLeft,30,2435,2,2,0,2,0,1,,,,,,,,,,,,,,,,,,,,,,,,,,,,,,,,,,,,,,,
,,,,,,,,2023-08-16_08h39.10.593,HF_wild_card,2022.2.4,Win32,4.000288021,64874ebb817e22a5cb2f325f,64d2fd46c836a06233681665,64dc7cd28eba779b58e2ece4,,,,,,,ctch,resources/DR.BMP,resources/DG.BMP,Door3,-0.408723748,0.018578352,1,0,0,10.7069,optionLeft,70,2505,2,3,0,3,0,1,,,,,,,,,,,,,,,,,,,,,,,,,,,,,,,,,,,,,,,
,,,,,,,,2023-08-16_08h39.10.593,HF_wild_card,2022.2.4,Win32,4.000288021,64874ebb817e22a5cb2f325f,64d2fd46c836a06233681665,64dc7cd28eba779b58e2ece4,,,,,,,decisionTrl,resources/DR.BMP,resources/DY.BMP,Door4,0.399030695,0.03634895,1,0,0,2.5727,optionRight,60,2565,2,4,0,4,0,1,,,,,,,,,,,,,,,,,,,,,,,,,,,,,,,,,,,,,,,
,,,,,,,,2023-08-16_08h39.10.593,HF_wild_card,2022.2.4,Win32,4.000288021,64874ebb817e22a5cb2f325f,64d2fd46c836a06233681665,64dc7cd28eba779b58e2ece4,,,,,,,decisionTrl,resources/DR.BMP,resources/DY.BMP,Door3,-0.408723748,0.016962843,1,0,0,12.5256,optionLeft,70,2635,2,5,0,5,0,1,,,,,,,,,,,,,,,,,,,,,,,,,,,,,,,,,,,,,,,
,,,,,,,,2023-08-16_08h39.10.593,HF_wild_card,2022.2.4,Win32,4.000288021,64874ebb817e22a5cb2f325f,64d2fd46c836a06233681665,64dc7cd28eba779b58e2ece4,,,,,,,decisionTrl,resources/DBN.BMP,resources/DG.BMP,Door2,0.42003231,0.025040388,1,0,0,2.5048,optionRight,20,2655,2,6,0,6,0,1,,,,,,,,,,,,,,,,,,,,,,,,,,,,,,,,,,,,,,,
,,,,,,,,2023-08-16_08h39.10.593,HF_wild_card,2022.2.4,Win32,4.000288021,64874ebb817e22a5cb2f325f,64d2fd46c836a06233681665,64dc7cd28eba779b58e2ece4,,,,,,,decisionTrl,resources/DY.BMP,resources/DR.BMP,Door3,0.397415186,0.052504039,1,0,0,3.5493,optionRight,70,2725,2,7,0,7,0,1,,,,,,,,,,,,,,,,,,,,,,,,,,,,,,,,,,,,,,,
,,,,,,,,2023-08-16_08h39.10.593,HF_wild_card,2022.2.4,Win32,4.000288021,64874ebb817e22a5cb2f325f,64d2fd46c836a06233681665,64dc7cd28eba779b58e2ece4,,,,,,,sngl,resources/DY.BMP,resources/Empty.png,Door4,-0.399030695,0.03634895,1,0,0,4.8456,optionLeft,60,2785,2,8,0,8,0,1,,,,,,,,,,,,,,,,,,,,,,,,,,,,,,,,,,,,,,,
,,,,,,,,2023-08-16_08h39.10.593,HF_wild_card,2022.2.4,Win32,4.000288021,64874ebb817e22a5cb2f325f,64d2fd46c836a06233681665,64dc7cd28eba779b58e2ece4,,,,,,,ctch,resources/DY.BMP,resources/DBN.BMP,Door4,-0.40549273,0.034733441,1,0,0,5.3419,optionLeft,80,2865,2,9,0,9,0,1,,,,,,,,,,,,,,,,,,,,,,,,,,,,,,,,,,,,,,,
,,,,,,,,2023-08-16_08h39.10.593,HF_wild_card,2022.2.4,Win32,4.000288021,64874ebb817e22a5cb2f325f,64d2fd46c836a06233681665,64dc7cd28eba779b58e2ece4,,,,,,,decisionTrl,resources/DY.BMP,resources/DR.BMP,Door4,-0.392568659,0.025040388,1,0,0,3.1459,optionLeft,60,2925,2,10,0,10,0,1,,,,,,,,,,,,,,,,,,,,,,,,,,,,,,,,,,,,,,,
,,,,,,,,2023-08-16_08h39.10.593,HF_wild_card,2022.2.4,Win32,4.000288021,64874ebb817e22a5cb2f325f,64d2fd46c836a06233681665,64dc7cd28eba779b58e2ece4,,,,,,,decisionTrl,resources/DY.BMP,resources/DP.BMP,WildCard_NonEx,0.410339257,0.00726979,1,0,0,2.554,optionRight,55,2980,2,11,0,11,0,1,,,,,,,,,,,,,,,,,,,,,,,,,,,,,,,,,,,,,,,
,,,,,,,,2023-08-16_08h39.10.593,HF_wild_card,2022.2.4,Win32,4.000288021,64874ebb817e22a5cb2f325f,64d2fd46c836a06233681665,64dc7cd28eba779b58e2ece4,,,,,,,decisionTrl,resources/DR.BMP,resources/DY.BMP,Door3,-0.413570275,0.015347334,1,0,0,5.8752,optionLeft,70,3050,2,12,0,12,0,1,,,,,,,,,,,,,,,,,,,,,,,,,,,,,,,,,,,,,,,
,,,,,,,,2023-08-16_08h39.10.593,HF_wild_card,2022.2.4,Win32,4.000288021,64874ebb817e22a5cb2f325f,64d2fd46c836a06233681665,64dc7cd28eba779b58e2ece4,,,,,,,sngl,resources/Empty.png,resources/DR.BMP,Door3,0.397415186,-0.028271405,1,0,0,2.6288,optionRight,70,3120,2,13,0,13,0,1,,,,,,,,,,,,,,,,,,,,,,,,,,,,,,,,,,,,,,,
,,,,,,,,2023-08-16_08h39.10.593,HF_wild_card,2022.2.4,Win32,4.000288021,64874ebb817e22a5cb2f325f,64d2fd46c836a06233681665,64dc7cd28eba779b58e2ece4,,,,,,,sngl,resources/DP.BMP,resources/Empty.png,WildCard_NonEx,-0.39095315,0.005654281,1,0,0,2.8522,optionLeft,55,3175,2,14,0,14,0,1,,,,,,,,,,,,,,,,,,,,,,,,,,,,,,,,,,,,,,,
,,,,,,,,2023-08-16_08h39.10.593,HF_wild_card,2022.2.4,Win32,4.000288021,64874ebb817e22a5cb2f325f,64d2fd46c836a06233681665,64dc7cd28eba779b58e2ece4,,,,,,,decisionTrl,resources/DR.BMP,resources/DP.BMP,Door3,-0.423263328,0.031502423,1,0,0,2.0123,optionLeft,70,3245,2,15,0,15,0,1,,,,,,,,,,,,,,,,,,,,,,,,,,,,,,,,,,,,,,,
,,,,,,,,2023-08-16_08h39.10.593,HF_wild_card,2022.2.4,Win32,4.000288021,64874ebb817e22a5cb2f325f,64d2fd46c836a06233681665,64dc7cd28eba779b58e2ece4,,,,,,,sngl,resources/DP.BMP,resources/Empty.png,WildCard_NonEx,-0.397415186,0.012116317,1,0,0,6.0258,optionLeft,45,3290,2,16,0,16,0,1,,,,,,,,,,,,,,,,,,,,,,,,,,,,,,,,,,,,,,,
,,,,,,,,2023-08-16_08h39.10.593,HF_wild_card,2022.2.4,Win32,4.000288021,64874ebb817e22a5cb2f325f,64d2fd46c836a06233681665,64dc7cd28eba779b58e2ece4,,,,,,,sngl,resources/DR.BMP,resources/Empty.png,Door3,-0.418416801,0.054119548,1,0,0,4.7192,optionLeft,70,3360,2,17,0,17,0,1,,,,,,,,,,,,,,,,,,,,,,,,,,,,,,,,,,,,,,,
,,,,,,,,2023-08-16_08h39.10.593,HF_wild_card,2022.2.4,Win32,4.000288021,64874ebb817e22a5cb2f325f,64d2fd46c836a06233681665,64dc7cd28eba779b58e2ece4,,,,,,,decisionTrl,resources/DBN.BMP,resources/DG.BMP,Door1,-0.413570275,0.149434572,1,0,0,6.6116,optionLeft,30,3390,2,18,0,18,0,1,,,,,,,,,,,,,,,,,,,,,,,,,,,,,,,,,,,,,,,
,,,,,,,,2023-08-16_08h39.10.593,HF_wild_card,2022.2.4,Win32,4.000288021,64874ebb817e22a5cb2f325f,64d2fd46c836a06233681665,64dc7cd28eba779b58e2ece4,,,,,,,ctch,resources/DBN.BMP,resources/DY.BMP,Door4,0.397415186,0.025040388,1,0,0,2.5679,optionRight,60,3450,2,19,0,19,0,1,,,,,,,,,,,,,,,,,,,,,,,,,,,,,,,,,,,,,,,
,,,,,,,,2023-08-16_08h39.10.593,HF_wild_card,2022.2.4,Win32,4.000288021,64874ebb817e22a5cb2f325f,64d2fd46c836a06233681665,64dc7cd28eba779b58e2ece4,,,,,,,decisionTrl,resources/DP.BMP,resources/DY.BMP,WildCard_NonEx,-0.382875606,0.008885299,1,0,0,3.0776,optionLeft,55,3505,2,20,0,20,0,1,,,,,,,,,,,,,,,,,,,,,,,,,,,,,,,,,,,,,,,
,,,,,,,,2023-08-16_08h39.10.593,HF_wild_card,2022.2.4,Win32,4.000288021,64874ebb817e22a5cb2f325f,64d2fd46c836a06233681665,64dc7cd28eba779b58e2ece4,,,,,,,decisionTrl,resources/DP.BMP,resources/DBN.BMP,WildCard_NonEx,-0.39095315,-0.013731826,1,0,0,1.9924,optionLeft,45,3550,2,21,0,21,0,1,,,,,,,,,,,,,,,,,,,,,,,,,,,,,,,,,,,,,,,
,,,,,,,,2023-08-16_08h39.10.593,HF_wild_card,2022.2.4,Win32,4.000288021,64874ebb817e22a5cb2f325f,64d2fd46c836a06233681665,64dc7cd28eba779b58e2ece4,,,,,,,decisionTrl,resources/DP.BMP,resources/DR.BMP,Door3,0.39095315,0.060581583,1,0,0,6.8276,optionRight,70,3620,2,22,0,22,0,1,,,,,,,,,,,,,,,,,,,,,,,,,,,,,,,,,,,,,,,
,,,,,,,,2023-08-16_08h39.10.593,HF_wild_card,2022.2.4,Win32,4.000288021,64874ebb817e22a5cb2f325f,64d2fd46c836a06233681665,64dc7cd28eba779b58e2ece4,,,,,,,decisionTrl,resources/DG.BMP,resources/DBN.BMP,Door1,0.394184168,0.073505654,1,0,0,8.9424,optionRight,30,3650,2,23,0,23,0,1,,,,,,,,,,,,,,,,,,,,,,,,,,,,,,,,,,,,,,,
,,,,,,,,2023-08-16_08h39.10.593,HF_wild_card,2022.2.4,Win32,4.000288021,64874ebb817e22a5cb2f325f,64d2fd46c836a06233681665,64dc7cd28eba779b58e2ece4,,,,,,,sngl,resources/DG.BMP,resources/Empty.png,Door2,-0.392568659,0.034733441,1,0,0,1.7818,optionLeft,20,3670,2,24,0,24,0,1,,,,,,,,,,,,,,,,,,,,,,,,,,,,,,,,,,,,,,,
,,,,,,,,2023-08-16_08h39.10.593,HF_wild_card,2022.2.4,Win32,4.000288021,64874ebb817e22a5cb2f325f,64d2fd46c836a06233681665,64dc7cd28eba779b58e2ece4,,,,,,,decisionTrl,resources/DG.BMP,resources/DBN.BMP,Door2,-0.374798061,0.03634895,1,0,0,4.3371,optionLeft,20,3690,2,25,0,25,0,1,,,,,,,,,,,,,,,,,,,,,,,,,,,,,,,,,,,,,,,
,,,,,,,,2023-08-16_08h39.10.593,HF_wild_card,2022.2.4,Win32,4.000288021,64874ebb817e22a5cb2f325f,64d2fd46c836a06233681665,64dc7cd28eba779b58e2ece4,,,,,,,sngl,resources/Empty.png,resources/DY.BMP,Door4,0.407108239,0.020193861,1,0,0,1.8761,optionRight,80,3770,2,26,0,26,0,1,,,,,,,,,,,,,,,,,,,,,,,,,,,,,,,,,,,,,,,
,,,,,,,,2023-08-16_08h39.10.593,HF_wild_card,2022.2.4,Win32,4.000288021,64874ebb817e22a5cb2f325f,64d2fd46c836a06233681665,64dc7cd28eba779b58e2ece4,,,,,,,decisionTrl,resources/DBN.BMP,resources/DG.BMP,Door2,0.428109855,0.029886914,1,0,0,2.0167,optionRight,40,3810,2,27,0,27,0,1,,,,,,,,,,,,,,,,,,,,,,,,,,,,,,,,,,,,,,,
,,,,,,,,2023-08-16_08h39.10.593,HF_wild_card,2022.2.4,Win32,4.000288021,64874ebb817e22a5cb2f325f,64d2fd46c836a06233681665,64dc7cd28eba779b58e2ece4,,,,,,,decisionTrl,resources/DR.BMP,resources/DY.BMP,Door3,-0.400646204,0.020193861,1,0,0,2.2974,optionLeft,70,3880,2,28,0,28,0,1,,,,,,,,,,,,,,,,,,,,,,,,,,,,,,,,,,,,,,,
,,,,,,,,2023-08-16_08h39.10.593,HF_wild_card,2022.2.4,Win32,4.000288021,64874ebb817e22a5cb2f325f,64d2fd46c836a06233681665,64dc7cd28eba779b58e2ece4,,,,,,,decisionTrl,resources/DP.BMP,resources/DG.BMP,WildCard_NonEx,-0.40549273,0.013731826,1,0,0,2.5484,optionLeft,45,3925,2,29,0,29,0,1,,,,,,,,,,,,,,,,,,,,,,,,,,,,,,,,,,,,,,,
,,,,,,,,2023-08-16_08h39.10.593,HF_wild_card,2022.2.4,Win32,4.000288021,64874ebb817e22a5cb2f325f,64d2fd46c836a06233681665,64dc7cd28eba779b58e2ece4,,,,,,,decisionTrl,resources/DG.BMP,resources/DBN.BMP,Door1,0.395799677,0.008885299,1,0,0,8.7291,optionRight,30,3955,2,30,0,30,0,1,,,,,,,,,,,,,,,,,,,,,,,,,,,,,,,,,,,,,,,
,,,,,,,,2023-08-16_08h39.10.593,HF_wild_card,2022.2.4,Win32,4.000288021,64874ebb817e22a5cb2f325f,64d2fd46c836a06233681665,64dc7cd28eba779b58e2ece4,,,,,,,sngl,resources/Empty.png,resources/DG.BMP,Door2,0.411954766,0.033117932,1,0,0,4.0498,optionRight,40,3995,2,31,0,31,0,1,,,,,,,,,,,,,,,,,,,,,,,,,,,,,,,,,,,,,,,
,,,,,,,,2023-08-16_08h39.10.593,HF_wild_card,2022.2.4,Win32,4.000288021,64874ebb817e22a5cb2f325f,64d2fd46c836a06233681665,64dc7cd28eba779b58e2ece4,,,,,,,ctch,resources/DR.BMP,resources/DG.BMP,Door3,-0.408723748,-0.03634895,1,0,0,2.3768,optionLeft,70,4065,2,32,0,32,0,1,,,,,,,,,,,,,,,,,,,,,,,,,,,,,,,,,,,,,,,
,,,,,,,,2023-08-16_08h39.10.593,HF_wild_card,2022.2.4,Win32,4.000288021,64874ebb817e22a5cb2f325f,64d2fd46c836a06233681665,64dc7cd28eba779b58e2ece4,,,,,,,decisionTrl,resources/DG.BMP,resources/DBN.BMP,Door2,-0.387722132,0.026655897,1,0,0,4.2024,optionLeft,20,4085,2,33,0,33,0,1,,,,,,,,,,,,,,,,,,,,,,,,,,,,,,,,,,,,,,,
,,,,,,,,2023-08-16_08h39.10.593,HF_wild_card,2022.2.4,Win32,4.000288021,64874ebb817e22a5cb2f325f,64d2fd46c836a06233681665,64dc7cd28eba779b58e2ece4,,,,,,,decisionTrl,resources/DY.BMP,resources/DR.BMP,Door3,0.382875606,0.029886914,1,0,0,4.0195,optionRight,70,4155,2,34,0,34,0,1,,,,,,,,,,,,,,,,,,,,,,,,,,,,,,,,,,,,,,,
,,,,,,,,2023-08-16_08h39.10.593,HF_wild_card,2022.2.4,Win32,4.000288021,64874ebb817e22a5cb2f325f,64d2fd46c836a06233681665,64dc7cd28eba779b58e2ece4,,,,,,,sngl,resources/Empty.png,resources/DP.BMP,WildCard_NonEx,0.407108239,-0.004038772,1,0,0,2.1753,optionRight,45,4200,2,35,0,35,0,1,,,,,,,,,,,,,,,,,,,,,,,,,,,,,,,,,,,,,,,
,,,,,,,,2023-08-16_08h39.10.593,HF_wild_card,2022.2.4,Win32,4.000288021,64874ebb817e22a5cb2f325f,64d2fd46c836a06233681665,64dc7cd28eba779b58e2ece4,,,,,,,ctch,resources/DG.BMP,resources/DR.BMP,Door3,0.407108239,0.05088853,1,0,0,2.0367,optionRight,70,4270,2,36,0,36,0,1,,,,,,,,,,,,,,,,,,,,,,,,,,,,,,,,,,,,,,,
,,,,,,,,2023-08-16_08h39.10.593,HF_wild_card,2022.2.4,Win32,4.000288021,64874ebb817e22a5cb2f325f,64d2fd46c836a06233681665,64dc7cd28eba779b58e2ece4,,,,,,,decisionTrl,resources/DY.BMP,resources/DR.BMP,Door3,0.40549273,0.055735057,1,0,0,1.7414,optionRight,70,4340,2,37,0,37,0,1,,,,,,,,,,,,,,,,,,,,,,,,,,,,,,,,,,,,,,,
,,,,,,,,2023-08-16_08h39.10.593,HF_wild_card,2022.2.4,Win32,4.000288021,64874ebb817e22a5cb2f325f,64d2fd46c836a06233681665,64dc7cd28eba779b58e2ece4,,,,,,,sngl,resources/Empty.png,resources/DBN.BMP,Door1,0.400646204,0.096122779,1,0,0,3.4708,optionRight,30,4370,2,38,0,38,0,1,,,,,,,,,,,,,,,,,,,,,,,,,,,,,,,,,,,,,,,
,,,,,,,,2023-08-16_08h39.10.593,HF_wild_card,2022.2.4,Win32,4.000288021,64874ebb817e22a5cb2f325f,64d2fd46c836a06233681665,64dc7cd28eba779b58e2ece4,,,,,,,decisionTrl,resources/DBN.BMP,resources/DP.BMP,WildCard_NonEx,0.423263328,0.026655897,1,0,0,2.4367,optionRight,45,4415,2,39,0,39,0,1,,,,,,,,,,,,,,,,,,,,,,,,,,,,,,,,,,,,,,,
,,,,,,,,2023-08-16_08h39.10.593,HF_wild_card,2022.2.4,Win32,4.000288021,64874ebb817e22a5cb2f325f,64d2fd46c836a06233681665,64dc7cd28eba779b58e2ece4,,,,,,,decisionTrl,resources/DBN.BMP,resources/DG.BMP,Door1,-0.411954766,0.115508885,1,0,0,6.4451,optionLeft,30,4445,2,40,0,40,0,1,,,,,,,,,,,,,,,,,,,,,,,,,,,,,,,,,,,,,,,
,,,,,,,,2023-08-16_08h39.10.593,HF_wild_card,2022.2.4,Win32,4.000288021,64874ebb817e22a5cb2f325f,64d2fd46c836a06233681665,64dc7cd28eba779b58e2ece4,,,,,,,ctch,resources/DG.BMP,resources/DR.BMP,Door3,0.389337641,0.06542811,1,0,0,8.9631,optionRight,70,4515,2,41,0,41,0,1,,,,,,,,,,,,,,,,,,,,,,,,,,,,,,,,,,,,,,,
,,,,,,,,2023-08-16_08h39.10.593,HF_wild_card,2022.2.4,Win32,4.000288021,64874ebb817e22a5cb2f325f,64d2fd46c836a06233681665,64dc7cd28eba779b58e2ece4,,,,,,,decisionTrl,resources/DG.BMP,resources/DP.BMP,WildCard_NonEx,0.402261712,0.013731826,1,0,0,9.9514,optionRight,55,4570,2,42,0,42,0,1,,,,,,,,,,,,,,,,,,,,,,,,,,,,,,,,,,,,,,,
,,,,,,,,2023-08-16_08h39.10.593,HF_wild_card,2022.2.4,Win32,4.000288021,64874ebb817e22a5cb2f325f,64d2fd46c836a06233681665,64dc7cd28eba779b58e2ece4,,,,,,,ctch,resources/DY.BMP,resources/DBN.BMP,Door4,-0.397415186,0.033117932,1,0,0,10.0346,optionLeft,60,4630,2,43,0,43,0,1,,,,,,,,,,,,,,,,,,,,,,,,,,,,,,,,,,,,,,,
,,,,,,,,2023-08-16_08h39.10.593,HF_wild_card,2022.2.4,Win32,4.000288021,64874ebb817e22a5cb2f325f,64d2fd46c836a06233681665,64dc7cd28eba779b58e2ece4,,,,,,,,,,,,,,,,,,,,,,,,,,1,0,1,0,1,,,,,,,,,,,,,,,,,,,,,,,,,,,,,,,,,,
,,,,,,,,2023-08-16_08h39.10.593,HF_wild_card,2022.2.4,Win32,4.000288021,64874ebb817e22a5cb2f325f,64d2fd46c836a06233681665,64dc7cd28eba779b58e2ece4,,,,,,,sngl,resources/Empty.png,resources/DR.BMP,Door3,0.389337641,0.016962843,1,0,0,2.5845,optionRight,70,4700,3,0,0,0,0,1,,,,,,,,,,,,,,,,,,,,,,,,,,,,,,,,,,,,,,,
,,,,,,,,2023-08-16_08h39.10.593,HF_wild_card,2022.2.4,Win32,4.000288021,64874ebb817e22a5cb2f325f,64d2fd46c836a06233681665,64dc7cd28eba779b58e2ece4,,,,,,,decisionTrl,resources/DBN.BMP,resources/DG.BMP,Door1,-0.408723748,0.013731826,1,0,0,10.2701,optionLeft,30,4730,3,1,0,1,0,1,,,,,,,,,,,,,,,,,,,,,,,,,,,,,,,,,,,,,,,
,,,,,,,,2023-08-16_08h39.10.593,HF_wild_card,2022.2.4,Win32,4.000288021,64874ebb817e22a5cb2f325f,64d2fd46c836a06233681665,64dc7cd28eba779b58e2ece4,,,,,,,decisionTrl,resources/DY.BMP,resources/DR.BMP,Door3,0.386106624,0.062197092,1,0,0,14.8033,optionRight,70,4800,3,2,0,2,0,1,,,,,,,,,,,,,,,,,,,,,,,,,,,,,,,,,,,,,,,
,,,,,,,,2023-08-16_08h39.10.593,HF_wild_card,2022.2.4,Win32,4.000288021,64874ebb817e22a5cb2f325f,64d2fd46c836a06233681665,64dc7cd28eba779b58e2ece4,,,,,,,sngl,resources/Empty.png,resources/DG.BMP,Door2,0.42003231,0.028271405,1,0,0,4.9448,optionRight,20,4820,3,3,0,3,0,1,,,,,,,,,,,,,,,,,,,,,,,,,,,,,,,,,,,,,,,
,,,,,,,,2023-08-16_08h39.10.593,HF_wild_card,2022.2.4,Win32,4.000288021,64874ebb817e22a5cb2f325f,64d2fd46c836a06233681665,64dc7cd28eba779b58e2ece4,,,,,,,decisionTrl,resources/DG.BMP,resources/DBN.BMP,Door1,0.389337641,0.015347334,1,0,0,5.8244,optionRight,30,4850,3,4,0,4,0,1,,,,,,,,,,,,,,,,,,,,,,,,,,,,,,,,,,,,,,,
,,,,,,,,2023-08-16_08h39.10.593,HF_wild_card,2022.2.4,Win32,4.000288021,64874ebb817e22a5cb2f325f,64d2fd46c836a06233681665,64dc7cd28eba779b58e2ece4,,,,,,,sngl,resources/DP.BMP,resources/Empty.png,WildCard_NonEx,0.003231018,0.000807754,1,0,0,0.9889,optionLeft,55,4905,3,5,0,5,0,1,,,,,,,,,,,,,,,,,,,,,,,,,,,,,,,,,,,,,,,
,,,,,,,,2023-08-16_08h39.10.593,HF_wild_card,2022.2.4,Win32,4.000288021,64874ebb817e22a5cb2f325f,64d2fd46c836a06233681665,64dc7cd28eba779b58e2ece4,,,,,,,sngl,resources/DY.BMP,resources/Empty.png,Door4,-0.387722132,0.034733441,1,0,0,2.6564,optionLeft,80,4985,3,6,0,6,0,1,,,,,,,,,,,,,,,,,,,,,,,,,,,,,,,,,,,,,,,
,,,,,,,,2023-08-16_08h39.10.593,HF_wild_card,2022.2.4,Win32,4.000288021,64874ebb817e22a5cb2f325f,64d2fd46c836a06233681665,64dc7cd28eba779b58e2ece4,,,,,,,sngl,resources/DP.BMP,resources/Empty.png,WildCard_NonEx,-0.403877221,0.008885299,1,0,0,3.8959,optionLeft,45,5030,3,7,0,7,0,1,,,,,,,,,,,,,,,,,,,,,,,,,,,,,,,,,,,,,,,
,,,,,,,,2023-08-16_08h39.10.593,HF_wild_card,2022.2.4,Win32,4.000288021,64874ebb817e22a5cb2f325f,64d2fd46c836a06233681665,64dc7cd28eba779b58e2ece4,,,,,,,ctch,resources/DY.BMP,resources/DBN.BMP,Door4,-0.389337641,0.033117932,1,0,0,2.0307,optionLeft,80,5110,3,8,0,8,0,1,,,,,,,,,,,,,,,,,,,,,,,,,,,,,,,,,,,,,,,
,,,,,,,,2023-08-16_08h39.10.593,HF_wild_card,2022.2.4,Win32,4.000288021,64874ebb817e22a5cb2f325f,64d2fd46c836a06233681665,64dc7cd28eba779b58e2ece4,,,,,,,decisionTrl,resources/DBN.BMP,resources/DG.BMP,Door2,0.431340872,0.020193861,1,0,0,2.2707,optionRight,40,5150,3,9,0,9,0,1,,,,,,,,,,,,,,,,,,,,,,,,,,,,,,,,,,,,,,,
,,,,,,,,2023-08-16_08h39.10.593,HF_wild_card,2022.2.4,Win32,4.000288021,64874ebb817e22a5cb2f325f,64d2fd46c836a06233681665,64dc7cd28eba779b58e2ece4,,,,,,,decisionTrl,resources/DBN.BMP,resources/DP.BMP,WildCard_NonEx,0.40549273,0.00726979,1,0,0,9.7659,optionRight,45,5195,3,10,0,10,0,1,,,,,,,,,,,,,,,,,,,,,,,,,,,,,,,,,,,,,,,
,,,,,,,,2023-08-16_08h39.10.593,HF_wild_card,2022.2.4,Win32,4.000288021,64874ebb817e22a5cb2f325f,64d2fd46c836a06233681665,64dc7cd28eba779b58e2ece4,,,,,,,ctch,resources/DG.BMP,resources/DR.BMP,Door3,0.386106624,0.015347334,1,0,0,5.8014,optionRight,70,5265,3,11,0,11,0,1,,,,,,,,,,,,,,,,,,,,,,,,,,,,,,,,,,,,,,,
,,,,,,,,2023-08-16_08h39.10.593,HF_wild_card,2022.2.4,Win32,4.000288021,64874ebb817e22a5cb2f325f,64d2fd46c836a06233681665,64dc7cd28eba779b58e2ece4,,,,,,,decisionTrl,resources/DR.BMP,resources/DY.BMP,Door4,0.411954766,0.031502423,1,0,0,2.6602,optionRight,60,5325,3,12,0,12,0,1,,,,,,,,,,,,,,,,,,,,,,,,,,,,,,,,,,,,,,,
,,,,,,,,2023-08-16_08h39.10.593,HF_wild_card,2022.2.4,Win32,4.000288021,64874ebb817e22a5cb2f325f,64d2fd46c836a06233681665,64dc7cd28eba779b58e2ece4,,,,,,,decisionTrl,resources/DP.BMP,resources/DY.BMP,Door4,0.415185784,0.03634895,1,0,0,2.5876,optionRight,80,5405,3,13,0,13,0,1,,,,,,,,,,,,,,,,,,,,,,,,,,,,,,,,,,,,,,,
,,,,,,,,2023-08-16_08h39.10.593,HF_wild_card,2022.2.4,Win32,4.000288021,64874ebb817e22a5cb2f325f,64d2fd46c836a06233681665,64dc7cd28eba779b58e2ece4,,,,,,,sngl,resources/DR.BMP,resources/Empty.png,Door3,-0.399030695,-0.03634895,1,0,0,3.7608,optionLeft,70,5475,3,14,0,14,0,1,,,,,,,,,,,,,,,,,,,,,,,,,,,,,,,,,,,,,,,
,,,,,,,,2023-08-16_08h39.10.593,HF_wild_card,2022.2.4,Win32,4.000288021,64874ebb817e22a5cb2f325f,64d2fd46c836a06233681665,64dc7cd28eba779b58e2ece4,,,,,,,sngl,resources/Empty.png,resources/DP.BMP,WildCard_NonEx,0.415185784,0.004038772,1,0,0,15.9204,optionRight,45,5520,3,15,0,15,0,1,,,,,,,,,,,,,,,,,,,,,,,,,,,,,,,,,,,,,,,
,,,,,,,,2023-08-16_08h39.10.593,HF_wild_card,2022.2.4,Win32,4.000288021,64874ebb817e22a5cb2f325f,64d2fd46c836a06233681665,64dc7cd28eba779b58e2ece4,,,,,,,decisionTrl,resources/DR.BMP,resources/DY.BMP,Door4,0.408723748,0.033117932,1,0,0,4.9073,optionRight,60,5580,3,16,0,16,0,1,,,,,,,,,,,,,,,,,,,,,,,,,,,,,,,,,,,,,,,
,,,,,,,,2023-08-16_08h39.10.593,HF_wild_card,2022.2.4,Win32,4.000288021,64874ebb817e22a5cb2f325f,64d2fd46c836a06233681665,64dc7cd28eba779b58e2ece4,,,,,,,ctch,resources/DBN.BMP,resources/DY.BMP,Door4,0.407108239,0.028271405,1,0,0,3.4829,optionRight,60,5640,3,17,0,17,0,1,,,,,,,,,,,,,,,,,,,,,,,,,,,,,,,,,,,,,,,
,,,,,,,,2023-08-16_08h39.10.593,HF_wild_card,2022.2.4,Win32,4.000288021,64874ebb817e22a5cb2f325f,64d2fd46c836a06233681665,64dc7cd28eba779b58e2ece4,,,,,,,sngl,resources/Empty.png,resources/DP.BMP,WildCard_NonEx,0.386106624,0.010500808,1,0,0,1.851,optionRight,55,5695,3,18,0,18,0,1,,,,,,,,,,,,,,,,,,,,,,,,,,,,,,,,,,,,,,,
,,,,,,,,2023-08-16_08h39.10.593,HF_wild_card,2022.2.4,Win32,4.000288021,64874ebb817e22a5cb2f325f,64d2fd46c836a06233681665,64dc7cd28eba779b58e2ece4,,,,,,,sngl,resources/DG.BMP,resources/Empty.png,Door2,-0.395799677,0.046042003,1,0,0,1.9141,optionLeft,40,5735,3,19,0,19,0,1,,,,,,,,,,,,,,,,,,,,,,,,,,,,,,,,,,,,,,,
,,,,,,,,2023-08-16_08h39.10.593,HF_wild_card,2022.2.4,Win32,4.000288021,64874ebb817e22a5cb2f325f,64d2fd46c836a06233681665,64dc7cd28eba779b58e2ece4,,,,,,,sngl,resources/DBN.BMP,resources/Empty.png,Door1,-0.421647819,0.015347334,1,0,0,6.1421,optionLeft,30,5765,3,20,0,20,0,1,,,,,,,,,,,,,,,,,,,,,,,,,,,,,,,,,,,,,,,
,,,,,,,,2023-08-16_08h39.10.593,HF_wild_card,2022.2.4,Win32,4.000288021,64874ebb817e22a5cb2f325f,64d2fd46c836a06233681665,64dc7cd28eba779b58e2ece4,,,,,,,decisionTrl,resources/DG.BMP,resources/DBN.BMP,Door2,-0.37641357,0.026655897,1,0,0,4.6516,optionLeft,20,5785,3,21,0,21,0,1,,,,,,,,,,,,,,,,,,,,,,,,,,,,,,,,,,,,,,,
,,,,,,,,2023-08-16_08h39.10.593,HF_wild_card,2022.2.4,Win32,4.000288021,64874ebb817e22a5cb2f325f,64d2fd46c836a06233681665,64dc7cd28eba779b58e2ece4,,,,,,,decisionTrl,resources/DY.BMP,resources/DP.BMP,Door4,-0.394184168,0.03634895,1,0,0,8.5514,optionLeft,80,5865,3,22,0,22,0,1,,,,,,,,,,,,,,,,,,,,,,,,,,,,,,,,,,,,,,,
,,,,,,,,2023-08-16_08h39.10.593,HF_wild_card,2022.2.4,Win32,4.000288021,64874ebb817e22a5cb2f325f,64d2fd46c836a06233681665,64dc7cd28eba779b58e2ece4,,,,,,,decisionTrl,resources/DR.BMP,resources/DP.BMP,Door3,-0.40549273,-0.039579968,1,0,0,1.7436,optionLeft,70,5935,3,23,0,23,0,1,,,,,,,,,,,,,,,,,,,,,,,,,,,,,,,,,,,,,,,
,,,,,,,,2023-08-16_08h39.10.593,HF_wild_card,2022.2.4,Win32,4.000288021,64874ebb817e22a5cb2f325f,64d2fd46c836a06233681665,64dc7cd28eba779b58e2ece4,,,,,,,decisionTrl,resources/DBN.BMP,resources/DG.BMP,Door1,-0.397415186,0.054119548,1,0,0,3.7664,optionLeft,30,5965,3,24,0,24,0,1,,,,,,,,,,,,,,,,,,,,,,,,,,,,,,,,,,,,,,,
,,,,,,,,2023-08-16_08h39.10.593,HF_wild_card,2022.2.4,Win32,4.000288021,64874ebb817e22a5cb2f325f,64d2fd46c836a06233681665,64dc7cd28eba779b58e2ece4,,,,,,,decisionTrl,resources/DY.BMP,resources/DR.BMP,Door4,-0.394184168,0.044426494,1,0,0,5.059,optionLeft,80,6045,3,25,0,25,0,1,,,,,,,,,,,,,,,,,,,,,,,,,,,,,,,,,,,,,,,
,,,,,,,,2023-08-16_08h39.10.593,HF_wild_card,2022.2.4,Win32,4.000288021,64874ebb817e22a5cb2f325f,64d2fd46c836a06233681665,64dc7cd28eba779b58e2ece4,,,,,,,decisionTrl,resources/DG.BMP,resources/DBN.BMP,Door1,0.394184168,0.018578352,1,0,0,6.0211,optionRight,30,6075,3,26,0,26,0,1,,,,,,,,,,,,,,,,,,,,,,,,,,,,,,,,,,,,,,,
,,,,,,,,2023-08-16_08h39.10.593,HF_wild_card,2022.2.4,Win32,4.000288021,64874ebb817e22a5cb2f325f,64d2fd46c836a06233681665,64dc7cd28eba779b58e2ece4,,,,,,,ctch,resources/DG.BMP,resources/DR.BMP,Door3,0.436187399,0.034733441,1,0,0,2.6152,optionRight,70,6145,3,27,0,27,0,1,,,,,,,,,,,,,,,,,,,,,,,,,,,,,,,,,,,,,,,
,,,,,,,,2023-08-16_08h39.10.593,HF_wild_card,2022.2.4,Win32,4.000288021,64874ebb817e22a5cb2f325f,64d2fd46c836a06233681665,64dc7cd28eba779b58e2ece4,,,,,,,decisionTrl,resources/DP.BMP,resources/DBN.BMP,WildCard_NonEx,-0.40549273,0.002423263,1,0,0,3.6639,optionLeft,55,6200,3,28,0,28,0,1,,,,,,,,,,,,,,,,,,,,,,,,,,,,,,,,,,,,,,,
,,,,,,,,2023-08-16_08h39.10.593,HF_wild_card,2022.2.4,Win32,4.000288021,64874ebb817e22a5cb2f325f,64d2fd46c836a06233681665,64dc7cd28eba779b58e2ece4,,,,,,,decisionTrl,resources/DP.BMP,resources/DG.BMP,WildCard_NonEx,-0.39095315,-0.002423263,1,0,0,5.6112,optionLeft,55,6255,3,29,0,29,0,1,,,,,,,,,,,,,,,,,,,,,,,,,,,,,,,,,,,,,,,
,,,,,,,,2023-08-16_08h39.10.593,HF_wild_card,2022.2.4,Win32,4.000288021,64874ebb817e22a5cb2f325f,64d2fd46c836a06233681665,64dc7cd28eba779b58e2ece4,,,,,,,ctch,resources/DR.BMP,resources/DG.BMP,Door3,-0.403877221,-0.031502423,1,0,0,2.414,optionLeft,70,6325,3,30,0,30,0,1,,,,,,,,,,,,,,,,,,,,,,,,,,,,,,,,,,,,,,,
,,,,,,,,2023-08-16_08h39.10.593,HF_wild_card,2022.2.4,Win32,4.000288021,64874ebb817e22a5cb2f325f,64d2fd46c836a06233681665,64dc7cd28eba779b58e2ece4,,,,,,,sngl,resources/Empty.png,resources/DBN.BMP,Door1,0.413570275,0.100969305,1,0,0,1.6449,optionRight,30,6355,3,31,0,31,0,1,,,,,,,,,,,,,,,,,,,,,,,,,,,,,,,,,,,,,,,
,,,,,,,,2023-08-16_08h39.10.593,HF_wild_card,2022.2.4,Win32,4.000288021,64874ebb817e22a5cb2f325f,64d2fd46c836a06233681665,64dc7cd28eba779b58e2ece4,,,,,,,decisionTrl,resources/DY.BMP,resources/DR.BMP,Door4,-0.403877221,0.034733441,1,0,0,2.3544,optionLeft,80,6435,3,32,0,32,0,1,,,,,,,,,,,,,,,,,,,,,,,,,,,,,,,,,,,,,,,
,,,,,,,,2023-08-16_08h39.10.593,HF_wild_card,2022.2.4,Win32,4.000288021,64874ebb817e22a5cb2f325f,64d2fd46c836a06233681665,64dc7cd28eba779b58e2ece4,,,,,,,decisionTrl,resources/DP.BMP,resources/DR.BMP,Door3,0.389337641,0.063812601,1,0,0,9.4551,optionRight,70,6505,3,33,0,33,0,1,,,,,,,,,,,,,,,,,,,,,,,,,,,,,,,,,,,,,,,
,,,,,,,,2023-08-16_08h39.10.593,HF_wild_card,2022.2.4,Win32,4.000288021,64874ebb817e22a5cb2f325f,64d2fd46c836a06233681665,64dc7cd28eba779b58e2ece4,,,,,,,decisionTrl,resources/DY.BMP,resources/DR.BMP,Door4,-0.400646204,0.031502423,1,0,0,4.9806,optionLeft,60,6565,3,34,0,34,0,1,,,,,,,,,,,,,,,,,,,,,,,,,,,,,,,,,,,,,,,
,,,,,,,,2023-08-16_08h39.10.593,HF_wild_card,2022.2.4,Win32,4.000288021,64874ebb817e22a5cb2f325f,64d2fd46c836a06233681665,64dc7cd28eba779b58e2ece4,,,,,,,ctch,resources/DR.BMP,resources/DG.BMP,Door3,-0.410339257,-0.02180937,1,0,0,2.3228,optionLeft,70,6635,3,35,0,35,0,1,,,,,,,,,,,,,,,,,,,,,,,,,,,,,,,,,,,,,,,
,,,,,,,,2023-08-16_08h39.10.593,HF_wild_card,2022.2.4,Win32,4.000288021,64874ebb817e22a5cb2f325f,64d2fd46c836a06233681665,64dc7cd28eba779b58e2ece4,,,,,,,decisionTrl,resources/DR.BMP,resources/DY.BMP,Door3,-0.411954766,0.005654281,1,0,0,9.0928,optionLeft,70,6705,3,36,0,36,0,1,,,,,,,,,,,,,,,,,,,,,,,,,,,,,,,,,,,,,,,
,,,,,,,,2023-08-16_08h39.10.593,HF_wild_card,2022.2.4,Win32,4.000288021,64874ebb817e22a5cb2f325f,64d2fd46c836a06233681665,64dc7cd28eba779b58e2ece4,,,,,,,decisionTrl,resources/DR.BMP,resources/DY.BMP,Door4,0.407108239,0.033117932,1,0,0,2.8654,optionRight,60,6765,3,37,0,37,0,1,,,,,,,,,,,,,,,,,,,,,,,,,,,,,,,,,,,,,,,
,,,,,,,,2023-08-16_08h39.10.593,HF_wild_card,2022.2.4,Win32,4.000288021,64874ebb817e22a5cb2f325f,64d2fd46c836a06233681665,64dc7cd28eba779b58e2ece4,,,,,,,decisionTrl,resources/DBN.BMP,resources/DG.BMP,Door1,-0.408723748,0.004038772,1,0,0,7.883,optionLeft,30,6795,3,38,0,38,0,1,,,,,,,,,,,,,,,,,,,,,,,,,,,,,,,,,,,,,,,
,,,,,,,,2023-08-16_08h39.10.593,HF_wild_card,2022.2.4,Win32,4.000288021,64874ebb817e22a5cb2f325f,64d2fd46c836a06233681665,64dc7cd28eba779b58e2ece4,,,,,,,sngl,resources/Empty.png,resources/DY.BMP,Door4,0.408723748,0.029886914,1,0,0,5.072,optionRight,60,6855,3,39,0,39,0,1,,,,,,,,,,,,,,,,,,,,,,,,,,,,,,,,,,,,,,,
,,,,,,,,2023-08-16_08h39.10.593,HF_wild_card,2022.2.4,Win32,4.000288021,64874ebb817e22a5cb2f325f,64d2fd46c836a06233681665,64dc7cd28eba779b58e2ece4,,,,,,,ctch,resources/DY.BMP,resources/DBN.BMP,Door4,-0.394184168,0.037964459,1,0,0,9.8809,optionLeft,60,6915,3,40,0,40,0,1,,,,,,,,,,,,,,,,,,,,,,,,,,,,,,,,,,,,,,,
,,,,,,,,2023-08-16_08h39.10.593,HF_wild_card,2022.2.4,Win32,4.000288021,64874ebb817e22a5cb2f325f,64d2fd46c836a06233681665,64dc7cd28eba779b58e2ece4,,,,,,,decisionTrl,resources/DG.BMP,resources/DBN.BMP,Door1,0.397415186,0.105815832,1,0,0,3.6047,optionRight,30,6945,3,41,0,41,0,1,,,,,,,,,,,,,,,,,,,,,,,,,,,,,,,,,,,,,,,
,,,,,,,,2023-08-16_08h39.10.593,HF_wild_card,2022.2.4,Win32,4.000288021,64874ebb817e22a5cb2f325f,64d2fd46c836a06233681665,64dc7cd28eba779b58e2ece4,,,,,,,ctch,resources/DBN.BMP,resources/DY.BMP,Door4,0.402261712,0.033117932,1,0,0,10.1894,optionRight,60,7005,3,42,0,42,0,1,,,,,,,,,,,,,,,,,,,,,,,,,,,,,,,,,,,,,,,
,,,,,,,,2023-08-16_08h39.10.593,HF_wild_card,2022.2.4,Win32,4.000288021,64874ebb817e22a5cb2f325f,64d2fd46c836a06233681665,64dc7cd28eba779b58e2ece4,,,,,,,decisionTrl,resources/DG.BMP,resources/DP.BMP,WildCard_NonEx,0.399030695,0.012116317,1,0,0,5.0549,optionRight,55,7060,3,43,0,43,0,1,,,,,,,,,,,,,,,,,,,,,,,,,,,,,,,,,,,,,,,
,,,,,,,,2023-08-16_08h39.10.593,HF_wild_card,2022.2.4,Win32,4.000288021,64874ebb817e22a5cb2f325f,64d2fd46c836a06233681665,64dc7cd28eba779b58e2ece4,,,,,,,,,,,,,,,,,,,,,,,,,,2,0,2,0,1,,,,,,,,,,,,,,,,,,,,,,,,,,,,,,,,,,
,,,,,,,,2023-08-16_08h39.10.593,HF_wild_card,2022.2.4,Win32,4.000288021,64874ebb817e22a5cb2f325f,64d2fd46c836a06233681665,64dc7cd28eba779b58e2ece4,,,,,,,decisionTrl,resources/DY.BMP,resources/DB.BMP,WildCard_Ex,0.397415186,-0.042810985,1,0,0,6.1486,optionRight,45,7105,4,0,0,0,0,1,,,,,,,,,,,,,,,,,,,,,,,,,,,,,,,,,,,,,,,
,,,,,,,,2023-08-16_08h39.10.593,HF_wild_card,2022.2.4,Win32,4.000288021,64874ebb817e22a5cb2f325f,64d2fd46c836a06233681665,64dc7cd28eba779b58e2ece4,,,,,,,decisionTrl,resources/DBN.BMP,resources/DG.BMP,Door2,0.421647819,0.037964459,1,0,0,2.8553,optionRight,40,7145,4,1,0,1,0,1,,,,,,,,,,,,,,,,,,,,,,,,,,,,,,,,,,,,,,,
,,,,,,,,2023-08-16_08h39.10.593,HF_wild_card,2022.2.4,Win32,4.000288021,64874ebb817e22a5cb2f325f,64d2fd46c836a06233681665,64dc7cd28eba779b58e2ece4,,,,,,,sngl,resources/Empty.png,resources/DB.BMP,WildCard_Ex,0.397415186,-0.013731826,1,0,0,2.2484,optionRight,55,7200,4,2,0,2,0,1,,,,,,,,,,,,,,,,,,,,,,,,,,,,,,,,,,,,,,,
,,,,,,,,2023-08-16_08h39.10.593,HF_wild_card,2022.2.4,Win32,4.000288021,64874ebb817e22a5cb2f325f,64d2fd46c836a06233681665,64dc7cd28eba779b58e2ece4,,,,,,,decisionTrl,resources/DBN.BMP,resources/DG.BMP,Door2,0.413570275,0.026655897,1,0,0,5.2041,optionRight,40,7240,4,3,0,3,0,1,,,,,,,,,,,,,,,,,,,,,,,,,,,,,,,,,,,,,,,
,,,,,,,,2023-08-16_08h39.10.593,HF_wild_card,2022.2.4,Win32,4.000288021,64874ebb817e22a5cb2f325f,64d2fd46c836a06233681665,64dc7cd28eba779b58e2ece4,,,,,,,sngl,resources/Empty.png,resources/DBN.BMP,Door1,0.387722132,0.013731826,1,0,0,6.3005,optionRight,30,7270,4,4,0,4,0,1,,,,,,,,,,,,,,,,,,,,,,,,,,,,,,,,,,,,,,,
,,,,,,,,2023-08-16_08h39.10.593,HF_wild_card,2022.2.4,Win32,4.000288021,64874ebb817e22a5cb2f325f,64d2fd46c836a06233681665,64dc7cd28eba779b58e2ece4,,,,,,,decisionTrl,resources/DG.BMP,resources/DBN.BMP,Door2,-0.382875606,0.031502423,1,0,0,8.5256,optionLeft,20,7290,4,5,0,5,0,1,,,,,,,,,,,,,,,,,,,,,,,,,,,,,,,,,,,,,,,
,,,,,,,,2023-08-16_08h39.10.593,HF_wild_card,2022.2.4,Win32,4.000288021,64874ebb817e22a5cb2f325f,64d2fd46c836a06233681665,64dc7cd28eba779b58e2ece4,,,,,,,decisionTrl,resources/DBN.BMP,resources/DG.BMP,Door2,0.432956381,0.026655897,1,0,0,2.9797,optionRight,40,7330,4,6,0,6,0,1,,,,,,,,,,,,,,,,,,,,,,,,,,,,,,,,,,,,,,,
,,,,,,,,2023-08-16_08h39.10.593,HF_wild_card,2022.2.4,Win32,4.000288021,64874ebb817e22a5cb2f325f,64d2fd46c836a06233681665,64dc7cd28eba779b58e2ece4,,,,,,,decisionTrl,resources/DB.BMP,resources/DR.BMP,Door3,0.387722132,0.058966074,1,0,0,4.078,optionRight,70,7400,4,7,0,7,0,1,,,,,,,,,,,,,,,,,,,,,,,,,,,,,,,,,,,,,,,
,,,,,,,,2023-08-16_08h39.10.593,HF_wild_card,2022.2.4,Win32,4.000288021,64874ebb817e22a5cb2f325f,64d2fd46c836a06233681665,64dc7cd28eba779b58e2ece4,,,,,,,ctch,resources/DG.BMP,resources/DR.BMP,Door3,0.389337641,0.060581583,1,0,0,3.5201,optionRight,70,7470,4,8,0,8,0,1,,,,,,,,,,,,,,,,,,,,,,,,,,,,,,,,,,,,,,,
,,,,,,,,2023-08-16_08h39.10.593,HF_wild_card,2022.2.4,Win32,4.000288021,64874ebb817e22a5cb2f325f,64d2fd46c836a06233681665,64dc7cd28eba779b58e2ece4,,,,,,,decisionTrl,resources/DBN.BMP,resources/DG.BMP,Door2,0.445880452,0.028271405,1,0,0,3.587,optionRight,40,7510,4,9,0,9,0,1,,,,,,,,,,,,,,,,,,,,,,,,,,,,,,,,,,,,,,,
,,,,,,,,2023-08-16_08h39.10.593,HF_wild_card,2022.2.4,Win32,4.000288021,64874ebb817e22a5cb2f325f,64d2fd46c836a06233681665,64dc7cd28eba779b58e2ece4,,,,,,,ctch,resources/DBN.BMP,resources/DY.BMP,Door4,0.408723748,0.025040388,1,0,0,2.5882,optionRight,60,7570,4,10,0,10,0,1,,,,,,,,,,,,,,,,,,,,,,,,,,,,,,,,,,,,,,,
,,,,,,,,2023-08-16_08h39.10.593,HF_wild_card,2022.2.4,Win32,4.000288021,64874ebb817e22a5cb2f325f,64d2fd46c836a06233681665,64dc7cd28eba779b58e2ece4,,,,,,,ctch,resources/DY.BMP,resources/DBN.BMP,Door1,0.392568659,0.084814216,1,0,0,3.3331,optionRight,30,7600,4,11,0,11,0,1,,,,,,,,,,,,,,,,,,,,,,,,,,,,,,,,,,,,,,,
,,,,,,,,2023-08-16_08h39.10.593,HF_wild_card,2022.2.4,Win32,4.000288021,64874ebb817e22a5cb2f325f,64d2fd46c836a06233681665,64dc7cd28eba779b58e2ece4,,,,,,,decisionTrl,resources/DBN.BMP,resources/DB.BMP,WildCard_Ex,0.392568659,-0.012116317,1,0,0,3.7208,optionRight,55,7655,4,12,0,12,0,1,,,,,,,,,,,,,,,,,,,,,,,,,,,,,,,,,,,,,,,
,,,,,,,,2023-08-16_08h39.10.593,HF_wild_card,2022.2.4,Win32,4.000288021,64874ebb817e22a5cb2f325f,64d2fd46c836a06233681665,64dc7cd28eba779b58e2ece4,,,,,,,decisionTrl,resources/DY.BMP,resources/DR.BMP,Door3,0.369951535,0.037964459,1,0,0,2.6545,optionRight,70,7725,4,13,0,13,0,1,,,,,,,,,,,,,,,,,,,,,,,,,,,,,,,,,,,,,,,
,,,,,,,,2023-08-16_08h39.10.593,HF_wild_card,2022.2.4,Win32,4.000288021,64874ebb817e22a5cb2f325f,64d2fd46c836a06233681665,64dc7cd28eba779b58e2ece4,,,,,,,ctch,resources/DG.BMP,resources/DR.BMP,Door3,0.357027464,0.034733441,1,0,0,2.3158,optionRight,70,7795,4,14,0,14,0,1,,,,,,,,,,,,,,,,,,,,,,,,,,,,,,,,,,,,,,,
,,,,,,,,2023-08-16_08h39.10.593,HF_wild_card,2022.2.4,Win32,4.000288021,64874ebb817e22a5cb2f325f,64d2fd46c836a06233681665,64dc7cd28eba779b58e2ece4,,,,,,,decisionTrl,resources/DR.BMP,resources/DY.BMP,Door4,0.40549273,0.026655897,1,0,0,7.8587,optionRight,60,7855,4,15,0,15,0,1,,,,,,,,,,,,,,,,,,,,,,,,,,,,,,,,,,,,,,,
,,,,,,,,2023-08-16_08h39.10.593,HF_wild_card,2022.2.4,Win32,4.000288021,64874ebb817e22a5cb2f325f,64d2fd46c836a06233681665,64dc7cd28eba779b58e2ece4,,,,,,,sngl,resources/Empty.png,resources/DG.BMP,Door2,0.411954766,0.013731826,1,0,0,4.4275,optionRight,40,7895,4,16,0,16,0,1,,,,,,,,,,,,,,,,,,,,,,,,,,,,,,,,,,,,,,,
,,,,,,,,2023-08-16_08h39.10.593,HF_wild_card,2022.2.4,Win32,4.000288021,64874ebb817e22a5cb2f325f,64d2fd46c836a06233681665,64dc7cd28eba779b58e2ece4,,,,,,,decisionTrl,resources/DR.BMP,resources/DY.BMP,Door3,-0.399030695,0.060581583,1,0,0,2.2417,optionLeft,70,7965,4,17,0,17,0,1,,,,,,,,,,,,,,,,,,,,,,,,,,,,,,,,,,,,,,,
,,,,,,,,2023-08-16_08h39.10.593,HF_wild_card,2022.2.4,Win32,4.000288021,64874ebb817e22a5cb2f325f,64d2fd46c836a06233681665,64dc7cd28eba779b58e2ece4,,,,,,,decisionTrl,resources/DG.BMP,resources/DBN.BMP,Door2,-0.387722132,0.037964459,1,0,0,7.3783,optionLeft,40,8005,4,18,0,18,0,1,,,,,,,,,,,,,,,,,,,,,,,,,,,,,,,,,,,,,,,
,,,,,,,,2023-08-16_08h39.10.593,HF_wild_card,2022.2.4,Win32,4.000288021,64874ebb817e22a5cb2f325f,64d2fd46c836a06233681665,64dc7cd28eba779b58e2ece4,,,,,,,sngl,resources/Empty.png,resources/DR.BMP,Door3,0.384491115,0.023424879,1,0,0,3.5602,optionRight,70,8075,4,19,0,19,0,1,,,,,,,,,,,,,,,,,,,,,,,,,,,,,,,,,,,,,,,
,,,,,,,,2023-08-16_08h39.10.593,HF_wild_card,2022.2.4,Win32,4.000288021,64874ebb817e22a5cb2f325f,64d2fd46c836a06233681665,64dc7cd28eba779b58e2ece4,,,,,,,sngl,resources/Empty.png,resources/DB.BMP,WildCard_Ex,0.387722132,-0.020193861,1,0,0,1.8079,optionRight,45,8120,4,20,0,20,0,1,,,,,,,,,,,,,,,,,,,,,,,,,,,,,,,,,,,,,,,
,,,,,,,,2023-08-16_08h39.10.593,HF_wild_card,2022.2.4,Win32,4.000288021,64874ebb817e22a5cb2f325f,64d2fd46c836a06233681665,64dc7cd28eba779b58e2ece4,,,,,,,sngl,resources/DR.BMP,resources/Empty.png,Door3,-0.410339257,0.005654281,1,0,0,3.1273,optionLeft,70,8190,4,21,0,21,0,1,,,,,,,,,,,,,,,,,,,,,,,,,,,,,,,,,,,,,,,
,,,,,,,,2023-08-16_08h39.10.593,HF_wild_card,2022.2.4,Win32,4.000288021,64874ebb817e22a5cb2f325f,64d2fd46c836a06233681665,64dc7cd28eba779b58e2ece4,,,,,,,ctch,resources/DBN.BMP,resources/DY.BMP,Door4,0.408723748,0.037964459,1,0,0,2.0064,optionRight,60,8250,4,22,0,22,0,1,,,,,,,,,,,,,,,,,,,,,,,,,,,,,,,,,,,,,,,
,,,,,,,,2023-08-16_08h39.10.593,HF_wild_card,2022.2.4,Win32,4.000288021,64874ebb817e22a5cb2f325f,64d2fd46c836a06233681665,64dc7cd28eba779b58e2ece4,,,,,,,sngl,resources/DY.BMP,resources/Empty.png,Door4,-0.386106624,0.034733441,1,0,0,1.865,optionLeft,60,8310,4,23,0,23,0,1,,,,,,,,,,,,,,,,,,,,,,,,,,,,,,,,,,,,,,,
,,,,,,,,2023-08-16_08h39.10.593,HF_wild_card,2022.2.4,Win32,4.000288021,64874ebb817e22a5cb2f325f,64d2fd46c836a06233681665,64dc7cd28eba779b58e2ece4,,,,,,,decisionTrl,resources/DG.BMP,resources/DBN.BMP,Door2,-0.39095315,0.033117932,1,0,0,3.4545,optionLeft,20,8330,4,24,0,24,0,1,,,,,,,,,,,,,,,,,,,,,,,,,,,,,,,,,,,,,,,
,,,,,,,,2023-08-16_08h39.10.593,HF_wild_card,2022.2.4,Win32,4.000288021,64874ebb817e22a5cb2f325f,64d2fd46c836a06233681665,64dc7cd28eba779b58e2ece4,,,,,,,sngl,resources/DBN.BMP,resources/Empty.png,Door1,-0.428109855,0.03634895,1,0,0,3.3933,optionLeft,30,8360,4,25,0,25,0,1,,,,,,,,,,,,,,,,,,,,,,,,,,,,,,,,,,,,,,,
,,,,,,,,2023-08-16_08h39.10.593,HF_wild_card,2022.2.4,Win32,4.000288021,64874ebb817e22a5cb2f325f,64d2fd46c836a06233681665,64dc7cd28eba779b58e2ece4,,,,,,,decisionTrl,resources/DG.BMP,resources/DBN.BMP,Door1,0.394184168,0.000807754,1,0,0,7.1116,optionRight,30,8390,4,26,0,26,0,1,,,,,,,,,,,,,,,,,,,,,,,,,,,,,,,,,,,,,,,
,,,,,,,,2023-08-16_08h39.10.593,HF_wild_card,2022.2.4,Win32,4.000288021,64874ebb817e22a5cb2f325f,64d2fd46c836a06233681665,64dc7cd28eba779b58e2ece4,,,,,,,ctch,resources/DR.BMP,resources/DG.BMP,Door3,-0.407108239,-0.004038772,1,0,0,9.2224,optionLeft,70,8460,4,27,0,27,0,1,,,,,,,,,,,,,,,,,,,,,,,,,,,,,,,,,,,,,,,
,,,,,,,,2023-08-16_08h39.10.593,HF_wild_card,2022.2.4,Win32,4.000288021,64874ebb817e22a5cb2f325f,64d2fd46c836a06233681665,64dc7cd28eba779b58e2ece4,,,,,,,sngl,resources/DB.BMP,resources/Empty.png,WildCard_Ex,-0.411954766,0.031502423,1,0,0,11.8959,optionLeft,55,8515,4,28,0,28,0,1,,,,,,,,,,,,,,,,,,,,,,,,,,,,,,,,,,,,,,,
,,,,,,,,2023-08-16_08h39.10.593,HF_wild_card,2022.2.4,Win32,4.000288021,64874ebb817e22a5cb2f325f,64d2fd46c836a06233681665,64dc7cd28eba779b58e2ece4,,,,,,,sngl,resources/DB.BMP,resources/Empty.png,WildCard_Ex,-0.411954766,0.016962843,1,0,0,9.4629,optionLeft,45,8560,4,29,0,29,0,1,,,,,,,,,,,,,,,,,,,,,,,,,,,,,,,,,,,,,,,
,,,,,,,,2023-08-16_08h39.10.593,HF_wild_card,2022.2.4,Win32,4.000288021,64874ebb817e22a5cb2f325f,64d2fd46c836a06233681665,64dc7cd28eba779b58e2ece4,,,,,,,sngl,resources/Empty.png,resources/DY.BMP,Door4,0.400646204,0.049273021,1,0,0,1.9914,optionRight,80,8640,4,30,0,30,0,1,,,,,,,,,,,,,,,,,,,,,,,,,,,,,,,,,,,,,,,
,,,,,,,,2023-08-16_08h39.10.593,HF_wild_card,2022.2.4,Win32,4.000288021,64874ebb817e22a5cb2f325f,64d2fd46c836a06233681665,64dc7cd28eba779b58e2ece4,,,,,,,ctch,resources/DY.BMP,resources/DBN.BMP,Door4,-0.40549273,0.033117932,1,0,0,8.6872,optionLeft,80,8720,4,31,0,31,0,1,,,,,,,,,,,,,,,,,,,,,,,,,,,,,,,,,,,,,,,
,,,,,,,,2023-08-16_08h39.10.593,HF_wild_card,2022.2.4,Win32,4.000288021,64874ebb817e22a5cb2f325f,64d2fd46c836a06233681665,64dc7cd28eba779b58e2ece4,,,,,,,decisionTrl,resources/DR.BMP,resources/DY.BMP,Door4,0.408723748,0.029886914,1,0,0,9.5441,optionRight,80,8800,4,32,0,32,0,1,,,,,,,,,,,,,,,,,,,,,,,,,,,,,,,,,,,,,,,
,,,,,,,,2023-08-16_08h39.10.593,HF_wild_card,2022.2.4,Win32,4.000288021,64874ebb817e22a5cb2f325f,64d2fd46c836a06233681665,64dc7cd28eba779b58e2ece4,,,,,,,decisionTrl,resources/DY.BMP,resources/DR.BMP,Door3,0.39095315,0.012116317,1,0,0,5.219,optionRight,70,8870,4,33,0,33,0,1,,,,,,,,,,,,,,,,,,,,,,,,,,,,,,,,,,,,,,,
,,,,,,,,2023-08-16_08h39.10.593,HF_wild_card,2022.2.4,Win32,4.000288021,64874ebb817e22a5cb2f325f,64d2fd46c836a06233681665,64dc7cd28eba779b58e2ece4,,,,,,,decisionTrl,resources/DB.BMP,resources/DY.BMP,Door4,0.403877221,0.03634895,1,0,0,6.0776,optionRight,60,8930,4,34,0,34,0,1,,,,,,,,,,,,,,,,,,,,,,,,,,,,,,,,,,,,,,,
,,,,,,,,2023-08-16_08h39.10.593,HF_wild_card,2022.2.4,Win32,4.000288021,64874ebb817e22a5cb2f325f,64d2fd46c836a06233681665,64dc7cd28eba779b58e2ece4,,,,,,,decisionTrl,resources/DR.BMP,resources/DB.BMP,Door3,-0.416801292,0.041195477,1,0,0,22.4235,optionLeft,70,9000,4,35,0,35,0,1,,,,,,,,,,,,,,,,,,,,,,,,,,,,,,,,,,,,,,,
,,,,,,,,2023-08-16_08h39.10.593,HF_wild_card,2022.2.4,Win32,4.000288021,64874ebb817e22a5cb2f325f,64d2fd46c836a06233681665,64dc7cd28eba779b58e2ece4,,,,,,,decisionTrl,resources/DR.BMP,resources/DY.BMP,Door4,0.407108239,0.004038772,1,0,0,8.6748,optionRight,60,9060,4,36,0,36,0,1,,,,,,,,,,,,,,,,,,,,,,,,,,,,,,,,,,,,,,,
,,,,,,,,2023-08-16_08h39.10.593,HF_wild_card,2022.2.4,Win32,4.000288021,64874ebb817e22a5cb2f325f,64d2fd46c836a06233681665,64dc7cd28eba779b58e2ece4,,,,,,,sngl,resources/DG.BMP,resources/Empty.png,Door2,-0.386106624,0.02180937,1,0,0,2.6202,optionLeft,20,9080,4,37,0,37,0,1,,,,,,,,,,,,,,,,,,,,,,,,,,,,,,,,,,,,,,,
,,,,,,,,2023-08-16_08h39.10.593,HF_wild_card,2022.2.4,Win32,4.000288021,64874ebb817e22a5cb2f325f,64d2fd46c836a06233681665,64dc7cd28eba779b58e2ece4,,,,,,,decisionTrl,resources/DB.BMP,resources/DBN.BMP,WildCard_Ex,-0.353796446,0.008885299,1,0,0,3.7764,optionLeft,55,9135,4,38,0,38,0,1,,,,,,,,,,,,,,,,,,,,,,,,,,,,,,,,,,,,,,,
,,,,,,,,2023-08-16_08h39.10.593,HF_wild_card,2022.2.4,Win32,4.000288021,64874ebb817e22a5cb2f325f,64d2fd46c836a06233681665,64dc7cd28eba779b58e2ece4,,,,,,,decisionTrl,resources/DY.BMP,resources/DR.BMP,Door3,0.389337641,-0.039579968,1,0,0,5.6048,optionRight,70,9205,4,39,0,39,0,1,,,,,,,,,,,,,,,,,,,,,,,,,,,,,,,,,,,,,,,
,,,,,,,,2023-08-16_08h39.10.593,HF_wild_card,2022.2.4,Win32,4.000288021,64874ebb817e22a5cb2f325f,64d2fd46c836a06233681665,64dc7cd28eba779b58e2ece4,,,,,,,decisionTrl,resources/DY.BMP,resources/DR.BMP,Door3,0.402261712,-0.037964459,1,0,0,6.9904,optionRight,70,9275,4,40,0,40,0,1,,,,,,,,,,,,,,,,,,,,,,,,,,,,,,,,,,,,,,,
,,,,,,,,2023-08-16_08h39.10.593,HF_wild_card,2022.2.4,Win32,4.000288021,64874ebb817e22a5cb2f325f,64d2fd46c836a06233681665,64dc7cd28eba779b58e2ece4,,,,,,,ctch,resources/DR.BMP,resources/DG.BMP,Door3,-0.416801292,-0.042810985,1,0,0,3.2082,optionLeft,70,9345,4,41,0,41,0,1,,,,,,,,,,,,,,,,,,,,,,,,,,,,,,,,,,,,,,,
,,,,,,,,2023-08-16_08h39.10.593,HF_wild_card,2022.2.4,Win32,4.000288021,64874ebb817e22a5cb2f325f,64d2fd46c836a06233681665,64dc7cd28eba779b58e2ece4,,,,,,,decisionTrl,resources/DB.BMP,resources/DG.BMP,WildCard_Ex,-0.407108239,-0.016962843,1,0,0,5.1699,optionLeft,55,9400,4,42,0,42,0,1,,,,,,,,,,,,,,,,,,,,,,,,,,,,,,,,,,,,,,,
,,,,,,,,2023-08-16_08h39.10.593,HF_wild_card,2022.2.4,Win32,4.000288021,64874ebb817e22a5cb2f325f,64d2fd46c836a06233681665,64dc7cd28eba779b58e2ece4,,,,,,,decisionTrl,resources/DG.BMP,resources/DB.BMP,WildCard_Ex,0.39095315,-0.008885299,1,0,0,9.8743,optionRight,55,9455,4,43,0,43,0,1,,,,,,,,,,,,,,,,,,,,,,,,,,,,,,,,,,,,,,,
,,,,,,,,2023-08-16_08h39.10.593,HF_wild_card,2022.2.4,Win32,4.000288021,64874ebb817e22a5cb2f325f,64d2fd46c836a06233681665,64dc7cd28eba779b58e2ece4,,,,,,,,,,,,,,,,,,,,,,,,,,3,0,3,0,1,,,,,,,,,,,,,,,,,,,,,,,,,,,,,,,,,,
,,,,,,,,2023-08-16_08h39.10.593,HF_wild_card,2022.2.4,Win32,4.000288021,64874ebb817e22a5cb2f325f,64d2fd46c836a06233681665,64dc7cd28eba779b58e2ece4,,,,,,,decisionTrl,resources/DG.BMP,resources/DBN.BMP,Door1,0.40549273,0.015347334,1,0,0,3.0816,optionRight,30,9485,5,0,0,0,0,1,,,,,,,,,,,,,,,,,,,,,,,,,,,,,,,,,,,,,,,
,,,,,,,,2023-08-16_08h39.10.593,HF_wild_card,2022.2.4,Win32,4.000288021,64874ebb817e22a5cb2f325f,64d2fd46c836a06233681665,64dc7cd28eba779b58e2ece4,,,,,,,ctch,resources/DY.BMP,resources/DBN.BMP,Door4,-0.384491115,0.029886914,1,0,0,4.2291,optionLeft,80,9565,5,1,0,1,0,1,,,,,,,,,,,,,,,,,,,,,,,,,,,,,,,,,,,,,,,
,,,,,,,,2023-08-16_08h39.10.593,HF_wild_card,2022.2.4,Win32,4.000288021,64874ebb817e22a5cb2f325f,64d2fd46c836a06233681665,64dc7cd28eba779b58e2ece4,,,,,,,sngl,resources/DB.BMP,resources/Empty.png,WildCard_Ex,-0.413570275,-0.03634895,1,0,0,9.4882,optionLeft,55,9620,5,2,0,2,0,1,,,,,,,,,,,,,,,,,,,,,,,,,,,,,,,,,,,,,,,
,,,,,,,,2023-08-16_08h39.10.593,HF_wild_card,2022.2.4,Win32,4.000288021,64874ebb817e22a5cb2f325f,64d2fd46c836a06233681665,64dc7cd28eba779b58e2ece4,,,,,,,decisionTrl,resources/DB.BMP,resources/DY.BMP,Door4,0.418416801,0.028271405,1,0,0,2.5252,optionRight,60,9680,5,3,0,3,0,1,,,,,,,,,,,,,,,,,,,,,,,,,,,,,,,,,,,,,,,
,,,,,,,,2023-08-16_08h39.10.593,HF_wild_card,2022.2.4,Win32,4.000288021,64874ebb817e22a5cb2f325f,64d2fd46c836a06233681665,64dc7cd28eba779b58e2ece4,,,,,,,decisionTrl,resources/DY.BMP,resources/DB.BMP,Door4,-0.397415186,0.026655897,1,0,0,3.6176,optionLeft,60,9740,5,4,0,4,0,1,,,,,,,,,,,,,,,,,,,,,,,,,,,,,,,,,,,,,,,
,,,,,,,,2023-08-16_08h39.10.593,HF_wild_card,2022.2.4,Win32,4.000288021,64874ebb817e22a5cb2f325f,64d2fd46c836a06233681665,64dc7cd28eba779b58e2ece4,,,,,,,decisionTrl,resources/DBN.BMP,resources/DG.BMP,Door2,0.428109855,0.037964459,1,0,0,3.6558,optionRight,20,9760,5,5,0,5,0,1,,,,,,,,,,,,,,,,,,,,,,,,,,,,,,,,,,,,,,,
,,,,,,,,2023-08-16_08h39.10.593,HF_wild_card,2022.2.4,Win32,4.000288021,64874ebb817e22a5cb2f325f,64d2fd46c836a06233681665,64dc7cd28eba779b58e2ece4,,,,,,,decisionTrl,resources/DBN.BMP,resources/DG.BMP,Door1,-0.403877221,0.010500808,1,0,0,6.4417,optionLeft,30,9790,5,6,0,6,0,1,,,,,,,,,,,,,,,,,,,,,,,,,,,,,,,,,,,,,,,
,,,,,,,,2023-08-16_08h39.10.593,HF_wild_card,2022.2.4,Win32,4.000288021,64874ebb817e22a5cb2f325f,64d2fd46c836a06233681665,64dc7cd28eba779b58e2ece4,,,,,,,decisionTrl,resources/DB.BMP,resources/DR.BMP,Door3,0.402261712,0.057350565,1,0,0,3.4806,optionRight,70,9860,5,7,0,7,0,1,,,,,,,,,,,,,,,,,,,,,,,,,,,,,,,,,,,,,,,
,,,,,,,,2023-08-16_08h39.10.593,HF_wild_card,2022.2.4,Win32,4.000288021,64874ebb817e22a5cb2f325f,64d2fd46c836a06233681665,64dc7cd28eba779b58e2ece4,,,,,,,decisionTrl,resources/DBN.BMP,resources/DG.BMP,Door1,-0.411954766,0.012116317,1,0,0,2.3671,optionLeft,30,9890,5,8,0,8,0,1,,,,,,,,,,,,,,,,,,,,,,,,,,,,,,,,,,,,,,,
,,,,,,,,2023-08-16_08h39.10.593,HF_wild_card,2022.2.4,Win32,4.000288021,64874ebb817e22a5cb2f325f,64d2fd46c836a06233681665,64dc7cd28eba779b58e2ece4,,,,,,,decisionTrl,resources/DR.BMP,resources/DB.BMP,Door3,-0.410339257,-0.05088853,1,0,0,3.0015,optionLeft,70,9960,5,9,0,9,0,1,,,,,,,,,,,,,,,,,,,,,,,,,,,,,,,,,,,,,,,
,,,,,,,,2023-08-16_08h39.10.593,HF_wild_card,2022.2.4,Win32,4.000288021,64874ebb817e22a5cb2f325f,64d2fd46c836a06233681665,64dc7cd28eba779b58e2ece4,,,,,,,sngl,resources/DR.BMP,resources/Empty.png,Door3,-0.418416801,-0.046042003,1,0,0,8.3239,optionLeft,70,10030,5,10,0,10,0,1,,,,,,,,,,,,,,,,,,,,,,,,,,,,,,,,,,,,,,,
,,,,,,,,2023-08-16_08h39.10.593,HF_wild_card,2022.2.4,Win32,4.000288021,64874ebb817e22a5cb2f325f,64d2fd46c836a06233681665,64dc7cd28eba779b58e2ece4,,,,,,,decisionTrl,resources/DB.BMP,resources/DBN.BMP,WildCard_Ex,-0.403877221,-0.037964459,1,0,0,15.995,optionLeft,45,10075,5,11,0,11,0,1,,,,,,,,,,,,,,,,,,,,,,,,,,,,,,,,,,,,,,,
,,,,,,,,2023-08-16_08h39.10.593,HF_wild_card,2022.2.4,Win32,4.000288021,64874ebb817e22a5cb2f325f,64d2fd46c836a06233681665,64dc7cd28eba779b58e2ece4,,,,,,,decisionTrl,resources/DB.BMP,resources/DG.BMP,WildCard_Ex,-0.408723748,-0.013731826,1,0,0,13.0854,optionLeft,45,10120,5,12,0,12,0,1,,,,,,,,,,,,,,,,,,,,,,,,,,,,,,,,,,,,,,,
,,,,,,,,2023-08-16_08h39.10.593,HF_wild_card,2022.2.4,Win32,4.000288021,64874ebb817e22a5cb2f325f,64d2fd46c836a06233681665,64dc7cd28eba779b58e2ece4,,,,,,,decisionTrl,resources/DR.BMP,resources/DY.BMP,Door4,0.410339257,0.034733441,1,0,0,7.3709,optionRight,80,10200,5,13,0,13,0,1,,,,,,,,,,,,,,,,,,,,,,,,,,,,,,,,,,,,,,,
,,,,,,,,2023-08-16_08h39.10.593,HF_wild_card,2022.2.4,Win32,4.000288021,64874ebb817e22a5cb2f325f,64d2fd46c836a06233681665,64dc7cd28eba779b58e2ece4,,,,,,,ctch,resources/DR.BMP,resources/DG.BMP,Door3,-0.432956381,-0.008885299,1,0,0,27.8566,optionLeft,70,10270,5,14,0,14,0,1,,,,,,,,,,,,,,,,,,,,,,,,,,,,,,,,,,,,,,,
,,,,,,,,2023-08-16_08h39.10.593,HF_wild_card,2022.2.4,Win32,4.000288021,64874ebb817e22a5cb2f325f,64d2fd46c836a06233681665,64dc7cd28eba779b58e2ece4,,,,,,,decisionTrl,resources/DR.BMP,resources/DY.BMP,Door4,0.402261712,-0.002423263,1,0,0,6.6442,optionRight,60,10330,5,15,0,15,0,1,,,,,,,,,,,,,,,,,,,,,,,,,,,,,,,,,,,,,,,
,,,,,,,,2023-08-16_08h39.10.593,HF_wild_card,2022.2.4,Win32,4.000288021,64874ebb817e22a5cb2f325f,64d2fd46c836a06233681665,64dc7cd28eba779b58e2ece4,,,,,,,sngl,resources/Empty.png,resources/DR.BMP,Door3,0.382875606,-0.023424879,1,0,0,4.7635,optionRight,70,10400,5,16,0,16,0,1,,,,,,,,,,,,,,,,,,,,,,,,,,,,,,,,,,,,,,,
,,,,,,,,2023-08-16_08h39.10.593,HF_wild_card,2022.2.4,Win32,4.000288021,64874ebb817e22a5cb2f325f,64d2fd46c836a06233681665,64dc7cd28eba779b58e2ece4,,,,,,,decisionTrl,resources/DG.BMP,resources/DBN.BMP,Door1,0.408723748,0.073505654,1,0,0,4.1415,optionRight,30,10430,5,17,0,17,0,1,,,,,,,,,,,,,,,,,,,,,,,,,,,,,,,,,,,,,,,
,,,,,,,,2023-08-16_08h39.10.593,HF_wild_card,2022.2.4,Win32,4.000288021,64874ebb817e22a5cb2f325f,64d2fd46c836a06233681665,64dc7cd28eba779b58e2ece4,,,,,,,sngl,resources/Empty.png,resources/DB.BMP,WildCard_Ex,0.415185784,0.020193861,1,0,0,1.5623,optionRight,55,10485,5,18,0,18,0,1,,,,,,,,,,,,,,,,,,,,,,,,,,,,,,,,,,,,,,,
,,,,,,,,2023-08-16_08h39.10.593,HF_wild_card,2022.2.4,Win32,4.000288021,64874ebb817e22a5cb2f325f,64d2fd46c836a06233681665,64dc7cd28eba779b58e2ece4,,,,,,,sngl,resources/DY.BMP,resources/Empty.png,Door4,-0.40549273,0.029886914,1,0,0,1.6171,optionLeft,80,10565,5,19,0,19,0,1,,,,,,,,,,,,,,,,,,,,,,,,,,,,,,,,,,,,,,,
,,,,,,,,2023-08-16_08h39.10.593,HF_wild_card,2022.2.4,Win32,4.000288021,64874ebb817e22a5cb2f325f,64d2fd46c836a06233681665,64dc7cd28eba779b58e2ece4,,,,,,,decisionTrl,resources/DY.BMP,resources/DR.BMP,Door4,-0.395799677,0.026655897,1,0,0,1.8353,optionLeft,80,10645,5,20,0,20,0,1,,,,,,,,,,,,,,,,,,,,,,,,,,,,,,,,,,,,,,,
,,,,,,,,2023-08-16_08h39.10.593,HF_wild_card,2022.2.4,Win32,4.000288021,64874ebb817e22a5cb2f325f,64d2fd46c836a06233681665,64dc7cd28eba779b58e2ece4,,,,,,,ctch,resources/DG.BMP,resources/DR.BMP,Door3,0.423263328,0.03634895,1,0,0,1.7902,optionRight,70,10715,5,21,0,21,0,1,,,,,,,,,,,,,,,,,,,,,,,,,,,,,,,,,,,,,,,
,,,,,,,,2023-08-16_08h39.10.593,HF_wild_card,2022.2.4,Win32,4.000288021,64874ebb817e22a5cb2f325f,64d2fd46c836a06233681665,64dc7cd28eba779b58e2ece4,,,,,,,decisionTrl,resources/DG.BMP,resources/DB.BMP,WildCard_Ex,0.400646204,0.078352181,1,0,0,2.1303,optionRight,45,10760,5,22,0,22,0,1,,,,,,,,,,,,,,,,,,,,,,,,,,,,,,,,,,,,,,,
,,,,,,,,2023-08-16_08h39.10.593,HF_wild_card,2022.2.4,Win32,4.000288021,64874ebb817e22a5cb2f325f,64d2fd46c836a06233681665,64dc7cd28eba779b58e2ece4,,,,,,,sngl,resources/DBN.BMP,resources/Empty.png,Door1,-0.411954766,0.117124394,1,0,0,4.0607,optionLeft,30,10790,5,23,0,23,0,1,,,,,,,,,,,,,,,,,,,,,,,,,,,,,,,,,,,,,,,
,,,,,,,,2023-08-16_08h39.10.593,HF_wild_card,2022.2.4,Win32,4.000288021,64874ebb817e22a5cb2f325f,64d2fd46c836a06233681665,64dc7cd28eba779b58e2ece4,,,,,,,ctch,resources/DBN.BMP,resources/DY.BMP,Door4,0.407108239,0.039579968,1,0,0,7.7904,optionRight,80,10870,5,24,0,24,0,1,,,,,,,,,,,,,,,,,,,,,,,,,,,,,,,,,,,,,,,
,,,,,,,,2023-08-16_08h39.10.593,HF_wild_card,2022.2.4,Win32,4.000288021,64874ebb817e22a5cb2f325f,64d2fd46c836a06233681665,64dc7cd28eba779b58e2ece4,,,,,,,sngl,resources/Empty.png,resources/DY.BMP,Door4,0.407108239,0.03634895,1,0,0,3.4084,optionRight,60,10930,5,25,0,25,0,1,,,,,,,,,,,,,,,,,,,,,,,,,,,,,,,,,,,,,,,
,,,,,,,,2023-08-16_08h39.10.593,HF_wild_card,2022.2.4,Win32,4.000288021,64874ebb817e22a5cb2f325f,64d2fd46c836a06233681665,64dc7cd28eba779b58e2ece4,,,,,,,decisionTrl,resources/DY.BMP,resources/DR.BMP,Door4,-0.397415186,0.033117932,1,0,0,4.7074,optionLeft,80,11010,5,26,0,26,0,1,,,,,,,,,,,,,,,,,,,,,,,,,,,,,,,,,,,,,,,
,,,,,,,,2023-08-16_08h39.10.593,HF_wild_card,2022.2.4,Win32,4.000288021,64874ebb817e22a5cb2f325f,64d2fd46c836a06233681665,64dc7cd28eba779b58e2ece4,,,,,,,sngl,resources/DB.BMP,resources/Empty.png,WildCard_Ex,-0.397415186,0.020193861,1,0,0,3.487,optionLeft,45,11055,5,27,0,27,0,1,,,,,,,,,,,,,,,,,,,,,,,,,,,,,,,,,,,,,,,
,,,,,,,,2023-08-16_08h39.10.593,HF_wild_card,2022.2.4,Win32,4.000288021,64874ebb817e22a5cb2f325f,64d2fd46c836a06233681665,64dc7cd28eba779b58e2ece4,,,,,,,decisionTrl,resources/DG.BMP,resources/DBN.BMP,Door1,0.410339257,0.07996769,1,0,0,2.8087,optionRight,30,11085,5,28,0,28,0,1,,,,,,,,,,,,,,,,,,,,,,,,,,,,,,,,,,,,,,,
,,,,,,,,2023-08-16_08h39.10.593,HF_wild_card,2022.2.4,Win32,4.000288021,64874ebb817e22a5cb2f325f,64d2fd46c836a06233681665,64dc7cd28eba779b58e2ece4,,,,,,,decisionTrl,resources/DR.BMP,resources/DY.BMP,Door3,-0.408723748,0.010500808,1,0,0,4.792,optionLeft,70,11155,5,29,0,29,0,1,,,,,,,,,,,,,,,,,,,,,,,,,,,,,,,,,,,,,,,
,,,,,,,,2023-08-16_08h39.10.593,HF_wild_card,2022.2.4,Win32,4.000288021,64874ebb817e22a5cb2f325f,64d2fd46c836a06233681665,64dc7cd28eba779b58e2ece4,,,,,,,sngl,resources/DG.BMP,resources/Empty.png,Door2,-0.384491115,-0.000807754,1,0,0,6.3493,optionLeft,40,11195,5,30,0,30,0,1,,,,,,,,,,,,,,,,,,,,,,,,,,,,,,,,,,,,,,,
,,,,,,,,2023-08-16_08h39.10.593,HF_wild_card,2022.2.4,Win32,4.000288021,64874ebb817e22a5cb2f325f,64d2fd46c836a06233681665,64dc7cd28eba779b58e2ece4,,,,,,,ctch,resources/DBN.BMP,resources/DY.BMP,Door4,0.415185784,0.033117932,1,0,0,3.1873,optionRight,60,11255,5,31,0,31,0,1,,,,,,,,,,,,,,,,,,,,,,,,,,,,,,,,,,,,,,,
,,,,,,,,2023-08-16_08h39.10.593,HF_wild_card,2022.2.4,Win32,4.000288021,64874ebb817e22a5cb2f325f,64d2fd46c836a06233681665,64dc7cd28eba779b58e2ece4,,,,,,,decisionTrl,resources/DY.BMP,resources/DR.BMP,Door4,-0.400646204,0.034733441,1,0,0,2.0011,optionLeft,80,11335,5,32,0,32,0,1,,,,,,,,,,,,,,,,,,,,,,,,,,,,,,,,,,,,,,,
,,,,,,,,2023-08-16_08h39.10.593,HF_wild_card,2022.2.4,Win32,4.000288021,64874ebb817e22a5cb2f325f,64d2fd46c836a06233681665,64dc7cd28eba779b58e2ece4,,,,,,,sngl,resources/Empty.png,resources/DB.BMP,WildCard_Ex,0.42003231,-0.029886914,1,0,0,1.5797,optionRight,45,11380,5,33,0,33,0,1,,,,,,,,,,,,,,,,,,,,,,,,,,,,,,,,,,,,,,,
,,,,,,,,2023-08-16_08h39.10.593,HF_wild_card,2022.2.4,Win32,4.000288021,64874ebb817e22a5cb2f325f,64d2fd46c836a06233681665,64dc7cd28eba779b58e2ece4,,,,,,,decisionTrl,resources/DG.BMP,resources/DBN.BMP,Door2,-0.382875606,0.037964459,1,0,0,4.1266,optionLeft,20,11400,5,34,0,34,0,1,,,,,,,,,,,,,,,,,,,,,,,,,,,,,,,,,,,,,,,
,,,,,,,,2023-08-16_08h39.10.593,HF_wild_card,2022.2.4,Win32,4.000288021,64874ebb817e22a5cb2f325f,64d2fd46c836a06233681665,64dc7cd28eba779b58e2ece4,,,,,,,decisionTrl,resources/DR.BMP,resources/DY.BMP,Door4,0.403877221,0.031502423,1,0,0,5.4211,optionRight,80,11480,5,35,0,35,0,1,,,,,,,,,,,,,,,,,,,,,,,,,,,,,,,,,,,,,,,
,,,,,,,,2023-08-16_08h39.10.593,HF_wild_card,2022.2.4,Win32,4.000288021,64874ebb817e22a5cb2f325f,64d2fd46c836a06233681665,64dc7cd28eba779b58e2ece4,,,,,,,decisionTrl,resources/DBN.BMP,resources/DG.BMP,Door2,0.424878837,0.028271405,1,0,0,6.6263,optionRight,40,11520,5,36,0,36,0,1,,,,,,,,,,,,,,,,,,,,,,,,,,,,,,,,,,,,,,,
,,,,,,,,2023-08-16_08h39.10.593,HF_wild_card,2022.2.4,Win32,4.000288021,64874ebb817e22a5cb2f325f,64d2fd46c836a06233681665,64dc7cd28eba779b58e2ece4,,,,,,,sngl,resources/Empty.png,resources/DG.BMP,Door2,0.411954766,0.039579968,1,0,0,1.6241,optionRight,20,11540,5,37,0,37,0,1,,,,,,,,,,,,,,,,,,,,,,,,,,,,,,,,,,,,,,,
,,,,,,,,2023-08-16_08h39.10.593,HF_wild_card,2022.2.4,Win32,4.000288021,64874ebb817e22a5cb2f325f,64d2fd46c836a06233681665,64dc7cd28eba779b58e2ece4,,,,,,,sngl,resources/Empty.png,resources/DBN.BMP,Door1,0.392568659,0.010500808,1,0,0,5.5836,optionRight,30,11570,5,38,0,38,0,1,,,,,,,,,,,,,,,,,,,,,,,,,,,,,,,,,,,,,,,
,,,,,,,,2023-08-16_08h39.10.593,HF_wild_card,2022.2.4,Win32,4.000288021,64874ebb817e22a5cb2f325f,64d2fd46c836a06233681665,64dc7cd28eba779b58e2ece4,,,,,,,ctch,resources/DY.BMP,resources/DBN.BMP,Door4,-0.39095315,0.031502423,1,0,0,2.487,optionLeft,60,11630,5,39,0,39,0,1,,,,,,,,,,,,,,,,,,,,,,,,,,,,,,,,,,,,,,,
,,,,,,,,2023-08-16_08h39.10.593,HF_wild_card,2022.2.4,Win32,4.000288021,64874ebb817e22a5cb2f325f,64d2fd46c836a06233681665,64dc7cd28eba779b58e2ece4,,,,,,,ctch,resources/DR.BMP,resources/DG.BMP,Door3,-0.407108239,-0.047657512,1,0,0,4.738,optionLeft,70,11700,5,40,0,40,0,1,,,,,,,,,,,,,,,,,,,,,,,,,,,,,,,,,,,,,,,
,,,,,,,,2023-08-16_08h39.10.593,HF_wild_card,2022.2.4,Win32,4.000288021,64874ebb817e22a5cb2f325f,64d2fd46c836a06233681665,64dc7cd28eba779b58e2ece4,,,,,,,decisionTrl,resources/DBN.BMP,resources/DB.BMP,WildCard_Ex,0.382875606,0.018578352,1,0,0,4.6481,optionRight,45,11745,5,41,0,41,0,1,,,,,,,,,,,,,,,,,,,,,,,,,,,,,,,,,,,,,,,
,,,,,,,,2023-08-16_08h39.10.593,HF_wild_card,2022.2.4,Win32,4.000288021,64874ebb817e22a5cb2f325f,64d2fd46c836a06233681665,64dc7cd28eba779b58e2ece4,,,,,,,ctch,resources/DG.BMP,resources/DR.BMP,Door3,0.387722132,0.062197092,1,0,0,1.9706,optionRight,70,11815,5,42,0,42,0,1,,,,,,,,,,,,,,,,,,,,,,,,,,,,,,,,,,,,,,,
,,,,,,,,2023-08-16_08h39.10.593,HF_wild_card,2022.2.4,Win32,4.000288021,64874ebb817e22a5cb2f325f,64d2fd46c836a06233681665,64dc7cd28eba779b58e2ece4,,,,,,,decisionTrl,resources/DY.BMP,resources/DR.BMP,Door4,-0.395799677,0.044426494,1,0,0,4.4972,optionLeft,60,11875,5,43,0,43,0,1,,,,,,,,,,,,,,,,,,,,,,,,,,,,,,,,,,,,,,,
,,,,,,,,2023-08-16_08h39.10.593,HF_wild_card,2022.2.4,Win32,4.000288021,64874ebb817e22a5cb2f325f,64d2fd46c836a06233681665,64dc7cd28eba779b58e2ece4,,,,,,,,,,,,,,,,,,,,,,,,,,4,0,4,0,1,,,,,,,,,,,,,,,,,,,,,,,,,,,,,,,,,,
,,,,,,,,2023-08-16_08h39.10.593,HF_wild_card,2022.2.4,Win32,4.000288021,64874ebb817e22a5cb2f325f,64d2fd46c836a06233681665,64dc7cd28eba779b58e2ece4,,,,,,,ctch,resources/DG.BMP,resources/DR.BMP,Door3,0.399030695,-0.00726979,1,0,0,6.7021,optionRight,70,11945,6,0,0,0,0,1,,,,,,,,,,,,,,,,,,,,,,,,,,,,,,,,,,,,,,,
,,,,,,,,2023-08-16_08h39.10.593,HF_wild_card,2022.2.4,Win32,4.000288021,64874ebb817e22a5cb2f325f,64d2fd46c836a06233681665,64dc7cd28eba779b58e2ece4,,,,,,,ctch,resources/DBN.BMP,resources/DY.BMP,Door4,0.418416801,0.02180937,1,0,0,2.625,optionRight,60,12005,6,1,0,1,0,1,,,,,,,,,,,,,,,,,,,,,,,,,,,,,,,,,,,,,,,
,,,,,,,,2023-08-16_08h39.10.593,HF_wild_card,2022.2.4,Win32,4.000288021,64874ebb817e22a5cb2f325f,64d2fd46c836a06233681665,64dc7cd28eba779b58e2ece4,,,,,,,sngl,resources/Empty.png,resources/DBN.BMP,Door1,0.389337641,0.013731826,1,0,0,6.1984,optionRight,30,12035,6,2,0,2,0,1,,,,,,,,,,,,,,,,,,,,,,,,,,,,,,,,,,,,,,,
,,,,,,,,2023-08-16_08h39.10.593,HF_wild_card,2022.2.4,Win32,4.000288021,64874ebb817e22a5cb2f325f,64d2fd46c836a06233681665,64dc7cd28eba779b58e2ece4,,,,,,,sngl,resources/DG.BMP,resources/Empty.png,Door2,-0.355411955,0.016962843,1,0,0,1.6394,optionLeft,20,12055,6,3,0,3,0,1,,,,,,,,,,,,,,,,,,,,,,,,,,,,,,,,,,,,,,,
,,,,,,,,2023-08-16_08h39.10.593,HF_wild_card,2022.2.4,Win32,4.000288021,64874ebb817e22a5cb2f325f,64d2fd46c836a06233681665,64dc7cd28eba779b58e2ece4,,,,,,,decisionTrl,resources/DY.BMP,resources/DR.BMP,Door4,-0.399030695,0.028271405,1,0,0,4.0536,optionLeft,80,12135,6,4,0,4,0,1,,,,,,,,,,,,,,,,,,,,,,,,,,,,,,,,,,,,,,,
,,,,,,,,2023-08-16_08h39.10.593,HF_wild_card,2022.2.4,Win32,4.000288021,64874ebb817e22a5cb2f325f,64d2fd46c836a06233681665,64dc7cd28eba779b58e2ece4,,,,,,,decisionTrl,resources/DY.BMP,resources/DR.BMP,Door3,0.416801292,0.025040388,1,0,0,5.2323,optionRight,70,12205,6,5,0,5,0,1,,,,,,,,,,,,,,,,,,,,,,,,,,,,,,,,,,,,,,,
,,,,,,,,2023-08-16_08h39.10.593,HF_wild_card,2022.2.4,Win32,4.000288021,64874ebb817e22a5cb2f325f,64d2fd46c836a06233681665,64dc7cd28eba779b58e2ece4,,,,,,,sngl,resources/Empty.png,resources/DG.BMP,Door2,0.436187399,0.026655897,1,0,0,1.5984,optionRight,40,12245,6,6,0,6,0,1,,,,,,,,,,,,,,,,,,,,,,,,,,,,,,,,,,,,,,,
,,,,,,,,2023-08-16_08h39.10.593,HF_wild_card,2022.2.4,Win32,4.000288021,64874ebb817e22a5cb2f325f,64d2fd46c836a06233681665,64dc7cd28eba779b58e2ece4,,,,,,,decisionTrl,resources/DB.BMP,resources/DR.BMP,Door3,0.415185784,0.039579968,1,0,0,2.5886,optionRight,70,12315,6,7,0,7,0,1,,,,,,,,,,,,,,,,,,,,,,,,,,,,,,,,,,,,,,,
,,,,,,,,2023-08-16_08h39.10.593,HF_wild_card,2022.2.4,Win32,4.000288021,64874ebb817e22a5cb2f325f,64d2fd46c836a06233681665,64dc7cd28eba779b58e2ece4,,,,,,,decisionTrl,resources/DR.BMP,resources/DB.BMP,Door3,-0.43457189,0.063812601,1,0,0,2.4258,optionLeft,70,12385,6,8,0,8,0,1,,,,,,,,,,,,,,,,,,,,,,,,,,,,,,,,,,,,,,,
,,,,,,,,2023-08-16_08h39.10.593,HF_wild_card,2022.2.4,Win32,4.000288021,64874ebb817e22a5cb2f325f,64d2fd46c836a06233681665,64dc7cd28eba779b58e2ece4,,,,,,,decisionTrl,resources/DBN.BMP,resources/DB.BMP,WildCard_Ex,0.387722132,0.047657512,1,0,0,6.7915,optionRight,45,12430,6,9,0,9,0,1,,,,,,,,,,,,,,,,,,,,,,,,,,,,,,,,,,,,,,,
,,,,,,,,2023-08-16_08h39.10.593,HF_wild_card,2022.2.4,Win32,4.000288021,64874ebb817e22a5cb2f325f,64d2fd46c836a06233681665,64dc7cd28eba779b58e2ece4,,,,,,,ctch,resources/DBN.BMP,resources/DY.BMP,Door4,0.402261712,0.03634895,1,0,0,3.8332,optionRight,60,12490,6,10,0,10,0,1,,,,,,,,,,,,,,,,,,,,,,,,,,,,,,,,,,,,,,,
,,,,,,,,2023-08-16_08h39.10.593,HF_wild_card,2022.2.4,Win32,4.000288021,64874ebb817e22a5cb2f325f,64d2fd46c836a06233681665,64dc7cd28eba779b58e2ece4,,,,,,,ctch,resources/DY.BMP,resources/DBN.BMP,Door4,-0.394184168,0.033117932,1,0,0,12.7427,optionLeft,80,12570,6,11,0,11,0,1,,,,,,,,,,,,,,,,,,,,,,,,,,,,,,,,,,,,,,,
,,,,,,,,2023-08-16_08h39.10.593,HF_wild_card,2022.2.4,Win32,4.000288021,64874ebb817e22a5cb2f325f,64d2fd46c836a06233681665,64dc7cd28eba779b58e2ece4,,,,,,,sngl,resources/Empty.png,resources/DY.BMP,Door4,0.395799677,0.025040388,1,0,0,1.6019,optionRight,80,12650,6,12,0,12,0,1,,,,,,,,,,,,,,,,,,,,,,,,,,,,,,,,,,,,,,,
,,,,,,,,2023-08-16_08h39.10.593,HF_wild_card,2022.2.4,Win32,4.000288021,64874ebb817e22a5cb2f325f,64d2fd46c836a06233681665,64dc7cd28eba779b58e2ece4,,,,,,,decisionTrl,resources/DG.BMP,resources/DBN.BMP,Door1,0.413570275,0.100969305,1,0,0,3.7802,optionRight,30,12680,6,13,0,13,0,1,,,,,,,,,,,,,,,,,,,,,,,,,,,,,,,,,,,,,,,
,,,,,,,,2023-08-16_08h39.10.593,HF_wild_card,2022.2.4,Win32,4.000288021,64874ebb817e22a5cb2f325f,64d2fd46c836a06233681665,64dc7cd28eba779b58e2ece4,,,,,,,sngl,resources/DB.BMP,resources/Empty.png,WildCard_Ex,-0.387722132,0.005654281,1,0,0,1.5837,optionLeft,45,12725,6,14,0,14,0,1,,,,,,,,,,,,,,,,,,,,,,,,,,,,,,,,,,,,,,,
,,,,,,,,2023-08-16_08h39.10.593,HF_wild_card,2022.2.4,Win32,4.000288021,64874ebb817e22a5cb2f325f,64d2fd46c836a06233681665,64dc7cd28eba779b58e2ece4,,,,,,,sngl,resources/Empty.png,resources/DB.BMP,WildCard_Ex,0.402261712,0.004038772,1,0,0,3.2669,optionRight,45,12770,6,15,0,15,0,1,,,,,,,,,,,,,,,,,,,,,,,,,,,,,,,,,,,,,,,
,,,,,,,,2023-08-16_08h39.10.593,HF_wild_card,2022.2.4,Win32,4.000288021,64874ebb817e22a5cb2f325f,64d2fd46c836a06233681665,64dc7cd28eba779b58e2ece4,,,,,,,sngl,resources/DB.BMP,resources/Empty.png,WildCard_Ex,-0.399030695,-0.031502423,1,0,0,2.7557,optionLeft,55,12825,6,16,0,16,0,1,,,,,,,,,,,,,,,,,,,,,,,,,,,,,,,,,,,,,,,
,,,,,,,,2023-08-16_08h39.10.593,HF_wild_card,2022.2.4,Win32,4.000288021,64874ebb817e22a5cb2f325f,64d2fd46c836a06233681665,64dc7cd28eba779b58e2ece4,,,,,,,sngl,resources/Empty.png,resources/DB.BMP,WildCard_Ex,0.395799677,-0.025040388,1,0,0,2.6927,optionRight,55,12880,6,17,0,17,0,1,,,,,,,,,,,,,,,,,,,,,,,,,,,,,,,,,,,,,,,
,,,,,,,,2023-08-16_08h39.10.593,HF_wild_card,2022.2.4,Win32,4.000288021,64874ebb817e22a5cb2f325f,64d2fd46c836a06233681665,64dc7cd28eba779b58e2ece4,,,,,,,decisionTrl,resources/DG.BMP,resources/DBN.BMP,Door2,-0.386106624,0.00726979,1,0,0,3.7819,optionLeft,20,12900,6,18,0,18,0,1,,,,,,,,,,,,,,,,,,,,,,,,,,,,,,,,,,,,,,,
,,,,,,,,2023-08-16_08h39.10.593,HF_wild_card,2022.2.4,Win32,4.000288021,64874ebb817e22a5cb2f325f,64d2fd46c836a06233681665,64dc7cd28eba779b58e2ece4,,,,,,,decisionTrl,resources/DB.BMP,resources/DBN.BMP,WildCard_Ex,-0.444264943,-0.00726979,1,0,0,2.1433,optionLeft,55,12955,6,19,0,19,0,1,,,,,,,,,,,,,,,,,,,,,,,,,,,,,,,,,,,,,,,
,,,,,,,,2023-08-16_08h39.10.593,HF_wild_card,2022.2.4,Win32,4.000288021,64874ebb817e22a5cb2f325f,64d2fd46c836a06233681665,64dc7cd28eba779b58e2ece4,,,,,,,ctch,resources/DR.BMP,resources/DG.BMP,Door3,-0.436187399,-0.039579968,1,0,0,1.7961,optionLeft,70,13025,6,20,0,20,0,1,,,,,,,,,,,,,,,,,,,,,,,,,,,,,,,,,,,,,,,
,,,,,,,,2023-08-16_08h39.10.593,HF_wild_card,2022.2.4,Win32,4.000288021,64874ebb817e22a5cb2f325f,64d2fd46c836a06233681665,64dc7cd28eba779b58e2ece4,,,,,,,decisionTrl,resources/DG.BMP,resources/DBN.BMP,Door1,0.39095315,0.016962843,1,0,0,2.3159,optionRight,30,13055,6,21,0,21,0,1,,,,,,,,,,,,,,,,,,,,,,,,,,,,,,,,,,,,,,,
,,,,,,,,2023-08-16_08h39.10.593,HF_wild_card,2022.2.4,Win32,4.000288021,64874ebb817e22a5cb2f325f,64d2fd46c836a06233681665,64dc7cd28eba779b58e2ece4,,,,,,,decisionTrl,resources/DR.BMP,resources/DY.BMP,Door4,0.40549273,0.023424879,1,0,0,2.2672,optionRight,80,13135,6,22,0,22,0,1,,,,,,,,,,,,,,,,,,,,,,,,,,,,,,,,,,,,,,,
,,,,,,,,2023-08-16_08h39.10.593,HF_wild_card,2022.2.4,Win32,4.000288021,64874ebb817e22a5cb2f325f,64d2fd46c836a06233681665,64dc7cd28eba779b58e2ece4,,,,,,,decisionTrl,resources/DBN.BMP,resources/DG.BMP,Door2,0.421647819,0.033117932,1,0,0,9.7814,optionRight,20,13155,6,23,0,23,0,1,,,,,,,,,,,,,,,,,,,,,,,,,,,,,,,,,,,,,,,
,,,,,,,,2023-08-16_08h39.10.593,HF_wild_card,2022.2.4,Win32,4.000288021,64874ebb817e22a5cb2f325f,64d2fd46c836a06233681665,64dc7cd28eba779b58e2ece4,,,,,,,decisionTrl,resources/DR.BMP,resources/DY.BMP,Door3,-0.411954766,-0.029886914,1,0,0,2.1226,optionLeft,70,13225,6,24,0,24,0,1,,,,,,,,,,,,,,,,,,,,,,,,,,,,,,,,,,,,,,,
,,,,,,,,2023-08-16_08h39.10.593,HF_wild_card,2022.2.4,Win32,4.000288021,64874ebb817e22a5cb2f325f,64d2fd46c836a06233681665,64dc7cd28eba779b58e2ece4,,,,,,,decisionTrl,resources/DR.BMP,resources/DY.BMP,Door4,0.403877221,0.029886914,1,0,0,9.5099,optionRight,80,13305,6,25,0,25,0,1,,,,,,,,,,,,,,,,,,,,,,,,,,,,,,,,,,,,,,,
,,,,,,,,2023-08-16_08h39.10.593,HF_wild_card,2022.2.4,Win32,4.000288021,64874ebb817e22a5cb2f325f,64d2fd46c836a06233681665,64dc7cd28eba779b58e2ece4,,,,,,,sngl,resources/Empty.png,resources/DR.BMP,Door3,0.407108239,0.020193861,1,0,0,4.4706,optionRight,70,13375,6,26,0,26,0,1,,,,,,,,,,,,,,,,,,,,,,,,,,,,,,,,,,,,,,,
,,,,,,,,2023-08-16_08h39.10.593,HF_wild_card,2022.2.4,Win32,4.000288021,64874ebb817e22a5cb2f325f,64d2fd46c836a06233681665,64dc7cd28eba779b58e2ece4,,,,,,,decisionTrl,resources/DB.BMP,resources/DY.BMP,Door4,0.402261712,0.039579968,1,0,0,5.6976,optionRight,60,13435,6,27,0,27,0,1,,,,,,,,,,,,,,,,,,,,,,,,,,,,,,,,,,,,,,,
,,,,,,,,2023-08-16_08h39.10.593,HF_wild_card,2022.2.4,Win32,4.000288021,64874ebb817e22a5cb2f325f,64d2fd46c836a06233681665,64dc7cd28eba779b58e2ece4,,,,,,,ctch,resources/DR.BMP,resources/DG.BMP,Door3,-0.408723748,0.012116317,1,0,0,9.9038,optionLeft,70,13505,6,28,0,28,0,1,,,,,,,,,,,,,,,,,,,,,,,,,,,,,,,,,,,,,,,
,,,,,,,,2023-08-16_08h39.10.593,HF_wild_card,2022.2.4,Win32,4.000288021,64874ebb817e22a5cb2f325f,64d2fd46c836a06233681665,64dc7cd28eba779b58e2ece4,,,,,,,decisionTrl,resources/DG.BMP,resources/DBN.BMP,Door1,0.387722132,0.060581583,1,0,0,12.0059,optionRight,30,13535,6,29,0,29,0,1,,,,,,,,,,,,,,,,,,,,,,,,,,,,,,,,,,,,,,,
,,,,,,,,2023-08-16_08h39.10.593,HF_wild_card,2022.2.4,Win32,4.000288021,64874ebb817e22a5cb2f325f,64d2fd46c836a06233681665,64dc7cd28eba779b58e2ece4,,,,,,,ctch,resources/DY.BMP,resources/DBN.BMP,Door4,-0.397415186,0.034733441,1,0,0,12.1856,optionLeft,80,13615,6,30,0,30,0,1,,,,,,,,,,,,,,,,,,,,,,,,,,,,,,,,,,,,,,,
,,,,,,,,2023-08-16_08h39.10.593,HF_wild_card,2022.2.4,Win32,4.000288021,64874ebb817e22a5cb2f325f,64d2fd46c836a06233681665,64dc7cd28eba779b58e2ece4,,,,,,,decisionTrl,resources/DG.BMP,resources/DB.BMP,WildCard_Ex,0.386106624,0.058966074,1,0,0,10.4892,optionRight,55,13670,6,31,0,31,0,1,,,,,,,,,,,,,,,,,,,,,,,,,,,,,,,,,,,,,,,
,,,,,,,,2023-08-16_08h39.10.593,HF_wild_card,2022.2.4,Win32,4.000288021,64874ebb817e22a5cb2f325f,64d2fd46c836a06233681665,64dc7cd28eba779b58e2ece4,,,,,,,decisionTrl,resources/DY.BMP,resources/DR.BMP,Door3,0.39095315,0.047657512,1,0,0,8.835,optionRight,70,13740,6,32,0,32,0,1,,,,,,,,,,,,,,,,,,,,,,,,,,,,,,,,,,,,,,,
,,,,,,,,2023-08-16_08h39.10.593,HF_wild_card,2022.2.4,Win32,4.000288021,64874ebb817e22a5cb2f325f,64d2fd46c836a06233681665,64dc7cd28eba779b58e2ece4,,,,,,,decisionTrl,resources/DBN.BMP,resources/DG.BMP,Door1,-0.40549273,0.131663974,1,0,0,6.9163,optionLeft,30,13770,6,33,0,33,0,1,,,,,,,,,,,,,,,,,,,,,,,,,,,,,,,,,,,,,,,
,,,,,,,,2023-08-16_08h39.10.593,HF_wild_card,2022.2.4,Win32,4.000288021,64874ebb817e22a5cb2f325f,64d2fd46c836a06233681665,64dc7cd28eba779b58e2ece4,,,,,,,sngl,resources/DY.BMP,resources/Empty.png,Door4,-0.392568659,0.033117932,1,0,0,6.3249,optionLeft,60,13830,6,34,0,34,0,1,,,,,,,,,,,,,,,,,,,,,,,,,,,,,,,,,,,,,,,
,,,,,,,,2023-08-16_08h39.10.593,HF_wild_card,2022.2.4,Win32,4.000288021,64874ebb817e22a5cb2f325f,64d2fd46c836a06233681665,64dc7cd28eba779b58e2ece4,,,,,,,decisionTrl,resources/DBN.BMP,resources/DG.BMP,Door1,-0.392568659,0.126817447,1,0,0,2.9456,optionLeft,30,13860,6,35,0,35,0,1,,,,,,,,,,,,,,,,,,,,,,,,,,,,,,,,,,,,,,,
,,,,,,,,2023-08-16_08h39.10.593,HF_wild_card,2022.2.4,Win32,4.000288021,64874ebb817e22a5cb2f325f,64d2fd46c836a06233681665,64dc7cd28eba779b58e2ece4,,,,,,,decisionTrl,resources/DBN.BMP,resources/DG.BMP,Door2,0.423263328,0.05088853,1,0,0,9.9922,optionRight,40,13900,6,36,0,36,0,1,,,,,,,,,,,,,,,,,,,,,,,,,,,,,,,,,,,,,,,
,,,,,,,,2023-08-16_08h39.10.593,HF_wild_card,2022.2.4,Win32,4.000288021,64874ebb817e22a5cb2f325f,64d2fd46c836a06233681665,64dc7cd28eba779b58e2ece4,,,,,,,decisionTrl,resources/DY.BMP,resources/DB.BMP,Door4,-0.358642973,0.02180937,1,0,0,3.0819,optionLeft,80,13980,6,37,0,37,0,1,,,,,,,,,,,,,,,,,,,,,,,,,,,,,,,,,,,,,,,
,,,,,,,,2023-08-16_08h39.10.593,HF_wild_card,2022.2.4,Win32,4.000288021,64874ebb817e22a5cb2f325f,64d2fd46c836a06233681665,64dc7cd28eba779b58e2ece4,,,,,,,sngl,resources/DBN.BMP,resources/Empty.png,Door1,-0.410339257,0.008885299,1,0,0,6.1129,optionLeft,30,14010,6,38,0,38,0,1,,,,,,,,,,,,,,,,,,,,,,,,,,,,,,,,,,,,,,,
,,,,,,,,2023-08-16_08h39.10.593,HF_wild_card,2022.2.4,Win32,4.000288021,64874ebb817e22a5cb2f325f,64d2fd46c836a06233681665,64dc7cd28eba779b58e2ece4,,,,,,,ctch,resources/DG.BMP,resources/DR.BMP,Door3,0.410339257,0.052504039,1,0,0,2.8791,optionRight,70,14080,6,39,0,39,0,1,,,,,,,,,,,,,,,,,,,,,,,,,,,,,,,,,,,,,,,
,,,,,,,,2023-08-16_08h39.10.593,HF_wild_card,2022.2.4,Win32,4.000288021,64874ebb817e22a5cb2f325f,64d2fd46c836a06233681665,64dc7cd28eba779b58e2ece4,,,,,,,decisionTrl,resources/DY.BMP,resources/DR.BMP,Door4,-0.403877221,0.031502423,1,0,0,3.5139,optionLeft,80,14160,6,40,0,40,0,1,,,,,,,,,,,,,,,,,,,,,,,,,,,,,,,,,,,,,,,
,,,,,,,,2023-08-16_08h39.10.593,HF_wild_card,2022.2.4,Win32,4.000288021,64874ebb817e22a5cb2f325f,64d2fd46c836a06233681665,64dc7cd28eba779b58e2ece4,,,,,,,decisionTrl,resources/DR.BMP,resources/DY.BMP,Door3,-0.381260097,0.025040388,1,0,0,1.7365,optionLeft,70,14230,6,41,0,41,0,1,,,,,,,,,,,,,,,,,,,,,,,,,,,,,,,,,,,,,,,
,,,,,,,,2023-08-16_08h39.10.593,HF_wild_card,2022.2.4,Win32,4.000288021,64874ebb817e22a5cb2f325f,64d2fd46c836a06233681665,64dc7cd28eba779b58e2ece4,,,,,,,decisionTrl,resources/DB.BMP,resources/DG.BMP,WildCard_Ex,-0.397415186,0.010500808,1,0,0,5.9042,optionLeft,55,14285,6,42,0,42,0,1,,,,,,,,,,,,,,,,,,,,,,,,,,,,,,,,,,,,,,,
,,,,,,,,2023-08-16_08h39.10.593,HF_wild_card,2022.2.4,Win32,4.000288021,64874ebb817e22a5cb2f325f,64d2fd46c836a06233681665,64dc7cd28eba779b58e2ece4,,,,,,,sngl,resources/DR.BMP,resources/Empty.png,Door3,-0.373182553,0.028271405,1,0,0,1.9714,optionLeft,70,14355,6,43,0,43,0,1,,,,,,,,,,,,,,,,,,,,,,,,,,,,,,,,,,,,,,,
,,,,,,,,2023-08-16_08h39.10.593,HF_wild_card,2022.2.4,Win32,4.000288021,64874ebb817e22a5cb2f325f,64d2fd46c836a06233681665,64dc7cd28eba779b58e2ece4,,,,,,,,,,,,,,,,,,,,,,,,,,5,0,5,0,1,,,,,,,,,,,,,,,,,,,,,,,,,,,,,,,,,,
,,,,,,,,2023-08-16_08h39.10.593,HF_wild_card,2022.2.4,Win32,4.000288021,64874ebb817e22a5cb2f325f,64d2fd46c836a06233681665,64dc7cd28eba779b58e2ece4,,,,,,,decisionTrl,resources/DY.BMP,resources/DR.BMP,Door4,-0.394184168,-0.012116317,1,0,0,8.3737,optionLeft,60,14415,7,0,0,0,0,1,,,,,,,,,,,,,,,,,,,,,,,,,,,,,,,,,,,,,,,
,,,,,,,,2023-08-16_08h39.10.593,HF_wild_card,2022.2.4,Win32,4.000288021,64874ebb817e22a5cb2f325f,64d2fd46c836a06233681665,64dc7cd28eba779b58e2ece4,,,,,,,decisionTrl,resources/DY.BMP,resources/DR.BMP,Door3,0.413570275,-0.03634895,1,0,0,1.9788,optionRight,70,14485,7,1,0,1,0,1,,,,,,,,,,,,,,,,,,,,,,,,,,,,,,,,,,,,,,,
,,,,,,,,2023-08-16_08h39.10.593,HF_wild_card,2022.2.4,Win32,4.000288021,64874ebb817e22a5cb2f325f,64d2fd46c836a06233681665,64dc7cd28eba779b58e2ece4,,,,,,,ctch,resources/DR.BMP,resources/DG.BMP,Door3,-0.432956381,-0.041195477,1,0,0,2.0609,optionLeft,70,14555,7,2,0,2,0,1,,,,,,,,,,,,,,,,,,,,,,,,,,,,,,,,,,,,,,,
,,,,,,,,2023-08-16_08h39.10.593,HF_wild_card,2022.2.4,Win32,4.000288021,64874ebb817e22a5cb2f325f,64d2fd46c836a06233681665,64dc7cd28eba779b58e2ece4,,,,,,,decisionTrl,resources/DBN.BMP,resources/DG.BMP,Door2,0.455573506,0.03634895,1,0,0,4.5674,optionRight,20,14575,7,3,0,3,0,1,,,,,,,,,,,,,,,,,,,,,,,,,,,,,,,,,,,,,,,
,,,,,,,,2023-08-16_08h39.10.593,HF_wild_card,2022.2.4,Win32,4.000288021,64874ebb817e22a5cb2f325f,64d2fd46c836a06233681665,64dc7cd28eba779b58e2ece4,,,,,,,decisionTrl,resources/DR.BMP,resources/DY.BMP,Door4,0.418416801,0.026655897,1,0,0,2.5895,optionRight,80,14655,7,4,0,4,0,1,,,,,,,,,,,,,,,,,,,,,,,,,,,,,,,,,,,,,,,
,,,,,,,,2023-08-16_08h39.10.593,HF_wild_card,2022.2.4,Win32,4.000288021,64874ebb817e22a5cb2f325f,64d2fd46c836a06233681665,64dc7cd28eba779b58e2ece4,,,,,,,decisionTrl,resources/DG.BMP,resources/DBN.BMP,Door1,0.397415186,0.013731826,1,0,0,3.1505,optionRight,30,14685,7,5,0,5,0,1,,,,,,,,,,,,,,,,,,,,,,,,,,,,,,,,,,,,,,,
,,,,,,,,2023-08-16_08h39.10.593,HF_wild_card,2022.2.4,Win32,4.000288021,64874ebb817e22a5cb2f325f,64d2fd46c836a06233681665,64dc7cd28eba779b58e2ece4,,,,,,,ctch,resources/DR.BMP,resources/DG.BMP,Door3,-0.403877221,0.029886914,1,0,0,1.9789,optionLeft,70,14755,7,6,0,6,0,1,,,,,,,,,,,,,,,,,,,,,,,,,,,,,,,,,,,,,,,
,,,,,,,,2023-08-16_08h39.10.593,HF_wild_card,2022.2.4,Win32,4.000288021,64874ebb817e22a5cb2f325f,64d2fd46c836a06233681665,64dc7cd28eba779b58e2ece4,,,,,,,ctch,resources/DY.BMP,resources/DBN.BMP,Door4,-0.395799677,0.034733441,1,0,0,5.2499,optionLeft,60,14815,7,7,0,7,0,1,,,,,,,,,,,,,,,,,,,,,,,,,,,,,,,,,,,,,,,
,,,,,,,,2023-08-16_08h39.10.593,HF_wild_card,2022.2.4,Win32,4.000288021,64874ebb817e22a5cb2f325f,64d2fd46c836a06233681665,64dc7cd28eba779b58e2ece4,,,,,,,decisionTrl,resources/DG.BMP,resources/DBN.BMP,Door1,0.389337641,0.020193861,1,0,0,3.3989,optionRight,30,14845,7,8,0,8,0,1,,,,,,,,,,,,,,,,,,,,,,,,,,,,,,,,,,,,,,,
,,,,,,,,2023-08-16_08h39.10.593,HF_wild_card,2022.2.4,Win32,4.000288021,64874ebb817e22a5cb2f325f,64d2fd46c836a06233681665,64dc7cd28eba779b58e2ece4,,,,,,,decisionTrl,resources/DR.BMP,resources/DY.BMP,Door4,0.40549273,0.033117932,1,0,0,3.0883,optionRight,60,14905,7,9,0,9,0,1,,,,,,,,,,,,,,,,,,,,,,,,,,,,,,,,,,,,,,,
,,,,,,,,2023-08-16_08h39.10.593,HF_wild_card,2022.2.4,Win32,4.000288021,64874ebb817e22a5cb2f325f,64d2fd46c836a06233681665,64dc7cd28eba779b58e2ece4,,,,,,,decisionTrl,resources/DY.BMP,resources/DR.BMP,Door3,0.402261712,0.02180937,1,0,0,2.0539,optionRight,70,14975,7,10,0,10,0,1,,,,,,,,,,,,,,,,,,,,,,,,,,,,,,,,,,,,,,,
,,,,,,,,2023-08-16_08h39.10.593,HF_wild_card,2022.2.4,Win32,4.000288021,64874ebb817e22a5cb2f325f,64d2fd46c836a06233681665,64dc7cd28eba779b58e2ece4,,,,,,,decisionTrl,resources/DBN.BMP,resources/DG.BMP,Door2,0.418416801,0.039579968,1,0,0,6.4879,optionRight,40,15015,7,11,0,11,0,1,,,,,,,,,,,,,,,,,,,,,,,,,,,,,,,,,,,,,,,
,,,,,,,,2023-08-16_08h39.10.593,HF_wild_card,2022.2.4,Win32,4.000288021,64874ebb817e22a5cb2f325f,64d2fd46c836a06233681665,64dc7cd28eba779b58e2ece4,,,,,,,decisionTrl,resources/DR.BMP,resources/DY.BMP,Door3,-0.40549273,-0.002423263,1,0,0,5.0344,optionLeft,70,15085,7,12,0,12,0,1,,,,,,,,,,,,,,,,,,,,,,,,,,,,,,,,,,,,,,,
,,,,,,,,2023-08-16_08h39.10.593,HF_wild_card,2022.2.4,Win32,4.000288021,64874ebb817e22a5cb2f325f,64d2fd46c836a06233681665,64dc7cd28eba779b58e2ece4,,,,,,,ctch,resources/DG.BMP,resources/DR.BMP,Door3,0.394184168,0.034733441,1,0,0,5.6084,optionRight,70,15155,7,13,0,13,0,1,,,,,,,,,,,,,,,,,,,,,,,,,,,,,,,,,,,,,,,
,,,,,,,,2023-08-16_08h39.10.593,HF_wild_card,2022.2.4,Win32,4.000288021,64874ebb817e22a5cb2f325f,64d2fd46c836a06233681665,64dc7cd28eba779b58e2ece4,,,,,,,ctch,resources/DR.BMP,resources/DG.BMP,Door3,-0.407108239,-0.044426494,1,0,0,5.1891,optionLeft,70,15225,7,14,0,14,0,1,,,,,,,,,,,,,,,,,,,,,,,,,,,,,,,,,,,,,,,
,,,,,,,,2023-08-16_08h39.10.593,HF_wild_card,2022.2.4,Win32,4.000288021,64874ebb817e22a5cb2f325f,64d2fd46c836a06233681665,64dc7cd28eba779b58e2ece4,,,,,,,decisionTrl,resources/DR.BMP,resources/DY.BMP,Door4,0.415185784,0.031502423,1,0,0,1.7295,optionRight,60,15285,7,15,0,15,0,1,,,,,,,,,,,,,,,,,,,,,,,,,,,,,,,,,,,,,,,
,,,,,,,,2023-08-16_08h39.10.593,HF_wild_card,2022.2.4,Win32,4.000288021,64874ebb817e22a5cb2f325f,64d2fd46c836a06233681665,64dc7cd28eba779b58e2ece4,,,,,,,ctch,resources/DY.BMP,resources/DBN.BMP,Door4,-0.392568659,0.071890145,1,0,0,4.0353,optionLeft,60,15345,7,16,0,16,0,1,,,,,,,,,,,,,,,,,,,,,,,,,,,,,,,,,,,,,,,
,,,,,,,,2023-08-16_08h39.10.593,HF_wild_card,2022.2.4,Win32,4.000288021,64874ebb817e22a5cb2f325f,64d2fd46c836a06233681665,64dc7cd28eba779b58e2ece4,,,,,,,ctch,resources/DBN.BMP,resources/DY.BMP,Door4,0.413570275,0.031502423,1,0,0,4.1899,optionRight,60,15405,7,17,0,17,0,1,,,,,,,,,,,,,,,,,,,,,,,,,,,,,,,,,,,,,,,
,,,,,,,,2023-08-16_08h39.10.593,HF_wild_card,2022.2.4,Win32,4.000288021,64874ebb817e22a5cb2f325f,64d2fd46c836a06233681665,64dc7cd28eba779b58e2ece4,,,,,,,decisionTrl,resources/DG.BMP,resources/DBN.BMP,Door1,0.402261712,0.118739903,1,0,0,5.8174,optionRight,30,15435,7,18,0,18,0,1,,,,,,,,,,,,,,,,,,,,,,,,,,,,,,,,,,,,,,,
,,,,,,,,2023-08-16_08h39.10.593,HF_wild_card,2022.2.4,Win32,4.000288021,64874ebb817e22a5cb2f325f,64d2fd46c836a06233681665,64dc7cd28eba779b58e2ece4,,,,,,,ctch,resources/DG.BMP,resources/DR.BMP,Door3,0.387722132,0.06542811,1,0,0,12.4666,optionRight,70,15505,7,19,0,19,0,1,,,,,,,,,,,,,,,,,,,,,,,,,,,,,,,,,,,,,,,
,,,,,,,,2023-08-16_08h39.10.593,HF_wild_card,2022.2.4,Win32,4.000288021,64874ebb817e22a5cb2f325f,64d2fd46c836a06233681665,64dc7cd28eba779b58e2ece4,,,,,,,decisionTrl,resources/DR.BMP,resources/DY.BMP,Door4,0.399030695,0.026655897,1,0,0,5.6945,optionRight,80,15585,7,20,0,20,0,1,,,,,,,,,,,,,,,,,,,,,,,,,,,,,,,,,,,,,,,
,,,,,,,,2023-08-16_08h39.10.593,HF_wild_card,2022.2.4,Win32,4.000288021,64874ebb817e22a5cb2f325f,64d2fd46c836a06233681665,64dc7cd28eba779b58e2ece4,,,,,,,ctch,resources/DG.BMP,resources/DR.BMP,Door3,0.397415186,0.002423263,1,0,0,10.1819,optionRight,70,15655,7,21,0,21,0,1,,,,,,,,,,,,,,,,,,,,,,,,,,,,,,,,,,,,,,,
,,,,,,,,2023-08-16_08h39.10.593,HF_wild_card,2022.2.4,Win32,4.000288021,64874ebb817e22a5cb2f325f,64d2fd46c836a06233681665,64dc7cd28eba779b58e2ece4,,,,,,,ctch,resources/DBN.BMP,resources/DY.BMP,Door4,0.403877221,0.02180937,1,0,0,6.4758,optionRight,60,15715,7,22,0,22,0,1,,,,,,,,,,,,,,,,,,,,,,,,,,,,,,,,,,,,,,,
,,,,,,,,2023-08-16_08h39.10.593,HF_wild_card,2022.2.4,Win32,4.000288021,64874ebb817e22a5cb2f325f,64d2fd46c836a06233681665,64dc7cd28eba779b58e2ece4,,,,,,,decisionTrl,resources/DBN.BMP,resources/DG.BMP,Door2,0.411954766,0.026655897,1,0,0,4.6369,optionRight,20,15735,7,23,0,23,0,1,,,,,,,,,,,,,,,,,,,,,,,,,,,,,,,,,,,,,,,
,,,,,,,,2023-08-16_08h39.10.593,HF_wild_card,2022.2.4,Win32,4.000288021,64874ebb817e22a5cb2f325f,64d2fd46c836a06233681665,64dc7cd28eba779b58e2ece4,,,,,,,decisionTrl,resources/DR.BMP,resources/DY.BMP,Door3,-0.392568659,-0.000807754,1,0,0,10.3466,optionLeft,70,15805,7,24,0,24,0,1,,,,,,,,,,,,,,,,,,,,,,,,,,,,,,,,,,,,,,,
,,,,,,,,2023-08-16_08h39.10.593,HF_wild_card,2022.2.4,Win32,4.000288021,64874ebb817e22a5cb2f325f,64d2fd46c836a06233681665,64dc7cd28eba779b58e2ece4,,,,,,,decisionTrl,resources/DBN.BMP,resources/DG.BMP,Door2,0.408723748,0.039579968,1,0,0,7.0059,optionRight,40,15845,7,25,0,25,0,1,,,,,,,,,,,,,,,,,,,,,,,,,,,,,,,,,,,,,,,
,,,,,,,,2023-08-16_08h39.10.593,HF_wild_card,2022.2.4,Win32,4.000288021,64874ebb817e22a5cb2f325f,64d2fd46c836a06233681665,64dc7cd28eba779b58e2ece4,,,,,,,decisionTrl,resources/DY.BMP,resources/DR.BMP,Door4,-0.400646204,0.025040388,1,0,0,9.2117,optionLeft,80,15925,7,26,0,26,0,1,,,,,,,,,,,,,,,,,,,,,,,,,,,,,,,,,,,,,,,
,,,,,,,,2023-08-16_08h39.10.593,HF_wild_card,2022.2.4,Win32,4.000288021,64874ebb817e22a5cb2f325f,64d2fd46c836a06233681665,64dc7cd28eba779b58e2ece4,,,,,,,ctch,resources/DY.BMP,resources/DBN.BMP,Door4,-0.392568659,0.025040388,1,0,0,2.1083,optionLeft,60,15985,7,27,0,27,0,1,,,,,,,,,,,,,,,,,,,,,,,,,,,,,,,,,,,,,,,
,,,,,,,,2023-08-16_08h39.10.593,HF_wild_card,2022.2.4,Win32,4.000288021,64874ebb817e22a5cb2f325f,64d2fd46c836a06233681665,64dc7cd28eba779b58e2ece4,,,,,,,decisionTrl,resources/DG.BMP,resources/DBN.BMP,Door1,0.408723748,0.025040388,1,0,0,2.3145,optionRight,30,16015,7,28,0,28,0,1,,,,,,,,,,,,,,,,,,,,,,,,,,,,,,,,,,,,,,,
,,,,,,,,2023-08-16_08h39.10.593,HF_wild_card,2022.2.4,Win32,4.000288021,64874ebb817e22a5cb2f325f,64d2fd46c836a06233681665,64dc7cd28eba779b58e2ece4,,,,,,,decisionTrl,resources/DY.BMP,resources/DR.BMP,Door4,-0.395799677,0.031502423,1,0,0,1.7504,optionLeft,80,16095,7,29,0,29,0,1,,,,,,,,,,,,,,,,,,,,,,,,,,,,,,,,,,,,,,,
,,,,,,,,2023-08-16_08h39.10.593,HF_wild_card,2022.2.4,Win32,4.000288021,64874ebb817e22a5cb2f325f,64d2fd46c836a06233681665,64dc7cd28eba779b58e2ece4,,,,,,,decisionTrl,resources/DG.BMP,resources/DBN.BMP,Door1,0.39095315,0.010500808,1,0,0,2.3448,optionRight,30,16125,7,30,0,30,0,1,,,,,,,,,,,,,,,,,,,,,,,,,,,,,,,,,,,,,,,
,,,,,,,,2023-08-16_08h39.10.593,HF_wild_card,2022.2.4,Win32,4.000288021,64874ebb817e22a5cb2f325f,64d2fd46c836a06233681665,64dc7cd28eba779b58e2ece4,,,,,,,decisionTrl,resources/DBN.BMP,resources/DG.BMP,Door2,0.379644588,0.052504039,1,0,0,2.5664,optionRight,40,16165,7,31,0,31,0,1,,,,,,,,,,,,,,,,,,,,,,,,,,,,,,,,,,,,,,,
,,,,,,,,2023-08-16_08h39.10.593,HF_wild_card,2022.2.4,Win32,4.000288021,64874ebb817e22a5cb2f325f,64d2fd46c836a06233681665,64dc7cd28eba779b58e2ece4,,,,,,,ctch,resources/DBN.BMP,resources/DY.BMP,Door4,0.397415186,0.029886914,1,0,0,2.0573,optionRight,60,16225,7,32,0,32,0,1,,,,,,,,,,,,,,,,,,,,,,,,,,,,,,,,,,,,,,,
,,,,,,,,2023-08-16_08h39.10.593,HF_wild_card,2022.2.4,Win32,4.000288021,64874ebb817e22a5cb2f325f,64d2fd46c836a06233681665,64dc7cd28eba779b58e2ece4,,,,,,,decisionTrl,resources/DBN.BMP,resources/DG.BMP,Door2,0.399030695,0.049273021,1,0,0,3.08,optionRight,20,16245,7,33,0,33,0,1,,,,,,,,,,,,,,,,,,,,,,,,,,,,,,,,,,,,,,,
,,,,,,,,2023-08-16_08h39.10.593,HF_wild_card,2022.2.4,Win32,4.000288021,64874ebb817e22a5cb2f325f,64d2fd46c836a06233681665,64dc7cd28eba779b58e2ece4,,,,,,,decisionTrl,resources/DY.BMP,resources/DR.BMP,Door3,0.387722132,-0.047657512,1,0,0,5.961,optionRight,70,16315,7,34,0,34,0,1,,,,,,,,,,,,,,,,,,,,,,,,,,,,,,,,,,,,,,,
,,,,,,,,2023-08-16_08h39.10.593,HF_wild_card,2022.2.4,Win32,4.000288021,64874ebb817e22a5cb2f325f,64d2fd46c836a06233681665,64dc7cd28eba779b58e2ece4,,,,,,,decisionTrl,resources/DG.BMP,resources/DBN.BMP,Door1,0.39095315,0.012116317,1,0,0,3.8497,optionRight,30,16345,7,35,0,35,0,1,,,,,,,,,,,,,,,,,,,,,,,,,,,,,,,,,,,,,,,
,,,,,,,,2023-08-16_08h39.10.593,HF_wild_card,2022.2.4,Win32,4.000288021,64874ebb817e22a5cb2f325f,64d2fd46c836a06233681665,64dc7cd28eba779b58e2ece4,,,,,,,,,,,,,,,,,,,,,,,,,,6,0,6,0,1,,,,,,,,,,,,,,,,,,,,,,,,,,,,,,,,,,
,,,,,,,,2023-08-16_08h39.10.593,HF_wild_card,2022.2.4,Win32,4.000288021,64874ebb817e22a5cb2f325f,64d2fd46c836a06233681665,64dc7cd28eba779b58e2ece4,,,,,,,,,,,,,,,,,,,,,,,,,,,,,,,4,,,,,,,,,,,,,,,,,,,,,,,,,,,,,,,,,
,,,,,,,,2023-08-16_08h39.10.593,HF_wild_card,2022.2.4,Win32,4.000288021,64874ebb817e22a5cb2f325f,64d2fd46c836a06233681665,64dc7cd28eba779b58e2ece4,,,,,,,,,,,,,,,,,,,,,,,,,,,,,,,,,,,,,,,,,,,,,,,,,,,,,,,,,,,,,,,,
,,,,,,,,2023-08-16_08h39.10.593,HF_wild_card,2022.2.4,Win32,4.000288021,64874ebb817e22a5cb2f325f,64d2fd46c836a06233681665,64dc7cd28eba779b58e2ece4,,,,,,,,,,,,,,,,,,,,,,,,,,,,,,,,55,WC_extreme,resources/DB.BMP,0,0,0,0,1,,,,,,,,,,,,,,,,,,,,,,,,,
,,,,,,,,2023-08-16_08h39.10.593,HF_wild_card,2022.2.4,Win32,4.000288021,64874ebb817e22a5cb2f325f,64d2fd46c836a06233681665,64dc7cd28eba779b58e2ece4,,,,,,,,,,,,,,,,,,,,,,,,,,,,,,,,30,Door2,resources/DG.BMP,1,0,1,0,1,,,,,,,,,,,,,,,,,,,,,,,,,
,,,,,,,,2023-08-16_08h39.10.593,HF_wild_card,2022.2.4,Win32,4.000288021,64874ebb817e22a5cb2f325f,64d2fd46c836a06233681665,64dc7cd28eba779b58e2ece4,,,,,,,,,,,,,,,,,,,,,,,,,,,,,,,,5,WC_nonExtreme,resources/DP.BMP,2,0,2,0,1,,,,,,,,,,,,,,,,,,,,,,,,,
,,,,,,,,2023-08-16_08h39.10.593,HF_wild_card,2022.2.4,Win32,4.000288021,64874ebb817e22a5cb2f325f,64d2fd46c836a06233681665,64dc7cd28eba779b58e2ece4,,,,,,,,,,,,,,,,,,,,,,,,,,,,,,,,70,Door3,resources/DR.BMP,3,0,3,0,1,,,,,,,,,,,,,,,,,,,,,,,,,
,,,,,,,,2023-08-16_08h39.10.593,HF_wild_card,2022.2.4,Win32,4.000288021,64874ebb817e22a5cb2f325f,64d2fd46c836a06233681665,64dc7cd28eba779b58e2ece4,,,,,,,,,,,,,,,,,,,,,,,,,,,,,,,,20,Door1,resources/DBN.BMP,4,0,4,0,1,,,,,,,,,,,,,,,,,,,,,,,,,
,,,,,,,,2023-08-16_08h39.10.593,HF_wild_card,2022.2.4,Win32,4.000288021,64874ebb817e22a5cb2f325f,64d2fd46c836a06233681665,64dc7cd28eba779b58e2ece4,,,,,,,,,,,,,,,,,,,,,,,,,,,,,,,,60,Door4,resources/DY.BMP,5,0,5,0,1,,,,,,,,,,,,,,,,,,,,,,,,,
,,,,,,,,2023-08-16_08h39.10.593,HF_wild_card,2022.2.4,Win32,4.000288021,64874ebb817e22a5cb2f325f,64d2fd46c836a06233681665,64dc7cd28eba779b58e2ece4,,,,,,,,,,,,,,,,,,,,,,,,,,,,,,,,,,,,,,,,,,,,,,,,,,,,,,,,,,,,,,,,
