Condition,Low fixed image (Door1),Low risky image (Door2),High fixed image (Door3),High risky image (Door4),NonExtreme Wild Card 1,NonExtreme Wild Card 2,,date,expName,psychopyVersion,OS,frameRate,PROLIFIC_PID,STUDY_ID,SESSION_ID,mouse_2.x,mouse_2.y,mouse_2.leftButton,mouse_2.midButton,mouse_2.rightButton,mouse_2.clicked_name,Trial Type,Left Option Image,Right Option Image,Chosen Door,mouse.x,mouse.y,mouse.leftButton,mouse.midButton,mouse.rightButton,mouse.time,mouse.clicked_name,Feedback,Cumulative Reward,Block,trial.thisRepN,trial.thisTrialN,trial.thisN,trial.thisIndex,trial.ran,blocks.thisRepN,blocks.thisTrialN,blocks.thisN,blocks.thisIndex,blocks.ran,Money conversion,First Outcome Reported,Shown Door (First Outcome),Displayed Image (First Outcome),outcomes.thisRepN,outcomes.thisTrialN,outcomes.thisN,outcomes.thisIndex,outcomes.ran,judgments.thisRepN,judgments.thisTrialN,judgments.thisN,judgments.thisIndex,judgments.ran,freqMouse.x,freqMouse.y,freqMouse.leftButton,freqMouse.midButton,freqMouse.rightButton,freqMouse.clicked_name,trials.thisRepN,trials.thisTrialN,trials.thisN,trials.thisIndex,trials.ran,FQJ for first outcome,FQJ for second outcome,Shown Door,Displayed Image,judgBlock.thisRepN,judgBlock.thisTrialN,judgBlock.thisN,judgBlock.thisIndex,judgBlock.ran
2,resources/DB.BMP,resources/DBN.BMP,resources/DP.BMP,resources/DR.BMP,resources/DG.BMP,resources/DY.BMP,592037296b34af0001e3ec56,2023-08-16_08h43.11.913,HF_wild_card,2022.2.4,Win32,60.07449237,592037296b34af0001e3ec56,64d2fd46c836a06233681665,64dc7d03c9d0bce4168bcdec,,,,,,,,,,,,,,,,,,,,,,,,,,,,,,,,,,,,,,,,,,,,,,,,,,,,,,,,,,,,,,,,
,,,,,,,592037296b34af0001e3ec56,2023-08-16_08h43.11.913,HF_wild_card,2022.2.4,Win32,60.07449237,592037296b34af0001e3ec56,64d2fd46c836a06233681665,64dc7d03c9d0bce4168bcdec,-0.026041667,-0.424479167,1,0,0,agree,,,,,,,,,,,,,,,,,,,,,,,,,,,,,,,,,,,,,,,,,,,,,,,,,,,,,,,,,,
,,,,,,,592037296b34af0001e3ec56,2023-08-16_08h43.11.913,HF_wild_card,2022.2.4,Win32,60.07449237,592037296b34af0001e3ec56,64d2fd46c836a06233681665,64dc7d03c9d0bce4168bcdec,,,,,,,,,,,,,,,,,,,,,,,,,,,,,,,,,,,,,,,,,,,,,,,,,,,,,,,,,,,,,,,,
,,,,,,,592037296b34af0001e3ec56,2023-08-16_08h43.11.913,HF_wild_card,2022.2.4,Win32,60.07449237,592037296b34af0001e3ec56,64d2fd46c836a06233681665,64dc7d03c9d0bce4168bcdec,,,,,,,sngl,resources/Empty.png,resources/DP.BMP,Door3,0.388020833,-0.127604167,1,0,0,3.0968,optionRight,70,70,1,0,0,0,0,1,,,,,,,,,,,,,,,,,,,,,,,,,,,,,,,,,,,,,,,
,,,,,,,592037296b34af0001e3ec56,2023-08-16_08h43.11.913,HF_wild_card,2022.2.4,Win32,60.07449237,592037296b34af0001e3ec56,64d2fd46c836a06233681665,64dc7d03c9d0bce4168bcdec,,,,,,,decisionTrl,resources/DP.BMP,resources/DR.BMP,Door4,0.147135417,-0.028645833,1,0,0,5.9161,optionRight,80,150,1,1,0,1,0,1,,,,,,,,,,,,,,,,,,,,,,,,,,,,,,,,,,,,,,,
,,,,,,,592037296b34af0001e3ec56,2023-08-16_08h43.11.913,HF_wild_card,2022.2.4,Win32,60.07449237,592037296b34af0001e3ec56,64d2fd46c836a06233681665,64dc7d03c9d0bce4168bcdec,,,,,,,decisionTrl,resources/DR.BMP,resources/DP.BMP,Door4,-0.192708333,0.013020833,1,0,0,3.2479,optionLeft,60,210,1,2,0,2,0,1,,,,,,,,,,,,,,,,,,,,,,,,,,,,,,,,,,,,,,,
,,,,,,,592037296b34af0001e3ec56,2023-08-16_08h43.11.913,HF_wild_card,2022.2.4,Win32,60.07449237,592037296b34af0001e3ec56,64d2fd46c836a06233681665,64dc7d03c9d0bce4168bcdec,,,,,,,sngl,resources/DP.BMP,resources/Empty.png,Door3,-0.44140625,0.028645833,1,0,0,2.9561,optionLeft,70,280,1,3,0,3,0,1,,,,,,,,,,,,,,,,,,,,,,,,,,,,,,,,,,,,,,,
,,,,,,,592037296b34af0001e3ec56,2023-08-16_08h43.11.913,HF_wild_card,2022.2.4,Win32,60.07449237,592037296b34af0001e3ec56,64d2fd46c836a06233681665,64dc7d03c9d0bce4168bcdec,,,,,,,sngl,resources/Empty.png,resources/DB.BMP,Door1,0.373697917,-0.0234375,1,0,0,3.7008,optionRight,30,310,1,4,0,4,0,1,,,,,,,,,,,,,,,,,,,,,,,,,,,,,,,,,,,,,,,
,,,,,,,592037296b34af0001e3ec56,2023-08-16_08h43.11.913,HF_wild_card,2022.2.4,Win32,60.07449237,592037296b34af0001e3ec56,64d2fd46c836a06233681665,64dc7d03c9d0bce4168bcdec,,,,,,,sngl,resources/Empty.png,resources/DBN.BMP,Door2,0.430989583,-0.014322917,1,0,0,1.0238,optionRight,20,330,1,5,0,5,0,1,,,,,,,,,,,,,,,,,,,,,,,,,,,,,,,,,,,,,,,
,,,,,,,592037296b34af0001e3ec56,2023-08-16_08h43.11.913,HF_wild_card,2022.2.4,Win32,60.07449237,592037296b34af0001e3ec56,64d2fd46c836a06233681665,64dc7d03c9d0bce4168bcdec,,,,,,,decisionTrl,resources/DP.BMP,resources/DR.BMP,Door3,-0.2734375,-0.065104167,1,0,0,2.7367,optionLeft,70,400,1,6,0,6,0,1,,,,,,,,,,,,,,,,,,,,,,,,,,,,,,,,,,,,,,,
,,,,,,,592037296b34af0001e3ec56,2023-08-16_08h43.11.913,HF_wild_card,2022.2.4,Win32,60.07449237,592037296b34af0001e3ec56,64d2fd46c836a06233681665,64dc7d03c9d0bce4168bcdec,,,,,,,decisionTrl,resources/DBN.BMP,resources/DB.BMP,Door1,0.484375,-0.022135417,1,0,0,1.7277,optionRight,30,430,1,7,0,7,0,1,,,,,,,,,,,,,,,,,,,,,,,,,,,,,,,,,,,,,,,
,,,,,,,592037296b34af0001e3ec56,2023-08-16_08h43.11.913,HF_wild_card,2022.2.4,Win32,60.07449237,592037296b34af0001e3ec56,64d2fd46c836a06233681665,64dc7d03c9d0bce4168bcdec,,,,,,,decisionTrl,resources/DB.BMP,resources/DY.BMP,WildCard_NonEx,0.263020833,0.001302083,1,0,0,2.1286,optionRight,55,485,1,8,0,8,0,1,,,,,,,,,,,,,,,,,,,,,,,,,,,,,,,,,,,,,,,
,,,,,,,592037296b34af0001e3ec56,2023-08-16_08h43.11.913,HF_wild_card,2022.2.4,Win32,60.07449237,592037296b34af0001e3ec56,64d2fd46c836a06233681665,64dc7d03c9d0bce4168bcdec,,,,,,,sngl,resources/DB.BMP,resources/Empty.png,Door1,-0.22265625,-0.020833333,1,0,0,1.3855,optionLeft,30,515,1,9,0,9,0,1,,,,,,,,,,,,,,,,,,,,,,,,,,,,,,,,,,,,,,,
,,,,,,,592037296b34af0001e3ec56,2023-08-16_08h43.11.913,HF_wild_card,2022.2.4,Win32,60.07449237,592037296b34af0001e3ec56,64d2fd46c836a06233681665,64dc7d03c9d0bce4168bcdec,,,,,,,decisionTrl,resources/DY.BMP,resources/DB.BMP,WildCard_NonEx,-0.3515625,-0.013020833,1,0,0,0.7597,optionLeft,55,570,1,10,0,10,0,1,,,,,,,,,,,,,,,,,,,,,,,,,,,,,,,,,,,,,,,
,,,,,,,592037296b34af0001e3ec56,2023-08-16_08h43.11.913,HF_wild_card,2022.2.4,Win32,60.07449237,592037296b34af0001e3ec56,64d2fd46c836a06233681665,64dc7d03c9d0bce4168bcdec,,,,,,,decisionTrl,resources/DB.BMP,resources/DBN.BMP,Door2,0.268229167,0.015625,1,0,0,1.9122,optionRight,20,590,1,11,0,11,0,1,,,,,,,,,,,,,,,,,,,,,,,,,,,,,,,,,,,,,,,
,,,,,,,592037296b34af0001e3ec56,2023-08-16_08h43.11.913,HF_wild_card,2022.2.4,Win32,60.07449237,592037296b34af0001e3ec56,64d2fd46c836a06233681665,64dc7d03c9d0bce4168bcdec,,,,,,,sngl,resources/Empty.png,resources/DY.BMP,WildCard_NonEx,0.272135417,-0.002604167,1,0,0,1.3686,optionRight,45,635,1,12,0,12,0,1,,,,,,,,,,,,,,,,,,,,,,,,,,,,,,,,,,,,,,,
,,,,,,,592037296b34af0001e3ec56,2023-08-16_08h43.11.913,HF_wild_card,2022.2.4,Win32,60.07449237,592037296b34af0001e3ec56,64d2fd46c836a06233681665,64dc7d03c9d0bce4168bcdec,,,,,,,decisionTrl,resources/DB.BMP,resources/DBN.BMP,Door1,-0.326822917,0.015625,1,0,0,2.1441,optionLeft,30,665,1,13,0,13,0,1,,,,,,,,,,,,,,,,,,,,,,,,,,,,,,,,,,,,,,,
,,,,,,,592037296b34af0001e3ec56,2023-08-16_08h43.11.913,HF_wild_card,2022.2.4,Win32,60.07449237,592037296b34af0001e3ec56,64d2fd46c836a06233681665,64dc7d03c9d0bce4168bcdec,,,,,,,sngl,resources/DY.BMP,resources/Empty.png,WildCard_NonEx,-0.244791667,-0.013020833,1,0,0,1.0538,optionLeft,45,710,1,14,0,14,0,1,,,,,,,,,,,,,,,,,,,,,,,,,,,,,,,,,,,,,,,
,,,,,,,592037296b34af0001e3ec56,2023-08-16_08h43.11.913,HF_wild_card,2022.2.4,Win32,60.07449237,592037296b34af0001e3ec56,64d2fd46c836a06233681665,64dc7d03c9d0bce4168bcdec,,,,,,,ctch,resources/DP.BMP,resources/DBN.BMP,Door3,-0.166666667,0.016927083,1,0,0,1.8271,optionLeft,70,780,1,15,0,15,0,1,,,,,,,,,,,,,,,,,,,,,,,,,,,,,,,,,,,,,,,
,,,,,,,592037296b34af0001e3ec56,2023-08-16_08h43.11.913,HF_wild_card,2022.2.4,Win32,60.07449237,592037296b34af0001e3ec56,64d2fd46c836a06233681665,64dc7d03c9d0bce4168bcdec,,,,,,,decisionTrl,resources/DR.BMP,resources/DP.BMP,Door4,-0.263020833,-0.015625,1,0,0,1.8725,optionLeft,80,860,1,16,0,16,0,1,,,,,,,,,,,,,,,,,,,,,,,,,,,,,,,,,,,,,,,
,,,,,,,592037296b34af0001e3ec56,2023-08-16_08h43.11.913,HF_wild_card,2022.2.4,Win32,60.07449237,592037296b34af0001e3ec56,64d2fd46c836a06233681665,64dc7d03c9d0bce4168bcdec,,,,,,,decisionTrl,resources/DR.BMP,resources/DP.BMP,Door4,-0.31640625,-0.014322917,1,0,0,0.8493,optionLeft,80,940,1,17,0,17,0,1,,,,,,,,,,,,,,,,,,,,,,,,,,,,,,,,,,,,,,,
,,,,,,,592037296b34af0001e3ec56,2023-08-16_08h43.11.913,HF_wild_card,2022.2.4,Win32,60.07449237,592037296b34af0001e3ec56,64d2fd46c836a06233681665,64dc7d03c9d0bce4168bcdec,,,,,,,decisionTrl,resources/DY.BMP,resources/DP.BMP,WildCard_NonEx,-0.279947917,-0.026041667,1,0,0,3.3291,optionLeft,45,985,1,18,0,18,0,1,,,,,,,,,,,,,,,,,,,,,,,,,,,,,,,,,,,,,,,
,,,,,,,592037296b34af0001e3ec56,2023-08-16_08h43.11.913,HF_wild_card,2022.2.4,Win32,60.07449237,592037296b34af0001e3ec56,64d2fd46c836a06233681665,64dc7d03c9d0bce4168bcdec,,,,,,,ctch,resources/DR.BMP,resources/DB.BMP,Door4,-0.337239583,-0.052083333,1,0,0,1.548,optionLeft,60,1045,1,19,0,19,0,1,,,,,,,,,,,,,,,,,,,,,,,,,,,,,,,,,,,,,,,
,,,,,,,592037296b34af0001e3ec56,2023-08-16_08h43.11.913,HF_wild_card,2022.2.4,Win32,60.07449237,592037296b34af0001e3ec56,64d2fd46c836a06233681665,64dc7d03c9d0bce4168bcdec,,,,,,,ctch,resources/DP.BMP,resources/DBN.BMP,Door3,-0.194010417,-0.029947917,1,0,0,1.51,optionLeft,70,1115,1,20,0,20,0,1,,,,,,,,,,,,,,,,,,,,,,,,,,,,,,,,,,,,,,,
,,,,,,,592037296b34af0001e3ec56,2023-08-16_08h43.11.913,HF_wild_card,2022.2.4,Win32,60.07449237,592037296b34af0001e3ec56,64d2fd46c836a06233681665,64dc7d03c9d0bce4168bcdec,,,,,,,decisionTrl,resources/DR.BMP,resources/DY.BMP,Door4,-0.192708333,-0.016927083,1,0,0,1.5633,optionLeft,80,1195,1,21,0,21,0,1,,,,,,,,,,,,,,,,,,,,,,,,,,,,,,,,,,,,,,,
,,,,,,,592037296b34af0001e3ec56,2023-08-16_08h43.11.913,HF_wild_card,2022.2.4,Win32,60.07449237,592037296b34af0001e3ec56,64d2fd46c836a06233681665,64dc7d03c9d0bce4168bcdec,,,,,,,decisionTrl,resources/DR.BMP,resources/DP.BMP,Door4,-0.30078125,-0.022135417,1,0,0,0.9716,optionLeft,60,1255,1,22,0,22,0,1,,,,,,,,,,,,,,,,,,,,,,,,,,,,,,,,,,,,,,,
,,,,,,,592037296b34af0001e3ec56,2023-08-16_08h43.11.913,HF_wild_card,2022.2.4,Win32,60.07449237,592037296b34af0001e3ec56,64d2fd46c836a06233681665,64dc7d03c9d0bce4168bcdec,,,,,,,decisionTrl,resources/DP.BMP,resources/DR.BMP,Door3,-0.299479167,-0.033854167,1,0,0,0.9871,optionLeft,70,1325,1,23,0,23,0,1,,,,,,,,,,,,,,,,,,,,,,,,,,,,,,,,,,,,,,,
,,,,,,,592037296b34af0001e3ec56,2023-08-16_08h43.11.913,HF_wild_card,2022.2.4,Win32,60.07449237,592037296b34af0001e3ec56,64d2fd46c836a06233681665,64dc7d03c9d0bce4168bcdec,,,,,,,ctch,resources/DR.BMP,resources/DB.BMP,Door4,-0.365885417,-0.02734375,1,0,0,3.0054,optionLeft,60,1385,1,24,0,24,0,1,,,,,,,,,,,,,,,,,,,,,,,,,,,,,,,,,,,,,,,
,,,,,,,592037296b34af0001e3ec56,2023-08-16_08h43.11.913,HF_wild_card,2022.2.4,Win32,60.07449237,592037296b34af0001e3ec56,64d2fd46c836a06233681665,64dc7d03c9d0bce4168bcdec,,,,,,,decisionTrl,resources/DBN.BMP,resources/DB.BMP,Door1,0.32421875,0.016927083,1,0,0,1.1236,optionRight,30,1415,1,25,0,25,0,1,,,,,,,,,,,,,,,,,,,,,,,,,,,,,,,,,,,,,,,
,,,,,,,592037296b34af0001e3ec56,2023-08-16_08h43.11.913,HF_wild_card,2022.2.4,Win32,60.07449237,592037296b34af0001e3ec56,64d2fd46c836a06233681665,64dc7d03c9d0bce4168bcdec,,,,,,,sngl,resources/Empty.png,resources/DR.BMP,Door4,0.430989583,0.00390625,1,0,0,1.6318,optionRight,60,1475,1,26,0,26,0,1,,,,,,,,,,,,,,,,,,,,,,,,,,,,,,,,,,,,,,,
,,,,,,,592037296b34af0001e3ec56,2023-08-16_08h43.11.913,HF_wild_card,2022.2.4,Win32,60.07449237,592037296b34af0001e3ec56,64d2fd46c836a06233681665,64dc7d03c9d0bce4168bcdec,,,,,,,ctch,resources/DBN.BMP,resources/DP.BMP,Door3,0.424479167,0.0546875,1,0,0,2.2962,optionRight,70,1545,1,27,0,27,0,1,,,,,,,,,,,,,,,,,,,,,,,,,,,,,,,,,,,,,,,
,,,,,,,592037296b34af0001e3ec56,2023-08-16_08h43.11.913,HF_wild_card,2022.2.4,Win32,60.07449237,592037296b34af0001e3ec56,64d2fd46c836a06233681665,64dc7d03c9d0bce4168bcdec,,,,,,,decisionTrl,resources/DY.BMP,resources/DBN.BMP,WildCard_NonEx,-0.165364583,-0.03125,1,0,0,1.7439,optionLeft,45,1590,1,28,0,28,0,1,,,,,,,,,,,,,,,,,,,,,,,,,,,,,,,,,,,,,,,
,,,,,,,592037296b34af0001e3ec56,2023-08-16_08h43.11.913,HF_wild_card,2022.2.4,Win32,60.07449237,592037296b34af0001e3ec56,64d2fd46c836a06233681665,64dc7d03c9d0bce4168bcdec,,,,,,,decisionTrl,resources/DY.BMP,resources/DR.BMP,Door4,0.38671875,-0.03125,1,0,0,2.2761,optionRight,60,1650,1,29,0,29,0,1,,,,,,,,,,,,,,,,,,,,,,,,,,,,,,,,,,,,,,,
,,,,,,,592037296b34af0001e3ec56,2023-08-16_08h43.11.913,HF_wild_card,2022.2.4,Win32,60.07449237,592037296b34af0001e3ec56,64d2fd46c836a06233681665,64dc7d03c9d0bce4168bcdec,,,,,,,decisionTrl,resources/DB.BMP,resources/DBN.BMP,Door1,-0.216145833,-0.0078125,1,0,0,0.9516,optionLeft,30,1680,1,30,0,30,0,1,,,,,,,,,,,,,,,,,,,,,,,,,,,,,,,,,,,,,,,
,,,,,,,592037296b34af0001e3ec56,2023-08-16_08h43.11.913,HF_wild_card,2022.2.4,Win32,60.07449237,592037296b34af0001e3ec56,64d2fd46c836a06233681665,64dc7d03c9d0bce4168bcdec,,,,,,,decisionTrl,resources/DB.BMP,resources/DBN.BMP,Door2,0.26171875,0.005208333,1,0,0,0.6076,optionRight,20,1700,1,31,0,31,0,1,,,,,,,,,,,,,,,,,,,,,,,,,,,,,,,,,,,,,,,
,,,,,,,592037296b34af0001e3ec56,2023-08-16_08h43.11.913,HF_wild_card,2022.2.4,Win32,60.07449237,592037296b34af0001e3ec56,64d2fd46c836a06233681665,64dc7d03c9d0bce4168bcdec,,,,,,,decisionTrl,resources/DP.BMP,resources/DY.BMP,Door3,-0.2890625,0.001302083,1,0,0,1.4048,optionLeft,70,1770,1,32,0,32,0,1,,,,,,,,,,,,,,,,,,,,,,,,,,,,,,,,,,,,,,,
,,,,,,,592037296b34af0001e3ec56,2023-08-16_08h43.11.913,HF_wild_card,2022.2.4,Win32,60.07449237,592037296b34af0001e3ec56,64d2fd46c836a06233681665,64dc7d03c9d0bce4168bcdec,,,,,,,ctch,resources/DBN.BMP,resources/DP.BMP,Door3,0.255208333,-0.014322917,1,0,0,1.1388,optionRight,70,1840,1,33,0,33,0,1,,,,,,,,,,,,,,,,,,,,,,,,,,,,,,,,,,,,,,,
,,,,,,,592037296b34af0001e3ec56,2023-08-16_08h43.11.913,HF_wild_card,2022.2.4,Win32,60.07449237,592037296b34af0001e3ec56,64d2fd46c836a06233681665,64dc7d03c9d0bce4168bcdec,,,,,,,decisionTrl,resources/DBN.BMP,resources/DB.BMP,Door1,0.256510417,0.002604167,1,0,0,1.6412,optionRight,30,1870,1,34,0,34,0,1,,,,,,,,,,,,,,,,,,,,,,,,,,,,,,,,,,,,,,,
,,,,,,,592037296b34af0001e3ec56,2023-08-16_08h43.11.913,HF_wild_card,2022.2.4,Win32,60.07449237,592037296b34af0001e3ec56,64d2fd46c836a06233681665,64dc7d03c9d0bce4168bcdec,,,,,,,ctch,resources/DB.BMP,resources/DR.BMP,Door1,-0.407552083,-0.040364583,1,0,0,2,optionLeft,30,1900,1,35,0,35,0,1,,,,,,,,,,,,,,,,,,,,,,,,,,,,,,,,,,,,,,,
,,,,,,,592037296b34af0001e3ec56,2023-08-16_08h43.11.913,HF_wild_card,2022.2.4,Win32,60.07449237,592037296b34af0001e3ec56,64d2fd46c836a06233681665,64dc7d03c9d0bce4168bcdec,,,,,,,sngl,resources/DR.BMP,resources/Empty.png,Door4,-0.278645833,-0.01171875,1,0,0,0.6264,optionLeft,80,1980,1,36,0,36,0,1,,,,,,,,,,,,,,,,,,,,,,,,,,,,,,,,,,,,,,,
,,,,,,,592037296b34af0001e3ec56,2023-08-16_08h43.11.913,HF_wild_card,2022.2.4,Win32,60.07449237,592037296b34af0001e3ec56,64d2fd46c836a06233681665,64dc7d03c9d0bce4168bcdec,,,,,,,sngl,resources/DBN.BMP,resources/Empty.png,Door2,-0.21484375,0.002604167,1,0,0,1.161,optionLeft,40,2020,1,37,0,37,0,1,,,,,,,,,,,,,,,,,,,,,,,,,,,,,,,,,,,,,,,
,,,,,,,592037296b34af0001e3ec56,2023-08-16_08h43.11.913,HF_wild_card,2022.2.4,Win32,60.07449237,592037296b34af0001e3ec56,64d2fd46c836a06233681665,64dc7d03c9d0bce4168bcdec,,,,,,,sngl,resources/DY.BMP,resources/Empty.png,WildCard_NonEx,-0.16796875,0.001302083,1,0,0,0.9077,optionLeft,55,2075,1,38,0,38,0,1,,,,,,,,,,,,,,,,,,,,,,,,,,,,,,,,,,,,,,,
,,,,,,,592037296b34af0001e3ec56,2023-08-16_08h43.11.913,HF_wild_card,2022.2.4,Win32,60.07449237,592037296b34af0001e3ec56,64d2fd46c836a06233681665,64dc7d03c9d0bce4168bcdec,,,,,,,ctch,resources/DB.BMP,resources/DR.BMP,Door4,0.397135417,0.002604167,1,0,0,0.6889,optionRight,60,2135,1,39,0,39,0,1,,,,,,,,,,,,,,,,,,,,,,,,,,,,,,,,,,,,,,,
,,,,,,,592037296b34af0001e3ec56,2023-08-16_08h43.11.913,HF_wild_card,2022.2.4,Win32,60.07449237,592037296b34af0001e3ec56,64d2fd46c836a06233681665,64dc7d03c9d0bce4168bcdec,,,,,,,decisionTrl,resources/DBN.BMP,resources/DY.BMP,WildCard_NonEx,0.373697917,0.015625,1,0,0,0.9711,optionRight,45,2180,1,40,0,40,0,1,,,,,,,,,,,,,,,,,,,,,,,,,,,,,,,,,,,,,,,
,,,,,,,592037296b34af0001e3ec56,2023-08-16_08h43.11.913,HF_wild_card,2022.2.4,Win32,60.07449237,592037296b34af0001e3ec56,64d2fd46c836a06233681665,64dc7d03c9d0bce4168bcdec,,,,,,,decisionTrl,resources/DP.BMP,resources/DR.BMP,Door4,0.317708333,0,1,0,0,2.9735,optionRight,80,2260,1,41,0,41,0,1,,,,,,,,,,,,,,,,,,,,,,,,,,,,,,,,,,,,,,,
,,,,,,,592037296b34af0001e3ec56,2023-08-16_08h43.11.913,HF_wild_card,2022.2.4,Win32,60.07449237,592037296b34af0001e3ec56,64d2fd46c836a06233681665,64dc7d03c9d0bce4168bcdec,,,,,,,sngl,resources/Empty.png,resources/DY.BMP,WildCard_NonEx,0.307291667,-0.00390625,1,0,0,1.932,optionRight,55,2315,1,42,0,42,0,1,,,,,,,,,,,,,,,,,,,,,,,,,,,,,,,,,,,,,,,
,,,,,,,592037296b34af0001e3ec56,2023-08-16_08h43.11.913,HF_wild_card,2022.2.4,Win32,60.07449237,592037296b34af0001e3ec56,64d2fd46c836a06233681665,64dc7d03c9d0bce4168bcdec,,,,,,,decisionTrl,resources/DBN.BMP,resources/DB.BMP,Door1,0.21875,0.001302083,1,0,0,1.3944,optionRight,30,2345,1,43,0,43,0,1,,,,,,,,,,,,,,,,,,,,,,,,,,,,,,,,,,,,,,,
,,,,,,,592037296b34af0001e3ec56,2023-08-16_08h43.11.913,HF_wild_card,2022.2.4,Win32,60.07449237,592037296b34af0001e3ec56,64d2fd46c836a06233681665,64dc7d03c9d0bce4168bcdec,,,,,,,,,,,,,,,,,,,,,,,,,,0,0,0,0,1,,,,,,,,,,,,,,,,,,,,,,,,,,,,,,,,,,
,,,,,,,592037296b34af0001e3ec56,2023-08-16_08h43.11.913,HF_wild_card,2022.2.4,Win32,60.07449237,592037296b34af0001e3ec56,64d2fd46c836a06233681665,64dc7d03c9d0bce4168bcdec,,,,,,,decisionTrl,resources/DY.BMP,resources/DBN.BMP,WildCard_NonEx,-0.345052083,-0.04296875,1,0,0,1.9283,optionLeft,55,2400,2,0,0,0,0,1,,,,,,,,,,,,,,,,,,,,,,,,,,,,,,,,,,,,,,,
,,,,,,,592037296b34af0001e3ec56,2023-08-16_08h43.11.913,HF_wild_card,2022.2.4,Win32,60.07449237,592037296b34af0001e3ec56,64d2fd46c836a06233681665,64dc7d03c9d0bce4168bcdec,,,,,,,sngl,resources/Empty.png,resources/DR.BMP,Door4,0.2578125,-0.044270833,1,0,0,0.6618,optionRight,80,2480,2,1,0,1,0,1,,,,,,,,,,,,,,,,,,,,,,,,,,,,,,,,,,,,,,,
,,,,,,,592037296b34af0001e3ec56,2023-08-16_08h43.11.913,HF_wild_card,2022.2.4,Win32,60.07449237,592037296b34af0001e3ec56,64d2fd46c836a06233681665,64dc7d03c9d0bce4168bcdec,,,,,,,ctch,resources/DBN.BMP,resources/DP.BMP,Door3,0.225260417,-0.028645833,1,0,0,1.7206,optionRight,70,2550,2,2,0,2,0,1,,,,,,,,,,,,,,,,,,,,,,,,,,,,,,,,,,,,,,,
,,,,,,,592037296b34af0001e3ec56,2023-08-16_08h43.11.913,HF_wild_card,2022.2.4,Win32,60.07449237,592037296b34af0001e3ec56,64d2fd46c836a06233681665,64dc7d03c9d0bce4168bcdec,,,,,,,decisionTrl,resources/DY.BMP,resources/DP.BMP,Door3,0.204427083,0.0078125,1,0,0,3.3472,optionRight,70,2620,2,3,0,3,0,1,,,,,,,,,,,,,,,,,,,,,,,,,,,,,,,,,,,,,,,
,,,,,,,592037296b34af0001e3ec56,2023-08-16_08h43.11.913,HF_wild_card,2022.2.4,Win32,60.07449237,592037296b34af0001e3ec56,64d2fd46c836a06233681665,64dc7d03c9d0bce4168bcdec,,,,,,,sngl,resources/DB.BMP,resources/Empty.png,Door1,-0.319010417,0.022135417,1,0,0,0.7885,optionLeft,30,2650,2,4,0,4,0,1,,,,,,,,,,,,,,,,,,,,,,,,,,,,,,,,,,,,,,,
,,,,,,,592037296b34af0001e3ec56,2023-08-16_08h43.11.913,HF_wild_card,2022.2.4,Win32,60.07449237,592037296b34af0001e3ec56,64d2fd46c836a06233681665,64dc7d03c9d0bce4168bcdec,,,,,,,decisionTrl,resources/DB.BMP,resources/DY.BMP,WildCard_NonEx,0.393229167,-0.001302083,1,0,0,1.7976,optionRight,45,2695,2,5,0,5,0,1,,,,,,,,,,,,,,,,,,,,,,,,,,,,,,,,,,,,,,,
,,,,,,,592037296b34af0001e3ec56,2023-08-16_08h43.11.913,HF_wild_card,2022.2.4,Win32,60.07449237,592037296b34af0001e3ec56,64d2fd46c836a06233681665,64dc7d03c9d0bce4168bcdec,,,,,,,decisionTrl,resources/DY.BMP,resources/DR.BMP,Door4,0.518229167,-0.024739583,1,0,0,1.1958,optionRight,60,2755,2,6,0,6,0,1,,,,,,,,,,,,,,,,,,,,,,,,,,,,,,,,,,,,,,,
,,,,,,,592037296b34af0001e3ec56,2023-08-16_08h43.11.913,HF_wild_card,2022.2.4,Win32,60.07449237,592037296b34af0001e3ec56,64d2fd46c836a06233681665,64dc7d03c9d0bce4168bcdec,,,,,,,decisionTrl,resources/DP.BMP,resources/DR.BMP,Door4,0.28515625,-0.005208333,1,0,0,2.2038,optionRight,60,2815,2,7,0,7,0,1,,,,,,,,,,,,,,,,,,,,,,,,,,,,,,,,,,,,,,,
,,,,,,,592037296b34af0001e3ec56,2023-08-16_08h43.11.913,HF_wild_card,2022.2.4,Win32,60.07449237,592037296b34af0001e3ec56,64d2fd46c836a06233681665,64dc7d03c9d0bce4168bcdec,,,,,,,decisionTrl,resources/DR.BMP,resources/DP.BMP,Door3,0.24609375,-0.015625,1,0,0,1.2159,optionRight,70,2885,2,8,0,8,0,1,,,,,,,,,,,,,,,,,,,,,,,,,,,,,,,,,,,,,,,
,,,,,,,592037296b34af0001e3ec56,2023-08-16_08h43.11.913,HF_wild_card,2022.2.4,Win32,60.07449237,592037296b34af0001e3ec56,64d2fd46c836a06233681665,64dc7d03c9d0bce4168bcdec,,,,,,,sngl,resources/Empty.png,resources/DB.BMP,Door1,0.272135417,-0.0234375,1,0,0,0.8363,optionRight,30,2915,2,9,0,9,0,1,,,,,,,,,,,,,,,,,,,,,,,,,,,,,,,,,,,,,,,
,,,,,,,592037296b34af0001e3ec56,2023-08-16_08h43.11.913,HF_wild_card,2022.2.4,Win32,60.07449237,592037296b34af0001e3ec56,64d2fd46c836a06233681665,64dc7d03c9d0bce4168bcdec,,,,,,,ctch,resources/DP.BMP,resources/DBN.BMP,Door3,-0.247395833,-0.014322917,1,0,0,1.7507,optionLeft,70,2985,2,10,0,10,0,1,,,,,,,,,,,,,,,,,,,,,,,,,,,,,,,,,,,,,,,
,,,,,,,592037296b34af0001e3ec56,2023-08-16_08h43.11.913,HF_wild_card,2022.2.4,Win32,60.07449237,592037296b34af0001e3ec56,64d2fd46c836a06233681665,64dc7d03c9d0bce4168bcdec,,,,,,,decisionTrl,resources/DP.BMP,resources/DR.BMP,Door3,-0.240885417,-0.006510417,1,0,0,2.4669,optionLeft,70,3055,2,11,0,11,0,1,,,,,,,,,,,,,,,,,,,,,,,,,,,,,,,,,,,,,,,
,,,,,,,592037296b34af0001e3ec56,2023-08-16_08h43.11.913,HF_wild_card,2022.2.4,Win32,60.07449237,592037296b34af0001e3ec56,64d2fd46c836a06233681665,64dc7d03c9d0bce4168bcdec,,,,,,,sngl,resources/Empty.png,resources/DY.BMP,WildCard_NonEx,0.440104167,-0.045572917,1,0,0,0.6656,optionRight,55,3110,2,12,0,12,0,1,,,,,,,,,,,,,,,,,,,,,,,,,,,,,,,,,,,,,,,
,,,,,,,592037296b34af0001e3ec56,2023-08-16_08h43.11.913,HF_wild_card,2022.2.4,Win32,60.07449237,592037296b34af0001e3ec56,64d2fd46c836a06233681665,64dc7d03c9d0bce4168bcdec,,,,,,,ctch,resources/DBN.BMP,resources/DP.BMP,Door3,0.225260417,-0.036458333,1,0,0,2.3804,optionRight,70,3180,2,13,0,13,0,1,,,,,,,,,,,,,,,,,,,,,,,,,,,,,,,,,,,,,,,
,,,,,,,592037296b34af0001e3ec56,2023-08-16_08h43.11.913,HF_wild_card,2022.2.4,Win32,60.07449237,592037296b34af0001e3ec56,64d2fd46c836a06233681665,64dc7d03c9d0bce4168bcdec,,,,,,,ctch,resources/DB.BMP,resources/DR.BMP,Door4,0.48046875,-0.05078125,1,0,0,2.382,optionRight,80,3260,2,14,0,14,0,1,,,,,,,,,,,,,,,,,,,,,,,,,,,,,,,,,,,,,,,
,,,,,,,592037296b34af0001e3ec56,2023-08-16_08h43.11.913,HF_wild_card,2022.2.4,Win32,60.07449237,592037296b34af0001e3ec56,64d2fd46c836a06233681665,64dc7d03c9d0bce4168bcdec,,,,,,,ctch,resources/DB.BMP,resources/DR.BMP,Door4,0.50390625,0.005208333,1,0,0,1.0807,optionRight,60,3320,2,15,0,15,0,1,,,,,,,,,,,,,,,,,,,,,,,,,,,,,,,,,,,,,,,
,,,,,,,592037296b34af0001e3ec56,2023-08-16_08h43.11.913,HF_wild_card,2022.2.4,Win32,60.07449237,592037296b34af0001e3ec56,64d2fd46c836a06233681665,64dc7d03c9d0bce4168bcdec,,,,,,,decisionTrl,resources/DBN.BMP,resources/DB.BMP,Door1,0.171875,0.010416667,1,0,0,2.7628,optionRight,30,3350,2,16,0,16,0,1,,,,,,,,,,,,,,,,,,,,,,,,,,,,,,,,,,,,,,,
,,,,,,,592037296b34af0001e3ec56,2023-08-16_08h43.11.913,HF_wild_card,2022.2.4,Win32,60.07449237,592037296b34af0001e3ec56,64d2fd46c836a06233681665,64dc7d03c9d0bce4168bcdec,,,,,,,sngl,resources/Empty.png,resources/DP.BMP,Door3,0.276041667,0.005208333,1,0,0,1.4952,optionRight,70,3420,2,17,0,17,0,1,,,,,,,,,,,,,,,,,,,,,,,,,,,,,,,,,,,,,,,
,,,,,,,592037296b34af0001e3ec56,2023-08-16_08h43.11.913,HF_wild_card,2022.2.4,Win32,60.07449237,592037296b34af0001e3ec56,64d2fd46c836a06233681665,64dc7d03c9d0bce4168bcdec,,,,,,,ctch,resources/DP.BMP,resources/DBN.BMP,Door3,-0.29296875,0.03125,1,0,0,1.2163,optionLeft,70,3490,2,18,0,18,0,1,,,,,,,,,,,,,,,,,,,,,,,,,,,,,,,,,,,,,,,
,,,,,,,592037296b34af0001e3ec56,2023-08-16_08h43.11.913,HF_wild_card,2022.2.4,Win32,60.07449237,592037296b34af0001e3ec56,64d2fd46c836a06233681665,64dc7d03c9d0bce4168bcdec,,,,,,,decisionTrl,resources/DB.BMP,resources/DBN.BMP,Door2,0.58984375,-0.010416667,1,0,0,1.1108,optionRight,20,3510,2,19,0,19,0,1,,,,,,,,,,,,,,,,,,,,,,,,,,,,,,,,,,,,,,,
,,,,,,,592037296b34af0001e3ec56,2023-08-16_08h43.11.913,HF_wild_card,2022.2.4,Win32,60.07449237,592037296b34af0001e3ec56,64d2fd46c836a06233681665,64dc7d03c9d0bce4168bcdec,,,,,,,decisionTrl,resources/DBN.BMP,resources/DB.BMP,Door1,0.501302083,-0.037760417,1,0,0,1.1709,optionRight,30,3540,2,20,0,20,0,1,,,,,,,,,,,,,,,,,,,,,,,,,,,,,,,,,,,,,,,
,,,,,,,592037296b34af0001e3ec56,2023-08-16_08h43.11.913,HF_wild_card,2022.2.4,Win32,60.07449237,592037296b34af0001e3ec56,64d2fd46c836a06233681665,64dc7d03c9d0bce4168bcdec,,,,,,,decisionTrl,resources/DP.BMP,resources/DY.BMP,Door3,-0.252604167,-0.01953125,1,0,0,2.9639,optionLeft,70,3610,2,21,0,21,0,1,,,,,,,,,,,,,,,,,,,,,,,,,,,,,,,,,,,,,,,
,,,,,,,592037296b34af0001e3ec56,2023-08-16_08h43.11.913,HF_wild_card,2022.2.4,Win32,60.07449237,592037296b34af0001e3ec56,64d2fd46c836a06233681665,64dc7d03c9d0bce4168bcdec,,,,,,,sngl,resources/DP.BMP,resources/Empty.png,Door3,-0.44140625,-0.0078125,1,0,0,0.865,optionLeft,70,3680,2,22,0,22,0,1,,,,,,,,,,,,,,,,,,,,,,,,,,,,,,,,,,,,,,,
,,,,,,,592037296b34af0001e3ec56,2023-08-16_08h43.11.913,HF_wild_card,2022.2.4,Win32,60.07449237,592037296b34af0001e3ec56,64d2fd46c836a06233681665,64dc7d03c9d0bce4168bcdec,,,,,,,sngl,resources/DY.BMP,resources/Empty.png,WildCard_NonEx,-0.3359375,0.03125,1,0,0,0.6133,optionLeft,55,3735,2,23,0,23,0,1,,,,,,,,,,,,,,,,,,,,,,,,,,,,,,,,,,,,,,,
,,,,,,,592037296b34af0001e3ec56,2023-08-16_08h43.11.913,HF_wild_card,2022.2.4,Win32,60.07449237,592037296b34af0001e3ec56,64d2fd46c836a06233681665,64dc7d03c9d0bce4168bcdec,,,,,,,decisionTrl,resources/DB.BMP,resources/DBN.BMP,Door2,0.21875,0.028645833,1,0,0,2.2621,optionRight,20,3755,2,24,0,24,0,1,,,,,,,,,,,,,,,,,,,,,,,,,,,,,,,,,,,,,,,
,,,,,,,592037296b34af0001e3ec56,2023-08-16_08h43.11.913,HF_wild_card,2022.2.4,Win32,60.07449237,592037296b34af0001e3ec56,64d2fd46c836a06233681665,64dc7d03c9d0bce4168bcdec,,,,,,,sngl,resources/DY.BMP,resources/Empty.png,WildCard_NonEx,-0.321614583,0.01171875,1,0,0,0.6383,optionLeft,45,3800,2,25,0,25,0,1,,,,,,,,,,,,,,,,,,,,,,,,,,,,,,,,,,,,,,,
,,,,,,,592037296b34af0001e3ec56,2023-08-16_08h43.11.913,HF_wild_card,2022.2.4,Win32,60.07449237,592037296b34af0001e3ec56,64d2fd46c836a06233681665,64dc7d03c9d0bce4168bcdec,,,,,,,decisionTrl,resources/DR.BMP,resources/DP.BMP,Door3,0.337239583,-0.005208333,1,0,0,1.0795,optionRight,70,3870,2,26,0,26,0,1,,,,,,,,,,,,,,,,,,,,,,,,,,,,,,,,,,,,,,,
,,,,,,,592037296b34af0001e3ec56,2023-08-16_08h43.11.913,HF_wild_card,2022.2.4,Win32,60.07449237,592037296b34af0001e3ec56,64d2fd46c836a06233681665,64dc7d03c9d0bce4168bcdec,,,,,,,sngl,resources/DR.BMP,resources/Empty.png,Door4,-0.305989583,0.024739583,1,0,0,0.5923,optionLeft,60,3930,2,27,0,27,0,1,,,,,,,,,,,,,,,,,,,,,,,,,,,,,,,,,,,,,,,
,,,,,,,592037296b34af0001e3ec56,2023-08-16_08h43.11.913,HF_wild_card,2022.2.4,Win32,60.07449237,592037296b34af0001e3ec56,64d2fd46c836a06233681665,64dc7d03c9d0bce4168bcdec,,,,,,,decisionTrl,resources/DR.BMP,resources/DP.BMP,Door4,-0.345052083,0.0234375,1,0,0,1.3059,optionLeft,80,4010,2,28,0,28,0,1,,,,,,,,,,,,,,,,,,,,,,,,,,,,,,,,,,,,,,,
,,,,,,,592037296b34af0001e3ec56,2023-08-16_08h43.11.913,HF_wild_card,2022.2.4,Win32,60.07449237,592037296b34af0001e3ec56,64d2fd46c836a06233681665,64dc7d03c9d0bce4168bcdec,,,,,,,decisionTrl,resources/DBN.BMP,resources/DB.BMP,Door2,-0.263020833,0.0390625,1,0,0,1.3525,optionLeft,20,4030,2,29,0,29,0,1,,,,,,,,,,,,,,,,,,,,,,,,,,,,,,,,,,,,,,,
,,,,,,,592037296b34af0001e3ec56,2023-08-16_08h43.11.913,HF_wild_card,2022.2.4,Win32,60.07449237,592037296b34af0001e3ec56,64d2fd46c836a06233681665,64dc7d03c9d0bce4168bcdec,,,,,,,decisionTrl,resources/DR.BMP,resources/DP.BMP,Door4,-0.2578125,0.006510417,1,0,0,2.4525,optionLeft,60,4090,2,30,0,30,0,1,,,,,,,,,,,,,,,,,,,,,,,,,,,,,,,,,,,,,,,
,,,,,,,592037296b34af0001e3ec56,2023-08-16_08h43.11.913,HF_wild_card,2022.2.4,Win32,60.07449237,592037296b34af0001e3ec56,64d2fd46c836a06233681665,64dc7d03c9d0bce4168bcdec,,,,,,,decisionTrl,resources/DBN.BMP,resources/DY.BMP,WildCard_NonEx,0.298177083,0.014322917,1,0,0,1.8439,optionRight,45,4135,2,31,0,31,0,1,,,,,,,,,,,,,,,,,,,,,,,,,,,,,,,,,,,,,,,
,,,,,,,592037296b34af0001e3ec56,2023-08-16_08h43.11.913,HF_wild_card,2022.2.4,Win32,60.07449237,592037296b34af0001e3ec56,64d2fd46c836a06233681665,64dc7d03c9d0bce4168bcdec,,,,,,,sngl,resources/Empty.png,resources/DY.BMP,WildCard_NonEx,0.252604167,0.0078125,1,0,0,0.6649,optionRight,45,4180,2,32,0,32,0,1,,,,,,,,,,,,,,,,,,,,,,,,,,,,,,,,,,,,,,,
,,,,,,,592037296b34af0001e3ec56,2023-08-16_08h43.11.913,HF_wild_card,2022.2.4,Win32,60.07449237,592037296b34af0001e3ec56,64d2fd46c836a06233681665,64dc7d03c9d0bce4168bcdec,,,,,,,sngl,resources/DBN.BMP,resources/Empty.png,Door2,-0.272135417,0.013020833,1,0,0,0.6812,optionLeft,20,4200,2,33,0,33,0,1,,,,,,,,,,,,,,,,,,,,,,,,,,,,,,,,,,,,,,,
,,,,,,,592037296b34af0001e3ec56,2023-08-16_08h43.11.913,HF_wild_card,2022.2.4,Win32,60.07449237,592037296b34af0001e3ec56,64d2fd46c836a06233681665,64dc7d03c9d0bce4168bcdec,,,,,,,decisionTrl,resources/DB.BMP,resources/DBN.BMP,Door1,-0.23046875,-0.005208333,1,0,0,3.4623,optionLeft,30,4230,2,34,0,34,0,1,,,,,,,,,,,,,,,,,,,,,,,,,,,,,,,,,,,,,,,
,,,,,,,592037296b34af0001e3ec56,2023-08-16_08h43.11.913,HF_wild_card,2022.2.4,Win32,60.07449237,592037296b34af0001e3ec56,64d2fd46c836a06233681665,64dc7d03c9d0bce4168bcdec,,,,,,,decisionTrl,resources/DY.BMP,resources/DB.BMP,WildCard_NonEx,-0.252604167,-0.01171875,1,0,0,1.4212,optionLeft,55,4285,2,35,0,35,0,1,,,,,,,,,,,,,,,,,,,,,,,,,,,,,,,,,,,,,,,
,,,,,,,592037296b34af0001e3ec56,2023-08-16_08h43.11.913,HF_wild_card,2022.2.4,Win32,60.07449237,592037296b34af0001e3ec56,64d2fd46c836a06233681665,64dc7d03c9d0bce4168bcdec,,,,,,,ctch,resources/DR.BMP,resources/DB.BMP,Door4,-0.255208333,-0.015625,1,0,0,2.1875,optionLeft,80,4365,2,36,0,36,0,1,,,,,,,,,,,,,,,,,,,,,,,,,,,,,,,,,,,,,,,
,,,,,,,592037296b34af0001e3ec56,2023-08-16_08h43.11.913,HF_wild_card,2022.2.4,Win32,60.07449237,592037296b34af0001e3ec56,64d2fd46c836a06233681665,64dc7d03c9d0bce4168bcdec,,,,,,,decisionTrl,resources/DP.BMP,resources/DR.BMP,Door3,-0.376302083,0.015625,1,0,0,1.9421,optionLeft,70,4435,2,37,0,37,0,1,,,,,,,,,,,,,,,,,,,,,,,,,,,,,,,,,,,,,,,
,,,,,,,592037296b34af0001e3ec56,2023-08-16_08h43.11.913,HF_wild_card,2022.2.4,Win32,60.07449237,592037296b34af0001e3ec56,64d2fd46c836a06233681665,64dc7d03c9d0bce4168bcdec,,,,,,,ctch,resources/DR.BMP,resources/DB.BMP,Door4,-0.328125,-0.013020833,1,0,0,1.8892,optionLeft,60,4495,2,38,0,38,0,1,,,,,,,,,,,,,,,,,,,,,,,,,,,,,,,,,,,,,,,
,,,,,,,592037296b34af0001e3ec56,2023-08-16_08h43.11.913,HF_wild_card,2022.2.4,Win32,60.07449237,592037296b34af0001e3ec56,64d2fd46c836a06233681665,64dc7d03c9d0bce4168bcdec,,,,,,,decisionTrl,resources/DBN.BMP,resources/DB.BMP,Door2,-0.334635417,-0.010416667,1,0,0,1.3189,optionLeft,20,4515,2,39,0,39,0,1,,,,,,,,,,,,,,,,,,,,,,,,,,,,,,,,,,,,,,,
,,,,,,,592037296b34af0001e3ec56,2023-08-16_08h43.11.913,HF_wild_card,2022.2.4,Win32,60.07449237,592037296b34af0001e3ec56,64d2fd46c836a06233681665,64dc7d03c9d0bce4168bcdec,,,,,,,sngl,resources/Empty.png,resources/DBN.BMP,Door2,0.477864583,-0.0078125,1,0,0,0.7999,optionRight,40,4555,2,40,0,40,0,1,,,,,,,,,,,,,,,,,,,,,,,,,,,,,,,,,,,,,,,
,,,,,,,592037296b34af0001e3ec56,2023-08-16_08h43.11.913,HF_wild_card,2022.2.4,Win32,60.07449237,592037296b34af0001e3ec56,64d2fd46c836a06233681665,64dc7d03c9d0bce4168bcdec,,,,,,,decisionTrl,resources/DB.BMP,resources/DBN.BMP,Door1,-0.201822917,-0.009114583,1,0,0,1.0896,optionLeft,30,4585,2,41,0,41,0,1,,,,,,,,,,,,,,,,,,,,,,,,,,,,,,,,,,,,,,,
,,,,,,,592037296b34af0001e3ec56,2023-08-16_08h43.11.913,HF_wild_card,2022.2.4,Win32,60.07449237,592037296b34af0001e3ec56,64d2fd46c836a06233681665,64dc7d03c9d0bce4168bcdec,,,,,,,decisionTrl,resources/DR.BMP,resources/DY.BMP,Door4,-0.475260417,-0.010416667,1,0,0,2.7341,optionLeft,60,4645,2,42,0,42,0,1,,,,,,,,,,,,,,,,,,,,,,,,,,,,,,,,,,,,,,,
,,,,,,,592037296b34af0001e3ec56,2023-08-16_08h43.11.913,HF_wild_card,2022.2.4,Win32,60.07449237,592037296b34af0001e3ec56,64d2fd46c836a06233681665,64dc7d03c9d0bce4168bcdec,,,,,,,decisionTrl,resources/DP.BMP,resources/DR.BMP,Door4,0.15234375,-0.009114583,1,0,0,1.8774,optionRight,80,4725,2,43,0,43,0,1,,,,,,,,,,,,,,,,,,,,,,,,,,,,,,,,,,,,,,,
,,,,,,,592037296b34af0001e3ec56,2023-08-16_08h43.11.913,HF_wild_card,2022.2.4,Win32,60.07449237,592037296b34af0001e3ec56,64d2fd46c836a06233681665,64dc7d03c9d0bce4168bcdec,,,,,,,,,,,,,,,,,,,,,,,,,,1,0,1,0,1,,,,,,,,,,,,,,,,,,,,,,,,,,,,,,,,,,
,,,,,,,592037296b34af0001e3ec56,2023-08-16_08h43.11.913,HF_wild_card,2022.2.4,Win32,60.07449237,592037296b34af0001e3ec56,64d2fd46c836a06233681665,64dc7d03c9d0bce4168bcdec,,,,,,,decisionTrl,resources/DP.BMP,resources/DR.BMP,Door4,0.420572917,-0.10546875,1,0,0,2.0136,optionRight,80,4805,3,0,0,0,0,1,,,,,,,,,,,,,,,,,,,,,,,,,,,,,,,,,,,,,,,
,,,,,,,592037296b34af0001e3ec56,2023-08-16_08h43.11.913,HF_wild_card,2022.2.4,Win32,60.07449237,592037296b34af0001e3ec56,64d2fd46c836a06233681665,64dc7d03c9d0bce4168bcdec,,,,,,,decisionTrl,resources/DP.BMP,resources/DR.BMP,Door4,0.40625,-0.016927083,1,0,0,1.4683,optionRight,60,4865,3,1,0,1,0,1,,,,,,,,,,,,,,,,,,,,,,,,,,,,,,,,,,,,,,,
,,,,,,,592037296b34af0001e3ec56,2023-08-16_08h43.11.913,HF_wild_card,2022.2.4,Win32,60.07449237,592037296b34af0001e3ec56,64d2fd46c836a06233681665,64dc7d03c9d0bce4168bcdec,,,,,,,sngl,resources/DB.BMP,resources/Empty.png,Door1,-0.484375,-0.02734375,1,0,0,1.0693,optionLeft,30,4895,3,2,0,2,0,1,,,,,,,,,,,,,,,,,,,,,,,,,,,,,,,,,,,,,,,
,,,,,,,592037296b34af0001e3ec56,2023-08-16_08h43.11.913,HF_wild_card,2022.2.4,Win32,60.07449237,592037296b34af0001e3ec56,64d2fd46c836a06233681665,64dc7d03c9d0bce4168bcdec,,,,,,,ctch,resources/DB.BMP,resources/DR.BMP,Door4,0.608072917,0.046875,1,0,0,1.8022,optionRight,60,4955,3,3,0,3,0,1,,,,,,,,,,,,,,,,,,,,,,,,,,,,,,,,,,,,,,,
,,,,,,,592037296b34af0001e3ec56,2023-08-16_08h43.11.913,HF_wild_card,2022.2.4,Win32,60.07449237,592037296b34af0001e3ec56,64d2fd46c836a06233681665,64dc7d03c9d0bce4168bcdec,,,,,,,decisionTrl,resources/DBN.BMP,resources/DB.BMP,Door1,0.486979167,0.002604167,1,0,0,2.6889,optionRight,30,4985,3,4,0,4,0,1,,,,,,,,,,,,,,,,,,,,,,,,,,,,,,,,,,,,,,,
,,,,,,,592037296b34af0001e3ec56,2023-08-16_08h43.11.913,HF_wild_card,2022.2.4,Win32,60.07449237,592037296b34af0001e3ec56,64d2fd46c836a06233681665,64dc7d03c9d0bce4168bcdec,,,,,,,sngl,resources/Empty.png,resources/DR.BMP,Door4,0.375,-0.001302083,1,0,0,0.6615,optionRight,60,5045,3,5,0,5,0,1,,,,,,,,,,,,,,,,,,,,,,,,,,,,,,,,,,,,,,,
,,,,,,,592037296b34af0001e3ec56,2023-08-16_08h43.11.913,HF_wild_card,2022.2.4,Win32,60.07449237,592037296b34af0001e3ec56,64d2fd46c836a06233681665,64dc7d03c9d0bce4168bcdec,,,,,,,ctch,resources/DBN.BMP,resources/DP.BMP,Door3,0.345052083,-0.0234375,1,0,0,1.2966,optionRight,70,5115,3,6,0,6,0,1,,,,,,,,,,,,,,,,,,,,,,,,,,,,,,,,,,,,,,,
,,,,,,,592037296b34af0001e3ec56,2023-08-16_08h43.11.913,HF_wild_card,2022.2.4,Win32,60.07449237,592037296b34af0001e3ec56,64d2fd46c836a06233681665,64dc7d03c9d0bce4168bcdec,,,,,,,sngl,resources/DY.BMP,resources/Empty.png,WildCard_NonEx,-0.532552083,-0.015625,1,0,0,1.3788,optionLeft,45,5160,3,7,0,7,0,1,,,,,,,,,,,,,,,,,,,,,,,,,,,,,,,,,,,,,,,
,,,,,,,592037296b34af0001e3ec56,2023-08-16_08h43.11.913,HF_wild_card,2022.2.4,Win32,60.07449237,592037296b34af0001e3ec56,64d2fd46c836a06233681665,64dc7d03c9d0bce4168bcdec,,,,,,,ctch,resources/DR.BMP,resources/DB.BMP,Door4,-0.45703125,0.036458333,1,0,0,5.0662,optionLeft,80,5240,3,8,0,8,0,1,,,,,,,,,,,,,,,,,,,,,,,,,,,,,,,,,,,,,,,
,,,,,,,592037296b34af0001e3ec56,2023-08-16_08h43.11.913,HF_wild_card,2022.2.4,Win32,60.07449237,592037296b34af0001e3ec56,64d2fd46c836a06233681665,64dc7d03c9d0bce4168bcdec,,,,,,,decisionTrl,resources/DP.BMP,resources/DR.BMP,Door3,-0.404947917,-0.03125,1,0,0,2.6884,optionLeft,70,5310,3,9,0,9,0,1,,,,,,,,,,,,,,,,,,,,,,,,,,,,,,,,,,,,,,,
,,,,,,,592037296b34af0001e3ec56,2023-08-16_08h43.11.913,HF_wild_card,2022.2.4,Win32,60.07449237,592037296b34af0001e3ec56,64d2fd46c836a06233681665,64dc7d03c9d0bce4168bcdec,,,,,,,decisionTrl,resources/DP.BMP,resources/DR.BMP,Door4,0.23046875,-0.013020833,1,0,0,1.0746,optionRight,60,5370,3,10,0,10,0,1,,,,,,,,,,,,,,,,,,,,,,,,,,,,,,,,,,,,,,,
,,,,,,,592037296b34af0001e3ec56,2023-08-16_08h43.11.913,HF_wild_card,2022.2.4,Win32,60.07449237,592037296b34af0001e3ec56,64d2fd46c836a06233681665,64dc7d03c9d0bce4168bcdec,,,,,,,decisionTrl,resources/DB.BMP,resources/DBN.BMP,Door2,0.307291667,-0.048177083,1,0,0,2.4236,optionRight,40,5410,3,11,0,11,0,1,,,,,,,,,,,,,,,,,,,,,,,,,,,,,,,,,,,,,,,
,,,,,,,592037296b34af0001e3ec56,2023-08-16_08h43.11.913,HF_wild_card,2022.2.4,Win32,60.07449237,592037296b34af0001e3ec56,64d2fd46c836a06233681665,64dc7d03c9d0bce4168bcdec,,,,,,,sngl,resources/DBN.BMP,resources/Empty.png,Door2,-0.397135417,-0.013020833,1,0,0,0.6199,optionLeft,40,5450,3,12,0,12,0,1,,,,,,,,,,,,,,,,,,,,,,,,,,,,,,,,,,,,,,,
,,,,,,,592037296b34af0001e3ec56,2023-08-16_08h43.11.913,HF_wild_card,2022.2.4,Win32,60.07449237,592037296b34af0001e3ec56,64d2fd46c836a06233681665,64dc7d03c9d0bce4168bcdec,,,,,,,decisionTrl,resources/DY.BMP,resources/DBN.BMP,Door2,0.29296875,-0.00390625,1,0,0,0.6556,optionRight,20,5470,3,13,0,13,0,1,,,,,,,,,,,,,,,,,,,,,,,,,,,,,,,,,,,,,,,
,,,,,,,592037296b34af0001e3ec56,2023-08-16_08h43.11.913,HF_wild_card,2022.2.4,Win32,60.07449237,592037296b34af0001e3ec56,64d2fd46c836a06233681665,64dc7d03c9d0bce4168bcdec,,,,,,,decisionTrl,resources/DP.BMP,resources/DY.BMP,Door3,-0.369791667,-0.009114583,1,0,0,1.555,optionLeft,70,5540,3,14,0,14,0,1,,,,,,,,,,,,,,,,,,,,,,,,,,,,,,,,,,,,,,,
,,,,,,,592037296b34af0001e3ec56,2023-08-16_08h43.11.913,HF_wild_card,2022.2.4,Win32,60.07449237,592037296b34af0001e3ec56,64d2fd46c836a06233681665,64dc7d03c9d0bce4168bcdec,,,,,,,sngl,resources/Empty.png,resources/DP.BMP,Door3,0.364583333,0.00390625,1,0,0,1.0044,optionRight,70,5610,3,15,0,15,0,1,,,,,,,,,,,,,,,,,,,,,,,,,,,,,,,,,,,,,,,
,,,,,,,592037296b34af0001e3ec56,2023-08-16_08h43.11.913,HF_wild_card,2022.2.4,Win32,60.07449237,592037296b34af0001e3ec56,64d2fd46c836a06233681665,64dc7d03c9d0bce4168bcdec,,,,,,,sngl,resources/DP.BMP,resources/Empty.png,Door3,-0.23046875,0.0234375,1,0,0,0.5417,optionLeft,70,5680,3,16,0,16,0,1,,,,,,,,,,,,,,,,,,,,,,,,,,,,,,,,,,,,,,,
,,,,,,,592037296b34af0001e3ec56,2023-08-16_08h43.11.913,HF_wild_card,2022.2.4,Win32,60.07449237,592037296b34af0001e3ec56,64d2fd46c836a06233681665,64dc7d03c9d0bce4168bcdec,,,,,,,sngl,resources/DR.BMP,resources/Empty.png,Door4,-0.213541667,-0.009114583,1,0,0,0.7277,optionLeft,80,5760,3,17,0,17,0,1,,,,,,,,,,,,,,,,,,,,,,,,,,,,,,,,,,,,,,,
,,,,,,,592037296b34af0001e3ec56,2023-08-16_08h43.11.913,HF_wild_card,2022.2.4,Win32,60.07449237,592037296b34af0001e3ec56,64d2fd46c836a06233681665,64dc7d03c9d0bce4168bcdec,,,,,,,decisionTrl,resources/DB.BMP,resources/DBN.BMP,Door2,0.264322917,0.014322917,1,0,0,1.5762,optionRight,40,5800,3,18,0,18,0,1,,,,,,,,,,,,,,,,,,,,,,,,,,,,,,,,,,,,,,,
,,,,,,,592037296b34af0001e3ec56,2023-08-16_08h43.11.913,HF_wild_card,2022.2.4,Win32,60.07449237,592037296b34af0001e3ec56,64d2fd46c836a06233681665,64dc7d03c9d0bce4168bcdec,,,,,,,decisionTrl,resources/DR.BMP,resources/DP.BMP,Door4,-0.298177083,-0.014322917,1,0,0,1.7746,optionLeft,80,5880,3,19,0,19,0,1,,,,,,,,,,,,,,,,,,,,,,,,,,,,,,,,,,,,,,,
,,,,,,,592037296b34af0001e3ec56,2023-08-16_08h43.11.913,HF_wild_card,2022.2.4,Win32,60.07449237,592037296b34af0001e3ec56,64d2fd46c836a06233681665,64dc7d03c9d0bce4168bcdec,,,,,,,decisionTrl,resources/DBN.BMP,resources/DB.BMP,Door2,-0.221354167,-0.029947917,1,0,0,2.6386,optionLeft,20,5900,3,20,0,20,0,1,,,,,,,,,,,,,,,,,,,,,,,,,,,,,,,,,,,,,,,
,,,,,,,592037296b34af0001e3ec56,2023-08-16_08h43.11.913,HF_wild_card,2022.2.4,Win32,60.07449237,592037296b34af0001e3ec56,64d2fd46c836a06233681665,64dc7d03c9d0bce4168bcdec,,,,,,,ctch,resources/DB.BMP,resources/DR.BMP,Door4,0.41015625,-0.032552083,1,0,0,1.4253,optionRight,80,5980,3,21,0,21,0,1,,,,,,,,,,,,,,,,,,,,,,,,,,,,,,,,,,,,,,,
,,,,,,,592037296b34af0001e3ec56,2023-08-16_08h43.11.913,HF_wild_card,2022.2.4,Win32,60.07449237,592037296b34af0001e3ec56,64d2fd46c836a06233681665,64dc7d03c9d0bce4168bcdec,,,,,,,decisionTrl,resources/DY.BMP,resources/DP.BMP,Door3,0.287760417,0.01171875,1,0,0,1.5679,optionRight,70,6050,3,22,0,22,0,1,,,,,,,,,,,,,,,,,,,,,,,,,,,,,,,,,,,,,,,
,,,,,,,592037296b34af0001e3ec56,2023-08-16_08h43.11.913,HF_wild_card,2022.2.4,Win32,60.07449237,592037296b34af0001e3ec56,64d2fd46c836a06233681665,64dc7d03c9d0bce4168bcdec,,,,,,,sngl,resources/DY.BMP,resources/Empty.png,WildCard_NonEx,-0.243489583,-0.014322917,1,0,0,0.6717,optionLeft,55,6105,3,23,0,23,0,1,,,,,,,,,,,,,,,,,,,,,,,,,,,,,,,,,,,,,,,
,,,,,,,592037296b34af0001e3ec56,2023-08-16_08h43.11.913,HF_wild_card,2022.2.4,Win32,60.07449237,592037296b34af0001e3ec56,64d2fd46c836a06233681665,64dc7d03c9d0bce4168bcdec,,,,,,,sngl,resources/Empty.png,resources/DBN.BMP,Door2,0.334635417,0.01171875,1,0,0,1.0277,optionRight,20,6125,3,24,0,24,0,1,,,,,,,,,,,,,,,,,,,,,,,,,,,,,,,,,,,,,,,
,,,,,,,592037296b34af0001e3ec56,2023-08-16_08h43.11.913,HF_wild_card,2022.2.4,Win32,60.07449237,592037296b34af0001e3ec56,64d2fd46c836a06233681665,64dc7d03c9d0bce4168bcdec,,,,,,,decisionTrl,resources/DY.BMP,resources/DR.BMP,Door4,0.205729167,0.009114583,1,0,0,1.4038,optionRight,60,6185,3,25,0,25,0,1,,,,,,,,,,,,,,,,,,,,,,,,,,,,,,,,,,,,,,,
,,,,,,,592037296b34af0001e3ec56,2023-08-16_08h43.11.913,HF_wild_card,2022.2.4,Win32,60.07449237,592037296b34af0001e3ec56,64d2fd46c836a06233681665,64dc7d03c9d0bce4168bcdec,,,,,,,decisionTrl,resources/DBN.BMP,resources/DB.BMP,Door1,0.4453125,-0.002604167,1,0,0,3.984,optionRight,30,6215,3,26,0,26,0,1,,,,,,,,,,,,,,,,,,,,,,,,,,,,,,,,,,,,,,,
,,,,,,,592037296b34af0001e3ec56,2023-08-16_08h43.11.913,HF_wild_card,2022.2.4,Win32,60.07449237,592037296b34af0001e3ec56,64d2fd46c836a06233681665,64dc7d03c9d0bce4168bcdec,,,,,,,ctch,resources/DP.BMP,resources/DBN.BMP,Door3,-0.28125,-0.044270833,1,0,0,1.4546,optionLeft,70,6285,3,27,0,27,0,1,,,,,,,,,,,,,,,,,,,,,,,,,,,,,,,,,,,,,,,
,,,,,,,592037296b34af0001e3ec56,2023-08-16_08h43.11.913,HF_wild_card,2022.2.4,Win32,60.07449237,592037296b34af0001e3ec56,64d2fd46c836a06233681665,64dc7d03c9d0bce4168bcdec,,,,,,,ctch,resources/DBN.BMP,resources/DP.BMP,Door3,0.231770833,-0.02734375,1,0,0,0.9895,optionRight,70,6355,3,28,0,28,0,1,,,,,,,,,,,,,,,,,,,,,,,,,,,,,,,,,,,,,,,
,,,,,,,592037296b34af0001e3ec56,2023-08-16_08h43.11.913,HF_wild_card,2022.2.4,Win32,60.07449237,592037296b34af0001e3ec56,64d2fd46c836a06233681665,64dc7d03c9d0bce4168bcdec,,,,,,,decisionTrl,resources/DB.BMP,resources/DBN.BMP,Door1,-0.122395833,-0.014322917,1,0,0,3.6888,optionLeft,30,6385,3,29,0,29,0,1,,,,,,,,,,,,,,,,,,,,,,,,,,,,,,,,,,,,,,,
,,,,,,,592037296b34af0001e3ec56,2023-08-16_08h43.11.913,HF_wild_card,2022.2.4,Win32,60.07449237,592037296b34af0001e3ec56,64d2fd46c836a06233681665,64dc7d03c9d0bce4168bcdec,,,,,,,decisionTrl,resources/DR.BMP,resources/DP.BMP,Door4,-0.180989583,0.005208333,1,0,0,1.4669,optionLeft,60,6445,3,30,0,30,0,1,,,,,,,,,,,,,,,,,,,,,,,,,,,,,,,,,,,,,,,
,,,,,,,592037296b34af0001e3ec56,2023-08-16_08h43.11.913,HF_wild_card,2022.2.4,Win32,60.07449237,592037296b34af0001e3ec56,64d2fd46c836a06233681665,64dc7d03c9d0bce4168bcdec,,,,,,,decisionTrl,resources/DR.BMP,resources/DP.BMP,Door3,0.192708333,-0.028645833,1,0,0,4.9696,optionRight,70,6515,3,31,0,31,0,1,,,,,,,,,,,,,,,,,,,,,,,,,,,,,,,,,,,,,,,
,,,,,,,592037296b34af0001e3ec56,2023-08-16_08h43.11.913,HF_wild_card,2022.2.4,Win32,60.07449237,592037296b34af0001e3ec56,64d2fd46c836a06233681665,64dc7d03c9d0bce4168bcdec,,,,,,,decisionTrl,resources/DR.BMP,resources/DP.BMP,Door4,-0.381510417,-0.006510417,1,0,0,4.0396,optionLeft,60,6575,3,32,0,32,0,1,,,,,,,,,,,,,,,,,,,,,,,,,,,,,,,,,,,,,,,
,,,,,,,592037296b34af0001e3ec56,2023-08-16_08h43.11.913,HF_wild_card,2022.2.4,Win32,60.07449237,592037296b34af0001e3ec56,64d2fd46c836a06233681665,64dc7d03c9d0bce4168bcdec,,,,,,,sngl,resources/Empty.png,resources/DY.BMP,WildCard_NonEx,0.28125,0.001302083,1,0,0,0.6242,optionRight,45,6620,3,33,0,33,0,1,,,,,,,,,,,,,,,,,,,,,,,,,,,,,,,,,,,,,,,
,,,,,,,592037296b34af0001e3ec56,2023-08-16_08h43.11.913,HF_wild_card,2022.2.4,Win32,60.07449237,592037296b34af0001e3ec56,64d2fd46c836a06233681665,64dc7d03c9d0bce4168bcdec,,,,,,,sngl,resources/Empty.png,resources/DB.BMP,Door1,0.34375,0.01171875,1,0,0,0.8222,optionRight,30,6650,3,34,0,34,0,1,,,,,,,,,,,,,,,,,,,,,,,,,,,,,,,,,,,,,,,
,,,,,,,592037296b34af0001e3ec56,2023-08-16_08h43.11.913,HF_wild_card,2022.2.4,Win32,60.07449237,592037296b34af0001e3ec56,64d2fd46c836a06233681665,64dc7d03c9d0bce4168bcdec,,,,,,,decisionTrl,resources/DR.BMP,resources/DY.BMP,Door4,-0.171875,-0.013020833,1,0,0,1.9109,optionLeft,80,6730,3,35,0,35,0,1,,,,,,,,,,,,,,,,,,,,,,,,,,,,,,,,,,,,,,,
,,,,,,,592037296b34af0001e3ec56,2023-08-16_08h43.11.913,HF_wild_card,2022.2.4,Win32,60.07449237,592037296b34af0001e3ec56,64d2fd46c836a06233681665,64dc7d03c9d0bce4168bcdec,,,,,,,ctch,resources/DR.BMP,resources/DB.BMP,Door4,-0.162760417,0,1,0,0,1.7061,optionLeft,60,6790,3,36,0,36,0,1,,,,,,,,,,,,,,,,,,,,,,,,,,,,,,,,,,,,,,,
,,,,,,,592037296b34af0001e3ec56,2023-08-16_08h43.11.913,HF_wild_card,2022.2.4,Win32,60.07449237,592037296b34af0001e3ec56,64d2fd46c836a06233681665,64dc7d03c9d0bce4168bcdec,,,,,,,decisionTrl,resources/DB.BMP,resources/DY.BMP,WildCard_NonEx,0.26171875,0.014322917,1,0,0,1.239,optionRight,55,6845,3,37,0,37,0,1,,,,,,,,,,,,,,,,,,,,,,,,,,,,,,,,,,,,,,,
,,,,,,,592037296b34af0001e3ec56,2023-08-16_08h43.11.913,HF_wild_card,2022.2.4,Win32,60.07449237,592037296b34af0001e3ec56,64d2fd46c836a06233681665,64dc7d03c9d0bce4168bcdec,,,,,,,sngl,resources/Empty.png,resources/DY.BMP,WildCard_NonEx,0.205729167,0.033854167,1,0,0,0.7029,optionRight,55,6900,3,38,0,38,0,1,,,,,,,,,,,,,,,,,,,,,,,,,,,,,,,,,,,,,,,
,,,,,,,592037296b34af0001e3ec56,2023-08-16_08h43.11.913,HF_wild_card,2022.2.4,Win32,60.07449237,592037296b34af0001e3ec56,64d2fd46c836a06233681665,64dc7d03c9d0bce4168bcdec,,,,,,,decisionTrl,resources/DB.BMP,resources/DBN.BMP,Door2,0.180989583,0.009114583,1,0,0,1.1018,optionRight,40,6940,3,39,0,39,0,1,,,,,,,,,,,,,,,,,,,,,,,,,,,,,,,,,,,,,,,
,,,,,,,592037296b34af0001e3ec56,2023-08-16_08h43.11.913,HF_wild_card,2022.2.4,Win32,60.07449237,592037296b34af0001e3ec56,64d2fd46c836a06233681665,64dc7d03c9d0bce4168bcdec,,,,,,,ctch,resources/DP.BMP,resources/DBN.BMP,Door2,0.220052083,0.016927083,1,0,0,0.8063,optionRight,20,6960,3,40,0,40,0,1,,,,,,,,,,,,,,,,,,,,,,,,,,,,,,,,,,,,,,,
,,,,,,,592037296b34af0001e3ec56,2023-08-16_08h43.11.913,HF_wild_card,2022.2.4,Win32,60.07449237,592037296b34af0001e3ec56,64d2fd46c836a06233681665,64dc7d03c9d0bce4168bcdec,,,,,,,decisionTrl,resources/DY.BMP,resources/DB.BMP,WildCard_NonEx,-0.188802083,0.0078125,1,0,0,0.9013,optionLeft,45,7005,3,41,0,41,0,1,,,,,,,,,,,,,,,,,,,,,,,,,,,,,,,,,,,,,,,
,,,,,,,592037296b34af0001e3ec56,2023-08-16_08h43.11.913,HF_wild_card,2022.2.4,Win32,60.07449237,592037296b34af0001e3ec56,64d2fd46c836a06233681665,64dc7d03c9d0bce4168bcdec,,,,,,,decisionTrl,resources/DBN.BMP,resources/DB.BMP,Door2,-0.153645833,0.016927083,1,0,0,1.5712,optionLeft,20,7025,3,42,0,42,0,1,,,,,,,,,,,,,,,,,,,,,,,,,,,,,,,,,,,,,,,
,,,,,,,592037296b34af0001e3ec56,2023-08-16_08h43.11.913,HF_wild_card,2022.2.4,Win32,60.07449237,592037296b34af0001e3ec56,64d2fd46c836a06233681665,64dc7d03c9d0bce4168bcdec,,,,,,,decisionTrl,resources/DBN.BMP,resources/DY.BMP,WildCard_NonEx,0.260416667,0.018229167,1,0,0,0.9495,optionRight,55,7080,3,43,0,43,0,1,,,,,,,,,,,,,,,,,,,,,,,,,,,,,,,,,,,,,,,
,,,,,,,592037296b34af0001e3ec56,2023-08-16_08h43.11.913,HF_wild_card,2022.2.4,Win32,60.07449237,592037296b34af0001e3ec56,64d2fd46c836a06233681665,64dc7d03c9d0bce4168bcdec,,,,,,,,,,,,,,,,,,,,,,,,,,2,0,2,0,1,,,,,,,,,,,,,,,,,,,,,,,,,,,,,,,,,,
,,,,,,,592037296b34af0001e3ec56,2023-08-16_08h43.11.913,HF_wild_card,2022.2.4,Win32,60.07449237,592037296b34af0001e3ec56,64d2fd46c836a06233681665,64dc7d03c9d0bce4168bcdec,,,,,,,decisionTrl,resources/DBN.BMP,resources/DB.BMP,Door1,0.270833333,-0.055989583,1,0,0,3.0666,optionRight,30,7110,4,0,0,0,0,1,,,,,,,,,,,,,,,,,,,,,,,,,,,,,,,,,,,,,,,
,,,,,,,592037296b34af0001e3ec56,2023-08-16_08h43.11.913,HF_wild_card,2022.2.4,Win32,60.07449237,592037296b34af0001e3ec56,64d2fd46c836a06233681665,64dc7d03c9d0bce4168bcdec,,,,,,,decisionTrl,resources/DP.BMP,resources/DR.BMP,Door4,0.266927083,-0.014322917,1,0,0,1.8308,optionRight,60,7170,4,1,0,1,0,1,,,,,,,,,,,,,,,,,,,,,,,,,,,,,,,,,,,,,,,
,,,,,,,592037296b34af0001e3ec56,2023-08-16_08h43.11.913,HF_wild_card,2022.2.4,Win32,60.07449237,592037296b34af0001e3ec56,64d2fd46c836a06233681665,64dc7d03c9d0bce4168bcdec,,,,,,,ctch,resources/DB.BMP,resources/DR.BMP,Door4,0.510416667,-0.03125,1,0,0,1.0138,optionRight,60,7230,4,2,0,2,0,1,,,,,,,,,,,,,,,,,,,,,,,,,,,,,,,,,,,,,,,
,,,,,,,592037296b34af0001e3ec56,2023-08-16_08h43.11.913,HF_wild_card,2022.2.4,Win32,60.07449237,592037296b34af0001e3ec56,64d2fd46c836a06233681665,64dc7d03c9d0bce4168bcdec,,,,,,,ctch,resources/DB.BMP,resources/DR.BMP,Door4,0.51171875,0.010416667,1,0,0,1.1188,optionRight,60,7290,4,3,0,3,0,1,,,,,,,,,,,,,,,,,,,,,,,,,,,,,,,,,,,,,,,
,,,,,,,592037296b34af0001e3ec56,2023-08-16_08h43.11.913,HF_wild_card,2022.2.4,Win32,60.07449237,592037296b34af0001e3ec56,64d2fd46c836a06233681665,64dc7d03c9d0bce4168bcdec,,,,,,,sngl,resources/DG.BMP,resources/Empty.png,WildCard_Ex,-0.21875,0.016927083,1,0,0,0.8276,optionLeft,45,7335,4,4,0,4,0,1,,,,,,,,,,,,,,,,,,,,,,,,,,,,,,,,,,,,,,,
,,,,,,,592037296b34af0001e3ec56,2023-08-16_08h43.11.913,HF_wild_card,2022.2.4,Win32,60.07449237,592037296b34af0001e3ec56,64d2fd46c836a06233681665,64dc7d03c9d0bce4168bcdec,,,,,,,decisionTrl,resources/DB.BMP,resources/DBN.BMP,Door1,-0.244791667,0.01953125,1,0,0,1.9113,optionLeft,30,7365,4,5,0,5,0,1,,,,,,,,,,,,,,,,,,,,,,,,,,,,,,,,,,,,,,,
,,,,,,,592037296b34af0001e3ec56,2023-08-16_08h43.11.913,HF_wild_card,2022.2.4,Win32,60.07449237,592037296b34af0001e3ec56,64d2fd46c836a06233681665,64dc7d03c9d0bce4168bcdec,,,,,,,decisionTrl,resources/DG.BMP,resources/DP.BMP,Door3,0.334635417,-0.024739583,1,0,0,2.1423,optionRight,70,7435,4,6,0,6,0,1,,,,,,,,,,,,,,,,,,,,,,,,,,,,,,,,,,,,,,,
,,,,,,,592037296b34af0001e3ec56,2023-08-16_08h43.11.913,HF_wild_card,2022.2.4,Win32,60.07449237,592037296b34af0001e3ec56,64d2fd46c836a06233681665,64dc7d03c9d0bce4168bcdec,,,,,,,decisionTrl,resources/DR.BMP,resources/DG.BMP,Door4,-0.227864583,0.01171875,1,0,0,3.9225,optionLeft,80,7515,4,7,0,7,0,1,,,,,,,,,,,,,,,,,,,,,,,,,,,,,,,,,,,,,,,
,,,,,,,592037296b34af0001e3ec56,2023-08-16_08h43.11.913,HF_wild_card,2022.2.4,Win32,60.07449237,592037296b34af0001e3ec56,64d2fd46c836a06233681665,64dc7d03c9d0bce4168bcdec,,,,,,,decisionTrl,resources/DBN.BMP,resources/DB.BMP,Door1,0.294270833,-0.005208333,1,0,0,2.3975,optionRight,30,7545,4,8,0,8,0,1,,,,,,,,,,,,,,,,,,,,,,,,,,,,,,,,,,,,,,,
,,,,,,,592037296b34af0001e3ec56,2023-08-16_08h43.11.913,HF_wild_card,2022.2.4,Win32,60.07449237,592037296b34af0001e3ec56,64d2fd46c836a06233681665,64dc7d03c9d0bce4168bcdec,,,,,,,decisionTrl,resources/DBN.BMP,resources/DG.BMP,WildCard_Ex,0.247395833,0.005208333,1,0,0,1.0766,optionRight,55,7600,4,9,0,9,0,1,,,,,,,,,,,,,,,,,,,,,,,,,,,,,,,,,,,,,,,
,,,,,,,592037296b34af0001e3ec56,2023-08-16_08h43.11.913,HF_wild_card,2022.2.4,Win32,60.07449237,592037296b34af0001e3ec56,64d2fd46c836a06233681665,64dc7d03c9d0bce4168bcdec,,,,,,,decisionTrl,resources/DG.BMP,resources/DR.BMP,Door4,0.251302083,0.009114583,1,0,0,1.3346,optionRight,80,7680,4,10,0,10,0,1,,,,,,,,,,,,,,,,,,,,,,,,,,,,,,,,,,,,,,,
,,,,,,,592037296b34af0001e3ec56,2023-08-16_08h43.11.913,HF_wild_card,2022.2.4,Win32,60.07449237,592037296b34af0001e3ec56,64d2fd46c836a06233681665,64dc7d03c9d0bce4168bcdec,,,,,,,sngl,resources/Empty.png,resources/DG.BMP,WildCard_Ex,0.251302083,0.005208333,1,0,0,0.7378,optionRight,55,7735,4,11,0,11,0,1,,,,,,,,,,,,,,,,,,,,,,,,,,,,,,,,,,,,,,,
,,,,,,,592037296b34af0001e3ec56,2023-08-16_08h43.11.913,HF_wild_card,2022.2.4,Win32,60.07449237,592037296b34af0001e3ec56,64d2fd46c836a06233681665,64dc7d03c9d0bce4168bcdec,,,,,,,sngl,resources/DR.BMP,resources/Empty.png,Door4,-0.28125,0.013020833,1,0,0,0.5922,optionLeft,60,7795,4,12,0,12,0,1,,,,,,,,,,,,,,,,,,,,,,,,,,,,,,,,,,,,,,,
,,,,,,,592037296b34af0001e3ec56,2023-08-16_08h43.11.913,HF_wild_card,2022.2.4,Win32,60.07449237,592037296b34af0001e3ec56,64d2fd46c836a06233681665,64dc7d03c9d0bce4168bcdec,,,,,,,ctch,resources/DP.BMP,resources/DBN.BMP,Door3,-0.264322917,-0.001302083,1,0,0,2.0258,optionLeft,70,7865,4,13,0,13,0,1,,,,,,,,,,,,,,,,,,,,,,,,,,,,,,,,,,,,,,,
,,,,,,,592037296b34af0001e3ec56,2023-08-16_08h43.11.913,HF_wild_card,2022.2.4,Win32,60.07449237,592037296b34af0001e3ec56,64d2fd46c836a06233681665,64dc7d03c9d0bce4168bcdec,,,,,,,decisionTrl,resources/DG.BMP,resources/DB.BMP,WildCard_Ex,-0.299479167,0.014322917,1,0,0,1.6003,optionLeft,45,7910,4,14,0,14,0,1,,,,,,,,,,,,,,,,,,,,,,,,,,,,,,,,,,,,,,,
,,,,,,,592037296b34af0001e3ec56,2023-08-16_08h43.11.913,HF_wild_card,2022.2.4,Win32,60.07449237,592037296b34af0001e3ec56,64d2fd46c836a06233681665,64dc7d03c9d0bce4168bcdec,,,,,,,decisionTrl,resources/DR.BMP,resources/DP.BMP,Door3,0.233072917,0.009114583,1,0,0,6.4383,optionRight,70,7980,4,15,0,15,0,1,,,,,,,,,,,,,,,,,,,,,,,,,,,,,,,,,,,,,,,
,,,,,,,592037296b34af0001e3ec56,2023-08-16_08h43.11.913,HF_wild_card,2022.2.4,Win32,60.07449237,592037296b34af0001e3ec56,64d2fd46c836a06233681665,64dc7d03c9d0bce4168bcdec,,,,,,,decisionTrl,resources/DP.BMP,resources/DR.BMP,Door3,-0.28125,-0.015625,1,0,0,1.2161,optionLeft,70,8050,4,16,0,16,0,1,,,,,,,,,,,,,,,,,,,,,,,,,,,,,,,,,,,,,,,
,,,,,,,592037296b34af0001e3ec56,2023-08-16_08h43.11.913,HF_wild_card,2022.2.4,Win32,60.07449237,592037296b34af0001e3ec56,64d2fd46c836a06233681665,64dc7d03c9d0bce4168bcdec,,,,,,,sngl,resources/DB.BMP,resources/Empty.png,Door1,-0.255208333,-0.01171875,1,0,0,0.8824,optionLeft,30,8080,4,17,0,17,0,1,,,,,,,,,,,,,,,,,,,,,,,,,,,,,,,,,,,,,,,
,,,,,,,592037296b34af0001e3ec56,2023-08-16_08h43.11.913,HF_wild_card,2022.2.4,Win32,60.07449237,592037296b34af0001e3ec56,64d2fd46c836a06233681665,64dc7d03c9d0bce4168bcdec,,,,,,,decisionTrl,resources/DP.BMP,resources/DR.BMP,Door3,-0.48046875,0.03515625,1,0,0,1.126,optionLeft,70,8150,4,18,0,18,0,1,,,,,,,,,,,,,,,,,,,,,,,,,,,,,,,,,,,,,,,
,,,,,,,592037296b34af0001e3ec56,2023-08-16_08h43.11.913,HF_wild_card,2022.2.4,Win32,60.07449237,592037296b34af0001e3ec56,64d2fd46c836a06233681665,64dc7d03c9d0bce4168bcdec,,,,,,,decisionTrl,resources/DP.BMP,resources/DG.BMP,Door3,-0.2421875,-0.00390625,1,0,0,1.198,optionLeft,70,8220,4,19,0,19,0,1,,,,,,,,,,,,,,,,,,,,,,,,,,,,,,,,,,,,,,,
,,,,,,,592037296b34af0001e3ec56,2023-08-16_08h43.11.913,HF_wild_card,2022.2.4,Win32,60.07449237,592037296b34af0001e3ec56,64d2fd46c836a06233681665,64dc7d03c9d0bce4168bcdec,,,,,,,decisionTrl,resources/DG.BMP,resources/DBN.BMP,WildCard_Ex,-0.201822917,-0.002604167,1,0,0,1.2822,optionLeft,45,8265,4,20,0,20,0,1,,,,,,,,,,,,,,,,,,,,,,,,,,,,,,,,,,,,,,,
,,,,,,,592037296b34af0001e3ec56,2023-08-16_08h43.11.913,HF_wild_card,2022.2.4,Win32,60.07449237,592037296b34af0001e3ec56,64d2fd46c836a06233681665,64dc7d03c9d0bce4168bcdec,,,,,,,decisionTrl,resources/DR.BMP,resources/DP.BMP,Door3,0.454427083,-0.005208333,1,0,0,1.0745,optionRight,70,8335,4,21,0,21,0,1,,,,,,,,,,,,,,,,,,,,,,,,,,,,,,,,,,,,,,,
,,,,,,,592037296b34af0001e3ec56,2023-08-16_08h43.11.913,HF_wild_card,2022.2.4,Win32,60.07449237,592037296b34af0001e3ec56,64d2fd46c836a06233681665,64dc7d03c9d0bce4168bcdec,,,,,,,decisionTrl,resources/DBN.BMP,resources/DB.BMP,Door1,0.2265625,0.01171875,1,0,0,1.5925,optionRight,30,8365,4,22,0,22,0,1,,,,,,,,,,,,,,,,,,,,,,,,,,,,,,,,,,,,,,,
,,,,,,,592037296b34af0001e3ec56,2023-08-16_08h43.11.913,HF_wild_card,2022.2.4,Win32,60.07449237,592037296b34af0001e3ec56,64d2fd46c836a06233681665,64dc7d03c9d0bce4168bcdec,,,,,,,decisionTrl,resources/DB.BMP,resources/DBN.BMP,Door1,-0.329427083,-0.002604167,1,0,0,1.4453,optionLeft,30,8395,4,23,0,23,0,1,,,,,,,,,,,,,,,,,,,,,,,,,,,,,,,,,,,,,,,
,,,,,,,592037296b34af0001e3ec56,2023-08-16_08h43.11.913,HF_wild_card,2022.2.4,Win32,60.07449237,592037296b34af0001e3ec56,64d2fd46c836a06233681665,64dc7d03c9d0bce4168bcdec,,,,,,,sngl,resources/Empty.png,resources/DP.BMP,Door3,0.205729167,0,1,0,0,0.7882,optionRight,70,8465,4,24,0,24,0,1,,,,,,,,,,,,,,,,,,,,,,,,,,,,,,,,,,,,,,,
,,,,,,,592037296b34af0001e3ec56,2023-08-16_08h43.11.913,HF_wild_card,2022.2.4,Win32,60.07449237,592037296b34af0001e3ec56,64d2fd46c836a06233681665,64dc7d03c9d0bce4168bcdec,,,,,,,sngl,resources/DG.BMP,resources/Empty.png,WildCard_Ex,-0.38671875,-0.026041667,1,0,0,0.5761,optionLeft,55,8520,4,25,0,25,0,1,,,,,,,,,,,,,,,,,,,,,,,,,,,,,,,,,,,,,,,
,,,,,,,592037296b34af0001e3ec56,2023-08-16_08h43.11.913,HF_wild_card,2022.2.4,Win32,60.07449237,592037296b34af0001e3ec56,64d2fd46c836a06233681665,64dc7d03c9d0bce4168bcdec,,,,,,,ctch,resources/DR.BMP,resources/DB.BMP,Door4,-0.190104167,-0.049479167,1,0,0,2.2931,optionLeft,80,8600,4,26,0,26,0,1,,,,,,,,,,,,,,,,,,,,,,,,,,,,,,,,,,,,,,,
,,,,,,,592037296b34af0001e3ec56,2023-08-16_08h43.11.913,HF_wild_card,2022.2.4,Win32,60.07449237,592037296b34af0001e3ec56,64d2fd46c836a06233681665,64dc7d03c9d0bce4168bcdec,,,,,,,ctch,resources/DR.BMP,resources/DB.BMP,Door4,-0.256510417,-0.0234375,1,0,0,0.8052,optionLeft,60,8660,4,27,0,27,0,1,,,,,,,,,,,,,,,,,,,,,,,,,,,,,,,,,,,,,,,
,,,,,,,592037296b34af0001e3ec56,2023-08-16_08h43.11.913,HF_wild_card,2022.2.4,Win32,60.07449237,592037296b34af0001e3ec56,64d2fd46c836a06233681665,64dc7d03c9d0bce4168bcdec,,,,,,,decisionTrl,resources/DBN.BMP,resources/DB.BMP,Door1,0.141927083,-0.024739583,1,0,0,1.6149,optionRight,30,8690,4,28,0,28,0,1,,,,,,,,,,,,,,,,,,,,,,,,,,,,,,,,,,,,,,,
,,,,,,,592037296b34af0001e3ec56,2023-08-16_08h43.11.913,HF_wild_card,2022.2.4,Win32,60.07449237,592037296b34af0001e3ec56,64d2fd46c836a06233681665,64dc7d03c9d0bce4168bcdec,,,,,,,decisionTrl,resources/DP.BMP,resources/DR.BMP,Door3,-0.200520833,-0.048177083,1,0,0,2.5602,optionLeft,70,8760,4,29,0,29,0,1,,,,,,,,,,,,,,,,,,,,,,,,,,,,,,,,,,,,,,,
,,,,,,,592037296b34af0001e3ec56,2023-08-16_08h43.11.913,HF_wild_card,2022.2.4,Win32,60.07449237,592037296b34af0001e3ec56,64d2fd46c836a06233681665,64dc7d03c9d0bce4168bcdec,,,,,,,sngl,resources/Empty.png,resources/DB.BMP,Door1,0.274739583,-0.01953125,1,0,0,0.9109,optionRight,30,8790,4,30,0,30,0,1,,,,,,,,,,,,,,,,,,,,,,,,,,,,,,,,,,,,,,,
,,,,,,,592037296b34af0001e3ec56,2023-08-16_08h43.11.913,HF_wild_card,2022.2.4,Win32,60.07449237,592037296b34af0001e3ec56,64d2fd46c836a06233681665,64dc7d03c9d0bce4168bcdec,,,,,,,decisionTrl,resources/DR.BMP,resources/DP.BMP,Door3,0.2265625,-0.010416667,1,0,0,1.3964,optionRight,70,8860,4,31,0,31,0,1,,,,,,,,,,,,,,,,,,,,,,,,,,,,,,,,,,,,,,,
,,,,,,,592037296b34af0001e3ec56,2023-08-16_08h43.11.913,HF_wild_card,2022.2.4,Win32,60.07449237,592037296b34af0001e3ec56,64d2fd46c836a06233681665,64dc7d03c9d0bce4168bcdec,,,,,,,decisionTrl,resources/DB.BMP,resources/DBN.BMP,Door1,-0.384114583,-0.018229167,1,0,0,1.5771,optionLeft,30,8890,4,32,0,32,0,1,,,,,,,,,,,,,,,,,,,,,,,,,,,,,,,,,,,,,,,
,,,,,,,592037296b34af0001e3ec56,2023-08-16_08h43.11.913,HF_wild_card,2022.2.4,Win32,60.07449237,592037296b34af0001e3ec56,64d2fd46c836a06233681665,64dc7d03c9d0bce4168bcdec,,,,,,,sngl,resources/Empty.png,resources/DBN.BMP,Door2,0.359375,-0.006510417,1,0,0,0.7945,optionRight,40,8930,4,33,0,33,0,1,,,,,,,,,,,,,,,,,,,,,,,,,,,,,,,,,,,,,,,
,,,,,,,592037296b34af0001e3ec56,2023-08-16_08h43.11.913,HF_wild_card,2022.2.4,Win32,60.07449237,592037296b34af0001e3ec56,64d2fd46c836a06233681665,64dc7d03c9d0bce4168bcdec,,,,,,,ctch,resources/DBN.BMP,resources/DP.BMP,Door3,0.58984375,-0.03515625,1,0,0,1.7241,optionRight,70,9000,4,34,0,34,0,1,,,,,,,,,,,,,,,,,,,,,,,,,,,,,,,,,,,,,,,
,,,,,,,592037296b34af0001e3ec56,2023-08-16_08h43.11.913,HF_wild_card,2022.2.4,Win32,60.07449237,592037296b34af0001e3ec56,64d2fd46c836a06233681665,64dc7d03c9d0bce4168bcdec,,,,,,,ctch,resources/DP.BMP,resources/DBN.BMP,Door3,-0.303385417,-0.048177083,1,0,0,1.134,optionLeft,70,9070,4,35,0,35,0,1,,,,,,,,,,,,,,,,,,,,,,,,,,,,,,,,,,,,,,,
,,,,,,,592037296b34af0001e3ec56,2023-08-16_08h43.11.913,HF_wild_card,2022.2.4,Win32,60.07449237,592037296b34af0001e3ec56,64d2fd46c836a06233681665,64dc7d03c9d0bce4168bcdec,,,,,,,decisionTrl,resources/DB.BMP,resources/DBN.BMP,Door2,0.3203125,-0.040364583,1,0,0,2.3404,optionRight,40,9110,4,36,0,36,0,1,,,,,,,,,,,,,,,,,,,,,,,,,,,,,,,,,,,,,,,
,,,,,,,592037296b34af0001e3ec56,2023-08-16_08h43.11.913,HF_wild_card,2022.2.4,Win32,60.07449237,592037296b34af0001e3ec56,64d2fd46c836a06233681665,64dc7d03c9d0bce4168bcdec,,,,,,,sngl,resources/Empty.png,resources/DR.BMP,Door4,0.26953125,-0.00390625,1,0,0,1.1472,optionRight,80,9190,4,37,0,37,0,1,,,,,,,,,,,,,,,,,,,,,,,,,,,,,,,,,,,,,,,
,,,,,,,592037296b34af0001e3ec56,2023-08-16_08h43.11.913,HF_wild_card,2022.2.4,Win32,60.07449237,592037296b34af0001e3ec56,64d2fd46c836a06233681665,64dc7d03c9d0bce4168bcdec,,,,,,,decisionTrl,resources/DR.BMP,resources/DP.BMP,Door4,-0.240885417,-0.006510417,1,0,0,1.639,optionLeft,60,9250,4,38,0,38,0,1,,,,,,,,,,,,,,,,,,,,,,,,,,,,,,,,,,,,,,,
,,,,,,,592037296b34af0001e3ec56,2023-08-16_08h43.11.913,HF_wild_card,2022.2.4,Win32,60.07449237,592037296b34af0001e3ec56,64d2fd46c836a06233681665,64dc7d03c9d0bce4168bcdec,,,,,,,sngl,resources/DP.BMP,resources/Empty.png,Door3,-0.21484375,-0.00390625,1,0,0,0.7684,optionLeft,70,9320,4,39,0,39,0,1,,,,,,,,,,,,,,,,,,,,,,,,,,,,,,,,,,,,,,,
,,,,,,,592037296b34af0001e3ec56,2023-08-16_08h43.11.913,HF_wild_card,2022.2.4,Win32,60.07449237,592037296b34af0001e3ec56,64d2fd46c836a06233681665,64dc7d03c9d0bce4168bcdec,,,,,,,ctch,resources/DBN.BMP,resources/DP.BMP,Door3,0.201822917,0.013020833,1,0,0,1.2304,optionRight,70,9390,4,40,0,40,0,1,,,,,,,,,,,,,,,,,,,,,,,,,,,,,,,,,,,,,,,
,,,,,,,592037296b34af0001e3ec56,2023-08-16_08h43.11.913,HF_wild_card,2022.2.4,Win32,60.07449237,592037296b34af0001e3ec56,64d2fd46c836a06233681665,64dc7d03c9d0bce4168bcdec,,,,,,,sngl,resources/DBN.BMP,resources/Empty.png,Door2,-0.33203125,0.01171875,1,0,0,0.8439,optionLeft,20,9410,4,41,0,41,0,1,,,,,,,,,,,,,,,,,,,,,,,,,,,,,,,,,,,,,,,
,,,,,,,592037296b34af0001e3ec56,2023-08-16_08h43.11.913,HF_wild_card,2022.2.4,Win32,60.07449237,592037296b34af0001e3ec56,64d2fd46c836a06233681665,64dc7d03c9d0bce4168bcdec,,,,,,,sngl,resources/Empty.png,resources/DG.BMP,WildCard_Ex,0.279947917,0.009114583,1,0,0,0.8165,optionRight,45,9455,4,42,0,42,0,1,,,,,,,,,,,,,,,,,,,,,,,,,,,,,,,,,,,,,,,
,,,,,,,592037296b34af0001e3ec56,2023-08-16_08h43.11.913,HF_wild_card,2022.2.4,Win32,60.07449237,592037296b34af0001e3ec56,64d2fd46c836a06233681665,64dc7d03c9d0bce4168bcdec,,,,,,,decisionTrl,resources/DB.BMP,resources/DG.BMP,WildCard_Ex,0.302083333,0.033854167,1,0,0,1.7719,optionRight,45,9500,4,43,0,43,0,1,,,,,,,,,,,,,,,,,,,,,,,,,,,,,,,,,,,,,,,
,,,,,,,592037296b34af0001e3ec56,2023-08-16_08h43.11.913,HF_wild_card,2022.2.4,Win32,60.07449237,592037296b34af0001e3ec56,64d2fd46c836a06233681665,64dc7d03c9d0bce4168bcdec,,,,,,,,,,,,,,,,,,,,,,,,,,3,0,3,0,1,,,,,,,,,,,,,,,,,,,,,,,,,,,,,,,,,,
,,,,,,,592037296b34af0001e3ec56,2023-08-16_08h43.11.913,HF_wild_card,2022.2.4,Win32,60.07449237,592037296b34af0001e3ec56,64d2fd46c836a06233681665,64dc7d03c9d0bce4168bcdec,,,,,,,sngl,resources/DBN.BMP,resources/Empty.png,Door2,-0.337239583,-0.098958333,1,0,0,1.7324,optionLeft,40,9540,5,0,0,0,0,1,,,,,,,,,,,,,,,,,,,,,,,,,,,,,,,,,,,,,,,
,,,,,,,592037296b34af0001e3ec56,2023-08-16_08h43.11.913,HF_wild_card,2022.2.4,Win32,60.07449237,592037296b34af0001e3ec56,64d2fd46c836a06233681665,64dc7d03c9d0bce4168bcdec,,,,,,,ctch,resources/DBN.BMP,resources/DP.BMP,Door3,0.252604167,-0.026041667,1,0,0,1.1932,optionRight,70,9610,5,1,0,1,0,1,,,,,,,,,,,,,,,,,,,,,,,,,,,,,,,,,,,,,,,
,,,,,,,592037296b34af0001e3ec56,2023-08-16_08h43.11.913,HF_wild_card,2022.2.4,Win32,60.07449237,592037296b34af0001e3ec56,64d2fd46c836a06233681665,64dc7d03c9d0bce4168bcdec,,,,,,,ctch,resources/DP.BMP,resources/DBN.BMP,Door3,-0.30859375,0.01171875,1,0,0,0.9238,optionLeft,70,9680,5,2,0,2,0,1,,,,,,,,,,,,,,,,,,,,,,,,,,,,,,,,,,,,,,,
,,,,,,,592037296b34af0001e3ec56,2023-08-16_08h43.11.913,HF_wild_card,2022.2.4,Win32,60.07449237,592037296b34af0001e3ec56,64d2fd46c836a06233681665,64dc7d03c9d0bce4168bcdec,,,,,,,decisionTrl,resources/DG.BMP,resources/DB.BMP,WildCard_Ex,-0.236979167,-0.013020833,1,0,0,1.7255,optionLeft,55,9735,5,3,0,3,0,1,,,,,,,,,,,,,,,,,,,,,,,,,,,,,,,,,,,,,,,
,,,,,,,592037296b34af0001e3ec56,2023-08-16_08h43.11.913,HF_wild_card,2022.2.4,Win32,60.07449237,592037296b34af0001e3ec56,64d2fd46c836a06233681665,64dc7d03c9d0bce4168bcdec,,,,,,,sngl,resources/DB.BMP,resources/Empty.png,Door1,-0.24609375,-0.013020833,1,0,0,0.7213,optionLeft,30,9765,5,4,0,4,0,1,,,,,,,,,,,,,,,,,,,,,,,,,,,,,,,,,,,,,,,
,,,,,,,592037296b34af0001e3ec56,2023-08-16_08h43.11.913,HF_wild_card,2022.2.4,Win32,60.07449237,592037296b34af0001e3ec56,64d2fd46c836a06233681665,64dc7d03c9d0bce4168bcdec,,,,,,,decisionTrl,resources/DBN.BMP,resources/DG.BMP,WildCard_Ex,0.540364583,-0.065104167,1,0,0,1.3015,optionRight,45,9810,5,5,0,5,0,1,,,,,,,,,,,,,,,,,,,,,,,,,,,,,,,,,,,,,,,
,,,,,,,592037296b34af0001e3ec56,2023-08-16_08h43.11.913,HF_wild_card,2022.2.4,Win32,60.07449237,592037296b34af0001e3ec56,64d2fd46c836a06233681665,64dc7d03c9d0bce4168bcdec,,,,,,,decisionTrl,resources/DB.BMP,resources/DBN.BMP,Door1,-0.25390625,-0.014322917,1,0,0,2.063,optionLeft,30,9840,5,6,0,6,0,1,,,,,,,,,,,,,,,,,,,,,,,,,,,,,,,,,,,,,,,
,,,,,,,592037296b34af0001e3ec56,2023-08-16_08h43.11.913,HF_wild_card,2022.2.4,Win32,60.07449237,592037296b34af0001e3ec56,64d2fd46c836a06233681665,64dc7d03c9d0bce4168bcdec,,,,,,,decisionTrl,resources/DBN.BMP,resources/DB.BMP,Door1,0.260416667,-0.022135417,1,0,0,1.0134,optionRight,30,9870,5,7,0,7,0,1,,,,,,,,,,,,,,,,,,,,,,,,,,,,,,,,,,,,,,,
,,,,,,,592037296b34af0001e3ec56,2023-08-16_08h43.11.913,HF_wild_card,2022.2.4,Win32,60.07449237,592037296b34af0001e3ec56,64d2fd46c836a06233681665,64dc7d03c9d0bce4168bcdec,,,,,,,sngl,resources/DG.BMP,resources/Empty.png,WildCard_Ex,-0.432291667,0.022135417,1,0,0,0.6708,optionLeft,45,9915,5,8,0,8,0,1,,,,,,,,,,,,,,,,,,,,,,,,,,,,,,,,,,,,,,,
,,,,,,,592037296b34af0001e3ec56,2023-08-16_08h43.11.913,HF_wild_card,2022.2.4,Win32,60.07449237,592037296b34af0001e3ec56,64d2fd46c836a06233681665,64dc7d03c9d0bce4168bcdec,,,,,,,ctch,resources/DB.BMP,resources/DR.BMP,Door4,0.341145833,-0.002604167,1,0,0,1.3281,optionRight,60,9975,5,9,0,9,0,1,,,,,,,,,,,,,,,,,,,,,,,,,,,,,,,,,,,,,,,
,,,,,,,592037296b34af0001e3ec56,2023-08-16_08h43.11.913,HF_wild_card,2022.2.4,Win32,60.07449237,592037296b34af0001e3ec56,64d2fd46c836a06233681665,64dc7d03c9d0bce4168bcdec,,,,,,,ctch,resources/DR.BMP,resources/DB.BMP,Door4,-0.220052083,0.010416667,1,0,0,0.8793,optionLeft,60,10035,5,10,0,10,0,1,,,,,,,,,,,,,,,,,,,,,,,,,,,,,,,,,,,,,,,
,,,,,,,592037296b34af0001e3ec56,2023-08-16_08h43.11.913,HF_wild_card,2022.2.4,Win32,60.07449237,592037296b34af0001e3ec56,64d2fd46c836a06233681665,64dc7d03c9d0bce4168bcdec,,,,,,,decisionTrl,resources/DR.BMP,resources/DG.BMP,Door4,-0.260416667,-0.002604167,1,0,0,1.7262,optionLeft,60,10095,5,11,0,11,0,1,,,,,,,,,,,,,,,,,,,,,,,,,,,,,,,,,,,,,,,
,,,,,,,592037296b34af0001e3ec56,2023-08-16_08h43.11.913,HF_wild_card,2022.2.4,Win32,60.07449237,592037296b34af0001e3ec56,64d2fd46c836a06233681665,64dc7d03c9d0bce4168bcdec,,,,,,,decisionTrl,resources/DB.BMP,resources/DBN.BMP,Door1,-0.279947917,-0.010416667,1,0,0,2.5952,optionLeft,30,10125,5,12,0,12,0,1,,,,,,,,,,,,,,,,,,,,,,,,,,,,,,,,,,,,,,,
,,,,,,,592037296b34af0001e3ec56,2023-08-16_08h43.11.913,HF_wild_card,2022.2.4,Win32,60.07449237,592037296b34af0001e3ec56,64d2fd46c836a06233681665,64dc7d03c9d0bce4168bcdec,,,,,,,decisionTrl,resources/DP.BMP,resources/DR.BMP,Door3,-0.274739583,-0.028645833,1,0,0,1.7591,optionLeft,70,10195,5,13,0,13,0,1,,,,,,,,,,,,,,,,,,,,,,,,,,,,,,,,,,,,,,,
,,,,,,,592037296b34af0001e3ec56,2023-08-16_08h43.11.913,HF_wild_card,2022.2.4,Win32,60.07449237,592037296b34af0001e3ec56,64d2fd46c836a06233681665,64dc7d03c9d0bce4168bcdec,,,,,,,sngl,resources/DR.BMP,resources/Empty.png,Door4,-0.510416667,-0.009114583,1,0,0,0.6441,optionLeft,80,10275,5,14,0,14,0,1,,,,,,,,,,,,,,,,,,,,,,,,,,,,,,,,,,,,,,,
,,,,,,,592037296b34af0001e3ec56,2023-08-16_08h43.11.913,HF_wild_card,2022.2.4,Win32,60.07449237,592037296b34af0001e3ec56,64d2fd46c836a06233681665,64dc7d03c9d0bce4168bcdec,,,,,,,decisionTrl,resources/DR.BMP,resources/DP.BMP,Door3,0.236979167,-0.01953125,1,0,0,1.0765,optionRight,70,10345,5,15,0,15,0,1,,,,,,,,,,,,,,,,,,,,,,,,,,,,,,,,,,,,,,,
,,,,,,,592037296b34af0001e3ec56,2023-08-16_08h43.11.913,HF_wild_card,2022.2.4,Win32,60.07449237,592037296b34af0001e3ec56,64d2fd46c836a06233681665,64dc7d03c9d0bce4168bcdec,,,,,,,decisionTrl,resources/DB.BMP,resources/DG.BMP,WildCard_Ex,0.255208333,-0.018229167,1,0,0,1.4745,optionRight,55,10400,5,16,0,16,0,1,,,,,,,,,,,,,,,,,,,,,,,,,,,,,,,,,,,,,,,
,,,,,,,592037296b34af0001e3ec56,2023-08-16_08h43.11.913,HF_wild_card,2022.2.4,Win32,60.07449237,592037296b34af0001e3ec56,64d2fd46c836a06233681665,64dc7d03c9d0bce4168bcdec,,,,,,,decisionTrl,resources/DR.BMP,resources/DP.BMP,Door3,0.25,0.002604167,1,0,0,1.227,optionRight,70,10470,5,17,0,17,0,1,,,,,,,,,,,,,,,,,,,,,,,,,,,,,,,,,,,,,,,
,,,,,,,592037296b34af0001e3ec56,2023-08-16_08h43.11.913,HF_wild_card,2022.2.4,Win32,60.07449237,592037296b34af0001e3ec56,64d2fd46c836a06233681665,64dc7d03c9d0bce4168bcdec,,,,,,,decisionTrl,resources/DBN.BMP,resources/DB.BMP,Door1,0.18359375,-0.01953125,1,0,0,2.0993,optionRight,30,10500,5,18,0,18,0,1,,,,,,,,,,,,,,,,,,,,,,,,,,,,,,,,,,,,,,,
,,,,,,,592037296b34af0001e3ec56,2023-08-16_08h43.11.913,HF_wild_card,2022.2.4,Win32,60.07449237,592037296b34af0001e3ec56,64d2fd46c836a06233681665,64dc7d03c9d0bce4168bcdec,,,,,,,sngl,resources/DP.BMP,resources/Empty.png,Door3,-0.26171875,0.0234375,1,0,0,0.6703,optionLeft,70,10570,5,19,0,19,0,1,,,,,,,,,,,,,,,,,,,,,,,,,,,,,,,,,,,,,,,
,,,,,,,592037296b34af0001e3ec56,2023-08-16_08h43.11.913,HF_wild_card,2022.2.4,Win32,60.07449237,592037296b34af0001e3ec56,64d2fd46c836a06233681665,64dc7d03c9d0bce4168bcdec,,,,,,,decisionTrl,resources/DR.BMP,resources/DP.BMP,Door3,0.329427083,0.002604167,1,0,0,1.3883,optionRight,70,10640,5,20,0,20,0,1,,,,,,,,,,,,,,,,,,,,,,,,,,,,,,,,,,,,,,,
,,,,,,,592037296b34af0001e3ec56,2023-08-16_08h43.11.913,HF_wild_card,2022.2.4,Win32,60.07449237,592037296b34af0001e3ec56,64d2fd46c836a06233681665,64dc7d03c9d0bce4168bcdec,,,,,,,sngl,resources/Empty.png,resources/DBN.BMP,Door2,0.330729167,-0.033854167,1,0,0,5.2294,optionRight,20,10660,5,21,0,21,0,1,,,,,,,,,,,,,,,,,,,,,,,,,,,,,,,,,,,,,,,
,,,,,,,592037296b34af0001e3ec56,2023-08-16_08h43.11.913,HF_wild_card,2022.2.4,Win32,60.07449237,592037296b34af0001e3ec56,64d2fd46c836a06233681665,64dc7d03c9d0bce4168bcdec,,,,,,,ctch,resources/DR.BMP,resources/DB.BMP,Door4,-0.2734375,-0.044270833,1,0,0,1.6546,optionLeft,60,10720,5,22,0,22,0,1,,,,,,,,,,,,,,,,,,,,,,,,,,,,,,,,,,,,,,,
,,,,,,,592037296b34af0001e3ec56,2023-08-16_08h43.11.913,HF_wild_card,2022.2.4,Win32,60.07449237,592037296b34af0001e3ec56,64d2fd46c836a06233681665,64dc7d03c9d0bce4168bcdec,,,,,,,decisionTrl,resources/DB.BMP,resources/DBN.BMP,Door1,-0.265625,-0.076822917,1,0,0,3.4766,optionLeft,30,10750,5,23,0,23,0,1,,,,,,,,,,,,,,,,,,,,,,,,,,,,,,,,,,,,,,,
,,,,,,,592037296b34af0001e3ec56,2023-08-16_08h43.11.913,HF_wild_card,2022.2.4,Win32,60.07449237,592037296b34af0001e3ec56,64d2fd46c836a06233681665,64dc7d03c9d0bce4168bcdec,,,,,,,decisionTrl,resources/DG.BMP,resources/DBN.BMP,WildCard_Ex,-0.2890625,0.001302083,1,0,0,4.6145,optionLeft,55,10805,5,24,0,24,0,1,,,,,,,,,,,,,,,,,,,,,,,,,,,,,,,,,,,,,,,
,,,,,,,592037296b34af0001e3ec56,2023-08-16_08h43.11.913,HF_wild_card,2022.2.4,Win32,60.07449237,592037296b34af0001e3ec56,64d2fd46c836a06233681665,64dc7d03c9d0bce4168bcdec,,,,,,,sngl,resources/Empty.png,resources/DP.BMP,Door3,0.40234375,-0.026041667,1,0,0,0.7257,optionRight,70,10875,5,25,0,25,0,1,,,,,,,,,,,,,,,,,,,,,,,,,,,,,,,,,,,,,,,
,,,,,,,592037296b34af0001e3ec56,2023-08-16_08h43.11.913,HF_wild_card,2022.2.4,Win32,60.07449237,592037296b34af0001e3ec56,64d2fd46c836a06233681665,64dc7d03c9d0bce4168bcdec,,,,,,,decisionTrl,resources/DG.BMP,resources/DR.BMP,Door4,0.662760417,-0.005208333,1,0,0,1.9302,optionRight,80,10955,5,26,0,26,0,1,,,,,,,,,,,,,,,,,,,,,,,,,,,,,,,,,,,,,,,
,,,,,,,592037296b34af0001e3ec56,2023-08-16_08h43.11.913,HF_wild_card,2022.2.4,Win32,60.07449237,592037296b34af0001e3ec56,64d2fd46c836a06233681665,64dc7d03c9d0bce4168bcdec,,,,,,,decisionTrl,resources/DP.BMP,resources/DR.BMP,Door4,0.274739583,-0.020833333,1,0,0,0.7418,optionRight,80,11035,5,27,0,27,0,1,,,,,,,,,,,,,,,,,,,,,,,,,,,,,,,,,,,,,,,
,,,,,,,592037296b34af0001e3ec56,2023-08-16_08h43.11.913,HF_wild_card,2022.2.4,Win32,60.07449237,592037296b34af0001e3ec56,64d2fd46c836a06233681665,64dc7d03c9d0bce4168bcdec,,,,,,,decisionTrl,resources/DBN.BMP,resources/DB.BMP,Door1,0.30078125,0,1,0,0,1.5765,optionRight,30,11065,5,28,0,28,0,1,,,,,,,,,,,,,,,,,,,,,,,,,,,,,,,,,,,,,,,
,,,,,,,592037296b34af0001e3ec56,2023-08-16_08h43.11.913,HF_wild_card,2022.2.4,Win32,60.07449237,592037296b34af0001e3ec56,64d2fd46c836a06233681665,64dc7d03c9d0bce4168bcdec,,,,,,,decisionTrl,resources/DG.BMP,resources/DP.BMP,Door3,0.328125,-0.020833333,1,0,0,1.5083,optionRight,70,11135,5,29,0,29,0,1,,,,,,,,,,,,,,,,,,,,,,,,,,,,,,,,,,,,,,,
,,,,,,,592037296b34af0001e3ec56,2023-08-16_08h43.11.913,HF_wild_card,2022.2.4,Win32,60.07449237,592037296b34af0001e3ec56,64d2fd46c836a06233681665,64dc7d03c9d0bce4168bcdec,,,,,,,ctch,resources/DP.BMP,resources/DBN.BMP,Door3,-0.234375,-0.005208333,1,0,0,1.0746,optionLeft,70,11205,5,30,0,30,0,1,,,,,,,,,,,,,,,,,,,,,,,,,,,,,,,,,,,,,,,
,,,,,,,592037296b34af0001e3ec56,2023-08-16_08h43.11.913,HF_wild_card,2022.2.4,Win32,60.07449237,592037296b34af0001e3ec56,64d2fd46c836a06233681665,64dc7d03c9d0bce4168bcdec,,,,,,,sngl,resources/Empty.png,resources/DB.BMP,Door1,0.39453125,-0.028645833,1,0,0,3.5975,optionRight,30,11235,5,31,0,31,0,1,,,,,,,,,,,,,,,,,,,,,,,,,,,,,,,,,,,,,,,
,,,,,,,592037296b34af0001e3ec56,2023-08-16_08h43.11.913,HF_wild_card,2022.2.4,Win32,60.07449237,592037296b34af0001e3ec56,64d2fd46c836a06233681665,64dc7d03c9d0bce4168bcdec,,,,,,,decisionTrl,resources/DR.BMP,resources/DP.BMP,Door3,0.4375,-0.0625,1,0,0,2.0303,optionRight,70,11305,5,32,0,32,0,1,,,,,,,,,,,,,,,,,,,,,,,,,,,,,,,,,,,,,,,
,,,,,,,592037296b34af0001e3ec56,2023-08-16_08h43.11.913,HF_wild_card,2022.2.4,Win32,60.07449237,592037296b34af0001e3ec56,64d2fd46c836a06233681665,64dc7d03c9d0bce4168bcdec,,,,,,,decisionTrl,resources/DP.BMP,resources/DG.BMP,Door3,-0.485677083,-0.002604167,1,0,0,1.3128,optionLeft,70,11375,5,33,0,33,0,1,,,,,,,,,,,,,,,,,,,,,,,,,,,,,,,,,,,,,,,
,,,,,,,592037296b34af0001e3ec56,2023-08-16_08h43.11.913,HF_wild_card,2022.2.4,Win32,60.07449237,592037296b34af0001e3ec56,64d2fd46c836a06233681665,64dc7d03c9d0bce4168bcdec,,,,,,,decisionTrl,resources/DP.BMP,resources/DR.BMP,Door3,-0.252604167,-0.014322917,1,0,0,1.1409,optionLeft,70,11445,5,34,0,34,0,1,,,,,,,,,,,,,,,,,,,,,,,,,,,,,,,,,,,,,,,
,,,,,,,592037296b34af0001e3ec56,2023-08-16_08h43.11.913,HF_wild_card,2022.2.4,Win32,60.07449237,592037296b34af0001e3ec56,64d2fd46c836a06233681665,64dc7d03c9d0bce4168bcdec,,,,,,,sngl,resources/Empty.png,resources/DG.BMP,WildCard_Ex,0.329427083,0.005208333,1,0,0,0.7021,optionRight,55,11500,5,35,0,35,0,1,,,,,,,,,,,,,,,,,,,,,,,,,,,,,,,,,,,,,,,
,,,,,,,592037296b34af0001e3ec56,2023-08-16_08h43.11.913,HF_wild_card,2022.2.4,Win32,60.07449237,592037296b34af0001e3ec56,64d2fd46c836a06233681665,64dc7d03c9d0bce4168bcdec,,,,,,,decisionTrl,resources/DP.BMP,resources/DR.BMP,Door3,-0.299479167,-0.01953125,1,0,0,1.2267,optionLeft,70,11570,5,36,0,36,0,1,,,,,,,,,,,,,,,,,,,,,,,,,,,,,,,,,,,,,,,
,,,,,,,592037296b34af0001e3ec56,2023-08-16_08h43.11.913,HF_wild_card,2022.2.4,Win32,60.07449237,592037296b34af0001e3ec56,64d2fd46c836a06233681665,64dc7d03c9d0bce4168bcdec,,,,,,,sngl,resources/Empty.png,resources/DG.BMP,WildCard_Ex,0.434895833,0.013020833,1,0,0,0.7505,optionRight,45,11615,5,37,0,37,0,1,,,,,,,,,,,,,,,,,,,,,,,,,,,,,,,,,,,,,,,
,,,,,,,592037296b34af0001e3ec56,2023-08-16_08h43.11.913,HF_wild_card,2022.2.4,Win32,60.07449237,592037296b34af0001e3ec56,64d2fd46c836a06233681665,64dc7d03c9d0bce4168bcdec,,,,,,,decisionTrl,resources/DB.BMP,resources/DBN.BMP,Door1,-0.329427083,-0.037760417,1,0,0,2.3341,optionLeft,30,11645,5,38,0,38,0,1,,,,,,,,,,,,,,,,,,,,,,,,,,,,,,,,,,,,,,,
,,,,,,,592037296b34af0001e3ec56,2023-08-16_08h43.11.913,HF_wild_card,2022.2.4,Win32,60.07449237,592037296b34af0001e3ec56,64d2fd46c836a06233681665,64dc7d03c9d0bce4168bcdec,,,,,,,sngl,resources/Empty.png,resources/DR.BMP,Door4,0.2421875,-0.02734375,1,0,0,0.7783,optionRight,60,11705,5,39,0,39,0,1,,,,,,,,,,,,,,,,,,,,,,,,,,,,,,,,,,,,,,,
,,,,,,,592037296b34af0001e3ec56,2023-08-16_08h43.11.913,HF_wild_card,2022.2.4,Win32,60.07449237,592037296b34af0001e3ec56,64d2fd46c836a06233681665,64dc7d03c9d0bce4168bcdec,,,,,,,sngl,resources/DG.BMP,resources/Empty.png,WildCard_Ex,-0.373697917,-0.029947917,1,0,0,0.6535,optionLeft,55,11760,5,40,0,40,0,1,,,,,,,,,,,,,,,,,,,,,,,,,,,,,,,,,,,,,,,
,,,,,,,592037296b34af0001e3ec56,2023-08-16_08h43.11.913,HF_wild_card,2022.2.4,Win32,60.07449237,592037296b34af0001e3ec56,64d2fd46c836a06233681665,64dc7d03c9d0bce4168bcdec,,,,,,,ctch,resources/DBN.BMP,resources/DP.BMP,Door3,0.305989583,-0.010416667,1,0,0,1.3157,optionRight,70,11830,5,41,0,41,0,1,,,,,,,,,,,,,,,,,,,,,,,,,,,,,,,,,,,,,,,
,,,,,,,592037296b34af0001e3ec56,2023-08-16_08h43.11.913,HF_wild_card,2022.2.4,Win32,60.07449237,592037296b34af0001e3ec56,64d2fd46c836a06233681665,64dc7d03c9d0bce4168bcdec,,,,,,,decisionTrl,resources/DBN.BMP,resources/DB.BMP,Door1,0.442708333,-0.04296875,1,0,0,1.2797,optionRight,30,11860,5,42,0,42,0,1,,,,,,,,,,,,,,,,,,,,,,,,,,,,,,,,,,,,,,,
,,,,,,,592037296b34af0001e3ec56,2023-08-16_08h43.11.913,HF_wild_card,2022.2.4,Win32,60.07449237,592037296b34af0001e3ec56,64d2fd46c836a06233681665,64dc7d03c9d0bce4168bcdec,,,,,,,ctch,resources/DB.BMP,resources/DR.BMP,Door4,0.233072917,-0.026041667,1,0,0,1.2505,optionRight,60,11920,5,43,0,43,0,1,,,,,,,,,,,,,,,,,,,,,,,,,,,,,,,,,,,,,,,
,,,,,,,592037296b34af0001e3ec56,2023-08-16_08h43.11.913,HF_wild_card,2022.2.4,Win32,60.07449237,592037296b34af0001e3ec56,64d2fd46c836a06233681665,64dc7d03c9d0bce4168bcdec,,,,,,,,,,,,,,,,,,,,,,,,,,4,0,4,0,1,,,,,,,,,,,,,,,,,,,,,,,,,,,,,,,,,,
,,,,,,,592037296b34af0001e3ec56,2023-08-16_08h43.11.913,HF_wild_card,2022.2.4,Win32,60.07449237,592037296b34af0001e3ec56,64d2fd46c836a06233681665,64dc7d03c9d0bce4168bcdec,,,,,,,sngl,resources/DR.BMP,resources/Empty.png,Door4,-0.315104167,-0.014322917,1,0,0,0.7386,optionLeft,60,11980,6,0,0,0,0,1,,,,,,,,,,,,,,,,,,,,,,,,,,,,,,,,,,,,,,,
,,,,,,,592037296b34af0001e3ec56,2023-08-16_08h43.11.913,HF_wild_card,2022.2.4,Win32,60.07449237,592037296b34af0001e3ec56,64d2fd46c836a06233681665,64dc7d03c9d0bce4168bcdec,,,,,,,sngl,resources/Empty.png,resources/DG.BMP,WildCard_Ex,0.279947917,0.002604167,1,0,0,0.8512,optionRight,55,12035,6,1,0,1,0,1,,,,,,,,,,,,,,,,,,,,,,,,,,,,,,,,,,,,,,,
,,,,,,,592037296b34af0001e3ec56,2023-08-16_08h43.11.913,HF_wild_card,2022.2.4,Win32,60.07449237,592037296b34af0001e3ec56,64d2fd46c836a06233681665,64dc7d03c9d0bce4168bcdec,,,,,,,decisionTrl,resources/DP.BMP,resources/DG.BMP,Door3,-0.393229167,-0.01171875,1,0,0,1.6421,optionLeft,70,12105,6,2,0,2,0,1,,,,,,,,,,,,,,,,,,,,,,,,,,,,,,,,,,,,,,,
,,,,,,,592037296b34af0001e3ec56,2023-08-16_08h43.11.913,HF_wild_card,2022.2.4,Win32,60.07449237,592037296b34af0001e3ec56,64d2fd46c836a06233681665,64dc7d03c9d0bce4168bcdec,,,,,,,decisionTrl,resources/DR.BMP,resources/DP.BMP,Door3,0.375,0.006510417,1,0,0,0.765,optionRight,70,12175,6,3,0,3,0,1,,,,,,,,,,,,,,,,,,,,,,,,,,,,,,,,,,,,,,,
,,,,,,,592037296b34af0001e3ec56,2023-08-16_08h43.11.913,HF_wild_card,2022.2.4,Win32,60.07449237,592037296b34af0001e3ec56,64d2fd46c836a06233681665,64dc7d03c9d0bce4168bcdec,,,,,,,ctch,resources/DP.BMP,resources/DBN.BMP,Door3,-0.41796875,-0.013020833,1,0,0,1.0256,optionLeft,70,12245,6,4,0,4,0,1,,,,,,,,,,,,,,,,,,,,,,,,,,,,,,,,,,,,,,,
,,,,,,,592037296b34af0001e3ec56,2023-08-16_08h43.11.913,HF_wild_card,2022.2.4,Win32,60.07449237,592037296b34af0001e3ec56,64d2fd46c836a06233681665,64dc7d03c9d0bce4168bcdec,,,,,,,decisionTrl,resources/DG.BMP,resources/DR.BMP,Door4,0.182291667,-0.01171875,1,0,0,1.0183,optionRight,60,12305,6,5,0,5,0,1,,,,,,,,,,,,,,,,,,,,,,,,,,,,,,,,,,,,,,,
,,,,,,,592037296b34af0001e3ec56,2023-08-16_08h43.11.913,HF_wild_card,2022.2.4,Win32,60.07449237,592037296b34af0001e3ec56,64d2fd46c836a06233681665,64dc7d03c9d0bce4168bcdec,,,,,,,decisionTrl,resources/DG.BMP,resources/DP.BMP,Door3,0.424479167,-0.009114583,1,0,0,1.4247,optionRight,70,12375,6,6,0,6,0,1,,,,,,,,,,,,,,,,,,,,,,,,,,,,,,,,,,,,,,,
,,,,,,,592037296b34af0001e3ec56,2023-08-16_08h43.11.913,HF_wild_card,2022.2.4,Win32,60.07449237,592037296b34af0001e3ec56,64d2fd46c836a06233681665,64dc7d03c9d0bce4168bcdec,,,,,,,ctch,resources/DB.BMP,resources/DR.BMP,Door4,0.282552083,-0.005208333,1,0,0,0.9898,optionRight,80,12455,6,7,0,7,0,1,,,,,,,,,,,,,,,,,,,,,,,,,,,,,,,,,,,,,,,
,,,,,,,592037296b34af0001e3ec56,2023-08-16_08h43.11.913,HF_wild_card,2022.2.4,Win32,60.07449237,592037296b34af0001e3ec56,64d2fd46c836a06233681665,64dc7d03c9d0bce4168bcdec,,,,,,,decisionTrl,resources/DP.BMP,resources/DR.BMP,Door3,-0.264322917,-0.014322917,1,0,0,2.0343,optionLeft,70,12525,6,8,0,8,0,1,,,,,,,,,,,,,,,,,,,,,,,,,,,,,,,,,,,,,,,
,,,,,,,592037296b34af0001e3ec56,2023-08-16_08h43.11.913,HF_wild_card,2022.2.4,Win32,60.07449237,592037296b34af0001e3ec56,64d2fd46c836a06233681665,64dc7d03c9d0bce4168bcdec,,,,,,,ctch,resources/DR.BMP,resources/DB.BMP,Door4,-0.294270833,0,1,0,0,1.4378,optionLeft,60,12585,6,9,0,9,0,1,,,,,,,,,,,,,,,,,,,,,,,,,,,,,,,,,,,,,,,
,,,,,,,592037296b34af0001e3ec56,2023-08-16_08h43.11.913,HF_wild_card,2022.2.4,Win32,60.07449237,592037296b34af0001e3ec56,64d2fd46c836a06233681665,64dc7d03c9d0bce4168bcdec,,,,,,,ctch,resources/DR.BMP,resources/DB.BMP,Door4,-0.34765625,-0.006510417,1,0,0,1.0224,optionLeft,60,12645,6,10,0,10,0,1,,,,,,,,,,,,,,,,,,,,,,,,,,,,,,,,,,,,,,,
,,,,,,,592037296b34af0001e3ec56,2023-08-16_08h43.11.913,HF_wild_card,2022.2.4,Win32,60.07449237,592037296b34af0001e3ec56,64d2fd46c836a06233681665,64dc7d03c9d0bce4168bcdec,,,,,,,decisionTrl,resources/DP.BMP,resources/DR.BMP,Door3,-0.227864583,-0.0390625,1,0,0,1.2229,optionLeft,70,12715,6,11,0,11,0,1,,,,,,,,,,,,,,,,,,,,,,,,,,,,,,,,,,,,,,,
,,,,,,,592037296b34af0001e3ec56,2023-08-16_08h43.11.913,HF_wild_card,2022.2.4,Win32,60.07449237,592037296b34af0001e3ec56,64d2fd46c836a06233681665,64dc7d03c9d0bce4168bcdec,,,,,,,sngl,resources/Empty.png,resources/DG.BMP,WildCard_Ex,0.38671875,-0.005208333,1,0,0,0.6977,optionRight,45,12760,6,12,0,12,0,1,,,,,,,,,,,,,,,,,,,,,,,,,,,,,,,,,,,,,,,
,,,,,,,592037296b34af0001e3ec56,2023-08-16_08h43.11.913,HF_wild_card,2022.2.4,Win32,60.07449237,592037296b34af0001e3ec56,64d2fd46c836a06233681665,64dc7d03c9d0bce4168bcdec,,,,,,,sngl,resources/DBN.BMP,resources/Empty.png,Door2,-0.298177083,-0.015625,1,0,0,0.8147,optionLeft,20,12780,6,13,0,13,0,1,,,,,,,,,,,,,,,,,,,,,,,,,,,,,,,,,,,,,,,
,,,,,,,592037296b34af0001e3ec56,2023-08-16_08h43.11.913,HF_wild_card,2022.2.4,Win32,60.07449237,592037296b34af0001e3ec56,64d2fd46c836a06233681665,64dc7d03c9d0bce4168bcdec,,,,,,,sngl,resources/Empty.png,resources/DB.BMP,Door1,0.291666667,-0.006510417,1,0,0,0.6602,optionRight,30,12810,6,14,0,14,0,1,,,,,,,,,,,,,,,,,,,,,,,,,,,,,,,,,,,,,,,
,,,,,,,592037296b34af0001e3ec56,2023-08-16_08h43.11.913,HF_wild_card,2022.2.4,Win32,60.07449237,592037296b34af0001e3ec56,64d2fd46c836a06233681665,64dc7d03c9d0bce4168bcdec,,,,,,,decisionTrl,resources/DB.BMP,resources/DBN.BMP,Door1,-0.3515625,-0.026041667,1,0,0,1.1434,optionLeft,30,12840,6,15,0,15,0,1,,,,,,,,,,,,,,,,,,,,,,,,,,,,,,,,,,,,,,,
,,,,,,,592037296b34af0001e3ec56,2023-08-16_08h43.11.913,HF_wild_card,2022.2.4,Win32,60.07449237,592037296b34af0001e3ec56,64d2fd46c836a06233681665,64dc7d03c9d0bce4168bcdec,,,,,,,decisionTrl,resources/DG.BMP,resources/DB.BMP,WildCard_Ex,-0.26171875,-0.006510417,1,0,0,1.67,optionLeft,55,12895,6,16,0,16,0,1,,,,,,,,,,,,,,,,,,,,,,,,,,,,,,,,,,,,,,,
,,,,,,,592037296b34af0001e3ec56,2023-08-16_08h43.11.913,HF_wild_card,2022.2.4,Win32,60.07449237,592037296b34af0001e3ec56,64d2fd46c836a06233681665,64dc7d03c9d0bce4168bcdec,,,,,,,decisionTrl,resources/DP.BMP,resources/DR.BMP,Door3,-0.229166667,-0.024739583,1,0,0,1.1708,optionLeft,70,12965,6,17,0,17,0,1,,,,,,,,,,,,,,,,,,,,,,,,,,,,,,,,,,,,,,,
,,,,,,,592037296b34af0001e3ec56,2023-08-16_08h43.11.913,HF_wild_card,2022.2.4,Win32,60.07449237,592037296b34af0001e3ec56,64d2fd46c836a06233681665,64dc7d03c9d0bce4168bcdec,,,,,,,sngl,resources/DP.BMP,resources/Empty.png,Door3,-0.252604167,-0.018229167,1,0,0,0.5812,optionLeft,70,13035,6,18,0,18,0,1,,,,,,,,,,,,,,,,,,,,,,,,,,,,,,,,,,,,,,,
,,,,,,,592037296b34af0001e3ec56,2023-08-16_08h43.11.913,HF_wild_card,2022.2.4,Win32,60.07449237,592037296b34af0001e3ec56,64d2fd46c836a06233681665,64dc7d03c9d0bce4168bcdec,,,,,,,decisionTrl,resources/DR.BMP,resources/DP.BMP,Door3,0.161458333,-0.033854167,1,0,0,1.02,optionRight,70,13105,6,19,0,19,0,1,,,,,,,,,,,,,,,,,,,,,,,,,,,,,,,,,,,,,,,
,,,,,,,592037296b34af0001e3ec56,2023-08-16_08h43.11.913,HF_wild_card,2022.2.4,Win32,60.07449237,592037296b34af0001e3ec56,64d2fd46c836a06233681665,64dc7d03c9d0bce4168bcdec,,,,,,,ctch,resources/DBN.BMP,resources/DP.BMP,Door3,0.375,-0.049479167,1,0,0,0.9954,optionRight,70,13175,6,20,0,20,0,1,,,,,,,,,,,,,,,,,,,,,,,,,,,,,,,,,,,,,,,
,,,,,,,592037296b34af0001e3ec56,2023-08-16_08h43.11.913,HF_wild_card,2022.2.4,Win32,60.07449237,592037296b34af0001e3ec56,64d2fd46c836a06233681665,64dc7d03c9d0bce4168bcdec,,,,,,,decisionTrl,resources/DBN.BMP,resources/DG.BMP,WildCard_Ex,0.270833333,-0.01953125,1,0,0,1.2029,optionRight,45,13220,6,21,0,21,0,1,,,,,,,,,,,,,,,,,,,,,,,,,,,,,,,,,,,,,,,
,,,,,,,592037296b34af0001e3ec56,2023-08-16_08h43.11.913,HF_wild_card,2022.2.4,Win32,60.07449237,592037296b34af0001e3ec56,64d2fd46c836a06233681665,64dc7d03c9d0bce4168bcdec,,,,,,,decisionTrl,resources/DBN.BMP,resources/DB.BMP,Door1,0.372395833,0.0234375,1,0,0,1.7803,optionRight,30,13250,6,22,0,22,0,1,,,,,,,,,,,,,,,,,,,,,,,,,,,,,,,,,,,,,,,
,,,,,,,592037296b34af0001e3ec56,2023-08-16_08h43.11.913,HF_wild_card,2022.2.4,Win32,60.07449237,592037296b34af0001e3ec56,64d2fd46c836a06233681665,64dc7d03c9d0bce4168bcdec,,,,,,,sngl,resources/DG.BMP,resources/Empty.png,WildCard_Ex,-0.282552083,0.00390625,1,0,0,0.9085,optionLeft,45,13295,6,23,0,23,0,1,,,,,,,,,,,,,,,,,,,,,,,,,,,,,,,,,,,,,,,
,,,,,,,592037296b34af0001e3ec56,2023-08-16_08h43.11.913,HF_wild_card,2022.2.4,Win32,60.07449237,592037296b34af0001e3ec56,64d2fd46c836a06233681665,64dc7d03c9d0bce4168bcdec,,,,,,,decisionTrl,resources/DB.BMP,resources/DBN.BMP,Door2,0.415364583,-0.083333333,1,0,0,6.0497,optionRight,40,13335,6,24,0,24,0,1,,,,,,,,,,,,,,,,,,,,,,,,,,,,,,,,,,,,,,,
,,,,,,,592037296b34af0001e3ec56,2023-08-16_08h43.11.913,HF_wild_card,2022.2.4,Win32,60.07449237,592037296b34af0001e3ec56,64d2fd46c836a06233681665,64dc7d03c9d0bce4168bcdec,,,,,,,decisionTrl,resources/DG.BMP,resources/DBN.BMP,WildCard_Ex,-0.411458333,-0.096354167,1,0,0,2.0109,optionLeft,55,13390,6,25,0,25,0,1,,,,,,,,,,,,,,,,,,,,,,,,,,,,,,,,,,,,,,,
,,,,,,,592037296b34af0001e3ec56,2023-08-16_08h43.11.913,HF_wild_card,2022.2.4,Win32,60.07449237,592037296b34af0001e3ec56,64d2fd46c836a06233681665,64dc7d03c9d0bce4168bcdec,,,,,,,sngl,resources/DG.BMP,resources/Empty.png,WildCard_Ex,-0.239583333,-0.079427083,1,0,0,0.9299,optionLeft,55,13445,6,26,0,26,0,1,,,,,,,,,,,,,,,,,,,,,,,,,,,,,,,,,,,,,,,
,,,,,,,592037296b34af0001e3ec56,2023-08-16_08h43.11.913,HF_wild_card,2022.2.4,Win32,60.07449237,592037296b34af0001e3ec56,64d2fd46c836a06233681665,64dc7d03c9d0bce4168bcdec,,,,,,,ctch,resources/DP.BMP,resources/DBN.BMP,Door3,-0.16015625,-0.0625,1,0,0,1.3586,optionLeft,70,13515,6,27,0,27,0,1,,,,,,,,,,,,,,,,,,,,,,,,,,,,,,,,,,,,,,,
,,,,,,,592037296b34af0001e3ec56,2023-08-16_08h43.11.913,HF_wild_card,2022.2.4,Win32,60.07449237,592037296b34af0001e3ec56,64d2fd46c836a06233681665,64dc7d03c9d0bce4168bcdec,,,,,,,sngl,resources/DB.BMP,resources/Empty.png,Door1,-0.3046875,-0.0703125,1,0,0,0.7718,optionLeft,30,13545,6,28,0,28,0,1,,,,,,,,,,,,,,,,,,,,,,,,,,,,,,,,,,,,,,,
,,,,,,,592037296b34af0001e3ec56,2023-08-16_08h43.11.913,HF_wild_card,2022.2.4,Win32,60.07449237,592037296b34af0001e3ec56,64d2fd46c836a06233681665,64dc7d03c9d0bce4168bcdec,,,,,,,sngl,resources/Empty.png,resources/DR.BMP,Door4,0.30859375,0.029947917,1,0,0,0.7983,optionRight,80,13625,6,29,0,29,0,1,,,,,,,,,,,,,,,,,,,,,,,,,,,,,,,,,,,,,,,
,,,,,,,592037296b34af0001e3ec56,2023-08-16_08h43.11.913,HF_wild_card,2022.2.4,Win32,60.07449237,592037296b34af0001e3ec56,64d2fd46c836a06233681665,64dc7d03c9d0bce4168bcdec,,,,,,,decisionTrl,resources/DBN.BMP,resources/DB.BMP,Door2,-0.25390625,-0.036458333,1,0,0,1.2615,optionLeft,40,13665,6,30,0,30,0,1,,,,,,,,,,,,,,,,,,,,,,,,,,,,,,,,,,,,,,,
,,,,,,,592037296b34af0001e3ec56,2023-08-16_08h43.11.913,HF_wild_card,2022.2.4,Win32,60.07449237,592037296b34af0001e3ec56,64d2fd46c836a06233681665,64dc7d03c9d0bce4168bcdec,,,,,,,decisionTrl,resources/DR.BMP,resources/DP.BMP,Door3,0.32421875,-0.024739583,1,0,0,2.8058,optionRight,70,13735,6,31,0,31,0,1,,,,,,,,,,,,,,,,,,,,,,,,,,,,,,,,,,,,,,,
,,,,,,,592037296b34af0001e3ec56,2023-08-16_08h43.11.913,HF_wild_card,2022.2.4,Win32,60.07449237,592037296b34af0001e3ec56,64d2fd46c836a06233681665,64dc7d03c9d0bce4168bcdec,,,,,,,decisionTrl,resources/DB.BMP,resources/DBN.BMP,Door2,0.2421875,-0.028645833,1,0,0,1.7187,optionRight,20,13755,6,32,0,32,0,1,,,,,,,,,,,,,,,,,,,,,,,,,,,,,,,,,,,,,,,
,,,,,,,592037296b34af0001e3ec56,2023-08-16_08h43.11.913,HF_wild_card,2022.2.4,Win32,60.07449237,592037296b34af0001e3ec56,64d2fd46c836a06233681665,64dc7d03c9d0bce4168bcdec,,,,,,,ctch,resources/DB.BMP,resources/DR.BMP,Door4,0.326822917,-0.01953125,1,0,0,1.2618,optionRight,60,13815,6,33,0,33,0,1,,,,,,,,,,,,,,,,,,,,,,,,,,,,,,,,,,,,,,,
,,,,,,,592037296b34af0001e3ec56,2023-08-16_08h43.11.913,HF_wild_card,2022.2.4,Win32,60.07449237,592037296b34af0001e3ec56,64d2fd46c836a06233681665,64dc7d03c9d0bce4168bcdec,,,,,,,decisionTrl,resources/DR.BMP,resources/DG.BMP,Door4,-0.204427083,-0.02734375,1,0,0,1.2141,optionLeft,80,13895,6,34,0,34,0,1,,,,,,,,,,,,,,,,,,,,,,,,,,,,,,,,,,,,,,,
,,,,,,,592037296b34af0001e3ec56,2023-08-16_08h43.11.913,HF_wild_card,2022.2.4,Win32,60.07449237,592037296b34af0001e3ec56,64d2fd46c836a06233681665,64dc7d03c9d0bce4168bcdec,,,,,,,decisionTrl,resources/DB.BMP,resources/DBN.BMP,Door1,-0.319010417,-0.0546875,1,0,0,1.34,optionLeft,30,13925,6,35,0,35,0,1,,,,,,,,,,,,,,,,,,,,,,,,,,,,,,,,,,,,,,,
,,,,,,,592037296b34af0001e3ec56,2023-08-16_08h43.11.913,HF_wild_card,2022.2.4,Win32,60.07449237,592037296b34af0001e3ec56,64d2fd46c836a06233681665,64dc7d03c9d0bce4168bcdec,,,,,,,decisionTrl,resources/DR.BMP,resources/DP.BMP,Door3,0.180989583,-0.040364583,1,0,0,2.6505,optionRight,70,13995,6,36,0,36,0,1,,,,,,,,,,,,,,,,,,,,,,,,,,,,,,,,,,,,,,,
,,,,,,,592037296b34af0001e3ec56,2023-08-16_08h43.11.913,HF_wild_card,2022.2.4,Win32,60.07449237,592037296b34af0001e3ec56,64d2fd46c836a06233681665,64dc7d03c9d0bce4168bcdec,,,,,,,decisionTrl,resources/DBN.BMP,resources/DB.BMP,Door1,0.272135417,-0.0078125,1,0,0,1.8704,optionRight,30,14025,6,37,0,37,0,1,,,,,,,,,,,,,,,,,,,,,,,,,,,,,,,,,,,,,,,
,,,,,,,592037296b34af0001e3ec56,2023-08-16_08h43.11.913,HF_wild_card,2022.2.4,Win32,60.07449237,592037296b34af0001e3ec56,64d2fd46c836a06233681665,64dc7d03c9d0bce4168bcdec,,,,,,,decisionTrl,resources/DBN.BMP,resources/DB.BMP,Door1,0.345052083,0.02734375,1,0,0,2.5393,optionRight,30,14055,6,38,0,38,0,1,,,,,,,,,,,,,,,,,,,,,,,,,,,,,,,,,,,,,,,
,,,,,,,592037296b34af0001e3ec56,2023-08-16_08h43.11.913,HF_wild_card,2022.2.4,Win32,60.07449237,592037296b34af0001e3ec56,64d2fd46c836a06233681665,64dc7d03c9d0bce4168bcdec,,,,,,,decisionTrl,resources/DP.BMP,resources/DR.BMP,Door4,0.390625,0.037760417,1,0,0,5.731,optionRight,60,14115,6,39,0,39,0,1,,,,,,,,,,,,,,,,,,,,,,,,,,,,,,,,,,,,,,,
,,,,,,,592037296b34af0001e3ec56,2023-08-16_08h43.11.913,HF_wild_card,2022.2.4,Win32,60.07449237,592037296b34af0001e3ec56,64d2fd46c836a06233681665,64dc7d03c9d0bce4168bcdec,,,,,,,sngl,resources/Empty.png,resources/DP.BMP,Door3,0.333333333,0.026041667,1,0,0,0.6782,optionRight,70,14185,6,40,0,40,0,1,,,,,,,,,,,,,,,,,,,,,,,,,,,,,,,,,,,,,,,
,,,,,,,592037296b34af0001e3ec56,2023-08-16_08h43.11.913,HF_wild_card,2022.2.4,Win32,60.07449237,592037296b34af0001e3ec56,64d2fd46c836a06233681665,64dc7d03c9d0bce4168bcdec,,,,,,,decisionTrl,resources/DB.BMP,resources/DG.BMP,WildCard_Ex,0.37109375,-0.026041667,1,0,0,1.0943,optionRight,45,14230,6,41,0,41,0,1,,,,,,,,,,,,,,,,,,,,,,,,,,,,,,,,,,,,,,,
,,,,,,,592037296b34af0001e3ec56,2023-08-16_08h43.11.913,HF_wild_card,2022.2.4,Win32,60.07449237,592037296b34af0001e3ec56,64d2fd46c836a06233681665,64dc7d03c9d0bce4168bcdec,,,,,,,ctch,resources/DBN.BMP,resources/DP.BMP,Door3,0.260416667,-0.009114583,1,0,0,1.5724,optionRight,70,14300,6,42,0,42,0,1,,,,,,,,,,,,,,,,,,,,,,,,,,,,,,,,,,,,,,,
,,,,,,,592037296b34af0001e3ec56,2023-08-16_08h43.11.913,HF_wild_card,2022.2.4,Win32,60.07449237,592037296b34af0001e3ec56,64d2fd46c836a06233681665,64dc7d03c9d0bce4168bcdec,,,,,,,sngl,resources/Empty.png,resources/DBN.BMP,Door2,0.309895833,-0.001302083,1,0,0,0.9453,optionRight,40,14340,6,43,0,43,0,1,,,,,,,,,,,,,,,,,,,,,,,,,,,,,,,,,,,,,,,
,,,,,,,592037296b34af0001e3ec56,2023-08-16_08h43.11.913,HF_wild_card,2022.2.4,Win32,60.07449237,592037296b34af0001e3ec56,64d2fd46c836a06233681665,64dc7d03c9d0bce4168bcdec,,,,,,,,,,,,,,,,,,,,,,,,,,5,0,5,0,1,,,,,,,,,,,,,,,,,,,,,,,,,,,,,,,,,,
,,,,,,,592037296b34af0001e3ec56,2023-08-16_08h43.11.913,HF_wild_card,2022.2.4,Win32,60.07449237,592037296b34af0001e3ec56,64d2fd46c836a06233681665,64dc7d03c9d0bce4168bcdec,,,,,,,decisionTrl,resources/DBN.BMP,resources/DB.BMP,Door1,0.282552083,-0.084635417,1,0,0,2.8129,optionRight,30,14370,7,0,0,0,0,1,,,,,,,,,,,,,,,,,,,,,,,,,,,,,,,,,,,,,,,
,,,,,,,592037296b34af0001e3ec56,2023-08-16_08h43.11.913,HF_wild_card,2022.2.4,Win32,60.07449237,592037296b34af0001e3ec56,64d2fd46c836a06233681665,64dc7d03c9d0bce4168bcdec,,,,,,,decisionTrl,resources/DP.BMP,resources/DR.BMP,Door3,-0.266927083,-0.069010417,1,0,0,2.0466,optionLeft,70,14440,7,1,0,1,0,1,,,,,,,,,,,,,,,,,,,,,,,,,,,,,,,,,,,,,,,
,,,,,,,592037296b34af0001e3ec56,2023-08-16_08h43.11.913,HF_wild_card,2022.2.4,Win32,60.07449237,592037296b34af0001e3ec56,64d2fd46c836a06233681665,64dc7d03c9d0bce4168bcdec,,,,,,,decisionTrl,resources/DBN.BMP,resources/DB.BMP,Door2,-0.203125,-0.001302083,1,0,0,2.9647,optionLeft,40,14480,7,2,0,2,0,1,,,,,,,,,,,,,,,,,,,,,,,,,,,,,,,,,,,,,,,
,,,,,,,592037296b34af0001e3ec56,2023-08-16_08h43.11.913,HF_wild_card,2022.2.4,Win32,60.07449237,592037296b34af0001e3ec56,64d2fd46c836a06233681665,64dc7d03c9d0bce4168bcdec,,,,,,,decisionTrl,resources/DB.BMP,resources/DBN.BMP,Door1,-0.216145833,-0.032552083,1,0,0,1.0388,optionLeft,30,14510,7,3,0,3,0,1,,,,,,,,,,,,,,,,,,,,,,,,,,,,,,,,,,,,,,,
,,,,,,,592037296b34af0001e3ec56,2023-08-16_08h43.11.913,HF_wild_card,2022.2.4,Win32,60.07449237,592037296b34af0001e3ec56,64d2fd46c836a06233681665,64dc7d03c9d0bce4168bcdec,,,,,,,decisionTrl,resources/DP.BMP,resources/DR.BMP,Door3,-0.294270833,-0.040364583,1,0,0,1.5308,optionLeft,70,14580,7,4,0,4,0,1,,,,,,,,,,,,,,,,,,,,,,,,,,,,,,,,,,,,,,,
,,,,,,,592037296b34af0001e3ec56,2023-08-16_08h43.11.913,HF_wild_card,2022.2.4,Win32,60.07449237,592037296b34af0001e3ec56,64d2fd46c836a06233681665,64dc7d03c9d0bce4168bcdec,,,,,,,decisionTrl,resources/DB.BMP,resources/DBN.BMP,Door1,-0.373697917,-0.03125,1,0,0,2.3979,optionLeft,30,14610,7,5,0,5,0,1,,,,,,,,,,,,,,,,,,,,,,,,,,,,,,,,,,,,,,,
,,,,,,,592037296b34af0001e3ec56,2023-08-16_08h43.11.913,HF_wild_card,2022.2.4,Win32,60.07449237,592037296b34af0001e3ec56,64d2fd46c836a06233681665,64dc7d03c9d0bce4168bcdec,,,,,,,ctch,resources/DBN.BMP,resources/DP.BMP,Door3,0.328125,-0.02734375,1,0,0,1.1177,optionRight,70,14680,7,6,0,6,0,1,,,,,,,,,,,,,,,,,,,,,,,,,,,,,,,,,,,,,,,
,,,,,,,592037296b34af0001e3ec56,2023-08-16_08h43.11.913,HF_wild_card,2022.2.4,Win32,60.07449237,592037296b34af0001e3ec56,64d2fd46c836a06233681665,64dc7d03c9d0bce4168bcdec,,,,,,,decisionTrl,resources/DBN.BMP,resources/DB.BMP,Door1,0.272135417,0.013020833,1,0,0,1.868,optionRight,30,14710,7,7,0,7,0,1,,,,,,,,,,,,,,,,,,,,,,,,,,,,,,,,,,,,,,,
,,,,,,,592037296b34af0001e3ec56,2023-08-16_08h43.11.913,HF_wild_card,2022.2.4,Win32,60.07449237,592037296b34af0001e3ec56,64d2fd46c836a06233681665,64dc7d03c9d0bce4168bcdec,,,,,,,ctch,resources/DP.BMP,resources/DBN.BMP,Door3,-0.295572917,-0.03515625,1,0,0,1.1012,optionLeft,70,14780,7,8,0,8,0,1,,,,,,,,,,,,,,,,,,,,,,,,,,,,,,,,,,,,,,,
,,,,,,,592037296b34af0001e3ec56,2023-08-16_08h43.11.913,HF_wild_card,2022.2.4,Win32,60.07449237,592037296b34af0001e3ec56,64d2fd46c836a06233681665,64dc7d03c9d0bce4168bcdec,,,,,,,ctch,resources/DP.BMP,resources/DBN.BMP,Door3,-0.23828125,-0.041666667,1,0,0,1.037,optionLeft,70,14850,7,9,0,9,0,1,,,,,,,,,,,,,,,,,,,,,,,,,,,,,,,,,,,,,,,
,,,,,,,592037296b34af0001e3ec56,2023-08-16_08h43.11.913,HF_wild_card,2022.2.4,Win32,60.07449237,592037296b34af0001e3ec56,64d2fd46c836a06233681665,64dc7d03c9d0bce4168bcdec,,,,,,,decisionTrl,resources/DR.BMP,resources/DP.BMP,Door3,0.3359375,-0.024739583,1,0,0,1.1042,optionRight,70,14920,7,10,0,10,0,1,,,,,,,,,,,,,,,,,,,,,,,,,,,,,,,,,,,,,,,
,,,,,,,592037296b34af0001e3ec56,2023-08-16_08h43.11.913,HF_wild_card,2022.2.4,Win32,60.07449237,592037296b34af0001e3ec56,64d2fd46c836a06233681665,64dc7d03c9d0bce4168bcdec,,,,,,,decisionTrl,resources/DBN.BMP,resources/DB.BMP,Door2,-0.158854167,-0.033854167,1,0,0,1.9154,optionLeft,20,14940,7,11,0,11,0,1,,,,,,,,,,,,,,,,,,,,,,,,,,,,,,,,,,,,,,,
,,,,,,,592037296b34af0001e3ec56,2023-08-16_08h43.11.913,HF_wild_card,2022.2.4,Win32,60.07449237,592037296b34af0001e3ec56,64d2fd46c836a06233681665,64dc7d03c9d0bce4168bcdec,,,,,,,ctch,resources/DR.BMP,resources/DB.BMP,Door4,-0.239583333,-0.022135417,1,0,0,1.0338,optionLeft,60,15000,7,12,0,12,0,1,,,,,,,,,,,,,,,,,,,,,,,,,,,,,,,,,,,,,,,
,,,,,,,592037296b34af0001e3ec56,2023-08-16_08h43.11.913,HF_wild_card,2022.2.4,Win32,60.07449237,592037296b34af0001e3ec56,64d2fd46c836a06233681665,64dc7d03c9d0bce4168bcdec,,,,,,,decisionTrl,resources/DBN.BMP,resources/DB.BMP,Door1,0.28125,-0.01171875,1,0,0,1.6993,optionRight,30,15030,7,13,0,13,0,1,,,,,,,,,,,,,,,,,,,,,,,,,,,,,,,,,,,,,,,
,,,,,,,592037296b34af0001e3ec56,2023-08-16_08h43.11.913,HF_wild_card,2022.2.4,Win32,60.07449237,592037296b34af0001e3ec56,64d2fd46c836a06233681665,64dc7d03c9d0bce4168bcdec,,,,,,,ctch,resources/DB.BMP,resources/DR.BMP,Door4,0.272135417,0.001302083,1,0,0,1.4103,optionRight,60,15090,7,14,0,14,0,1,,,,,,,,,,,,,,,,,,,,,,,,,,,,,,,,,,,,,,,
,,,,,,,592037296b34af0001e3ec56,2023-08-16_08h43.11.913,HF_wild_card,2022.2.4,Win32,60.07449237,592037296b34af0001e3ec56,64d2fd46c836a06233681665,64dc7d03c9d0bce4168bcdec,,,,,,,ctch,resources/DB.BMP,resources/DR.BMP,Door4,0.291666667,0.005208333,1,0,0,1.011,optionRight,80,15170,7,15,0,15,0,1,,,,,,,,,,,,,,,,,,,,,,,,,,,,,,,,,,,,,,,
,,,,,,,592037296b34af0001e3ec56,2023-08-16_08h43.11.913,HF_wild_card,2022.2.4,Win32,60.07449237,592037296b34af0001e3ec56,64d2fd46c836a06233681665,64dc7d03c9d0bce4168bcdec,,,,,,,ctch,resources/DP.BMP,resources/DBN.BMP,Door3,-0.272135417,-0.020833333,1,0,0,1.3516,optionLeft,70,15240,7,16,0,16,0,1,,,,,,,,,,,,,,,,,,,,,,,,,,,,,,,,,,,,,,,
,,,,,,,592037296b34af0001e3ec56,2023-08-16_08h43.11.913,HF_wild_card,2022.2.4,Win32,60.07449237,592037296b34af0001e3ec56,64d2fd46c836a06233681665,64dc7d03c9d0bce4168bcdec,,,,,,,decisionTrl,resources/DB.BMP,resources/DBN.BMP,Door1,-0.213541667,-0.055989583,1,0,0,1.3926,optionLeft,30,15270,7,17,0,17,0,1,,,,,,,,,,,,,,,,,,,,,,,,,,,,,,,,,,,,,,,
,,,,,,,592037296b34af0001e3ec56,2023-08-16_08h43.11.913,HF_wild_card,2022.2.4,Win32,60.07449237,592037296b34af0001e3ec56,64d2fd46c836a06233681665,64dc7d03c9d0bce4168bcdec,,,,,,,decisionTrl,resources/DR.BMP,resources/DP.BMP,Door3,0.234375,0.006510417,1,0,0,1.4598,optionRight,70,15340,7,18,0,18,0,1,,,,,,,,,,,,,,,,,,,,,,,,,,,,,,,,,,,,,,,
,,,,,,,592037296b34af0001e3ec56,2023-08-16_08h43.11.913,HF_wild_card,2022.2.4,Win32,60.07449237,592037296b34af0001e3ec56,64d2fd46c836a06233681665,64dc7d03c9d0bce4168bcdec,,,,,,,ctch,resources/DBN.BMP,resources/DP.BMP,Door3,0.37109375,0.0234375,1,0,0,0.9006,optionRight,70,15410,7,19,0,19,0,1,,,,,,,,,,,,,,,,,,,,,,,,,,,,,,,,,,,,,,,
,,,,,,,592037296b34af0001e3ec56,2023-08-16_08h43.11.913,HF_wild_card,2022.2.4,Win32,60.07449237,592037296b34af0001e3ec56,64d2fd46c836a06233681665,64dc7d03c9d0bce4168bcdec,,,,,,,decisionTrl,resources/DR.BMP,resources/DP.BMP,Door3,0.376302083,0.033854167,1,0,0,1.1187,optionRight,70,15480,7,20,0,20,0,1,,,,,,,,,,,,,,,,,,,,,,,,,,,,,,,,,,,,,,,
,,,,,,,592037296b34af0001e3ec56,2023-08-16_08h43.11.913,HF_wild_card,2022.2.4,Win32,60.07449237,592037296b34af0001e3ec56,64d2fd46c836a06233681665,64dc7d03c9d0bce4168bcdec,,,,,,,decisionTrl,resources/DP.BMP,resources/DR.BMP,Door3,-0.204427083,0.005208333,1,0,0,0.9855,optionLeft,70,15550,7,21,0,21,0,1,,,,,,,,,,,,,,,,,,,,,,,,,,,,,,,,,,,,,,,
